"success","trial_type","trial_index","time_elapsed","internal_node_id","assignmentID","mturkID","hitID","view_history","rt","stimulus","key_press","reactionTime","a","r","warning","s","cond","reward_cond","reward_cond_actual","reward_matrix_idx","responses"
"true","fullscreen","0","4732","0.0-0.0","36U2A8VAG2LAOCK0AGP904Y4T91KY5","A37QFZ8I1TGH2C","3XT3KXP24ZKFDDMCDS43FE3AU9W6IW","","","","","","","","","","","","","",""
"","instructions","1","29206","0.0-1.0","36U2A8VAG2LAOCK0AGP904Y4T91KY5","A37QFZ8I1TGH2C","3XT3KXP24ZKFDDMCDS43FE3AU9W6IW","[{""page_index"":0,""viewing_time"":1680.6000000238419},{""page_index"":1,""viewing_time"":1583},{""page_index"":2,""viewing_time"":3269},{""page_index"":3,""viewing_time"":8351.800000011921},{""page_index"":4,""viewing_time"":5953.899999976158},{""page_index"":5,""viewing_time"":1706.1000000238419},{""page_index"":6,""viewing_time"":1925.8999999761581}]","24470.700000047684","","","","","","","","","","","",""
"","instructions","2","43778","0.0-2.0","36U2A8VAG2LAOCK0AGP904Y4T91KY5","A37QFZ8I1TGH2C","3XT3KXP24ZKFDDMCDS43FE3AU9W6IW","[{""page_index"":0,""viewing_time"":12174.700000047684},{""page_index"":1,""viewing_time"":2396.199999988079}]","14571.300000011921","","","","","","","","","","","",""
"","image-keyboard-response","3","44475","0.0-3.0","36U2A8VAG2LAOCK0AGP904Y4T91KY5","A37QFZ8I1TGH2C","3XT3KXP24ZKFDDMCDS43FE3AU9W6IW","","696","img/food5.png","75","697.6000000238419","2","1","false","2","2","1,0.5,0,1,0.5,0,0.5,0,1","0,1,0.5,0,1,0.5,1,0.5,0","3",""
"","html-keyboard-response","4","44779","0.0-4.0","36U2A8VAG2LAOCK0AGP904Y4T91KY5","A37QFZ8I1TGH2C","3XT3KXP24ZKFDDMCDS43FE3AU9W6IW","","null","<img src=""img/food5.png"" style=""width:200px; border:14px solid green;"">","null","","","","","","","","","",""
"","image-keyboard-response","5","45282","0.0-6.0","36U2A8VAG2LAOCK0AGP904Y4T91KY5","A37QFZ8I1TGH2C","3XT3KXP24ZKFDDMCDS43FE3AU9W6IW","","501.7999999523163","img/food4.png","75","502.69999998807907","2","1","false","1","2","1,0.5,0,1,0.5,0,0.5,0,1","0,1,0.5,0,1,0.5,1,0.5,0","3",""
"","html-keyboard-response","6","45584","0.0-7.0","36U2A8VAG2LAOCK0AGP904Y4T91KY5","A37QFZ8I1TGH2C","3XT3KXP24ZKFDDMCDS43FE3AU9W6IW","","null","<img src=""img/food4.png"" style=""width:200px; border:14px solid green;"">","null","","","","","","","","","",""
"","image-keyboard-response","7","46107","0.0-9.0","36U2A8VAG2LAOCK0AGP904Y4T91KY5","A37QFZ8I1TGH2C","3XT3KXP24ZKFDDMCDS43FE3AU9W6IW","","521.5999999642372","img/food1.png","75","522.6999999880791","2","0","false","3","2","1,0.5,0,1,0.5,0,0.5,0,1","0,1,0.5,0,1,0.5,1,0.5,0","3",""
"","html-keyboard-response","8","46410","0.0-10.0","36U2A8VAG2LAOCK0AGP904Y4T91KY5","A37QFZ8I1TGH2C","3XT3KXP24ZKFDDMCDS43FE3AU9W6IW","","null","<img src=""img/food1.png"" style=""width:200px;border:14px solid red;"">","null","","","","","","","","","",""
"","image-keyboard-response","9","46859","0.0-12.0","36U2A8VAG2LAOCK0AGP904Y4T91KY5","A37QFZ8I1TGH2C","3XT3KXP24ZKFDDMCDS43FE3AU9W6IW","","446.39999997615814","img/food1.png","76","447.89999997615814","3","0","false","3","2","1,0.5,0,1,0.5,0,0.5,0,1","0,1,0.5,0,1,0.5,1,0.5,0","3",""
"","html-keyboard-response","10","47161","0.0-13.0","36U2A8VAG2LAOCK0AGP904Y4T91KY5","A37QFZ8I1TGH2C","3XT3KXP24ZKFDDMCDS43FE3AU9W6IW","","null","<img src=""img/food1.png"" style=""width:200px;border:14px solid red;"">","null","","","","","","","","","",""
"","image-keyboard-response","11","47338","0.0-15.0","36U2A8VAG2LAOCK0AGP904Y4T91KY5","A37QFZ8I1TGH2C","3XT3KXP24ZKFDDMCDS43FE3AU9W6IW","","175.5","img/food1.png","74","176.5999999642372","1","1","false","3","2","1,0.5,0,1,0.5,0,0.5,0,1","0,1,0.5,0,1,0.5,1,0.5,0","3",""
"","html-keyboard-response","12","47640","0.0-16.0","36U2A8VAG2LAOCK0AGP904Y4T91KY5","A37QFZ8I1TGH2C","3XT3KXP24ZKFDDMCDS43FE3AU9W6IW","","null","<img src=""img/food1.png"" style=""width:200px; border:14px solid green;"">","null","","","","","","","","","",""
"","image-keyboard-response","13","47819","0.0-18.0","36U2A8VAG2LAOCK0AGP904Y4T91KY5","A37QFZ8I1TGH2C","3XT3KXP24ZKFDDMCDS43FE3AU9W6IW","","177.39999997615814","img/food5.png","74","178.5","1","0","false","2","2","1,0.5,0,1,0.5,0,0.5,0,1","0,1,0.5,0,1,0.5,1,0.5,0","3",""
"","html-keyboard-response","14","48122","0.0-19.0","36U2A8VAG2LAOCK0AGP904Y4T91KY5","A37QFZ8I1TGH2C","3XT3KXP24ZKFDDMCDS43FE3AU9W6IW","","null","<img src=""img/food5.png"" style=""width:200px;border:14px solid red;"">","null","","","","","","","","","",""
"","image-keyboard-response","15","48523","0.0-21.0","36U2A8VAG2LAOCK0AGP904Y4T91KY5","A37QFZ8I1TGH2C","3XT3KXP24ZKFDDMCDS43FE3AU9W6IW","","399.5999999642372","img/food5.png","75","400.69999998807907","2","1","false","2","2","1,0.5,0,1,0.5,0,0.5,0,1","0,1,0.5,0,1,0.5,1,0.5,0","3",""
"","html-keyboard-response","16","48825","0.0-22.0","36U2A8VAG2LAOCK0AGP904Y4T91KY5","A37QFZ8I1TGH2C","3XT3KXP24ZKFDDMCDS43FE3AU9W6IW","","null","<img src=""img/food5.png"" style=""width:200px; border:14px solid green;"">","null","","","","","","","","","",""
"","image-keyboard-response","17","49443","0.0-24.0","36U2A8VAG2LAOCK0AGP904Y4T91KY5","A37QFZ8I1TGH2C","3XT3KXP24ZKFDDMCDS43FE3AU9W6IW","","615.9000000357628","img/food1.png","74","617.3000000119209","1","1","false","3","2","1,0.5,0,1,0.5,0,0.5,0,1","0,1,0.5,0,1,0.5,1,0.5,0","3",""
"","html-keyboard-response","18","49744","0.0-25.0","36U2A8VAG2LAOCK0AGP904Y4T91KY5","A37QFZ8I1TGH2C","3XT3KXP24ZKFDDMCDS43FE3AU9W6IW","","null","<img src=""img/food1.png"" style=""width:200px; border:14px solid green;"">","null","","","","","","","","","",""
"","image-keyboard-response","19","49842","0.0-27.0","36U2A8VAG2LAOCK0AGP904Y4T91KY5","A37QFZ8I1TGH2C","3XT3KXP24ZKFDDMCDS43FE3AU9W6IW","","96.60000002384186","img/food4.png","75","97.5","2","1","false","1","2","1,0.5,0,1,0.5,0,0.5,0,1","0,1,0.5,0,1,0.5,1,0.5,0","3",""
"","html-keyboard-response","20","50145","0.0-28.0","36U2A8VAG2LAOCK0AGP904Y4T91KY5","A37QFZ8I1TGH2C","3XT3KXP24ZKFDDMCDS43FE3AU9W6IW","","null","<img src=""img/food4.png"" style=""width:200px; border:14px solid green;"">","null","","","","","","","","","",""
"","image-keyboard-response","21","50250","0.0-30.0","36U2A8VAG2LAOCK0AGP904Y4T91KY5","A37QFZ8I1TGH2C","3XT3KXP24ZKFDDMCDS43FE3AU9W6IW","","103.69999998807907","img/food5.png","76","105","3","1","false","2","2","1,0.5,0,1,0.5,0,0.5,0,1","0,1,0.5,0,1,0.5,1,0.5,0","3",""
"","html-keyboard-response","22","50552","0.0-31.0","36U2A8VAG2LAOCK0AGP904Y4T91KY5","A37QFZ8I1TGH2C","3XT3KXP24ZKFDDMCDS43FE3AU9W6IW","","null","<img src=""img/food5.png"" style=""width:200px; border:14px solid green;"">","null","","","","","","","","","",""
"","image-keyboard-response","23","50634","0.0-33.0","36U2A8VAG2LAOCK0AGP904Y4T91KY5","A37QFZ8I1TGH2C","3XT3KXP24ZKFDDMCDS43FE3AU9W6IW","","80.80000001192093","img/food5.png","74","82.09999996423721","1","0","false","2","2","1,0.5,0,1,0.5,0,0.5,0,1","0,1,0.5,0,1,0.5,1,0.5,0","3",""
"","html-keyboard-response","24","50936","0.0-34.0","36U2A8VAG2LAOCK0AGP904Y4T91KY5","A37QFZ8I1TGH2C","3XT3KXP24ZKFDDMCDS43FE3AU9W6IW","","null","<img src=""img/food5.png"" style=""width:200px;border:14px solid red;"">","null","","","","","","","","","",""
"","image-keyboard-response","25","50962","0.0-36.0","36U2A8VAG2LAOCK0AGP904Y4T91KY5","A37QFZ8I1TGH2C","3XT3KXP24ZKFDDMCDS43FE3AU9W6IW","","25.19999998807907","img/food5.png","75","26.100000023841858","2","1","false","2","2","1,0.5,0,1,0.5,0,0.5,0,1","0,1,0.5,0,1,0.5,1,0.5,0","3",""
"","html-keyboard-response","26","51264","0.0-37.0","36U2A8VAG2LAOCK0AGP904Y4T91KY5","A37QFZ8I1TGH2C","3XT3KXP24ZKFDDMCDS43FE3AU9W6IW","","null","<img src=""img/food5.png"" style=""width:200px; border:14px solid green;"">","null","","","","","","","","","",""
"","image-keyboard-response","27","51906","0.0-39.0","36U2A8VAG2LAOCK0AGP904Y4T91KY5","A37QFZ8I1TGH2C","3XT3KXP24ZKFDDMCDS43FE3AU9W6IW","","639.6000000238419","img/food4.png","76","640.6999999880791","3","1","false","1","2","1,0.5,0,1,0.5,0,0.5,0,1","0,1,0.5,0,1,0.5,1,0.5,0","3",""
"","html-keyboard-response","28","52208","0.0-40.0","36U2A8VAG2LAOCK0AGP904Y4T91KY5","A37QFZ8I1TGH2C","3XT3KXP24ZKFDDMCDS43FE3AU9W6IW","","null","<img src=""img/food4.png"" style=""width:200px; border:14px solid green;"">","null","","","","","","","","","",""
"","image-keyboard-response","29","52658","0.0-42.0","36U2A8VAG2LAOCK0AGP904Y4T91KY5","A37QFZ8I1TGH2C","3XT3KXP24ZKFDDMCDS43FE3AU9W6IW","","448.5","img/food4.png","76","449.69999998807907","3","1","false","1","2","1,0.5,0,1,0.5,0,0.5,0,1","0,1,0.5,0,1,0.5,1,0.5,0","3",""
"","html-keyboard-response","30","52960","0.0-43.0","36U2A8VAG2LAOCK0AGP904Y4T91KY5","A37QFZ8I1TGH2C","3XT3KXP24ZKFDDMCDS43FE3AU9W6IW","","null","<img src=""img/food4.png"" style=""width:200px; border:14px solid green;"">","null","","","","","","","","","",""
"","image-keyboard-response","31","53034","0.0-45.0","36U2A8VAG2LAOCK0AGP904Y4T91KY5","A37QFZ8I1TGH2C","3XT3KXP24ZKFDDMCDS43FE3AU9W6IW","","73.10000002384186","img/food4.png","76","74.09999996423721","3","1","false","1","2","1,0.5,0,1,0.5,0,0.5,0,1","0,1,0.5,0,1,0.5,1,0.5,0","3",""
"","html-keyboard-response","32","53336","0.0-46.0","36U2A8VAG2LAOCK0AGP904Y4T91KY5","A37QFZ8I1TGH2C","3XT3KXP24ZKFDDMCDS43FE3AU9W6IW","","null","<img src=""img/food4.png"" style=""width:200px; border:14px solid green;"">","null","","","","","","","","","",""
"","image-keyboard-response","33","53338","0.0-48.0","36U2A8VAG2LAOCK0AGP904Y4T91KY5","A37QFZ8I1TGH2C","3XT3KXP24ZKFDDMCDS43FE3AU9W6IW","","0.5","img/food1.png","76","1.199999988079071","3","0","false","3","2","1,0.5,0,1,0.5,0,0.5,0,1","0,1,0.5,0,1,0.5,1,0.5,0","3",""
"","html-keyboard-response","34","53640","0.0-49.0","36U2A8VAG2LAOCK0AGP904Y4T91KY5","A37QFZ8I1TGH2C","3XT3KXP24ZKFDDMCDS43FE3AU9W6IW","","null","<img src=""img/food1.png"" style=""width:200px;border:14px solid red;"">","null","","","","","","","","","",""
"","image-keyboard-response","35","53770","0.0-51.0","36U2A8VAG2LAOCK0AGP904Y4T91KY5","A37QFZ8I1TGH2C","3XT3KXP24ZKFDDMCDS43FE3AU9W6IW","","128.10000002384186","img/food1.png","75","129.10000002384186","2","0","false","3","2","1,0.5,0,1,0.5,0,0.5,0,1","0,1,0.5,0,1,0.5,1,0.5,0","3",""
"","html-keyboard-response","36","54072","0.0-52.0","36U2A8VAG2LAOCK0AGP904Y4T91KY5","A37QFZ8I1TGH2C","3XT3KXP24ZKFDDMCDS43FE3AU9W6IW","","null","<img src=""img/food1.png"" style=""width:200px;border:14px solid red;"">","null","","","","","","","","","",""
"","image-keyboard-response","37","54202","0.0-54.0","36U2A8VAG2LAOCK0AGP904Y4T91KY5","A37QFZ8I1TGH2C","3XT3KXP24ZKFDDMCDS43FE3AU9W6IW","","128.9000000357628","img/food5.png","75","130.30000001192093","2","1","false","2","2","1,0.5,0,1,0.5,0,0.5,0,1","0,1,0.5,0,1,0.5,1,0.5,0","3",""
"","html-keyboard-response","38","54505","0.0-55.0","36U2A8VAG2LAOCK0AGP904Y4T91KY5","A37QFZ8I1TGH2C","3XT3KXP24ZKFDDMCDS43FE3AU9W6IW","","null","<img src=""img/food5.png"" style=""width:200px; border:14px solid green;"">","null","","","","","","","","","",""
"","image-keyboard-response","39","54602","0.0-57.0","36U2A8VAG2LAOCK0AGP904Y4T91KY5","A37QFZ8I1TGH2C","3XT3KXP24ZKFDDMCDS43FE3AU9W6IW","","95.89999997615814","img/food1.png","74","97.19999998807907","1","1","false","3","2","1,0.5,0,1,0.5,0,0.5,0,1","0,1,0.5,0,1,0.5,1,0.5,0","3",""
"","html-keyboard-response","40","54906","0.0-58.0","36U2A8VAG2LAOCK0AGP904Y4T91KY5","A37QFZ8I1TGH2C","3XT3KXP24ZKFDDMCDS43FE3AU9W6IW","","null","<img src=""img/food1.png"" style=""width:200px; border:14px solid green;"">","null","","","","","","","","","",""
"","image-keyboard-response","41","55130","0.0-60.0","36U2A8VAG2LAOCK0AGP904Y4T91KY5","A37QFZ8I1TGH2C","3XT3KXP24ZKFDDMCDS43FE3AU9W6IW","","222.60000002384186","img/food1.png","75","223.60000002384186","2","0","false","3","2","1,0.5,0,1,0.5,0,0.5,0,1","0,1,0.5,0,1,0.5,1,0.5,0","3",""
"","html-keyboard-response","42","55432","0.0-61.0","36U2A8VAG2LAOCK0AGP904Y4T91KY5","A37QFZ8I1TGH2C","3XT3KXP24ZKFDDMCDS43FE3AU9W6IW","","null","<img src=""img/food1.png"" style=""width:200px;border:14px solid red;"">","null","","","","","","","","","",""
"","image-keyboard-response","43","55450","0.0-63.0","36U2A8VAG2LAOCK0AGP904Y4T91KY5","A37QFZ8I1TGH2C","3XT3KXP24ZKFDDMCDS43FE3AU9W6IW","","17.099999964237213","img/food1.png","74","18","1","1","false","3","2","1,0.5,0,1,0.5,0,0.5,0,1","0,1,0.5,0,1,0.5,1,0.5,0","3",""
"","html-keyboard-response","44","55752","0.0-64.0","36U2A8VAG2LAOCK0AGP904Y4T91KY5","A37QFZ8I1TGH2C","3XT3KXP24ZKFDDMCDS43FE3AU9W6IW","","null","<img src=""img/food1.png"" style=""width:200px; border:14px solid green;"">","null","","","","","","","","","",""
"","image-keyboard-response","45","55794","0.0-66.0","36U2A8VAG2LAOCK0AGP904Y4T91KY5","A37QFZ8I1TGH2C","3XT3KXP24ZKFDDMCDS43FE3AU9W6IW","","40.5","img/food5.png","74","41.5","1","0","false","2","2","1,0.5,0,1,0.5,0,0.5,0,1","0,1,0.5,0,1,0.5,1,0.5,0","3",""
"","html-keyboard-response","46","56096","0.0-67.0","36U2A8VAG2LAOCK0AGP904Y4T91KY5","A37QFZ8I1TGH2C","3XT3KXP24ZKFDDMCDS43FE3AU9W6IW","","null","<img src=""img/food5.png"" style=""width:200px;border:14px solid red;"">","null","","","","","","","","","",""
"","image-keyboard-response","47","56626","0.0-69.0","36U2A8VAG2LAOCK0AGP904Y4T91KY5","A37QFZ8I1TGH2C","3XT3KXP24ZKFDDMCDS43FE3AU9W6IW","","528.3000000119209","img/food1.png","75","529.4000000357628","2","1","false","3","2","1,0.5,0,1,0.5,0,0.5,0,1","0,1,0.5,0,1,0.5,1,0.5,0","3",""
"","html-keyboard-response","48","56928","0.0-70.0","36U2A8VAG2LAOCK0AGP904Y4T91KY5","A37QFZ8I1TGH2C","3XT3KXP24ZKFDDMCDS43FE3AU9W6IW","","null","<img src=""img/food1.png"" style=""width:200px; border:14px solid green;"">","null","","","","","","","","","",""
"","image-keyboard-response","49","57082","0.0-72.0","36U2A8VAG2LAOCK0AGP904Y4T91KY5","A37QFZ8I1TGH2C","3XT3KXP24ZKFDDMCDS43FE3AU9W6IW","","152.39999997615814","img/food1.png","76","153.70000004768372","3","0","false","3","2","1,0.5,0,1,0.5,0,0.5,0,1","0,1,0.5,0,1,0.5,1,0.5,0","3",""
"","html-keyboard-response","50","57384","0.0-73.0","36U2A8VAG2LAOCK0AGP904Y4T91KY5","A37QFZ8I1TGH2C","3XT3KXP24ZKFDDMCDS43FE3AU9W6IW","","null","<img src=""img/food1.png"" style=""width:200px;border:14px solid red;"">","null","","","","","","","","","",""
"","image-keyboard-response","51","57491","0.0-75.0","36U2A8VAG2LAOCK0AGP904Y4T91KY5","A37QFZ8I1TGH2C","3XT3KXP24ZKFDDMCDS43FE3AU9W6IW","","105.89999997615814","img/food1.png","74","106.69999998807907","1","1","false","3","2","1,0.5,0,1,0.5,0,0.5,0,1","0,1,0.5,0,1,0.5,1,0.5,0","3",""
"","html-keyboard-response","52","57793","0.0-76.0","36U2A8VAG2LAOCK0AGP904Y4T91KY5","A37QFZ8I1TGH2C","3XT3KXP24ZKFDDMCDS43FE3AU9W6IW","","null","<img src=""img/food1.png"" style=""width:200px; border:14px solid green;"">","null","","","","","","","","","",""
"","image-keyboard-response","53","58442","0.0-78.0","36U2A8VAG2LAOCK0AGP904Y4T91KY5","A37QFZ8I1TGH2C","3XT3KXP24ZKFDDMCDS43FE3AU9W6IW","","647.3000000119209","img/food4.png","75","648.5","2","1","false","1","2","1,0.5,0,1,0.5,0,0.5,0,1","0,1,0.5,0,1,0.5,1,0.5,0","3",""
"","html-keyboard-response","54","58744","0.0-79.0","36U2A8VAG2LAOCK0AGP904Y4T91KY5","A37QFZ8I1TGH2C","3XT3KXP24ZKFDDMCDS43FE3AU9W6IW","","null","<img src=""img/food4.png"" style=""width:200px; border:14px solid green;"">","null","","","","","","","","","",""
"","image-keyboard-response","55","59195","0.0-81.0","36U2A8VAG2LAOCK0AGP904Y4T91KY5","A37QFZ8I1TGH2C","3XT3KXP24ZKFDDMCDS43FE3AU9W6IW","","450.4000000357628","img/food4.png","75","451.39999997615814","2","1","false","1","2","1,0.5,0,1,0.5,0,0.5,0,1","0,1,0.5,0,1,0.5,1,0.5,0","3",""
"","html-keyboard-response","56","59497","0.0-82.0","36U2A8VAG2LAOCK0AGP904Y4T91KY5","A37QFZ8I1TGH2C","3XT3KXP24ZKFDDMCDS43FE3AU9W6IW","","null","<img src=""img/food4.png"" style=""width:200px; border:14px solid green;"">","null","","","","","","","","","",""
"","image-keyboard-response","57","59756","0.0-84.0","36U2A8VAG2LAOCK0AGP904Y4T91KY5","A37QFZ8I1TGH2C","3XT3KXP24ZKFDDMCDS43FE3AU9W6IW","","257.5999999642372","img/food4.png","75","258.5","2","1","false","1","2","1,0.5,0,1,0.5,0,0.5,0,1","0,1,0.5,0,1,0.5,1,0.5,0","3",""
"","html-keyboard-response","58","60057","0.0-85.0","36U2A8VAG2LAOCK0AGP904Y4T91KY5","A37QFZ8I1TGH2C","3XT3KXP24ZKFDDMCDS43FE3AU9W6IW","","null","<img src=""img/food4.png"" style=""width:200px; border:14px solid green;"">","null","","","","","","","","","",""
"","image-keyboard-response","59","60162","0.0-87.0","36U2A8VAG2LAOCK0AGP904Y4T91KY5","A37QFZ8I1TGH2C","3XT3KXP24ZKFDDMCDS43FE3AU9W6IW","","103.10000002384186","img/food4.png","75","104","2","1","false","1","2","1,0.5,0,1,0.5,0,0.5,0,1","0,1,0.5,0,1,0.5,1,0.5,0","3",""
"","html-keyboard-response","60","60463","0.0-88.0","36U2A8VAG2LAOCK0AGP904Y4T91KY5","A37QFZ8I1TGH2C","3XT3KXP24ZKFDDMCDS43FE3AU9W6IW","","null","<img src=""img/food4.png"" style=""width:200px; border:14px solid green;"">","null","","","","","","","","","",""
"","image-keyboard-response","61","60714","0.0-90.0","36U2A8VAG2LAOCK0AGP904Y4T91KY5","A37QFZ8I1TGH2C","3XT3KXP24ZKFDDMCDS43FE3AU9W6IW","","249.89999997615814","img/food4.png","75","250.79999995231628","2","1","false","1","2","1,0.5,0,1,0.5,0,0.5,0,1","0,1,0.5,0,1,0.5,1,0.5,0","3",""
"","html-keyboard-response","62","61016","0.0-91.0","36U2A8VAG2LAOCK0AGP904Y4T91KY5","A37QFZ8I1TGH2C","3XT3KXP24ZKFDDMCDS43FE3AU9W6IW","","null","<img src=""img/food4.png"" style=""width:200px; border:14px solid green;"">","null","","","","","","","","","",""
"","image-keyboard-response","63","61257","0.0-93.0","36U2A8VAG2LAOCK0AGP904Y4T91KY5","A37QFZ8I1TGH2C","3XT3KXP24ZKFDDMCDS43FE3AU9W6IW","","239.39999997615814","img/food5.png","75","240.60000002384186","2","1","false","2","2","1,0.5,0,1,0.5,0,0.5,0,1","0,1,0.5,0,1,0.5,1,0.5,0","3",""
"","html-keyboard-response","64","61559","0.0-94.0","36U2A8VAG2LAOCK0AGP904Y4T91KY5","A37QFZ8I1TGH2C","3XT3KXP24ZKFDDMCDS43FE3AU9W6IW","","null","<img src=""img/food5.png"" style=""width:200px; border:14px solid green;"">","null","","","","","","","","","",""
"","image-keyboard-response","65","61754","0.0-96.0","36U2A8VAG2LAOCK0AGP904Y4T91KY5","A37QFZ8I1TGH2C","3XT3KXP24ZKFDDMCDS43FE3AU9W6IW","","193.80000001192093","img/food5.png","75","194.69999998807907","2","1","false","2","2","1,0.5,0,1,0.5,0,0.5,0,1","0,1,0.5,0,1,0.5,1,0.5,0","3",""
"","html-keyboard-response","66","62056","0.0-97.0","36U2A8VAG2LAOCK0AGP904Y4T91KY5","A37QFZ8I1TGH2C","3XT3KXP24ZKFDDMCDS43FE3AU9W6IW","","null","<img src=""img/food5.png"" style=""width:200px; border:14px solid green;"">","null","","","","","","","","","",""
"","image-keyboard-response","67","62146","0.0-99.0","36U2A8VAG2LAOCK0AGP904Y4T91KY5","A37QFZ8I1TGH2C","3XT3KXP24ZKFDDMCDS43FE3AU9W6IW","","88.80000001192093","img/food5.png","75","89.69999998807907","2","1","false","2","2","1,0.5,0,1,0.5,0,0.5,0,1","0,1,0.5,0,1,0.5,1,0.5,0","3",""
"","html-keyboard-response","68","62448","0.0-100.0","36U2A8VAG2LAOCK0AGP904Y4T91KY5","A37QFZ8I1TGH2C","3XT3KXP24ZKFDDMCDS43FE3AU9W6IW","","null","<img src=""img/food5.png"" style=""width:200px; border:14px solid green;"">","null","","","","","","","","","",""
"","image-keyboard-response","69","62521","0.0-102.0","36U2A8VAG2LAOCK0AGP904Y4T91KY5","A37QFZ8I1TGH2C","3XT3KXP24ZKFDDMCDS43FE3AU9W6IW","","72.09999996423721","img/food1.png","75","72.80000001192093","2","0","false","3","2","1,0.5,0,1,0.5,0,0.5,0,1","0,1,0.5,0,1,0.5,1,0.5,0","3",""
"","html-keyboard-response","70","62823","0.0-103.0","36U2A8VAG2LAOCK0AGP904Y4T91KY5","A37QFZ8I1TGH2C","3XT3KXP24ZKFDDMCDS43FE3AU9W6IW","","null","<img src=""img/food1.png"" style=""width:200px;border:14px solid red;"">","null","","","","","","","","","",""
"","image-keyboard-response","71","62914","0.0-105.0","36U2A8VAG2LAOCK0AGP904Y4T91KY5","A37QFZ8I1TGH2C","3XT3KXP24ZKFDDMCDS43FE3AU9W6IW","","89.89999997615814","img/food4.png","74","91.19999998807907","1","0","false","1","2","1,0.5,0,1,0.5,0,0.5,0,1","0,1,0.5,0,1,0.5,1,0.5,0","3",""
"","html-keyboard-response","72","63216","0.0-106.0","36U2A8VAG2LAOCK0AGP904Y4T91KY5","A37QFZ8I1TGH2C","3XT3KXP24ZKFDDMCDS43FE3AU9W6IW","","null","<img src=""img/food4.png"" style=""width:200px;border:14px solid red;"">","null","","","","","","","","","",""
"","image-keyboard-response","73","63290","0.0-108.0","36U2A8VAG2LAOCK0AGP904Y4T91KY5","A37QFZ8I1TGH2C","3XT3KXP24ZKFDDMCDS43FE3AU9W6IW","","71.69999998807907","img/food4.png","74","72.80000001192093","1","0","false","1","2","1,0.5,0,1,0.5,0,0.5,0,1","0,1,0.5,0,1,0.5,1,0.5,0","3",""
"","html-keyboard-response","74","63591","0.0-109.0","36U2A8VAG2LAOCK0AGP904Y4T91KY5","A37QFZ8I1TGH2C","3XT3KXP24ZKFDDMCDS43FE3AU9W6IW","","null","<img src=""img/food4.png"" style=""width:200px;border:14px solid red;"">","null","","","","","","","","","",""
"","image-keyboard-response","75","63626","0.0-111.0","36U2A8VAG2LAOCK0AGP904Y4T91KY5","A37QFZ8I1TGH2C","3XT3KXP24ZKFDDMCDS43FE3AU9W6IW","","33.19999998807907","img/food4.png","76","34.40000003576279","3","1","false","1","2","1,0.5,0,1,0.5,0,0.5,0,1","0,1,0.5,0,1,0.5,1,0.5,0","3",""
"","html-keyboard-response","76","63928","0.0-112.0","36U2A8VAG2LAOCK0AGP904Y4T91KY5","A37QFZ8I1TGH2C","3XT3KXP24ZKFDDMCDS43FE3AU9W6IW","","null","<img src=""img/food4.png"" style=""width:200px; border:14px solid green;"">","null","","","","","","","","","",""
"","image-keyboard-response","77","63938","0.0-114.0","36U2A8VAG2LAOCK0AGP904Y4T91KY5","A37QFZ8I1TGH2C","3XT3KXP24ZKFDDMCDS43FE3AU9W6IW","","8.900000035762787","img/food4.png","76","9.800000011920929","3","1","false","1","2","1,0.5,0,1,0.5,0,0.5,0,1","0,1,0.5,0,1,0.5,1,0.5,0","3",""
"","html-keyboard-response","78","64240","0.0-115.0","36U2A8VAG2LAOCK0AGP904Y4T91KY5","A37QFZ8I1TGH2C","3XT3KXP24ZKFDDMCDS43FE3AU9W6IW","","null","<img src=""img/food4.png"" style=""width:200px; border:14px solid green;"">","null","","","","","","","","","",""
"","image-keyboard-response","79","64490","0.0-117.0","36U2A8VAG2LAOCK0AGP904Y4T91KY5","A37QFZ8I1TGH2C","3XT3KXP24ZKFDDMCDS43FE3AU9W6IW","","249.10000002384186","img/food5.png","76","250.19999998807907","3","0","false","2","2","1,0.5,0,1,0.5,0,0.5,0,1","0,1,0.5,0,1,0.5,1,0.5,0","3",""
"","html-keyboard-response","80","64792","0.0-118.0","36U2A8VAG2LAOCK0AGP904Y4T91KY5","A37QFZ8I1TGH2C","3XT3KXP24ZKFDDMCDS43FE3AU9W6IW","","null","<img src=""img/food5.png"" style=""width:200px;border:14px solid red;"">","null","","","","","","","","","",""
"","image-keyboard-response","81","64978","0.0-120.0","36U2A8VAG2LAOCK0AGP904Y4T91KY5","A37QFZ8I1TGH2C","3XT3KXP24ZKFDDMCDS43FE3AU9W6IW","","184.60000002384186","img/food5.png","75","185.5","2","1","false","2","2","1,0.5,0,1,0.5,0,0.5,0,1","0,1,0.5,0,1,0.5,1,0.5,0","3",""
"","html-keyboard-response","82","65279","0.0-121.0","36U2A8VAG2LAOCK0AGP904Y4T91KY5","A37QFZ8I1TGH2C","3XT3KXP24ZKFDDMCDS43FE3AU9W6IW","","null","<img src=""img/food5.png"" style=""width:200px; border:14px solid green;"">","null","","","","","","","","","",""
"","image-keyboard-response","83","65324","0.0-123.0","36U2A8VAG2LAOCK0AGP904Y4T91KY5","A37QFZ8I1TGH2C","3XT3KXP24ZKFDDMCDS43FE3AU9W6IW","","43.60000002384186","img/food1.png","75","44.59999996423721","2","0","false","3","2","1,0.5,0,1,0.5,0,0.5,0,1","0,1,0.5,0,1,0.5,1,0.5,0","3",""
"","html-keyboard-response","84","65625","0.0-124.0","36U2A8VAG2LAOCK0AGP904Y4T91KY5","A37QFZ8I1TGH2C","3XT3KXP24ZKFDDMCDS43FE3AU9W6IW","","null","<img src=""img/food1.png"" style=""width:200px;border:14px solid red;"">","null","","","","","","","","","",""
"","image-keyboard-response","85","66002","0.0-126.0","36U2A8VAG2LAOCK0AGP904Y4T91KY5","A37QFZ8I1TGH2C","3XT3KXP24ZKFDDMCDS43FE3AU9W6IW","","375.60000002384186","img/food1.png","75","376.5","2","1","false","3","2","1,0.5,0,1,0.5,0,0.5,0,1","0,1,0.5,0,1,0.5,1,0.5,0","3",""
"","html-keyboard-response","86","66304","0.0-127.0","36U2A8VAG2LAOCK0AGP904Y4T91KY5","A37QFZ8I1TGH2C","3XT3KXP24ZKFDDMCDS43FE3AU9W6IW","","null","<img src=""img/food1.png"" style=""width:200px; border:14px solid green;"">","null","","","","","","","","","",""
"","image-keyboard-response","87","66386","0.0-129.0","36U2A8VAG2LAOCK0AGP904Y4T91KY5","A37QFZ8I1TGH2C","3XT3KXP24ZKFDDMCDS43FE3AU9W6IW","","80.5","img/food5.png","75","81.19999998807907","2","1","false","2","2","1,0.5,0,1,0.5,0,0.5,0,1","0,1,0.5,0,1,0.5,1,0.5,0","3",""
"","html-keyboard-response","88","66687","0.0-130.0","36U2A8VAG2LAOCK0AGP904Y4T91KY5","A37QFZ8I1TGH2C","3XT3KXP24ZKFDDMCDS43FE3AU9W6IW","","null","<img src=""img/food5.png"" style=""width:200px; border:14px solid green;"">","null","","","","","","","","","",""
"","image-keyboard-response","89","66946","0.0-132.0","36U2A8VAG2LAOCK0AGP904Y4T91KY5","A37QFZ8I1TGH2C","3XT3KXP24ZKFDDMCDS43FE3AU9W6IW","","257.5","img/food1.png","75","258.2999999523163","2","1","false","3","2","1,0.5,0,1,0.5,0,0.5,0,1","0,1,0.5,0,1,0.5,1,0.5,0","3",""
"","html-keyboard-response","90","67247","0.0-133.0","36U2A8VAG2LAOCK0AGP904Y4T91KY5","A37QFZ8I1TGH2C","3XT3KXP24ZKFDDMCDS43FE3AU9W6IW","","null","<img src=""img/food1.png"" style=""width:200px; border:14px solid green;"">","null","","","","","","","","","",""
"","image-keyboard-response","91","67314","0.0-135.0","36U2A8VAG2LAOCK0AGP904Y4T91KY5","A37QFZ8I1TGH2C","3XT3KXP24ZKFDDMCDS43FE3AU9W6IW","","65.30000001192093","img/food1.png","76","66.5","3","0","false","3","2","1,0.5,0,1,0.5,0,0.5,0,1","0,1,0.5,0,1,0.5,1,0.5,0","3",""
"","html-keyboard-response","92","67616","0.0-136.0","36U2A8VAG2LAOCK0AGP904Y4T91KY5","A37QFZ8I1TGH2C","3XT3KXP24ZKFDDMCDS43FE3AU9W6IW","","null","<img src=""img/food1.png"" style=""width:200px;border:14px solid red;"">","null","","","","","","","","","",""
"","image-keyboard-response","93","67650","0.0-138.0","36U2A8VAG2LAOCK0AGP904Y4T91KY5","A37QFZ8I1TGH2C","3XT3KXP24ZKFDDMCDS43FE3AU9W6IW","","32.59999996423721","img/food1.png","75","33.69999998807907","2","1","false","3","2","1,0.5,0,1,0.5,0,0.5,0,1","0,1,0.5,0,1,0.5,1,0.5,0","3",""
"","html-keyboard-response","94","67952","0.0-139.0","36U2A8VAG2LAOCK0AGP904Y4T91KY5","A37QFZ8I1TGH2C","3XT3KXP24ZKFDDMCDS43FE3AU9W6IW","","null","<img src=""img/food1.png"" style=""width:200px; border:14px solid green;"">","null","","","","","","","","","",""
"","image-keyboard-response","95","67963","0.0-141.0","36U2A8VAG2LAOCK0AGP904Y4T91KY5","A37QFZ8I1TGH2C","3XT3KXP24ZKFDDMCDS43FE3AU9W6IW","","10.099999964237213","img/food5.png","75","10.900000035762787","2","1","false","2","2","1,0.5,0,1,0.5,0,0.5,0,1","0,1,0.5,0,1,0.5,1,0.5,0","3",""
"","html-keyboard-response","96","68264","0.0-142.0","36U2A8VAG2LAOCK0AGP904Y4T91KY5","A37QFZ8I1TGH2C","3XT3KXP24ZKFDDMCDS43FE3AU9W6IW","","null","<img src=""img/food5.png"" style=""width:200px; border:14px solid green;"">","null","","","","","","","","","",""
"","image-keyboard-response","97","68298","0.0-144.0","36U2A8VAG2LAOCK0AGP904Y4T91KY5","A37QFZ8I1TGH2C","3XT3KXP24ZKFDDMCDS43FE3AU9W6IW","","32","img/food1.png","75","33.19999998807907","2","1","false","3","2","1,0.5,0,1,0.5,0,0.5,0,1","0,1,0.5,0,1,0.5,1,0.5,0","3",""
"","html-keyboard-response","98","68600","0.0-145.0","36U2A8VAG2LAOCK0AGP904Y4T91KY5","A37QFZ8I1TGH2C","3XT3KXP24ZKFDDMCDS43FE3AU9W6IW","","null","<img src=""img/food1.png"" style=""width:200px; border:14px solid green;"">","null","","","","","","","","","",""
"","image-keyboard-response","99","68794","0.0-147.0","36U2A8VAG2LAOCK0AGP904Y4T91KY5","A37QFZ8I1TGH2C","3XT3KXP24ZKFDDMCDS43FE3AU9W6IW","","192.30000001192093","img/food1.png","75","193.19999998807907","2","1","false","3","2","1,0.5,0,1,0.5,0,0.5,0,1","0,1,0.5,0,1,0.5,1,0.5,0","3",""
"","html-keyboard-response","100","69095","0.0-148.0","36U2A8VAG2LAOCK0AGP904Y4T91KY5","A37QFZ8I1TGH2C","3XT3KXP24ZKFDDMCDS43FE3AU9W6IW","","null","<img src=""img/food1.png"" style=""width:200px; border:14px solid green;"">","null","","","","","","","","","",""
"","image-keyboard-response","101","69178","0.0-150.0","36U2A8VAG2LAOCK0AGP904Y4T91KY5","A37QFZ8I1TGH2C","3XT3KXP24ZKFDDMCDS43FE3AU9W6IW","","81.60000002384186","img/food5.png","75","83","2","1","false","2","2","1,0.5,0,1,0.5,0,0.5,0,1","0,1,0.5,0,1,0.5,1,0.5,0","3",""
"","html-keyboard-response","102","69481","0.0-151.0","36U2A8VAG2LAOCK0AGP904Y4T91KY5","A37QFZ8I1TGH2C","3XT3KXP24ZKFDDMCDS43FE3AU9W6IW","","null","<img src=""img/food5.png"" style=""width:200px; border:14px solid green;"">","null","","","","","","","","","",""
"","image-keyboard-response","103","69690","0.0-153.0","36U2A8VAG2LAOCK0AGP904Y4T91KY5","A37QFZ8I1TGH2C","3XT3KXP24ZKFDDMCDS43FE3AU9W6IW","","207.5","img/food4.png","75","208.79999995231628","2","1","false","1","2","1,0.5,0,1,0.5,0,0.5,0,1","0,1,0.5,0,1,0.5,1,0.5,0","3",""
"","html-keyboard-response","104","69992","0.0-154.0","36U2A8VAG2LAOCK0AGP904Y4T91KY5","A37QFZ8I1TGH2C","3XT3KXP24ZKFDDMCDS43FE3AU9W6IW","","null","<img src=""img/food4.png"" style=""width:200px; border:14px solid green;"">","null","","","","","","","","","",""
"","image-keyboard-response","105","70178","0.0-156.0","36U2A8VAG2LAOCK0AGP904Y4T91KY5","A37QFZ8I1TGH2C","3XT3KXP24ZKFDDMCDS43FE3AU9W6IW","","184.39999997615814","img/food4.png","75","185.29999995231628","2","1","false","1","2","1,0.5,0,1,0.5,0,0.5,0,1","0,1,0.5,0,1,0.5,1,0.5,0","3",""
"","html-keyboard-response","106","70481","0.0-157.0","36U2A8VAG2LAOCK0AGP904Y4T91KY5","A37QFZ8I1TGH2C","3XT3KXP24ZKFDDMCDS43FE3AU9W6IW","","null","<img src=""img/food4.png"" style=""width:200px; border:14px solid green;"">","null","","","","","","","","","",""
"","image-keyboard-response","107","70498","0.0-159.0","36U2A8VAG2LAOCK0AGP904Y4T91KY5","A37QFZ8I1TGH2C","3XT3KXP24ZKFDDMCDS43FE3AU9W6IW","","13.5","img/food1.png","75","14.5","2","1","false","3","2","1,0.5,0,1,0.5,0,0.5,0,1","0,1,0.5,0,1,0.5,1,0.5,0","3",""
"","html-keyboard-response","108","70800","0.0-160.0","36U2A8VAG2LAOCK0AGP904Y4T91KY5","A37QFZ8I1TGH2C","3XT3KXP24ZKFDDMCDS43FE3AU9W6IW","","null","<img src=""img/food1.png"" style=""width:200px; border:14px solid green;"">","null","","","","","","","","","",""
"","image-keyboard-response","109","71090","0.0-162.0","36U2A8VAG2LAOCK0AGP904Y4T91KY5","A37QFZ8I1TGH2C","3XT3KXP24ZKFDDMCDS43FE3AU9W6IW","","289.19999998807907","img/food4.png","75","290.2999999523163","2","1","false","1","2","1,0.5,0,1,0.5,0,0.5,0,1","0,1,0.5,0,1,0.5,1,0.5,0","3",""
"","html-keyboard-response","110","71392","0.0-163.0","36U2A8VAG2LAOCK0AGP904Y4T91KY5","A37QFZ8I1TGH2C","3XT3KXP24ZKFDDMCDS43FE3AU9W6IW","","null","<img src=""img/food4.png"" style=""width:200px; border:14px solid green;"">","null","","","","","","","","","",""
"","image-keyboard-response","111","71442","0.0-165.0","36U2A8VAG2LAOCK0AGP904Y4T91KY5","A37QFZ8I1TGH2C","3XT3KXP24ZKFDDMCDS43FE3AU9W6IW","","48.5","img/food4.png","75","49.60000002384186","2","1","false","1","2","1,0.5,0,1,0.5,0,0.5,0,1","0,1,0.5,0,1,0.5,1,0.5,0","3",""
"","html-keyboard-response","112","71745","0.0-166.0","36U2A8VAG2LAOCK0AGP904Y4T91KY5","A37QFZ8I1TGH2C","3XT3KXP24ZKFDDMCDS43FE3AU9W6IW","","null","<img src=""img/food4.png"" style=""width:200px; border:14px solid green;"">","null","","","","","","","","","",""
"","image-keyboard-response","113","71786","0.0-168.0","36U2A8VAG2LAOCK0AGP904Y4T91KY5","A37QFZ8I1TGH2C","3XT3KXP24ZKFDDMCDS43FE3AU9W6IW","","39.5","img/food1.png","75","40.700000047683716","2","1","false","3","2","1,0.5,0,1,0.5,0,0.5,0,1","0,1,0.5,0,1,0.5,1,0.5,0","3",""
"","html-keyboard-response","114","72088","0.0-169.0","36U2A8VAG2LAOCK0AGP904Y4T91KY5","A37QFZ8I1TGH2C","3XT3KXP24ZKFDDMCDS43FE3AU9W6IW","","null","<img src=""img/food1.png"" style=""width:200px; border:14px solid green;"">","null","","","","","","","","","",""
"","image-keyboard-response","115","72154","0.0-171.0","36U2A8VAG2LAOCK0AGP904Y4T91KY5","A37QFZ8I1TGH2C","3XT3KXP24ZKFDDMCDS43FE3AU9W6IW","","63.700000047683716","img/food4.png","75","64.79999995231628","2","1","false","1","2","1,0.5,0,1,0.5,0,0.5,0,1","0,1,0.5,0,1,0.5,1,0.5,0","3",""
"","html-keyboard-response","116","72456","0.0-172.0","36U2A8VAG2LAOCK0AGP904Y4T91KY5","A37QFZ8I1TGH2C","3XT3KXP24ZKFDDMCDS43FE3AU9W6IW","","null","<img src=""img/food4.png"" style=""width:200px; border:14px solid green;"">","null","","","","","","","","","",""
"","image-keyboard-response","117","72522","0.0-174.0","36U2A8VAG2LAOCK0AGP904Y4T91KY5","A37QFZ8I1TGH2C","3XT3KXP24ZKFDDMCDS43FE3AU9W6IW","","64.60000002384186","img/food4.png","75","65.5","2","1","false","1","2","1,0.5,0,1,0.5,0,0.5,0,1","0,1,0.5,0,1,0.5,1,0.5,0","3",""
"","html-keyboard-response","118","72824","0.0-175.0","36U2A8VAG2LAOCK0AGP904Y4T91KY5","A37QFZ8I1TGH2C","3XT3KXP24ZKFDDMCDS43FE3AU9W6IW","","null","<img src=""img/food4.png"" style=""width:200px; border:14px solid green;"">","null","","","","","","","","","",""
"","image-keyboard-response","119","72874","0.0-177.0","36U2A8VAG2LAOCK0AGP904Y4T91KY5","A37QFZ8I1TGH2C","3XT3KXP24ZKFDDMCDS43FE3AU9W6IW","","48.69999998807907","img/food1.png","75","50","2","0","false","3","2","1,0.5,0,1,0.5,0,0.5,0,1","0,1,0.5,0,1,0.5,1,0.5,0","3",""
"","html-keyboard-response","120","73176","0.0-178.0","36U2A8VAG2LAOCK0AGP904Y4T91KY5","A37QFZ8I1TGH2C","3XT3KXP24ZKFDDMCDS43FE3AU9W6IW","","null","<img src=""img/food1.png"" style=""width:200px;border:14px solid red;"">","null","","","","","","","","","",""
"","image-keyboard-response","121","73474","0.0-180.0","36U2A8VAG2LAOCK0AGP904Y4T91KY5","A37QFZ8I1TGH2C","3XT3KXP24ZKFDDMCDS43FE3AU9W6IW","","296.39999997615814","img/food5.png","74","297.4000000357628","1","0","false","2","2","1,0.5,0,1,0.5,0,0.5,0,1","0,1,0.5,0,1,0.5,1,0.5,0","3",""
"","html-keyboard-response","122","73777","0.0-181.0","36U2A8VAG2LAOCK0AGP904Y4T91KY5","A37QFZ8I1TGH2C","3XT3KXP24ZKFDDMCDS43FE3AU9W6IW","","null","<img src=""img/food5.png"" style=""width:200px;border:14px solid red;"">","null","","","","","","","","","",""
"","image-keyboard-response","123","73874","0.0-183.0","36U2A8VAG2LAOCK0AGP904Y4T91KY5","A37QFZ8I1TGH2C","3XT3KXP24ZKFDDMCDS43FE3AU9W6IW","","95.40000003576279","img/food5.png","75","96.5","2","1","false","2","2","1,0.5,0,1,0.5,0,0.5,0,1","0,1,0.5,0,1,0.5,1,0.5,0","3",""
"","html-keyboard-response","124","74176","0.0-184.0","36U2A8VAG2LAOCK0AGP904Y4T91KY5","A37QFZ8I1TGH2C","3XT3KXP24ZKFDDMCDS43FE3AU9W6IW","","null","<img src=""img/food5.png"" style=""width:200px; border:14px solid green;"">","null","","","","","","","","","",""
"","image-keyboard-response","125","74299","0.0-186.0","36U2A8VAG2LAOCK0AGP904Y4T91KY5","A37QFZ8I1TGH2C","3XT3KXP24ZKFDDMCDS43FE3AU9W6IW","","121.89999997615814","img/food4.png","76","122.89999997615814","3","0","false","1","2","1,0.5,0,1,0.5,0,0.5,0,1","0,1,0.5,0,1,0.5,1,0.5,0","3",""
"","html-keyboard-response","126","74601","0.0-187.0","36U2A8VAG2LAOCK0AGP904Y4T91KY5","A37QFZ8I1TGH2C","3XT3KXP24ZKFDDMCDS43FE3AU9W6IW","","null","<img src=""img/food4.png"" style=""width:200px;border:14px solid red;"">","null","","","","","","","","","",""
"","image-keyboard-response","127","74650","0.0-189.0","36U2A8VAG2LAOCK0AGP904Y4T91KY5","A37QFZ8I1TGH2C","3XT3KXP24ZKFDDMCDS43FE3AU9W6IW","","46.39999997615814","img/food1.png","75","47.69999998807907","2","1","false","3","2","1,0.5,0,1,0.5,0,0.5,0,1","0,1,0.5,0,1,0.5,1,0.5,0","3",""
"","html-keyboard-response","128","74952","0.0-190.0","36U2A8VAG2LAOCK0AGP904Y4T91KY5","A37QFZ8I1TGH2C","3XT3KXP24ZKFDDMCDS43FE3AU9W6IW","","null","<img src=""img/food1.png"" style=""width:200px; border:14px solid green;"">","null","","","","","","","","","",""
"","image-keyboard-response","129","74954","0.0-192.0","36U2A8VAG2LAOCK0AGP904Y4T91KY5","A37QFZ8I1TGH2C","3XT3KXP24ZKFDDMCDS43FE3AU9W6IW","","0.5999999642372131","img/food4.png","75","1.9000000357627869","2","1","false","1","2","1,0.5,0,1,0.5,0,0.5,0,1","0,1,0.5,0,1,0.5,1,0.5,0","3",""
"","html-keyboard-response","130","75256","0.0-193.0","36U2A8VAG2LAOCK0AGP904Y4T91KY5","A37QFZ8I1TGH2C","3XT3KXP24ZKFDDMCDS43FE3AU9W6IW","","null","<img src=""img/food4.png"" style=""width:200px; border:14px solid green;"">","null","","","","","","","","","",""
"","image-keyboard-response","131","75370","0.0-195.0","36U2A8VAG2LAOCK0AGP904Y4T91KY5","A37QFZ8I1TGH2C","3XT3KXP24ZKFDDMCDS43FE3AU9W6IW","","111.89999997615814","img/food1.png","75","112.90000003576279","2","1","false","3","2","1,0.5,0,1,0.5,0,0.5,0,1","0,1,0.5,0,1,0.5,1,0.5,0","3",""
"","html-keyboard-response","132","75673","0.0-196.0","36U2A8VAG2LAOCK0AGP904Y4T91KY5","A37QFZ8I1TGH2C","3XT3KXP24ZKFDDMCDS43FE3AU9W6IW","","null","<img src=""img/food1.png"" style=""width:200px; border:14px solid green;"">","null","","","","","","","","","",""
"","image-keyboard-response","133","75993","0.0-198.0","36U2A8VAG2LAOCK0AGP904Y4T91KY5","A37QFZ8I1TGH2C","3XT3KXP24ZKFDDMCDS43FE3AU9W6IW","","319.39999997615814","img/food5.png","75","320.4000000357628","2","1","false","2","2","1,0.5,0,1,0.5,0,0.5,0,1","0,1,0.5,0,1,0.5,1,0.5,0","3",""
"","html-keyboard-response","134","76298","0.0-199.0","36U2A8VAG2LAOCK0AGP904Y4T91KY5","A37QFZ8I1TGH2C","3XT3KXP24ZKFDDMCDS43FE3AU9W6IW","","null","<img src=""img/food5.png"" style=""width:200px; border:14px solid green;"">","null","","","","","","","","","",""
"","image-keyboard-response","135","76378","0.0-201.0","36U2A8VAG2LAOCK0AGP904Y4T91KY5","A37QFZ8I1TGH2C","3XT3KXP24ZKFDDMCDS43FE3AU9W6IW","","78.5","img/food4.png","75","79.69999998807907","2","1","false","1","2","1,0.5,0,1,0.5,0,0.5,0,1","0,1,0.5,0,1,0.5,1,0.5,0","3",""
"","html-keyboard-response","136","76680","0.0-202.0","36U2A8VAG2LAOCK0AGP904Y4T91KY5","A37QFZ8I1TGH2C","3XT3KXP24ZKFDDMCDS43FE3AU9W6IW","","null","<img src=""img/food4.png"" style=""width:200px; border:14px solid green;"">","null","","","","","","","","","",""
"","image-keyboard-response","137","76705","0.0-204.0","36U2A8VAG2LAOCK0AGP904Y4T91KY5","A37QFZ8I1TGH2C","3XT3KXP24ZKFDDMCDS43FE3AU9W6IW","","24.299999952316284","img/food4.png","75","25.100000023841858","2","1","false","1","2","1,0.5,0,1,0.5,0,0.5,0,1","0,1,0.5,0,1,0.5,1,0.5,0","3",""
"","html-keyboard-response","138","77006","0.0-205.0","36U2A8VAG2LAOCK0AGP904Y4T91KY5","A37QFZ8I1TGH2C","3XT3KXP24ZKFDDMCDS43FE3AU9W6IW","","null","<img src=""img/food4.png"" style=""width:200px; border:14px solid green;"">","null","","","","","","","","","",""
"","image-keyboard-response","139","77058","0.0-207.0","36U2A8VAG2LAOCK0AGP904Y4T91KY5","A37QFZ8I1TGH2C","3XT3KXP24ZKFDDMCDS43FE3AU9W6IW","","49.80000001192093","img/food4.png","75","50.89999997615814","2","1","false","1","2","1,0.5,0,1,0.5,0,0.5,0,1","0,1,0.5,0,1,0.5,1,0.5,0","3",""
"","html-keyboard-response","140","77359","0.0-208.0","36U2A8VAG2LAOCK0AGP904Y4T91KY5","A37QFZ8I1TGH2C","3XT3KXP24ZKFDDMCDS43FE3AU9W6IW","","null","<img src=""img/food4.png"" style=""width:200px; border:14px solid green;"">","null","","","","","","","","","",""
"","image-keyboard-response","141","77410","0.0-210.0","36U2A8VAG2LAOCK0AGP904Y4T91KY5","A37QFZ8I1TGH2C","3XT3KXP24ZKFDDMCDS43FE3AU9W6IW","","48.90000003576279","img/food4.png","75","50","2","1","false","1","2","1,0.5,0,1,0.5,0,0.5,0,1","0,1,0.5,0,1,0.5,1,0.5,0","3",""
"","html-keyboard-response","142","77712","0.0-211.0","36U2A8VAG2LAOCK0AGP904Y4T91KY5","A37QFZ8I1TGH2C","3XT3KXP24ZKFDDMCDS43FE3AU9W6IW","","null","<img src=""img/food4.png"" style=""width:200px; border:14px solid green;"">","null","","","","","","","","","",""
"","image-keyboard-response","143","77738","0.0-213.0","36U2A8VAG2LAOCK0AGP904Y4T91KY5","A37QFZ8I1TGH2C","3XT3KXP24ZKFDDMCDS43FE3AU9W6IW","","24","img/food5.png","75","25.30000001192093","2","1","false","2","2","1,0.5,0,1,0.5,0,0.5,0,1","0,1,0.5,0,1,0.5,1,0.5,0","3",""
"","html-keyboard-response","144","78041","0.0-214.0","36U2A8VAG2LAOCK0AGP904Y4T91KY5","A37QFZ8I1TGH2C","3XT3KXP24ZKFDDMCDS43FE3AU9W6IW","","null","<img src=""img/food5.png"" style=""width:200px; border:14px solid green;"">","null","","","","","","","","","",""
"","image-keyboard-response","145","78348","0.0-216.0","36U2A8VAG2LAOCK0AGP904Y4T91KY5","A37QFZ8I1TGH2C","3XT3KXP24ZKFDDMCDS43FE3AU9W6IW","","305.19999998807907","img/food5.png","75","306.30000001192093","2","1","false","2","2","1,0.5,0,1,0.5,0,0.5,0,1","0,1,0.5,0,1,0.5,1,0.5,0","3",""
"","html-keyboard-response","146","78650","0.0-217.0","36U2A8VAG2LAOCK0AGP904Y4T91KY5","A37QFZ8I1TGH2C","3XT3KXP24ZKFDDMCDS43FE3AU9W6IW","","null","<img src=""img/food5.png"" style=""width:200px; border:14px solid green;"">","null","","","","","","","","","",""
"","image-keyboard-response","147","78714","0.0-219.0","36U2A8VAG2LAOCK0AGP904Y4T91KY5","A37QFZ8I1TGH2C","3XT3KXP24ZKFDDMCDS43FE3AU9W6IW","","62.40000003576279","img/food4.png","75","63.69999998807907","2","1","false","1","2","1,0.5,0,1,0.5,0,0.5,0,1","0,1,0.5,0,1,0.5,1,0.5,0","3",""
"","html-keyboard-response","148","79016","0.0-220.0","36U2A8VAG2LAOCK0AGP904Y4T91KY5","A37QFZ8I1TGH2C","3XT3KXP24ZKFDDMCDS43FE3AU9W6IW","","null","<img src=""img/food4.png"" style=""width:200px; border:14px solid green;"">","null","","","","","","","","","",""
"","image-keyboard-response","149","79193","0.0-222.0","36U2A8VAG2LAOCK0AGP904Y4T91KY5","A37QFZ8I1TGH2C","3XT3KXP24ZKFDDMCDS43FE3AU9W6IW","","176.5","img/food5.png","75","177.39999997615814","2","1","false","2","2","1,0.5,0,1,0.5,0,0.5,0,1","0,1,0.5,0,1,0.5,1,0.5,0","3",""
"","html-keyboard-response","150","79496","0.0-223.0","36U2A8VAG2LAOCK0AGP904Y4T91KY5","A37QFZ8I1TGH2C","3XT3KXP24ZKFDDMCDS43FE3AU9W6IW","","null","<img src=""img/food5.png"" style=""width:200px; border:14px solid green;"">","null","","","","","","","","","",""
"","image-keyboard-response","151","79602","0.0-225.0","36U2A8VAG2LAOCK0AGP904Y4T91KY5","A37QFZ8I1TGH2C","3XT3KXP24ZKFDDMCDS43FE3AU9W6IW","","105","img/food1.png","75","106","2","0","false","3","2","1,0.5,0,1,0.5,0,0.5,0,1","0,1,0.5,0,1,0.5,1,0.5,0","3",""
"","html-keyboard-response","152","79904","0.0-226.0","36U2A8VAG2LAOCK0AGP904Y4T91KY5","A37QFZ8I1TGH2C","3XT3KXP24ZKFDDMCDS43FE3AU9W6IW","","null","<img src=""img/food1.png"" style=""width:200px;border:14px solid red;"">","null","","","","","","","","","",""
"","image-keyboard-response","153","79978","0.0-228.0","36U2A8VAG2LAOCK0AGP904Y4T91KY5","A37QFZ8I1TGH2C","3XT3KXP24ZKFDDMCDS43FE3AU9W6IW","","72.10000002384186","img/food5.png","75","73.30000001192093","2","1","false","2","2","1,0.5,0,1,0.5,0,0.5,0,1","0,1,0.5,0,1,0.5,1,0.5,0","3",""
"","html-keyboard-response","154","80284","0.0-229.0","36U2A8VAG2LAOCK0AGP904Y4T91KY5","A37QFZ8I1TGH2C","3XT3KXP24ZKFDDMCDS43FE3AU9W6IW","","null","<img src=""img/food5.png"" style=""width:200px; border:14px solid green;"">","null","","","","","","","","","",""
"","image-keyboard-response","155","80329","0.0-231.0","36U2A8VAG2LAOCK0AGP904Y4T91KY5","A37QFZ8I1TGH2C","3XT3KXP24ZKFDDMCDS43FE3AU9W6IW","","43.39999997615814","img/food1.png","75","44.5","2","0","false","3","2","1,0.5,0,1,0.5,0,0.5,0,1","0,1,0.5,0,1,0.5,1,0.5,0","3",""
"","html-keyboard-response","156","80631","0.0-232.0","36U2A8VAG2LAOCK0AGP904Y4T91KY5","A37QFZ8I1TGH2C","3XT3KXP24ZKFDDMCDS43FE3AU9W6IW","","null","<img src=""img/food1.png"" style=""width:200px;border:14px solid red;"">","null","","","","","","","","","",""
"","image-keyboard-response","157","80730","0.0-234.0","36U2A8VAG2LAOCK0AGP904Y4T91KY5","A37QFZ8I1TGH2C","3XT3KXP24ZKFDDMCDS43FE3AU9W6IW","","97.39999997615814","img/food5.png","75","98.39999997615814","2","1","false","2","2","1,0.5,0,1,0.5,0,0.5,0,1","0,1,0.5,0,1,0.5,1,0.5,0","3",""
"","html-keyboard-response","158","81039","0.0-235.0","36U2A8VAG2LAOCK0AGP904Y4T91KY5","A37QFZ8I1TGH2C","3XT3KXP24ZKFDDMCDS43FE3AU9W6IW","","null","<img src=""img/food5.png"" style=""width:200px; border:14px solid green;"">","null","","","","","","","","","",""
"","image-keyboard-response","159","81057","0.0-237.0","36U2A8VAG2LAOCK0AGP904Y4T91KY5","A37QFZ8I1TGH2C","3XT3KXP24ZKFDDMCDS43FE3AU9W6IW","","16.900000035762787","img/food5.png","75","17.80000001192093","2","1","false","2","2","1,0.5,0,1,0.5,0,0.5,0,1","0,1,0.5,0,1,0.5,1,0.5,0","3",""
"","html-keyboard-response","160","81358","0.0-238.0","36U2A8VAG2LAOCK0AGP904Y4T91KY5","A37QFZ8I1TGH2C","3XT3KXP24ZKFDDMCDS43FE3AU9W6IW","","null","<img src=""img/food5.png"" style=""width:200px; border:14px solid green;"">","null","","","","","","","","","",""
"","image-keyboard-response","161","81441","0.0-240.0","36U2A8VAG2LAOCK0AGP904Y4T91KY5","A37QFZ8I1TGH2C","3XT3KXP24ZKFDDMCDS43FE3AU9W6IW","","81.39999997615814","img/food5.png","75","82.69999998807907","2","1","false","2","2","1,0.5,0,1,0.5,0,0.5,0,1","0,1,0.5,0,1,0.5,1,0.5,0","3",""
"","html-keyboard-response","162","81743","0.0-241.0","36U2A8VAG2LAOCK0AGP904Y4T91KY5","A37QFZ8I1TGH2C","3XT3KXP24ZKFDDMCDS43FE3AU9W6IW","","null","<img src=""img/food5.png"" style=""width:200px; border:14px solid green;"">","null","","","","","","","","","",""
"","image-keyboard-response","163","81809","0.0-243.0","36U2A8VAG2LAOCK0AGP904Y4T91KY5","A37QFZ8I1TGH2C","3XT3KXP24ZKFDDMCDS43FE3AU9W6IW","","64.39999997615814","img/food4.png","75","65.40000003576279","2","1","false","1","2","1,0.5,0,1,0.5,0,0.5,0,1","0,1,0.5,0,1,0.5,1,0.5,0","3",""
"","html-keyboard-response","164","82111","0.0-244.0","36U2A8VAG2LAOCK0AGP904Y4T91KY5","A37QFZ8I1TGH2C","3XT3KXP24ZKFDDMCDS43FE3AU9W6IW","","null","<img src=""img/food4.png"" style=""width:200px; border:14px solid green;"">","null","","","","","","","","","",""
"","image-keyboard-response","165","82129","0.0-246.0","36U2A8VAG2LAOCK0AGP904Y4T91KY5","A37QFZ8I1TGH2C","3XT3KXP24ZKFDDMCDS43FE3AU9W6IW","","17.19999998807907","img/food4.png","75","18.100000023841858","2","1","false","1","2","1,0.5,0,1,0.5,0,0.5,0,1","0,1,0.5,0,1,0.5,1,0.5,0","3",""
"","html-keyboard-response","166","82439","0.0-247.0","36U2A8VAG2LAOCK0AGP904Y4T91KY5","A37QFZ8I1TGH2C","3XT3KXP24ZKFDDMCDS43FE3AU9W6IW","","null","<img src=""img/food4.png"" style=""width:200px; border:14px solid green;"">","null","","","","","","","","","",""
"","image-keyboard-response","167","82497","0.0-249.0","36U2A8VAG2LAOCK0AGP904Y4T91KY5","A37QFZ8I1TGH2C","3XT3KXP24ZKFDDMCDS43FE3AU9W6IW","","56.89999997615814","img/food5.png","75","57.69999998807907","2","1","false","2","2","1,0.5,0,1,0.5,0,0.5,0,1","0,1,0.5,0,1,0.5,1,0.5,0","3",""
"","html-keyboard-response","168","82800","0.0-250.0","36U2A8VAG2LAOCK0AGP904Y4T91KY5","A37QFZ8I1TGH2C","3XT3KXP24ZKFDDMCDS43FE3AU9W6IW","","null","<img src=""img/food5.png"" style=""width:200px; border:14px solid green;"">","null","","","","","","","","","",""
"","image-keyboard-response","169","82898","0.0-252.0","36U2A8VAG2LAOCK0AGP904Y4T91KY5","A37QFZ8I1TGH2C","3XT3KXP24ZKFDDMCDS43FE3AU9W6IW","","96.80000001192093","img/food4.png","75","98.19999998807907","2","1","false","1","2","1,0.5,0,1,0.5,0,0.5,0,1","0,1,0.5,0,1,0.5,1,0.5,0","3",""
"","html-keyboard-response","170","83200","0.0-253.0","36U2A8VAG2LAOCK0AGP904Y4T91KY5","A37QFZ8I1TGH2C","3XT3KXP24ZKFDDMCDS43FE3AU9W6IW","","null","<img src=""img/food4.png"" style=""width:200px; border:14px solid green;"">","null","","","","","","","","","",""
"","image-keyboard-response","171","83274","0.0-255.0","36U2A8VAG2LAOCK0AGP904Y4T91KY5","A37QFZ8I1TGH2C","3XT3KXP24ZKFDDMCDS43FE3AU9W6IW","","71.5","img/food1.png","75","72.69999998807907","2","1","false","3","2","1,0.5,0,1,0.5,0,0.5,0,1","0,1,0.5,0,1,0.5,1,0.5,0","3",""
"","html-keyboard-response","172","83587","0.0-256.0","36U2A8VAG2LAOCK0AGP904Y4T91KY5","A37QFZ8I1TGH2C","3XT3KXP24ZKFDDMCDS43FE3AU9W6IW","","null","<img src=""img/food1.png"" style=""width:200px; border:14px solid green;"">","null","","","","","","","","","",""
"","image-keyboard-response","173","83633","0.0-258.0","36U2A8VAG2LAOCK0AGP904Y4T91KY5","A37QFZ8I1TGH2C","3XT3KXP24ZKFDDMCDS43FE3AU9W6IW","","44.5","img/food5.png","75","45.5","2","1","false","2","2","1,0.5,0,1,0.5,0,0.5,0,1","0,1,0.5,0,1,0.5,1,0.5,0","3",""
"","html-keyboard-response","174","83936","0.0-259.0","36U2A8VAG2LAOCK0AGP904Y4T91KY5","A37QFZ8I1TGH2C","3XT3KXP24ZKFDDMCDS43FE3AU9W6IW","","null","<img src=""img/food5.png"" style=""width:200px; border:14px solid green;"">","null","","","","","","","","","",""
"","image-keyboard-response","175","84001","0.0-261.0","36U2A8VAG2LAOCK0AGP904Y4T91KY5","A37QFZ8I1TGH2C","3XT3KXP24ZKFDDMCDS43FE3AU9W6IW","","62.299999952316284","img/food1.png","75","63.30000001192093","2","1","false","3","2","1,0.5,0,1,0.5,0,0.5,0,1","0,1,0.5,0,1,0.5,1,0.5,0","3",""
"","html-keyboard-response","176","84304","0.0-262.0","36U2A8VAG2LAOCK0AGP904Y4T91KY5","A37QFZ8I1TGH2C","3XT3KXP24ZKFDDMCDS43FE3AU9W6IW","","null","<img src=""img/food1.png"" style=""width:200px; border:14px solid green;"">","null","","","","","","","","","",""
"","image-keyboard-response","177","84338","0.0-264.0","36U2A8VAG2LAOCK0AGP904Y4T91KY5","A37QFZ8I1TGH2C","3XT3KXP24ZKFDDMCDS43FE3AU9W6IW","","32.799999952316284","img/food5.png","75","33.80000001192093","2","1","false","2","2","1,0.5,0,1,0.5,0,0.5,0,1","0,1,0.5,0,1,0.5,1,0.5,0","3",""
"","html-keyboard-response","178","84641","0.0-265.0","36U2A8VAG2LAOCK0AGP904Y4T91KY5","A37QFZ8I1TGH2C","3XT3KXP24ZKFDDMCDS43FE3AU9W6IW","","null","<img src=""img/food5.png"" style=""width:200px; border:14px solid green;"">","null","","","","","","","","","",""
"","image-keyboard-response","179","84683","0.0-267.0","36U2A8VAG2LAOCK0AGP904Y4T91KY5","A37QFZ8I1TGH2C","3XT3KXP24ZKFDDMCDS43FE3AU9W6IW","","40.80000001192093","img/food1.png","75","42","2","0","false","3","2","1,0.5,0,1,0.5,0,0.5,0,1","0,1,0.5,0,1,0.5,1,0.5,0","3",""
"","html-keyboard-response","180","84987","0.0-268.0","36U2A8VAG2LAOCK0AGP904Y4T91KY5","A37QFZ8I1TGH2C","3XT3KXP24ZKFDDMCDS43FE3AU9W6IW","","null","<img src=""img/food1.png"" style=""width:200px;border:14px solid red;"">","null","","","","","","","","","",""
"","image-keyboard-response","181","85001","0.0-270.0","36U2A8VAG2LAOCK0AGP904Y4T91KY5","A37QFZ8I1TGH2C","3XT3KXP24ZKFDDMCDS43FE3AU9W6IW","","13.599999964237213","img/food5.png","75","14.400000035762787","2","1","false","2","2","1,0.5,0,1,0.5,0,0.5,0,1","0,1,0.5,0,1,0.5,1,0.5,0","3",""
"","html-keyboard-response","182","85304","0.0-271.0","36U2A8VAG2LAOCK0AGP904Y4T91KY5","A37QFZ8I1TGH2C","3XT3KXP24ZKFDDMCDS43FE3AU9W6IW","","null","<img src=""img/food5.png"" style=""width:200px; border:14px solid green;"">","null","","","","","","","","","",""
"","instructions","183","94727","0.0-273.0","36U2A8VAG2LAOCK0AGP904Y4T91KY5","A37QFZ8I1TGH2C","3XT3KXP24ZKFDDMCDS43FE3AU9W6IW","[{""page_index"":0,""viewing_time"":8091.699999988079},{""page_index"":1,""viewing_time"":1330}]","9422","","","","","","","","","","","",""
"","image-keyboard-response","184","95506","0.0-274.0","36U2A8VAG2LAOCK0AGP904Y4T91KY5","A37QFZ8I1TGH2C","3XT3KXP24ZKFDDMCDS43FE3AU9W6IW","","777.8000000119209","img/food3.png","74","779.1000000238419","1","0","","2","1","1,0.5,0,1,0.5,0,0.5,0,1","0,1,0.5,0,1,0.5,1,0.5,0","3",""
"","html-keyboard-response","185","95810","0.0-275.0","36U2A8VAG2LAOCK0AGP904Y4T91KY5","A37QFZ8I1TGH2C","3XT3KXP24ZKFDDMCDS43FE3AU9W6IW","","null","<img src=""img/food3.png"" style=""width:200px;border:14px solid red;"">","null","","","","","","","","","",""
"","image-keyboard-response","186","96369","0.0-276.0","36U2A8VAG2LAOCK0AGP904Y4T91KY5","A37QFZ8I1TGH2C","3XT3KXP24ZKFDDMCDS43FE3AU9W6IW","","558.1999999880791","img/food2.png","75","559.3000000119209","2","1","","1","1","1,0.5,0,1,0.5,0,0.5,0,1","0,1,0.5,0,1,0.5,1,0.5,0","3",""
"","html-keyboard-response","187","96671","0.0-277.0","36U2A8VAG2LAOCK0AGP904Y4T91KY5","A37QFZ8I1TGH2C","3XT3KXP24ZKFDDMCDS43FE3AU9W6IW","","null","<img src=""img/food2.png"" style=""width:200px; border:14px solid green;"">","null","","","","","","","","","",""
"","image-keyboard-response","188","97385","0.0-278.0","36U2A8VAG2LAOCK0AGP904Y4T91KY5","A37QFZ8I1TGH2C","3XT3KXP24ZKFDDMCDS43FE3AU9W6IW","","713.3000000119209","img/food3.png","75","714.3000000119209","2","1","","2","1","1,0.5,0,1,0.5,0,0.5,0,1","0,1,0.5,0,1,0.5,1,0.5,0","3",""
"","html-keyboard-response","189","97687","0.0-279.0","36U2A8VAG2LAOCK0AGP904Y4T91KY5","A37QFZ8I1TGH2C","3XT3KXP24ZKFDDMCDS43FE3AU9W6IW","","null","<img src=""img/food3.png"" style=""width:200px; border:14px solid green;"">","null","","","","","","","","","",""
"","image-keyboard-response","190","98177","0.0-280.0","36U2A8VAG2LAOCK0AGP904Y4T91KY5","A37QFZ8I1TGH2C","3XT3KXP24ZKFDDMCDS43FE3AU9W6IW","","488.30000001192093","img/food3.png","75","489.4000000357628","2","1","","2","1","1,0.5,0,1,0.5,0,0.5,0,1","0,1,0.5,0,1,0.5,1,0.5,0","3",""
"","html-keyboard-response","191","98480","0.0-281.0","36U2A8VAG2LAOCK0AGP904Y4T91KY5","A37QFZ8I1TGH2C","3XT3KXP24ZKFDDMCDS43FE3AU9W6IW","","null","<img src=""img/food3.png"" style=""width:200px; border:14px solid green;"">","null","","","","","","","","","",""
"","image-keyboard-response","192","98961","0.0-282.0","36U2A8VAG2LAOCK0AGP904Y4T91KY5","A37QFZ8I1TGH2C","3XT3KXP24ZKFDDMCDS43FE3AU9W6IW","","480.10000002384186","img/food3.png","75","481.4000000357628","2","1","","2","1","1,0.5,0,1,0.5,0,0.5,0,1","0,1,0.5,0,1,0.5,1,0.5,0","3",""
"","html-keyboard-response","193","99263","0.0-283.0","36U2A8VAG2LAOCK0AGP904Y4T91KY5","A37QFZ8I1TGH2C","3XT3KXP24ZKFDDMCDS43FE3AU9W6IW","","null","<img src=""img/food3.png"" style=""width:200px; border:14px solid green;"">","null","","","","","","","","","",""
"","image-keyboard-response","194","99786","0.0-284.0","36U2A8VAG2LAOCK0AGP904Y4T91KY5","A37QFZ8I1TGH2C","3XT3KXP24ZKFDDMCDS43FE3AU9W6IW","","520.6000000238419","img/food2.png","75","521.8999999761581","2","1","","1","1","1,0.5,0,1,0.5,0,0.5,0,1","0,1,0.5,0,1,0.5,1,0.5,0","3",""
"","html-keyboard-response","195","100088","0.0-285.0","36U2A8VAG2LAOCK0AGP904Y4T91KY5","A37QFZ8I1TGH2C","3XT3KXP24ZKFDDMCDS43FE3AU9W6IW","","null","<img src=""img/food2.png"" style=""width:200px; border:14px solid green;"">","null","","","","","","","","","",""
"","image-keyboard-response","196","100667","0.0-286.0","36U2A8VAG2LAOCK0AGP904Y4T91KY5","A37QFZ8I1TGH2C","3XT3KXP24ZKFDDMCDS43FE3AU9W6IW","","577.1999999880791","img/food3.png","75","578.5999999642372","2","1","","2","1","1,0.5,0,1,0.5,0,0.5,0,1","0,1,0.5,0,1,0.5,1,0.5,0","3",""
"","html-keyboard-response","197","100970","0.0-287.0","36U2A8VAG2LAOCK0AGP904Y4T91KY5","A37QFZ8I1TGH2C","3XT3KXP24ZKFDDMCDS43FE3AU9W6IW","","null","<img src=""img/food3.png"" style=""width:200px; border:14px solid green;"">","null","","","","","","","","","",""
"","image-keyboard-response","198","101586","0.0-288.0","36U2A8VAG2LAOCK0AGP904Y4T91KY5","A37QFZ8I1TGH2C","3XT3KXP24ZKFDDMCDS43FE3AU9W6IW","","613.8999999761581","img/food6.png","75","614.8999999761581","2","1","","3","1","1,0.5,0,1,0.5,0,0.5,0,1","0,1,0.5,0,1,0.5,1,0.5,0","3",""
"","html-keyboard-response","199","101888","0.0-289.0","36U2A8VAG2LAOCK0AGP904Y4T91KY5","A37QFZ8I1TGH2C","3XT3KXP24ZKFDDMCDS43FE3AU9W6IW","","null","<img src=""img/food6.png"" style=""width:200px; border:14px solid green;"">","null","","","","","","","","","",""
"","image-keyboard-response","200","102441","0.0-290.0","36U2A8VAG2LAOCK0AGP904Y4T91KY5","A37QFZ8I1TGH2C","3XT3KXP24ZKFDDMCDS43FE3AU9W6IW","","552.0999999642372","img/food6.png","75","553.1999999880791","2","0","","3","1","1,0.5,0,1,0.5,0,0.5,0,1","0,1,0.5,0,1,0.5,1,0.5,0","3",""
"","html-keyboard-response","201","102743","0.0-291.0","36U2A8VAG2LAOCK0AGP904Y4T91KY5","A37QFZ8I1TGH2C","3XT3KXP24ZKFDDMCDS43FE3AU9W6IW","","null","<img src=""img/food6.png"" style=""width:200px;border:14px solid red;"">","null","","","","","","","","","",""
"","image-keyboard-response","202","103777","0.0-292.0","36U2A8VAG2LAOCK0AGP904Y4T91KY5","A37QFZ8I1TGH2C","3XT3KXP24ZKFDDMCDS43FE3AU9W6IW","","1033.5","img/food6.png","74","1034.300000011921","1","1","","3","1","1,0.5,0,1,0.5,0,0.5,0,1","0,1,0.5,0,1,0.5,1,0.5,0","3",""
"","html-keyboard-response","203","104080","0.0-293.0","36U2A8VAG2LAOCK0AGP904Y4T91KY5","A37QFZ8I1TGH2C","3XT3KXP24ZKFDDMCDS43FE3AU9W6IW","","null","<img src=""img/food6.png"" style=""width:200px; border:14px solid green;"">","null","","","","","","","","","",""
"","image-keyboard-response","204","104626","0.0-294.0","36U2A8VAG2LAOCK0AGP904Y4T91KY5","A37QFZ8I1TGH2C","3XT3KXP24ZKFDDMCDS43FE3AU9W6IW","","544.6999999880791","img/food3.png","75","545.6000000238419","2","1","","2","1","1,0.5,0,1,0.5,0,0.5,0,1","0,1,0.5,0,1,0.5,1,0.5,0","3",""
"","html-keyboard-response","205","104928","0.0-295.0","36U2A8VAG2LAOCK0AGP904Y4T91KY5","A37QFZ8I1TGH2C","3XT3KXP24ZKFDDMCDS43FE3AU9W6IW","","null","<img src=""img/food3.png"" style=""width:200px; border:14px solid green;"">","null","","","","","","","","","",""
"","image-keyboard-response","206","105505","0.0-296.0","36U2A8VAG2LAOCK0AGP904Y4T91KY5","A37QFZ8I1TGH2C","3XT3KXP24ZKFDDMCDS43FE3AU9W6IW","","576.5","img/food3.png","75","577.5","2","1","","2","1","1,0.5,0,1,0.5,0,0.5,0,1","0,1,0.5,0,1,0.5,1,0.5,0","3",""
"","html-keyboard-response","207","105808","0.0-297.0","36U2A8VAG2LAOCK0AGP904Y4T91KY5","A37QFZ8I1TGH2C","3XT3KXP24ZKFDDMCDS43FE3AU9W6IW","","null","<img src=""img/food3.png"" style=""width:200px; border:14px solid green;"">","null","","","","","","","","","",""
"","image-keyboard-response","208","106682","0.0-298.0","36U2A8VAG2LAOCK0AGP904Y4T91KY5","A37QFZ8I1TGH2C","3XT3KXP24ZKFDDMCDS43FE3AU9W6IW","","871.8999999761581","img/food2.png","76","873.1999999880791","3","1","","1","1","1,0.5,0,1,0.5,0,0.5,0,1","0,1,0.5,0,1,0.5,1,0.5,0","3",""
"","html-keyboard-response","209","106990","0.0-299.0","36U2A8VAG2LAOCK0AGP904Y4T91KY5","A37QFZ8I1TGH2C","3XT3KXP24ZKFDDMCDS43FE3AU9W6IW","","null","<img src=""img/food2.png"" style=""width:200px; border:14px solid green;"">","null","","","","","","","","","",""
"","image-keyboard-response","210","107465","0.0-300.0","36U2A8VAG2LAOCK0AGP904Y4T91KY5","A37QFZ8I1TGH2C","3XT3KXP24ZKFDDMCDS43FE3AU9W6IW","","473.39999997615814","img/food2.png","76","474.39999997615814","3","0","","1","1","1,0.5,0,1,0.5,0,0.5,0,1","0,1,0.5,0,1,0.5,1,0.5,0","3",""
"","html-keyboard-response","211","107767","0.0-301.0","36U2A8VAG2LAOCK0AGP904Y4T91KY5","A37QFZ8I1TGH2C","3XT3KXP24ZKFDDMCDS43FE3AU9W6IW","","null","<img src=""img/food2.png"" style=""width:200px;border:14px solid red;"">","null","","","","","","","","","",""
"","image-keyboard-response","212","108545","0.0-302.0","36U2A8VAG2LAOCK0AGP904Y4T91KY5","A37QFZ8I1TGH2C","3XT3KXP24ZKFDDMCDS43FE3AU9W6IW","","776.3999999761581","img/food6.png","75","777.5","2","0","","3","1","1,0.5,0,1,0.5,0,0.5,0,1","0,1,0.5,0,1,0.5,1,0.5,0","3",""
"","html-keyboard-response","213","108848","0.0-303.0","36U2A8VAG2LAOCK0AGP904Y4T91KY5","A37QFZ8I1TGH2C","3XT3KXP24ZKFDDMCDS43FE3AU9W6IW","","null","<img src=""img/food6.png"" style=""width:200px;border:14px solid red;"">","null","","","","","","","","","",""
"","image-keyboard-response","214","109177","0.0-304.0","36U2A8VAG2LAOCK0AGP904Y4T91KY5","A37QFZ8I1TGH2C","3XT3KXP24ZKFDDMCDS43FE3AU9W6IW","","328.10000002384186","img/food2.png","74","329","1","0","","1","1","1,0.5,0,1,0.5,0,0.5,0,1","0,1,0.5,0,1,0.5,1,0.5,0","3",""
"","html-keyboard-response","215","109480","0.0-305.0","36U2A8VAG2LAOCK0AGP904Y4T91KY5","A37QFZ8I1TGH2C","3XT3KXP24ZKFDDMCDS43FE3AU9W6IW","","null","<img src=""img/food2.png"" style=""width:200px;border:14px solid red;"">","null","","","","","","","","","",""
"","image-keyboard-response","216","109706","0.0-306.0","36U2A8VAG2LAOCK0AGP904Y4T91KY5","A37QFZ8I1TGH2C","3XT3KXP24ZKFDDMCDS43FE3AU9W6IW","","223.89999997615814","img/food2.png","75","225.19999998807907","2","1","","1","1","1,0.5,0,1,0.5,0,0.5,0,1","0,1,0.5,0,1,0.5,1,0.5,0","3",""
"","html-keyboard-response","217","110009","0.0-307.0","36U2A8VAG2LAOCK0AGP904Y4T91KY5","A37QFZ8I1TGH2C","3XT3KXP24ZKFDDMCDS43FE3AU9W6IW","","null","<img src=""img/food2.png"" style=""width:200px; border:14px solid green;"">","null","","","","","","","","","",""
"","image-keyboard-response","218","110115","0.0-308.0","36U2A8VAG2LAOCK0AGP904Y4T91KY5","A37QFZ8I1TGH2C","3XT3KXP24ZKFDDMCDS43FE3AU9W6IW","","105","img/food6.png","75","106.30000001192093","2","1","","3","1","1,0.5,0,1,0.5,0,0.5,0,1","0,1,0.5,0,1,0.5,1,0.5,0","3",""
"","html-keyboard-response","219","110417","0.0-309.0","36U2A8VAG2LAOCK0AGP904Y4T91KY5","A37QFZ8I1TGH2C","3XT3KXP24ZKFDDMCDS43FE3AU9W6IW","","null","<img src=""img/food6.png"" style=""width:200px; border:14px solid green;"">","null","","","","","","","","","",""
"","image-keyboard-response","220","110874","0.0-310.0","36U2A8VAG2LAOCK0AGP904Y4T91KY5","A37QFZ8I1TGH2C","3XT3KXP24ZKFDDMCDS43FE3AU9W6IW","","455.39999997615814","img/food6.png","75","456.2999999523163","2","1","","3","1","1,0.5,0,1,0.5,0,0.5,0,1","0,1,0.5,0,1,0.5,1,0.5,0","3",""
"","html-keyboard-response","221","111176","0.0-311.0","36U2A8VAG2LAOCK0AGP904Y4T91KY5","A37QFZ8I1TGH2C","3XT3KXP24ZKFDDMCDS43FE3AU9W6IW","","null","<img src=""img/food6.png"" style=""width:200px; border:14px solid green;"">","null","","","","","","","","","",""
"","image-keyboard-response","222","111617","0.0-312.0","36U2A8VAG2LAOCK0AGP904Y4T91KY5","A37QFZ8I1TGH2C","3XT3KXP24ZKFDDMCDS43FE3AU9W6IW","","439.7000000476837","img/food6.png","75","440.89999997615814","2","1","","3","1","1,0.5,0,1,0.5,0,0.5,0,1","0,1,0.5,0,1,0.5,1,0.5,0","3",""
"","html-keyboard-response","223","111919","0.0-313.0","36U2A8VAG2LAOCK0AGP904Y4T91KY5","A37QFZ8I1TGH2C","3XT3KXP24ZKFDDMCDS43FE3AU9W6IW","","null","<img src=""img/food6.png"" style=""width:200px; border:14px solid green;"">","null","","","","","","","","","",""
"","image-keyboard-response","224","112185","0.0-314.0","36U2A8VAG2LAOCK0AGP904Y4T91KY5","A37QFZ8I1TGH2C","3XT3KXP24ZKFDDMCDS43FE3AU9W6IW","","265.5999999642372","img/food6.png","75","266.5","2","1","","3","1","1,0.5,0,1,0.5,0,0.5,0,1","0,1,0.5,0,1,0.5,1,0.5,0","3",""
"","html-keyboard-response","225","112499","0.0-315.0","36U2A8VAG2LAOCK0AGP904Y4T91KY5","A37QFZ8I1TGH2C","3XT3KXP24ZKFDDMCDS43FE3AU9W6IW","","null","<img src=""img/food6.png"" style=""width:200px; border:14px solid green;"">","null","","","","","","","","","",""
"","image-keyboard-response","226","112722","0.0-316.0","36U2A8VAG2LAOCK0AGP904Y4T91KY5","A37QFZ8I1TGH2C","3XT3KXP24ZKFDDMCDS43FE3AU9W6IW","","221","img/food6.png","75","222.19999998807907","2","1","","3","1","1,0.5,0,1,0.5,0,0.5,0,1","0,1,0.5,0,1,0.5,1,0.5,0","3",""
"","html-keyboard-response","227","113023","0.0-317.0","36U2A8VAG2LAOCK0AGP904Y4T91KY5","A37QFZ8I1TGH2C","3XT3KXP24ZKFDDMCDS43FE3AU9W6IW","","null","<img src=""img/food6.png"" style=""width:200px; border:14px solid green;"">","null","","","","","","","","","",""
"","image-keyboard-response","228","113162","0.0-318.0","36U2A8VAG2LAOCK0AGP904Y4T91KY5","A37QFZ8I1TGH2C","3XT3KXP24ZKFDDMCDS43FE3AU9W6IW","","136.89999997615814","img/food3.png","75","138","2","1","","2","1","1,0.5,0,1,0.5,0,0.5,0,1","0,1,0.5,0,1,0.5,1,0.5,0","3",""
"","html-keyboard-response","229","113465","0.0-319.0","36U2A8VAG2LAOCK0AGP904Y4T91KY5","A37QFZ8I1TGH2C","3XT3KXP24ZKFDDMCDS43FE3AU9W6IW","","null","<img src=""img/food3.png"" style=""width:200px; border:14px solid green;"">","null","","","","","","","","","",""
"","image-keyboard-response","230","113633","0.0-320.0","36U2A8VAG2LAOCK0AGP904Y4T91KY5","A37QFZ8I1TGH2C","3XT3KXP24ZKFDDMCDS43FE3AU9W6IW","","167.89999997615814","img/food6.png","75","168.80000001192093","2","1","","3","1","1,0.5,0,1,0.5,0,0.5,0,1","0,1,0.5,0,1,0.5,1,0.5,0","3",""
"","html-keyboard-response","231","113937","0.0-321.0","36U2A8VAG2LAOCK0AGP904Y4T91KY5","A37QFZ8I1TGH2C","3XT3KXP24ZKFDDMCDS43FE3AU9W6IW","","null","<img src=""img/food6.png"" style=""width:200px; border:14px solid green;"">","null","","","","","","","","","",""
"","image-keyboard-response","232","114082","0.0-322.0","36U2A8VAG2LAOCK0AGP904Y4T91KY5","A37QFZ8I1TGH2C","3XT3KXP24ZKFDDMCDS43FE3AU9W6IW","","143.60000002384186","img/food6.png","75","144.80000001192093","2","1","","3","1","1,0.5,0,1,0.5,0,0.5,0,1","0,1,0.5,0,1,0.5,1,0.5,0","3",""
"","html-keyboard-response","233","114384","0.0-323.0","36U2A8VAG2LAOCK0AGP904Y4T91KY5","A37QFZ8I1TGH2C","3XT3KXP24ZKFDDMCDS43FE3AU9W6IW","","null","<img src=""img/food6.png"" style=""width:200px; border:14px solid green;"">","null","","","","","","","","","",""
"","image-keyboard-response","234","114593","0.0-324.0","36U2A8VAG2LAOCK0AGP904Y4T91KY5","A37QFZ8I1TGH2C","3XT3KXP24ZKFDDMCDS43FE3AU9W6IW","","207.9000000357628","img/food2.png","75","208.69999998807907","2","1","","1","1","1,0.5,0,1,0.5,0,0.5,0,1","0,1,0.5,0,1,0.5,1,0.5,0","3",""
"","html-keyboard-response","235","114896","0.0-325.0","36U2A8VAG2LAOCK0AGP904Y4T91KY5","A37QFZ8I1TGH2C","3XT3KXP24ZKFDDMCDS43FE3AU9W6IW","","null","<img src=""img/food2.png"" style=""width:200px; border:14px solid green;"">","null","","","","","","","","","",""
"","image-keyboard-response","236","115089","0.0-326.0","36U2A8VAG2LAOCK0AGP904Y4T91KY5","A37QFZ8I1TGH2C","3XT3KXP24ZKFDDMCDS43FE3AU9W6IW","","192","img/food2.png","75","192.89999997615814","2","1","","1","1","1,0.5,0,1,0.5,0,0.5,0,1","0,1,0.5,0,1,0.5,1,0.5,0","3",""
"","html-keyboard-response","237","115391","0.0-327.0","36U2A8VAG2LAOCK0AGP904Y4T91KY5","A37QFZ8I1TGH2C","3XT3KXP24ZKFDDMCDS43FE3AU9W6IW","","null","<img src=""img/food2.png"" style=""width:200px; border:14px solid green;"">","null","","","","","","","","","",""
"","image-keyboard-response","238","115515","0.0-328.0","36U2A8VAG2LAOCK0AGP904Y4T91KY5","A37QFZ8I1TGH2C","3XT3KXP24ZKFDDMCDS43FE3AU9W6IW","","122.39999997615814","img/food3.png","75","123.80000001192093","2","1","","2","1","1,0.5,0,1,0.5,0,0.5,0,1","0,1,0.5,0,1,0.5,1,0.5,0","3",""
"","html-keyboard-response","239","115817","0.0-329.0","36U2A8VAG2LAOCK0AGP904Y4T91KY5","A37QFZ8I1TGH2C","3XT3KXP24ZKFDDMCDS43FE3AU9W6IW","","null","<img src=""img/food3.png"" style=""width:200px; border:14px solid green;"">","null","","","","","","","","","",""
"","image-keyboard-response","240","115969","0.0-330.0","36U2A8VAG2LAOCK0AGP904Y4T91KY5","A37QFZ8I1TGH2C","3XT3KXP24ZKFDDMCDS43FE3AU9W6IW","","150.80000001192093","img/food3.png","75","151.79999995231628","2","1","","2","1","1,0.5,0,1,0.5,0,0.5,0,1","0,1,0.5,0,1,0.5,1,0.5,0","3",""
"","html-keyboard-response","241","116274","0.0-331.0","36U2A8VAG2LAOCK0AGP904Y4T91KY5","A37QFZ8I1TGH2C","3XT3KXP24ZKFDDMCDS43FE3AU9W6IW","","null","<img src=""img/food3.png"" style=""width:200px; border:14px solid green;"">","null","","","","","","","","","",""
"","image-keyboard-response","242","116401","0.0-332.0","36U2A8VAG2LAOCK0AGP904Y4T91KY5","A37QFZ8I1TGH2C","3XT3KXP24ZKFDDMCDS43FE3AU9W6IW","","125.80000001192093","img/food2.png","75","127.09999996423721","2","1","","1","1","1,0.5,0,1,0.5,0,0.5,0,1","0,1,0.5,0,1,0.5,1,0.5,0","3",""
"","html-keyboard-response","243","116704","0.0-333.0","36U2A8VAG2LAOCK0AGP904Y4T91KY5","A37QFZ8I1TGH2C","3XT3KXP24ZKFDDMCDS43FE3AU9W6IW","","null","<img src=""img/food2.png"" style=""width:200px; border:14px solid green;"">","null","","","","","","","","","",""
"","image-keyboard-response","244","116857","0.0-334.0","36U2A8VAG2LAOCK0AGP904Y4T91KY5","A37QFZ8I1TGH2C","3XT3KXP24ZKFDDMCDS43FE3AU9W6IW","","152.19999998807907","img/food3.png","75","153","2","1","","2","1","1,0.5,0,1,0.5,0,0.5,0,1","0,1,0.5,0,1,0.5,1,0.5,0","3",""
"","html-keyboard-response","245","117159","0.0-335.0","36U2A8VAG2LAOCK0AGP904Y4T91KY5","A37QFZ8I1TGH2C","3XT3KXP24ZKFDDMCDS43FE3AU9W6IW","","null","<img src=""img/food3.png"" style=""width:200px; border:14px solid green;"">","null","","","","","","","","","",""
"","image-keyboard-response","246","117315","0.0-336.0","36U2A8VAG2LAOCK0AGP904Y4T91KY5","A37QFZ8I1TGH2C","3XT3KXP24ZKFDDMCDS43FE3AU9W6IW","","153.5999999642372","img/food6.png","75","154.60000002384186","2","1","","3","1","1,0.5,0,1,0.5,0,0.5,0,1","0,1,0.5,0,1,0.5,1,0.5,0","3",""
"","html-keyboard-response","247","117618","0.0-337.0","36U2A8VAG2LAOCK0AGP904Y4T91KY5","A37QFZ8I1TGH2C","3XT3KXP24ZKFDDMCDS43FE3AU9W6IW","","null","<img src=""img/food6.png"" style=""width:200px; border:14px solid green;"">","null","","","","","","","","","",""
"","image-keyboard-response","248","117761","0.0-338.0","36U2A8VAG2LAOCK0AGP904Y4T91KY5","A37QFZ8I1TGH2C","3XT3KXP24ZKFDDMCDS43FE3AU9W6IW","","142.10000002384186","img/food2.png","75","142.9000000357628","2","1","","1","1","1,0.5,0,1,0.5,0,0.5,0,1","0,1,0.5,0,1,0.5,1,0.5,0","3",""
"","html-keyboard-response","249","118063","0.0-339.0","36U2A8VAG2LAOCK0AGP904Y4T91KY5","A37QFZ8I1TGH2C","3XT3KXP24ZKFDDMCDS43FE3AU9W6IW","","null","<img src=""img/food2.png"" style=""width:200px; border:14px solid green;"">","null","","","","","","","","","",""
"","image-keyboard-response","250","118169","0.0-340.0","36U2A8VAG2LAOCK0AGP904Y4T91KY5","A37QFZ8I1TGH2C","3XT3KXP24ZKFDDMCDS43FE3AU9W6IW","","104.39999997615814","img/food2.png","75","105.30000001192093","2","1","","1","1","1,0.5,0,1,0.5,0,0.5,0,1","0,1,0.5,0,1,0.5,1,0.5,0","3",""
"","html-keyboard-response","251","118471","0.0-341.0","36U2A8VAG2LAOCK0AGP904Y4T91KY5","A37QFZ8I1TGH2C","3XT3KXP24ZKFDDMCDS43FE3AU9W6IW","","null","<img src=""img/food2.png"" style=""width:200px; border:14px solid green;"">","null","","","","","","","","","",""
"","image-keyboard-response","252","118593","0.0-342.0","36U2A8VAG2LAOCK0AGP904Y4T91KY5","A37QFZ8I1TGH2C","3XT3KXP24ZKFDDMCDS43FE3AU9W6IW","","120.90000003576279","img/food3.png","75","122.09999996423721","2","1","","2","1","1,0.5,0,1,0.5,0,0.5,0,1","0,1,0.5,0,1,0.5,1,0.5,0","3",""
"","html-keyboard-response","253","118896","0.0-343.0","36U2A8VAG2LAOCK0AGP904Y4T91KY5","A37QFZ8I1TGH2C","3XT3KXP24ZKFDDMCDS43FE3AU9W6IW","","null","<img src=""img/food3.png"" style=""width:200px; border:14px solid green;"">","null","","","","","","","","","",""
"","image-keyboard-response","254","119026","0.0-344.0","36U2A8VAG2LAOCK0AGP904Y4T91KY5","A37QFZ8I1TGH2C","3XT3KXP24ZKFDDMCDS43FE3AU9W6IW","","128.29999995231628","img/food6.png","75","129.5","2","0","","3","1","1,0.5,0,1,0.5,0,0.5,0,1","0,1,0.5,0,1,0.5,1,0.5,0","3",""
"","html-keyboard-response","255","119329","0.0-345.0","36U2A8VAG2LAOCK0AGP904Y4T91KY5","A37QFZ8I1TGH2C","3XT3KXP24ZKFDDMCDS43FE3AU9W6IW","","null","<img src=""img/food6.png"" style=""width:200px;border:14px solid red;"">","null","","","","","","","","","",""
"","image-keyboard-response","256","119467","0.0-346.0","36U2A8VAG2LAOCK0AGP904Y4T91KY5","A37QFZ8I1TGH2C","3XT3KXP24ZKFDDMCDS43FE3AU9W6IW","","137.29999995231628","img/food6.png","75","138.29999995231628","2","1","","3","1","1,0.5,0,1,0.5,0,0.5,0,1","0,1,0.5,0,1,0.5,1,0.5,0","3",""
"","html-keyboard-response","257","119770","0.0-347.0","36U2A8VAG2LAOCK0AGP904Y4T91KY5","A37QFZ8I1TGH2C","3XT3KXP24ZKFDDMCDS43FE3AU9W6IW","","null","<img src=""img/food6.png"" style=""width:200px; border:14px solid green;"">","null","","","","","","","","","",""
"","image-keyboard-response","258","119849","0.0-348.0","36U2A8VAG2LAOCK0AGP904Y4T91KY5","A37QFZ8I1TGH2C","3XT3KXP24ZKFDDMCDS43FE3AU9W6IW","","77.5","img/food3.png","75","78.80000001192093","2","1","","2","1","1,0.5,0,1,0.5,0,0.5,0,1","0,1,0.5,0,1,0.5,1,0.5,0","3",""
"","html-keyboard-response","259","120152","0.0-349.0","36U2A8VAG2LAOCK0AGP904Y4T91KY5","A37QFZ8I1TGH2C","3XT3KXP24ZKFDDMCDS43FE3AU9W6IW","","null","<img src=""img/food3.png"" style=""width:200px; border:14px solid green;"">","null","","","","","","","","","",""
"","image-keyboard-response","260","120274","0.0-350.0","36U2A8VAG2LAOCK0AGP904Y4T91KY5","A37QFZ8I1TGH2C","3XT3KXP24ZKFDDMCDS43FE3AU9W6IW","","119.69999998807907","img/food2.png","75","120.89999997615814","2","1","","1","1","1,0.5,0,1,0.5,0,0.5,0,1","0,1,0.5,0,1,0.5,1,0.5,0","3",""
"","html-keyboard-response","261","120575","0.0-351.0","36U2A8VAG2LAOCK0AGP904Y4T91KY5","A37QFZ8I1TGH2C","3XT3KXP24ZKFDDMCDS43FE3AU9W6IW","","null","<img src=""img/food2.png"" style=""width:200px; border:14px solid green;"">","null","","","","","","","","","",""
"","image-keyboard-response","262","120785","0.0-352.0","36U2A8VAG2LAOCK0AGP904Y4T91KY5","A37QFZ8I1TGH2C","3XT3KXP24ZKFDDMCDS43FE3AU9W6IW","","208.69999998807907","img/food2.png","75","209.5999999642372","2","1","","1","1","1,0.5,0,1,0.5,0,0.5,0,1","0,1,0.5,0,1,0.5,1,0.5,0","3",""
"","html-keyboard-response","263","121086","0.0-353.0","36U2A8VAG2LAOCK0AGP904Y4T91KY5","A37QFZ8I1TGH2C","3XT3KXP24ZKFDDMCDS43FE3AU9W6IW","","null","<img src=""img/food2.png"" style=""width:200px; border:14px solid green;"">","null","","","","","","","","","",""
"","image-keyboard-response","264","121290","0.0-354.0","36U2A8VAG2LAOCK0AGP904Y4T91KY5","A37QFZ8I1TGH2C","3XT3KXP24ZKFDDMCDS43FE3AU9W6IW","","202.0999999642372","img/food2.png","75","203.0999999642372","2","1","","1","1","1,0.5,0,1,0.5,0,0.5,0,1","0,1,0.5,0,1,0.5,1,0.5,0","3",""
"","html-keyboard-response","265","121591","0.0-355.0","36U2A8VAG2LAOCK0AGP904Y4T91KY5","A37QFZ8I1TGH2C","3XT3KXP24ZKFDDMCDS43FE3AU9W6IW","","null","<img src=""img/food2.png"" style=""width:200px; border:14px solid green;"">","null","","","","","","","","","",""
"","image-keyboard-response","266","121721","0.0-356.0","36U2A8VAG2LAOCK0AGP904Y4T91KY5","A37QFZ8I1TGH2C","3XT3KXP24ZKFDDMCDS43FE3AU9W6IW","","128.9000000357628","img/food2.png","75","129.9000000357628","2","1","","1","1","1,0.5,0,1,0.5,0,0.5,0,1","0,1,0.5,0,1,0.5,1,0.5,0","3",""
"","html-keyboard-response","267","122023","0.0-357.0","36U2A8VAG2LAOCK0AGP904Y4T91KY5","A37QFZ8I1TGH2C","3XT3KXP24ZKFDDMCDS43FE3AU9W6IW","","null","<img src=""img/food2.png"" style=""width:200px; border:14px solid green;"">","null","","","","","","","","","",""
"","image-keyboard-response","268","122137","0.0-358.0","36U2A8VAG2LAOCK0AGP904Y4T91KY5","A37QFZ8I1TGH2C","3XT3KXP24ZKFDDMCDS43FE3AU9W6IW","","112.80000001192093","img/food6.png","75","113.69999998807907","2","0","","3","1","1,0.5,0,1,0.5,0,0.5,0,1","0,1,0.5,0,1,0.5,1,0.5,0","3",""
"","html-keyboard-response","269","122439","0.0-359.0","36U2A8VAG2LAOCK0AGP904Y4T91KY5","A37QFZ8I1TGH2C","3XT3KXP24ZKFDDMCDS43FE3AU9W6IW","","null","<img src=""img/food6.png"" style=""width:200px;border:14px solid red;"">","null","","","","","","","","","",""
"","image-keyboard-response","270","122945","0.0-360.0","36U2A8VAG2LAOCK0AGP904Y4T91KY5","A37QFZ8I1TGH2C","3XT3KXP24ZKFDDMCDS43FE3AU9W6IW","","505.19999998807907","img/food3.png","75","506.19999998807907","2","1","","2","1","1,0.5,0,1,0.5,0,0.5,0,1","0,1,0.5,0,1,0.5,1,0.5,0","3",""
"","html-keyboard-response","271","123249","0.0-361.0","36U2A8VAG2LAOCK0AGP904Y4T91KY5","A37QFZ8I1TGH2C","3XT3KXP24ZKFDDMCDS43FE3AU9W6IW","","null","<img src=""img/food3.png"" style=""width:200px; border:14px solid green;"">","null","","","","","","","","","",""
"","image-keyboard-response","272","123554","0.0-362.0","36U2A8VAG2LAOCK0AGP904Y4T91KY5","A37QFZ8I1TGH2C","3XT3KXP24ZKFDDMCDS43FE3AU9W6IW","","304.19999998807907","img/food6.png","75","305.2999999523163","2","1","","3","1","1,0.5,0,1,0.5,0,0.5,0,1","0,1,0.5,0,1,0.5,1,0.5,0","3",""
"","html-keyboard-response","273","123863","0.0-363.0","36U2A8VAG2LAOCK0AGP904Y4T91KY5","A37QFZ8I1TGH2C","3XT3KXP24ZKFDDMCDS43FE3AU9W6IW","","null","<img src=""img/food6.png"" style=""width:200px; border:14px solid green;"">","null","","","","","","","","","",""
"","image-keyboard-response","274","124122","0.0-364.0","36U2A8VAG2LAOCK0AGP904Y4T91KY5","A37QFZ8I1TGH2C","3XT3KXP24ZKFDDMCDS43FE3AU9W6IW","","257.30000001192093","img/food6.png","75","258.60000002384186","2","1","","3","1","1,0.5,0,1,0.5,0,0.5,0,1","0,1,0.5,0,1,0.5,1,0.5,0","3",""
"","html-keyboard-response","275","124424","0.0-365.0","36U2A8VAG2LAOCK0AGP904Y4T91KY5","A37QFZ8I1TGH2C","3XT3KXP24ZKFDDMCDS43FE3AU9W6IW","","null","<img src=""img/food6.png"" style=""width:200px; border:14px solid green;"">","null","","","","","","","","","",""
"","image-keyboard-response","276","124739","0.0-366.0","36U2A8VAG2LAOCK0AGP904Y4T91KY5","A37QFZ8I1TGH2C","3XT3KXP24ZKFDDMCDS43FE3AU9W6IW","","312.5","img/food2.png","75","314.30000001192093","2","1","","1","1","1,0.5,0,1,0.5,0,0.5,0,1","0,1,0.5,0,1,0.5,1,0.5,0","3",""
"","html-keyboard-response","277","125041","0.0-367.0","36U2A8VAG2LAOCK0AGP904Y4T91KY5","A37QFZ8I1TGH2C","3XT3KXP24ZKFDDMCDS43FE3AU9W6IW","","null","<img src=""img/food2.png"" style=""width:200px; border:14px solid green;"">","null","","","","","","","","","",""
"","image-keyboard-response","278","125345","0.0-368.0","36U2A8VAG2LAOCK0AGP904Y4T91KY5","A37QFZ8I1TGH2C","3XT3KXP24ZKFDDMCDS43FE3AU9W6IW","","302.80000001192093","img/food3.png","75","304.10000002384186","2","1","","2","1","1,0.5,0,1,0.5,0,0.5,0,1","0,1,0.5,0,1,0.5,1,0.5,0","3",""
"","html-keyboard-response","279","125647","0.0-369.0","36U2A8VAG2LAOCK0AGP904Y4T91KY5","A37QFZ8I1TGH2C","3XT3KXP24ZKFDDMCDS43FE3AU9W6IW","","null","<img src=""img/food3.png"" style=""width:200px; border:14px solid green;"">","null","","","","","","","","","",""
"","image-keyboard-response","280","125937","0.0-370.0","36U2A8VAG2LAOCK0AGP904Y4T91KY5","A37QFZ8I1TGH2C","3XT3KXP24ZKFDDMCDS43FE3AU9W6IW","","288.30000001192093","img/food2.png","75","289.5999999642372","2","1","","1","1","1,0.5,0,1,0.5,0,0.5,0,1","0,1,0.5,0,1,0.5,1,0.5,0","3",""
"","html-keyboard-response","281","126240","0.0-371.0","36U2A8VAG2LAOCK0AGP904Y4T91KY5","A37QFZ8I1TGH2C","3XT3KXP24ZKFDDMCDS43FE3AU9W6IW","","null","<img src=""img/food2.png"" style=""width:200px; border:14px solid green;"">","null","","","","","","","","","",""
"","image-keyboard-response","282","126545","0.0-372.0","36U2A8VAG2LAOCK0AGP904Y4T91KY5","A37QFZ8I1TGH2C","3XT3KXP24ZKFDDMCDS43FE3AU9W6IW","","304.39999997615814","img/food3.png","75","305.60000002384186","2","1","","2","1","1,0.5,0,1,0.5,0,0.5,0,1","0,1,0.5,0,1,0.5,1,0.5,0","3",""
"","html-keyboard-response","283","126847","0.0-373.0","36U2A8VAG2LAOCK0AGP904Y4T91KY5","A37QFZ8I1TGH2C","3XT3KXP24ZKFDDMCDS43FE3AU9W6IW","","null","<img src=""img/food3.png"" style=""width:200px; border:14px solid green;"">","null","","","","","","","","","",""
"","image-keyboard-response","284","127137","0.0-374.0","36U2A8VAG2LAOCK0AGP904Y4T91KY5","A37QFZ8I1TGH2C","3XT3KXP24ZKFDDMCDS43FE3AU9W6IW","","287.89999997615814","img/food6.png","75","289.10000002384186","2","0","","3","1","1,0.5,0,1,0.5,0,0.5,0,1","0,1,0.5,0,1,0.5,1,0.5,0","3",""
"","html-keyboard-response","285","127438","0.0-375.0","36U2A8VAG2LAOCK0AGP904Y4T91KY5","A37QFZ8I1TGH2C","3XT3KXP24ZKFDDMCDS43FE3AU9W6IW","","null","<img src=""img/food6.png"" style=""width:200px;border:14px solid red;"">","null","","","","","","","","","",""
"","image-keyboard-response","286","127993","0.0-376.0","36U2A8VAG2LAOCK0AGP904Y4T91KY5","A37QFZ8I1TGH2C","3XT3KXP24ZKFDDMCDS43FE3AU9W6IW","","553.1999999880791","img/food2.png","75","554.4000000357628","2","1","","1","1","1,0.5,0,1,0.5,0,0.5,0,1","0,1,0.5,0,1,0.5,1,0.5,0","3",""
"","html-keyboard-response","287","128296","0.0-377.0","36U2A8VAG2LAOCK0AGP904Y4T91KY5","A37QFZ8I1TGH2C","3XT3KXP24ZKFDDMCDS43FE3AU9W6IW","","null","<img src=""img/food2.png"" style=""width:200px; border:14px solid green;"">","null","","","","","","","","","",""
"","image-keyboard-response","288","128761","0.0-378.0","36U2A8VAG2LAOCK0AGP904Y4T91KY5","A37QFZ8I1TGH2C","3XT3KXP24ZKFDDMCDS43FE3AU9W6IW","","464.0999999642372","img/food3.png","75","465.39999997615814","2","1","","2","1","1,0.5,0,1,0.5,0,0.5,0,1","0,1,0.5,0,1,0.5,1,0.5,0","3",""
"","html-keyboard-response","289","129064","0.0-379.0","36U2A8VAG2LAOCK0AGP904Y4T91KY5","A37QFZ8I1TGH2C","3XT3KXP24ZKFDDMCDS43FE3AU9W6IW","","null","<img src=""img/food3.png"" style=""width:200px; border:14px solid green;"">","null","","","","","","","","","",""
"","image-keyboard-response","290","129641","0.0-380.0","36U2A8VAG2LAOCK0AGP904Y4T91KY5","A37QFZ8I1TGH2C","3XT3KXP24ZKFDDMCDS43FE3AU9W6IW","","576.8000000119209","img/food6.png","74","577.6999999880791","1","1","","3","1","1,0.5,0,1,0.5,0,0.5,0,1","0,1,0.5,0,1,0.5,1,0.5,0","3",""
"","html-keyboard-response","291","129944","0.0-381.0","36U2A8VAG2LAOCK0AGP904Y4T91KY5","A37QFZ8I1TGH2C","3XT3KXP24ZKFDDMCDS43FE3AU9W6IW","","null","<img src=""img/food6.png"" style=""width:200px; border:14px solid green;"">","null","","","","","","","","","",""
"","image-keyboard-response","292","130177","0.0-382.0","36U2A8VAG2LAOCK0AGP904Y4T91KY5","A37QFZ8I1TGH2C","3XT3KXP24ZKFDDMCDS43FE3AU9W6IW","","232.69999998807907","img/food3.png","75","233.69999998807907","2","1","","2","1","1,0.5,0,1,0.5,0,0.5,0,1","0,1,0.5,0,1,0.5,1,0.5,0","3",""
"","html-keyboard-response","293","130479","0.0-383.0","36U2A8VAG2LAOCK0AGP904Y4T91KY5","A37QFZ8I1TGH2C","3XT3KXP24ZKFDDMCDS43FE3AU9W6IW","","null","<img src=""img/food3.png"" style=""width:200px; border:14px solid green;"">","null","","","","","","","","","",""
"","image-keyboard-response","294","131177","0.0-384.0","36U2A8VAG2LAOCK0AGP904Y4T91KY5","A37QFZ8I1TGH2C","3XT3KXP24ZKFDDMCDS43FE3AU9W6IW","","696.3999999761581","img/food6.png","74","697.8999999761581","1","1","","3","1","1,0.5,0,1,0.5,0,0.5,0,1","0,1,0.5,0,1,0.5,1,0.5,0","3",""
"","html-keyboard-response","295","131480","0.0-385.0","36U2A8VAG2LAOCK0AGP904Y4T91KY5","A37QFZ8I1TGH2C","3XT3KXP24ZKFDDMCDS43FE3AU9W6IW","","null","<img src=""img/food6.png"" style=""width:200px; border:14px solid green;"">","null","","","","","","","","","",""
"","image-keyboard-response","296","131649","0.0-386.0","36U2A8VAG2LAOCK0AGP904Y4T91KY5","A37QFZ8I1TGH2C","3XT3KXP24ZKFDDMCDS43FE3AU9W6IW","","167.80000001192093","img/food2.png","75","169.0999999642372","2","1","","1","1","1,0.5,0,1,0.5,0,0.5,0,1","0,1,0.5,0,1,0.5,1,0.5,0","3",""
"","html-keyboard-response","297","131951","0.0-387.0","36U2A8VAG2LAOCK0AGP904Y4T91KY5","A37QFZ8I1TGH2C","3XT3KXP24ZKFDDMCDS43FE3AU9W6IW","","null","<img src=""img/food2.png"" style=""width:200px; border:14px solid green;"">","null","","","","","","","","","",""
"","image-keyboard-response","298","132697","0.0-388.0","36U2A8VAG2LAOCK0AGP904Y4T91KY5","A37QFZ8I1TGH2C","3XT3KXP24ZKFDDMCDS43FE3AU9W6IW","","744.6000000238419","img/food3.png","75","745.4000000357628","2","1","","2","1","1,0.5,0,1,0.5,0,0.5,0,1","0,1,0.5,0,1,0.5,1,0.5,0","3",""
"","html-keyboard-response","299","132998","0.0-389.0","36U2A8VAG2LAOCK0AGP904Y4T91KY5","A37QFZ8I1TGH2C","3XT3KXP24ZKFDDMCDS43FE3AU9W6IW","","null","<img src=""img/food3.png"" style=""width:200px; border:14px solid green;"">","null","","","","","","","","","",""
"","image-keyboard-response","300","133577","0.0-390.0","36U2A8VAG2LAOCK0AGP904Y4T91KY5","A37QFZ8I1TGH2C","3XT3KXP24ZKFDDMCDS43FE3AU9W6IW","","577.6999999880791","img/food6.png","74","578.7000000476837","1","1","","3","1","1,0.5,0,1,0.5,0,0.5,0,1","0,1,0.5,0,1,0.5,1,0.5,0","3",""
"","html-keyboard-response","301","133879","0.0-391.0","36U2A8VAG2LAOCK0AGP904Y4T91KY5","A37QFZ8I1TGH2C","3XT3KXP24ZKFDDMCDS43FE3AU9W6IW","","null","<img src=""img/food6.png"" style=""width:200px; border:14px solid green;"">","null","","","","","","","","","",""
"","image-keyboard-response","302","134081","0.0-392.0","36U2A8VAG2LAOCK0AGP904Y4T91KY5","A37QFZ8I1TGH2C","3XT3KXP24ZKFDDMCDS43FE3AU9W6IW","","200.69999998807907","img/food3.png","75","201.60000002384186","2","1","","2","1","1,0.5,0,1,0.5,0,0.5,0,1","0,1,0.5,0,1,0.5,1,0.5,0","3",""
"","html-keyboard-response","303","134384","0.0-393.0","36U2A8VAG2LAOCK0AGP904Y4T91KY5","A37QFZ8I1TGH2C","3XT3KXP24ZKFDDMCDS43FE3AU9W6IW","","null","<img src=""img/food3.png"" style=""width:200px; border:14px solid green;"">","null","","","","","","","","","",""
"","image-keyboard-response","304","134649","0.0-394.0","36U2A8VAG2LAOCK0AGP904Y4T91KY5","A37QFZ8I1TGH2C","3XT3KXP24ZKFDDMCDS43FE3AU9W6IW","","263.80000001192093","img/food3.png","75","265","2","1","","2","1","1,0.5,0,1,0.5,0,0.5,0,1","0,1,0.5,0,1,0.5,1,0.5,0","3",""
"","html-keyboard-response","305","134951","0.0-395.0","36U2A8VAG2LAOCK0AGP904Y4T91KY5","A37QFZ8I1TGH2C","3XT3KXP24ZKFDDMCDS43FE3AU9W6IW","","null","<img src=""img/food3.png"" style=""width:200px; border:14px solid green;"">","null","","","","","","","","","",""
"","image-keyboard-response","306","135138","0.0-396.0","36U2A8VAG2LAOCK0AGP904Y4T91KY5","A37QFZ8I1TGH2C","3XT3KXP24ZKFDDMCDS43FE3AU9W6IW","","186","img/food3.png","75","187.0999999642372","2","1","","2","1","1,0.5,0,1,0.5,0,0.5,0,1","0,1,0.5,0,1,0.5,1,0.5,0","3",""
"","html-keyboard-response","307","135440","0.0-397.0","36U2A8VAG2LAOCK0AGP904Y4T91KY5","A37QFZ8I1TGH2C","3XT3KXP24ZKFDDMCDS43FE3AU9W6IW","","null","<img src=""img/food3.png"" style=""width:200px; border:14px solid green;"">","null","","","","","","","","","",""
"","image-keyboard-response","308","135569","0.0-398.0","36U2A8VAG2LAOCK0AGP904Y4T91KY5","A37QFZ8I1TGH2C","3XT3KXP24ZKFDDMCDS43FE3AU9W6IW","","127.5","img/food3.png","75","128.89999997615814","2","1","","2","1","1,0.5,0,1,0.5,0,0.5,0,1","0,1,0.5,0,1,0.5,1,0.5,0","3",""
"","html-keyboard-response","309","135871","0.0-399.0","36U2A8VAG2LAOCK0AGP904Y4T91KY5","A37QFZ8I1TGH2C","3XT3KXP24ZKFDDMCDS43FE3AU9W6IW","","null","<img src=""img/food3.png"" style=""width:200px; border:14px solid green;"">","null","","","","","","","","","",""
"","image-keyboard-response","310","136425","0.0-400.0","36U2A8VAG2LAOCK0AGP904Y4T91KY5","A37QFZ8I1TGH2C","3XT3KXP24ZKFDDMCDS43FE3AU9W6IW","","552.6999999880791","img/food6.png","74","553.6999999880791","1","1","","3","1","1,0.5,0,1,0.5,0,0.5,0,1","0,1,0.5,0,1,0.5,1,0.5,0","3",""
"","html-keyboard-response","311","136726","0.0-401.0","36U2A8VAG2LAOCK0AGP904Y4T91KY5","A37QFZ8I1TGH2C","3XT3KXP24ZKFDDMCDS43FE3AU9W6IW","","null","<img src=""img/food6.png"" style=""width:200px; border:14px solid green;"">","null","","","","","","","","","",""
"","image-keyboard-response","312","137233","0.0-402.0","36U2A8VAG2LAOCK0AGP904Y4T91KY5","A37QFZ8I1TGH2C","3XT3KXP24ZKFDDMCDS43FE3AU9W6IW","","504.10000002384186","img/food2.png","74","505.5","1","0","","1","1","1,0.5,0,1,0.5,0,0.5,0,1","0,1,0.5,0,1,0.5,1,0.5,0","3",""
"","html-keyboard-response","313","137536","0.0-403.0","36U2A8VAG2LAOCK0AGP904Y4T91KY5","A37QFZ8I1TGH2C","3XT3KXP24ZKFDDMCDS43FE3AU9W6IW","","null","<img src=""img/food2.png"" style=""width:200px;border:14px solid red;"">","null","","","","","","","","","",""
"","image-keyboard-response","314","137753","0.0-404.0","36U2A8VAG2LAOCK0AGP904Y4T91KY5","A37QFZ8I1TGH2C","3XT3KXP24ZKFDDMCDS43FE3AU9W6IW","","216.30000001192093","img/food3.png","75","217.20000004768372","2","1","","2","1","1,0.5,0,1,0.5,0,0.5,0,1","0,1,0.5,0,1,0.5,1,0.5,0","3",""
"","html-keyboard-response","315","138056","0.0-405.0","36U2A8VAG2LAOCK0AGP904Y4T91KY5","A37QFZ8I1TGH2C","3XT3KXP24ZKFDDMCDS43FE3AU9W6IW","","null","<img src=""img/food3.png"" style=""width:200px; border:14px solid green;"">","null","","","","","","","","","",""
"","image-keyboard-response","316","138249","0.0-406.0","36U2A8VAG2LAOCK0AGP904Y4T91KY5","A37QFZ8I1TGH2C","3XT3KXP24ZKFDDMCDS43FE3AU9W6IW","","192.10000002384186","img/food3.png","75","193.19999998807907","2","1","","2","1","1,0.5,0,1,0.5,0,0.5,0,1","0,1,0.5,0,1,0.5,1,0.5,0","3",""
"","html-keyboard-response","317","138550","0.0-407.0","36U2A8VAG2LAOCK0AGP904Y4T91KY5","A37QFZ8I1TGH2C","3XT3KXP24ZKFDDMCDS43FE3AU9W6IW","","null","<img src=""img/food3.png"" style=""width:200px; border:14px solid green;"">","null","","","","","","","","","",""
"","image-keyboard-response","318","138746","0.0-408.0","36U2A8VAG2LAOCK0AGP904Y4T91KY5","A37QFZ8I1TGH2C","3XT3KXP24ZKFDDMCDS43FE3AU9W6IW","","193.9000000357628","img/food6.png","75","195.30000001192093","2","0","","3","1","1,0.5,0,1,0.5,0,0.5,0,1","0,1,0.5,0,1,0.5,1,0.5,0","3",""
"","html-keyboard-response","319","139048","0.0-409.0","36U2A8VAG2LAOCK0AGP904Y4T91KY5","A37QFZ8I1TGH2C","3XT3KXP24ZKFDDMCDS43FE3AU9W6IW","","null","<img src=""img/food6.png"" style=""width:200px;border:14px solid red;"">","null","","","","","","","","","",""
"","image-keyboard-response","320","139529","0.0-410.0","36U2A8VAG2LAOCK0AGP904Y4T91KY5","A37QFZ8I1TGH2C","3XT3KXP24ZKFDDMCDS43FE3AU9W6IW","","480.19999998807907","img/food3.png","74","481.19999998807907","1","0","","2","1","1,0.5,0,1,0.5,0,0.5,0,1","0,1,0.5,0,1,0.5,1,0.5,0","3",""
"","html-keyboard-response","321","139831","0.0-411.0","36U2A8VAG2LAOCK0AGP904Y4T91KY5","A37QFZ8I1TGH2C","3XT3KXP24ZKFDDMCDS43FE3AU9W6IW","","null","<img src=""img/food3.png"" style=""width:200px;border:14px solid red;"">","null","","","","","","","","","",""
"","image-keyboard-response","322","140449","0.0-412.0","36U2A8VAG2LAOCK0AGP904Y4T91KY5","A37QFZ8I1TGH2C","3XT3KXP24ZKFDDMCDS43FE3AU9W6IW","","617","img/food6.png","75","618","2","0","","3","1","1,0.5,0,1,0.5,0,0.5,0,1","0,1,0.5,0,1,0.5,1,0.5,0","3",""
"","html-keyboard-response","323","140751","0.0-413.0","36U2A8VAG2LAOCK0AGP904Y4T91KY5","A37QFZ8I1TGH2C","3XT3KXP24ZKFDDMCDS43FE3AU9W6IW","","null","<img src=""img/food6.png"" style=""width:200px;border:14px solid red;"">","null","","","","","","","","","",""
"","image-keyboard-response","324","140825","0.0-414.0","36U2A8VAG2LAOCK0AGP904Y4T91KY5","A37QFZ8I1TGH2C","3XT3KXP24ZKFDDMCDS43FE3AU9W6IW","","72.39999997615814","img/food6.png","74","73.5","1","1","","3","1","1,0.5,0,1,0.5,0,0.5,0,1","0,1,0.5,0,1,0.5,1,0.5,0","3",""
"","html-keyboard-response","325","141127","0.0-415.0","36U2A8VAG2LAOCK0AGP904Y4T91KY5","A37QFZ8I1TGH2C","3XT3KXP24ZKFDDMCDS43FE3AU9W6IW","","null","<img src=""img/food6.png"" style=""width:200px; border:14px solid green;"">","null","","","","","","","","","",""
"","image-keyboard-response","326","141385","0.0-416.0","36U2A8VAG2LAOCK0AGP904Y4T91KY5","A37QFZ8I1TGH2C","3XT3KXP24ZKFDDMCDS43FE3AU9W6IW","","256.19999998807907","img/food2.png","74","257.5","1","0","","1","1","1,0.5,0,1,0.5,0,0.5,0,1","0,1,0.5,0,1,0.5,1,0.5,0","3",""
"","html-keyboard-response","327","141687","0.0-417.0","36U2A8VAG2LAOCK0AGP904Y4T91KY5","A37QFZ8I1TGH2C","3XT3KXP24ZKFDDMCDS43FE3AU9W6IW","","null","<img src=""img/food2.png"" style=""width:200px;border:14px solid red;"">","null","","","","","","","","","",""
"","image-keyboard-response","328","142481","0.0-418.0","36U2A8VAG2LAOCK0AGP904Y4T91KY5","A37QFZ8I1TGH2C","3XT3KXP24ZKFDDMCDS43FE3AU9W6IW","","792.5","img/food6.png","75","793.6000000238419","2","1","","3","1","1,0.5,0,1,0.5,0,0.5,0,1","0,1,0.5,0,1,0.5,1,0.5,0","3",""
"","html-keyboard-response","329","142783","0.0-419.0","36U2A8VAG2LAOCK0AGP904Y4T91KY5","A37QFZ8I1TGH2C","3XT3KXP24ZKFDDMCDS43FE3AU9W6IW","","null","<img src=""img/food6.png"" style=""width:200px; border:14px solid green;"">","null","","","","","","","","","",""
"","image-keyboard-response","330","143249","0.0-420.0","36U2A8VAG2LAOCK0AGP904Y4T91KY5","A37QFZ8I1TGH2C","3XT3KXP24ZKFDDMCDS43FE3AU9W6IW","","464.4000000357628","img/food2.png","75","465.9000000357628","2","1","","1","1","1,0.5,0,1,0.5,0,0.5,0,1","0,1,0.5,0,1,0.5,1,0.5,0","3",""
"","html-keyboard-response","331","143551","0.0-421.0","36U2A8VAG2LAOCK0AGP904Y4T91KY5","A37QFZ8I1TGH2C","3XT3KXP24ZKFDDMCDS43FE3AU9W6IW","","null","<img src=""img/food2.png"" style=""width:200px; border:14px solid green;"">","null","","","","","","","","","",""
"","image-keyboard-response","332","144041","0.0-422.0","36U2A8VAG2LAOCK0AGP904Y4T91KY5","A37QFZ8I1TGH2C","3XT3KXP24ZKFDDMCDS43FE3AU9W6IW","","488.5","img/food2.png","75","489.39999997615814","2","1","","1","1","1,0.5,0,1,0.5,0,0.5,0,1","0,1,0.5,0,1,0.5,1,0.5,0","3",""
"","html-keyboard-response","333","144342","0.0-423.0","36U2A8VAG2LAOCK0AGP904Y4T91KY5","A37QFZ8I1TGH2C","3XT3KXP24ZKFDDMCDS43FE3AU9W6IW","","null","<img src=""img/food2.png"" style=""width:200px; border:14px solid green;"">","null","","","","","","","","","",""
"","image-keyboard-response","334","144697","0.0-424.0","36U2A8VAG2LAOCK0AGP904Y4T91KY5","A37QFZ8I1TGH2C","3XT3KXP24ZKFDDMCDS43FE3AU9W6IW","","353.19999998807907","img/food2.png","75","354.19999998807907","2","1","","1","1","1,0.5,0,1,0.5,0,0.5,0,1","0,1,0.5,0,1,0.5,1,0.5,0","3",""
"","html-keyboard-response","335","144999","0.0-425.0","36U2A8VAG2LAOCK0AGP904Y4T91KY5","A37QFZ8I1TGH2C","3XT3KXP24ZKFDDMCDS43FE3AU9W6IW","","null","<img src=""img/food2.png"" style=""width:200px; border:14px solid green;"">","null","","","","","","","","","",""
"","image-keyboard-response","336","145937","0.0-426.0","36U2A8VAG2LAOCK0AGP904Y4T91KY5","A37QFZ8I1TGH2C","3XT3KXP24ZKFDDMCDS43FE3AU9W6IW","","937.1000000238419","img/food3.png","75","938","2","1","","2","1","1,0.5,0,1,0.5,0,0.5,0,1","0,1,0.5,0,1,0.5,1,0.5,0","3",""
"","html-keyboard-response","337","146239","0.0-427.0","36U2A8VAG2LAOCK0AGP904Y4T91KY5","A37QFZ8I1TGH2C","3XT3KXP24ZKFDDMCDS43FE3AU9W6IW","","null","<img src=""img/food3.png"" style=""width:200px; border:14px solid green;"">","null","","","","","","","","","",""
"","image-keyboard-response","338","146649","0.0-428.0","36U2A8VAG2LAOCK0AGP904Y4T91KY5","A37QFZ8I1TGH2C","3XT3KXP24ZKFDDMCDS43FE3AU9W6IW","","408.80000001192093","img/food3.png","75","409.9000000357628","2","1","","2","1","1,0.5,0,1,0.5,0,0.5,0,1","0,1,0.5,0,1,0.5,1,0.5,0","3",""
"","html-keyboard-response","339","146951","0.0-429.0","36U2A8VAG2LAOCK0AGP904Y4T91KY5","A37QFZ8I1TGH2C","3XT3KXP24ZKFDDMCDS43FE3AU9W6IW","","null","<img src=""img/food3.png"" style=""width:200px; border:14px solid green;"">","null","","","","","","","","","",""
"","image-keyboard-response","340","147377","0.0-430.0","36U2A8VAG2LAOCK0AGP904Y4T91KY5","A37QFZ8I1TGH2C","3XT3KXP24ZKFDDMCDS43FE3AU9W6IW","","424.30000001192093","img/food3.png","75","425.4000000357628","2","1","","2","1","1,0.5,0,1,0.5,0,0.5,0,1","0,1,0.5,0,1,0.5,1,0.5,0","3",""
"","html-keyboard-response","341","147678","0.0-431.0","36U2A8VAG2LAOCK0AGP904Y4T91KY5","A37QFZ8I1TGH2C","3XT3KXP24ZKFDDMCDS43FE3AU9W6IW","","null","<img src=""img/food3.png"" style=""width:200px; border:14px solid green;"">","null","","","","","","","","","",""
"","image-keyboard-response","342","148033","0.0-432.0","36U2A8VAG2LAOCK0AGP904Y4T91KY5","A37QFZ8I1TGH2C","3XT3KXP24ZKFDDMCDS43FE3AU9W6IW","","354.4000000357628","img/food2.png","75","355.30000001192093","2","1","","1","1","1,0.5,0,1,0.5,0,0.5,0,1","0,1,0.5,0,1,0.5,1,0.5,0","3",""
"","html-keyboard-response","343","148336","0.0-433.0","36U2A8VAG2LAOCK0AGP904Y4T91KY5","A37QFZ8I1TGH2C","3XT3KXP24ZKFDDMCDS43FE3AU9W6IW","","null","<img src=""img/food2.png"" style=""width:200px; border:14px solid green;"">","null","","","","","","","","","",""
"","image-keyboard-response","344","148681","0.0-434.0","36U2A8VAG2LAOCK0AGP904Y4T91KY5","A37QFZ8I1TGH2C","3XT3KXP24ZKFDDMCDS43FE3AU9W6IW","","343.89999997615814","img/food6.png","75","344.80000001192093","2","0","","3","1","1,0.5,0,1,0.5,0,0.5,0,1","0,1,0.5,0,1,0.5,1,0.5,0","3",""
"","html-keyboard-response","345","148983","0.0-435.0","36U2A8VAG2LAOCK0AGP904Y4T91KY5","A37QFZ8I1TGH2C","3XT3KXP24ZKFDDMCDS43FE3AU9W6IW","","null","<img src=""img/food6.png"" style=""width:200px;border:14px solid red;"">","null","","","","","","","","","",""
"","image-keyboard-response","346","149649","0.0-436.0","36U2A8VAG2LAOCK0AGP904Y4T91KY5","A37QFZ8I1TGH2C","3XT3KXP24ZKFDDMCDS43FE3AU9W6IW","","664.6999999880791","img/food6.png","74","665.8999999761581","1","1","","3","1","1,0.5,0,1,0.5,0,0.5,0,1","0,1,0.5,0,1,0.5,1,0.5,0","3",""
"","html-keyboard-response","347","149951","0.0-437.0","36U2A8VAG2LAOCK0AGP904Y4T91KY5","A37QFZ8I1TGH2C","3XT3KXP24ZKFDDMCDS43FE3AU9W6IW","","null","<img src=""img/food6.png"" style=""width:200px; border:14px solid green;"">","null","","","","","","","","","",""
"","image-keyboard-response","348","150465","0.0-438.0","36U2A8VAG2LAOCK0AGP904Y4T91KY5","A37QFZ8I1TGH2C","3XT3KXP24ZKFDDMCDS43FE3AU9W6IW","","512.5999999642372","img/food2.png","75","513.6999999880791","2","1","","1","1","1,0.5,0,1,0.5,0,0.5,0,1","0,1,0.5,0,1,0.5,1,0.5,0","3",""
"","html-keyboard-response","349","150768","0.0-439.0","36U2A8VAG2LAOCK0AGP904Y4T91KY5","A37QFZ8I1TGH2C","3XT3KXP24ZKFDDMCDS43FE3AU9W6IW","","null","<img src=""img/food2.png"" style=""width:200px; border:14px solid green;"">","null","","","","","","","","","",""
"","image-keyboard-response","350","151449","0.0-440.0","36U2A8VAG2LAOCK0AGP904Y4T91KY5","A37QFZ8I1TGH2C","3XT3KXP24ZKFDDMCDS43FE3AU9W6IW","","679.6999999880791","img/food6.png","74","680.7000000476837","1","1","","3","1","1,0.5,0,1,0.5,0,0.5,0,1","0,1,0.5,0,1,0.5,1,0.5,0","3",""
"","html-keyboard-response","351","151750","0.0-441.0","36U2A8VAG2LAOCK0AGP904Y4T91KY5","A37QFZ8I1TGH2C","3XT3KXP24ZKFDDMCDS43FE3AU9W6IW","","null","<img src=""img/food6.png"" style=""width:200px; border:14px solid green;"">","null","","","","","","","","","",""
"","image-keyboard-response","352","152225","0.0-442.0","36U2A8VAG2LAOCK0AGP904Y4T91KY5","A37QFZ8I1TGH2C","3XT3KXP24ZKFDDMCDS43FE3AU9W6IW","","472.80000001192093","img/food2.png","75","474","2","1","","1","1","1,0.5,0,1,0.5,0,0.5,0,1","0,1,0.5,0,1,0.5,1,0.5,0","3",""
"","html-keyboard-response","353","152526","0.0-443.0","36U2A8VAG2LAOCK0AGP904Y4T91KY5","A37QFZ8I1TGH2C","3XT3KXP24ZKFDDMCDS43FE3AU9W6IW","","null","<img src=""img/food2.png"" style=""width:200px; border:14px solid green;"">","null","","","","","","","","","",""
"","image-keyboard-response","354","153001","0.0-444.0","36U2A8VAG2LAOCK0AGP904Y4T91KY5","A37QFZ8I1TGH2C","3XT3KXP24ZKFDDMCDS43FE3AU9W6IW","","473.4000000357628","img/food2.png","75","474.39999997615814","2","1","","1","1","1,0.5,0,1,0.5,0,0.5,0,1","0,1,0.5,0,1,0.5,1,0.5,0","3",""
"","html-keyboard-response","355","153302","0.0-445.0","36U2A8VAG2LAOCK0AGP904Y4T91KY5","A37QFZ8I1TGH2C","3XT3KXP24ZKFDDMCDS43FE3AU9W6IW","","null","<img src=""img/food2.png"" style=""width:200px; border:14px solid green;"">","null","","","","","","","","","",""
"","image-keyboard-response","356","153801","0.0-446.0","36U2A8VAG2LAOCK0AGP904Y4T91KY5","A37QFZ8I1TGH2C","3XT3KXP24ZKFDDMCDS43FE3AU9W6IW","","497.10000002384186","img/food2.png","75","498.5","2","1","","1","1","1,0.5,0,1,0.5,0,0.5,0,1","0,1,0.5,0,1,0.5,1,0.5,0","3",""
"","html-keyboard-response","357","154115","0.0-447.0","36U2A8VAG2LAOCK0AGP904Y4T91KY5","A37QFZ8I1TGH2C","3XT3KXP24ZKFDDMCDS43FE3AU9W6IW","","null","<img src=""img/food2.png"" style=""width:200px; border:14px solid green;"">","null","","","","","","","","","",""
"","image-keyboard-response","358","154825","0.0-448.0","36U2A8VAG2LAOCK0AGP904Y4T91KY5","A37QFZ8I1TGH2C","3XT3KXP24ZKFDDMCDS43FE3AU9W6IW","","709.1999999880791","img/food3.png","75","710.6000000238419","2","1","","2","1","1,0.5,0,1,0.5,0,0.5,0,1","0,1,0.5,0,1,0.5,1,0.5,0","3",""
"","html-keyboard-response","359","155128","0.0-449.0","36U2A8VAG2LAOCK0AGP904Y4T91KY5","A37QFZ8I1TGH2C","3XT3KXP24ZKFDDMCDS43FE3AU9W6IW","","null","<img src=""img/food3.png"" style=""width:200px; border:14px solid green;"">","null","","","","","","","","","",""
"","image-keyboard-response","360","155593","0.0-450.0","36U2A8VAG2LAOCK0AGP904Y4T91KY5","A37QFZ8I1TGH2C","3XT3KXP24ZKFDDMCDS43FE3AU9W6IW","","463.39999997615814","img/food2.png","75","464.30000001192093","2","1","","1","1","1,0.5,0,1,0.5,0,0.5,0,1","0,1,0.5,0,1,0.5,1,0.5,0","3",""
"","html-keyboard-response","361","155895","0.0-451.0","36U2A8VAG2LAOCK0AGP904Y4T91KY5","A37QFZ8I1TGH2C","3XT3KXP24ZKFDDMCDS43FE3AU9W6IW","","null","<img src=""img/food2.png"" style=""width:200px; border:14px solid green;"">","null","","","","","","","","","",""
"","image-keyboard-response","362","156409","0.0-452.0","36U2A8VAG2LAOCK0AGP904Y4T91KY5","A37QFZ8I1TGH2C","3XT3KXP24ZKFDDMCDS43FE3AU9W6IW","","513.1000000238419","img/food6.png","74","514.1999999880791","1","1","","3","1","1,0.5,0,1,0.5,0,0.5,0,1","0,1,0.5,0,1,0.5,1,0.5,0","3",""
"","html-keyboard-response","363","156712","0.0-453.0","36U2A8VAG2LAOCK0AGP904Y4T91KY5","A37QFZ8I1TGH2C","3XT3KXP24ZKFDDMCDS43FE3AU9W6IW","","null","<img src=""img/food6.png"" style=""width:200px; border:14px solid green;"">","null","","","","","","","","","",""
"","html-keyboard-response","364","160632","0.0-454.0","36U2A8VAG2LAOCK0AGP904Y4T91KY5","A37QFZ8I1TGH2C","3XT3KXP24ZKFDDMCDS43FE3AU9W6IW","","","","","","","","","","","","","",""
"","instructions","365","166390","0.0-455.0","36U2A8VAG2LAOCK0AGP904Y4T91KY5","A37QFZ8I1TGH2C","3XT3KXP24ZKFDDMCDS43FE3AU9W6IW","[{""page_index"":0,""viewing_time"":5756.699999988079}]","5757","","","","","","","","","","","",""
"","survey-text","366","170936","0.0-456.0","36U2A8VAG2LAOCK0AGP904Y4T91KY5","A37QFZ8I1TGH2C","3XT3KXP24ZKFDDMCDS43FE3AU9W6IW","","4542.5","","","","","","","","","","","","{""Q0"":""A37QFZ8I1TGH2C""}"
