"success","trial_type","trial_index","time_elapsed","internal_node_id","assignmentID","mturkID","hitID","view_history","rt","stimulus","key_press","reactionTime","a","r","warning","s","cond","reward_cond","reward_cond_actual","reward_matrix_idx","responses"
"true","fullscreen","0","4393","0.0-0.0","3ZWFC4W1UVTQBPG0VA6ICVD2IESRF7","A38DHLB88V8DL8","3D1UCPY6GGVNRONHL4UEVMXCHLT38H","","","","","","","","","","","","","",""
"","instructions","1","19364","0.0-1.0","3ZWFC4W1UVTQBPG0VA6ICVD2IESRF7","A38DHLB88V8DL8","3D1UCPY6GGVNRONHL4UEVMXCHLT38H","[{""page_index"":0,""viewing_time"":2309.400000035763},{""page_index"":1,""viewing_time"":1506.199999988079},{""page_index"":2,""viewing_time"":1259.800000011921},{""page_index"":3,""viewing_time"":2769.599999964237},{""page_index"":4,""viewing_time"":1918.5},{""page_index"":5,""viewing_time"":1809.9000000357628},{""page_index"":6,""viewing_time"":3396}]","14969.699999988079","","","","","","","","","","","",""
"","instructions","2","27794","0.0-2.0","3ZWFC4W1UVTQBPG0VA6ICVD2IESRF7","A38DHLB88V8DL8","3D1UCPY6GGVNRONHL4UEVMXCHLT38H","[{""page_index"":0,""viewing_time"":7445.300000011921},{""page_index"":1,""viewing_time"":983.8000000119209}]","8429.300000011921","","","","","","","","","","","",""
"","image-keyboard-response","3","28244","0.0-3.0","3ZWFC4W1UVTQBPG0VA6ICVD2IESRF7","A38DHLB88V8DL8","3D1UCPY6GGVNRONHL4UEVMXCHLT38H","","449.39999997615814","img/food3.png","74","450.10000002384186","1","0","false","1","2","1,0.5,0,1,0.5,0,0.5,0,1","0,1,0.5,0,1,0.5,1,0.5,0","3",""
"","html-keyboard-response","4","28551","0.0-4.0","3ZWFC4W1UVTQBPG0VA6ICVD2IESRF7","A38DHLB88V8DL8","3D1UCPY6GGVNRONHL4UEVMXCHLT38H","","null","<img src=""img/food3.png"" style=""width:200px;border:14px solid red;"">","null","","","","","","","","","",""
"","image-keyboard-response","5","29100","0.0-6.0","3ZWFC4W1UVTQBPG0VA6ICVD2IESRF7","A38DHLB88V8DL8","3D1UCPY6GGVNRONHL4UEVMXCHLT38H","","547.6999999880791","img/food3.png","74","548.4000000357628","1","0","false","1","2","1,0.5,0,1,0.5,0,0.5,0,1","0,1,0.5,0,1,0.5,1,0.5,0","3",""
"","html-keyboard-response","6","29408","0.0-7.0","3ZWFC4W1UVTQBPG0VA6ICVD2IESRF7","A38DHLB88V8DL8","3D1UCPY6GGVNRONHL4UEVMXCHLT38H","","null","<img src=""img/food3.png"" style=""width:200px;border:14px solid red;"">","null","","","","","","","","","",""
"","image-keyboard-response","7","29750","0.0-9.0","3ZWFC4W1UVTQBPG0VA6ICVD2IESRF7","A38DHLB88V8DL8","3D1UCPY6GGVNRONHL4UEVMXCHLT38H","","341.39999997615814","img/food3.png","75","341.89999997615814","2","1","false","1","2","1,0.5,0,1,0.5,0,0.5,0,1","0,1,0.5,0,1,0.5,1,0.5,0","3",""
"","html-keyboard-response","8","30052","0.0-10.0","3ZWFC4W1UVTQBPG0VA6ICVD2IESRF7","A38DHLB88V8DL8","3D1UCPY6GGVNRONHL4UEVMXCHLT38H","","null","<img src=""img/food3.png"" style=""width:200px; border:14px solid green;"">","null","","","","","","","","","",""
"","image-keyboard-response","9","30881","0.0-12.0","3ZWFC4W1UVTQBPG0VA6ICVD2IESRF7","A38DHLB88V8DL8","3D1UCPY6GGVNRONHL4UEVMXCHLT38H","","828.1000000238419","img/food5.png","76","828.8000000119209","3","1","false","2","2","1,0.5,0,1,0.5,0,0.5,0,1","0,1,0.5,0,1,0.5,1,0.5,0","3",""
"","html-keyboard-response","10","31183","0.0-13.0","3ZWFC4W1UVTQBPG0VA6ICVD2IESRF7","A38DHLB88V8DL8","3D1UCPY6GGVNRONHL4UEVMXCHLT38H","","null","<img src=""img/food5.png"" style=""width:200px; border:14px solid green;"">","null","","","","","","","","","",""
"","image-keyboard-response","11","31763","0.0-15.0","3ZWFC4W1UVTQBPG0VA6ICVD2IESRF7","A38DHLB88V8DL8","3D1UCPY6GGVNRONHL4UEVMXCHLT38H","","579.3000000119209","img/food5.png","76","579.7999999523163","3","0","false","2","2","1,0.5,0,1,0.5,0,0.5,0,1","0,1,0.5,0,1,0.5,1,0.5,0","3",""
"","html-keyboard-response","12","32065","0.0-16.0","3ZWFC4W1UVTQBPG0VA6ICVD2IESRF7","A38DHLB88V8DL8","3D1UCPY6GGVNRONHL4UEVMXCHLT38H","","null","<img src=""img/food5.png"" style=""width:200px;border:14px solid red;"">","null","","","","","","","","","",""
"","image-keyboard-response","13","32672","0.0-18.0","3ZWFC4W1UVTQBPG0VA6ICVD2IESRF7","A38DHLB88V8DL8","3D1UCPY6GGVNRONHL4UEVMXCHLT38H","","606.7999999523163","img/food3.png","75","607.0999999642372","2","1","false","1","2","1,0.5,0,1,0.5,0,0.5,0,1","0,1,0.5,0,1,0.5,1,0.5,0","3",""
"","html-keyboard-response","14","32973","0.0-19.0","3ZWFC4W1UVTQBPG0VA6ICVD2IESRF7","A38DHLB88V8DL8","3D1UCPY6GGVNRONHL4UEVMXCHLT38H","","null","<img src=""img/food3.png"" style=""width:200px; border:14px solid green;"">","null","","","","","","","","","",""
"","image-keyboard-response","15","33412","0.0-21.0","3ZWFC4W1UVTQBPG0VA6ICVD2IESRF7","A38DHLB88V8DL8","3D1UCPY6GGVNRONHL4UEVMXCHLT38H","","438.4000000357628","img/food3.png","75","439","2","1","false","1","2","1,0.5,0,1,0.5,0,0.5,0,1","0,1,0.5,0,1,0.5,1,0.5,0","3",""
"","html-keyboard-response","16","33713","0.0-22.0","3ZWFC4W1UVTQBPG0VA6ICVD2IESRF7","A38DHLB88V8DL8","3D1UCPY6GGVNRONHL4UEVMXCHLT38H","","null","<img src=""img/food3.png"" style=""width:200px; border:14px solid green;"">","null","","","","","","","","","",""
"","image-keyboard-response","17","34408","0.0-24.0","3ZWFC4W1UVTQBPG0VA6ICVD2IESRF7","A38DHLB88V8DL8","3D1UCPY6GGVNRONHL4UEVMXCHLT38H","","694.0999999642372","img/food4.png","74","694.6000000238419","1","1","false","3","2","1,0.5,0,1,0.5,0,0.5,0,1","0,1,0.5,0,1,0.5,1,0.5,0","3",""
"","html-keyboard-response","18","34710","0.0-25.0","3ZWFC4W1UVTQBPG0VA6ICVD2IESRF7","A38DHLB88V8DL8","3D1UCPY6GGVNRONHL4UEVMXCHLT38H","","null","<img src=""img/food4.png"" style=""width:200px; border:14px solid green;"">","null","","","","","","","","","",""
"","image-keyboard-response","19","35346","0.0-27.0","3ZWFC4W1UVTQBPG0VA6ICVD2IESRF7","A38DHLB88V8DL8","3D1UCPY6GGVNRONHL4UEVMXCHLT38H","","635","img/food3.png","75","635.5","2","1","false","1","2","1,0.5,0,1,0.5,0,0.5,0,1","0,1,0.5,0,1,0.5,1,0.5,0","3",""
"","html-keyboard-response","20","35647","0.0-28.0","3ZWFC4W1UVTQBPG0VA6ICVD2IESRF7","A38DHLB88V8DL8","3D1UCPY6GGVNRONHL4UEVMXCHLT38H","","null","<img src=""img/food3.png"" style=""width:200px; border:14px solid green;"">","null","","","","","","","","","",""
"","image-keyboard-response","21","36095","0.0-30.0","3ZWFC4W1UVTQBPG0VA6ICVD2IESRF7","A38DHLB88V8DL8","3D1UCPY6GGVNRONHL4UEVMXCHLT38H","","448.10000002384186","img/food3.png","75","448.5","2","1","false","1","2","1,0.5,0,1,0.5,0,0.5,0,1","0,1,0.5,0,1,0.5,1,0.5,0","3",""
"","html-keyboard-response","22","36397","0.0-31.0","3ZWFC4W1UVTQBPG0VA6ICVD2IESRF7","A38DHLB88V8DL8","3D1UCPY6GGVNRONHL4UEVMXCHLT38H","","null","<img src=""img/food3.png"" style=""width:200px; border:14px solid green;"">","null","","","","","","","","","",""
"","image-keyboard-response","23","36723","0.0-33.0","3ZWFC4W1UVTQBPG0VA6ICVD2IESRF7","A38DHLB88V8DL8","3D1UCPY6GGVNRONHL4UEVMXCHLT38H","","325.60000002384186","img/food3.png","75","326.10000002384186","2","1","false","1","2","1,0.5,0,1,0.5,0,0.5,0,1","0,1,0.5,0,1,0.5,1,0.5,0","3",""
"","html-keyboard-response","24","37024","0.0-34.0","3ZWFC4W1UVTQBPG0VA6ICVD2IESRF7","A38DHLB88V8DL8","3D1UCPY6GGVNRONHL4UEVMXCHLT38H","","null","<img src=""img/food3.png"" style=""width:200px; border:14px solid green;"">","null","","","","","","","","","",""
"","image-keyboard-response","25","37685","0.0-36.0","3ZWFC4W1UVTQBPG0VA6ICVD2IESRF7","A38DHLB88V8DL8","3D1UCPY6GGVNRONHL4UEVMXCHLT38H","","659.6999999880791","img/food5.png","76","660.2999999523163","3","0","false","2","2","1,0.5,0,1,0.5,0,0.5,0,1","0,1,0.5,0,1,0.5,1,0.5,0","3",""
"","html-keyboard-response","26","37986","0.0-37.0","3ZWFC4W1UVTQBPG0VA6ICVD2IESRF7","A38DHLB88V8DL8","3D1UCPY6GGVNRONHL4UEVMXCHLT38H","","null","<img src=""img/food5.png"" style=""width:200px;border:14px solid red;"">","null","","","","","","","","","",""
"","image-keyboard-response","27","38652","0.0-39.0","3ZWFC4W1UVTQBPG0VA6ICVD2IESRF7","A38DHLB88V8DL8","3D1UCPY6GGVNRONHL4UEVMXCHLT38H","","664.5999999642372","img/food3.png","75","665.1000000238419","2","1","false","1","2","1,0.5,0,1,0.5,0,0.5,0,1","0,1,0.5,0,1,0.5,1,0.5,0","3",""
"","html-keyboard-response","28","38952","0.0-40.0","3ZWFC4W1UVTQBPG0VA6ICVD2IESRF7","A38DHLB88V8DL8","3D1UCPY6GGVNRONHL4UEVMXCHLT38H","","null","<img src=""img/food3.png"" style=""width:200px; border:14px solid green;"">","null","","","","","","","","","",""
"","image-keyboard-response","29","39655","0.0-42.0","3ZWFC4W1UVTQBPG0VA6ICVD2IESRF7","A38DHLB88V8DL8","3D1UCPY6GGVNRONHL4UEVMXCHLT38H","","701.7000000476837","img/food5.png","76","702.0999999642372","3","0","false","2","2","1,0.5,0,1,0.5,0,0.5,0,1","0,1,0.5,0,1,0.5,1,0.5,0","3",""
"","html-keyboard-response","30","39956","0.0-43.0","3ZWFC4W1UVTQBPG0VA6ICVD2IESRF7","A38DHLB88V8DL8","3D1UCPY6GGVNRONHL4UEVMXCHLT38H","","null","<img src=""img/food5.png"" style=""width:200px;border:14px solid red;"">","null","","","","","","","","","",""
"","image-keyboard-response","31","40317","0.0-45.0","3ZWFC4W1UVTQBPG0VA6ICVD2IESRF7","A38DHLB88V8DL8","3D1UCPY6GGVNRONHL4UEVMXCHLT38H","","360.89999997615814","img/food5.png","76","361.19999998807907","3","1","false","2","2","1,0.5,0,1,0.5,0,0.5,0,1","0,1,0.5,0,1,0.5,1,0.5,0","3",""
"","html-keyboard-response","32","40619","0.0-46.0","3ZWFC4W1UVTQBPG0VA6ICVD2IESRF7","A38DHLB88V8DL8","3D1UCPY6GGVNRONHL4UEVMXCHLT38H","","null","<img src=""img/food5.png"" style=""width:200px; border:14px solid green;"">","null","","","","","","","","","",""
"","image-keyboard-response","33","41183","0.0-48.0","3ZWFC4W1UVTQBPG0VA6ICVD2IESRF7","A38DHLB88V8DL8","3D1UCPY6GGVNRONHL4UEVMXCHLT38H","","563.6999999880791","img/food3.png","75","564.1999999880791","2","1","false","1","2","1,0.5,0,1,0.5,0,0.5,0,1","0,1,0.5,0,1,0.5,1,0.5,0","3",""
"","html-keyboard-response","34","41485","0.0-49.0","3ZWFC4W1UVTQBPG0VA6ICVD2IESRF7","A38DHLB88V8DL8","3D1UCPY6GGVNRONHL4UEVMXCHLT38H","","null","<img src=""img/food3.png"" style=""width:200px; border:14px solid green;"">","null","","","","","","","","","",""
"","image-keyboard-response","35","42048","0.0-51.0","3ZWFC4W1UVTQBPG0VA6ICVD2IESRF7","A38DHLB88V8DL8","3D1UCPY6GGVNRONHL4UEVMXCHLT38H","","562.9000000357628","img/food3.png","75","563.5","2","1","false","1","2","1,0.5,0,1,0.5,0,0.5,0,1","0,1,0.5,0,1,0.5,1,0.5,0","3",""
"","html-keyboard-response","36","42350","0.0-52.0","3ZWFC4W1UVTQBPG0VA6ICVD2IESRF7","A38DHLB88V8DL8","3D1UCPY6GGVNRONHL4UEVMXCHLT38H","","null","<img src=""img/food3.png"" style=""width:200px; border:14px solid green;"">","null","","","","","","","","","",""
"","image-keyboard-response","37","42943","0.0-54.0","3ZWFC4W1UVTQBPG0VA6ICVD2IESRF7","A38DHLB88V8DL8","3D1UCPY6GGVNRONHL4UEVMXCHLT38H","","591.9000000357628","img/food4.png","74","592.3000000119209","1","1","false","3","2","1,0.5,0,1,0.5,0,0.5,0,1","0,1,0.5,0,1,0.5,1,0.5,0","3",""
"","html-keyboard-response","38","43244","0.0-55.0","3ZWFC4W1UVTQBPG0VA6ICVD2IESRF7","A38DHLB88V8DL8","3D1UCPY6GGVNRONHL4UEVMXCHLT38H","","null","<img src=""img/food4.png"" style=""width:200px; border:14px solid green;"">","null","","","","","","","","","",""
"","image-keyboard-response","39","43572","0.0-57.0","3ZWFC4W1UVTQBPG0VA6ICVD2IESRF7","A38DHLB88V8DL8","3D1UCPY6GGVNRONHL4UEVMXCHLT38H","","326.9000000357628","img/food4.png","74","327.39999997615814","1","1","false","3","2","1,0.5,0,1,0.5,0,0.5,0,1","0,1,0.5,0,1,0.5,1,0.5,0","3",""
"","html-keyboard-response","40","43874","0.0-58.0","3ZWFC4W1UVTQBPG0VA6ICVD2IESRF7","A38DHLB88V8DL8","3D1UCPY6GGVNRONHL4UEVMXCHLT38H","","null","<img src=""img/food4.png"" style=""width:200px; border:14px solid green;"">","null","","","","","","","","","",""
"","image-keyboard-response","41","44260","0.0-60.0","3ZWFC4W1UVTQBPG0VA6ICVD2IESRF7","A38DHLB88V8DL8","3D1UCPY6GGVNRONHL4UEVMXCHLT38H","","385.0999999642372","img/food4.png","74","385.60000002384186","1","1","false","3","2","1,0.5,0,1,0.5,0,0.5,0,1","0,1,0.5,0,1,0.5,1,0.5,0","3",""
"","html-keyboard-response","42","44562","0.0-61.0","3ZWFC4W1UVTQBPG0VA6ICVD2IESRF7","A38DHLB88V8DL8","3D1UCPY6GGVNRONHL4UEVMXCHLT38H","","null","<img src=""img/food4.png"" style=""width:200px; border:14px solid green;"">","null","","","","","","","","","",""
"","image-keyboard-response","43","45013","0.0-63.0","3ZWFC4W1UVTQBPG0VA6ICVD2IESRF7","A38DHLB88V8DL8","3D1UCPY6GGVNRONHL4UEVMXCHLT38H","","450.9000000357628","img/food3.png","75","451.5","2","1","false","1","2","1,0.5,0,1,0.5,0,0.5,0,1","0,1,0.5,0,1,0.5,1,0.5,0","3",""
"","html-keyboard-response","44","45315","0.0-64.0","3ZWFC4W1UVTQBPG0VA6ICVD2IESRF7","A38DHLB88V8DL8","3D1UCPY6GGVNRONHL4UEVMXCHLT38H","","null","<img src=""img/food3.png"" style=""width:200px; border:14px solid green;"">","null","","","","","","","","","",""
"","image-keyboard-response","45","45548","0.0-66.0","3ZWFC4W1UVTQBPG0VA6ICVD2IESRF7","A38DHLB88V8DL8","3D1UCPY6GGVNRONHL4UEVMXCHLT38H","","231.9000000357628","img/food3.png","75","232.4000000357628","2","1","false","1","2","1,0.5,0,1,0.5,0,0.5,0,1","0,1,0.5,0,1,0.5,1,0.5,0","3",""
"","html-keyboard-response","46","45849","0.0-67.0","3ZWFC4W1UVTQBPG0VA6ICVD2IESRF7","A38DHLB88V8DL8","3D1UCPY6GGVNRONHL4UEVMXCHLT38H","","null","<img src=""img/food3.png"" style=""width:200px; border:14px solid green;"">","null","","","","","","","","","",""
"","image-keyboard-response","47","46397","0.0-69.0","3ZWFC4W1UVTQBPG0VA6ICVD2IESRF7","A38DHLB88V8DL8","3D1UCPY6GGVNRONHL4UEVMXCHLT38H","","547.5999999642372","img/food5.png","76","548","3","1","false","2","2","1,0.5,0,1,0.5,0,0.5,0,1","0,1,0.5,0,1,0.5,1,0.5,0","3",""
"","html-keyboard-response","48","46710","0.0-70.0","3ZWFC4W1UVTQBPG0VA6ICVD2IESRF7","A38DHLB88V8DL8","3D1UCPY6GGVNRONHL4UEVMXCHLT38H","","null","<img src=""img/food5.png"" style=""width:200px; border:14px solid green;"">","null","","","","","","","","","",""
"","image-keyboard-response","49","46934","0.0-72.0","3ZWFC4W1UVTQBPG0VA6ICVD2IESRF7","A38DHLB88V8DL8","3D1UCPY6GGVNRONHL4UEVMXCHLT38H","","222.60000002384186","img/food4.png","76","223.30000001192093","3","0","false","3","2","1,0.5,0,1,0.5,0,0.5,0,1","0,1,0.5,0,1,0.5,1,0.5,0","3",""
"","html-keyboard-response","50","47236","0.0-73.0","3ZWFC4W1UVTQBPG0VA6ICVD2IESRF7","A38DHLB88V8DL8","3D1UCPY6GGVNRONHL4UEVMXCHLT38H","","null","<img src=""img/food4.png"" style=""width:200px;border:14px solid red;"">","null","","","","","","","","","",""
"","image-keyboard-response","51","48075","0.0-75.0","3ZWFC4W1UVTQBPG0VA6ICVD2IESRF7","A38DHLB88V8DL8","3D1UCPY6GGVNRONHL4UEVMXCHLT38H","","838.1000000238419","img/food5.png","76","838.5","3","1","false","2","2","1,0.5,0,1,0.5,0,0.5,0,1","0,1,0.5,0,1,0.5,1,0.5,0","3",""
"","html-keyboard-response","52","48377","0.0-76.0","3ZWFC4W1UVTQBPG0VA6ICVD2IESRF7","A38DHLB88V8DL8","3D1UCPY6GGVNRONHL4UEVMXCHLT38H","","null","<img src=""img/food5.png"" style=""width:200px; border:14px solid green;"">","null","","","","","","","","","",""
"","image-keyboard-response","53","48937","0.0-78.0","3ZWFC4W1UVTQBPG0VA6ICVD2IESRF7","A38DHLB88V8DL8","3D1UCPY6GGVNRONHL4UEVMXCHLT38H","","559.0999999642372","img/food5.png","76","559.6000000238419","3","0","false","2","2","1,0.5,0,1,0.5,0,0.5,0,1","0,1,0.5,0,1,0.5,1,0.5,0","3",""
"","html-keyboard-response","54","49238","0.0-79.0","3ZWFC4W1UVTQBPG0VA6ICVD2IESRF7","A38DHLB88V8DL8","3D1UCPY6GGVNRONHL4UEVMXCHLT38H","","null","<img src=""img/food5.png"" style=""width:200px;border:14px solid red;"">","null","","","","","","","","","",""
"","image-keyboard-response","55","50115","0.0-81.0","3ZWFC4W1UVTQBPG0VA6ICVD2IESRF7","A38DHLB88V8DL8","3D1UCPY6GGVNRONHL4UEVMXCHLT38H","","876.3000000119209","img/food4.png","74","876.8999999761581","1","1","false","3","2","1,0.5,0,1,0.5,0,0.5,0,1","0,1,0.5,0,1,0.5,1,0.5,0","3",""
"","html-keyboard-response","56","50416","0.0-82.0","3ZWFC4W1UVTQBPG0VA6ICVD2IESRF7","A38DHLB88V8DL8","3D1UCPY6GGVNRONHL4UEVMXCHLT38H","","null","<img src=""img/food4.png"" style=""width:200px; border:14px solid green;"">","null","","","","","","","","","",""
"","image-keyboard-response","57","51418","0.0-84.0","3ZWFC4W1UVTQBPG0VA6ICVD2IESRF7","A38DHLB88V8DL8","3D1UCPY6GGVNRONHL4UEVMXCHLT38H","","","img/food5.png","","1001.4000000357628","-1","0","true","2","2","1,0.5,0,1,0.5,0,0.5,0,1","0,1,0.5,0,1,0.5,1,0.5,0","3",""
"","html-keyboard-response","58","51720","0.0-85.0","3ZWFC4W1UVTQBPG0VA6ICVD2IESRF7","A38DHLB88V8DL8","3D1UCPY6GGVNRONHL4UEVMXCHLT38H","","null","<img src=""img/food5.png"" style=""width:200px;border:14px solid red;"">","null","","","","","","","","","",""
"","html-keyboard-response","59","58778","0.0-86.0-0.0","3ZWFC4W1UVTQBPG0VA6ICVD2IESRF7","A38DHLB88V8DL8","3D1UCPY6GGVNRONHL4UEVMXCHLT38H","","","","","","","","","","","","","",""
"","image-keyboard-response","60","59667","0.0-87.0","3ZWFC4W1UVTQBPG0VA6ICVD2IESRF7","A38DHLB88V8DL8","3D1UCPY6GGVNRONHL4UEVMXCHLT38H","","888.2999999523163","img/food3.png","75","888.8000000119209","2","1","false","1","2","1,0.5,0,1,0.5,0,0.5,0,1","0,1,0.5,0,1,0.5,1,0.5,0","3",""
"","html-keyboard-response","61","59968","0.0-88.0","3ZWFC4W1UVTQBPG0VA6ICVD2IESRF7","A38DHLB88V8DL8","3D1UCPY6GGVNRONHL4UEVMXCHLT38H","","null","<img src=""img/food3.png"" style=""width:200px; border:14px solid green;"">","null","","","","","","","","","",""
"","image-keyboard-response","62","60520","0.0-90.0","3ZWFC4W1UVTQBPG0VA6ICVD2IESRF7","A38DHLB88V8DL8","3D1UCPY6GGVNRONHL4UEVMXCHLT38H","","551","img/food5.png","76","551.4000000357628","3","0","false","2","2","1,0.5,0,1,0.5,0,0.5,0,1","0,1,0.5,0,1,0.5,1,0.5,0","3",""
"","html-keyboard-response","63","60821","0.0-91.0","3ZWFC4W1UVTQBPG0VA6ICVD2IESRF7","A38DHLB88V8DL8","3D1UCPY6GGVNRONHL4UEVMXCHLT38H","","null","<img src=""img/food5.png"" style=""width:200px;border:14px solid red;"">","null","","","","","","","","","",""
"","image-keyboard-response","64","61409","0.0-93.0","3ZWFC4W1UVTQBPG0VA6ICVD2IESRF7","A38DHLB88V8DL8","3D1UCPY6GGVNRONHL4UEVMXCHLT38H","","587.2000000476837","img/food4.png","74","587.6999999880791","1","1","false","3","2","1,0.5,0,1,0.5,0,0.5,0,1","0,1,0.5,0,1,0.5,1,0.5,0","3",""
"","html-keyboard-response","65","61712","0.0-94.0","3ZWFC4W1UVTQBPG0VA6ICVD2IESRF7","A38DHLB88V8DL8","3D1UCPY6GGVNRONHL4UEVMXCHLT38H","","null","<img src=""img/food4.png"" style=""width:200px; border:14px solid green;"">","null","","","","","","","","","",""
"","image-keyboard-response","66","62058","0.0-96.0","3ZWFC4W1UVTQBPG0VA6ICVD2IESRF7","A38DHLB88V8DL8","3D1UCPY6GGVNRONHL4UEVMXCHLT38H","","345.10000002384186","img/food4.png","74","345.60000002384186","1","1","false","3","2","1,0.5,0,1,0.5,0,0.5,0,1","0,1,0.5,0,1,0.5,1,0.5,0","3",""
"","html-keyboard-response","67","62359","0.0-97.0","3ZWFC4W1UVTQBPG0VA6ICVD2IESRF7","A38DHLB88V8DL8","3D1UCPY6GGVNRONHL4UEVMXCHLT38H","","null","<img src=""img/food4.png"" style=""width:200px; border:14px solid green;"">","null","","","","","","","","","",""
"","image-keyboard-response","68","62854","0.0-99.0","3ZWFC4W1UVTQBPG0VA6ICVD2IESRF7","A38DHLB88V8DL8","3D1UCPY6GGVNRONHL4UEVMXCHLT38H","","494.2999999523163","img/food3.png","75","494.60000002384186","2","1","false","1","2","1,0.5,0,1,0.5,0,0.5,0,1","0,1,0.5,0,1,0.5,1,0.5,0","3",""
"","html-keyboard-response","69","63155","0.0-100.0","3ZWFC4W1UVTQBPG0VA6ICVD2IESRF7","A38DHLB88V8DL8","3D1UCPY6GGVNRONHL4UEVMXCHLT38H","","null","<img src=""img/food3.png"" style=""width:200px; border:14px solid green;"">","null","","","","","","","","","",""
"","image-keyboard-response","70","63641","0.0-102.0","3ZWFC4W1UVTQBPG0VA6ICVD2IESRF7","A38DHLB88V8DL8","3D1UCPY6GGVNRONHL4UEVMXCHLT38H","","484.69999998807907","img/food5.png","76","485.19999998807907","3","0","false","2","2","1,0.5,0,1,0.5,0,0.5,0,1","0,1,0.5,0,1,0.5,1,0.5,0","3",""
"","html-keyboard-response","71","63943","0.0-103.0","3ZWFC4W1UVTQBPG0VA6ICVD2IESRF7","A38DHLB88V8DL8","3D1UCPY6GGVNRONHL4UEVMXCHLT38H","","null","<img src=""img/food5.png"" style=""width:200px;border:14px solid red;"">","null","","","","","","","","","",""
"","image-keyboard-response","72","64455","0.0-105.0","3ZWFC4W1UVTQBPG0VA6ICVD2IESRF7","A38DHLB88V8DL8","3D1UCPY6GGVNRONHL4UEVMXCHLT38H","","512.1000000238419","img/food4.png","74","512.5999999642372","1","1","false","3","2","1,0.5,0,1,0.5,0,0.5,0,1","0,1,0.5,0,1,0.5,1,0.5,0","3",""
"","html-keyboard-response","73","64757","0.0-106.0","3ZWFC4W1UVTQBPG0VA6ICVD2IESRF7","A38DHLB88V8DL8","3D1UCPY6GGVNRONHL4UEVMXCHLT38H","","null","<img src=""img/food4.png"" style=""width:200px; border:14px solid green;"">","null","","","","","","","","","",""
"","image-keyboard-response","74","65374","0.0-108.0","3ZWFC4W1UVTQBPG0VA6ICVD2IESRF7","A38DHLB88V8DL8","3D1UCPY6GGVNRONHL4UEVMXCHLT38H","","617","img/food3.png","75","617.5","2","1","false","1","2","1,0.5,0,1,0.5,0,0.5,0,1","0,1,0.5,0,1,0.5,1,0.5,0","3",""
"","html-keyboard-response","75","65677","0.0-109.0","3ZWFC4W1UVTQBPG0VA6ICVD2IESRF7","A38DHLB88V8DL8","3D1UCPY6GGVNRONHL4UEVMXCHLT38H","","null","<img src=""img/food3.png"" style=""width:200px; border:14px solid green;"">","null","","","","","","","","","",""
"","image-keyboard-response","76","66310","0.0-111.0","3ZWFC4W1UVTQBPG0VA6ICVD2IESRF7","A38DHLB88V8DL8","3D1UCPY6GGVNRONHL4UEVMXCHLT38H","","632.5","img/food3.png","75","632.9000000357628","2","1","false","1","2","1,0.5,0,1,0.5,0,0.5,0,1","0,1,0.5,0,1,0.5,1,0.5,0","3",""
"","html-keyboard-response","77","66612","0.0-112.0","3ZWFC4W1UVTQBPG0VA6ICVD2IESRF7","A38DHLB88V8DL8","3D1UCPY6GGVNRONHL4UEVMXCHLT38H","","null","<img src=""img/food3.png"" style=""width:200px; border:14px solid green;"">","null","","","","","","","","","",""
"","image-keyboard-response","78","67112","0.0-114.0","3ZWFC4W1UVTQBPG0VA6ICVD2IESRF7","A38DHLB88V8DL8","3D1UCPY6GGVNRONHL4UEVMXCHLT38H","","499.69999998807907","img/food4.png","74","500.0999999642372","1","1","false","3","2","1,0.5,0,1,0.5,0,0.5,0,1","0,1,0.5,0,1,0.5,1,0.5,0","3",""
"","html-keyboard-response","79","67414","0.0-115.0","3ZWFC4W1UVTQBPG0VA6ICVD2IESRF7","A38DHLB88V8DL8","3D1UCPY6GGVNRONHL4UEVMXCHLT38H","","null","<img src=""img/food4.png"" style=""width:200px; border:14px solid green;"">","null","","","","","","","","","",""
"","image-keyboard-response","80","67794","0.0-117.0","3ZWFC4W1UVTQBPG0VA6ICVD2IESRF7","A38DHLB88V8DL8","3D1UCPY6GGVNRONHL4UEVMXCHLT38H","","380.10000002384186","img/food3.png","75","380.60000002384186","2","1","false","1","2","1,0.5,0,1,0.5,0,0.5,0,1","0,1,0.5,0,1,0.5,1,0.5,0","3",""
"","html-keyboard-response","81","68096","0.0-118.0","3ZWFC4W1UVTQBPG0VA6ICVD2IESRF7","A38DHLB88V8DL8","3D1UCPY6GGVNRONHL4UEVMXCHLT38H","","null","<img src=""img/food3.png"" style=""width:200px; border:14px solid green;"">","null","","","","","","","","","",""
"","image-keyboard-response","82","68567","0.0-120.0","3ZWFC4W1UVTQBPG0VA6ICVD2IESRF7","A38DHLB88V8DL8","3D1UCPY6GGVNRONHL4UEVMXCHLT38H","","470.5","img/food4.png","74","471","1","1","false","3","2","1,0.5,0,1,0.5,0,0.5,0,1","0,1,0.5,0,1,0.5,1,0.5,0","3",""
"","html-keyboard-response","83","68868","0.0-121.0","3ZWFC4W1UVTQBPG0VA6ICVD2IESRF7","A38DHLB88V8DL8","3D1UCPY6GGVNRONHL4UEVMXCHLT38H","","null","<img src=""img/food4.png"" style=""width:200px; border:14px solid green;"">","null","","","","","","","","","",""
"","image-keyboard-response","84","69234","0.0-123.0","3ZWFC4W1UVTQBPG0VA6ICVD2IESRF7","A38DHLB88V8DL8","3D1UCPY6GGVNRONHL4UEVMXCHLT38H","","364.80000001192093","img/food5.png","75","365.10000002384186","2","1","false","2","2","1,0.5,0,1,0.5,0,0.5,0,1","0,1,0.5,0,1,0.5,1,0.5,0","3",""
"","html-keyboard-response","85","69536","0.0-124.0","3ZWFC4W1UVTQBPG0VA6ICVD2IESRF7","A38DHLB88V8DL8","3D1UCPY6GGVNRONHL4UEVMXCHLT38H","","null","<img src=""img/food5.png"" style=""width:200px; border:14px solid green;"">","null","","","","","","","","","",""
"","image-keyboard-response","86","69924","0.0-126.0","3ZWFC4W1UVTQBPG0VA6ICVD2IESRF7","A38DHLB88V8DL8","3D1UCPY6GGVNRONHL4UEVMXCHLT38H","","387.30000001192093","img/food5.png","75","387.7000000476837","2","1","false","2","2","1,0.5,0,1,0.5,0,0.5,0,1","0,1,0.5,0,1,0.5,1,0.5,0","3",""
"","html-keyboard-response","87","70225","0.0-127.0","3ZWFC4W1UVTQBPG0VA6ICVD2IESRF7","A38DHLB88V8DL8","3D1UCPY6GGVNRONHL4UEVMXCHLT38H","","null","<img src=""img/food5.png"" style=""width:200px; border:14px solid green;"">","null","","","","","","","","","",""
"","image-keyboard-response","88","70553","0.0-129.0","3ZWFC4W1UVTQBPG0VA6ICVD2IESRF7","A38DHLB88V8DL8","3D1UCPY6GGVNRONHL4UEVMXCHLT38H","","327.2999999523163","img/food5.png","75","327.80000001192093","2","1","false","2","2","1,0.5,0,1,0.5,0,0.5,0,1","0,1,0.5,0,1,0.5,1,0.5,0","3",""
"","html-keyboard-response","89","70865","0.0-130.0","3ZWFC4W1UVTQBPG0VA6ICVD2IESRF7","A38DHLB88V8DL8","3D1UCPY6GGVNRONHL4UEVMXCHLT38H","","null","<img src=""img/food5.png"" style=""width:200px; border:14px solid green;"">","null","","","","","","","","","",""
"","image-keyboard-response","90","71160","0.0-132.0","3ZWFC4W1UVTQBPG0VA6ICVD2IESRF7","A38DHLB88V8DL8","3D1UCPY6GGVNRONHL4UEVMXCHLT38H","","294","img/food5.png","75","294.5","2","1","false","2","2","1,0.5,0,1,0.5,0,0.5,0,1","0,1,0.5,0,1,0.5,1,0.5,0","3",""
"","html-keyboard-response","91","71461","0.0-133.0","3ZWFC4W1UVTQBPG0VA6ICVD2IESRF7","A38DHLB88V8DL8","3D1UCPY6GGVNRONHL4UEVMXCHLT38H","","null","<img src=""img/food5.png"" style=""width:200px; border:14px solid green;"">","null","","","","","","","","","",""
"","image-keyboard-response","92","72059","0.0-135.0","3ZWFC4W1UVTQBPG0VA6ICVD2IESRF7","A38DHLB88V8DL8","3D1UCPY6GGVNRONHL4UEVMXCHLT38H","","596.5","img/food4.png","74","597","1","1","false","3","2","1,0.5,0,1,0.5,0,0.5,0,1","0,1,0.5,0,1,0.5,1,0.5,0","3",""
"","html-keyboard-response","93","72360","0.0-136.0","3ZWFC4W1UVTQBPG0VA6ICVD2IESRF7","A38DHLB88V8DL8","3D1UCPY6GGVNRONHL4UEVMXCHLT38H","","null","<img src=""img/food4.png"" style=""width:200px; border:14px solid green;"">","null","","","","","","","","","",""
"","image-keyboard-response","94","72764","0.0-138.0","3ZWFC4W1UVTQBPG0VA6ICVD2IESRF7","A38DHLB88V8DL8","3D1UCPY6GGVNRONHL4UEVMXCHLT38H","","403.89999997615814","img/food5.png","75","404.30000001192093","2","1","false","2","2","1,0.5,0,1,0.5,0,0.5,0,1","0,1,0.5,0,1,0.5,1,0.5,0","3",""
"","html-keyboard-response","95","73065","0.0-139.0","3ZWFC4W1UVTQBPG0VA6ICVD2IESRF7","A38DHLB88V8DL8","3D1UCPY6GGVNRONHL4UEVMXCHLT38H","","null","<img src=""img/food5.png"" style=""width:200px; border:14px solid green;"">","null","","","","","","","","","",""
"","image-keyboard-response","96","73386","0.0-141.0","3ZWFC4W1UVTQBPG0VA6ICVD2IESRF7","A38DHLB88V8DL8","3D1UCPY6GGVNRONHL4UEVMXCHLT38H","","319.5","img/food4.png","75","319.9000000357628","2","1","false","3","2","1,0.5,0,1,0.5,0,0.5,0,1","0,1,0.5,0,1,0.5,1,0.5,0","3",""
"","html-keyboard-response","97","73687","0.0-142.0","3ZWFC4W1UVTQBPG0VA6ICVD2IESRF7","A38DHLB88V8DL8","3D1UCPY6GGVNRONHL4UEVMXCHLT38H","","null","<img src=""img/food4.png"" style=""width:200px; border:14px solid green;"">","null","","","","","","","","","",""
"","image-keyboard-response","98","74275","0.0-144.0","3ZWFC4W1UVTQBPG0VA6ICVD2IESRF7","A38DHLB88V8DL8","3D1UCPY6GGVNRONHL4UEVMXCHLT38H","","587","img/food5.png","75","587.3000000119209","2","1","false","2","2","1,0.5,0,1,0.5,0,0.5,0,1","0,1,0.5,0,1,0.5,1,0.5,0","3",""
"","html-keyboard-response","99","74576","0.0-145.0","3ZWFC4W1UVTQBPG0VA6ICVD2IESRF7","A38DHLB88V8DL8","3D1UCPY6GGVNRONHL4UEVMXCHLT38H","","null","<img src=""img/food5.png"" style=""width:200px; border:14px solid green;"">","null","","","","","","","","","",""
"","image-keyboard-response","100","75005","0.0-147.0","3ZWFC4W1UVTQBPG0VA6ICVD2IESRF7","A38DHLB88V8DL8","3D1UCPY6GGVNRONHL4UEVMXCHLT38H","","428.60000002384186","img/food4.png","75","429.10000002384186","2","1","false","3","2","1,0.5,0,1,0.5,0,0.5,0,1","0,1,0.5,0,1,0.5,1,0.5,0","3",""
"","html-keyboard-response","101","75307","0.0-148.0","3ZWFC4W1UVTQBPG0VA6ICVD2IESRF7","A38DHLB88V8DL8","3D1UCPY6GGVNRONHL4UEVMXCHLT38H","","null","<img src=""img/food4.png"" style=""width:200px; border:14px solid green;"">","null","","","","","","","","","",""
"","image-keyboard-response","102","75686","0.0-150.0","3ZWFC4W1UVTQBPG0VA6ICVD2IESRF7","A38DHLB88V8DL8","3D1UCPY6GGVNRONHL4UEVMXCHLT38H","","379","img/food3.png","75","379.5","2","1","false","1","2","1,0.5,0,1,0.5,0,0.5,0,1","0,1,0.5,0,1,0.5,1,0.5,0","3",""
"","html-keyboard-response","103","75988","0.0-151.0","3ZWFC4W1UVTQBPG0VA6ICVD2IESRF7","A38DHLB88V8DL8","3D1UCPY6GGVNRONHL4UEVMXCHLT38H","","null","<img src=""img/food3.png"" style=""width:200px; border:14px solid green;"">","null","","","","","","","","","",""
"","image-keyboard-response","104","76365","0.0-153.0","3ZWFC4W1UVTQBPG0VA6ICVD2IESRF7","A38DHLB88V8DL8","3D1UCPY6GGVNRONHL4UEVMXCHLT38H","","376.80000001192093","img/food3.png","75","377.19999998807907","2","1","false","1","2","1,0.5,0,1,0.5,0,0.5,0,1","0,1,0.5,0,1,0.5,1,0.5,0","3",""
"","html-keyboard-response","105","76667","0.0-154.0","3ZWFC4W1UVTQBPG0VA6ICVD2IESRF7","A38DHLB88V8DL8","3D1UCPY6GGVNRONHL4UEVMXCHLT38H","","null","<img src=""img/food3.png"" style=""width:200px; border:14px solid green;"">","null","","","","","","","","","",""
"","image-keyboard-response","106","77037","0.0-156.0","3ZWFC4W1UVTQBPG0VA6ICVD2IESRF7","A38DHLB88V8DL8","3D1UCPY6GGVNRONHL4UEVMXCHLT38H","","369.2999999523163","img/food5.png","75","369.80000001192093","2","1","false","2","2","1,0.5,0,1,0.5,0,0.5,0,1","0,1,0.5,0,1,0.5,1,0.5,0","3",""
"","html-keyboard-response","107","77338","0.0-157.0","3ZWFC4W1UVTQBPG0VA6ICVD2IESRF7","A38DHLB88V8DL8","3D1UCPY6GGVNRONHL4UEVMXCHLT38H","","null","<img src=""img/food5.png"" style=""width:200px; border:14px solid green;"">","null","","","","","","","","","",""
"","image-keyboard-response","108","77716","0.0-159.0","3ZWFC4W1UVTQBPG0VA6ICVD2IESRF7","A38DHLB88V8DL8","3D1UCPY6GGVNRONHL4UEVMXCHLT38H","","376.9000000357628","img/food5.png","75","377.4000000357628","2","1","false","2","2","1,0.5,0,1,0.5,0,0.5,0,1","0,1,0.5,0,1,0.5,1,0.5,0","3",""
"","html-keyboard-response","109","78026","0.0-160.0","3ZWFC4W1UVTQBPG0VA6ICVD2IESRF7","A38DHLB88V8DL8","3D1UCPY6GGVNRONHL4UEVMXCHLT38H","","null","<img src=""img/food5.png"" style=""width:200px; border:14px solid green;"">","null","","","","","","","","","",""
"","image-keyboard-response","110","78377","0.0-162.0","3ZWFC4W1UVTQBPG0VA6ICVD2IESRF7","A38DHLB88V8DL8","3D1UCPY6GGVNRONHL4UEVMXCHLT38H","","350","img/food3.png","75","350.30000001192093","2","1","false","1","2","1,0.5,0,1,0.5,0,0.5,0,1","0,1,0.5,0,1,0.5,1,0.5,0","3",""
"","html-keyboard-response","111","78678","0.0-163.0","3ZWFC4W1UVTQBPG0VA6ICVD2IESRF7","A38DHLB88V8DL8","3D1UCPY6GGVNRONHL4UEVMXCHLT38H","","null","<img src=""img/food3.png"" style=""width:200px; border:14px solid green;"">","null","","","","","","","","","",""
"","image-keyboard-response","112","79086","0.0-165.0","3ZWFC4W1UVTQBPG0VA6ICVD2IESRF7","A38DHLB88V8DL8","3D1UCPY6GGVNRONHL4UEVMXCHLT38H","","407.2000000476837","img/food4.png","75","407.60000002384186","2","1","false","3","2","1,0.5,0,1,0.5,0,0.5,0,1","0,1,0.5,0,1,0.5,1,0.5,0","3",""
"","html-keyboard-response","113","79387","0.0-166.0","3ZWFC4W1UVTQBPG0VA6ICVD2IESRF7","A38DHLB88V8DL8","3D1UCPY6GGVNRONHL4UEVMXCHLT38H","","null","<img src=""img/food4.png"" style=""width:200px; border:14px solid green;"">","null","","","","","","","","","",""
"","image-keyboard-response","114","79726","0.0-168.0","3ZWFC4W1UVTQBPG0VA6ICVD2IESRF7","A38DHLB88V8DL8","3D1UCPY6GGVNRONHL4UEVMXCHLT38H","","338.0999999642372","img/food4.png","75","338.5","2","1","false","3","2","1,0.5,0,1,0.5,0,0.5,0,1","0,1,0.5,0,1,0.5,1,0.5,0","3",""
"","html-keyboard-response","115","80028","0.0-169.0","3ZWFC4W1UVTQBPG0VA6ICVD2IESRF7","A38DHLB88V8DL8","3D1UCPY6GGVNRONHL4UEVMXCHLT38H","","null","<img src=""img/food4.png"" style=""width:200px; border:14px solid green;"">","null","","","","","","","","","",""
"","image-keyboard-response","116","80446","0.0-171.0","3ZWFC4W1UVTQBPG0VA6ICVD2IESRF7","A38DHLB88V8DL8","3D1UCPY6GGVNRONHL4UEVMXCHLT38H","","418.4000000357628","img/food5.png","75","418.80000001192093","2","1","false","2","2","1,0.5,0,1,0.5,0,0.5,0,1","0,1,0.5,0,1,0.5,1,0.5,0","3",""
"","html-keyboard-response","117","80748","0.0-172.0","3ZWFC4W1UVTQBPG0VA6ICVD2IESRF7","A38DHLB88V8DL8","3D1UCPY6GGVNRONHL4UEVMXCHLT38H","","null","<img src=""img/food5.png"" style=""width:200px; border:14px solid green;"">","null","","","","","","","","","",""
"","image-keyboard-response","118","81111","0.0-174.0","3ZWFC4W1UVTQBPG0VA6ICVD2IESRF7","A38DHLB88V8DL8","3D1UCPY6GGVNRONHL4UEVMXCHLT38H","","362.89999997615814","img/food4.png","75","363.19999998807907","2","0","false","3","2","1,0.5,0,1,0.5,0,0.5,0,1","0,1,0.5,0,1,0.5,1,0.5,0","3",""
"","html-keyboard-response","119","81421","0.0-175.0","3ZWFC4W1UVTQBPG0VA6ICVD2IESRF7","A38DHLB88V8DL8","3D1UCPY6GGVNRONHL4UEVMXCHLT38H","","null","<img src=""img/food4.png"" style=""width:200px;border:14px solid red;"">","null","","","","","","","","","",""
"","image-keyboard-response","120","82098","0.0-177.0","3ZWFC4W1UVTQBPG0VA6ICVD2IESRF7","A38DHLB88V8DL8","3D1UCPY6GGVNRONHL4UEVMXCHLT38H","","676.1999999880791","img/food3.png","75","676.5999999642372","2","1","false","1","2","1,0.5,0,1,0.5,0,0.5,0,1","0,1,0.5,0,1,0.5,1,0.5,0","3",""
"","html-keyboard-response","121","82399","0.0-178.0","3ZWFC4W1UVTQBPG0VA6ICVD2IESRF7","A38DHLB88V8DL8","3D1UCPY6GGVNRONHL4UEVMXCHLT38H","","null","<img src=""img/food3.png"" style=""width:200px; border:14px solid green;"">","null","","","","","","","","","",""
"","image-keyboard-response","122","82719","0.0-180.0","3ZWFC4W1UVTQBPG0VA6ICVD2IESRF7","A38DHLB88V8DL8","3D1UCPY6GGVNRONHL4UEVMXCHLT38H","","318.60000002384186","img/food3.png","75","319.0999999642372","2","1","false","1","2","1,0.5,0,1,0.5,0,0.5,0,1","0,1,0.5,0,1,0.5,1,0.5,0","3",""
"","html-keyboard-response","123","83020","0.0-181.0","3ZWFC4W1UVTQBPG0VA6ICVD2IESRF7","A38DHLB88V8DL8","3D1UCPY6GGVNRONHL4UEVMXCHLT38H","","null","<img src=""img/food3.png"" style=""width:200px; border:14px solid green;"">","null","","","","","","","","","",""
"","image-keyboard-response","124","83350","0.0-183.0","3ZWFC4W1UVTQBPG0VA6ICVD2IESRF7","A38DHLB88V8DL8","3D1UCPY6GGVNRONHL4UEVMXCHLT38H","","330.0999999642372","img/food4.png","74","330.5","1","1","false","3","2","1,0.5,0,1,0.5,0,0.5,0,1","0,1,0.5,0,1,0.5,1,0.5,0","3",""
"","html-keyboard-response","125","83651","0.0-184.0","3ZWFC4W1UVTQBPG0VA6ICVD2IESRF7","A38DHLB88V8DL8","3D1UCPY6GGVNRONHL4UEVMXCHLT38H","","null","<img src=""img/food4.png"" style=""width:200px; border:14px solid green;"">","null","","","","","","","","","",""
"","image-keyboard-response","126","84100","0.0-186.0","3ZWFC4W1UVTQBPG0VA6ICVD2IESRF7","A38DHLB88V8DL8","3D1UCPY6GGVNRONHL4UEVMXCHLT38H","","447.7999999523163","img/food5.png","75","448.39999997615814","2","1","false","2","2","1,0.5,0,1,0.5,0,0.5,0,1","0,1,0.5,0,1,0.5,1,0.5,0","3",""
"","html-keyboard-response","127","84402","0.0-187.0","3ZWFC4W1UVTQBPG0VA6ICVD2IESRF7","A38DHLB88V8DL8","3D1UCPY6GGVNRONHL4UEVMXCHLT38H","","null","<img src=""img/food5.png"" style=""width:200px; border:14px solid green;"">","null","","","","","","","","","",""
"","image-keyboard-response","128","84699","0.0-189.0","3ZWFC4W1UVTQBPG0VA6ICVD2IESRF7","A38DHLB88V8DL8","3D1UCPY6GGVNRONHL4UEVMXCHLT38H","","297.19999998807907","img/food5.png","75","297.69999998807907","2","1","false","2","2","1,0.5,0,1,0.5,0,0.5,0,1","0,1,0.5,0,1,0.5,1,0.5,0","3",""
"","html-keyboard-response","129","85000","0.0-190.0","3ZWFC4W1UVTQBPG0VA6ICVD2IESRF7","A38DHLB88V8DL8","3D1UCPY6GGVNRONHL4UEVMXCHLT38H","","null","<img src=""img/food5.png"" style=""width:200px; border:14px solid green;"">","null","","","","","","","","","",""
"","image-keyboard-response","130","85309","0.0-192.0","3ZWFC4W1UVTQBPG0VA6ICVD2IESRF7","A38DHLB88V8DL8","3D1UCPY6GGVNRONHL4UEVMXCHLT38H","","308.30000001192093","img/food5.png","75","308.89999997615814","2","1","false","2","2","1,0.5,0,1,0.5,0,0.5,0,1","0,1,0.5,0,1,0.5,1,0.5,0","3",""
"","html-keyboard-response","131","85611","0.0-193.0","3ZWFC4W1UVTQBPG0VA6ICVD2IESRF7","A38DHLB88V8DL8","3D1UCPY6GGVNRONHL4UEVMXCHLT38H","","null","<img src=""img/food5.png"" style=""width:200px; border:14px solid green;"">","null","","","","","","","","","",""
"","image-keyboard-response","132","85908","0.0-195.0","3ZWFC4W1UVTQBPG0VA6ICVD2IESRF7","A38DHLB88V8DL8","3D1UCPY6GGVNRONHL4UEVMXCHLT38H","","296.5","img/food5.png","75","296.89999997615814","2","1","false","2","2","1,0.5,0,1,0.5,0,0.5,0,1","0,1,0.5,0,1,0.5,1,0.5,0","3",""
"","html-keyboard-response","133","86210","0.0-196.0","3ZWFC4W1UVTQBPG0VA6ICVD2IESRF7","A38DHLB88V8DL8","3D1UCPY6GGVNRONHL4UEVMXCHLT38H","","null","<img src=""img/food5.png"" style=""width:200px; border:14px solid green;"">","null","","","","","","","","","",""
"","image-keyboard-response","134","86603","0.0-198.0","3ZWFC4W1UVTQBPG0VA6ICVD2IESRF7","A38DHLB88V8DL8","3D1UCPY6GGVNRONHL4UEVMXCHLT38H","","391.60000002384186","img/food4.png","74","392.19999998807907","1","1","false","3","2","1,0.5,0,1,0.5,0,0.5,0,1","0,1,0.5,0,1,0.5,1,0.5,0","3",""
"","html-keyboard-response","135","86904","0.0-199.0","3ZWFC4W1UVTQBPG0VA6ICVD2IESRF7","A38DHLB88V8DL8","3D1UCPY6GGVNRONHL4UEVMXCHLT38H","","null","<img src=""img/food4.png"" style=""width:200px; border:14px solid green;"">","null","","","","","","","","","",""
"","image-keyboard-response","136","87455","0.0-201.0","3ZWFC4W1UVTQBPG0VA6ICVD2IESRF7","A38DHLB88V8DL8","3D1UCPY6GGVNRONHL4UEVMXCHLT38H","","549.5999999642372","img/food4.png","74","550.3000000119209","1","1","false","3","2","1,0.5,0,1,0.5,0,0.5,0,1","0,1,0.5,0,1,0.5,1,0.5,0","3",""
"","html-keyboard-response","137","87757","0.0-202.0","3ZWFC4W1UVTQBPG0VA6ICVD2IESRF7","A38DHLB88V8DL8","3D1UCPY6GGVNRONHL4UEVMXCHLT38H","","null","<img src=""img/food4.png"" style=""width:200px; border:14px solid green;"">","null","","","","","","","","","",""
"","image-keyboard-response","138","88204","0.0-204.0","3ZWFC4W1UVTQBPG0VA6ICVD2IESRF7","A38DHLB88V8DL8","3D1UCPY6GGVNRONHL4UEVMXCHLT38H","","447.10000002384186","img/food3.png","75","447.4000000357628","2","1","false","1","2","1,0.5,0,1,0.5,0,0.5,0,1","0,1,0.5,0,1,0.5,1,0.5,0","3",""
"","html-keyboard-response","139","88506","0.0-205.0","3ZWFC4W1UVTQBPG0VA6ICVD2IESRF7","A38DHLB88V8DL8","3D1UCPY6GGVNRONHL4UEVMXCHLT38H","","null","<img src=""img/food3.png"" style=""width:200px; border:14px solid green;"">","null","","","","","","","","","",""
"","image-keyboard-response","140","88804","0.0-207.0","3ZWFC4W1UVTQBPG0VA6ICVD2IESRF7","A38DHLB88V8DL8","3D1UCPY6GGVNRONHL4UEVMXCHLT38H","","297.7000000476837","img/food3.png","75","298.19999998807907","2","1","false","1","2","1,0.5,0,1,0.5,0,0.5,0,1","0,1,0.5,0,1,0.5,1,0.5,0","3",""
"","html-keyboard-response","141","89106","0.0-208.0","3ZWFC4W1UVTQBPG0VA6ICVD2IESRF7","A38DHLB88V8DL8","3D1UCPY6GGVNRONHL4UEVMXCHLT38H","","null","<img src=""img/food3.png"" style=""width:200px; border:14px solid green;"">","null","","","","","","","","","",""
"","image-keyboard-response","142","89440","0.0-210.0","3ZWFC4W1UVTQBPG0VA6ICVD2IESRF7","A38DHLB88V8DL8","3D1UCPY6GGVNRONHL4UEVMXCHLT38H","","333.80000001192093","img/food3.png","75","334.2999999523163","2","1","false","1","2","1,0.5,0,1,0.5,0,0.5,0,1","0,1,0.5,0,1,0.5,1,0.5,0","3",""
"","html-keyboard-response","143","89741","0.0-211.0","3ZWFC4W1UVTQBPG0VA6ICVD2IESRF7","A38DHLB88V8DL8","3D1UCPY6GGVNRONHL4UEVMXCHLT38H","","null","<img src=""img/food3.png"" style=""width:200px; border:14px solid green;"">","null","","","","","","","","","",""
"","image-keyboard-response","144","90100","0.0-213.0","3ZWFC4W1UVTQBPG0VA6ICVD2IESRF7","A38DHLB88V8DL8","3D1UCPY6GGVNRONHL4UEVMXCHLT38H","","358.5999999642372","img/food4.png","75","358.89999997615814","2","0","false","3","2","1,0.5,0,1,0.5,0,0.5,0,1","0,1,0.5,0,1,0.5,1,0.5,0","3",""
"","html-keyboard-response","145","90401","0.0-214.0","3ZWFC4W1UVTQBPG0VA6ICVD2IESRF7","A38DHLB88V8DL8","3D1UCPY6GGVNRONHL4UEVMXCHLT38H","","null","<img src=""img/food4.png"" style=""width:200px;border:14px solid red;"">","null","","","","","","","","","",""
"","image-keyboard-response","146","90775","0.0-216.0","3ZWFC4W1UVTQBPG0VA6ICVD2IESRF7","A38DHLB88V8DL8","3D1UCPY6GGVNRONHL4UEVMXCHLT38H","","373","img/food4.png","74","373.30000001192093","1","1","false","3","2","1,0.5,0,1,0.5,0,0.5,0,1","0,1,0.5,0,1,0.5,1,0.5,0","3",""
"","html-keyboard-response","147","91076","0.0-217.0","3ZWFC4W1UVTQBPG0VA6ICVD2IESRF7","A38DHLB88V8DL8","3D1UCPY6GGVNRONHL4UEVMXCHLT38H","","null","<img src=""img/food4.png"" style=""width:200px; border:14px solid green;"">","null","","","","","","","","","",""
"","image-keyboard-response","148","91479","0.0-219.0","3ZWFC4W1UVTQBPG0VA6ICVD2IESRF7","A38DHLB88V8DL8","3D1UCPY6GGVNRONHL4UEVMXCHLT38H","","402.30000001192093","img/food3.png","75","402.69999998807907","2","1","false","1","2","1,0.5,0,1,0.5,0,0.5,0,1","0,1,0.5,0,1,0.5,1,0.5,0","3",""
"","html-keyboard-response","149","91795","0.0-220.0","3ZWFC4W1UVTQBPG0VA6ICVD2IESRF7","A38DHLB88V8DL8","3D1UCPY6GGVNRONHL4UEVMXCHLT38H","","null","<img src=""img/food3.png"" style=""width:200px; border:14px solid green;"">","null","","","","","","","","","",""
"","image-keyboard-response","150","92069","0.0-222.0","3ZWFC4W1UVTQBPG0VA6ICVD2IESRF7","A38DHLB88V8DL8","3D1UCPY6GGVNRONHL4UEVMXCHLT38H","","273.9000000357628","img/food3.png","75","274.39999997615814","2","1","false","1","2","1,0.5,0,1,0.5,0,0.5,0,1","0,1,0.5,0,1,0.5,1,0.5,0","3",""
"","html-keyboard-response","151","92371","0.0-223.0","3ZWFC4W1UVTQBPG0VA6ICVD2IESRF7","A38DHLB88V8DL8","3D1UCPY6GGVNRONHL4UEVMXCHLT38H","","null","<img src=""img/food3.png"" style=""width:200px; border:14px solid green;"">","null","","","","","","","","","",""
"","image-keyboard-response","152","92841","0.0-225.0","3ZWFC4W1UVTQBPG0VA6ICVD2IESRF7","A38DHLB88V8DL8","3D1UCPY6GGVNRONHL4UEVMXCHLT38H","","469.30000001192093","img/food4.png","74","469.89999997615814","1","1","false","3","2","1,0.5,0,1,0.5,0,0.5,0,1","0,1,0.5,0,1,0.5,1,0.5,0","3",""
"","html-keyboard-response","153","93143","0.0-226.0","3ZWFC4W1UVTQBPG0VA6ICVD2IESRF7","A38DHLB88V8DL8","3D1UCPY6GGVNRONHL4UEVMXCHLT38H","","null","<img src=""img/food4.png"" style=""width:200px; border:14px solid green;"">","null","","","","","","","","","",""
"","image-keyboard-response","154","93554","0.0-228.0","3ZWFC4W1UVTQBPG0VA6ICVD2IESRF7","A38DHLB88V8DL8","3D1UCPY6GGVNRONHL4UEVMXCHLT38H","","410.60000002384186","img/food5.png","75","411","2","1","false","2","2","1,0.5,0,1,0.5,0,0.5,0,1","0,1,0.5,0,1,0.5,1,0.5,0","3",""
"","html-keyboard-response","155","93855","0.0-229.0","3ZWFC4W1UVTQBPG0VA6ICVD2IESRF7","A38DHLB88V8DL8","3D1UCPY6GGVNRONHL4UEVMXCHLT38H","","null","<img src=""img/food5.png"" style=""width:200px; border:14px solid green;"">","null","","","","","","","","","",""
"","image-keyboard-response","156","94177","0.0-231.0","3ZWFC4W1UVTQBPG0VA6ICVD2IESRF7","A38DHLB88V8DL8","3D1UCPY6GGVNRONHL4UEVMXCHLT38H","","321.10000002384186","img/food5.png","75","321.69999998807907","2","1","false","2","2","1,0.5,0,1,0.5,0,0.5,0,1","0,1,0.5,0,1,0.5,1,0.5,0","3",""
"","html-keyboard-response","157","94479","0.0-232.0","3ZWFC4W1UVTQBPG0VA6ICVD2IESRF7","A38DHLB88V8DL8","3D1UCPY6GGVNRONHL4UEVMXCHLT38H","","null","<img src=""img/food5.png"" style=""width:200px; border:14px solid green;"">","null","","","","","","","","","",""
"","image-keyboard-response","158","94784","0.0-234.0","3ZWFC4W1UVTQBPG0VA6ICVD2IESRF7","A38DHLB88V8DL8","3D1UCPY6GGVNRONHL4UEVMXCHLT38H","","303.9000000357628","img/food5.png","75","304.4000000357628","2","1","false","2","2","1,0.5,0,1,0.5,0,0.5,0,1","0,1,0.5,0,1,0.5,1,0.5,0","3",""
"","html-keyboard-response","159","95085","0.0-235.0","3ZWFC4W1UVTQBPG0VA6ICVD2IESRF7","A38DHLB88V8DL8","3D1UCPY6GGVNRONHL4UEVMXCHLT38H","","null","<img src=""img/food5.png"" style=""width:200px; border:14px solid green;"">","null","","","","","","","","","",""
"","image-keyboard-response","160","95375","0.0-237.0","3ZWFC4W1UVTQBPG0VA6ICVD2IESRF7","A38DHLB88V8DL8","3D1UCPY6GGVNRONHL4UEVMXCHLT38H","","288.89999997615814","img/food5.png","75","289.30000001192093","2","1","false","2","2","1,0.5,0,1,0.5,0,0.5,0,1","0,1,0.5,0,1,0.5,1,0.5,0","3",""
"","html-keyboard-response","161","95676","0.0-238.0","3ZWFC4W1UVTQBPG0VA6ICVD2IESRF7","A38DHLB88V8DL8","3D1UCPY6GGVNRONHL4UEVMXCHLT38H","","null","<img src=""img/food5.png"" style=""width:200px; border:14px solid green;"">","null","","","","","","","","","",""
"","image-keyboard-response","162","96066","0.0-240.0","3ZWFC4W1UVTQBPG0VA6ICVD2IESRF7","A38DHLB88V8DL8","3D1UCPY6GGVNRONHL4UEVMXCHLT38H","","389.10000002384186","img/food4.png","74","389.60000002384186","1","1","false","3","2","1,0.5,0,1,0.5,0,0.5,0,1","0,1,0.5,0,1,0.5,1,0.5,0","3",""
"","html-keyboard-response","163","96367","0.0-241.0","3ZWFC4W1UVTQBPG0VA6ICVD2IESRF7","A38DHLB88V8DL8","3D1UCPY6GGVNRONHL4UEVMXCHLT38H","","null","<img src=""img/food4.png"" style=""width:200px; border:14px solid green;"">","null","","","","","","","","","",""
"","image-keyboard-response","164","96586","0.0-243.0","3ZWFC4W1UVTQBPG0VA6ICVD2IESRF7","A38DHLB88V8DL8","3D1UCPY6GGVNRONHL4UEVMXCHLT38H","","218.29999995231628","img/food3.png","74","218.70000004768372","1","0","false","1","2","1,0.5,0,1,0.5,0,0.5,0,1","0,1,0.5,0,1,0.5,1,0.5,0","3",""
"","html-keyboard-response","165","96888","0.0-244.0","3ZWFC4W1UVTQBPG0VA6ICVD2IESRF7","A38DHLB88V8DL8","3D1UCPY6GGVNRONHL4UEVMXCHLT38H","","null","<img src=""img/food3.png"" style=""width:200px;border:14px solid red;"">","null","","","","","","","","","",""
"","image-keyboard-response","166","97616","0.0-246.0","3ZWFC4W1UVTQBPG0VA6ICVD2IESRF7","A38DHLB88V8DL8","3D1UCPY6GGVNRONHL4UEVMXCHLT38H","","727.4000000357628","img/food4.png","74","727.8000000119209","1","1","false","3","2","1,0.5,0,1,0.5,0,0.5,0,1","0,1,0.5,0,1,0.5,1,0.5,0","3",""
"","html-keyboard-response","167","97917","0.0-247.0","3ZWFC4W1UVTQBPG0VA6ICVD2IESRF7","A38DHLB88V8DL8","3D1UCPY6GGVNRONHL4UEVMXCHLT38H","","null","<img src=""img/food4.png"" style=""width:200px; border:14px solid green;"">","null","","","","","","","","","",""
"","image-keyboard-response","168","98264","0.0-249.0","3ZWFC4W1UVTQBPG0VA6ICVD2IESRF7","A38DHLB88V8DL8","3D1UCPY6GGVNRONHL4UEVMXCHLT38H","","345.89999997615814","img/food4.png","74","346.39999997615814","1","1","false","3","2","1,0.5,0,1,0.5,0,0.5,0,1","0,1,0.5,0,1,0.5,1,0.5,0","3",""
"","html-keyboard-response","169","98565","0.0-250.0","3ZWFC4W1UVTQBPG0VA6ICVD2IESRF7","A38DHLB88V8DL8","3D1UCPY6GGVNRONHL4UEVMXCHLT38H","","null","<img src=""img/food4.png"" style=""width:200px; border:14px solid green;"">","null","","","","","","","","","",""
"","image-keyboard-response","170","98889","0.0-252.0","3ZWFC4W1UVTQBPG0VA6ICVD2IESRF7","A38DHLB88V8DL8","3D1UCPY6GGVNRONHL4UEVMXCHLT38H","","323","img/food4.png","74","323.5","1","1","false","3","2","1,0.5,0,1,0.5,0,0.5,0,1","0,1,0.5,0,1,0.5,1,0.5,0","3",""
"","html-keyboard-response","171","99191","0.0-253.0","3ZWFC4W1UVTQBPG0VA6ICVD2IESRF7","A38DHLB88V8DL8","3D1UCPY6GGVNRONHL4UEVMXCHLT38H","","null","<img src=""img/food4.png"" style=""width:200px; border:14px solid green;"">","null","","","","","","","","","",""
"","image-keyboard-response","172","99559","0.0-255.0","3ZWFC4W1UVTQBPG0VA6ICVD2IESRF7","A38DHLB88V8DL8","3D1UCPY6GGVNRONHL4UEVMXCHLT38H","","367.89999997615814","img/food5.png","75","368.30000001192093","2","1","false","2","2","1,0.5,0,1,0.5,0,0.5,0,1","0,1,0.5,0,1,0.5,1,0.5,0","3",""
"","html-keyboard-response","173","99861","0.0-256.0","3ZWFC4W1UVTQBPG0VA6ICVD2IESRF7","A38DHLB88V8DL8","3D1UCPY6GGVNRONHL4UEVMXCHLT38H","","null","<img src=""img/food5.png"" style=""width:200px; border:14px solid green;"">","null","","","","","","","","","",""
"","image-keyboard-response","174","100286","0.0-258.0","3ZWFC4W1UVTQBPG0VA6ICVD2IESRF7","A38DHLB88V8DL8","3D1UCPY6GGVNRONHL4UEVMXCHLT38H","","424.4000000357628","img/food4.png","74","425","1","1","false","3","2","1,0.5,0,1,0.5,0,0.5,0,1","0,1,0.5,0,1,0.5,1,0.5,0","3",""
"","html-keyboard-response","175","100587","0.0-259.0","3ZWFC4W1UVTQBPG0VA6ICVD2IESRF7","A38DHLB88V8DL8","3D1UCPY6GGVNRONHL4UEVMXCHLT38H","","null","<img src=""img/food4.png"" style=""width:200px; border:14px solid green;"">","null","","","","","","","","","",""
"","image-keyboard-response","176","100895","0.0-261.0","3ZWFC4W1UVTQBPG0VA6ICVD2IESRF7","A38DHLB88V8DL8","3D1UCPY6GGVNRONHL4UEVMXCHLT38H","","307.19999998807907","img/food4.png","74","307.80000001192093","1","1","false","3","2","1,0.5,0,1,0.5,0,0.5,0,1","0,1,0.5,0,1,0.5,1,0.5,0","3",""
"","html-keyboard-response","177","101197","0.0-262.0","3ZWFC4W1UVTQBPG0VA6ICVD2IESRF7","A38DHLB88V8DL8","3D1UCPY6GGVNRONHL4UEVMXCHLT38H","","null","<img src=""img/food4.png"" style=""width:200px; border:14px solid green;"">","null","","","","","","","","","",""
"","image-keyboard-response","178","101511","0.0-264.0","3ZWFC4W1UVTQBPG0VA6ICVD2IESRF7","A38DHLB88V8DL8","3D1UCPY6GGVNRONHL4UEVMXCHLT38H","","313.80000001192093","img/food4.png","74","314.19999998807907","1","1","false","3","2","1,0.5,0,1,0.5,0,0.5,0,1","0,1,0.5,0,1,0.5,1,0.5,0","3",""
"","html-keyboard-response","179","101812","0.0-265.0","3ZWFC4W1UVTQBPG0VA6ICVD2IESRF7","A38DHLB88V8DL8","3D1UCPY6GGVNRONHL4UEVMXCHLT38H","","null","<img src=""img/food4.png"" style=""width:200px; border:14px solid green;"">","null","","","","","","","","","",""
"","image-keyboard-response","180","102170","0.0-267.0","3ZWFC4W1UVTQBPG0VA6ICVD2IESRF7","A38DHLB88V8DL8","3D1UCPY6GGVNRONHL4UEVMXCHLT38H","","356.5","img/food5.png","75","356.89999997615814","2","1","false","2","2","1,0.5,0,1,0.5,0,0.5,0,1","0,1,0.5,0,1,0.5,1,0.5,0","3",""
"","html-keyboard-response","181","102471","0.0-268.0","3ZWFC4W1UVTQBPG0VA6ICVD2IESRF7","A38DHLB88V8DL8","3D1UCPY6GGVNRONHL4UEVMXCHLT38H","","null","<img src=""img/food5.png"" style=""width:200px; border:14px solid green;"">","null","","","","","","","","","",""
"","image-keyboard-response","182","102924","0.0-270.0","3ZWFC4W1UVTQBPG0VA6ICVD2IESRF7","A38DHLB88V8DL8","3D1UCPY6GGVNRONHL4UEVMXCHLT38H","","452.5999999642372","img/food3.png","74","453.10000002384186","1","0","false","1","2","1,0.5,0,1,0.5,0,0.5,0,1","0,1,0.5,0,1,0.5,1,0.5,0","3",""
"","html-keyboard-response","183","103226","0.0-271.0","3ZWFC4W1UVTQBPG0VA6ICVD2IESRF7","A38DHLB88V8DL8","3D1UCPY6GGVNRONHL4UEVMXCHLT38H","","null","<img src=""img/food3.png"" style=""width:200px;border:14px solid red;"">","null","","","","","","","","","",""
"","instructions","184","118137","0.0-273.0","3ZWFC4W1UVTQBPG0VA6ICVD2IESRF7","A38DHLB88V8DL8","3D1UCPY6GGVNRONHL4UEVMXCHLT38H","[{""page_index"":0,""viewing_time"":10358.899999976158},{""page_index"":1,""viewing_time"":4550.800000011921}]","14909.799999952316","","","","","","","","","","","",""
"","image-keyboard-response","185","118628","0.0-274.0","3ZWFC4W1UVTQBPG0VA6ICVD2IESRF7","A38DHLB88V8DL8","3D1UCPY6GGVNRONHL4UEVMXCHLT38H","","490.30000001192093","img/food2.png","74","490.9000000357628","1","0","","3","1","1,0.5,0,1,0.5,0,0.5,0,1","1,0.5,0,1,0.5,0,0.5,0,1","1",""
"","html-keyboard-response","186","118937","0.0-275.0","3ZWFC4W1UVTQBPG0VA6ICVD2IESRF7","A38DHLB88V8DL8","3D1UCPY6GGVNRONHL4UEVMXCHLT38H","","null","<img src=""img/food2.png"" style=""width:200px;border:14px solid red;"">","null","","","","","","","","","",""
"","image-keyboard-response","187","119309","0.0-276.0","3ZWFC4W1UVTQBPG0VA6ICVD2IESRF7","A38DHLB88V8DL8","3D1UCPY6GGVNRONHL4UEVMXCHLT38H","","371.69999998807907","img/food6.png","75","372.0999999642372","2","1","","2","1","1,0.5,0,1,0.5,0,0.5,0,1","1,0.5,0,1,0.5,0,0.5,0,1","1",""
"","html-keyboard-response","188","119611","0.0-277.0","3ZWFC4W1UVTQBPG0VA6ICVD2IESRF7","A38DHLB88V8DL8","3D1UCPY6GGVNRONHL4UEVMXCHLT38H","","null","<img src=""img/food6.png"" style=""width:200px; border:14px solid green;"">","null","","","","","","","","","",""
"","image-keyboard-response","189","119980","0.0-278.0","3ZWFC4W1UVTQBPG0VA6ICVD2IESRF7","A38DHLB88V8DL8","3D1UCPY6GGVNRONHL4UEVMXCHLT38H","","369","img/food1.png","75","369.4000000357628","2","1","","1","1","1,0.5,0,1,0.5,0,0.5,0,1","1,0.5,0,1,0.5,0,0.5,0,1","1",""
"","html-keyboard-response","190","120282","0.0-279.0","3ZWFC4W1UVTQBPG0VA6ICVD2IESRF7","A38DHLB88V8DL8","3D1UCPY6GGVNRONHL4UEVMXCHLT38H","","null","<img src=""img/food1.png"" style=""width:200px; border:14px solid green;"">","null","","","","","","","","","",""
"","image-keyboard-response","191","120551","0.0-280.0","3ZWFC4W1UVTQBPG0VA6ICVD2IESRF7","A38DHLB88V8DL8","3D1UCPY6GGVNRONHL4UEVMXCHLT38H","","268.5","img/food1.png","75","269","2","0","","1","1","1,0.5,0,1,0.5,0,0.5,0,1","1,0.5,0,1,0.5,0,0.5,0,1","1",""
"","html-keyboard-response","192","120852","0.0-281.0","3ZWFC4W1UVTQBPG0VA6ICVD2IESRF7","A38DHLB88V8DL8","3D1UCPY6GGVNRONHL4UEVMXCHLT38H","","null","<img src=""img/food1.png"" style=""width:200px;border:14px solid red;"">","null","","","","","","","","","",""
"","image-keyboard-response","193","121360","0.0-282.0","3ZWFC4W1UVTQBPG0VA6ICVD2IESRF7","A38DHLB88V8DL8","3D1UCPY6GGVNRONHL4UEVMXCHLT38H","","507.10000002384186","img/food6.png","76","507.5999999642372","3","0","","2","1","1,0.5,0,1,0.5,0,0.5,0,1","1,0.5,0,1,0.5,0,0.5,0,1","1",""
"","html-keyboard-response","194","121661","0.0-283.0","3ZWFC4W1UVTQBPG0VA6ICVD2IESRF7","A38DHLB88V8DL8","3D1UCPY6GGVNRONHL4UEVMXCHLT38H","","null","<img src=""img/food6.png"" style=""width:200px;border:14px solid red;"">","null","","","","","","","","","",""
"","image-keyboard-response","195","121957","0.0-284.0","3ZWFC4W1UVTQBPG0VA6ICVD2IESRF7","A38DHLB88V8DL8","3D1UCPY6GGVNRONHL4UEVMXCHLT38H","","294.89999997615814","img/food6.png","75","295.2999999523163","2","1","","2","1","1,0.5,0,1,0.5,0,0.5,0,1","1,0.5,0,1,0.5,0,0.5,0,1","1",""
"","html-keyboard-response","196","122258","0.0-285.0","3ZWFC4W1UVTQBPG0VA6ICVD2IESRF7","A38DHLB88V8DL8","3D1UCPY6GGVNRONHL4UEVMXCHLT38H","","null","<img src=""img/food6.png"" style=""width:200px; border:14px solid green;"">","null","","","","","","","","","",""
"","image-keyboard-response","197","122545","0.0-286.0","3ZWFC4W1UVTQBPG0VA6ICVD2IESRF7","A38DHLB88V8DL8","3D1UCPY6GGVNRONHL4UEVMXCHLT38H","","286","img/food6.png","75","286.39999997615814","2","1","","2","1","1,0.5,0,1,0.5,0,0.5,0,1","1,0.5,0,1,0.5,0,0.5,0,1","1",""
"","html-keyboard-response","198","122846","0.0-287.0","3ZWFC4W1UVTQBPG0VA6ICVD2IESRF7","A38DHLB88V8DL8","3D1UCPY6GGVNRONHL4UEVMXCHLT38H","","null","<img src=""img/food6.png"" style=""width:200px; border:14px solid green;"">","null","","","","","","","","","",""
"","image-keyboard-response","199","123249","0.0-288.0","3ZWFC4W1UVTQBPG0VA6ICVD2IESRF7","A38DHLB88V8DL8","3D1UCPY6GGVNRONHL4UEVMXCHLT38H","","401.9000000357628","img/food2.png","74","402.39999997615814","1","0","","3","1","1,0.5,0,1,0.5,0,0.5,0,1","1,0.5,0,1,0.5,0,0.5,0,1","1",""
"","html-keyboard-response","200","123551","0.0-289.0","3ZWFC4W1UVTQBPG0VA6ICVD2IESRF7","A38DHLB88V8DL8","3D1UCPY6GGVNRONHL4UEVMXCHLT38H","","null","<img src=""img/food2.png"" style=""width:200px;border:14px solid red;"">","null","","","","","","","","","",""
"","image-keyboard-response","201","123811","0.0-290.0","3ZWFC4W1UVTQBPG0VA6ICVD2IESRF7","A38DHLB88V8DL8","3D1UCPY6GGVNRONHL4UEVMXCHLT38H","","259.5999999642372","img/food1.png","75","260.19999998807907","2","1","","1","1","1,0.5,0,1,0.5,0,0.5,0,1","1,0.5,0,1,0.5,0,0.5,0,1","1",""
"","html-keyboard-response","202","124112","0.0-291.0","3ZWFC4W1UVTQBPG0VA6ICVD2IESRF7","A38DHLB88V8DL8","3D1UCPY6GGVNRONHL4UEVMXCHLT38H","","null","<img src=""img/food1.png"" style=""width:200px; border:14px solid green;"">","null","","","","","","","","","",""
"","image-keyboard-response","203","124761","0.0-292.0","3ZWFC4W1UVTQBPG0VA6ICVD2IESRF7","A38DHLB88V8DL8","3D1UCPY6GGVNRONHL4UEVMXCHLT38H","","648","img/food6.png","76","648.5","3","0","","2","1","1,0.5,0,1,0.5,0,0.5,0,1","1,0.5,0,1,0.5,0,0.5,0,1","1",""
"","html-keyboard-response","204","125062","0.0-293.0","3ZWFC4W1UVTQBPG0VA6ICVD2IESRF7","A38DHLB88V8DL8","3D1UCPY6GGVNRONHL4UEVMXCHLT38H","","null","<img src=""img/food6.png"" style=""width:200px;border:14px solid red;"">","null","","","","","","","","","",""
"","image-keyboard-response","205","125269","0.0-294.0","3ZWFC4W1UVTQBPG0VA6ICVD2IESRF7","A38DHLB88V8DL8","3D1UCPY6GGVNRONHL4UEVMXCHLT38H","","206.19999998807907","img/food2.png","75","206.69999998807907","2","0","","3","1","1,0.5,0,1,0.5,0,0.5,0,1","1,0.5,0,1,0.5,0,0.5,0,1","1",""
"","html-keyboard-response","206","125570","0.0-295.0","3ZWFC4W1UVTQBPG0VA6ICVD2IESRF7","A38DHLB88V8DL8","3D1UCPY6GGVNRONHL4UEVMXCHLT38H","","null","<img src=""img/food2.png"" style=""width:200px;border:14px solid red;"">","null","","","","","","","","","",""
"","image-keyboard-response","207","126396","0.0-296.0","3ZWFC4W1UVTQBPG0VA6ICVD2IESRF7","A38DHLB88V8DL8","3D1UCPY6GGVNRONHL4UEVMXCHLT38H","","824.6000000238419","img/food1.png","75","825.3000000119209","2","1","","1","1","1,0.5,0,1,0.5,0,0.5,0,1","1,0.5,0,1,0.5,0,0.5,0,1","1",""
"","html-keyboard-response","208","126697","0.0-297.0","3ZWFC4W1UVTQBPG0VA6ICVD2IESRF7","A38DHLB88V8DL8","3D1UCPY6GGVNRONHL4UEVMXCHLT38H","","null","<img src=""img/food1.png"" style=""width:200px; border:14px solid green;"">","null","","","","","","","","","",""
"","image-keyboard-response","209","127224","0.0-298.0","3ZWFC4W1UVTQBPG0VA6ICVD2IESRF7","A38DHLB88V8DL8","3D1UCPY6GGVNRONHL4UEVMXCHLT38H","","526.2999999523163","img/food2.png","74","526.9000000357628","1","0","","3","1","1,0.5,0,1,0.5,0,0.5,0,1","1,0.5,0,1,0.5,0,0.5,0,1","1",""
"","html-keyboard-response","210","127525","0.0-299.0","3ZWFC4W1UVTQBPG0VA6ICVD2IESRF7","A38DHLB88V8DL8","3D1UCPY6GGVNRONHL4UEVMXCHLT38H","","null","<img src=""img/food2.png"" style=""width:200px;border:14px solid red;"">","null","","","","","","","","","",""
"","image-keyboard-response","211","127898","0.0-300.0","3ZWFC4W1UVTQBPG0VA6ICVD2IESRF7","A38DHLB88V8DL8","3D1UCPY6GGVNRONHL4UEVMXCHLT38H","","372.2999999523163","img/food6.png","75","372.80000001192093","2","0","","2","1","1,0.5,0,1,0.5,0,0.5,0,1","1,0.5,0,1,0.5,0,0.5,0,1","1",""
"","html-keyboard-response","212","128199","0.0-301.0","3ZWFC4W1UVTQBPG0VA6ICVD2IESRF7","A38DHLB88V8DL8","3D1UCPY6GGVNRONHL4UEVMXCHLT38H","","null","<img src=""img/food6.png"" style=""width:200px;border:14px solid red;"">","null","","","","","","","","","",""
"","image-keyboard-response","213","128470","0.0-302.0","3ZWFC4W1UVTQBPG0VA6ICVD2IESRF7","A38DHLB88V8DL8","3D1UCPY6GGVNRONHL4UEVMXCHLT38H","","269.89999997615814","img/food2.png","75","270.5","2","0","","3","1","1,0.5,0,1,0.5,0,0.5,0,1","1,0.5,0,1,0.5,0,0.5,0,1","1",""
"","html-keyboard-response","214","128772","0.0-303.0","3ZWFC4W1UVTQBPG0VA6ICVD2IESRF7","A38DHLB88V8DL8","3D1UCPY6GGVNRONHL4UEVMXCHLT38H","","null","<img src=""img/food2.png"" style=""width:200px;border:14px solid red;"">","null","","","","","","","","","",""
"","image-keyboard-response","215","129495","0.0-304.0","3ZWFC4W1UVTQBPG0VA6ICVD2IESRF7","A38DHLB88V8DL8","3D1UCPY6GGVNRONHL4UEVMXCHLT38H","","723.2999999523163","img/food1.png","75","723.8000000119209","2","1","","1","1","1,0.5,0,1,0.5,0,0.5,0,1","1,0.5,0,1,0.5,0,0.5,0,1","1",""
"","html-keyboard-response","216","129797","0.0-305.0","3ZWFC4W1UVTQBPG0VA6ICVD2IESRF7","A38DHLB88V8DL8","3D1UCPY6GGVNRONHL4UEVMXCHLT38H","","null","<img src=""img/food1.png"" style=""width:200px; border:14px solid green;"">","null","","","","","","","","","",""
"","image-keyboard-response","217","130374","0.0-306.0","3ZWFC4W1UVTQBPG0VA6ICVD2IESRF7","A38DHLB88V8DL8","3D1UCPY6GGVNRONHL4UEVMXCHLT38H","","576.5","img/food6.png","75","576.9000000357628","2","0","","2","1","1,0.5,0,1,0.5,0,0.5,0,1","1,0.5,0,1,0.5,0,0.5,0,1","1",""
"","html-keyboard-response","218","130676","0.0-307.0","3ZWFC4W1UVTQBPG0VA6ICVD2IESRF7","A38DHLB88V8DL8","3D1UCPY6GGVNRONHL4UEVMXCHLT38H","","null","<img src=""img/food6.png"" style=""width:200px;border:14px solid red;"">","null","","","","","","","","","",""
"","image-keyboard-response","219","131173","0.0-308.0","3ZWFC4W1UVTQBPG0VA6ICVD2IESRF7","A38DHLB88V8DL8","3D1UCPY6GGVNRONHL4UEVMXCHLT38H","","496.2000000476837","img/food1.png","75","496.69999998807907","2","0","","1","1","1,0.5,0,1,0.5,0,0.5,0,1","1,0.5,0,1,0.5,0,0.5,0,1","1",""
"","html-keyboard-response","220","131475","0.0-309.0","3ZWFC4W1UVTQBPG0VA6ICVD2IESRF7","A38DHLB88V8DL8","3D1UCPY6GGVNRONHL4UEVMXCHLT38H","","null","<img src=""img/food1.png"" style=""width:200px;border:14px solid red;"">","null","","","","","","","","","",""
"","image-keyboard-response","221","131777","0.0-310.0","3ZWFC4W1UVTQBPG0VA6ICVD2IESRF7","A38DHLB88V8DL8","3D1UCPY6GGVNRONHL4UEVMXCHLT38H","","301.4000000357628","img/food1.png","75","301.89999997615814","2","1","","1","1","1,0.5,0,1,0.5,0,0.5,0,1","1,0.5,0,1,0.5,0,0.5,0,1","1",""
"","html-keyboard-response","222","132080","0.0-311.0","3ZWFC4W1UVTQBPG0VA6ICVD2IESRF7","A38DHLB88V8DL8","3D1UCPY6GGVNRONHL4UEVMXCHLT38H","","null","<img src=""img/food1.png"" style=""width:200px; border:14px solid green;"">","null","","","","","","","","","",""
"","image-keyboard-response","223","132497","0.0-312.0","3ZWFC4W1UVTQBPG0VA6ICVD2IESRF7","A38DHLB88V8DL8","3D1UCPY6GGVNRONHL4UEVMXCHLT38H","","416.80000001192093","img/food6.png","76","417.30000001192093","3","0","","2","1","1,0.5,0,1,0.5,0,0.5,0,1","1,0.5,0,1,0.5,0,0.5,0,1","1",""
"","html-keyboard-response","224","132799","0.0-313.0","3ZWFC4W1UVTQBPG0VA6ICVD2IESRF7","A38DHLB88V8DL8","3D1UCPY6GGVNRONHL4UEVMXCHLT38H","","null","<img src=""img/food6.png"" style=""width:200px;border:14px solid red;"">","null","","","","","","","","","",""
"","image-keyboard-response","225","133101","0.0-314.0","3ZWFC4W1UVTQBPG0VA6ICVD2IESRF7","A38DHLB88V8DL8","3D1UCPY6GGVNRONHL4UEVMXCHLT38H","","301.60000002384186","img/food1.png","75","302.2000000476837","2","1","","1","1","1,0.5,0,1,0.5,0,0.5,0,1","1,0.5,0,1,0.5,0,0.5,0,1","1",""
"","html-keyboard-response","226","133407","0.0-315.0","3ZWFC4W1UVTQBPG0VA6ICVD2IESRF7","A38DHLB88V8DL8","3D1UCPY6GGVNRONHL4UEVMXCHLT38H","","null","<img src=""img/food1.png"" style=""width:200px; border:14px solid green;"">","null","","","","","","","","","",""
"","image-keyboard-response","227","133776","0.0-316.0","3ZWFC4W1UVTQBPG0VA6ICVD2IESRF7","A38DHLB88V8DL8","3D1UCPY6GGVNRONHL4UEVMXCHLT38H","","369.19999998807907","img/food2.png","75","369.69999998807907","2","0","","3","1","1,0.5,0,1,0.5,0,0.5,0,1","1,0.5,0,1,0.5,0,0.5,0,1","1",""
"","html-keyboard-response","228","134078","0.0-317.0","3ZWFC4W1UVTQBPG0VA6ICVD2IESRF7","A38DHLB88V8DL8","3D1UCPY6GGVNRONHL4UEVMXCHLT38H","","null","<img src=""img/food2.png"" style=""width:200px;border:14px solid red;"">","null","","","","","","","","","",""
"","image-keyboard-response","229","134417","0.0-318.0","3ZWFC4W1UVTQBPG0VA6ICVD2IESRF7","A38DHLB88V8DL8","3D1UCPY6GGVNRONHL4UEVMXCHLT38H","","338","img/food2.png","75","338.60000002384186","2","0","","3","1","1,0.5,0,1,0.5,0,0.5,0,1","1,0.5,0,1,0.5,0,0.5,0,1","1",""
"","html-keyboard-response","230","134718","0.0-319.0","3ZWFC4W1UVTQBPG0VA6ICVD2IESRF7","A38DHLB88V8DL8","3D1UCPY6GGVNRONHL4UEVMXCHLT38H","","null","<img src=""img/food2.png"" style=""width:200px;border:14px solid red;"">","null","","","","","","","","","",""
"","image-keyboard-response","231","135077","0.0-320.0","3ZWFC4W1UVTQBPG0VA6ICVD2IESRF7","A38DHLB88V8DL8","3D1UCPY6GGVNRONHL4UEVMXCHLT38H","","357.80000001192093","img/food2.png","76","358.30000001192093","3","1","","3","1","1,0.5,0,1,0.5,0,0.5,0,1","1,0.5,0,1,0.5,0,0.5,0,1","1",""
"","html-keyboard-response","232","135378","0.0-321.0","3ZWFC4W1UVTQBPG0VA6ICVD2IESRF7","A38DHLB88V8DL8","3D1UCPY6GGVNRONHL4UEVMXCHLT38H","","null","<img src=""img/food2.png"" style=""width:200px; border:14px solid green;"">","null","","","","","","","","","",""
"","image-keyboard-response","233","135724","0.0-322.0","3ZWFC4W1UVTQBPG0VA6ICVD2IESRF7","A38DHLB88V8DL8","3D1UCPY6GGVNRONHL4UEVMXCHLT38H","","345.69999998807907","img/food2.png","76","346.19999998807907","3","1","","3","1","1,0.5,0,1,0.5,0,0.5,0,1","1,0.5,0,1,0.5,0,0.5,0,1","1",""
"","html-keyboard-response","234","136026","0.0-323.0","3ZWFC4W1UVTQBPG0VA6ICVD2IESRF7","A38DHLB88V8DL8","3D1UCPY6GGVNRONHL4UEVMXCHLT38H","","null","<img src=""img/food2.png"" style=""width:200px; border:14px solid green;"">","null","","","","","","","","","",""
"","image-keyboard-response","235","136489","0.0-324.0","3ZWFC4W1UVTQBPG0VA6ICVD2IESRF7","A38DHLB88V8DL8","3D1UCPY6GGVNRONHL4UEVMXCHLT38H","","462.5999999642372","img/food1.png","75","463.0999999642372","2","1","","1","1","1,0.5,0,1,0.5,0,0.5,0,1","1,0.5,0,1,0.5,0,0.5,0,1","1",""
"","html-keyboard-response","236","136791","0.0-325.0","3ZWFC4W1UVTQBPG0VA6ICVD2IESRF7","A38DHLB88V8DL8","3D1UCPY6GGVNRONHL4UEVMXCHLT38H","","null","<img src=""img/food1.png"" style=""width:200px; border:14px solid green;"">","null","","","","","","","","","",""
"","image-keyboard-response","237","137006","0.0-326.0","3ZWFC4W1UVTQBPG0VA6ICVD2IESRF7","A38DHLB88V8DL8","3D1UCPY6GGVNRONHL4UEVMXCHLT38H","","214.20000004768372","img/food6.png","75","214.79999995231628","2","1","","2","1","1,0.5,0,1,0.5,0,0.5,0,1","1,0.5,0,1,0.5,0,0.5,0,1","1",""
"","html-keyboard-response","238","137307","0.0-327.0","3ZWFC4W1UVTQBPG0VA6ICVD2IESRF7","A38DHLB88V8DL8","3D1UCPY6GGVNRONHL4UEVMXCHLT38H","","null","<img src=""img/food6.png"" style=""width:200px; border:14px solid green;"">","null","","","","","","","","","",""
"","image-keyboard-response","239","137653","0.0-328.0","3ZWFC4W1UVTQBPG0VA6ICVD2IESRF7","A38DHLB88V8DL8","3D1UCPY6GGVNRONHL4UEVMXCHLT38H","","344.80000001192093","img/food1.png","75","345.19999998807907","2","1","","1","1","1,0.5,0,1,0.5,0,0.5,0,1","1,0.5,0,1,0.5,0,0.5,0,1","1",""
"","html-keyboard-response","240","137953","0.0-329.0","3ZWFC4W1UVTQBPG0VA6ICVD2IESRF7","A38DHLB88V8DL8","3D1UCPY6GGVNRONHL4UEVMXCHLT38H","","null","<img src=""img/food1.png"" style=""width:200px; border:14px solid green;"">","null","","","","","","","","","",""
"","image-keyboard-response","241","138355","0.0-330.0","3ZWFC4W1UVTQBPG0VA6ICVD2IESRF7","A38DHLB88V8DL8","3D1UCPY6GGVNRONHL4UEVMXCHLT38H","","401.60000002384186","img/food6.png","75","402","2","0","","2","1","1,0.5,0,1,0.5,0,0.5,0,1","1,0.5,0,1,0.5,0,0.5,0,1","1",""
"","html-keyboard-response","242","138657","0.0-331.0","3ZWFC4W1UVTQBPG0VA6ICVD2IESRF7","A38DHLB88V8DL8","3D1UCPY6GGVNRONHL4UEVMXCHLT38H","","null","<img src=""img/food6.png"" style=""width:200px;border:14px solid red;"">","null","","","","","","","","","",""
"","image-keyboard-response","243","138912","0.0-332.0","3ZWFC4W1UVTQBPG0VA6ICVD2IESRF7","A38DHLB88V8DL8","3D1UCPY6GGVNRONHL4UEVMXCHLT38H","","254.5","img/food1.png","75","255.30000001192093","2","1","","1","1","1,0.5,0,1,0.5,0,0.5,0,1","1,0.5,0,1,0.5,0,0.5,0,1","1",""
"","html-keyboard-response","244","139214","0.0-333.0","3ZWFC4W1UVTQBPG0VA6ICVD2IESRF7","A38DHLB88V8DL8","3D1UCPY6GGVNRONHL4UEVMXCHLT38H","","null","<img src=""img/food1.png"" style=""width:200px; border:14px solid green;"">","null","","","","","","","","","",""
"","image-keyboard-response","245","139814","0.0-334.0","3ZWFC4W1UVTQBPG0VA6ICVD2IESRF7","A38DHLB88V8DL8","3D1UCPY6GGVNRONHL4UEVMXCHLT38H","","598.8999999761581","img/food2.png","76","599.4000000357628","3","1","","3","1","1,0.5,0,1,0.5,0,0.5,0,1","1,0.5,0,1,0.5,0,0.5,0,1","1",""
"","html-keyboard-response","246","140115","0.0-335.0","3ZWFC4W1UVTQBPG0VA6ICVD2IESRF7","A38DHLB88V8DL8","3D1UCPY6GGVNRONHL4UEVMXCHLT38H","","null","<img src=""img/food2.png"" style=""width:200px; border:14px solid green;"">","null","","","","","","","","","",""
"","image-keyboard-response","247","140643","0.0-336.0","3ZWFC4W1UVTQBPG0VA6ICVD2IESRF7","A38DHLB88V8DL8","3D1UCPY6GGVNRONHL4UEVMXCHLT38H","","527.3999999761581","img/food6.png","75","527.9000000357628","2","1","","2","1","1,0.5,0,1,0.5,0,0.5,0,1","1,0.5,0,1,0.5,0,0.5,0,1","1",""
"","html-keyboard-response","248","140945","0.0-337.0","3ZWFC4W1UVTQBPG0VA6ICVD2IESRF7","A38DHLB88V8DL8","3D1UCPY6GGVNRONHL4UEVMXCHLT38H","","null","<img src=""img/food6.png"" style=""width:200px; border:14px solid green;"">","null","","","","","","","","","",""
"","image-keyboard-response","249","141431","0.0-338.0","3ZWFC4W1UVTQBPG0VA6ICVD2IESRF7","A38DHLB88V8DL8","3D1UCPY6GGVNRONHL4UEVMXCHLT38H","","485.5","img/food1.png","76","485.89999997615814","3","0","","1","1","1,0.5,0,1,0.5,0,0.5,0,1","1,0.5,0,1,0.5,0,0.5,0,1","1",""
"","html-keyboard-response","250","141733","0.0-339.0","3ZWFC4W1UVTQBPG0VA6ICVD2IESRF7","A38DHLB88V8DL8","3D1UCPY6GGVNRONHL4UEVMXCHLT38H","","null","<img src=""img/food1.png"" style=""width:200px;border:14px solid red;"">","null","","","","","","","","","",""
"","image-keyboard-response","251","142192","0.0-340.0","3ZWFC4W1UVTQBPG0VA6ICVD2IESRF7","A38DHLB88V8DL8","3D1UCPY6GGVNRONHL4UEVMXCHLT38H","","458.19999998807907","img/food6.png","75","458.7000000476837","2","1","","2","1","1,0.5,0,1,0.5,0,0.5,0,1","1,0.5,0,1,0.5,0,0.5,0,1","1",""
"","html-keyboard-response","252","142493","0.0-341.0","3ZWFC4W1UVTQBPG0VA6ICVD2IESRF7","A38DHLB88V8DL8","3D1UCPY6GGVNRONHL4UEVMXCHLT38H","","null","<img src=""img/food6.png"" style=""width:200px; border:14px solid green;"">","null","","","","","","","","","",""
"","image-keyboard-response","253","142904","0.0-342.0","3ZWFC4W1UVTQBPG0VA6ICVD2IESRF7","A38DHLB88V8DL8","3D1UCPY6GGVNRONHL4UEVMXCHLT38H","","410.2000000476837","img/food1.png","75","410.5999999642372","2","0","","1","1","1,0.5,0,1,0.5,0,0.5,0,1","1,0.5,0,1,0.5,0,0.5,0,1","1",""
"","html-keyboard-response","254","143204","0.0-343.0","3ZWFC4W1UVTQBPG0VA6ICVD2IESRF7","A38DHLB88V8DL8","3D1UCPY6GGVNRONHL4UEVMXCHLT38H","","null","<img src=""img/food1.png"" style=""width:200px;border:14px solid red;"">","null","","","","","","","","","",""
"","image-keyboard-response","255","143628","0.0-344.0","3ZWFC4W1UVTQBPG0VA6ICVD2IESRF7","A38DHLB88V8DL8","3D1UCPY6GGVNRONHL4UEVMXCHLT38H","","422.9000000357628","img/food6.png","75","423.4000000357628","2","0","","2","1","1,0.5,0,1,0.5,0,0.5,0,1","1,0.5,0,1,0.5,0,0.5,0,1","1",""
"","html-keyboard-response","256","143930","0.0-345.0","3ZWFC4W1UVTQBPG0VA6ICVD2IESRF7","A38DHLB88V8DL8","3D1UCPY6GGVNRONHL4UEVMXCHLT38H","","null","<img src=""img/food6.png"" style=""width:200px;border:14px solid red;"">","null","","","","","","","","","",""
"","image-keyboard-response","257","144350","0.0-346.0","3ZWFC4W1UVTQBPG0VA6ICVD2IESRF7","A38DHLB88V8DL8","3D1UCPY6GGVNRONHL4UEVMXCHLT38H","","420","img/food1.png","75","420.5999999642372","2","1","","1","1","1,0.5,0,1,0.5,0,0.5,0,1","1,0.5,0,1,0.5,0,0.5,0,1","1",""
"","html-keyboard-response","258","144652","0.0-347.0","3ZWFC4W1UVTQBPG0VA6ICVD2IESRF7","A38DHLB88V8DL8","3D1UCPY6GGVNRONHL4UEVMXCHLT38H","","null","<img src=""img/food1.png"" style=""width:200px; border:14px solid green;"">","null","","","","","","","","","",""
"","image-keyboard-response","259","145113","0.0-348.0","3ZWFC4W1UVTQBPG0VA6ICVD2IESRF7","A38DHLB88V8DL8","3D1UCPY6GGVNRONHL4UEVMXCHLT38H","","460.0999999642372","img/food2.png","75","460.69999998807907","2","0","","3","1","1,0.5,0,1,0.5,0,0.5,0,1","1,0.5,0,1,0.5,0,0.5,0,1","1",""
"","html-keyboard-response","260","145414","0.0-349.0","3ZWFC4W1UVTQBPG0VA6ICVD2IESRF7","A38DHLB88V8DL8","3D1UCPY6GGVNRONHL4UEVMXCHLT38H","","null","<img src=""img/food2.png"" style=""width:200px;border:14px solid red;"">","null","","","","","","","","","",""
"","image-keyboard-response","261","145872","0.0-350.0","3ZWFC4W1UVTQBPG0VA6ICVD2IESRF7","A38DHLB88V8DL8","3D1UCPY6GGVNRONHL4UEVMXCHLT38H","","457.39999997615814","img/food2.png","76","457.69999998807907","3","1","","3","1","1,0.5,0,1,0.5,0,0.5,0,1","1,0.5,0,1,0.5,0,0.5,0,1","1",""
"","html-keyboard-response","262","146177","0.0-351.0","3ZWFC4W1UVTQBPG0VA6ICVD2IESRF7","A38DHLB88V8DL8","3D1UCPY6GGVNRONHL4UEVMXCHLT38H","","null","<img src=""img/food2.png"" style=""width:200px; border:14px solid green;"">","null","","","","","","","","","",""
"","image-keyboard-response","263","146530","0.0-352.0","3ZWFC4W1UVTQBPG0VA6ICVD2IESRF7","A38DHLB88V8DL8","3D1UCPY6GGVNRONHL4UEVMXCHLT38H","","352.39999997615814","img/food2.png","76","353","3","1","","3","1","1,0.5,0,1,0.5,0,0.5,0,1","1,0.5,0,1,0.5,0,0.5,0,1","1",""
"","html-keyboard-response","264","146832","0.0-353.0","3ZWFC4W1UVTQBPG0VA6ICVD2IESRF7","A38DHLB88V8DL8","3D1UCPY6GGVNRONHL4UEVMXCHLT38H","","null","<img src=""img/food2.png"" style=""width:200px; border:14px solid green;"">","null","","","","","","","","","",""
"","image-keyboard-response","265","147307","0.0-354.0","3ZWFC4W1UVTQBPG0VA6ICVD2IESRF7","A38DHLB88V8DL8","3D1UCPY6GGVNRONHL4UEVMXCHLT38H","","474.39999997615814","img/food1.png","75","474.89999997615814","2","1","","1","1","1,0.5,0,1,0.5,0,0.5,0,1","1,0.5,0,1,0.5,0,0.5,0,1","1",""
"","html-keyboard-response","266","147608","0.0-355.0","3ZWFC4W1UVTQBPG0VA6ICVD2IESRF7","A38DHLB88V8DL8","3D1UCPY6GGVNRONHL4UEVMXCHLT38H","","null","<img src=""img/food1.png"" style=""width:200px; border:14px solid green;"">","null","","","","","","","","","",""
"","image-keyboard-response","267","148036","0.0-356.0","3ZWFC4W1UVTQBPG0VA6ICVD2IESRF7","A38DHLB88V8DL8","3D1UCPY6GGVNRONHL4UEVMXCHLT38H","","427.5","img/food6.png","75","427.9000000357628","2","1","","2","1","1,0.5,0,1,0.5,0,0.5,0,1","1,0.5,0,1,0.5,0,0.5,0,1","1",""
"","html-keyboard-response","268","148337","0.0-357.0","3ZWFC4W1UVTQBPG0VA6ICVD2IESRF7","A38DHLB88V8DL8","3D1UCPY6GGVNRONHL4UEVMXCHLT38H","","null","<img src=""img/food6.png"" style=""width:200px; border:14px solid green;"">","null","","","","","","","","","",""
"","image-keyboard-response","269","148759","0.0-358.0","3ZWFC4W1UVTQBPG0VA6ICVD2IESRF7","A38DHLB88V8DL8","3D1UCPY6GGVNRONHL4UEVMXCHLT38H","","420.5999999642372","img/food2.png","75","421.0999999642372","2","0","","3","1","1,0.5,0,1,0.5,0,0.5,0,1","1,0.5,0,1,0.5,0,0.5,0,1","1",""
"","html-keyboard-response","270","149060","0.0-359.0","3ZWFC4W1UVTQBPG0VA6ICVD2IESRF7","A38DHLB88V8DL8","3D1UCPY6GGVNRONHL4UEVMXCHLT38H","","null","<img src=""img/food2.png"" style=""width:200px;border:14px solid red;"">","null","","","","","","","","","",""
"","image-keyboard-response","271","149451","0.0-360.0","3ZWFC4W1UVTQBPG0VA6ICVD2IESRF7","A38DHLB88V8DL8","3D1UCPY6GGVNRONHL4UEVMXCHLT38H","","390.80000001192093","img/food2.png","76","391.2999999523163","3","1","","3","1","1,0.5,0,1,0.5,0,0.5,0,1","1,0.5,0,1,0.5,0,0.5,0,1","1",""
"","html-keyboard-response","272","149753","0.0-361.0","3ZWFC4W1UVTQBPG0VA6ICVD2IESRF7","A38DHLB88V8DL8","3D1UCPY6GGVNRONHL4UEVMXCHLT38H","","null","<img src=""img/food2.png"" style=""width:200px; border:14px solid green;"">","null","","","","","","","","","",""
"","image-keyboard-response","273","150146","0.0-362.0","3ZWFC4W1UVTQBPG0VA6ICVD2IESRF7","A38DHLB88V8DL8","3D1UCPY6GGVNRONHL4UEVMXCHLT38H","","392.0999999642372","img/food2.png","76","392.5","3","1","","3","1","1,0.5,0,1,0.5,0,0.5,0,1","1,0.5,0,1,0.5,0,0.5,0,1","1",""
"","html-keyboard-response","274","150448","0.0-363.0","3ZWFC4W1UVTQBPG0VA6ICVD2IESRF7","A38DHLB88V8DL8","3D1UCPY6GGVNRONHL4UEVMXCHLT38H","","null","<img src=""img/food2.png"" style=""width:200px; border:14px solid green;"">","null","","","","","","","","","",""
"","image-keyboard-response","275","150898","0.0-364.0","3ZWFC4W1UVTQBPG0VA6ICVD2IESRF7","A38DHLB88V8DL8","3D1UCPY6GGVNRONHL4UEVMXCHLT38H","","448.89999997615814","img/food1.png","75","449.5","2","0","","1","1","1,0.5,0,1,0.5,0,0.5,0,1","1,0.5,0,1,0.5,0,0.5,0,1","1",""
"","html-keyboard-response","276","151199","0.0-365.0","3ZWFC4W1UVTQBPG0VA6ICVD2IESRF7","A38DHLB88V8DL8","3D1UCPY6GGVNRONHL4UEVMXCHLT38H","","null","<img src=""img/food1.png"" style=""width:200px;border:14px solid red;"">","null","","","","","","","","","",""
"","image-keyboard-response","277","151433","0.0-366.0","3ZWFC4W1UVTQBPG0VA6ICVD2IESRF7","A38DHLB88V8DL8","3D1UCPY6GGVNRONHL4UEVMXCHLT38H","","233.69999998807907","img/food2.png","75","234.10000002384186","2","0","","3","1","1,0.5,0,1,0.5,0,0.5,0,1","1,0.5,0,1,0.5,0,0.5,0,1","1",""
"","html-keyboard-response","278","151734","0.0-367.0","3ZWFC4W1UVTQBPG0VA6ICVD2IESRF7","A38DHLB88V8DL8","3D1UCPY6GGVNRONHL4UEVMXCHLT38H","","null","<img src=""img/food2.png"" style=""width:200px;border:14px solid red;"">","null","","","","","","","","","",""
"","image-keyboard-response","279","152414","0.0-368.0","3ZWFC4W1UVTQBPG0VA6ICVD2IESRF7","A38DHLB88V8DL8","3D1UCPY6GGVNRONHL4UEVMXCHLT38H","","679.5","img/food1.png","75","679.9000000357628","2","1","","1","1","1,0.5,0,1,0.5,0,0.5,0,1","1,0.5,0,1,0.5,0,0.5,0,1","1",""
"","html-keyboard-response","280","152715","0.0-369.0","3ZWFC4W1UVTQBPG0VA6ICVD2IESRF7","A38DHLB88V8DL8","3D1UCPY6GGVNRONHL4UEVMXCHLT38H","","null","<img src=""img/food1.png"" style=""width:200px; border:14px solid green;"">","null","","","","","","","","","",""
"","image-keyboard-response","281","153088","0.0-370.0","3ZWFC4W1UVTQBPG0VA6ICVD2IESRF7","A38DHLB88V8DL8","3D1UCPY6GGVNRONHL4UEVMXCHLT38H","","371.89999997615814","img/food2.png","76","372.39999997615814","3","1","","3","1","1,0.5,0,1,0.5,0,0.5,0,1","1,0.5,0,1,0.5,0,0.5,0,1","1",""
"","html-keyboard-response","282","153389","0.0-371.0","3ZWFC4W1UVTQBPG0VA6ICVD2IESRF7","A38DHLB88V8DL8","3D1UCPY6GGVNRONHL4UEVMXCHLT38H","","null","<img src=""img/food2.png"" style=""width:200px; border:14px solid green;"">","null","","","","","","","","","",""
"","image-keyboard-response","283","153843","0.0-372.0","3ZWFC4W1UVTQBPG0VA6ICVD2IESRF7","A38DHLB88V8DL8","3D1UCPY6GGVNRONHL4UEVMXCHLT38H","","452.89999997615814","img/food6.png","75","453.4000000357628","2","1","","2","1","1,0.5,0,1,0.5,0,0.5,0,1","1,0.5,0,1,0.5,0,0.5,0,1","1",""
"","html-keyboard-response","284","154144","0.0-373.0","3ZWFC4W1UVTQBPG0VA6ICVD2IESRF7","A38DHLB88V8DL8","3D1UCPY6GGVNRONHL4UEVMXCHLT38H","","null","<img src=""img/food6.png"" style=""width:200px; border:14px solid green;"">","null","","","","","","","","","",""
"","image-keyboard-response","285","154462","0.0-374.0","3ZWFC4W1UVTQBPG0VA6ICVD2IESRF7","A38DHLB88V8DL8","3D1UCPY6GGVNRONHL4UEVMXCHLT38H","","316.9000000357628","img/food6.png","75","317.4000000357628","2","0","","2","1","1,0.5,0,1,0.5,0,0.5,0,1","1,0.5,0,1,0.5,0,0.5,0,1","1",""
"","html-keyboard-response","286","154763","0.0-375.0","3ZWFC4W1UVTQBPG0VA6ICVD2IESRF7","A38DHLB88V8DL8","3D1UCPY6GGVNRONHL4UEVMXCHLT38H","","null","<img src=""img/food6.png"" style=""width:200px;border:14px solid red;"">","null","","","","","","","","","",""
"","image-keyboard-response","287","155373","0.0-376.0","3ZWFC4W1UVTQBPG0VA6ICVD2IESRF7","A38DHLB88V8DL8","3D1UCPY6GGVNRONHL4UEVMXCHLT38H","","608.6000000238419","img/food1.png","76","609.1999999880791","3","0","","1","1","1,0.5,0,1,0.5,0,0.5,0,1","1,0.5,0,1,0.5,0,0.5,0,1","1",""
"","html-keyboard-response","288","155674","0.0-377.0","3ZWFC4W1UVTQBPG0VA6ICVD2IESRF7","A38DHLB88V8DL8","3D1UCPY6GGVNRONHL4UEVMXCHLT38H","","null","<img src=""img/food1.png"" style=""width:200px;border:14px solid red;"">","null","","","","","","","","","",""
"","image-keyboard-response","289","156213","0.0-378.0","3ZWFC4W1UVTQBPG0VA6ICVD2IESRF7","A38DHLB88V8DL8","3D1UCPY6GGVNRONHL4UEVMXCHLT38H","","537.6000000238419","img/food2.png","75","538","2","0","","3","1","1,0.5,0,1,0.5,0,0.5,0,1","1,0.5,0,1,0.5,0,0.5,0,1","1",""
"","html-keyboard-response","290","156513","0.0-379.0","3ZWFC4W1UVTQBPG0VA6ICVD2IESRF7","A38DHLB88V8DL8","3D1UCPY6GGVNRONHL4UEVMXCHLT38H","","null","<img src=""img/food2.png"" style=""width:200px;border:14px solid red;"">","null","","","","","","","","","",""
"","image-keyboard-response","291","156908","0.0-380.0","3ZWFC4W1UVTQBPG0VA6ICVD2IESRF7","A38DHLB88V8DL8","3D1UCPY6GGVNRONHL4UEVMXCHLT38H","","394.5","img/food6.png","76","394.9000000357628","3","0","","2","1","1,0.5,0,1,0.5,0,0.5,0,1","1,0.5,0,1,0.5,0,0.5,0,1","1",""
"","html-keyboard-response","292","157210","0.0-381.0","3ZWFC4W1UVTQBPG0VA6ICVD2IESRF7","A38DHLB88V8DL8","3D1UCPY6GGVNRONHL4UEVMXCHLT38H","","null","<img src=""img/food6.png"" style=""width:200px;border:14px solid red;"">","null","","","","","","","","","",""
"","image-keyboard-response","293","157573","0.0-382.0","3ZWFC4W1UVTQBPG0VA6ICVD2IESRF7","A38DHLB88V8DL8","3D1UCPY6GGVNRONHL4UEVMXCHLT38H","","362.0999999642372","img/food6.png","75","362.80000001192093","2","1","","2","1","1,0.5,0,1,0.5,0,0.5,0,1","1,0.5,0,1,0.5,0,0.5,0,1","1",""
"","html-keyboard-response","294","157874","0.0-383.0","3ZWFC4W1UVTQBPG0VA6ICVD2IESRF7","A38DHLB88V8DL8","3D1UCPY6GGVNRONHL4UEVMXCHLT38H","","null","<img src=""img/food6.png"" style=""width:200px; border:14px solid green;"">","null","","","","","","","","","",""
"","image-keyboard-response","295","158447","0.0-384.0","3ZWFC4W1UVTQBPG0VA6ICVD2IESRF7","A38DHLB88V8DL8","3D1UCPY6GGVNRONHL4UEVMXCHLT38H","","572.1000000238419","img/food2.png","76","572.6999999880791","3","1","","3","1","1,0.5,0,1,0.5,0,0.5,0,1","1,0.5,0,1,0.5,0,0.5,0,1","1",""
"","html-keyboard-response","296","158758","0.0-385.0","3ZWFC4W1UVTQBPG0VA6ICVD2IESRF7","A38DHLB88V8DL8","3D1UCPY6GGVNRONHL4UEVMXCHLT38H","","null","<img src=""img/food2.png"" style=""width:200px; border:14px solid green;"">","null","","","","","","","","","",""
"","image-keyboard-response","297","159254","0.0-386.0","3ZWFC4W1UVTQBPG0VA6ICVD2IESRF7","A38DHLB88V8DL8","3D1UCPY6GGVNRONHL4UEVMXCHLT38H","","495.30000001192093","img/food6.png","75","495.9000000357628","2","1","","2","1","1,0.5,0,1,0.5,0,0.5,0,1","1,0.5,0,1,0.5,0,0.5,0,1","1",""
"","html-keyboard-response","298","159566","0.0-387.0","3ZWFC4W1UVTQBPG0VA6ICVD2IESRF7","A38DHLB88V8DL8","3D1UCPY6GGVNRONHL4UEVMXCHLT38H","","null","<img src=""img/food6.png"" style=""width:200px; border:14px solid green;"">","null","","","","","","","","","",""
"","image-keyboard-response","299","159963","0.0-388.0","3ZWFC4W1UVTQBPG0VA6ICVD2IESRF7","A38DHLB88V8DL8","3D1UCPY6GGVNRONHL4UEVMXCHLT38H","","396.5","img/food2.png","76","397.10000002384186","3","1","","3","1","1,0.5,0,1,0.5,0,0.5,0,1","1,0.5,0,1,0.5,0,0.5,0,1","1",""
"","html-keyboard-response","300","160265","0.0-389.0","3ZWFC4W1UVTQBPG0VA6ICVD2IESRF7","A38DHLB88V8DL8","3D1UCPY6GGVNRONHL4UEVMXCHLT38H","","null","<img src=""img/food2.png"" style=""width:200px; border:14px solid green;"">","null","","","","","","","","","",""
"","image-keyboard-response","301","160766","0.0-390.0","3ZWFC4W1UVTQBPG0VA6ICVD2IESRF7","A38DHLB88V8DL8","3D1UCPY6GGVNRONHL4UEVMXCHLT38H","","500.5","img/food6.png","75","500.89999997615814","2","0","","2","1","1,0.5,0,1,0.5,0,0.5,0,1","1,0.5,0,1,0.5,0,0.5,0,1","1",""
"","html-keyboard-response","302","161067","0.0-391.0","3ZWFC4W1UVTQBPG0VA6ICVD2IESRF7","A38DHLB88V8DL8","3D1UCPY6GGVNRONHL4UEVMXCHLT38H","","null","<img src=""img/food6.png"" style=""width:200px;border:14px solid red;"">","null","","","","","","","","","",""
"","image-keyboard-response","303","161373","0.0-392.0","3ZWFC4W1UVTQBPG0VA6ICVD2IESRF7","A38DHLB88V8DL8","3D1UCPY6GGVNRONHL4UEVMXCHLT38H","","305.10000002384186","img/food6.png","75","305.69999998807907","2","1","","2","1","1,0.5,0,1,0.5,0,0.5,0,1","1,0.5,0,1,0.5,0,0.5,0,1","1",""
"","html-keyboard-response","304","161684","0.0-393.0","3ZWFC4W1UVTQBPG0VA6ICVD2IESRF7","A38DHLB88V8DL8","3D1UCPY6GGVNRONHL4UEVMXCHLT38H","","null","<img src=""img/food6.png"" style=""width:200px; border:14px solid green;"">","null","","","","","","","","","",""
"","image-keyboard-response","305","162187","0.0-394.0","3ZWFC4W1UVTQBPG0VA6ICVD2IESRF7","A38DHLB88V8DL8","3D1UCPY6GGVNRONHL4UEVMXCHLT38H","","503","img/food2.png","75","503.69999998807907","2","0","","3","1","1,0.5,0,1,0.5,0,0.5,0,1","1,0.5,0,1,0.5,0,0.5,0,1","1",""
"","html-keyboard-response","306","162489","0.0-395.0","3ZWFC4W1UVTQBPG0VA6ICVD2IESRF7","A38DHLB88V8DL8","3D1UCPY6GGVNRONHL4UEVMXCHLT38H","","null","<img src=""img/food2.png"" style=""width:200px;border:14px solid red;"">","null","","","","","","","","","",""
"","image-keyboard-response","307","163087","0.0-396.0","3ZWFC4W1UVTQBPG0VA6ICVD2IESRF7","A38DHLB88V8DL8","3D1UCPY6GGVNRONHL4UEVMXCHLT38H","","598","img/food6.png","75","598.3999999761581","2","0","","2","1","1,0.5,0,1,0.5,0,0.5,0,1","1,0.5,0,1,0.5,0,0.5,0,1","1",""
"","html-keyboard-response","308","163389","0.0-397.0","3ZWFC4W1UVTQBPG0VA6ICVD2IESRF7","A38DHLB88V8DL8","3D1UCPY6GGVNRONHL4UEVMXCHLT38H","","null","<img src=""img/food6.png"" style=""width:200px;border:14px solid red;"">","null","","","","","","","","","",""
"","image-keyboard-response","309","163794","0.0-398.0","3ZWFC4W1UVTQBPG0VA6ICVD2IESRF7","A38DHLB88V8DL8","3D1UCPY6GGVNRONHL4UEVMXCHLT38H","","404.80000001192093","img/food2.png","75","405.19999998807907","2","0","","3","1","1,0.5,0,1,0.5,0,0.5,0,1","1,0.5,0,1,0.5,0,0.5,0,1","1",""
"","html-keyboard-response","310","164096","0.0-399.0","3ZWFC4W1UVTQBPG0VA6ICVD2IESRF7","A38DHLB88V8DL8","3D1UCPY6GGVNRONHL4UEVMXCHLT38H","","null","<img src=""img/food2.png"" style=""width:200px;border:14px solid red;"">","null","","","","","","","","","",""
"","image-keyboard-response","311","164639","0.0-400.0","3ZWFC4W1UVTQBPG0VA6ICVD2IESRF7","A38DHLB88V8DL8","3D1UCPY6GGVNRONHL4UEVMXCHLT38H","","542.8999999761581","img/food1.png","75","543.4000000357628","2","0","","1","1","1,0.5,0,1,0.5,0,0.5,0,1","1,0.5,0,1,0.5,0,0.5,0,1","1",""
"","html-keyboard-response","312","164941","0.0-401.0","3ZWFC4W1UVTQBPG0VA6ICVD2IESRF7","A38DHLB88V8DL8","3D1UCPY6GGVNRONHL4UEVMXCHLT38H","","null","<img src=""img/food1.png"" style=""width:200px;border:14px solid red;"">","null","","","","","","","","","",""
"","image-keyboard-response","313","165317","0.0-402.0","3ZWFC4W1UVTQBPG0VA6ICVD2IESRF7","A38DHLB88V8DL8","3D1UCPY6GGVNRONHL4UEVMXCHLT38H","","374.9000000357628","img/food1.png","75","375.30000001192093","2","0","","1","1","1,0.5,0,1,0.5,0,0.5,0,1","1,0.5,0,1,0.5,0,0.5,0,1","1",""
"","html-keyboard-response","314","165619","0.0-403.0","3ZWFC4W1UVTQBPG0VA6ICVD2IESRF7","A38DHLB88V8DL8","3D1UCPY6GGVNRONHL4UEVMXCHLT38H","","null","<img src=""img/food1.png"" style=""width:200px;border:14px solid red;"">","null","","","","","","","","","",""
"","image-keyboard-response","315","166283","0.0-404.0","3ZWFC4W1UVTQBPG0VA6ICVD2IESRF7","A38DHLB88V8DL8","3D1UCPY6GGVNRONHL4UEVMXCHLT38H","","663.3000000119209","img/food2.png","76","663.8000000119209","3","1","","3","1","1,0.5,0,1,0.5,0,0.5,0,1","1,0.5,0,1,0.5,0,0.5,0,1","1",""
"","html-keyboard-response","316","166584","0.0-405.0","3ZWFC4W1UVTQBPG0VA6ICVD2IESRF7","A38DHLB88V8DL8","3D1UCPY6GGVNRONHL4UEVMXCHLT38H","","null","<img src=""img/food2.png"" style=""width:200px; border:14px solid green;"">","null","","","","","","","","","",""
"","image-keyboard-response","317","166943","0.0-406.0","3ZWFC4W1UVTQBPG0VA6ICVD2IESRF7","A38DHLB88V8DL8","3D1UCPY6GGVNRONHL4UEVMXCHLT38H","","358.5","img/food2.png","76","358.9000000357628","3","1","","3","1","1,0.5,0,1,0.5,0,0.5,0,1","1,0.5,0,1,0.5,0,0.5,0,1","1",""
"","html-keyboard-response","318","167244","0.0-407.0","3ZWFC4W1UVTQBPG0VA6ICVD2IESRF7","A38DHLB88V8DL8","3D1UCPY6GGVNRONHL4UEVMXCHLT38H","","null","<img src=""img/food2.png"" style=""width:200px; border:14px solid green;"">","null","","","","","","","","","",""
"","image-keyboard-response","319","167757","0.0-408.0","3ZWFC4W1UVTQBPG0VA6ICVD2IESRF7","A38DHLB88V8DL8","3D1UCPY6GGVNRONHL4UEVMXCHLT38H","","512.1000000238419","img/food6.png","74","512.5","1","1","","2","1","1,0.5,0,1,0.5,0,0.5,0,1","1,0.5,0,1,0.5,0,0.5,0,1","1",""
"","html-keyboard-response","320","168059","0.0-409.0","3ZWFC4W1UVTQBPG0VA6ICVD2IESRF7","A38DHLB88V8DL8","3D1UCPY6GGVNRONHL4UEVMXCHLT38H","","null","<img src=""img/food6.png"" style=""width:200px; border:14px solid green;"">","null","","","","","","","","","",""
"","image-keyboard-response","321","168663","0.0-410.0","3ZWFC4W1UVTQBPG0VA6ICVD2IESRF7","A38DHLB88V8DL8","3D1UCPY6GGVNRONHL4UEVMXCHLT38H","","604.2999999523163","img/food1.png","75","604.7000000476837","2","1","","1","1","1,0.5,0,1,0.5,0,0.5,0,1","1,0.5,0,1,0.5,0,0.5,0,1","1",""
"","html-keyboard-response","322","168965","0.0-411.0","3ZWFC4W1UVTQBPG0VA6ICVD2IESRF7","A38DHLB88V8DL8","3D1UCPY6GGVNRONHL4UEVMXCHLT38H","","null","<img src=""img/food1.png"" style=""width:200px; border:14px solid green;"">","null","","","","","","","","","",""
"","image-keyboard-response","323","169281","0.0-412.0","3ZWFC4W1UVTQBPG0VA6ICVD2IESRF7","A38DHLB88V8DL8","3D1UCPY6GGVNRONHL4UEVMXCHLT38H","","315","img/food1.png","75","315.7000000476837","2","1","","1","1","1,0.5,0,1,0.5,0,0.5,0,1","1,0.5,0,1,0.5,0,0.5,0,1","1",""
"","html-keyboard-response","324","169582","0.0-413.0","3ZWFC4W1UVTQBPG0VA6ICVD2IESRF7","A38DHLB88V8DL8","3D1UCPY6GGVNRONHL4UEVMXCHLT38H","","null","<img src=""img/food1.png"" style=""width:200px; border:14px solid green;"">","null","","","","","","","","","",""
"","image-keyboard-response","325","170213","0.0-414.0","3ZWFC4W1UVTQBPG0VA6ICVD2IESRF7","A38DHLB88V8DL8","3D1UCPY6GGVNRONHL4UEVMXCHLT38H","","629.3999999761581","img/food6.png","74","630.0999999642372","1","1","","2","1","1,0.5,0,1,0.5,0,0.5,0,1","1,0.5,0,1,0.5,0,0.5,0,1","1",""
"","html-keyboard-response","326","170514","0.0-415.0","3ZWFC4W1UVTQBPG0VA6ICVD2IESRF7","A38DHLB88V8DL8","3D1UCPY6GGVNRONHL4UEVMXCHLT38H","","null","<img src=""img/food6.png"" style=""width:200px; border:14px solid green;"">","null","","","","","","","","","",""
"","image-keyboard-response","327","170945","0.0-416.0","3ZWFC4W1UVTQBPG0VA6ICVD2IESRF7","A38DHLB88V8DL8","3D1UCPY6GGVNRONHL4UEVMXCHLT38H","","430.10000002384186","img/food1.png","75","430.7999999523163","2","1","","1","1","1,0.5,0,1,0.5,0,0.5,0,1","1,0.5,0,1,0.5,0,0.5,0,1","1",""
"","html-keyboard-response","328","171246","0.0-417.0","3ZWFC4W1UVTQBPG0VA6ICVD2IESRF7","A38DHLB88V8DL8","3D1UCPY6GGVNRONHL4UEVMXCHLT38H","","null","<img src=""img/food1.png"" style=""width:200px; border:14px solid green;"">","null","","","","","","","","","",""
"","image-keyboard-response","329","171690","0.0-418.0","3ZWFC4W1UVTQBPG0VA6ICVD2IESRF7","A38DHLB88V8DL8","3D1UCPY6GGVNRONHL4UEVMXCHLT38H","","443.7999999523163","img/food6.png","75","444.30000001192093","2","1","","2","1","1,0.5,0,1,0.5,0,0.5,0,1","1,0.5,0,1,0.5,0,0.5,0,1","1",""
"","html-keyboard-response","330","172005","0.0-419.0","3ZWFC4W1UVTQBPG0VA6ICVD2IESRF7","A38DHLB88V8DL8","3D1UCPY6GGVNRONHL4UEVMXCHLT38H","","null","<img src=""img/food6.png"" style=""width:200px; border:14px solid green;"">","null","","","","","","","","","",""
"","image-keyboard-response","331","172576","0.0-420.0","3ZWFC4W1UVTQBPG0VA6ICVD2IESRF7","A38DHLB88V8DL8","3D1UCPY6GGVNRONHL4UEVMXCHLT38H","","570","img/food2.png","76","570.5","3","1","","3","1","1,0.5,0,1,0.5,0,0.5,0,1","1,0.5,0,1,0.5,0,0.5,0,1","1",""
"","html-keyboard-response","332","172877","0.0-421.0","3ZWFC4W1UVTQBPG0VA6ICVD2IESRF7","A38DHLB88V8DL8","3D1UCPY6GGVNRONHL4UEVMXCHLT38H","","null","<img src=""img/food2.png"" style=""width:200px; border:14px solid green;"">","null","","","","","","","","","",""
"","image-keyboard-response","333","173186","0.0-422.0","3ZWFC4W1UVTQBPG0VA6ICVD2IESRF7","A38DHLB88V8DL8","3D1UCPY6GGVNRONHL4UEVMXCHLT38H","","308.2000000476837","img/food2.png","76","308.7999999523163","3","1","","3","1","1,0.5,0,1,0.5,0,0.5,0,1","1,0.5,0,1,0.5,0,0.5,0,1","1",""
"","html-keyboard-response","334","173488","0.0-423.0","3ZWFC4W1UVTQBPG0VA6ICVD2IESRF7","A38DHLB88V8DL8","3D1UCPY6GGVNRONHL4UEVMXCHLT38H","","null","<img src=""img/food2.png"" style=""width:200px; border:14px solid green;"">","null","","","","","","","","","",""
"","image-keyboard-response","335","174058","0.0-424.0","3ZWFC4W1UVTQBPG0VA6ICVD2IESRF7","A38DHLB88V8DL8","3D1UCPY6GGVNRONHL4UEVMXCHLT38H","","570.3999999761581","img/food1.png","74","570.7000000476837","1","1","","1","1","1,0.5,0,1,0.5,0,0.5,0,1","1,0.5,0,1,0.5,0,0.5,0,1","1",""
"","html-keyboard-response","336","174360","0.0-425.0","3ZWFC4W1UVTQBPG0VA6ICVD2IESRF7","A38DHLB88V8DL8","3D1UCPY6GGVNRONHL4UEVMXCHLT38H","","null","<img src=""img/food1.png"" style=""width:200px; border:14px solid green;"">","null","","","","","","","","","",""
"","image-keyboard-response","337","175040","0.0-426.0","3ZWFC4W1UVTQBPG0VA6ICVD2IESRF7","A38DHLB88V8DL8","3D1UCPY6GGVNRONHL4UEVMXCHLT38H","","679.4000000357628","img/food2.png","76","680.1999999880791","3","1","","3","1","1,0.5,0,1,0.5,0,0.5,0,1","1,0.5,0,1,0.5,0,0.5,0,1","1",""
"","html-keyboard-response","338","175342","0.0-427.0","3ZWFC4W1UVTQBPG0VA6ICVD2IESRF7","A38DHLB88V8DL8","3D1UCPY6GGVNRONHL4UEVMXCHLT38H","","null","<img src=""img/food2.png"" style=""width:200px; border:14px solid green;"">","null","","","","","","","","","",""
"","image-keyboard-response","339","175922","0.0-428.0","3ZWFC4W1UVTQBPG0VA6ICVD2IESRF7","A38DHLB88V8DL8","3D1UCPY6GGVNRONHL4UEVMXCHLT38H","","579.5","img/food1.png","74","580","1","1","","1","1","1,0.5,0,1,0.5,0,0.5,0,1","1,0.5,0,1,0.5,0,0.5,0,1","1",""
"","html-keyboard-response","340","176224","0.0-429.0","3ZWFC4W1UVTQBPG0VA6ICVD2IESRF7","A38DHLB88V8DL8","3D1UCPY6GGVNRONHL4UEVMXCHLT38H","","null","<img src=""img/food1.png"" style=""width:200px; border:14px solid green;"">","null","","","","","","","","","",""
"","image-keyboard-response","341","176536","0.0-430.0","3ZWFC4W1UVTQBPG0VA6ICVD2IESRF7","A38DHLB88V8DL8","3D1UCPY6GGVNRONHL4UEVMXCHLT38H","","311.60000002384186","img/food1.png","74","312.19999998807907","1","1","","1","1","1,0.5,0,1,0.5,0,0.5,0,1","1,0.5,0,1,0.5,0,0.5,0,1","1",""
"","html-keyboard-response","342","176838","0.0-431.0","3ZWFC4W1UVTQBPG0VA6ICVD2IESRF7","A38DHLB88V8DL8","3D1UCPY6GGVNRONHL4UEVMXCHLT38H","","null","<img src=""img/food1.png"" style=""width:200px; border:14px solid green;"">","null","","","","","","","","","",""
"","image-keyboard-response","343","177135","0.0-432.0","3ZWFC4W1UVTQBPG0VA6ICVD2IESRF7","A38DHLB88V8DL8","3D1UCPY6GGVNRONHL4UEVMXCHLT38H","","296.10000002384186","img/food1.png","74","296.80000001192093","1","1","","1","1","1,0.5,0,1,0.5,0,0.5,0,1","1,0.5,0,1,0.5,0,0.5,0,1","1",""
"","html-keyboard-response","344","177436","0.0-433.0","3ZWFC4W1UVTQBPG0VA6ICVD2IESRF7","A38DHLB88V8DL8","3D1UCPY6GGVNRONHL4UEVMXCHLT38H","","null","<img src=""img/food1.png"" style=""width:200px; border:14px solid green;"">","null","","","","","","","","","",""
"","image-keyboard-response","345","177880","0.0-434.0","3ZWFC4W1UVTQBPG0VA6ICVD2IESRF7","A38DHLB88V8DL8","3D1UCPY6GGVNRONHL4UEVMXCHLT38H","","442.7999999523163","img/food6.png","75","443.19999998807907","2","1","","2","1","1,0.5,0,1,0.5,0,0.5,0,1","1,0.5,0,1,0.5,0,0.5,0,1","1",""
"","html-keyboard-response","346","178182","0.0-435.0","3ZWFC4W1UVTQBPG0VA6ICVD2IESRF7","A38DHLB88V8DL8","3D1UCPY6GGVNRONHL4UEVMXCHLT38H","","null","<img src=""img/food6.png"" style=""width:200px; border:14px solid green;"">","null","","","","","","","","","",""
"","image-keyboard-response","347","178746","0.0-436.0","3ZWFC4W1UVTQBPG0VA6ICVD2IESRF7","A38DHLB88V8DL8","3D1UCPY6GGVNRONHL4UEVMXCHLT38H","","563.4000000357628","img/food1.png","74","564","1","1","","1","1","1,0.5,0,1,0.5,0,0.5,0,1","1,0.5,0,1,0.5,0,0.5,0,1","1",""
"","html-keyboard-response","348","179048","0.0-437.0","3ZWFC4W1UVTQBPG0VA6ICVD2IESRF7","A38DHLB88V8DL8","3D1UCPY6GGVNRONHL4UEVMXCHLT38H","","null","<img src=""img/food1.png"" style=""width:200px; border:14px solid green;"">","null","","","","","","","","","",""
"","image-keyboard-response","349","179508","0.0-438.0","3ZWFC4W1UVTQBPG0VA6ICVD2IESRF7","A38DHLB88V8DL8","3D1UCPY6GGVNRONHL4UEVMXCHLT38H","","460","img/food6.png","74","460.4000000357628","1","1","","2","1","1,0.5,0,1,0.5,0,0.5,0,1","1,0.5,0,1,0.5,0,0.5,0,1","1",""
"","html-keyboard-response","350","179819","0.0-439.0","3ZWFC4W1UVTQBPG0VA6ICVD2IESRF7","A38DHLB88V8DL8","3D1UCPY6GGVNRONHL4UEVMXCHLT38H","","null","<img src=""img/food6.png"" style=""width:200px; border:14px solid green;"">","null","","","","","","","","","",""
"","image-keyboard-response","351","180275","0.0-440.0","3ZWFC4W1UVTQBPG0VA6ICVD2IESRF7","A38DHLB88V8DL8","3D1UCPY6GGVNRONHL4UEVMXCHLT38H","","455.30000001192093","img/food2.png","75","455.80000001192093","2","0","","3","1","1,0.5,0,1,0.5,0,0.5,0,1","1,0.5,0,1,0.5,0,0.5,0,1","1",""
"","html-keyboard-response","352","180576","0.0-441.0","3ZWFC4W1UVTQBPG0VA6ICVD2IESRF7","A38DHLB88V8DL8","3D1UCPY6GGVNRONHL4UEVMXCHLT38H","","null","<img src=""img/food2.png"" style=""width:200px;border:14px solid red;"">","null","","","","","","","","","",""
"","image-keyboard-response","353","181458","0.0-442.0","3ZWFC4W1UVTQBPG0VA6ICVD2IESRF7","A38DHLB88V8DL8","3D1UCPY6GGVNRONHL4UEVMXCHLT38H","","881.1999999880791","img/food6.png","74","881.8000000119209","1","1","","2","1","1,0.5,0,1,0.5,0,0.5,0,1","1,0.5,0,1,0.5,0,0.5,0,1","1",""
"","html-keyboard-response","354","181758","0.0-443.0","3ZWFC4W1UVTQBPG0VA6ICVD2IESRF7","A38DHLB88V8DL8","3D1UCPY6GGVNRONHL4UEVMXCHLT38H","","null","<img src=""img/food6.png"" style=""width:200px; border:14px solid green;"">","null","","","","","","","","","",""
"","image-keyboard-response","355","182281","0.0-444.0","3ZWFC4W1UVTQBPG0VA6ICVD2IESRF7","A38DHLB88V8DL8","3D1UCPY6GGVNRONHL4UEVMXCHLT38H","","522.5","img/food1.png","76","523.0999999642372","3","0","","1","1","1,0.5,0,1,0.5,0,0.5,0,1","1,0.5,0,1,0.5,0,0.5,0,1","1",""
"","html-keyboard-response","356","182582","0.0-445.0","3ZWFC4W1UVTQBPG0VA6ICVD2IESRF7","A38DHLB88V8DL8","3D1UCPY6GGVNRONHL4UEVMXCHLT38H","","null","<img src=""img/food1.png"" style=""width:200px;border:14px solid red;"">","null","","","","","","","","","",""
"","image-keyboard-response","357","182839","0.0-446.0","3ZWFC4W1UVTQBPG0VA6ICVD2IESRF7","A38DHLB88V8DL8","3D1UCPY6GGVNRONHL4UEVMXCHLT38H","","256.0999999642372","img/food1.png","75","256.5","2","1","","1","1","1,0.5,0,1,0.5,0,0.5,0,1","1,0.5,0,1,0.5,0,0.5,0,1","1",""
"","html-keyboard-response","358","183141","0.0-447.0","3ZWFC4W1UVTQBPG0VA6ICVD2IESRF7","A38DHLB88V8DL8","3D1UCPY6GGVNRONHL4UEVMXCHLT38H","","null","<img src=""img/food1.png"" style=""width:200px; border:14px solid green;"">","null","","","","","","","","","",""
"","image-keyboard-response","359","183640","0.0-448.0","3ZWFC4W1UVTQBPG0VA6ICVD2IESRF7","A38DHLB88V8DL8","3D1UCPY6GGVNRONHL4UEVMXCHLT38H","","498.7000000476837","img/food6.png","75","499.0999999642372","2","0","","2","1","1,0.5,0,1,0.5,0,0.5,0,1","1,0.5,0,1,0.5,0,0.5,0,1","1",""
"","html-keyboard-response","360","183942","0.0-449.0","3ZWFC4W1UVTQBPG0VA6ICVD2IESRF7","A38DHLB88V8DL8","3D1UCPY6GGVNRONHL4UEVMXCHLT38H","","null","<img src=""img/food6.png"" style=""width:200px;border:14px solid red;"">","null","","","","","","","","","",""
"","image-keyboard-response","361","184604","0.0-450.0","3ZWFC4W1UVTQBPG0VA6ICVD2IESRF7","A38DHLB88V8DL8","3D1UCPY6GGVNRONHL4UEVMXCHLT38H","","662.1999999880791","img/food2.png","76","662.5999999642372","3","1","","3","1","1,0.5,0,1,0.5,0,0.5,0,1","1,0.5,0,1,0.5,0,0.5,0,1","1",""
"","html-keyboard-response","362","184906","0.0-451.0","3ZWFC4W1UVTQBPG0VA6ICVD2IESRF7","A38DHLB88V8DL8","3D1UCPY6GGVNRONHL4UEVMXCHLT38H","","null","<img src=""img/food2.png"" style=""width:200px; border:14px solid green;"">","null","","","","","","","","","",""
"","image-keyboard-response","363","185463","0.0-452.0","3ZWFC4W1UVTQBPG0VA6ICVD2IESRF7","A38DHLB88V8DL8","3D1UCPY6GGVNRONHL4UEVMXCHLT38H","","556.6000000238419","img/food6.png","74","557.1000000238419","1","1","","2","1","1,0.5,0,1,0.5,0,0.5,0,1","1,0.5,0,1,0.5,0,0.5,0,1","1",""
"","html-keyboard-response","364","185765","0.0-453.0","3ZWFC4W1UVTQBPG0VA6ICVD2IESRF7","A38DHLB88V8DL8","3D1UCPY6GGVNRONHL4UEVMXCHLT38H","","null","<img src=""img/food6.png"" style=""width:200px; border:14px solid green;"">","null","","","","","","","","","",""
"","html-keyboard-response","365","192570","0.0-454.0","3ZWFC4W1UVTQBPG0VA6ICVD2IESRF7","A38DHLB88V8DL8","3D1UCPY6GGVNRONHL4UEVMXCHLT38H","","","","","","","","","","","","","",""
"","instructions","366","196320","0.0-455.0","3ZWFC4W1UVTQBPG0VA6ICVD2IESRF7","A38DHLB88V8DL8","3D1UCPY6GGVNRONHL4UEVMXCHLT38H","[{""page_index"":0,""viewing_time"":3749}]","3749.2000000476837","","","","","","","","","","","",""
"","survey-text","367","202853","0.0-456.0","3ZWFC4W1UVTQBPG0VA6ICVD2IESRF7","A38DHLB88V8DL8","3D1UCPY6GGVNRONHL4UEVMXCHLT38H","","6530.699999988079","","","","","","","","","","","","{""Q0"":""A38DHLB88V8DL8""}"
