"success","trial_type","trial_index","time_elapsed","internal_node_id","assignmentID","mturkID","hitID","view_history","rt","stimulus","key_press","reactionTime","a","r","warning","s","cond","reward_cond","reward_cond_actual","reward_matrix_idx","responses"
"true","fullscreen","0","87076","0.0-0.0","3HQUKB7LNG0X0RT3UVIO1CN9BWRHH6","A38TZK07ON180S","3THR0FZ95PF7SK0MYRNAOUHTWDJOLG","","","","","","","","","","","","","",""
"","instructions","1","110464","0.0-1.0","3HQUKB7LNG0X0RT3UVIO1CN9BWRHH6","A38TZK07ON180S","3THR0FZ95PF7SK0MYRNAOUHTWDJOLG","[{""page_index"":0,""viewing_time"":3222.9000000059605},{""page_index"":1,""viewing_time"":2824},{""page_index"":2,""viewing_time"":7415.9000000059605},{""page_index"":3,""viewing_time"":4456.0999999940395},{""page_index"":4,""viewing_time"":1928.199999988079},{""page_index"":5,""viewing_time"":1903.800000011921},{""page_index"":6,""viewing_time"":1616}]","23367.5","","","","","","","","","","","",""
"","instructions","2","119095","0.0-2.0","3HQUKB7LNG0X0RT3UVIO1CN9BWRHH6","A38TZK07ON180S","3THR0FZ95PF7SK0MYRNAOUHTWDJOLG","[{""page_index"":0,""viewing_time"":6774.699999988079},{""page_index"":1,""viewing_time"":1855.800000011921}]","8630.899999976158","","","","","","","","","","","",""
"","image-keyboard-response","3","119672","0.0-3.0","3HQUKB7LNG0X0RT3UVIO1CN9BWRHH6","A38TZK07ON180S","3THR0FZ95PF7SK0MYRNAOUHTWDJOLG","","574","img/food4.png","74","576.8999999761581","1","1","false","3","2","1,0.5,0,1,0.5,0,0.5,0,1","0,1,0.5,0,1,0.5,1,0.5,0","3",""
"","html-keyboard-response","4","119979","0.0-4.0","3HQUKB7LNG0X0RT3UVIO1CN9BWRHH6","A38TZK07ON180S","3THR0FZ95PF7SK0MYRNAOUHTWDJOLG","","null","<img src=""img/food4.png"" style=""width:200px; border:14px solid green;"">","null","","","","","","","","","",""
"","image-keyboard-response","5","120324","0.0-6.0","3HQUKB7LNG0X0RT3UVIO1CN9BWRHH6","A38TZK07ON180S","3THR0FZ95PF7SK0MYRNAOUHTWDJOLG","","342.59999999403954","img/food1.png","75","344.30000001192093","2","1","false","2","2","1,0.5,0,1,0.5,0,0.5,0,1","0,1,0.5,0,1,0.5,1,0.5,0","3",""
"","html-keyboard-response","6","120628","0.0-7.0","3HQUKB7LNG0X0RT3UVIO1CN9BWRHH6","A38TZK07ON180S","3THR0FZ95PF7SK0MYRNAOUHTWDJOLG","","null","<img src=""img/food1.png"" style=""width:200px; border:14px solid green;"">","null","","","","","","","","","",""
"","image-keyboard-response","7","121219","0.0-9.0","3HQUKB7LNG0X0RT3UVIO1CN9BWRHH6","A38TZK07ON180S","3THR0FZ95PF7SK0MYRNAOUHTWDJOLG","","590.2999999821186","img/food1.png","75","591.1999999880791","2","1","false","2","2","1,0.5,0,1,0.5,0,0.5,0,1","0,1,0.5,0,1,0.5,1,0.5,0","3",""
"","html-keyboard-response","8","121521","0.0-10.0","3HQUKB7LNG0X0RT3UVIO1CN9BWRHH6","A38TZK07ON180S","3THR0FZ95PF7SK0MYRNAOUHTWDJOLG","","null","<img src=""img/food1.png"" style=""width:200px; border:14px solid green;"">","null","","","","","","","","","",""
"","image-keyboard-response","9","122051","0.0-12.0","3HQUKB7LNG0X0RT3UVIO1CN9BWRHH6","A38TZK07ON180S","3THR0FZ95PF7SK0MYRNAOUHTWDJOLG","","528.6999999880791","img/food4.png","76","529.9000000059605","3","0","false","3","2","1,0.5,0,1,0.5,0,0.5,0,1","0,1,0.5,0,1,0.5,1,0.5,0","3",""
"","html-keyboard-response","10","122357","0.0-13.0","3HQUKB7LNG0X0RT3UVIO1CN9BWRHH6","A38TZK07ON180S","3THR0FZ95PF7SK0MYRNAOUHTWDJOLG","","null","<img src=""img/food4.png"" style=""width:200px;border:14px solid red;"">","null","","","","","","","","","",""
"","image-keyboard-response","11","122467","0.0-15.0","3HQUKB7LNG0X0RT3UVIO1CN9BWRHH6","A38TZK07ON180S","3THR0FZ95PF7SK0MYRNAOUHTWDJOLG","","107.40000000596046","img/food4.png","74","109.5","1","1","false","3","2","1,0.5,0,1,0.5,0,0.5,0,1","0,1,0.5,0,1,0.5,1,0.5,0","3",""
"","html-keyboard-response","12","122769","0.0-16.0","3HQUKB7LNG0X0RT3UVIO1CN9BWRHH6","A38TZK07ON180S","3THR0FZ95PF7SK0MYRNAOUHTWDJOLG","","null","<img src=""img/food4.png"" style=""width:200px; border:14px solid green;"">","null","","","","","","","","","",""
"","image-keyboard-response","13","123211","0.0-18.0","3HQUKB7LNG0X0RT3UVIO1CN9BWRHH6","A38TZK07ON180S","3THR0FZ95PF7SK0MYRNAOUHTWDJOLG","","440.59999999403954","img/food1.png","75","441.40000000596046","2","1","false","2","2","1,0.5,0,1,0.5,0,0.5,0,1","0,1,0.5,0,1,0.5,1,0.5,0","3",""
"","html-keyboard-response","14","123513","0.0-19.0","3HQUKB7LNG0X0RT3UVIO1CN9BWRHH6","A38TZK07ON180S","3THR0FZ95PF7SK0MYRNAOUHTWDJOLG","","null","<img src=""img/food1.png"" style=""width:200px; border:14px solid green;"">","null","","","","","","","","","",""
"","image-keyboard-response","15","124059","0.0-21.0","3HQUKB7LNG0X0RT3UVIO1CN9BWRHH6","A38TZK07ON180S","3THR0FZ95PF7SK0MYRNAOUHTWDJOLG","","544.2999999821186","img/food6.png","76","545.5","3","1","false","1","2","1,0.5,0,1,0.5,0,0.5,0,1","0,1,0.5,0,1,0.5,1,0.5,0","3",""
"","html-keyboard-response","16","124360","0.0-22.0","3HQUKB7LNG0X0RT3UVIO1CN9BWRHH6","A38TZK07ON180S","3THR0FZ95PF7SK0MYRNAOUHTWDJOLG","","null","<img src=""img/food6.png"" style=""width:200px; border:14px solid green;"">","null","","","","","","","","","",""
"","image-keyboard-response","17","124739","0.0-24.0","3HQUKB7LNG0X0RT3UVIO1CN9BWRHH6","A38TZK07ON180S","3THR0FZ95PF7SK0MYRNAOUHTWDJOLG","","377.7999999821186","img/food1.png","74","378.59999999403954","1","0","false","2","2","1,0.5,0,1,0.5,0,0.5,0,1","0,1,0.5,0,1,0.5,1,0.5,0","3",""
"","html-keyboard-response","18","125041","0.0-25.0","3HQUKB7LNG0X0RT3UVIO1CN9BWRHH6","A38TZK07ON180S","3THR0FZ95PF7SK0MYRNAOUHTWDJOLG","","null","<img src=""img/food1.png"" style=""width:200px;border:14px solid red;"">","null","","","","","","","","","",""
"","image-keyboard-response","19","125875","0.0-27.0","3HQUKB7LNG0X0RT3UVIO1CN9BWRHH6","A38TZK07ON180S","3THR0FZ95PF7SK0MYRNAOUHTWDJOLG","","832.3000000119209","img/food6.png","76","833.5","3","0","false","1","2","1,0.5,0,1,0.5,0,0.5,0,1","0,1,0.5,0,1,0.5,1,0.5,0","3",""
"","html-keyboard-response","20","126179","0.0-28.0","3HQUKB7LNG0X0RT3UVIO1CN9BWRHH6","A38TZK07ON180S","3THR0FZ95PF7SK0MYRNAOUHTWDJOLG","","null","<img src=""img/food6.png"" style=""width:200px;border:14px solid red;"">","null","","","","","","","","","",""
"","image-keyboard-response","21","126659","0.0-30.0","3HQUKB7LNG0X0RT3UVIO1CN9BWRHH6","A38TZK07ON180S","3THR0FZ95PF7SK0MYRNAOUHTWDJOLG","","478.2000000178814","img/food4.png","75","479.19999998807907","2","1","false","3","2","1,0.5,0,1,0.5,0,0.5,0,1","0,1,0.5,0,1,0.5,1,0.5,0","3",""
"","html-keyboard-response","22","126961","0.0-31.0","3HQUKB7LNG0X0RT3UVIO1CN9BWRHH6","A38TZK07ON180S","3THR0FZ95PF7SK0MYRNAOUHTWDJOLG","","null","<img src=""img/food4.png"" style=""width:200px; border:14px solid green;"">","null","","","","","","","","","",""
"","image-keyboard-response","23","127630","0.0-33.0","3HQUKB7LNG0X0RT3UVIO1CN9BWRHH6","A38TZK07ON180S","3THR0FZ95PF7SK0MYRNAOUHTWDJOLG","","667.5999999940395","img/food6.png","76","668.6999999880791","3","0","false","1","2","1,0.5,0,1,0.5,0,0.5,0,1","0,1,0.5,0,1,0.5,1,0.5,0","3",""
"","html-keyboard-response","24","127933","0.0-34.0","3HQUKB7LNG0X0RT3UVIO1CN9BWRHH6","A38TZK07ON180S","3THR0FZ95PF7SK0MYRNAOUHTWDJOLG","","null","<img src=""img/food6.png"" style=""width:200px;border:14px solid red;"">","null","","","","","","","","","",""
"","image-keyboard-response","25","128652","0.0-36.0","3HQUKB7LNG0X0RT3UVIO1CN9BWRHH6","A38TZK07ON180S","3THR0FZ95PF7SK0MYRNAOUHTWDJOLG","","716.3000000119209","img/food4.png","75","717.9000000059605","2","0","false","3","2","1,0.5,0,1,0.5,0,0.5,0,1","0,1,0.5,0,1,0.5,1,0.5,0","3",""
"","html-keyboard-response","26","128953","0.0-37.0","3HQUKB7LNG0X0RT3UVIO1CN9BWRHH6","A38TZK07ON180S","3THR0FZ95PF7SK0MYRNAOUHTWDJOLG","","null","<img src=""img/food4.png"" style=""width:200px;border:14px solid red;"">","null","","","","","","","","","",""
"","image-keyboard-response","27","129364","0.0-39.0","3HQUKB7LNG0X0RT3UVIO1CN9BWRHH6","A38TZK07ON180S","3THR0FZ95PF7SK0MYRNAOUHTWDJOLG","","409.2000000178814","img/food4.png","76","410.5","3","0","false","3","2","1,0.5,0,1,0.5,0,0.5,0,1","0,1,0.5,0,1,0.5,1,0.5,0","3",""
"","html-keyboard-response","28","129667","0.0-40.0","3HQUKB7LNG0X0RT3UVIO1CN9BWRHH6","A38TZK07ON180S","3THR0FZ95PF7SK0MYRNAOUHTWDJOLG","","null","<img src=""img/food4.png"" style=""width:200px;border:14px solid red;"">","null","","","","","","","","","",""
"","image-keyboard-response","29","130035","0.0-42.0","3HQUKB7LNG0X0RT3UVIO1CN9BWRHH6","A38TZK07ON180S","3THR0FZ95PF7SK0MYRNAOUHTWDJOLG","","365.09999999403954","img/food4.png","74","366.40000000596046","1","1","false","3","2","1,0.5,0,1,0.5,0,0.5,0,1","0,1,0.5,0,1,0.5,1,0.5,0","3",""
"","html-keyboard-response","30","130337","0.0-43.0","3HQUKB7LNG0X0RT3UVIO1CN9BWRHH6","A38TZK07ON180S","3THR0FZ95PF7SK0MYRNAOUHTWDJOLG","","null","<img src=""img/food4.png"" style=""width:200px; border:14px solid green;"">","null","","","","","","","","","",""
"","image-keyboard-response","31","131028","0.0-45.0","3HQUKB7LNG0X0RT3UVIO1CN9BWRHH6","A38TZK07ON180S","3THR0FZ95PF7SK0MYRNAOUHTWDJOLG","","689.5","img/food6.png","74","690.5","1","0","false","1","2","1,0.5,0,1,0.5,0,0.5,0,1","0,1,0.5,0,1,0.5,1,0.5,0","3",""
"","html-keyboard-response","32","131331","0.0-46.0","3HQUKB7LNG0X0RT3UVIO1CN9BWRHH6","A38TZK07ON180S","3THR0FZ95PF7SK0MYRNAOUHTWDJOLG","","null","<img src=""img/food6.png"" style=""width:200px;border:14px solid red;"">","null","","","","","","","","","",""
"","image-keyboard-response","33","131923","0.0-48.0","3HQUKB7LNG0X0RT3UVIO1CN9BWRHH6","A38TZK07ON180S","3THR0FZ95PF7SK0MYRNAOUHTWDJOLG","","589.3999999761581","img/food1.png","75","591.1999999880791","2","1","false","2","2","1,0.5,0,1,0.5,0,0.5,0,1","0,1,0.5,0,1,0.5,1,0.5,0","3",""
"","html-keyboard-response","34","132224","0.0-49.0","3HQUKB7LNG0X0RT3UVIO1CN9BWRHH6","A38TZK07ON180S","3THR0FZ95PF7SK0MYRNAOUHTWDJOLG","","null","<img src=""img/food1.png"" style=""width:200px; border:14px solid green;"">","null","","","","","","","","","",""
"","image-keyboard-response","35","132323","0.0-51.0","3HQUKB7LNG0X0RT3UVIO1CN9BWRHH6","A38TZK07ON180S","3THR0FZ95PF7SK0MYRNAOUHTWDJOLG","","97.59999999403954","img/food4.png","74","98.90000000596046","1","1","false","3","2","1,0.5,0,1,0.5,0,0.5,0,1","0,1,0.5,0,1,0.5,1,0.5,0","3",""
"","html-keyboard-response","36","132626","0.0-52.0","3HQUKB7LNG0X0RT3UVIO1CN9BWRHH6","A38TZK07ON180S","3THR0FZ95PF7SK0MYRNAOUHTWDJOLG","","null","<img src=""img/food4.png"" style=""width:200px; border:14px solid green;"">","null","","","","","","","","","",""
"","image-keyboard-response","37","132827","0.0-54.0","3HQUKB7LNG0X0RT3UVIO1CN9BWRHH6","A38TZK07ON180S","3THR0FZ95PF7SK0MYRNAOUHTWDJOLG","","200.40000000596046","img/food1.png","76","201.2000000178814","3","0","false","2","2","1,0.5,0,1,0.5,0,0.5,0,1","0,1,0.5,0,1,0.5,1,0.5,0","3",""
"","html-keyboard-response","38","133130","0.0-55.0","3HQUKB7LNG0X0RT3UVIO1CN9BWRHH6","A38TZK07ON180S","3THR0FZ95PF7SK0MYRNAOUHTWDJOLG","","null","<img src=""img/food1.png"" style=""width:200px;border:14px solid red;"">","null","","","","","","","","","",""
"","image-keyboard-response","39","133483","0.0-57.0","3HQUKB7LNG0X0RT3UVIO1CN9BWRHH6","A38TZK07ON180S","3THR0FZ95PF7SK0MYRNAOUHTWDJOLG","","351.40000000596046","img/food1.png","75","352.19999998807907","2","1","false","2","2","1,0.5,0,1,0.5,0,0.5,0,1","0,1,0.5,0,1,0.5,1,0.5,0","3",""
"","html-keyboard-response","40","133783","0.0-58.0","3HQUKB7LNG0X0RT3UVIO1CN9BWRHH6","A38TZK07ON180S","3THR0FZ95PF7SK0MYRNAOUHTWDJOLG","","null","<img src=""img/food1.png"" style=""width:200px; border:14px solid green;"">","null","","","","","","","","","",""
"","image-keyboard-response","41","134132","0.0-60.0","3HQUKB7LNG0X0RT3UVIO1CN9BWRHH6","A38TZK07ON180S","3THR0FZ95PF7SK0MYRNAOUHTWDJOLG","","347.2999999821186","img/food4.png","74","348.19999998807907","1","1","false","3","2","1,0.5,0,1,0.5,0,0.5,0,1","0,1,0.5,0,1,0.5,1,0.5,0","3",""
"","html-keyboard-response","42","134435","0.0-61.0","3HQUKB7LNG0X0RT3UVIO1CN9BWRHH6","A38TZK07ON180S","3THR0FZ95PF7SK0MYRNAOUHTWDJOLG","","null","<img src=""img/food4.png"" style=""width:200px; border:14px solid green;"">","null","","","","","","","","","",""
"","image-keyboard-response","43","134771","0.0-63.0","3HQUKB7LNG0X0RT3UVIO1CN9BWRHH6","A38TZK07ON180S","3THR0FZ95PF7SK0MYRNAOUHTWDJOLG","","333.2999999821186","img/food6.png","75","334.60000002384186","2","1","false","1","2","1,0.5,0,1,0.5,0,0.5,0,1","0,1,0.5,0,1,0.5,1,0.5,0","3",""
"","html-keyboard-response","44","135072","0.0-64.0","3HQUKB7LNG0X0RT3UVIO1CN9BWRHH6","A38TZK07ON180S","3THR0FZ95PF7SK0MYRNAOUHTWDJOLG","","null","<img src=""img/food6.png"" style=""width:200px; border:14px solid green;"">","null","","","","","","","","","",""
"","image-keyboard-response","45","135371","0.0-66.0","3HQUKB7LNG0X0RT3UVIO1CN9BWRHH6","A38TZK07ON180S","3THR0FZ95PF7SK0MYRNAOUHTWDJOLG","","297.40000000596046","img/food6.png","74","298.2999999821186","1","0","false","1","2","1,0.5,0,1,0.5,0,0.5,0,1","0,1,0.5,0,1,0.5,1,0.5,0","3",""
"","html-keyboard-response","46","135673","0.0-67.0","3HQUKB7LNG0X0RT3UVIO1CN9BWRHH6","A38TZK07ON180S","3THR0FZ95PF7SK0MYRNAOUHTWDJOLG","","null","<img src=""img/food6.png"" style=""width:200px;border:14px solid red;"">","null","","","","","","","","","",""
"","image-keyboard-response","47","135916","0.0-69.0","3HQUKB7LNG0X0RT3UVIO1CN9BWRHH6","A38TZK07ON180S","3THR0FZ95PF7SK0MYRNAOUHTWDJOLG","","241.7000000178814","img/food6.png","76","242.90000000596046","3","1","false","1","2","1,0.5,0,1,0.5,0,0.5,0,1","0,1,0.5,0,1,0.5,1,0.5,0","3",""
"","html-keyboard-response","48","136230","0.0-70.0","3HQUKB7LNG0X0RT3UVIO1CN9BWRHH6","A38TZK07ON180S","3THR0FZ95PF7SK0MYRNAOUHTWDJOLG","","null","<img src=""img/food6.png"" style=""width:200px; border:14px solid green;"">","null","","","","","","","","","",""
"","image-keyboard-response","49","136539","0.0-72.0","3HQUKB7LNG0X0RT3UVIO1CN9BWRHH6","A38TZK07ON180S","3THR0FZ95PF7SK0MYRNAOUHTWDJOLG","","307.69999998807907","img/food1.png","74","308.2999999821186","1","0","false","2","2","1,0.5,0,1,0.5,0,0.5,0,1","0,1,0.5,0,1,0.5,1,0.5,0","3",""
"","html-keyboard-response","50","136840","0.0-73.0","3HQUKB7LNG0X0RT3UVIO1CN9BWRHH6","A38TZK07ON180S","3THR0FZ95PF7SK0MYRNAOUHTWDJOLG","","null","<img src=""img/food1.png"" style=""width:200px;border:14px solid red;"">","null","","","","","","","","","",""
"","image-keyboard-response","51","137051","0.0-75.0","3HQUKB7LNG0X0RT3UVIO1CN9BWRHH6","A38TZK07ON180S","3THR0FZ95PF7SK0MYRNAOUHTWDJOLG","","209.80000001192093","img/food4.png","75","210.30000001192093","2","0","false","3","2","1,0.5,0,1,0.5,0,0.5,0,1","0,1,0.5,0,1,0.5,1,0.5,0","3",""
"","html-keyboard-response","52","137353","0.0-76.0","3HQUKB7LNG0X0RT3UVIO1CN9BWRHH6","A38TZK07ON180S","3THR0FZ95PF7SK0MYRNAOUHTWDJOLG","","null","<img src=""img/food4.png"" style=""width:200px;border:14px solid red;"">","null","","","","","","","","","",""
"","image-keyboard-response","53","137610","0.0-78.0","3HQUKB7LNG0X0RT3UVIO1CN9BWRHH6","A38TZK07ON180S","3THR0FZ95PF7SK0MYRNAOUHTWDJOLG","","256.2999999821186","img/food1.png","76","256.80000001192093","3","0","false","2","2","1,0.5,0,1,0.5,0,0.5,0,1","0,1,0.5,0,1,0.5,1,0.5,0","3",""
"","html-keyboard-response","54","137912","0.0-79.0","3HQUKB7LNG0X0RT3UVIO1CN9BWRHH6","A38TZK07ON180S","3THR0FZ95PF7SK0MYRNAOUHTWDJOLG","","null","<img src=""img/food1.png"" style=""width:200px;border:14px solid red;"">","null","","","","","","","","","",""
"","image-keyboard-response","55","138293","0.0-81.0","3HQUKB7LNG0X0RT3UVIO1CN9BWRHH6","A38TZK07ON180S","3THR0FZ95PF7SK0MYRNAOUHTWDJOLG","","379.90000000596046","img/food4.png","75","380.89999997615814","2","1","false","3","2","1,0.5,0,1,0.5,0,0.5,0,1","0,1,0.5,0,1,0.5,1,0.5,0","3",""
"","html-keyboard-response","56","138596","0.0-82.0","3HQUKB7LNG0X0RT3UVIO1CN9BWRHH6","A38TZK07ON180S","3THR0FZ95PF7SK0MYRNAOUHTWDJOLG","","null","<img src=""img/food4.png"" style=""width:200px; border:14px solid green;"">","null","","","","","","","","","",""
"","image-keyboard-response","57","139012","0.0-84.0","3HQUKB7LNG0X0RT3UVIO1CN9BWRHH6","A38TZK07ON180S","3THR0FZ95PF7SK0MYRNAOUHTWDJOLG","","415.09999999403954","img/food1.png","74","416.5","1","0","false","2","2","1,0.5,0,1,0.5,0,0.5,0,1","0,1,0.5,0,1,0.5,1,0.5,0","3",""
"","html-keyboard-response","58","139316","0.0-85.0","3HQUKB7LNG0X0RT3UVIO1CN9BWRHH6","A38TZK07ON180S","3THR0FZ95PF7SK0MYRNAOUHTWDJOLG","","null","<img src=""img/food1.png"" style=""width:200px;border:14px solid red;"">","null","","","","","","","","","",""
"","image-keyboard-response","59","139620","0.0-87.0","3HQUKB7LNG0X0RT3UVIO1CN9BWRHH6","A38TZK07ON180S","3THR0FZ95PF7SK0MYRNAOUHTWDJOLG","","302.39999997615814","img/food6.png","76","303.5","3","1","false","1","2","1,0.5,0,1,0.5,0,0.5,0,1","0,1,0.5,0,1,0.5,1,0.5,0","3",""
"","html-keyboard-response","60","139923","0.0-88.0","3HQUKB7LNG0X0RT3UVIO1CN9BWRHH6","A38TZK07ON180S","3THR0FZ95PF7SK0MYRNAOUHTWDJOLG","","null","<img src=""img/food6.png"" style=""width:200px; border:14px solid green;"">","null","","","","","","","","","",""
"","image-keyboard-response","61","140459","0.0-90.0","3HQUKB7LNG0X0RT3UVIO1CN9BWRHH6","A38TZK07ON180S","3THR0FZ95PF7SK0MYRNAOUHTWDJOLG","","532.5","img/food1.png","75","534.3000000119209","2","1","false","2","2","1,0.5,0,1,0.5,0,0.5,0,1","0,1,0.5,0,1,0.5,1,0.5,0","3",""
"","html-keyboard-response","62","140761","0.0-91.0","3HQUKB7LNG0X0RT3UVIO1CN9BWRHH6","A38TZK07ON180S","3THR0FZ95PF7SK0MYRNAOUHTWDJOLG","","null","<img src=""img/food1.png"" style=""width:200px; border:14px solid green;"">","null","","","","","","","","","",""
"","image-keyboard-response","63","141140","0.0-93.0","3HQUKB7LNG0X0RT3UVIO1CN9BWRHH6","A38TZK07ON180S","3THR0FZ95PF7SK0MYRNAOUHTWDJOLG","","377.59999999403954","img/food6.png","74","379","1","0","false","1","2","1,0.5,0,1,0.5,0,0.5,0,1","0,1,0.5,0,1,0.5,1,0.5,0","3",""
"","html-keyboard-response","64","141444","0.0-94.0","3HQUKB7LNG0X0RT3UVIO1CN9BWRHH6","A38TZK07ON180S","3THR0FZ95PF7SK0MYRNAOUHTWDJOLG","","null","<img src=""img/food6.png"" style=""width:200px;border:14px solid red;"">","null","","","","","","","","","",""
"","image-keyboard-response","65","141787","0.0-96.0","3HQUKB7LNG0X0RT3UVIO1CN9BWRHH6","A38TZK07ON180S","3THR0FZ95PF7SK0MYRNAOUHTWDJOLG","","341.2000000178814","img/food1.png","76","342.19999998807907","3","1","false","2","2","1,0.5,0,1,0.5,0,0.5,0,1","0,1,0.5,0,1,0.5,1,0.5,0","3",""
"","html-keyboard-response","66","142089","0.0-97.0","3HQUKB7LNG0X0RT3UVIO1CN9BWRHH6","A38TZK07ON180S","3THR0FZ95PF7SK0MYRNAOUHTWDJOLG","","null","<img src=""img/food1.png"" style=""width:200px; border:14px solid green;"">","null","","","","","","","","","",""
"","image-keyboard-response","67","142467","0.0-99.0","3HQUKB7LNG0X0RT3UVIO1CN9BWRHH6","A38TZK07ON180S","3THR0FZ95PF7SK0MYRNAOUHTWDJOLG","","376.89999997615814","img/food1.png","75","377.80000001192093","2","1","false","2","2","1,0.5,0,1,0.5,0,0.5,0,1","0,1,0.5,0,1,0.5,1,0.5,0","3",""
"","html-keyboard-response","68","142780","0.0-100.0","3HQUKB7LNG0X0RT3UVIO1CN9BWRHH6","A38TZK07ON180S","3THR0FZ95PF7SK0MYRNAOUHTWDJOLG","","null","<img src=""img/food1.png"" style=""width:200px; border:14px solid green;"">","null","","","","","","","","","",""
"","image-keyboard-response","69","143195","0.0-102.0","3HQUKB7LNG0X0RT3UVIO1CN9BWRHH6","A38TZK07ON180S","3THR0FZ95PF7SK0MYRNAOUHTWDJOLG","","412.40000000596046","img/food6.png","74","413.7000000178814","1","0","false","1","2","1,0.5,0,1,0.5,0,0.5,0,1","0,1,0.5,0,1,0.5,1,0.5,0","3",""
"","html-keyboard-response","70","143497","0.0-103.0","3HQUKB7LNG0X0RT3UVIO1CN9BWRHH6","A38TZK07ON180S","3THR0FZ95PF7SK0MYRNAOUHTWDJOLG","","null","<img src=""img/food6.png"" style=""width:200px;border:14px solid red;"">","null","","","","","","","","","",""
"","image-keyboard-response","71","143947","0.0-105.0","3HQUKB7LNG0X0RT3UVIO1CN9BWRHH6","A38TZK07ON180S","3THR0FZ95PF7SK0MYRNAOUHTWDJOLG","","449.19999998807907","img/food1.png","76","449.7000000178814","3","1","false","2","2","1,0.5,0,1,0.5,0,0.5,0,1","0,1,0.5,0,1,0.5,1,0.5,0","3",""
"","html-keyboard-response","72","144248","0.0-106.0","3HQUKB7LNG0X0RT3UVIO1CN9BWRHH6","A38TZK07ON180S","3THR0FZ95PF7SK0MYRNAOUHTWDJOLG","","null","<img src=""img/food1.png"" style=""width:200px; border:14px solid green;"">","null","","","","","","","","","",""
"","image-keyboard-response","73","144707","0.0-108.0","3HQUKB7LNG0X0RT3UVIO1CN9BWRHH6","A38TZK07ON180S","3THR0FZ95PF7SK0MYRNAOUHTWDJOLG","","457.90000000596046","img/food6.png","74","458.5","1","0","false","1","2","1,0.5,0,1,0.5,0,0.5,0,1","0,1,0.5,0,1,0.5,1,0.5,0","3",""
"","html-keyboard-response","74","145008","0.0-109.0","3HQUKB7LNG0X0RT3UVIO1CN9BWRHH6","A38TZK07ON180S","3THR0FZ95PF7SK0MYRNAOUHTWDJOLG","","null","<img src=""img/food6.png"" style=""width:200px;border:14px solid red;"">","null","","","","","","","","","",""
"","image-keyboard-response","75","145371","0.0-111.0","3HQUKB7LNG0X0RT3UVIO1CN9BWRHH6","A38TZK07ON180S","3THR0FZ95PF7SK0MYRNAOUHTWDJOLG","","359.90000000596046","img/food1.png","75","361.69999998807907","2","1","false","2","2","1,0.5,0,1,0.5,0,0.5,0,1","0,1,0.5,0,1,0.5,1,0.5,0","3",""
"","html-keyboard-response","76","145672","0.0-112.0","3HQUKB7LNG0X0RT3UVIO1CN9BWRHH6","A38TZK07ON180S","3THR0FZ95PF7SK0MYRNAOUHTWDJOLG","","null","<img src=""img/food1.png"" style=""width:200px; border:14px solid green;"">","null","","","","","","","","","",""
"","image-keyboard-response","77","145972","0.0-114.0","3HQUKB7LNG0X0RT3UVIO1CN9BWRHH6","A38TZK07ON180S","3THR0FZ95PF7SK0MYRNAOUHTWDJOLG","","297.5","img/food6.png","74","299","1","0","false","1","2","1,0.5,0,1,0.5,0,0.5,0,1","0,1,0.5,0,1,0.5,1,0.5,0","3",""
"","html-keyboard-response","78","146274","0.0-115.0","3HQUKB7LNG0X0RT3UVIO1CN9BWRHH6","A38TZK07ON180S","3THR0FZ95PF7SK0MYRNAOUHTWDJOLG","","null","<img src=""img/food6.png"" style=""width:200px;border:14px solid red;"">","null","","","","","","","","","",""
"","image-keyboard-response","79","146508","0.0-117.0","3HQUKB7LNG0X0RT3UVIO1CN9BWRHH6","A38TZK07ON180S","3THR0FZ95PF7SK0MYRNAOUHTWDJOLG","","231.40000000596046","img/food1.png","75","232.80000001192093","2","1","false","2","2","1,0.5,0,1,0.5,0,0.5,0,1","0,1,0.5,0,1,0.5,1,0.5,0","3",""
"","html-keyboard-response","80","146810","0.0-118.0","3HQUKB7LNG0X0RT3UVIO1CN9BWRHH6","A38TZK07ON180S","3THR0FZ95PF7SK0MYRNAOUHTWDJOLG","","null","<img src=""img/food1.png"" style=""width:200px; border:14px solid green;"">","null","","","","","","","","","",""
"","image-keyboard-response","81","147323","0.0-120.0","3HQUKB7LNG0X0RT3UVIO1CN9BWRHH6","A38TZK07ON180S","3THR0FZ95PF7SK0MYRNAOUHTWDJOLG","","511.7999999821186","img/food4.png","75","512.5999999940395","2","1","false","3","2","1,0.5,0,1,0.5,0,0.5,0,1","0,1,0.5,0,1,0.5,1,0.5,0","3",""
"","html-keyboard-response","82","147628","0.0-121.0","3HQUKB7LNG0X0RT3UVIO1CN9BWRHH6","A38TZK07ON180S","3THR0FZ95PF7SK0MYRNAOUHTWDJOLG","","null","<img src=""img/food4.png"" style=""width:200px; border:14px solid green;"">","null","","","","","","","","","",""
"","image-keyboard-response","83","147956","0.0-123.0","3HQUKB7LNG0X0RT3UVIO1CN9BWRHH6","A38TZK07ON180S","3THR0FZ95PF7SK0MYRNAOUHTWDJOLG","","325.30000001192093","img/food6.png","74","327.19999998807907","1","0","false","1","2","1,0.5,0,1,0.5,0,0.5,0,1","0,1,0.5,0,1,0.5,1,0.5,0","3",""
"","html-keyboard-response","84","148258","0.0-124.0","3HQUKB7LNG0X0RT3UVIO1CN9BWRHH6","A38TZK07ON180S","3THR0FZ95PF7SK0MYRNAOUHTWDJOLG","","null","<img src=""img/food6.png"" style=""width:200px;border:14px solid red;"">","null","","","","","","","","","",""
"","image-keyboard-response","85","148995","0.0-126.0","3HQUKB7LNG0X0RT3UVIO1CN9BWRHH6","A38TZK07ON180S","3THR0FZ95PF7SK0MYRNAOUHTWDJOLG","","735.9000000059605","img/food4.png","74","737.1999999880791","1","1","false","3","2","1,0.5,0,1,0.5,0,0.5,0,1","0,1,0.5,0,1,0.5,1,0.5,0","3",""
"","html-keyboard-response","86","149297","0.0-127.0","3HQUKB7LNG0X0RT3UVIO1CN9BWRHH6","A38TZK07ON180S","3THR0FZ95PF7SK0MYRNAOUHTWDJOLG","","null","<img src=""img/food4.png"" style=""width:200px; border:14px solid green;"">","null","","","","","","","","","",""
"","image-keyboard-response","87","149827","0.0-129.0","3HQUKB7LNG0X0RT3UVIO1CN9BWRHH6","A38TZK07ON180S","3THR0FZ95PF7SK0MYRNAOUHTWDJOLG","","528.4000000059605","img/food6.png","74","529.4000000059605","1","0","false","1","2","1,0.5,0,1,0.5,0,0.5,0,1","0,1,0.5,0,1,0.5,1,0.5,0","3",""
"","html-keyboard-response","88","150129","0.0-130.0","3HQUKB7LNG0X0RT3UVIO1CN9BWRHH6","A38TZK07ON180S","3THR0FZ95PF7SK0MYRNAOUHTWDJOLG","","null","<img src=""img/food6.png"" style=""width:200px;border:14px solid red;"">","null","","","","","","","","","",""
"","image-keyboard-response","89","150522","0.0-132.0","3HQUKB7LNG0X0RT3UVIO1CN9BWRHH6","A38TZK07ON180S","3THR0FZ95PF7SK0MYRNAOUHTWDJOLG","","392.09999999403954","img/food1.png","75","392.89999997615814","2","1","false","2","2","1,0.5,0,1,0.5,0,0.5,0,1","0,1,0.5,0,1,0.5,1,0.5,0","3",""
"","html-keyboard-response","90","150825","0.0-133.0","3HQUKB7LNG0X0RT3UVIO1CN9BWRHH6","A38TZK07ON180S","3THR0FZ95PF7SK0MYRNAOUHTWDJOLG","","null","<img src=""img/food1.png"" style=""width:200px; border:14px solid green;"">","null","","","","","","","","","",""
"","image-keyboard-response","91","151171","0.0-135.0","3HQUKB7LNG0X0RT3UVIO1CN9BWRHH6","A38TZK07ON180S","3THR0FZ95PF7SK0MYRNAOUHTWDJOLG","","345.10000002384186","img/food6.png","76","345.7999999821186","3","1","false","1","2","1,0.5,0,1,0.5,0,0.5,0,1","0,1,0.5,0,1,0.5,1,0.5,0","3",""
"","html-keyboard-response","92","151472","0.0-136.0","3HQUKB7LNG0X0RT3UVIO1CN9BWRHH6","A38TZK07ON180S","3THR0FZ95PF7SK0MYRNAOUHTWDJOLG","","null","<img src=""img/food6.png"" style=""width:200px; border:14px solid green;"">","null","","","","","","","","","",""
"","image-keyboard-response","93","151771","0.0-138.0","3HQUKB7LNG0X0RT3UVIO1CN9BWRHH6","A38TZK07ON180S","3THR0FZ95PF7SK0MYRNAOUHTWDJOLG","","297.09999999403954","img/food6.png","76","298.09999999403954","3","0","false","1","2","1,0.5,0,1,0.5,0,0.5,0,1","0,1,0.5,0,1,0.5,1,0.5,0","3",""
"","html-keyboard-response","94","152072","0.0-139.0","3HQUKB7LNG0X0RT3UVIO1CN9BWRHH6","A38TZK07ON180S","3THR0FZ95PF7SK0MYRNAOUHTWDJOLG","","null","<img src=""img/food6.png"" style=""width:200px;border:14px solid red;"">","null","","","","","","","","","",""
"","image-keyboard-response","95","152372","0.0-141.0","3HQUKB7LNG0X0RT3UVIO1CN9BWRHH6","A38TZK07ON180S","3THR0FZ95PF7SK0MYRNAOUHTWDJOLG","","298.80000001192093","img/food6.png","74","299.69999998807907","1","0","false","1","2","1,0.5,0,1,0.5,0,0.5,0,1","0,1,0.5,0,1,0.5,1,0.5,0","3",""
"","html-keyboard-response","96","152674","0.0-142.0","3HQUKB7LNG0X0RT3UVIO1CN9BWRHH6","A38TZK07ON180S","3THR0FZ95PF7SK0MYRNAOUHTWDJOLG","","null","<img src=""img/food6.png"" style=""width:200px;border:14px solid red;"">","null","","","","","","","","","",""
"","image-keyboard-response","97","152956","0.0-144.0","3HQUKB7LNG0X0RT3UVIO1CN9BWRHH6","A38TZK07ON180S","3THR0FZ95PF7SK0MYRNAOUHTWDJOLG","","278.40000000596046","img/food1.png","75","280.2999999821186","2","1","false","2","2","1,0.5,0,1,0.5,0,0.5,0,1","0,1,0.5,0,1,0.5,1,0.5,0","3",""
"","html-keyboard-response","98","153273","0.0-145.0","3HQUKB7LNG0X0RT3UVIO1CN9BWRHH6","A38TZK07ON180S","3THR0FZ95PF7SK0MYRNAOUHTWDJOLG","","null","<img src=""img/food1.png"" style=""width:200px; border:14px solid green;"">","null","","","","","","","","","",""
"","image-keyboard-response","99","153539","0.0-147.0","3HQUKB7LNG0X0RT3UVIO1CN9BWRHH6","A38TZK07ON180S","3THR0FZ95PF7SK0MYRNAOUHTWDJOLG","","264.2000000178814","img/food6.png","74","265.19999998807907","1","0","false","1","2","1,0.5,0,1,0.5,0,0.5,0,1","0,1,0.5,0,1,0.5,1,0.5,0","3",""
"","html-keyboard-response","100","153842","0.0-148.0","3HQUKB7LNG0X0RT3UVIO1CN9BWRHH6","A38TZK07ON180S","3THR0FZ95PF7SK0MYRNAOUHTWDJOLG","","null","<img src=""img/food6.png"" style=""width:200px;border:14px solid red;"">","null","","","","","","","","","",""
"","image-keyboard-response","101","154099","0.0-150.0","3HQUKB7LNG0X0RT3UVIO1CN9BWRHH6","A38TZK07ON180S","3THR0FZ95PF7SK0MYRNAOUHTWDJOLG","","254.5","img/food4.png","76","256","3","0","false","3","2","1,0.5,0,1,0.5,0,0.5,0,1","0,1,0.5,0,1,0.5,1,0.5,0","3",""
"","html-keyboard-response","102","154402","0.0-151.0","3HQUKB7LNG0X0RT3UVIO1CN9BWRHH6","A38TZK07ON180S","3THR0FZ95PF7SK0MYRNAOUHTWDJOLG","","null","<img src=""img/food4.png"" style=""width:200px;border:14px solid red;"">","null","","","","","","","","","",""
"","image-keyboard-response","103","154795","0.0-153.0","3HQUKB7LNG0X0RT3UVIO1CN9BWRHH6","A38TZK07ON180S","3THR0FZ95PF7SK0MYRNAOUHTWDJOLG","","391.69999998807907","img/food4.png","75","392.60000002384186","2","0","false","3","2","1,0.5,0,1,0.5,0,0.5,0,1","0,1,0.5,0,1,0.5,1,0.5,0","3",""
"","html-keyboard-response","104","155113","0.0-154.0","3HQUKB7LNG0X0RT3UVIO1CN9BWRHH6","A38TZK07ON180S","3THR0FZ95PF7SK0MYRNAOUHTWDJOLG","","null","<img src=""img/food4.png"" style=""width:200px;border:14px solid red;"">","null","","","","","","","","","",""
"","image-keyboard-response","105","155380","0.0-156.0","3HQUKB7LNG0X0RT3UVIO1CN9BWRHH6","A38TZK07ON180S","3THR0FZ95PF7SK0MYRNAOUHTWDJOLG","","266.2999999821186","img/food4.png","76","267.09999999403954","3","0","false","3","2","1,0.5,0,1,0.5,0,0.5,0,1","0,1,0.5,0,1,0.5,1,0.5,0","3",""
"","html-keyboard-response","106","155682","0.0-157.0","3HQUKB7LNG0X0RT3UVIO1CN9BWRHH6","A38TZK07ON180S","3THR0FZ95PF7SK0MYRNAOUHTWDJOLG","","null","<img src=""img/food4.png"" style=""width:200px;border:14px solid red;"">","null","","","","","","","","","",""
"","image-keyboard-response","107","155788","0.0-159.0","3HQUKB7LNG0X0RT3UVIO1CN9BWRHH6","A38TZK07ON180S","3THR0FZ95PF7SK0MYRNAOUHTWDJOLG","","104.7999999821186","img/food4.png","74","105.7000000178814","1","1","false","3","2","1,0.5,0,1,0.5,0,0.5,0,1","0,1,0.5,0,1,0.5,1,0.5,0","3",""
"","html-keyboard-response","108","156090","0.0-160.0","3HQUKB7LNG0X0RT3UVIO1CN9BWRHH6","A38TZK07ON180S","3THR0FZ95PF7SK0MYRNAOUHTWDJOLG","","null","<img src=""img/food4.png"" style=""width:200px; border:14px solid green;"">","null","","","","","","","","","",""
"","image-keyboard-response","109","156365","0.0-162.0","3HQUKB7LNG0X0RT3UVIO1CN9BWRHH6","A38TZK07ON180S","3THR0FZ95PF7SK0MYRNAOUHTWDJOLG","","273.90000000596046","img/food4.png","74","275.09999999403954","1","1","false","3","2","1,0.5,0,1,0.5,0,0.5,0,1","0,1,0.5,0,1,0.5,1,0.5,0","3",""
"","html-keyboard-response","110","156668","0.0-163.0","3HQUKB7LNG0X0RT3UVIO1CN9BWRHH6","A38TZK07ON180S","3THR0FZ95PF7SK0MYRNAOUHTWDJOLG","","null","<img src=""img/food4.png"" style=""width:200px; border:14px solid green;"">","null","","","","","","","","","",""
"","image-keyboard-response","111","157091","0.0-165.0","3HQUKB7LNG0X0RT3UVIO1CN9BWRHH6","A38TZK07ON180S","3THR0FZ95PF7SK0MYRNAOUHTWDJOLG","","422.19999998807907","img/food6.png","74","423.10000002384186","1","0","false","1","2","1,0.5,0,1,0.5,0,0.5,0,1","0,1,0.5,0,1,0.5,1,0.5,0","3",""
"","html-keyboard-response","112","157393","0.0-166.0","3HQUKB7LNG0X0RT3UVIO1CN9BWRHH6","A38TZK07ON180S","3THR0FZ95PF7SK0MYRNAOUHTWDJOLG","","null","<img src=""img/food6.png"" style=""width:200px;border:14px solid red;"">","null","","","","","","","","","",""
"","image-keyboard-response","113","157747","0.0-168.0","3HQUKB7LNG0X0RT3UVIO1CN9BWRHH6","A38TZK07ON180S","3THR0FZ95PF7SK0MYRNAOUHTWDJOLG","","352.90000000596046","img/food1.png","75","354.09999999403954","2","1","false","2","2","1,0.5,0,1,0.5,0,0.5,0,1","0,1,0.5,0,1,0.5,1,0.5,0","3",""
"","html-keyboard-response","114","158049","0.0-169.0","3HQUKB7LNG0X0RT3UVIO1CN9BWRHH6","A38TZK07ON180S","3THR0FZ95PF7SK0MYRNAOUHTWDJOLG","","null","<img src=""img/food1.png"" style=""width:200px; border:14px solid green;"">","null","","","","","","","","","",""
"","image-keyboard-response","115","158373","0.0-171.0","3HQUKB7LNG0X0RT3UVIO1CN9BWRHH6","A38TZK07ON180S","3THR0FZ95PF7SK0MYRNAOUHTWDJOLG","","323.09999999403954","img/food6.png","74","323.90000000596046","1","0","false","1","2","1,0.5,0,1,0.5,0,0.5,0,1","0,1,0.5,0,1,0.5,1,0.5,0","3",""
"","html-keyboard-response","116","158677","0.0-172.0","3HQUKB7LNG0X0RT3UVIO1CN9BWRHH6","A38TZK07ON180S","3THR0FZ95PF7SK0MYRNAOUHTWDJOLG","","null","<img src=""img/food6.png"" style=""width:200px;border:14px solid red;"">","null","","","","","","","","","",""
"","image-keyboard-response","117","158963","0.0-174.0","3HQUKB7LNG0X0RT3UVIO1CN9BWRHH6","A38TZK07ON180S","3THR0FZ95PF7SK0MYRNAOUHTWDJOLG","","284.40000000596046","img/food6.png","74","285.69999998807907","1","0","false","1","2","1,0.5,0,1,0.5,0,0.5,0,1","0,1,0.5,0,1,0.5,1,0.5,0","3",""
"","html-keyboard-response","118","159266","0.0-175.0","3HQUKB7LNG0X0RT3UVIO1CN9BWRHH6","A38TZK07ON180S","3THR0FZ95PF7SK0MYRNAOUHTWDJOLG","","null","<img src=""img/food6.png"" style=""width:200px;border:14px solid red;"">","null","","","","","","","","","",""
"","image-keyboard-response","119","159381","0.0-177.0","3HQUKB7LNG0X0RT3UVIO1CN9BWRHH6","A38TZK07ON180S","3THR0FZ95PF7SK0MYRNAOUHTWDJOLG","","113.90000000596046","img/food1.png","76","114.7000000178814","3","1","false","2","2","1,0.5,0,1,0.5,0,0.5,0,1","0,1,0.5,0,1,0.5,1,0.5,0","3",""
"","html-keyboard-response","120","159684","0.0-178.0","3HQUKB7LNG0X0RT3UVIO1CN9BWRHH6","A38TZK07ON180S","3THR0FZ95PF7SK0MYRNAOUHTWDJOLG","","null","<img src=""img/food1.png"" style=""width:200px; border:14px solid green;"">","null","","","","","","","","","",""
"","image-keyboard-response","121","160109","0.0-180.0","3HQUKB7LNG0X0RT3UVIO1CN9BWRHH6","A38TZK07ON180S","3THR0FZ95PF7SK0MYRNAOUHTWDJOLG","","422.5","img/food4.png","76","424.5","3","0","false","3","2","1,0.5,0,1,0.5,0,0.5,0,1","0,1,0.5,0,1,0.5,1,0.5,0","3",""
"","html-keyboard-response","122","160413","0.0-181.0","3HQUKB7LNG0X0RT3UVIO1CN9BWRHH6","A38TZK07ON180S","3THR0FZ95PF7SK0MYRNAOUHTWDJOLG","","null","<img src=""img/food4.png"" style=""width:200px;border:14px solid red;"">","null","","","","","","","","","",""
"","image-keyboard-response","123","160621","0.0-183.0","3HQUKB7LNG0X0RT3UVIO1CN9BWRHH6","A38TZK07ON180S","3THR0FZ95PF7SK0MYRNAOUHTWDJOLG","","206.40000000596046","img/food6.png","74","207.69999998807907","1","0","false","1","2","1,0.5,0,1,0.5,0,0.5,0,1","0,1,0.5,0,1,0.5,1,0.5,0","3",""
"","html-keyboard-response","124","160935","0.0-184.0","3HQUKB7LNG0X0RT3UVIO1CN9BWRHH6","A38TZK07ON180S","3THR0FZ95PF7SK0MYRNAOUHTWDJOLG","","null","<img src=""img/food6.png"" style=""width:200px;border:14px solid red;"">","null","","","","","","","","","",""
"","image-keyboard-response","125","161188","0.0-186.0","3HQUKB7LNG0X0RT3UVIO1CN9BWRHH6","A38TZK07ON180S","3THR0FZ95PF7SK0MYRNAOUHTWDJOLG","","251.7999999821186","img/food4.png","75","252.60000002384186","2","1","false","3","2","1,0.5,0,1,0.5,0,0.5,0,1","0,1,0.5,0,1,0.5,1,0.5,0","3",""
"","html-keyboard-response","126","161490","0.0-187.0","3HQUKB7LNG0X0RT3UVIO1CN9BWRHH6","A38TZK07ON180S","3THR0FZ95PF7SK0MYRNAOUHTWDJOLG","","null","<img src=""img/food4.png"" style=""width:200px; border:14px solid green;"">","null","","","","","","","","","",""
"","image-keyboard-response","127","161740","0.0-189.0","3HQUKB7LNG0X0RT3UVIO1CN9BWRHH6","A38TZK07ON180S","3THR0FZ95PF7SK0MYRNAOUHTWDJOLG","","248.40000000596046","img/food6.png","74","249.19999998807907","1","0","false","1","2","1,0.5,0,1,0.5,0,0.5,0,1","0,1,0.5,0,1,0.5,1,0.5,0","3",""
"","html-keyboard-response","128","162042","0.0-190.0","3HQUKB7LNG0X0RT3UVIO1CN9BWRHH6","A38TZK07ON180S","3THR0FZ95PF7SK0MYRNAOUHTWDJOLG","","null","<img src=""img/food6.png"" style=""width:200px;border:14px solid red;"">","null","","","","","","","","","",""
"","image-keyboard-response","129","162283","0.0-192.0","3HQUKB7LNG0X0RT3UVIO1CN9BWRHH6","A38TZK07ON180S","3THR0FZ95PF7SK0MYRNAOUHTWDJOLG","","240.5","img/food1.png","76","241.19999998807907","3","0","false","2","2","1,0.5,0,1,0.5,0,0.5,0,1","0,1,0.5,0,1,0.5,1,0.5,0","3",""
"","html-keyboard-response","130","162585","0.0-193.0","3HQUKB7LNG0X0RT3UVIO1CN9BWRHH6","A38TZK07ON180S","3THR0FZ95PF7SK0MYRNAOUHTWDJOLG","","null","<img src=""img/food1.png"" style=""width:200px;border:14px solid red;"">","null","","","","","","","","","",""
"","image-keyboard-response","131","162853","0.0-195.0","3HQUKB7LNG0X0RT3UVIO1CN9BWRHH6","A38TZK07ON180S","3THR0FZ95PF7SK0MYRNAOUHTWDJOLG","","267.09999999403954","img/food4.png","75","268.09999999403954","2","1","false","3","2","1,0.5,0,1,0.5,0,0.5,0,1","0,1,0.5,0,1,0.5,1,0.5,0","3",""
"","html-keyboard-response","132","163156","0.0-196.0","3HQUKB7LNG0X0RT3UVIO1CN9BWRHH6","A38TZK07ON180S","3THR0FZ95PF7SK0MYRNAOUHTWDJOLG","","null","<img src=""img/food4.png"" style=""width:200px; border:14px solid green;"">","null","","","","","","","","","",""
"","image-keyboard-response","133","163428","0.0-198.0","3HQUKB7LNG0X0RT3UVIO1CN9BWRHH6","A38TZK07ON180S","3THR0FZ95PF7SK0MYRNAOUHTWDJOLG","","270.80000001192093","img/food1.png","76","271.80000001192093","3","1","false","2","2","1,0.5,0,1,0.5,0,0.5,0,1","0,1,0.5,0,1,0.5,1,0.5,0","3",""
"","html-keyboard-response","134","163731","0.0-199.0","3HQUKB7LNG0X0RT3UVIO1CN9BWRHH6","A38TZK07ON180S","3THR0FZ95PF7SK0MYRNAOUHTWDJOLG","","null","<img src=""img/food1.png"" style=""width:200px; border:14px solid green;"">","null","","","","","","","","","",""
"","image-keyboard-response","135","163972","0.0-201.0","3HQUKB7LNG0X0RT3UVIO1CN9BWRHH6","A38TZK07ON180S","3THR0FZ95PF7SK0MYRNAOUHTWDJOLG","","238.2000000178814","img/food6.png","74","240","1","0","false","1","2","1,0.5,0,1,0.5,0,0.5,0,1","0,1,0.5,0,1,0.5,1,0.5,0","3",""
"","html-keyboard-response","136","164275","0.0-202.0","3HQUKB7LNG0X0RT3UVIO1CN9BWRHH6","A38TZK07ON180S","3THR0FZ95PF7SK0MYRNAOUHTWDJOLG","","null","<img src=""img/food6.png"" style=""width:200px;border:14px solid red;"">","null","","","","","","","","","",""
"","image-keyboard-response","137","164499","0.0-204.0","3HQUKB7LNG0X0RT3UVIO1CN9BWRHH6","A38TZK07ON180S","3THR0FZ95PF7SK0MYRNAOUHTWDJOLG","","223.5","img/food4.png","76","224.2999999821186","3","0","false","3","2","1,0.5,0,1,0.5,0,0.5,0,1","0,1,0.5,0,1,0.5,1,0.5,0","3",""
"","html-keyboard-response","138","164801","0.0-205.0","3HQUKB7LNG0X0RT3UVIO1CN9BWRHH6","A38TZK07ON180S","3THR0FZ95PF7SK0MYRNAOUHTWDJOLG","","null","<img src=""img/food4.png"" style=""width:200px;border:14px solid red;"">","null","","","","","","","","","",""
"","image-keyboard-response","139","165163","0.0-207.0","3HQUKB7LNG0X0RT3UVIO1CN9BWRHH6","A38TZK07ON180S","3THR0FZ95PF7SK0MYRNAOUHTWDJOLG","","361","img/food4.png","75","362","2","0","false","3","2","1,0.5,0,1,0.5,0,0.5,0,1","0,1,0.5,0,1,0.5,1,0.5,0","3",""
"","html-keyboard-response","140","165466","0.0-208.0","3HQUKB7LNG0X0RT3UVIO1CN9BWRHH6","A38TZK07ON180S","3THR0FZ95PF7SK0MYRNAOUHTWDJOLG","","null","<img src=""img/food4.png"" style=""width:200px;border:14px solid red;"">","null","","","","","","","","","",""
"","image-keyboard-response","141","165964","0.0-210.0","3HQUKB7LNG0X0RT3UVIO1CN9BWRHH6","A38TZK07ON180S","3THR0FZ95PF7SK0MYRNAOUHTWDJOLG","","497.09999999403954","img/food6.png","74","497.89999997615814","1","0","false","1","2","1,0.5,0,1,0.5,0,0.5,0,1","0,1,0.5,0,1,0.5,1,0.5,0","3",""
"","html-keyboard-response","142","166267","0.0-211.0","3HQUKB7LNG0X0RT3UVIO1CN9BWRHH6","A38TZK07ON180S","3THR0FZ95PF7SK0MYRNAOUHTWDJOLG","","null","<img src=""img/food6.png"" style=""width:200px;border:14px solid red;"">","null","","","","","","","","","",""
"","image-keyboard-response","143","166584","0.0-213.0","3HQUKB7LNG0X0RT3UVIO1CN9BWRHH6","A38TZK07ON180S","3THR0FZ95PF7SK0MYRNAOUHTWDJOLG","","314.30000001192093","img/food6.png","75","316.2999999821186","2","1","false","1","2","1,0.5,0,1,0.5,0,0.5,0,1","0,1,0.5,0,1,0.5,1,0.5,0","3",""
"","html-keyboard-response","144","166886","0.0-214.0","3HQUKB7LNG0X0RT3UVIO1CN9BWRHH6","A38TZK07ON180S","3THR0FZ95PF7SK0MYRNAOUHTWDJOLG","","null","<img src=""img/food6.png"" style=""width:200px; border:14px solid green;"">","null","","","","","","","","","",""
"","image-keyboard-response","145","167156","0.0-216.0","3HQUKB7LNG0X0RT3UVIO1CN9BWRHH6","A38TZK07ON180S","3THR0FZ95PF7SK0MYRNAOUHTWDJOLG","","267.80000001192093","img/food4.png","76","269.19999998807907","3","0","false","3","2","1,0.5,0,1,0.5,0,0.5,0,1","0,1,0.5,0,1,0.5,1,0.5,0","3",""
"","html-keyboard-response","146","167458","0.0-217.0","3HQUKB7LNG0X0RT3UVIO1CN9BWRHH6","A38TZK07ON180S","3THR0FZ95PF7SK0MYRNAOUHTWDJOLG","","null","<img src=""img/food4.png"" style=""width:200px;border:14px solid red;"">","null","","","","","","","","","",""
"","image-keyboard-response","147","167708","0.0-219.0","3HQUKB7LNG0X0RT3UVIO1CN9BWRHH6","A38TZK07ON180S","3THR0FZ95PF7SK0MYRNAOUHTWDJOLG","","247.5","img/food4.png","74","248.90000000596046","1","1","false","3","2","1,0.5,0,1,0.5,0,0.5,0,1","0,1,0.5,0,1,0.5,1,0.5,0","3",""
"","html-keyboard-response","148","168011","0.0-220.0","3HQUKB7LNG0X0RT3UVIO1CN9BWRHH6","A38TZK07ON180S","3THR0FZ95PF7SK0MYRNAOUHTWDJOLG","","null","<img src=""img/food4.png"" style=""width:200px; border:14px solid green;"">","null","","","","","","","","","",""
"","image-keyboard-response","149","168245","0.0-222.0","3HQUKB7LNG0X0RT3UVIO1CN9BWRHH6","A38TZK07ON180S","3THR0FZ95PF7SK0MYRNAOUHTWDJOLG","","231.7999999821186","img/food4.png","76","233.59999999403954","3","0","false","3","2","1,0.5,0,1,0.5,0,0.5,0,1","0,1,0.5,0,1,0.5,1,0.5,0","3",""
"","html-keyboard-response","150","168548","0.0-223.0","3HQUKB7LNG0X0RT3UVIO1CN9BWRHH6","A38TZK07ON180S","3THR0FZ95PF7SK0MYRNAOUHTWDJOLG","","null","<img src=""img/food4.png"" style=""width:200px;border:14px solid red;"">","null","","","","","","","","","",""
"","image-keyboard-response","151","168796","0.0-225.0","3HQUKB7LNG0X0RT3UVIO1CN9BWRHH6","A38TZK07ON180S","3THR0FZ95PF7SK0MYRNAOUHTWDJOLG","","245.7999999821186","img/food1.png","75","247.59999999403954","2","1","false","2","2","1,0.5,0,1,0.5,0,0.5,0,1","0,1,0.5,0,1,0.5,1,0.5,0","3",""
"","html-keyboard-response","152","169098","0.0-226.0","3HQUKB7LNG0X0RT3UVIO1CN9BWRHH6","A38TZK07ON180S","3THR0FZ95PF7SK0MYRNAOUHTWDJOLG","","null","<img src=""img/food1.png"" style=""width:200px; border:14px solid green;"">","null","","","","","","","","","",""
"","image-keyboard-response","153","169373","0.0-228.0","3HQUKB7LNG0X0RT3UVIO1CN9BWRHH6","A38TZK07ON180S","3THR0FZ95PF7SK0MYRNAOUHTWDJOLG","","272.09999999403954","img/food1.png","74","273.69999998807907","1","0","false","2","2","1,0.5,0,1,0.5,0,0.5,0,1","0,1,0.5,0,1,0.5,1,0.5,0","3",""
"","html-keyboard-response","154","169676","0.0-229.0","3HQUKB7LNG0X0RT3UVIO1CN9BWRHH6","A38TZK07ON180S","3THR0FZ95PF7SK0MYRNAOUHTWDJOLG","","null","<img src=""img/food1.png"" style=""width:200px;border:14px solid red;"">","null","","","","","","","","","",""
"","image-keyboard-response","155","170036","0.0-231.0","3HQUKB7LNG0X0RT3UVIO1CN9BWRHH6","A38TZK07ON180S","3THR0FZ95PF7SK0MYRNAOUHTWDJOLG","","359","img/food1.png","76","359.90000000596046","3","1","false","2","2","1,0.5,0,1,0.5,0,0.5,0,1","0,1,0.5,0,1,0.5,1,0.5,0","3",""
"","html-keyboard-response","156","170339","0.0-232.0","3HQUKB7LNG0X0RT3UVIO1CN9BWRHH6","A38TZK07ON180S","3THR0FZ95PF7SK0MYRNAOUHTWDJOLG","","null","<img src=""img/food1.png"" style=""width:200px; border:14px solid green;"">","null","","","","","","","","","",""
"","image-keyboard-response","157","170691","0.0-234.0","3HQUKB7LNG0X0RT3UVIO1CN9BWRHH6","A38TZK07ON180S","3THR0FZ95PF7SK0MYRNAOUHTWDJOLG","","352.09999999403954","img/food4.png","75","352.80000001192093","2","1","false","3","2","1,0.5,0,1,0.5,0,0.5,0,1","0,1,0.5,0,1,0.5,1,0.5,0","3",""
"","html-keyboard-response","158","171004","0.0-235.0","3HQUKB7LNG0X0RT3UVIO1CN9BWRHH6","A38TZK07ON180S","3THR0FZ95PF7SK0MYRNAOUHTWDJOLG","","null","<img src=""img/food4.png"" style=""width:200px; border:14px solid green;"">","null","","","","","","","","","",""
"","image-keyboard-response","159","171267","0.0-237.0","3HQUKB7LNG0X0RT3UVIO1CN9BWRHH6","A38TZK07ON180S","3THR0FZ95PF7SK0MYRNAOUHTWDJOLG","","262.30000001192093","img/food1.png","74","263","1","0","false","2","2","1,0.5,0,1,0.5,0,0.5,0,1","0,1,0.5,0,1,0.5,1,0.5,0","3",""
"","html-keyboard-response","160","171569","0.0-238.0","3HQUKB7LNG0X0RT3UVIO1CN9BWRHH6","A38TZK07ON180S","3THR0FZ95PF7SK0MYRNAOUHTWDJOLG","","null","<img src=""img/food1.png"" style=""width:200px;border:14px solid red;"">","null","","","","","","","","","",""
"","image-keyboard-response","161","171869","0.0-240.0","3HQUKB7LNG0X0RT3UVIO1CN9BWRHH6","A38TZK07ON180S","3THR0FZ95PF7SK0MYRNAOUHTWDJOLG","","298.59999999403954","img/food6.png","76","299.59999999403954","3","1","false","1","2","1,0.5,0,1,0.5,0,0.5,0,1","0,1,0.5,0,1,0.5,1,0.5,0","3",""
"","html-keyboard-response","162","172172","0.0-241.0","3HQUKB7LNG0X0RT3UVIO1CN9BWRHH6","A38TZK07ON180S","3THR0FZ95PF7SK0MYRNAOUHTWDJOLG","","null","<img src=""img/food6.png"" style=""width:200px; border:14px solid green;"">","null","","","","","","","","","",""
"","image-keyboard-response","163","172571","0.0-243.0","3HQUKB7LNG0X0RT3UVIO1CN9BWRHH6","A38TZK07ON180S","3THR0FZ95PF7SK0MYRNAOUHTWDJOLG","","398.09999999403954","img/food6.png","75","398.90000000596046","2","1","false","1","2","1,0.5,0,1,0.5,0,0.5,0,1","0,1,0.5,0,1,0.5,1,0.5,0","3",""
"","html-keyboard-response","164","172874","0.0-244.0","3HQUKB7LNG0X0RT3UVIO1CN9BWRHH6","A38TZK07ON180S","3THR0FZ95PF7SK0MYRNAOUHTWDJOLG","","null","<img src=""img/food6.png"" style=""width:200px; border:14px solid green;"">","null","","","","","","","","","",""
"","image-keyboard-response","165","173269","0.0-246.0","3HQUKB7LNG0X0RT3UVIO1CN9BWRHH6","A38TZK07ON180S","3THR0FZ95PF7SK0MYRNAOUHTWDJOLG","","392.69999998807907","img/food4.png","74","394.19999998807907","1","1","false","3","2","1,0.5,0,1,0.5,0,0.5,0,1","0,1,0.5,0,1,0.5,1,0.5,0","3",""
"","html-keyboard-response","166","173572","0.0-247.0","3HQUKB7LNG0X0RT3UVIO1CN9BWRHH6","A38TZK07ON180S","3THR0FZ95PF7SK0MYRNAOUHTWDJOLG","","null","<img src=""img/food4.png"" style=""width:200px; border:14px solid green;"">","null","","","","","","","","","",""
"","image-keyboard-response","167","173844","0.0-249.0","3HQUKB7LNG0X0RT3UVIO1CN9BWRHH6","A38TZK07ON180S","3THR0FZ95PF7SK0MYRNAOUHTWDJOLG","","270.5","img/food1.png","76","271.59999999403954","3","0","false","2","2","1,0.5,0,1,0.5,0,0.5,0,1","0,1,0.5,0,1,0.5,1,0.5,0","3",""
"","html-keyboard-response","168","174155","0.0-250.0","3HQUKB7LNG0X0RT3UVIO1CN9BWRHH6","A38TZK07ON180S","3THR0FZ95PF7SK0MYRNAOUHTWDJOLG","","null","<img src=""img/food1.png"" style=""width:200px;border:14px solid red;"">","null","","","","","","","","","",""
"","image-keyboard-response","169","174389","0.0-252.0","3HQUKB7LNG0X0RT3UVIO1CN9BWRHH6","A38TZK07ON180S","3THR0FZ95PF7SK0MYRNAOUHTWDJOLG","","232","img/food1.png","75","233.2999999821186","2","1","false","2","2","1,0.5,0,1,0.5,0,0.5,0,1","0,1,0.5,0,1,0.5,1,0.5,0","3",""
"","html-keyboard-response","170","174693","0.0-253.0","3HQUKB7LNG0X0RT3UVIO1CN9BWRHH6","A38TZK07ON180S","3THR0FZ95PF7SK0MYRNAOUHTWDJOLG","","null","<img src=""img/food1.png"" style=""width:200px; border:14px solid green;"">","null","","","","","","","","","",""
"","image-keyboard-response","171","175004","0.0-255.0","3HQUKB7LNG0X0RT3UVIO1CN9BWRHH6","A38TZK07ON180S","3THR0FZ95PF7SK0MYRNAOUHTWDJOLG","","309.09999999403954","img/food1.png","74","310.09999999403954","1","0","false","2","2","1,0.5,0,1,0.5,0,0.5,0,1","0,1,0.5,0,1,0.5,1,0.5,0","3",""
"","html-keyboard-response","172","175306","0.0-256.0","3HQUKB7LNG0X0RT3UVIO1CN9BWRHH6","A38TZK07ON180S","3THR0FZ95PF7SK0MYRNAOUHTWDJOLG","","null","<img src=""img/food1.png"" style=""width:200px;border:14px solid red;"">","null","","","","","","","","","",""
"","image-keyboard-response","173","175555","0.0-258.0","3HQUKB7LNG0X0RT3UVIO1CN9BWRHH6","A38TZK07ON180S","3THR0FZ95PF7SK0MYRNAOUHTWDJOLG","","248.5","img/food6.png","76","249.40000000596046","3","1","false","1","2","1,0.5,0,1,0.5,0,0.5,0,1","0,1,0.5,0,1,0.5,1,0.5,0","3",""
"","html-keyboard-response","174","175857","0.0-259.0","3HQUKB7LNG0X0RT3UVIO1CN9BWRHH6","A38TZK07ON180S","3THR0FZ95PF7SK0MYRNAOUHTWDJOLG","","null","<img src=""img/food6.png"" style=""width:200px; border:14px solid green;"">","null","","","","","","","","","",""
"","image-keyboard-response","175","176155","0.0-261.0","3HQUKB7LNG0X0RT3UVIO1CN9BWRHH6","A38TZK07ON180S","3THR0FZ95PF7SK0MYRNAOUHTWDJOLG","","297.30000001192093","img/food1.png","74","298.09999999403954","1","0","false","2","2","1,0.5,0,1,0.5,0,0.5,0,1","0,1,0.5,0,1,0.5,1,0.5,0","3",""
"","html-keyboard-response","176","176456","0.0-262.0","3HQUKB7LNG0X0RT3UVIO1CN9BWRHH6","A38TZK07ON180S","3THR0FZ95PF7SK0MYRNAOUHTWDJOLG","","null","<img src=""img/food1.png"" style=""width:200px;border:14px solid red;"">","null","","","","","","","","","",""
"","image-keyboard-response","177","176675","0.0-264.0","3HQUKB7LNG0X0RT3UVIO1CN9BWRHH6","A38TZK07ON180S","3THR0FZ95PF7SK0MYRNAOUHTWDJOLG","","218","img/food6.png","76","218.69999998807907","3","0","false","1","2","1,0.5,0,1,0.5,0,0.5,0,1","0,1,0.5,0,1,0.5,1,0.5,0","3",""
"","html-keyboard-response","178","176978","0.0-265.0","3HQUKB7LNG0X0RT3UVIO1CN9BWRHH6","A38TZK07ON180S","3THR0FZ95PF7SK0MYRNAOUHTWDJOLG","","null","<img src=""img/food6.png"" style=""width:200px;border:14px solid red;"">","null","","","","","","","","","",""
"","image-keyboard-response","179","177309","0.0-267.0","3HQUKB7LNG0X0RT3UVIO1CN9BWRHH6","A38TZK07ON180S","3THR0FZ95PF7SK0MYRNAOUHTWDJOLG","","327.90000000596046","img/food4.png","75","329.80000001192093","2","1","false","3","2","1,0.5,0,1,0.5,0,0.5,0,1","0,1,0.5,0,1,0.5,1,0.5,0","3",""
"","html-keyboard-response","180","177613","0.0-268.0","3HQUKB7LNG0X0RT3UVIO1CN9BWRHH6","A38TZK07ON180S","3THR0FZ95PF7SK0MYRNAOUHTWDJOLG","","null","<img src=""img/food4.png"" style=""width:200px; border:14px solid green;"">","null","","","","","","","","","",""
"","image-keyboard-response","181","177997","0.0-270.0","3HQUKB7LNG0X0RT3UVIO1CN9BWRHH6","A38TZK07ON180S","3THR0FZ95PF7SK0MYRNAOUHTWDJOLG","","380.59999999403954","img/food4.png","75","382.7999999821186","2","0","false","3","2","1,0.5,0,1,0.5,0,0.5,0,1","0,1,0.5,0,1,0.5,1,0.5,0","3",""
"","html-keyboard-response","182","178300","0.0-271.0","3HQUKB7LNG0X0RT3UVIO1CN9BWRHH6","A38TZK07ON180S","3THR0FZ95PF7SK0MYRNAOUHTWDJOLG","","null","<img src=""img/food4.png"" style=""width:200px;border:14px solid red;"">","null","","","","","","","","","",""
"","instructions","183","296738","0.0-273.0","3HQUKB7LNG0X0RT3UVIO1CN9BWRHH6","A38TZK07ON180S","3THR0FZ95PF7SK0MYRNAOUHTWDJOLG","[{""page_index"":0,""viewing_time"":116282.79999998212},{""page_index"":1,""viewing_time"":2120.0999999940395}]","118403.09999999404","","","","","","","","","","","",""
"","image-keyboard-response","184","297511","0.0-274.0","3HQUKB7LNG0X0RT3UVIO1CN9BWRHH6","A38TZK07ON180S","3THR0FZ95PF7SK0MYRNAOUHTWDJOLG","","771.9000000059605","img/food3.png","74","773.6000000238419","1","1","","3","1","1,0.5,0,1,0.5,0,0.5,0,1","0,1,0.5,0,1,0.5,1,0.5,0","3",""
"","html-keyboard-response","185","297815","0.0-275.0","3HQUKB7LNG0X0RT3UVIO1CN9BWRHH6","A38TZK07ON180S","3THR0FZ95PF7SK0MYRNAOUHTWDJOLG","","null","<img src=""img/food3.png"" style=""width:200px; border:14px solid green;"">","null","","","","","","","","","",""
"","image-keyboard-response","186","298941","0.0-276.0","3HQUKB7LNG0X0RT3UVIO1CN9BWRHH6","A38TZK07ON180S","3THR0FZ95PF7SK0MYRNAOUHTWDJOLG","","1125.300000011921","img/food2.png","75","1126.199999988079","2","1","","2","1","1,0.5,0,1,0.5,0,0.5,0,1","0,1,0.5,0,1,0.5,1,0.5,0","3",""
"","html-keyboard-response","187","299243","0.0-277.0","3HQUKB7LNG0X0RT3UVIO1CN9BWRHH6","A38TZK07ON180S","3THR0FZ95PF7SK0MYRNAOUHTWDJOLG","","null","<img src=""img/food2.png"" style=""width:200px; border:14px solid green;"">","null","","","","","","","","","",""
"","image-keyboard-response","188","300022","0.0-278.0","3HQUKB7LNG0X0RT3UVIO1CN9BWRHH6","A38TZK07ON180S","3THR0FZ95PF7SK0MYRNAOUHTWDJOLG","","778.5","img/food3.png","74","779","1","1","","3","1","1,0.5,0,1,0.5,0,0.5,0,1","0,1,0.5,0,1,0.5,1,0.5,0","3",""
"","html-keyboard-response","189","300324","0.0-279.0","3HQUKB7LNG0X0RT3UVIO1CN9BWRHH6","A38TZK07ON180S","3THR0FZ95PF7SK0MYRNAOUHTWDJOLG","","null","<img src=""img/food3.png"" style=""width:200px; border:14px solid green;"">","null","","","","","","","","","",""
"","image-keyboard-response","190","301582","0.0-280.0","3HQUKB7LNG0X0RT3UVIO1CN9BWRHH6","A38TZK07ON180S","3THR0FZ95PF7SK0MYRNAOUHTWDJOLG","","1256.699999988079","img/food2.png","75","1257.3999999761581","2","1","","2","1","1,0.5,0,1,0.5,0,0.5,0,1","0,1,0.5,0,1,0.5,1,0.5,0","3",""
"","html-keyboard-response","191","301883","0.0-281.0","3HQUKB7LNG0X0RT3UVIO1CN9BWRHH6","A38TZK07ON180S","3THR0FZ95PF7SK0MYRNAOUHTWDJOLG","","null","<img src=""img/food2.png"" style=""width:200px; border:14px solid green;"">","null","","","","","","","","","",""
"","image-keyboard-response","192","302423","0.0-282.0","3HQUKB7LNG0X0RT3UVIO1CN9BWRHH6","A38TZK07ON180S","3THR0FZ95PF7SK0MYRNAOUHTWDJOLG","","537.2999999821186","img/food3.png","74","539.1999999880791","1","1","","3","1","1,0.5,0,1,0.5,0,0.5,0,1","0,1,0.5,0,1,0.5,1,0.5,0","3",""
"","html-keyboard-response","193","302726","0.0-283.0","3HQUKB7LNG0X0RT3UVIO1CN9BWRHH6","A38TZK07ON180S","3THR0FZ95PF7SK0MYRNAOUHTWDJOLG","","null","<img src=""img/food3.png"" style=""width:200px; border:14px solid green;"">","null","","","","","","","","","",""
"","image-keyboard-response","194","303742","0.0-284.0","3HQUKB7LNG0X0RT3UVIO1CN9BWRHH6","A38TZK07ON180S","3THR0FZ95PF7SK0MYRNAOUHTWDJOLG","","1013.5","img/food2.png","75","1014.7000000178814","2","1","","2","1","1,0.5,0,1,0.5,0,0.5,0,1","0,1,0.5,0,1,0.5,1,0.5,0","3",""
"","html-keyboard-response","195","304044","0.0-285.0","3HQUKB7LNG0X0RT3UVIO1CN9BWRHH6","A38TZK07ON180S","3THR0FZ95PF7SK0MYRNAOUHTWDJOLG","","null","<img src=""img/food2.png"" style=""width:200px; border:14px solid green;"">","null","","","","","","","","","",""
"","image-keyboard-response","196","304478","0.0-286.0","3HQUKB7LNG0X0RT3UVIO1CN9BWRHH6","A38TZK07ON180S","3THR0FZ95PF7SK0MYRNAOUHTWDJOLG","","433.09999999403954","img/food2.png","75","434","2","1","","2","1","1,0.5,0,1,0.5,0,0.5,0,1","0,1,0.5,0,1,0.5,1,0.5,0","3",""
"","html-keyboard-response","197","304780","0.0-287.0","3HQUKB7LNG0X0RT3UVIO1CN9BWRHH6","A38TZK07ON180S","3THR0FZ95PF7SK0MYRNAOUHTWDJOLG","","null","<img src=""img/food2.png"" style=""width:200px; border:14px solid green;"">","null","","","","","","","","","",""
"","image-keyboard-response","198","305318","0.0-288.0","3HQUKB7LNG0X0RT3UVIO1CN9BWRHH6","A38TZK07ON180S","3THR0FZ95PF7SK0MYRNAOUHTWDJOLG","","537.6000000238419","img/food3.png","74","538.5","1","1","","3","1","1,0.5,0,1,0.5,0,0.5,0,1","0,1,0.5,0,1,0.5,1,0.5,0","3",""
"","html-keyboard-response","199","305620","0.0-289.0","3HQUKB7LNG0X0RT3UVIO1CN9BWRHH6","A38TZK07ON180S","3THR0FZ95PF7SK0MYRNAOUHTWDJOLG","","null","<img src=""img/food3.png"" style=""width:200px; border:14px solid green;"">","null","","","","","","","","","",""
"","image-keyboard-response","200","306286","0.0-290.0","3HQUKB7LNG0X0RT3UVIO1CN9BWRHH6","A38TZK07ON180S","3THR0FZ95PF7SK0MYRNAOUHTWDJOLG","","664.8000000119209","img/food5.png","76","665.5","3","0","","1","1","1,0.5,0,1,0.5,0,0.5,0,1","0,1,0.5,0,1,0.5,1,0.5,0","3",""
"","html-keyboard-response","201","306587","0.0-291.0","3HQUKB7LNG0X0RT3UVIO1CN9BWRHH6","A38TZK07ON180S","3THR0FZ95PF7SK0MYRNAOUHTWDJOLG","","null","<img src=""img/food5.png"" style=""width:200px;border:14px solid red;"">","null","","","","","","","","","",""
"","image-keyboard-response","202","307127","0.0-292.0","3HQUKB7LNG0X0RT3UVIO1CN9BWRHH6","A38TZK07ON180S","3THR0FZ95PF7SK0MYRNAOUHTWDJOLG","","538.5999999940395","img/food5.png","76","539.5999999940395","3","0","","1","1","1,0.5,0,1,0.5,0,0.5,0,1","0,1,0.5,0,1,0.5,1,0.5,0","3",""
"","html-keyboard-response","203","307430","0.0-293.0","3HQUKB7LNG0X0RT3UVIO1CN9BWRHH6","A38TZK07ON180S","3THR0FZ95PF7SK0MYRNAOUHTWDJOLG","","null","<img src=""img/food5.png"" style=""width:200px;border:14px solid red;"">","null","","","","","","","","","",""
"","image-keyboard-response","204","308350","0.0-294.0","3HQUKB7LNG0X0RT3UVIO1CN9BWRHH6","A38TZK07ON180S","3THR0FZ95PF7SK0MYRNAOUHTWDJOLG","","918.7000000178814","img/food3.png","74","919.5","1","1","","3","1","1,0.5,0,1,0.5,0,0.5,0,1","0,1,0.5,0,1,0.5,1,0.5,0","3",""
"","html-keyboard-response","205","308652","0.0-295.0","3HQUKB7LNG0X0RT3UVIO1CN9BWRHH6","A38TZK07ON180S","3THR0FZ95PF7SK0MYRNAOUHTWDJOLG","","null","<img src=""img/food3.png"" style=""width:200px; border:14px solid green;"">","null","","","","","","","","","",""
"","image-keyboard-response","206","309334","0.0-296.0","3HQUKB7LNG0X0RT3UVIO1CN9BWRHH6","A38TZK07ON180S","3THR0FZ95PF7SK0MYRNAOUHTWDJOLG","","681.2000000178814","img/food3.png","74","681.9000000059605","1","1","","3","1","1,0.5,0,1,0.5,0,0.5,0,1","0,1,0.5,0,1,0.5,1,0.5,0","3",""
"","html-keyboard-response","207","309635","0.0-297.0","3HQUKB7LNG0X0RT3UVIO1CN9BWRHH6","A38TZK07ON180S","3THR0FZ95PF7SK0MYRNAOUHTWDJOLG","","null","<img src=""img/food3.png"" style=""width:200px; border:14px solid green;"">","null","","","","","","","","","",""
"","image-keyboard-response","208","310750","0.0-298.0","3HQUKB7LNG0X0RT3UVIO1CN9BWRHH6","A38TZK07ON180S","3THR0FZ95PF7SK0MYRNAOUHTWDJOLG","","1114.300000011921","img/food5.png","75","1115","2","1","","1","1","1,0.5,0,1,0.5,0,0.5,0,1","0,1,0.5,0,1,0.5,1,0.5,0","3",""
"","html-keyboard-response","209","311052","0.0-299.0","3HQUKB7LNG0X0RT3UVIO1CN9BWRHH6","A38TZK07ON180S","3THR0FZ95PF7SK0MYRNAOUHTWDJOLG","","null","<img src=""img/food5.png"" style=""width:200px; border:14px solid green;"">","null","","","","","","","","","",""
"","image-keyboard-response","210","311550","0.0-300.0","3HQUKB7LNG0X0RT3UVIO1CN9BWRHH6","A38TZK07ON180S","3THR0FZ95PF7SK0MYRNAOUHTWDJOLG","","497.09999999403954","img/food5.png","75","497.59999999403954","2","1","","1","1","1,0.5,0,1,0.5,0,0.5,0,1","0,1,0.5,0,1,0.5,1,0.5,0","3",""
"","html-keyboard-response","211","311851","0.0-301.0","3HQUKB7LNG0X0RT3UVIO1CN9BWRHH6","A38TZK07ON180S","3THR0FZ95PF7SK0MYRNAOUHTWDJOLG","","null","<img src=""img/food5.png"" style=""width:200px; border:14px solid green;"">","null","","","","","","","","","",""
"","image-keyboard-response","212","312390","0.0-302.0","3HQUKB7LNG0X0RT3UVIO1CN9BWRHH6","A38TZK07ON180S","3THR0FZ95PF7SK0MYRNAOUHTWDJOLG","","537.5","img/food3.png","74","538.0999999940395","1","1","","3","1","1,0.5,0,1,0.5,0,0.5,0,1","0,1,0.5,0,1,0.5,1,0.5,0","3",""
"","html-keyboard-response","213","312696","0.0-303.0","3HQUKB7LNG0X0RT3UVIO1CN9BWRHH6","A38TZK07ON180S","3THR0FZ95PF7SK0MYRNAOUHTWDJOLG","","null","<img src=""img/food3.png"" style=""width:200px; border:14px solid green;"">","null","","","","","","","","","",""
"","image-keyboard-response","214","313878","0.0-304.0","3HQUKB7LNG0X0RT3UVIO1CN9BWRHH6","A38TZK07ON180S","3THR0FZ95PF7SK0MYRNAOUHTWDJOLG","","1180.300000011921","img/food2.png","75","1181.699999988079","2","1","","2","1","1,0.5,0,1,0.5,0,0.5,0,1","0,1,0.5,0,1,0.5,1,0.5,0","3",""
"","html-keyboard-response","215","314181","0.0-305.0","3HQUKB7LNG0X0RT3UVIO1CN9BWRHH6","A38TZK07ON180S","3THR0FZ95PF7SK0MYRNAOUHTWDJOLG","","null","<img src=""img/food2.png"" style=""width:200px; border:14px solid green;"">","null","","","","","","","","","",""
"","image-keyboard-response","216","314734","0.0-306.0","3HQUKB7LNG0X0RT3UVIO1CN9BWRHH6","A38TZK07ON180S","3THR0FZ95PF7SK0MYRNAOUHTWDJOLG","","551.7999999821186","img/food2.png","75","552.5999999940395","2","1","","2","1","1,0.5,0,1,0.5,0,0.5,0,1","0,1,0.5,0,1,0.5,1,0.5,0","3",""
"","html-keyboard-response","217","315036","0.0-307.0","3HQUKB7LNG0X0RT3UVIO1CN9BWRHH6","A38TZK07ON180S","3THR0FZ95PF7SK0MYRNAOUHTWDJOLG","","null","<img src=""img/food2.png"" style=""width:200px; border:14px solid green;"">","null","","","","","","","","","",""
"","image-keyboard-response","218","315622","0.0-308.0","3HQUKB7LNG0X0RT3UVIO1CN9BWRHH6","A38TZK07ON180S","3THR0FZ95PF7SK0MYRNAOUHTWDJOLG","","585.1999999880791","img/food3.png","74","585.8000000119209","1","1","","3","1","1,0.5,0,1,0.5,0,0.5,0,1","0,1,0.5,0,1,0.5,1,0.5,0","3",""
"","html-keyboard-response","219","315923","0.0-309.0","3HQUKB7LNG0X0RT3UVIO1CN9BWRHH6","A38TZK07ON180S","3THR0FZ95PF7SK0MYRNAOUHTWDJOLG","","null","<img src=""img/food3.png"" style=""width:200px; border:14px solid green;"">","null","","","","","","","","","",""
"","image-keyboard-response","220","316527","0.0-310.0","3HQUKB7LNG0X0RT3UVIO1CN9BWRHH6","A38TZK07ON180S","3THR0FZ95PF7SK0MYRNAOUHTWDJOLG","","601.8999999761581","img/food3.png","74","603.1000000238419","1","1","","3","1","1,0.5,0,1,0.5,0,0.5,0,1","0,1,0.5,0,1,0.5,1,0.5,0","3",""
"","html-keyboard-response","221","316830","0.0-311.0","3HQUKB7LNG0X0RT3UVIO1CN9BWRHH6","A38TZK07ON180S","3THR0FZ95PF7SK0MYRNAOUHTWDJOLG","","null","<img src=""img/food3.png"" style=""width:200px; border:14px solid green;"">","null","","","","","","","","","",""
"","image-keyboard-response","222","317446","0.0-312.0","3HQUKB7LNG0X0RT3UVIO1CN9BWRHH6","A38TZK07ON180S","3THR0FZ95PF7SK0MYRNAOUHTWDJOLG","","614.7000000178814","img/food3.png","74","615.5","1","1","","3","1","1,0.5,0,1,0.5,0,0.5,0,1","0,1,0.5,0,1,0.5,1,0.5,0","3",""
"","html-keyboard-response","223","317748","0.0-313.0","3HQUKB7LNG0X0RT3UVIO1CN9BWRHH6","A38TZK07ON180S","3THR0FZ95PF7SK0MYRNAOUHTWDJOLG","","null","<img src=""img/food3.png"" style=""width:200px; border:14px solid green;"">","null","","","","","","","","","",""
"","image-keyboard-response","224","318358","0.0-314.0","3HQUKB7LNG0X0RT3UVIO1CN9BWRHH6","A38TZK07ON180S","3THR0FZ95PF7SK0MYRNAOUHTWDJOLG","","608.8000000119209","img/food2.png","75","609.5","2","1","","2","1","1,0.5,0,1,0.5,0,0.5,0,1","0,1,0.5,0,1,0.5,1,0.5,0","3",""
"","html-keyboard-response","225","318661","0.0-315.0","3HQUKB7LNG0X0RT3UVIO1CN9BWRHH6","A38TZK07ON180S","3THR0FZ95PF7SK0MYRNAOUHTWDJOLG","","null","<img src=""img/food2.png"" style=""width:200px; border:14px solid green;"">","null","","","","","","","","","",""
"","image-keyboard-response","226","319206","0.0-316.0","3HQUKB7LNG0X0RT3UVIO1CN9BWRHH6","A38TZK07ON180S","3THR0FZ95PF7SK0MYRNAOUHTWDJOLG","","544.1999999880791","img/food3.png","74","545.2999999821186","1","1","","3","1","1,0.5,0,1,0.5,0,0.5,0,1","0,1,0.5,0,1,0.5,1,0.5,0","3",""
"","html-keyboard-response","227","319516","0.0-317.0","3HQUKB7LNG0X0RT3UVIO1CN9BWRHH6","A38TZK07ON180S","3THR0FZ95PF7SK0MYRNAOUHTWDJOLG","","null","<img src=""img/food3.png"" style=""width:200px; border:14px solid green;"">","null","","","","","","","","","",""
"","image-keyboard-response","228","320094","0.0-318.0","3HQUKB7LNG0X0RT3UVIO1CN9BWRHH6","A38TZK07ON180S","3THR0FZ95PF7SK0MYRNAOUHTWDJOLG","","577.0999999940395","img/food5.png","75","577.6999999880791","2","1","","1","1","1,0.5,0,1,0.5,0,0.5,0,1","0,1,0.5,0,1,0.5,1,0.5,0","3",""
"","html-keyboard-response","229","320396","0.0-319.0","3HQUKB7LNG0X0RT3UVIO1CN9BWRHH6","A38TZK07ON180S","3THR0FZ95PF7SK0MYRNAOUHTWDJOLG","","null","<img src=""img/food5.png"" style=""width:200px; border:14px solid green;"">","null","","","","","","","","","",""
"","image-keyboard-response","230","320991","0.0-320.0","3HQUKB7LNG0X0RT3UVIO1CN9BWRHH6","A38TZK07ON180S","3THR0FZ95PF7SK0MYRNAOUHTWDJOLG","","593.7999999821186","img/food2.png","75","595.0999999940395","2","1","","2","1","1,0.5,0,1,0.5,0,0.5,0,1","0,1,0.5,0,1,0.5,1,0.5,0","3",""
"","html-keyboard-response","231","321293","0.0-321.0","3HQUKB7LNG0X0RT3UVIO1CN9BWRHH6","A38TZK07ON180S","3THR0FZ95PF7SK0MYRNAOUHTWDJOLG","","null","<img src=""img/food2.png"" style=""width:200px; border:14px solid green;"">","null","","","","","","","","","",""
"","image-keyboard-response","232","321806","0.0-322.0","3HQUKB7LNG0X0RT3UVIO1CN9BWRHH6","A38TZK07ON180S","3THR0FZ95PF7SK0MYRNAOUHTWDJOLG","","511.30000001192093","img/food2.png","75","512.6999999880791","2","1","","2","1","1,0.5,0,1,0.5,0,0.5,0,1","0,1,0.5,0,1,0.5,1,0.5,0","3",""
"","html-keyboard-response","233","322109","0.0-323.0","3HQUKB7LNG0X0RT3UVIO1CN9BWRHH6","A38TZK07ON180S","3THR0FZ95PF7SK0MYRNAOUHTWDJOLG","","null","<img src=""img/food2.png"" style=""width:200px; border:14px solid green;"">","null","","","","","","","","","",""
"","image-keyboard-response","234","322637","0.0-324.0","3HQUKB7LNG0X0RT3UVIO1CN9BWRHH6","A38TZK07ON180S","3THR0FZ95PF7SK0MYRNAOUHTWDJOLG","","528","img/food2.png","75","528.6999999880791","2","1","","2","1","1,0.5,0,1,0.5,0,0.5,0,1","0,1,0.5,0,1,0.5,1,0.5,0","3",""
"","html-keyboard-response","235","322944","0.0-325.0","3HQUKB7LNG0X0RT3UVIO1CN9BWRHH6","A38TZK07ON180S","3THR0FZ95PF7SK0MYRNAOUHTWDJOLG","","null","<img src=""img/food2.png"" style=""width:200px; border:14px solid green;"">","null","","","","","","","","","",""
"","image-keyboard-response","236","323942","0.0-326.0","3HQUKB7LNG0X0RT3UVIO1CN9BWRHH6","A38TZK07ON180S","3THR0FZ95PF7SK0MYRNAOUHTWDJOLG","","997","img/food5.png","75","997.8000000119209","2","1","","1","1","1,0.5,0,1,0.5,0,0.5,0,1","0,1,0.5,0,1,0.5,1,0.5,0","3",""
"","html-keyboard-response","237","324245","0.0-327.0","3HQUKB7LNG0X0RT3UVIO1CN9BWRHH6","A38TZK07ON180S","3THR0FZ95PF7SK0MYRNAOUHTWDJOLG","","null","<img src=""img/food5.png"" style=""width:200px; border:14px solid green;"">","null","","","","","","","","","",""
"","image-keyboard-response","238","324726","0.0-328.0","3HQUKB7LNG0X0RT3UVIO1CN9BWRHH6","A38TZK07ON180S","3THR0FZ95PF7SK0MYRNAOUHTWDJOLG","","478.69999998807907","img/food5.png","75","480.40000000596046","2","1","","1","1","1,0.5,0,1,0.5,0,0.5,0,1","0,1,0.5,0,1,0.5,1,0.5,0","3",""
"","html-keyboard-response","239","325028","0.0-329.0","3HQUKB7LNG0X0RT3UVIO1CN9BWRHH6","A38TZK07ON180S","3THR0FZ95PF7SK0MYRNAOUHTWDJOLG","","null","<img src=""img/food5.png"" style=""width:200px; border:14px solid green;"">","null","","","","","","","","","",""
"","image-keyboard-response","240","325742","0.0-330.0","3HQUKB7LNG0X0RT3UVIO1CN9BWRHH6","A38TZK07ON180S","3THR0FZ95PF7SK0MYRNAOUHTWDJOLG","","712.9000000059605","img/food2.png","75","713.5999999940395","2","1","","2","1","1,0.5,0,1,0.5,0,0.5,0,1","0,1,0.5,0,1,0.5,1,0.5,0","3",""
"","html-keyboard-response","241","326044","0.0-331.0","3HQUKB7LNG0X0RT3UVIO1CN9BWRHH6","A38TZK07ON180S","3THR0FZ95PF7SK0MYRNAOUHTWDJOLG","","null","<img src=""img/food2.png"" style=""width:200px; border:14px solid green;"">","null","","","","","","","","","",""
"","image-keyboard-response","242","326567","0.0-332.0","3HQUKB7LNG0X0RT3UVIO1CN9BWRHH6","A38TZK07ON180S","3THR0FZ95PF7SK0MYRNAOUHTWDJOLG","","520.2999999821186","img/food5.png","75","521.5999999940395","2","1","","1","1","1,0.5,0,1,0.5,0,0.5,0,1","0,1,0.5,0,1,0.5,1,0.5,0","3",""
"","html-keyboard-response","243","326869","0.0-333.0","3HQUKB7LNG0X0RT3UVIO1CN9BWRHH6","A38TZK07ON180S","3THR0FZ95PF7SK0MYRNAOUHTWDJOLG","","null","<img src=""img/food5.png"" style=""width:200px; border:14px solid green;"">","null","","","","","","","","","",""
"","image-keyboard-response","244","327366","0.0-334.0","3HQUKB7LNG0X0RT3UVIO1CN9BWRHH6","A38TZK07ON180S","3THR0FZ95PF7SK0MYRNAOUHTWDJOLG","","496.10000002384186","img/food5.png","75","497","2","1","","1","1","1,0.5,0,1,0.5,0,0.5,0,1","0,1,0.5,0,1,0.5,1,0.5,0","3",""
"","html-keyboard-response","245","327669","0.0-335.0","3HQUKB7LNG0X0RT3UVIO1CN9BWRHH6","A38TZK07ON180S","3THR0FZ95PF7SK0MYRNAOUHTWDJOLG","","null","<img src=""img/food5.png"" style=""width:200px; border:14px solid green;"">","null","","","","","","","","","",""
"","image-keyboard-response","246","328397","0.0-336.0","3HQUKB7LNG0X0RT3UVIO1CN9BWRHH6","A38TZK07ON180S","3THR0FZ95PF7SK0MYRNAOUHTWDJOLG","","727.8000000119209","img/food3.png","75","728.5","2","1","","3","1","1,0.5,0,1,0.5,0,0.5,0,1","0,1,0.5,0,1,0.5,1,0.5,0","3",""
"","html-keyboard-response","247","328699","0.0-337.0","3HQUKB7LNG0X0RT3UVIO1CN9BWRHH6","A38TZK07ON180S","3THR0FZ95PF7SK0MYRNAOUHTWDJOLG","","null","<img src=""img/food3.png"" style=""width:200px; border:14px solid green;"">","null","","","","","","","","","",""
"","image-keyboard-response","248","329198","0.0-338.0","3HQUKB7LNG0X0RT3UVIO1CN9BWRHH6","A38TZK07ON180S","3THR0FZ95PF7SK0MYRNAOUHTWDJOLG","","498.09999999403954","img/food5.png","75","498.80000001192093","2","1","","1","1","1,0.5,0,1,0.5,0,0.5,0,1","0,1,0.5,0,1,0.5,1,0.5,0","3",""
"","html-keyboard-response","249","329500","0.0-339.0","3HQUKB7LNG0X0RT3UVIO1CN9BWRHH6","A38TZK07ON180S","3THR0FZ95PF7SK0MYRNAOUHTWDJOLG","","null","<img src=""img/food5.png"" style=""width:200px; border:14px solid green;"">","null","","","","","","","","","",""
"","image-keyboard-response","250","329966","0.0-340.0","3HQUKB7LNG0X0RT3UVIO1CN9BWRHH6","A38TZK07ON180S","3THR0FZ95PF7SK0MYRNAOUHTWDJOLG","","465","img/food3.png","75","465.59999999403954","2","0","","3","1","1,0.5,0,1,0.5,0,0.5,0,1","0,1,0.5,0,1,0.5,1,0.5,0","3",""
"","html-keyboard-response","251","330267","0.0-341.0","3HQUKB7LNG0X0RT3UVIO1CN9BWRHH6","A38TZK07ON180S","3THR0FZ95PF7SK0MYRNAOUHTWDJOLG","","null","<img src=""img/food3.png"" style=""width:200px;border:14px solid red;"">","null","","","","","","","","","",""
"","image-keyboard-response","252","331126","0.0-342.0","3HQUKB7LNG0X0RT3UVIO1CN9BWRHH6","A38TZK07ON180S","3THR0FZ95PF7SK0MYRNAOUHTWDJOLG","","857.5","img/food5.png","75","858.2999999821186","2","1","","1","1","1,0.5,0,1,0.5,0,0.5,0,1","0,1,0.5,0,1,0.5,1,0.5,0","3",""
"","html-keyboard-response","253","331427","0.0-343.0","3HQUKB7LNG0X0RT3UVIO1CN9BWRHH6","A38TZK07ON180S","3THR0FZ95PF7SK0MYRNAOUHTWDJOLG","","null","<img src=""img/food5.png"" style=""width:200px; border:14px solid green;"">","null","","","","","","","","","",""
"","image-keyboard-response","254","331950","0.0-344.0","3HQUKB7LNG0X0RT3UVIO1CN9BWRHH6","A38TZK07ON180S","3THR0FZ95PF7SK0MYRNAOUHTWDJOLG","","522","img/food2.png","75","522.7999999821186","2","1","","2","1","1,0.5,0,1,0.5,0,0.5,0,1","0,1,0.5,0,1,0.5,1,0.5,0","3",""
"","html-keyboard-response","255","332253","0.0-345.0","3HQUKB7LNG0X0RT3UVIO1CN9BWRHH6","A38TZK07ON180S","3THR0FZ95PF7SK0MYRNAOUHTWDJOLG","","null","<img src=""img/food2.png"" style=""width:200px; border:14px solid green;"">","null","","","","","","","","","",""
"","image-keyboard-response","256","332742","0.0-346.0","3HQUKB7LNG0X0RT3UVIO1CN9BWRHH6","A38TZK07ON180S","3THR0FZ95PF7SK0MYRNAOUHTWDJOLG","","488.69999998807907","img/food5.png","75","489.5","2","1","","1","1","1,0.5,0,1,0.5,0,0.5,0,1","0,1,0.5,0,1,0.5,1,0.5,0","3",""
"","html-keyboard-response","257","333044","0.0-347.0","3HQUKB7LNG0X0RT3UVIO1CN9BWRHH6","A38TZK07ON180S","3THR0FZ95PF7SK0MYRNAOUHTWDJOLG","","null","<img src=""img/food5.png"" style=""width:200px; border:14px solid green;"">","null","","","","","","","","","",""
"","image-keyboard-response","258","333502","0.0-348.0","3HQUKB7LNG0X0RT3UVIO1CN9BWRHH6","A38TZK07ON180S","3THR0FZ95PF7SK0MYRNAOUHTWDJOLG","","456.5","img/food3.png","74","457.80000001192093","1","1","","3","1","1,0.5,0,1,0.5,0,0.5,0,1","0,1,0.5,0,1,0.5,1,0.5,0","3",""
"","html-keyboard-response","259","333817","0.0-349.0","3HQUKB7LNG0X0RT3UVIO1CN9BWRHH6","A38TZK07ON180S","3THR0FZ95PF7SK0MYRNAOUHTWDJOLG","","null","<img src=""img/food3.png"" style=""width:200px; border:14px solid green;"">","null","","","","","","","","","",""
"","image-keyboard-response","260","334342","0.0-350.0","3HQUKB7LNG0X0RT3UVIO1CN9BWRHH6","A38TZK07ON180S","3THR0FZ95PF7SK0MYRNAOUHTWDJOLG","","522.5999999940395","img/food5.png","75","524.5","2","1","","1","1","1,0.5,0,1,0.5,0,0.5,0,1","0,1,0.5,0,1,0.5,1,0.5,0","3",""
"","html-keyboard-response","261","334643","0.0-351.0","3HQUKB7LNG0X0RT3UVIO1CN9BWRHH6","A38TZK07ON180S","3THR0FZ95PF7SK0MYRNAOUHTWDJOLG","","null","<img src=""img/food5.png"" style=""width:200px; border:14px solid green;"">","null","","","","","","","","","",""
"","image-keyboard-response","262","335214","0.0-352.0","3HQUKB7LNG0X0RT3UVIO1CN9BWRHH6","A38TZK07ON180S","3THR0FZ95PF7SK0MYRNAOUHTWDJOLG","","568.6999999880791","img/food3.png","74","570.1999999880791","1","1","","3","1","1,0.5,0,1,0.5,0,0.5,0,1","0,1,0.5,0,1,0.5,1,0.5,0","3",""
"","html-keyboard-response","263","335517","0.0-353.0","3HQUKB7LNG0X0RT3UVIO1CN9BWRHH6","A38TZK07ON180S","3THR0FZ95PF7SK0MYRNAOUHTWDJOLG","","null","<img src=""img/food3.png"" style=""width:200px; border:14px solid green;"">","null","","","","","","","","","",""
"","image-keyboard-response","264","335998","0.0-354.0","3HQUKB7LNG0X0RT3UVIO1CN9BWRHH6","A38TZK07ON180S","3THR0FZ95PF7SK0MYRNAOUHTWDJOLG","","477.40000000596046","img/food2.png","75","479.80000001192093","2","1","","2","1","1,0.5,0,1,0.5,0,0.5,0,1","0,1,0.5,0,1,0.5,1,0.5,0","3",""
"","html-keyboard-response","265","336300","0.0-355.0","3HQUKB7LNG0X0RT3UVIO1CN9BWRHH6","A38TZK07ON180S","3THR0FZ95PF7SK0MYRNAOUHTWDJOLG","","null","<img src=""img/food2.png"" style=""width:200px; border:14px solid green;"">","null","","","","","","","","","",""
"","image-keyboard-response","266","336822","0.0-356.0","3HQUKB7LNG0X0RT3UVIO1CN9BWRHH6","A38TZK07ON180S","3THR0FZ95PF7SK0MYRNAOUHTWDJOLG","","521.3000000119209","img/food5.png","75","522.2999999821186","2","1","","1","1","1,0.5,0,1,0.5,0,0.5,0,1","0,1,0.5,0,1,0.5,1,0.5,0","3",""
"","html-keyboard-response","267","337124","0.0-357.0","3HQUKB7LNG0X0RT3UVIO1CN9BWRHH6","A38TZK07ON180S","3THR0FZ95PF7SK0MYRNAOUHTWDJOLG","","null","<img src=""img/food5.png"" style=""width:200px; border:14px solid green;"">","null","","","","","","","","","",""
"","image-keyboard-response","268","337590","0.0-358.0","3HQUKB7LNG0X0RT3UVIO1CN9BWRHH6","A38TZK07ON180S","3THR0FZ95PF7SK0MYRNAOUHTWDJOLG","","464.90000000596046","img/food2.png","75","465.80000001192093","2","1","","2","1","1,0.5,0,1,0.5,0,0.5,0,1","0,1,0.5,0,1,0.5,1,0.5,0","3",""
"","html-keyboard-response","269","337910","0.0-359.0","3HQUKB7LNG0X0RT3UVIO1CN9BWRHH6","A38TZK07ON180S","3THR0FZ95PF7SK0MYRNAOUHTWDJOLG","","null","<img src=""img/food2.png"" style=""width:200px; border:14px solid green;"">","null","","","","","","","","","",""
"","image-keyboard-response","270","338391","0.0-360.0","3HQUKB7LNG0X0RT3UVIO1CN9BWRHH6","A38TZK07ON180S","3THR0FZ95PF7SK0MYRNAOUHTWDJOLG","","480","img/food2.png","75","481.19999998807907","2","1","","2","1","1,0.5,0,1,0.5,0,0.5,0,1","0,1,0.5,0,1,0.5,1,0.5,0","3",""
"","html-keyboard-response","271","338693","0.0-361.0","3HQUKB7LNG0X0RT3UVIO1CN9BWRHH6","A38TZK07ON180S","3THR0FZ95PF7SK0MYRNAOUHTWDJOLG","","null","<img src=""img/food2.png"" style=""width:200px; border:14px solid green;"">","null","","","","","","","","","",""
"","image-keyboard-response","272","339192","0.0-362.0","3HQUKB7LNG0X0RT3UVIO1CN9BWRHH6","A38TZK07ON180S","3THR0FZ95PF7SK0MYRNAOUHTWDJOLG","","496.90000000596046","img/food3.png","75","498.19999998807907","2","0","","3","1","1,0.5,0,1,0.5,0,0.5,0,1","0,1,0.5,0,1,0.5,1,0.5,0","3",""
"","html-keyboard-response","273","339494","0.0-363.0","3HQUKB7LNG0X0RT3UVIO1CN9BWRHH6","A38TZK07ON180S","3THR0FZ95PF7SK0MYRNAOUHTWDJOLG","","null","<img src=""img/food3.png"" style=""width:200px;border:14px solid red;"">","null","","","","","","","","","",""
"","image-keyboard-response","274","339927","0.0-364.0","3HQUKB7LNG0X0RT3UVIO1CN9BWRHH6","A38TZK07ON180S","3THR0FZ95PF7SK0MYRNAOUHTWDJOLG","","431.69999998807907","img/food5.png","75","432.69999998807907","2","1","","1","1","1,0.5,0,1,0.5,0,0.5,0,1","0,1,0.5,0,1,0.5,1,0.5,0","3",""
"","html-keyboard-response","275","340242","0.0-365.0","3HQUKB7LNG0X0RT3UVIO1CN9BWRHH6","A38TZK07ON180S","3THR0FZ95PF7SK0MYRNAOUHTWDJOLG","","null","<img src=""img/food5.png"" style=""width:200px; border:14px solid green;"">","null","","","","","","","","","",""
"","image-keyboard-response","276","340799","0.0-366.0","3HQUKB7LNG0X0RT3UVIO1CN9BWRHH6","A38TZK07ON180S","3THR0FZ95PF7SK0MYRNAOUHTWDJOLG","","556","img/food2.png","75","557.0999999940395","2","1","","2","1","1,0.5,0,1,0.5,0,0.5,0,1","0,1,0.5,0,1,0.5,1,0.5,0","3",""
"","html-keyboard-response","277","341116","0.0-367.0","3HQUKB7LNG0X0RT3UVIO1CN9BWRHH6","A38TZK07ON180S","3THR0FZ95PF7SK0MYRNAOUHTWDJOLG","","null","<img src=""img/food2.png"" style=""width:200px; border:14px solid green;"">","null","","","","","","","","","",""
"","image-keyboard-response","278","341623","0.0-368.0","3HQUKB7LNG0X0RT3UVIO1CN9BWRHH6","A38TZK07ON180S","3THR0FZ95PF7SK0MYRNAOUHTWDJOLG","","505.7999999821186","img/food3.png","74","506.5","1","1","","3","1","1,0.5,0,1,0.5,0,0.5,0,1","0,1,0.5,0,1,0.5,1,0.5,0","3",""
"","html-keyboard-response","279","341927","0.0-369.0","3HQUKB7LNG0X0RT3UVIO1CN9BWRHH6","A38TZK07ON180S","3THR0FZ95PF7SK0MYRNAOUHTWDJOLG","","null","<img src=""img/food3.png"" style=""width:200px; border:14px solid green;"">","null","","","","","","","","","",""
"","image-keyboard-response","280","342343","0.0-370.0","3HQUKB7LNG0X0RT3UVIO1CN9BWRHH6","A38TZK07ON180S","3THR0FZ95PF7SK0MYRNAOUHTWDJOLG","","415.09999999403954","img/food3.png","74","416.59999999403954","1","1","","3","1","1,0.5,0,1,0.5,0,0.5,0,1","0,1,0.5,0,1,0.5,1,0.5,0","3",""
"","html-keyboard-response","281","342646","0.0-371.0","3HQUKB7LNG0X0RT3UVIO1CN9BWRHH6","A38TZK07ON180S","3THR0FZ95PF7SK0MYRNAOUHTWDJOLG","","null","<img src=""img/food3.png"" style=""width:200px; border:14px solid green;"">","null","","","","","","","","","",""
"","image-keyboard-response","282","343120","0.0-372.0","3HQUKB7LNG0X0RT3UVIO1CN9BWRHH6","A38TZK07ON180S","3THR0FZ95PF7SK0MYRNAOUHTWDJOLG","","472.59999999403954","img/food5.png","75","474.09999999403954","2","1","","1","1","1,0.5,0,1,0.5,0,0.5,0,1","0,1,0.5,0,1,0.5,1,0.5,0","3",""
"","html-keyboard-response","283","343423","0.0-373.0","3HQUKB7LNG0X0RT3UVIO1CN9BWRHH6","A38TZK07ON180S","3THR0FZ95PF7SK0MYRNAOUHTWDJOLG","","null","<img src=""img/food5.png"" style=""width:200px; border:14px solid green;"">","null","","","","","","","","","",""
"","image-keyboard-response","284","343959","0.0-374.0","3HQUKB7LNG0X0RT3UVIO1CN9BWRHH6","A38TZK07ON180S","3THR0FZ95PF7SK0MYRNAOUHTWDJOLG","","534.1999999880791","img/food2.png","75","535.4000000059605","2","1","","2","1","1,0.5,0,1,0.5,0,0.5,0,1","0,1,0.5,0,1,0.5,1,0.5,0","3",""
"","html-keyboard-response","285","344261","0.0-375.0","3HQUKB7LNG0X0RT3UVIO1CN9BWRHH6","A38TZK07ON180S","3THR0FZ95PF7SK0MYRNAOUHTWDJOLG","","null","<img src=""img/food2.png"" style=""width:200px; border:14px solid green;"">","null","","","","","","","","","",""
"","image-keyboard-response","286","344783","0.0-376.0","3HQUKB7LNG0X0RT3UVIO1CN9BWRHH6","A38TZK07ON180S","3THR0FZ95PF7SK0MYRNAOUHTWDJOLG","","520.3000000119209","img/food2.png","75","521.2999999821186","2","1","","2","1","1,0.5,0,1,0.5,0,0.5,0,1","0,1,0.5,0,1,0.5,1,0.5,0","3",""
"","html-keyboard-response","287","345085","0.0-377.0","3HQUKB7LNG0X0RT3UVIO1CN9BWRHH6","A38TZK07ON180S","3THR0FZ95PF7SK0MYRNAOUHTWDJOLG","","null","<img src=""img/food2.png"" style=""width:200px; border:14px solid green;"">","null","","","","","","","","","",""
"","image-keyboard-response","288","345606","0.0-378.0","3HQUKB7LNG0X0RT3UVIO1CN9BWRHH6","A38TZK07ON180S","3THR0FZ95PF7SK0MYRNAOUHTWDJOLG","","520.1000000238419","img/food5.png","75","520.9000000059605","2","1","","1","1","1,0.5,0,1,0.5,0,0.5,0,1","0,1,0.5,0,1,0.5,1,0.5,0","3",""
"","html-keyboard-response","289","345909","0.0-379.0","3HQUKB7LNG0X0RT3UVIO1CN9BWRHH6","A38TZK07ON180S","3THR0FZ95PF7SK0MYRNAOUHTWDJOLG","","null","<img src=""img/food5.png"" style=""width:200px; border:14px solid green;"">","null","","","","","","","","","",""
"","image-keyboard-response","290","346399","0.0-380.0","3HQUKB7LNG0X0RT3UVIO1CN9BWRHH6","A38TZK07ON180S","3THR0FZ95PF7SK0MYRNAOUHTWDJOLG","","488.90000000596046","img/food5.png","75","489.5","2","1","","1","1","1,0.5,0,1,0.5,0,0.5,0,1","0,1,0.5,0,1,0.5,1,0.5,0","3",""
"","html-keyboard-response","291","346700","0.0-381.0","3HQUKB7LNG0X0RT3UVIO1CN9BWRHH6","A38TZK07ON180S","3THR0FZ95PF7SK0MYRNAOUHTWDJOLG","","null","<img src=""img/food5.png"" style=""width:200px; border:14px solid green;"">","null","","","","","","","","","",""
"","image-keyboard-response","292","347232","0.0-382.0","3HQUKB7LNG0X0RT3UVIO1CN9BWRHH6","A38TZK07ON180S","3THR0FZ95PF7SK0MYRNAOUHTWDJOLG","","530.5999999940395","img/food5.png","75","531.7000000178814","2","1","","1","1","1,0.5,0,1,0.5,0,0.5,0,1","0,1,0.5,0,1,0.5,1,0.5,0","3",""
"","html-keyboard-response","293","347534","0.0-383.0","3HQUKB7LNG0X0RT3UVIO1CN9BWRHH6","A38TZK07ON180S","3THR0FZ95PF7SK0MYRNAOUHTWDJOLG","","null","<img src=""img/food5.png"" style=""width:200px; border:14px solid green;"">","null","","","","","","","","","",""
"","image-keyboard-response","294","347983","0.0-384.0","3HQUKB7LNG0X0RT3UVIO1CN9BWRHH6","A38TZK07ON180S","3THR0FZ95PF7SK0MYRNAOUHTWDJOLG","","447.40000000596046","img/food3.png","74","448.5","1","1","","3","1","1,0.5,0,1,0.5,0,0.5,0,1","0,1,0.5,0,1,0.5,1,0.5,0","3",""
"","html-keyboard-response","295","348290","0.0-385.0","3HQUKB7LNG0X0RT3UVIO1CN9BWRHH6","A38TZK07ON180S","3THR0FZ95PF7SK0MYRNAOUHTWDJOLG","","null","<img src=""img/food3.png"" style=""width:200px; border:14px solid green;"">","null","","","","","","","","","",""
"","image-keyboard-response","296","348823","0.0-386.0","3HQUKB7LNG0X0RT3UVIO1CN9BWRHH6","A38TZK07ON180S","3THR0FZ95PF7SK0MYRNAOUHTWDJOLG","","531.1999999880791","img/food5.png","75","532.8999999761581","2","1","","1","1","1,0.5,0,1,0.5,0,0.5,0,1","0,1,0.5,0,1,0.5,1,0.5,0","3",""
"","html-keyboard-response","297","349125","0.0-387.0","3HQUKB7LNG0X0RT3UVIO1CN9BWRHH6","A38TZK07ON180S","3THR0FZ95PF7SK0MYRNAOUHTWDJOLG","","null","<img src=""img/food5.png"" style=""width:200px; border:14px solid green;"">","null","","","","","","","","","",""
"","image-keyboard-response","298","350038","0.0-388.0","3HQUKB7LNG0X0RT3UVIO1CN9BWRHH6","A38TZK07ON180S","3THR0FZ95PF7SK0MYRNAOUHTWDJOLG","","911.3999999761581","img/food3.png","74","912.5999999940395","1","1","","3","1","1,0.5,0,1,0.5,0,0.5,0,1","0,1,0.5,0,1,0.5,1,0.5,0","3",""
"","html-keyboard-response","299","350341","0.0-389.0","3HQUKB7LNG0X0RT3UVIO1CN9BWRHH6","A38TZK07ON180S","3THR0FZ95PF7SK0MYRNAOUHTWDJOLG","","null","<img src=""img/food3.png"" style=""width:200px; border:14px solid green;"">","null","","","","","","","","","",""
"","image-keyboard-response","300","351120","0.0-390.0","3HQUKB7LNG0X0RT3UVIO1CN9BWRHH6","A38TZK07ON180S","3THR0FZ95PF7SK0MYRNAOUHTWDJOLG","","777.9000000059605","img/food2.png","75","779","2","1","","2","1","1,0.5,0,1,0.5,0,0.5,0,1","0,1,0.5,0,1,0.5,1,0.5,0","3",""
"","html-keyboard-response","301","351437","0.0-391.0","3HQUKB7LNG0X0RT3UVIO1CN9BWRHH6","A38TZK07ON180S","3THR0FZ95PF7SK0MYRNAOUHTWDJOLG","","null","<img src=""img/food2.png"" style=""width:200px; border:14px solid green;"">","null","","","","","","","","","",""
"","image-keyboard-response","302","353455","0.0-392.0","3HQUKB7LNG0X0RT3UVIO1CN9BWRHH6","A38TZK07ON180S","3THR0FZ95PF7SK0MYRNAOUHTWDJOLG","","2017.4000000059605","img/food5.png","75","2018.5999999940395","2","1","","1","1","1,0.5,0,1,0.5,0,0.5,0,1","0,1,0.5,0,1,0.5,1,0.5,0","3",""
"","html-keyboard-response","303","353758","0.0-393.0","3HQUKB7LNG0X0RT3UVIO1CN9BWRHH6","A38TZK07ON180S","3THR0FZ95PF7SK0MYRNAOUHTWDJOLG","","null","<img src=""img/food5.png"" style=""width:200px; border:14px solid green;"">","null","","","","","","","","","",""
"","image-keyboard-response","304","354375","0.0-394.0","3HQUKB7LNG0X0RT3UVIO1CN9BWRHH6","A38TZK07ON180S","3THR0FZ95PF7SK0MYRNAOUHTWDJOLG","","615.4000000059605","img/food3.png","74","616.6000000238419","1","1","","3","1","1,0.5,0,1,0.5,0,0.5,0,1","0,1,0.5,0,1,0.5,1,0.5,0","3",""
"","html-keyboard-response","305","354677","0.0-395.0","3HQUKB7LNG0X0RT3UVIO1CN9BWRHH6","A38TZK07ON180S","3THR0FZ95PF7SK0MYRNAOUHTWDJOLG","","null","<img src=""img/food3.png"" style=""width:200px; border:14px solid green;"">","null","","","","","","","","","",""
"","image-keyboard-response","306","355303","0.0-396.0","3HQUKB7LNG0X0RT3UVIO1CN9BWRHH6","A38TZK07ON180S","3THR0FZ95PF7SK0MYRNAOUHTWDJOLG","","623.7000000178814","img/food2.png","75","625.0999999940395","2","1","","2","1","1,0.5,0,1,0.5,0,0.5,0,1","0,1,0.5,0,1,0.5,1,0.5,0","3",""
"","html-keyboard-response","307","355604","0.0-397.0","3HQUKB7LNG0X0RT3UVIO1CN9BWRHH6","A38TZK07ON180S","3THR0FZ95PF7SK0MYRNAOUHTWDJOLG","","null","<img src=""img/food2.png"" style=""width:200px; border:14px solid green;"">","null","","","","","","","","","",""
"","image-keyboard-response","308","356136","0.0-398.0","3HQUKB7LNG0X0RT3UVIO1CN9BWRHH6","A38TZK07ON180S","3THR0FZ95PF7SK0MYRNAOUHTWDJOLG","","530.9000000059605","img/food5.png","75","532.3000000119209","2","1","","1","1","1,0.5,0,1,0.5,0,0.5,0,1","0,1,0.5,0,1,0.5,1,0.5,0","3",""
"","html-keyboard-response","309","356440","0.0-399.0","3HQUKB7LNG0X0RT3UVIO1CN9BWRHH6","A38TZK07ON180S","3THR0FZ95PF7SK0MYRNAOUHTWDJOLG","","null","<img src=""img/food5.png"" style=""width:200px; border:14px solid green;"">","null","","","","","","","","","",""
"","image-keyboard-response","310","357041","0.0-400.0","3HQUKB7LNG0X0RT3UVIO1CN9BWRHH6","A38TZK07ON180S","3THR0FZ95PF7SK0MYRNAOUHTWDJOLG","","598.8000000119209","img/food5.png","75","600.9000000059605","2","1","","1","1","1,0.5,0,1,0.5,0,0.5,0,1","0,1,0.5,0,1,0.5,1,0.5,0","3",""
"","html-keyboard-response","311","357344","0.0-401.0","3HQUKB7LNG0X0RT3UVIO1CN9BWRHH6","A38TZK07ON180S","3THR0FZ95PF7SK0MYRNAOUHTWDJOLG","","null","<img src=""img/food5.png"" style=""width:200px; border:14px solid green;"">","null","","","","","","","","","",""
"","image-keyboard-response","312","358176","0.0-402.0","3HQUKB7LNG0X0RT3UVIO1CN9BWRHH6","A38TZK07ON180S","3THR0FZ95PF7SK0MYRNAOUHTWDJOLG","","829.7999999821186","img/food2.png","75","831.3000000119209","2","1","","2","1","1,0.5,0,1,0.5,0,0.5,0,1","0,1,0.5,0,1,0.5,1,0.5,0","3",""
"","html-keyboard-response","313","358479","0.0-403.0","3HQUKB7LNG0X0RT3UVIO1CN9BWRHH6","A38TZK07ON180S","3THR0FZ95PF7SK0MYRNAOUHTWDJOLG","","null","<img src=""img/food2.png"" style=""width:200px; border:14px solid green;"">","null","","","","","","","","","",""
"","image-keyboard-response","314","358911","0.0-404.0","3HQUKB7LNG0X0RT3UVIO1CN9BWRHH6","A38TZK07ON180S","3THR0FZ95PF7SK0MYRNAOUHTWDJOLG","","431","img/food2.png","75","431.7000000178814","2","1","","2","1","1,0.5,0,1,0.5,0,0.5,0,1","0,1,0.5,0,1,0.5,1,0.5,0","3",""
"","html-keyboard-response","315","359212","0.0-405.0","3HQUKB7LNG0X0RT3UVIO1CN9BWRHH6","A38TZK07ON180S","3THR0FZ95PF7SK0MYRNAOUHTWDJOLG","","null","<img src=""img/food2.png"" style=""width:200px; border:14px solid green;"">","null","","","","","","","","","",""
"","image-keyboard-response","316","359886","0.0-406.0","3HQUKB7LNG0X0RT3UVIO1CN9BWRHH6","A38TZK07ON180S","3THR0FZ95PF7SK0MYRNAOUHTWDJOLG","","672.7999999821186","img/food5.png","75","673.8000000119209","2","1","","1","1","1,0.5,0,1,0.5,0,0.5,0,1","0,1,0.5,0,1,0.5,1,0.5,0","3",""
"","html-keyboard-response","317","360188","0.0-407.0","3HQUKB7LNG0X0RT3UVIO1CN9BWRHH6","A38TZK07ON180S","3THR0FZ95PF7SK0MYRNAOUHTWDJOLG","","null","<img src=""img/food5.png"" style=""width:200px; border:14px solid green;"">","null","","","","","","","","","",""
"","image-keyboard-response","318","360863","0.0-408.0","3HQUKB7LNG0X0RT3UVIO1CN9BWRHH6","A38TZK07ON180S","3THR0FZ95PF7SK0MYRNAOUHTWDJOLG","","673.3999999761581","img/food3.png","74","674.4000000059605","1","1","","3","1","1,0.5,0,1,0.5,0,0.5,0,1","0,1,0.5,0,1,0.5,1,0.5,0","3",""
"","html-keyboard-response","319","361165","0.0-409.0","3HQUKB7LNG0X0RT3UVIO1CN9BWRHH6","A38TZK07ON180S","3THR0FZ95PF7SK0MYRNAOUHTWDJOLG","","null","<img src=""img/food3.png"" style=""width:200px; border:14px solid green;"">","null","","","","","","","","","",""
"","image-keyboard-response","320","361735","0.0-410.0","3HQUKB7LNG0X0RT3UVIO1CN9BWRHH6","A38TZK07ON180S","3THR0FZ95PF7SK0MYRNAOUHTWDJOLG","","568.5999999940395","img/food2.png","75","569.5999999940395","2","1","","2","1","1,0.5,0,1,0.5,0,0.5,0,1","0,1,0.5,0,1,0.5,1,0.5,0","3",""
"","html-keyboard-response","321","362036","0.0-411.0","3HQUKB7LNG0X0RT3UVIO1CN9BWRHH6","A38TZK07ON180S","3THR0FZ95PF7SK0MYRNAOUHTWDJOLG","","null","<img src=""img/food2.png"" style=""width:200px; border:14px solid green;"">","null","","","","","","","","","",""
"","image-keyboard-response","322","362911","0.0-412.0","3HQUKB7LNG0X0RT3UVIO1CN9BWRHH6","A38TZK07ON180S","3THR0FZ95PF7SK0MYRNAOUHTWDJOLG","","872.3000000119209","img/food3.png","74","874.2000000178814","1","1","","3","1","1,0.5,0,1,0.5,0,0.5,0,1","0,1,0.5,0,1,0.5,1,0.5,0","3",""
"","html-keyboard-response","323","363214","0.0-413.0","3HQUKB7LNG0X0RT3UVIO1CN9BWRHH6","A38TZK07ON180S","3THR0FZ95PF7SK0MYRNAOUHTWDJOLG","","null","<img src=""img/food3.png"" style=""width:200px; border:14px solid green;"">","null","","","","","","","","","",""
"","image-keyboard-response","324","363766","0.0-414.0","3HQUKB7LNG0X0RT3UVIO1CN9BWRHH6","A38TZK07ON180S","3THR0FZ95PF7SK0MYRNAOUHTWDJOLG","","551.5999999940395","img/food3.png","74","552.4000000059605","1","1","","3","1","1,0.5,0,1,0.5,0,0.5,0,1","0,1,0.5,0,1,0.5,1,0.5,0","3",""
"","html-keyboard-response","325","364068","0.0-415.0","3HQUKB7LNG0X0RT3UVIO1CN9BWRHH6","A38TZK07ON180S","3THR0FZ95PF7SK0MYRNAOUHTWDJOLG","","null","<img src=""img/food3.png"" style=""width:200px; border:14px solid green;"">","null","","","","","","","","","",""
"","image-keyboard-response","326","364567","0.0-416.0","3HQUKB7LNG0X0RT3UVIO1CN9BWRHH6","A38TZK07ON180S","3THR0FZ95PF7SK0MYRNAOUHTWDJOLG","","498.30000001192093","img/food5.png","75","499.09999999403954","2","1","","1","1","1,0.5,0,1,0.5,0,0.5,0,1","0,1,0.5,0,1,0.5,1,0.5,0","3",""
"","html-keyboard-response","327","364869","0.0-417.0","3HQUKB7LNG0X0RT3UVIO1CN9BWRHH6","A38TZK07ON180S","3THR0FZ95PF7SK0MYRNAOUHTWDJOLG","","null","<img src=""img/food5.png"" style=""width:200px; border:14px solid green;"">","null","","","","","","","","","",""
"","image-keyboard-response","328","365407","0.0-418.0","3HQUKB7LNG0X0RT3UVIO1CN9BWRHH6","A38TZK07ON180S","3THR0FZ95PF7SK0MYRNAOUHTWDJOLG","","536.5","img/food2.png","75","537.2999999821186","2","1","","2","1","1,0.5,0,1,0.5,0,0.5,0,1","0,1,0.5,0,1,0.5,1,0.5,0","3",""
"","html-keyboard-response","329","365708","0.0-419.0","3HQUKB7LNG0X0RT3UVIO1CN9BWRHH6","A38TZK07ON180S","3THR0FZ95PF7SK0MYRNAOUHTWDJOLG","","null","<img src=""img/food2.png"" style=""width:200px; border:14px solid green;"">","null","","","","","","","","","",""
"","image-keyboard-response","330","366222","0.0-420.0","3HQUKB7LNG0X0RT3UVIO1CN9BWRHH6","A38TZK07ON180S","3THR0FZ95PF7SK0MYRNAOUHTWDJOLG","","513.2999999821186","img/food3.png","74","514.1000000238419","1","1","","3","1","1,0.5,0,1,0.5,0,0.5,0,1","0,1,0.5,0,1,0.5,1,0.5,0","3",""
"","html-keyboard-response","331","366524","0.0-421.0","3HQUKB7LNG0X0RT3UVIO1CN9BWRHH6","A38TZK07ON180S","3THR0FZ95PF7SK0MYRNAOUHTWDJOLG","","null","<img src=""img/food3.png"" style=""width:200px; border:14px solid green;"">","null","","","","","","","","","",""
"","image-keyboard-response","332","366998","0.0-422.0","3HQUKB7LNG0X0RT3UVIO1CN9BWRHH6","A38TZK07ON180S","3THR0FZ95PF7SK0MYRNAOUHTWDJOLG","","472.59999999403954","img/food5.png","75","473.69999998807907","2","1","","1","1","1,0.5,0,1,0.5,0,0.5,0,1","0,1,0.5,0,1,0.5,1,0.5,0","3",""
"","html-keyboard-response","333","367300","0.0-423.0","3HQUKB7LNG0X0RT3UVIO1CN9BWRHH6","A38TZK07ON180S","3THR0FZ95PF7SK0MYRNAOUHTWDJOLG","","null","<img src=""img/food5.png"" style=""width:200px; border:14px solid green;"">","null","","","","","","","","","",""
"","image-keyboard-response","334","367759","0.0-424.0","3HQUKB7LNG0X0RT3UVIO1CN9BWRHH6","A38TZK07ON180S","3THR0FZ95PF7SK0MYRNAOUHTWDJOLG","","457.59999999403954","img/food5.png","75","458.5","2","1","","1","1","1,0.5,0,1,0.5,0,0.5,0,1","0,1,0.5,0,1,0.5,1,0.5,0","3",""
"","html-keyboard-response","335","368060","0.0-425.0","3HQUKB7LNG0X0RT3UVIO1CN9BWRHH6","A38TZK07ON180S","3THR0FZ95PF7SK0MYRNAOUHTWDJOLG","","null","<img src=""img/food5.png"" style=""width:200px; border:14px solid green;"">","null","","","","","","","","","",""
"","image-keyboard-response","336","368647","0.0-426.0","3HQUKB7LNG0X0RT3UVIO1CN9BWRHH6","A38TZK07ON180S","3THR0FZ95PF7SK0MYRNAOUHTWDJOLG","","585.5999999940395","img/food2.png","75","586.7999999821186","2","1","","2","1","1,0.5,0,1,0.5,0,0.5,0,1","0,1,0.5,0,1,0.5,1,0.5,0","3",""
"","html-keyboard-response","337","368950","0.0-427.0","3HQUKB7LNG0X0RT3UVIO1CN9BWRHH6","A38TZK07ON180S","3THR0FZ95PF7SK0MYRNAOUHTWDJOLG","","null","<img src=""img/food2.png"" style=""width:200px; border:14px solid green;"">","null","","","","","","","","","",""
"","image-keyboard-response","338","369384","0.0-428.0","3HQUKB7LNG0X0RT3UVIO1CN9BWRHH6","A38TZK07ON180S","3THR0FZ95PF7SK0MYRNAOUHTWDJOLG","","432.69999998807907","img/food3.png","74","434.40000000596046","1","1","","3","1","1,0.5,0,1,0.5,0,0.5,0,1","0,1,0.5,0,1,0.5,1,0.5,0","3",""
"","html-keyboard-response","339","369688","0.0-429.0","3HQUKB7LNG0X0RT3UVIO1CN9BWRHH6","A38TZK07ON180S","3THR0FZ95PF7SK0MYRNAOUHTWDJOLG","","null","<img src=""img/food3.png"" style=""width:200px; border:14px solid green;"">","null","","","","","","","","","",""
"","image-keyboard-response","340","370215","0.0-430.0","3HQUKB7LNG0X0RT3UVIO1CN9BWRHH6","A38TZK07ON180S","3THR0FZ95PF7SK0MYRNAOUHTWDJOLG","","524.3000000119209","img/food2.png","75","526.0999999940395","2","1","","2","1","1,0.5,0,1,0.5,0,0.5,0,1","0,1,0.5,0,1,0.5,1,0.5,0","3",""
"","html-keyboard-response","341","370518","0.0-431.0","3HQUKB7LNG0X0RT3UVIO1CN9BWRHH6","A38TZK07ON180S","3THR0FZ95PF7SK0MYRNAOUHTWDJOLG","","null","<img src=""img/food2.png"" style=""width:200px; border:14px solid green;"">","null","","","","","","","","","",""
"","image-keyboard-response","342","371094","0.0-432.0","3HQUKB7LNG0X0RT3UVIO1CN9BWRHH6","A38TZK07ON180S","3THR0FZ95PF7SK0MYRNAOUHTWDJOLG","","575.6999999880791","img/food3.png","74","576.5","1","1","","3","1","1,0.5,0,1,0.5,0,0.5,0,1","0,1,0.5,0,1,0.5,1,0.5,0","3",""
"","html-keyboard-response","343","371400","0.0-433.0","3HQUKB7LNG0X0RT3UVIO1CN9BWRHH6","A38TZK07ON180S","3THR0FZ95PF7SK0MYRNAOUHTWDJOLG","","null","<img src=""img/food3.png"" style=""width:200px; border:14px solid green;"">","null","","","","","","","","","",""
"","image-keyboard-response","344","372118","0.0-434.0","3HQUKB7LNG0X0RT3UVIO1CN9BWRHH6","A38TZK07ON180S","3THR0FZ95PF7SK0MYRNAOUHTWDJOLG","","717.0999999940395","img/food2.png","75","718.0999999940395","2","1","","2","1","1,0.5,0,1,0.5,0,0.5,0,1","0,1,0.5,0,1,0.5,1,0.5,0","3",""
"","html-keyboard-response","345","372420","0.0-435.0","3HQUKB7LNG0X0RT3UVIO1CN9BWRHH6","A38TZK07ON180S","3THR0FZ95PF7SK0MYRNAOUHTWDJOLG","","null","<img src=""img/food2.png"" style=""width:200px; border:14px solid green;"">","null","","","","","","","","","",""
"","image-keyboard-response","346","372846","0.0-436.0","3HQUKB7LNG0X0RT3UVIO1CN9BWRHH6","A38TZK07ON180S","3THR0FZ95PF7SK0MYRNAOUHTWDJOLG","","425","img/food5.png","75","426.19999998807907","2","1","","1","1","1,0.5,0,1,0.5,0,0.5,0,1","0,1,0.5,0,1,0.5,1,0.5,0","3",""
"","html-keyboard-response","347","373149","0.0-437.0","3HQUKB7LNG0X0RT3UVIO1CN9BWRHH6","A38TZK07ON180S","3THR0FZ95PF7SK0MYRNAOUHTWDJOLG","","null","<img src=""img/food5.png"" style=""width:200px; border:14px solid green;"">","null","","","","","","","","","",""
"","image-keyboard-response","348","373511","0.0-438.0","3HQUKB7LNG0X0RT3UVIO1CN9BWRHH6","A38TZK07ON180S","3THR0FZ95PF7SK0MYRNAOUHTWDJOLG","","361.09999999403954","img/food5.png","75","362","2","1","","1","1","1,0.5,0,1,0.5,0,0.5,0,1","0,1,0.5,0,1,0.5,1,0.5,0","3",""
"","html-keyboard-response","349","373814","0.0-439.0","3HQUKB7LNG0X0RT3UVIO1CN9BWRHH6","A38TZK07ON180S","3THR0FZ95PF7SK0MYRNAOUHTWDJOLG","","null","<img src=""img/food5.png"" style=""width:200px; border:14px solid green;"">","null","","","","","","","","","",""
"","image-keyboard-response","350","374479","0.0-440.0","3HQUKB7LNG0X0RT3UVIO1CN9BWRHH6","A38TZK07ON180S","3THR0FZ95PF7SK0MYRNAOUHTWDJOLG","","663.8000000119209","img/food3.png","74","664.9000000059605","1","1","","3","1","1,0.5,0,1,0.5,0,0.5,0,1","0,1,0.5,0,1,0.5,1,0.5,0","3",""
"","html-keyboard-response","351","374784","0.0-441.0","3HQUKB7LNG0X0RT3UVIO1CN9BWRHH6","A38TZK07ON180S","3THR0FZ95PF7SK0MYRNAOUHTWDJOLG","","null","<img src=""img/food3.png"" style=""width:200px; border:14px solid green;"">","null","","","","","","","","","",""
"","image-keyboard-response","352","375335","0.0-442.0","3HQUKB7LNG0X0RT3UVIO1CN9BWRHH6","A38TZK07ON180S","3THR0FZ95PF7SK0MYRNAOUHTWDJOLG","","549.1999999880791","img/food2.png","75","550.6999999880791","2","1","","2","1","1,0.5,0,1,0.5,0,0.5,0,1","0,1,0.5,0,1,0.5,1,0.5,0","3",""
"","html-keyboard-response","353","375640","0.0-443.0","3HQUKB7LNG0X0RT3UVIO1CN9BWRHH6","A38TZK07ON180S","3THR0FZ95PF7SK0MYRNAOUHTWDJOLG","","null","<img src=""img/food2.png"" style=""width:200px; border:14px solid green;"">","null","","","","","","","","","",""
"","image-keyboard-response","354","376199","0.0-444.0","3HQUKB7LNG0X0RT3UVIO1CN9BWRHH6","A38TZK07ON180S","3THR0FZ95PF7SK0MYRNAOUHTWDJOLG","","557.8000000119209","img/food3.png","74","558.8000000119209","1","1","","3","1","1,0.5,0,1,0.5,0,0.5,0,1","0,1,0.5,0,1,0.5,1,0.5,0","3",""
"","html-keyboard-response","355","376502","0.0-445.0","3HQUKB7LNG0X0RT3UVIO1CN9BWRHH6","A38TZK07ON180S","3THR0FZ95PF7SK0MYRNAOUHTWDJOLG","","null","<img src=""img/food3.png"" style=""width:200px; border:14px solid green;"">","null","","","","","","","","","",""
"","image-keyboard-response","356","376934","0.0-446.0","3HQUKB7LNG0X0RT3UVIO1CN9BWRHH6","A38TZK07ON180S","3THR0FZ95PF7SK0MYRNAOUHTWDJOLG","","431.2999999821186","img/food2.png","75","432.09999999403954","2","1","","2","1","1,0.5,0,1,0.5,0,0.5,0,1","0,1,0.5,0,1,0.5,1,0.5,0","3",""
"","html-keyboard-response","357","377235","0.0-447.0","3HQUKB7LNG0X0RT3UVIO1CN9BWRHH6","A38TZK07ON180S","3THR0FZ95PF7SK0MYRNAOUHTWDJOLG","","null","<img src=""img/food2.png"" style=""width:200px; border:14px solid green;"">","null","","","","","","","","","",""
"","image-keyboard-response","358","377591","0.0-448.0","3HQUKB7LNG0X0RT3UVIO1CN9BWRHH6","A38TZK07ON180S","3THR0FZ95PF7SK0MYRNAOUHTWDJOLG","","354.89999997615814","img/food2.png","75","355.7999999821186","2","1","","2","1","1,0.5,0,1,0.5,0,0.5,0,1","0,1,0.5,0,1,0.5,1,0.5,0","3",""
"","html-keyboard-response","359","377895","0.0-449.0","3HQUKB7LNG0X0RT3UVIO1CN9BWRHH6","A38TZK07ON180S","3THR0FZ95PF7SK0MYRNAOUHTWDJOLG","","null","<img src=""img/food2.png"" style=""width:200px; border:14px solid green;"">","null","","","","","","","","","",""
"","image-keyboard-response","360","378375","0.0-450.0","3HQUKB7LNG0X0RT3UVIO1CN9BWRHH6","A38TZK07ON180S","3THR0FZ95PF7SK0MYRNAOUHTWDJOLG","","478.7999999821186","img/food5.png","74","480.19999998807907","1","0","","1","1","1,0.5,0,1,0.5,0,0.5,0,1","0,1,0.5,0,1,0.5,1,0.5,0","3",""
"","html-keyboard-response","361","378677","0.0-451.0","3HQUKB7LNG0X0RT3UVIO1CN9BWRHH6","A38TZK07ON180S","3THR0FZ95PF7SK0MYRNAOUHTWDJOLG","","null","<img src=""img/food5.png"" style=""width:200px;border:14px solid red;"">","null","","","","","","","","","",""
"","image-keyboard-response","362","378848","0.0-452.0","3HQUKB7LNG0X0RT3UVIO1CN9BWRHH6","A38TZK07ON180S","3THR0FZ95PF7SK0MYRNAOUHTWDJOLG","","167.59999999403954","img/food3.png","75","170.59999999403954","2","1","","3","1","1,0.5,0,1,0.5,0,0.5,0,1","0,1,0.5,0,1,0.5,1,0.5,0","3",""
"","html-keyboard-response","363","379151","0.0-453.0","3HQUKB7LNG0X0RT3UVIO1CN9BWRHH6","A38TZK07ON180S","3THR0FZ95PF7SK0MYRNAOUHTWDJOLG","","null","<img src=""img/food3.png"" style=""width:200px; border:14px solid green;"">","null","","","","","","","","","",""
"","html-keyboard-response","364","383067","0.0-454.0","3HQUKB7LNG0X0RT3UVIO1CN9BWRHH6","A38TZK07ON180S","3THR0FZ95PF7SK0MYRNAOUHTWDJOLG","","","","","","","","","","","","","",""
"","instructions","365","384539","0.0-455.0","3HQUKB7LNG0X0RT3UVIO1CN9BWRHH6","A38TZK07ON180S","3THR0FZ95PF7SK0MYRNAOUHTWDJOLG","[{""page_index"":0,""viewing_time"":1470.199999988079}]","1470.4000000059605","","","","","","","","","","","",""
"","survey-text","366","386741","0.0-456.0","3HQUKB7LNG0X0RT3UVIO1CN9BWRHH6","A38TZK07ON180S","3THR0FZ95PF7SK0MYRNAOUHTWDJOLG","","2198.4000000059605","","","","","","","","","","","","{""Q0"":""A38TZK07ON180S""}"
