"success","trial_type","trial_index","time_elapsed","internal_node_id","assignmentID","mturkID","hitID","view_history","rt","stimulus","key_press","reactionTime","a","r","s","cond","reward_cond","reward_cond_actual","reward_matrix_idx","warning","responses"
"true","fullscreen","0","3858","0.0-0.0","3TUI152ZZC9Z997SBW2XI3Z3LPWQ17","A38YRR6XIUXMRB","3MXX6RQ9EVRTFC527Z18RDK8KW6P4R","","","","","","","","","","","","","",""
"","instructions","1","46459","0.0-1.0","3TUI152ZZC9Z997SBW2XI3Z3LPWQ17","A38YRR6XIUXMRB","3MXX6RQ9EVRTFC527Z18RDK8KW6P4R","[{""page_index"":0,""viewing_time"":6031.100000143051},{""page_index"":1,""viewing_time"":2792.5999999046326},{""page_index"":2,""viewing_time"":2374.7000000476837},{""page_index"":3,""viewing_time"":10144.200000047684},{""page_index"":4,""viewing_time"":1744.0999999046326},{""page_index"":5,""viewing_time"":6393.200000047684},{""page_index"":6,""viewing_time"":13118.299999952316}]","42598.60000014305","","","","","","","","","","","",""
"","image-keyboard-response","2","48184","0.0-2.0","3TUI152ZZC9Z997SBW2XI3Z3LPWQ17","A38YRR6XIUXMRB","3MXX6RQ9EVRTFC527Z18RDK8KW6P4R","","1722.5","img/food5.png","76","1725.2000000476837","3","1","2","1","1,0.5,0,1,0.5,0,0.5,0,1","0,1,0.5,0,1,0.5,1,0.5,0","3","",""
"","html-keyboard-response","3","48488","0.0-3.0","3TUI152ZZC9Z997SBW2XI3Z3LPWQ17","A38YRR6XIUXMRB","3MXX6RQ9EVRTFC527Z18RDK8KW6P4R","","null","<img src=""img/food5.png"" style=""width:200px; border:14px solid green;"">","null","","","","","","","","","",""
"","image-keyboard-response","4","49477","0.0-4.0","3TUI152ZZC9Z997SBW2XI3Z3LPWQ17","A38YRR6XIUXMRB","3MXX6RQ9EVRTFC527Z18RDK8KW6P4R","","986.0999999046326","img/food2.png","76","987.7000000476837","3","0","3","1","1,0.5,0,1,0.5,0,0.5,0,1","0,1,0.5,0,1,0.5,1,0.5,0","3","",""
"","html-keyboard-response","5","49781","0.0-5.0","3TUI152ZZC9Z997SBW2XI3Z3LPWQ17","A38YRR6XIUXMRB","3MXX6RQ9EVRTFC527Z18RDK8KW6P4R","","null","<img src=""img/food2.png"" style=""width:200px;border:14px solid red;"">","null","","","","","","","","","",""
"","image-keyboard-response","6","50391","0.0-6.0","3TUI152ZZC9Z997SBW2XI3Z3LPWQ17","A38YRR6XIUXMRB","3MXX6RQ9EVRTFC527Z18RDK8KW6P4R","","606.3999998569489","img/food5.png","76","608.7999999523163","3","0","2","1","1,0.5,0,1,0.5,0,0.5,0,1","0,1,0.5,0,1,0.5,1,0.5,0","3","",""
"","html-keyboard-response","7","50695","0.0-7.0","3TUI152ZZC9Z997SBW2XI3Z3LPWQ17","A38YRR6XIUXMRB","3MXX6RQ9EVRTFC527Z18RDK8KW6P4R","","null","<img src=""img/food5.png"" style=""width:200px;border:14px solid red;"">","null","","","","","","","","","",""
"","image-keyboard-response","8","51201","0.0-8.0","3TUI152ZZC9Z997SBW2XI3Z3LPWQ17","A38YRR6XIUXMRB","3MXX6RQ9EVRTFC527Z18RDK8KW6P4R","","503.09999990463257","img/food5.png","74","505.2999999523163","1","0","2","1","1,0.5,0,1,0.5,0,0.5,0,1","0,1,0.5,0,1,0.5,1,0.5,0","3","",""
"","html-keyboard-response","9","51531","0.0-9.0","3TUI152ZZC9Z997SBW2XI3Z3LPWQ17","A38YRR6XIUXMRB","3MXX6RQ9EVRTFC527Z18RDK8KW6P4R","","null","<img src=""img/food5.png"" style=""width:200px;border:14px solid red;"">","null","","","","","","","","","",""
"","image-keyboard-response","10","52002","0.0-10.0","3TUI152ZZC9Z997SBW2XI3Z3LPWQ17","A38YRR6XIUXMRB","3MXX6RQ9EVRTFC527Z18RDK8KW6P4R","","466.90000009536743","img/food5.png","75","469.09999990463257","2","1","2","1","1,0.5,0,1,0.5,0,0.5,0,1","0,1,0.5,0,1,0.5,1,0.5,0","3","",""
"","html-keyboard-response","11","52306","0.0-11.0","3TUI152ZZC9Z997SBW2XI3Z3LPWQ17","A38YRR6XIUXMRB","3MXX6RQ9EVRTFC527Z18RDK8KW6P4R","","null","<img src=""img/food5.png"" style=""width:200px; border:14px solid green;"">","null","","","","","","","","","",""
"","image-keyboard-response","12","52995","0.0-12.0","3TUI152ZZC9Z997SBW2XI3Z3LPWQ17","A38YRR6XIUXMRB","3MXX6RQ9EVRTFC527Z18RDK8KW6P4R","","687.7000000476837","img/food4.png","75","689","2","1","1","1","1,0.5,0,1,0.5,0,0.5,0,1","0,1,0.5,0,1,0.5,1,0.5,0","3","",""
"","html-keyboard-response","13","53299","0.0-13.0","3TUI152ZZC9Z997SBW2XI3Z3LPWQ17","A38YRR6XIUXMRB","3MXX6RQ9EVRTFC527Z18RDK8KW6P4R","","null","<img src=""img/food4.png"" style=""width:200px; border:14px solid green;"">","null","","","","","","","","","",""
"","image-keyboard-response","14","53729","0.0-14.0","3TUI152ZZC9Z997SBW2XI3Z3LPWQ17","A38YRR6XIUXMRB","3MXX6RQ9EVRTFC527Z18RDK8KW6P4R","","426.7999999523163","img/food4.png","75","429.5","2","1","1","1","1,0.5,0,1,0.5,0,0.5,0,1","0,1,0.5,0,1,0.5,1,0.5,0","3","",""
"","html-keyboard-response","15","54033","0.0-15.0","3TUI152ZZC9Z997SBW2XI3Z3LPWQ17","A38YRR6XIUXMRB","3MXX6RQ9EVRTFC527Z18RDK8KW6P4R","","null","<img src=""img/food4.png"" style=""width:200px; border:14px solid green;"">","null","","","","","","","","","",""
"","image-keyboard-response","16","54574","0.0-16.0","3TUI152ZZC9Z997SBW2XI3Z3LPWQ17","A38YRR6XIUXMRB","3MXX6RQ9EVRTFC527Z18RDK8KW6P4R","","539.2999999523163","img/food5.png","75","540.4000000953674","2","1","2","1","1,0.5,0,1,0.5,0,0.5,0,1","0,1,0.5,0,1,0.5,1,0.5,0","3","",""
"","html-keyboard-response","17","54877","0.0-17.0","3TUI152ZZC9Z997SBW2XI3Z3LPWQ17","A38YRR6XIUXMRB","3MXX6RQ9EVRTFC527Z18RDK8KW6P4R","","null","<img src=""img/food5.png"" style=""width:200px; border:14px solid green;"">","null","","","","","","","","","",""
"","image-keyboard-response","18","55250","0.0-18.0","3TUI152ZZC9Z997SBW2XI3Z3LPWQ17","A38YRR6XIUXMRB","3MXX6RQ9EVRTFC527Z18RDK8KW6P4R","","370.90000009536743","img/food2.png","75","372.5","2","1","3","1","1,0.5,0,1,0.5,0,0.5,0,1","0,1,0.5,0,1,0.5,1,0.5,0","3","",""
"","html-keyboard-response","19","55553","0.0-19.0","3TUI152ZZC9Z997SBW2XI3Z3LPWQ17","A38YRR6XIUXMRB","3MXX6RQ9EVRTFC527Z18RDK8KW6P4R","","null","<img src=""img/food2.png"" style=""width:200px; border:14px solid green;"">","null","","","","","","","","","",""
"","image-keyboard-response","20","55942","0.0-20.0","3TUI152ZZC9Z997SBW2XI3Z3LPWQ17","A38YRR6XIUXMRB","3MXX6RQ9EVRTFC527Z18RDK8KW6P4R","","385.2000000476837","img/food5.png","75","387.19999980926514","2","1","2","1","1,0.5,0,1,0.5,0,0.5,0,1","0,1,0.5,0,1,0.5,1,0.5,0","3","",""
"","html-keyboard-response","21","56245","0.0-21.0","3TUI152ZZC9Z997SBW2XI3Z3LPWQ17","A38YRR6XIUXMRB","3MXX6RQ9EVRTFC527Z18RDK8KW6P4R","","null","<img src=""img/food5.png"" style=""width:200px; border:14px solid green;"">","null","","","","","","","","","",""
"","image-keyboard-response","22","56596","0.0-22.0","3TUI152ZZC9Z997SBW2XI3Z3LPWQ17","A38YRR6XIUXMRB","3MXX6RQ9EVRTFC527Z18RDK8KW6P4R","","349.09999990463257","img/food5.png","75","350.2999999523163","2","1","2","1","1,0.5,0,1,0.5,0,0.5,0,1","0,1,0.5,0,1,0.5,1,0.5,0","3","",""
"","html-keyboard-response","23","56899","0.0-23.0","3TUI152ZZC9Z997SBW2XI3Z3LPWQ17","A38YRR6XIUXMRB","3MXX6RQ9EVRTFC527Z18RDK8KW6P4R","","null","<img src=""img/food5.png"" style=""width:200px; border:14px solid green;"">","null","","","","","","","","","",""
"","image-keyboard-response","24","57238","0.0-24.0","3TUI152ZZC9Z997SBW2XI3Z3LPWQ17","A38YRR6XIUXMRB","3MXX6RQ9EVRTFC527Z18RDK8KW6P4R","","337.2999999523163","img/food2.png","75","338.7000000476837","2","0","3","1","1,0.5,0,1,0.5,0,0.5,0,1","0,1,0.5,0,1,0.5,1,0.5,0","3","",""
"","html-keyboard-response","25","57541","0.0-25.0","3TUI152ZZC9Z997SBW2XI3Z3LPWQ17","A38YRR6XIUXMRB","3MXX6RQ9EVRTFC527Z18RDK8KW6P4R","","null","<img src=""img/food2.png"" style=""width:200px;border:14px solid red;"">","null","","","","","","","","","",""
"","image-keyboard-response","26","57925","0.0-26.0","3TUI152ZZC9Z997SBW2XI3Z3LPWQ17","A38YRR6XIUXMRB","3MXX6RQ9EVRTFC527Z18RDK8KW6P4R","","380.7000000476837","img/food5.png","76","382.7000000476837","3","1","2","1","1,0.5,0,1,0.5,0,0.5,0,1","0,1,0.5,0,1,0.5,1,0.5,0","3","",""
"","html-keyboard-response","27","58228","0.0-27.0","3TUI152ZZC9Z997SBW2XI3Z3LPWQ17","A38YRR6XIUXMRB","3MXX6RQ9EVRTFC527Z18RDK8KW6P4R","","null","<img src=""img/food5.png"" style=""width:200px; border:14px solid green;"">","null","","","","","","","","","",""
"","image-keyboard-response","28","58771","0.0-28.0","3TUI152ZZC9Z997SBW2XI3Z3LPWQ17","A38YRR6XIUXMRB","3MXX6RQ9EVRTFC527Z18RDK8KW6P4R","","540.3999998569489","img/food4.png","75","543.2000000476837","2","1","1","1","1,0.5,0,1,0.5,0,0.5,0,1","0,1,0.5,0,1,0.5,1,0.5,0","3","",""
"","html-keyboard-response","29","59075","0.0-29.0","3TUI152ZZC9Z997SBW2XI3Z3LPWQ17","A38YRR6XIUXMRB","3MXX6RQ9EVRTFC527Z18RDK8KW6P4R","","null","<img src=""img/food4.png"" style=""width:200px; border:14px solid green;"">","null","","","","","","","","","",""
"","image-keyboard-response","30","59395","0.0-30.0","3TUI152ZZC9Z997SBW2XI3Z3LPWQ17","A38YRR6XIUXMRB","3MXX6RQ9EVRTFC527Z18RDK8KW6P4R","","317.5","img/food4.png","76","319","3","1","1","1","1,0.5,0,1,0.5,0,0.5,0,1","0,1,0.5,0,1,0.5,1,0.5,0","3","",""
"","html-keyboard-response","31","59698","0.0-31.0","3TUI152ZZC9Z997SBW2XI3Z3LPWQ17","A38YRR6XIUXMRB","3MXX6RQ9EVRTFC527Z18RDK8KW6P4R","","null","<img src=""img/food4.png"" style=""width:200px; border:14px solid green;"">","null","","","","","","","","","",""
"","image-keyboard-response","32","60138","0.0-32.0","3TUI152ZZC9Z997SBW2XI3Z3LPWQ17","A38YRR6XIUXMRB","3MXX6RQ9EVRTFC527Z18RDK8KW6P4R","","437.2999999523163","img/food2.png","75","439.2999999523163","2","1","3","1","1,0.5,0,1,0.5,0,0.5,0,1","0,1,0.5,0,1,0.5,1,0.5,0","3","",""
"","html-keyboard-response","33","60441","0.0-33.0","3TUI152ZZC9Z997SBW2XI3Z3LPWQ17","A38YRR6XIUXMRB","3MXX6RQ9EVRTFC527Z18RDK8KW6P4R","","null","<img src=""img/food2.png"" style=""width:200px; border:14px solid green;"">","null","","","","","","","","","",""
"","image-keyboard-response","34","60792","0.0-34.0","3TUI152ZZC9Z997SBW2XI3Z3LPWQ17","A38YRR6XIUXMRB","3MXX6RQ9EVRTFC527Z18RDK8KW6P4R","","349","img/food2.png","76","350.59999990463257","3","0","3","1","1,0.5,0,1,0.5,0,0.5,0,1","0,1,0.5,0,1,0.5,1,0.5,0","3","",""
"","html-keyboard-response","35","61104","0.0-35.0","3TUI152ZZC9Z997SBW2XI3Z3LPWQ17","A38YRR6XIUXMRB","3MXX6RQ9EVRTFC527Z18RDK8KW6P4R","","null","<img src=""img/food2.png"" style=""width:200px;border:14px solid red;"">","null","","","","","","","","","",""
"","image-keyboard-response","36","61413","0.0-36.0","3TUI152ZZC9Z997SBW2XI3Z3LPWQ17","A38YRR6XIUXMRB","3MXX6RQ9EVRTFC527Z18RDK8KW6P4R","","307","img/food4.png","75","308.60000014305115","2","1","1","1","1,0.5,0,1,0.5,0,0.5,0,1","0,1,0.5,0,1,0.5,1,0.5,0","3","",""
"","html-keyboard-response","37","61717","0.0-37.0","3TUI152ZZC9Z997SBW2XI3Z3LPWQ17","A38YRR6XIUXMRB","3MXX6RQ9EVRTFC527Z18RDK8KW6P4R","","null","<img src=""img/food4.png"" style=""width:200px; border:14px solid green;"">","null","","","","","","","","","",""
"","image-keyboard-response","38","62035","0.0-38.0","3TUI152ZZC9Z997SBW2XI3Z3LPWQ17","A38YRR6XIUXMRB","3MXX6RQ9EVRTFC527Z18RDK8KW6P4R","","314.59999990463257","img/food4.png","75","317.5","2","1","1","1","1,0.5,0,1,0.5,0,0.5,0,1","0,1,0.5,0,1,0.5,1,0.5,0","3","",""
"","html-keyboard-response","39","62361","0.0-39.0","3TUI152ZZC9Z997SBW2XI3Z3LPWQ17","A38YRR6XIUXMRB","3MXX6RQ9EVRTFC527Z18RDK8KW6P4R","","null","<img src=""img/food4.png"" style=""width:200px; border:14px solid green;"">","null","","","","","","","","","",""
"","image-keyboard-response","40","62627","0.0-40.0","3TUI152ZZC9Z997SBW2XI3Z3LPWQ17","A38YRR6XIUXMRB","3MXX6RQ9EVRTFC527Z18RDK8KW6P4R","","264","img/food2.png","75","265.7999999523163","2","1","3","1","1,0.5,0,1,0.5,0,0.5,0,1","0,1,0.5,0,1,0.5,1,0.5,0","3","",""
"","html-keyboard-response","41","62929","0.0-41.0","3TUI152ZZC9Z997SBW2XI3Z3LPWQ17","A38YRR6XIUXMRB","3MXX6RQ9EVRTFC527Z18RDK8KW6P4R","","null","<img src=""img/food2.png"" style=""width:200px; border:14px solid green;"">","null","","","","","","","","","",""
"","image-keyboard-response","42","63304","0.0-42.0","3TUI152ZZC9Z997SBW2XI3Z3LPWQ17","A38YRR6XIUXMRB","3MXX6RQ9EVRTFC527Z18RDK8KW6P4R","","373.7000000476837","img/food5.png","75","375.2999999523163","2","1","2","1","1,0.5,0,1,0.5,0,0.5,0,1","0,1,0.5,0,1,0.5,1,0.5,0","3","",""
"","html-keyboard-response","43","63609","0.0-43.0","3TUI152ZZC9Z997SBW2XI3Z3LPWQ17","A38YRR6XIUXMRB","3MXX6RQ9EVRTFC527Z18RDK8KW6P4R","","null","<img src=""img/food5.png"" style=""width:200px; border:14px solid green;"">","null","","","","","","","","","",""
"","image-keyboard-response","44","63904","0.0-44.0","3TUI152ZZC9Z997SBW2XI3Z3LPWQ17","A38YRR6XIUXMRB","3MXX6RQ9EVRTFC527Z18RDK8KW6P4R","","293.30000019073486","img/food5.png","74","294.89999985694885","1","0","2","1","1,0.5,0,1,0.5,0,0.5,0,1","0,1,0.5,0,1,0.5,1,0.5,0","3","",""
"","html-keyboard-response","45","64207","0.0-45.0","3TUI152ZZC9Z997SBW2XI3Z3LPWQ17","A38YRR6XIUXMRB","3MXX6RQ9EVRTFC527Z18RDK8KW6P4R","","null","<img src=""img/food5.png"" style=""width:200px;border:14px solid red;"">","null","","","","","","","","","",""
"","image-keyboard-response","46","64484","0.0-46.0","3TUI152ZZC9Z997SBW2XI3Z3LPWQ17","A38YRR6XIUXMRB","3MXX6RQ9EVRTFC527Z18RDK8KW6P4R","","273.7999999523163","img/food5.png","75","275.2999999523163","2","1","2","1","1,0.5,0,1,0.5,0,0.5,0,1","0,1,0.5,0,1,0.5,1,0.5,0","3","",""
"","html-keyboard-response","47","64787","0.0-47.0","3TUI152ZZC9Z997SBW2XI3Z3LPWQ17","A38YRR6XIUXMRB","3MXX6RQ9EVRTFC527Z18RDK8KW6P4R","","null","<img src=""img/food5.png"" style=""width:200px; border:14px solid green;"">","null","","","","","","","","","",""
"","image-keyboard-response","48","65143","0.0-48.0","3TUI152ZZC9Z997SBW2XI3Z3LPWQ17","A38YRR6XIUXMRB","3MXX6RQ9EVRTFC527Z18RDK8KW6P4R","","352.60000014305115","img/food2.png","74","354.7000000476837","1","1","3","1","1,0.5,0,1,0.5,0,0.5,0,1","0,1,0.5,0,1,0.5,1,0.5,0","3","",""
"","html-keyboard-response","49","65447","0.0-49.0","3TUI152ZZC9Z997SBW2XI3Z3LPWQ17","A38YRR6XIUXMRB","3MXX6RQ9EVRTFC527Z18RDK8KW6P4R","","null","<img src=""img/food2.png"" style=""width:200px; border:14px solid green;"">","null","","","","","","","","","",""
"","image-keyboard-response","50","65771","0.0-50.0","3TUI152ZZC9Z997SBW2XI3Z3LPWQ17","A38YRR6XIUXMRB","3MXX6RQ9EVRTFC527Z18RDK8KW6P4R","","321.10000014305115","img/food4.png","74","323.39999985694885","1","0","1","1","1,0.5,0,1,0.5,0,0.5,0,1","0,1,0.5,0,1,0.5,1,0.5,0","3","",""
"","html-keyboard-response","51","66074","0.0-51.0","3TUI152ZZC9Z997SBW2XI3Z3LPWQ17","A38YRR6XIUXMRB","3MXX6RQ9EVRTFC527Z18RDK8KW6P4R","","null","<img src=""img/food4.png"" style=""width:200px;border:14px solid red;"">","null","","","","","","","","","",""
"","image-keyboard-response","52","66372","0.0-52.0","3TUI152ZZC9Z997SBW2XI3Z3LPWQ17","A38YRR6XIUXMRB","3MXX6RQ9EVRTFC527Z18RDK8KW6P4R","","295.30000019073486","img/food5.png","75","296.59999990463257","2","1","2","1","1,0.5,0,1,0.5,0,0.5,0,1","0,1,0.5,0,1,0.5,1,0.5,0","3","",""
"","html-keyboard-response","53","66675","0.0-53.0","3TUI152ZZC9Z997SBW2XI3Z3LPWQ17","A38YRR6XIUXMRB","3MXX6RQ9EVRTFC527Z18RDK8KW6P4R","","null","<img src=""img/food5.png"" style=""width:200px; border:14px solid green;"">","null","","","","","","","","","",""
"","image-keyboard-response","54","67003","0.0-54.0","3TUI152ZZC9Z997SBW2XI3Z3LPWQ17","A38YRR6XIUXMRB","3MXX6RQ9EVRTFC527Z18RDK8KW6P4R","","324.40000009536743","img/food4.png","76","326","3","1","1","1","1,0.5,0,1,0.5,0,0.5,0,1","0,1,0.5,0,1,0.5,1,0.5,0","3","",""
"","html-keyboard-response","55","67305","0.0-55.0","3TUI152ZZC9Z997SBW2XI3Z3LPWQ17","A38YRR6XIUXMRB","3MXX6RQ9EVRTFC527Z18RDK8KW6P4R","","null","<img src=""img/food4.png"" style=""width:200px; border:14px solid green;"">","null","","","","","","","","","",""
"","image-keyboard-response","56","67655","0.0-56.0","3TUI152ZZC9Z997SBW2XI3Z3LPWQ17","A38YRR6XIUXMRB","3MXX6RQ9EVRTFC527Z18RDK8KW6P4R","","346.09999990463257","img/food2.png","75","348.2000000476837","2","1","3","1","1,0.5,0,1,0.5,0,0.5,0,1","0,1,0.5,0,1,0.5,1,0.5,0","3","",""
"","html-keyboard-response","57","67958","0.0-57.0","3TUI152ZZC9Z997SBW2XI3Z3LPWQ17","A38YRR6XIUXMRB","3MXX6RQ9EVRTFC527Z18RDK8KW6P4R","","null","<img src=""img/food2.png"" style=""width:200px; border:14px solid green;"">","null","","","","","","","","","",""
"","image-keyboard-response","58","68266","0.0-58.0","3TUI152ZZC9Z997SBW2XI3Z3LPWQ17","A38YRR6XIUXMRB","3MXX6RQ9EVRTFC527Z18RDK8KW6P4R","","304.40000009536743","img/food2.png","75","306.59999990463257","2","0","3","1","1,0.5,0,1,0.5,0,0.5,0,1","0,1,0.5,0,1,0.5,1,0.5,0","3","",""
"","html-keyboard-response","59","68570","0.0-59.0","3TUI152ZZC9Z997SBW2XI3Z3LPWQ17","A38YRR6XIUXMRB","3MXX6RQ9EVRTFC527Z18RDK8KW6P4R","","null","<img src=""img/food2.png"" style=""width:200px;border:14px solid red;"">","null","","","","","","","","","",""
"","image-keyboard-response","60","68921","0.0-60.0","3TUI152ZZC9Z997SBW2XI3Z3LPWQ17","A38YRR6XIUXMRB","3MXX6RQ9EVRTFC527Z18RDK8KW6P4R","","349.60000014305115","img/food4.png","76","351","3","0","1","1","1,0.5,0,1,0.5,0,0.5,0,1","0,1,0.5,0,1,0.5,1,0.5,0","3","",""
"","html-keyboard-response","61","69224","0.0-61.0","3TUI152ZZC9Z997SBW2XI3Z3LPWQ17","A38YRR6XIUXMRB","3MXX6RQ9EVRTFC527Z18RDK8KW6P4R","","null","<img src=""img/food4.png"" style=""width:200px;border:14px solid red;"">","null","","","","","","","","","",""
"","image-keyboard-response","62","69593","0.0-62.0","3TUI152ZZC9Z997SBW2XI3Z3LPWQ17","A38YRR6XIUXMRB","3MXX6RQ9EVRTFC527Z18RDK8KW6P4R","","366.39999985694885","img/food4.png","75","368.80000019073486","2","1","1","1","1,0.5,0,1,0.5,0,0.5,0,1","0,1,0.5,0,1,0.5,1,0.5,0","3","",""
"","html-keyboard-response","63","69898","0.0-63.0","3TUI152ZZC9Z997SBW2XI3Z3LPWQ17","A38YRR6XIUXMRB","3MXX6RQ9EVRTFC527Z18RDK8KW6P4R","","null","<img src=""img/food4.png"" style=""width:200px; border:14px solid green;"">","null","","","","","","","","","",""
"","image-keyboard-response","64","70598","0.0-64.0","3TUI152ZZC9Z997SBW2XI3Z3LPWQ17","A38YRR6XIUXMRB","3MXX6RQ9EVRTFC527Z18RDK8KW6P4R","","697.2000000476837","img/food4.png","75","699.4000000953674","2","1","1","1","1,0.5,0,1,0.5,0,0.5,0,1","0,1,0.5,0,1,0.5,1,0.5,0","3","",""
"","html-keyboard-response","65","70902","0.0-65.0","3TUI152ZZC9Z997SBW2XI3Z3LPWQ17","A38YRR6XIUXMRB","3MXX6RQ9EVRTFC527Z18RDK8KW6P4R","","null","<img src=""img/food4.png"" style=""width:200px; border:14px solid green;"">","null","","","","","","","","","",""
"","image-keyboard-response","66","71520","0.0-66.0","3TUI152ZZC9Z997SBW2XI3Z3LPWQ17","A38YRR6XIUXMRB","3MXX6RQ9EVRTFC527Z18RDK8KW6P4R","","616.4000000953674","img/food5.png","76","618","3","0","2","1","1,0.5,0,1,0.5,0,0.5,0,1","0,1,0.5,0,1,0.5,1,0.5,0","3","",""
"","html-keyboard-response","67","71824","0.0-67.0","3TUI152ZZC9Z997SBW2XI3Z3LPWQ17","A38YRR6XIUXMRB","3MXX6RQ9EVRTFC527Z18RDK8KW6P4R","","null","<img src=""img/food5.png"" style=""width:200px;border:14px solid red;"">","null","","","","","","","","","",""
"","image-keyboard-response","68","72371","0.0-68.0","3TUI152ZZC9Z997SBW2XI3Z3LPWQ17","A38YRR6XIUXMRB","3MXX6RQ9EVRTFC527Z18RDK8KW6P4R","","544.2000000476837","img/food2.png","75","546.1000001430511","2","0","3","1","1,0.5,0,1,0.5,0,0.5,0,1","0,1,0.5,0,1,0.5,1,0.5,0","3","",""
"","html-keyboard-response","69","72681","0.0-69.0","3TUI152ZZC9Z997SBW2XI3Z3LPWQ17","A38YRR6XIUXMRB","3MXX6RQ9EVRTFC527Z18RDK8KW6P4R","","null","<img src=""img/food2.png"" style=""width:200px;border:14px solid red;"">","null","","","","","","","","","",""
"","image-keyboard-response","70","73148","0.0-70.0","3TUI152ZZC9Z997SBW2XI3Z3LPWQ17","A38YRR6XIUXMRB","3MXX6RQ9EVRTFC527Z18RDK8KW6P4R","","464.2999999523163","img/food2.png","74","465.7999999523163","1","1","3","1","1,0.5,0,1,0.5,0,0.5,0,1","0,1,0.5,0,1,0.5,1,0.5,0","3","",""
"","html-keyboard-response","71","73451","0.0-71.0","3TUI152ZZC9Z997SBW2XI3Z3LPWQ17","A38YRR6XIUXMRB","3MXX6RQ9EVRTFC527Z18RDK8KW6P4R","","null","<img src=""img/food2.png"" style=""width:200px; border:14px solid green;"">","null","","","","","","","","","",""
"","image-keyboard-response","72","73884","0.0-72.0","3TUI152ZZC9Z997SBW2XI3Z3LPWQ17","A38YRR6XIUXMRB","3MXX6RQ9EVRTFC527Z18RDK8KW6P4R","","429.10000014305115","img/food5.png","74","431.59999990463257","1","0","2","1","1,0.5,0,1,0.5,0,0.5,0,1","0,1,0.5,0,1,0.5,1,0.5,0","3","",""
"","html-keyboard-response","73","74187","0.0-73.0","3TUI152ZZC9Z997SBW2XI3Z3LPWQ17","A38YRR6XIUXMRB","3MXX6RQ9EVRTFC527Z18RDK8KW6P4R","","null","<img src=""img/food5.png"" style=""width:200px;border:14px solid red;"">","null","","","","","","","","","",""
"","image-keyboard-response","74","74542","0.0-74.0","3TUI152ZZC9Z997SBW2XI3Z3LPWQ17","A38YRR6XIUXMRB","3MXX6RQ9EVRTFC527Z18RDK8KW6P4R","","352.80000019073486","img/food4.png","75","353.90000009536743","2","1","1","1","1,0.5,0,1,0.5,0,0.5,0,1","0,1,0.5,0,1,0.5,1,0.5,0","3","",""
"","html-keyboard-response","75","74846","0.0-75.0","3TUI152ZZC9Z997SBW2XI3Z3LPWQ17","A38YRR6XIUXMRB","3MXX6RQ9EVRTFC527Z18RDK8KW6P4R","","null","<img src=""img/food4.png"" style=""width:200px; border:14px solid green;"">","null","","","","","","","","","",""
"","image-keyboard-response","76","75294","0.0-76.0","3TUI152ZZC9Z997SBW2XI3Z3LPWQ17","A38YRR6XIUXMRB","3MXX6RQ9EVRTFC527Z18RDK8KW6P4R","","445.09999990463257","img/food4.png","74","447.60000014305115","1","0","1","1","1,0.5,0,1,0.5,0,0.5,0,1","0,1,0.5,0,1,0.5,1,0.5,0","3","",""
"","html-keyboard-response","77","75598","0.0-77.0","3TUI152ZZC9Z997SBW2XI3Z3LPWQ17","A38YRR6XIUXMRB","3MXX6RQ9EVRTFC527Z18RDK8KW6P4R","","null","<img src=""img/food4.png"" style=""width:200px;border:14px solid red;"">","null","","","","","","","","","",""
"","image-keyboard-response","78","75974","0.0-78.0","3TUI152ZZC9Z997SBW2XI3Z3LPWQ17","A38YRR6XIUXMRB","3MXX6RQ9EVRTFC527Z18RDK8KW6P4R","","373","img/food4.png","75","375.7999999523163","2","1","1","1","1,0.5,0,1,0.5,0,0.5,0,1","0,1,0.5,0,1,0.5,1,0.5,0","3","",""
"","html-keyboard-response","79","76279","0.0-79.0","3TUI152ZZC9Z997SBW2XI3Z3LPWQ17","A38YRR6XIUXMRB","3MXX6RQ9EVRTFC527Z18RDK8KW6P4R","","null","<img src=""img/food4.png"" style=""width:200px; border:14px solid green;"">","null","","","","","","","","","",""
"","image-keyboard-response","80","76601","0.0-80.0","3TUI152ZZC9Z997SBW2XI3Z3LPWQ17","A38YRR6XIUXMRB","3MXX6RQ9EVRTFC527Z18RDK8KW6P4R","","318.39999985694885","img/food4.png","75","319.90000009536743","2","1","1","1","1,0.5,0,1,0.5,0,0.5,0,1","0,1,0.5,0,1,0.5,1,0.5,0","3","",""
"","html-keyboard-response","81","76904","0.0-81.0","3TUI152ZZC9Z997SBW2XI3Z3LPWQ17","A38YRR6XIUXMRB","3MXX6RQ9EVRTFC527Z18RDK8KW6P4R","","null","<img src=""img/food4.png"" style=""width:200px; border:14px solid green;"">","null","","","","","","","","","",""
"","image-keyboard-response","82","77523","0.0-82.0","3TUI152ZZC9Z997SBW2XI3Z3LPWQ17","A38YRR6XIUXMRB","3MXX6RQ9EVRTFC527Z18RDK8KW6P4R","","617.2999999523163","img/food2.png","76","618.5","3","0","3","1","1,0.5,0,1,0.5,0,0.5,0,1","0,1,0.5,0,1,0.5,1,0.5,0","3","",""
"","html-keyboard-response","83","77827","0.0-83.0","3TUI152ZZC9Z997SBW2XI3Z3LPWQ17","A38YRR6XIUXMRB","3MXX6RQ9EVRTFC527Z18RDK8KW6P4R","","null","<img src=""img/food2.png"" style=""width:200px;border:14px solid red;"">","null","","","","","","","","","",""
"","image-keyboard-response","84","78496","0.0-84.0","3TUI152ZZC9Z997SBW2XI3Z3LPWQ17","A38YRR6XIUXMRB","3MXX6RQ9EVRTFC527Z18RDK8KW6P4R","","666","img/food5.png","76","668.3000001907349","3","1","2","1","1,0.5,0,1,0.5,0,0.5,0,1","0,1,0.5,0,1,0.5,1,0.5,0","3","",""
"","html-keyboard-response","85","78799","0.0-85.0","3TUI152ZZC9Z997SBW2XI3Z3LPWQ17","A38YRR6XIUXMRB","3MXX6RQ9EVRTFC527Z18RDK8KW6P4R","","null","<img src=""img/food5.png"" style=""width:200px; border:14px solid green;"">","null","","","","","","","","","",""
"","image-keyboard-response","86","79122","0.0-86.0","3TUI152ZZC9Z997SBW2XI3Z3LPWQ17","A38YRR6XIUXMRB","3MXX6RQ9EVRTFC527Z18RDK8KW6P4R","","319.60000014305115","img/food2.png","75","322.09999990463257","2","0","3","1","1,0.5,0,1,0.5,0,0.5,0,1","0,1,0.5,0,1,0.5,1,0.5,0","3","",""
"","html-keyboard-response","87","79426","0.0-87.0","3TUI152ZZC9Z997SBW2XI3Z3LPWQ17","A38YRR6XIUXMRB","3MXX6RQ9EVRTFC527Z18RDK8KW6P4R","","null","<img src=""img/food2.png"" style=""width:200px;border:14px solid red;"">","null","","","","","","","","","",""
"","image-keyboard-response","88","80068","0.0-88.0","3TUI152ZZC9Z997SBW2XI3Z3LPWQ17","A38YRR6XIUXMRB","3MXX6RQ9EVRTFC527Z18RDK8KW6P4R","","638.6000001430511","img/food5.png","75","641.2999999523163","2","1","2","1","1,0.5,0,1,0.5,0,0.5,0,1","0,1,0.5,0,1,0.5,1,0.5,0","3","",""
"","html-keyboard-response","89","80384","0.0-89.0","3TUI152ZZC9Z997SBW2XI3Z3LPWQ17","A38YRR6XIUXMRB","3MXX6RQ9EVRTFC527Z18RDK8KW6P4R","","null","<img src=""img/food5.png"" style=""width:200px; border:14px solid green;"">","null","","","","","","","","","",""
"","image-keyboard-response","90","81476","0.0-90.0","3TUI152ZZC9Z997SBW2XI3Z3LPWQ17","A38YRR6XIUXMRB","3MXX6RQ9EVRTFC527Z18RDK8KW6P4R","","1089.0999999046326","img/food2.png","76","1091.4000000953674","3","0","3","1","1,0.5,0,1,0.5,0,0.5,0,1","0,1,0.5,0,1,0.5,1,0.5,0","3","",""
"","html-keyboard-response","91","81779","0.0-91.0","3TUI152ZZC9Z997SBW2XI3Z3LPWQ17","A38YRR6XIUXMRB","3MXX6RQ9EVRTFC527Z18RDK8KW6P4R","","null","<img src=""img/food2.png"" style=""width:200px;border:14px solid red;"">","null","","","","","","","","","",""
"","image-keyboard-response","92","82285","0.0-92.0","3TUI152ZZC9Z997SBW2XI3Z3LPWQ17","A38YRR6XIUXMRB","3MXX6RQ9EVRTFC527Z18RDK8KW6P4R","","503.7000000476837","img/food4.png","75","505.7999999523163","2","1","1","1","1,0.5,0,1,0.5,0,0.5,0,1","0,1,0.5,0,1,0.5,1,0.5,0","3","",""
"","html-keyboard-response","93","82589","0.0-93.0","3TUI152ZZC9Z997SBW2XI3Z3LPWQ17","A38YRR6XIUXMRB","3MXX6RQ9EVRTFC527Z18RDK8KW6P4R","","null","<img src=""img/food4.png"" style=""width:200px; border:14px solid green;"">","null","","","","","","","","","",""
"","image-keyboard-response","94","83505","0.0-94.0","3TUI152ZZC9Z997SBW2XI3Z3LPWQ17","A38YRR6XIUXMRB","3MXX6RQ9EVRTFC527Z18RDK8KW6P4R","","912.2999999523163","img/food2.png","76","914.7000000476837","3","0","3","1","1,0.5,0,1,0.5,0,0.5,0,1","0,1,0.5,0,1,0.5,1,0.5,0","3","",""
"","html-keyboard-response","95","83807","0.0-95.0","3TUI152ZZC9Z997SBW2XI3Z3LPWQ17","A38YRR6XIUXMRB","3MXX6RQ9EVRTFC527Z18RDK8KW6P4R","","null","<img src=""img/food2.png"" style=""width:200px;border:14px solid red;"">","null","","","","","","","","","",""
"","image-keyboard-response","96","84550","0.0-96.0","3TUI152ZZC9Z997SBW2XI3Z3LPWQ17","A38YRR6XIUXMRB","3MXX6RQ9EVRTFC527Z18RDK8KW6P4R","","741.3000001907349","img/food5.png","76","743.0999999046326","3","1","2","1","1,0.5,0,1,0.5,0,0.5,0,1","0,1,0.5,0,1,0.5,1,0.5,0","3","",""
"","html-keyboard-response","97","84852","0.0-97.0","3TUI152ZZC9Z997SBW2XI3Z3LPWQ17","A38YRR6XIUXMRB","3MXX6RQ9EVRTFC527Z18RDK8KW6P4R","","null","<img src=""img/food5.png"" style=""width:200px; border:14px solid green;"">","null","","","","","","","","","",""
"","image-keyboard-response","98","85685","0.0-98.0","3TUI152ZZC9Z997SBW2XI3Z3LPWQ17","A38YRR6XIUXMRB","3MXX6RQ9EVRTFC527Z18RDK8KW6P4R","","830","img/food2.png","74","831.7999999523163","1","1","3","1","1,0.5,0,1,0.5,0,0.5,0,1","0,1,0.5,0,1,0.5,1,0.5,0","3","",""
"","html-keyboard-response","99","85988","0.0-99.0","3TUI152ZZC9Z997SBW2XI3Z3LPWQ17","A38YRR6XIUXMRB","3MXX6RQ9EVRTFC527Z18RDK8KW6P4R","","null","<img src=""img/food2.png"" style=""width:200px; border:14px solid green;"">","null","","","","","","","","","",""
"","image-keyboard-response","100","86339","0.0-100.0","3TUI152ZZC9Z997SBW2XI3Z3LPWQ17","A38YRR6XIUXMRB","3MXX6RQ9EVRTFC527Z18RDK8KW6P4R","","347.10000014305115","img/food2.png","74","350","1","1","3","1","1,0.5,0,1,0.5,0,0.5,0,1","0,1,0.5,0,1,0.5,1,0.5,0","3","",""
"","html-keyboard-response","101","86644","0.0-101.0","3TUI152ZZC9Z997SBW2XI3Z3LPWQ17","A38YRR6XIUXMRB","3MXX6RQ9EVRTFC527Z18RDK8KW6P4R","","null","<img src=""img/food2.png"" style=""width:200px; border:14px solid green;"">","null","","","","","","","","","",""
"","image-keyboard-response","102","87121","0.0-102.0","3TUI152ZZC9Z997SBW2XI3Z3LPWQ17","A38YRR6XIUXMRB","3MXX6RQ9EVRTFC527Z18RDK8KW6P4R","","474.69999980926514","img/food4.png","74","476.7999999523163","1","0","1","1","1,0.5,0,1,0.5,0,0.5,0,1","0,1,0.5,0,1,0.5,1,0.5,0","3","",""
"","html-keyboard-response","103","87424","0.0-103.0","3TUI152ZZC9Z997SBW2XI3Z3LPWQ17","A38YRR6XIUXMRB","3MXX6RQ9EVRTFC527Z18RDK8KW6P4R","","null","<img src=""img/food4.png"" style=""width:200px;border:14px solid red;"">","null","","","","","","","","","",""
"","image-keyboard-response","104","87798","0.0-104.0","3TUI152ZZC9Z997SBW2XI3Z3LPWQ17","A38YRR6XIUXMRB","3MXX6RQ9EVRTFC527Z18RDK8KW6P4R","","371.40000009536743","img/food4.png","75","373.7000000476837","2","1","1","1","1,0.5,0,1,0.5,0,0.5,0,1","0,1,0.5,0,1,0.5,1,0.5,0","3","",""
"","html-keyboard-response","105","88102","0.0-105.0","3TUI152ZZC9Z997SBW2XI3Z3LPWQ17","A38YRR6XIUXMRB","3MXX6RQ9EVRTFC527Z18RDK8KW6P4R","","null","<img src=""img/food4.png"" style=""width:200px; border:14px solid green;"">","null","","","","","","","","","",""
"","image-keyboard-response","106","88867","0.0-106.0","3TUI152ZZC9Z997SBW2XI3Z3LPWQ17","A38YRR6XIUXMRB","3MXX6RQ9EVRTFC527Z18RDK8KW6P4R","","763.5","img/food5.png","76","764.8000001907349","3","1","2","1","1,0.5,0,1,0.5,0,0.5,0,1","0,1,0.5,0,1,0.5,1,0.5,0","3","",""
"","html-keyboard-response","107","89172","0.0-107.0","3TUI152ZZC9Z997SBW2XI3Z3LPWQ17","A38YRR6XIUXMRB","3MXX6RQ9EVRTFC527Z18RDK8KW6P4R","","null","<img src=""img/food5.png"" style=""width:200px; border:14px solid green;"">","null","","","","","","","","","",""
"","image-keyboard-response","108","89669","0.0-108.0","3TUI152ZZC9Z997SBW2XI3Z3LPWQ17","A38YRR6XIUXMRB","3MXX6RQ9EVRTFC527Z18RDK8KW6P4R","","493.60000014305115","img/food2.png","76","496.69999980926514","3","0","3","1","1,0.5,0,1,0.5,0,0.5,0,1","0,1,0.5,0,1,0.5,1,0.5,0","3","",""
"","html-keyboard-response","109","89973","0.0-109.0","3TUI152ZZC9Z997SBW2XI3Z3LPWQ17","A38YRR6XIUXMRB","3MXX6RQ9EVRTFC527Z18RDK8KW6P4R","","null","<img src=""img/food2.png"" style=""width:200px;border:14px solid red;"">","null","","","","","","","","","",""
"","image-keyboard-response","110","90548","0.0-110.0","3TUI152ZZC9Z997SBW2XI3Z3LPWQ17","A38YRR6XIUXMRB","3MXX6RQ9EVRTFC527Z18RDK8KW6P4R","","572.9000000953674","img/food4.png","75","575.1000001430511","2","1","1","1","1,0.5,0,1,0.5,0,0.5,0,1","0,1,0.5,0,1,0.5,1,0.5,0","3","",""
"","html-keyboard-response","111","90852","0.0-111.0","3TUI152ZZC9Z997SBW2XI3Z3LPWQ17","A38YRR6XIUXMRB","3MXX6RQ9EVRTFC527Z18RDK8KW6P4R","","null","<img src=""img/food4.png"" style=""width:200px; border:14px solid green;"">","null","","","","","","","","","",""
"","image-keyboard-response","112","91276","0.0-112.0","3TUI152ZZC9Z997SBW2XI3Z3LPWQ17","A38YRR6XIUXMRB","3MXX6RQ9EVRTFC527Z18RDK8KW6P4R","","421.89999985694885","img/food4.png","75","423.89999985694885","2","1","1","1","1,0.5,0,1,0.5,0,0.5,0,1","0,1,0.5,0,1,0.5,1,0.5,0","3","",""
"","html-keyboard-response","113","91580","0.0-113.0","3TUI152ZZC9Z997SBW2XI3Z3LPWQ17","A38YRR6XIUXMRB","3MXX6RQ9EVRTFC527Z18RDK8KW6P4R","","null","<img src=""img/food4.png"" style=""width:200px; border:14px solid green;"">","null","","","","","","","","","",""
"","image-keyboard-response","114","92296","0.0-114.0","3TUI152ZZC9Z997SBW2XI3Z3LPWQ17","A38YRR6XIUXMRB","3MXX6RQ9EVRTFC527Z18RDK8KW6P4R","","713.6000001430511","img/food2.png","74","715.6999998092651","1","1","3","1","1,0.5,0,1,0.5,0,0.5,0,1","0,1,0.5,0,1,0.5,1,0.5,0","3","",""
"","html-keyboard-response","115","92600","0.0-115.0","3TUI152ZZC9Z997SBW2XI3Z3LPWQ17","A38YRR6XIUXMRB","3MXX6RQ9EVRTFC527Z18RDK8KW6P4R","","null","<img src=""img/food2.png"" style=""width:200px; border:14px solid green;"">","null","","","","","","","","","",""
"","image-keyboard-response","116","93234","0.0-116.0","3TUI152ZZC9Z997SBW2XI3Z3LPWQ17","A38YRR6XIUXMRB","3MXX6RQ9EVRTFC527Z18RDK8KW6P4R","","630.3999998569489","img/food4.png","75","632.2000000476837","2","1","1","1","1,0.5,0,1,0.5,0,0.5,0,1","0,1,0.5,0,1,0.5,1,0.5,0","3","",""
"","html-keyboard-response","117","93540","0.0-117.0","3TUI152ZZC9Z997SBW2XI3Z3LPWQ17","A38YRR6XIUXMRB","3MXX6RQ9EVRTFC527Z18RDK8KW6P4R","","null","<img src=""img/food4.png"" style=""width:200px; border:14px solid green;"">","null","","","","","","","","","",""
"","image-keyboard-response","118","93922","0.0-118.0","3TUI152ZZC9Z997SBW2XI3Z3LPWQ17","A38YRR6XIUXMRB","3MXX6RQ9EVRTFC527Z18RDK8KW6P4R","","378.90000009536743","img/food4.png","75","381","2","1","1","1","1,0.5,0,1,0.5,0,0.5,0,1","0,1,0.5,0,1,0.5,1,0.5,0","3","",""
"","html-keyboard-response","119","94225","0.0-119.0","3TUI152ZZC9Z997SBW2XI3Z3LPWQ17","A38YRR6XIUXMRB","3MXX6RQ9EVRTFC527Z18RDK8KW6P4R","","null","<img src=""img/food4.png"" style=""width:200px; border:14px solid green;"">","null","","","","","","","","","",""
"","image-keyboard-response","120","94730","0.0-120.0","3TUI152ZZC9Z997SBW2XI3Z3LPWQ17","A38YRR6XIUXMRB","3MXX6RQ9EVRTFC527Z18RDK8KW6P4R","","502.30000019073486","img/food2.png","74","504.40000009536743","1","1","3","1","1,0.5,0,1,0.5,0,0.5,0,1","0,1,0.5,0,1,0.5,1,0.5,0","3","",""
"","html-keyboard-response","121","95033","0.0-121.0","3TUI152ZZC9Z997SBW2XI3Z3LPWQ17","A38YRR6XIUXMRB","3MXX6RQ9EVRTFC527Z18RDK8KW6P4R","","null","<img src=""img/food2.png"" style=""width:200px; border:14px solid green;"">","null","","","","","","","","","",""
"","image-keyboard-response","122","95711","0.0-122.0","3TUI152ZZC9Z997SBW2XI3Z3LPWQ17","A38YRR6XIUXMRB","3MXX6RQ9EVRTFC527Z18RDK8KW6P4R","","675.6000001430511","img/food5.png","76","677.5999999046326","3","1","2","1","1,0.5,0,1,0.5,0,0.5,0,1","0,1,0.5,0,1,0.5,1,0.5,0","3","",""
"","html-keyboard-response","123","96014","0.0-123.0","3TUI152ZZC9Z997SBW2XI3Z3LPWQ17","A38YRR6XIUXMRB","3MXX6RQ9EVRTFC527Z18RDK8KW6P4R","","null","<img src=""img/food5.png"" style=""width:200px; border:14px solid green;"">","null","","","","","","","","","",""
"","image-keyboard-response","124","96522","0.0-124.0","3TUI152ZZC9Z997SBW2XI3Z3LPWQ17","A38YRR6XIUXMRB","3MXX6RQ9EVRTFC527Z18RDK8KW6P4R","","504.7000000476837","img/food4.png","75","508","2","1","1","1","1,0.5,0,1,0.5,0,0.5,0,1","0,1,0.5,0,1,0.5,1,0.5,0","3","",""
"","html-keyboard-response","125","96828","0.0-125.0","3TUI152ZZC9Z997SBW2XI3Z3LPWQ17","A38YRR6XIUXMRB","3MXX6RQ9EVRTFC527Z18RDK8KW6P4R","","null","<img src=""img/food4.png"" style=""width:200px; border:14px solid green;"">","null","","","","","","","","","",""
"","image-keyboard-response","126","97290","0.0-126.0","3TUI152ZZC9Z997SBW2XI3Z3LPWQ17","A38YRR6XIUXMRB","3MXX6RQ9EVRTFC527Z18RDK8KW6P4R","","459.40000009536743","img/food5.png","76","461.39999985694885","3","1","2","1","1,0.5,0,1,0.5,0,0.5,0,1","0,1,0.5,0,1,0.5,1,0.5,0","3","",""
"","html-keyboard-response","127","97593","0.0-127.0","3TUI152ZZC9Z997SBW2XI3Z3LPWQ17","A38YRR6XIUXMRB","3MXX6RQ9EVRTFC527Z18RDK8KW6P4R","","null","<img src=""img/food5.png"" style=""width:200px; border:14px solid green;"">","null","","","","","","","","","",""
"","image-keyboard-response","128","98371","0.0-128.0","3TUI152ZZC9Z997SBW2XI3Z3LPWQ17","A38YRR6XIUXMRB","3MXX6RQ9EVRTFC527Z18RDK8KW6P4R","","775.5999999046326","img/food2.png","74","777","1","1","3","1","1,0.5,0,1,0.5,0,0.5,0,1","0,1,0.5,0,1,0.5,1,0.5,0","3","",""
"","html-keyboard-response","129","98675","0.0-129.0","3TUI152ZZC9Z997SBW2XI3Z3LPWQ17","A38YRR6XIUXMRB","3MXX6RQ9EVRTFC527Z18RDK8KW6P4R","","null","<img src=""img/food2.png"" style=""width:200px; border:14px solid green;"">","null","","","","","","","","","",""
"","image-keyboard-response","130","99101","0.0-130.0","3TUI152ZZC9Z997SBW2XI3Z3LPWQ17","A38YRR6XIUXMRB","3MXX6RQ9EVRTFC527Z18RDK8KW6P4R","","424.09999990463257","img/food2.png","74","426","1","1","3","1","1,0.5,0,1,0.5,0,0.5,0,1","0,1,0.5,0,1,0.5,1,0.5,0","3","",""
"","html-keyboard-response","131","99406","0.0-131.0","3TUI152ZZC9Z997SBW2XI3Z3LPWQ17","A38YRR6XIUXMRB","3MXX6RQ9EVRTFC527Z18RDK8KW6P4R","","null","<img src=""img/food2.png"" style=""width:200px; border:14px solid green;"">","null","","","","","","","","","",""
"","image-keyboard-response","132","99987","0.0-132.0","3TUI152ZZC9Z997SBW2XI3Z3LPWQ17","A38YRR6XIUXMRB","3MXX6RQ9EVRTFC527Z18RDK8KW6P4R","","577.5","img/food5.png","76","581.1000001430511","3","1","2","1","1,0.5,0,1,0.5,0,0.5,0,1","0,1,0.5,0,1,0.5,1,0.5,0","3","",""
"","html-keyboard-response","133","100291","0.0-133.0","3TUI152ZZC9Z997SBW2XI3Z3LPWQ17","A38YRR6XIUXMRB","3MXX6RQ9EVRTFC527Z18RDK8KW6P4R","","null","<img src=""img/food5.png"" style=""width:200px; border:14px solid green;"">","null","","","","","","","","","",""
"","image-keyboard-response","134","100820","0.0-134.0","3TUI152ZZC9Z997SBW2XI3Z3LPWQ17","A38YRR6XIUXMRB","3MXX6RQ9EVRTFC527Z18RDK8KW6P4R","","526.7000000476837","img/food4.png","75","528.5","2","1","1","1","1,0.5,0,1,0.5,0,0.5,0,1","0,1,0.5,0,1,0.5,1,0.5,0","3","",""
"","html-keyboard-response","135","101125","0.0-135.0","3TUI152ZZC9Z997SBW2XI3Z3LPWQ17","A38YRR6XIUXMRB","3MXX6RQ9EVRTFC527Z18RDK8KW6P4R","","null","<img src=""img/food4.png"" style=""width:200px; border:14px solid green;"">","null","","","","","","","","","",""
"","image-keyboard-response","136","101566","0.0-136.0","3TUI152ZZC9Z997SBW2XI3Z3LPWQ17","A38YRR6XIUXMRB","3MXX6RQ9EVRTFC527Z18RDK8KW6P4R","","436.90000009536743","img/food5.png","74","440.2000000476837","1","0","2","1","1,0.5,0,1,0.5,0,0.5,0,1","0,1,0.5,0,1,0.5,1,0.5,0","3","",""
"","html-keyboard-response","137","101870","0.0-137.0","3TUI152ZZC9Z997SBW2XI3Z3LPWQ17","A38YRR6XIUXMRB","3MXX6RQ9EVRTFC527Z18RDK8KW6P4R","","null","<img src=""img/food5.png"" style=""width:200px;border:14px solid red;"">","null","","","","","","","","","",""
"","image-keyboard-response","138","102509","0.0-138.0","3TUI152ZZC9Z997SBW2XI3Z3LPWQ17","A38YRR6XIUXMRB","3MXX6RQ9EVRTFC527Z18RDK8KW6P4R","","636.2999999523163","img/food2.png","74","638.4000000953674","1","1","3","1","1,0.5,0,1,0.5,0,0.5,0,1","0,1,0.5,0,1,0.5,1,0.5,0","3","",""
"","html-keyboard-response","139","102812","0.0-139.0","3TUI152ZZC9Z997SBW2XI3Z3LPWQ17","A38YRR6XIUXMRB","3MXX6RQ9EVRTFC527Z18RDK8KW6P4R","","null","<img src=""img/food2.png"" style=""width:200px; border:14px solid green;"">","null","","","","","","","","","",""
"","image-keyboard-response","140","103366","0.0-140.0","3TUI152ZZC9Z997SBW2XI3Z3LPWQ17","A38YRR6XIUXMRB","3MXX6RQ9EVRTFC527Z18RDK8KW6P4R","","552.2000000476837","img/food2.png","74","553.7000000476837","1","1","3","1","1,0.5,0,1,0.5,0,0.5,0,1","0,1,0.5,0,1,0.5,1,0.5,0","3","",""
"","html-keyboard-response","141","103671","0.0-141.0","3TUI152ZZC9Z997SBW2XI3Z3LPWQ17","A38YRR6XIUXMRB","3MXX6RQ9EVRTFC527Z18RDK8KW6P4R","","null","<img src=""img/food2.png"" style=""width:200px; border:14px solid green;"">","null","","","","","","","","","",""
"","image-keyboard-response","142","104264","0.0-142.0","3TUI152ZZC9Z997SBW2XI3Z3LPWQ17","A38YRR6XIUXMRB","3MXX6RQ9EVRTFC527Z18RDK8KW6P4R","","590.2999999523163","img/food5.png","76","592.1999998092651","3","1","2","1","1,0.5,0,1,0.5,0,0.5,0,1","0,1,0.5,0,1,0.5,1,0.5,0","3","",""
"","html-keyboard-response","143","104568","0.0-143.0","3TUI152ZZC9Z997SBW2XI3Z3LPWQ17","A38YRR6XIUXMRB","3MXX6RQ9EVRTFC527Z18RDK8KW6P4R","","null","<img src=""img/food5.png"" style=""width:200px; border:14px solid green;"">","null","","","","","","","","","",""
"","image-keyboard-response","144","105709","0.0-144.0","3TUI152ZZC9Z997SBW2XI3Z3LPWQ17","A38YRR6XIUXMRB","3MXX6RQ9EVRTFC527Z18RDK8KW6P4R","","1138.7000000476837","img/food2.png","76","1140.7999999523163","3","0","3","1","1,0.5,0,1,0.5,0,0.5,0,1","0,1,0.5,0,1,0.5,1,0.5,0","3","",""
"","html-keyboard-response","145","106011","0.0-145.0","3TUI152ZZC9Z997SBW2XI3Z3LPWQ17","A38YRR6XIUXMRB","3MXX6RQ9EVRTFC527Z18RDK8KW6P4R","","null","<img src=""img/food2.png"" style=""width:200px;border:14px solid red;"">","null","","","","","","","","","",""
"","image-keyboard-response","146","106544","0.0-146.0","3TUI152ZZC9Z997SBW2XI3Z3LPWQ17","A38YRR6XIUXMRB","3MXX6RQ9EVRTFC527Z18RDK8KW6P4R","","529.6999998092651","img/food4.png","75","532.0999999046326","2","1","1","1","1,0.5,0,1,0.5,0,0.5,0,1","0,1,0.5,0,1,0.5,1,0.5,0","3","",""
"","html-keyboard-response","147","106846","0.0-147.0","3TUI152ZZC9Z997SBW2XI3Z3LPWQ17","A38YRR6XIUXMRB","3MXX6RQ9EVRTFC527Z18RDK8KW6P4R","","null","<img src=""img/food4.png"" style=""width:200px; border:14px solid green;"">","null","","","","","","","","","",""
"","image-keyboard-response","148","107481","0.0-148.0","3TUI152ZZC9Z997SBW2XI3Z3LPWQ17","A38YRR6XIUXMRB","3MXX6RQ9EVRTFC527Z18RDK8KW6P4R","","634.2999999523163","img/food5.png","76","635.4000000953674","3","0","2","1","1,0.5,0,1,0.5,0,0.5,0,1","0,1,0.5,0,1,0.5,1,0.5,0","3","",""
"","html-keyboard-response","149","107785","0.0-149.0","3TUI152ZZC9Z997SBW2XI3Z3LPWQ17","A38YRR6XIUXMRB","3MXX6RQ9EVRTFC527Z18RDK8KW6P4R","","null","<img src=""img/food5.png"" style=""width:200px;border:14px solid red;"">","null","","","","","","","","","",""
"","image-keyboard-response","150","108452","0.0-150.0","3TUI152ZZC9Z997SBW2XI3Z3LPWQ17","A38YRR6XIUXMRB","3MXX6RQ9EVRTFC527Z18RDK8KW6P4R","","664.5","img/food5.png","75","665.7000000476837","2","1","2","1","1,0.5,0,1,0.5,0,0.5,0,1","0,1,0.5,0,1,0.5,1,0.5,0","3","",""
"","html-keyboard-response","151","108755","0.0-151.0","3TUI152ZZC9Z997SBW2XI3Z3LPWQ17","A38YRR6XIUXMRB","3MXX6RQ9EVRTFC527Z18RDK8KW6P4R","","null","<img src=""img/food5.png"" style=""width:200px; border:14px solid green;"">","null","","","","","","","","","",""
"","image-keyboard-response","152","109650","0.0-152.0","3TUI152ZZC9Z997SBW2XI3Z3LPWQ17","A38YRR6XIUXMRB","3MXX6RQ9EVRTFC527Z18RDK8KW6P4R","","890.8000001907349","img/food4.png","75","893.6000001430511","2","1","1","1","1,0.5,0,1,0.5,0,0.5,0,1","0,1,0.5,0,1,0.5,1,0.5,0","3","",""
"","html-keyboard-response","153","109954","0.0-153.0","3TUI152ZZC9Z997SBW2XI3Z3LPWQ17","A38YRR6XIUXMRB","3MXX6RQ9EVRTFC527Z18RDK8KW6P4R","","null","<img src=""img/food4.png"" style=""width:200px; border:14px solid green;"">","null","","","","","","","","","",""
"","image-keyboard-response","154","110600","0.0-154.0","3TUI152ZZC9Z997SBW2XI3Z3LPWQ17","A38YRR6XIUXMRB","3MXX6RQ9EVRTFC527Z18RDK8KW6P4R","","643.7999999523163","img/food2.png","74","646.3000001907349","1","1","3","1","1,0.5,0,1,0.5,0,0.5,0,1","0,1,0.5,0,1,0.5,1,0.5,0","3","",""
"","html-keyboard-response","155","110905","0.0-155.0","3TUI152ZZC9Z997SBW2XI3Z3LPWQ17","A38YRR6XIUXMRB","3MXX6RQ9EVRTFC527Z18RDK8KW6P4R","","null","<img src=""img/food2.png"" style=""width:200px; border:14px solid green;"">","null","","","","","","","","","",""
"","image-keyboard-response","156","111326","0.0-156.0","3TUI152ZZC9Z997SBW2XI3Z3LPWQ17","A38YRR6XIUXMRB","3MXX6RQ9EVRTFC527Z18RDK8KW6P4R","","417.7000000476837","img/food2.png","74","420","1","1","3","1","1,0.5,0,1,0.5,0,0.5,0,1","0,1,0.5,0,1,0.5,1,0.5,0","3","",""
"","html-keyboard-response","157","111630","0.0-157.0","3TUI152ZZC9Z997SBW2XI3Z3LPWQ17","A38YRR6XIUXMRB","3MXX6RQ9EVRTFC527Z18RDK8KW6P4R","","null","<img src=""img/food2.png"" style=""width:200px; border:14px solid green;"">","null","","","","","","","","","",""
"","image-keyboard-response","158","112180","0.0-158.0","3TUI152ZZC9Z997SBW2XI3Z3LPWQ17","A38YRR6XIUXMRB","3MXX6RQ9EVRTFC527Z18RDK8KW6P4R","","547.2000000476837","img/food5.png","76","549.2999999523163","3","0","2","1","1,0.5,0,1,0.5,0,0.5,0,1","0,1,0.5,0,1,0.5,1,0.5,0","3","",""
"","html-keyboard-response","159","112484","0.0-159.0","3TUI152ZZC9Z997SBW2XI3Z3LPWQ17","A38YRR6XIUXMRB","3MXX6RQ9EVRTFC527Z18RDK8KW6P4R","","null","<img src=""img/food5.png"" style=""width:200px;border:14px solid red;"">","null","","","","","","","","","",""
"","image-keyboard-response","160","113064","0.0-160.0","3TUI152ZZC9Z997SBW2XI3Z3LPWQ17","A38YRR6XIUXMRB","3MXX6RQ9EVRTFC527Z18RDK8KW6P4R","","577.0999999046326","img/food2.png","75","579.6000001430511","2","1","3","1","1,0.5,0,1,0.5,0,0.5,0,1","0,1,0.5,0,1,0.5,1,0.5,0","3","",""
"","html-keyboard-response","161","113368","0.0-161.0","3TUI152ZZC9Z997SBW2XI3Z3LPWQ17","A38YRR6XIUXMRB","3MXX6RQ9EVRTFC527Z18RDK8KW6P4R","","null","<img src=""img/food2.png"" style=""width:200px; border:14px solid green;"">","null","","","","","","","","","",""
"","image-keyboard-response","162","113972","0.0-162.0","3TUI152ZZC9Z997SBW2XI3Z3LPWQ17","A38YRR6XIUXMRB","3MXX6RQ9EVRTFC527Z18RDK8KW6P4R","","600.5","img/food4.png","75","603","2","1","1","1","1,0.5,0,1,0.5,0,0.5,0,1","0,1,0.5,0,1,0.5,1,0.5,0","3","",""
"","html-keyboard-response","163","114274","0.0-163.0","3TUI152ZZC9Z997SBW2XI3Z3LPWQ17","A38YRR6XIUXMRB","3MXX6RQ9EVRTFC527Z18RDK8KW6P4R","","null","<img src=""img/food4.png"" style=""width:200px; border:14px solid green;"">","null","","","","","","","","","",""
"","image-keyboard-response","164","114706","0.0-164.0","3TUI152ZZC9Z997SBW2XI3Z3LPWQ17","A38YRR6XIUXMRB","3MXX6RQ9EVRTFC527Z18RDK8KW6P4R","","428.60000014305115","img/food4.png","75","430.90000009536743","2","1","1","1","1,0.5,0,1,0.5,0,0.5,0,1","0,1,0.5,0,1,0.5,1,0.5,0","3","",""
"","html-keyboard-response","165","115009","0.0-165.0","3TUI152ZZC9Z997SBW2XI3Z3LPWQ17","A38YRR6XIUXMRB","3MXX6RQ9EVRTFC527Z18RDK8KW6P4R","","null","<img src=""img/food4.png"" style=""width:200px; border:14px solid green;"">","null","","","","","","","","","",""
"","image-keyboard-response","166","115679","0.0-166.0","3TUI152ZZC9Z997SBW2XI3Z3LPWQ17","A38YRR6XIUXMRB","3MXX6RQ9EVRTFC527Z18RDK8KW6P4R","","667.5","img/food2.png","74","669.6999998092651","1","1","3","1","1,0.5,0,1,0.5,0,0.5,0,1","0,1,0.5,0,1,0.5,1,0.5,0","3","",""
"","html-keyboard-response","167","115983","0.0-167.0","3TUI152ZZC9Z997SBW2XI3Z3LPWQ17","A38YRR6XIUXMRB","3MXX6RQ9EVRTFC527Z18RDK8KW6P4R","","null","<img src=""img/food2.png"" style=""width:200px; border:14px solid green;"">","null","","","","","","","","","",""
"","image-keyboard-response","168","116561","0.0-168.0","3TUI152ZZC9Z997SBW2XI3Z3LPWQ17","A38YRR6XIUXMRB","3MXX6RQ9EVRTFC527Z18RDK8KW6P4R","","574.8999998569489","img/food5.png","76","576.4000000953674","3","1","2","1","1,0.5,0,1,0.5,0,0.5,0,1","0,1,0.5,0,1,0.5,1,0.5,0","3","",""
"","html-keyboard-response","169","116864","0.0-169.0","3TUI152ZZC9Z997SBW2XI3Z3LPWQ17","A38YRR6XIUXMRB","3MXX6RQ9EVRTFC527Z18RDK8KW6P4R","","null","<img src=""img/food5.png"" style=""width:200px; border:14px solid green;"">","null","","","","","","","","","",""
"","image-keyboard-response","170","117251","0.0-170.0","3TUI152ZZC9Z997SBW2XI3Z3LPWQ17","A38YRR6XIUXMRB","3MXX6RQ9EVRTFC527Z18RDK8KW6P4R","","384.59999990463257","img/food5.png","76","386.2999999523163","3","0","2","1","1,0.5,0,1,0.5,0,0.5,0,1","0,1,0.5,0,1,0.5,1,0.5,0","3","",""
"","html-keyboard-response","171","117555","0.0-171.0","3TUI152ZZC9Z997SBW2XI3Z3LPWQ17","A38YRR6XIUXMRB","3MXX6RQ9EVRTFC527Z18RDK8KW6P4R","","null","<img src=""img/food5.png"" style=""width:200px;border:14px solid red;"">","null","","","","","","","","","",""
"","image-keyboard-response","172","117982","0.0-172.0","3TUI152ZZC9Z997SBW2XI3Z3LPWQ17","A38YRR6XIUXMRB","3MXX6RQ9EVRTFC527Z18RDK8KW6P4R","","424.30000019073486","img/food5.png","76","426.40000009536743","3","0","2","1","1,0.5,0,1,0.5,0,0.5,0,1","0,1,0.5,0,1,0.5,1,0.5,0","3","",""
"","html-keyboard-response","173","118285","0.0-173.0","3TUI152ZZC9Z997SBW2XI3Z3LPWQ17","A38YRR6XIUXMRB","3MXX6RQ9EVRTFC527Z18RDK8KW6P4R","","null","<img src=""img/food5.png"" style=""width:200px;border:14px solid red;"">","null","","","","","","","","","",""
"","image-keyboard-response","174","118837","0.0-174.0","3TUI152ZZC9Z997SBW2XI3Z3LPWQ17","A38YRR6XIUXMRB","3MXX6RQ9EVRTFC527Z18RDK8KW6P4R","","547.7999999523163","img/food5.png","75","549.8999998569489","2","1","2","1","1,0.5,0,1,0.5,0,0.5,0,1","0,1,0.5,0,1,0.5,1,0.5,0","3","",""
"","html-keyboard-response","175","119140","0.0-175.0","3TUI152ZZC9Z997SBW2XI3Z3LPWQ17","A38YRR6XIUXMRB","3MXX6RQ9EVRTFC527Z18RDK8KW6P4R","","null","<img src=""img/food5.png"" style=""width:200px; border:14px solid green;"">","null","","","","","","","","","",""
"","image-keyboard-response","176","119873","0.0-176.0","3TUI152ZZC9Z997SBW2XI3Z3LPWQ17","A38YRR6XIUXMRB","3MXX6RQ9EVRTFC527Z18RDK8KW6P4R","","730.2999999523163","img/food4.png","75","732.0999999046326","2","1","1","1","1,0.5,0,1,0.5,0,0.5,0,1","0,1,0.5,0,1,0.5,1,0.5,0","3","",""
"","html-keyboard-response","177","120176","0.0-177.0","3TUI152ZZC9Z997SBW2XI3Z3LPWQ17","A38YRR6XIUXMRB","3MXX6RQ9EVRTFC527Z18RDK8KW6P4R","","null","<img src=""img/food4.png"" style=""width:200px; border:14px solid green;"">","null","","","","","","","","","",""
"","image-keyboard-response","178","120522","0.0-178.0","3TUI152ZZC9Z997SBW2XI3Z3LPWQ17","A38YRR6XIUXMRB","3MXX6RQ9EVRTFC527Z18RDK8KW6P4R","","344.19999980926514","img/food4.png","75","345.5","2","1","1","1","1,0.5,0,1,0.5,0,0.5,0,1","0,1,0.5,0,1,0.5,1,0.5,0","3","",""
"","html-keyboard-response","179","120825","0.0-179.0","3TUI152ZZC9Z997SBW2XI3Z3LPWQ17","A38YRR6XIUXMRB","3MXX6RQ9EVRTFC527Z18RDK8KW6P4R","","null","<img src=""img/food4.png"" style=""width:200px; border:14px solid green;"">","null","","","","","","","","","",""
"","image-keyboard-response","180","121329","0.0-180.0","3TUI152ZZC9Z997SBW2XI3Z3LPWQ17","A38YRR6XIUXMRB","3MXX6RQ9EVRTFC527Z18RDK8KW6P4R","","502.2000000476837","img/food2.png","74","503.89999985694885","1","1","3","1","1,0.5,0,1,0.5,0,0.5,0,1","0,1,0.5,0,1,0.5,1,0.5,0","3","",""
"","html-keyboard-response","181","121632","0.0-181.0","3TUI152ZZC9Z997SBW2XI3Z3LPWQ17","A38YRR6XIUXMRB","3MXX6RQ9EVRTFC527Z18RDK8KW6P4R","","null","<img src=""img/food2.png"" style=""width:200px; border:14px solid green;"">","null","","","","","","","","","",""
"","html-keyboard-response","182","126283","0.0-182.0","3TUI152ZZC9Z997SBW2XI3Z3LPWQ17","A38YRR6XIUXMRB","3MXX6RQ9EVRTFC527Z18RDK8KW6P4R","","","","","","","","","","","","","",""
"","instructions","183","141882","0.0-183.0","3TUI152ZZC9Z997SBW2XI3Z3LPWQ17","A38YRR6XIUXMRB","3MXX6RQ9EVRTFC527Z18RDK8KW6P4R","[{""page_index"":0,""viewing_time"":13414.399999856949},{""page_index"":1,""viewing_time"":2183}]","15597.700000047684","","","","","","","","","","","",""
"","image-keyboard-response","184","142502","0.0-184.0","3TUI152ZZC9Z997SBW2XI3Z3LPWQ17","A38YRR6XIUXMRB","3MXX6RQ9EVRTFC527Z18RDK8KW6P4R","","616.7999999523163","img/food1.png","75","619.4000000953674","2","0","1","2","1,0.5,0,1,0.5,0,0.5,0,1","1,0.5,0,1,0.5,0,0.5,0,1","1","false",""
"","html-keyboard-response","185","142806","0.0-185.0","3TUI152ZZC9Z997SBW2XI3Z3LPWQ17","A38YRR6XIUXMRB","3MXX6RQ9EVRTFC527Z18RDK8KW6P4R","","null","<img src=""img/food1.png"" style=""width:200px;border:14px solid red;"">","null","","","","","","","","","",""
"","image-keyboard-response","186","143053","0.0-187.0","3TUI152ZZC9Z997SBW2XI3Z3LPWQ17","A38YRR6XIUXMRB","3MXX6RQ9EVRTFC527Z18RDK8KW6P4R","","244.29999995231628","img/food3.png","75","246.29999995231628","2","0","2","2","1,0.5,0,1,0.5,0,0.5,0,1","1,0.5,0,1,0.5,0,0.5,0,1","1","false",""
"","html-keyboard-response","187","143357","0.0-188.0","3TUI152ZZC9Z997SBW2XI3Z3LPWQ17","A38YRR6XIUXMRB","3MXX6RQ9EVRTFC527Z18RDK8KW6P4R","","null","<img src=""img/food3.png"" style=""width:200px;border:14px solid red;"">","null","","","","","","","","","",""
"","image-keyboard-response","188","143591","0.0-190.0","3TUI152ZZC9Z997SBW2XI3Z3LPWQ17","A38YRR6XIUXMRB","3MXX6RQ9EVRTFC527Z18RDK8KW6P4R","","232","img/food1.png","76","233.20000004768372","3","0","1","2","1,0.5,0,1,0.5,0,0.5,0,1","1,0.5,0,1,0.5,0,0.5,0,1","1","false",""
"","html-keyboard-response","189","143894","0.0-191.0","3TUI152ZZC9Z997SBW2XI3Z3LPWQ17","A38YRR6XIUXMRB","3MXX6RQ9EVRTFC527Z18RDK8KW6P4R","","null","<img src=""img/food1.png"" style=""width:200px;border:14px solid red;"">","null","","","","","","","","","",""
"","image-keyboard-response","190","144192","0.0-193.0","3TUI152ZZC9Z997SBW2XI3Z3LPWQ17","A38YRR6XIUXMRB","3MXX6RQ9EVRTFC527Z18RDK8KW6P4R","","295.39999985694885","img/food1.png","76","296.7999999523163","3","0","1","2","1,0.5,0,1,0.5,0,0.5,0,1","1,0.5,0,1,0.5,0,0.5,0,1","1","false",""
"","html-keyboard-response","191","144495","0.0-194.0","3TUI152ZZC9Z997SBW2XI3Z3LPWQ17","A38YRR6XIUXMRB","3MXX6RQ9EVRTFC527Z18RDK8KW6P4R","","null","<img src=""img/food1.png"" style=""width:200px;border:14px solid red;"">","null","","","","","","","","","",""
"","image-keyboard-response","192","144625","0.0-196.0","3TUI152ZZC9Z997SBW2XI3Z3LPWQ17","A38YRR6XIUXMRB","3MXX6RQ9EVRTFC527Z18RDK8KW6P4R","","128.5","img/food3.png","74","129.70000004768372","1","1","2","2","1,0.5,0,1,0.5,0,0.5,0,1","1,0.5,0,1,0.5,0,0.5,0,1","1","false",""
"","html-keyboard-response","193","144929","0.0-197.0","3TUI152ZZC9Z997SBW2XI3Z3LPWQ17","A38YRR6XIUXMRB","3MXX6RQ9EVRTFC527Z18RDK8KW6P4R","","null","<img src=""img/food3.png"" style=""width:200px; border:14px solid green;"">","null","","","","","","","","","",""
"","image-keyboard-response","194","145317","0.0-199.0","3TUI152ZZC9Z997SBW2XI3Z3LPWQ17","A38YRR6XIUXMRB","3MXX6RQ9EVRTFC527Z18RDK8KW6P4R","","386.2999999523163","img/food3.png","74","387.7999999523163","1","1","2","2","1,0.5,0,1,0.5,0,0.5,0,1","1,0.5,0,1,0.5,0,0.5,0,1","1","false",""
"","html-keyboard-response","195","145620","0.0-200.0","3TUI152ZZC9Z997SBW2XI3Z3LPWQ17","A38YRR6XIUXMRB","3MXX6RQ9EVRTFC527Z18RDK8KW6P4R","","null","<img src=""img/food3.png"" style=""width:200px; border:14px solid green;"">","null","","","","","","","","","",""
"","image-keyboard-response","196","146001","0.0-202.0","3TUI152ZZC9Z997SBW2XI3Z3LPWQ17","A38YRR6XIUXMRB","3MXX6RQ9EVRTFC527Z18RDK8KW6P4R","","379.19999980926514","img/food3.png","74","380.2999999523163","1","1","2","2","1,0.5,0,1,0.5,0,0.5,0,1","1,0.5,0,1,0.5,0,0.5,0,1","1","false",""
"","html-keyboard-response","197","146304","0.0-203.0","3TUI152ZZC9Z997SBW2XI3Z3LPWQ17","A38YRR6XIUXMRB","3MXX6RQ9EVRTFC527Z18RDK8KW6P4R","","null","<img src=""img/food3.png"" style=""width:200px; border:14px solid green;"">","null","","","","","","","","","",""
"","image-keyboard-response","198","146555","0.0-205.0","3TUI152ZZC9Z997SBW2XI3Z3LPWQ17","A38YRR6XIUXMRB","3MXX6RQ9EVRTFC527Z18RDK8KW6P4R","","247.80000019073486","img/food3.png","74","249.19999980926514","1","1","2","2","1,0.5,0,1,0.5,0,0.5,0,1","1,0.5,0,1,0.5,0,0.5,0,1","1","false",""
"","html-keyboard-response","199","146857","0.0-206.0","3TUI152ZZC9Z997SBW2XI3Z3LPWQ17","A38YRR6XIUXMRB","3MXX6RQ9EVRTFC527Z18RDK8KW6P4R","","null","<img src=""img/food3.png"" style=""width:200px; border:14px solid green;"">","null","","","","","","","","","",""
"","image-keyboard-response","200","147273","0.0-208.0","3TUI152ZZC9Z997SBW2XI3Z3LPWQ17","A38YRR6XIUXMRB","3MXX6RQ9EVRTFC527Z18RDK8KW6P4R","","414","img/food6.png","75","415.2000000476837","2","0","3","2","1,0.5,0,1,0.5,0,0.5,0,1","1,0.5,0,1,0.5,0,0.5,0,1","1","false",""
"","html-keyboard-response","201","147576","0.0-209.0","3TUI152ZZC9Z997SBW2XI3Z3LPWQ17","A38YRR6XIUXMRB","3MXX6RQ9EVRTFC527Z18RDK8KW6P4R","","null","<img src=""img/food6.png"" style=""width:200px;border:14px solid red;"">","null","","","","","","","","","",""
"","image-keyboard-response","202","147789","0.0-211.0","3TUI152ZZC9Z997SBW2XI3Z3LPWQ17","A38YRR6XIUXMRB","3MXX6RQ9EVRTFC527Z18RDK8KW6P4R","","210.79999995231628","img/food6.png","74","212.40000009536743","1","1","3","2","1,0.5,0,1,0.5,0,0.5,0,1","1,0.5,0,1,0.5,0,0.5,0,1","1","false",""
"","html-keyboard-response","203","148092","0.0-212.0","3TUI152ZZC9Z997SBW2XI3Z3LPWQ17","A38YRR6XIUXMRB","3MXX6RQ9EVRTFC527Z18RDK8KW6P4R","","null","<img src=""img/food6.png"" style=""width:200px; border:14px solid green;"">","null","","","","","","","","","",""
"","image-keyboard-response","204","148342","0.0-214.0","3TUI152ZZC9Z997SBW2XI3Z3LPWQ17","A38YRR6XIUXMRB","3MXX6RQ9EVRTFC527Z18RDK8KW6P4R","","248","img/food1.png","74","249.10000014305115","1","1","1","2","1,0.5,0,1,0.5,0,0.5,0,1","1,0.5,0,1,0.5,0,0.5,0,1","1","false",""
"","html-keyboard-response","205","148645","0.0-215.0","3TUI152ZZC9Z997SBW2XI3Z3LPWQ17","A38YRR6XIUXMRB","3MXX6RQ9EVRTFC527Z18RDK8KW6P4R","","null","<img src=""img/food1.png"" style=""width:200px; border:14px solid green;"">","null","","","","","","","","","",""
"","image-keyboard-response","206","148898","0.0-217.0","3TUI152ZZC9Z997SBW2XI3Z3LPWQ17","A38YRR6XIUXMRB","3MXX6RQ9EVRTFC527Z18RDK8KW6P4R","","250.40000009536743","img/food1.png","74","251.60000014305115","1","1","1","2","1,0.5,0,1,0.5,0,0.5,0,1","1,0.5,0,1,0.5,0,0.5,0,1","1","false",""
"","html-keyboard-response","207","149202","0.0-218.0","3TUI152ZZC9Z997SBW2XI3Z3LPWQ17","A38YRR6XIUXMRB","3MXX6RQ9EVRTFC527Z18RDK8KW6P4R","","null","<img src=""img/food1.png"" style=""width:200px; border:14px solid green;"">","null","","","","","","","","","",""
"","image-keyboard-response","208","149443","0.0-220.0","3TUI152ZZC9Z997SBW2XI3Z3LPWQ17","A38YRR6XIUXMRB","3MXX6RQ9EVRTFC527Z18RDK8KW6P4R","","237.90000009536743","img/food3.png","74","239.40000009536743","1","1","2","2","1,0.5,0,1,0.5,0,0.5,0,1","1,0.5,0,1,0.5,0,0.5,0,1","1","false",""
"","html-keyboard-response","209","149752","0.0-221.0","3TUI152ZZC9Z997SBW2XI3Z3LPWQ17","A38YRR6XIUXMRB","3MXX6RQ9EVRTFC527Z18RDK8KW6P4R","","null","<img src=""img/food3.png"" style=""width:200px; border:14px solid green;"">","null","","","","","","","","","",""
"","image-keyboard-response","210","150031","0.0-223.0","3TUI152ZZC9Z997SBW2XI3Z3LPWQ17","A38YRR6XIUXMRB","3MXX6RQ9EVRTFC527Z18RDK8KW6P4R","","276.89999985694885","img/food6.png","74","278.40000009536743","1","1","3","2","1,0.5,0,1,0.5,0,0.5,0,1","1,0.5,0,1,0.5,0,0.5,0,1","1","false",""
"","html-keyboard-response","211","150334","0.0-224.0","3TUI152ZZC9Z997SBW2XI3Z3LPWQ17","A38YRR6XIUXMRB","3MXX6RQ9EVRTFC527Z18RDK8KW6P4R","","null","<img src=""img/food6.png"" style=""width:200px; border:14px solid green;"">","null","","","","","","","","","",""
"","image-keyboard-response","212","150599","0.0-226.0","3TUI152ZZC9Z997SBW2XI3Z3LPWQ17","A38YRR6XIUXMRB","3MXX6RQ9EVRTFC527Z18RDK8KW6P4R","","260.60000014305115","img/food6.png","74","263.40000009536743","1","0","3","2","1,0.5,0,1,0.5,0,0.5,0,1","1,0.5,0,1,0.5,0,0.5,0,1","1","false",""
"","html-keyboard-response","213","150904","0.0-227.0","3TUI152ZZC9Z997SBW2XI3Z3LPWQ17","A38YRR6XIUXMRB","3MXX6RQ9EVRTFC527Z18RDK8KW6P4R","","null","<img src=""img/food6.png"" style=""width:200px;border:14px solid red;"">","null","","","","","","","","","",""
"","image-keyboard-response","214","151210","0.0-229.0","3TUI152ZZC9Z997SBW2XI3Z3LPWQ17","A38YRR6XIUXMRB","3MXX6RQ9EVRTFC527Z18RDK8KW6P4R","","303.19999980926514","img/food1.png","76","304.5","3","0","1","2","1,0.5,0,1,0.5,0,0.5,0,1","1,0.5,0,1,0.5,0,0.5,0,1","1","false",""
"","html-keyboard-response","215","151513","0.0-230.0","3TUI152ZZC9Z997SBW2XI3Z3LPWQ17","A38YRR6XIUXMRB","3MXX6RQ9EVRTFC527Z18RDK8KW6P4R","","null","<img src=""img/food1.png"" style=""width:200px;border:14px solid red;"">","null","","","","","","","","","",""
"","image-keyboard-response","216","151753","0.0-232.0","3TUI152ZZC9Z997SBW2XI3Z3LPWQ17","A38YRR6XIUXMRB","3MXX6RQ9EVRTFC527Z18RDK8KW6P4R","","236.60000014305115","img/food6.png","74","238.09999990463257","1","1","3","2","1,0.5,0,1,0.5,0,0.5,0,1","1,0.5,0,1,0.5,0,0.5,0,1","1","false",""
"","html-keyboard-response","217","152056","0.0-233.0","3TUI152ZZC9Z997SBW2XI3Z3LPWQ17","A38YRR6XIUXMRB","3MXX6RQ9EVRTFC527Z18RDK8KW6P4R","","null","<img src=""img/food6.png"" style=""width:200px; border:14px solid green;"">","null","","","","","","","","","",""
"","image-keyboard-response","218","152354","0.0-235.0","3TUI152ZZC9Z997SBW2XI3Z3LPWQ17","A38YRR6XIUXMRB","3MXX6RQ9EVRTFC527Z18RDK8KW6P4R","","294.89999985694885","img/food6.png","74","296.7999999523163","1","1","3","2","1,0.5,0,1,0.5,0,0.5,0,1","1,0.5,0,1,0.5,0,0.5,0,1","1","false",""
"","html-keyboard-response","219","152658","0.0-236.0","3TUI152ZZC9Z997SBW2XI3Z3LPWQ17","A38YRR6XIUXMRB","3MXX6RQ9EVRTFC527Z18RDK8KW6P4R","","null","<img src=""img/food6.png"" style=""width:200px; border:14px solid green;"">","null","","","","","","","","","",""
"","image-keyboard-response","220","153134","0.0-238.0","3TUI152ZZC9Z997SBW2XI3Z3LPWQ17","A38YRR6XIUXMRB","3MXX6RQ9EVRTFC527Z18RDK8KW6P4R","","472.19999980926514","img/food3.png","74","473.90000009536743","1","1","2","2","1,0.5,0,1,0.5,0,0.5,0,1","1,0.5,0,1,0.5,0,0.5,0,1","1","false",""
"","html-keyboard-response","221","153438","0.0-239.0","3TUI152ZZC9Z997SBW2XI3Z3LPWQ17","A38YRR6XIUXMRB","3MXX6RQ9EVRTFC527Z18RDK8KW6P4R","","null","<img src=""img/food3.png"" style=""width:200px; border:14px solid green;"">","null","","","","","","","","","",""
"","image-keyboard-response","222","153818","0.0-241.0","3TUI152ZZC9Z997SBW2XI3Z3LPWQ17","A38YRR6XIUXMRB","3MXX6RQ9EVRTFC527Z18RDK8KW6P4R","","377","img/food6.png","74","379.09999990463257","1","0","3","2","1,0.5,0,1,0.5,0,0.5,0,1","1,0.5,0,1,0.5,0,0.5,0,1","1","false",""
"","html-keyboard-response","223","154121","0.0-242.0","3TUI152ZZC9Z997SBW2XI3Z3LPWQ17","A38YRR6XIUXMRB","3MXX6RQ9EVRTFC527Z18RDK8KW6P4R","","null","<img src=""img/food6.png"" style=""width:200px;border:14px solid red;"">","null","","","","","","","","","",""
"","image-keyboard-response","224","154482","0.0-244.0","3TUI152ZZC9Z997SBW2XI3Z3LPWQ17","A38YRR6XIUXMRB","3MXX6RQ9EVRTFC527Z18RDK8KW6P4R","","359.7000000476837","img/food1.png","75","360.80000019073486","2","0","1","2","1,0.5,0,1,0.5,0,0.5,0,1","1,0.5,0,1,0.5,0,0.5,0,1","1","false",""
"","html-keyboard-response","225","154785","0.0-245.0","3TUI152ZZC9Z997SBW2XI3Z3LPWQ17","A38YRR6XIUXMRB","3MXX6RQ9EVRTFC527Z18RDK8KW6P4R","","null","<img src=""img/food1.png"" style=""width:200px;border:14px solid red;"">","null","","","","","","","","","",""
"","image-keyboard-response","226","155136","0.0-247.0","3TUI152ZZC9Z997SBW2XI3Z3LPWQ17","A38YRR6XIUXMRB","3MXX6RQ9EVRTFC527Z18RDK8KW6P4R","","348.2999999523163","img/food6.png","76","349.69999980926514","3","1","3","2","1,0.5,0,1,0.5,0,0.5,0,1","1,0.5,0,1,0.5,0,0.5,0,1","1","false",""
"","html-keyboard-response","227","155439","0.0-248.0","3TUI152ZZC9Z997SBW2XI3Z3LPWQ17","A38YRR6XIUXMRB","3MXX6RQ9EVRTFC527Z18RDK8KW6P4R","","null","<img src=""img/food6.png"" style=""width:200px; border:14px solid green;"">","null","","","","","","","","","",""
"","image-keyboard-response","228","155706","0.0-250.0","3TUI152ZZC9Z997SBW2XI3Z3LPWQ17","A38YRR6XIUXMRB","3MXX6RQ9EVRTFC527Z18RDK8KW6P4R","","262.5","img/food3.png","74","265.10000014305115","1","1","2","2","1,0.5,0,1,0.5,0,0.5,0,1","1,0.5,0,1,0.5,0,0.5,0,1","1","false",""
"","html-keyboard-response","229","156009","0.0-251.0","3TUI152ZZC9Z997SBW2XI3Z3LPWQ17","A38YRR6XIUXMRB","3MXX6RQ9EVRTFC527Z18RDK8KW6P4R","","null","<img src=""img/food3.png"" style=""width:200px; border:14px solid green;"">","null","","","","","","","","","",""
"","image-keyboard-response","230","156234","0.0-253.0","3TUI152ZZC9Z997SBW2XI3Z3LPWQ17","A38YRR6XIUXMRB","3MXX6RQ9EVRTFC527Z18RDK8KW6P4R","","222.5","img/food1.png","76","223.70000004768372","3","0","1","2","1,0.5,0,1,0.5,0,0.5,0,1","1,0.5,0,1,0.5,0,0.5,0,1","1","false",""
"","html-keyboard-response","231","156537","0.0-254.0","3TUI152ZZC9Z997SBW2XI3Z3LPWQ17","A38YRR6XIUXMRB","3MXX6RQ9EVRTFC527Z18RDK8KW6P4R","","null","<img src=""img/food1.png"" style=""width:200px;border:14px solid red;"">","null","","","","","","","","","",""
"","image-keyboard-response","232","156781","0.0-256.0","3TUI152ZZC9Z997SBW2XI3Z3LPWQ17","A38YRR6XIUXMRB","3MXX6RQ9EVRTFC527Z18RDK8KW6P4R","","240.5","img/food6.png","74","242.09999990463257","1","0","3","2","1,0.5,0,1,0.5,0,0.5,0,1","1,0.5,0,1,0.5,0,0.5,0,1","1","false",""
"","html-keyboard-response","233","157083","0.0-257.0","3TUI152ZZC9Z997SBW2XI3Z3LPWQ17","A38YRR6XIUXMRB","3MXX6RQ9EVRTFC527Z18RDK8KW6P4R","","null","<img src=""img/food6.png"" style=""width:200px;border:14px solid red;"">","null","","","","","","","","","",""
"","image-keyboard-response","234","157581","0.0-259.0","3TUI152ZZC9Z997SBW2XI3Z3LPWQ17","A38YRR6XIUXMRB","3MXX6RQ9EVRTFC527Z18RDK8KW6P4R","","495.2000000476837","img/food1.png","75","496.2999999523163","2","0","1","2","1,0.5,0,1,0.5,0,0.5,0,1","1,0.5,0,1,0.5,0,0.5,0,1","1","false",""
"","html-keyboard-response","235","157883","0.0-260.0","3TUI152ZZC9Z997SBW2XI3Z3LPWQ17","A38YRR6XIUXMRB","3MXX6RQ9EVRTFC527Z18RDK8KW6P4R","","null","<img src=""img/food1.png"" style=""width:200px;border:14px solid red;"">","null","","","","","","","","","",""
"","image-keyboard-response","236","158137","0.0-262.0","3TUI152ZZC9Z997SBW2XI3Z3LPWQ17","A38YRR6XIUXMRB","3MXX6RQ9EVRTFC527Z18RDK8KW6P4R","","249.60000014305115","img/food6.png","75","252","2","0","3","2","1,0.5,0,1,0.5,0,0.5,0,1","1,0.5,0,1,0.5,0,0.5,0,1","1","false",""
"","html-keyboard-response","237","158439","0.0-263.0","3TUI152ZZC9Z997SBW2XI3Z3LPWQ17","A38YRR6XIUXMRB","3MXX6RQ9EVRTFC527Z18RDK8KW6P4R","","null","<img src=""img/food6.png"" style=""width:200px;border:14px solid red;"">","null","","","","","","","","","",""
"","image-keyboard-response","238","158716","0.0-265.0","3TUI152ZZC9Z997SBW2XI3Z3LPWQ17","A38YRR6XIUXMRB","3MXX6RQ9EVRTFC527Z18RDK8KW6P4R","","273.59999990463257","img/food1.png","74","275.2000000476837","1","1","1","2","1,0.5,0,1,0.5,0,0.5,0,1","1,0.5,0,1,0.5,0,0.5,0,1","1","false",""
"","html-keyboard-response","239","159019","0.0-266.0","3TUI152ZZC9Z997SBW2XI3Z3LPWQ17","A38YRR6XIUXMRB","3MXX6RQ9EVRTFC527Z18RDK8KW6P4R","","null","<img src=""img/food1.png"" style=""width:200px; border:14px solid green;"">","null","","","","","","","","","",""
"","image-keyboard-response","240","159320","0.0-268.0","3TUI152ZZC9Z997SBW2XI3Z3LPWQ17","A38YRR6XIUXMRB","3MXX6RQ9EVRTFC527Z18RDK8KW6P4R","","297.39999985694885","img/food3.png","74","299.2000000476837","1","1","2","2","1,0.5,0,1,0.5,0,0.5,0,1","1,0.5,0,1,0.5,0,0.5,0,1","1","false",""
"","html-keyboard-response","241","159623","0.0-269.0","3TUI152ZZC9Z997SBW2XI3Z3LPWQ17","A38YRR6XIUXMRB","3MXX6RQ9EVRTFC527Z18RDK8KW6P4R","","null","<img src=""img/food3.png"" style=""width:200px; border:14px solid green;"">","null","","","","","","","","","",""
"","image-keyboard-response","242","159882","0.0-271.0","3TUI152ZZC9Z997SBW2XI3Z3LPWQ17","A38YRR6XIUXMRB","3MXX6RQ9EVRTFC527Z18RDK8KW6P4R","","256.7000000476837","img/food1.png","74","257.90000009536743","1","1","1","2","1,0.5,0,1,0.5,0,0.5,0,1","1,0.5,0,1,0.5,0,0.5,0,1","1","false",""
"","html-keyboard-response","243","160190","0.0-272.0","3TUI152ZZC9Z997SBW2XI3Z3LPWQ17","A38YRR6XIUXMRB","3MXX6RQ9EVRTFC527Z18RDK8KW6P4R","","null","<img src=""img/food1.png"" style=""width:200px; border:14px solid green;"">","null","","","","","","","","","",""
"","image-keyboard-response","244","160525","0.0-274.0","3TUI152ZZC9Z997SBW2XI3Z3LPWQ17","A38YRR6XIUXMRB","3MXX6RQ9EVRTFC527Z18RDK8KW6P4R","","332.7000000476837","img/food3.png","74","333.7000000476837","1","1","2","2","1,0.5,0,1,0.5,0,0.5,0,1","1,0.5,0,1,0.5,0,0.5,0,1","1","false",""
"","html-keyboard-response","245","160829","0.0-275.0","3TUI152ZZC9Z997SBW2XI3Z3LPWQ17","A38YRR6XIUXMRB","3MXX6RQ9EVRTFC527Z18RDK8KW6P4R","","null","<img src=""img/food3.png"" style=""width:200px; border:14px solid green;"">","null","","","","","","","","","",""
"","image-keyboard-response","246","161348","0.0-277.0","3TUI152ZZC9Z997SBW2XI3Z3LPWQ17","A38YRR6XIUXMRB","3MXX6RQ9EVRTFC527Z18RDK8KW6P4R","","511.69999980926514","img/food6.png","74","513.4000000953674","1","0","3","2","1,0.5,0,1,0.5,0,0.5,0,1","1,0.5,0,1,0.5,0,0.5,0,1","1","false",""
"","html-keyboard-response","247","161650","0.0-278.0","3TUI152ZZC9Z997SBW2XI3Z3LPWQ17","A38YRR6XIUXMRB","3MXX6RQ9EVRTFC527Z18RDK8KW6P4R","","null","<img src=""img/food6.png"" style=""width:200px;border:14px solid red;"">","null","","","","","","","","","",""
"","image-keyboard-response","248","161982","0.0-280.0","3TUI152ZZC9Z997SBW2XI3Z3LPWQ17","A38YRR6XIUXMRB","3MXX6RQ9EVRTFC527Z18RDK8KW6P4R","","328.7000000476837","img/food1.png","74","330.30000019073486","1","1","1","2","1,0.5,0,1,0.5,0,0.5,0,1","1,0.5,0,1,0.5,0,0.5,0,1","1","false",""
"","html-keyboard-response","249","162290","0.0-281.0","3TUI152ZZC9Z997SBW2XI3Z3LPWQ17","A38YRR6XIUXMRB","3MXX6RQ9EVRTFC527Z18RDK8KW6P4R","","null","<img src=""img/food1.png"" style=""width:200px; border:14px solid green;"">","null","","","","","","","","","",""
"","image-keyboard-response","250","162618","0.0-283.0","3TUI152ZZC9Z997SBW2XI3Z3LPWQ17","A38YRR6XIUXMRB","3MXX6RQ9EVRTFC527Z18RDK8KW6P4R","","324.7000000476837","img/food3.png","76","327.40000009536743","3","0","2","2","1,0.5,0,1,0.5,0,0.5,0,1","1,0.5,0,1,0.5,0,0.5,0,1","1","false",""
"","html-keyboard-response","251","162929","0.0-284.0","3TUI152ZZC9Z997SBW2XI3Z3LPWQ17","A38YRR6XIUXMRB","3MXX6RQ9EVRTFC527Z18RDK8KW6P4R","","null","<img src=""img/food3.png"" style=""width:200px;border:14px solid red;"">","null","","","","","","","","","",""
"","image-keyboard-response","252","163396","0.0-286.0","3TUI152ZZC9Z997SBW2XI3Z3LPWQ17","A38YRR6XIUXMRB","3MXX6RQ9EVRTFC527Z18RDK8KW6P4R","","464.7000000476837","img/food6.png","74","465.7000000476837","1","0","3","2","1,0.5,0,1,0.5,0,0.5,0,1","1,0.5,0,1,0.5,0,0.5,0,1","1","false",""
"","html-keyboard-response","253","163701","0.0-287.0","3TUI152ZZC9Z997SBW2XI3Z3LPWQ17","A38YRR6XIUXMRB","3MXX6RQ9EVRTFC527Z18RDK8KW6P4R","","null","<img src=""img/food6.png"" style=""width:200px;border:14px solid red;"">","null","","","","","","","","","",""
"","image-keyboard-response","254","164463","0.0-289.0","3TUI152ZZC9Z997SBW2XI3Z3LPWQ17","A38YRR6XIUXMRB","3MXX6RQ9EVRTFC527Z18RDK8KW6P4R","","759.5","img/food6.png","75","761.2000000476837","2","0","3","2","1,0.5,0,1,0.5,0,0.5,0,1","1,0.5,0,1,0.5,0,0.5,0,1","1","false",""
"","html-keyboard-response","255","164766","0.0-290.0","3TUI152ZZC9Z997SBW2XI3Z3LPWQ17","A38YRR6XIUXMRB","3MXX6RQ9EVRTFC527Z18RDK8KW6P4R","","null","<img src=""img/food6.png"" style=""width:200px;border:14px solid red;"">","null","","","","","","","","","",""
"","image-keyboard-response","256","165241","0.0-292.0","3TUI152ZZC9Z997SBW2XI3Z3LPWQ17","A38YRR6XIUXMRB","3MXX6RQ9EVRTFC527Z18RDK8KW6P4R","","472.60000014305115","img/food3.png","74","473.7999999523163","1","1","2","2","1,0.5,0,1,0.5,0,0.5,0,1","1,0.5,0,1,0.5,0,0.5,0,1","1","false",""
"","html-keyboard-response","257","165562","0.0-293.0","3TUI152ZZC9Z997SBW2XI3Z3LPWQ17","A38YRR6XIUXMRB","3MXX6RQ9EVRTFC527Z18RDK8KW6P4R","","null","<img src=""img/food3.png"" style=""width:200px; border:14px solid green;"">","null","","","","","","","","","",""
"","image-keyboard-response","258","166004","0.0-295.0","3TUI152ZZC9Z997SBW2XI3Z3LPWQ17","A38YRR6XIUXMRB","3MXX6RQ9EVRTFC527Z18RDK8KW6P4R","","439.39999985694885","img/food6.png","74","440.7000000476837","1","1","3","2","1,0.5,0,1,0.5,0,0.5,0,1","1,0.5,0,1,0.5,0,0.5,0,1","1","false",""
"","html-keyboard-response","259","166307","0.0-296.0","3TUI152ZZC9Z997SBW2XI3Z3LPWQ17","A38YRR6XIUXMRB","3MXX6RQ9EVRTFC527Z18RDK8KW6P4R","","null","<img src=""img/food6.png"" style=""width:200px; border:14px solid green;"">","null","","","","","","","","","",""
"","image-keyboard-response","260","166807","0.0-298.0","3TUI152ZZC9Z997SBW2XI3Z3LPWQ17","A38YRR6XIUXMRB","3MXX6RQ9EVRTFC527Z18RDK8KW6P4R","","497","img/food1.png","74","498.59999990463257","1","1","1","2","1,0.5,0,1,0.5,0,0.5,0,1","1,0.5,0,1,0.5,0,0.5,0,1","1","false",""
"","html-keyboard-response","261","167110","0.0-299.0","3TUI152ZZC9Z997SBW2XI3Z3LPWQ17","A38YRR6XIUXMRB","3MXX6RQ9EVRTFC527Z18RDK8KW6P4R","","null","<img src=""img/food1.png"" style=""width:200px; border:14px solid green;"">","null","","","","","","","","","",""
"","image-keyboard-response","262","167565","0.0-301.0","3TUI152ZZC9Z997SBW2XI3Z3LPWQ17","A38YRR6XIUXMRB","3MXX6RQ9EVRTFC527Z18RDK8KW6P4R","","452.7000000476837","img/food1.png","74","454.09999990463257","1","1","1","2","1,0.5,0,1,0.5,0,0.5,0,1","1,0.5,0,1,0.5,0,0.5,0,1","1","false",""
"","html-keyboard-response","263","167868","0.0-302.0","3TUI152ZZC9Z997SBW2XI3Z3LPWQ17","A38YRR6XIUXMRB","3MXX6RQ9EVRTFC527Z18RDK8KW6P4R","","null","<img src=""img/food1.png"" style=""width:200px; border:14px solid green;"">","null","","","","","","","","","",""
"","image-keyboard-response","264","168247","0.0-304.0","3TUI152ZZC9Z997SBW2XI3Z3LPWQ17","A38YRR6XIUXMRB","3MXX6RQ9EVRTFC527Z18RDK8KW6P4R","","376.59999990463257","img/food3.png","74","378","1","1","2","2","1,0.5,0,1,0.5,0,0.5,0,1","1,0.5,0,1,0.5,0,0.5,0,1","1","false",""
"","html-keyboard-response","265","168550","0.0-305.0","3TUI152ZZC9Z997SBW2XI3Z3LPWQ17","A38YRR6XIUXMRB","3MXX6RQ9EVRTFC527Z18RDK8KW6P4R","","null","<img src=""img/food3.png"" style=""width:200px; border:14px solid green;"">","null","","","","","","","","","",""
"","image-keyboard-response","266","168908","0.0-307.0","3TUI152ZZC9Z997SBW2XI3Z3LPWQ17","A38YRR6XIUXMRB","3MXX6RQ9EVRTFC527Z18RDK8KW6P4R","","355","img/food3.png","74","356.2999999523163","1","1","2","2","1,0.5,0,1,0.5,0,0.5,0,1","1,0.5,0,1,0.5,0,0.5,0,1","1","false",""
"","html-keyboard-response","267","169211","0.0-308.0","3TUI152ZZC9Z997SBW2XI3Z3LPWQ17","A38YRR6XIUXMRB","3MXX6RQ9EVRTFC527Z18RDK8KW6P4R","","null","<img src=""img/food3.png"" style=""width:200px; border:14px solid green;"">","null","","","","","","","","","",""
"","image-keyboard-response","268","169461","0.0-310.0","3TUI152ZZC9Z997SBW2XI3Z3LPWQ17","A38YRR6XIUXMRB","3MXX6RQ9EVRTFC527Z18RDK8KW6P4R","","247","img/food3.png","74","248.40000009536743","1","1","2","2","1,0.5,0,1,0.5,0,0.5,0,1","1,0.5,0,1,0.5,0,0.5,0,1","1","false",""
"","html-keyboard-response","269","169763","0.0-311.0","3TUI152ZZC9Z997SBW2XI3Z3LPWQ17","A38YRR6XIUXMRB","3MXX6RQ9EVRTFC527Z18RDK8KW6P4R","","null","<img src=""img/food3.png"" style=""width:200px; border:14px solid green;"">","null","","","","","","","","","",""
"","image-keyboard-response","270","170069","0.0-313.0","3TUI152ZZC9Z997SBW2XI3Z3LPWQ17","A38YRR6XIUXMRB","3MXX6RQ9EVRTFC527Z18RDK8KW6P4R","","303.40000009536743","img/food3.png","74","304.80000019073486","1","1","2","2","1,0.5,0,1,0.5,0,0.5,0,1","1,0.5,0,1,0.5,0,0.5,0,1","1","false",""
"","html-keyboard-response","271","170374","0.0-314.0","3TUI152ZZC9Z997SBW2XI3Z3LPWQ17","A38YRR6XIUXMRB","3MXX6RQ9EVRTFC527Z18RDK8KW6P4R","","null","<img src=""img/food3.png"" style=""width:200px; border:14px solid green;"">","null","","","","","","","","","",""
"","image-keyboard-response","272","170729","0.0-316.0","3TUI152ZZC9Z997SBW2XI3Z3LPWQ17","A38YRR6XIUXMRB","3MXX6RQ9EVRTFC527Z18RDK8KW6P4R","","351.2000000476837","img/food1.png","76","352.7999999523163","3","0","1","2","1,0.5,0,1,0.5,0,0.5,0,1","1,0.5,0,1,0.5,0,0.5,0,1","1","false",""
"","html-keyboard-response","273","171052","0.0-317.0","3TUI152ZZC9Z997SBW2XI3Z3LPWQ17","A38YRR6XIUXMRB","3MXX6RQ9EVRTFC527Z18RDK8KW6P4R","","null","<img src=""img/food1.png"" style=""width:200px;border:14px solid red;"">","null","","","","","","","","","",""
"","image-keyboard-response","274","171385","0.0-319.0","3TUI152ZZC9Z997SBW2XI3Z3LPWQ17","A38YRR6XIUXMRB","3MXX6RQ9EVRTFC527Z18RDK8KW6P4R","","329.60000014305115","img/food1.png","76","331.2000000476837","3","0","1","2","1,0.5,0,1,0.5,0,0.5,0,1","1,0.5,0,1,0.5,0,0.5,0,1","1","false",""
"","html-keyboard-response","275","171690","0.0-320.0","3TUI152ZZC9Z997SBW2XI3Z3LPWQ17","A38YRR6XIUXMRB","3MXX6RQ9EVRTFC527Z18RDK8KW6P4R","","null","<img src=""img/food1.png"" style=""width:200px;border:14px solid red;"">","null","","","","","","","","","",""
"","image-keyboard-response","276","171728","0.0-322.0","3TUI152ZZC9Z997SBW2XI3Z3LPWQ17","A38YRR6XIUXMRB","3MXX6RQ9EVRTFC527Z18RDK8KW6P4R","","34.89999985694885","img/food1.png","75","36.59999990463257","2","0","1","2","1,0.5,0,1,0.5,0,0.5,0,1","1,0.5,0,1,0.5,0,0.5,0,1","1","false",""
"","html-keyboard-response","277","172031","0.0-323.0","3TUI152ZZC9Z997SBW2XI3Z3LPWQ17","A38YRR6XIUXMRB","3MXX6RQ9EVRTFC527Z18RDK8KW6P4R","","null","<img src=""img/food1.png"" style=""width:200px;border:14px solid red;"">","null","","","","","","","","","",""
"","image-keyboard-response","278","172511","0.0-325.0","3TUI152ZZC9Z997SBW2XI3Z3LPWQ17","A38YRR6XIUXMRB","3MXX6RQ9EVRTFC527Z18RDK8KW6P4R","","477.09999990463257","img/food3.png","74","478.2999999523163","1","1","2","2","1,0.5,0,1,0.5,0,0.5,0,1","1,0.5,0,1,0.5,0,0.5,0,1","1","false",""
"","html-keyboard-response","279","172821","0.0-326.0","3TUI152ZZC9Z997SBW2XI3Z3LPWQ17","A38YRR6XIUXMRB","3MXX6RQ9EVRTFC527Z18RDK8KW6P4R","","null","<img src=""img/food3.png"" style=""width:200px; border:14px solid green;"">","null","","","","","","","","","",""
"","image-keyboard-response","280","173210","0.0-328.0","3TUI152ZZC9Z997SBW2XI3Z3LPWQ17","A38YRR6XIUXMRB","3MXX6RQ9EVRTFC527Z18RDK8KW6P4R","","386.7000000476837","img/food1.png","74","388.09999990463257","1","1","1","2","1,0.5,0,1,0.5,0,0.5,0,1","1,0.5,0,1,0.5,0,0.5,0,1","1","false",""
"","html-keyboard-response","281","173514","0.0-329.0","3TUI152ZZC9Z997SBW2XI3Z3LPWQ17","A38YRR6XIUXMRB","3MXX6RQ9EVRTFC527Z18RDK8KW6P4R","","null","<img src=""img/food1.png"" style=""width:200px; border:14px solid green;"">","null","","","","","","","","","",""
"","image-keyboard-response","282","173804","0.0-331.0","3TUI152ZZC9Z997SBW2XI3Z3LPWQ17","A38YRR6XIUXMRB","3MXX6RQ9EVRTFC527Z18RDK8KW6P4R","","287.39999985694885","img/food1.png","74","289.10000014305115","1","1","1","2","1,0.5,0,1,0.5,0,0.5,0,1","1,0.5,0,1,0.5,0,0.5,0,1","1","false",""
"","html-keyboard-response","283","174108","0.0-332.0","3TUI152ZZC9Z997SBW2XI3Z3LPWQ17","A38YRR6XIUXMRB","3MXX6RQ9EVRTFC527Z18RDK8KW6P4R","","null","<img src=""img/food1.png"" style=""width:200px; border:14px solid green;"">","null","","","","","","","","","",""
"","image-keyboard-response","284","174384","0.0-334.0","3TUI152ZZC9Z997SBW2XI3Z3LPWQ17","A38YRR6XIUXMRB","3MXX6RQ9EVRTFC527Z18RDK8KW6P4R","","274.2000000476837","img/food6.png","74","275.30000019073486","1","0","3","2","1,0.5,0,1,0.5,0,0.5,0,1","1,0.5,0,1,0.5,0,0.5,0,1","1","false",""
"","html-keyboard-response","285","174687","0.0-335.0","3TUI152ZZC9Z997SBW2XI3Z3LPWQ17","A38YRR6XIUXMRB","3MXX6RQ9EVRTFC527Z18RDK8KW6P4R","","null","<img src=""img/food6.png"" style=""width:200px;border:14px solid red;"">","null","","","","","","","","","",""
"","image-keyboard-response","286","175190","0.0-337.0","3TUI152ZZC9Z997SBW2XI3Z3LPWQ17","A38YRR6XIUXMRB","3MXX6RQ9EVRTFC527Z18RDK8KW6P4R","","499.89999985694885","img/food1.png","75","501.39999985694885","2","1","1","2","1,0.5,0,1,0.5,0,0.5,0,1","1,0.5,0,1,0.5,0,0.5,0,1","1","false",""
"","html-keyboard-response","287","175493","0.0-338.0","3TUI152ZZC9Z997SBW2XI3Z3LPWQ17","A38YRR6XIUXMRB","3MXX6RQ9EVRTFC527Z18RDK8KW6P4R","","null","<img src=""img/food1.png"" style=""width:200px; border:14px solid green;"">","null","","","","","","","","","",""
"","image-keyboard-response","288","175897","0.0-340.0","3TUI152ZZC9Z997SBW2XI3Z3LPWQ17","A38YRR6XIUXMRB","3MXX6RQ9EVRTFC527Z18RDK8KW6P4R","","401.10000014305115","img/food3.png","74","402.40000009536743","1","1","2","2","1,0.5,0,1,0.5,0,0.5,0,1","1,0.5,0,1,0.5,0,0.5,0,1","1","false",""
"","html-keyboard-response","289","176199","0.0-341.0","3TUI152ZZC9Z997SBW2XI3Z3LPWQ17","A38YRR6XIUXMRB","3MXX6RQ9EVRTFC527Z18RDK8KW6P4R","","null","<img src=""img/food3.png"" style=""width:200px; border:14px solid green;"">","null","","","","","","","","","",""
"","image-keyboard-response","290","176479","0.0-343.0","3TUI152ZZC9Z997SBW2XI3Z3LPWQ17","A38YRR6XIUXMRB","3MXX6RQ9EVRTFC527Z18RDK8KW6P4R","","276.7999999523163","img/food6.png","74","278.2999999523163","1","1","3","2","1,0.5,0,1,0.5,0,0.5,0,1","1,0.5,0,1,0.5,0,0.5,0,1","1","false",""
"","html-keyboard-response","291","176796","0.0-344.0","3TUI152ZZC9Z997SBW2XI3Z3LPWQ17","A38YRR6XIUXMRB","3MXX6RQ9EVRTFC527Z18RDK8KW6P4R","","null","<img src=""img/food6.png"" style=""width:200px; border:14px solid green;"">","null","","","","","","","","","",""
"","image-keyboard-response","292","177166","0.0-346.0","3TUI152ZZC9Z997SBW2XI3Z3LPWQ17","A38YRR6XIUXMRB","3MXX6RQ9EVRTFC527Z18RDK8KW6P4R","","367.39999985694885","img/food3.png","74","369.19999980926514","1","1","2","2","1,0.5,0,1,0.5,0,0.5,0,1","1,0.5,0,1,0.5,0,0.5,0,1","1","false",""
"","html-keyboard-response","293","177471","0.0-347.0","3TUI152ZZC9Z997SBW2XI3Z3LPWQ17","A38YRR6XIUXMRB","3MXX6RQ9EVRTFC527Z18RDK8KW6P4R","","null","<img src=""img/food3.png"" style=""width:200px; border:14px solid green;"">","null","","","","","","","","","",""
"","image-keyboard-response","294","177767","0.0-349.0","3TUI152ZZC9Z997SBW2XI3Z3LPWQ17","A38YRR6XIUXMRB","3MXX6RQ9EVRTFC527Z18RDK8KW6P4R","","292.7000000476837","img/food6.png","76","294","3","1","3","2","1,0.5,0,1,0.5,0,0.5,0,1","1,0.5,0,1,0.5,0,0.5,0,1","1","false",""
"","html-keyboard-response","295","178069","0.0-350.0","3TUI152ZZC9Z997SBW2XI3Z3LPWQ17","A38YRR6XIUXMRB","3MXX6RQ9EVRTFC527Z18RDK8KW6P4R","","null","<img src=""img/food6.png"" style=""width:200px; border:14px solid green;"">","null","","","","","","","","","",""
"","image-keyboard-response","296","178356","0.0-352.0","3TUI152ZZC9Z997SBW2XI3Z3LPWQ17","A38YRR6XIUXMRB","3MXX6RQ9EVRTFC527Z18RDK8KW6P4R","","282.7000000476837","img/food6.png","76","285","3","1","3","2","1,0.5,0,1,0.5,0,0.5,0,1","1,0.5,0,1,0.5,0,0.5,0,1","1","false",""
"","html-keyboard-response","297","178661","0.0-353.0","3TUI152ZZC9Z997SBW2XI3Z3LPWQ17","A38YRR6XIUXMRB","3MXX6RQ9EVRTFC527Z18RDK8KW6P4R","","null","<img src=""img/food6.png"" style=""width:200px; border:14px solid green;"">","null","","","","","","","","","",""
"","image-keyboard-response","298","178912","0.0-355.0","3TUI152ZZC9Z997SBW2XI3Z3LPWQ17","A38YRR6XIUXMRB","3MXX6RQ9EVRTFC527Z18RDK8KW6P4R","","247.5","img/food6.png","76","249.29999995231628","3","1","3","2","1,0.5,0,1,0.5,0,0.5,0,1","1,0.5,0,1,0.5,0,0.5,0,1","1","false",""
"","html-keyboard-response","299","179215","0.0-356.0","3TUI152ZZC9Z997SBW2XI3Z3LPWQ17","A38YRR6XIUXMRB","3MXX6RQ9EVRTFC527Z18RDK8KW6P4R","","null","<img src=""img/food6.png"" style=""width:200px; border:14px solid green;"">","null","","","","","","","","","",""
"","image-keyboard-response","300","179395","0.0-358.0","3TUI152ZZC9Z997SBW2XI3Z3LPWQ17","A38YRR6XIUXMRB","3MXX6RQ9EVRTFC527Z18RDK8KW6P4R","","177.59999990463257","img/food6.png","76","179","3","1","3","2","1,0.5,0,1,0.5,0,0.5,0,1","1,0.5,0,1,0.5,0,0.5,0,1","1","false",""
"","html-keyboard-response","301","179697","0.0-359.0","3TUI152ZZC9Z997SBW2XI3Z3LPWQ17","A38YRR6XIUXMRB","3MXX6RQ9EVRTFC527Z18RDK8KW6P4R","","null","<img src=""img/food6.png"" style=""width:200px; border:14px solid green;"">","null","","","","","","","","","",""
"","image-keyboard-response","302","179976","0.0-361.0","3TUI152ZZC9Z997SBW2XI3Z3LPWQ17","A38YRR6XIUXMRB","3MXX6RQ9EVRTFC527Z18RDK8KW6P4R","","274.59999990463257","img/food3.png","76","277.59999990463257","3","0","2","2","1,0.5,0,1,0.5,0,0.5,0,1","1,0.5,0,1,0.5,0,0.5,0,1","1","false",""
"","html-keyboard-response","303","180280","0.0-362.0","3TUI152ZZC9Z997SBW2XI3Z3LPWQ17","A38YRR6XIUXMRB","3MXX6RQ9EVRTFC527Z18RDK8KW6P4R","","null","<img src=""img/food3.png"" style=""width:200px;border:14px solid red;"">","null","","","","","","","","","",""
"","image-keyboard-response","304","180529","0.0-364.0","3TUI152ZZC9Z997SBW2XI3Z3LPWQ17","A38YRR6XIUXMRB","3MXX6RQ9EVRTFC527Z18RDK8KW6P4R","","247.19999980926514","img/food6.png","74","248.60000014305115","1","0","3","2","1,0.5,0,1,0.5,0,0.5,0,1","1,0.5,0,1,0.5,0,0.5,0,1","1","false",""
"","html-keyboard-response","305","180833","0.0-365.0","3TUI152ZZC9Z997SBW2XI3Z3LPWQ17","A38YRR6XIUXMRB","3MXX6RQ9EVRTFC527Z18RDK8KW6P4R","","null","<img src=""img/food6.png"" style=""width:200px;border:14px solid red;"">","null","","","","","","","","","",""
"","image-keyboard-response","306","181121","0.0-367.0","3TUI152ZZC9Z997SBW2XI3Z3LPWQ17","A38YRR6XIUXMRB","3MXX6RQ9EVRTFC527Z18RDK8KW6P4R","","285.59999990463257","img/food3.png","76","286.90000009536743","3","0","2","2","1,0.5,0,1,0.5,0,0.5,0,1","1,0.5,0,1,0.5,0,0.5,0,1","1","false",""
"","html-keyboard-response","307","181440","0.0-368.0","3TUI152ZZC9Z997SBW2XI3Z3LPWQ17","A38YRR6XIUXMRB","3MXX6RQ9EVRTFC527Z18RDK8KW6P4R","","null","<img src=""img/food3.png"" style=""width:200px;border:14px solid red;"">","null","","","","","","","","","",""
"","image-keyboard-response","308","181893","0.0-370.0","3TUI152ZZC9Z997SBW2XI3Z3LPWQ17","A38YRR6XIUXMRB","3MXX6RQ9EVRTFC527Z18RDK8KW6P4R","","450.59999990463257","img/food6.png","74","451.90000009536743","1","0","3","2","1,0.5,0,1,0.5,0,0.5,0,1","1,0.5,0,1,0.5,0,0.5,0,1","1","false",""
"","html-keyboard-response","309","182196","0.0-371.0","3TUI152ZZC9Z997SBW2XI3Z3LPWQ17","A38YRR6XIUXMRB","3MXX6RQ9EVRTFC527Z18RDK8KW6P4R","","null","<img src=""img/food6.png"" style=""width:200px;border:14px solid red;"">","null","","","","","","","","","",""
"","image-keyboard-response","310","182542","0.0-373.0","3TUI152ZZC9Z997SBW2XI3Z3LPWQ17","A38YRR6XIUXMRB","3MXX6RQ9EVRTFC527Z18RDK8KW6P4R","","342.39999985694885","img/food1.png","74","344.10000014305115","1","1","1","2","1,0.5,0,1,0.5,0,0.5,0,1","1,0.5,0,1,0.5,0,0.5,0,1","1","false",""
"","html-keyboard-response","311","182845","0.0-374.0","3TUI152ZZC9Z997SBW2XI3Z3LPWQ17","A38YRR6XIUXMRB","3MXX6RQ9EVRTFC527Z18RDK8KW6P4R","","null","<img src=""img/food1.png"" style=""width:200px; border:14px solid green;"">","null","","","","","","","","","",""
"","image-keyboard-response","312","183149","0.0-376.0","3TUI152ZZC9Z997SBW2XI3Z3LPWQ17","A38YRR6XIUXMRB","3MXX6RQ9EVRTFC527Z18RDK8KW6P4R","","301.7000000476837","img/food1.png","74","302.90000009536743","1","1","1","2","1,0.5,0,1,0.5,0,0.5,0,1","1,0.5,0,1,0.5,0,0.5,0,1","1","false",""
"","html-keyboard-response","313","183452","0.0-377.0","3TUI152ZZC9Z997SBW2XI3Z3LPWQ17","A38YRR6XIUXMRB","3MXX6RQ9EVRTFC527Z18RDK8KW6P4R","","null","<img src=""img/food1.png"" style=""width:200px; border:14px solid green;"">","null","","","","","","","","","",""
"","image-keyboard-response","314","183683","0.0-379.0","3TUI152ZZC9Z997SBW2XI3Z3LPWQ17","A38YRR6XIUXMRB","3MXX6RQ9EVRTFC527Z18RDK8KW6P4R","","227.89999985694885","img/food1.png","74","230.39999985694885","1","1","1","2","1,0.5,0,1,0.5,0,0.5,0,1","1,0.5,0,1,0.5,0,0.5,0,1","1","false",""
"","html-keyboard-response","315","183986","0.0-380.0","3TUI152ZZC9Z997SBW2XI3Z3LPWQ17","A38YRR6XIUXMRB","3MXX6RQ9EVRTFC527Z18RDK8KW6P4R","","null","<img src=""img/food1.png"" style=""width:200px; border:14px solid green;"">","null","","","","","","","","","",""
"","image-keyboard-response","316","184253","0.0-382.0","3TUI152ZZC9Z997SBW2XI3Z3LPWQ17","A38YRR6XIUXMRB","3MXX6RQ9EVRTFC527Z18RDK8KW6P4R","","264.7000000476837","img/food6.png","74","266","1","0","3","2","1,0.5,0,1,0.5,0,0.5,0,1","1,0.5,0,1,0.5,0,0.5,0,1","1","false",""
"","html-keyboard-response","317","184556","0.0-383.0","3TUI152ZZC9Z997SBW2XI3Z3LPWQ17","A38YRR6XIUXMRB","3MXX6RQ9EVRTFC527Z18RDK8KW6P4R","","null","<img src=""img/food6.png"" style=""width:200px;border:14px solid red;"">","null","","","","","","","","","",""
"","image-keyboard-response","318","184798","0.0-385.0","3TUI152ZZC9Z997SBW2XI3Z3LPWQ17","A38YRR6XIUXMRB","3MXX6RQ9EVRTFC527Z18RDK8KW6P4R","","238.29999995231628","img/food6.png","76","240","3","1","3","2","1,0.5,0,1,0.5,0,0.5,0,1","1,0.5,0,1,0.5,0,0.5,0,1","1","false",""
"","html-keyboard-response","319","185101","0.0-386.0","3TUI152ZZC9Z997SBW2XI3Z3LPWQ17","A38YRR6XIUXMRB","3MXX6RQ9EVRTFC527Z18RDK8KW6P4R","","null","<img src=""img/food6.png"" style=""width:200px; border:14px solid green;"">","null","","","","","","","","","",""
"","image-keyboard-response","320","185528","0.0-388.0","3TUI152ZZC9Z997SBW2XI3Z3LPWQ17","A38YRR6XIUXMRB","3MXX6RQ9EVRTFC527Z18RDK8KW6P4R","","424.5","img/food3.png","76","425.7999999523163","3","0","2","2","1,0.5,0,1,0.5,0,0.5,0,1","1,0.5,0,1,0.5,0,0.5,0,1","1","false",""
"","html-keyboard-response","321","185830","0.0-389.0","3TUI152ZZC9Z997SBW2XI3Z3LPWQ17","A38YRR6XIUXMRB","3MXX6RQ9EVRTFC527Z18RDK8KW6P4R","","null","<img src=""img/food3.png"" style=""width:200px;border:14px solid red;"">","null","","","","","","","","","",""
"","image-keyboard-response","322","186371","0.0-391.0","3TUI152ZZC9Z997SBW2XI3Z3LPWQ17","A38YRR6XIUXMRB","3MXX6RQ9EVRTFC527Z18RDK8KW6P4R","","538.2999999523163","img/food1.png","74","539.5999999046326","1","1","1","2","1,0.5,0,1,0.5,0,0.5,0,1","1,0.5,0,1,0.5,0,0.5,0,1","1","false",""
"","html-keyboard-response","323","186675","0.0-392.0","3TUI152ZZC9Z997SBW2XI3Z3LPWQ17","A38YRR6XIUXMRB","3MXX6RQ9EVRTFC527Z18RDK8KW6P4R","","null","<img src=""img/food1.png"" style=""width:200px; border:14px solid green;"">","null","","","","","","","","","",""
"","image-keyboard-response","324","187171","0.0-394.0","3TUI152ZZC9Z997SBW2XI3Z3LPWQ17","A38YRR6XIUXMRB","3MXX6RQ9EVRTFC527Z18RDK8KW6P4R","","492.59999990463257","img/food3.png","74","494.39999985694885","1","1","2","2","1,0.5,0,1,0.5,0,0.5,0,1","1,0.5,0,1,0.5,0,0.5,0,1","1","false",""
"","html-keyboard-response","325","187474","0.0-395.0","3TUI152ZZC9Z997SBW2XI3Z3LPWQ17","A38YRR6XIUXMRB","3MXX6RQ9EVRTFC527Z18RDK8KW6P4R","","null","<img src=""img/food3.png"" style=""width:200px; border:14px solid green;"">","null","","","","","","","","","",""
"","image-keyboard-response","326","187864","0.0-397.0","3TUI152ZZC9Z997SBW2XI3Z3LPWQ17","A38YRR6XIUXMRB","3MXX6RQ9EVRTFC527Z18RDK8KW6P4R","","387.7000000476837","img/food3.png","74","389","1","1","2","2","1,0.5,0,1,0.5,0,0.5,0,1","1,0.5,0,1,0.5,0,0.5,0,1","1","false",""
"","html-keyboard-response","327","188169","0.0-398.0","3TUI152ZZC9Z997SBW2XI3Z3LPWQ17","A38YRR6XIUXMRB","3MXX6RQ9EVRTFC527Z18RDK8KW6P4R","","null","<img src=""img/food3.png"" style=""width:200px; border:14px solid green;"">","null","","","","","","","","","",""
"","image-keyboard-response","328","188658","0.0-400.0","3TUI152ZZC9Z997SBW2XI3Z3LPWQ17","A38YRR6XIUXMRB","3MXX6RQ9EVRTFC527Z18RDK8KW6P4R","","483.09999990463257","img/food6.png","76","486.19999980926514","3","1","3","2","1,0.5,0,1,0.5,0,0.5,0,1","1,0.5,0,1,0.5,0,0.5,0,1","1","false",""
"","html-keyboard-response","329","188962","0.0-401.0","3TUI152ZZC9Z997SBW2XI3Z3LPWQ17","A38YRR6XIUXMRB","3MXX6RQ9EVRTFC527Z18RDK8KW6P4R","","null","<img src=""img/food6.png"" style=""width:200px; border:14px solid green;"">","null","","","","","","","","","",""
"","image-keyboard-response","330","189462","0.0-403.0","3TUI152ZZC9Z997SBW2XI3Z3LPWQ17","A38YRR6XIUXMRB","3MXX6RQ9EVRTFC527Z18RDK8KW6P4R","","496.7999999523163","img/food1.png","74","499.09999990463257","1","1","1","2","1,0.5,0,1,0.5,0,0.5,0,1","1,0.5,0,1,0.5,0,0.5,0,1","1","false",""
"","html-keyboard-response","331","189765","0.0-404.0","3TUI152ZZC9Z997SBW2XI3Z3LPWQ17","A38YRR6XIUXMRB","3MXX6RQ9EVRTFC527Z18RDK8KW6P4R","","null","<img src=""img/food1.png"" style=""width:200px; border:14px solid green;"">","null","","","","","","","","","",""
"","image-keyboard-response","332","190027","0.0-406.0","3TUI152ZZC9Z997SBW2XI3Z3LPWQ17","A38YRR6XIUXMRB","3MXX6RQ9EVRTFC527Z18RDK8KW6P4R","","259.2000000476837","img/food3.png","74","260.90000009536743","1","1","2","2","1,0.5,0,1,0.5,0,0.5,0,1","1,0.5,0,1,0.5,0,0.5,0,1","1","false",""
"","html-keyboard-response","333","190330","0.0-407.0","3TUI152ZZC9Z997SBW2XI3Z3LPWQ17","A38YRR6XIUXMRB","3MXX6RQ9EVRTFC527Z18RDK8KW6P4R","","null","<img src=""img/food3.png"" style=""width:200px; border:14px solid green;"">","null","","","","","","","","","",""
"","image-keyboard-response","334","190838","0.0-409.0","3TUI152ZZC9Z997SBW2XI3Z3LPWQ17","A38YRR6XIUXMRB","3MXX6RQ9EVRTFC527Z18RDK8KW6P4R","","505.09999990463257","img/food3.png","74","506.40000009536743","1","1","2","2","1,0.5,0,1,0.5,0,0.5,0,1","1,0.5,0,1,0.5,0,0.5,0,1","1","false",""
"","html-keyboard-response","335","191153","0.0-410.0","3TUI152ZZC9Z997SBW2XI3Z3LPWQ17","A38YRR6XIUXMRB","3MXX6RQ9EVRTFC527Z18RDK8KW6P4R","","null","<img src=""img/food3.png"" style=""width:200px; border:14px solid green;"">","null","","","","","","","","","",""
"","image-keyboard-response","336","191361","0.0-412.0","3TUI152ZZC9Z997SBW2XI3Z3LPWQ17","A38YRR6XIUXMRB","3MXX6RQ9EVRTFC527Z18RDK8KW6P4R","","205.59999990463257","img/food6.png","74","206.89999985694885","1","0","3","2","1,0.5,0,1,0.5,0,0.5,0,1","1,0.5,0,1,0.5,0,0.5,0,1","1","false",""
"","html-keyboard-response","337","191664","0.0-413.0","3TUI152ZZC9Z997SBW2XI3Z3LPWQ17","A38YRR6XIUXMRB","3MXX6RQ9EVRTFC527Z18RDK8KW6P4R","","null","<img src=""img/food6.png"" style=""width:200px;border:14px solid red;"">","null","","","","","","","","","",""
"","image-keyboard-response","338","192114","0.0-415.0","3TUI152ZZC9Z997SBW2XI3Z3LPWQ17","A38YRR6XIUXMRB","3MXX6RQ9EVRTFC527Z18RDK8KW6P4R","","447.2000000476837","img/food6.png","74","448.7000000476837","1","1","3","2","1,0.5,0,1,0.5,0,0.5,0,1","1,0.5,0,1,0.5,0,0.5,0,1","1","false",""
"","html-keyboard-response","339","192416","0.0-416.0","3TUI152ZZC9Z997SBW2XI3Z3LPWQ17","A38YRR6XIUXMRB","3MXX6RQ9EVRTFC527Z18RDK8KW6P4R","","null","<img src=""img/food6.png"" style=""width:200px; border:14px solid green;"">","null","","","","","","","","","",""
"","image-keyboard-response","340","192951","0.0-418.0","3TUI152ZZC9Z997SBW2XI3Z3LPWQ17","A38YRR6XIUXMRB","3MXX6RQ9EVRTFC527Z18RDK8KW6P4R","","532","img/food1.png","74","533.6000001430511","1","1","1","2","1,0.5,0,1,0.5,0,0.5,0,1","1,0.5,0,1,0.5,0,0.5,0,1","1","false",""
"","html-keyboard-response","341","193258","0.0-419.0","3TUI152ZZC9Z997SBW2XI3Z3LPWQ17","A38YRR6XIUXMRB","3MXX6RQ9EVRTFC527Z18RDK8KW6P4R","","null","<img src=""img/food1.png"" style=""width:200px; border:14px solid green;"">","null","","","","","","","","","",""
"","image-keyboard-response","342","193477","0.0-421.0","3TUI152ZZC9Z997SBW2XI3Z3LPWQ17","A38YRR6XIUXMRB","3MXX6RQ9EVRTFC527Z18RDK8KW6P4R","","215.40000009536743","img/food3.png","74","217.80000019073486","1","1","2","2","1,0.5,0,1,0.5,0,0.5,0,1","1,0.5,0,1,0.5,0,0.5,0,1","1","false",""
"","html-keyboard-response","343","193779","0.0-422.0","3TUI152ZZC9Z997SBW2XI3Z3LPWQ17","A38YRR6XIUXMRB","3MXX6RQ9EVRTFC527Z18RDK8KW6P4R","","null","<img src=""img/food3.png"" style=""width:200px; border:14px solid green;"">","null","","","","","","","","","",""
"","image-keyboard-response","344","194107","0.0-424.0","3TUI152ZZC9Z997SBW2XI3Z3LPWQ17","A38YRR6XIUXMRB","3MXX6RQ9EVRTFC527Z18RDK8KW6P4R","","325","img/food6.png","76","326.59999990463257","3","1","3","2","1,0.5,0,1,0.5,0,0.5,0,1","1,0.5,0,1,0.5,0,0.5,0,1","1","false",""
"","html-keyboard-response","345","194410","0.0-425.0","3TUI152ZZC9Z997SBW2XI3Z3LPWQ17","A38YRR6XIUXMRB","3MXX6RQ9EVRTFC527Z18RDK8KW6P4R","","null","<img src=""img/food6.png"" style=""width:200px; border:14px solid green;"">","null","","","","","","","","","",""
"","image-keyboard-response","346","194808","0.0-427.0","3TUI152ZZC9Z997SBW2XI3Z3LPWQ17","A38YRR6XIUXMRB","3MXX6RQ9EVRTFC527Z18RDK8KW6P4R","","395.5","img/food1.png","74","396.59999990463257","1","1","1","2","1,0.5,0,1,0.5,0,0.5,0,1","1,0.5,0,1,0.5,0,0.5,0,1","1","false",""
"","html-keyboard-response","347","195111","0.0-428.0","3TUI152ZZC9Z997SBW2XI3Z3LPWQ17","A38YRR6XIUXMRB","3MXX6RQ9EVRTFC527Z18RDK8KW6P4R","","null","<img src=""img/food1.png"" style=""width:200px; border:14px solid green;"">","null","","","","","","","","","",""
"","image-keyboard-response","348","195516","0.0-430.0","3TUI152ZZC9Z997SBW2XI3Z3LPWQ17","A38YRR6XIUXMRB","3MXX6RQ9EVRTFC527Z18RDK8KW6P4R","","401.59999990463257","img/food6.png","76","403.09999990463257","3","1","3","2","1,0.5,0,1,0.5,0,0.5,0,1","1,0.5,0,1,0.5,0,0.5,0,1","1","false",""
"","html-keyboard-response","349","195819","0.0-431.0","3TUI152ZZC9Z997SBW2XI3Z3LPWQ17","A38YRR6XIUXMRB","3MXX6RQ9EVRTFC527Z18RDK8KW6P4R","","null","<img src=""img/food6.png"" style=""width:200px; border:14px solid green;"">","null","","","","","","","","","",""
"","image-keyboard-response","350","196440","0.0-433.0","3TUI152ZZC9Z997SBW2XI3Z3LPWQ17","A38YRR6XIUXMRB","3MXX6RQ9EVRTFC527Z18RDK8KW6P4R","","618.4000000953674","img/food3.png","74","619.7000000476837","1","1","2","2","1,0.5,0,1,0.5,0,0.5,0,1","1,0.5,0,1,0.5,0,0.5,0,1","1","false",""
"","html-keyboard-response","351","196754","0.0-434.0","3TUI152ZZC9Z997SBW2XI3Z3LPWQ17","A38YRR6XIUXMRB","3MXX6RQ9EVRTFC527Z18RDK8KW6P4R","","null","<img src=""img/food3.png"" style=""width:200px; border:14px solid green;"">","null","","","","","","","","","",""
"","image-keyboard-response","352","197142","0.0-436.0","3TUI152ZZC9Z997SBW2XI3Z3LPWQ17","A38YRR6XIUXMRB","3MXX6RQ9EVRTFC527Z18RDK8KW6P4R","","385.10000014305115","img/food3.png","74","386.40000009536743","1","1","2","2","1,0.5,0,1,0.5,0,0.5,0,1","1,0.5,0,1,0.5,0,0.5,0,1","1","false",""
"","html-keyboard-response","353","197444","0.0-437.0","3TUI152ZZC9Z997SBW2XI3Z3LPWQ17","A38YRR6XIUXMRB","3MXX6RQ9EVRTFC527Z18RDK8KW6P4R","","null","<img src=""img/food3.png"" style=""width:200px; border:14px solid green;"">","null","","","","","","","","","",""
"","image-keyboard-response","354","198000","0.0-439.0","3TUI152ZZC9Z997SBW2XI3Z3LPWQ17","A38YRR6XIUXMRB","3MXX6RQ9EVRTFC527Z18RDK8KW6P4R","","552.7000000476837","img/food1.png","74","553.8999998569489","1","1","1","2","1,0.5,0,1,0.5,0,0.5,0,1","1,0.5,0,1,0.5,0,0.5,0,1","1","false",""
"","html-keyboard-response","355","198303","0.0-440.0","3TUI152ZZC9Z997SBW2XI3Z3LPWQ17","A38YRR6XIUXMRB","3MXX6RQ9EVRTFC527Z18RDK8KW6P4R","","null","<img src=""img/food1.png"" style=""width:200px; border:14px solid green;"">","null","","","","","","","","","",""
"","image-keyboard-response","356","198687","0.0-442.0","3TUI152ZZC9Z997SBW2XI3Z3LPWQ17","A38YRR6XIUXMRB","3MXX6RQ9EVRTFC527Z18RDK8KW6P4R","","380.7999999523163","img/food1.png","74","383.5","1","1","1","2","1,0.5,0,1,0.5,0,0.5,0,1","1,0.5,0,1,0.5,0,0.5,0,1","1","false",""
"","html-keyboard-response","357","198992","0.0-443.0","3TUI152ZZC9Z997SBW2XI3Z3LPWQ17","A38YRR6XIUXMRB","3MXX6RQ9EVRTFC527Z18RDK8KW6P4R","","null","<img src=""img/food1.png"" style=""width:200px; border:14px solid green;"">","null","","","","","","","","","",""
"","image-keyboard-response","358","199474","0.0-445.0","3TUI152ZZC9Z997SBW2XI3Z3LPWQ17","A38YRR6XIUXMRB","3MXX6RQ9EVRTFC527Z18RDK8KW6P4R","","476.7999999523163","img/food6.png","76","479.59999990463257","3","1","3","2","1,0.5,0,1,0.5,0,0.5,0,1","1,0.5,0,1,0.5,0,0.5,0,1","1","false",""
"","html-keyboard-response","359","199776","0.0-446.0","3TUI152ZZC9Z997SBW2XI3Z3LPWQ17","A38YRR6XIUXMRB","3MXX6RQ9EVRTFC527Z18RDK8KW6P4R","","null","<img src=""img/food6.png"" style=""width:200px; border:14px solid green;"">","null","","","","","","","","","",""
"","image-keyboard-response","360","200041","0.0-448.0","3TUI152ZZC9Z997SBW2XI3Z3LPWQ17","A38YRR6XIUXMRB","3MXX6RQ9EVRTFC527Z18RDK8KW6P4R","","262.5","img/food1.png","76","263.89999985694885","3","0","1","2","1,0.5,0,1,0.5,0,0.5,0,1","1,0.5,0,1,0.5,0,0.5,0,1","1","false",""
"","html-keyboard-response","361","200345","0.0-449.0","3TUI152ZZC9Z997SBW2XI3Z3LPWQ17","A38YRR6XIUXMRB","3MXX6RQ9EVRTFC527Z18RDK8KW6P4R","","null","<img src=""img/food1.png"" style=""width:200px;border:14px solid red;"">","null","","","","","","","","","",""
"","image-keyboard-response","362","200691","0.0-451.0","3TUI152ZZC9Z997SBW2XI3Z3LPWQ17","A38YRR6XIUXMRB","3MXX6RQ9EVRTFC527Z18RDK8KW6P4R","","342.30000019073486","img/food3.png","74","345.19999980926514","1","1","2","2","1,0.5,0,1,0.5,0,0.5,0,1","1,0.5,0,1,0.5,0,0.5,0,1","1","false",""
"","html-keyboard-response","363","200995","0.0-452.0","3TUI152ZZC9Z997SBW2XI3Z3LPWQ17","A38YRR6XIUXMRB","3MXX6RQ9EVRTFC527Z18RDK8KW6P4R","","null","<img src=""img/food3.png"" style=""width:200px; border:14px solid green;"">","null","","","","","","","","","",""
"","instructions","364","208787","0.0-454.0","3TUI152ZZC9Z997SBW2XI3Z3LPWQ17","A38YRR6XIUXMRB","3MXX6RQ9EVRTFC527Z18RDK8KW6P4R","[{""page_index"":0,""viewing_time"":7789.400000095367}]","7789.799999952316","","","","","","","","","","","",""
"","survey-text","365","220988","0.0-455.0","3TUI152ZZC9Z997SBW2XI3Z3LPWQ17","A38YRR6XIUXMRB","3MXX6RQ9EVRTFC527Z18RDK8KW6P4R","","12194.900000095367","","","","","","","","","","","","{""Q0"":""A38YRR6XIUXMRB""}"
