"success","trial_type","trial_index","time_elapsed","internal_node_id","assignmentID","mturkID","hitID","view_history","rt","stimulus","key_press","reactionTime","a","r","s","cond","reward_cond","reward_cond_actual","reward_matrix_idx","warning","responses"
"true","fullscreen","0","2972","0.0-0.0","3PS7W85Z80OUQU2FWDBL2ES93869T0","A3ADQ2RLQNJQDU","36U4VBVNQOZD8NFWZXWF9CIHKRIURB","","","","","","","","","","","","","",""
"","instructions","1","42509","0.0-1.0","3PS7W85Z80OUQU2FWDBL2ES93869T0","A3ADQ2RLQNJQDU","36U4VBVNQOZD8NFWZXWF9CIHKRIURB","[{""page_index"":0,""viewing_time"":4778.899999999907},{""page_index"":1,""viewing_time"":3869.899999999907},{""page_index"":2,""viewing_time"":4284.700000000186},{""page_index"":3,""viewing_time"":6715.799999999814},{""page_index"":4,""viewing_time"":5572},{""page_index"":5,""viewing_time"":12982.400000000373},{""page_index"":6,""viewing_time"":1324}]","39529.39999999991","","","","","","","","","","","",""
"","image-keyboard-response","2","44085","0.0-2.0","3PS7W85Z80OUQU2FWDBL2ES93869T0","A3ADQ2RLQNJQDU","36U4VBVNQOZD8NFWZXWF9CIHKRIURB","","1568.6999999997206","img/food5.png","75","1574.4000000003725","2","1","3","1","1,0.5,0,1,0.5,0,0.5,0,1","0.5,0,1,0.5,0,1,0,1,0.5","2","",""
"","html-keyboard-response","3","44392","0.0-3.0","3PS7W85Z80OUQU2FWDBL2ES93869T0","A3ADQ2RLQNJQDU","36U4VBVNQOZD8NFWZXWF9CIHKRIURB","","null","<img src=""img/food5.png"" style=""width:200px; border:14px solid green;"">","null","","","","","","","","","",""
"","image-keyboard-response","4","45332","0.0-4.0","3PS7W85Z80OUQU2FWDBL2ES93869T0","A3ADQ2RLQNJQDU","36U4VBVNQOZD8NFWZXWF9CIHKRIURB","","934.7999999998137","img/food5.png","75","938","2","1","3","1","1,0.5,0,1,0.5,0,0.5,0,1","0.5,0,1,0.5,0,1,0,1,0.5","2","",""
"","html-keyboard-response","5","45636","0.0-5.0","3PS7W85Z80OUQU2FWDBL2ES93869T0","A3ADQ2RLQNJQDU","36U4VBVNQOZD8NFWZXWF9CIHKRIURB","","null","<img src=""img/food5.png"" style=""width:200px; border:14px solid green;"">","null","","","","","","","","","",""
"","image-keyboard-response","6","46308","0.0-6.0","3PS7W85Z80OUQU2FWDBL2ES93869T0","A3ADQ2RLQNJQDU","36U4VBVNQOZD8NFWZXWF9CIHKRIURB","","667.3999999999069","img/food4.png","75","670.6000000000931","2","0","2","1","1,0.5,0,1,0.5,0,0.5,0,1","0.5,0,1,0.5,0,1,0,1,0.5","2","",""
"","html-keyboard-response","7","46612","0.0-7.0","3PS7W85Z80OUQU2FWDBL2ES93869T0","A3ADQ2RLQNJQDU","36U4VBVNQOZD8NFWZXWF9CIHKRIURB","","null","<img src=""img/food4.png"" style=""width:200px;border:14px solid red;"">","null","","","","","","","","","",""
"","image-keyboard-response","8","47236","0.0-8.0","3PS7W85Z80OUQU2FWDBL2ES93869T0","A3ADQ2RLQNJQDU","36U4VBVNQOZD8NFWZXWF9CIHKRIURB","","620","img/food5.png","75","623.2000000001863","2","1","3","1","1,0.5,0,1,0.5,0,0.5,0,1","0.5,0,1,0.5,0,1,0,1,0.5","2","",""
"","html-keyboard-response","9","47540","0.0-9.0","3PS7W85Z80OUQU2FWDBL2ES93869T0","A3ADQ2RLQNJQDU","36U4VBVNQOZD8NFWZXWF9CIHKRIURB","","null","<img src=""img/food5.png"" style=""width:200px; border:14px solid green;"">","null","","","","","","","","","",""
"","image-keyboard-response","10","48101","0.0-10.0","3PS7W85Z80OUQU2FWDBL2ES93869T0","A3ADQ2RLQNJQDU","36U4VBVNQOZD8NFWZXWF9CIHKRIURB","","558","img/food4.png","76","560.5","3","1","2","1","1,0.5,0,1,0.5,0,0.5,0,1","0.5,0,1,0.5,0,1,0,1,0.5","2","",""
"","html-keyboard-response","11","48405","0.0-11.0","3PS7W85Z80OUQU2FWDBL2ES93869T0","A3ADQ2RLQNJQDU","36U4VBVNQOZD8NFWZXWF9CIHKRIURB","","null","<img src=""img/food4.png"" style=""width:200px; border:14px solid green;"">","null","","","","","","","","","",""
"","image-keyboard-response","12","49235","0.0-12.0","3PS7W85Z80OUQU2FWDBL2ES93869T0","A3ADQ2RLQNJQDU","36U4VBVNQOZD8NFWZXWF9CIHKRIURB","","827.5","img/food3.png","76","830.1999999997206","3","1","1","1","1,0.5,0,1,0.5,0,0.5,0,1","0.5,0,1,0.5,0,1,0,1,0.5","2","",""
"","html-keyboard-response","13","49539","0.0-13.0","3PS7W85Z80OUQU2FWDBL2ES93869T0","A3ADQ2RLQNJQDU","36U4VBVNQOZD8NFWZXWF9CIHKRIURB","","null","<img src=""img/food3.png"" style=""width:200px; border:14px solid green;"">","null","","","","","","","","","",""
"","image-keyboard-response","14","50388","0.0-14.0","3PS7W85Z80OUQU2FWDBL2ES93869T0","A3ADQ2RLQNJQDU","36U4VBVNQOZD8NFWZXWF9CIHKRIURB","","844.5","img/food3.png","76","847.6000000000931","3","1","1","1","1,0.5,0,1,0.5,0,0.5,0,1","0.5,0,1,0.5,0,1,0,1,0.5","2","",""
"","html-keyboard-response","15","50692","0.0-15.0","3PS7W85Z80OUQU2FWDBL2ES93869T0","A3ADQ2RLQNJQDU","36U4VBVNQOZD8NFWZXWF9CIHKRIURB","","null","<img src=""img/food3.png"" style=""width:200px; border:14px solid green;"">","null","","","","","","","","","",""
"","image-keyboard-response","16","51205","0.0-16.0","3PS7W85Z80OUQU2FWDBL2ES93869T0","A3ADQ2RLQNJQDU","36U4VBVNQOZD8NFWZXWF9CIHKRIURB","","509.20000000018626","img/food5.png","75","512.3999999999069","2","1","3","1","1,0.5,0,1,0.5,0,0.5,0,1","0.5,0,1,0.5,0,1,0,1,0.5","2","",""
"","html-keyboard-response","17","51508","0.0-17.0","3PS7W85Z80OUQU2FWDBL2ES93869T0","A3ADQ2RLQNJQDU","36U4VBVNQOZD8NFWZXWF9CIHKRIURB","","null","<img src=""img/food5.png"" style=""width:200px; border:14px solid green;"">","null","","","","","","","","","",""
"","image-keyboard-response","18","52212","0.0-18.0","3PS7W85Z80OUQU2FWDBL2ES93869T0","A3ADQ2RLQNJQDU","36U4VBVNQOZD8NFWZXWF9CIHKRIURB","","700.2000000001863","img/food4.png","75","703","2","0","2","1","1,0.5,0,1,0.5,0,0.5,0,1","0.5,0,1,0.5,0,1,0,1,0.5","2","",""
"","html-keyboard-response","19","52516","0.0-19.0","3PS7W85Z80OUQU2FWDBL2ES93869T0","A3ADQ2RLQNJQDU","36U4VBVNQOZD8NFWZXWF9CIHKRIURB","","null","<img src=""img/food4.png"" style=""width:200px;border:14px solid red;"">","null","","","","","","","","","",""
"","image-keyboard-response","20","52996","0.0-20.0","3PS7W85Z80OUQU2FWDBL2ES93869T0","A3ADQ2RLQNJQDU","36U4VBVNQOZD8NFWZXWF9CIHKRIURB","","476.10000000009313","img/food3.png","76","479.1999999997206","3","1","1","1","1,0.5,0,1,0.5,0,0.5,0,1","0.5,0,1,0.5,0,1,0,1,0.5","2","",""
"","html-keyboard-response","21","53300","0.0-21.0","3PS7W85Z80OUQU2FWDBL2ES93869T0","A3ADQ2RLQNJQDU","36U4VBVNQOZD8NFWZXWF9CIHKRIURB","","null","<img src=""img/food3.png"" style=""width:200px; border:14px solid green;"">","null","","","","","","","","","",""
"","image-keyboard-response","22","54100","0.0-22.0","3PS7W85Z80OUQU2FWDBL2ES93869T0","A3ADQ2RLQNJQDU","36U4VBVNQOZD8NFWZXWF9CIHKRIURB","","796.2999999998137","img/food4.png","76","799.1000000000931","3","1","2","1","1,0.5,0,1,0.5,0,0.5,0,1","0.5,0,1,0.5,0,1,0,1,0.5","2","",""
"","html-keyboard-response","23","54404","0.0-23.0","3PS7W85Z80OUQU2FWDBL2ES93869T0","A3ADQ2RLQNJQDU","36U4VBVNQOZD8NFWZXWF9CIHKRIURB","","null","<img src=""img/food4.png"" style=""width:200px; border:14px solid green;"">","null","","","","","","","","","",""
"","image-keyboard-response","24","54964","0.0-24.0","3PS7W85Z80OUQU2FWDBL2ES93869T0","A3ADQ2RLQNJQDU","36U4VBVNQOZD8NFWZXWF9CIHKRIURB","","556.3999999999069","img/food4.png","76","559.3000000002794","3","1","2","1","1,0.5,0,1,0.5,0,0.5,0,1","0.5,0,1,0.5,0,1,0,1,0.5","2","",""
"","html-keyboard-response","25","55268","0.0-25.0","3PS7W85Z80OUQU2FWDBL2ES93869T0","A3ADQ2RLQNJQDU","36U4VBVNQOZD8NFWZXWF9CIHKRIURB","","null","<img src=""img/food4.png"" style=""width:200px; border:14px solid green;"">","null","","","","","","","","","",""
"","image-keyboard-response","26","56484","0.0-26.0","3PS7W85Z80OUQU2FWDBL2ES93869T0","A3ADQ2RLQNJQDU","36U4VBVNQOZD8NFWZXWF9CIHKRIURB","","1213.2999999998137","img/food4.png","76","1216.1999999997206","3","1","2","1","1,0.5,0,1,0.5,0,0.5,0,1","0.5,0,1,0.5,0,1,0,1,0.5","2","",""
"","html-keyboard-response","27","56788","0.0-27.0","3PS7W85Z80OUQU2FWDBL2ES93869T0","A3ADQ2RLQNJQDU","36U4VBVNQOZD8NFWZXWF9CIHKRIURB","","null","<img src=""img/food4.png"" style=""width:200px; border:14px solid green;"">","null","","","","","","","","","",""
"","image-keyboard-response","28","57267","0.0-28.0","3PS7W85Z80OUQU2FWDBL2ES93869T0","A3ADQ2RLQNJQDU","36U4VBVNQOZD8NFWZXWF9CIHKRIURB","","476.1999999997206","img/food5.png","76","478.79999999981374","3","1","3","1","1,0.5,0,1,0.5,0,0.5,0,1","0.5,0,1,0.5,0,1,0,1,0.5","2","",""
"","html-keyboard-response","29","57571","0.0-29.0","3PS7W85Z80OUQU2FWDBL2ES93869T0","A3ADQ2RLQNJQDU","36U4VBVNQOZD8NFWZXWF9CIHKRIURB","","null","<img src=""img/food5.png"" style=""width:200px; border:14px solid green;"">","null","","","","","","","","","",""
"","image-keyboard-response","30","58276","0.0-30.0","3PS7W85Z80OUQU2FWDBL2ES93869T0","A3ADQ2RLQNJQDU","36U4VBVNQOZD8NFWZXWF9CIHKRIURB","","701.2000000001863","img/food4.png","76","704.1000000000931","3","1","2","1","1,0.5,0,1,0.5,0,0.5,0,1","0.5,0,1,0.5,0,1,0,1,0.5","2","",""
"","html-keyboard-response","31","58579","0.0-31.0","3PS7W85Z80OUQU2FWDBL2ES93869T0","A3ADQ2RLQNJQDU","36U4VBVNQOZD8NFWZXWF9CIHKRIURB","","null","<img src=""img/food4.png"" style=""width:200px; border:14px solid green;"">","null","","","","","","","","","",""
"","image-keyboard-response","32","59012","0.0-32.0","3PS7W85Z80OUQU2FWDBL2ES93869T0","A3ADQ2RLQNJQDU","36U4VBVNQOZD8NFWZXWF9CIHKRIURB","","428.89999999990687","img/food5.png","76","432","3","0","3","1","1,0.5,0,1,0.5,0,0.5,0,1","0.5,0,1,0.5,0,1,0,1,0.5","2","",""
"","html-keyboard-response","33","59316","0.0-33.0","3PS7W85Z80OUQU2FWDBL2ES93869T0","A3ADQ2RLQNJQDU","36U4VBVNQOZD8NFWZXWF9CIHKRIURB","","null","<img src=""img/food5.png"" style=""width:200px;border:14px solid red;"">","null","","","","","","","","","",""
"","image-keyboard-response","34","59908","0.0-34.0","3PS7W85Z80OUQU2FWDBL2ES93869T0","A3ADQ2RLQNJQDU","36U4VBVNQOZD8NFWZXWF9CIHKRIURB","","589.1999999997206","img/food3.png","75","591.8999999999069","2","0","1","1","1,0.5,0,1,0.5,0,0.5,0,1","0.5,0,1,0.5,0,1,0,1,0.5","2","",""
"","html-keyboard-response","35","60212","0.0-35.0","3PS7W85Z80OUQU2FWDBL2ES93869T0","A3ADQ2RLQNJQDU","36U4VBVNQOZD8NFWZXWF9CIHKRIURB","","null","<img src=""img/food3.png"" style=""width:200px;border:14px solid red;"">","null","","","","","","","","","",""
"","image-keyboard-response","36","60547","0.0-36.0","3PS7W85Z80OUQU2FWDBL2ES93869T0","A3ADQ2RLQNJQDU","36U4VBVNQOZD8NFWZXWF9CIHKRIURB","","331.5","img/food5.png","76","334.39999999990687","3","1","3","1","1,0.5,0,1,0.5,0,0.5,0,1","0.5,0,1,0.5,0,1,0,1,0.5","2","",""
"","html-keyboard-response","37","60851","0.0-37.0","3PS7W85Z80OUQU2FWDBL2ES93869T0","A3ADQ2RLQNJQDU","36U4VBVNQOZD8NFWZXWF9CIHKRIURB","","null","<img src=""img/food5.png"" style=""width:200px; border:14px solid green;"">","null","","","","","","","","","",""
"","image-keyboard-response","38","61460","0.0-38.0","3PS7W85Z80OUQU2FWDBL2ES93869T0","A3ADQ2RLQNJQDU","36U4VBVNQOZD8NFWZXWF9CIHKRIURB","","605.8000000002794","img/food4.png","76","608.6999999997206","3","1","2","1","1,0.5,0,1,0.5,0,0.5,0,1","0.5,0,1,0.5,0,1,0,1,0.5","2","",""
"","html-keyboard-response","39","61764","0.0-39.0","3PS7W85Z80OUQU2FWDBL2ES93869T0","A3ADQ2RLQNJQDU","36U4VBVNQOZD8NFWZXWF9CIHKRIURB","","null","<img src=""img/food4.png"" style=""width:200px; border:14px solid green;"">","null","","","","","","","","","",""
"","image-keyboard-response","40","62549","0.0-40.0","3PS7W85Z80OUQU2FWDBL2ES93869T0","A3ADQ2RLQNJQDU","36U4VBVNQOZD8NFWZXWF9CIHKRIURB","","780.3000000002794","img/food5.png","75","784.0999999996275","2","1","3","1","1,0.5,0,1,0.5,0,0.5,0,1","0.5,0,1,0.5,0,1,0,1,0.5","2","",""
"","html-keyboard-response","41","62854","0.0-41.0","3PS7W85Z80OUQU2FWDBL2ES93869T0","A3ADQ2RLQNJQDU","36U4VBVNQOZD8NFWZXWF9CIHKRIURB","","null","<img src=""img/food5.png"" style=""width:200px; border:14px solid green;"">","null","","","","","","","","","",""
"","image-keyboard-response","42","63368","0.0-42.0","3PS7W85Z80OUQU2FWDBL2ES93869T0","A3ADQ2RLQNJQDU","36U4VBVNQOZD8NFWZXWF9CIHKRIURB","","510.20000000018626","img/food3.png","76","513.1999999997206","3","1","1","1","1,0.5,0,1,0.5,0,0.5,0,1","0.5,0,1,0.5,0,1,0,1,0.5","2","",""
"","html-keyboard-response","43","63672","0.0-43.0","3PS7W85Z80OUQU2FWDBL2ES93869T0","A3ADQ2RLQNJQDU","36U4VBVNQOZD8NFWZXWF9CIHKRIURB","","null","<img src=""img/food3.png"" style=""width:200px; border:14px solid green;"">","null","","","","","","","","","",""
"","image-keyboard-response","44","64276","0.0-44.0","3PS7W85Z80OUQU2FWDBL2ES93869T0","A3ADQ2RLQNJQDU","36U4VBVNQOZD8NFWZXWF9CIHKRIURB","","600.1000000000931","img/food4.png","76","603","3","1","2","1","1,0.5,0,1,0.5,0,0.5,0,1","0.5,0,1,0.5,0,1,0,1,0.5","2","",""
"","html-keyboard-response","45","64580","0.0-45.0","3PS7W85Z80OUQU2FWDBL2ES93869T0","A3ADQ2RLQNJQDU","36U4VBVNQOZD8NFWZXWF9CIHKRIURB","","null","<img src=""img/food4.png"" style=""width:200px; border:14px solid green;"">","null","","","","","","","","","",""
"","image-keyboard-response","46","65124","0.0-46.0","3PS7W85Z80OUQU2FWDBL2ES93869T0","A3ADQ2RLQNJQDU","36U4VBVNQOZD8NFWZXWF9CIHKRIURB","","540.2999999998137","img/food5.png","75","543.1000000000931","2","1","3","1","1,0.5,0,1,0.5,0,0.5,0,1","0.5,0,1,0.5,0,1,0,1,0.5","2","",""
"","html-keyboard-response","47","65427","0.0-47.0","3PS7W85Z80OUQU2FWDBL2ES93869T0","A3ADQ2RLQNJQDU","36U4VBVNQOZD8NFWZXWF9CIHKRIURB","","null","<img src=""img/food5.png"" style=""width:200px; border:14px solid green;"">","null","","","","","","","","","",""
"","image-keyboard-response","48","65859","0.0-48.0","3PS7W85Z80OUQU2FWDBL2ES93869T0","A3ADQ2RLQNJQDU","36U4VBVNQOZD8NFWZXWF9CIHKRIURB","","428.79999999981374","img/food5.png","75","431.60000000009313","2","1","3","1","1,0.5,0,1,0.5,0,0.5,0,1","0.5,0,1,0.5,0,1,0,1,0.5","2","",""
"","html-keyboard-response","49","66163","0.0-49.0","3PS7W85Z80OUQU2FWDBL2ES93869T0","A3ADQ2RLQNJQDU","36U4VBVNQOZD8NFWZXWF9CIHKRIURB","","null","<img src=""img/food5.png"" style=""width:200px; border:14px solid green;"">","null","","","","","","","","","",""
"","image-keyboard-response","50","66756","0.0-50.0","3PS7W85Z80OUQU2FWDBL2ES93869T0","A3ADQ2RLQNJQDU","36U4VBVNQOZD8NFWZXWF9CIHKRIURB","","589.2999999998137","img/food5.png","75","591.8999999999069","2","1","3","1","1,0.5,0,1,0.5,0,0.5,0,1","0.5,0,1,0.5,0,1,0,1,0.5","2","",""
"","html-keyboard-response","51","67059","0.0-51.0","3PS7W85Z80OUQU2FWDBL2ES93869T0","A3ADQ2RLQNJQDU","36U4VBVNQOZD8NFWZXWF9CIHKRIURB","","null","<img src=""img/food5.png"" style=""width:200px; border:14px solid green;"">","null","","","","","","","","","",""
"","image-keyboard-response","52","67556","0.0-52.0","3PS7W85Z80OUQU2FWDBL2ES93869T0","A3ADQ2RLQNJQDU","36U4VBVNQOZD8NFWZXWF9CIHKRIURB","","493.29999999981374","img/food4.png","76","496","3","1","2","1","1,0.5,0,1,0.5,0,0.5,0,1","0.5,0,1,0.5,0,1,0,1,0.5","2","",""
"","html-keyboard-response","53","67859","0.0-53.0","3PS7W85Z80OUQU2FWDBL2ES93869T0","A3ADQ2RLQNJQDU","36U4VBVNQOZD8NFWZXWF9CIHKRIURB","","null","<img src=""img/food4.png"" style=""width:200px; border:14px solid green;"">","null","","","","","","","","","",""
"","image-keyboard-response","54","68387","0.0-54.0","3PS7W85Z80OUQU2FWDBL2ES93869T0","A3ADQ2RLQNJQDU","36U4VBVNQOZD8NFWZXWF9CIHKRIURB","","524.6000000000931","img/food5.png","75","527.3999999999069","2","1","3","1","1,0.5,0,1,0.5,0,0.5,0,1","0.5,0,1,0.5,0,1,0,1,0.5","2","",""
"","html-keyboard-response","55","68691","0.0-55.0","3PS7W85Z80OUQU2FWDBL2ES93869T0","A3ADQ2RLQNJQDU","36U4VBVNQOZD8NFWZXWF9CIHKRIURB","","null","<img src=""img/food5.png"" style=""width:200px; border:14px solid green;"">","null","","","","","","","","","",""
"","image-keyboard-response","56","69075","0.0-56.0","3PS7W85Z80OUQU2FWDBL2ES93869T0","A3ADQ2RLQNJQDU","36U4VBVNQOZD8NFWZXWF9CIHKRIURB","","380.6999999997206","img/food5.png","75","383.60000000009313","2","1","3","1","1,0.5,0,1,0.5,0,0.5,0,1","0.5,0,1,0.5,0,1,0,1,0.5","2","",""
"","html-keyboard-response","57","69379","0.0-57.0","3PS7W85Z80OUQU2FWDBL2ES93869T0","A3ADQ2RLQNJQDU","36U4VBVNQOZD8NFWZXWF9CIHKRIURB","","null","<img src=""img/food5.png"" style=""width:200px; border:14px solid green;"">","null","","","","","","","","","",""
"","image-keyboard-response","58","69764","0.0-58.0","3PS7W85Z80OUQU2FWDBL2ES93869T0","A3ADQ2RLQNJQDU","36U4VBVNQOZD8NFWZXWF9CIHKRIURB","","382.90000000037253","img/food5.png","75","385","2","1","3","1","1,0.5,0,1,0.5,0,0.5,0,1","0.5,0,1,0.5,0,1,0,1,0.5","2","",""
"","html-keyboard-response","59","70067","0.0-59.0","3PS7W85Z80OUQU2FWDBL2ES93869T0","A3ADQ2RLQNJQDU","36U4VBVNQOZD8NFWZXWF9CIHKRIURB","","null","<img src=""img/food5.png"" style=""width:200px; border:14px solid green;"">","null","","","","","","","","","",""
"","image-keyboard-response","60","70660","0.0-60.0","3PS7W85Z80OUQU2FWDBL2ES93869T0","A3ADQ2RLQNJQDU","36U4VBVNQOZD8NFWZXWF9CIHKRIURB","","589","img/food4.png","76","591.7000000001863","3","1","2","1","1,0.5,0,1,0.5,0,0.5,0,1","0.5,0,1,0.5,0,1,0,1,0.5","2","",""
"","html-keyboard-response","61","70964","0.0-61.0","3PS7W85Z80OUQU2FWDBL2ES93869T0","A3ADQ2RLQNJQDU","36U4VBVNQOZD8NFWZXWF9CIHKRIURB","","null","<img src=""img/food4.png"" style=""width:200px; border:14px solid green;"">","null","","","","","","","","","",""
"","image-keyboard-response","62","72020","0.0-62.0","3PS7W85Z80OUQU2FWDBL2ES93869T0","A3ADQ2RLQNJQDU","36U4VBVNQOZD8NFWZXWF9CIHKRIURB","","1052.7999999998137","img/food3.png","74","1055.7999999998137","1","1","1","1","1,0.5,0,1,0.5,0,0.5,0,1","0.5,0,1,0.5,0,1,0,1,0.5","2","",""
"","html-keyboard-response","63","72324","0.0-63.0","3PS7W85Z80OUQU2FWDBL2ES93869T0","A3ADQ2RLQNJQDU","36U4VBVNQOZD8NFWZXWF9CIHKRIURB","","null","<img src=""img/food3.png"" style=""width:200px; border:14px solid green;"">","null","","","","","","","","","",""
"","image-keyboard-response","64","72772","0.0-64.0","3PS7W85Z80OUQU2FWDBL2ES93869T0","A3ADQ2RLQNJQDU","36U4VBVNQOZD8NFWZXWF9CIHKRIURB","","444.29999999981374","img/food5.png","76","447","3","1","3","1","1,0.5,0,1,0.5,0,0.5,0,1","0.5,0,1,0.5,0,1,0,1,0.5","2","",""
"","html-keyboard-response","65","73076","0.0-65.0","3PS7W85Z80OUQU2FWDBL2ES93869T0","A3ADQ2RLQNJQDU","36U4VBVNQOZD8NFWZXWF9CIHKRIURB","","null","<img src=""img/food5.png"" style=""width:200px; border:14px solid green;"">","null","","","","","","","","","",""
"","image-keyboard-response","66","73540","0.0-66.0","3PS7W85Z80OUQU2FWDBL2ES93869T0","A3ADQ2RLQNJQDU","36U4VBVNQOZD8NFWZXWF9CIHKRIURB","","460.39999999990687","img/food4.png","75","463.5","2","0","2","1","1,0.5,0,1,0.5,0,0.5,0,1","0.5,0,1,0.5,0,1,0,1,0.5","2","",""
"","html-keyboard-response","67","73845","0.0-67.0","3PS7W85Z80OUQU2FWDBL2ES93869T0","A3ADQ2RLQNJQDU","36U4VBVNQOZD8NFWZXWF9CIHKRIURB","","null","<img src=""img/food4.png"" style=""width:200px;border:14px solid red;"">","null","","","","","","","","","",""
"","image-keyboard-response","68","74132","0.0-68.0","3PS7W85Z80OUQU2FWDBL2ES93869T0","A3ADQ2RLQNJQDU","36U4VBVNQOZD8NFWZXWF9CIHKRIURB","","283.89999999990687","img/food3.png","76","286.90000000037253","3","1","1","1","1,0.5,0,1,0.5,0,0.5,0,1","0.5,0,1,0.5,0,1,0,1,0.5","2","",""
"","html-keyboard-response","69","74436","0.0-69.0","3PS7W85Z80OUQU2FWDBL2ES93869T0","A3ADQ2RLQNJQDU","36U4VBVNQOZD8NFWZXWF9CIHKRIURB","","null","<img src=""img/food3.png"" style=""width:200px; border:14px solid green;"">","null","","","","","","","","","",""
"","image-keyboard-response","70","75044","0.0-70.0","3PS7W85Z80OUQU2FWDBL2ES93869T0","A3ADQ2RLQNJQDU","36U4VBVNQOZD8NFWZXWF9CIHKRIURB","","604.2000000001863","img/food4.png","76","607.0999999996275","3","1","2","1","1,0.5,0,1,0.5,0,0.5,0,1","0.5,0,1,0.5,0,1,0,1,0.5","2","",""
"","html-keyboard-response","71","75347","0.0-71.0","3PS7W85Z80OUQU2FWDBL2ES93869T0","A3ADQ2RLQNJQDU","36U4VBVNQOZD8NFWZXWF9CIHKRIURB","","null","<img src=""img/food4.png"" style=""width:200px; border:14px solid green;"">","null","","","","","","","","","",""
"","image-keyboard-response","72","75972","0.0-72.0","3PS7W85Z80OUQU2FWDBL2ES93869T0","A3ADQ2RLQNJQDU","36U4VBVNQOZD8NFWZXWF9CIHKRIURB","","622.5","img/food3.png","76","624.6999999997206","3","1","1","1","1,0.5,0,1,0.5,0,0.5,0,1","0.5,0,1,0.5,0,1,0,1,0.5","2","",""
"","html-keyboard-response","73","76276","0.0-73.0","3PS7W85Z80OUQU2FWDBL2ES93869T0","A3ADQ2RLQNJQDU","36U4VBVNQOZD8NFWZXWF9CIHKRIURB","","null","<img src=""img/food3.png"" style=""width:200px; border:14px solid green;"">","null","","","","","","","","","",""
"","image-keyboard-response","74","76724","0.0-74.0","3PS7W85Z80OUQU2FWDBL2ES93869T0","A3ADQ2RLQNJQDU","36U4VBVNQOZD8NFWZXWF9CIHKRIURB","","444.39999999990687","img/food3.png","76","447.3000000002794","3","1","1","1","1,0.5,0,1,0.5,0,0.5,0,1","0.5,0,1,0.5,0,1,0,1,0.5","2","",""
"","html-keyboard-response","75","77028","0.0-75.0","3PS7W85Z80OUQU2FWDBL2ES93869T0","A3ADQ2RLQNJQDU","36U4VBVNQOZD8NFWZXWF9CIHKRIURB","","null","<img src=""img/food3.png"" style=""width:200px; border:14px solid green;"">","null","","","","","","","","","",""
"","image-keyboard-response","76","77364","0.0-76.0","3PS7W85Z80OUQU2FWDBL2ES93869T0","A3ADQ2RLQNJQDU","36U4VBVNQOZD8NFWZXWF9CIHKRIURB","","332.29999999981374","img/food3.png","76","334.89999999990687","3","1","1","1","1,0.5,0,1,0.5,0,0.5,0,1","0.5,0,1,0.5,0,1,0,1,0.5","2","",""
"","html-keyboard-response","77","77668","0.0-77.0","3PS7W85Z80OUQU2FWDBL2ES93869T0","A3ADQ2RLQNJQDU","36U4VBVNQOZD8NFWZXWF9CIHKRIURB","","null","<img src=""img/food3.png"" style=""width:200px; border:14px solid green;"">","null","","","","","","","","","",""
"","image-keyboard-response","78","78180","0.0-78.0","3PS7W85Z80OUQU2FWDBL2ES93869T0","A3ADQ2RLQNJQDU","36U4VBVNQOZD8NFWZXWF9CIHKRIURB","","508.39999999990687","img/food5.png","75","511.3000000002794","2","1","3","1","1,0.5,0,1,0.5,0,0.5,0,1","0.5,0,1,0.5,0,1,0,1,0.5","2","",""
"","html-keyboard-response","79","78485","0.0-79.0","3PS7W85Z80OUQU2FWDBL2ES93869T0","A3ADQ2RLQNJQDU","36U4VBVNQOZD8NFWZXWF9CIHKRIURB","","null","<img src=""img/food5.png"" style=""width:200px; border:14px solid green;"">","null","","","","","","","","","",""
"","image-keyboard-response","80","79188","0.0-80.0","3PS7W85Z80OUQU2FWDBL2ES93869T0","A3ADQ2RLQNJQDU","36U4VBVNQOZD8NFWZXWF9CIHKRIURB","","700","img/food4.png","76","702.8000000002794","3","1","2","1","1,0.5,0,1,0.5,0,0.5,0,1","0.5,0,1,0.5,0,1,0,1,0.5","2","",""
"","html-keyboard-response","81","79492","0.0-81.0","3PS7W85Z80OUQU2FWDBL2ES93869T0","A3ADQ2RLQNJQDU","36U4VBVNQOZD8NFWZXWF9CIHKRIURB","","null","<img src=""img/food4.png"" style=""width:200px; border:14px solid green;"">","null","","","","","","","","","",""
"","image-keyboard-response","82","79891","0.0-82.0","3PS7W85Z80OUQU2FWDBL2ES93869T0","A3ADQ2RLQNJQDU","36U4VBVNQOZD8NFWZXWF9CIHKRIURB","","395.39999999990687","img/food3.png","76","398.1999999997206","3","1","1","1","1,0.5,0,1,0.5,0,0.5,0,1","0.5,0,1,0.5,0,1,0,1,0.5","2","",""
"","html-keyboard-response","83","80195","0.0-83.0","3PS7W85Z80OUQU2FWDBL2ES93869T0","A3ADQ2RLQNJQDU","36U4VBVNQOZD8NFWZXWF9CIHKRIURB","","null","<img src=""img/food3.png"" style=""width:200px; border:14px solid green;"">","null","","","","","","","","","",""
"","image-keyboard-response","84","80676","0.0-84.0","3PS7W85Z80OUQU2FWDBL2ES93869T0","A3ADQ2RLQNJQDU","36U4VBVNQOZD8NFWZXWF9CIHKRIURB","","477.29999999981374","img/food3.png","76","480.10000000009313","3","1","1","1","1,0.5,0,1,0.5,0,0.5,0,1","0.5,0,1,0.5,0,1,0,1,0.5","2","",""
"","html-keyboard-response","85","80980","0.0-85.0","3PS7W85Z80OUQU2FWDBL2ES93869T0","A3ADQ2RLQNJQDU","36U4VBVNQOZD8NFWZXWF9CIHKRIURB","","null","<img src=""img/food3.png"" style=""width:200px; border:14px solid green;"">","null","","","","","","","","","",""
"","image-keyboard-response","86","81588","0.0-86.0","3PS7W85Z80OUQU2FWDBL2ES93869T0","A3ADQ2RLQNJQDU","36U4VBVNQOZD8NFWZXWF9CIHKRIURB","","604.9000000003725","img/food4.png","75","608.6999999997206","2","0","2","1","1,0.5,0,1,0.5,0,0.5,0,1","0.5,0,1,0.5,0,1,0,1,0.5","2","",""
"","html-keyboard-response","87","81894","0.0-87.0","3PS7W85Z80OUQU2FWDBL2ES93869T0","A3ADQ2RLQNJQDU","36U4VBVNQOZD8NFWZXWF9CIHKRIURB","","null","<img src=""img/food4.png"" style=""width:200px;border:14px solid red;"">","null","","","","","","","","","",""
"","image-keyboard-response","88","82789","0.0-88.0","3PS7W85Z80OUQU2FWDBL2ES93869T0","A3ADQ2RLQNJQDU","36U4VBVNQOZD8NFWZXWF9CIHKRIURB","","891.3000000002794","img/food4.png","74","894.6999999997206","1","1","2","1","1,0.5,0,1,0.5,0,0.5,0,1","0.5,0,1,0.5,0,1,0,1,0.5","2","",""
"","html-keyboard-response","89","83094","0.0-89.0","3PS7W85Z80OUQU2FWDBL2ES93869T0","A3ADQ2RLQNJQDU","36U4VBVNQOZD8NFWZXWF9CIHKRIURB","","null","<img src=""img/food4.png"" style=""width:200px; border:14px solid green;"">","null","","","","","","","","","",""
"","image-keyboard-response","90","83620","0.0-90.0","3PS7W85Z80OUQU2FWDBL2ES93869T0","A3ADQ2RLQNJQDU","36U4VBVNQOZD8NFWZXWF9CIHKRIURB","","522","img/food5.png","75","525.5","2","1","3","1","1,0.5,0,1,0.5,0,0.5,0,1","0.5,0,1,0.5,0,1,0,1,0.5","2","",""
"","html-keyboard-response","91","83925","0.0-91.0","3PS7W85Z80OUQU2FWDBL2ES93869T0","A3ADQ2RLQNJQDU","36U4VBVNQOZD8NFWZXWF9CIHKRIURB","","null","<img src=""img/food5.png"" style=""width:200px; border:14px solid green;"">","null","","","","","","","","","",""
"","image-keyboard-response","92","84627","0.0-92.0","3PS7W85Z80OUQU2FWDBL2ES93869T0","A3ADQ2RLQNJQDU","36U4VBVNQOZD8NFWZXWF9CIHKRIURB","","699.3000000002794","img/food3.png","76","702","3","1","1","1","1,0.5,0,1,0.5,0,0.5,0,1","0.5,0,1,0.5,0,1,0,1,0.5","2","",""
"","html-keyboard-response","93","84931","0.0-93.0","3PS7W85Z80OUQU2FWDBL2ES93869T0","A3ADQ2RLQNJQDU","36U4VBVNQOZD8NFWZXWF9CIHKRIURB","","null","<img src=""img/food3.png"" style=""width:200px; border:14px solid green;"">","null","","","","","","","","","",""
"","image-keyboard-response","94","85603","0.0-94.0","3PS7W85Z80OUQU2FWDBL2ES93869T0","A3ADQ2RLQNJQDU","36U4VBVNQOZD8NFWZXWF9CIHKRIURB","","668.7000000001863","img/food4.png","76","671.5","3","1","2","1","1,0.5,0,1,0.5,0,0.5,0,1","0.5,0,1,0.5,0,1,0,1,0.5","2","",""
"","html-keyboard-response","95","85907","0.0-95.0","3PS7W85Z80OUQU2FWDBL2ES93869T0","A3ADQ2RLQNJQDU","36U4VBVNQOZD8NFWZXWF9CIHKRIURB","","null","<img src=""img/food4.png"" style=""width:200px; border:14px solid green;"">","null","","","","","","","","","",""
"","image-keyboard-response","96","86627","0.0-96.0","3PS7W85Z80OUQU2FWDBL2ES93869T0","A3ADQ2RLQNJQDU","36U4VBVNQOZD8NFWZXWF9CIHKRIURB","","717.1000000000931","img/food5.png","75","719.6999999997206","2","1","3","1","1,0.5,0,1,0.5,0,0.5,0,1","0.5,0,1,0.5,0,1,0,1,0.5","2","",""
"","html-keyboard-response","97","86931","0.0-97.0","3PS7W85Z80OUQU2FWDBL2ES93869T0","A3ADQ2RLQNJQDU","36U4VBVNQOZD8NFWZXWF9CIHKRIURB","","null","<img src=""img/food5.png"" style=""width:200px; border:14px solid green;"">","null","","","","","","","","","",""
"","image-keyboard-response","98","87924","0.0-98.0","3PS7W85Z80OUQU2FWDBL2ES93869T0","A3ADQ2RLQNJQDU","36U4VBVNQOZD8NFWZXWF9CIHKRIURB","","989.2999999998137","img/food5.png","75","992.1000000000931","2","1","3","1","1,0.5,0,1,0.5,0,0.5,0,1","0.5,0,1,0.5,0,1,0,1,0.5","2","",""
"","html-keyboard-response","99","88227","0.0-99.0","3PS7W85Z80OUQU2FWDBL2ES93869T0","A3ADQ2RLQNJQDU","36U4VBVNQOZD8NFWZXWF9CIHKRIURB","","null","<img src=""img/food5.png"" style=""width:200px; border:14px solid green;"">","null","","","","","","","","","",""
"","image-keyboard-response","100","88996","0.0-100.0","3PS7W85Z80OUQU2FWDBL2ES93869T0","A3ADQ2RLQNJQDU","36U4VBVNQOZD8NFWZXWF9CIHKRIURB","","765.2999999998137","img/food3.png","76","768.1000000000931","3","1","1","1","1,0.5,0,1,0.5,0,0.5,0,1","0.5,0,1,0.5,0,1,0,1,0.5","2","",""
"","html-keyboard-response","101","89300","0.0-101.0","3PS7W85Z80OUQU2FWDBL2ES93869T0","A3ADQ2RLQNJQDU","36U4VBVNQOZD8NFWZXWF9CIHKRIURB","","null","<img src=""img/food3.png"" style=""width:200px; border:14px solid green;"">","null","","","","","","","","","",""
"","image-keyboard-response","102","91316","0.0-102.0","3PS7W85Z80OUQU2FWDBL2ES93869T0","A3ADQ2RLQNJQDU","36U4VBVNQOZD8NFWZXWF9CIHKRIURB","","2012.3000000002794","img/food4.png","76","2015.6000000000931","3","1","2","1","1,0.5,0,1,0.5,0,0.5,0,1","0.5,0,1,0.5,0,1,0,1,0.5","2","",""
"","html-keyboard-response","103","91620","0.0-103.0","3PS7W85Z80OUQU2FWDBL2ES93869T0","A3ADQ2RLQNJQDU","36U4VBVNQOZD8NFWZXWF9CIHKRIURB","","null","<img src=""img/food4.png"" style=""width:200px; border:14px solid green;"">","null","","","","","","","","","",""
"","image-keyboard-response","104","93109","0.0-104.0","3PS7W85Z80OUQU2FWDBL2ES93869T0","A3ADQ2RLQNJQDU","36U4VBVNQOZD8NFWZXWF9CIHKRIURB","","1484.7999999998137","img/food5.png","75","1487.7000000001863","2","1","3","1","1,0.5,0,1,0.5,0,0.5,0,1","0.5,0,1,0.5,0,1,0,1,0.5","2","",""
"","html-keyboard-response","105","93413","0.0-105.0","3PS7W85Z80OUQU2FWDBL2ES93869T0","A3ADQ2RLQNJQDU","36U4VBVNQOZD8NFWZXWF9CIHKRIURB","","null","<img src=""img/food5.png"" style=""width:200px; border:14px solid green;"">","null","","","","","","","","","",""
"","image-keyboard-response","106","94468","0.0-106.0","3PS7W85Z80OUQU2FWDBL2ES93869T0","A3ADQ2RLQNJQDU","36U4VBVNQOZD8NFWZXWF9CIHKRIURB","","1051.8000000002794","img/food3.png","76","1054.5999999996275","3","1","1","1","1,0.5,0,1,0.5,0,0.5,0,1","0.5,0,1,0.5,0,1,0,1,0.5","2","",""
"","html-keyboard-response","107","94772","0.0-107.0","3PS7W85Z80OUQU2FWDBL2ES93869T0","A3ADQ2RLQNJQDU","36U4VBVNQOZD8NFWZXWF9CIHKRIURB","","null","<img src=""img/food3.png"" style=""width:200px; border:14px solid green;"">","null","","","","","","","","","",""
"","image-keyboard-response","108","96035","0.0-108.0","3PS7W85Z80OUQU2FWDBL2ES93869T0","A3ADQ2RLQNJQDU","36U4VBVNQOZD8NFWZXWF9CIHKRIURB","","1260","img/food4.png","74","1262.6000000000931","1","0","2","1","1,0.5,0,1,0.5,0,0.5,0,1","0.5,0,1,0.5,0,1,0,1,0.5","2","",""
"","html-keyboard-response","109","96339","0.0-109.0","3PS7W85Z80OUQU2FWDBL2ES93869T0","A3ADQ2RLQNJQDU","36U4VBVNQOZD8NFWZXWF9CIHKRIURB","","null","<img src=""img/food4.png"" style=""width:200px;border:14px solid red;"">","null","","","","","","","","","",""
"","image-keyboard-response","110","97059","0.0-110.0","3PS7W85Z80OUQU2FWDBL2ES93869T0","A3ADQ2RLQNJQDU","36U4VBVNQOZD8NFWZXWF9CIHKRIURB","","716.8999999999069","img/food3.png","75","719.7000000001863","2","0","1","1","1,0.5,0,1,0.5,0,0.5,0,1","0.5,0,1,0.5,0,1,0,1,0.5","2","",""
"","html-keyboard-response","111","97363","0.0-111.0","3PS7W85Z80OUQU2FWDBL2ES93869T0","A3ADQ2RLQNJQDU","36U4VBVNQOZD8NFWZXWF9CIHKRIURB","","null","<img src=""img/food3.png"" style=""width:200px;border:14px solid red;"">","null","","","","","","","","","",""
"","image-keyboard-response","112","98099","0.0-112.0","3PS7W85Z80OUQU2FWDBL2ES93869T0","A3ADQ2RLQNJQDU","36U4VBVNQOZD8NFWZXWF9CIHKRIURB","","733.0999999996275","img/food4.png","76","736.1000000000931","3","1","2","1","1,0.5,0,1,0.5,0,0.5,0,1","0.5,0,1,0.5,0,1,0,1,0.5","2","",""
"","html-keyboard-response","113","98403","0.0-113.0","3PS7W85Z80OUQU2FWDBL2ES93869T0","A3ADQ2RLQNJQDU","36U4VBVNQOZD8NFWZXWF9CIHKRIURB","","null","<img src=""img/food4.png"" style=""width:200px; border:14px solid green;"">","null","","","","","","","","","",""
"","image-keyboard-response","114","99076","0.0-114.0","3PS7W85Z80OUQU2FWDBL2ES93869T0","A3ADQ2RLQNJQDU","36U4VBVNQOZD8NFWZXWF9CIHKRIURB","","669.8999999999069","img/food3.png","76","672.7000000001863","3","1","1","1","1,0.5,0,1,0.5,0,0.5,0,1","0.5,0,1,0.5,0,1,0,1,0.5","2","",""
"","html-keyboard-response","115","99380","0.0-115.0","3PS7W85Z80OUQU2FWDBL2ES93869T0","A3ADQ2RLQNJQDU","36U4VBVNQOZD8NFWZXWF9CIHKRIURB","","null","<img src=""img/food3.png"" style=""width:200px; border:14px solid green;"">","null","","","","","","","","","",""
"","image-keyboard-response","116","100052","0.0-116.0","3PS7W85Z80OUQU2FWDBL2ES93869T0","A3ADQ2RLQNJQDU","36U4VBVNQOZD8NFWZXWF9CIHKRIURB","","668.8000000002794","img/food3.png","76","671.7000000001863","3","1","1","1","1,0.5,0,1,0.5,0,0.5,0,1","0.5,0,1,0.5,0,1,0,1,0.5","2","",""
"","html-keyboard-response","117","100355","0.0-117.0","3PS7W85Z80OUQU2FWDBL2ES93869T0","A3ADQ2RLQNJQDU","36U4VBVNQOZD8NFWZXWF9CIHKRIURB","","null","<img src=""img/food3.png"" style=""width:200px; border:14px solid green;"">","null","","","","","","","","","",""
"","image-keyboard-response","118","101188","0.0-118.0","3PS7W85Z80OUQU2FWDBL2ES93869T0","A3ADQ2RLQNJQDU","36U4VBVNQOZD8NFWZXWF9CIHKRIURB","","829.8999999999069","img/food5.png","75","832","2","1","3","1","1,0.5,0,1,0.5,0,0.5,0,1","0.5,0,1,0.5,0,1,0,1,0.5","2","",""
"","html-keyboard-response","119","101492","0.0-119.0","3PS7W85Z80OUQU2FWDBL2ES93869T0","A3ADQ2RLQNJQDU","36U4VBVNQOZD8NFWZXWF9CIHKRIURB","","null","<img src=""img/food5.png"" style=""width:200px; border:14px solid green;"">","null","","","","","","","","","",""
"","image-keyboard-response","120","103044","0.0-120.0","3PS7W85Z80OUQU2FWDBL2ES93869T0","A3ADQ2RLQNJQDU","36U4VBVNQOZD8NFWZXWF9CIHKRIURB","","1548.1999999997206","img/food4.png","74","1551.1000000000931","1","1","2","1","1,0.5,0,1,0.5,0,0.5,0,1","0.5,0,1,0.5,0,1,0,1,0.5","2","",""
"","html-keyboard-response","121","103347","0.0-121.0","3PS7W85Z80OUQU2FWDBL2ES93869T0","A3ADQ2RLQNJQDU","36U4VBVNQOZD8NFWZXWF9CIHKRIURB","","null","<img src=""img/food4.png"" style=""width:200px; border:14px solid green;"">","null","","","","","","","","","",""
"","image-keyboard-response","122","103924","0.0-122.0","3PS7W85Z80OUQU2FWDBL2ES93869T0","A3ADQ2RLQNJQDU","36U4VBVNQOZD8NFWZXWF9CIHKRIURB","","573.7999999998137","img/food5.png","75","576.3000000002794","2","1","3","1","1,0.5,0,1,0.5,0,0.5,0,1","0.5,0,1,0.5,0,1,0,1,0.5","2","",""
"","html-keyboard-response","123","104228","0.0-123.0","3PS7W85Z80OUQU2FWDBL2ES93869T0","A3ADQ2RLQNJQDU","36U4VBVNQOZD8NFWZXWF9CIHKRIURB","","null","<img src=""img/food5.png"" style=""width:200px; border:14px solid green;"">","null","","","","","","","","","",""
"","image-keyboard-response","124","105172","0.0-124.0","3PS7W85Z80OUQU2FWDBL2ES93869T0","A3ADQ2RLQNJQDU","36U4VBVNQOZD8NFWZXWF9CIHKRIURB","","940.2999999998137","img/food3.png","76","943.7999999998137","3","1","1","1","1,0.5,0,1,0.5,0,0.5,0,1","0.5,0,1,0.5,0,1,0,1,0.5","2","",""
"","html-keyboard-response","125","105477","0.0-125.0","3PS7W85Z80OUQU2FWDBL2ES93869T0","A3ADQ2RLQNJQDU","36U4VBVNQOZD8NFWZXWF9CIHKRIURB","","null","<img src=""img/food3.png"" style=""width:200px; border:14px solid green;"">","null","","","","","","","","","",""
"","image-keyboard-response","126","105875","0.0-126.0","3PS7W85Z80OUQU2FWDBL2ES93869T0","A3ADQ2RLQNJQDU","36U4VBVNQOZD8NFWZXWF9CIHKRIURB","","395","img/food3.png","76","397.8000000002794","3","1","1","1","1,0.5,0,1,0.5,0,0.5,0,1","0.5,0,1,0.5,0,1,0,1,0.5","2","",""
"","html-keyboard-response","127","106179","0.0-127.0","3PS7W85Z80OUQU2FWDBL2ES93869T0","A3ADQ2RLQNJQDU","36U4VBVNQOZD8NFWZXWF9CIHKRIURB","","null","<img src=""img/food3.png"" style=""width:200px; border:14px solid green;"">","null","","","","","","","","","",""
"","image-keyboard-response","128","106852","0.0-128.0","3PS7W85Z80OUQU2FWDBL2ES93869T0","A3ADQ2RLQNJQDU","36U4VBVNQOZD8NFWZXWF9CIHKRIURB","","669.1000000000931","img/food5.png","75","672","2","1","3","1","1,0.5,0,1,0.5,0,0.5,0,1","0.5,0,1,0.5,0,1,0,1,0.5","2","",""
"","html-keyboard-response","129","107155","0.0-129.0","3PS7W85Z80OUQU2FWDBL2ES93869T0","A3ADQ2RLQNJQDU","36U4VBVNQOZD8NFWZXWF9CIHKRIURB","","null","<img src=""img/food5.png"" style=""width:200px; border:14px solid green;"">","null","","","","","","","","","",""
"","image-keyboard-response","130","107667","0.0-130.0","3PS7W85Z80OUQU2FWDBL2ES93869T0","A3ADQ2RLQNJQDU","36U4VBVNQOZD8NFWZXWF9CIHKRIURB","","508.5","img/food5.png","75","511.5","2","1","3","1","1,0.5,0,1,0.5,0,0.5,0,1","0.5,0,1,0.5,0,1,0,1,0.5","2","",""
"","html-keyboard-response","131","107971","0.0-131.0","3PS7W85Z80OUQU2FWDBL2ES93869T0","A3ADQ2RLQNJQDU","36U4VBVNQOZD8NFWZXWF9CIHKRIURB","","null","<img src=""img/food5.png"" style=""width:200px; border:14px solid green;"">","null","","","","","","","","","",""
"","image-keyboard-response","132","109172","0.0-132.0","3PS7W85Z80OUQU2FWDBL2ES93869T0","A3ADQ2RLQNJQDU","36U4VBVNQOZD8NFWZXWF9CIHKRIURB","","1197.3999999999069","img/food5.png","75","1200.5","2","1","3","1","1,0.5,0,1,0.5,0,0.5,0,1","0.5,0,1,0.5,0,1,0,1,0.5","2","",""
"","html-keyboard-response","133","109476","0.0-133.0","3PS7W85Z80OUQU2FWDBL2ES93869T0","A3ADQ2RLQNJQDU","36U4VBVNQOZD8NFWZXWF9CIHKRIURB","","null","<img src=""img/food5.png"" style=""width:200px; border:14px solid green;"">","null","","","","","","","","","",""
"","image-keyboard-response","134","109843","0.0-134.0","3PS7W85Z80OUQU2FWDBL2ES93869T0","A3ADQ2RLQNJQDU","36U4VBVNQOZD8NFWZXWF9CIHKRIURB","","364","img/food5.png","75","366.89999999990687","2","1","3","1","1,0.5,0,1,0.5,0,0.5,0,1","0.5,0,1,0.5,0,1,0,1,0.5","2","",""
"","html-keyboard-response","135","110147","0.0-135.0","3PS7W85Z80OUQU2FWDBL2ES93869T0","A3ADQ2RLQNJQDU","36U4VBVNQOZD8NFWZXWF9CIHKRIURB","","null","<img src=""img/food5.png"" style=""width:200px; border:14px solid green;"">","null","","","","","","","","","",""
"","image-keyboard-response","136","110979","0.0-136.0","3PS7W85Z80OUQU2FWDBL2ES93869T0","A3ADQ2RLQNJQDU","36U4VBVNQOZD8NFWZXWF9CIHKRIURB","","829.1000000000931","img/food4.png","76","832","3","1","2","1","1,0.5,0,1,0.5,0,0.5,0,1","0.5,0,1,0.5,0,1,0,1,0.5","2","",""
"","html-keyboard-response","137","111283","0.0-137.0","3PS7W85Z80OUQU2FWDBL2ES93869T0","A3ADQ2RLQNJQDU","36U4VBVNQOZD8NFWZXWF9CIHKRIURB","","null","<img src=""img/food4.png"" style=""width:200px; border:14px solid green;"">","null","","","","","","","","","",""
"","image-keyboard-response","138","111604","0.0-138.0","3PS7W85Z80OUQU2FWDBL2ES93869T0","A3ADQ2RLQNJQDU","36U4VBVNQOZD8NFWZXWF9CIHKRIURB","","317.5","img/food4.png","76","320.3000000002794","3","1","2","1","1,0.5,0,1,0.5,0,0.5,0,1","0.5,0,1,0.5,0,1,0,1,0.5","2","",""
"","html-keyboard-response","139","111908","0.0-139.0","3PS7W85Z80OUQU2FWDBL2ES93869T0","A3ADQ2RLQNJQDU","36U4VBVNQOZD8NFWZXWF9CIHKRIURB","","null","<img src=""img/food4.png"" style=""width:200px; border:14px solid green;"">","null","","","","","","","","","",""
"","image-keyboard-response","140","113509","0.0-140.0","3PS7W85Z80OUQU2FWDBL2ES93869T0","A3ADQ2RLQNJQDU","36U4VBVNQOZD8NFWZXWF9CIHKRIURB","","1597.7000000001863","img/food3.png","74","1600.5999999996275","1","1","1","1","1,0.5,0,1,0.5,0,0.5,0,1","0.5,0,1,0.5,0,1,0,1,0.5","2","",""
"","html-keyboard-response","141","113814","0.0-141.0","3PS7W85Z80OUQU2FWDBL2ES93869T0","A3ADQ2RLQNJQDU","36U4VBVNQOZD8NFWZXWF9CIHKRIURB","","null","<img src=""img/food3.png"" style=""width:200px; border:14px solid green;"">","null","","","","","","","","","",""
"","image-keyboard-response","142","119380","0.0-142.0","3PS7W85Z80OUQU2FWDBL2ES93869T0","A3ADQ2RLQNJQDU","36U4VBVNQOZD8NFWZXWF9CIHKRIURB","","5562.899999999907","img/food4.png","75","5565.5999999996275","2","0","2","1","1,0.5,0,1,0.5,0,0.5,0,1","0.5,0,1,0.5,0,1,0,1,0.5","2","",""
"","html-keyboard-response","143","119684","0.0-143.0","3PS7W85Z80OUQU2FWDBL2ES93869T0","A3ADQ2RLQNJQDU","36U4VBVNQOZD8NFWZXWF9CIHKRIURB","","null","<img src=""img/food4.png"" style=""width:200px;border:14px solid red;"">","null","","","","","","","","","",""
"","image-keyboard-response","144","120500","0.0-144.0","3PS7W85Z80OUQU2FWDBL2ES93869T0","A3ADQ2RLQNJQDU","36U4VBVNQOZD8NFWZXWF9CIHKRIURB","","812.8999999999069","img/food3.png","75","815.8999999999069","2","0","1","1","1,0.5,0,1,0.5,0,0.5,0,1","0.5,0,1,0.5,0,1,0,1,0.5","2","",""
"","html-keyboard-response","145","120804","0.0-145.0","3PS7W85Z80OUQU2FWDBL2ES93869T0","A3ADQ2RLQNJQDU","36U4VBVNQOZD8NFWZXWF9CIHKRIURB","","null","<img src=""img/food3.png"" style=""width:200px;border:14px solid red;"">","null","","","","","","","","","",""
"","image-keyboard-response","146","121844","0.0-146.0","3PS7W85Z80OUQU2FWDBL2ES93869T0","A3ADQ2RLQNJQDU","36U4VBVNQOZD8NFWZXWF9CIHKRIURB","","1036.2999999998137","img/food3.png","74","1039.2000000001863","1","1","1","1","1,0.5,0,1,0.5,0,0.5,0,1","0.5,0,1,0.5,0,1,0,1,0.5","2","",""
"","html-keyboard-response","147","122148","0.0-147.0","3PS7W85Z80OUQU2FWDBL2ES93869T0","A3ADQ2RLQNJQDU","36U4VBVNQOZD8NFWZXWF9CIHKRIURB","","null","<img src=""img/food3.png"" style=""width:200px; border:14px solid green;"">","null","","","","","","","","","",""
"","image-keyboard-response","148","122660","0.0-148.0","3PS7W85Z80OUQU2FWDBL2ES93869T0","A3ADQ2RLQNJQDU","36U4VBVNQOZD8NFWZXWF9CIHKRIURB","","508.40000000037253","img/food3.png","74","512.1999999997206","1","0","1","1","1,0.5,0,1,0.5,0,0.5,0,1","0.5,0,1,0.5,0,1,0,1,0.5","2","",""
"","html-keyboard-response","149","122965","0.0-149.0","3PS7W85Z80OUQU2FWDBL2ES93869T0","A3ADQ2RLQNJQDU","36U4VBVNQOZD8NFWZXWF9CIHKRIURB","","null","<img src=""img/food3.png"" style=""width:200px;border:14px solid red;"">","null","","","","","","","","","",""
"","image-keyboard-response","150","123603","0.0-150.0","3PS7W85Z80OUQU2FWDBL2ES93869T0","A3ADQ2RLQNJQDU","36U4VBVNQOZD8NFWZXWF9CIHKRIURB","","634.9000000003725","img/food5.png","74","637.7999999998137","1","0","3","1","1,0.5,0,1,0.5,0,0.5,0,1","0.5,0,1,0.5,0,1,0,1,0.5","2","",""
"","html-keyboard-response","151","123908","0.0-151.0","3PS7W85Z80OUQU2FWDBL2ES93869T0","A3ADQ2RLQNJQDU","36U4VBVNQOZD8NFWZXWF9CIHKRIURB","","null","<img src=""img/food5.png"" style=""width:200px;border:14px solid red;"">","null","","","","","","","","","",""
"","image-keyboard-response","152","127221","0.0-152.0","3PS7W85Z80OUQU2FWDBL2ES93869T0","A3ADQ2RLQNJQDU","36U4VBVNQOZD8NFWZXWF9CIHKRIURB","","3309.5","img/food4.png","76","3312.100000000093","3","1","2","1","1,0.5,0,1,0.5,0,0.5,0,1","0.5,0,1,0.5,0,1,0,1,0.5","2","",""
"","html-keyboard-response","153","127524","0.0-153.0","3PS7W85Z80OUQU2FWDBL2ES93869T0","A3ADQ2RLQNJQDU","36U4VBVNQOZD8NFWZXWF9CIHKRIURB","","null","<img src=""img/food4.png"" style=""width:200px; border:14px solid green;"">","null","","","","","","","","","",""
"","image-keyboard-response","154","128372","0.0-154.0","3PS7W85Z80OUQU2FWDBL2ES93869T0","A3ADQ2RLQNJQDU","36U4VBVNQOZD8NFWZXWF9CIHKRIURB","","845.8000000002794","img/food5.png","75","848.1000000000931","2","1","3","1","1,0.5,0,1,0.5,0,0.5,0,1","0.5,0,1,0.5,0,1,0,1,0.5","2","",""
"","html-keyboard-response","155","128676","0.0-155.0","3PS7W85Z80OUQU2FWDBL2ES93869T0","A3ADQ2RLQNJQDU","36U4VBVNQOZD8NFWZXWF9CIHKRIURB","","null","<img src=""img/food5.png"" style=""width:200px; border:14px solid green;"">","null","","","","","","","","","",""
"","image-keyboard-response","156","129316","0.0-156.0","3PS7W85Z80OUQU2FWDBL2ES93869T0","A3ADQ2RLQNJQDU","36U4VBVNQOZD8NFWZXWF9CIHKRIURB","","636.1000000000931","img/food3.png","75","638.8000000002794","2","0","1","1","1,0.5,0,1,0.5,0,0.5,0,1","0.5,0,1,0.5,0,1,0,1,0.5","2","",""
"","html-keyboard-response","157","129619","0.0-157.0","3PS7W85Z80OUQU2FWDBL2ES93869T0","A3ADQ2RLQNJQDU","36U4VBVNQOZD8NFWZXWF9CIHKRIURB","","null","<img src=""img/food3.png"" style=""width:200px;border:14px solid red;"">","null","","","","","","","","","",""
"","image-keyboard-response","158","129924","0.0-158.0","3PS7W85Z80OUQU2FWDBL2ES93869T0","A3ADQ2RLQNJQDU","36U4VBVNQOZD8NFWZXWF9CIHKRIURB","","301.10000000009313","img/food3.png","76","303.89999999990687","3","1","1","1","1,0.5,0,1,0.5,0,0.5,0,1","0.5,0,1,0.5,0,1,0,1,0.5","2","",""
"","html-keyboard-response","159","130227","0.0-159.0","3PS7W85Z80OUQU2FWDBL2ES93869T0","A3ADQ2RLQNJQDU","36U4VBVNQOZD8NFWZXWF9CIHKRIURB","","null","<img src=""img/food3.png"" style=""width:200px; border:14px solid green;"">","null","","","","","","","","","",""
"","image-keyboard-response","160","130915","0.0-160.0","3PS7W85Z80OUQU2FWDBL2ES93869T0","A3ADQ2RLQNJQDU","36U4VBVNQOZD8NFWZXWF9CIHKRIURB","","681.7999999998137","img/food5.png","76","684.5","3","1","3","1","1,0.5,0,1,0.5,0,0.5,0,1","0.5,0,1,0.5,0,1,0,1,0.5","2","",""
"","html-keyboard-response","161","131219","0.0-161.0","3PS7W85Z80OUQU2FWDBL2ES93869T0","A3ADQ2RLQNJQDU","36U4VBVNQOZD8NFWZXWF9CIHKRIURB","","null","<img src=""img/food5.png"" style=""width:200px; border:14px solid green;"">","null","","","","","","","","","",""
"","image-keyboard-response","162","131923","0.0-162.0","3PS7W85Z80OUQU2FWDBL2ES93869T0","A3ADQ2RLQNJQDU","36U4VBVNQOZD8NFWZXWF9CIHKRIURB","","700.8999999999069","img/food4.png","76","703.6000000000931","3","1","2","1","1,0.5,0,1,0.5,0,0.5,0,1","0.5,0,1,0.5,0,1,0,1,0.5","2","",""
"","html-keyboard-response","163","132227","0.0-163.0","3PS7W85Z80OUQU2FWDBL2ES93869T0","A3ADQ2RLQNJQDU","36U4VBVNQOZD8NFWZXWF9CIHKRIURB","","null","<img src=""img/food4.png"" style=""width:200px; border:14px solid green;"">","null","","","","","","","","","",""
"","image-keyboard-response","164","132996","0.0-164.0","3PS7W85Z80OUQU2FWDBL2ES93869T0","A3ADQ2RLQNJQDU","36U4VBVNQOZD8NFWZXWF9CIHKRIURB","","765.1000000000931","img/food5.png","75","768","2","1","3","1","1,0.5,0,1,0.5,0,0.5,0,1","0.5,0,1,0.5,0,1,0,1,0.5","2","",""
"","html-keyboard-response","165","133300","0.0-165.0","3PS7W85Z80OUQU2FWDBL2ES93869T0","A3ADQ2RLQNJQDU","36U4VBVNQOZD8NFWZXWF9CIHKRIURB","","null","<img src=""img/food5.png"" style=""width:200px; border:14px solid green;"">","null","","","","","","","","","",""
"","image-keyboard-response","166","134243","0.0-166.0","3PS7W85Z80OUQU2FWDBL2ES93869T0","A3ADQ2RLQNJQDU","36U4VBVNQOZD8NFWZXWF9CIHKRIURB","","940.2999999998137","img/food3.png","74","943.0999999996275","1","1","1","1","1,0.5,0,1,0.5,0,0.5,0,1","0.5,0,1,0.5,0,1,0,1,0.5","2","",""
"","html-keyboard-response","167","134547","0.0-167.0","3PS7W85Z80OUQU2FWDBL2ES93869T0","A3ADQ2RLQNJQDU","36U4VBVNQOZD8NFWZXWF9CIHKRIURB","","null","<img src=""img/food3.png"" style=""width:200px; border:14px solid green;"">","null","","","","","","","","","",""
"","image-keyboard-response","168","134980","0.0-168.0","3PS7W85Z80OUQU2FWDBL2ES93869T0","A3ADQ2RLQNJQDU","36U4VBVNQOZD8NFWZXWF9CIHKRIURB","","429.20000000018626","img/food3.png","74","432.60000000009313","1","1","1","1","1,0.5,0,1,0.5,0,0.5,0,1","0.5,0,1,0.5,0,1,0,1,0.5","2","",""
"","html-keyboard-response","169","135285","0.0-169.0","3PS7W85Z80OUQU2FWDBL2ES93869T0","A3ADQ2RLQNJQDU","36U4VBVNQOZD8NFWZXWF9CIHKRIURB","","null","<img src=""img/food3.png"" style=""width:200px; border:14px solid green;"">","null","","","","","","","","","",""
"","image-keyboard-response","170","137204","0.0-170.0","3PS7W85Z80OUQU2FWDBL2ES93869T0","A3ADQ2RLQNJQDU","36U4VBVNQOZD8NFWZXWF9CIHKRIURB","","1915.5","img/food4.png","76","1918.1999999997206","3","1","2","1","1,0.5,0,1,0.5,0,0.5,0,1","0.5,0,1,0.5,0,1,0,1,0.5","2","",""
"","html-keyboard-response","171","137507","0.0-171.0","3PS7W85Z80OUQU2FWDBL2ES93869T0","A3ADQ2RLQNJQDU","36U4VBVNQOZD8NFWZXWF9CIHKRIURB","","null","<img src=""img/food4.png"" style=""width:200px; border:14px solid green;"">","null","","","","","","","","","",""
"","image-keyboard-response","172","138181","0.0-172.0","3PS7W85Z80OUQU2FWDBL2ES93869T0","A3ADQ2RLQNJQDU","36U4VBVNQOZD8NFWZXWF9CIHKRIURB","","669.8000000002794","img/food3.png","76","672.6000000000931","3","1","1","1","1,0.5,0,1,0.5,0,0.5,0,1","0.5,0,1,0.5,0,1,0,1,0.5","2","",""
"","html-keyboard-response","173","138484","0.0-173.0","3PS7W85Z80OUQU2FWDBL2ES93869T0","A3ADQ2RLQNJQDU","36U4VBVNQOZD8NFWZXWF9CIHKRIURB","","null","<img src=""img/food3.png"" style=""width:200px; border:14px solid green;"">","null","","","","","","","","","",""
"","image-keyboard-response","174","139300","0.0-174.0","3PS7W85Z80OUQU2FWDBL2ES93869T0","A3ADQ2RLQNJQDU","36U4VBVNQOZD8NFWZXWF9CIHKRIURB","","811.7000000001863","img/food4.png","76","815.3999999999069","3","1","2","1","1,0.5,0,1,0.5,0,0.5,0,1","0.5,0,1,0.5,0,1,0,1,0.5","2","",""
"","html-keyboard-response","175","139606","0.0-175.0","3PS7W85Z80OUQU2FWDBL2ES93869T0","A3ADQ2RLQNJQDU","36U4VBVNQOZD8NFWZXWF9CIHKRIURB","","null","<img src=""img/food4.png"" style=""width:200px; border:14px solid green;"">","null","","","","","","","","","",""
"","image-keyboard-response","176","140243","0.0-176.0","3PS7W85Z80OUQU2FWDBL2ES93869T0","A3ADQ2RLQNJQDU","36U4VBVNQOZD8NFWZXWF9CIHKRIURB","","634.5999999996275","img/food3.png","76","637.2999999998137","3","1","1","1","1,0.5,0,1,0.5,0,0.5,0,1","0.5,0,1,0.5,0,1,0,1,0.5","2","",""
"","html-keyboard-response","177","140547","0.0-177.0","3PS7W85Z80OUQU2FWDBL2ES93869T0","A3ADQ2RLQNJQDU","36U4VBVNQOZD8NFWZXWF9CIHKRIURB","","null","<img src=""img/food3.png"" style=""width:200px; border:14px solid green;"">","null","","","","","","","","","",""
"","image-keyboard-response","178","141076","0.0-178.0","3PS7W85Z80OUQU2FWDBL2ES93869T0","A3ADQ2RLQNJQDU","36U4VBVNQOZD8NFWZXWF9CIHKRIURB","","524.8999999999069","img/food4.png","76","527.8999999999069","3","1","2","1","1,0.5,0,1,0.5,0,0.5,0,1","0.5,0,1,0.5,0,1,0,1,0.5","2","",""
"","html-keyboard-response","179","141380","0.0-179.0","3PS7W85Z80OUQU2FWDBL2ES93869T0","A3ADQ2RLQNJQDU","36U4VBVNQOZD8NFWZXWF9CIHKRIURB","","null","<img src=""img/food4.png"" style=""width:200px; border:14px solid green;"">","null","","","","","","","","","",""
"","image-keyboard-response","180","141782","0.0-180.0","3PS7W85Z80OUQU2FWDBL2ES93869T0","A3ADQ2RLQNJQDU","36U4VBVNQOZD8NFWZXWF9CIHKRIURB","","398.39999999990687","img/food4.png","76","401.20000000018626","3","1","2","1","1,0.5,0,1,0.5,0,0.5,0,1","0.5,0,1,0.5,0,1,0,1,0.5","2","",""
"","html-keyboard-response","181","142086","0.0-181.0","3PS7W85Z80OUQU2FWDBL2ES93869T0","A3ADQ2RLQNJQDU","36U4VBVNQOZD8NFWZXWF9CIHKRIURB","","null","<img src=""img/food4.png"" style=""width:200px; border:14px solid green;"">","null","","","","","","","","","",""
"","html-keyboard-response","182","146238","0.0-182.0","3PS7W85Z80OUQU2FWDBL2ES93869T0","A3ADQ2RLQNJQDU","36U4VBVNQOZD8NFWZXWF9CIHKRIURB","","","","","","","","","","","","","",""
"","instructions","183","155323","0.0-183.0","3PS7W85Z80OUQU2FWDBL2ES93869T0","A3ADQ2RLQNJQDU","36U4VBVNQOZD8NFWZXWF9CIHKRIURB","[{""page_index"":0,""viewing_time"":6706.399999999907},{""page_index"":1,""viewing_time"":2374}]","9081.5","","","","","","","","","","","",""
"","image-keyboard-response","184","156328","0.0-184.0","3PS7W85Z80OUQU2FWDBL2ES93869T0","A3ADQ2RLQNJQDU","36U4VBVNQOZD8NFWZXWF9CIHKRIURB","","","img/food2.png","","1005.5","-1","0","2","2","1,0.5,0,1,0.5,0,0.5,0,1","0.5,0,1,0.5,0,1,0,1,0.5","2","true",""
"","html-keyboard-response","185","156634","0.0-185.0","3PS7W85Z80OUQU2FWDBL2ES93869T0","A3ADQ2RLQNJQDU","36U4VBVNQOZD8NFWZXWF9CIHKRIURB","","null","<img src=""img/food2.png"" style=""width:200px;border:14px solid red;"">","null","","","","","","","","","",""
"","html-keyboard-response","186","160473","0.0-186.0-0.0","3PS7W85Z80OUQU2FWDBL2ES93869T0","A3ADQ2RLQNJQDU","36U4VBVNQOZD8NFWZXWF9CIHKRIURB","","","","","","","","","","","","","",""
"","image-keyboard-response","187","161172","0.0-187.0","3PS7W85Z80OUQU2FWDBL2ES93869T0","A3ADQ2RLQNJQDU","36U4VBVNQOZD8NFWZXWF9CIHKRIURB","","694.3000000002794","img/food1.png","75","698.1999999997206","2","1","3","2","1,0.5,0,1,0.5,0,0.5,0,1","0.5,0,1,0.5,0,1,0,1,0.5","2","false",""
"","html-keyboard-response","188","161476","0.0-188.0","3PS7W85Z80OUQU2FWDBL2ES93869T0","A3ADQ2RLQNJQDU","36U4VBVNQOZD8NFWZXWF9CIHKRIURB","","null","<img src=""img/food1.png"" style=""width:200px; border:14px solid green;"">","null","","","","","","","","","",""
"","image-keyboard-response","189","161748","0.0-190.0","3PS7W85Z80OUQU2FWDBL2ES93869T0","A3ADQ2RLQNJQDU","36U4VBVNQOZD8NFWZXWF9CIHKRIURB","","268.29999999981374","img/food6.png","75","271.10000000009313","2","0","1","2","1,0.5,0,1,0.5,0,0.5,0,1","0.5,0,1,0.5,0,1,0,1,0.5","2","false",""
"","html-keyboard-response","190","162052","0.0-191.0","3PS7W85Z80OUQU2FWDBL2ES93869T0","A3ADQ2RLQNJQDU","36U4VBVNQOZD8NFWZXWF9CIHKRIURB","","null","<img src=""img/food6.png"" style=""width:200px;border:14px solid red;"">","null","","","","","","","","","",""
"","image-keyboard-response","191","162228","0.0-193.0","3PS7W85Z80OUQU2FWDBL2ES93869T0","A3ADQ2RLQNJQDU","36U4VBVNQOZD8NFWZXWF9CIHKRIURB","","171.1999999997206","img/food6.png","75","174.39999999990687","2","0","1","2","1,0.5,0,1,0.5,0,0.5,0,1","0.5,0,1,0.5,0,1,0,1,0.5","2","false",""
"","html-keyboard-response","192","162533","0.0-194.0","3PS7W85Z80OUQU2FWDBL2ES93869T0","A3ADQ2RLQNJQDU","36U4VBVNQOZD8NFWZXWF9CIHKRIURB","","null","<img src=""img/food6.png"" style=""width:200px;border:14px solid red;"">","null","","","","","","","","","",""
"","image-keyboard-response","193","162981","0.0-196.0","3PS7W85Z80OUQU2FWDBL2ES93869T0","A3ADQ2RLQNJQDU","36U4VBVNQOZD8NFWZXWF9CIHKRIURB","","443.70000000018626","img/food6.png","74","446.5","1","0","1","2","1,0.5,0,1,0.5,0,0.5,0,1","0.5,0,1,0.5,0,1,0,1,0.5","2","false",""
"","html-keyboard-response","194","163285","0.0-197.0","3PS7W85Z80OUQU2FWDBL2ES93869T0","A3ADQ2RLQNJQDU","36U4VBVNQOZD8NFWZXWF9CIHKRIURB","","null","<img src=""img/food6.png"" style=""width:200px;border:14px solid red;"">","null","","","","","","","","","",""
"","image-keyboard-response","195","163524","0.0-199.0","3PS7W85Z80OUQU2FWDBL2ES93869T0","A3ADQ2RLQNJQDU","36U4VBVNQOZD8NFWZXWF9CIHKRIURB","","234.6999999997206","img/food2.png","75","237.5","2","0","2","2","1,0.5,0,1,0.5,0,0.5,0,1","0.5,0,1,0.5,0,1,0,1,0.5","2","false",""
"","html-keyboard-response","196","163828","0.0-200.0","3PS7W85Z80OUQU2FWDBL2ES93869T0","A3ADQ2RLQNJQDU","36U4VBVNQOZD8NFWZXWF9CIHKRIURB","","null","<img src=""img/food2.png"" style=""width:200px;border:14px solid red;"">","null","","","","","","","","","",""
"","image-keyboard-response","197","163956","0.0-202.0","3PS7W85Z80OUQU2FWDBL2ES93869T0","A3ADQ2RLQNJQDU","36U4VBVNQOZD8NFWZXWF9CIHKRIURB","","123.39999999990687","img/food6.png","75","127.20000000018626","2","0","1","2","1,0.5,0,1,0.5,0,0.5,0,1","0.5,0,1,0.5,0,1,0,1,0.5","2","false",""
"","html-keyboard-response","198","164261","0.0-203.0","3PS7W85Z80OUQU2FWDBL2ES93869T0","A3ADQ2RLQNJQDU","36U4VBVNQOZD8NFWZXWF9CIHKRIURB","","null","<img src=""img/food6.png"" style=""width:200px;border:14px solid red;"">","null","","","","","","","","","",""
"","image-keyboard-response","199","164499","0.0-205.0","3PS7W85Z80OUQU2FWDBL2ES93869T0","A3ADQ2RLQNJQDU","36U4VBVNQOZD8NFWZXWF9CIHKRIURB","","233.29999999981374","img/food2.png","75","236.39999999990687","2","0","2","2","1,0.5,0,1,0.5,0,0.5,0,1","0.5,0,1,0.5,0,1,0,1,0.5","2","false",""
"","html-keyboard-response","200","164804","0.0-206.0","3PS7W85Z80OUQU2FWDBL2ES93869T0","A3ADQ2RLQNJQDU","36U4VBVNQOZD8NFWZXWF9CIHKRIURB","","null","<img src=""img/food2.png"" style=""width:200px;border:14px solid red;"">","null","","","","","","","","","",""
"","image-keyboard-response","201","164836","0.0-208.0","3PS7W85Z80OUQU2FWDBL2ES93869T0","A3ADQ2RLQNJQDU","36U4VBVNQOZD8NFWZXWF9CIHKRIURB","","27.799999999813735","img/food2.png","76","30.59999999962747","3","1","2","2","1,0.5,0,1,0.5,0,0.5,0,1","0.5,0,1,0.5,0,1,0,1,0.5","2","false",""
"","html-keyboard-response","202","165140","0.0-209.0","3PS7W85Z80OUQU2FWDBL2ES93869T0","A3ADQ2RLQNJQDU","36U4VBVNQOZD8NFWZXWF9CIHKRIURB","","null","<img src=""img/food2.png"" style=""width:200px; border:14px solid green;"">","null","","","","","","","","","",""
"","image-keyboard-response","203","165300","0.0-211.0","3PS7W85Z80OUQU2FWDBL2ES93869T0","A3ADQ2RLQNJQDU","36U4VBVNQOZD8NFWZXWF9CIHKRIURB","","155.1999999997206","img/food2.png","76","158.29999999981374","3","1","2","2","1,0.5,0,1,0.5,0,0.5,0,1","0.5,0,1,0.5,0,1,0,1,0.5","2","false",""
"","html-keyboard-response","204","165604","0.0-212.0","3PS7W85Z80OUQU2FWDBL2ES93869T0","A3ADQ2RLQNJQDU","36U4VBVNQOZD8NFWZXWF9CIHKRIURB","","null","<img src=""img/food2.png"" style=""width:200px; border:14px solid green;"">","null","","","","","","","","","",""
"","image-keyboard-response","205","165716","0.0-214.0","3PS7W85Z80OUQU2FWDBL2ES93869T0","A3ADQ2RLQNJQDU","36U4VBVNQOZD8NFWZXWF9CIHKRIURB","","106.1999999997206","img/food1.png","76","109.10000000009313","3","1","3","2","1,0.5,0,1,0.5,0,0.5,0,1","0.5,0,1,0.5,0,1,0,1,0.5","2","false",""
"","html-keyboard-response","206","166019","0.0-215.0","3PS7W85Z80OUQU2FWDBL2ES93869T0","A3ADQ2RLQNJQDU","36U4VBVNQOZD8NFWZXWF9CIHKRIURB","","null","<img src=""img/food1.png"" style=""width:200px; border:14px solid green;"">","null","","","","","","","","","",""
"","image-keyboard-response","207","166099","0.0-217.0","3PS7W85Z80OUQU2FWDBL2ES93869T0","A3ADQ2RLQNJQDU","36U4VBVNQOZD8NFWZXWF9CIHKRIURB","","75.90000000037253","img/food2.png","76","78.89999999990687","3","1","2","2","1,0.5,0,1,0.5,0,0.5,0,1","0.5,0,1,0.5,0,1,0,1,0.5","2","false",""
"","html-keyboard-response","208","166403","0.0-218.0","3PS7W85Z80OUQU2FWDBL2ES93869T0","A3ADQ2RLQNJQDU","36U4VBVNQOZD8NFWZXWF9CIHKRIURB","","null","<img src=""img/food2.png"" style=""width:200px; border:14px solid green;"">","null","","","","","","","","","",""
"","image-keyboard-response","209","166499","0.0-220.0","3PS7W85Z80OUQU2FWDBL2ES93869T0","A3ADQ2RLQNJQDU","36U4VBVNQOZD8NFWZXWF9CIHKRIURB","","92.29999999981374","img/food1.png","76","95.20000000018626","3","1","3","2","1,0.5,0,1,0.5,0,0.5,0,1","0.5,0,1,0.5,0,1,0,1,0.5","2","false",""
"","html-keyboard-response","210","166803","0.0-221.0","3PS7W85Z80OUQU2FWDBL2ES93869T0","A3ADQ2RLQNJQDU","36U4VBVNQOZD8NFWZXWF9CIHKRIURB","","null","<img src=""img/food1.png"" style=""width:200px; border:14px solid green;"">","null","","","","","","","","","",""
"","image-keyboard-response","211","166884","0.0-223.0","3PS7W85Z80OUQU2FWDBL2ES93869T0","A3ADQ2RLQNJQDU","36U4VBVNQOZD8NFWZXWF9CIHKRIURB","","76.3000000002794","img/food1.png","76","79.20000000018626","3","1","3","2","1,0.5,0,1,0.5,0,0.5,0,1","0.5,0,1,0.5,0,1,0,1,0.5","2","false",""
"","html-keyboard-response","212","167189","0.0-224.0","3PS7W85Z80OUQU2FWDBL2ES93869T0","A3ADQ2RLQNJQDU","36U4VBVNQOZD8NFWZXWF9CIHKRIURB","","null","<img src=""img/food1.png"" style=""width:200px; border:14px solid green;"">","null","","","","","","","","","",""
"","image-keyboard-response","213","167299","0.0-226.0","3PS7W85Z80OUQU2FWDBL2ES93869T0","A3ADQ2RLQNJQDU","36U4VBVNQOZD8NFWZXWF9CIHKRIURB","","107","img/food1.png","76","109.79999999981374","3","0","3","2","1,0.5,0,1,0.5,0,0.5,0,1","0.5,0,1,0.5,0,1,0,1,0.5","2","false",""
"","html-keyboard-response","214","167603","0.0-227.0","3PS7W85Z80OUQU2FWDBL2ES93869T0","A3ADQ2RLQNJQDU","36U4VBVNQOZD8NFWZXWF9CIHKRIURB","","null","<img src=""img/food1.png"" style=""width:200px;border:14px solid red;"">","null","","","","","","","","","",""
"","image-keyboard-response","215","168547","0.0-229.0","3PS7W85Z80OUQU2FWDBL2ES93869T0","A3ADQ2RLQNJQDU","36U4VBVNQOZD8NFWZXWF9CIHKRIURB","","940.1000000000931","img/food2.png","75","943.1000000000931","2","0","2","2","1,0.5,0,1,0.5,0,0.5,0,1","0.5,0,1,0.5,0,1,0,1,0.5","2","false",""
"","html-keyboard-response","216","168851","0.0-230.0","3PS7W85Z80OUQU2FWDBL2ES93869T0","A3ADQ2RLQNJQDU","36U4VBVNQOZD8NFWZXWF9CIHKRIURB","","null","<img src=""img/food2.png"" style=""width:200px;border:14px solid red;"">","null","","","","","","","","","",""
"","image-keyboard-response","217","168981","0.0-232.0","3PS7W85Z80OUQU2FWDBL2ES93869T0","A3ADQ2RLQNJQDU","36U4VBVNQOZD8NFWZXWF9CIHKRIURB","","124.40000000037253","img/food6.png","75","128.10000000009313","2","0","1","2","1,0.5,0,1,0.5,0,0.5,0,1","0.5,0,1,0.5,0,1,0,1,0.5","2","false",""
"","html-keyboard-response","218","169285","0.0-233.0","3PS7W85Z80OUQU2FWDBL2ES93869T0","A3ADQ2RLQNJQDU","36U4VBVNQOZD8NFWZXWF9CIHKRIURB","","null","<img src=""img/food6.png"" style=""width:200px;border:14px solid red;"">","null","","","","","","","","","",""
"","image-keyboard-response","219","169348","0.0-235.0","3PS7W85Z80OUQU2FWDBL2ES93869T0","A3ADQ2RLQNJQDU","36U4VBVNQOZD8NFWZXWF9CIHKRIURB","","58.39999999990687","img/food2.png","75","61.5","2","0","2","2","1,0.5,0,1,0.5,0,0.5,0,1","0.5,0,1,0.5,0,1,0,1,0.5","2","false",""
"","html-keyboard-response","220","169652","0.0-236.0","3PS7W85Z80OUQU2FWDBL2ES93869T0","A3ADQ2RLQNJQDU","36U4VBVNQOZD8NFWZXWF9CIHKRIURB","","null","<img src=""img/food2.png"" style=""width:200px;border:14px solid red;"">","null","","","","","","","","","",""
"","image-keyboard-response","221","169683","0.0-238.0","3PS7W85Z80OUQU2FWDBL2ES93869T0","A3ADQ2RLQNJQDU","36U4VBVNQOZD8NFWZXWF9CIHKRIURB","","28.09999999962747","img/food6.png","76","30.899999999906868","3","1","1","2","1,0.5,0,1,0.5,0,0.5,0,1","0.5,0,1,0.5,0,1,0,1,0.5","2","false",""
"","html-keyboard-response","222","169988","0.0-239.0","3PS7W85Z80OUQU2FWDBL2ES93869T0","A3ADQ2RLQNJQDU","36U4VBVNQOZD8NFWZXWF9CIHKRIURB","","null","<img src=""img/food6.png"" style=""width:200px; border:14px solid green;"">","null","","","","","","","","","",""
"","image-keyboard-response","223","170019","0.0-241.0","3PS7W85Z80OUQU2FWDBL2ES93869T0","A3ADQ2RLQNJQDU","36U4VBVNQOZD8NFWZXWF9CIHKRIURB","","27.59999999962747","img/food2.png","76","30.5","3","1","2","2","1,0.5,0,1,0.5,0,0.5,0,1","0.5,0,1,0.5,0,1,0,1,0.5","2","false",""
"","html-keyboard-response","224","170324","0.0-242.0","3PS7W85Z80OUQU2FWDBL2ES93869T0","A3ADQ2RLQNJQDU","36U4VBVNQOZD8NFWZXWF9CIHKRIURB","","null","<img src=""img/food2.png"" style=""width:200px; border:14px solid green;"">","null","","","","","","","","","",""
"","image-keyboard-response","225","170356","0.0-244.0","3PS7W85Z80OUQU2FWDBL2ES93869T0","A3ADQ2RLQNJQDU","36U4VBVNQOZD8NFWZXWF9CIHKRIURB","","28.399999999906868","img/food1.png","76","31.5","3","1","3","2","1,0.5,0,1,0.5,0,0.5,0,1","0.5,0,1,0.5,0,1,0,1,0.5","2","false",""
"","html-keyboard-response","226","170660","0.0-245.0","3PS7W85Z80OUQU2FWDBL2ES93869T0","A3ADQ2RLQNJQDU","36U4VBVNQOZD8NFWZXWF9CIHKRIURB","","null","<img src=""img/food1.png"" style=""width:200px; border:14px solid green;"">","null","","","","","","","","","",""
"","image-keyboard-response","227","170836","0.0-247.0","3PS7W85Z80OUQU2FWDBL2ES93869T0","A3ADQ2RLQNJQDU","36U4VBVNQOZD8NFWZXWF9CIHKRIURB","","171.6999999997206","img/food2.png","76","174.6999999997206","3","1","2","2","1,0.5,0,1,0.5,0,0.5,0,1","0.5,0,1,0.5,0,1,0,1,0.5","2","false",""
"","html-keyboard-response","228","171141","0.0-248.0","3PS7W85Z80OUQU2FWDBL2ES93869T0","A3ADQ2RLQNJQDU","36U4VBVNQOZD8NFWZXWF9CIHKRIURB","","null","<img src=""img/food2.png"" style=""width:200px; border:14px solid green;"">","null","","","","","","","","","",""
"","image-keyboard-response","229","171252","0.0-250.0","3PS7W85Z80OUQU2FWDBL2ES93869T0","A3ADQ2RLQNJQDU","36U4VBVNQOZD8NFWZXWF9CIHKRIURB","","107.20000000018626","img/food6.png","76","110.5","3","1","1","2","1,0.5,0,1,0.5,0,0.5,0,1","0.5,0,1,0.5,0,1,0,1,0.5","2","false",""
"","html-keyboard-response","230","171557","0.0-251.0","3PS7W85Z80OUQU2FWDBL2ES93869T0","A3ADQ2RLQNJQDU","36U4VBVNQOZD8NFWZXWF9CIHKRIURB","","null","<img src=""img/food6.png"" style=""width:200px; border:14px solid green;"">","null","","","","","","","","","",""
"","image-keyboard-response","231","171652","0.0-253.0","3PS7W85Z80OUQU2FWDBL2ES93869T0","A3ADQ2RLQNJQDU","36U4VBVNQOZD8NFWZXWF9CIHKRIURB","","91","img/food1.png","74","93.8000000002794","1","0","3","2","1,0.5,0,1,0.5,0,0.5,0,1","0.5,0,1,0.5,0,1,0,1,0.5","2","false",""
"","html-keyboard-response","232","171956","0.0-254.0","3PS7W85Z80OUQU2FWDBL2ES93869T0","A3ADQ2RLQNJQDU","36U4VBVNQOZD8NFWZXWF9CIHKRIURB","","null","<img src=""img/food1.png"" style=""width:200px;border:14px solid red;"">","null","","","","","","","","","",""
"","image-keyboard-response","233","171972","0.0-256.0","3PS7W85Z80OUQU2FWDBL2ES93869T0","A3ADQ2RLQNJQDU","36U4VBVNQOZD8NFWZXWF9CIHKRIURB","","11.800000000279397","img/food2.png","74","15.100000000093132","1","0","2","2","1,0.5,0,1,0.5,0,0.5,0,1","0.5,0,1,0.5,0,1,0,1,0.5","2","false",""
"","html-keyboard-response","234","172276","0.0-257.0","3PS7W85Z80OUQU2FWDBL2ES93869T0","A3ADQ2RLQNJQDU","36U4VBVNQOZD8NFWZXWF9CIHKRIURB","","null","<img src=""img/food2.png"" style=""width:200px;border:14px solid red;"">","null","","","","","","","","","",""
"","image-keyboard-response","235","172548","0.0-259.0","3PS7W85Z80OUQU2FWDBL2ES93869T0","A3ADQ2RLQNJQDU","36U4VBVNQOZD8NFWZXWF9CIHKRIURB","","267.89999999990687","img/food1.png","76","273.40000000037253","3","1","3","2","1,0.5,0,1,0.5,0,0.5,0,1","0.5,0,1,0.5,0,1,0,1,0.5","2","false",""
"","html-keyboard-response","236","172855","0.0-260.0","3PS7W85Z80OUQU2FWDBL2ES93869T0","A3ADQ2RLQNJQDU","36U4VBVNQOZD8NFWZXWF9CIHKRIURB","","null","<img src=""img/food1.png"" style=""width:200px; border:14px solid green;"">","null","","","","","","","","","",""
"","image-keyboard-response","237","173029","0.0-262.0","3PS7W85Z80OUQU2FWDBL2ES93869T0","A3ADQ2RLQNJQDU","36U4VBVNQOZD8NFWZXWF9CIHKRIURB","","169.79999999981374","img/food1.png","76","172.6999999997206","3","0","3","2","1,0.5,0,1,0.5,0,0.5,0,1","0.5,0,1,0.5,0,1,0,1,0.5","2","false",""
"","html-keyboard-response","238","173333","0.0-263.0","3PS7W85Z80OUQU2FWDBL2ES93869T0","A3ADQ2RLQNJQDU","36U4VBVNQOZD8NFWZXWF9CIHKRIURB","","null","<img src=""img/food1.png"" style=""width:200px;border:14px solid red;"">","null","","","","","","","","","",""
"","image-keyboard-response","239","173716","0.0-265.0","3PS7W85Z80OUQU2FWDBL2ES93869T0","A3ADQ2RLQNJQDU","36U4VBVNQOZD8NFWZXWF9CIHKRIURB","","378.10000000009313","img/food1.png","75","381","2","1","3","2","1,0.5,0,1,0.5,0,0.5,0,1","0.5,0,1,0.5,0,1,0,1,0.5","2","false",""
"","html-keyboard-response","240","174021","0.0-266.0","3PS7W85Z80OUQU2FWDBL2ES93869T0","A3ADQ2RLQNJQDU","36U4VBVNQOZD8NFWZXWF9CIHKRIURB","","null","<img src=""img/food1.png"" style=""width:200px; border:14px solid green;"">","null","","","","","","","","","",""
"","image-keyboard-response","241","174180","0.0-268.0","3PS7W85Z80OUQU2FWDBL2ES93869T0","A3ADQ2RLQNJQDU","36U4VBVNQOZD8NFWZXWF9CIHKRIURB","","155","img/food2.png","75","158.3000000002794","2","0","2","2","1,0.5,0,1,0.5,0,0.5,0,1","0.5,0,1,0.5,0,1,0,1,0.5","2","false",""
"","html-keyboard-response","242","174484","0.0-269.0","3PS7W85Z80OUQU2FWDBL2ES93869T0","A3ADQ2RLQNJQDU","36U4VBVNQOZD8NFWZXWF9CIHKRIURB","","null","<img src=""img/food2.png"" style=""width:200px;border:14px solid red;"">","null","","","","","","","","","",""
"","image-keyboard-response","243","174740","0.0-271.0","3PS7W85Z80OUQU2FWDBL2ES93869T0","A3ADQ2RLQNJQDU","36U4VBVNQOZD8NFWZXWF9CIHKRIURB","","251.5","img/food6.png","76","254.39999999990687","3","1","1","2","1,0.5,0,1,0.5,0,0.5,0,1","0.5,0,1,0.5,0,1,0,1,0.5","2","false",""
"","html-keyboard-response","244","175043","0.0-272.0","3PS7W85Z80OUQU2FWDBL2ES93869T0","A3ADQ2RLQNJQDU","36U4VBVNQOZD8NFWZXWF9CIHKRIURB","","null","<img src=""img/food6.png"" style=""width:200px; border:14px solid green;"">","null","","","","","","","","","",""
"","image-keyboard-response","245","175236","0.0-274.0","3PS7W85Z80OUQU2FWDBL2ES93869T0","A3ADQ2RLQNJQDU","36U4VBVNQOZD8NFWZXWF9CIHKRIURB","","188.60000000009313","img/food2.png","76","191.5","3","1","2","2","1,0.5,0,1,0.5,0,0.5,0,1","0.5,0,1,0.5,0,1,0,1,0.5","2","false",""
"","html-keyboard-response","246","175541","0.0-275.0","3PS7W85Z80OUQU2FWDBL2ES93869T0","A3ADQ2RLQNJQDU","36U4VBVNQOZD8NFWZXWF9CIHKRIURB","","null","<img src=""img/food2.png"" style=""width:200px; border:14px solid green;"">","null","","","","","","","","","",""
"","image-keyboard-response","247","175700","0.0-277.0","3PS7W85Z80OUQU2FWDBL2ES93869T0","A3ADQ2RLQNJQDU","36U4VBVNQOZD8NFWZXWF9CIHKRIURB","","155","img/food2.png","76","158.39999999990687","3","1","2","2","1,0.5,0,1,0.5,0,0.5,0,1","0.5,0,1,0.5,0,1,0,1,0.5","2","false",""
"","html-keyboard-response","248","176005","0.0-278.0","3PS7W85Z80OUQU2FWDBL2ES93869T0","A3ADQ2RLQNJQDU","36U4VBVNQOZD8NFWZXWF9CIHKRIURB","","null","<img src=""img/food2.png"" style=""width:200px; border:14px solid green;"">","null","","","","","","","","","",""
"","image-keyboard-response","249","176100","0.0-280.0","3PS7W85Z80OUQU2FWDBL2ES93869T0","A3ADQ2RLQNJQDU","36U4VBVNQOZD8NFWZXWF9CIHKRIURB","","91.89999999990687","img/food2.png","76","94.89999999990687","3","1","2","2","1,0.5,0,1,0.5,0,0.5,0,1","0.5,0,1,0.5,0,1,0,1,0.5","2","false",""
"","html-keyboard-response","250","176405","0.0-281.0","3PS7W85Z80OUQU2FWDBL2ES93869T0","A3ADQ2RLQNJQDU","36U4VBVNQOZD8NFWZXWF9CIHKRIURB","","null","<img src=""img/food2.png"" style=""width:200px; border:14px solid green;"">","null","","","","","","","","","",""
"","image-keyboard-response","251","176501","0.0-283.0","3PS7W85Z80OUQU2FWDBL2ES93869T0","A3ADQ2RLQNJQDU","36U4VBVNQOZD8NFWZXWF9CIHKRIURB","","91.8000000002794","img/food1.png","76","95.10000000009313","3","1","3","2","1,0.5,0,1,0.5,0,0.5,0,1","0.5,0,1,0.5,0,1,0,1,0.5","2","false",""
"","html-keyboard-response","252","176805","0.0-284.0","3PS7W85Z80OUQU2FWDBL2ES93869T0","A3ADQ2RLQNJQDU","36U4VBVNQOZD8NFWZXWF9CIHKRIURB","","null","<img src=""img/food1.png"" style=""width:200px; border:14px solid green;"">","null","","","","","","","","","",""
"","image-keyboard-response","253","176996","0.0-286.0","3PS7W85Z80OUQU2FWDBL2ES93869T0","A3ADQ2RLQNJQDU","36U4VBVNQOZD8NFWZXWF9CIHKRIURB","","186.39999999990687","img/food2.png","76","189.29999999981374","3","1","2","2","1,0.5,0,1,0.5,0,0.5,0,1","0.5,0,1,0.5,0,1,0,1,0.5","2","false",""
"","html-keyboard-response","254","177300","0.0-287.0","3PS7W85Z80OUQU2FWDBL2ES93869T0","A3ADQ2RLQNJQDU","36U4VBVNQOZD8NFWZXWF9CIHKRIURB","","null","<img src=""img/food2.png"" style=""width:200px; border:14px solid green;"">","null","","","","","","","","","",""
"","image-keyboard-response","255","177413","0.0-289.0","3PS7W85Z80OUQU2FWDBL2ES93869T0","A3ADQ2RLQNJQDU","36U4VBVNQOZD8NFWZXWF9CIHKRIURB","","108.29999999981374","img/food2.png","76","111.5","3","1","2","2","1,0.5,0,1,0.5,0,0.5,0,1","0.5,0,1,0.5,0,1,0,1,0.5","2","false",""
"","html-keyboard-response","256","177717","0.0-290.0","3PS7W85Z80OUQU2FWDBL2ES93869T0","A3ADQ2RLQNJQDU","36U4VBVNQOZD8NFWZXWF9CIHKRIURB","","null","<img src=""img/food2.png"" style=""width:200px; border:14px solid green;"">","null","","","","","","","","","",""
"","image-keyboard-response","257","177796","0.0-292.0","3PS7W85Z80OUQU2FWDBL2ES93869T0","A3ADQ2RLQNJQDU","36U4VBVNQOZD8NFWZXWF9CIHKRIURB","","74.39999999990687","img/food2.png","76","77.39999999990687","3","1","2","2","1,0.5,0,1,0.5,0,0.5,0,1","0.5,0,1,0.5,0,1,0,1,0.5","2","false",""
"","html-keyboard-response","258","178101","0.0-293.0","3PS7W85Z80OUQU2FWDBL2ES93869T0","A3ADQ2RLQNJQDU","36U4VBVNQOZD8NFWZXWF9CIHKRIURB","","null","<img src=""img/food2.png"" style=""width:200px; border:14px solid green;"">","null","","","","","","","","","",""
"","image-keyboard-response","259","178228","0.0-295.0","3PS7W85Z80OUQU2FWDBL2ES93869T0","A3ADQ2RLQNJQDU","36U4VBVNQOZD8NFWZXWF9CIHKRIURB","","122.8000000002794","img/food1.png","76","125.90000000037253","3","1","3","2","1,0.5,0,1,0.5,0,0.5,0,1","0.5,0,1,0.5,0,1,0,1,0.5","2","false",""
"","html-keyboard-response","260","178533","0.0-296.0","3PS7W85Z80OUQU2FWDBL2ES93869T0","A3ADQ2RLQNJQDU","36U4VBVNQOZD8NFWZXWF9CIHKRIURB","","null","<img src=""img/food1.png"" style=""width:200px; border:14px solid green;"">","null","","","","","","","","","",""
"","image-keyboard-response","261","178644","0.0-298.0","3PS7W85Z80OUQU2FWDBL2ES93869T0","A3ADQ2RLQNJQDU","36U4VBVNQOZD8NFWZXWF9CIHKRIURB","","107.10000000009313","img/food1.png","75","110.29999999981374","2","1","3","2","1,0.5,0,1,0.5,0,0.5,0,1","0.5,0,1,0.5,0,1,0,1,0.5","2","false",""
"","html-keyboard-response","262","178948","0.0-299.0","3PS7W85Z80OUQU2FWDBL2ES93869T0","A3ADQ2RLQNJQDU","36U4VBVNQOZD8NFWZXWF9CIHKRIURB","","null","<img src=""img/food1.png"" style=""width:200px; border:14px solid green;"">","null","","","","","","","","","",""
"","image-keyboard-response","263","178963","0.0-301.0","3PS7W85Z80OUQU2FWDBL2ES93869T0","A3ADQ2RLQNJQDU","36U4VBVNQOZD8NFWZXWF9CIHKRIURB","","10.900000000372529","img/food6.png","75","13.800000000279397","2","0","1","2","1,0.5,0,1,0.5,0,0.5,0,1","0.5,0,1,0.5,0,1,0,1,0.5","2","false",""
"","html-keyboard-response","264","179267","0.0-302.0","3PS7W85Z80OUQU2FWDBL2ES93869T0","A3ADQ2RLQNJQDU","36U4VBVNQOZD8NFWZXWF9CIHKRIURB","","null","<img src=""img/food6.png"" style=""width:200px;border:14px solid red;"">","null","","","","","","","","","",""
"","image-keyboard-response","265","179476","0.0-304.0","3PS7W85Z80OUQU2FWDBL2ES93869T0","A3ADQ2RLQNJQDU","36U4VBVNQOZD8NFWZXWF9CIHKRIURB","","204","img/food1.png","75","207","2","1","3","2","1,0.5,0,1,0.5,0,0.5,0,1","0.5,0,1,0.5,0,1,0,1,0.5","2","false",""
"","html-keyboard-response","266","179779","0.0-305.0","3PS7W85Z80OUQU2FWDBL2ES93869T0","A3ADQ2RLQNJQDU","36U4VBVNQOZD8NFWZXWF9CIHKRIURB","","null","<img src=""img/food1.png"" style=""width:200px; border:14px solid green;"">","null","","","","","","","","","",""
"","image-keyboard-response","267","179796","0.0-307.0","3PS7W85Z80OUQU2FWDBL2ES93869T0","A3ADQ2RLQNJQDU","36U4VBVNQOZD8NFWZXWF9CIHKRIURB","","12.5","img/food2.png","76","15.700000000186265","3","1","2","2","1,0.5,0,1,0.5,0,0.5,0,1","0.5,0,1,0.5,0,1,0,1,0.5","2","false",""
"","html-keyboard-response","268","180101","0.0-308.0","3PS7W85Z80OUQU2FWDBL2ES93869T0","A3ADQ2RLQNJQDU","36U4VBVNQOZD8NFWZXWF9CIHKRIURB","","null","<img src=""img/food2.png"" style=""width:200px; border:14px solid green;"">","null","","","","","","","","","",""
"","image-keyboard-response","269","180261","0.0-310.0","3PS7W85Z80OUQU2FWDBL2ES93869T0","A3ADQ2RLQNJQDU","36U4VBVNQOZD8NFWZXWF9CIHKRIURB","","155.60000000009313","img/food1.png","76","158.70000000018626","3","0","3","2","1,0.5,0,1,0.5,0,0.5,0,1","0.5,0,1,0.5,0,1,0,1,0.5","2","false",""
"","html-keyboard-response","270","180566","0.0-311.0","3PS7W85Z80OUQU2FWDBL2ES93869T0","A3ADQ2RLQNJQDU","36U4VBVNQOZD8NFWZXWF9CIHKRIURB","","null","<img src=""img/food1.png"" style=""width:200px;border:14px solid red;"">","null","","","","","","","","","",""
"","image-keyboard-response","271","180644","0.0-313.0","3PS7W85Z80OUQU2FWDBL2ES93869T0","A3ADQ2RLQNJQDU","36U4VBVNQOZD8NFWZXWF9CIHKRIURB","","73.70000000018626","img/food1.png","76","76.8000000002794","3","0","3","2","1,0.5,0,1,0.5,0,0.5,0,1","0.5,0,1,0.5,0,1,0,1,0.5","2","false",""
"","html-keyboard-response","272","180947","0.0-314.0","3PS7W85Z80OUQU2FWDBL2ES93869T0","A3ADQ2RLQNJQDU","36U4VBVNQOZD8NFWZXWF9CIHKRIURB","","null","<img src=""img/food1.png"" style=""width:200px;border:14px solid red;"">","null","","","","","","","","","",""
"","image-keyboard-response","273","181156","0.0-316.0","3PS7W85Z80OUQU2FWDBL2ES93869T0","A3ADQ2RLQNJQDU","36U4VBVNQOZD8NFWZXWF9CIHKRIURB","","204.70000000018626","img/food6.png","75","207.8000000002794","2","0","1","2","1,0.5,0,1,0.5,0,0.5,0,1","0.5,0,1,0.5,0,1,0,1,0.5","2","false",""
"","html-keyboard-response","274","181461","0.0-317.0","3PS7W85Z80OUQU2FWDBL2ES93869T0","A3ADQ2RLQNJQDU","36U4VBVNQOZD8NFWZXWF9CIHKRIURB","","null","<img src=""img/food6.png"" style=""width:200px;border:14px solid red;"">","null","","","","","","","","","",""
"","image-keyboard-response","275","181524","0.0-319.0","3PS7W85Z80OUQU2FWDBL2ES93869T0","A3ADQ2RLQNJQDU","36U4VBVNQOZD8NFWZXWF9CIHKRIURB","","58.89999999990687","img/food2.png","75","61.89999999990687","2","0","2","2","1,0.5,0,1,0.5,0,0.5,0,1","0.5,0,1,0.5,0,1,0,1,0.5","2","false",""
"","html-keyboard-response","276","181828","0.0-320.0","3PS7W85Z80OUQU2FWDBL2ES93869T0","A3ADQ2RLQNJQDU","36U4VBVNQOZD8NFWZXWF9CIHKRIURB","","null","<img src=""img/food2.png"" style=""width:200px;border:14px solid red;"">","null","","","","","","","","","",""
"","image-keyboard-response","277","182004","0.0-322.0","3PS7W85Z80OUQU2FWDBL2ES93869T0","A3ADQ2RLQNJQDU","36U4VBVNQOZD8NFWZXWF9CIHKRIURB","","171.39999999990687","img/food2.png","75","174.1999999997206","2","0","2","2","1,0.5,0,1,0.5,0,0.5,0,1","0.5,0,1,0.5,0,1,0,1,0.5","2","false",""
"","html-keyboard-response","278","182307","0.0-323.0","3PS7W85Z80OUQU2FWDBL2ES93869T0","A3ADQ2RLQNJQDU","36U4VBVNQOZD8NFWZXWF9CIHKRIURB","","null","<img src=""img/food2.png"" style=""width:200px;border:14px solid red;"">","null","","","","","","","","","",""
"","image-keyboard-response","279","182311","0.0-325.0","3PS7W85Z80OUQU2FWDBL2ES93869T0","A3ADQ2RLQNJQDU","36U4VBVNQOZD8NFWZXWF9CIHKRIURB","","0.39999999990686774","img/food6.png","76","2.6000000000931323","3","1","1","2","1,0.5,0,1,0.5,0,0.5,0,1","0.5,0,1,0.5,0,1,0,1,0.5","2","false",""
"","html-keyboard-response","280","182614","0.0-326.0","3PS7W85Z80OUQU2FWDBL2ES93869T0","A3ADQ2RLQNJQDU","36U4VBVNQOZD8NFWZXWF9CIHKRIURB","","null","<img src=""img/food6.png"" style=""width:200px; border:14px solid green;"">","null","","","","","","","","","",""
"","image-keyboard-response","281","182836","0.0-328.0","3PS7W85Z80OUQU2FWDBL2ES93869T0","A3ADQ2RLQNJQDU","36U4VBVNQOZD8NFWZXWF9CIHKRIURB","","216.5","img/food1.png","74","219.89999999990687","1","0","3","2","1,0.5,0,1,0.5,0,0.5,0,1","0.5,0,1,0.5,0,1,0,1,0.5","2","false",""
"","html-keyboard-response","282","183140","0.0-329.0","3PS7W85Z80OUQU2FWDBL2ES93869T0","A3ADQ2RLQNJQDU","36U4VBVNQOZD8NFWZXWF9CIHKRIURB","","null","<img src=""img/food1.png"" style=""width:200px;border:14px solid red;"">","null","","","","","","","","","",""
"","image-keyboard-response","283","183349","0.0-331.0","3PS7W85Z80OUQU2FWDBL2ES93869T0","A3ADQ2RLQNJQDU","36U4VBVNQOZD8NFWZXWF9CIHKRIURB","","204.79999999981374","img/food1.png","76","207.8000000002794","3","0","3","2","1,0.5,0,1,0.5,0,0.5,0,1","0.5,0,1,0.5,0,1,0,1,0.5","2","false",""
"","html-keyboard-response","284","183654","0.0-332.0","3PS7W85Z80OUQU2FWDBL2ES93869T0","A3ADQ2RLQNJQDU","36U4VBVNQOZD8NFWZXWF9CIHKRIURB","","null","<img src=""img/food1.png"" style=""width:200px;border:14px solid red;"">","null","","","","","","","","","",""
"","image-keyboard-response","285","183796","0.0-334.0","3PS7W85Z80OUQU2FWDBL2ES93869T0","A3ADQ2RLQNJQDU","36U4VBVNQOZD8NFWZXWF9CIHKRIURB","","138.3000000002794","img/food2.png","76","141.5","3","1","2","2","1,0.5,0,1,0.5,0,0.5,0,1","0.5,0,1,0.5,0,1,0,1,0.5","2","false",""
"","html-keyboard-response","286","184101","0.0-335.0","3PS7W85Z80OUQU2FWDBL2ES93869T0","A3ADQ2RLQNJQDU","36U4VBVNQOZD8NFWZXWF9CIHKRIURB","","null","<img src=""img/food2.png"" style=""width:200px; border:14px solid green;"">","null","","","","","","","","","",""
"","image-keyboard-response","287","184148","0.0-337.0","3PS7W85Z80OUQU2FWDBL2ES93869T0","A3ADQ2RLQNJQDU","36U4VBVNQOZD8NFWZXWF9CIHKRIURB","","43.8000000002794","img/food2.png","76","46.89999999990687","3","1","2","2","1,0.5,0,1,0.5,0,0.5,0,1","0.5,0,1,0.5,0,1,0,1,0.5","2","false",""
"","html-keyboard-response","288","184454","0.0-338.0","3PS7W85Z80OUQU2FWDBL2ES93869T0","A3ADQ2RLQNJQDU","36U4VBVNQOZD8NFWZXWF9CIHKRIURB","","null","<img src=""img/food2.png"" style=""width:200px; border:14px solid green;"">","null","","","","","","","","","",""
"","image-keyboard-response","289","184581","0.0-340.0","3PS7W85Z80OUQU2FWDBL2ES93869T0","A3ADQ2RLQNJQDU","36U4VBVNQOZD8NFWZXWF9CIHKRIURB","","122.1999999997206","img/food6.png","76","125.89999999990687","3","1","1","2","1,0.5,0,1,0.5,0,0.5,0,1","0.5,0,1,0.5,0,1,0,1,0.5","2","false",""
"","html-keyboard-response","290","184887","0.0-341.0","3PS7W85Z80OUQU2FWDBL2ES93869T0","A3ADQ2RLQNJQDU","36U4VBVNQOZD8NFWZXWF9CIHKRIURB","","null","<img src=""img/food6.png"" style=""width:200px; border:14px solid green;"">","null","","","","","","","","","",""
"","image-keyboard-response","291","184964","0.0-343.0","3PS7W85Z80OUQU2FWDBL2ES93869T0","A3ADQ2RLQNJQDU","36U4VBVNQOZD8NFWZXWF9CIHKRIURB","","73.20000000018626","img/food6.png","76","76.5","3","1","1","2","1,0.5,0,1,0.5,0,0.5,0,1","0.5,0,1,0.5,0,1,0,1,0.5","2","false",""
"","html-keyboard-response","292","185269","0.0-344.0","3PS7W85Z80OUQU2FWDBL2ES93869T0","A3ADQ2RLQNJQDU","36U4VBVNQOZD8NFWZXWF9CIHKRIURB","","null","<img src=""img/food6.png"" style=""width:200px; border:14px solid green;"">","null","","","","","","","","","",""
"","image-keyboard-response","293","185364","0.0-346.0","3PS7W85Z80OUQU2FWDBL2ES93869T0","A3ADQ2RLQNJQDU","36U4VBVNQOZD8NFWZXWF9CIHKRIURB","","90.70000000018626","img/food1.png","76","93.89999999990687","3","0","3","2","1,0.5,0,1,0.5,0,0.5,0,1","0.5,0,1,0.5,0,1,0,1,0.5","2","false",""
"","html-keyboard-response","294","185669","0.0-347.0","3PS7W85Z80OUQU2FWDBL2ES93869T0","A3ADQ2RLQNJQDU","36U4VBVNQOZD8NFWZXWF9CIHKRIURB","","null","<img src=""img/food1.png"" style=""width:200px;border:14px solid red;"">","null","","","","","","","","","",""
"","image-keyboard-response","295","185844","0.0-349.0","3PS7W85Z80OUQU2FWDBL2ES93869T0","A3ADQ2RLQNJQDU","36U4VBVNQOZD8NFWZXWF9CIHKRIURB","","170.1999999997206","img/food6.png","76","173.60000000009313","3","1","1","2","1,0.5,0,1,0.5,0,0.5,0,1","0.5,0,1,0.5,0,1,0,1,0.5","2","false",""
"","html-keyboard-response","296","186148","0.0-350.0","3PS7W85Z80OUQU2FWDBL2ES93869T0","A3ADQ2RLQNJQDU","36U4VBVNQOZD8NFWZXWF9CIHKRIURB","","null","<img src=""img/food6.png"" style=""width:200px; border:14px solid green;"">","null","","","","","","","","","",""
"","image-keyboard-response","297","186627","0.0-352.0","3PS7W85Z80OUQU2FWDBL2ES93869T0","A3ADQ2RLQNJQDU","36U4VBVNQOZD8NFWZXWF9CIHKRIURB","","475","img/food1.png","76","477.6999999997206","3","1","3","2","1,0.5,0,1,0.5,0,0.5,0,1","0.5,0,1,0.5,0,1,0,1,0.5","2","false",""
"","html-keyboard-response","298","186931","0.0-353.0","3PS7W85Z80OUQU2FWDBL2ES93869T0","A3ADQ2RLQNJQDU","36U4VBVNQOZD8NFWZXWF9CIHKRIURB","","null","<img src=""img/food1.png"" style=""width:200px; border:14px solid green;"">","null","","","","","","","","","",""
"","image-keyboard-response","299","186964","0.0-355.0","3PS7W85Z80OUQU2FWDBL2ES93869T0","A3ADQ2RLQNJQDU","36U4VBVNQOZD8NFWZXWF9CIHKRIURB","","26","img/food6.png","76","29.300000000279397","3","1","1","2","1,0.5,0,1,0.5,0,0.5,0,1","0.5,0,1,0.5,0,1,0,1,0.5","2","false",""
"","html-keyboard-response","300","187268","0.0-356.0","3PS7W85Z80OUQU2FWDBL2ES93869T0","A3ADQ2RLQNJQDU","36U4VBVNQOZD8NFWZXWF9CIHKRIURB","","null","<img src=""img/food6.png"" style=""width:200px; border:14px solid green;"">","null","","","","","","","","","",""
"","image-keyboard-response","301","187492","0.0-358.0","3PS7W85Z80OUQU2FWDBL2ES93869T0","A3ADQ2RLQNJQDU","36U4VBVNQOZD8NFWZXWF9CIHKRIURB","","220.3000000002794","img/food2.png","75","223","2","0","2","2","1,0.5,0,1,0.5,0,0.5,0,1","0.5,0,1,0.5,0,1,0,1,0.5","2","false",""
"","html-keyboard-response","302","187797","0.0-359.0","3PS7W85Z80OUQU2FWDBL2ES93869T0","A3ADQ2RLQNJQDU","36U4VBVNQOZD8NFWZXWF9CIHKRIURB","","null","<img src=""img/food2.png"" style=""width:200px;border:14px solid red;"">","null","","","","","","","","","",""
"","image-keyboard-response","303","187923","0.0-361.0","3PS7W85Z80OUQU2FWDBL2ES93869T0","A3ADQ2RLQNJQDU","36U4VBVNQOZD8NFWZXWF9CIHKRIURB","","122.3000000002794","img/food2.png","75","125.39999999990687","2","0","2","2","1,0.5,0,1,0.5,0,0.5,0,1","0.5,0,1,0.5,0,1,0,1,0.5","2","false",""
"","html-keyboard-response","304","188227","0.0-362.0","3PS7W85Z80OUQU2FWDBL2ES93869T0","A3ADQ2RLQNJQDU","36U4VBVNQOZD8NFWZXWF9CIHKRIURB","","null","<img src=""img/food2.png"" style=""width:200px;border:14px solid red;"">","null","","","","","","","","","",""
"","image-keyboard-response","305","188372","0.0-364.0","3PS7W85Z80OUQU2FWDBL2ES93869T0","A3ADQ2RLQNJQDU","36U4VBVNQOZD8NFWZXWF9CIHKRIURB","","140.6999999997206","img/food2.png","75","143.79999999981374","2","0","2","2","1,0.5,0,1,0.5,0,0.5,0,1","0.5,0,1,0.5,0,1,0,1,0.5","2","false",""
"","html-keyboard-response","306","188677","0.0-365.0","3PS7W85Z80OUQU2FWDBL2ES93869T0","A3ADQ2RLQNJQDU","36U4VBVNQOZD8NFWZXWF9CIHKRIURB","","null","<img src=""img/food2.png"" style=""width:200px;border:14px solid red;"">","null","","","","","","","","","",""
"","image-keyboard-response","307","188804","0.0-367.0","3PS7W85Z80OUQU2FWDBL2ES93869T0","A3ADQ2RLQNJQDU","36U4VBVNQOZD8NFWZXWF9CIHKRIURB","","122.89999999990687","img/food6.png","75","126.5","2","0","1","2","1,0.5,0,1,0.5,0,0.5,0,1","0.5,0,1,0.5,0,1,0,1,0.5","2","false",""
"","html-keyboard-response","308","189109","0.0-368.0","3PS7W85Z80OUQU2FWDBL2ES93869T0","A3ADQ2RLQNJQDU","36U4VBVNQOZD8NFWZXWF9CIHKRIURB","","null","<img src=""img/food6.png"" style=""width:200px;border:14px solid red;"">","null","","","","","","","","","",""
"","image-keyboard-response","309","189188","0.0-370.0","3PS7W85Z80OUQU2FWDBL2ES93869T0","A3ADQ2RLQNJQDU","36U4VBVNQOZD8NFWZXWF9CIHKRIURB","","74.59999999962747","img/food2.png","75","77.89999999990687","2","0","2","2","1,0.5,0,1,0.5,0,0.5,0,1","0.5,0,1,0.5,0,1,0,1,0.5","2","false",""
"","html-keyboard-response","310","189493","0.0-371.0","3PS7W85Z80OUQU2FWDBL2ES93869T0","A3ADQ2RLQNJQDU","36U4VBVNQOZD8NFWZXWF9CIHKRIURB","","null","<img src=""img/food2.png"" style=""width:200px;border:14px solid red;"">","null","","","","","","","","","",""
"","image-keyboard-response","311","189907","0.0-373.0","3PS7W85Z80OUQU2FWDBL2ES93869T0","A3ADQ2RLQNJQDU","36U4VBVNQOZD8NFWZXWF9CIHKRIURB","","410.29999999981374","img/food2.png","76","413.29999999981374","3","1","2","2","1,0.5,0,1,0.5,0,0.5,0,1","0.5,0,1,0.5,0,1,0,1,0.5","2","false",""
"","html-keyboard-response","312","190211","0.0-374.0","3PS7W85Z80OUQU2FWDBL2ES93869T0","A3ADQ2RLQNJQDU","36U4VBVNQOZD8NFWZXWF9CIHKRIURB","","null","<img src=""img/food2.png"" style=""width:200px; border:14px solid green;"">","null","","","","","","","","","",""
"","image-keyboard-response","313","190276","0.0-376.0","3PS7W85Z80OUQU2FWDBL2ES93869T0","A3ADQ2RLQNJQDU","36U4VBVNQOZD8NFWZXWF9CIHKRIURB","","60.60000000009313","img/food6.png","76","63.60000000009313","3","1","1","2","1,0.5,0,1,0.5,0,0.5,0,1","0.5,0,1,0.5,0,1,0,1,0.5","2","false",""
"","html-keyboard-response","314","190580","0.0-377.0","3PS7W85Z80OUQU2FWDBL2ES93869T0","A3ADQ2RLQNJQDU","36U4VBVNQOZD8NFWZXWF9CIHKRIURB","","null","<img src=""img/food6.png"" style=""width:200px; border:14px solid green;"">","null","","","","","","","","","",""
"","image-keyboard-response","315","190612","0.0-379.0","3PS7W85Z80OUQU2FWDBL2ES93869T0","A3ADQ2RLQNJQDU","36U4VBVNQOZD8NFWZXWF9CIHKRIURB","","27.100000000093132","img/food1.png","76","30.200000000186265","3","0","3","2","1,0.5,0,1,0.5,0,0.5,0,1","0.5,0,1,0.5,0,1,0,1,0.5","2","false",""
"","html-keyboard-response","316","190916","0.0-380.0","3PS7W85Z80OUQU2FWDBL2ES93869T0","A3ADQ2RLQNJQDU","36U4VBVNQOZD8NFWZXWF9CIHKRIURB","","null","<img src=""img/food1.png"" style=""width:200px;border:14px solid red;"">","null","","","","","","","","","",""
"","image-keyboard-response","317","190980","0.0-382.0","3PS7W85Z80OUQU2FWDBL2ES93869T0","A3ADQ2RLQNJQDU","36U4VBVNQOZD8NFWZXWF9CIHKRIURB","","59.6999999997206","img/food1.png","76","62.799999999813735","3","0","3","2","1,0.5,0,1,0.5,0,0.5,0,1","0.5,0,1,0.5,0,1,0,1,0.5","2","false",""
"","html-keyboard-response","318","191285","0.0-383.0","3PS7W85Z80OUQU2FWDBL2ES93869T0","A3ADQ2RLQNJQDU","36U4VBVNQOZD8NFWZXWF9CIHKRIURB","","null","<img src=""img/food1.png"" style=""width:200px;border:14px solid red;"">","null","","","","","","","","","",""
"","image-keyboard-response","319","191348","0.0-385.0","3PS7W85Z80OUQU2FWDBL2ES93869T0","A3ADQ2RLQNJQDU","36U4VBVNQOZD8NFWZXWF9CIHKRIURB","","59","img/food1.png","76","62.1999999997206","3","1","3","2","1,0.5,0,1,0.5,0,0.5,0,1","0.5,0,1,0.5,0,1,0,1,0.5","2","false",""
"","html-keyboard-response","320","191652","0.0-386.0","3PS7W85Z80OUQU2FWDBL2ES93869T0","A3ADQ2RLQNJQDU","36U4VBVNQOZD8NFWZXWF9CIHKRIURB","","null","<img src=""img/food1.png"" style=""width:200px; border:14px solid green;"">","null","","","","","","","","","",""
"","image-keyboard-response","321","192004","0.0-388.0","3PS7W85Z80OUQU2FWDBL2ES93869T0","A3ADQ2RLQNJQDU","36U4VBVNQOZD8NFWZXWF9CIHKRIURB","","348.79999999981374","img/food1.png","74","351.20000000018626","1","0","3","2","1,0.5,0,1,0.5,0,0.5,0,1","0.5,0,1,0.5,0,1,0,1,0.5","2","false",""
"","html-keyboard-response","322","192308","0.0-389.0","3PS7W85Z80OUQU2FWDBL2ES93869T0","A3ADQ2RLQNJQDU","36U4VBVNQOZD8NFWZXWF9CIHKRIURB","","null","<img src=""img/food1.png"" style=""width:200px;border:14px solid red;"">","null","","","","","","","","","",""
"","image-keyboard-response","323","192468","0.0-391.0","3PS7W85Z80OUQU2FWDBL2ES93869T0","A3ADQ2RLQNJQDU","36U4VBVNQOZD8NFWZXWF9CIHKRIURB","","156","img/food1.png","74","159.20000000018626","1","0","3","2","1,0.5,0,1,0.5,0,0.5,0,1","0.5,0,1,0.5,0,1,0,1,0.5","2","false",""
"","html-keyboard-response","324","192772","0.0-392.0","3PS7W85Z80OUQU2FWDBL2ES93869T0","A3ADQ2RLQNJQDU","36U4VBVNQOZD8NFWZXWF9CIHKRIURB","","null","<img src=""img/food1.png"" style=""width:200px;border:14px solid red;"">","null","","","","","","","","","",""
"","image-keyboard-response","325","192901","0.0-394.0","3PS7W85Z80OUQU2FWDBL2ES93869T0","A3ADQ2RLQNJQDU","36U4VBVNQOZD8NFWZXWF9CIHKRIURB","","124","img/food6.png","74","127.39999999990687","1","0","1","2","1,0.5,0,1,0.5,0,0.5,0,1","0.5,0,1,0.5,0,1,0,1,0.5","2","false",""
"","html-keyboard-response","326","193205","0.0-395.0","3PS7W85Z80OUQU2FWDBL2ES93869T0","A3ADQ2RLQNJQDU","36U4VBVNQOZD8NFWZXWF9CIHKRIURB","","null","<img src=""img/food6.png"" style=""width:200px;border:14px solid red;"">","null","","","","","","","","","",""
"","image-keyboard-response","327","193381","0.0-397.0","3PS7W85Z80OUQU2FWDBL2ES93869T0","A3ADQ2RLQNJQDU","36U4VBVNQOZD8NFWZXWF9CIHKRIURB","","172","img/food6.png","74","174.79999999981374","1","1","1","2","1,0.5,0,1,0.5,0,0.5,0,1","0.5,0,1,0.5,0,1,0,1,0.5","2","false",""
"","html-keyboard-response","328","193685","0.0-398.0","3PS7W85Z80OUQU2FWDBL2ES93869T0","A3ADQ2RLQNJQDU","36U4VBVNQOZD8NFWZXWF9CIHKRIURB","","null","<img src=""img/food6.png"" style=""width:200px; border:14px solid green;"">","null","","","","","","","","","",""
"","image-keyboard-response","329","193972","0.0-400.0","3PS7W85Z80OUQU2FWDBL2ES93869T0","A3ADQ2RLQNJQDU","36U4VBVNQOZD8NFWZXWF9CIHKRIURB","","283.3000000002794","img/food1.png","75","287","2","1","3","2","1,0.5,0,1,0.5,0,0.5,0,1","0.5,0,1,0.5,0,1,0,1,0.5","2","false",""
"","html-keyboard-response","330","194277","0.0-401.0","3PS7W85Z80OUQU2FWDBL2ES93869T0","A3ADQ2RLQNJQDU","36U4VBVNQOZD8NFWZXWF9CIHKRIURB","","null","<img src=""img/food1.png"" style=""width:200px; border:14px solid green;"">","null","","","","","","","","","",""
"","image-keyboard-response","331","194484","0.0-403.0","3PS7W85Z80OUQU2FWDBL2ES93869T0","A3ADQ2RLQNJQDU","36U4VBVNQOZD8NFWZXWF9CIHKRIURB","","203","img/food1.png","75","206","2","1","3","2","1,0.5,0,1,0.5,0,0.5,0,1","0.5,0,1,0.5,0,1,0,1,0.5","2","false",""
"","html-keyboard-response","332","194789","0.0-404.0","3PS7W85Z80OUQU2FWDBL2ES93869T0","A3ADQ2RLQNJQDU","36U4VBVNQOZD8NFWZXWF9CIHKRIURB","","null","<img src=""img/food1.png"" style=""width:200px; border:14px solid green;"">","null","","","","","","","","","",""
"","image-keyboard-response","333","194915","0.0-406.0","3PS7W85Z80OUQU2FWDBL2ES93869T0","A3ADQ2RLQNJQDU","36U4VBVNQOZD8NFWZXWF9CIHKRIURB","","122.10000000009313","img/food6.png","75","125.10000000009313","2","0","1","2","1,0.5,0,1,0.5,0,0.5,0,1","0.5,0,1,0.5,0,1,0,1,0.5","2","false",""
"","html-keyboard-response","334","195220","0.0-407.0","3PS7W85Z80OUQU2FWDBL2ES93869T0","A3ADQ2RLQNJQDU","36U4VBVNQOZD8NFWZXWF9CIHKRIURB","","null","<img src=""img/food6.png"" style=""width:200px;border:14px solid red;"">","null","","","","","","","","","",""
"","image-keyboard-response","335","195348","0.0-409.0","3PS7W85Z80OUQU2FWDBL2ES93869T0","A3ADQ2RLQNJQDU","36U4VBVNQOZD8NFWZXWF9CIHKRIURB","","123.70000000018626","img/food1.png","75","127.09999999962747","2","1","3","2","1,0.5,0,1,0.5,0,0.5,0,1","0.5,0,1,0.5,0,1,0,1,0.5","2","false",""
"","html-keyboard-response","336","195653","0.0-410.0","3PS7W85Z80OUQU2FWDBL2ES93869T0","A3ADQ2RLQNJQDU","36U4VBVNQOZD8NFWZXWF9CIHKRIURB","","null","<img src=""img/food1.png"" style=""width:200px; border:14px solid green;"">","null","","","","","","","","","",""
"","image-keyboard-response","337","195733","0.0-412.0","3PS7W85Z80OUQU2FWDBL2ES93869T0","A3ADQ2RLQNJQDU","36U4VBVNQOZD8NFWZXWF9CIHKRIURB","","75.39999999990687","img/food6.png","75","78.60000000009313","2","0","1","2","1,0.5,0,1,0.5,0,0.5,0,1","0.5,0,1,0.5,0,1,0,1,0.5","2","false",""
"","html-keyboard-response","338","196038","0.0-413.0","3PS7W85Z80OUQU2FWDBL2ES93869T0","A3ADQ2RLQNJQDU","36U4VBVNQOZD8NFWZXWF9CIHKRIURB","","null","<img src=""img/food6.png"" style=""width:200px;border:14px solid red;"">","null","","","","","","","","","",""
"","image-keyboard-response","339","196149","0.0-415.0","3PS7W85Z80OUQU2FWDBL2ES93869T0","A3ADQ2RLQNJQDU","36U4VBVNQOZD8NFWZXWF9CIHKRIURB","","107","img/food6.png","75","109.89999999990687","2","0","1","2","1,0.5,0,1,0.5,0,0.5,0,1","0.5,0,1,0.5,0,1,0,1,0.5","2","false",""
"","html-keyboard-response","340","196453","0.0-416.0","3PS7W85Z80OUQU2FWDBL2ES93869T0","A3ADQ2RLQNJQDU","36U4VBVNQOZD8NFWZXWF9CIHKRIURB","","null","<img src=""img/food6.png"" style=""width:200px;border:14px solid red;"">","null","","","","","","","","","",""
"","image-keyboard-response","341","196595","0.0-418.0","3PS7W85Z80OUQU2FWDBL2ES93869T0","A3ADQ2RLQNJQDU","36U4VBVNQOZD8NFWZXWF9CIHKRIURB","","137.89999999990687","img/food6.png","75","140.8000000002794","2","0","1","2","1,0.5,0,1,0.5,0,0.5,0,1","0.5,0,1,0.5,0,1,0,1,0.5","2","false",""
"","html-keyboard-response","342","196899","0.0-419.0","3PS7W85Z80OUQU2FWDBL2ES93869T0","A3ADQ2RLQNJQDU","36U4VBVNQOZD8NFWZXWF9CIHKRIURB","","null","<img src=""img/food6.png"" style=""width:200px;border:14px solid red;"">","null","","","","","","","","","",""
"","image-keyboard-response","343","197092","0.0-421.0","3PS7W85Z80OUQU2FWDBL2ES93869T0","A3ADQ2RLQNJQDU","36U4VBVNQOZD8NFWZXWF9CIHKRIURB","","188.8000000002794","img/food2.png","76","192","3","1","2","2","1,0.5,0,1,0.5,0,0.5,0,1","0.5,0,1,0.5,0,1,0,1,0.5","2","false",""
"","html-keyboard-response","344","197397","0.0-422.0","3PS7W85Z80OUQU2FWDBL2ES93869T0","A3ADQ2RLQNJQDU","36U4VBVNQOZD8NFWZXWF9CIHKRIURB","","null","<img src=""img/food2.png"" style=""width:200px; border:14px solid green;"">","null","","","","","","","","","",""
"","image-keyboard-response","345","197492","0.0-424.0","3PS7W85Z80OUQU2FWDBL2ES93869T0","A3ADQ2RLQNJQDU","36U4VBVNQOZD8NFWZXWF9CIHKRIURB","","91.1999999997206","img/food6.png","76","94.60000000009313","3","1","1","2","1,0.5,0,1,0.5,0,0.5,0,1","0.5,0,1,0.5,0,1,0,1,0.5","2","false",""
"","html-keyboard-response","346","197797","0.0-425.0","3PS7W85Z80OUQU2FWDBL2ES93869T0","A3ADQ2RLQNJQDU","36U4VBVNQOZD8NFWZXWF9CIHKRIURB","","null","<img src=""img/food6.png"" style=""width:200px; border:14px solid green;"">","null","","","","","","","","","",""
"","image-keyboard-response","347","197860","0.0-427.0","3PS7W85Z80OUQU2FWDBL2ES93869T0","A3ADQ2RLQNJQDU","36U4VBVNQOZD8NFWZXWF9CIHKRIURB","","58.799999999813735","img/food6.png","76","62","3","1","1","2","1,0.5,0,1,0.5,0,0.5,0,1","0.5,0,1,0.5,0,1,0,1,0.5","2","false",""
"","html-keyboard-response","348","198165","0.0-428.0","3PS7W85Z80OUQU2FWDBL2ES93869T0","A3ADQ2RLQNJQDU","36U4VBVNQOZD8NFWZXWF9CIHKRIURB","","null","<img src=""img/food6.png"" style=""width:200px; border:14px solid green;"">","null","","","","","","","","","",""
"","image-keyboard-response","349","198228","0.0-430.0","3PS7W85Z80OUQU2FWDBL2ES93869T0","A3ADQ2RLQNJQDU","36U4VBVNQOZD8NFWZXWF9CIHKRIURB","","59.10000000009313","img/food6.png","76","62.3000000002794","3","1","1","2","1,0.5,0,1,0.5,0,0.5,0,1","0.5,0,1,0.5,0,1,0,1,0.5","2","false",""
"","html-keyboard-response","350","198533","0.0-431.0","3PS7W85Z80OUQU2FWDBL2ES93869T0","A3ADQ2RLQNJQDU","36U4VBVNQOZD8NFWZXWF9CIHKRIURB","","null","<img src=""img/food6.png"" style=""width:200px; border:14px solid green;"">","null","","","","","","","","","",""
"","image-keyboard-response","351","198597","0.0-433.0","3PS7W85Z80OUQU2FWDBL2ES93869T0","A3ADQ2RLQNJQDU","36U4VBVNQOZD8NFWZXWF9CIHKRIURB","","60","img/food6.png","76","63.200000000186265","3","1","1","2","1,0.5,0,1,0.5,0,0.5,0,1","0.5,0,1,0.5,0,1,0,1,0.5","2","false",""
"","html-keyboard-response","352","198902","0.0-434.0","3PS7W85Z80OUQU2FWDBL2ES93869T0","A3ADQ2RLQNJQDU","36U4VBVNQOZD8NFWZXWF9CIHKRIURB","","null","<img src=""img/food6.png"" style=""width:200px; border:14px solid green;"">","null","","","","","","","","","",""
"","image-keyboard-response","353","199172","0.0-436.0","3PS7W85Z80OUQU2FWDBL2ES93869T0","A3ADQ2RLQNJQDU","36U4VBVNQOZD8NFWZXWF9CIHKRIURB","","266","img/food1.png","75","269.1999999997206","2","1","3","2","1,0.5,0,1,0.5,0,0.5,0,1","0.5,0,1,0.5,0,1,0,1,0.5","2","false",""
"","html-keyboard-response","354","199477","0.0-437.0","3PS7W85Z80OUQU2FWDBL2ES93869T0","A3ADQ2RLQNJQDU","36U4VBVNQOZD8NFWZXWF9CIHKRIURB","","null","<img src=""img/food1.png"" style=""width:200px; border:14px solid green;"">","null","","","","","","","","","",""
"","image-keyboard-response","355","199956","0.0-439.0","3PS7W85Z80OUQU2FWDBL2ES93869T0","A3ADQ2RLQNJQDU","36U4VBVNQOZD8NFWZXWF9CIHKRIURB","","474.5","img/food2.png","75","477.60000000009313","2","0","2","2","1,0.5,0,1,0.5,0,0.5,0,1","0.5,0,1,0.5,0,1,0,1,0.5","2","false",""
"","html-keyboard-response","356","200260","0.0-440.0","3PS7W85Z80OUQU2FWDBL2ES93869T0","A3ADQ2RLQNJQDU","36U4VBVNQOZD8NFWZXWF9CIHKRIURB","","null","<img src=""img/food2.png"" style=""width:200px;border:14px solid red;"">","null","","","","","","","","","",""
"","image-keyboard-response","357","200309","0.0-442.0","3PS7W85Z80OUQU2FWDBL2ES93869T0","A3ADQ2RLQNJQDU","36U4VBVNQOZD8NFWZXWF9CIHKRIURB","","42.39999999990687","img/food6.png","75","46.39999999990687","2","0","1","2","1,0.5,0,1,0.5,0,0.5,0,1","0.5,0,1,0.5,0,1,0,1,0.5","2","false",""
"","html-keyboard-response","358","200614","0.0-443.0","3PS7W85Z80OUQU2FWDBL2ES93869T0","A3ADQ2RLQNJQDU","36U4VBVNQOZD8NFWZXWF9CIHKRIURB","","null","<img src=""img/food6.png"" style=""width:200px;border:14px solid red;"">","null","","","","","","","","","",""
"","image-keyboard-response","359","200836","0.0-445.0","3PS7W85Z80OUQU2FWDBL2ES93869T0","A3ADQ2RLQNJQDU","36U4VBVNQOZD8NFWZXWF9CIHKRIURB","","217.5","img/food1.png","75","220.59999999962747","2","1","3","2","1,0.5,0,1,0.5,0,0.5,0,1","0.5,0,1,0.5,0,1,0,1,0.5","2","false",""
"","html-keyboard-response","360","201139","0.0-446.0","3PS7W85Z80OUQU2FWDBL2ES93869T0","A3ADQ2RLQNJQDU","36U4VBVNQOZD8NFWZXWF9CIHKRIURB","","null","<img src=""img/food1.png"" style=""width:200px; border:14px solid green;"">","null","","","","","","","","","",""
"","image-keyboard-response","361","201364","0.0-448.0","3PS7W85Z80OUQU2FWDBL2ES93869T0","A3ADQ2RLQNJQDU","36U4VBVNQOZD8NFWZXWF9CIHKRIURB","","220.70000000018626","img/food6.png","75","223.5","2","0","1","2","1,0.5,0,1,0.5,0,0.5,0,1","0.5,0,1,0.5,0,1,0,1,0.5","2","false",""
"","html-keyboard-response","362","201668","0.0-449.0","3PS7W85Z80OUQU2FWDBL2ES93869T0","A3ADQ2RLQNJQDU","36U4VBVNQOZD8NFWZXWF9CIHKRIURB","","null","<img src=""img/food6.png"" style=""width:200px;border:14px solid red;"">","null","","","","","","","","","",""
"","image-keyboard-response","363","201940","0.0-451.0","3PS7W85Z80OUQU2FWDBL2ES93869T0","A3ADQ2RLQNJQDU","36U4VBVNQOZD8NFWZXWF9CIHKRIURB","","267.39999999990687","img/food6.png","74","270.39999999990687","1","0","1","2","1,0.5,0,1,0.5,0,0.5,0,1","0.5,0,1,0.5,0,1,0,1,0.5","2","false",""
"","html-keyboard-response","364","202244","0.0-452.0","3PS7W85Z80OUQU2FWDBL2ES93869T0","A3ADQ2RLQNJQDU","36U4VBVNQOZD8NFWZXWF9CIHKRIURB","","null","<img src=""img/food6.png"" style=""width:200px;border:14px solid red;"">","null","","","","","","","","","",""
"","instructions","365","205812","0.0-454.0","3PS7W85Z80OUQU2FWDBL2ES93869T0","A3ADQ2RLQNJQDU","36U4VBVNQOZD8NFWZXWF9CIHKRIURB","[{""page_index"":0,""viewing_time"":3563.7999999998137}]","3564.899999999907","","","","","","","","","","","",""
"","survey-text","366","219683","0.0-455.0","3PS7W85Z80OUQU2FWDBL2ES93869T0","A3ADQ2RLQNJQDU","36U4VBVNQOZD8NFWZXWF9CIHKRIURB","","13854.30000000028","","","","","","","","","","","","{""Q0"":""A3ADQ2RLQNJQDU""}"
