"success","trial_type","trial_index","time_elapsed","internal_node_id","assignmentID","mturkID","hitID","view_history","rt","stimulus","key_press","reactionTime","a","r","s","cond","reward_cond","reward_cond_actual","reward_matrix_idx","warning","responses"
"true","fullscreen","0","2892","0.0-0.0","3SBEHTYCWOPJIHUCAD4XNOJR1TYYI6","A3AHD1NV5XCOF","3D1UCPY6GGVNRONHL4UEVMXCHLT38H","","","","","","","","","","","","","",""
"","instructions","1","11750","0.0-1.0","3SBEHTYCWOPJIHUCAD4XNOJR1TYYI6","A3AHD1NV5XCOF","3D1UCPY6GGVNRONHL4UEVMXCHLT38H","[{""page_index"":0,""viewing_time"":1818},{""page_index"":1,""viewing_time"":943},{""page_index"":2,""viewing_time"":959},{""page_index"":3,""viewing_time"":1359},{""page_index"":4,""viewing_time"":1372},{""page_index"":5,""viewing_time"":1505},{""page_index"":6,""viewing_time"":895}]","8852","","","","","","","","","","","",""
"","image-keyboard-response","2","13559","0.0-2.0","3SBEHTYCWOPJIHUCAD4XNOJR1TYYI6","A3AHD1NV5XCOF","3D1UCPY6GGVNRONHL4UEVMXCHLT38H","","1802","img/food5.png","75","1808","2","0","1","1","1,0.5,0,1,0.5,0,0.5,0,1","0.5,0,1,0.5,0,1,0,1,0.5","2","",""
"","html-keyboard-response","3","13868","0.0-3.0","3SBEHTYCWOPJIHUCAD4XNOJR1TYYI6","A3AHD1NV5XCOF","3D1UCPY6GGVNRONHL4UEVMXCHLT38H","","null","<img src=""img/food5.png"" style=""width:200px;border:14px solid red;"">","null","","","","","","","","","",""
"","image-keyboard-response","4","13904","0.0-4.0","3SBEHTYCWOPJIHUCAD4XNOJR1TYYI6","A3AHD1NV5XCOF","3D1UCPY6GGVNRONHL4UEVMXCHLT38H","","33","img/food4.png","74","35","1","0","3","1","1,0.5,0,1,0.5,0,0.5,0,1","0.5,0,1,0.5,0,1,0,1,0.5","2","",""
"","html-keyboard-response","5","14207","0.0-5.0","3SBEHTYCWOPJIHUCAD4XNOJR1TYYI6","A3AHD1NV5XCOF","3D1UCPY6GGVNRONHL4UEVMXCHLT38H","","null","<img src=""img/food4.png"" style=""width:200px;border:14px solid red;"">","null","","","","","","","","","",""
"","image-keyboard-response","6","14226","0.0-6.0","3SBEHTYCWOPJIHUCAD4XNOJR1TYYI6","A3AHD1NV5XCOF","3D1UCPY6GGVNRONHL4UEVMXCHLT38H","","16","img/food4.png","75","17","2","1","3","1","1,0.5,0,1,0.5,0,0.5,0,1","0.5,0,1,0.5,0,1,0,1,0.5","2","",""
"","html-keyboard-response","7","14528","0.0-7.0","3SBEHTYCWOPJIHUCAD4XNOJR1TYYI6","A3AHD1NV5XCOF","3D1UCPY6GGVNRONHL4UEVMXCHLT38H","","null","<img src=""img/food4.png"" style=""width:200px; border:14px solid green;"">","null","","","","","","","","","",""
"","image-keyboard-response","8","14624","0.0-8.0","3SBEHTYCWOPJIHUCAD4XNOJR1TYYI6","A3AHD1NV5XCOF","3D1UCPY6GGVNRONHL4UEVMXCHLT38H","","94","img/food5.png","74","95","1","1","1","1","1,0.5,0,1,0.5,0,0.5,0,1","0.5,0,1,0.5,0,1,0,1,0.5","2","",""
"","html-keyboard-response","9","14928","0.0-9.0","3SBEHTYCWOPJIHUCAD4XNOJR1TYYI6","A3AHD1NV5XCOF","3D1UCPY6GGVNRONHL4UEVMXCHLT38H","","null","<img src=""img/food5.png"" style=""width:200px; border:14px solid green;"">","null","","","","","","","","","",""
"","image-keyboard-response","10","14942","0.0-10.0","3SBEHTYCWOPJIHUCAD4XNOJR1TYYI6","A3AHD1NV5XCOF","3D1UCPY6GGVNRONHL4UEVMXCHLT38H","","11","img/food5.png","74","13","1","1","1","1","1,0.5,0,1,0.5,0,0.5,0,1","0.5,0,1,0.5,0,1,0,1,0.5","2","",""
"","html-keyboard-response","11","15247","0.0-11.0","3SBEHTYCWOPJIHUCAD4XNOJR1TYYI6","A3AHD1NV5XCOF","3D1UCPY6GGVNRONHL4UEVMXCHLT38H","","null","<img src=""img/food5.png"" style=""width:200px; border:14px solid green;"">","null","","","","","","","","","",""
"","image-keyboard-response","12","15267","0.0-12.0","3SBEHTYCWOPJIHUCAD4XNOJR1TYYI6","A3AHD1NV5XCOF","3D1UCPY6GGVNRONHL4UEVMXCHLT38H","","17","img/food4.png","75","19","2","1","3","1","1,0.5,0,1,0.5,0,0.5,0,1","0.5,0,1,0.5,0,1,0,1,0.5","2","",""
"","html-keyboard-response","13","15570","0.0-13.0","3SBEHTYCWOPJIHUCAD4XNOJR1TYYI6","A3AHD1NV5XCOF","3D1UCPY6GGVNRONHL4UEVMXCHLT38H","","null","<img src=""img/food4.png"" style=""width:200px; border:14px solid green;"">","null","","","","","","","","","",""
"","image-keyboard-response","14","15646","0.0-14.0","3SBEHTYCWOPJIHUCAD4XNOJR1TYYI6","A3AHD1NV5XCOF","3D1UCPY6GGVNRONHL4UEVMXCHLT38H","","73","img/food4.png","76","76","3","1","3","1","1,0.5,0,1,0.5,0,0.5,0,1","0.5,0,1,0.5,0,1,0,1,0.5","2","",""
"","html-keyboard-response","15","15949","0.0-15.0","3SBEHTYCWOPJIHUCAD4XNOJR1TYYI6","A3AHD1NV5XCOF","3D1UCPY6GGVNRONHL4UEVMXCHLT38H","","null","<img src=""img/food4.png"" style=""width:200px; border:14px solid green;"">","null","","","","","","","","","",""
"","image-keyboard-response","16","16063","0.0-16.0","3SBEHTYCWOPJIHUCAD4XNOJR1TYYI6","A3AHD1NV5XCOF","3D1UCPY6GGVNRONHL4UEVMXCHLT38H","","113","img/food5.png","76","115","3","1","1","1","1,0.5,0,1,0.5,0,0.5,0,1","0.5,0,1,0.5,0,1,0,1,0.5","2","",""
"","html-keyboard-response","17","16370","0.0-17.0","3SBEHTYCWOPJIHUCAD4XNOJR1TYYI6","A3AHD1NV5XCOF","3D1UCPY6GGVNRONHL4UEVMXCHLT38H","","null","<img src=""img/food5.png"" style=""width:200px; border:14px solid green;"">","null","","","","","","","","","",""
"","image-keyboard-response","18","16427","0.0-18.0","3SBEHTYCWOPJIHUCAD4XNOJR1TYYI6","A3AHD1NV5XCOF","3D1UCPY6GGVNRONHL4UEVMXCHLT38H","","56","img/food4.png","76","57","3","0","3","1","1,0.5,0,1,0.5,0,0.5,0,1","0.5,0,1,0.5,0,1,0,1,0.5","2","",""
"","html-keyboard-response","19","16730","0.0-19.0","3SBEHTYCWOPJIHUCAD4XNOJR1TYYI6","A3AHD1NV5XCOF","3D1UCPY6GGVNRONHL4UEVMXCHLT38H","","null","<img src=""img/food4.png"" style=""width:200px;border:14px solid red;"">","null","","","","","","","","","",""
"","image-keyboard-response","20","16737","0.0-20.0","3SBEHTYCWOPJIHUCAD4XNOJR1TYYI6","A3AHD1NV5XCOF","3D1UCPY6GGVNRONHL4UEVMXCHLT38H","","2","img/food1.png","74","6","1","1","2","1","1,0.5,0,1,0.5,0,0.5,0,1","0.5,0,1,0.5,0,1,0,1,0.5","2","",""
"","html-keyboard-response","21","17038","0.0-21.0","3SBEHTYCWOPJIHUCAD4XNOJR1TYYI6","A3AHD1NV5XCOF","3D1UCPY6GGVNRONHL4UEVMXCHLT38H","","null","<img src=""img/food1.png"" style=""width:200px; border:14px solid green;"">","null","","","","","","","","","",""
"","image-keyboard-response","22","17123","0.0-22.0","3SBEHTYCWOPJIHUCAD4XNOJR1TYYI6","A3AHD1NV5XCOF","3D1UCPY6GGVNRONHL4UEVMXCHLT38H","","84","img/food5.png","74","84","1","1","1","1","1,0.5,0,1,0.5,0,0.5,0,1","0.5,0,1,0.5,0,1,0,1,0.5","2","",""
"","html-keyboard-response","23","17427","0.0-23.0","3SBEHTYCWOPJIHUCAD4XNOJR1TYYI6","A3AHD1NV5XCOF","3D1UCPY6GGVNRONHL4UEVMXCHLT38H","","null","<img src=""img/food5.png"" style=""width:200px; border:14px solid green;"">","null","","","","","","","","","",""
"","image-keyboard-response","24","17633","0.0-24.0","3SBEHTYCWOPJIHUCAD4XNOJR1TYYI6","A3AHD1NV5XCOF","3D1UCPY6GGVNRONHL4UEVMXCHLT38H","","205","img/food1.png","74","206","1","1","2","1","1,0.5,0,1,0.5,0,0.5,0,1","0.5,0,1,0.5,0,1,0,1,0.5","2","",""
"","html-keyboard-response","25","17935","0.0-25.0","3SBEHTYCWOPJIHUCAD4XNOJR1TYYI6","A3AHD1NV5XCOF","3D1UCPY6GGVNRONHL4UEVMXCHLT38H","","null","<img src=""img/food1.png"" style=""width:200px; border:14px solid green;"">","null","","","","","","","","","",""
"","image-keyboard-response","26","17938","0.0-26.0","3SBEHTYCWOPJIHUCAD4XNOJR1TYYI6","A3AHD1NV5XCOF","3D1UCPY6GGVNRONHL4UEVMXCHLT38H","","0","img/food5.png","74","2","1","0","1","1","1,0.5,0,1,0.5,0,0.5,0,1","0.5,0,1,0.5,0,1,0,1,0.5","2","",""
"","html-keyboard-response","27","18240","0.0-27.0","3SBEHTYCWOPJIHUCAD4XNOJR1TYYI6","A3AHD1NV5XCOF","3D1UCPY6GGVNRONHL4UEVMXCHLT38H","","null","<img src=""img/food5.png"" style=""width:200px;border:14px solid red;"">","null","","","","","","","","","",""
"","image-keyboard-response","28","18312","0.0-28.0","3SBEHTYCWOPJIHUCAD4XNOJR1TYYI6","A3AHD1NV5XCOF","3D1UCPY6GGVNRONHL4UEVMXCHLT38H","","72","img/food1.png","74","72","1","1","2","1","1,0.5,0,1,0.5,0,0.5,0,1","0.5,0,1,0.5,0,1,0,1,0.5","2","",""
"","html-keyboard-response","29","18613","0.0-29.0","3SBEHTYCWOPJIHUCAD4XNOJR1TYYI6","A3AHD1NV5XCOF","3D1UCPY6GGVNRONHL4UEVMXCHLT38H","","null","<img src=""img/food1.png"" style=""width:200px; border:14px solid green;"">","null","","","","","","","","","",""
"","image-keyboard-response","30","18712","0.0-30.0","3SBEHTYCWOPJIHUCAD4XNOJR1TYYI6","A3AHD1NV5XCOF","3D1UCPY6GGVNRONHL4UEVMXCHLT38H","","97","img/food5.png","76","99","3","1","1","1","1,0.5,0,1,0.5,0,0.5,0,1","0.5,0,1,0.5,0,1,0,1,0.5","2","",""
"","html-keyboard-response","31","19032","0.0-31.0","3SBEHTYCWOPJIHUCAD4XNOJR1TYYI6","A3AHD1NV5XCOF","3D1UCPY6GGVNRONHL4UEVMXCHLT38H","","null","<img src=""img/food5.png"" style=""width:200px; border:14px solid green;"">","null","","","","","","","","","",""
"","image-keyboard-response","32","19105","0.0-32.0","3SBEHTYCWOPJIHUCAD4XNOJR1TYYI6","A3AHD1NV5XCOF","3D1UCPY6GGVNRONHL4UEVMXCHLT38H","","70","img/food1.png","74","73","1","1","2","1","1,0.5,0,1,0.5,0,0.5,0,1","0.5,0,1,0.5,0,1,0,1,0.5","2","",""
"","html-keyboard-response","33","19607","0.0-33.0","3SBEHTYCWOPJIHUCAD4XNOJR1TYYI6","A3AHD1NV5XCOF","3D1UCPY6GGVNRONHL4UEVMXCHLT38H","","null","<img src=""img/food1.png"" style=""width:200px; border:14px solid green;"">","null","","","","","","","","","",""
"","image-keyboard-response","34","19673","0.0-34.0","3SBEHTYCWOPJIHUCAD4XNOJR1TYYI6","A3AHD1NV5XCOF","3D1UCPY6GGVNRONHL4UEVMXCHLT38H","","64","img/food5.png","76","65","3","1","1","1","1,0.5,0,1,0.5,0,0.5,0,1","0.5,0,1,0.5,0,1,0,1,0.5","2","",""
"","html-keyboard-response","35","20116","0.0-35.0","3SBEHTYCWOPJIHUCAD4XNOJR1TYYI6","A3AHD1NV5XCOF","3D1UCPY6GGVNRONHL4UEVMXCHLT38H","","null","<img src=""img/food5.png"" style=""width:200px; border:14px solid green;"">","null","","","","","","","","","",""
"","image-keyboard-response","36","20305","0.0-36.0","3SBEHTYCWOPJIHUCAD4XNOJR1TYYI6","A3AHD1NV5XCOF","3D1UCPY6GGVNRONHL4UEVMXCHLT38H","","187","img/food5.png","74","188","1","0","1","1","1,0.5,0,1,0.5,0,0.5,0,1","0.5,0,1,0.5,0,1,0,1,0.5","2","",""
"","html-keyboard-response","37","20698","0.0-37.0","3SBEHTYCWOPJIHUCAD4XNOJR1TYYI6","A3AHD1NV5XCOF","3D1UCPY6GGVNRONHL4UEVMXCHLT38H","","null","<img src=""img/food5.png"" style=""width:200px;border:14px solid red;"">","null","","","","","","","","","",""
"","image-keyboard-response","38","20738","0.0-38.0","3SBEHTYCWOPJIHUCAD4XNOJR1TYYI6","A3AHD1NV5XCOF","3D1UCPY6GGVNRONHL4UEVMXCHLT38H","","38","img/food5.png","75","40","2","0","1","1","1,0.5,0,1,0.5,0,0.5,0,1","0.5,0,1,0.5,0,1,0,1,0.5","2","",""
"","html-keyboard-response","39","21075","0.0-39.0","3SBEHTYCWOPJIHUCAD4XNOJR1TYYI6","A3AHD1NV5XCOF","3D1UCPY6GGVNRONHL4UEVMXCHLT38H","","null","<img src=""img/food5.png"" style=""width:200px;border:14px solid red;"">","null","","","","","","","","","",""
"","image-keyboard-response","40","21350","0.0-40.0","3SBEHTYCWOPJIHUCAD4XNOJR1TYYI6","A3AHD1NV5XCOF","3D1UCPY6GGVNRONHL4UEVMXCHLT38H","","272","img/food4.png","76","275","3","0","3","1","1,0.5,0,1,0.5,0,0.5,0,1","0.5,0,1,0.5,0,1,0,1,0.5","2","",""
"","html-keyboard-response","41","21652","0.0-41.0","3SBEHTYCWOPJIHUCAD4XNOJR1TYYI6","A3AHD1NV5XCOF","3D1UCPY6GGVNRONHL4UEVMXCHLT38H","","null","<img src=""img/food4.png"" style=""width:200px;border:14px solid red;"">","null","","","","","","","","","",""
"","image-keyboard-response","42","21867","0.0-42.0","3SBEHTYCWOPJIHUCAD4XNOJR1TYYI6","A3AHD1NV5XCOF","3D1UCPY6GGVNRONHL4UEVMXCHLT38H","","213","img/food4.png","76","214","3","0","3","1","1,0.5,0,1,0.5,0,0.5,0,1","0.5,0,1,0.5,0,1,0,1,0.5","2","",""
"","html-keyboard-response","43","22169","0.0-43.0","3SBEHTYCWOPJIHUCAD4XNOJR1TYYI6","A3AHD1NV5XCOF","3D1UCPY6GGVNRONHL4UEVMXCHLT38H","","null","<img src=""img/food4.png"" style=""width:200px;border:14px solid red;"">","null","","","","","","","","","",""
"","image-keyboard-response","44","22232","0.0-44.0","3SBEHTYCWOPJIHUCAD4XNOJR1TYYI6","A3AHD1NV5XCOF","3D1UCPY6GGVNRONHL4UEVMXCHLT38H","","62","img/food1.png","76","63","3","1","2","1","1,0.5,0,1,0.5,0,0.5,0,1","0.5,0,1,0.5,0,1,0,1,0.5","2","",""
"","html-keyboard-response","45","22540","0.0-45.0","3SBEHTYCWOPJIHUCAD4XNOJR1TYYI6","A3AHD1NV5XCOF","3D1UCPY6GGVNRONHL4UEVMXCHLT38H","","null","<img src=""img/food1.png"" style=""width:200px; border:14px solid green;"">","null","","","","","","","","","",""
"","image-keyboard-response","46","22673","0.0-46.0","3SBEHTYCWOPJIHUCAD4XNOJR1TYYI6","A3AHD1NV5XCOF","3D1UCPY6GGVNRONHL4UEVMXCHLT38H","","131","img/food4.png","76","132","3","0","3","1","1,0.5,0,1,0.5,0,0.5,0,1","0.5,0,1,0.5,0,1,0,1,0.5","2","",""
"","html-keyboard-response","47","23098","0.0-47.0","3SBEHTYCWOPJIHUCAD4XNOJR1TYYI6","A3AHD1NV5XCOF","3D1UCPY6GGVNRONHL4UEVMXCHLT38H","","null","<img src=""img/food4.png"" style=""width:200px;border:14px solid red;"">","null","","","","","","","","","",""
"","image-keyboard-response","48","23129","0.0-48.0","3SBEHTYCWOPJIHUCAD4XNOJR1TYYI6","A3AHD1NV5XCOF","3D1UCPY6GGVNRONHL4UEVMXCHLT38H","","28","img/food4.png","74","30","1","0","3","1","1,0.5,0,1,0.5,0,0.5,0,1","0.5,0,1,0.5,0,1,0,1,0.5","2","",""
"","html-keyboard-response","49","23460","0.0-49.0","3SBEHTYCWOPJIHUCAD4XNOJR1TYYI6","A3AHD1NV5XCOF","3D1UCPY6GGVNRONHL4UEVMXCHLT38H","","null","<img src=""img/food4.png"" style=""width:200px;border:14px solid red;"">","null","","","","","","","","","",""
"","image-keyboard-response","50","23723","0.0-50.0","3SBEHTYCWOPJIHUCAD4XNOJR1TYYI6","A3AHD1NV5XCOF","3D1UCPY6GGVNRONHL4UEVMXCHLT38H","","262","img/food5.png","74","263","1","0","1","1","1,0.5,0,1,0.5,0,0.5,0,1","0.5,0,1,0.5,0,1,0,1,0.5","2","",""
"","html-keyboard-response","51","24027","0.0-51.0","3SBEHTYCWOPJIHUCAD4XNOJR1TYYI6","A3AHD1NV5XCOF","3D1UCPY6GGVNRONHL4UEVMXCHLT38H","","null","<img src=""img/food5.png"" style=""width:200px;border:14px solid red;"">","null","","","","","","","","","",""
"","image-keyboard-response","52","24029","0.0-52.0","3SBEHTYCWOPJIHUCAD4XNOJR1TYYI6","A3AHD1NV5XCOF","3D1UCPY6GGVNRONHL4UEVMXCHLT38H","","1","img/food1.png","76","2","3","1","2","1","1,0.5,0,1,0.5,0,0.5,0,1","0.5,0,1,0.5,0,1,0,1,0.5","2","",""
"","html-keyboard-response","53","24361","0.0-53.0","3SBEHTYCWOPJIHUCAD4XNOJR1TYYI6","A3AHD1NV5XCOF","3D1UCPY6GGVNRONHL4UEVMXCHLT38H","","null","<img src=""img/food1.png"" style=""width:200px; border:14px solid green;"">","null","","","","","","","","","",""
"","image-keyboard-response","54","24523","0.0-54.0","3SBEHTYCWOPJIHUCAD4XNOJR1TYYI6","A3AHD1NV5XCOF","3D1UCPY6GGVNRONHL4UEVMXCHLT38H","","160","img/food1.png","74","161","1","0","2","1","1,0.5,0,1,0.5,0,0.5,0,1","0.5,0,1,0.5,0,1,0,1,0.5","2","",""
"","html-keyboard-response","55","24824","0.0-55.0","3SBEHTYCWOPJIHUCAD4XNOJR1TYYI6","A3AHD1NV5XCOF","3D1UCPY6GGVNRONHL4UEVMXCHLT38H","","null","<img src=""img/food1.png"" style=""width:200px;border:14px solid red;"">","null","","","","","","","","","",""
"","image-keyboard-response","56","24890","0.0-56.0","3SBEHTYCWOPJIHUCAD4XNOJR1TYYI6","A3AHD1NV5XCOF","3D1UCPY6GGVNRONHL4UEVMXCHLT38H","","64","img/food5.png","76","66","3","1","1","1","1,0.5,0,1,0.5,0,0.5,0,1","0.5,0,1,0.5,0,1,0,1,0.5","2","",""
"","html-keyboard-response","57","25221","0.0-57.0","3SBEHTYCWOPJIHUCAD4XNOJR1TYYI6","A3AHD1NV5XCOF","3D1UCPY6GGVNRONHL4UEVMXCHLT38H","","null","<img src=""img/food5.png"" style=""width:200px; border:14px solid green;"">","null","","","","","","","","","",""
"","image-keyboard-response","58","25871","0.0-58.0","3SBEHTYCWOPJIHUCAD4XNOJR1TYYI6","A3AHD1NV5XCOF","3D1UCPY6GGVNRONHL4UEVMXCHLT38H","","648","img/food1.png","76","650","3","1","2","1","1,0.5,0,1,0.5,0,0.5,0,1","0.5,0,1,0.5,0,1,0,1,0.5","2","",""
"","html-keyboard-response","59","26174","0.0-59.0","3SBEHTYCWOPJIHUCAD4XNOJR1TYYI6","A3AHD1NV5XCOF","3D1UCPY6GGVNRONHL4UEVMXCHLT38H","","null","<img src=""img/food1.png"" style=""width:200px; border:14px solid green;"">","null","","","","","","","","","",""
"","image-keyboard-response","60","26438","0.0-60.0","3SBEHTYCWOPJIHUCAD4XNOJR1TYYI6","A3AHD1NV5XCOF","3D1UCPY6GGVNRONHL4UEVMXCHLT38H","","259","img/food5.png","76","264","3","1","1","1","1,0.5,0,1,0.5,0,0.5,0,1","0.5,0,1,0.5,0,1,0,1,0.5","2","",""
"","html-keyboard-response","61","26741","0.0-61.0","3SBEHTYCWOPJIHUCAD4XNOJR1TYYI6","A3AHD1NV5XCOF","3D1UCPY6GGVNRONHL4UEVMXCHLT38H","","null","<img src=""img/food5.png"" style=""width:200px; border:14px solid green;"">","null","","","","","","","","","",""
"","image-keyboard-response","62","27381","0.0-62.0","3SBEHTYCWOPJIHUCAD4XNOJR1TYYI6","A3AHD1NV5XCOF","3D1UCPY6GGVNRONHL4UEVMXCHLT38H","","637","img/food1.png","75","640","2","0","2","1","1,0.5,0,1,0.5,0,0.5,0,1","0.5,0,1,0.5,0,1,0,1,0.5","2","",""
"","html-keyboard-response","63","27687","0.0-63.0","3SBEHTYCWOPJIHUCAD4XNOJR1TYYI6","A3AHD1NV5XCOF","3D1UCPY6GGVNRONHL4UEVMXCHLT38H","","null","<img src=""img/food1.png"" style=""width:200px;border:14px solid red;"">","null","","","","","","","","","",""
"","image-keyboard-response","64","27725","0.0-64.0","3SBEHTYCWOPJIHUCAD4XNOJR1TYYI6","A3AHD1NV5XCOF","3D1UCPY6GGVNRONHL4UEVMXCHLT38H","","37","img/food5.png","75","37","2","0","1","1","1,0.5,0,1,0.5,0,0.5,0,1","0.5,0,1,0.5,0,1,0,1,0.5","2","",""
"","html-keyboard-response","65","28031","0.0-65.0","3SBEHTYCWOPJIHUCAD4XNOJR1TYYI6","A3AHD1NV5XCOF","3D1UCPY6GGVNRONHL4UEVMXCHLT38H","","null","<img src=""img/food5.png"" style=""width:200px;border:14px solid red;"">","null","","","","","","","","","",""
"","image-keyboard-response","66","28120","0.0-66.0","3SBEHTYCWOPJIHUCAD4XNOJR1TYYI6","A3AHD1NV5XCOF","3D1UCPY6GGVNRONHL4UEVMXCHLT38H","","83","img/food5.png","76","85","3","1","1","1","1,0.5,0,1,0.5,0,0.5,0,1","0.5,0,1,0.5,0,1,0,1,0.5","2","",""
"","html-keyboard-response","67","28425","0.0-67.0","3SBEHTYCWOPJIHUCAD4XNOJR1TYYI6","A3AHD1NV5XCOF","3D1UCPY6GGVNRONHL4UEVMXCHLT38H","","null","<img src=""img/food5.png"" style=""width:200px; border:14px solid green;"">","null","","","","","","","","","",""
"","image-keyboard-response","68","28787","0.0-68.0","3SBEHTYCWOPJIHUCAD4XNOJR1TYYI6","A3AHD1NV5XCOF","3D1UCPY6GGVNRONHL4UEVMXCHLT38H","","359","img/food1.png","76","359","3","1","2","1","1,0.5,0,1,0.5,0,0.5,0,1","0.5,0,1,0.5,0,1,0,1,0.5","2","",""
"","html-keyboard-response","69","29089","0.0-69.0","3SBEHTYCWOPJIHUCAD4XNOJR1TYYI6","A3AHD1NV5XCOF","3D1UCPY6GGVNRONHL4UEVMXCHLT38H","","null","<img src=""img/food1.png"" style=""width:200px; border:14px solid green;"">","null","","","","","","","","","",""
"","image-keyboard-response","70","29198","0.0-70.0","3SBEHTYCWOPJIHUCAD4XNOJR1TYYI6","A3AHD1NV5XCOF","3D1UCPY6GGVNRONHL4UEVMXCHLT38H","","108","img/food5.png","76","108","3","1","1","1","1,0.5,0,1,0.5,0,0.5,0,1","0.5,0,1,0.5,0,1,0,1,0.5","2","",""
"","html-keyboard-response","71","29500","0.0-71.0","3SBEHTYCWOPJIHUCAD4XNOJR1TYYI6","A3AHD1NV5XCOF","3D1UCPY6GGVNRONHL4UEVMXCHLT38H","","null","<img src=""img/food5.png"" style=""width:200px; border:14px solid green;"">","null","","","","","","","","","",""
"","image-keyboard-response","72","29573","0.0-72.0","3SBEHTYCWOPJIHUCAD4XNOJR1TYYI6","A3AHD1NV5XCOF","3D1UCPY6GGVNRONHL4UEVMXCHLT38H","","70","img/food1.png","74","72","1","1","2","1","1,0.5,0,1,0.5,0,0.5,0,1","0.5,0,1,0.5,0,1,0,1,0.5","2","",""
"","html-keyboard-response","73","29879","0.0-73.0","3SBEHTYCWOPJIHUCAD4XNOJR1TYYI6","A3AHD1NV5XCOF","3D1UCPY6GGVNRONHL4UEVMXCHLT38H","","null","<img src=""img/food1.png"" style=""width:200px; border:14px solid green;"">","null","","","","","","","","","",""
"","image-keyboard-response","74","29987","0.0-74.0","3SBEHTYCWOPJIHUCAD4XNOJR1TYYI6","A3AHD1NV5XCOF","3D1UCPY6GGVNRONHL4UEVMXCHLT38H","","107","img/food4.png","76","107","3","1","3","1","1,0.5,0,1,0.5,0,0.5,0,1","0.5,0,1,0.5,0,1,0,1,0.5","2","",""
"","html-keyboard-response","75","30502","0.0-75.0","3SBEHTYCWOPJIHUCAD4XNOJR1TYYI6","A3AHD1NV5XCOF","3D1UCPY6GGVNRONHL4UEVMXCHLT38H","","null","<img src=""img/food4.png"" style=""width:200px; border:14px solid green;"">","null","","","","","","","","","",""
"","image-keyboard-response","76","31105","0.0-76.0","3SBEHTYCWOPJIHUCAD4XNOJR1TYYI6","A3AHD1NV5XCOF","3D1UCPY6GGVNRONHL4UEVMXCHLT38H","","601","img/food1.png","76","603","3","1","2","1","1,0.5,0,1,0.5,0,0.5,0,1","0.5,0,1,0.5,0,1,0,1,0.5","2","",""
"","html-keyboard-response","77","31407","0.0-77.0","3SBEHTYCWOPJIHUCAD4XNOJR1TYYI6","A3AHD1NV5XCOF","3D1UCPY6GGVNRONHL4UEVMXCHLT38H","","null","<img src=""img/food1.png"" style=""width:200px; border:14px solid green;"">","null","","","","","","","","","",""
"","image-keyboard-response","78","31473","0.0-78.0","3SBEHTYCWOPJIHUCAD4XNOJR1TYYI6","A3AHD1NV5XCOF","3D1UCPY6GGVNRONHL4UEVMXCHLT38H","","63","img/food4.png","76","64","3","0","3","1","1,0.5,0,1,0.5,0,0.5,0,1","0.5,0,1,0.5,0,1,0,1,0.5","2","",""
"","html-keyboard-response","79","31780","0.0-79.0","3SBEHTYCWOPJIHUCAD4XNOJR1TYYI6","A3AHD1NV5XCOF","3D1UCPY6GGVNRONHL4UEVMXCHLT38H","","null","<img src=""img/food4.png"" style=""width:200px;border:14px solid red;"">","null","","","","","","","","","",""
"","image-keyboard-response","80","31951","0.0-80.0","3SBEHTYCWOPJIHUCAD4XNOJR1TYYI6","A3AHD1NV5XCOF","3D1UCPY6GGVNRONHL4UEVMXCHLT38H","","170","img/food1.png","75","171","2","0","2","1","1,0.5,0,1,0.5,0,0.5,0,1","0.5,0,1,0.5,0,1,0,1,0.5","2","",""
"","html-keyboard-response","81","32253","0.0-81.0","3SBEHTYCWOPJIHUCAD4XNOJR1TYYI6","A3AHD1NV5XCOF","3D1UCPY6GGVNRONHL4UEVMXCHLT38H","","null","<img src=""img/food1.png"" style=""width:200px;border:14px solid red;"">","null","","","","","","","","","",""
"","image-keyboard-response","82","32322","0.0-82.0","3SBEHTYCWOPJIHUCAD4XNOJR1TYYI6","A3AHD1NV5XCOF","3D1UCPY6GGVNRONHL4UEVMXCHLT38H","","68","img/food1.png","76","69","3","1","2","1","1,0.5,0,1,0.5,0,0.5,0,1","0.5,0,1,0.5,0,1,0,1,0.5","2","",""
"","html-keyboard-response","83","32644","0.0-83.0","3SBEHTYCWOPJIHUCAD4XNOJR1TYYI6","A3AHD1NV5XCOF","3D1UCPY6GGVNRONHL4UEVMXCHLT38H","","null","<img src=""img/food1.png"" style=""width:200px; border:14px solid green;"">","null","","","","","","","","","",""
"","image-keyboard-response","84","32854","0.0-84.0","3SBEHTYCWOPJIHUCAD4XNOJR1TYYI6","A3AHD1NV5XCOF","3D1UCPY6GGVNRONHL4UEVMXCHLT38H","","208","img/food4.png","76","210","3","0","3","1","1,0.5,0,1,0.5,0,0.5,0,1","0.5,0,1,0.5,0,1,0,1,0.5","2","",""
"","html-keyboard-response","85","33221","0.0-85.0","3SBEHTYCWOPJIHUCAD4XNOJR1TYYI6","A3AHD1NV5XCOF","3D1UCPY6GGVNRONHL4UEVMXCHLT38H","","null","<img src=""img/food4.png"" style=""width:200px;border:14px solid red;"">","null","","","","","","","","","",""
"","image-keyboard-response","86","35224","0.0-86.0","3SBEHTYCWOPJIHUCAD4XNOJR1TYYI6","A3AHD1NV5XCOF","3D1UCPY6GGVNRONHL4UEVMXCHLT38H","","","img/food4.png","","2002","-1","0","3","1","1,0.5,0,1,0.5,0,0.5,0,1","0.5,0,1,0.5,0,1,0,1,0.5","2","",""
"","html-keyboard-response","87","35527","0.0-87.0","3SBEHTYCWOPJIHUCAD4XNOJR1TYYI6","A3AHD1NV5XCOF","3D1UCPY6GGVNRONHL4UEVMXCHLT38H","","null","<img src=""img/food4.png"" style=""width:200px;border:14px solid red;"">","null","","","","","","","","","",""
"","image-keyboard-response","88","37530","0.0-88.0","3SBEHTYCWOPJIHUCAD4XNOJR1TYYI6","A3AHD1NV5XCOF","3D1UCPY6GGVNRONHL4UEVMXCHLT38H","","","img/food5.png","","2003","-1","0","1","1","1,0.5,0,1,0.5,0,0.5,0,1","0.5,0,1,0.5,0,1,0,1,0.5","2","",""
"","html-keyboard-response","89","37833","0.0-89.0","3SBEHTYCWOPJIHUCAD4XNOJR1TYYI6","A3AHD1NV5XCOF","3D1UCPY6GGVNRONHL4UEVMXCHLT38H","","null","<img src=""img/food5.png"" style=""width:200px;border:14px solid red;"">","null","","","","","","","","","",""
"","image-keyboard-response","90","39836","0.0-90.0","3SBEHTYCWOPJIHUCAD4XNOJR1TYYI6","A3AHD1NV5XCOF","3D1UCPY6GGVNRONHL4UEVMXCHLT38H","","","img/food1.png","","2003","-1","0","2","1","1,0.5,0,1,0.5,0,0.5,0,1","0.5,0,1,0.5,0,1,0,1,0.5","2","",""
"","html-keyboard-response","91","40143","0.0-91.0","3SBEHTYCWOPJIHUCAD4XNOJR1TYYI6","A3AHD1NV5XCOF","3D1UCPY6GGVNRONHL4UEVMXCHLT38H","","null","<img src=""img/food1.png"" style=""width:200px;border:14px solid red;"">","null","","","","","","","","","",""
"","image-keyboard-response","92","40241","0.0-92.0","3SBEHTYCWOPJIHUCAD4XNOJR1TYYI6","A3AHD1NV5XCOF","3D1UCPY6GGVNRONHL4UEVMXCHLT38H","","97","img/food5.png","74","97","1","1","1","1","1,0.5,0,1,0.5,0,0.5,0,1","0.5,0,1,0.5,0,1,0,1,0.5","2","",""
"","html-keyboard-response","93","40546","0.0-93.0","3SBEHTYCWOPJIHUCAD4XNOJR1TYYI6","A3AHD1NV5XCOF","3D1UCPY6GGVNRONHL4UEVMXCHLT38H","","null","<img src=""img/food5.png"" style=""width:200px; border:14px solid green;"">","null","","","","","","","","","",""
"","image-keyboard-response","94","40567","0.0-94.0","3SBEHTYCWOPJIHUCAD4XNOJR1TYYI6","A3AHD1NV5XCOF","3D1UCPY6GGVNRONHL4UEVMXCHLT38H","","19","img/food4.png","74","20","1","0","3","1","1,0.5,0,1,0.5,0,0.5,0,1","0.5,0,1,0.5,0,1,0,1,0.5","2","",""
"","html-keyboard-response","95","40972","0.0-95.0","3SBEHTYCWOPJIHUCAD4XNOJR1TYYI6","A3AHD1NV5XCOF","3D1UCPY6GGVNRONHL4UEVMXCHLT38H","","null","<img src=""img/food4.png"" style=""width:200px;border:14px solid red;"">","null","","","","","","","","","",""
"","image-keyboard-response","96","40992","0.0-96.0","3SBEHTYCWOPJIHUCAD4XNOJR1TYYI6","A3AHD1NV5XCOF","3D1UCPY6GGVNRONHL4UEVMXCHLT38H","","20","img/food5.png","74","20","1","1","1","1","1,0.5,0,1,0.5,0,0.5,0,1","0.5,0,1,0.5,0,1,0,1,0.5","2","",""
"","html-keyboard-response","97","41294","0.0-97.0","3SBEHTYCWOPJIHUCAD4XNOJR1TYYI6","A3AHD1NV5XCOF","3D1UCPY6GGVNRONHL4UEVMXCHLT38H","","null","<img src=""img/food5.png"" style=""width:200px; border:14px solid green;"">","null","","","","","","","","","",""
"","image-keyboard-response","98","41435","0.0-98.0","3SBEHTYCWOPJIHUCAD4XNOJR1TYYI6","A3AHD1NV5XCOF","3D1UCPY6GGVNRONHL4UEVMXCHLT38H","","140","img/food5.png","75","140","2","0","1","1","1,0.5,0,1,0.5,0,0.5,0,1","0.5,0,1,0.5,0,1,0,1,0.5","2","",""
"","html-keyboard-response","99","41820","0.0-99.0","3SBEHTYCWOPJIHUCAD4XNOJR1TYYI6","A3AHD1NV5XCOF","3D1UCPY6GGVNRONHL4UEVMXCHLT38H","","null","<img src=""img/food5.png"" style=""width:200px;border:14px solid red;"">","null","","","","","","","","","",""
"","image-keyboard-response","100","41844","0.0-100.0","3SBEHTYCWOPJIHUCAD4XNOJR1TYYI6","A3AHD1NV5XCOF","3D1UCPY6GGVNRONHL4UEVMXCHLT38H","","23","img/food5.png","75","24","2","0","1","1","1,0.5,0,1,0.5,0,0.5,0,1","0.5,0,1,0.5,0,1,0,1,0.5","2","",""
"","html-keyboard-response","101","42208","0.0-101.0","3SBEHTYCWOPJIHUCAD4XNOJR1TYYI6","A3AHD1NV5XCOF","3D1UCPY6GGVNRONHL4UEVMXCHLT38H","","null","<img src=""img/food5.png"" style=""width:200px;border:14px solid red;"">","null","","","","","","","","","",""
"","image-keyboard-response","102","42369","0.0-102.0","3SBEHTYCWOPJIHUCAD4XNOJR1TYYI6","A3AHD1NV5XCOF","3D1UCPY6GGVNRONHL4UEVMXCHLT38H","","159","img/food5.png","75","161","2","0","1","1","1,0.5,0,1,0.5,0,0.5,0,1","0.5,0,1,0.5,0,1,0,1,0.5","2","",""
"","html-keyboard-response","103","42670","0.0-103.0","3SBEHTYCWOPJIHUCAD4XNOJR1TYYI6","A3AHD1NV5XCOF","3D1UCPY6GGVNRONHL4UEVMXCHLT38H","","null","<img src=""img/food5.png"" style=""width:200px;border:14px solid red;"">","null","","","","","","","","","",""
"","image-keyboard-response","104","43060","0.0-104.0","3SBEHTYCWOPJIHUCAD4XNOJR1TYYI6","A3AHD1NV5XCOF","3D1UCPY6GGVNRONHL4UEVMXCHLT38H","","387","img/food4.png","76","389","3","0","3","1","1,0.5,0,1,0.5,0,0.5,0,1","0.5,0,1,0.5,0,1,0,1,0.5","2","",""
"","html-keyboard-response","105","43376","0.0-105.0","3SBEHTYCWOPJIHUCAD4XNOJR1TYYI6","A3AHD1NV5XCOF","3D1UCPY6GGVNRONHL4UEVMXCHLT38H","","null","<img src=""img/food4.png"" style=""width:200px;border:14px solid red;"">","null","","","","","","","","","",""
"","image-keyboard-response","106","43395","0.0-106.0","3SBEHTYCWOPJIHUCAD4XNOJR1TYYI6","A3AHD1NV5XCOF","3D1UCPY6GGVNRONHL4UEVMXCHLT38H","","17","img/food1.png","75","18","2","0","2","1","1,0.5,0,1,0.5,0,0.5,0,1","0.5,0,1,0.5,0,1,0,1,0.5","2","",""
"","html-keyboard-response","107","43699","0.0-107.0","3SBEHTYCWOPJIHUCAD4XNOJR1TYYI6","A3AHD1NV5XCOF","3D1UCPY6GGVNRONHL4UEVMXCHLT38H","","null","<img src=""img/food1.png"" style=""width:200px;border:14px solid red;"">","null","","","","","","","","","",""
"","image-keyboard-response","108","43722","0.0-108.0","3SBEHTYCWOPJIHUCAD4XNOJR1TYYI6","A3AHD1NV5XCOF","3D1UCPY6GGVNRONHL4UEVMXCHLT38H","","17","img/food1.png","76","20","3","1","2","1","1,0.5,0,1,0.5,0,0.5,0,1","0.5,0,1,0.5,0,1,0,1,0.5","2","",""
"","html-keyboard-response","109","44026","0.0-109.0","3SBEHTYCWOPJIHUCAD4XNOJR1TYYI6","A3AHD1NV5XCOF","3D1UCPY6GGVNRONHL4UEVMXCHLT38H","","null","<img src=""img/food1.png"" style=""width:200px; border:14px solid green;"">","null","","","","","","","","","",""
"","image-keyboard-response","110","44107","0.0-110.0","3SBEHTYCWOPJIHUCAD4XNOJR1TYYI6","A3AHD1NV5XCOF","3D1UCPY6GGVNRONHL4UEVMXCHLT38H","","80","img/food4.png","76","80","3","1","3","1","1,0.5,0,1,0.5,0,0.5,0,1","0.5,0,1,0.5,0,1,0,1,0.5","2","",""
"","html-keyboard-response","111","44468","0.0-111.0","3SBEHTYCWOPJIHUCAD4XNOJR1TYYI6","A3AHD1NV5XCOF","3D1UCPY6GGVNRONHL4UEVMXCHLT38H","","null","<img src=""img/food4.png"" style=""width:200px; border:14px solid green;"">","null","","","","","","","","","",""
"","image-keyboard-response","112","44497","0.0-112.0","3SBEHTYCWOPJIHUCAD4XNOJR1TYYI6","A3AHD1NV5XCOF","3D1UCPY6GGVNRONHL4UEVMXCHLT38H","","28","img/food4.png","75","29","2","1","3","1","1,0.5,0,1,0.5,0,0.5,0,1","0.5,0,1,0.5,0,1,0,1,0.5","2","",""
"","html-keyboard-response","113","44798","0.0-113.0","3SBEHTYCWOPJIHUCAD4XNOJR1TYYI6","A3AHD1NV5XCOF","3D1UCPY6GGVNRONHL4UEVMXCHLT38H","","null","<img src=""img/food4.png"" style=""width:200px; border:14px solid green;"">","null","","","","","","","","","",""
"","image-keyboard-response","114","44827","0.0-114.0","3SBEHTYCWOPJIHUCAD4XNOJR1TYYI6","A3AHD1NV5XCOF","3D1UCPY6GGVNRONHL4UEVMXCHLT38H","","25","img/food4.png","74","28","1","0","3","1","1,0.5,0,1,0.5,0,0.5,0,1","0.5,0,1,0.5,0,1,0,1,0.5","2","",""
"","html-keyboard-response","115","45176","0.0-115.0","3SBEHTYCWOPJIHUCAD4XNOJR1TYYI6","A3AHD1NV5XCOF","3D1UCPY6GGVNRONHL4UEVMXCHLT38H","","null","<img src=""img/food4.png"" style=""width:200px;border:14px solid red;"">","null","","","","","","","","","",""
"","image-keyboard-response","116","45214","0.0-116.0","3SBEHTYCWOPJIHUCAD4XNOJR1TYYI6","A3AHD1NV5XCOF","3D1UCPY6GGVNRONHL4UEVMXCHLT38H","","37","img/food4.png","76","38","3","0","3","1","1,0.5,0,1,0.5,0,0.5,0,1","0.5,0,1,0.5,0,1,0,1,0.5","2","",""
"","html-keyboard-response","117","45518","0.0-117.0","3SBEHTYCWOPJIHUCAD4XNOJR1TYYI6","A3AHD1NV5XCOF","3D1UCPY6GGVNRONHL4UEVMXCHLT38H","","null","<img src=""img/food4.png"" style=""width:200px;border:14px solid red;"">","null","","","","","","","","","",""
"","image-keyboard-response","118","45541","0.0-118.0","3SBEHTYCWOPJIHUCAD4XNOJR1TYYI6","A3AHD1NV5XCOF","3D1UCPY6GGVNRONHL4UEVMXCHLT38H","","22","img/food1.png","76","24","3","1","2","1","1,0.5,0,1,0.5,0,0.5,0,1","0.5,0,1,0.5,0,1,0,1,0.5","2","",""
"","html-keyboard-response","119","45843","0.0-119.0","3SBEHTYCWOPJIHUCAD4XNOJR1TYYI6","A3AHD1NV5XCOF","3D1UCPY6GGVNRONHL4UEVMXCHLT38H","","null","<img src=""img/food1.png"" style=""width:200px; border:14px solid green;"">","null","","","","","","","","","",""
"","image-keyboard-response","120","45874","0.0-120.0","3SBEHTYCWOPJIHUCAD4XNOJR1TYYI6","A3AHD1NV5XCOF","3D1UCPY6GGVNRONHL4UEVMXCHLT38H","","30","img/food5.png","75","30","2","0","1","1","1,0.5,0,1,0.5,0,0.5,0,1","0.5,0,1,0.5,0,1,0,1,0.5","2","",""
"","html-keyboard-response","121","46243","0.0-121.0","3SBEHTYCWOPJIHUCAD4XNOJR1TYYI6","A3AHD1NV5XCOF","3D1UCPY6GGVNRONHL4UEVMXCHLT38H","","null","<img src=""img/food5.png"" style=""width:200px;border:14px solid red;"">","null","","","","","","","","","",""
"","image-keyboard-response","122","46309","0.0-122.0","3SBEHTYCWOPJIHUCAD4XNOJR1TYYI6","A3AHD1NV5XCOF","3D1UCPY6GGVNRONHL4UEVMXCHLT38H","","65","img/food4.png","74","67","1","0","3","1","1,0.5,0,1,0.5,0,0.5,0,1","0.5,0,1,0.5,0,1,0,1,0.5","2","",""
"","html-keyboard-response","123","46633","0.0-123.0","3SBEHTYCWOPJIHUCAD4XNOJR1TYYI6","A3AHD1NV5XCOF","3D1UCPY6GGVNRONHL4UEVMXCHLT38H","","null","<img src=""img/food4.png"" style=""width:200px;border:14px solid red;"">","null","","","","","","","","","",""
"","image-keyboard-response","124","46759","0.0-124.0","3SBEHTYCWOPJIHUCAD4XNOJR1TYYI6","A3AHD1NV5XCOF","3D1UCPY6GGVNRONHL4UEVMXCHLT38H","","124","img/food4.png","75","126","2","1","3","1","1,0.5,0,1,0.5,0,0.5,0,1","0.5,0,1,0.5,0,1,0,1,0.5","2","",""
"","html-keyboard-response","125","47061","0.0-125.0","3SBEHTYCWOPJIHUCAD4XNOJR1TYYI6","A3AHD1NV5XCOF","3D1UCPY6GGVNRONHL4UEVMXCHLT38H","","null","<img src=""img/food4.png"" style=""width:200px; border:14px solid green;"">","null","","","","","","","","","",""
"","image-keyboard-response","126","47110","0.0-126.0","3SBEHTYCWOPJIHUCAD4XNOJR1TYYI6","A3AHD1NV5XCOF","3D1UCPY6GGVNRONHL4UEVMXCHLT38H","","47","img/food4.png","75","48","2","1","3","1","1,0.5,0,1,0.5,0,0.5,0,1","0.5,0,1,0.5,0,1,0,1,0.5","2","",""
"","html-keyboard-response","127","47414","0.0-127.0","3SBEHTYCWOPJIHUCAD4XNOJR1TYYI6","A3AHD1NV5XCOF","3D1UCPY6GGVNRONHL4UEVMXCHLT38H","","null","<img src=""img/food4.png"" style=""width:200px; border:14px solid green;"">","null","","","","","","","","","",""
"","image-keyboard-response","128","47437","0.0-128.0","3SBEHTYCWOPJIHUCAD4XNOJR1TYYI6","A3AHD1NV5XCOF","3D1UCPY6GGVNRONHL4UEVMXCHLT38H","","18","img/food1.png","76","26","3","1","2","1","1,0.5,0,1,0.5,0,0.5,0,1","0.5,0,1,0.5,0,1,0,1,0.5","2","",""
"","html-keyboard-response","129","47857","0.0-129.0","3SBEHTYCWOPJIHUCAD4XNOJR1TYYI6","A3AHD1NV5XCOF","3D1UCPY6GGVNRONHL4UEVMXCHLT38H","","null","<img src=""img/food1.png"" style=""width:200px; border:14px solid green;"">","null","","","","","","","","","",""
"","image-keyboard-response","130","47886","0.0-130.0","3SBEHTYCWOPJIHUCAD4XNOJR1TYYI6","A3AHD1NV5XCOF","3D1UCPY6GGVNRONHL4UEVMXCHLT38H","","21","img/food4.png","74","22","1","0","3","1","1,0.5,0,1,0.5,0,0.5,0,1","0.5,0,1,0.5,0,1,0,1,0.5","2","",""
"","html-keyboard-response","131","48188","0.0-131.0","3SBEHTYCWOPJIHUCAD4XNOJR1TYYI6","A3AHD1NV5XCOF","3D1UCPY6GGVNRONHL4UEVMXCHLT38H","","null","<img src=""img/food4.png"" style=""width:200px;border:14px solid red;"">","null","","","","","","","","","",""
"","image-keyboard-response","132","48252","0.0-132.0","3SBEHTYCWOPJIHUCAD4XNOJR1TYYI6","A3AHD1NV5XCOF","3D1UCPY6GGVNRONHL4UEVMXCHLT38H","","63","img/food5.png","76","64","3","1","1","1","1,0.5,0,1,0.5,0,0.5,0,1","0.5,0,1,0.5,0,1,0,1,0.5","2","",""
"","html-keyboard-response","133","48556","0.0-133.0","3SBEHTYCWOPJIHUCAD4XNOJR1TYYI6","A3AHD1NV5XCOF","3D1UCPY6GGVNRONHL4UEVMXCHLT38H","","null","<img src=""img/food5.png"" style=""width:200px; border:14px solid green;"">","null","","","","","","","","","",""
"","image-keyboard-response","134","48638","0.0-134.0","3SBEHTYCWOPJIHUCAD4XNOJR1TYYI6","A3AHD1NV5XCOF","3D1UCPY6GGVNRONHL4UEVMXCHLT38H","","76","img/food5.png","74","82","1","0","1","1","1,0.5,0,1,0.5,0,0.5,0,1","0.5,0,1,0.5,0,1,0,1,0.5","2","",""
"","html-keyboard-response","135","48944","0.0-135.0","3SBEHTYCWOPJIHUCAD4XNOJR1TYYI6","A3AHD1NV5XCOF","3D1UCPY6GGVNRONHL4UEVMXCHLT38H","","null","<img src=""img/food5.png"" style=""width:200px;border:14px solid red;"">","null","","","","","","","","","",""
"","image-keyboard-response","136","49357","0.0-136.0","3SBEHTYCWOPJIHUCAD4XNOJR1TYYI6","A3AHD1NV5XCOF","3D1UCPY6GGVNRONHL4UEVMXCHLT38H","","411","img/food5.png","75","412","2","0","1","1","1,0.5,0,1,0.5,0,0.5,0,1","0.5,0,1,0.5,0,1,0,1,0.5","2","",""
"","html-keyboard-response","137","49847","0.0-137.0","3SBEHTYCWOPJIHUCAD4XNOJR1TYYI6","A3AHD1NV5XCOF","3D1UCPY6GGVNRONHL4UEVMXCHLT38H","","null","<img src=""img/food5.png"" style=""width:200px;border:14px solid red;"">","null","","","","","","","","","",""
"","image-keyboard-response","138","49898","0.0-138.0","3SBEHTYCWOPJIHUCAD4XNOJR1TYYI6","A3AHD1NV5XCOF","3D1UCPY6GGVNRONHL4UEVMXCHLT38H","","50","img/food5.png","75","51","2","0","1","1","1,0.5,0,1,0.5,0,0.5,0,1","0.5,0,1,0.5,0,1,0,1,0.5","2","",""
"","html-keyboard-response","139","50219","0.0-139.0","3SBEHTYCWOPJIHUCAD4XNOJR1TYYI6","A3AHD1NV5XCOF","3D1UCPY6GGVNRONHL4UEVMXCHLT38H","","null","<img src=""img/food5.png"" style=""width:200px;border:14px solid red;"">","null","","","","","","","","","",""
"","image-keyboard-response","140","50231","0.0-140.0","3SBEHTYCWOPJIHUCAD4XNOJR1TYYI6","A3AHD1NV5XCOF","3D1UCPY6GGVNRONHL4UEVMXCHLT38H","","11","img/food1.png","76","12","3","1","2","1","1,0.5,0,1,0.5,0,0.5,0,1","0.5,0,1,0.5,0,1,0,1,0.5","2","",""
"","html-keyboard-response","141","50566","0.0-141.0","3SBEHTYCWOPJIHUCAD4XNOJR1TYYI6","A3AHD1NV5XCOF","3D1UCPY6GGVNRONHL4UEVMXCHLT38H","","null","<img src=""img/food1.png"" style=""width:200px; border:14px solid green;"">","null","","","","","","","","","",""
"","image-keyboard-response","142","50594","0.0-142.0","3SBEHTYCWOPJIHUCAD4XNOJR1TYYI6","A3AHD1NV5XCOF","3D1UCPY6GGVNRONHL4UEVMXCHLT38H","","26","img/food1.png","75","27","2","0","2","1","1,0.5,0,1,0.5,0,0.5,0,1","0.5,0,1,0.5,0,1,0,1,0.5","2","",""
"","html-keyboard-response","143","50898","0.0-143.0","3SBEHTYCWOPJIHUCAD4XNOJR1TYYI6","A3AHD1NV5XCOF","3D1UCPY6GGVNRONHL4UEVMXCHLT38H","","null","<img src=""img/food1.png"" style=""width:200px;border:14px solid red;"">","null","","","","","","","","","",""
"","image-keyboard-response","144","51091","0.0-144.0","3SBEHTYCWOPJIHUCAD4XNOJR1TYYI6","A3AHD1NV5XCOF","3D1UCPY6GGVNRONHL4UEVMXCHLT38H","","187","img/food1.png","74","189","1","1","2","1","1,0.5,0,1,0.5,0,0.5,0,1","0.5,0,1,0.5,0,1,0,1,0.5","2","",""
"","html-keyboard-response","145","51399","0.0-145.0","3SBEHTYCWOPJIHUCAD4XNOJR1TYYI6","A3AHD1NV5XCOF","3D1UCPY6GGVNRONHL4UEVMXCHLT38H","","null","<img src=""img/food1.png"" style=""width:200px; border:14px solid green;"">","null","","","","","","","","","",""
"","image-keyboard-response","146","51461","0.0-146.0","3SBEHTYCWOPJIHUCAD4XNOJR1TYYI6","A3AHD1NV5XCOF","3D1UCPY6GGVNRONHL4UEVMXCHLT38H","","61","img/food4.png","76","63","3","0","3","1","1,0.5,0,1,0.5,0,0.5,0,1","0.5,0,1,0.5,0,1,0,1,0.5","2","",""
"","html-keyboard-response","147","51898","0.0-147.0","3SBEHTYCWOPJIHUCAD4XNOJR1TYYI6","A3AHD1NV5XCOF","3D1UCPY6GGVNRONHL4UEVMXCHLT38H","","null","<img src=""img/food4.png"" style=""width:200px;border:14px solid red;"">","null","","","","","","","","","",""
"","image-keyboard-response","148","51938","0.0-148.0","3SBEHTYCWOPJIHUCAD4XNOJR1TYYI6","A3AHD1NV5XCOF","3D1UCPY6GGVNRONHL4UEVMXCHLT38H","","39","img/food1.png","74","40","1","0","2","1","1,0.5,0,1,0.5,0,0.5,0,1","0.5,0,1,0.5,0,1,0,1,0.5","2","",""
"","html-keyboard-response","149","52409","0.0-149.0","3SBEHTYCWOPJIHUCAD4XNOJR1TYYI6","A3AHD1NV5XCOF","3D1UCPY6GGVNRONHL4UEVMXCHLT38H","","null","<img src=""img/food1.png"" style=""width:200px;border:14px solid red;"">","null","","","","","","","","","",""
"","image-keyboard-response","150","52887","0.0-150.0","3SBEHTYCWOPJIHUCAD4XNOJR1TYYI6","A3AHD1NV5XCOF","3D1UCPY6GGVNRONHL4UEVMXCHLT38H","","477","img/food4.png","75","477","2","1","3","1","1,0.5,0,1,0.5,0,0.5,0,1","0.5,0,1,0.5,0,1,0,1,0.5","2","",""
"","html-keyboard-response","151","53253","0.0-151.0","3SBEHTYCWOPJIHUCAD4XNOJR1TYYI6","A3AHD1NV5XCOF","3D1UCPY6GGVNRONHL4UEVMXCHLT38H","","null","<img src=""img/food4.png"" style=""width:200px; border:14px solid green;"">","null","","","","","","","","","",""
"","image-keyboard-response","152","53274","0.0-152.0","3SBEHTYCWOPJIHUCAD4XNOJR1TYYI6","A3AHD1NV5XCOF","3D1UCPY6GGVNRONHL4UEVMXCHLT38H","","18","img/food1.png","76","20","3","1","2","1","1,0.5,0,1,0.5,0,0.5,0,1","0.5,0,1,0.5,0,1,0,1,0.5","2","",""
"","html-keyboard-response","153","53597","0.0-153.0","3SBEHTYCWOPJIHUCAD4XNOJR1TYYI6","A3AHD1NV5XCOF","3D1UCPY6GGVNRONHL4UEVMXCHLT38H","","null","<img src=""img/food1.png"" style=""width:200px; border:14px solid green;"">","null","","","","","","","","","",""
"","image-keyboard-response","154","54510","0.0-154.0","3SBEHTYCWOPJIHUCAD4XNOJR1TYYI6","A3AHD1NV5XCOF","3D1UCPY6GGVNRONHL4UEVMXCHLT38H","","912","img/food4.png","76","913","3","1","3","1","1,0.5,0,1,0.5,0,0.5,0,1","0.5,0,1,0.5,0,1,0,1,0.5","2","",""
"","html-keyboard-response","155","54820","0.0-155.0","3SBEHTYCWOPJIHUCAD4XNOJR1TYYI6","A3AHD1NV5XCOF","3D1UCPY6GGVNRONHL4UEVMXCHLT38H","","null","<img src=""img/food4.png"" style=""width:200px; border:14px solid green;"">","null","","","","","","","","","",""
"","image-keyboard-response","156","54832","0.0-156.0","3SBEHTYCWOPJIHUCAD4XNOJR1TYYI6","A3AHD1NV5XCOF","3D1UCPY6GGVNRONHL4UEVMXCHLT38H","","10","img/food1.png","76","12","3","1","2","1","1,0.5,0,1,0.5,0,0.5,0,1","0.5,0,1,0.5,0,1,0,1,0.5","2","",""
"","html-keyboard-response","157","55140","0.0-157.0","3SBEHTYCWOPJIHUCAD4XNOJR1TYYI6","A3AHD1NV5XCOF","3D1UCPY6GGVNRONHL4UEVMXCHLT38H","","null","<img src=""img/food1.png"" style=""width:200px; border:14px solid green;"">","null","","","","","","","","","",""
"","image-keyboard-response","158","55247","0.0-158.0","3SBEHTYCWOPJIHUCAD4XNOJR1TYYI6","A3AHD1NV5XCOF","3D1UCPY6GGVNRONHL4UEVMXCHLT38H","","105","img/food5.png","75","106","2","0","1","1","1,0.5,0,1,0.5,0,0.5,0,1","0.5,0,1,0.5,0,1,0,1,0.5","2","",""
"","html-keyboard-response","159","55549","0.0-159.0","3SBEHTYCWOPJIHUCAD4XNOJR1TYYI6","A3AHD1NV5XCOF","3D1UCPY6GGVNRONHL4UEVMXCHLT38H","","null","<img src=""img/food5.png"" style=""width:200px;border:14px solid red;"">","null","","","","","","","","","",""
"","image-keyboard-response","160","56303","0.0-160.0","3SBEHTYCWOPJIHUCAD4XNOJR1TYYI6","A3AHD1NV5XCOF","3D1UCPY6GGVNRONHL4UEVMXCHLT38H","","752","img/food1.png","74","754","1","0","2","1","1,0.5,0,1,0.5,0,0.5,0,1","0.5,0,1,0.5,0,1,0,1,0.5","2","",""
"","html-keyboard-response","161","56611","0.0-161.0","3SBEHTYCWOPJIHUCAD4XNOJR1TYYI6","A3AHD1NV5XCOF","3D1UCPY6GGVNRONHL4UEVMXCHLT38H","","null","<img src=""img/food1.png"" style=""width:200px;border:14px solid red;"">","null","","","","","","","","","",""
"","image-keyboard-response","162","56852","0.0-162.0","3SBEHTYCWOPJIHUCAD4XNOJR1TYYI6","A3AHD1NV5XCOF","3D1UCPY6GGVNRONHL4UEVMXCHLT38H","","240","img/food4.png","75","241","2","1","3","1","1,0.5,0,1,0.5,0,0.5,0,1","0.5,0,1,0.5,0,1,0,1,0.5","2","",""
"","html-keyboard-response","163","57162","0.0-163.0","3SBEHTYCWOPJIHUCAD4XNOJR1TYYI6","A3AHD1NV5XCOF","3D1UCPY6GGVNRONHL4UEVMXCHLT38H","","null","<img src=""img/food4.png"" style=""width:200px; border:14px solid green;"">","null","","","","","","","","","",""
"","image-keyboard-response","164","57198","0.0-164.0","3SBEHTYCWOPJIHUCAD4XNOJR1TYYI6","A3AHD1NV5XCOF","3D1UCPY6GGVNRONHL4UEVMXCHLT38H","","35","img/food1.png","74","35","1","1","2","1","1,0.5,0,1,0.5,0,0.5,0,1","0.5,0,1,0.5,0,1,0,1,0.5","2","",""
"","html-keyboard-response","165","57762","0.0-165.0","3SBEHTYCWOPJIHUCAD4XNOJR1TYYI6","A3AHD1NV5XCOF","3D1UCPY6GGVNRONHL4UEVMXCHLT38H","","null","<img src=""img/food1.png"" style=""width:200px; border:14px solid green;"">","null","","","","","","","","","",""
"","image-keyboard-response","166","57857","0.0-166.0","3SBEHTYCWOPJIHUCAD4XNOJR1TYYI6","A3AHD1NV5XCOF","3D1UCPY6GGVNRONHL4UEVMXCHLT38H","","94","img/food4.png","76","95","3","1","3","1","1,0.5,0,1,0.5,0,0.5,0,1","0.5,0,1,0.5,0,1,0,1,0.5","2","",""
"","html-keyboard-response","167","58161","0.0-167.0","3SBEHTYCWOPJIHUCAD4XNOJR1TYYI6","A3AHD1NV5XCOF","3D1UCPY6GGVNRONHL4UEVMXCHLT38H","","null","<img src=""img/food4.png"" style=""width:200px; border:14px solid green;"">","null","","","","","","","","","",""
"","image-keyboard-response","168","58189","0.0-168.0","3SBEHTYCWOPJIHUCAD4XNOJR1TYYI6","A3AHD1NV5XCOF","3D1UCPY6GGVNRONHL4UEVMXCHLT38H","","27","img/food4.png","75","28","2","1","3","1","1,0.5,0,1,0.5,0,0.5,0,1","0.5,0,1,0.5,0,1,0,1,0.5","2","",""
"","html-keyboard-response","169","58491","0.0-169.0","3SBEHTYCWOPJIHUCAD4XNOJR1TYYI6","A3AHD1NV5XCOF","3D1UCPY6GGVNRONHL4UEVMXCHLT38H","","null","<img src=""img/food4.png"" style=""width:200px; border:14px solid green;"">","null","","","","","","","","","",""
"","image-keyboard-response","170","58563","0.0-170.0","3SBEHTYCWOPJIHUCAD4XNOJR1TYYI6","A3AHD1NV5XCOF","3D1UCPY6GGVNRONHL4UEVMXCHLT38H","","71","img/food4.png","75","72","2","1","3","1","1,0.5,0,1,0.5,0,0.5,0,1","0.5,0,1,0.5,0,1,0,1,0.5","2","",""
"","html-keyboard-response","171","58991","0.0-171.0","3SBEHTYCWOPJIHUCAD4XNOJR1TYYI6","A3AHD1NV5XCOF","3D1UCPY6GGVNRONHL4UEVMXCHLT38H","","null","<img src=""img/food4.png"" style=""width:200px; border:14px solid green;"">","null","","","","","","","","","",""
"","image-keyboard-response","172","59701","0.0-172.0","3SBEHTYCWOPJIHUCAD4XNOJR1TYYI6","A3AHD1NV5XCOF","3D1UCPY6GGVNRONHL4UEVMXCHLT38H","","706","img/food5.png","74","709","1","1","1","1","1,0.5,0,1,0.5,0,0.5,0,1","0.5,0,1,0.5,0,1,0,1,0.5","2","",""
"","html-keyboard-response","173","60003","0.0-173.0","3SBEHTYCWOPJIHUCAD4XNOJR1TYYI6","A3AHD1NV5XCOF","3D1UCPY6GGVNRONHL4UEVMXCHLT38H","","null","<img src=""img/food5.png"" style=""width:200px; border:14px solid green;"">","null","","","","","","","","","",""
"","image-keyboard-response","174","60034","0.0-174.0","3SBEHTYCWOPJIHUCAD4XNOJR1TYYI6","A3AHD1NV5XCOF","3D1UCPY6GGVNRONHL4UEVMXCHLT38H","","31","img/food1.png","76","31","3","1","2","1","1,0.5,0,1,0.5,0,0.5,0,1","0.5,0,1,0.5,0,1,0,1,0.5","2","",""
"","html-keyboard-response","175","60499","0.0-175.0","3SBEHTYCWOPJIHUCAD4XNOJR1TYYI6","A3AHD1NV5XCOF","3D1UCPY6GGVNRONHL4UEVMXCHLT38H","","null","<img src=""img/food1.png"" style=""width:200px; border:14px solid green;"">","null","","","","","","","","","",""
"","image-keyboard-response","176","60623","0.0-176.0","3SBEHTYCWOPJIHUCAD4XNOJR1TYYI6","A3AHD1NV5XCOF","3D1UCPY6GGVNRONHL4UEVMXCHLT38H","","122","img/food1.png","75","123","2","0","2","1","1,0.5,0,1,0.5,0,0.5,0,1","0.5,0,1,0.5,0,1,0,1,0.5","2","",""
"","html-keyboard-response","177","60925","0.0-177.0","3SBEHTYCWOPJIHUCAD4XNOJR1TYYI6","A3AHD1NV5XCOF","3D1UCPY6GGVNRONHL4UEVMXCHLT38H","","null","<img src=""img/food1.png"" style=""width:200px;border:14px solid red;"">","null","","","","","","","","","",""
"","image-keyboard-response","178","60952","0.0-178.0","3SBEHTYCWOPJIHUCAD4XNOJR1TYYI6","A3AHD1NV5XCOF","3D1UCPY6GGVNRONHL4UEVMXCHLT38H","","25","img/food1.png","76","26","3","1","2","1","1,0.5,0,1,0.5,0,0.5,0,1","0.5,0,1,0.5,0,1,0,1,0.5","2","",""
"","html-keyboard-response","179","61384","0.0-179.0","3SBEHTYCWOPJIHUCAD4XNOJR1TYYI6","A3AHD1NV5XCOF","3D1UCPY6GGVNRONHL4UEVMXCHLT38H","","null","<img src=""img/food1.png"" style=""width:200px; border:14px solid green;"">","null","","","","","","","","","",""
"","image-keyboard-response","180","61904","0.0-180.0","3SBEHTYCWOPJIHUCAD4XNOJR1TYYI6","A3AHD1NV5XCOF","3D1UCPY6GGVNRONHL4UEVMXCHLT38H","","515","img/food5.png","74","516","1","1","1","1","1,0.5,0,1,0.5,0,0.5,0,1","0.5,0,1,0.5,0,1,0,1,0.5","2","",""
"","html-keyboard-response","181","62208","0.0-181.0","3SBEHTYCWOPJIHUCAD4XNOJR1TYYI6","A3AHD1NV5XCOF","3D1UCPY6GGVNRONHL4UEVMXCHLT38H","","null","<img src=""img/food5.png"" style=""width:200px; border:14px solid green;"">","null","","","","","","","","","",""
"","html-keyboard-response","182","73728","0.0-182.0","3SBEHTYCWOPJIHUCAD4XNOJR1TYYI6","A3AHD1NV5XCOF","3D1UCPY6GGVNRONHL4UEVMXCHLT38H","","","","","","","","","","","","","",""
"","instructions","183","75837","0.0-183.0","3SBEHTYCWOPJIHUCAD4XNOJR1TYYI6","A3AHD1NV5XCOF","3D1UCPY6GGVNRONHL4UEVMXCHLT38H","[{""page_index"":0,""viewing_time"":1094},{""page_index"":1,""viewing_time"":1013}]","2107","","","","","","","","","","","",""
"","image-keyboard-response","184","76894","0.0-184.0","3SBEHTYCWOPJIHUCAD4XNOJR1TYYI6","A3AHD1NV5XCOF","3D1UCPY6GGVNRONHL4UEVMXCHLT38H","","","img/food2.png","","1057","-1","0","1","2","1,0.5,0,1,0.5,0,0.5,0,1","0.5,0,1,0.5,0,1,0,1,0.5","2","true",""
"","html-keyboard-response","185","77198","0.0-185.0","3SBEHTYCWOPJIHUCAD4XNOJR1TYYI6","A3AHD1NV5XCOF","3D1UCPY6GGVNRONHL4UEVMXCHLT38H","","null","<img src=""img/food2.png"" style=""width:200px;border:14px solid red;"">","null","","","","","","","","","",""
"","html-keyboard-response","186","83168","0.0-186.0-0.0","3SBEHTYCWOPJIHUCAD4XNOJR1TYYI6","A3AHD1NV5XCOF","3D1UCPY6GGVNRONHL4UEVMXCHLT38H","","","","","","","","","","","","","",""
"","image-keyboard-response","187","83196","0.0-187.0","3SBEHTYCWOPJIHUCAD4XNOJR1TYYI6","A3AHD1NV5XCOF","3D1UCPY6GGVNRONHL4UEVMXCHLT38H","","25","img/food2.png","74","27","1","0","1","2","1,0.5,0,1,0.5,0,0.5,0,1","0.5,0,1,0.5,0,1,0,1,0.5","2","false",""
"","html-keyboard-response","188","83497","0.0-188.0","3SBEHTYCWOPJIHUCAD4XNOJR1TYYI6","A3AHD1NV5XCOF","3D1UCPY6GGVNRONHL4UEVMXCHLT38H","","null","<img src=""img/food2.png"" style=""width:200px;border:14px solid red;"">","null","","","","","","","","","",""
"","image-keyboard-response","189","83556","0.0-190.0","3SBEHTYCWOPJIHUCAD4XNOJR1TYYI6","A3AHD1NV5XCOF","3D1UCPY6GGVNRONHL4UEVMXCHLT38H","","57","img/food6.png","74","58","1","0","3","2","1,0.5,0,1,0.5,0,0.5,0,1","0.5,0,1,0.5,0,1,0,1,0.5","2","false",""
"","html-keyboard-response","190","83917","0.0-191.0","3SBEHTYCWOPJIHUCAD4XNOJR1TYYI6","A3AHD1NV5XCOF","3D1UCPY6GGVNRONHL4UEVMXCHLT38H","","null","<img src=""img/food6.png"" style=""width:200px;border:14px solid red;"">","null","","","","","","","","","",""
"","image-keyboard-response","191","84004","0.0-193.0","3SBEHTYCWOPJIHUCAD4XNOJR1TYYI6","A3AHD1NV5XCOF","3D1UCPY6GGVNRONHL4UEVMXCHLT38H","","86","img/food3.png","74","86","1","0","2","2","1,0.5,0,1,0.5,0,0.5,0,1","0.5,0,1,0.5,0,1,0,1,0.5","2","false",""
"","html-keyboard-response","192","84307","0.0-194.0","3SBEHTYCWOPJIHUCAD4XNOJR1TYYI6","A3AHD1NV5XCOF","3D1UCPY6GGVNRONHL4UEVMXCHLT38H","","null","<img src=""img/food3.png"" style=""width:200px;border:14px solid red;"">","null","","","","","","","","","",""
"","image-keyboard-response","193","84323","0.0-196.0","3SBEHTYCWOPJIHUCAD4XNOJR1TYYI6","A3AHD1NV5XCOF","3D1UCPY6GGVNRONHL4UEVMXCHLT38H","","12","img/food3.png","76","12","3","1","2","2","1,0.5,0,1,0.5,0,0.5,0,1","0.5,0,1,0.5,0,1,0,1,0.5","2","false",""
"","html-keyboard-response","194","84628","0.0-197.0","3SBEHTYCWOPJIHUCAD4XNOJR1TYYI6","A3AHD1NV5XCOF","3D1UCPY6GGVNRONHL4UEVMXCHLT38H","","null","<img src=""img/food3.png"" style=""width:200px; border:14px solid green;"">","null","","","","","","","","","",""
"","image-keyboard-response","195","84642","0.0-199.0","3SBEHTYCWOPJIHUCAD4XNOJR1TYYI6","A3AHD1NV5XCOF","3D1UCPY6GGVNRONHL4UEVMXCHLT38H","","12","img/food2.png","76","13","3","1","1","2","1,0.5,0,1,0.5,0,0.5,0,1","0.5,0,1,0.5,0,1,0,1,0.5","2","false",""
"","html-keyboard-response","196","84992","0.0-200.0","3SBEHTYCWOPJIHUCAD4XNOJR1TYYI6","A3AHD1NV5XCOF","3D1UCPY6GGVNRONHL4UEVMXCHLT38H","","null","<img src=""img/food2.png"" style=""width:200px; border:14px solid green;"">","null","","","","","","","","","",""
"","image-keyboard-response","197","85489","0.0-202.0","3SBEHTYCWOPJIHUCAD4XNOJR1TYYI6","A3AHD1NV5XCOF","3D1UCPY6GGVNRONHL4UEVMXCHLT38H","","494","img/food2.png","76","496","3","1","1","2","1,0.5,0,1,0.5,0,0.5,0,1","0.5,0,1,0.5,0,1,0,1,0.5","2","false",""
"","html-keyboard-response","198","85807","0.0-203.0","3SBEHTYCWOPJIHUCAD4XNOJR1TYYI6","A3AHD1NV5XCOF","3D1UCPY6GGVNRONHL4UEVMXCHLT38H","","null","<img src=""img/food2.png"" style=""width:200px; border:14px solid green;"">","null","","","","","","","","","",""
"","image-keyboard-response","199","85906","0.0-205.0","3SBEHTYCWOPJIHUCAD4XNOJR1TYYI6","A3AHD1NV5XCOF","3D1UCPY6GGVNRONHL4UEVMXCHLT38H","","93","img/food3.png","75","93","2","0","2","2","1,0.5,0,1,0.5,0,0.5,0,1","0.5,0,1,0.5,0,1,0,1,0.5","2","false",""
"","html-keyboard-response","200","86256","0.0-206.0","3SBEHTYCWOPJIHUCAD4XNOJR1TYYI6","A3AHD1NV5XCOF","3D1UCPY6GGVNRONHL4UEVMXCHLT38H","","null","<img src=""img/food3.png"" style=""width:200px;border:14px solid red;"">","null","","","","","","","","","",""
"","image-keyboard-response","201","86636","0.0-208.0","3SBEHTYCWOPJIHUCAD4XNOJR1TYYI6","A3AHD1NV5XCOF","3D1UCPY6GGVNRONHL4UEVMXCHLT38H","","375","img/food2.png","75","378","2","0","1","2","1,0.5,0,1,0.5,0,0.5,0,1","0.5,0,1,0.5,0,1,0,1,0.5","2","false",""
"","html-keyboard-response","202","86938","0.0-209.0","3SBEHTYCWOPJIHUCAD4XNOJR1TYYI6","A3AHD1NV5XCOF","3D1UCPY6GGVNRONHL4UEVMXCHLT38H","","null","<img src=""img/food2.png"" style=""width:200px;border:14px solid red;"">","null","","","","","","","","","",""
"","image-keyboard-response","203","86956","0.0-211.0","3SBEHTYCWOPJIHUCAD4XNOJR1TYYI6","A3AHD1NV5XCOF","3D1UCPY6GGVNRONHL4UEVMXCHLT38H","","15","img/food6.png","74","17","1","0","3","2","1,0.5,0,1,0.5,0,0.5,0,1","0.5,0,1,0.5,0,1,0,1,0.5","2","false",""
"","html-keyboard-response","204","87271","0.0-212.0","3SBEHTYCWOPJIHUCAD4XNOJR1TYYI6","A3AHD1NV5XCOF","3D1UCPY6GGVNRONHL4UEVMXCHLT38H","","null","<img src=""img/food6.png"" style=""width:200px;border:14px solid red;"">","null","","","","","","","","","",""
"","image-keyboard-response","205","87458","0.0-214.0","3SBEHTYCWOPJIHUCAD4XNOJR1TYYI6","A3AHD1NV5XCOF","3D1UCPY6GGVNRONHL4UEVMXCHLT38H","","181","img/food2.png","76","183","3","1","1","2","1,0.5,0,1,0.5,0,0.5,0,1","0.5,0,1,0.5,0,1,0,1,0.5","2","false",""
"","html-keyboard-response","206","87760","0.0-215.0","3SBEHTYCWOPJIHUCAD4XNOJR1TYYI6","A3AHD1NV5XCOF","3D1UCPY6GGVNRONHL4UEVMXCHLT38H","","null","<img src=""img/food2.png"" style=""width:200px; border:14px solid green;"">","null","","","","","","","","","",""
"","image-keyboard-response","207","87864","0.0-217.0","3SBEHTYCWOPJIHUCAD4XNOJR1TYYI6","A3AHD1NV5XCOF","3D1UCPY6GGVNRONHL4UEVMXCHLT38H","","101","img/food6.png","76","103","3","1","3","2","1,0.5,0,1,0.5,0,0.5,0,1","0.5,0,1,0.5,0,1,0,1,0.5","2","false",""
"","html-keyboard-response","208","88267","0.0-218.0","3SBEHTYCWOPJIHUCAD4XNOJR1TYYI6","A3AHD1NV5XCOF","3D1UCPY6GGVNRONHL4UEVMXCHLT38H","","null","<img src=""img/food6.png"" style=""width:200px; border:14px solid green;"">","null","","","","","","","","","",""
"","image-keyboard-response","209","88310","0.0-220.0","3SBEHTYCWOPJIHUCAD4XNOJR1TYYI6","A3AHD1NV5XCOF","3D1UCPY6GGVNRONHL4UEVMXCHLT38H","","40","img/food6.png","74","42","1","0","3","2","1,0.5,0,1,0.5,0,0.5,0,1","0.5,0,1,0.5,0,1,0,1,0.5","2","false",""
"","html-keyboard-response","210","88612","0.0-221.0","3SBEHTYCWOPJIHUCAD4XNOJR1TYYI6","A3AHD1NV5XCOF","3D1UCPY6GGVNRONHL4UEVMXCHLT38H","","null","<img src=""img/food6.png"" style=""width:200px;border:14px solid red;"">","null","","","","","","","","","",""
"","image-keyboard-response","211","88625","0.0-223.0","3SBEHTYCWOPJIHUCAD4XNOJR1TYYI6","A3AHD1NV5XCOF","3D1UCPY6GGVNRONHL4UEVMXCHLT38H","","9","img/food3.png","74","11","1","1","2","2","1,0.5,0,1,0.5,0,0.5,0,1","0.5,0,1,0.5,0,1,0,1,0.5","2","false",""
"","html-keyboard-response","212","88934","0.0-224.0","3SBEHTYCWOPJIHUCAD4XNOJR1TYYI6","A3AHD1NV5XCOF","3D1UCPY6GGVNRONHL4UEVMXCHLT38H","","null","<img src=""img/food3.png"" style=""width:200px; border:14px solid green;"">","null","","","","","","","","","",""
"","image-keyboard-response","213","88954","0.0-226.0","3SBEHTYCWOPJIHUCAD4XNOJR1TYYI6","A3AHD1NV5XCOF","3D1UCPY6GGVNRONHL4UEVMXCHLT38H","","17","img/food3.png","76","19","3","1","2","2","1,0.5,0,1,0.5,0,0.5,0,1","0.5,0,1,0.5,0,1,0,1,0.5","2","false",""
"","html-keyboard-response","214","89257","0.0-227.0","3SBEHTYCWOPJIHUCAD4XNOJR1TYYI6","A3AHD1NV5XCOF","3D1UCPY6GGVNRONHL4UEVMXCHLT38H","","null","<img src=""img/food3.png"" style=""width:200px; border:14px solid green;"">","null","","","","","","","","","",""
"","image-keyboard-response","215","89918","0.0-229.0","3SBEHTYCWOPJIHUCAD4XNOJR1TYYI6","A3AHD1NV5XCOF","3D1UCPY6GGVNRONHL4UEVMXCHLT38H","","658","img/food6.png","74","659","1","0","3","2","1,0.5,0,1,0.5,0,0.5,0,1","0.5,0,1,0.5,0,1,0,1,0.5","2","false",""
"","html-keyboard-response","216","90220","0.0-230.0","3SBEHTYCWOPJIHUCAD4XNOJR1TYYI6","A3AHD1NV5XCOF","3D1UCPY6GGVNRONHL4UEVMXCHLT38H","","null","<img src=""img/food6.png"" style=""width:200px;border:14px solid red;"">","null","","","","","","","","","",""
"","image-keyboard-response","217","90245","0.0-232.0","3SBEHTYCWOPJIHUCAD4XNOJR1TYYI6","A3AHD1NV5XCOF","3D1UCPY6GGVNRONHL4UEVMXCHLT38H","","21","img/food2.png","74","23","1","0","1","2","1,0.5,0,1,0.5,0,0.5,0,1","0.5,0,1,0.5,0,1,0,1,0.5","2","false",""
"","html-keyboard-response","218","90601","0.0-233.0","3SBEHTYCWOPJIHUCAD4XNOJR1TYYI6","A3AHD1NV5XCOF","3D1UCPY6GGVNRONHL4UEVMXCHLT38H","","null","<img src=""img/food2.png"" style=""width:200px;border:14px solid red;"">","null","","","","","","","","","",""
"","image-keyboard-response","219","90735","0.0-235.0","3SBEHTYCWOPJIHUCAD4XNOJR1TYYI6","A3AHD1NV5XCOF","3D1UCPY6GGVNRONHL4UEVMXCHLT38H","","129","img/food6.png","74","132","1","0","3","2","1,0.5,0,1,0.5,0,0.5,0,1","0.5,0,1,0.5,0,1,0,1,0.5","2","false",""
"","html-keyboard-response","220","91037","0.0-236.0","3SBEHTYCWOPJIHUCAD4XNOJR1TYYI6","A3AHD1NV5XCOF","3D1UCPY6GGVNRONHL4UEVMXCHLT38H","","null","<img src=""img/food6.png"" style=""width:200px;border:14px solid red;"">","null","","","","","","","","","",""
"","image-keyboard-response","221","91062","0.0-238.0","3SBEHTYCWOPJIHUCAD4XNOJR1TYYI6","A3AHD1NV5XCOF","3D1UCPY6GGVNRONHL4UEVMXCHLT38H","","21","img/food6.png","76","24","3","0","3","2","1,0.5,0,1,0.5,0,0.5,0,1","0.5,0,1,0.5,0,1,0,1,0.5","2","false",""
"","html-keyboard-response","222","91376","0.0-239.0","3SBEHTYCWOPJIHUCAD4XNOJR1TYYI6","A3AHD1NV5XCOF","3D1UCPY6GGVNRONHL4UEVMXCHLT38H","","null","<img src=""img/food6.png"" style=""width:200px;border:14px solid red;"">","null","","","","","","","","","",""
"","image-keyboard-response","223","91501","0.0-241.0","3SBEHTYCWOPJIHUCAD4XNOJR1TYYI6","A3AHD1NV5XCOF","3D1UCPY6GGVNRONHL4UEVMXCHLT38H","","124","img/food3.png","74","124","1","0","2","2","1,0.5,0,1,0.5,0,0.5,0,1","0.5,0,1,0.5,0,1,0,1,0.5","2","false",""
"","html-keyboard-response","224","91847","0.0-242.0","3SBEHTYCWOPJIHUCAD4XNOJR1TYYI6","A3AHD1NV5XCOF","3D1UCPY6GGVNRONHL4UEVMXCHLT38H","","null","<img src=""img/food3.png"" style=""width:200px;border:14px solid red;"">","null","","","","","","","","","",""
"","image-keyboard-response","225","91897","0.0-244.0","3SBEHTYCWOPJIHUCAD4XNOJR1TYYI6","A3AHD1NV5XCOF","3D1UCPY6GGVNRONHL4UEVMXCHLT38H","","47","img/food2.png","74","49","1","1","1","2","1,0.5,0,1,0.5,0,0.5,0,1","0.5,0,1,0.5,0,1,0,1,0.5","2","false",""
"","html-keyboard-response","226","92200","0.0-245.0","3SBEHTYCWOPJIHUCAD4XNOJR1TYYI6","A3AHD1NV5XCOF","3D1UCPY6GGVNRONHL4UEVMXCHLT38H","","null","<img src=""img/food2.png"" style=""width:200px; border:14px solid green;"">","null","","","","","","","","","",""
"","image-keyboard-response","227","92244","0.0-247.0","3SBEHTYCWOPJIHUCAD4XNOJR1TYYI6","A3AHD1NV5XCOF","3D1UCPY6GGVNRONHL4UEVMXCHLT38H","","34","img/food2.png","76","39","3","1","1","2","1,0.5,0,1,0.5,0,0.5,0,1","0.5,0,1,0.5,0,1,0,1,0.5","2","false",""
"","html-keyboard-response","228","92545","0.0-248.0","3SBEHTYCWOPJIHUCAD4XNOJR1TYYI6","A3AHD1NV5XCOF","3D1UCPY6GGVNRONHL4UEVMXCHLT38H","","null","<img src=""img/food2.png"" style=""width:200px; border:14px solid green;"">","null","","","","","","","","","",""
"","image-keyboard-response","229","92613","0.0-250.0","3SBEHTYCWOPJIHUCAD4XNOJR1TYYI6","A3AHD1NV5XCOF","3D1UCPY6GGVNRONHL4UEVMXCHLT38H","","67","img/food6.png","74","68","1","0","3","2","1,0.5,0,1,0.5,0,0.5,0,1","0.5,0,1,0.5,0,1,0,1,0.5","2","false",""
"","html-keyboard-response","230","92984","0.0-251.0","3SBEHTYCWOPJIHUCAD4XNOJR1TYYI6","A3AHD1NV5XCOF","3D1UCPY6GGVNRONHL4UEVMXCHLT38H","","null","<img src=""img/food6.png"" style=""width:200px;border:14px solid red;"">","null","","","","","","","","","",""
"","image-keyboard-response","231","93010","0.0-253.0","3SBEHTYCWOPJIHUCAD4XNOJR1TYYI6","A3AHD1NV5XCOF","3D1UCPY6GGVNRONHL4UEVMXCHLT38H","","23","img/food2.png","75","24","2","0","1","2","1,0.5,0,1,0.5,0,0.5,0,1","0.5,0,1,0.5,0,1,0,1,0.5","2","false",""
"","html-keyboard-response","232","93325","0.0-254.0","3SBEHTYCWOPJIHUCAD4XNOJR1TYYI6","A3AHD1NV5XCOF","3D1UCPY6GGVNRONHL4UEVMXCHLT38H","","null","<img src=""img/food2.png"" style=""width:200px;border:14px solid red;"">","null","","","","","","","","","",""
"","image-keyboard-response","233","93386","0.0-256.0","3SBEHTYCWOPJIHUCAD4XNOJR1TYYI6","A3AHD1NV5XCOF","3D1UCPY6GGVNRONHL4UEVMXCHLT38H","","61","img/food6.png","74","62","1","0","3","2","1,0.5,0,1,0.5,0,0.5,0,1","0.5,0,1,0.5,0,1,0,1,0.5","2","false",""
"","html-keyboard-response","234","93731","0.0-257.0","3SBEHTYCWOPJIHUCAD4XNOJR1TYYI6","A3AHD1NV5XCOF","3D1UCPY6GGVNRONHL4UEVMXCHLT38H","","null","<img src=""img/food6.png"" style=""width:200px;border:14px solid red;"">","null","","","","","","","","","",""
"","image-keyboard-response","235","93766","0.0-259.0","3SBEHTYCWOPJIHUCAD4XNOJR1TYYI6","A3AHD1NV5XCOF","3D1UCPY6GGVNRONHL4UEVMXCHLT38H","","35","img/food6.png","76","35","3","0","3","2","1,0.5,0,1,0.5,0,0.5,0,1","0.5,0,1,0.5,0,1,0,1,0.5","2","false",""
"","html-keyboard-response","236","94071","0.0-260.0","3SBEHTYCWOPJIHUCAD4XNOJR1TYYI6","A3AHD1NV5XCOF","3D1UCPY6GGVNRONHL4UEVMXCHLT38H","","null","<img src=""img/food6.png"" style=""width:200px;border:14px solid red;"">","null","","","","","","","","","",""
"","image-keyboard-response","237","94075","0.0-262.0","3SBEHTYCWOPJIHUCAD4XNOJR1TYYI6","A3AHD1NV5XCOF","3D1UCPY6GGVNRONHL4UEVMXCHLT38H","","1","img/food3.png","75","2","2","0","2","2","1,0.5,0,1,0.5,0,0.5,0,1","0.5,0,1,0.5,0,1,0,1,0.5","2","false",""
"","html-keyboard-response","238","94430","0.0-263.0","3SBEHTYCWOPJIHUCAD4XNOJR1TYYI6","A3AHD1NV5XCOF","3D1UCPY6GGVNRONHL4UEVMXCHLT38H","","null","<img src=""img/food3.png"" style=""width:200px;border:14px solid red;"">","null","","","","","","","","","",""
"","image-keyboard-response","239","94459","0.0-265.0","3SBEHTYCWOPJIHUCAD4XNOJR1TYYI6","A3AHD1NV5XCOF","3D1UCPY6GGVNRONHL4UEVMXCHLT38H","","25","img/food2.png","75","28","2","0","1","2","1,0.5,0,1,0.5,0,0.5,0,1","0.5,0,1,0.5,0,1,0,1,0.5","2","false",""
"","html-keyboard-response","240","94760","0.0-266.0","3SBEHTYCWOPJIHUCAD4XNOJR1TYYI6","A3AHD1NV5XCOF","3D1UCPY6GGVNRONHL4UEVMXCHLT38H","","null","<img src=""img/food2.png"" style=""width:200px;border:14px solid red;"">","null","","","","","","","","","",""
"","image-keyboard-response","241","94833","0.0-268.0","3SBEHTYCWOPJIHUCAD4XNOJR1TYYI6","A3AHD1NV5XCOF","3D1UCPY6GGVNRONHL4UEVMXCHLT38H","","72","img/food2.png","75","72","2","0","1","2","1,0.5,0,1,0.5,0,0.5,0,1","0.5,0,1,0.5,0,1,0,1,0.5","2","false",""
"","html-keyboard-response","242","95258","0.0-269.0","3SBEHTYCWOPJIHUCAD4XNOJR1TYYI6","A3AHD1NV5XCOF","3D1UCPY6GGVNRONHL4UEVMXCHLT38H","","null","<img src=""img/food2.png"" style=""width:200px;border:14px solid red;"">","null","","","","","","","","","",""
"","image-keyboard-response","243","95286","0.0-271.0","3SBEHTYCWOPJIHUCAD4XNOJR1TYYI6","A3AHD1NV5XCOF","3D1UCPY6GGVNRONHL4UEVMXCHLT38H","","25","img/food6.png","75","27","2","1","3","2","1,0.5,0,1,0.5,0,0.5,0,1","0.5,0,1,0.5,0,1,0,1,0.5","2","false",""
"","html-keyboard-response","244","95588","0.0-272.0","3SBEHTYCWOPJIHUCAD4XNOJR1TYYI6","A3AHD1NV5XCOF","3D1UCPY6GGVNRONHL4UEVMXCHLT38H","","null","<img src=""img/food6.png"" style=""width:200px; border:14px solid green;"">","null","","","","","","","","","",""
"","image-keyboard-response","245","95724","0.0-274.0","3SBEHTYCWOPJIHUCAD4XNOJR1TYYI6","A3AHD1NV5XCOF","3D1UCPY6GGVNRONHL4UEVMXCHLT38H","","134","img/food3.png","76","135","3","1","2","2","1,0.5,0,1,0.5,0,0.5,0,1","0.5,0,1,0.5,0,1,0,1,0.5","2","false",""
"","html-keyboard-response","246","96027","0.0-275.0","3SBEHTYCWOPJIHUCAD4XNOJR1TYYI6","A3AHD1NV5XCOF","3D1UCPY6GGVNRONHL4UEVMXCHLT38H","","null","<img src=""img/food3.png"" style=""width:200px; border:14px solid green;"">","null","","","","","","","","","",""
"","image-keyboard-response","247","96145","0.0-277.0","3SBEHTYCWOPJIHUCAD4XNOJR1TYYI6","A3AHD1NV5XCOF","3D1UCPY6GGVNRONHL4UEVMXCHLT38H","","115","img/food6.png","74","117","1","0","3","2","1,0.5,0,1,0.5,0,0.5,0,1","0.5,0,1,0.5,0,1,0,1,0.5","2","false",""
"","html-keyboard-response","248","96448","0.0-278.0","3SBEHTYCWOPJIHUCAD4XNOJR1TYYI6","A3AHD1NV5XCOF","3D1UCPY6GGVNRONHL4UEVMXCHLT38H","","null","<img src=""img/food6.png"" style=""width:200px;border:14px solid red;"">","null","","","","","","","","","",""
"","image-keyboard-response","249","96475","0.0-280.0","3SBEHTYCWOPJIHUCAD4XNOJR1TYYI6","A3AHD1NV5XCOF","3D1UCPY6GGVNRONHL4UEVMXCHLT38H","","25","img/food6.png","74","28","1","0","3","2","1,0.5,0,1,0.5,0,0.5,0,1","0.5,0,1,0.5,0,1,0,1,0.5","2","false",""
"","html-keyboard-response","250","96779","0.0-281.0","3SBEHTYCWOPJIHUCAD4XNOJR1TYYI6","A3AHD1NV5XCOF","3D1UCPY6GGVNRONHL4UEVMXCHLT38H","","null","<img src=""img/food6.png"" style=""width:200px;border:14px solid red;"">","null","","","","","","","","","",""
"","image-keyboard-response","251","97040","0.0-283.0","3SBEHTYCWOPJIHUCAD4XNOJR1TYYI6","A3AHD1NV5XCOF","3D1UCPY6GGVNRONHL4UEVMXCHLT38H","","256","img/food3.png","76","260","3","1","2","2","1,0.5,0,1,0.5,0,0.5,0,1","0.5,0,1,0.5,0,1,0,1,0.5","2","false",""
"","html-keyboard-response","252","97378","0.0-284.0","3SBEHTYCWOPJIHUCAD4XNOJR1TYYI6","A3AHD1NV5XCOF","3D1UCPY6GGVNRONHL4UEVMXCHLT38H","","null","<img src=""img/food3.png"" style=""width:200px; border:14px solid green;"">","null","","","","","","","","","",""
"","image-keyboard-response","253","97507","0.0-286.0","3SBEHTYCWOPJIHUCAD4XNOJR1TYYI6","A3AHD1NV5XCOF","3D1UCPY6GGVNRONHL4UEVMXCHLT38H","","126","img/food3.png","74","128","1","1","2","2","1,0.5,0,1,0.5,0,0.5,0,1","0.5,0,1,0.5,0,1,0,1,0.5","2","false",""
"","html-keyboard-response","254","97808","0.0-287.0","3SBEHTYCWOPJIHUCAD4XNOJR1TYYI6","A3AHD1NV5XCOF","3D1UCPY6GGVNRONHL4UEVMXCHLT38H","","null","<img src=""img/food3.png"" style=""width:200px; border:14px solid green;"">","null","","","","","","","","","",""
"","image-keyboard-response","255","97844","0.0-289.0","3SBEHTYCWOPJIHUCAD4XNOJR1TYYI6","A3AHD1NV5XCOF","3D1UCPY6GGVNRONHL4UEVMXCHLT38H","","32","img/food2.png","75","34","2","0","1","2","1,0.5,0,1,0.5,0,0.5,0,1","0.5,0,1,0.5,0,1,0,1,0.5","2","false",""
"","html-keyboard-response","256","98147","0.0-290.0","3SBEHTYCWOPJIHUCAD4XNOJR1TYYI6","A3AHD1NV5XCOF","3D1UCPY6GGVNRONHL4UEVMXCHLT38H","","null","<img src=""img/food2.png"" style=""width:200px;border:14px solid red;"">","null","","","","","","","","","",""
"","image-keyboard-response","257","98184","0.0-292.0","3SBEHTYCWOPJIHUCAD4XNOJR1TYYI6","A3AHD1NV5XCOF","3D1UCPY6GGVNRONHL4UEVMXCHLT38H","","34","img/food2.png","76","36","3","1","1","2","1,0.5,0,1,0.5,0,0.5,0,1","0.5,0,1,0.5,0,1,0,1,0.5","2","false",""
"","html-keyboard-response","258","98488","0.0-293.0","3SBEHTYCWOPJIHUCAD4XNOJR1TYYI6","A3AHD1NV5XCOF","3D1UCPY6GGVNRONHL4UEVMXCHLT38H","","null","<img src=""img/food2.png"" style=""width:200px; border:14px solid green;"">","null","","","","","","","","","",""
"","image-keyboard-response","259","98639","0.0-295.0","3SBEHTYCWOPJIHUCAD4XNOJR1TYYI6","A3AHD1NV5XCOF","3D1UCPY6GGVNRONHL4UEVMXCHLT38H","","149","img/food3.png","74","149","1","0","2","2","1,0.5,0,1,0.5,0,0.5,0,1","0.5,0,1,0.5,0,1,0,1,0.5","2","false",""
"","html-keyboard-response","260","98941","0.0-296.0","3SBEHTYCWOPJIHUCAD4XNOJR1TYYI6","A3AHD1NV5XCOF","3D1UCPY6GGVNRONHL4UEVMXCHLT38H","","null","<img src=""img/food3.png"" style=""width:200px;border:14px solid red;"">","null","","","","","","","","","",""
"","image-keyboard-response","261","99068","0.0-298.0","3SBEHTYCWOPJIHUCAD4XNOJR1TYYI6","A3AHD1NV5XCOF","3D1UCPY6GGVNRONHL4UEVMXCHLT38H","","119","img/food3.png","76","121","3","1","2","2","1,0.5,0,1,0.5,0,0.5,0,1","0.5,0,1,0.5,0,1,0,1,0.5","2","false",""
"","html-keyboard-response","262","99370","0.0-299.0","3SBEHTYCWOPJIHUCAD4XNOJR1TYYI6","A3AHD1NV5XCOF","3D1UCPY6GGVNRONHL4UEVMXCHLT38H","","null","<img src=""img/food3.png"" style=""width:200px; border:14px solid green;"">","null","","","","","","","","","",""
"","image-keyboard-response","263","99524","0.0-301.0","3SBEHTYCWOPJIHUCAD4XNOJR1TYYI6","A3AHD1NV5XCOF","3D1UCPY6GGVNRONHL4UEVMXCHLT38H","","150","img/food6.png","76","152","3","0","3","2","1,0.5,0,1,0.5,0,0.5,0,1","0.5,0,1,0.5,0,1,0,1,0.5","2","false",""
"","html-keyboard-response","264","99826","0.0-302.0","3SBEHTYCWOPJIHUCAD4XNOJR1TYYI6","A3AHD1NV5XCOF","3D1UCPY6GGVNRONHL4UEVMXCHLT38H","","null","<img src=""img/food6.png"" style=""width:200px;border:14px solid red;"">","null","","","","","","","","","",""
"","image-keyboard-response","265","99894","0.0-304.0","3SBEHTYCWOPJIHUCAD4XNOJR1TYYI6","A3AHD1NV5XCOF","3D1UCPY6GGVNRONHL4UEVMXCHLT38H","","65","img/food2.png","74","68","1","1","1","2","1,0.5,0,1,0.5,0,0.5,0,1","0.5,0,1,0.5,0,1,0,1,0.5","2","false",""
"","html-keyboard-response","266","100324","0.0-305.0","3SBEHTYCWOPJIHUCAD4XNOJR1TYYI6","A3AHD1NV5XCOF","3D1UCPY6GGVNRONHL4UEVMXCHLT38H","","null","<img src=""img/food2.png"" style=""width:200px; border:14px solid green;"">","null","","","","","","","","","",""
"","image-keyboard-response","267","100357","0.0-307.0","3SBEHTYCWOPJIHUCAD4XNOJR1TYYI6","A3AHD1NV5XCOF","3D1UCPY6GGVNRONHL4UEVMXCHLT38H","","29","img/food3.png","76","31","3","1","2","2","1,0.5,0,1,0.5,0,0.5,0,1","0.5,0,1,0.5,0,1,0,1,0.5","2","false",""
"","html-keyboard-response","268","100660","0.0-308.0","3SBEHTYCWOPJIHUCAD4XNOJR1TYYI6","A3AHD1NV5XCOF","3D1UCPY6GGVNRONHL4UEVMXCHLT38H","","null","<img src=""img/food3.png"" style=""width:200px; border:14px solid green;"">","null","","","","","","","","","",""
"","image-keyboard-response","269","100704","0.0-310.0","3SBEHTYCWOPJIHUCAD4XNOJR1TYYI6","A3AHD1NV5XCOF","3D1UCPY6GGVNRONHL4UEVMXCHLT38H","","40","img/food2.png","76","43","3","1","1","2","1,0.5,0,1,0.5,0,0.5,0,1","0.5,0,1,0.5,0,1,0,1,0.5","2","false",""
"","html-keyboard-response","270","101006","0.0-311.0","3SBEHTYCWOPJIHUCAD4XNOJR1TYYI6","A3AHD1NV5XCOF","3D1UCPY6GGVNRONHL4UEVMXCHLT38H","","null","<img src=""img/food2.png"" style=""width:200px; border:14px solid green;"">","null","","","","","","","","","",""
"","image-keyboard-response","271","101107","0.0-313.0","3SBEHTYCWOPJIHUCAD4XNOJR1TYYI6","A3AHD1NV5XCOF","3D1UCPY6GGVNRONHL4UEVMXCHLT38H","","97","img/food3.png","74","99","1","1","2","2","1,0.5,0,1,0.5,0,0.5,0,1","0.5,0,1,0.5,0,1,0,1,0.5","2","false",""
"","html-keyboard-response","272","101472","0.0-314.0","3SBEHTYCWOPJIHUCAD4XNOJR1TYYI6","A3AHD1NV5XCOF","3D1UCPY6GGVNRONHL4UEVMXCHLT38H","","null","<img src=""img/food3.png"" style=""width:200px; border:14px solid green;"">","null","","","","","","","","","",""
"","image-keyboard-response","273","101499","0.0-316.0","3SBEHTYCWOPJIHUCAD4XNOJR1TYYI6","A3AHD1NV5XCOF","3D1UCPY6GGVNRONHL4UEVMXCHLT38H","","26","img/food6.png","74","27","1","0","3","2","1,0.5,0,1,0.5,0,0.5,0,1","0.5,0,1,0.5,0,1,0,1,0.5","2","false",""
"","html-keyboard-response","274","101801","0.0-317.0","3SBEHTYCWOPJIHUCAD4XNOJR1TYYI6","A3AHD1NV5XCOF","3D1UCPY6GGVNRONHL4UEVMXCHLT38H","","null","<img src=""img/food6.png"" style=""width:200px;border:14px solid red;"">","null","","","","","","","","","",""
"","image-keyboard-response","275","101954","0.0-319.0","3SBEHTYCWOPJIHUCAD4XNOJR1TYYI6","A3AHD1NV5XCOF","3D1UCPY6GGVNRONHL4UEVMXCHLT38H","","151","img/food6.png","74","152","1","0","3","2","1,0.5,0,1,0.5,0,0.5,0,1","0.5,0,1,0.5,0,1,0,1,0.5","2","false",""
"","html-keyboard-response","276","102256","0.0-320.0","3SBEHTYCWOPJIHUCAD4XNOJR1TYYI6","A3AHD1NV5XCOF","3D1UCPY6GGVNRONHL4UEVMXCHLT38H","","null","<img src=""img/food6.png"" style=""width:200px;border:14px solid red;"">","null","","","","","","","","","",""
"","image-keyboard-response","277","102392","0.0-322.0","3SBEHTYCWOPJIHUCAD4XNOJR1TYYI6","A3AHD1NV5XCOF","3D1UCPY6GGVNRONHL4UEVMXCHLT38H","","133","img/food2.png","74","135","1","1","1","2","1,0.5,0,1,0.5,0,0.5,0,1","0.5,0,1,0.5,0,1,0,1,0.5","2","false",""
"","html-keyboard-response","278","102695","0.0-323.0","3SBEHTYCWOPJIHUCAD4XNOJR1TYYI6","A3AHD1NV5XCOF","3D1UCPY6GGVNRONHL4UEVMXCHLT38H","","null","<img src=""img/food2.png"" style=""width:200px; border:14px solid green;"">","null","","","","","","","","","",""
"","image-keyboard-response","279","102719","0.0-325.0","3SBEHTYCWOPJIHUCAD4XNOJR1TYYI6","A3AHD1NV5XCOF","3D1UCPY6GGVNRONHL4UEVMXCHLT38H","","20","img/food6.png","76","23","3","0","3","2","1,0.5,0,1,0.5,0,0.5,0,1","0.5,0,1,0.5,0,1,0,1,0.5","2","false",""
"","html-keyboard-response","280","103023","0.0-326.0","3SBEHTYCWOPJIHUCAD4XNOJR1TYYI6","A3AHD1NV5XCOF","3D1UCPY6GGVNRONHL4UEVMXCHLT38H","","null","<img src=""img/food6.png"" style=""width:200px;border:14px solid red;"">","null","","","","","","","","","",""
"","image-keyboard-response","281","103054","0.0-328.0","3SBEHTYCWOPJIHUCAD4XNOJR1TYYI6","A3AHD1NV5XCOF","3D1UCPY6GGVNRONHL4UEVMXCHLT38H","","28","img/food6.png","74","30","1","0","3","2","1,0.5,0,1,0.5,0,0.5,0,1","0.5,0,1,0.5,0,1,0,1,0.5","2","false",""
"","html-keyboard-response","282","103381","0.0-329.0","3SBEHTYCWOPJIHUCAD4XNOJR1TYYI6","A3AHD1NV5XCOF","3D1UCPY6GGVNRONHL4UEVMXCHLT38H","","null","<img src=""img/food6.png"" style=""width:200px;border:14px solid red;"">","null","","","","","","","","","",""
"","image-keyboard-response","283","103452","0.0-331.0","3SBEHTYCWOPJIHUCAD4XNOJR1TYYI6","A3AHD1NV5XCOF","3D1UCPY6GGVNRONHL4UEVMXCHLT38H","","70","img/food3.png","74","70","1","1","2","2","1,0.5,0,1,0.5,0,0.5,0,1","0.5,0,1,0.5,0,1,0,1,0.5","2","false",""
"","html-keyboard-response","284","103757","0.0-332.0","3SBEHTYCWOPJIHUCAD4XNOJR1TYYI6","A3AHD1NV5XCOF","3D1UCPY6GGVNRONHL4UEVMXCHLT38H","","null","<img src=""img/food3.png"" style=""width:200px; border:14px solid green;"">","null","","","","","","","","","",""
"","image-keyboard-response","285","103894","0.0-334.0","3SBEHTYCWOPJIHUCAD4XNOJR1TYYI6","A3AHD1NV5XCOF","3D1UCPY6GGVNRONHL4UEVMXCHLT38H","","132","img/food6.png","74","135","1","0","3","2","1,0.5,0,1,0.5,0,0.5,0,1","0.5,0,1,0.5,0,1,0,1,0.5","2","false",""
"","html-keyboard-response","286","104197","0.0-335.0","3SBEHTYCWOPJIHUCAD4XNOJR1TYYI6","A3AHD1NV5XCOF","3D1UCPY6GGVNRONHL4UEVMXCHLT38H","","null","<img src=""img/food6.png"" style=""width:200px;border:14px solid red;"">","null","","","","","","","","","",""
"","image-keyboard-response","287","104259","0.0-337.0","3SBEHTYCWOPJIHUCAD4XNOJR1TYYI6","A3AHD1NV5XCOF","3D1UCPY6GGVNRONHL4UEVMXCHLT38H","","60","img/food6.png","75","61","2","1","3","2","1,0.5,0,1,0.5,0,0.5,0,1","0.5,0,1,0.5,0,1,0,1,0.5","2","false",""
"","html-keyboard-response","288","104562","0.0-338.0","3SBEHTYCWOPJIHUCAD4XNOJR1TYYI6","A3AHD1NV5XCOF","3D1UCPY6GGVNRONHL4UEVMXCHLT38H","","null","<img src=""img/food6.png"" style=""width:200px; border:14px solid green;"">","null","","","","","","","","","",""
"","image-keyboard-response","289","104634","0.0-340.0","3SBEHTYCWOPJIHUCAD4XNOJR1TYYI6","A3AHD1NV5XCOF","3D1UCPY6GGVNRONHL4UEVMXCHLT38H","","70","img/food6.png","74","71","1","0","3","2","1,0.5,0,1,0.5,0,0.5,0,1","0.5,0,1,0.5,0,1,0,1,0.5","2","false",""
"","html-keyboard-response","290","104942","0.0-341.0","3SBEHTYCWOPJIHUCAD4XNOJR1TYYI6","A3AHD1NV5XCOF","3D1UCPY6GGVNRONHL4UEVMXCHLT38H","","null","<img src=""img/food6.png"" style=""width:200px;border:14px solid red;"">","null","","","","","","","","","",""
"","image-keyboard-response","291","104958","0.0-343.0","3SBEHTYCWOPJIHUCAD4XNOJR1TYYI6","A3AHD1NV5XCOF","3D1UCPY6GGVNRONHL4UEVMXCHLT38H","","13","img/food6.png","74","15","1","0","3","2","1,0.5,0,1,0.5,0,0.5,0,1","0.5,0,1,0.5,0,1,0,1,0.5","2","false",""
"","html-keyboard-response","292","105259","0.0-344.0","3SBEHTYCWOPJIHUCAD4XNOJR1TYYI6","A3AHD1NV5XCOF","3D1UCPY6GGVNRONHL4UEVMXCHLT38H","","null","<img src=""img/food6.png"" style=""width:200px;border:14px solid red;"">","null","","","","","","","","","",""
"","image-keyboard-response","293","105306","0.0-346.0","3SBEHTYCWOPJIHUCAD4XNOJR1TYYI6","A3AHD1NV5XCOF","3D1UCPY6GGVNRONHL4UEVMXCHLT38H","","43","img/food3.png","76","45","3","1","2","2","1,0.5,0,1,0.5,0,0.5,0,1","0.5,0,1,0.5,0,1,0,1,0.5","2","false",""
"","html-keyboard-response","294","105610","0.0-347.0","3SBEHTYCWOPJIHUCAD4XNOJR1TYYI6","A3AHD1NV5XCOF","3D1UCPY6GGVNRONHL4UEVMXCHLT38H","","null","<img src=""img/food3.png"" style=""width:200px; border:14px solid green;"">","null","","","","","","","","","",""
"","image-keyboard-response","295","105675","0.0-349.0","3SBEHTYCWOPJIHUCAD4XNOJR1TYYI6","A3AHD1NV5XCOF","3D1UCPY6GGVNRONHL4UEVMXCHLT38H","","57","img/food3.png","74","60","1","0","2","2","1,0.5,0,1,0.5,0,0.5,0,1","0.5,0,1,0.5,0,1,0,1,0.5","2","false",""
"","html-keyboard-response","296","105977","0.0-350.0","3SBEHTYCWOPJIHUCAD4XNOJR1TYYI6","A3AHD1NV5XCOF","3D1UCPY6GGVNRONHL4UEVMXCHLT38H","","null","<img src=""img/food3.png"" style=""width:200px;border:14px solid red;"">","null","","","","","","","","","",""
"","image-keyboard-response","297","106105","0.0-352.0","3SBEHTYCWOPJIHUCAD4XNOJR1TYYI6","A3AHD1NV5XCOF","3D1UCPY6GGVNRONHL4UEVMXCHLT38H","","126","img/food3.png","75","127","2","0","2","2","1,0.5,0,1,0.5,0,0.5,0,1","0.5,0,1,0.5,0,1,0,1,0.5","2","false",""
"","html-keyboard-response","298","106408","0.0-353.0","3SBEHTYCWOPJIHUCAD4XNOJR1TYYI6","A3AHD1NV5XCOF","3D1UCPY6GGVNRONHL4UEVMXCHLT38H","","null","<img src=""img/food3.png"" style=""width:200px;border:14px solid red;"">","null","","","","","","","","","",""
"","image-keyboard-response","299","106477","0.0-355.0","3SBEHTYCWOPJIHUCAD4XNOJR1TYYI6","A3AHD1NV5XCOF","3D1UCPY6GGVNRONHL4UEVMXCHLT38H","","67","img/food2.png","74","68","1","0","1","2","1,0.5,0,1,0.5,0,0.5,0,1","0.5,0,1,0.5,0,1,0,1,0.5","2","false",""
"","html-keyboard-response","300","106781","0.0-356.0","3SBEHTYCWOPJIHUCAD4XNOJR1TYYI6","A3AHD1NV5XCOF","3D1UCPY6GGVNRONHL4UEVMXCHLT38H","","null","<img src=""img/food2.png"" style=""width:200px;border:14px solid red;"">","null","","","","","","","","","",""
"","image-keyboard-response","301","106884","0.0-358.0","3SBEHTYCWOPJIHUCAD4XNOJR1TYYI6","A3AHD1NV5XCOF","3D1UCPY6GGVNRONHL4UEVMXCHLT38H","","99","img/food6.png","75","101","2","1","3","2","1,0.5,0,1,0.5,0,0.5,0,1","0.5,0,1,0.5,0,1,0,1,0.5","2","false",""
"","html-keyboard-response","302","107195","0.0-359.0","3SBEHTYCWOPJIHUCAD4XNOJR1TYYI6","A3AHD1NV5XCOF","3D1UCPY6GGVNRONHL4UEVMXCHLT38H","","null","<img src=""img/food6.png"" style=""width:200px; border:14px solid green;"">","null","","","","","","","","","",""
"","image-keyboard-response","303","107238","0.0-361.0","3SBEHTYCWOPJIHUCAD4XNOJR1TYYI6","A3AHD1NV5XCOF","3D1UCPY6GGVNRONHL4UEVMXCHLT38H","","43","img/food6.png","75","43","2","1","3","2","1,0.5,0,1,0.5,0,0.5,0,1","0.5,0,1,0.5,0,1,0,1,0.5","2","false",""
"","html-keyboard-response","304","107548","0.0-362.0","3SBEHTYCWOPJIHUCAD4XNOJR1TYYI6","A3AHD1NV5XCOF","3D1UCPY6GGVNRONHL4UEVMXCHLT38H","","null","<img src=""img/food6.png"" style=""width:200px; border:14px solid green;"">","null","","","","","","","","","",""
"","image-keyboard-response","305","107663","0.0-364.0","3SBEHTYCWOPJIHUCAD4XNOJR1TYYI6","A3AHD1NV5XCOF","3D1UCPY6GGVNRONHL4UEVMXCHLT38H","","113","img/food3.png","74","115","1","0","2","2","1,0.5,0,1,0.5,0,0.5,0,1","0.5,0,1,0.5,0,1,0,1,0.5","2","false",""
"","html-keyboard-response","306","107965","0.0-365.0","3SBEHTYCWOPJIHUCAD4XNOJR1TYYI6","A3AHD1NV5XCOF","3D1UCPY6GGVNRONHL4UEVMXCHLT38H","","null","<img src=""img/food3.png"" style=""width:200px;border:14px solid red;"">","null","","","","","","","","","",""
"","image-keyboard-response","307","108044","0.0-367.0","3SBEHTYCWOPJIHUCAD4XNOJR1TYYI6","A3AHD1NV5XCOF","3D1UCPY6GGVNRONHL4UEVMXCHLT38H","","76","img/food2.png","75","78","2","0","1","2","1,0.5,0,1,0.5,0,0.5,0,1","0.5,0,1,0.5,0,1,0,1,0.5","2","false",""
"","html-keyboard-response","308","108345","0.0-368.0","3SBEHTYCWOPJIHUCAD4XNOJR1TYYI6","A3AHD1NV5XCOF","3D1UCPY6GGVNRONHL4UEVMXCHLT38H","","null","<img src=""img/food2.png"" style=""width:200px;border:14px solid red;"">","null","","","","","","","","","",""
"","image-keyboard-response","309","108514","0.0-370.0","3SBEHTYCWOPJIHUCAD4XNOJR1TYYI6","A3AHD1NV5XCOF","3D1UCPY6GGVNRONHL4UEVMXCHLT38H","","166","img/food2.png","74","168","1","0","1","2","1,0.5,0,1,0.5,0,0.5,0,1","0.5,0,1,0.5,0,1,0,1,0.5","2","false",""
"","html-keyboard-response","310","108857","0.0-371.0","3SBEHTYCWOPJIHUCAD4XNOJR1TYYI6","A3AHD1NV5XCOF","3D1UCPY6GGVNRONHL4UEVMXCHLT38H","","null","<img src=""img/food2.png"" style=""width:200px;border:14px solid red;"">","null","","","","","","","","","",""
"","image-keyboard-response","311","109055","0.0-373.0","3SBEHTYCWOPJIHUCAD4XNOJR1TYYI6","A3AHD1NV5XCOF","3D1UCPY6GGVNRONHL4UEVMXCHLT38H","","195","img/food2.png","76","197","3","1","1","2","1,0.5,0,1,0.5,0,0.5,0,1","0.5,0,1,0.5,0,1,0,1,0.5","2","false",""
"","html-keyboard-response","312","109417","0.0-374.0","3SBEHTYCWOPJIHUCAD4XNOJR1TYYI6","A3AHD1NV5XCOF","3D1UCPY6GGVNRONHL4UEVMXCHLT38H","","null","<img src=""img/food2.png"" style=""width:200px; border:14px solid green;"">","null","","","","","","","","","",""
"","image-keyboard-response","313","109554","0.0-376.0","3SBEHTYCWOPJIHUCAD4XNOJR1TYYI6","A3AHD1NV5XCOF","3D1UCPY6GGVNRONHL4UEVMXCHLT38H","","135","img/food2.png","74","135","1","1","1","2","1,0.5,0,1,0.5,0,0.5,0,1","0.5,0,1,0.5,0,1,0,1,0.5","2","false",""
"","html-keyboard-response","314","109883","0.0-377.0","3SBEHTYCWOPJIHUCAD4XNOJR1TYYI6","A3AHD1NV5XCOF","3D1UCPY6GGVNRONHL4UEVMXCHLT38H","","null","<img src=""img/food2.png"" style=""width:200px; border:14px solid green;"">","null","","","","","","","","","",""
"","image-keyboard-response","315","109968","0.0-379.0","3SBEHTYCWOPJIHUCAD4XNOJR1TYYI6","A3AHD1NV5XCOF","3D1UCPY6GGVNRONHL4UEVMXCHLT38H","","83","img/food6.png","74","85","1","0","3","2","1,0.5,0,1,0.5,0,0.5,0,1","0.5,0,1,0.5,0,1,0,1,0.5","2","false",""
"","html-keyboard-response","316","110270","0.0-380.0","3SBEHTYCWOPJIHUCAD4XNOJR1TYYI6","A3AHD1NV5XCOF","3D1UCPY6GGVNRONHL4UEVMXCHLT38H","","null","<img src=""img/food6.png"" style=""width:200px;border:14px solid red;"">","null","","","","","","","","","",""
"","image-keyboard-response","317","111062","0.0-382.0","3SBEHTYCWOPJIHUCAD4XNOJR1TYYI6","A3AHD1NV5XCOF","3D1UCPY6GGVNRONHL4UEVMXCHLT38H","","791","img/food3.png","76","793","3","1","2","2","1,0.5,0,1,0.5,0,0.5,0,1","0.5,0,1,0.5,0,1,0,1,0.5","2","false",""
"","html-keyboard-response","318","111366","0.0-383.0","3SBEHTYCWOPJIHUCAD4XNOJR1TYYI6","A3AHD1NV5XCOF","3D1UCPY6GGVNRONHL4UEVMXCHLT38H","","null","<img src=""img/food3.png"" style=""width:200px; border:14px solid green;"">","null","","","","","","","","","",""
"","image-keyboard-response","319","111394","0.0-385.0","3SBEHTYCWOPJIHUCAD4XNOJR1TYYI6","A3AHD1NV5XCOF","3D1UCPY6GGVNRONHL4UEVMXCHLT38H","","25","img/food3.png","74","27","1","0","2","2","1,0.5,0,1,0.5,0,0.5,0,1","0.5,0,1,0.5,0,1,0,1,0.5","2","false",""
"","html-keyboard-response","320","111827","0.0-386.0","3SBEHTYCWOPJIHUCAD4XNOJR1TYYI6","A3AHD1NV5XCOF","3D1UCPY6GGVNRONHL4UEVMXCHLT38H","","null","<img src=""img/food3.png"" style=""width:200px;border:14px solid red;"">","null","","","","","","","","","",""
"","image-keyboard-response","321","111935","0.0-388.0","3SBEHTYCWOPJIHUCAD4XNOJR1TYYI6","A3AHD1NV5XCOF","3D1UCPY6GGVNRONHL4UEVMXCHLT38H","","106","img/food3.png","76","107","3","1","2","2","1,0.5,0,1,0.5,0,0.5,0,1","0.5,0,1,0.5,0,1,0,1,0.5","2","false",""
"","html-keyboard-response","322","112244","0.0-389.0","3SBEHTYCWOPJIHUCAD4XNOJR1TYYI6","A3AHD1NV5XCOF","3D1UCPY6GGVNRONHL4UEVMXCHLT38H","","null","<img src=""img/food3.png"" style=""width:200px; border:14px solid green;"">","null","","","","","","","","","",""
"","image-keyboard-response","323","112281","0.0-391.0","3SBEHTYCWOPJIHUCAD4XNOJR1TYYI6","A3AHD1NV5XCOF","3D1UCPY6GGVNRONHL4UEVMXCHLT38H","","35","img/food2.png","76","36","3","1","1","2","1,0.5,0,1,0.5,0,0.5,0,1","0.5,0,1,0.5,0,1,0,1,0.5","2","false",""
"","html-keyboard-response","324","112585","0.0-392.0","3SBEHTYCWOPJIHUCAD4XNOJR1TYYI6","A3AHD1NV5XCOF","3D1UCPY6GGVNRONHL4UEVMXCHLT38H","","null","<img src=""img/food2.png"" style=""width:200px; border:14px solid green;"">","null","","","","","","","","","",""
"","image-keyboard-response","325","113318","0.0-394.0","3SBEHTYCWOPJIHUCAD4XNOJR1TYYI6","A3AHD1NV5XCOF","3D1UCPY6GGVNRONHL4UEVMXCHLT38H","","727","img/food6.png","74","728","1","0","3","2","1,0.5,0,1,0.5,0,0.5,0,1","0.5,0,1,0.5,0,1,0,1,0.5","2","false",""
"","html-keyboard-response","326","113650","0.0-395.0","3SBEHTYCWOPJIHUCAD4XNOJR1TYYI6","A3AHD1NV5XCOF","3D1UCPY6GGVNRONHL4UEVMXCHLT38H","","null","<img src=""img/food6.png"" style=""width:200px;border:14px solid red;"">","null","","","","","","","","","",""
"","image-keyboard-response","327","114357","0.0-397.0","3SBEHTYCWOPJIHUCAD4XNOJR1TYYI6","A3AHD1NV5XCOF","3D1UCPY6GGVNRONHL4UEVMXCHLT38H","","704","img/food2.png","74","706","1","1","1","2","1,0.5,0,1,0.5,0,0.5,0,1","0.5,0,1,0.5,0,1,0,1,0.5","2","false",""
"","html-keyboard-response","328","114780","0.0-398.0","3SBEHTYCWOPJIHUCAD4XNOJR1TYYI6","A3AHD1NV5XCOF","3D1UCPY6GGVNRONHL4UEVMXCHLT38H","","null","<img src=""img/food2.png"" style=""width:200px; border:14px solid green;"">","null","","","","","","","","","",""
"","image-keyboard-response","329","114958","0.0-400.0","3SBEHTYCWOPJIHUCAD4XNOJR1TYYI6","A3AHD1NV5XCOF","3D1UCPY6GGVNRONHL4UEVMXCHLT38H","","176","img/food2.png","74","177","1","1","1","2","1,0.5,0,1,0.5,0,0.5,0,1","0.5,0,1,0.5,0,1,0,1,0.5","2","false",""
"","html-keyboard-response","330","115262","0.0-401.0","3SBEHTYCWOPJIHUCAD4XNOJR1TYYI6","A3AHD1NV5XCOF","3D1UCPY6GGVNRONHL4UEVMXCHLT38H","","null","<img src=""img/food2.png"" style=""width:200px; border:14px solid green;"">","null","","","","","","","","","",""
"","image-keyboard-response","331","115589","0.0-403.0","3SBEHTYCWOPJIHUCAD4XNOJR1TYYI6","A3AHD1NV5XCOF","3D1UCPY6GGVNRONHL4UEVMXCHLT38H","","325","img/food3.png","75","326","2","0","2","2","1,0.5,0,1,0.5,0,0.5,0,1","0.5,0,1,0.5,0,1,0,1,0.5","2","false",""
"","html-keyboard-response","332","115905","0.0-404.0","3SBEHTYCWOPJIHUCAD4XNOJR1TYYI6","A3AHD1NV5XCOF","3D1UCPY6GGVNRONHL4UEVMXCHLT38H","","null","<img src=""img/food3.png"" style=""width:200px;border:14px solid red;"">","null","","","","","","","","","",""
"","image-keyboard-response","333","115993","0.0-406.0","3SBEHTYCWOPJIHUCAD4XNOJR1TYYI6","A3AHD1NV5XCOF","3D1UCPY6GGVNRONHL4UEVMXCHLT38H","","81","img/food2.png","76","81","3","1","1","2","1,0.5,0,1,0.5,0,0.5,0,1","0.5,0,1,0.5,0,1,0,1,0.5","2","false",""
"","html-keyboard-response","334","116310","0.0-407.0","3SBEHTYCWOPJIHUCAD4XNOJR1TYYI6","A3AHD1NV5XCOF","3D1UCPY6GGVNRONHL4UEVMXCHLT38H","","null","<img src=""img/food2.png"" style=""width:200px; border:14px solid green;"">","null","","","","","","","","","",""
"","image-keyboard-response","335","116431","0.0-409.0","3SBEHTYCWOPJIHUCAD4XNOJR1TYYI6","A3AHD1NV5XCOF","3D1UCPY6GGVNRONHL4UEVMXCHLT38H","","116","img/food6.png","75","119","2","1","3","2","1,0.5,0,1,0.5,0,0.5,0,1","0.5,0,1,0.5,0,1,0,1,0.5","2","false",""
"","html-keyboard-response","336","116735","0.0-410.0","3SBEHTYCWOPJIHUCAD4XNOJR1TYYI6","A3AHD1NV5XCOF","3D1UCPY6GGVNRONHL4UEVMXCHLT38H","","null","<img src=""img/food6.png"" style=""width:200px; border:14px solid green;"">","null","","","","","","","","","",""
"","image-keyboard-response","337","116804","0.0-412.0","3SBEHTYCWOPJIHUCAD4XNOJR1TYYI6","A3AHD1NV5XCOF","3D1UCPY6GGVNRONHL4UEVMXCHLT38H","","65","img/food6.png","74","68","1","0","3","2","1,0.5,0,1,0.5,0,0.5,0,1","0.5,0,1,0.5,0,1,0,1,0.5","2","false",""
"","html-keyboard-response","338","117163","0.0-413.0","3SBEHTYCWOPJIHUCAD4XNOJR1TYYI6","A3AHD1NV5XCOF","3D1UCPY6GGVNRONHL4UEVMXCHLT38H","","null","<img src=""img/food6.png"" style=""width:200px;border:14px solid red;"">","null","","","","","","","","","",""
"","image-keyboard-response","339","117288","0.0-415.0","3SBEHTYCWOPJIHUCAD4XNOJR1TYYI6","A3AHD1NV5XCOF","3D1UCPY6GGVNRONHL4UEVMXCHLT38H","","124","img/food2.png","76","124","3","1","1","2","1,0.5,0,1,0.5,0,0.5,0,1","0.5,0,1,0.5,0,1,0,1,0.5","2","false",""
"","html-keyboard-response","340","117596","0.0-416.0","3SBEHTYCWOPJIHUCAD4XNOJR1TYYI6","A3AHD1NV5XCOF","3D1UCPY6GGVNRONHL4UEVMXCHLT38H","","null","<img src=""img/food2.png"" style=""width:200px; border:14px solid green;"">","null","","","","","","","","","",""
"","image-keyboard-response","341","117893","0.0-418.0","3SBEHTYCWOPJIHUCAD4XNOJR1TYYI6","A3AHD1NV5XCOF","3D1UCPY6GGVNRONHL4UEVMXCHLT38H","","294","img/food3.png","74","296","1","0","2","2","1,0.5,0,1,0.5,0,0.5,0,1","0.5,0,1,0.5,0,1,0,1,0.5","2","false",""
"","html-keyboard-response","342","118195","0.0-419.0","3SBEHTYCWOPJIHUCAD4XNOJR1TYYI6","A3AHD1NV5XCOF","3D1UCPY6GGVNRONHL4UEVMXCHLT38H","","null","<img src=""img/food3.png"" style=""width:200px;border:14px solid red;"">","null","","","","","","","","","",""
"","image-keyboard-response","343","118198","0.0-421.0","3SBEHTYCWOPJIHUCAD4XNOJR1TYYI6","A3AHD1NV5XCOF","3D1UCPY6GGVNRONHL4UEVMXCHLT38H","","2","img/food3.png","76","3","3","1","2","2","1,0.5,0,1,0.5,0,0.5,0,1","0.5,0,1,0.5,0,1,0,1,0.5","2","false",""
"","html-keyboard-response","344","118572","0.0-422.0","3SBEHTYCWOPJIHUCAD4XNOJR1TYYI6","A3AHD1NV5XCOF","3D1UCPY6GGVNRONHL4UEVMXCHLT38H","","null","<img src=""img/food3.png"" style=""width:200px; border:14px solid green;"">","null","","","","","","","","","",""
"","image-keyboard-response","345","118628","0.0-424.0","3SBEHTYCWOPJIHUCAD4XNOJR1TYYI6","A3AHD1NV5XCOF","3D1UCPY6GGVNRONHL4UEVMXCHLT38H","","45","img/food6.png","76","48","3","1","3","2","1,0.5,0,1,0.5,0,0.5,0,1","0.5,0,1,0.5,0,1,0,1,0.5","2","false",""
"","html-keyboard-response","346","118947","0.0-425.0","3SBEHTYCWOPJIHUCAD4XNOJR1TYYI6","A3AHD1NV5XCOF","3D1UCPY6GGVNRONHL4UEVMXCHLT38H","","null","<img src=""img/food6.png"" style=""width:200px; border:14px solid green;"">","null","","","","","","","","","",""
"","image-keyboard-response","347","119056","0.0-427.0","3SBEHTYCWOPJIHUCAD4XNOJR1TYYI6","A3AHD1NV5XCOF","3D1UCPY6GGVNRONHL4UEVMXCHLT38H","","100","img/food2.png","76","102","3","1","1","2","1,0.5,0,1,0.5,0,0.5,0,1","0.5,0,1,0.5,0,1,0,1,0.5","2","false",""
"","html-keyboard-response","348","119451","0.0-428.0","3SBEHTYCWOPJIHUCAD4XNOJR1TYYI6","A3AHD1NV5XCOF","3D1UCPY6GGVNRONHL4UEVMXCHLT38H","","null","<img src=""img/food2.png"" style=""width:200px; border:14px solid green;"">","null","","","","","","","","","",""
"","image-keyboard-response","349","120166","0.0-430.0","3SBEHTYCWOPJIHUCAD4XNOJR1TYYI6","A3AHD1NV5XCOF","3D1UCPY6GGVNRONHL4UEVMXCHLT38H","","713","img/food3.png","75","713","2","0","2","2","1,0.5,0,1,0.5,0,0.5,0,1","0.5,0,1,0.5,0,1,0,1,0.5","2","false",""
"","html-keyboard-response","350","120469","0.0-431.0","3SBEHTYCWOPJIHUCAD4XNOJR1TYYI6","A3AHD1NV5XCOF","3D1UCPY6GGVNRONHL4UEVMXCHLT38H","","null","<img src=""img/food3.png"" style=""width:200px;border:14px solid red;"">","null","","","","","","","","","",""
"","image-keyboard-response","351","120554","0.0-433.0","3SBEHTYCWOPJIHUCAD4XNOJR1TYYI6","A3AHD1NV5XCOF","3D1UCPY6GGVNRONHL4UEVMXCHLT38H","","83","img/food3.png","75","84","2","0","2","2","1,0.5,0,1,0.5,0,0.5,0,1","0.5,0,1,0.5,0,1,0,1,0.5","2","false",""
"","html-keyboard-response","352","120859","0.0-434.0","3SBEHTYCWOPJIHUCAD4XNOJR1TYYI6","A3AHD1NV5XCOF","3D1UCPY6GGVNRONHL4UEVMXCHLT38H","","null","<img src=""img/food3.png"" style=""width:200px;border:14px solid red;"">","null","","","","","","","","","",""
"","image-keyboard-response","353","120881","0.0-436.0","3SBEHTYCWOPJIHUCAD4XNOJR1TYYI6","A3AHD1NV5XCOF","3D1UCPY6GGVNRONHL4UEVMXCHLT38H","","20","img/food2.png","76","20","3","1","1","2","1,0.5,0,1,0.5,0,0.5,0,1","0.5,0,1,0.5,0,1,0,1,0.5","2","false",""
"","html-keyboard-response","354","121230","0.0-437.0","3SBEHTYCWOPJIHUCAD4XNOJR1TYYI6","A3AHD1NV5XCOF","3D1UCPY6GGVNRONHL4UEVMXCHLT38H","","null","<img src=""img/food2.png"" style=""width:200px; border:14px solid green;"">","null","","","","","","","","","",""
"","image-keyboard-response","355","121259","0.0-439.0","3SBEHTYCWOPJIHUCAD4XNOJR1TYYI6","A3AHD1NV5XCOF","3D1UCPY6GGVNRONHL4UEVMXCHLT38H","","27","img/food3.png","74","28","1","0","2","2","1,0.5,0,1,0.5,0,0.5,0,1","0.5,0,1,0.5,0,1,0,1,0.5","2","false",""
"","html-keyboard-response","356","121639","0.0-440.0","3SBEHTYCWOPJIHUCAD4XNOJR1TYYI6","A3AHD1NV5XCOF","3D1UCPY6GGVNRONHL4UEVMXCHLT38H","","null","<img src=""img/food3.png"" style=""width:200px;border:14px solid red;"">","null","","","","","","","","","",""
"","image-keyboard-response","357","122254","0.0-442.0","3SBEHTYCWOPJIHUCAD4XNOJR1TYYI6","A3AHD1NV5XCOF","3D1UCPY6GGVNRONHL4UEVMXCHLT38H","","608","img/food6.png","75","610","2","1","3","2","1,0.5,0,1,0.5,0,0.5,0,1","0.5,0,1,0.5,0,1,0,1,0.5","2","false",""
"","html-keyboard-response","358","122555","0.0-443.0","3SBEHTYCWOPJIHUCAD4XNOJR1TYYI6","A3AHD1NV5XCOF","3D1UCPY6GGVNRONHL4UEVMXCHLT38H","","null","<img src=""img/food6.png"" style=""width:200px; border:14px solid green;"">","null","","","","","","","","","",""
"","image-keyboard-response","359","122683","0.0-445.0","3SBEHTYCWOPJIHUCAD4XNOJR1TYYI6","A3AHD1NV5XCOF","3D1UCPY6GGVNRONHL4UEVMXCHLT38H","","126","img/food2.png","74","127","1","0","1","2","1,0.5,0,1,0.5,0,0.5,0,1","0.5,0,1,0.5,0,1,0,1,0.5","2","false",""
"","html-keyboard-response","360","122986","0.0-446.0","3SBEHTYCWOPJIHUCAD4XNOJR1TYYI6","A3AHD1NV5XCOF","3D1UCPY6GGVNRONHL4UEVMXCHLT38H","","null","<img src=""img/food2.png"" style=""width:200px;border:14px solid red;"">","null","","","","","","","","","",""
"","image-keyboard-response","361","123102","0.0-448.0","3SBEHTYCWOPJIHUCAD4XNOJR1TYYI6","A3AHD1NV5XCOF","3D1UCPY6GGVNRONHL4UEVMXCHLT38H","","114","img/food3.png","76","115","3","1","2","2","1,0.5,0,1,0.5,0,0.5,0,1","0.5,0,1,0.5,0,1,0,1,0.5","2","false",""
"","html-keyboard-response","362","123544","0.0-449.0","3SBEHTYCWOPJIHUCAD4XNOJR1TYYI6","A3AHD1NV5XCOF","3D1UCPY6GGVNRONHL4UEVMXCHLT38H","","null","<img src=""img/food3.png"" style=""width:200px; border:14px solid green;"">","null","","","","","","","","","",""
"","image-keyboard-response","363","123666","0.0-451.0","3SBEHTYCWOPJIHUCAD4XNOJR1TYYI6","A3AHD1NV5XCOF","3D1UCPY6GGVNRONHL4UEVMXCHLT38H","","121","img/food3.png","75","122","2","0","2","2","1,0.5,0,1,0.5,0,0.5,0,1","0.5,0,1,0.5,0,1,0,1,0.5","2","false",""
"","html-keyboard-response","364","123967","0.0-452.0","3SBEHTYCWOPJIHUCAD4XNOJR1TYYI6","A3AHD1NV5XCOF","3D1UCPY6GGVNRONHL4UEVMXCHLT38H","","null","<img src=""img/food3.png"" style=""width:200px;border:14px solid red;"">","null","","","","","","","","","",""
"","instructions","365","126496","0.0-454.0","3SBEHTYCWOPJIHUCAD4XNOJR1TYYI6","A3AHD1NV5XCOF","3D1UCPY6GGVNRONHL4UEVMXCHLT38H","[{""page_index"":0,""viewing_time"":2527}]","2527","","","","","","","","","","","",""
"","survey-text","366","141380","0.0-455.0","3SBEHTYCWOPJIHUCAD4XNOJR1TYYI6","A3AHD1NV5XCOF","3D1UCPY6GGVNRONHL4UEVMXCHLT38H","","14874","","","","","","","","","","","","{""Q0"":""A3AHD1NV5XCOF""}"
