"success","trial_type","trial_index","time_elapsed","internal_node_id","assignmentID","mturkID","hitID","view_history","rt","stimulus","key_press","reactionTime","a","r","s","cond","reward_cond","reward_cond_actual","reward_matrix_idx","warning","responses"
"true","fullscreen","0","12674","0.0-0.0","3PQMUDRV7SSXSHF76VIU10P3BISIIS","A3APKUC67F9IMW","3P520RYKCHSO30HY2QJC6BDLS9Z5UE","","","","","","","","","","","","","",""
"","instructions","1","52064","0.0-1.0","3PQMUDRV7SSXSHF76VIU10P3BISIIS","A3APKUC67F9IMW","3P520RYKCHSO30HY2QJC6BDLS9Z5UE","[{""page_index"":0,""viewing_time"":2025.7000000029802},{""page_index"":1,""viewing_time"":935.2999999970198},{""page_index"":2,""viewing_time"":1362.2000000029802},{""page_index"":3,""viewing_time"":4047.5999999940395},{""page_index"":4,""viewing_time"":1642.4000000059605},{""page_index"":5,""viewing_time"":26833.40000000596},{""page_index"":6,""viewing_time"":2540.0999999940395}]","39387.29999999702","","","","","","","","","","","",""
"","image-keyboard-response","2","52908","0.0-2.0","3PQMUDRV7SSXSHF76VIU10P3BISIIS","A3APKUC67F9IMW","3P520RYKCHSO30HY2QJC6BDLS9Z5UE","","840.7999999970198","img/food1.png","74","842.9000000059605","1","1","1","1","1,0.5,0,1,0.5,0,0.5,0,1","1,0.5,0,1,0.5,0,0.5,0,1","1","",""
"","html-keyboard-response","3","53212","0.0-3.0","3PQMUDRV7SSXSHF76VIU10P3BISIIS","A3APKUC67F9IMW","3P520RYKCHSO30HY2QJC6BDLS9Z5UE","","null","<img src=""img/food1.png"" style=""width:200px; border:14px solid green;"">","null","","","","","","","","","",""
"","image-keyboard-response","4","53844","0.0-4.0","3PQMUDRV7SSXSHF76VIU10P3BISIIS","A3APKUC67F9IMW","3P520RYKCHSO30HY2QJC6BDLS9Z5UE","","630.3999999910593","img/food5.png","75","631.5999999940395","2","0","3","1","1,0.5,0,1,0.5,0,0.5,0,1","1,0.5,0,1,0.5,0,0.5,0,1","1","",""
"","html-keyboard-response","5","54146","0.0-5.0","3PQMUDRV7SSXSHF76VIU10P3BISIIS","A3APKUC67F9IMW","3P520RYKCHSO30HY2QJC6BDLS9Z5UE","","null","<img src=""img/food5.png"" style=""width:200px;border:14px solid red;"">","null","","","","","","","","","",""
"","image-keyboard-response","6","54780","0.0-6.0","3PQMUDRV7SSXSHF76VIU10P3BISIIS","A3APKUC67F9IMW","3P520RYKCHSO30HY2QJC6BDLS9Z5UE","","632.3999999910593","img/food3.png","76","633.7000000029802","3","0","2","1","1,0.5,0,1,0.5,0,0.5,0,1","1,0.5,0,1,0.5,0,0.5,0,1","1","",""
"","html-keyboard-response","7","55082","0.0-7.0","3PQMUDRV7SSXSHF76VIU10P3BISIIS","A3APKUC67F9IMW","3P520RYKCHSO30HY2QJC6BDLS9Z5UE","","null","<img src=""img/food3.png"" style=""width:200px;border:14px solid red;"">","null","","","","","","","","","",""
"","image-keyboard-response","8","55811","0.0-8.0","3PQMUDRV7SSXSHF76VIU10P3BISIIS","A3APKUC67F9IMW","3P520RYKCHSO30HY2QJC6BDLS9Z5UE","","728.2999999970198","img/food1.png","74","729.7000000029802","1","1","1","1","1,0.5,0,1,0.5,0,0.5,0,1","1,0.5,0,1,0.5,0,0.5,0,1","1","",""
"","html-keyboard-response","9","56114","0.0-9.0","3PQMUDRV7SSXSHF76VIU10P3BISIIS","A3APKUC67F9IMW","3P520RYKCHSO30HY2QJC6BDLS9Z5UE","","null","<img src=""img/food1.png"" style=""width:200px; border:14px solid green;"">","null","","","","","","","","","",""
"","image-keyboard-response","10","57132","0.0-10.0","3PQMUDRV7SSXSHF76VIU10P3BISIIS","A3APKUC67F9IMW","3P520RYKCHSO30HY2QJC6BDLS9Z5UE","","1016.3999999910593","img/food3.png","76","1017.7000000029802","3","0","2","1","1,0.5,0,1,0.5,0,0.5,0,1","1,0.5,0,1,0.5,0,0.5,0,1","1","",""
"","html-keyboard-response","11","57434","0.0-11.0","3PQMUDRV7SSXSHF76VIU10P3BISIIS","A3APKUC67F9IMW","3P520RYKCHSO30HY2QJC6BDLS9Z5UE","","null","<img src=""img/food3.png"" style=""width:200px;border:14px solid red;"">","null","","","","","","","","","",""
"","image-keyboard-response","12","58171","0.0-12.0","3PQMUDRV7SSXSHF76VIU10P3BISIIS","A3APKUC67F9IMW","3P520RYKCHSO30HY2QJC6BDLS9Z5UE","","736.2000000029802","img/food5.png","75","737.5","2","0","3","1","1,0.5,0,1,0.5,0,0.5,0,1","1,0.5,0,1,0.5,0,0.5,0,1","1","",""
"","html-keyboard-response","13","58474","0.0-13.0","3PQMUDRV7SSXSHF76VIU10P3BISIIS","A3APKUC67F9IMW","3P520RYKCHSO30HY2QJC6BDLS9Z5UE","","null","<img src=""img/food5.png"" style=""width:200px;border:14px solid red;"">","null","","","","","","","","","",""
"","image-keyboard-response","14","59308","0.0-14.0","3PQMUDRV7SSXSHF76VIU10P3BISIIS","A3APKUC67F9IMW","3P520RYKCHSO30HY2QJC6BDLS9Z5UE","","832.5","img/food1.png","74","833.6000000089407","1","1","1","1","1,0.5,0,1,0.5,0,0.5,0,1","1,0.5,0,1,0.5,0,0.5,0,1","1","",""
"","html-keyboard-response","15","59610","0.0-15.0","3PQMUDRV7SSXSHF76VIU10P3BISIIS","A3APKUC67F9IMW","3P520RYKCHSO30HY2QJC6BDLS9Z5UE","","null","<img src=""img/food1.png"" style=""width:200px; border:14px solid green;"">","null","","","","","","","","","",""
"","image-keyboard-response","16","60764","0.0-16.0","3PQMUDRV7SSXSHF76VIU10P3BISIIS","A3APKUC67F9IMW","3P520RYKCHSO30HY2QJC6BDLS9Z5UE","","1152.5","img/food3.png","76","1153.7000000029802","3","0","2","1","1,0.5,0,1,0.5,0,0.5,0,1","1,0.5,0,1,0.5,0,0.5,0,1","1","",""
"","html-keyboard-response","17","61066","0.0-17.0","3PQMUDRV7SSXSHF76VIU10P3BISIIS","A3APKUC67F9IMW","3P520RYKCHSO30HY2QJC6BDLS9Z5UE","","null","<img src=""img/food3.png"" style=""width:200px;border:14px solid red;"">","null","","","","","","","","","",""
"","image-keyboard-response","18","62491","0.0-18.0","3PQMUDRV7SSXSHF76VIU10P3BISIIS","A3APKUC67F9IMW","3P520RYKCHSO30HY2QJC6BDLS9Z5UE","","1424.2999999970198","img/food3.png","74","1425.5999999940395","1","1","2","1","1,0.5,0,1,0.5,0,0.5,0,1","1,0.5,0,1,0.5,0,0.5,0,1","1","",""
"","html-keyboard-response","19","62794","0.0-19.0","3PQMUDRV7SSXSHF76VIU10P3BISIIS","A3APKUC67F9IMW","3P520RYKCHSO30HY2QJC6BDLS9Z5UE","","null","<img src=""img/food3.png"" style=""width:200px; border:14px solid green;"">","null","","","","","","","","","",""
"","image-keyboard-response","20","63731","0.0-20.0","3PQMUDRV7SSXSHF76VIU10P3BISIIS","A3APKUC67F9IMW","3P520RYKCHSO30HY2QJC6BDLS9Z5UE","","936.1999999880791","img/food1.png","74","937.4000000059605","1","1","1","1","1,0.5,0,1,0.5,0,0.5,0,1","1,0.5,0,1,0.5,0,0.5,0,1","1","",""
"","html-keyboard-response","21","64034","0.0-21.0","3PQMUDRV7SSXSHF76VIU10P3BISIIS","A3APKUC67F9IMW","3P520RYKCHSO30HY2QJC6BDLS9Z5UE","","null","<img src=""img/food1.png"" style=""width:200px; border:14px solid green;"">","null","","","","","","","","","",""
"","image-keyboard-response","22","64675","0.0-22.0","3PQMUDRV7SSXSHF76VIU10P3BISIIS","A3APKUC67F9IMW","3P520RYKCHSO30HY2QJC6BDLS9Z5UE","","640.1999999880791","img/food5.png","74","641.2999999970198","1","0","3","1","1,0.5,0,1,0.5,0,0.5,0,1","1,0.5,0,1,0.5,0,0.5,0,1","1","",""
"","html-keyboard-response","23","64979","0.0-23.0","3PQMUDRV7SSXSHF76VIU10P3BISIIS","A3APKUC67F9IMW","3P520RYKCHSO30HY2QJC6BDLS9Z5UE","","null","<img src=""img/food5.png"" style=""width:200px;border:14px solid red;"">","null","","","","","","","","","",""
"","image-keyboard-response","24","65827","0.0-24.0","3PQMUDRV7SSXSHF76VIU10P3BISIIS","A3APKUC67F9IMW","3P520RYKCHSO30HY2QJC6BDLS9Z5UE","","847.1999999880791","img/food3.png","74","848.2999999970198","1","1","2","1","1,0.5,0,1,0.5,0,0.5,0,1","1,0.5,0,1,0.5,0,0.5,0,1","1","",""
"","html-keyboard-response","25","66129","0.0-25.0","3PQMUDRV7SSXSHF76VIU10P3BISIIS","A3APKUC67F9IMW","3P520RYKCHSO30HY2QJC6BDLS9Z5UE","","null","<img src=""img/food3.png"" style=""width:200px; border:14px solid green;"">","null","","","","","","","","","",""
"","image-keyboard-response","26","67139","0.0-26.0","3PQMUDRV7SSXSHF76VIU10P3BISIIS","A3APKUC67F9IMW","3P520RYKCHSO30HY2QJC6BDLS9Z5UE","","1008.7999999970198","img/food5.png","75","1010","2","0","3","1","1,0.5,0,1,0.5,0,0.5,0,1","1,0.5,0,1,0.5,0,0.5,0,1","1","",""
"","html-keyboard-response","27","67442","0.0-27.0","3PQMUDRV7SSXSHF76VIU10P3BISIIS","A3APKUC67F9IMW","3P520RYKCHSO30HY2QJC6BDLS9Z5UE","","null","<img src=""img/food5.png"" style=""width:200px;border:14px solid red;"">","null","","","","","","","","","",""
"","image-keyboard-response","28","68227","0.0-28.0","3PQMUDRV7SSXSHF76VIU10P3BISIIS","A3APKUC67F9IMW","3P520RYKCHSO30HY2QJC6BDLS9Z5UE","","784.2999999970198","img/food1.png","74","785.4000000059605","1","1","1","1","1,0.5,0,1,0.5,0,0.5,0,1","1,0.5,0,1,0.5,0,0.5,0,1","1","",""
"","html-keyboard-response","29","68530","0.0-29.0","3PQMUDRV7SSXSHF76VIU10P3BISIIS","A3APKUC67F9IMW","3P520RYKCHSO30HY2QJC6BDLS9Z5UE","","null","<img src=""img/food1.png"" style=""width:200px; border:14px solid green;"">","null","","","","","","","","","",""
"","image-keyboard-response","30","69195","0.0-30.0","3PQMUDRV7SSXSHF76VIU10P3BISIIS","A3APKUC67F9IMW","3P520RYKCHSO30HY2QJC6BDLS9Z5UE","","664.1999999880791","img/food1.png","74","665.4000000059605","1","1","1","1","1,0.5,0,1,0.5,0,0.5,0,1","1,0.5,0,1,0.5,0,0.5,0,1","1","",""
"","html-keyboard-response","31","69498","0.0-31.0","3PQMUDRV7SSXSHF76VIU10P3BISIIS","A3APKUC67F9IMW","3P520RYKCHSO30HY2QJC6BDLS9Z5UE","","null","<img src=""img/food1.png"" style=""width:200px; border:14px solid green;"">","null","","","","","","","","","",""
"","image-keyboard-response","32","70867","0.0-32.0","3PQMUDRV7SSXSHF76VIU10P3BISIIS","A3APKUC67F9IMW","3P520RYKCHSO30HY2QJC6BDLS9Z5UE","","1367.7000000029802","img/food3.png","76","1369","3","0","2","1","1,0.5,0,1,0.5,0,0.5,0,1","1,0.5,0,1,0.5,0,0.5,0,1","1","",""
"","html-keyboard-response","33","71169","0.0-33.0","3PQMUDRV7SSXSHF76VIU10P3BISIIS","A3APKUC67F9IMW","3P520RYKCHSO30HY2QJC6BDLS9Z5UE","","null","<img src=""img/food3.png"" style=""width:200px;border:14px solid red;"">","null","","","","","","","","","",""
"","image-keyboard-response","34","71859","0.0-34.0","3PQMUDRV7SSXSHF76VIU10P3BISIIS","A3APKUC67F9IMW","3P520RYKCHSO30HY2QJC6BDLS9Z5UE","","688.4000000059605","img/food5.png","76","689.7000000029802","3","1","3","1","1,0.5,0,1,0.5,0,0.5,0,1","1,0.5,0,1,0.5,0,0.5,0,1","1","",""
"","html-keyboard-response","35","72161","0.0-35.0","3PQMUDRV7SSXSHF76VIU10P3BISIIS","A3APKUC67F9IMW","3P520RYKCHSO30HY2QJC6BDLS9Z5UE","","null","<img src=""img/food5.png"" style=""width:200px; border:14px solid green;"">","null","","","","","","","","","",""
"","image-keyboard-response","36","73019","0.0-36.0","3PQMUDRV7SSXSHF76VIU10P3BISIIS","A3APKUC67F9IMW","3P520RYKCHSO30HY2QJC6BDLS9Z5UE","","856.4000000059605","img/food1.png","76","857.5","3","0","1","1","1,0.5,0,1,0.5,0,0.5,0,1","1,0.5,0,1,0.5,0,0.5,0,1","1","",""
"","html-keyboard-response","37","73321","0.0-37.0","3PQMUDRV7SSXSHF76VIU10P3BISIIS","A3APKUC67F9IMW","3P520RYKCHSO30HY2QJC6BDLS9Z5UE","","null","<img src=""img/food1.png"" style=""width:200px;border:14px solid red;"">","null","","","","","","","","","",""
"","image-keyboard-response","38","74083","0.0-38.0","3PQMUDRV7SSXSHF76VIU10P3BISIIS","A3APKUC67F9IMW","3P520RYKCHSO30HY2QJC6BDLS9Z5UE","","760.3000000119209","img/food3.png","76","761.6000000089407","3","0","2","1","1,0.5,0,1,0.5,0,0.5,0,1","1,0.5,0,1,0.5,0,0.5,0,1","1","",""
"","html-keyboard-response","39","74385","0.0-39.0","3PQMUDRV7SSXSHF76VIU10P3BISIIS","A3APKUC67F9IMW","3P520RYKCHSO30HY2QJC6BDLS9Z5UE","","null","<img src=""img/food3.png"" style=""width:200px;border:14px solid red;"">","null","","","","","","","","","",""
"","image-keyboard-response","40","74955","0.0-40.0","3PQMUDRV7SSXSHF76VIU10P3BISIIS","A3APKUC67F9IMW","3P520RYKCHSO30HY2QJC6BDLS9Z5UE","","568.5","img/food3.png","76","569.7000000029802","3","0","2","1","1,0.5,0,1,0.5,0,0.5,0,1","1,0.5,0,1,0.5,0,0.5,0,1","1","",""
"","html-keyboard-response","41","75258","0.0-41.0","3PQMUDRV7SSXSHF76VIU10P3BISIIS","A3APKUC67F9IMW","3P520RYKCHSO30HY2QJC6BDLS9Z5UE","","null","<img src=""img/food3.png"" style=""width:200px;border:14px solid red;"">","null","","","","","","","","","",""
"","image-keyboard-response","42","75795","0.0-42.0","3PQMUDRV7SSXSHF76VIU10P3BISIIS","A3APKUC67F9IMW","3P520RYKCHSO30HY2QJC6BDLS9Z5UE","","535.9000000059605","img/food1.png","76","537","3","0","1","1","1,0.5,0,1,0.5,0,0.5,0,1","1,0.5,0,1,0.5,0,0.5,0,1","1","",""
"","html-keyboard-response","43","76097","0.0-43.0","3PQMUDRV7SSXSHF76VIU10P3BISIIS","A3APKUC67F9IMW","3P520RYKCHSO30HY2QJC6BDLS9Z5UE","","null","<img src=""img/food1.png"" style=""width:200px;border:14px solid red;"">","null","","","","","","","","","",""
"","image-keyboard-response","44","76203","0.0-44.0","3PQMUDRV7SSXSHF76VIU10P3BISIIS","A3APKUC67F9IMW","3P520RYKCHSO30HY2QJC6BDLS9Z5UE","","105","img/food5.png","74","106.09999999403954","1","0","3","1","1,0.5,0,1,0.5,0,0.5,0,1","1,0.5,0,1,0.5,0,0.5,0,1","1","",""
"","html-keyboard-response","45","76506","0.0-45.0","3PQMUDRV7SSXSHF76VIU10P3BISIIS","A3APKUC67F9IMW","3P520RYKCHSO30HY2QJC6BDLS9Z5UE","","null","<img src=""img/food5.png"" style=""width:200px;border:14px solid red;"">","null","","","","","","","","","",""
"","image-keyboard-response","46","77971","0.0-46.0","3PQMUDRV7SSXSHF76VIU10P3BISIIS","A3APKUC67F9IMW","3P520RYKCHSO30HY2QJC6BDLS9Z5UE","","1464.1000000089407","img/food3.png","74","1465.2000000029802","1","1","2","1","1,0.5,0,1,0.5,0,0.5,0,1","1,0.5,0,1,0.5,0,0.5,0,1","1","",""
"","html-keyboard-response","47","78273","0.0-47.0","3PQMUDRV7SSXSHF76VIU10P3BISIIS","A3APKUC67F9IMW","3P520RYKCHSO30HY2QJC6BDLS9Z5UE","","null","<img src=""img/food3.png"" style=""width:200px; border:14px solid green;"">","null","","","","","","","","","",""
"","image-keyboard-response","48","79323","0.0-48.0","3PQMUDRV7SSXSHF76VIU10P3BISIIS","A3APKUC67F9IMW","3P520RYKCHSO30HY2QJC6BDLS9Z5UE","","1048.300000011921","img/food5.png","74","1049.5","1","1","3","1","1,0.5,0,1,0.5,0,0.5,0,1","1,0.5,0,1,0.5,0,0.5,0,1","1","",""
"","html-keyboard-response","49","79625","0.0-49.0","3PQMUDRV7SSXSHF76VIU10P3BISIIS","A3APKUC67F9IMW","3P520RYKCHSO30HY2QJC6BDLS9Z5UE","","null","<img src=""img/food5.png"" style=""width:200px; border:14px solid green;"">","null","","","","","","","","","",""
"","image-keyboard-response","50","79947","0.0-50.0","3PQMUDRV7SSXSHF76VIU10P3BISIIS","A3APKUC67F9IMW","3P520RYKCHSO30HY2QJC6BDLS9Z5UE","","320.5","img/food3.png","74","321.70000000298023","1","1","2","1","1,0.5,0,1,0.5,0,0.5,0,1","1,0.5,0,1,0.5,0,0.5,0,1","1","",""
"","html-keyboard-response","51","80249","0.0-51.0","3PQMUDRV7SSXSHF76VIU10P3BISIIS","A3APKUC67F9IMW","3P520RYKCHSO30HY2QJC6BDLS9Z5UE","","null","<img src=""img/food3.png"" style=""width:200px; border:14px solid green;"">","null","","","","","","","","","",""
"","image-keyboard-response","52","80515","0.0-52.0","3PQMUDRV7SSXSHF76VIU10P3BISIIS","A3APKUC67F9IMW","3P520RYKCHSO30HY2QJC6BDLS9Z5UE","","264.90000000596046","img/food1.png","74","266","1","1","1","1","1,0.5,0,1,0.5,0,0.5,0,1","1,0.5,0,1,0.5,0,0.5,0,1","1","",""
"","html-keyboard-response","53","80818","0.0-53.0","3PQMUDRV7SSXSHF76VIU10P3BISIIS","A3APKUC67F9IMW","3P520RYKCHSO30HY2QJC6BDLS9Z5UE","","null","<img src=""img/food1.png"" style=""width:200px; border:14px solid green;"">","null","","","","","","","","","",""
"","image-keyboard-response","54","81083","0.0-54.0","3PQMUDRV7SSXSHF76VIU10P3BISIIS","A3APKUC67F9IMW","3P520RYKCHSO30HY2QJC6BDLS9Z5UE","","263.29999999701977","img/food3.png","74","264.70000000298023","1","1","2","1","1,0.5,0,1,0.5,0,0.5,0,1","1,0.5,0,1,0.5,0,0.5,0,1","1","",""
"","html-keyboard-response","55","81385","0.0-55.0","3PQMUDRV7SSXSHF76VIU10P3BISIIS","A3APKUC67F9IMW","3P520RYKCHSO30HY2QJC6BDLS9Z5UE","","null","<img src=""img/food3.png"" style=""width:200px; border:14px solid green;"">","null","","","","","","","","","",""
"","image-keyboard-response","56","81547","0.0-56.0","3PQMUDRV7SSXSHF76VIU10P3BISIIS","A3APKUC67F9IMW","3P520RYKCHSO30HY2QJC6BDLS9Z5UE","","160.5","img/food3.png","74","161.5","1","1","2","1","1,0.5,0,1,0.5,0,0.5,0,1","1,0.5,0,1,0.5,0,0.5,0,1","1","",""
"","html-keyboard-response","57","81849","0.0-57.0","3PQMUDRV7SSXSHF76VIU10P3BISIIS","A3APKUC67F9IMW","3P520RYKCHSO30HY2QJC6BDLS9Z5UE","","null","<img src=""img/food3.png"" style=""width:200px; border:14px solid green;"">","null","","","","","","","","","",""
"","image-keyboard-response","58","81931","0.0-58.0","3PQMUDRV7SSXSHF76VIU10P3BISIIS","A3APKUC67F9IMW","3P520RYKCHSO30HY2QJC6BDLS9Z5UE","","80.20000000298023","img/food1.png","74","81.3999999910593","1","1","1","1","1,0.5,0,1,0.5,0,0.5,0,1","1,0.5,0,1,0.5,0,0.5,0,1","1","",""
"","html-keyboard-response","59","82233","0.0-59.0","3PQMUDRV7SSXSHF76VIU10P3BISIIS","A3APKUC67F9IMW","3P520RYKCHSO30HY2QJC6BDLS9Z5UE","","null","<img src=""img/food1.png"" style=""width:200px; border:14px solid green;"">","null","","","","","","","","","",""
"","image-keyboard-response","60","82235","0.0-60.0","3PQMUDRV7SSXSHF76VIU10P3BISIIS","A3APKUC67F9IMW","3P520RYKCHSO30HY2QJC6BDLS9Z5UE","","0.5999999940395355","img/food1.png","74","1.7000000029802322","1","1","1","1","1,0.5,0,1,0.5,0,0.5,0,1","1,0.5,0,1,0.5,0,0.5,0,1","1","",""
"","html-keyboard-response","61","82536","0.0-61.0","3PQMUDRV7SSXSHF76VIU10P3BISIIS","A3APKUC67F9IMW","3P520RYKCHSO30HY2QJC6BDLS9Z5UE","","null","<img src=""img/food1.png"" style=""width:200px; border:14px solid green;"">","null","","","","","","","","","",""
"","image-keyboard-response","62","82603","0.0-62.0","3PQMUDRV7SSXSHF76VIU10P3BISIIS","A3APKUC67F9IMW","3P520RYKCHSO30HY2QJC6BDLS9Z5UE","","65.40000000596046","img/food1.png","74","66.5","1","1","1","1","1,0.5,0,1,0.5,0,0.5,0,1","1,0.5,0,1,0.5,0,0.5,0,1","1","",""
"","html-keyboard-response","63","82905","0.0-63.0","3PQMUDRV7SSXSHF76VIU10P3BISIIS","A3APKUC67F9IMW","3P520RYKCHSO30HY2QJC6BDLS9Z5UE","","null","<img src=""img/food1.png"" style=""width:200px; border:14px solid green;"">","null","","","","","","","","","",""
"","image-keyboard-response","64","82923","0.0-64.0","3PQMUDRV7SSXSHF76VIU10P3BISIIS","A3APKUC67F9IMW","3P520RYKCHSO30HY2QJC6BDLS9Z5UE","","16.400000005960464","img/food5.png","74","17.400000005960464","1","1","3","1","1,0.5,0,1,0.5,0,0.5,0,1","1,0.5,0,1,0.5,0,0.5,0,1","1","",""
"","html-keyboard-response","65","83225","0.0-65.0","3PQMUDRV7SSXSHF76VIU10P3BISIIS","A3APKUC67F9IMW","3P520RYKCHSO30HY2QJC6BDLS9Z5UE","","null","<img src=""img/food5.png"" style=""width:200px; border:14px solid green;"">","null","","","","","","","","","",""
"","image-keyboard-response","66","83307","0.0-66.0","3PQMUDRV7SSXSHF76VIU10P3BISIIS","A3APKUC67F9IMW","3P520RYKCHSO30HY2QJC6BDLS9Z5UE","","80.59999999403954","img/food1.png","74","81.79999999701977","1","1","1","1","1,0.5,0,1,0.5,0,0.5,0,1","1,0.5,0,1,0.5,0,0.5,0,1","1","",""
"","html-keyboard-response","67","83609","0.0-67.0","3PQMUDRV7SSXSHF76VIU10P3BISIIS","A3APKUC67F9IMW","3P520RYKCHSO30HY2QJC6BDLS9Z5UE","","null","<img src=""img/food1.png"" style=""width:200px; border:14px solid green;"">","null","","","","","","","","","",""
"","image-keyboard-response","68","83612","0.0-68.0","3PQMUDRV7SSXSHF76VIU10P3BISIIS","A3APKUC67F9IMW","3P520RYKCHSO30HY2QJC6BDLS9Z5UE","","1.9000000059604645","img/food3.png","74","3.0999999940395355","1","1","2","1","1,0.5,0,1,0.5,0,0.5,0,1","1,0.5,0,1,0.5,0,0.5,0,1","1","",""
"","html-keyboard-response","69","83915","0.0-69.0","3PQMUDRV7SSXSHF76VIU10P3BISIIS","A3APKUC67F9IMW","3P520RYKCHSO30HY2QJC6BDLS9Z5UE","","null","<img src=""img/food3.png"" style=""width:200px; border:14px solid green;"">","null","","","","","","","","","",""
"","image-keyboard-response","70","84155","0.0-70.0","3PQMUDRV7SSXSHF76VIU10P3BISIIS","A3APKUC67F9IMW","3P520RYKCHSO30HY2QJC6BDLS9Z5UE","","238.5","img/food1.png","74","239.69999998807907","1","1","1","1","1,0.5,0,1,0.5,0,0.5,0,1","1,0.5,0,1,0.5,0,0.5,0,1","1","",""
"","html-keyboard-response","71","84457","0.0-71.0","3PQMUDRV7SSXSHF76VIU10P3BISIIS","A3APKUC67F9IMW","3P520RYKCHSO30HY2QJC6BDLS9Z5UE","","null","<img src=""img/food1.png"" style=""width:200px; border:14px solid green;"">","null","","","","","","","","","",""
"","image-keyboard-response","72","84747","0.0-72.0","3PQMUDRV7SSXSHF76VIU10P3BISIIS","A3APKUC67F9IMW","3P520RYKCHSO30HY2QJC6BDLS9Z5UE","","288.3999999910593","img/food3.png","74","289.6000000089407","1","1","2","1","1,0.5,0,1,0.5,0,0.5,0,1","1,0.5,0,1,0.5,0,0.5,0,1","1","",""
"","html-keyboard-response","73","85049","0.0-73.0","3PQMUDRV7SSXSHF76VIU10P3BISIIS","A3APKUC67F9IMW","3P520RYKCHSO30HY2QJC6BDLS9Z5UE","","null","<img src=""img/food3.png"" style=""width:200px; border:14px solid green;"">","null","","","","","","","","","",""
"","image-keyboard-response","74","85051","0.0-74.0","3PQMUDRV7SSXSHF76VIU10P3BISIIS","A3APKUC67F9IMW","3P520RYKCHSO30HY2QJC6BDLS9Z5UE","","0.7000000029802322","img/food1.png","74","1.7999999970197678","1","1","1","1","1,0.5,0,1,0.5,0,0.5,0,1","1,0.5,0,1,0.5,0,0.5,0,1","1","",""
"","html-keyboard-response","75","85353","0.0-75.0","3PQMUDRV7SSXSHF76VIU10P3BISIIS","A3APKUC67F9IMW","3P520RYKCHSO30HY2QJC6BDLS9Z5UE","","null","<img src=""img/food1.png"" style=""width:200px; border:14px solid green;"">","null","","","","","","","","","",""
"","image-keyboard-response","76","85371","0.0-76.0","3PQMUDRV7SSXSHF76VIU10P3BISIIS","A3APKUC67F9IMW","3P520RYKCHSO30HY2QJC6BDLS9Z5UE","","16.299999997019768","img/food5.png","74","17.399999991059303","1","0","3","1","1,0.5,0,1,0.5,0,0.5,0,1","1,0.5,0,1,0.5,0,0.5,0,1","1","",""
"","html-keyboard-response","77","85673","0.0-77.0","3PQMUDRV7SSXSHF76VIU10P3BISIIS","A3APKUC67F9IMW","3P520RYKCHSO30HY2QJC6BDLS9Z5UE","","null","<img src=""img/food5.png"" style=""width:200px;border:14px solid red;"">","null","","","","","","","","","",""
"","image-keyboard-response","78","86427","0.0-78.0","3PQMUDRV7SSXSHF76VIU10P3BISIIS","A3APKUC67F9IMW","3P520RYKCHSO30HY2QJC6BDLS9Z5UE","","752.7000000029802","img/food5.png","74","753.7000000029802","1","0","3","1","1,0.5,0,1,0.5,0,0.5,0,1","1,0.5,0,1,0.5,0,0.5,0,1","1","",""
"","html-keyboard-response","79","86729","0.0-79.0","3PQMUDRV7SSXSHF76VIU10P3BISIIS","A3APKUC67F9IMW","3P520RYKCHSO30HY2QJC6BDLS9Z5UE","","null","<img src=""img/food5.png"" style=""width:200px;border:14px solid red;"">","null","","","","","","","","","",""
"","image-keyboard-response","80","87451","0.0-80.0","3PQMUDRV7SSXSHF76VIU10P3BISIIS","A3APKUC67F9IMW","3P520RYKCHSO30HY2QJC6BDLS9Z5UE","","720.2000000029802","img/food1.png","74","721.3999999910593","1","1","1","1","1,0.5,0,1,0.5,0,0.5,0,1","1,0.5,0,1,0.5,0,0.5,0,1","1","",""
"","html-keyboard-response","81","87753","0.0-81.0","3PQMUDRV7SSXSHF76VIU10P3BISIIS","A3APKUC67F9IMW","3P520RYKCHSO30HY2QJC6BDLS9Z5UE","","null","<img src=""img/food1.png"" style=""width:200px; border:14px solid green;"">","null","","","","","","","","","",""
"","image-keyboard-response","82","88891","0.0-82.0","3PQMUDRV7SSXSHF76VIU10P3BISIIS","A3APKUC67F9IMW","3P520RYKCHSO30HY2QJC6BDLS9Z5UE","","1136.5999999940395","img/food5.png","75","1137.7999999970198","2","0","3","1","1,0.5,0,1,0.5,0,0.5,0,1","1,0.5,0,1,0.5,0,0.5,0,1","1","",""
"","html-keyboard-response","83","89193","0.0-83.0","3PQMUDRV7SSXSHF76VIU10P3BISIIS","A3APKUC67F9IMW","3P520RYKCHSO30HY2QJC6BDLS9Z5UE","","null","<img src=""img/food5.png"" style=""width:200px;border:14px solid red;"">","null","","","","","","","","","",""
"","image-keyboard-response","84","89635","0.0-84.0","3PQMUDRV7SSXSHF76VIU10P3BISIIS","A3APKUC67F9IMW","3P520RYKCHSO30HY2QJC6BDLS9Z5UE","","440","img/food5.png","74","441.40000000596046","1","0","3","1","1,0.5,0,1,0.5,0,0.5,0,1","1,0.5,0,1,0.5,0,0.5,0,1","1","",""
"","html-keyboard-response","85","89937","0.0-85.0","3PQMUDRV7SSXSHF76VIU10P3BISIIS","A3APKUC67F9IMW","3P520RYKCHSO30HY2QJC6BDLS9Z5UE","","null","<img src=""img/food5.png"" style=""width:200px;border:14px solid red;"">","null","","","","","","","","","",""
"","image-keyboard-response","86","91075","0.0-86.0","3PQMUDRV7SSXSHF76VIU10P3BISIIS","A3APKUC67F9IMW","3P520RYKCHSO30HY2QJC6BDLS9Z5UE","","1136.7000000029802","img/food3.png","76","1137.9000000059605","3","0","2","1","1,0.5,0,1,0.5,0,0.5,0,1","1,0.5,0,1,0.5,0,0.5,0,1","1","",""
"","html-keyboard-response","87","91377","0.0-87.0","3PQMUDRV7SSXSHF76VIU10P3BISIIS","A3APKUC67F9IMW","3P520RYKCHSO30HY2QJC6BDLS9Z5UE","","null","<img src=""img/food3.png"" style=""width:200px;border:14px solid red;"">","null","","","","","","","","","",""
"","image-keyboard-response","88","91875","0.0-88.0","3PQMUDRV7SSXSHF76VIU10P3BISIIS","A3APKUC67F9IMW","3P520RYKCHSO30HY2QJC6BDLS9Z5UE","","496.29999999701977","img/food3.png","74","497.59999999403954","1","1","2","1","1,0.5,0,1,0.5,0,0.5,0,1","1,0.5,0,1,0.5,0,0.5,0,1","1","",""
"","html-keyboard-response","89","92177","0.0-89.0","3PQMUDRV7SSXSHF76VIU10P3BISIIS","A3APKUC67F9IMW","3P520RYKCHSO30HY2QJC6BDLS9Z5UE","","null","<img src=""img/food3.png"" style=""width:200px; border:14px solid green;"">","null","","","","","","","","","",""
"","image-keyboard-response","90","93163","0.0-90.0","3PQMUDRV7SSXSHF76VIU10P3BISIIS","A3APKUC67F9IMW","3P520RYKCHSO30HY2QJC6BDLS9Z5UE","","984.4000000059605","img/food5.png","76","985.5999999940395","3","1","3","1","1,0.5,0,1,0.5,0,0.5,0,1","1,0.5,0,1,0.5,0,0.5,0,1","1","",""
"","html-keyboard-response","91","93465","0.0-91.0","3PQMUDRV7SSXSHF76VIU10P3BISIIS","A3APKUC67F9IMW","3P520RYKCHSO30HY2QJC6BDLS9Z5UE","","null","<img src=""img/food5.png"" style=""width:200px; border:14px solid green;"">","null","","","","","","","","","",""
"","image-keyboard-response","92","94683","0.0-92.0","3PQMUDRV7SSXSHF76VIU10P3BISIIS","A3APKUC67F9IMW","3P520RYKCHSO30HY2QJC6BDLS9Z5UE","","1216.5","img/food3.png","74","1217.699999988079","1","1","2","1","1,0.5,0,1,0.5,0,0.5,0,1","1,0.5,0,1,0.5,0,0.5,0,1","1","",""
"","html-keyboard-response","93","94985","0.0-93.0","3PQMUDRV7SSXSHF76VIU10P3BISIIS","A3APKUC67F9IMW","3P520RYKCHSO30HY2QJC6BDLS9Z5UE","","null","<img src=""img/food3.png"" style=""width:200px; border:14px solid green;"">","null","","","","","","","","","",""
"","image-keyboard-response","94","95595","0.0-94.0","3PQMUDRV7SSXSHF76VIU10P3BISIIS","A3APKUC67F9IMW","3P520RYKCHSO30HY2QJC6BDLS9Z5UE","","608.4000000059605","img/food1.png","74","610","1","1","1","1","1,0.5,0,1,0.5,0,0.5,0,1","1,0.5,0,1,0.5,0,0.5,0,1","1","",""
"","html-keyboard-response","95","95898","0.0-95.0","3PQMUDRV7SSXSHF76VIU10P3BISIIS","A3APKUC67F9IMW","3P520RYKCHSO30HY2QJC6BDLS9Z5UE","","null","<img src=""img/food1.png"" style=""width:200px; border:14px solid green;"">","null","","","","","","","","","",""
"","image-keyboard-response","96","96747","0.0-96.0","3PQMUDRV7SSXSHF76VIU10P3BISIIS","A3APKUC67F9IMW","3P520RYKCHSO30HY2QJC6BDLS9Z5UE","","847.1999999880791","img/food3.png","74","848.2999999970198","1","1","2","1","1,0.5,0,1,0.5,0,0.5,0,1","1,0.5,0,1,0.5,0,0.5,0,1","1","",""
"","html-keyboard-response","97","97048","0.0-97.0","3PQMUDRV7SSXSHF76VIU10P3BISIIS","A3APKUC67F9IMW","3P520RYKCHSO30HY2QJC6BDLS9Z5UE","","null","<img src=""img/food3.png"" style=""width:200px; border:14px solid green;"">","null","","","","","","","","","",""
"","image-keyboard-response","98","97667","0.0-98.0","3PQMUDRV7SSXSHF76VIU10P3BISIIS","A3APKUC67F9IMW","3P520RYKCHSO30HY2QJC6BDLS9Z5UE","","617","img/food1.png","74","618.1999999880791","1","1","1","1","1,0.5,0,1,0.5,0,0.5,0,1","1,0.5,0,1,0.5,0,0.5,0,1","1","",""
"","html-keyboard-response","99","97969","0.0-99.0","3PQMUDRV7SSXSHF76VIU10P3BISIIS","A3APKUC67F9IMW","3P520RYKCHSO30HY2QJC6BDLS9Z5UE","","null","<img src=""img/food1.png"" style=""width:200px; border:14px solid green;"">","null","","","","","","","","","",""
"","image-keyboard-response","100","98483","0.0-100.0","3PQMUDRV7SSXSHF76VIU10P3BISIIS","A3APKUC67F9IMW","3P520RYKCHSO30HY2QJC6BDLS9Z5UE","","512.1999999880791","img/food3.png","74","513.5","1","1","2","1","1,0.5,0,1,0.5,0,0.5,0,1","1,0.5,0,1,0.5,0,0.5,0,1","1","",""
"","html-keyboard-response","101","98784","0.0-101.0","3PQMUDRV7SSXSHF76VIU10P3BISIIS","A3APKUC67F9IMW","3P520RYKCHSO30HY2QJC6BDLS9Z5UE","","null","<img src=""img/food3.png"" style=""width:200px; border:14px solid green;"">","null","","","","","","","","","",""
"","image-keyboard-response","102","99387","0.0-102.0","3PQMUDRV7SSXSHF76VIU10P3BISIIS","A3APKUC67F9IMW","3P520RYKCHSO30HY2QJC6BDLS9Z5UE","","601","img/food1.png","76","602.2999999970198","3","0","1","1","1,0.5,0,1,0.5,0,0.5,0,1","1,0.5,0,1,0.5,0,0.5,0,1","1","",""
"","html-keyboard-response","103","99690","0.0-103.0","3PQMUDRV7SSXSHF76VIU10P3BISIIS","A3APKUC67F9IMW","3P520RYKCHSO30HY2QJC6BDLS9Z5UE","","null","<img src=""img/food1.png"" style=""width:200px;border:14px solid red;"">","null","","","","","","","","","",""
"","image-keyboard-response","104","100123","0.0-104.0","3PQMUDRV7SSXSHF76VIU10P3BISIIS","A3APKUC67F9IMW","3P520RYKCHSO30HY2QJC6BDLS9Z5UE","","431.09999999403954","img/food1.png","74","432.59999999403954","1","1","1","1","1,0.5,0,1,0.5,0,0.5,0,1","1,0.5,0,1,0.5,0,0.5,0,1","1","",""
"","html-keyboard-response","105","100425","0.0-105.0","3PQMUDRV7SSXSHF76VIU10P3BISIIS","A3APKUC67F9IMW","3P520RYKCHSO30HY2QJC6BDLS9Z5UE","","null","<img src=""img/food1.png"" style=""width:200px; border:14px solid green;"">","null","","","","","","","","","",""
"","image-keyboard-response","106","100971","0.0-106.0","3PQMUDRV7SSXSHF76VIU10P3BISIIS","A3APKUC67F9IMW","3P520RYKCHSO30HY2QJC6BDLS9Z5UE","","544.5999999940395","img/food3.png","74","545.7000000029802","1","1","2","1","1,0.5,0,1,0.5,0,0.5,0,1","1,0.5,0,1,0.5,0,0.5,0,1","1","",""
"","html-keyboard-response","107","101272","0.0-107.0","3PQMUDRV7SSXSHF76VIU10P3BISIIS","A3APKUC67F9IMW","3P520RYKCHSO30HY2QJC6BDLS9Z5UE","","null","<img src=""img/food3.png"" style=""width:200px; border:14px solid green;"">","null","","","","","","","","","",""
"","image-keyboard-response","108","101795","0.0-108.0","3PQMUDRV7SSXSHF76VIU10P3BISIIS","A3APKUC67F9IMW","3P520RYKCHSO30HY2QJC6BDLS9Z5UE","","521.1999999880791","img/food1.png","74","522.2999999970198","1","1","1","1","1,0.5,0,1,0.5,0,0.5,0,1","1,0.5,0,1,0.5,0,0.5,0,1","1","",""
"","html-keyboard-response","109","102096","0.0-109.0","3PQMUDRV7SSXSHF76VIU10P3BISIIS","A3APKUC67F9IMW","3P520RYKCHSO30HY2QJC6BDLS9Z5UE","","null","<img src=""img/food1.png"" style=""width:200px; border:14px solid green;"">","null","","","","","","","","","",""
"","image-keyboard-response","110","102579","0.0-110.0","3PQMUDRV7SSXSHF76VIU10P3BISIIS","A3APKUC67F9IMW","3P520RYKCHSO30HY2QJC6BDLS9Z5UE","","481.29999999701977","img/food5.png","76","482.59999999403954","3","1","3","1","1,0.5,0,1,0.5,0,0.5,0,1","1,0.5,0,1,0.5,0,0.5,0,1","1","",""
"","html-keyboard-response","111","102881","0.0-111.0","3PQMUDRV7SSXSHF76VIU10P3BISIIS","A3APKUC67F9IMW","3P520RYKCHSO30HY2QJC6BDLS9Z5UE","","null","<img src=""img/food5.png"" style=""width:200px; border:14px solid green;"">","null","","","","","","","","","",""
"","image-keyboard-response","112","103331","0.0-112.0","3PQMUDRV7SSXSHF76VIU10P3BISIIS","A3APKUC67F9IMW","3P520RYKCHSO30HY2QJC6BDLS9Z5UE","","448.3999999910593","img/food5.png","76","449.5","3","1","3","1","1,0.5,0,1,0.5,0,0.5,0,1","1,0.5,0,1,0.5,0,0.5,0,1","1","",""
"","html-keyboard-response","113","103632","0.0-113.0","3PQMUDRV7SSXSHF76VIU10P3BISIIS","A3APKUC67F9IMW","3P520RYKCHSO30HY2QJC6BDLS9Z5UE","","null","<img src=""img/food5.png"" style=""width:200px; border:14px solid green;"">","null","","","","","","","","","",""
"","image-keyboard-response","114","104363","0.0-114.0","3PQMUDRV7SSXSHF76VIU10P3BISIIS","A3APKUC67F9IMW","3P520RYKCHSO30HY2QJC6BDLS9Z5UE","","729.0999999940395","img/food5.png","76","730.2999999970198","3","1","3","1","1,0.5,0,1,0.5,0,0.5,0,1","1,0.5,0,1,0.5,0,0.5,0,1","1","",""
"","html-keyboard-response","115","104665","0.0-115.0","3PQMUDRV7SSXSHF76VIU10P3BISIIS","A3APKUC67F9IMW","3P520RYKCHSO30HY2QJC6BDLS9Z5UE","","null","<img src=""img/food5.png"" style=""width:200px; border:14px solid green;"">","null","","","","","","","","","",""
"","image-keyboard-response","116","105403","0.0-116.0","3PQMUDRV7SSXSHF76VIU10P3BISIIS","A3APKUC67F9IMW","3P520RYKCHSO30HY2QJC6BDLS9Z5UE","","736.2000000029802","img/food3.png","76","737.5","3","0","2","1","1,0.5,0,1,0.5,0,0.5,0,1","1,0.5,0,1,0.5,0,0.5,0,1","1","",""
"","html-keyboard-response","117","105705","0.0-117.0","3PQMUDRV7SSXSHF76VIU10P3BISIIS","A3APKUC67F9IMW","3P520RYKCHSO30HY2QJC6BDLS9Z5UE","","null","<img src=""img/food3.png"" style=""width:200px;border:14px solid red;"">","null","","","","","","","","","",""
"","image-keyboard-response","118","106451","0.0-118.0","3PQMUDRV7SSXSHF76VIU10P3BISIIS","A3APKUC67F9IMW","3P520RYKCHSO30HY2QJC6BDLS9Z5UE","","744.5999999940395","img/food5.png","76","745.7000000029802","3","1","3","1","1,0.5,0,1,0.5,0,0.5,0,1","1,0.5,0,1,0.5,0,0.5,0,1","1","",""
"","html-keyboard-response","119","106753","0.0-119.0","3PQMUDRV7SSXSHF76VIU10P3BISIIS","A3APKUC67F9IMW","3P520RYKCHSO30HY2QJC6BDLS9Z5UE","","null","<img src=""img/food5.png"" style=""width:200px; border:14px solid green;"">","null","","","","","","","","","",""
"","image-keyboard-response","120","107723","0.0-120.0","3PQMUDRV7SSXSHF76VIU10P3BISIIS","A3APKUC67F9IMW","3P520RYKCHSO30HY2QJC6BDLS9Z5UE","","968.2999999970198","img/food3.png","74","969.4000000059605","1","1","2","1","1,0.5,0,1,0.5,0,0.5,0,1","1,0.5,0,1,0.5,0,0.5,0,1","1","",""
"","html-keyboard-response","121","108025","0.0-121.0","3PQMUDRV7SSXSHF76VIU10P3BISIIS","A3APKUC67F9IMW","3P520RYKCHSO30HY2QJC6BDLS9Z5UE","","null","<img src=""img/food3.png"" style=""width:200px; border:14px solid green;"">","null","","","","","","","","","",""
"","image-keyboard-response","122","108547","0.0-122.0","3PQMUDRV7SSXSHF76VIU10P3BISIIS","A3APKUC67F9IMW","3P520RYKCHSO30HY2QJC6BDLS9Z5UE","","520.2999999970198","img/food5.png","74","521.5999999940395","1","0","3","1","1,0.5,0,1,0.5,0,0.5,0,1","1,0.5,0,1,0.5,0,0.5,0,1","1","",""
"","html-keyboard-response","123","108849","0.0-123.0","3PQMUDRV7SSXSHF76VIU10P3BISIIS","A3APKUC67F9IMW","3P520RYKCHSO30HY2QJC6BDLS9Z5UE","","null","<img src=""img/food5.png"" style=""width:200px;border:14px solid red;"">","null","","","","","","","","","",""
"","image-keyboard-response","124","109571","0.0-124.0","3PQMUDRV7SSXSHF76VIU10P3BISIIS","A3APKUC67F9IMW","3P520RYKCHSO30HY2QJC6BDLS9Z5UE","","720.5999999940395","img/food1.png","74","721.8000000119209","1","1","1","1","1,0.5,0,1,0.5,0,0.5,0,1","1,0.5,0,1,0.5,0,0.5,0,1","1","",""
"","html-keyboard-response","125","109873","0.0-125.0","3PQMUDRV7SSXSHF76VIU10P3BISIIS","A3APKUC67F9IMW","3P520RYKCHSO30HY2QJC6BDLS9Z5UE","","null","<img src=""img/food1.png"" style=""width:200px; border:14px solid green;"">","null","","","","","","","","","",""
"","image-keyboard-response","126","110459","0.0-126.0","3PQMUDRV7SSXSHF76VIU10P3BISIIS","A3APKUC67F9IMW","3P520RYKCHSO30HY2QJC6BDLS9Z5UE","","584.5","img/food3.png","76","585.7000000029802","3","0","2","1","1,0.5,0,1,0.5,0,0.5,0,1","1,0.5,0,1,0.5,0,0.5,0,1","1","",""
"","html-keyboard-response","127","110760","0.0-127.0","3PQMUDRV7SSXSHF76VIU10P3BISIIS","A3APKUC67F9IMW","3P520RYKCHSO30HY2QJC6BDLS9Z5UE","","null","<img src=""img/food3.png"" style=""width:200px;border:14px solid red;"">","null","","","","","","","","","",""
"","image-keyboard-response","128","111787","0.0-128.0","3PQMUDRV7SSXSHF76VIU10P3BISIIS","A3APKUC67F9IMW","3P520RYKCHSO30HY2QJC6BDLS9Z5UE","","1024.9000000059605","img/food5.png","76","1026.2000000029802","3","1","3","1","1,0.5,0,1,0.5,0,0.5,0,1","1,0.5,0,1,0.5,0,0.5,0,1","1","",""
"","html-keyboard-response","129","112089","0.0-129.0","3PQMUDRV7SSXSHF76VIU10P3BISIIS","A3APKUC67F9IMW","3P520RYKCHSO30HY2QJC6BDLS9Z5UE","","null","<img src=""img/food5.png"" style=""width:200px; border:14px solid green;"">","null","","","","","","","","","",""
"","image-keyboard-response","130","112843","0.0-130.0","3PQMUDRV7SSXSHF76VIU10P3BISIIS","A3APKUC67F9IMW","3P520RYKCHSO30HY2QJC6BDLS9Z5UE","","752.6000000089407","img/food3.png","74","753.9000000059605","1","1","2","1","1,0.5,0,1,0.5,0,0.5,0,1","1,0.5,0,1,0.5,0,0.5,0,1","1","",""
"","html-keyboard-response","131","113145","0.0-131.0","3PQMUDRV7SSXSHF76VIU10P3BISIIS","A3APKUC67F9IMW","3P520RYKCHSO30HY2QJC6BDLS9Z5UE","","null","<img src=""img/food3.png"" style=""width:200px; border:14px solid green;"">","null","","","","","","","","","",""
"","image-keyboard-response","132","114003","0.0-132.0","3PQMUDRV7SSXSHF76VIU10P3BISIIS","A3APKUC67F9IMW","3P520RYKCHSO30HY2QJC6BDLS9Z5UE","","855.4000000059605","img/food5.png","76","856.6000000089407","3","1","3","1","1,0.5,0,1,0.5,0,0.5,0,1","1,0.5,0,1,0.5,0,0.5,0,1","1","",""
"","html-keyboard-response","133","114305","0.0-133.0","3PQMUDRV7SSXSHF76VIU10P3BISIIS","A3APKUC67F9IMW","3P520RYKCHSO30HY2QJC6BDLS9Z5UE","","null","<img src=""img/food5.png"" style=""width:200px; border:14px solid green;"">","null","","","","","","","","","",""
"","image-keyboard-response","134","115259","0.0-134.0","3PQMUDRV7SSXSHF76VIU10P3BISIIS","A3APKUC67F9IMW","3P520RYKCHSO30HY2QJC6BDLS9Z5UE","","952.2000000029802","img/food3.png","76","953.2999999970198","3","0","2","1","1,0.5,0,1,0.5,0,0.5,0,1","1,0.5,0,1,0.5,0,0.5,0,1","1","",""
"","html-keyboard-response","135","115561","0.0-135.0","3PQMUDRV7SSXSHF76VIU10P3BISIIS","A3APKUC67F9IMW","3P520RYKCHSO30HY2QJC6BDLS9Z5UE","","null","<img src=""img/food3.png"" style=""width:200px;border:14px solid red;"">","null","","","","","","","","","",""
"","image-keyboard-response","136","116435","0.0-136.0","3PQMUDRV7SSXSHF76VIU10P3BISIIS","A3APKUC67F9IMW","3P520RYKCHSO30HY2QJC6BDLS9Z5UE","","872.2000000029802","img/food5.png","76","873.5","3","1","3","1","1,0.5,0,1,0.5,0,0.5,0,1","1,0.5,0,1,0.5,0,0.5,0,1","1","",""
"","html-keyboard-response","137","116737","0.0-137.0","3PQMUDRV7SSXSHF76VIU10P3BISIIS","A3APKUC67F9IMW","3P520RYKCHSO30HY2QJC6BDLS9Z5UE","","null","<img src=""img/food5.png"" style=""width:200px; border:14px solid green;"">","null","","","","","","","","","",""
"","image-keyboard-response","138","117411","0.0-138.0","3PQMUDRV7SSXSHF76VIU10P3BISIIS","A3APKUC67F9IMW","3P520RYKCHSO30HY2QJC6BDLS9Z5UE","","672.7000000029802","img/food3.png","74","673.7000000029802","1","1","2","1","1,0.5,0,1,0.5,0,0.5,0,1","1,0.5,0,1,0.5,0,0.5,0,1","1","",""
"","html-keyboard-response","139","117713","0.0-139.0","3PQMUDRV7SSXSHF76VIU10P3BISIIS","A3APKUC67F9IMW","3P520RYKCHSO30HY2QJC6BDLS9Z5UE","","null","<img src=""img/food3.png"" style=""width:200px; border:14px solid green;"">","null","","","","","","","","","",""
"","image-keyboard-response","140","118275","0.0-140.0","3PQMUDRV7SSXSHF76VIU10P3BISIIS","A3APKUC67F9IMW","3P520RYKCHSO30HY2QJC6BDLS9Z5UE","","560.2000000029802","img/food3.png","74","561.2999999970198","1","1","2","1","1,0.5,0,1,0.5,0,0.5,0,1","1,0.5,0,1,0.5,0,0.5,0,1","1","",""
"","html-keyboard-response","141","118578","0.0-141.0","3PQMUDRV7SSXSHF76VIU10P3BISIIS","A3APKUC67F9IMW","3P520RYKCHSO30HY2QJC6BDLS9Z5UE","","null","<img src=""img/food3.png"" style=""width:200px; border:14px solid green;"">","null","","","","","","","","","",""
"","image-keyboard-response","142","119067","0.0-142.0","3PQMUDRV7SSXSHF76VIU10P3BISIIS","A3APKUC67F9IMW","3P520RYKCHSO30HY2QJC6BDLS9Z5UE","","487.30000001192093","img/food3.png","74","488.5","1","1","2","1","1,0.5,0,1,0.5,0,0.5,0,1","1,0.5,0,1,0.5,0,0.5,0,1","1","",""
"","html-keyboard-response","143","119369","0.0-143.0","3PQMUDRV7SSXSHF76VIU10P3BISIIS","A3APKUC67F9IMW","3P520RYKCHSO30HY2QJC6BDLS9Z5UE","","null","<img src=""img/food3.png"" style=""width:200px; border:14px solid green;"">","null","","","","","","","","","",""
"","image-keyboard-response","144","119859","0.0-144.0","3PQMUDRV7SSXSHF76VIU10P3BISIIS","A3APKUC67F9IMW","3P520RYKCHSO30HY2QJC6BDLS9Z5UE","","488.59999999403954","img/food1.png","74","489.70000000298023","1","1","1","1","1,0.5,0,1,0.5,0,0.5,0,1","1,0.5,0,1,0.5,0,0.5,0,1","1","",""
"","html-keyboard-response","145","120160","0.0-145.0","3PQMUDRV7SSXSHF76VIU10P3BISIIS","A3APKUC67F9IMW","3P520RYKCHSO30HY2QJC6BDLS9Z5UE","","null","<img src=""img/food1.png"" style=""width:200px; border:14px solid green;"">","null","","","","","","","","","",""
"","image-keyboard-response","146","120283","0.0-146.0","3PQMUDRV7SSXSHF76VIU10P3BISIIS","A3APKUC67F9IMW","3P520RYKCHSO30HY2QJC6BDLS9Z5UE","","121.09999999403954","img/food5.png","74","122.20000000298023","1","0","3","1","1,0.5,0,1,0.5,0,0.5,0,1","1,0.5,0,1,0.5,0,0.5,0,1","1","",""
"","html-keyboard-response","147","120584","0.0-147.0","3PQMUDRV7SSXSHF76VIU10P3BISIIS","A3APKUC67F9IMW","3P520RYKCHSO30HY2QJC6BDLS9Z5UE","","null","<img src=""img/food5.png"" style=""width:200px;border:14px solid red;"">","null","","","","","","","","","",""
"","image-keyboard-response","148","121411","0.0-148.0","3PQMUDRV7SSXSHF76VIU10P3BISIIS","A3APKUC67F9IMW","3P520RYKCHSO30HY2QJC6BDLS9Z5UE","","825.2000000029802","img/food1.png","74","826.3999999910593","1","1","1","1","1,0.5,0,1,0.5,0,0.5,0,1","1,0.5,0,1,0.5,0,0.5,0,1","1","",""
"","html-keyboard-response","149","121713","0.0-149.0","3PQMUDRV7SSXSHF76VIU10P3BISIIS","A3APKUC67F9IMW","3P520RYKCHSO30HY2QJC6BDLS9Z5UE","","null","<img src=""img/food1.png"" style=""width:200px; border:14px solid green;"">","null","","","","","","","","","",""
"","image-keyboard-response","150","122339","0.0-150.0","3PQMUDRV7SSXSHF76VIU10P3BISIIS","A3APKUC67F9IMW","3P520RYKCHSO30HY2QJC6BDLS9Z5UE","","624.2000000029802","img/food5.png","76","625.4000000059605","3","1","3","1","1,0.5,0,1,0.5,0,0.5,0,1","1,0.5,0,1,0.5,0,0.5,0,1","1","",""
"","html-keyboard-response","151","122641","0.0-151.0","3PQMUDRV7SSXSHF76VIU10P3BISIIS","A3APKUC67F9IMW","3P520RYKCHSO30HY2QJC6BDLS9Z5UE","","null","<img src=""img/food5.png"" style=""width:200px; border:14px solid green;"">","null","","","","","","","","","",""
"","image-keyboard-response","152","123299","0.0-152.0","3PQMUDRV7SSXSHF76VIU10P3BISIIS","A3APKUC67F9IMW","3P520RYKCHSO30HY2QJC6BDLS9Z5UE","","656.5999999940395","img/food1.png","74","657.9000000059605","1","1","1","1","1,0.5,0,1,0.5,0,0.5,0,1","1,0.5,0,1,0.5,0,0.5,0,1","1","",""
"","html-keyboard-response","153","123601","0.0-153.0","3PQMUDRV7SSXSHF76VIU10P3BISIIS","A3APKUC67F9IMW","3P520RYKCHSO30HY2QJC6BDLS9Z5UE","","null","<img src=""img/food1.png"" style=""width:200px; border:14px solid green;"">","null","","","","","","","","","",""
"","image-keyboard-response","154","124130","0.0-154.0","3PQMUDRV7SSXSHF76VIU10P3BISIIS","A3APKUC67F9IMW","3P520RYKCHSO30HY2QJC6BDLS9Z5UE","","528.0999999940395","img/food1.png","74","529.2000000029802","1","1","1","1","1,0.5,0,1,0.5,0,0.5,0,1","1,0.5,0,1,0.5,0,0.5,0,1","1","",""
"","html-keyboard-response","155","124432","0.0-155.0","3PQMUDRV7SSXSHF76VIU10P3BISIIS","A3APKUC67F9IMW","3P520RYKCHSO30HY2QJC6BDLS9Z5UE","","null","<img src=""img/food1.png"" style=""width:200px; border:14px solid green;"">","null","","","","","","","","","",""
"","image-keyboard-response","156","125058","0.0-156.0","3PQMUDRV7SSXSHF76VIU10P3BISIIS","A3APKUC67F9IMW","3P520RYKCHSO30HY2QJC6BDLS9Z5UE","","624.8999999910593","img/food5.png","76","626.2999999970198","3","1","3","1","1,0.5,0,1,0.5,0,0.5,0,1","1,0.5,0,1,0.5,0,0.5,0,1","1","",""
"","html-keyboard-response","157","125360","0.0-157.0","3PQMUDRV7SSXSHF76VIU10P3BISIIS","A3APKUC67F9IMW","3P520RYKCHSO30HY2QJC6BDLS9Z5UE","","null","<img src=""img/food5.png"" style=""width:200px; border:14px solid green;"">","null","","","","","","","","","",""
"","image-keyboard-response","158","125882","0.0-158.0","3PQMUDRV7SSXSHF76VIU10P3BISIIS","A3APKUC67F9IMW","3P520RYKCHSO30HY2QJC6BDLS9Z5UE","","521.1000000089407","img/food5.png","76","522.1999999880791","3","1","3","1","1,0.5,0,1,0.5,0,0.5,0,1","1,0.5,0,1,0.5,0,0.5,0,1","1","",""
"","html-keyboard-response","159","126185","0.0-159.0","3PQMUDRV7SSXSHF76VIU10P3BISIIS","A3APKUC67F9IMW","3P520RYKCHSO30HY2QJC6BDLS9Z5UE","","null","<img src=""img/food5.png"" style=""width:200px; border:14px solid green;"">","null","","","","","","","","","",""
"","image-keyboard-response","160","126586","0.0-160.0","3PQMUDRV7SSXSHF76VIU10P3BISIIS","A3APKUC67F9IMW","3P520RYKCHSO30HY2QJC6BDLS9Z5UE","","400.20000000298023","img/food5.png","76","401.29999999701977","3","1","3","1","1,0.5,0,1,0.5,0,0.5,0,1","1,0.5,0,1,0.5,0,0.5,0,1","1","",""
"","html-keyboard-response","161","126888","0.0-161.0","3PQMUDRV7SSXSHF76VIU10P3BISIIS","A3APKUC67F9IMW","3P520RYKCHSO30HY2QJC6BDLS9Z5UE","","null","<img src=""img/food5.png"" style=""width:200px; border:14px solid green;"">","null","","","","","","","","","",""
"","image-keyboard-response","162","127642","0.0-162.0","3PQMUDRV7SSXSHF76VIU10P3BISIIS","A3APKUC67F9IMW","3P520RYKCHSO30HY2QJC6BDLS9Z5UE","","752.7000000029802","img/food1.png","74","753.6999999880791","1","1","1","1","1,0.5,0,1,0.5,0,0.5,0,1","1,0.5,0,1,0.5,0,0.5,0,1","1","",""
"","html-keyboard-response","163","127945","0.0-163.0","3PQMUDRV7SSXSHF76VIU10P3BISIIS","A3APKUC67F9IMW","3P520RYKCHSO30HY2QJC6BDLS9Z5UE","","null","<img src=""img/food1.png"" style=""width:200px; border:14px solid green;"">","null","","","","","","","","","",""
"","image-keyboard-response","164","128378","0.0-164.0","3PQMUDRV7SSXSHF76VIU10P3BISIIS","A3APKUC67F9IMW","3P520RYKCHSO30HY2QJC6BDLS9Z5UE","","432.20000000298023","img/food1.png","74","433.5","1","1","1","1","1,0.5,0,1,0.5,0,0.5,0,1","1,0.5,0,1,0.5,0,0.5,0,1","1","",""
"","html-keyboard-response","165","128682","0.0-165.0","3PQMUDRV7SSXSHF76VIU10P3BISIIS","A3APKUC67F9IMW","3P520RYKCHSO30HY2QJC6BDLS9Z5UE","","null","<img src=""img/food1.png"" style=""width:200px; border:14px solid green;"">","null","","","","","","","","","",""
"","image-keyboard-response","166","129362","0.0-166.0","3PQMUDRV7SSXSHF76VIU10P3BISIIS","A3APKUC67F9IMW","3P520RYKCHSO30HY2QJC6BDLS9Z5UE","","679.2000000029802","img/food3.png","76","680.3999999910593","3","0","2","1","1,0.5,0,1,0.5,0,0.5,0,1","1,0.5,0,1,0.5,0,0.5,0,1","1","",""
"","html-keyboard-response","167","129664","0.0-167.0","3PQMUDRV7SSXSHF76VIU10P3BISIIS","A3APKUC67F9IMW","3P520RYKCHSO30HY2QJC6BDLS9Z5UE","","null","<img src=""img/food3.png"" style=""width:200px;border:14px solid red;"">","null","","","","","","","","","",""
"","image-keyboard-response","168","129914","0.0-168.0","3PQMUDRV7SSXSHF76VIU10P3BISIIS","A3APKUC67F9IMW","3P520RYKCHSO30HY2QJC6BDLS9Z5UE","","249.09999999403954","img/food5.png","74","250.19999998807907","1","0","3","1","1,0.5,0,1,0.5,0,0.5,0,1","1,0.5,0,1,0.5,0,0.5,0,1","1","",""
"","html-keyboard-response","169","130217","0.0-169.0","3PQMUDRV7SSXSHF76VIU10P3BISIIS","A3APKUC67F9IMW","3P520RYKCHSO30HY2QJC6BDLS9Z5UE","","null","<img src=""img/food5.png"" style=""width:200px;border:14px solid red;"">","null","","","","","","","","","",""
"","image-keyboard-response","170","130418","0.0-170.0","3PQMUDRV7SSXSHF76VIU10P3BISIIS","A3APKUC67F9IMW","3P520RYKCHSO30HY2QJC6BDLS9Z5UE","","200.3999999910593","img/food5.png","76","201.5","3","1","3","1","1,0.5,0,1,0.5,0,0.5,0,1","1,0.5,0,1,0.5,0,0.5,0,1","1","",""
"","html-keyboard-response","171","130720","0.0-171.0","3PQMUDRV7SSXSHF76VIU10P3BISIIS","A3APKUC67F9IMW","3P520RYKCHSO30HY2QJC6BDLS9Z5UE","","null","<img src=""img/food5.png"" style=""width:200px; border:14px solid green;"">","null","","","","","","","","","",""
"","image-keyboard-response","172","131090","0.0-172.0","3PQMUDRV7SSXSHF76VIU10P3BISIIS","A3APKUC67F9IMW","3P520RYKCHSO30HY2QJC6BDLS9Z5UE","","369.1000000089407","img/food5.png","76","370.29999999701977","3","1","3","1","1,0.5,0,1,0.5,0,0.5,0,1","1,0.5,0,1,0.5,0,0.5,0,1","1","",""
"","html-keyboard-response","173","131393","0.0-173.0","3PQMUDRV7SSXSHF76VIU10P3BISIIS","A3APKUC67F9IMW","3P520RYKCHSO30HY2QJC6BDLS9Z5UE","","null","<img src=""img/food5.png"" style=""width:200px; border:14px solid green;"">","null","","","","","","","","","",""
"","image-keyboard-response","174","132082","0.0-174.0","3PQMUDRV7SSXSHF76VIU10P3BISIIS","A3APKUC67F9IMW","3P520RYKCHSO30HY2QJC6BDLS9Z5UE","","688.2000000029802","img/food1.png","74","689.3999999910593","1","1","1","1","1,0.5,0,1,0.5,0,0.5,0,1","1,0.5,0,1,0.5,0,0.5,0,1","1","",""
"","html-keyboard-response","175","132385","0.0-175.0","3PQMUDRV7SSXSHF76VIU10P3BISIIS","A3APKUC67F9IMW","3P520RYKCHSO30HY2QJC6BDLS9Z5UE","","null","<img src=""img/food1.png"" style=""width:200px; border:14px solid green;"">","null","","","","","","","","","",""
"","image-keyboard-response","176","132802","0.0-176.0","3PQMUDRV7SSXSHF76VIU10P3BISIIS","A3APKUC67F9IMW","3P520RYKCHSO30HY2QJC6BDLS9Z5UE","","416.29999999701977","img/food1.png","74","417.3999999910593","1","1","1","1","1,0.5,0,1,0.5,0,0.5,0,1","1,0.5,0,1,0.5,0,0.5,0,1","1","",""
"","html-keyboard-response","177","133105","0.0-177.0","3PQMUDRV7SSXSHF76VIU10P3BISIIS","A3APKUC67F9IMW","3P520RYKCHSO30HY2QJC6BDLS9Z5UE","","null","<img src=""img/food1.png"" style=""width:200px; border:14px solid green;"">","null","","","","","","","","","",""
"","image-keyboard-response","178","133234","0.0-178.0","3PQMUDRV7SSXSHF76VIU10P3BISIIS","A3APKUC67F9IMW","3P520RYKCHSO30HY2QJC6BDLS9Z5UE","","128.09999999403954","img/food3.png","74","129.3999999910593","1","1","2","1","1,0.5,0,1,0.5,0,0.5,0,1","1,0.5,0,1,0.5,0,0.5,0,1","1","",""
"","html-keyboard-response","179","133536","0.0-179.0","3PQMUDRV7SSXSHF76VIU10P3BISIIS","A3APKUC67F9IMW","3P520RYKCHSO30HY2QJC6BDLS9Z5UE","","null","<img src=""img/food3.png"" style=""width:200px; border:14px solid green;"">","null","","","","","","","","","",""
"","image-keyboard-response","180","133851","0.0-180.0","3PQMUDRV7SSXSHF76VIU10P3BISIIS","A3APKUC67F9IMW","3P520RYKCHSO30HY2QJC6BDLS9Z5UE","","313.20000000298023","img/food5.png","74","314.3999999910593","1","1","3","1","1,0.5,0,1,0.5,0,0.5,0,1","1,0.5,0,1,0.5,0,0.5,0,1","1","",""
"","html-keyboard-response","181","134154","0.0-181.0","3PQMUDRV7SSXSHF76VIU10P3BISIIS","A3APKUC67F9IMW","3P520RYKCHSO30HY2QJC6BDLS9Z5UE","","null","<img src=""img/food5.png"" style=""width:200px; border:14px solid green;"">","null","","","","","","","","","",""
"","html-keyboard-response","182","138885","0.0-182.0","3PQMUDRV7SSXSHF76VIU10P3BISIIS","A3APKUC67F9IMW","3P520RYKCHSO30HY2QJC6BDLS9Z5UE","","","","","","","","","","","","","",""
"","instructions","183","145196","0.0-183.0","3PQMUDRV7SSXSHF76VIU10P3BISIIS","A3APKUC67F9IMW","3P520RYKCHSO30HY2QJC6BDLS9Z5UE","[{""page_index"":0,""viewing_time"":5300.5},{""page_index"":1,""viewing_time"":1009.7000000029802}]","6310.5","","","","","","","","","","","",""
"","image-keyboard-response","184","146026","0.0-184.0","3PQMUDRV7SSXSHF76VIU10P3BISIIS","A3APKUC67F9IMW","3P520RYKCHSO30HY2QJC6BDLS9Z5UE","","828.2999999970198","img/food4.png","76","830","3","0","1","2","1,0.5,0,1,0.5,0,0.5,0,1","0,1,0.5,0,1,0.5,1,0.5,0","3","false",""
"","html-keyboard-response","185","146329","0.0-185.0","3PQMUDRV7SSXSHF76VIU10P3BISIIS","A3APKUC67F9IMW","3P520RYKCHSO30HY2QJC6BDLS9Z5UE","","null","<img src=""img/food4.png"" style=""width:200px;border:14px solid red;"">","null","","","","","","","","","",""
"","image-keyboard-response","186","146946","0.0-187.0","3PQMUDRV7SSXSHF76VIU10P3BISIIS","A3APKUC67F9IMW","3P520RYKCHSO30HY2QJC6BDLS9Z5UE","","614.9000000059605","img/food4.png","76","616.2999999970198","3","0","1","2","1,0.5,0,1,0.5,0,0.5,0,1","0,1,0.5,0,1,0.5,1,0.5,0","3","false",""
"","html-keyboard-response","187","147248","0.0-188.0","3PQMUDRV7SSXSHF76VIU10P3BISIIS","A3APKUC67F9IMW","3P520RYKCHSO30HY2QJC6BDLS9Z5UE","","null","<img src=""img/food4.png"" style=""width:200px;border:14px solid red;"">","null","","","","","","","","","",""
"","image-keyboard-response","188","147794","0.0-190.0","3PQMUDRV7SSXSHF76VIU10P3BISIIS","A3APKUC67F9IMW","3P520RYKCHSO30HY2QJC6BDLS9Z5UE","","544","img/food4.png","75","545.2000000029802","2","1","1","2","1,0.5,0,1,0.5,0,0.5,0,1","0,1,0.5,0,1,0.5,1,0.5,0","3","false",""
"","html-keyboard-response","189","148096","0.0-191.0","3PQMUDRV7SSXSHF76VIU10P3BISIIS","A3APKUC67F9IMW","3P520RYKCHSO30HY2QJC6BDLS9Z5UE","","null","<img src=""img/food4.png"" style=""width:200px; border:14px solid green;"">","null","","","","","","","","","",""
"","image-keyboard-response","190","149099","0.0-193.0","3PQMUDRV7SSXSHF76VIU10P3BISIIS","A3APKUC67F9IMW","3P520RYKCHSO30HY2QJC6BDLS9Z5UE","","","img/food6.png","","1002.3999999910593","-1","0","3","2","1,0.5,0,1,0.5,0,0.5,0,1","0,1,0.5,0,1,0.5,1,0.5,0","3","true",""
"","html-keyboard-response","191","149402","0.0-194.0","3PQMUDRV7SSXSHF76VIU10P3BISIIS","A3APKUC67F9IMW","3P520RYKCHSO30HY2QJC6BDLS9Z5UE","","null","<img src=""img/food6.png"" style=""width:200px;border:14px solid red;"">","null","","","","","","","","","",""
"","html-keyboard-response","192","152696","0.0-195.0-0.0","3PQMUDRV7SSXSHF76VIU10P3BISIIS","A3APKUC67F9IMW","3P520RYKCHSO30HY2QJC6BDLS9Z5UE","","","","","","","","","","","","","",""
"","image-keyboard-response","193","153034","0.0-196.0","3PQMUDRV7SSXSHF76VIU10P3BISIIS","A3APKUC67F9IMW","3P520RYKCHSO30HY2QJC6BDLS9Z5UE","","336.29999999701977","img/food4.png","75","337.8999999910593","2","1","1","2","1,0.5,0,1,0.5,0,0.5,0,1","0,1,0.5,0,1,0.5,1,0.5,0","3","false",""
"","html-keyboard-response","194","153337","0.0-197.0","3PQMUDRV7SSXSHF76VIU10P3BISIIS","A3APKUC67F9IMW","3P520RYKCHSO30HY2QJC6BDLS9Z5UE","","null","<img src=""img/food4.png"" style=""width:200px; border:14px solid green;"">","null","","","","","","","","","",""
"","image-keyboard-response","195","153682","0.0-199.0","3PQMUDRV7SSXSHF76VIU10P3BISIIS","A3APKUC67F9IMW","3P520RYKCHSO30HY2QJC6BDLS9Z5UE","","343.70000000298023","img/food2.png","76","345","3","0","2","2","1,0.5,0,1,0.5,0,0.5,0,1","0,1,0.5,0,1,0.5,1,0.5,0","3","false",""
"","html-keyboard-response","196","153984","0.0-200.0","3PQMUDRV7SSXSHF76VIU10P3BISIIS","A3APKUC67F9IMW","3P520RYKCHSO30HY2QJC6BDLS9Z5UE","","null","<img src=""img/food2.png"" style=""width:200px;border:14px solid red;"">","null","","","","","","","","","",""
"","image-keyboard-response","197","154290","0.0-202.0","3PQMUDRV7SSXSHF76VIU10P3BISIIS","A3APKUC67F9IMW","3P520RYKCHSO30HY2QJC6BDLS9Z5UE","","304.6000000089407","img/food6.png","74","305.90000000596046","1","1","3","2","1,0.5,0,1,0.5,0,0.5,0,1","0,1,0.5,0,1,0.5,1,0.5,0","3","false",""
"","html-keyboard-response","198","154593","0.0-203.0","3PQMUDRV7SSXSHF76VIU10P3BISIIS","A3APKUC67F9IMW","3P520RYKCHSO30HY2QJC6BDLS9Z5UE","","null","<img src=""img/food6.png"" style=""width:200px; border:14px solid green;"">","null","","","","","","","","","",""
"","image-keyboard-response","199","154722","0.0-205.0","3PQMUDRV7SSXSHF76VIU10P3BISIIS","A3APKUC67F9IMW","3P520RYKCHSO30HY2QJC6BDLS9Z5UE","","127.20000000298023","img/food6.png","75","128.3999999910593","2","0","3","2","1,0.5,0,1,0.5,0,0.5,0,1","0,1,0.5,0,1,0.5,1,0.5,0","3","false",""
"","html-keyboard-response","200","155024","0.0-206.0","3PQMUDRV7SSXSHF76VIU10P3BISIIS","A3APKUC67F9IMW","3P520RYKCHSO30HY2QJC6BDLS9Z5UE","","null","<img src=""img/food6.png"" style=""width:200px;border:14px solid red;"">","null","","","","","","","","","",""
"","image-keyboard-response","201","155506","0.0-208.0","3PQMUDRV7SSXSHF76VIU10P3BISIIS","A3APKUC67F9IMW","3P520RYKCHSO30HY2QJC6BDLS9Z5UE","","480.19999998807907","img/food6.png","75","481.59999999403954","2","1","3","2","1,0.5,0,1,0.5,0,0.5,0,1","0,1,0.5,0,1,0.5,1,0.5,0","3","false",""
"","html-keyboard-response","202","155808","0.0-209.0","3PQMUDRV7SSXSHF76VIU10P3BISIIS","A3APKUC67F9IMW","3P520RYKCHSO30HY2QJC6BDLS9Z5UE","","null","<img src=""img/food6.png"" style=""width:200px; border:14px solid green;"">","null","","","","","","","","","",""
"","image-keyboard-response","203","155866","0.0-211.0","3PQMUDRV7SSXSHF76VIU10P3BISIIS","A3APKUC67F9IMW","3P520RYKCHSO30HY2QJC6BDLS9Z5UE","","56.30000001192093","img/food4.png","74","57.3999999910593","1","0","1","2","1,0.5,0,1,0.5,0,0.5,0,1","0,1,0.5,0,1,0.5,1,0.5,0","3","false",""
"","html-keyboard-response","204","156169","0.0-212.0","3PQMUDRV7SSXSHF76VIU10P3BISIIS","A3APKUC67F9IMW","3P520RYKCHSO30HY2QJC6BDLS9Z5UE","","null","<img src=""img/food4.png"" style=""width:200px;border:14px solid red;"">","null","","","","","","","","","",""
"","image-keyboard-response","205","156418","0.0-214.0","3PQMUDRV7SSXSHF76VIU10P3BISIIS","A3APKUC67F9IMW","3P520RYKCHSO30HY2QJC6BDLS9Z5UE","","247.80000001192093","img/food4.png","75","249","2","1","1","2","1,0.5,0,1,0.5,0,0.5,0,1","0,1,0.5,0,1,0.5,1,0.5,0","3","false",""
"","html-keyboard-response","206","156720","0.0-215.0","3PQMUDRV7SSXSHF76VIU10P3BISIIS","A3APKUC67F9IMW","3P520RYKCHSO30HY2QJC6BDLS9Z5UE","","null","<img src=""img/food4.png"" style=""width:200px; border:14px solid green;"">","null","","","","","","","","","",""
"","image-keyboard-response","207","157010","0.0-217.0","3PQMUDRV7SSXSHF76VIU10P3BISIIS","A3APKUC67F9IMW","3P520RYKCHSO30HY2QJC6BDLS9Z5UE","","288.1000000089407","img/food6.png","76","289.20000000298023","3","0","3","2","1,0.5,0,1,0.5,0,0.5,0,1","0,1,0.5,0,1,0.5,1,0.5,0","3","false",""
"","html-keyboard-response","208","157313","0.0-218.0","3PQMUDRV7SSXSHF76VIU10P3BISIIS","A3APKUC67F9IMW","3P520RYKCHSO30HY2QJC6BDLS9Z5UE","","null","<img src=""img/food6.png"" style=""width:200px;border:14px solid red;"">","null","","","","","","","","","",""
"","image-keyboard-response","209","157586","0.0-220.0","3PQMUDRV7SSXSHF76VIU10P3BISIIS","A3APKUC67F9IMW","3P520RYKCHSO30HY2QJC6BDLS9Z5UE","","272","img/food4.png","74","273.09999999403954","1","0","1","2","1,0.5,0,1,0.5,0,0.5,0,1","0,1,0.5,0,1,0.5,1,0.5,0","3","false",""
"","html-keyboard-response","210","157888","0.0-221.0","3PQMUDRV7SSXSHF76VIU10P3BISIIS","A3APKUC67F9IMW","3P520RYKCHSO30HY2QJC6BDLS9Z5UE","","null","<img src=""img/food4.png"" style=""width:200px;border:14px solid red;"">","null","","","","","","","","","",""
"","image-keyboard-response","211","158130","0.0-223.0","3PQMUDRV7SSXSHF76VIU10P3BISIIS","A3APKUC67F9IMW","3P520RYKCHSO30HY2QJC6BDLS9Z5UE","","239.8999999910593","img/food6.png","75","241.20000000298023","2","0","3","2","1,0.5,0,1,0.5,0,0.5,0,1","0,1,0.5,0,1,0.5,1,0.5,0","3","false",""
"","html-keyboard-response","212","158433","0.0-224.0","3PQMUDRV7SSXSHF76VIU10P3BISIIS","A3APKUC67F9IMW","3P520RYKCHSO30HY2QJC6BDLS9Z5UE","","null","<img src=""img/food6.png"" style=""width:200px;border:14px solid red;"">","null","","","","","","","","","",""
"","image-keyboard-response","213","158690","0.0-226.0","3PQMUDRV7SSXSHF76VIU10P3BISIIS","A3APKUC67F9IMW","3P520RYKCHSO30HY2QJC6BDLS9Z5UE","","255.30000001192093","img/food2.png","75","256.5","2","1","2","2","1,0.5,0,1,0.5,0,0.5,0,1","0,1,0.5,0,1,0.5,1,0.5,0","3","false",""
"","html-keyboard-response","214","158993","0.0-227.0","3PQMUDRV7SSXSHF76VIU10P3BISIIS","A3APKUC67F9IMW","3P520RYKCHSO30HY2QJC6BDLS9Z5UE","","null","<img src=""img/food2.png"" style=""width:200px; border:14px solid green;"">","null","","","","","","","","","",""
"","image-keyboard-response","215","159282","0.0-229.0","3PQMUDRV7SSXSHF76VIU10P3BISIIS","A3APKUC67F9IMW","3P520RYKCHSO30HY2QJC6BDLS9Z5UE","","287.8999999910593","img/food6.png","76","289.20000000298023","3","0","3","2","1,0.5,0,1,0.5,0,0.5,0,1","0,1,0.5,0,1,0.5,1,0.5,0","3","false",""
"","html-keyboard-response","216","159584","0.0-230.0","3PQMUDRV7SSXSHF76VIU10P3BISIIS","A3APKUC67F9IMW","3P520RYKCHSO30HY2QJC6BDLS9Z5UE","","null","<img src=""img/food6.png"" style=""width:200px;border:14px solid red;"">","null","","","","","","","","","",""
"","image-keyboard-response","217","159906","0.0-232.0","3PQMUDRV7SSXSHF76VIU10P3BISIIS","A3APKUC67F9IMW","3P520RYKCHSO30HY2QJC6BDLS9Z5UE","","320.90000000596046","img/food4.png","75","322.09999999403954","2","1","1","2","1,0.5,0,1,0.5,0,0.5,0,1","0,1,0.5,0,1,0.5,1,0.5,0","3","false",""
"","html-keyboard-response","218","160208","0.0-233.0","3PQMUDRV7SSXSHF76VIU10P3BISIIS","A3APKUC67F9IMW","3P520RYKCHSO30HY2QJC6BDLS9Z5UE","","null","<img src=""img/food4.png"" style=""width:200px; border:14px solid green;"">","null","","","","","","","","","",""
"","image-keyboard-response","219","160482","0.0-235.0","3PQMUDRV7SSXSHF76VIU10P3BISIIS","A3APKUC67F9IMW","3P520RYKCHSO30HY2QJC6BDLS9Z5UE","","272.09999999403954","img/food6.png","75","273.29999999701977","2","1","3","2","1,0.5,0,1,0.5,0,0.5,0,1","0,1,0.5,0,1,0.5,1,0.5,0","3","false",""
"","html-keyboard-response","220","160784","0.0-236.0","3PQMUDRV7SSXSHF76VIU10P3BISIIS","A3APKUC67F9IMW","3P520RYKCHSO30HY2QJC6BDLS9Z5UE","","null","<img src=""img/food6.png"" style=""width:200px; border:14px solid green;"">","null","","","","","","","","","",""
"","image-keyboard-response","221","161114","0.0-238.0","3PQMUDRV7SSXSHF76VIU10P3BISIIS","A3APKUC67F9IMW","3P520RYKCHSO30HY2QJC6BDLS9Z5UE","","328","img/food6.png","75","329.29999999701977","2","1","3","2","1,0.5,0,1,0.5,0,0.5,0,1","0,1,0.5,0,1,0.5,1,0.5,0","3","false",""
"","html-keyboard-response","222","161416","0.0-239.0","3PQMUDRV7SSXSHF76VIU10P3BISIIS","A3APKUC67F9IMW","3P520RYKCHSO30HY2QJC6BDLS9Z5UE","","null","<img src=""img/food6.png"" style=""width:200px; border:14px solid green;"">","null","","","","","","","","","",""
"","image-keyboard-response","223","161730","0.0-241.0","3PQMUDRV7SSXSHF76VIU10P3BISIIS","A3APKUC67F9IMW","3P520RYKCHSO30HY2QJC6BDLS9Z5UE","","312.29999999701977","img/food6.png","75","313.6000000089407","2","0","3","2","1,0.5,0,1,0.5,0,0.5,0,1","0,1,0.5,0,1,0.5,1,0.5,0","3","false",""
"","html-keyboard-response","224","162033","0.0-242.0","3PQMUDRV7SSXSHF76VIU10P3BISIIS","A3APKUC67F9IMW","3P520RYKCHSO30HY2QJC6BDLS9Z5UE","","null","<img src=""img/food6.png"" style=""width:200px;border:14px solid red;"">","null","","","","","","","","","",""
"","image-keyboard-response","225","162322","0.0-244.0","3PQMUDRV7SSXSHF76VIU10P3BISIIS","A3APKUC67F9IMW","3P520RYKCHSO30HY2QJC6BDLS9Z5UE","","287.70000000298023","img/food6.png","74","288.90000000596046","1","1","3","2","1,0.5,0,1,0.5,0,0.5,0,1","0,1,0.5,0,1,0.5,1,0.5,0","3","false",""
"","html-keyboard-response","226","162624","0.0-245.0","3PQMUDRV7SSXSHF76VIU10P3BISIIS","A3APKUC67F9IMW","3P520RYKCHSO30HY2QJC6BDLS9Z5UE","","null","<img src=""img/food6.png"" style=""width:200px; border:14px solid green;"">","null","","","","","","","","","",""
"","image-keyboard-response","227","162810","0.0-247.0","3PQMUDRV7SSXSHF76VIU10P3BISIIS","A3APKUC67F9IMW","3P520RYKCHSO30HY2QJC6BDLS9Z5UE","","184.8999999910593","img/food2.png","75","186.1000000089407","2","1","2","2","1,0.5,0,1,0.5,0,0.5,0,1","0,1,0.5,0,1,0.5,1,0.5,0","3","false",""
"","html-keyboard-response","228","163112","0.0-248.0","3PQMUDRV7SSXSHF76VIU10P3BISIIS","A3APKUC67F9IMW","3P520RYKCHSO30HY2QJC6BDLS9Z5UE","","null","<img src=""img/food2.png"" style=""width:200px; border:14px solid green;"">","null","","","","","","","","","",""
"","image-keyboard-response","229","163498","0.0-250.0","3PQMUDRV7SSXSHF76VIU10P3BISIIS","A3APKUC67F9IMW","3P520RYKCHSO30HY2QJC6BDLS9Z5UE","","384.1000000089407","img/food2.png","75","385.29999999701977","2","1","2","2","1,0.5,0,1,0.5,0,0.5,0,1","0,1,0.5,0,1,0.5,1,0.5,0","3","false",""
"","html-keyboard-response","230","163800","0.0-251.0","3PQMUDRV7SSXSHF76VIU10P3BISIIS","A3APKUC67F9IMW","3P520RYKCHSO30HY2QJC6BDLS9Z5UE","","null","<img src=""img/food2.png"" style=""width:200px; border:14px solid green;"">","null","","","","","","","","","",""
"","image-keyboard-response","231","163906","0.0-253.0","3PQMUDRV7SSXSHF76VIU10P3BISIIS","A3APKUC67F9IMW","3P520RYKCHSO30HY2QJC6BDLS9Z5UE","","104.29999999701977","img/food4.png","75","105.40000000596046","2","1","1","2","1,0.5,0,1,0.5,0,0.5,0,1","0,1,0.5,0,1,0.5,1,0.5,0","3","false",""
"","html-keyboard-response","232","164208","0.0-254.0","3PQMUDRV7SSXSHF76VIU10P3BISIIS","A3APKUC67F9IMW","3P520RYKCHSO30HY2QJC6BDLS9Z5UE","","null","<img src=""img/food4.png"" style=""width:200px; border:14px solid green;"">","null","","","","","","","","","",""
"","image-keyboard-response","233","164306","0.0-256.0","3PQMUDRV7SSXSHF76VIU10P3BISIIS","A3APKUC67F9IMW","3P520RYKCHSO30HY2QJC6BDLS9Z5UE","","96.1000000089407","img/food6.png","76","97.29999999701977","3","0","3","2","1,0.5,0,1,0.5,0,0.5,0,1","0,1,0.5,0,1,0.5,1,0.5,0","3","false",""
"","html-keyboard-response","234","164609","0.0-257.0","3PQMUDRV7SSXSHF76VIU10P3BISIIS","A3APKUC67F9IMW","3P520RYKCHSO30HY2QJC6BDLS9Z5UE","","null","<img src=""img/food6.png"" style=""width:200px;border:14px solid red;"">","null","","","","","","","","","",""
"","image-keyboard-response","235","164930","0.0-259.0","3PQMUDRV7SSXSHF76VIU10P3BISIIS","A3APKUC67F9IMW","3P520RYKCHSO30HY2QJC6BDLS9Z5UE","","319.6000000089407","img/food6.png","75","320.79999999701977","2","1","3","2","1,0.5,0,1,0.5,0,0.5,0,1","0,1,0.5,0,1,0.5,1,0.5,0","3","false",""
"","html-keyboard-response","236","165232","0.0-260.0","3PQMUDRV7SSXSHF76VIU10P3BISIIS","A3APKUC67F9IMW","3P520RYKCHSO30HY2QJC6BDLS9Z5UE","","null","<img src=""img/food6.png"" style=""width:200px; border:14px solid green;"">","null","","","","","","","","","",""
"","image-keyboard-response","237","165610","0.0-262.0","3PQMUDRV7SSXSHF76VIU10P3BISIIS","A3APKUC67F9IMW","3P520RYKCHSO30HY2QJC6BDLS9Z5UE","","376.40000000596046","img/food2.png","74","377.6000000089407","1","0","2","2","1,0.5,0,1,0.5,0,0.5,0,1","0,1,0.5,0,1,0.5,1,0.5,0","3","false",""
"","html-keyboard-response","238","165912","0.0-263.0","3PQMUDRV7SSXSHF76VIU10P3BISIIS","A3APKUC67F9IMW","3P520RYKCHSO30HY2QJC6BDLS9Z5UE","","null","<img src=""img/food2.png"" style=""width:200px;border:14px solid red;"">","null","","","","","","","","","",""
"","image-keyboard-response","239","166138","0.0-265.0","3PQMUDRV7SSXSHF76VIU10P3BISIIS","A3APKUC67F9IMW","3P520RYKCHSO30HY2QJC6BDLS9Z5UE","","224.29999999701977","img/food2.png","75","225.5","2","1","2","2","1,0.5,0,1,0.5,0,0.5,0,1","0,1,0.5,0,1,0.5,1,0.5,0","3","false",""
"","html-keyboard-response","240","166440","0.0-266.0","3PQMUDRV7SSXSHF76VIU10P3BISIIS","A3APKUC67F9IMW","3P520RYKCHSO30HY2QJC6BDLS9Z5UE","","null","<img src=""img/food2.png"" style=""width:200px; border:14px solid green;"">","null","","","","","","","","","",""
"","image-keyboard-response","241","166570","0.0-268.0","3PQMUDRV7SSXSHF76VIU10P3BISIIS","A3APKUC67F9IMW","3P520RYKCHSO30HY2QJC6BDLS9Z5UE","","128.70000000298023","img/food4.png","75","129.79999999701977","2","1","1","2","1,0.5,0,1,0.5,0,0.5,0,1","0,1,0.5,0,1,0.5,1,0.5,0","3","false",""
"","html-keyboard-response","242","166872","0.0-269.0","3PQMUDRV7SSXSHF76VIU10P3BISIIS","A3APKUC67F9IMW","3P520RYKCHSO30HY2QJC6BDLS9Z5UE","","null","<img src=""img/food4.png"" style=""width:200px; border:14px solid green;"">","null","","","","","","","","","",""
"","image-keyboard-response","243","167010","0.0-271.0","3PQMUDRV7SSXSHF76VIU10P3BISIIS","A3APKUC67F9IMW","3P520RYKCHSO30HY2QJC6BDLS9Z5UE","","136.29999999701977","img/food4.png","74","137.5","1","0","1","2","1,0.5,0,1,0.5,0,0.5,0,1","0,1,0.5,0,1,0.5,1,0.5,0","3","false",""
"","html-keyboard-response","244","167312","0.0-272.0","3PQMUDRV7SSXSHF76VIU10P3BISIIS","A3APKUC67F9IMW","3P520RYKCHSO30HY2QJC6BDLS9Z5UE","","null","<img src=""img/food4.png"" style=""width:200px;border:14px solid red;"">","null","","","","","","","","","",""
"","image-keyboard-response","245","167394","0.0-274.0","3PQMUDRV7SSXSHF76VIU10P3BISIIS","A3APKUC67F9IMW","3P520RYKCHSO30HY2QJC6BDLS9Z5UE","","80.40000000596046","img/food6.png","75","81.70000000298023","2","1","3","2","1,0.5,0,1,0.5,0,0.5,0,1","0,1,0.5,0,1,0.5,1,0.5,0","3","false",""
"","html-keyboard-response","246","167696","0.0-275.0","3PQMUDRV7SSXSHF76VIU10P3BISIIS","A3APKUC67F9IMW","3P520RYKCHSO30HY2QJC6BDLS9Z5UE","","null","<img src=""img/food6.png"" style=""width:200px; border:14px solid green;"">","null","","","","","","","","","",""
"","image-keyboard-response","247","168010","0.0-277.0","3PQMUDRV7SSXSHF76VIU10P3BISIIS","A3APKUC67F9IMW","3P520RYKCHSO30HY2QJC6BDLS9Z5UE","","312.40000000596046","img/food6.png","75","313.5","2","1","3","2","1,0.5,0,1,0.5,0,0.5,0,1","0,1,0.5,0,1,0.5,1,0.5,0","3","false",""
"","html-keyboard-response","248","168312","0.0-278.0","3PQMUDRV7SSXSHF76VIU10P3BISIIS","A3APKUC67F9IMW","3P520RYKCHSO30HY2QJC6BDLS9Z5UE","","null","<img src=""img/food6.png"" style=""width:200px; border:14px solid green;"">","null","","","","","","","","","",""
"","image-keyboard-response","249","168602","0.0-280.0","3PQMUDRV7SSXSHF76VIU10P3BISIIS","A3APKUC67F9IMW","3P520RYKCHSO30HY2QJC6BDLS9Z5UE","","288.1000000089407","img/food4.png","75","289.19999998807907","2","1","1","2","1,0.5,0,1,0.5,0,0.5,0,1","0,1,0.5,0,1,0.5,1,0.5,0","3","false",""
"","html-keyboard-response","250","168904","0.0-281.0","3PQMUDRV7SSXSHF76VIU10P3BISIIS","A3APKUC67F9IMW","3P520RYKCHSO30HY2QJC6BDLS9Z5UE","","null","<img src=""img/food4.png"" style=""width:200px; border:14px solid green;"">","null","","","","","","","","","",""
"","image-keyboard-response","251","169202","0.0-283.0","3PQMUDRV7SSXSHF76VIU10P3BISIIS","A3APKUC67F9IMW","3P520RYKCHSO30HY2QJC6BDLS9Z5UE","","296.09999999403954","img/food2.png","76","297.29999999701977","3","0","2","2","1,0.5,0,1,0.5,0,0.5,0,1","0,1,0.5,0,1,0.5,1,0.5,0","3","false",""
"","html-keyboard-response","252","169504","0.0-284.0","3PQMUDRV7SSXSHF76VIU10P3BISIIS","A3APKUC67F9IMW","3P520RYKCHSO30HY2QJC6BDLS9Z5UE","","null","<img src=""img/food2.png"" style=""width:200px;border:14px solid red;"">","null","","","","","","","","","",""
"","image-keyboard-response","253","169674","0.0-286.0","3PQMUDRV7SSXSHF76VIU10P3BISIIS","A3APKUC67F9IMW","3P520RYKCHSO30HY2QJC6BDLS9Z5UE","","168.79999999701977","img/food2.png","75","170","2","1","2","2","1,0.5,0,1,0.5,0,0.5,0,1","0,1,0.5,0,1,0.5,1,0.5,0","3","false",""
"","html-keyboard-response","254","169975","0.0-287.0","3PQMUDRV7SSXSHF76VIU10P3BISIIS","A3APKUC67F9IMW","3P520RYKCHSO30HY2QJC6BDLS9Z5UE","","null","<img src=""img/food2.png"" style=""width:200px; border:14px solid green;"">","null","","","","","","","","","",""
"","image-keyboard-response","255","170042","0.0-289.0","3PQMUDRV7SSXSHF76VIU10P3BISIIS","A3APKUC67F9IMW","3P520RYKCHSO30HY2QJC6BDLS9Z5UE","","64.70000000298023","img/food6.png","75","66","2","0","3","2","1,0.5,0,1,0.5,0,0.5,0,1","0,1,0.5,0,1,0.5,1,0.5,0","3","false",""
"","html-keyboard-response","256","170344","0.0-290.0","3PQMUDRV7SSXSHF76VIU10P3BISIIS","A3APKUC67F9IMW","3P520RYKCHSO30HY2QJC6BDLS9Z5UE","","null","<img src=""img/food6.png"" style=""width:200px;border:14px solid red;"">","null","","","","","","","","","",""
"","image-keyboard-response","257","170426","0.0-292.0","3PQMUDRV7SSXSHF76VIU10P3BISIIS","A3APKUC67F9IMW","3P520RYKCHSO30HY2QJC6BDLS9Z5UE","","80.1000000089407","img/food2.png","75","81.29999999701977","2","1","2","2","1,0.5,0,1,0.5,0,0.5,0,1","0,1,0.5,0,1,0.5,1,0.5,0","3","false",""
"","html-keyboard-response","258","170729","0.0-293.0","3PQMUDRV7SSXSHF76VIU10P3BISIIS","A3APKUC67F9IMW","3P520RYKCHSO30HY2QJC6BDLS9Z5UE","","null","<img src=""img/food2.png"" style=""width:200px; border:14px solid green;"">","null","","","","","","","","","",""
"","image-keyboard-response","259","170770","0.0-295.0","3PQMUDRV7SSXSHF76VIU10P3BISIIS","A3APKUC67F9IMW","3P520RYKCHSO30HY2QJC6BDLS9Z5UE","","39.599999994039536","img/food4.png","75","40.8999999910593","2","1","1","2","1,0.5,0,1,0.5,0,0.5,0,1","0,1,0.5,0,1,0.5,1,0.5,0","3","false",""
"","html-keyboard-response","260","171072","0.0-296.0","3PQMUDRV7SSXSHF76VIU10P3BISIIS","A3APKUC67F9IMW","3P520RYKCHSO30HY2QJC6BDLS9Z5UE","","null","<img src=""img/food4.png"" style=""width:200px; border:14px solid green;"">","null","","","","","","","","","",""
"","image-keyboard-response","261","171370","0.0-298.0","3PQMUDRV7SSXSHF76VIU10P3BISIIS","A3APKUC67F9IMW","3P520RYKCHSO30HY2QJC6BDLS9Z5UE","","296.40000000596046","img/food4.png","74","297.79999999701977","1","0","1","2","1,0.5,0,1,0.5,0,0.5,0,1","0,1,0.5,0,1,0.5,1,0.5,0","3","false",""
"","html-keyboard-response","262","171672","0.0-299.0","3PQMUDRV7SSXSHF76VIU10P3BISIIS","A3APKUC67F9IMW","3P520RYKCHSO30HY2QJC6BDLS9Z5UE","","null","<img src=""img/food4.png"" style=""width:200px;border:14px solid red;"">","null","","","","","","","","","",""
"","image-keyboard-response","263","171690","0.0-301.0","3PQMUDRV7SSXSHF76VIU10P3BISIIS","A3APKUC67F9IMW","3P520RYKCHSO30HY2QJC6BDLS9Z5UE","","16.100000008940697","img/food4.png","75","17.400000005960464","2","1","1","2","1,0.5,0,1,0.5,0,0.5,0,1","0,1,0.5,0,1,0.5,1,0.5,0","3","false",""
"","html-keyboard-response","264","171992","0.0-302.0","3PQMUDRV7SSXSHF76VIU10P3BISIIS","A3APKUC67F9IMW","3P520RYKCHSO30HY2QJC6BDLS9Z5UE","","null","<img src=""img/food4.png"" style=""width:200px; border:14px solid green;"">","null","","","","","","","","","",""
"","image-keyboard-response","265","172074","0.0-304.0","3PQMUDRV7SSXSHF76VIU10P3BISIIS","A3APKUC67F9IMW","3P520RYKCHSO30HY2QJC6BDLS9Z5UE","","80.09999999403954","img/food2.png","75","81.3999999910593","2","1","2","2","1,0.5,0,1,0.5,0,0.5,0,1","0,1,0.5,0,1,0.5,1,0.5,0","3","false",""
"","html-keyboard-response","266","172376","0.0-305.0","3PQMUDRV7SSXSHF76VIU10P3BISIIS","A3APKUC67F9IMW","3P520RYKCHSO30HY2QJC6BDLS9Z5UE","","null","<img src=""img/food2.png"" style=""width:200px; border:14px solid green;"">","null","","","","","","","","","",""
"","image-keyboard-response","267","172450","0.0-307.0","3PQMUDRV7SSXSHF76VIU10P3BISIIS","A3APKUC67F9IMW","3P520RYKCHSO30HY2QJC6BDLS9Z5UE","","72.5","img/food6.png","75","73.69999998807907","2","1","3","2","1,0.5,0,1,0.5,0,0.5,0,1","0,1,0.5,0,1,0.5,1,0.5,0","3","false",""
"","html-keyboard-response","268","172752","0.0-308.0","3PQMUDRV7SSXSHF76VIU10P3BISIIS","A3APKUC67F9IMW","3P520RYKCHSO30HY2QJC6BDLS9Z5UE","","null","<img src=""img/food6.png"" style=""width:200px; border:14px solid green;"">","null","","","","","","","","","",""
"","image-keyboard-response","269","173050","0.0-310.0","3PQMUDRV7SSXSHF76VIU10P3BISIIS","A3APKUC67F9IMW","3P520RYKCHSO30HY2QJC6BDLS9Z5UE","","296.3999999910593","img/food6.png","75","298.59999999403954","2","0","3","2","1,0.5,0,1,0.5,0,0.5,0,1","0,1,0.5,0,1,0.5,1,0.5,0","3","false",""
"","html-keyboard-response","270","173354","0.0-311.0","3PQMUDRV7SSXSHF76VIU10P3BISIIS","A3APKUC67F9IMW","3P520RYKCHSO30HY2QJC6BDLS9Z5UE","","null","<img src=""img/food6.png"" style=""width:200px;border:14px solid red;"">","null","","","","","","","","","",""
"","image-keyboard-response","271","173386","0.0-313.0","3PQMUDRV7SSXSHF76VIU10P3BISIIS","A3APKUC67F9IMW","3P520RYKCHSO30HY2QJC6BDLS9Z5UE","","30.5","img/food2.png","75","31.600000008940697","2","1","2","2","1,0.5,0,1,0.5,0,0.5,0,1","0,1,0.5,0,1,0.5,1,0.5,0","3","false",""
"","html-keyboard-response","272","173688","0.0-314.0","3PQMUDRV7SSXSHF76VIU10P3BISIIS","A3APKUC67F9IMW","3P520RYKCHSO30HY2QJC6BDLS9Z5UE","","null","<img src=""img/food2.png"" style=""width:200px; border:14px solid green;"">","null","","","","","","","","","",""
"","image-keyboard-response","273","173690","0.0-316.0","3PQMUDRV7SSXSHF76VIU10P3BISIIS","A3APKUC67F9IMW","3P520RYKCHSO30HY2QJC6BDLS9Z5UE","","0.5","img/food2.png","76","1.7999999970197678","3","0","2","2","1,0.5,0,1,0.5,0,0.5,0,1","0,1,0.5,0,1,0.5,1,0.5,0","3","false",""
"","html-keyboard-response","274","173993","0.0-317.0","3PQMUDRV7SSXSHF76VIU10P3BISIIS","A3APKUC67F9IMW","3P520RYKCHSO30HY2QJC6BDLS9Z5UE","","null","<img src=""img/food2.png"" style=""width:200px;border:14px solid red;"">","null","","","","","","","","","",""
"","image-keyboard-response","275","174042","0.0-319.0","3PQMUDRV7SSXSHF76VIU10P3BISIIS","A3APKUC67F9IMW","3P520RYKCHSO30HY2QJC6BDLS9Z5UE","","47.79999999701977","img/food6.png","75","49.099999994039536","2","1","3","2","1,0.5,0,1,0.5,0,0.5,0,1","0,1,0.5,0,1,0.5,1,0.5,0","3","false",""
"","html-keyboard-response","276","174344","0.0-320.0","3PQMUDRV7SSXSHF76VIU10P3BISIIS","A3APKUC67F9IMW","3P520RYKCHSO30HY2QJC6BDLS9Z5UE","","null","<img src=""img/food6.png"" style=""width:200px; border:14px solid green;"">","null","","","","","","","","","",""
"","image-keyboard-response","277","174490","0.0-322.0","3PQMUDRV7SSXSHF76VIU10P3BISIIS","A3APKUC67F9IMW","3P520RYKCHSO30HY2QJC6BDLS9Z5UE","","144.40000000596046","img/food6.png","75","145.5","2","1","3","2","1,0.5,0,1,0.5,0,0.5,0,1","0,1,0.5,0,1,0.5,1,0.5,0","3","false",""
"","html-keyboard-response","278","174792","0.0-323.0","3PQMUDRV7SSXSHF76VIU10P3BISIIS","A3APKUC67F9IMW","3P520RYKCHSO30HY2QJC6BDLS9Z5UE","","null","<img src=""img/food6.png"" style=""width:200px; border:14px solid green;"">","null","","","","","","","","","",""
"","image-keyboard-response","279","175098","0.0-325.0","3PQMUDRV7SSXSHF76VIU10P3BISIIS","A3APKUC67F9IMW","3P520RYKCHSO30HY2QJC6BDLS9Z5UE","","304.3999999910593","img/food6.png","75","305.59999999403954","2","1","3","2","1,0.5,0,1,0.5,0,0.5,0,1","0,1,0.5,0,1,0.5,1,0.5,0","3","false",""
"","html-keyboard-response","280","175400","0.0-326.0","3PQMUDRV7SSXSHF76VIU10P3BISIIS","A3APKUC67F9IMW","3P520RYKCHSO30HY2QJC6BDLS9Z5UE","","null","<img src=""img/food6.png"" style=""width:200px; border:14px solid green;"">","null","","","","","","","","","",""
"","image-keyboard-response","281","175466","0.0-328.0","3PQMUDRV7SSXSHF76VIU10P3BISIIS","A3APKUC67F9IMW","3P520RYKCHSO30HY2QJC6BDLS9Z5UE","","64.09999999403954","img/food2.png","75","65.20000000298023","2","1","2","2","1,0.5,0,1,0.5,0,0.5,0,1","0,1,0.5,0,1,0.5,1,0.5,0","3","false",""
"","html-keyboard-response","282","175769","0.0-329.0","3PQMUDRV7SSXSHF76VIU10P3BISIIS","A3APKUC67F9IMW","3P520RYKCHSO30HY2QJC6BDLS9Z5UE","","null","<img src=""img/food2.png"" style=""width:200px; border:14px solid green;"">","null","","","","","","","","","",""
"","image-keyboard-response","283","175786","0.0-331.0","3PQMUDRV7SSXSHF76VIU10P3BISIIS","A3APKUC67F9IMW","3P520RYKCHSO30HY2QJC6BDLS9Z5UE","","15.799999997019768","img/food2.png","75","17","2","1","2","2","1,0.5,0,1,0.5,0,0.5,0,1","0,1,0.5,0,1,0.5,1,0.5,0","3","false",""
"","html-keyboard-response","284","176089","0.0-332.0","3PQMUDRV7SSXSHF76VIU10P3BISIIS","A3APKUC67F9IMW","3P520RYKCHSO30HY2QJC6BDLS9Z5UE","","null","<img src=""img/food2.png"" style=""width:200px; border:14px solid green;"">","null","","","","","","","","","",""
"","image-keyboard-response","285","176234","0.0-334.0","3PQMUDRV7SSXSHF76VIU10P3BISIIS","A3APKUC67F9IMW","3P520RYKCHSO30HY2QJC6BDLS9Z5UE","","143.59999999403954","img/food2.png","75","144.79999999701977","2","1","2","2","1,0.5,0,1,0.5,0,0.5,0,1","0,1,0.5,0,1,0.5,1,0.5,0","3","false",""
"","html-keyboard-response","286","176536","0.0-335.0","3PQMUDRV7SSXSHF76VIU10P3BISIIS","A3APKUC67F9IMW","3P520RYKCHSO30HY2QJC6BDLS9Z5UE","","null","<img src=""img/food2.png"" style=""width:200px; border:14px solid green;"">","null","","","","","","","","","",""
"","image-keyboard-response","287","176554","0.0-337.0","3PQMUDRV7SSXSHF76VIU10P3BISIIS","A3APKUC67F9IMW","3P520RYKCHSO30HY2QJC6BDLS9Z5UE","","16.799999997019768","img/food6.png","75","17.799999997019768","2","0","3","2","1,0.5,0,1,0.5,0,0.5,0,1","0,1,0.5,0,1,0.5,1,0.5,0","3","false",""
"","html-keyboard-response","288","176856","0.0-338.0","3PQMUDRV7SSXSHF76VIU10P3BISIIS","A3APKUC67F9IMW","3P520RYKCHSO30HY2QJC6BDLS9Z5UE","","null","<img src=""img/food6.png"" style=""width:200px;border:14px solid red;"">","null","","","","","","","","","",""
"","image-keyboard-response","289","176874","0.0-340.0","3PQMUDRV7SSXSHF76VIU10P3BISIIS","A3APKUC67F9IMW","3P520RYKCHSO30HY2QJC6BDLS9Z5UE","","16.19999998807907","img/food4.png","75","17.400000005960464","2","1","1","2","1,0.5,0,1,0.5,0,0.5,0,1","0,1,0.5,0,1,0.5,1,0.5,0","3","false",""
"","html-keyboard-response","290","177176","0.0-341.0","3PQMUDRV7SSXSHF76VIU10P3BISIIS","A3APKUC67F9IMW","3P520RYKCHSO30HY2QJC6BDLS9Z5UE","","null","<img src=""img/food4.png"" style=""width:200px; border:14px solid green;"">","null","","","","","","","","","",""
"","image-keyboard-response","291","177234","0.0-343.0","3PQMUDRV7SSXSHF76VIU10P3BISIIS","A3APKUC67F9IMW","3P520RYKCHSO30HY2QJC6BDLS9Z5UE","","56.099999994039536","img/food2.png","75","57.3999999910593","2","1","2","2","1,0.5,0,1,0.5,0,0.5,0,1","0,1,0.5,0,1,0.5,1,0.5,0","3","false",""
"","html-keyboard-response","292","177536","0.0-344.0","3PQMUDRV7SSXSHF76VIU10P3BISIIS","A3APKUC67F9IMW","3P520RYKCHSO30HY2QJC6BDLS9Z5UE","","null","<img src=""img/food2.png"" style=""width:200px; border:14px solid green;"">","null","","","","","","","","","",""
"","image-keyboard-response","293","177570","0.0-346.0","3PQMUDRV7SSXSHF76VIU10P3BISIIS","A3APKUC67F9IMW","3P520RYKCHSO30HY2QJC6BDLS9Z5UE","","32.400000005960464","img/food2.png","75","33.70000000298023","2","1","2","2","1,0.5,0,1,0.5,0,0.5,0,1","0,1,0.5,0,1,0.5,1,0.5,0","3","false",""
"","html-keyboard-response","294","177872","0.0-347.0","3PQMUDRV7SSXSHF76VIU10P3BISIIS","A3APKUC67F9IMW","3P520RYKCHSO30HY2QJC6BDLS9Z5UE","","null","<img src=""img/food2.png"" style=""width:200px; border:14px solid green;"">","null","","","","","","","","","",""
"","image-keyboard-response","295","177890","0.0-349.0","3PQMUDRV7SSXSHF76VIU10P3BISIIS","A3APKUC67F9IMW","3P520RYKCHSO30HY2QJC6BDLS9Z5UE","","16.099999994039536","img/food2.png","75","17.299999997019768","2","1","2","2","1,0.5,0,1,0.5,0,0.5,0,1","0,1,0.5,0,1,0.5,1,0.5,0","3","false",""
"","html-keyboard-response","296","178192","0.0-350.0","3PQMUDRV7SSXSHF76VIU10P3BISIIS","A3APKUC67F9IMW","3P520RYKCHSO30HY2QJC6BDLS9Z5UE","","null","<img src=""img/food2.png"" style=""width:200px; border:14px solid green;"">","null","","","","","","","","","",""
"","image-keyboard-response","297","178362","0.0-352.0","3PQMUDRV7SSXSHF76VIU10P3BISIIS","A3APKUC67F9IMW","3P520RYKCHSO30HY2QJC6BDLS9Z5UE","","168","img/food2.png","75","169.20000000298023","2","1","2","2","1,0.5,0,1,0.5,0,0.5,0,1","0,1,0.5,0,1,0.5,1,0.5,0","3","false",""
"","html-keyboard-response","298","178664","0.0-353.0","3PQMUDRV7SSXSHF76VIU10P3BISIIS","A3APKUC67F9IMW","3P520RYKCHSO30HY2QJC6BDLS9Z5UE","","null","<img src=""img/food2.png"" style=""width:200px; border:14px solid green;"">","null","","","","","","","","","",""
"","image-keyboard-response","299","178986","0.0-355.0","3PQMUDRV7SSXSHF76VIU10P3BISIIS","A3APKUC67F9IMW","3P520RYKCHSO30HY2QJC6BDLS9Z5UE","","320.5","img/food2.png","75","321.79999999701977","2","1","2","2","1,0.5,0,1,0.5,0,0.5,0,1","0,1,0.5,0,1,0.5,1,0.5,0","3","false",""
"","html-keyboard-response","300","179289","0.0-356.0","3PQMUDRV7SSXSHF76VIU10P3BISIIS","A3APKUC67F9IMW","3P520RYKCHSO30HY2QJC6BDLS9Z5UE","","null","<img src=""img/food2.png"" style=""width:200px; border:14px solid green;"">","null","","","","","","","","","",""
"","image-keyboard-response","301","179291","0.0-358.0","3PQMUDRV7SSXSHF76VIU10P3BISIIS","A3APKUC67F9IMW","3P520RYKCHSO30HY2QJC6BDLS9Z5UE","","0.5","img/food4.png","75","1.5999999940395355","2","1","1","2","1,0.5,0,1,0.5,0,0.5,0,1","0,1,0.5,0,1,0.5,1,0.5,0","3","false",""
"","html-keyboard-response","302","179594","0.0-359.0","3PQMUDRV7SSXSHF76VIU10P3BISIIS","A3APKUC67F9IMW","3P520RYKCHSO30HY2QJC6BDLS9Z5UE","","null","<img src=""img/food4.png"" style=""width:200px; border:14px solid green;"">","null","","","","","","","","","",""
"","image-keyboard-response","303","179834","0.0-361.0","3PQMUDRV7SSXSHF76VIU10P3BISIIS","A3APKUC67F9IMW","3P520RYKCHSO30HY2QJC6BDLS9Z5UE","","238.79999999701977","img/food6.png","75","240","2","0","3","2","1,0.5,0,1,0.5,0,0.5,0,1","0,1,0.5,0,1,0.5,1,0.5,0","3","false",""
"","html-keyboard-response","304","180136","0.0-362.0","3PQMUDRV7SSXSHF76VIU10P3BISIIS","A3APKUC67F9IMW","3P520RYKCHSO30HY2QJC6BDLS9Z5UE","","null","<img src=""img/food6.png"" style=""width:200px;border:14px solid red;"">","null","","","","","","","","","",""
"","image-keyboard-response","305","180426","0.0-364.0","3PQMUDRV7SSXSHF76VIU10P3BISIIS","A3APKUC67F9IMW","3P520RYKCHSO30HY2QJC6BDLS9Z5UE","","288.29999999701977","img/food6.png","75","289.59999999403954","2","0","3","2","1,0.5,0,1,0.5,0,0.5,0,1","0,1,0.5,0,1,0.5,1,0.5,0","3","false",""
"","html-keyboard-response","306","180729","0.0-365.0","3PQMUDRV7SSXSHF76VIU10P3BISIIS","A3APKUC67F9IMW","3P520RYKCHSO30HY2QJC6BDLS9Z5UE","","null","<img src=""img/food6.png"" style=""width:200px;border:14px solid red;"">","null","","","","","","","","","",""
"","image-keyboard-response","307","180794","0.0-367.0","3PQMUDRV7SSXSHF76VIU10P3BISIIS","A3APKUC67F9IMW","3P520RYKCHSO30HY2QJC6BDLS9Z5UE","","63.70000000298023","img/food2.png","75","65","2","1","2","2","1,0.5,0,1,0.5,0,0.5,0,1","0,1,0.5,0,1,0.5,1,0.5,0","3","false",""
"","html-keyboard-response","308","181096","0.0-368.0","3PQMUDRV7SSXSHF76VIU10P3BISIIS","A3APKUC67F9IMW","3P520RYKCHSO30HY2QJC6BDLS9Z5UE","","null","<img src=""img/food2.png"" style=""width:200px; border:14px solid green;"">","null","","","","","","","","","",""
"","image-keyboard-response","309","181226","0.0-370.0","3PQMUDRV7SSXSHF76VIU10P3BISIIS","A3APKUC67F9IMW","3P520RYKCHSO30HY2QJC6BDLS9Z5UE","","128.09999999403954","img/food6.png","74","129.29999999701977","1","1","3","2","1,0.5,0,1,0.5,0,0.5,0,1","0,1,0.5,0,1,0.5,1,0.5,0","3","false",""
"","html-keyboard-response","310","181527","0.0-371.0","3PQMUDRV7SSXSHF76VIU10P3BISIIS","A3APKUC67F9IMW","3P520RYKCHSO30HY2QJC6BDLS9Z5UE","","null","<img src=""img/food6.png"" style=""width:200px; border:14px solid green;"">","null","","","","","","","","","",""
"","image-keyboard-response","311","181562","0.0-373.0","3PQMUDRV7SSXSHF76VIU10P3BISIIS","A3APKUC67F9IMW","3P520RYKCHSO30HY2QJC6BDLS9Z5UE","","32.8999999910593","img/food2.png","75","34.099999994039536","2","1","2","2","1,0.5,0,1,0.5,0,0.5,0,1","0,1,0.5,0,1,0.5,1,0.5,0","3","false",""
"","html-keyboard-response","312","181864","0.0-374.0","3PQMUDRV7SSXSHF76VIU10P3BISIIS","A3APKUC67F9IMW","3P520RYKCHSO30HY2QJC6BDLS9Z5UE","","null","<img src=""img/food2.png"" style=""width:200px; border:14px solid green;"">","null","","","","","","","","","",""
"","image-keyboard-response","313","181914","0.0-376.0","3PQMUDRV7SSXSHF76VIU10P3BISIIS","A3APKUC67F9IMW","3P520RYKCHSO30HY2QJC6BDLS9Z5UE","","48.400000005960464","img/food2.png","76","49.70000000298023","3","1","2","2","1,0.5,0,1,0.5,0,0.5,0,1","0,1,0.5,0,1,0.5,1,0.5,0","3","false",""
"","html-keyboard-response","314","182223","0.0-377.0","3PQMUDRV7SSXSHF76VIU10P3BISIIS","A3APKUC67F9IMW","3P520RYKCHSO30HY2QJC6BDLS9Z5UE","","null","<img src=""img/food2.png"" style=""width:200px; border:14px solid green;"">","null","","","","","","","","","",""
"","image-keyboard-response","315","182234","0.0-379.0","3PQMUDRV7SSXSHF76VIU10P3BISIIS","A3APKUC67F9IMW","3P520RYKCHSO30HY2QJC6BDLS9Z5UE","","8.899999991059303","img/food2.png","74","10.200000002980232","1","0","2","2","1,0.5,0,1,0.5,0,0.5,0,1","0,1,0.5,0,1,0.5,1,0.5,0","3","false",""
"","html-keyboard-response","316","182536","0.0-380.0","3PQMUDRV7SSXSHF76VIU10P3BISIIS","A3APKUC67F9IMW","3P520RYKCHSO30HY2QJC6BDLS9Z5UE","","null","<img src=""img/food2.png"" style=""width:200px;border:14px solid red;"">","null","","","","","","","","","",""
"","image-keyboard-response","317","182618","0.0-382.0","3PQMUDRV7SSXSHF76VIU10P3BISIIS","A3APKUC67F9IMW","3P520RYKCHSO30HY2QJC6BDLS9Z5UE","","80.20000000298023","img/food2.png","75","81.59999999403954","2","1","2","2","1,0.5,0,1,0.5,0,0.5,0,1","0,1,0.5,0,1,0.5,1,0.5,0","3","false",""
"","html-keyboard-response","318","182920","0.0-383.0","3PQMUDRV7SSXSHF76VIU10P3BISIIS","A3APKUC67F9IMW","3P520RYKCHSO30HY2QJC6BDLS9Z5UE","","null","<img src=""img/food2.png"" style=""width:200px; border:14px solid green;"">","null","","","","","","","","","",""
"","image-keyboard-response","319","182938","0.0-385.0","3PQMUDRV7SSXSHF76VIU10P3BISIIS","A3APKUC67F9IMW","3P520RYKCHSO30HY2QJC6BDLS9Z5UE","","15.900000005960464","img/food6.png","75","17.099999994039536","2","0","3","2","1,0.5,0,1,0.5,0,0.5,0,1","0,1,0.5,0,1,0.5,1,0.5,0","3","false",""
"","html-keyboard-response","320","183239","0.0-386.0","3PQMUDRV7SSXSHF76VIU10P3BISIIS","A3APKUC67F9IMW","3P520RYKCHSO30HY2QJC6BDLS9Z5UE","","null","<img src=""img/food6.png"" style=""width:200px;border:14px solid red;"">","null","","","","","","","","","",""
"","image-keyboard-response","321","183282","0.0-388.0","3PQMUDRV7SSXSHF76VIU10P3BISIIS","A3APKUC67F9IMW","3P520RYKCHSO30HY2QJC6BDLS9Z5UE","","41","img/food6.png","74","42.20000000298023","1","1","3","2","1,0.5,0,1,0.5,0,0.5,0,1","0,1,0.5,0,1,0.5,1,0.5,0","3","false",""
"","html-keyboard-response","322","183583","0.0-389.0","3PQMUDRV7SSXSHF76VIU10P3BISIIS","A3APKUC67F9IMW","3P520RYKCHSO30HY2QJC6BDLS9Z5UE","","null","<img src=""img/food6.png"" style=""width:200px; border:14px solid green;"">","null","","","","","","","","","",""
"","image-keyboard-response","323","183986","0.0-391.0","3PQMUDRV7SSXSHF76VIU10P3BISIIS","A3APKUC67F9IMW","3P520RYKCHSO30HY2QJC6BDLS9Z5UE","","400.80000001192093","img/food4.png","75","402.20000000298023","2","1","1","2","1,0.5,0,1,0.5,0,0.5,0,1","0,1,0.5,0,1,0.5,1,0.5,0","3","false",""
"","html-keyboard-response","324","184288","0.0-392.0","3PQMUDRV7SSXSHF76VIU10P3BISIIS","A3APKUC67F9IMW","3P520RYKCHSO30HY2QJC6BDLS9Z5UE","","null","<img src=""img/food4.png"" style=""width:200px; border:14px solid green;"">","null","","","","","","","","","",""
"","image-keyboard-response","325","184514","0.0-394.0","3PQMUDRV7SSXSHF76VIU10P3BISIIS","A3APKUC67F9IMW","3P520RYKCHSO30HY2QJC6BDLS9Z5UE","","224","img/food4.png","75","225.20000000298023","2","1","1","2","1,0.5,0,1,0.5,0,0.5,0,1","0,1,0.5,0,1,0.5,1,0.5,0","3","false",""
"","html-keyboard-response","326","184816","0.0-395.0","3PQMUDRV7SSXSHF76VIU10P3BISIIS","A3APKUC67F9IMW","3P520RYKCHSO30HY2QJC6BDLS9Z5UE","","null","<img src=""img/food4.png"" style=""width:200px; border:14px solid green;"">","null","","","","","","","","","",""
"","image-keyboard-response","327","184967","0.0-397.0","3PQMUDRV7SSXSHF76VIU10P3BISIIS","A3APKUC67F9IMW","3P520RYKCHSO30HY2QJC6BDLS9Z5UE","","149.30000001192093","img/food4.png","75","150.3999999910593","2","1","1","2","1,0.5,0,1,0.5,0,0.5,0,1","0,1,0.5,0,1,0.5,1,0.5,0","3","false",""
"","html-keyboard-response","328","185269","0.0-398.0","3PQMUDRV7SSXSHF76VIU10P3BISIIS","A3APKUC67F9IMW","3P520RYKCHSO30HY2QJC6BDLS9Z5UE","","null","<img src=""img/food4.png"" style=""width:200px; border:14px solid green;"">","null","","","","","","","","","",""
"","image-keyboard-response","329","185378","0.0-400.0","3PQMUDRV7SSXSHF76VIU10P3BISIIS","A3APKUC67F9IMW","3P520RYKCHSO30HY2QJC6BDLS9Z5UE","","107.20000000298023","img/food6.png","75","108.40000000596046","2","0","3","2","1,0.5,0,1,0.5,0,0.5,0,1","0,1,0.5,0,1,0.5,1,0.5,0","3","false",""
"","html-keyboard-response","330","185680","0.0-401.0","3PQMUDRV7SSXSHF76VIU10P3BISIIS","A3APKUC67F9IMW","3P520RYKCHSO30HY2QJC6BDLS9Z5UE","","null","<img src=""img/food6.png"" style=""width:200px;border:14px solid red;"">","null","","","","","","","","","",""
"","image-keyboard-response","331","185802","0.0-403.0","3PQMUDRV7SSXSHF76VIU10P3BISIIS","A3APKUC67F9IMW","3P520RYKCHSO30HY2QJC6BDLS9Z5UE","","120.3999999910593","img/food4.png","75","121.6000000089407","2","1","1","2","1,0.5,0,1,0.5,0,0.5,0,1","0,1,0.5,0,1,0.5,1,0.5,0","3","false",""
"","html-keyboard-response","332","186104","0.0-404.0","3PQMUDRV7SSXSHF76VIU10P3BISIIS","A3APKUC67F9IMW","3P520RYKCHSO30HY2QJC6BDLS9Z5UE","","null","<img src=""img/food4.png"" style=""width:200px; border:14px solid green;"">","null","","","","","","","","","",""
"","image-keyboard-response","333","186154","0.0-406.0","3PQMUDRV7SSXSHF76VIU10P3BISIIS","A3APKUC67F9IMW","3P520RYKCHSO30HY2QJC6BDLS9Z5UE","","48.20000000298023","img/food4.png","75","49.5","2","1","1","2","1,0.5,0,1,0.5,0,0.5,0,1","0,1,0.5,0,1,0.5,1,0.5,0","3","false",""
"","html-keyboard-response","334","186456","0.0-407.0","3PQMUDRV7SSXSHF76VIU10P3BISIIS","A3APKUC67F9IMW","3P520RYKCHSO30HY2QJC6BDLS9Z5UE","","null","<img src=""img/food4.png"" style=""width:200px; border:14px solid green;"">","null","","","","","","","","","",""
"","image-keyboard-response","335","186538","0.0-409.0","3PQMUDRV7SSXSHF76VIU10P3BISIIS","A3APKUC67F9IMW","3P520RYKCHSO30HY2QJC6BDLS9Z5UE","","80.1000000089407","img/food2.png","75","81.40000000596046","2","1","2","2","1,0.5,0,1,0.5,0,0.5,0,1","0,1,0.5,0,1,0.5,1,0.5,0","3","false",""
"","html-keyboard-response","336","186840","0.0-410.0","3PQMUDRV7SSXSHF76VIU10P3BISIIS","A3APKUC67F9IMW","3P520RYKCHSO30HY2QJC6BDLS9Z5UE","","null","<img src=""img/food2.png"" style=""width:200px; border:14px solid green;"">","null","","","","","","","","","",""
"","image-keyboard-response","337","186842","0.0-412.0","3PQMUDRV7SSXSHF76VIU10P3BISIIS","A3APKUC67F9IMW","3P520RYKCHSO30HY2QJC6BDLS9Z5UE","","0.6000000089406967","img/food4.png","76","1.7000000029802322","3","1","1","2","1,0.5,0,1,0.5,0,0.5,0,1","0,1,0.5,0,1,0.5,1,0.5,0","3","false",""
"","html-keyboard-response","338","187144","0.0-413.0","3PQMUDRV7SSXSHF76VIU10P3BISIIS","A3APKUC67F9IMW","3P520RYKCHSO30HY2QJC6BDLS9Z5UE","","null","<img src=""img/food4.png"" style=""width:200px; border:14px solid green;"">","null","","","","","","","","","",""
"","image-keyboard-response","339","187338","0.0-415.0","3PQMUDRV7SSXSHF76VIU10P3BISIIS","A3APKUC67F9IMW","3P520RYKCHSO30HY2QJC6BDLS9Z5UE","","192.19999998807907","img/food4.png","75","193.29999999701977","2","1","1","2","1,0.5,0,1,0.5,0,0.5,0,1","0,1,0.5,0,1,0.5,1,0.5,0","3","false",""
"","html-keyboard-response","340","187640","0.0-416.0","3PQMUDRV7SSXSHF76VIU10P3BISIIS","A3APKUC67F9IMW","3P520RYKCHSO30HY2QJC6BDLS9Z5UE","","null","<img src=""img/food4.png"" style=""width:200px; border:14px solid green;"">","null","","","","","","","","","",""
"","image-keyboard-response","341","187794","0.0-418.0","3PQMUDRV7SSXSHF76VIU10P3BISIIS","A3APKUC67F9IMW","3P520RYKCHSO30HY2QJC6BDLS9Z5UE","","151.90000000596046","img/food6.png","75","153.1000000089407","2","1","3","2","1,0.5,0,1,0.5,0,0.5,0,1","0,1,0.5,0,1,0.5,1,0.5,0","3","false",""
"","html-keyboard-response","342","188096","0.0-419.0","3PQMUDRV7SSXSHF76VIU10P3BISIIS","A3APKUC67F9IMW","3P520RYKCHSO30HY2QJC6BDLS9Z5UE","","null","<img src=""img/food6.png"" style=""width:200px; border:14px solid green;"">","null","","","","","","","","","",""
"","image-keyboard-response","343","188354","0.0-421.0","3PQMUDRV7SSXSHF76VIU10P3BISIIS","A3APKUC67F9IMW","3P520RYKCHSO30HY2QJC6BDLS9Z5UE","","256.29999999701977","img/food2.png","75","257.40000000596046","2","1","2","2","1,0.5,0,1,0.5,0,0.5,0,1","0,1,0.5,0,1,0.5,1,0.5,0","3","false",""
"","html-keyboard-response","344","188656","0.0-422.0","3PQMUDRV7SSXSHF76VIU10P3BISIIS","A3APKUC67F9IMW","3P520RYKCHSO30HY2QJC6BDLS9Z5UE","","null","<img src=""img/food2.png"" style=""width:200px; border:14px solid green;"">","null","","","","","","","","","",""
"","image-keyboard-response","345","188690","0.0-424.0","3PQMUDRV7SSXSHF76VIU10P3BISIIS","A3APKUC67F9IMW","3P520RYKCHSO30HY2QJC6BDLS9Z5UE","","32.400000005960464","img/food4.png","74","33.3999999910593","1","0","1","2","1,0.5,0,1,0.5,0,0.5,0,1","0,1,0.5,0,1,0.5,1,0.5,0","3","false",""
"","html-keyboard-response","346","188992","0.0-425.0","3PQMUDRV7SSXSHF76VIU10P3BISIIS","A3APKUC67F9IMW","3P520RYKCHSO30HY2QJC6BDLS9Z5UE","","null","<img src=""img/food4.png"" style=""width:200px;border:14px solid red;"">","null","","","","","","","","","",""
"","image-keyboard-response","347","189330","0.0-427.0","3PQMUDRV7SSXSHF76VIU10P3BISIIS","A3APKUC67F9IMW","3P520RYKCHSO30HY2QJC6BDLS9Z5UE","","336.5","img/food2.png","75","337.70000000298023","2","1","2","2","1,0.5,0,1,0.5,0,0.5,0,1","0,1,0.5,0,1,0.5,1,0.5,0","3","false",""
"","html-keyboard-response","348","189632","0.0-428.0","3PQMUDRV7SSXSHF76VIU10P3BISIIS","A3APKUC67F9IMW","3P520RYKCHSO30HY2QJC6BDLS9Z5UE","","null","<img src=""img/food2.png"" style=""width:200px; border:14px solid green;"">","null","","","","","","","","","",""
"","image-keyboard-response","349","189634","0.0-430.0","3PQMUDRV7SSXSHF76VIU10P3BISIIS","A3APKUC67F9IMW","3P520RYKCHSO30HY2QJC6BDLS9Z5UE","","0.6000000089406967","img/food4.png","75","1.6000000089406967","2","1","1","2","1,0.5,0,1,0.5,0,0.5,0,1","0,1,0.5,0,1,0.5,1,0.5,0","3","false",""
"","html-keyboard-response","350","189936","0.0-431.0","3PQMUDRV7SSXSHF76VIU10P3BISIIS","A3APKUC67F9IMW","3P520RYKCHSO30HY2QJC6BDLS9Z5UE","","null","<img src=""img/food4.png"" style=""width:200px; border:14px solid green;"">","null","","","","","","","","","",""
"","image-keyboard-response","351","190082","0.0-433.0","3PQMUDRV7SSXSHF76VIU10P3BISIIS","A3APKUC67F9IMW","3P520RYKCHSO30HY2QJC6BDLS9Z5UE","","144.1000000089407","img/food2.png","75","145.30000001192093","2","1","2","2","1,0.5,0,1,0.5,0,0.5,0,1","0,1,0.5,0,1,0.5,1,0.5,0","3","false",""
"","html-keyboard-response","352","190384","0.0-434.0","3PQMUDRV7SSXSHF76VIU10P3BISIIS","A3APKUC67F9IMW","3P520RYKCHSO30HY2QJC6BDLS9Z5UE","","null","<img src=""img/food2.png"" style=""width:200px; border:14px solid green;"">","null","","","","","","","","","",""
"","image-keyboard-response","353","190610","0.0-436.0","3PQMUDRV7SSXSHF76VIU10P3BISIIS","A3APKUC67F9IMW","3P520RYKCHSO30HY2QJC6BDLS9Z5UE","","224.6000000089407","img/food4.png","75","225.79999999701977","2","1","1","2","1,0.5,0,1,0.5,0,0.5,0,1","0,1,0.5,0,1,0.5,1,0.5,0","3","false",""
"","html-keyboard-response","354","190912","0.0-437.0","3PQMUDRV7SSXSHF76VIU10P3BISIIS","A3APKUC67F9IMW","3P520RYKCHSO30HY2QJC6BDLS9Z5UE","","null","<img src=""img/food4.png"" style=""width:200px; border:14px solid green;"">","null","","","","","","","","","",""
"","image-keyboard-response","355","191026","0.0-439.0","3PQMUDRV7SSXSHF76VIU10P3BISIIS","A3APKUC67F9IMW","3P520RYKCHSO30HY2QJC6BDLS9Z5UE","","112","img/food2.png","75","113.40000000596046","2","1","2","2","1,0.5,0,1,0.5,0,0.5,0,1","0,1,0.5,0,1,0.5,1,0.5,0","3","false",""
"","html-keyboard-response","356","191328","0.0-440.0","3PQMUDRV7SSXSHF76VIU10P3BISIIS","A3APKUC67F9IMW","3P520RYKCHSO30HY2QJC6BDLS9Z5UE","","null","<img src=""img/food2.png"" style=""width:200px; border:14px solid green;"">","null","","","","","","","","","",""
"","image-keyboard-response","357","191522","0.0-442.0","3PQMUDRV7SSXSHF76VIU10P3BISIIS","A3APKUC67F9IMW","3P520RYKCHSO30HY2QJC6BDLS9Z5UE","","191.90000000596046","img/food6.png","75","193.1000000089407","2","0","3","2","1,0.5,0,1,0.5,0,0.5,0,1","0,1,0.5,0,1,0.5,1,0.5,0","3","false",""
"","html-keyboard-response","358","191824","0.0-443.0","3PQMUDRV7SSXSHF76VIU10P3BISIIS","A3APKUC67F9IMW","3P520RYKCHSO30HY2QJC6BDLS9Z5UE","","null","<img src=""img/food6.png"" style=""width:200px;border:14px solid red;"">","null","","","","","","","","","",""
"","image-keyboard-response","359","191874","0.0-445.0","3PQMUDRV7SSXSHF76VIU10P3BISIIS","A3APKUC67F9IMW","3P520RYKCHSO30HY2QJC6BDLS9Z5UE","","48.20000000298023","img/food4.png","75","49.6000000089407","2","1","1","2","1,0.5,0,1,0.5,0,0.5,0,1","0,1,0.5,0,1,0.5,1,0.5,0","3","false",""
"","html-keyboard-response","360","192175","0.0-446.0","3PQMUDRV7SSXSHF76VIU10P3BISIIS","A3APKUC67F9IMW","3P520RYKCHSO30HY2QJC6BDLS9Z5UE","","null","<img src=""img/food4.png"" style=""width:200px; border:14px solid green;"">","null","","","","","","","","","",""
"","image-keyboard-response","361","192490","0.0-448.0","3PQMUDRV7SSXSHF76VIU10P3BISIIS","A3APKUC67F9IMW","3P520RYKCHSO30HY2QJC6BDLS9Z5UE","","312.59999999403954","img/food4.png","74","314","1","0","1","2","1,0.5,0,1,0.5,0,0.5,0,1","0,1,0.5,0,1,0.5,1,0.5,0","3","false",""
"","html-keyboard-response","362","192792","0.0-449.0","3PQMUDRV7SSXSHF76VIU10P3BISIIS","A3APKUC67F9IMW","3P520RYKCHSO30HY2QJC6BDLS9Z5UE","","null","<img src=""img/food4.png"" style=""width:200px;border:14px solid red;"">","null","","","","","","","","","",""
"","image-keyboard-response","363","192842","0.0-451.0","3PQMUDRV7SSXSHF76VIU10P3BISIIS","A3APKUC67F9IMW","3P520RYKCHSO30HY2QJC6BDLS9Z5UE","","48.20000000298023","img/food4.png","75","49.3999999910593","2","1","1","2","1,0.5,0,1,0.5,0,0.5,0,1","0,1,0.5,0,1,0.5,1,0.5,0","3","false",""
"","html-keyboard-response","364","193144","0.0-452.0","3PQMUDRV7SSXSHF76VIU10P3BISIIS","A3APKUC67F9IMW","3P520RYKCHSO30HY2QJC6BDLS9Z5UE","","null","<img src=""img/food4.png"" style=""width:200px; border:14px solid green;"">","null","","","","","","","","","",""
"","instructions","365","196170","0.0-454.0","3PQMUDRV7SSXSHF76VIU10P3BISIIS","A3APKUC67F9IMW","3P520RYKCHSO30HY2QJC6BDLS9Z5UE","[{""page_index"":0,""viewing_time"":3024.5}]","3024.800000011921","","","","","","","","","","","",""
"","survey-text","366","199255","0.0-455.0","3PQMUDRV7SSXSHF76VIU10P3BISIIS","A3APKUC67F9IMW","3P520RYKCHSO30HY2QJC6BDLS9Z5UE","","3079.1000000089407","","","","","","","","","","","","{""Q0"":""A3APKUC67F9IMW""}"
