"success","trial_type","trial_index","time_elapsed","internal_node_id","assignmentID","mturkID","hitID","view_history","rt","stimulus","key_press","reactionTime","chosenAction","reward","responses"
"true","fullscreen","0","3008","0.0-0.0","3C44YUNSI2B81SMPRC73J0A218ZDPB","A3AU8PZ6HHBCVT","39WSF6KUV27TMEQUH506BZR9N6KEO1","","","","","","","",""
"","instructions","1","17944","0.0-1.0","3C44YUNSI2B81SMPRC73J0A218ZDPB","A3AU8PZ6HHBCVT","39WSF6KUV27TMEQUH506BZR9N6KEO1","[{""page_index"":0,""viewing_time"":2041.5999999940395},{""page_index"":1,""viewing_time"":1513.5999999940395},{""page_index"":2,""viewing_time"":180},{""page_index"":3,""viewing_time"":5126.4000000059605},{""page_index"":4,""viewing_time"":1963.699999988079},{""page_index"":5,""viewing_time"":2195.7000000178814},{""page_index"":6,""viewing_time"":1893.0999999940395}]","14920.799999982119","","","","","",""
"","image-keyboard-response","2","19319","0.0-2.0","3C44YUNSI2B81SMPRC73J0A218ZDPB","A3AU8PZ6HHBCVT","39WSF6KUV27TMEQUH506BZR9N6KEO1","","1365.7000000178814","img/food3.png","76","1373.5","76","0",""
"","html-keyboard-response","3","19627","0.0-3.0","3C44YUNSI2B81SMPRC73J0A218ZDPB","A3AU8PZ6HHBCVT","39WSF6KUV27TMEQUH506BZR9N6KEO1","","null","<img src=""img/food3.png"" style=""width:200px;border:14px solid red;"">","null","","","",""
"","image-keyboard-response","4","21272","0.0-4.0","3C44YUNSI2B81SMPRC73J0A218ZDPB","A3AU8PZ6HHBCVT","39WSF6KUV27TMEQUH506BZR9N6KEO1","","1636.0999999940395","img/food1.png","76","1640.800000011921","76","0",""
"","html-keyboard-response","5","21579","0.0-5.0","3C44YUNSI2B81SMPRC73J0A218ZDPB","A3AU8PZ6HHBCVT","39WSF6KUV27TMEQUH506BZR9N6KEO1","","null","<img src=""img/food1.png"" style=""width:200px;border:14px solid red;"">","null","","","",""
"","image-keyboard-response","6","22133","0.0-6.0","3C44YUNSI2B81SMPRC73J0A218ZDPB","A3AU8PZ6HHBCVT","39WSF6KUV27TMEQUH506BZR9N6KEO1","","548.6000000238419","img/food5.png","76","551.8999999761581","76","0",""
"","html-keyboard-response","7","22438","0.0-7.0","3C44YUNSI2B81SMPRC73J0A218ZDPB","A3AU8PZ6HHBCVT","39WSF6KUV27TMEQUH506BZR9N6KEO1","","null","<img src=""img/food5.png"" style=""width:200px;border:14px solid red;"">","null","","","",""
"","image-keyboard-response","8","23805","0.0-8.0","3C44YUNSI2B81SMPRC73J0A218ZDPB","A3AU8PZ6HHBCVT","39WSF6KUV27TMEQUH506BZR9N6KEO1","","1360.0999999940395","img/food1.png","75","1365.0999999940395","75","0",""
"","html-keyboard-response","9","24111","0.0-9.0","3C44YUNSI2B81SMPRC73J0A218ZDPB","A3AU8PZ6HHBCVT","39WSF6KUV27TMEQUH506BZR9N6KEO1","","null","<img src=""img/food1.png"" style=""width:200px;border:14px solid red;"">","null","","","",""
"","image-keyboard-response","10","24284","0.0-10.0","3C44YUNSI2B81SMPRC73J0A218ZDPB","A3AU8PZ6HHBCVT","39WSF6KUV27TMEQUH506BZR9N6KEO1","","160.10000002384186","img/food1.png","74","170.90000000596046","74","1",""
"","html-keyboard-response","11","24594","0.0-11.0","3C44YUNSI2B81SMPRC73J0A218ZDPB","A3AU8PZ6HHBCVT","39WSF6KUV27TMEQUH506BZR9N6KEO1","","null","<img src=""img/food1.png"" style=""width:200px; border:14px solid green;"">","null","","","",""
"","image-keyboard-response","12","25219","0.0-12.0","3C44YUNSI2B81SMPRC73J0A218ZDPB","A3AU8PZ6HHBCVT","39WSF6KUV27TMEQUH506BZR9N6KEO1","","619.3000000119209","img/food3.png","76","624.2000000178814","76","0",""
"","html-keyboard-response","13","25525","0.0-13.0","3C44YUNSI2B81SMPRC73J0A218ZDPB","A3AU8PZ6HHBCVT","39WSF6KUV27TMEQUH506BZR9N6KEO1","","null","<img src=""img/food3.png"" style=""width:200px;border:14px solid red;"">","null","","","",""
"","image-keyboard-response","14","25611","0.0-14.0","3C44YUNSI2B81SMPRC73J0A218ZDPB","A3AU8PZ6HHBCVT","39WSF6KUV27TMEQUH506BZR9N6KEO1","","79","img/food1.png","75","85","75","0",""
"","html-keyboard-response","15","25915","0.0-15.0","3C44YUNSI2B81SMPRC73J0A218ZDPB","A3AU8PZ6HHBCVT","39WSF6KUV27TMEQUH506BZR9N6KEO1","","null","<img src=""img/food1.png"" style=""width:200px;border:14px solid red;"">","null","","","",""
"","image-keyboard-response","16","26381","0.0-16.0","3C44YUNSI2B81SMPRC73J0A218ZDPB","A3AU8PZ6HHBCVT","39WSF6KUV27TMEQUH506BZR9N6KEO1","","460.7000000178814","img/food5.png","74","464.89999997615814","74","0",""
"","html-keyboard-response","17","26686","0.0-17.0","3C44YUNSI2B81SMPRC73J0A218ZDPB","A3AU8PZ6HHBCVT","39WSF6KUV27TMEQUH506BZR9N6KEO1","","null","<img src=""img/food5.png"" style=""width:200px;border:14px solid red;"">","null","","","",""
"","image-keyboard-response","18","27437","0.0-18.0","3C44YUNSI2B81SMPRC73J0A218ZDPB","A3AU8PZ6HHBCVT","39WSF6KUV27TMEQUH506BZR9N6KEO1","","743.5999999940395","img/food1.png","75","749.5999999940395","75","0",""
"","html-keyboard-response","19","27742","0.0-19.0","3C44YUNSI2B81SMPRC73J0A218ZDPB","A3AU8PZ6HHBCVT","39WSF6KUV27TMEQUH506BZR9N6KEO1","","null","<img src=""img/food1.png"" style=""width:200px;border:14px solid red;"">","null","","","",""
"","image-keyboard-response","20","27831","0.0-20.0","3C44YUNSI2B81SMPRC73J0A218ZDPB","A3AU8PZ6HHBCVT","39WSF6KUV27TMEQUH506BZR9N6KEO1","","82.69999998807907","img/food3.png","76","88.30000001192093","76","0",""
"","html-keyboard-response","21","28136","0.0-21.0","3C44YUNSI2B81SMPRC73J0A218ZDPB","A3AU8PZ6HHBCVT","39WSF6KUV27TMEQUH506BZR9N6KEO1","","null","<img src=""img/food3.png"" style=""width:200px;border:14px solid red;"">","null","","","",""
"","image-keyboard-response","22","28272","0.0-22.0","3C44YUNSI2B81SMPRC73J0A218ZDPB","A3AU8PZ6HHBCVT","39WSF6KUV27TMEQUH506BZR9N6KEO1","","130.69999998807907","img/food1.png","74","134.90000000596046","74","0",""
"","html-keyboard-response","23","28581","0.0-23.0","3C44YUNSI2B81SMPRC73J0A218ZDPB","A3AU8PZ6HHBCVT","39WSF6KUV27TMEQUH506BZR9N6KEO1","","null","<img src=""img/food1.png"" style=""width:200px;border:14px solid red;"">","null","","","",""
"","image-keyboard-response","24","28642","0.0-24.0","3C44YUNSI2B81SMPRC73J0A218ZDPB","A3AU8PZ6HHBCVT","39WSF6KUV27TMEQUH506BZR9N6KEO1","","53.80000001192093","img/food3.png","74","60.5","74","1",""
"","html-keyboard-response","25","28947","0.0-25.0","3C44YUNSI2B81SMPRC73J0A218ZDPB","A3AU8PZ6HHBCVT","39WSF6KUV27TMEQUH506BZR9N6KEO1","","null","<img src=""img/food3.png"" style=""width:200px; border:14px solid green;"">","null","","","",""
"","image-keyboard-response","26","28952","0.0-26.0","3C44YUNSI2B81SMPRC73J0A218ZDPB","A3AU8PZ6HHBCVT","39WSF6KUV27TMEQUH506BZR9N6KEO1","","0.30000001192092896","img/food5.png","75","3.5","75","1",""
"","html-keyboard-response","27","29255","0.0-27.0","3C44YUNSI2B81SMPRC73J0A218ZDPB","A3AU8PZ6HHBCVT","39WSF6KUV27TMEQUH506BZR9N6KEO1","","null","<img src=""img/food5.png"" style=""width:200px; border:14px solid green;"">","null","","","",""
"","image-keyboard-response","28","29351","0.0-28.0","3C44YUNSI2B81SMPRC73J0A218ZDPB","A3AU8PZ6HHBCVT","39WSF6KUV27TMEQUH506BZR9N6KEO1","","91.39999997615814","img/food3.png","74","96","74","1",""
"","html-keyboard-response","29","29660","0.0-29.0","3C44YUNSI2B81SMPRC73J0A218ZDPB","A3AU8PZ6HHBCVT","39WSF6KUV27TMEQUH506BZR9N6KEO1","","null","<img src=""img/food3.png"" style=""width:200px; border:14px solid green;"">","null","","","",""
"","image-keyboard-response","30","29671","0.0-30.0","3C44YUNSI2B81SMPRC73J0A218ZDPB","A3AU8PZ6HHBCVT","39WSF6KUV27TMEQUH506BZR9N6KEO1","","3.9000000059604645","img/food3.png","74","8.599999994039536","74","1",""
"","html-keyboard-response","31","29976","0.0-31.0","3C44YUNSI2B81SMPRC73J0A218ZDPB","A3AU8PZ6HHBCVT","39WSF6KUV27TMEQUH506BZR9N6KEO1","","null","<img src=""img/food3.png"" style=""width:200px; border:14px solid green;"">","null","","","",""
"","image-keyboard-response","32","29983","0.0-32.0","3C44YUNSI2B81SMPRC73J0A218ZDPB","A3AU8PZ6HHBCVT","39WSF6KUV27TMEQUH506BZR9N6KEO1","","1.0999999940395355","img/food1.png","74","5","74","1",""
"","html-keyboard-response","33","30287","0.0-33.0","3C44YUNSI2B81SMPRC73J0A218ZDPB","A3AU8PZ6HHBCVT","39WSF6KUV27TMEQUH506BZR9N6KEO1","","null","<img src=""img/food1.png"" style=""width:200px; border:14px solid green;"">","null","","","",""
"","image-keyboard-response","34","30323","0.0-34.0","3C44YUNSI2B81SMPRC73J0A218ZDPB","A3AU8PZ6HHBCVT","39WSF6KUV27TMEQUH506BZR9N6KEO1","","32.30000001192093","img/food3.png","76","35.5","76","0",""
"","html-keyboard-response","35","30630","0.0-35.0","3C44YUNSI2B81SMPRC73J0A218ZDPB","A3AU8PZ6HHBCVT","39WSF6KUV27TMEQUH506BZR9N6KEO1","","null","<img src=""img/food3.png"" style=""width:200px;border:14px solid red;"">","null","","","",""
"","image-keyboard-response","36","30679","0.0-36.0","3C44YUNSI2B81SMPRC73J0A218ZDPB","A3AU8PZ6HHBCVT","39WSF6KUV27TMEQUH506BZR9N6KEO1","","43.19999998807907","img/food5.png","75","47","75","1",""
"","html-keyboard-response","37","30984","0.0-37.0","3C44YUNSI2B81SMPRC73J0A218ZDPB","A3AU8PZ6HHBCVT","39WSF6KUV27TMEQUH506BZR9N6KEO1","","null","<img src=""img/food5.png"" style=""width:200px; border:14px solid green;"">","null","","","",""
"","image-keyboard-response","38","31048","0.0-38.0","3C44YUNSI2B81SMPRC73J0A218ZDPB","A3AU8PZ6HHBCVT","39WSF6KUV27TMEQUH506BZR9N6KEO1","","58.80000001192093","img/food1.png","74","63.19999998807907","74","1",""
"","html-keyboard-response","39","31355","0.0-39.0","3C44YUNSI2B81SMPRC73J0A218ZDPB","A3AU8PZ6HHBCVT","39WSF6KUV27TMEQUH506BZR9N6KEO1","","null","<img src=""img/food1.png"" style=""width:200px; border:14px solid green;"">","null","","","",""
"","image-keyboard-response","40","31381","0.0-40.0","3C44YUNSI2B81SMPRC73J0A218ZDPB","A3AU8PZ6HHBCVT","39WSF6KUV27TMEQUH506BZR9N6KEO1","","19.099999994039536","img/food5.png","75","23.900000005960464","75","1",""
"","html-keyboard-response","41","31685","0.0-41.0","3C44YUNSI2B81SMPRC73J0A218ZDPB","A3AU8PZ6HHBCVT","39WSF6KUV27TMEQUH506BZR9N6KEO1","","null","<img src=""img/food5.png"" style=""width:200px; border:14px solid green;"">","null","","","",""
"","image-keyboard-response","42","31734","0.0-42.0","3C44YUNSI2B81SMPRC73J0A218ZDPB","A3AU8PZ6HHBCVT","39WSF6KUV27TMEQUH506BZR9N6KEO1","","43.5","img/food3.png","74","47.30000001192093","74","1",""
"","html-keyboard-response","43","32038","0.0-43.0","3C44YUNSI2B81SMPRC73J0A218ZDPB","A3AU8PZ6HHBCVT","39WSF6KUV27TMEQUH506BZR9N6KEO1","","null","<img src=""img/food3.png"" style=""width:200px; border:14px solid green;"">","null","","","",""
"","image-keyboard-response","44","32115","0.0-44.0","3C44YUNSI2B81SMPRC73J0A218ZDPB","A3AU8PZ6HHBCVT","39WSF6KUV27TMEQUH506BZR9N6KEO1","","70.39999997615814","img/food5.png","74","75.90000000596046","74","0",""
"","html-keyboard-response","45","32422","0.0-45.0","3C44YUNSI2B81SMPRC73J0A218ZDPB","A3AU8PZ6HHBCVT","39WSF6KUV27TMEQUH506BZR9N6KEO1","","null","<img src=""img/food5.png"" style=""width:200px;border:14px solid red;"">","null","","","",""
"","image-keyboard-response","46","32475","0.0-46.0","3C44YUNSI2B81SMPRC73J0A218ZDPB","A3AU8PZ6HHBCVT","39WSF6KUV27TMEQUH506BZR9N6KEO1","","45.20000001788139","img/food1.png","75","51.599999994039536","75","0",""
"","html-keyboard-response","47","32782","0.0-47.0","3C44YUNSI2B81SMPRC73J0A218ZDPB","A3AU8PZ6HHBCVT","39WSF6KUV27TMEQUH506BZR9N6KEO1","","null","<img src=""img/food1.png"" style=""width:200px;border:14px solid red;"">","null","","","",""
"","image-keyboard-response","48","32800","0.0-48.0","3C44YUNSI2B81SMPRC73J0A218ZDPB","A3AU8PZ6HHBCVT","39WSF6KUV27TMEQUH506BZR9N6KEO1","","11.5","img/food5.png","75","16.5","75","1",""
"","html-keyboard-response","49","33106","0.0-49.0","3C44YUNSI2B81SMPRC73J0A218ZDPB","A3AU8PZ6HHBCVT","39WSF6KUV27TMEQUH506BZR9N6KEO1","","null","<img src=""img/food5.png"" style=""width:200px; border:14px solid green;"">","null","","","",""
"","image-keyboard-response","50","33147","0.0-50.0","3C44YUNSI2B81SMPRC73J0A218ZDPB","A3AU8PZ6HHBCVT","39WSF6KUV27TMEQUH506BZR9N6KEO1","","35.19999998807907","img/food3.png","74","39.70000001788139","74","1",""
"","html-keyboard-response","51","33453","0.0-51.0","3C44YUNSI2B81SMPRC73J0A218ZDPB","A3AU8PZ6HHBCVT","39WSF6KUV27TMEQUH506BZR9N6KEO1","","null","<img src=""img/food3.png"" style=""width:200px; border:14px solid green;"">","null","","","",""
"","image-keyboard-response","52","33477","0.0-52.0","3C44YUNSI2B81SMPRC73J0A218ZDPB","A3AU8PZ6HHBCVT","39WSF6KUV27TMEQUH506BZR9N6KEO1","","14.400000005960464","img/food1.png","75","18.900000005960464","75","0",""
"","html-keyboard-response","53","33780","0.0-53.0","3C44YUNSI2B81SMPRC73J0A218ZDPB","A3AU8PZ6HHBCVT","39WSF6KUV27TMEQUH506BZR9N6KEO1","","null","<img src=""img/food1.png"" style=""width:200px;border:14px solid red;"">","null","","","",""
"","image-keyboard-response","54","33834","0.0-54.0","3C44YUNSI2B81SMPRC73J0A218ZDPB","A3AU8PZ6HHBCVT","39WSF6KUV27TMEQUH506BZR9N6KEO1","","49.70000001788139","img/food3.png","75","53.69999998807907","75","1",""
"","html-keyboard-response","55","34141","0.0-55.0","3C44YUNSI2B81SMPRC73J0A218ZDPB","A3AU8PZ6HHBCVT","39WSF6KUV27TMEQUH506BZR9N6KEO1","","null","<img src=""img/food3.png"" style=""width:200px; border:14px solid green;"">","null","","","",""
"","image-keyboard-response","56","34153","0.0-56.0","3C44YUNSI2B81SMPRC73J0A218ZDPB","A3AU8PZ6HHBCVT","39WSF6KUV27TMEQUH506BZR9N6KEO1","","6.200000017881393","img/food3.png","75","10.099999994039536","75","0",""
"","html-keyboard-response","57","34457","0.0-57.0","3C44YUNSI2B81SMPRC73J0A218ZDPB","A3AU8PZ6HHBCVT","39WSF6KUV27TMEQUH506BZR9N6KEO1","","null","<img src=""img/food3.png"" style=""width:200px;border:14px solid red;"">","null","","","",""
"","image-keyboard-response","58","34473","0.0-58.0","3C44YUNSI2B81SMPRC73J0A218ZDPB","A3AU8PZ6HHBCVT","39WSF6KUV27TMEQUH506BZR9N6KEO1","","8.700000017881393","img/food1.png","75","13.300000011920929","75","0",""
"","html-keyboard-response","59","34779","0.0-59.0","3C44YUNSI2B81SMPRC73J0A218ZDPB","A3AU8PZ6HHBCVT","39WSF6KUV27TMEQUH506BZR9N6KEO1","","null","<img src=""img/food1.png"" style=""width:200px;border:14px solid red;"">","null","","","",""
"","image-keyboard-response","60","34792","0.0-60.0","3C44YUNSI2B81SMPRC73J0A218ZDPB","A3AU8PZ6HHBCVT","39WSF6KUV27TMEQUH506BZR9N6KEO1","","6.699999988079071","img/food3.png","74","11.200000017881393","74","1",""
"","html-keyboard-response","61","35096","0.0-61.0","3C44YUNSI2B81SMPRC73J0A218ZDPB","A3AU8PZ6HHBCVT","39WSF6KUV27TMEQUH506BZR9N6KEO1","","null","<img src=""img/food3.png"" style=""width:200px; border:14px solid green;"">","null","","","",""
"","image-keyboard-response","62","35111","0.0-62.0","3C44YUNSI2B81SMPRC73J0A218ZDPB","A3AU8PZ6HHBCVT","39WSF6KUV27TMEQUH506BZR9N6KEO1","","11.5","img/food3.png","76","13.900000005960464","76","0",""
"","html-keyboard-response","63","35414","0.0-63.0","3C44YUNSI2B81SMPRC73J0A218ZDPB","A3AU8PZ6HHBCVT","39WSF6KUV27TMEQUH506BZR9N6KEO1","","null","<img src=""img/food3.png"" style=""width:200px;border:14px solid red;"">","null","","","",""
"","image-keyboard-response","64","35428","0.0-64.0","3C44YUNSI2B81SMPRC73J0A218ZDPB","A3AU8PZ6HHBCVT","39WSF6KUV27TMEQUH506BZR9N6KEO1","","9.300000011920929","img/food3.png","74","12.599999994039536","74","1",""
"","html-keyboard-response","65","35733","0.0-65.0","3C44YUNSI2B81SMPRC73J0A218ZDPB","A3AU8PZ6HHBCVT","39WSF6KUV27TMEQUH506BZR9N6KEO1","","null","<img src=""img/food3.png"" style=""width:200px; border:14px solid green;"">","null","","","",""
"","image-keyboard-response","66","35789","0.0-66.0","3C44YUNSI2B81SMPRC73J0A218ZDPB","A3AU8PZ6HHBCVT","39WSF6KUV27TMEQUH506BZR9N6KEO1","","49.79999998211861","img/food1.png","74","55.69999998807907","74","1",""
"","html-keyboard-response","67","36094","0.0-67.0","3C44YUNSI2B81SMPRC73J0A218ZDPB","A3AU8PZ6HHBCVT","39WSF6KUV27TMEQUH506BZR9N6KEO1","","null","<img src=""img/food1.png"" style=""width:200px; border:14px solid green;"">","null","","","",""
"","image-keyboard-response","68","36121","0.0-68.0","3C44YUNSI2B81SMPRC73J0A218ZDPB","A3AU8PZ6HHBCVT","39WSF6KUV27TMEQUH506BZR9N6KEO1","","22.80000001192093","img/food5.png","75","36.5","75","1",""
"","html-keyboard-response","69","36443","0.0-69.0","3C44YUNSI2B81SMPRC73J0A218ZDPB","A3AU8PZ6HHBCVT","39WSF6KUV27TMEQUH506BZR9N6KEO1","","null","<img src=""img/food5.png"" style=""width:200px; border:14px solid green;"">","null","","","",""
"","image-keyboard-response","70","36474","0.0-70.0","3C44YUNSI2B81SMPRC73J0A218ZDPB","A3AU8PZ6HHBCVT","39WSF6KUV27TMEQUH506BZR9N6KEO1","","28.099999994039536","img/food3.png","74","30.299999982118607","74","1",""
"","html-keyboard-response","71","36780","0.0-71.0","3C44YUNSI2B81SMPRC73J0A218ZDPB","A3AU8PZ6HHBCVT","39WSF6KUV27TMEQUH506BZR9N6KEO1","","null","<img src=""img/food3.png"" style=""width:200px; border:14px solid green;"">","null","","","",""
"","image-keyboard-response","72","36882","0.0-72.0","3C44YUNSI2B81SMPRC73J0A218ZDPB","A3AU8PZ6HHBCVT","39WSF6KUV27TMEQUH506BZR9N6KEO1","","95.80000001192093","img/food1.png","74","101.5","74","1",""
"","html-keyboard-response","73","37188","0.0-73.0","3C44YUNSI2B81SMPRC73J0A218ZDPB","A3AU8PZ6HHBCVT","39WSF6KUV27TMEQUH506BZR9N6KEO1","","null","<img src=""img/food1.png"" style=""width:200px; border:14px solid green;"">","null","","","",""
"","image-keyboard-response","74","37323","0.0-74.0","3C44YUNSI2B81SMPRC73J0A218ZDPB","A3AU8PZ6HHBCVT","39WSF6KUV27TMEQUH506BZR9N6KEO1","","131","img/food1.png","75","133.89999997615814","75","0",""
"","html-keyboard-response","75","37629","0.0-75.0","3C44YUNSI2B81SMPRC73J0A218ZDPB","A3AU8PZ6HHBCVT","39WSF6KUV27TMEQUH506BZR9N6KEO1","","null","<img src=""img/food1.png"" style=""width:200px;border:14px solid red;"">","null","","","",""
"","image-keyboard-response","76","37758","0.0-76.0","3C44YUNSI2B81SMPRC73J0A218ZDPB","A3AU8PZ6HHBCVT","39WSF6KUV27TMEQUH506BZR9N6KEO1","","124.7999999821186","img/food1.png","76","129.5","76","1",""
"","html-keyboard-response","77","38065","0.0-77.0","3C44YUNSI2B81SMPRC73J0A218ZDPB","A3AU8PZ6HHBCVT","39WSF6KUV27TMEQUH506BZR9N6KEO1","","null","<img src=""img/food1.png"" style=""width:200px; border:14px solid green;"">","null","","","",""
"","image-keyboard-response","78","38118","0.0-78.0","3C44YUNSI2B81SMPRC73J0A218ZDPB","A3AU8PZ6HHBCVT","39WSF6KUV27TMEQUH506BZR9N6KEO1","","47.599999994039536","img/food5.png","76","51.79999998211861","76","0",""
"","html-keyboard-response","79","38424","0.0-79.0","3C44YUNSI2B81SMPRC73J0A218ZDPB","A3AU8PZ6HHBCVT","39WSF6KUV27TMEQUH506BZR9N6KEO1","","null","<img src=""img/food5.png"" style=""width:200px;border:14px solid red;"">","null","","","",""
"","image-keyboard-response","80","38477","0.0-80.0","3C44YUNSI2B81SMPRC73J0A218ZDPB","A3AU8PZ6HHBCVT","39WSF6KUV27TMEQUH506BZR9N6KEO1","","47.099999994039536","img/food5.png","75","52","75","1",""
"","html-keyboard-response","81","38781","0.0-81.0","3C44YUNSI2B81SMPRC73J0A218ZDPB","A3AU8PZ6HHBCVT","39WSF6KUV27TMEQUH506BZR9N6KEO1","","null","<img src=""img/food5.png"" style=""width:200px; border:14px solid green;"">","null","","","",""
"","image-keyboard-response","82","38836","0.0-82.0","3C44YUNSI2B81SMPRC73J0A218ZDPB","A3AU8PZ6HHBCVT","39WSF6KUV27TMEQUH506BZR9N6KEO1","","47.099999994039536","img/food3.png","75","54.099999994039536","75","0",""
"","html-keyboard-response","83","39147","0.0-83.0","3C44YUNSI2B81SMPRC73J0A218ZDPB","A3AU8PZ6HHBCVT","39WSF6KUV27TMEQUH506BZR9N6KEO1","","null","<img src=""img/food3.png"" style=""width:200px;border:14px solid red;"">","null","","","",""
"","image-keyboard-response","84","39153","0.0-84.0","3C44YUNSI2B81SMPRC73J0A218ZDPB","A3AU8PZ6HHBCVT","39WSF6KUV27TMEQUH506BZR9N6KEO1","","0.20000001788139343","img/food5.png","75","3.2000000178813934","75","0",""
"","html-keyboard-response","85","39455","0.0-85.0","3C44YUNSI2B81SMPRC73J0A218ZDPB","A3AU8PZ6HHBCVT","39WSF6KUV27TMEQUH506BZR9N6KEO1","","null","<img src=""img/food5.png"" style=""width:200px;border:14px solid red;"">","null","","","",""
"","image-keyboard-response","86","39490","0.0-86.0","3C44YUNSI2B81SMPRC73J0A218ZDPB","A3AU8PZ6HHBCVT","39WSF6KUV27TMEQUH506BZR9N6KEO1","","31.900000005960464","img/food1.png","75","34.89999997615814","75","0",""
"","html-keyboard-response","87","39794","0.0-87.0","3C44YUNSI2B81SMPRC73J0A218ZDPB","A3AU8PZ6HHBCVT","39WSF6KUV27TMEQUH506BZR9N6KEO1","","null","<img src=""img/food1.png"" style=""width:200px;border:14px solid red;"">","null","","","",""
"","image-keyboard-response","88","39876","0.0-88.0","3C44YUNSI2B81SMPRC73J0A218ZDPB","A3AU8PZ6HHBCVT","39WSF6KUV27TMEQUH506BZR9N6KEO1","","77.69999998807907","img/food5.png","74","81.69999998807907","74","1",""
"","html-keyboard-response","89","40183","0.0-89.0","3C44YUNSI2B81SMPRC73J0A218ZDPB","A3AU8PZ6HHBCVT","39WSF6KUV27TMEQUH506BZR9N6KEO1","","null","<img src=""img/food5.png"" style=""width:200px; border:14px solid green;"">","null","","","",""
"","image-keyboard-response","90","40302","0.0-90.0","3C44YUNSI2B81SMPRC73J0A218ZDPB","A3AU8PZ6HHBCVT","39WSF6KUV27TMEQUH506BZR9N6KEO1","","110.60000002384186","img/food3.png","75","116.5","75","0",""
"","html-keyboard-response","91","40608","0.0-91.0","3C44YUNSI2B81SMPRC73J0A218ZDPB","A3AU8PZ6HHBCVT","39WSF6KUV27TMEQUH506BZR9N6KEO1","","null","<img src=""img/food3.png"" style=""width:200px;border:14px solid red;"">","null","","","",""
"","image-keyboard-response","92","40658","0.0-92.0","3C44YUNSI2B81SMPRC73J0A218ZDPB","A3AU8PZ6HHBCVT","39WSF6KUV27TMEQUH506BZR9N6KEO1","","43.599999994039536","img/food5.png","76","49","76","0",""
"","html-keyboard-response","93","40962","0.0-93.0","3C44YUNSI2B81SMPRC73J0A218ZDPB","A3AU8PZ6HHBCVT","39WSF6KUV27TMEQUH506BZR9N6KEO1","","null","<img src=""img/food5.png"" style=""width:200px;border:14px solid red;"">","null","","","",""
"","image-keyboard-response","94","41003","0.0-94.0","3C44YUNSI2B81SMPRC73J0A218ZDPB","A3AU8PZ6HHBCVT","39WSF6KUV27TMEQUH506BZR9N6KEO1","","36.099999994039536","img/food1.png","74","39.099999994039536","74","1",""
"","html-keyboard-response","95","41311","0.0-95.0","3C44YUNSI2B81SMPRC73J0A218ZDPB","A3AU8PZ6HHBCVT","39WSF6KUV27TMEQUH506BZR9N6KEO1","","null","<img src=""img/food1.png"" style=""width:200px; border:14px solid green;"">","null","","","",""
"","image-keyboard-response","96","41330","0.0-96.0","3C44YUNSI2B81SMPRC73J0A218ZDPB","A3AU8PZ6HHBCVT","39WSF6KUV27TMEQUH506BZR9N6KEO1","","15.800000011920929","img/food1.png","74","18.900000005960464","74","1",""
"","html-keyboard-response","97","41636","0.0-97.0","3C44YUNSI2B81SMPRC73J0A218ZDPB","A3AU8PZ6HHBCVT","39WSF6KUV27TMEQUH506BZR9N6KEO1","","null","<img src=""img/food1.png"" style=""width:200px; border:14px solid green;"">","null","","","",""
"","image-keyboard-response","98","41643","0.0-98.0","3C44YUNSI2B81SMPRC73J0A218ZDPB","A3AU8PZ6HHBCVT","39WSF6KUV27TMEQUH506BZR9N6KEO1","","0.4000000059604645","img/food5.png","74","5.200000017881393","74","1",""
"","html-keyboard-response","99","41946","0.0-99.0","3C44YUNSI2B81SMPRC73J0A218ZDPB","A3AU8PZ6HHBCVT","39WSF6KUV27TMEQUH506BZR9N6KEO1","","null","<img src=""img/food5.png"" style=""width:200px; border:14px solid green;"">","null","","","",""
"","image-keyboard-response","100","41956","0.0-100.0","3C44YUNSI2B81SMPRC73J0A218ZDPB","A3AU8PZ6HHBCVT","39WSF6KUV27TMEQUH506BZR9N6KEO1","","0.699999988079071","img/food5.png","74","8.5","74","0",""
"","html-keyboard-response","101","42261","0.0-101.0","3C44YUNSI2B81SMPRC73J0A218ZDPB","A3AU8PZ6HHBCVT","39WSF6KUV27TMEQUH506BZR9N6KEO1","","null","<img src=""img/food5.png"" style=""width:200px;border:14px solid red;"">","null","","","",""
"","image-keyboard-response","102","42336","0.0-102.0","3C44YUNSI2B81SMPRC73J0A218ZDPB","A3AU8PZ6HHBCVT","39WSF6KUV27TMEQUH506BZR9N6KEO1","","72.39999997615814","img/food1.png","74","75","74","1",""
"","html-keyboard-response","103","42640","0.0-103.0","3C44YUNSI2B81SMPRC73J0A218ZDPB","A3AU8PZ6HHBCVT","39WSF6KUV27TMEQUH506BZR9N6KEO1","","null","<img src=""img/food1.png"" style=""width:200px; border:14px solid green;"">","null","","","",""
"","image-keyboard-response","104","42688","0.0-104.0","3C44YUNSI2B81SMPRC73J0A218ZDPB","A3AU8PZ6HHBCVT","39WSF6KUV27TMEQUH506BZR9N6KEO1","","43.30000001192093","img/food3.png","75","47.69999998807907","75","1",""
"","html-keyboard-response","105","42993","0.0-105.0","3C44YUNSI2B81SMPRC73J0A218ZDPB","A3AU8PZ6HHBCVT","39WSF6KUV27TMEQUH506BZR9N6KEO1","","null","<img src=""img/food3.png"" style=""width:200px; border:14px solid green;"">","null","","","",""
"","image-keyboard-response","106","43011","0.0-106.0","3C44YUNSI2B81SMPRC73J0A218ZDPB","A3AU8PZ6HHBCVT","39WSF6KUV27TMEQUH506BZR9N6KEO1","","15","img/food3.png","75","17.69999998807907","75","0",""
"","html-keyboard-response","107","43315","0.0-107.0","3C44YUNSI2B81SMPRC73J0A218ZDPB","A3AU8PZ6HHBCVT","39WSF6KUV27TMEQUH506BZR9N6KEO1","","null","<img src=""img/food3.png"" style=""width:200px;border:14px solid red;"">","null","","","",""
"","image-keyboard-response","108","43346","0.0-108.0","3C44YUNSI2B81SMPRC73J0A218ZDPB","A3AU8PZ6HHBCVT","39WSF6KUV27TMEQUH506BZR9N6KEO1","","24.900000005960464","img/food3.png","75","29.900000005960464","75","1",""
"","html-keyboard-response","109","43653","0.0-109.0","3C44YUNSI2B81SMPRC73J0A218ZDPB","A3AU8PZ6HHBCVT","39WSF6KUV27TMEQUH506BZR9N6KEO1","","null","<img src=""img/food3.png"" style=""width:200px; border:14px solid green;"">","null","","","",""
"","image-keyboard-response","110","43669","0.0-110.0","3C44YUNSI2B81SMPRC73J0A218ZDPB","A3AU8PZ6HHBCVT","39WSF6KUV27TMEQUH506BZR9N6KEO1","","11.5","img/food5.png","74","15.5","74","1",""
"","html-keyboard-response","111","43973","0.0-111.0","3C44YUNSI2B81SMPRC73J0A218ZDPB","A3AU8PZ6HHBCVT","39WSF6KUV27TMEQUH506BZR9N6KEO1","","null","<img src=""img/food5.png"" style=""width:200px; border:14px solid green;"">","null","","","",""
"","image-keyboard-response","112","44021","0.0-112.0","3C44YUNSI2B81SMPRC73J0A218ZDPB","A3AU8PZ6HHBCVT","39WSF6KUV27TMEQUH506BZR9N6KEO1","","40.900000005960464","img/food3.png","75","46.599999994039536","75","0",""
"","html-keyboard-response","113","44330","0.0-113.0","3C44YUNSI2B81SMPRC73J0A218ZDPB","A3AU8PZ6HHBCVT","39WSF6KUV27TMEQUH506BZR9N6KEO1","","null","<img src=""img/food3.png"" style=""width:200px;border:14px solid red;"">","null","","","",""
"","image-keyboard-response","114","44354","0.0-114.0","3C44YUNSI2B81SMPRC73J0A218ZDPB","A3AU8PZ6HHBCVT","39WSF6KUV27TMEQUH506BZR9N6KEO1","","18.900000005960464","img/food1.png","74","23","74","1",""
"","html-keyboard-response","115","44659","0.0-115.0","3C44YUNSI2B81SMPRC73J0A218ZDPB","A3AU8PZ6HHBCVT","39WSF6KUV27TMEQUH506BZR9N6KEO1","","null","<img src=""img/food1.png"" style=""width:200px; border:14px solid green;"">","null","","","",""
"","image-keyboard-response","116","44738","0.0-116.0","3C44YUNSI2B81SMPRC73J0A218ZDPB","A3AU8PZ6HHBCVT","39WSF6KUV27TMEQUH506BZR9N6KEO1","","70.19999998807907","img/food3.png","76","77.2000000178814","76","0",""
"","html-keyboard-response","117","45044","0.0-117.0","3C44YUNSI2B81SMPRC73J0A218ZDPB","A3AU8PZ6HHBCVT","39WSF6KUV27TMEQUH506BZR9N6KEO1","","null","<img src=""img/food3.png"" style=""width:200px;border:14px solid red;"">","null","","","",""
"","image-keyboard-response","118","45069","0.0-118.0","3C44YUNSI2B81SMPRC73J0A218ZDPB","A3AU8PZ6HHBCVT","39WSF6KUV27TMEQUH506BZR9N6KEO1","","19.600000023841858","img/food3.png","74","24.19999998807907","74","1",""
"","html-keyboard-response","119","45374","0.0-119.0","3C44YUNSI2B81SMPRC73J0A218ZDPB","A3AU8PZ6HHBCVT","39WSF6KUV27TMEQUH506BZR9N6KEO1","","null","<img src=""img/food3.png"" style=""width:200px; border:14px solid green;"">","null","","","",""
"","image-keyboard-response","120","45468","0.0-120.0","3C44YUNSI2B81SMPRC73J0A218ZDPB","A3AU8PZ6HHBCVT","39WSF6KUV27TMEQUH506BZR9N6KEO1","","86.19999998807907","img/food5.png","75","91.90000000596046","75","1",""
"","html-keyboard-response","121","45774","0.0-121.0","3C44YUNSI2B81SMPRC73J0A218ZDPB","A3AU8PZ6HHBCVT","39WSF6KUV27TMEQUH506BZR9N6KEO1","","null","<img src=""img/food5.png"" style=""width:200px; border:14px solid green;"">","null","","","",""
"","image-keyboard-response","122","45779","0.0-122.0","3C44YUNSI2B81SMPRC73J0A218ZDPB","A3AU8PZ6HHBCVT","39WSF6KUV27TMEQUH506BZR9N6KEO1","","0.4000000059604645","img/food5.png","74","4.4000000059604645","74","0",""
"","html-keyboard-response","123","46086","0.0-123.0","3C44YUNSI2B81SMPRC73J0A218ZDPB","A3AU8PZ6HHBCVT","39WSF6KUV27TMEQUH506BZR9N6KEO1","","null","<img src=""img/food5.png"" style=""width:200px;border:14px solid red;"">","null","","","",""
"","image-keyboard-response","124","46103","0.0-124.0","3C44YUNSI2B81SMPRC73J0A218ZDPB","A3AU8PZ6HHBCVT","39WSF6KUV27TMEQUH506BZR9N6KEO1","","12.900000005960464","img/food5.png","74","16.399999976158142","74","1",""
"","html-keyboard-response","125","46408","0.0-125.0","3C44YUNSI2B81SMPRC73J0A218ZDPB","A3AU8PZ6HHBCVT","39WSF6KUV27TMEQUH506BZR9N6KEO1","","null","<img src=""img/food5.png"" style=""width:200px; border:14px solid green;"">","null","","","",""
"","image-keyboard-response","126","46661","0.0-126.0","3C44YUNSI2B81SMPRC73J0A218ZDPB","A3AU8PZ6HHBCVT","39WSF6KUV27TMEQUH506BZR9N6KEO1","","250.2999999821186","img/food5.png","74","253.30000001192093","74","0",""
"","html-keyboard-response","127","46966","0.0-127.0","3C44YUNSI2B81SMPRC73J0A218ZDPB","A3AU8PZ6HHBCVT","39WSF6KUV27TMEQUH506BZR9N6KEO1","","null","<img src=""img/food5.png"" style=""width:200px;border:14px solid red;"">","null","","","",""
"","image-keyboard-response","128","46972","0.0-128.0","3C44YUNSI2B81SMPRC73J0A218ZDPB","A3AU8PZ6HHBCVT","39WSF6KUV27TMEQUH506BZR9N6KEO1","","0.5999999940395355","img/food5.png","75","3.5","75","1",""
"","html-keyboard-response","129","47276","0.0-129.0","3C44YUNSI2B81SMPRC73J0A218ZDPB","A3AU8PZ6HHBCVT","39WSF6KUV27TMEQUH506BZR9N6KEO1","","null","<img src=""img/food5.png"" style=""width:200px; border:14px solid green;"">","null","","","",""
"","image-keyboard-response","130","47484","0.0-130.0","3C44YUNSI2B81SMPRC73J0A218ZDPB","A3AU8PZ6HHBCVT","39WSF6KUV27TMEQUH506BZR9N6KEO1","","203.19999998807907","img/food1.png","74","207.2999999821186","74","1",""
"","html-keyboard-response","131","47790","0.0-131.0","3C44YUNSI2B81SMPRC73J0A218ZDPB","A3AU8PZ6HHBCVT","39WSF6KUV27TMEQUH506BZR9N6KEO1","","null","<img src=""img/food1.png"" style=""width:200px; border:14px solid green;"">","null","","","",""
"","image-keyboard-response","132","47820","0.0-132.0","3C44YUNSI2B81SMPRC73J0A218ZDPB","A3AU8PZ6HHBCVT","39WSF6KUV27TMEQUH506BZR9N6KEO1","","22.900000005960464","img/food3.png","74","28.400000005960464","74","1",""
"","html-keyboard-response","133","48123","0.0-133.0","3C44YUNSI2B81SMPRC73J0A218ZDPB","A3AU8PZ6HHBCVT","39WSF6KUV27TMEQUH506BZR9N6KEO1","","null","<img src=""img/food3.png"" style=""width:200px; border:14px solid green;"">","null","","","",""
"","image-keyboard-response","134","48200","0.0-134.0","3C44YUNSI2B81SMPRC73J0A218ZDPB","A3AU8PZ6HHBCVT","39WSF6KUV27TMEQUH506BZR9N6KEO1","","71.10000002384186","img/food1.png","74","76","74","1",""
"","html-keyboard-response","135","48505","0.0-135.0","3C44YUNSI2B81SMPRC73J0A218ZDPB","A3AU8PZ6HHBCVT","39WSF6KUV27TMEQUH506BZR9N6KEO1","","null","<img src=""img/food1.png"" style=""width:200px; border:14px solid green;"">","null","","","",""
"","image-keyboard-response","136","48561","0.0-136.0","3C44YUNSI2B81SMPRC73J0A218ZDPB","A3AU8PZ6HHBCVT","39WSF6KUV27TMEQUH506BZR9N6KEO1","","52","img/food1.png","74","56.099999994039536","74","1",""
"","html-keyboard-response","137","48866","0.0-137.0","3C44YUNSI2B81SMPRC73J0A218ZDPB","A3AU8PZ6HHBCVT","39WSF6KUV27TMEQUH506BZR9N6KEO1","","null","<img src=""img/food1.png"" style=""width:200px; border:14px solid green;"">","null","","","",""
"","image-keyboard-response","138","48896","0.0-138.0","3C44YUNSI2B81SMPRC73J0A218ZDPB","A3AU8PZ6HHBCVT","39WSF6KUV27TMEQUH506BZR9N6KEO1","","24.299999982118607","img/food1.png","76","30.5","76","0",""
"","html-keyboard-response","139","49204","0.0-139.0","3C44YUNSI2B81SMPRC73J0A218ZDPB","A3AU8PZ6HHBCVT","39WSF6KUV27TMEQUH506BZR9N6KEO1","","null","<img src=""img/food1.png"" style=""width:200px;border:14px solid red;"">","null","","","",""
"","image-keyboard-response","140","49234","0.0-140.0","3C44YUNSI2B81SMPRC73J0A218ZDPB","A3AU8PZ6HHBCVT","39WSF6KUV27TMEQUH506BZR9N6KEO1","","27.099999994039536","img/food5.png","75","29.5","75","0",""
"","html-keyboard-response","141","49538","0.0-141.0","3C44YUNSI2B81SMPRC73J0A218ZDPB","A3AU8PZ6HHBCVT","39WSF6KUV27TMEQUH506BZR9N6KEO1","","null","<img src=""img/food5.png"" style=""width:200px;border:14px solid red;"">","null","","","",""
"","image-keyboard-response","142","49692","0.0-142.0","3C44YUNSI2B81SMPRC73J0A218ZDPB","A3AU8PZ6HHBCVT","39WSF6KUV27TMEQUH506BZR9N6KEO1","","148.59999999403954","img/food1.png","76","153.09999999403954","76","0",""
"","html-keyboard-response","143","49997","0.0-143.0","3C44YUNSI2B81SMPRC73J0A218ZDPB","A3AU8PZ6HHBCVT","39WSF6KUV27TMEQUH506BZR9N6KEO1","","null","<img src=""img/food1.png"" style=""width:200px;border:14px solid red;"">","null","","","",""
"","image-keyboard-response","144","50048","0.0-144.0","3C44YUNSI2B81SMPRC73J0A218ZDPB","A3AU8PZ6HHBCVT","39WSF6KUV27TMEQUH506BZR9N6KEO1","","44.30000001192093","img/food3.png","74","50.29999998211861","74","1",""
"","html-keyboard-response","145","50353","0.0-145.0","3C44YUNSI2B81SMPRC73J0A218ZDPB","A3AU8PZ6HHBCVT","39WSF6KUV27TMEQUH506BZR9N6KEO1","","null","<img src=""img/food3.png"" style=""width:200px; border:14px solid green;"">","null","","","",""
"","image-keyboard-response","146","50499","0.0-146.0","3C44YUNSI2B81SMPRC73J0A218ZDPB","A3AU8PZ6HHBCVT","39WSF6KUV27TMEQUH506BZR9N6KEO1","","142","img/food1.png","74","145.7999999821186","74","1",""
"","html-keyboard-response","147","50804","0.0-147.0","3C44YUNSI2B81SMPRC73J0A218ZDPB","A3AU8PZ6HHBCVT","39WSF6KUV27TMEQUH506BZR9N6KEO1","","null","<img src=""img/food1.png"" style=""width:200px; border:14px solid green;"">","null","","","",""
"","image-keyboard-response","148","50840","0.0-148.0","3C44YUNSI2B81SMPRC73J0A218ZDPB","A3AU8PZ6HHBCVT","39WSF6KUV27TMEQUH506BZR9N6KEO1","","33","img/food1.png","76","36.099999994039536","76","1",""
"","html-keyboard-response","149","51145","0.0-149.0","3C44YUNSI2B81SMPRC73J0A218ZDPB","A3AU8PZ6HHBCVT","39WSF6KUV27TMEQUH506BZR9N6KEO1","","null","<img src=""img/food1.png"" style=""width:200px; border:14px solid green;"">","null","","","",""
"","image-keyboard-response","150","51202","0.0-150.0","3C44YUNSI2B81SMPRC73J0A218ZDPB","A3AU8PZ6HHBCVT","39WSF6KUV27TMEQUH506BZR9N6KEO1","","50.80000001192093","img/food5.png","74","55.599999994039536","74","1",""
"","html-keyboard-response","151","51506","0.0-151.0","3C44YUNSI2B81SMPRC73J0A218ZDPB","A3AU8PZ6HHBCVT","39WSF6KUV27TMEQUH506BZR9N6KEO1","","null","<img src=""img/food5.png"" style=""width:200px; border:14px solid green;"">","null","","","",""
"","image-keyboard-response","152","51565","0.0-152.0","3C44YUNSI2B81SMPRC73J0A218ZDPB","A3AU8PZ6HHBCVT","39WSF6KUV27TMEQUH506BZR9N6KEO1","","50.900000005960464","img/food5.png","74","57.400000005960464","74","1",""
"","html-keyboard-response","153","51871","0.0-153.0","3C44YUNSI2B81SMPRC73J0A218ZDPB","A3AU8PZ6HHBCVT","39WSF6KUV27TMEQUH506BZR9N6KEO1","","null","<img src=""img/food5.png"" style=""width:200px; border:14px solid green;"">","null","","","",""
"","image-keyboard-response","154","51923","0.0-154.0","3C44YUNSI2B81SMPRC73J0A218ZDPB","A3AU8PZ6HHBCVT","39WSF6KUV27TMEQUH506BZR9N6KEO1","","43.5","img/food3.png","74","49.69999998807907","74","1",""
"","html-keyboard-response","155","52228","0.0-155.0","3C44YUNSI2B81SMPRC73J0A218ZDPB","A3AU8PZ6HHBCVT","39WSF6KUV27TMEQUH506BZR9N6KEO1","","null","<img src=""img/food3.png"" style=""width:200px; border:14px solid green;"">","null","","","",""
"","image-keyboard-response","156","52290","0.0-156.0","3C44YUNSI2B81SMPRC73J0A218ZDPB","A3AU8PZ6HHBCVT","39WSF6KUV27TMEQUH506BZR9N6KEO1","","55","img/food3.png","75","61.400000005960464","75","0",""
"","html-keyboard-response","157","52596","0.0-157.0","3C44YUNSI2B81SMPRC73J0A218ZDPB","A3AU8PZ6HHBCVT","39WSF6KUV27TMEQUH506BZR9N6KEO1","","null","<img src=""img/food3.png"" style=""width:200px;border:14px solid red;"">","null","","","",""
"","image-keyboard-response","158","52632","0.0-158.0","3C44YUNSI2B81SMPRC73J0A218ZDPB","A3AU8PZ6HHBCVT","39WSF6KUV27TMEQUH506BZR9N6KEO1","","28.69999998807907","img/food3.png","75","34.5","75","1",""
"","html-keyboard-response","159","52936","0.0-159.0","3C44YUNSI2B81SMPRC73J0A218ZDPB","A3AU8PZ6HHBCVT","39WSF6KUV27TMEQUH506BZR9N6KEO1","","null","<img src=""img/food3.png"" style=""width:200px; border:14px solid green;"">","null","","","",""
"","image-keyboard-response","160","53023","0.0-160.0","3C44YUNSI2B81SMPRC73J0A218ZDPB","A3AU8PZ6HHBCVT","39WSF6KUV27TMEQUH506BZR9N6KEO1","","78.30000001192093","img/food3.png","74","85.5","74","1",""
"","html-keyboard-response","161","53330","0.0-161.0","3C44YUNSI2B81SMPRC73J0A218ZDPB","A3AU8PZ6HHBCVT","39WSF6KUV27TMEQUH506BZR9N6KEO1","","null","<img src=""img/food3.png"" style=""width:200px; border:14px solid green;"">","null","","","",""
"","image-keyboard-response","162","53339","0.0-162.0","3C44YUNSI2B81SMPRC73J0A218ZDPB","A3AU8PZ6HHBCVT","39WSF6KUV27TMEQUH506BZR9N6KEO1","","1","img/food5.png","74","8","74","0",""
"","html-keyboard-response","163","53642","0.0-163.0","3C44YUNSI2B81SMPRC73J0A218ZDPB","A3AU8PZ6HHBCVT","39WSF6KUV27TMEQUH506BZR9N6KEO1","","null","<img src=""img/food5.png"" style=""width:200px;border:14px solid red;"">","null","","","",""
"","image-keyboard-response","164","53696","0.0-164.0","3C44YUNSI2B81SMPRC73J0A218ZDPB","A3AU8PZ6HHBCVT","39WSF6KUV27TMEQUH506BZR9N6KEO1","","49.70000001788139","img/food1.png","74","53.30000001192093","74","1",""
"","html-keyboard-response","165","54003","0.0-165.0","3C44YUNSI2B81SMPRC73J0A218ZDPB","A3AU8PZ6HHBCVT","39WSF6KUV27TMEQUH506BZR9N6KEO1","","null","<img src=""img/food1.png"" style=""width:200px; border:14px solid green;"">","null","","","",""
"","image-keyboard-response","166","54069","0.0-166.0","3C44YUNSI2B81SMPRC73J0A218ZDPB","A3AU8PZ6HHBCVT","39WSF6KUV27TMEQUH506BZR9N6KEO1","","59.900000005960464","img/food5.png","74","66","74","1",""
"","html-keyboard-response","167","54378","0.0-167.0","3C44YUNSI2B81SMPRC73J0A218ZDPB","A3AU8PZ6HHBCVT","39WSF6KUV27TMEQUH506BZR9N6KEO1","","null","<img src=""img/food5.png"" style=""width:200px; border:14px solid green;"">","null","","","",""
"","image-keyboard-response","168","54388","0.0-168.0","3C44YUNSI2B81SMPRC73J0A218ZDPB","A3AU8PZ6HHBCVT","39WSF6KUV27TMEQUH506BZR9N6KEO1","","0.9000000059604645","img/food1.png","76","5.0999999940395355","76","0",""
"","html-keyboard-response","169","54691","0.0-169.0","3C44YUNSI2B81SMPRC73J0A218ZDPB","A3AU8PZ6HHBCVT","39WSF6KUV27TMEQUH506BZR9N6KEO1","","null","<img src=""img/food1.png"" style=""width:200px;border:14px solid red;"">","null","","","",""
"","image-keyboard-response","170","54756","0.0-170.0","3C44YUNSI2B81SMPRC73J0A218ZDPB","A3AU8PZ6HHBCVT","39WSF6KUV27TMEQUH506BZR9N6KEO1","","58","img/food1.png","75","62.099999994039536","75","0",""
"","html-keyboard-response","171","55061","0.0-171.0","3C44YUNSI2B81SMPRC73J0A218ZDPB","A3AU8PZ6HHBCVT","39WSF6KUV27TMEQUH506BZR9N6KEO1","","null","<img src=""img/food1.png"" style=""width:200px;border:14px solid red;"">","null","","","",""
"","image-keyboard-response","172","55089","0.0-172.0","3C44YUNSI2B81SMPRC73J0A218ZDPB","A3AU8PZ6HHBCVT","39WSF6KUV27TMEQUH506BZR9N6KEO1","","24.5","img/food5.png","76","27","76","0",""
"","html-keyboard-response","173","55394","0.0-173.0","3C44YUNSI2B81SMPRC73J0A218ZDPB","A3AU8PZ6HHBCVT","39WSF6KUV27TMEQUH506BZR9N6KEO1","","null","<img src=""img/food5.png"" style=""width:200px;border:14px solid red;"">","null","","","",""
"","image-keyboard-response","174","55498","0.0-174.0","3C44YUNSI2B81SMPRC73J0A218ZDPB","A3AU8PZ6HHBCVT","39WSF6KUV27TMEQUH506BZR9N6KEO1","","93.59999999403954","img/food5.png","75","101.5","75","0",""
"","html-keyboard-response","175","55804","0.0-175.0","3C44YUNSI2B81SMPRC73J0A218ZDPB","A3AU8PZ6HHBCVT","39WSF6KUV27TMEQUH506BZR9N6KEO1","","null","<img src=""img/food5.png"" style=""width:200px;border:14px solid red;"">","null","","","",""
"","image-keyboard-response","176","55851","0.0-176.0","3C44YUNSI2B81SMPRC73J0A218ZDPB","A3AU8PZ6HHBCVT","39WSF6KUV27TMEQUH506BZR9N6KEO1","","39.70000001788139","img/food5.png","74","46.900000005960464","74","0",""
"","html-keyboard-response","177","56159","0.0-177.0","3C44YUNSI2B81SMPRC73J0A218ZDPB","A3AU8PZ6HHBCVT","39WSF6KUV27TMEQUH506BZR9N6KEO1","","null","<img src=""img/food5.png"" style=""width:200px;border:14px solid red;"">","null","","","",""
"","image-keyboard-response","178","56228","0.0-178.0","3C44YUNSI2B81SMPRC73J0A218ZDPB","A3AU8PZ6HHBCVT","39WSF6KUV27TMEQUH506BZR9N6KEO1","","65.89999997615814","img/food3.png","75","69.19999998807907","75","1",""
"","html-keyboard-response","179","56533","0.0-179.0","3C44YUNSI2B81SMPRC73J0A218ZDPB","A3AU8PZ6HHBCVT","39WSF6KUV27TMEQUH506BZR9N6KEO1","","null","<img src=""img/food3.png"" style=""width:200px; border:14px solid green;"">","null","","","",""
"","image-keyboard-response","180","56565","0.0-180.0","3C44YUNSI2B81SMPRC73J0A218ZDPB","A3AU8PZ6HHBCVT","39WSF6KUV27TMEQUH506BZR9N6KEO1","","27.900000005960464","img/food5.png","75","32.19999998807907","75","1",""
"","html-keyboard-response","181","56871","0.0-181.0","3C44YUNSI2B81SMPRC73J0A218ZDPB","A3AU8PZ6HHBCVT","39WSF6KUV27TMEQUH506BZR9N6KEO1","","null","<img src=""img/food5.png"" style=""width:200px; border:14px solid green;"">","null","","","",""
"","html-keyboard-response","182","60493","0.0-182.0","3C44YUNSI2B81SMPRC73J0A218ZDPB","A3AU8PZ6HHBCVT","39WSF6KUV27TMEQUH506BZR9N6KEO1","","","","","","","",""
"","image-keyboard-response","183","63697","0.0-183.0","3C44YUNSI2B81SMPRC73J0A218ZDPB","A3AU8PZ6HHBCVT","39WSF6KUV27TMEQUH506BZR9N6KEO1","","3196.7000000178814","img/food6.png","76","3203.2999999821186","76","1",""
"","html-keyboard-response","184","64004","0.0-184.0","3C44YUNSI2B81SMPRC73J0A218ZDPB","A3AU8PZ6HHBCVT","39WSF6KUV27TMEQUH506BZR9N6KEO1","","null","<img src=""img/food6.png"" style=""width:200px; border:14px solid green;"">","null","","","",""
"","image-keyboard-response","185","64544","0.0-185.0","3C44YUNSI2B81SMPRC73J0A218ZDPB","A3AU8PZ6HHBCVT","39WSF6KUV27TMEQUH506BZR9N6KEO1","","535.9000000059605","img/food4.png","75","541.4000000059605","75","0",""
"","html-keyboard-response","186","64853","0.0-186.0","3C44YUNSI2B81SMPRC73J0A218ZDPB","A3AU8PZ6HHBCVT","39WSF6KUV27TMEQUH506BZR9N6KEO1","","null","<img src=""img/food4.png"" style=""width:200px;border:14px solid red;"">","null","","","",""
"","image-keyboard-response","187","66460","0.0-187.0","3C44YUNSI2B81SMPRC73J0A218ZDPB","A3AU8PZ6HHBCVT","39WSF6KUV27TMEQUH506BZR9N6KEO1","","1598","img/food2.png","74","1605","74","0",""
"","html-keyboard-response","188","66768","0.0-188.0","3C44YUNSI2B81SMPRC73J0A218ZDPB","A3AU8PZ6HHBCVT","39WSF6KUV27TMEQUH506BZR9N6KEO1","","null","<img src=""img/food2.png"" style=""width:200px;border:14px solid red;"">","null","","","",""
"","image-keyboard-response","189","67459","0.0-189.0","3C44YUNSI2B81SMPRC73J0A218ZDPB","A3AU8PZ6HHBCVT","39WSF6KUV27TMEQUH506BZR9N6KEO1","","685.2000000178814","img/food6.png","76","688.3000000119209","76","1",""
"","html-keyboard-response","190","67764","0.0-190.0","3C44YUNSI2B81SMPRC73J0A218ZDPB","A3AU8PZ6HHBCVT","39WSF6KUV27TMEQUH506BZR9N6KEO1","","null","<img src=""img/food6.png"" style=""width:200px; border:14px solid green;"">","null","","","",""
"","image-keyboard-response","191","68964","0.0-191.0","3C44YUNSI2B81SMPRC73J0A218ZDPB","A3AU8PZ6HHBCVT","39WSF6KUV27TMEQUH506BZR9N6KEO1","","1193.9000000059605","img/food4.png","74","1198","74","0",""
"","html-keyboard-response","192","69269","0.0-192.0","3C44YUNSI2B81SMPRC73J0A218ZDPB","A3AU8PZ6HHBCVT","39WSF6KUV27TMEQUH506BZR9N6KEO1","","null","<img src=""img/food4.png"" style=""width:200px;border:14px solid red;"">","null","","","",""
"","image-keyboard-response","193","69944","0.0-193.0","3C44YUNSI2B81SMPRC73J0A218ZDPB","A3AU8PZ6HHBCVT","39WSF6KUV27TMEQUH506BZR9N6KEO1","","666.4000000059605","img/food6.png","76","672.5","76","1",""
"","html-keyboard-response","194","70252","0.0-194.0","3C44YUNSI2B81SMPRC73J0A218ZDPB","A3AU8PZ6HHBCVT","39WSF6KUV27TMEQUH506BZR9N6KEO1","","null","<img src=""img/food6.png"" style=""width:200px; border:14px solid green;"">","null","","","",""
"","image-keyboard-response","195","71261","0.0-195.0","3C44YUNSI2B81SMPRC73J0A218ZDPB","A3AU8PZ6HHBCVT","39WSF6KUV27TMEQUH506BZR9N6KEO1","","1001.5999999940395","img/food2.png","74","1011.8000000119209","74","1",""
"","html-keyboard-response","196","71570","0.0-196.0","3C44YUNSI2B81SMPRC73J0A218ZDPB","A3AU8PZ6HHBCVT","39WSF6KUV27TMEQUH506BZR9N6KEO1","","null","<img src=""img/food2.png"" style=""width:200px; border:14px solid green;"">","null","","","",""
"","image-keyboard-response","197","72752","0.0-197.0","3C44YUNSI2B81SMPRC73J0A218ZDPB","A3AU8PZ6HHBCVT","39WSF6KUV27TMEQUH506BZR9N6KEO1","","1174.699999988079","img/food2.png","74","1180.4000000059605","74","1",""
"","html-keyboard-response","198","73058","0.0-198.0","3C44YUNSI2B81SMPRC73J0A218ZDPB","A3AU8PZ6HHBCVT","39WSF6KUV27TMEQUH506BZR9N6KEO1","","null","<img src=""img/food2.png"" style=""width:200px; border:14px solid green;"">","null","","","",""
"","image-keyboard-response","199","73762","0.0-199.0","3C44YUNSI2B81SMPRC73J0A218ZDPB","A3AU8PZ6HHBCVT","39WSF6KUV27TMEQUH506BZR9N6KEO1","","699.7000000178814","img/food2.png","74","703.0999999940395","74","0",""
"","html-keyboard-response","200","74067","0.0-200.0","3C44YUNSI2B81SMPRC73J0A218ZDPB","A3AU8PZ6HHBCVT","39WSF6KUV27TMEQUH506BZR9N6KEO1","","null","<img src=""img/food2.png"" style=""width:200px;border:14px solid red;"">","null","","","",""
"","image-keyboard-response","201","74845","0.0-201.0","3C44YUNSI2B81SMPRC73J0A218ZDPB","A3AU8PZ6HHBCVT","39WSF6KUV27TMEQUH506BZR9N6KEO1","","771.5","img/food2.png","74","777.2999999821186","74","0",""
"","html-keyboard-response","202","75150","0.0-202.0","3C44YUNSI2B81SMPRC73J0A218ZDPB","A3AU8PZ6HHBCVT","39WSF6KUV27TMEQUH506BZR9N6KEO1","","null","<img src=""img/food2.png"" style=""width:200px;border:14px solid red;"">","null","","","",""
"","image-keyboard-response","203","76152","0.0-203.0","3C44YUNSI2B81SMPRC73J0A218ZDPB","A3AU8PZ6HHBCVT","39WSF6KUV27TMEQUH506BZR9N6KEO1","","998.5999999940395","img/food4.png","75","1002.1999999880791","75","0",""
"","html-keyboard-response","204","76458","0.0-204.0","3C44YUNSI2B81SMPRC73J0A218ZDPB","A3AU8PZ6HHBCVT","39WSF6KUV27TMEQUH506BZR9N6KEO1","","null","<img src=""img/food4.png"" style=""width:200px;border:14px solid red;"">","null","","","",""
"","image-keyboard-response","205","77234","0.0-205.0","3C44YUNSI2B81SMPRC73J0A218ZDPB","A3AU8PZ6HHBCVT","39WSF6KUV27TMEQUH506BZR9N6KEO1","","768.9000000059605","img/food2.png","74","774.9000000059605","74","0",""
"","html-keyboard-response","206","77543","0.0-206.0","3C44YUNSI2B81SMPRC73J0A218ZDPB","A3AU8PZ6HHBCVT","39WSF6KUV27TMEQUH506BZR9N6KEO1","","null","<img src=""img/food2.png"" style=""width:200px;border:14px solid red;"">","null","","","",""
"","image-keyboard-response","207","77609","0.0-207.0","3C44YUNSI2B81SMPRC73J0A218ZDPB","A3AU8PZ6HHBCVT","39WSF6KUV27TMEQUH506BZR9N6KEO1","","60.599999994039536","img/food2.png","74","65.09999999403954","74","1",""
"","html-keyboard-response","208","77918","0.0-208.0","3C44YUNSI2B81SMPRC73J0A218ZDPB","A3AU8PZ6HHBCVT","39WSF6KUV27TMEQUH506BZR9N6KEO1","","null","<img src=""img/food2.png"" style=""width:200px; border:14px solid green;"">","null","","","",""
"","image-keyboard-response","209","78529","0.0-209.0","3C44YUNSI2B81SMPRC73J0A218ZDPB","A3AU8PZ6HHBCVT","39WSF6KUV27TMEQUH506BZR9N6KEO1","","607","img/food4.png","75","610.9000000059605","75","1",""
"","html-keyboard-response","210","78835","0.0-210.0","3C44YUNSI2B81SMPRC73J0A218ZDPB","A3AU8PZ6HHBCVT","39WSF6KUV27TMEQUH506BZR9N6KEO1","","null","<img src=""img/food4.png"" style=""width:200px; border:14px solid green;"">","null","","","",""
"","image-keyboard-response","211","79579","0.0-211.0","3C44YUNSI2B81SMPRC73J0A218ZDPB","A3AU8PZ6HHBCVT","39WSF6KUV27TMEQUH506BZR9N6KEO1","","737.3000000119209","img/food2.png","74","742.2000000178814","74","1",""
"","html-keyboard-response","212","79886","0.0-212.0","3C44YUNSI2B81SMPRC73J0A218ZDPB","A3AU8PZ6HHBCVT","39WSF6KUV27TMEQUH506BZR9N6KEO1","","null","<img src=""img/food2.png"" style=""width:200px; border:14px solid green;"">","null","","","",""
"","image-keyboard-response","213","80632","0.0-213.0","3C44YUNSI2B81SMPRC73J0A218ZDPB","A3AU8PZ6HHBCVT","39WSF6KUV27TMEQUH506BZR9N6KEO1","","739","img/food4.png","75","744.5","75","0",""
"","html-keyboard-response","214","80939","0.0-214.0","3C44YUNSI2B81SMPRC73J0A218ZDPB","A3AU8PZ6HHBCVT","39WSF6KUV27TMEQUH506BZR9N6KEO1","","null","<img src=""img/food4.png"" style=""width:200px;border:14px solid red;"">","null","","","",""
"","image-keyboard-response","215","81309","0.0-215.0","3C44YUNSI2B81SMPRC73J0A218ZDPB","A3AU8PZ6HHBCVT","39WSF6KUV27TMEQUH506BZR9N6KEO1","","365.2000000178814","img/food4.png","75","369.7999999821186","75","1",""
"","html-keyboard-response","216","81616","0.0-216.0","3C44YUNSI2B81SMPRC73J0A218ZDPB","A3AU8PZ6HHBCVT","39WSF6KUV27TMEQUH506BZR9N6KEO1","","null","<img src=""img/food4.png"" style=""width:200px; border:14px solid green;"">","null","","","",""
"","image-keyboard-response","217","81945","0.0-217.0","3C44YUNSI2B81SMPRC73J0A218ZDPB","A3AU8PZ6HHBCVT","39WSF6KUV27TMEQUH506BZR9N6KEO1","","322.39999997615814","img/food4.png","75","328.30000001192093","75","1",""
"","html-keyboard-response","218","82255","0.0-218.0","3C44YUNSI2B81SMPRC73J0A218ZDPB","A3AU8PZ6HHBCVT","39WSF6KUV27TMEQUH506BZR9N6KEO1","","null","<img src=""img/food4.png"" style=""width:200px; border:14px solid green;"">","null","","","",""
"","image-keyboard-response","219","82562","0.0-219.0","3C44YUNSI2B81SMPRC73J0A218ZDPB","A3AU8PZ6HHBCVT","39WSF6KUV27TMEQUH506BZR9N6KEO1","","302.5","img/food4.png","75","306.90000000596046","75","1",""
"","html-keyboard-response","220","82871","0.0-220.0","3C44YUNSI2B81SMPRC73J0A218ZDPB","A3AU8PZ6HHBCVT","39WSF6KUV27TMEQUH506BZR9N6KEO1","","null","<img src=""img/food4.png"" style=""width:200px; border:14px solid green;"">","null","","","",""
"","image-keyboard-response","221","83445","0.0-221.0","3C44YUNSI2B81SMPRC73J0A218ZDPB","A3AU8PZ6HHBCVT","39WSF6KUV27TMEQUH506BZR9N6KEO1","","564.8000000119209","img/food6.png","76","573.5","76","1",""
"","html-keyboard-response","222","83753","0.0-222.0","3C44YUNSI2B81SMPRC73J0A218ZDPB","A3AU8PZ6HHBCVT","39WSF6KUV27TMEQUH506BZR9N6KEO1","","null","<img src=""img/food6.png"" style=""width:200px; border:14px solid green;"">","null","","","",""
"","image-keyboard-response","223","84466","0.0-223.0","3C44YUNSI2B81SMPRC73J0A218ZDPB","A3AU8PZ6HHBCVT","39WSF6KUV27TMEQUH506BZR9N6KEO1","","705.0999999940395","img/food4.png","75","709.6999999880791","75","0",""
"","html-keyboard-response","224","84769","0.0-224.0","3C44YUNSI2B81SMPRC73J0A218ZDPB","A3AU8PZ6HHBCVT","39WSF6KUV27TMEQUH506BZR9N6KEO1","","null","<img src=""img/food4.png"" style=""width:200px;border:14px solid red;"">","null","","","",""
"","image-keyboard-response","225","85030","0.0-225.0","3C44YUNSI2B81SMPRC73J0A218ZDPB","A3AU8PZ6HHBCVT","39WSF6KUV27TMEQUH506BZR9N6KEO1","","252.7999999821186","img/food4.png","75","259.2000000178814","75","1",""
"","html-keyboard-response","226","85338","0.0-226.0","3C44YUNSI2B81SMPRC73J0A218ZDPB","A3AU8PZ6HHBCVT","39WSF6KUV27TMEQUH506BZR9N6KEO1","","null","<img src=""img/food4.png"" style=""width:200px; border:14px solid green;"">","null","","","",""
"","image-keyboard-response","227","86001","0.0-227.0","3C44YUNSI2B81SMPRC73J0A218ZDPB","A3AU8PZ6HHBCVT","39WSF6KUV27TMEQUH506BZR9N6KEO1","","655","img/food6.png","76","660.5","76","1",""
"","html-keyboard-response","228","86306","0.0-228.0","3C44YUNSI2B81SMPRC73J0A218ZDPB","A3AU8PZ6HHBCVT","39WSF6KUV27TMEQUH506BZR9N6KEO1","","null","<img src=""img/food6.png"" style=""width:200px; border:14px solid green;"">","null","","","",""
"","image-keyboard-response","229","86613","0.0-229.0","3C44YUNSI2B81SMPRC73J0A218ZDPB","A3AU8PZ6HHBCVT","39WSF6KUV27TMEQUH506BZR9N6KEO1","","300.40000000596046","img/food6.png","76","306","76","1",""
"","html-keyboard-response","230","86919","0.0-230.0","3C44YUNSI2B81SMPRC73J0A218ZDPB","A3AU8PZ6HHBCVT","39WSF6KUV27TMEQUH506BZR9N6KEO1","","null","<img src=""img/food6.png"" style=""width:200px; border:14px solid green;"">","null","","","",""
"","image-keyboard-response","231","87439","0.0-231.0","3C44YUNSI2B81SMPRC73J0A218ZDPB","A3AU8PZ6HHBCVT","39WSF6KUV27TMEQUH506BZR9N6KEO1","","514","img/food4.png","75","519.5","75","1",""
"","html-keyboard-response","232","87744","0.0-232.0","3C44YUNSI2B81SMPRC73J0A218ZDPB","A3AU8PZ6HHBCVT","39WSF6KUV27TMEQUH506BZR9N6KEO1","","null","<img src=""img/food4.png"" style=""width:200px; border:14px solid green;"">","null","","","",""
"","image-keyboard-response","233","88428","0.0-233.0","3C44YUNSI2B81SMPRC73J0A218ZDPB","A3AU8PZ6HHBCVT","39WSF6KUV27TMEQUH506BZR9N6KEO1","","676.9000000059605","img/food6.png","76","682.5","76","0",""
"","html-keyboard-response","234","88733","0.0-234.0","3C44YUNSI2B81SMPRC73J0A218ZDPB","A3AU8PZ6HHBCVT","39WSF6KUV27TMEQUH506BZR9N6KEO1","","null","<img src=""img/food6.png"" style=""width:200px;border:14px solid red;"">","null","","","",""
"","image-keyboard-response","235","89176","0.0-235.0","3C44YUNSI2B81SMPRC73J0A218ZDPB","A3AU8PZ6HHBCVT","39WSF6KUV27TMEQUH506BZR9N6KEO1","","436.09999999403954","img/food6.png","76","440.80000001192093","76","1",""
"","html-keyboard-response","236","89480","0.0-236.0","3C44YUNSI2B81SMPRC73J0A218ZDPB","A3AU8PZ6HHBCVT","39WSF6KUV27TMEQUH506BZR9N6KEO1","","null","<img src=""img/food6.png"" style=""width:200px; border:14px solid green;"">","null","","","",""
"","image-keyboard-response","237","90145","0.0-237.0","3C44YUNSI2B81SMPRC73J0A218ZDPB","A3AU8PZ6HHBCVT","39WSF6KUV27TMEQUH506BZR9N6KEO1","","659.7000000178814","img/food2.png","74","664.5999999940395","74","1",""
"","html-keyboard-response","238","90452","0.0-238.0","3C44YUNSI2B81SMPRC73J0A218ZDPB","A3AU8PZ6HHBCVT","39WSF6KUV27TMEQUH506BZR9N6KEO1","","null","<img src=""img/food2.png"" style=""width:200px; border:14px solid green;"">","null","","","",""
"","image-keyboard-response","239","91069","0.0-239.0","3C44YUNSI2B81SMPRC73J0A218ZDPB","A3AU8PZ6HHBCVT","39WSF6KUV27TMEQUH506BZR9N6KEO1","","610.2000000178814","img/food6.png","76","614","76","1",""
"","html-keyboard-response","240","91377","0.0-240.0","3C44YUNSI2B81SMPRC73J0A218ZDPB","A3AU8PZ6HHBCVT","39WSF6KUV27TMEQUH506BZR9N6KEO1","","null","<img src=""img/food6.png"" style=""width:200px; border:14px solid green;"">","null","","","",""
"","image-keyboard-response","241","91908","0.0-241.0","3C44YUNSI2B81SMPRC73J0A218ZDPB","A3AU8PZ6HHBCVT","39WSF6KUV27TMEQUH506BZR9N6KEO1","","525.0999999940395","img/food2.png","74","529.7999999821186","74","1",""
"","html-keyboard-response","242","92213","0.0-242.0","3C44YUNSI2B81SMPRC73J0A218ZDPB","A3AU8PZ6HHBCVT","39WSF6KUV27TMEQUH506BZR9N6KEO1","","null","<img src=""img/food2.png"" style=""width:200px; border:14px solid green;"">","null","","","",""
"","image-keyboard-response","243","92852","0.0-243.0","3C44YUNSI2B81SMPRC73J0A218ZDPB","A3AU8PZ6HHBCVT","39WSF6KUV27TMEQUH506BZR9N6KEO1","","631.0999999940395","img/food6.png","74","637.3999999761581","74","0",""
"","html-keyboard-response","244","93159","0.0-244.0","3C44YUNSI2B81SMPRC73J0A218ZDPB","A3AU8PZ6HHBCVT","39WSF6KUV27TMEQUH506BZR9N6KEO1","","null","<img src=""img/food6.png"" style=""width:200px;border:14px solid red;"">","null","","","",""
"","image-keyboard-response","245","93311","0.0-245.0","3C44YUNSI2B81SMPRC73J0A218ZDPB","A3AU8PZ6HHBCVT","39WSF6KUV27TMEQUH506BZR9N6KEO1","","148.60000002384186","img/food4.png","76","151.5","76","1",""
"","html-keyboard-response","246","93616","0.0-246.0","3C44YUNSI2B81SMPRC73J0A218ZDPB","A3AU8PZ6HHBCVT","39WSF6KUV27TMEQUH506BZR9N6KEO1","","null","<img src=""img/food4.png"" style=""width:200px; border:14px solid green;"">","null","","","",""
"","image-keyboard-response","247","94602","0.0-247.0","3C44YUNSI2B81SMPRC73J0A218ZDPB","A3AU8PZ6HHBCVT","39WSF6KUV27TMEQUH506BZR9N6KEO1","","981.8000000119209","img/food6.png","76","984.8000000119209","76","1",""
"","html-keyboard-response","248","94906","0.0-248.0","3C44YUNSI2B81SMPRC73J0A218ZDPB","A3AU8PZ6HHBCVT","39WSF6KUV27TMEQUH506BZR9N6KEO1","","null","<img src=""img/food6.png"" style=""width:200px; border:14px solid green;"">","null","","","",""
"","image-keyboard-response","249","95411","0.0-249.0","3C44YUNSI2B81SMPRC73J0A218ZDPB","A3AU8PZ6HHBCVT","39WSF6KUV27TMEQUH506BZR9N6KEO1","","498.2999999821186","img/food4.png","75","505","75","1",""
"","html-keyboard-response","250","95718","0.0-250.0","3C44YUNSI2B81SMPRC73J0A218ZDPB","A3AU8PZ6HHBCVT","39WSF6KUV27TMEQUH506BZR9N6KEO1","","null","<img src=""img/food4.png"" style=""width:200px; border:14px solid green;"">","null","","","",""
"","image-keyboard-response","251","96536","0.0-251.0","3C44YUNSI2B81SMPRC73J0A218ZDPB","A3AU8PZ6HHBCVT","39WSF6KUV27TMEQUH506BZR9N6KEO1","","811.6999999880791","img/food6.png","76","817.5","76","0",""
"","html-keyboard-response","252","96843","0.0-252.0","3C44YUNSI2B81SMPRC73J0A218ZDPB","A3AU8PZ6HHBCVT","39WSF6KUV27TMEQUH506BZR9N6KEO1","","null","<img src=""img/food6.png"" style=""width:200px;border:14px solid red;"">","null","","","",""
"","image-keyboard-response","253","97406","0.0-253.0","3C44YUNSI2B81SMPRC73J0A218ZDPB","A3AU8PZ6HHBCVT","39WSF6KUV27TMEQUH506BZR9N6KEO1","","554.1999999880791","img/food4.png","75","560.7000000178814","75","1",""
"","html-keyboard-response","254","97714","0.0-254.0","3C44YUNSI2B81SMPRC73J0A218ZDPB","A3AU8PZ6HHBCVT","39WSF6KUV27TMEQUH506BZR9N6KEO1","","null","<img src=""img/food4.png"" style=""width:200px; border:14px solid green;"">","null","","","",""
"","image-keyboard-response","255","98017","0.0-255.0","3C44YUNSI2B81SMPRC73J0A218ZDPB","A3AU8PZ6HHBCVT","39WSF6KUV27TMEQUH506BZR9N6KEO1","","295.30000001192093","img/food4.png","75","303","75","1",""
"","html-keyboard-response","256","98326","0.0-256.0","3C44YUNSI2B81SMPRC73J0A218ZDPB","A3AU8PZ6HHBCVT","39WSF6KUV27TMEQUH506BZR9N6KEO1","","null","<img src=""img/food4.png"" style=""width:200px; border:14px solid green;"">","null","","","",""
"","image-keyboard-response","257","98585","0.0-257.0","3C44YUNSI2B81SMPRC73J0A218ZDPB","A3AU8PZ6HHBCVT","39WSF6KUV27TMEQUH506BZR9N6KEO1","","252.69999998807907","img/food4.png","75","257.80000001192093","75","0",""
"","html-keyboard-response","258","98889","0.0-258.0","3C44YUNSI2B81SMPRC73J0A218ZDPB","A3AU8PZ6HHBCVT","39WSF6KUV27TMEQUH506BZR9N6KEO1","","null","<img src=""img/food4.png"" style=""width:200px;border:14px solid red;"">","null","","","",""
"","image-keyboard-response","259","99115","0.0-259.0","3C44YUNSI2B81SMPRC73J0A218ZDPB","A3AU8PZ6HHBCVT","39WSF6KUV27TMEQUH506BZR9N6KEO1","","214.5","img/food4.png","74","224","74","0",""
"","html-keyboard-response","260","99420","0.0-260.0","3C44YUNSI2B81SMPRC73J0A218ZDPB","A3AU8PZ6HHBCVT","39WSF6KUV27TMEQUH506BZR9N6KEO1","","null","<img src=""img/food4.png"" style=""width:200px;border:14px solid red;"">","null","","","",""
"","image-keyboard-response","261","100063","0.0-261.0","3C44YUNSI2B81SMPRC73J0A218ZDPB","A3AU8PZ6HHBCVT","39WSF6KUV27TMEQUH506BZR9N6KEO1","","633.8000000119209","img/food2.png","74","642","74","0",""
"","html-keyboard-response","262","100368","0.0-262.0","3C44YUNSI2B81SMPRC73J0A218ZDPB","A3AU8PZ6HHBCVT","39WSF6KUV27TMEQUH506BZR9N6KEO1","","null","<img src=""img/food2.png"" style=""width:200px;border:14px solid red;"">","null","","","",""
"","image-keyboard-response","263","100487","0.0-263.0","3C44YUNSI2B81SMPRC73J0A218ZDPB","A3AU8PZ6HHBCVT","39WSF6KUV27TMEQUH506BZR9N6KEO1","","113.39999997615814","img/food2.png","74","118.69999998807907","74","0",""
"","html-keyboard-response","264","100794","0.0-264.0","3C44YUNSI2B81SMPRC73J0A218ZDPB","A3AU8PZ6HHBCVT","39WSF6KUV27TMEQUH506BZR9N6KEO1","","null","<img src=""img/food2.png"" style=""width:200px;border:14px solid red;"">","null","","","",""
"","image-keyboard-response","265","101159","0.0-265.0","3C44YUNSI2B81SMPRC73J0A218ZDPB","A3AU8PZ6HHBCVT","39WSF6KUV27TMEQUH506BZR9N6KEO1","","359.2999999821186","img/food2.png","74","363.80000001192093","74","0",""
"","html-keyboard-response","266","101466","0.0-266.0","3C44YUNSI2B81SMPRC73J0A218ZDPB","A3AU8PZ6HHBCVT","39WSF6KUV27TMEQUH506BZR9N6KEO1","","null","<img src=""img/food2.png"" style=""width:200px;border:14px solid red;"">","null","","","",""
"","image-keyboard-response","267","101631","0.0-267.0","3C44YUNSI2B81SMPRC73J0A218ZDPB","A3AU8PZ6HHBCVT","39WSF6KUV27TMEQUH506BZR9N6KEO1","","158.90000000596046","img/food2.png","74","165.2999999821186","74","1",""
"","html-keyboard-response","268","101935","0.0-268.0","3C44YUNSI2B81SMPRC73J0A218ZDPB","A3AU8PZ6HHBCVT","39WSF6KUV27TMEQUH506BZR9N6KEO1","","null","<img src=""img/food2.png"" style=""width:200px; border:14px solid green;"">","null","","","",""
"","image-keyboard-response","269","102523","0.0-269.0","3C44YUNSI2B81SMPRC73J0A218ZDPB","A3AU8PZ6HHBCVT","39WSF6KUV27TMEQUH506BZR9N6KEO1","","584.0999999940395","img/food6.png","76","588.5999999940395","76","1",""
"","html-keyboard-response","270","102831","0.0-270.0","3C44YUNSI2B81SMPRC73J0A218ZDPB","A3AU8PZ6HHBCVT","39WSF6KUV27TMEQUH506BZR9N6KEO1","","null","<img src=""img/food6.png"" style=""width:200px; border:14px solid green;"">","null","","","",""
"","image-keyboard-response","271","103012","0.0-271.0","3C44YUNSI2B81SMPRC73J0A218ZDPB","A3AU8PZ6HHBCVT","39WSF6KUV27TMEQUH506BZR9N6KEO1","","175.30000001192093","img/food6.png","76","178.89999997615814","76","1",""
"","html-keyboard-response","272","103318","0.0-272.0","3C44YUNSI2B81SMPRC73J0A218ZDPB","A3AU8PZ6HHBCVT","39WSF6KUV27TMEQUH506BZR9N6KEO1","","null","<img src=""img/food6.png"" style=""width:200px; border:14px solid green;"">","null","","","",""
"","image-keyboard-response","273","103977","0.0-273.0","3C44YUNSI2B81SMPRC73J0A218ZDPB","A3AU8PZ6HHBCVT","39WSF6KUV27TMEQUH506BZR9N6KEO1","","653.3999999761581","img/food2.png","74","656.8000000119209","74","1",""
"","html-keyboard-response","274","104287","0.0-274.0","3C44YUNSI2B81SMPRC73J0A218ZDPB","A3AU8PZ6HHBCVT","39WSF6KUV27TMEQUH506BZR9N6KEO1","","null","<img src=""img/food2.png"" style=""width:200px; border:14px solid green;"">","null","","","",""
"","image-keyboard-response","275","104910","0.0-275.0","3C44YUNSI2B81SMPRC73J0A218ZDPB","A3AU8PZ6HHBCVT","39WSF6KUV27TMEQUH506BZR9N6KEO1","","620","img/food4.png","75","622.8000000119209","75","0",""
"","html-keyboard-response","276","105214","0.0-276.0","3C44YUNSI2B81SMPRC73J0A218ZDPB","A3AU8PZ6HHBCVT","39WSF6KUV27TMEQUH506BZR9N6KEO1","","null","<img src=""img/food4.png"" style=""width:200px;border:14px solid red;"">","null","","","",""
"","image-keyboard-response","277","105870","0.0-277.0","3C44YUNSI2B81SMPRC73J0A218ZDPB","A3AU8PZ6HHBCVT","39WSF6KUV27TMEQUH506BZR9N6KEO1","","646.4000000059605","img/food2.png","74","653.5999999940395","74","1",""
"","html-keyboard-response","278","106176","0.0-278.0","3C44YUNSI2B81SMPRC73J0A218ZDPB","A3AU8PZ6HHBCVT","39WSF6KUV27TMEQUH506BZR9N6KEO1","","null","<img src=""img/food2.png"" style=""width:200px; border:14px solid green;"">","null","","","",""
"","image-keyboard-response","279","106489","0.0-279.0","3C44YUNSI2B81SMPRC73J0A218ZDPB","A3AU8PZ6HHBCVT","39WSF6KUV27TMEQUH506BZR9N6KEO1","","308.7999999821186","img/food2.png","74","312.59999999403954","74","1",""
"","html-keyboard-response","280","106794","0.0-280.0","3C44YUNSI2B81SMPRC73J0A218ZDPB","A3AU8PZ6HHBCVT","39WSF6KUV27TMEQUH506BZR9N6KEO1","","null","<img src=""img/food2.png"" style=""width:200px; border:14px solid green;"">","null","","","",""
"","image-keyboard-response","281","107366","0.0-281.0","3C44YUNSI2B81SMPRC73J0A218ZDPB","A3AU8PZ6HHBCVT","39WSF6KUV27TMEQUH506BZR9N6KEO1","","566.2999999821186","img/food6.png","75","570","75","1",""
"","html-keyboard-response","282","107671","0.0-282.0","3C44YUNSI2B81SMPRC73J0A218ZDPB","A3AU8PZ6HHBCVT","39WSF6KUV27TMEQUH506BZR9N6KEO1","","null","<img src=""img/food6.png"" style=""width:200px; border:14px solid green;"">","null","","","",""
"","image-keyboard-response","283","108849","0.0-283.0","3C44YUNSI2B81SMPRC73J0A218ZDPB","A3AU8PZ6HHBCVT","39WSF6KUV27TMEQUH506BZR9N6KEO1","","1169.300000011921","img/food4.png","75","1176.0999999940395","75","0",""
"","html-keyboard-response","284","109156","0.0-284.0","3C44YUNSI2B81SMPRC73J0A218ZDPB","A3AU8PZ6HHBCVT","39WSF6KUV27TMEQUH506BZR9N6KEO1","","null","<img src=""img/food4.png"" style=""width:200px;border:14px solid red;"">","null","","","",""
"","image-keyboard-response","285","109780","0.0-285.0","3C44YUNSI2B81SMPRC73J0A218ZDPB","A3AU8PZ6HHBCVT","39WSF6KUV27TMEQUH506BZR9N6KEO1","","618.6999999880791","img/food6.png","76","623.4000000059605","76","1",""
"","html-keyboard-response","286","110083","0.0-286.0","3C44YUNSI2B81SMPRC73J0A218ZDPB","A3AU8PZ6HHBCVT","39WSF6KUV27TMEQUH506BZR9N6KEO1","","null","<img src=""img/food6.png"" style=""width:200px; border:14px solid green;"">","null","","","",""
"","image-keyboard-response","287","110793","0.0-287.0","3C44YUNSI2B81SMPRC73J0A218ZDPB","A3AU8PZ6HHBCVT","39WSF6KUV27TMEQUH506BZR9N6KEO1","","706.2000000178814","img/food2.png","74","709.2000000178814","74","0",""
"","html-keyboard-response","288","111099","0.0-288.0","3C44YUNSI2B81SMPRC73J0A218ZDPB","A3AU8PZ6HHBCVT","39WSF6KUV27TMEQUH506BZR9N6KEO1","","null","<img src=""img/food2.png"" style=""width:200px;border:14px solid red;"">","null","","","",""
"","image-keyboard-response","289","111772","0.0-289.0","3C44YUNSI2B81SMPRC73J0A218ZDPB","A3AU8PZ6HHBCVT","39WSF6KUV27TMEQUH506BZR9N6KEO1","","670.5","img/food4.png","75","672.5999999940395","75","1",""
"","html-keyboard-response","290","112075","0.0-290.0","3C44YUNSI2B81SMPRC73J0A218ZDPB","A3AU8PZ6HHBCVT","39WSF6KUV27TMEQUH506BZR9N6KEO1","","null","<img src=""img/food4.png"" style=""width:200px; border:14px solid green;"">","null","","","",""
"","image-keyboard-response","291","112508","0.0-291.0","3C44YUNSI2B81SMPRC73J0A218ZDPB","A3AU8PZ6HHBCVT","39WSF6KUV27TMEQUH506BZR9N6KEO1","","427.60000002384186","img/food4.png","75","432","75","0",""
"","html-keyboard-response","292","112811","0.0-292.0","3C44YUNSI2B81SMPRC73J0A218ZDPB","A3AU8PZ6HHBCVT","39WSF6KUV27TMEQUH506BZR9N6KEO1","","null","<img src=""img/food4.png"" style=""width:200px;border:14px solid red;"">","null","","","",""
"","image-keyboard-response","293","113333","0.0-293.0","3C44YUNSI2B81SMPRC73J0A218ZDPB","A3AU8PZ6HHBCVT","39WSF6KUV27TMEQUH506BZR9N6KEO1","","515.4000000059605","img/food2.png","74","520.8000000119209","74","1",""
"","html-keyboard-response","294","113640","0.0-294.0","3C44YUNSI2B81SMPRC73J0A218ZDPB","A3AU8PZ6HHBCVT","39WSF6KUV27TMEQUH506BZR9N6KEO1","","null","<img src=""img/food2.png"" style=""width:200px; border:14px solid green;"">","null","","","",""
"","image-keyboard-response","295","113981","0.0-295.0","3C44YUNSI2B81SMPRC73J0A218ZDPB","A3AU8PZ6HHBCVT","39WSF6KUV27TMEQUH506BZR9N6KEO1","","334","img/food2.png","74","338.89999997615814","74","0",""
"","html-keyboard-response","296","114287","0.0-296.0","3C44YUNSI2B81SMPRC73J0A218ZDPB","A3AU8PZ6HHBCVT","39WSF6KUV27TMEQUH506BZR9N6KEO1","","null","<img src=""img/food2.png"" style=""width:200px;border:14px solid red;"">","null","","","",""
"","image-keyboard-response","297","114883","0.0-297.0","3C44YUNSI2B81SMPRC73J0A218ZDPB","A3AU8PZ6HHBCVT","39WSF6KUV27TMEQUH506BZR9N6KEO1","","586.3000000119209","img/food6.png","76","593.9000000059605","76","1",""
"","html-keyboard-response","298","115187","0.0-298.0","3C44YUNSI2B81SMPRC73J0A218ZDPB","A3AU8PZ6HHBCVT","39WSF6KUV27TMEQUH506BZR9N6KEO1","","null","<img src=""img/food6.png"" style=""width:200px; border:14px solid green;"">","null","","","",""
"","image-keyboard-response","299","115834","0.0-299.0","3C44YUNSI2B81SMPRC73J0A218ZDPB","A3AU8PZ6HHBCVT","39WSF6KUV27TMEQUH506BZR9N6KEO1","","640.5","img/food4.png","75","645","75","1",""
"","html-keyboard-response","300","116138","0.0-300.0","3C44YUNSI2B81SMPRC73J0A218ZDPB","A3AU8PZ6HHBCVT","39WSF6KUV27TMEQUH506BZR9N6KEO1","","null","<img src=""img/food4.png"" style=""width:200px; border:14px solid green;"">","null","","","",""
"","image-keyboard-response","301","116773","0.0-301.0","3C44YUNSI2B81SMPRC73J0A218ZDPB","A3AU8PZ6HHBCVT","39WSF6KUV27TMEQUH506BZR9N6KEO1","","630.0999999940395","img/food2.png","74","634.3000000119209","74","0",""
"","html-keyboard-response","302","117080","0.0-302.0","3C44YUNSI2B81SMPRC73J0A218ZDPB","A3AU8PZ6HHBCVT","39WSF6KUV27TMEQUH506BZR9N6KEO1","","null","<img src=""img/food2.png"" style=""width:200px;border:14px solid red;"">","null","","","",""
"","image-keyboard-response","303","117493","0.0-303.0","3C44YUNSI2B81SMPRC73J0A218ZDPB","A3AU8PZ6HHBCVT","39WSF6KUV27TMEQUH506BZR9N6KEO1","","406.10000002384186","img/food2.png","74","413","74","1",""
"","html-keyboard-response","304","117801","0.0-304.0","3C44YUNSI2B81SMPRC73J0A218ZDPB","A3AU8PZ6HHBCVT","39WSF6KUV27TMEQUH506BZR9N6KEO1","","null","<img src=""img/food2.png"" style=""width:200px; border:14px solid green;"">","null","","","",""
"","image-keyboard-response","305","118439","0.0-305.0","3C44YUNSI2B81SMPRC73J0A218ZDPB","A3AU8PZ6HHBCVT","39WSF6KUV27TMEQUH506BZR9N6KEO1","","628.5","img/food4.png","75","635.9000000059605","75","0",""
"","html-keyboard-response","306","118744","0.0-306.0","3C44YUNSI2B81SMPRC73J0A218ZDPB","A3AU8PZ6HHBCVT","39WSF6KUV27TMEQUH506BZR9N6KEO1","","null","<img src=""img/food4.png"" style=""width:200px;border:14px solid red;"">","null","","","",""
"","image-keyboard-response","307","119335","0.0-307.0","3C44YUNSI2B81SMPRC73J0A218ZDPB","A3AU8PZ6HHBCVT","39WSF6KUV27TMEQUH506BZR9N6KEO1","","584.9000000059605","img/food2.png","74","588.8999999761581","74","1",""
"","html-keyboard-response","308","119639","0.0-308.0","3C44YUNSI2B81SMPRC73J0A218ZDPB","A3AU8PZ6HHBCVT","39WSF6KUV27TMEQUH506BZR9N6KEO1","","null","<img src=""img/food2.png"" style=""width:200px; border:14px solid green;"">","null","","","",""
"","image-keyboard-response","309","120249","0.0-309.0","3C44YUNSI2B81SMPRC73J0A218ZDPB","A3AU8PZ6HHBCVT","39WSF6KUV27TMEQUH506BZR9N6KEO1","","601.8000000119209","img/food6.png","76","607.3999999761581","76","1",""
"","html-keyboard-response","310","120554","0.0-310.0","3C44YUNSI2B81SMPRC73J0A218ZDPB","A3AU8PZ6HHBCVT","39WSF6KUV27TMEQUH506BZR9N6KEO1","","null","<img src=""img/food6.png"" style=""width:200px; border:14px solid green;"">","null","","","",""
"","image-keyboard-response","311","121136","0.0-311.0","3C44YUNSI2B81SMPRC73J0A218ZDPB","A3AU8PZ6HHBCVT","39WSF6KUV27TMEQUH506BZR9N6KEO1","","574.5999999940395","img/food2.png","74","579.4000000059605","74","0",""
"","html-keyboard-response","312","121440","0.0-312.0","3C44YUNSI2B81SMPRC73J0A218ZDPB","A3AU8PZ6HHBCVT","39WSF6KUV27TMEQUH506BZR9N6KEO1","","null","<img src=""img/food2.png"" style=""width:200px;border:14px solid red;"">","null","","","",""
"","image-keyboard-response","313","121830","0.0-313.0","3C44YUNSI2B81SMPRC73J0A218ZDPB","A3AU8PZ6HHBCVT","39WSF6KUV27TMEQUH506BZR9N6KEO1","","383.7999999821186","img/food2.png","74","389.7000000178814","74","1",""
"","html-keyboard-response","314","122137","0.0-314.0","3C44YUNSI2B81SMPRC73J0A218ZDPB","A3AU8PZ6HHBCVT","39WSF6KUV27TMEQUH506BZR9N6KEO1","","null","<img src=""img/food2.png"" style=""width:200px; border:14px solid green;"">","null","","","",""
"","image-keyboard-response","315","122671","0.0-315.0","3C44YUNSI2B81SMPRC73J0A218ZDPB","A3AU8PZ6HHBCVT","39WSF6KUV27TMEQUH506BZR9N6KEO1","","527.5999999940395","img/food6.png","76","533.3000000119209","76","1",""
"","html-keyboard-response","316","122977","0.0-316.0","3C44YUNSI2B81SMPRC73J0A218ZDPB","A3AU8PZ6HHBCVT","39WSF6KUV27TMEQUH506BZR9N6KEO1","","null","<img src=""img/food6.png"" style=""width:200px; border:14px solid green;"">","null","","","",""
"","image-keyboard-response","317","123449","0.0-317.0","3C44YUNSI2B81SMPRC73J0A218ZDPB","A3AU8PZ6HHBCVT","39WSF6KUV27TMEQUH506BZR9N6KEO1","","465.7000000178814","img/food6.png","76","471.2999999821186","76","1",""
"","html-keyboard-response","318","123756","0.0-318.0","3C44YUNSI2B81SMPRC73J0A218ZDPB","A3AU8PZ6HHBCVT","39WSF6KUV27TMEQUH506BZR9N6KEO1","","null","<img src=""img/food6.png"" style=""width:200px; border:14px solid green;"">","null","","","",""
"","image-keyboard-response","319","124139","0.0-319.0","3C44YUNSI2B81SMPRC73J0A218ZDPB","A3AU8PZ6HHBCVT","39WSF6KUV27TMEQUH506BZR9N6KEO1","","375.59999999403954","img/food6.png","76","381.30000001192093","76","1",""
"","html-keyboard-response","320","124446","0.0-320.0","3C44YUNSI2B81SMPRC73J0A218ZDPB","A3AU8PZ6HHBCVT","39WSF6KUV27TMEQUH506BZR9N6KEO1","","null","<img src=""img/food6.png"" style=""width:200px; border:14px solid green;"">","null","","","",""
"","image-keyboard-response","321","124852","0.0-321.0","3C44YUNSI2B81SMPRC73J0A218ZDPB","A3AU8PZ6HHBCVT","39WSF6KUV27TMEQUH506BZR9N6KEO1","","396.39999997615814","img/food6.png","76","404.30000001192093","76","1",""
"","html-keyboard-response","322","125160","0.0-322.0","3C44YUNSI2B81SMPRC73J0A218ZDPB","A3AU8PZ6HHBCVT","39WSF6KUV27TMEQUH506BZR9N6KEO1","","null","<img src=""img/food6.png"" style=""width:200px; border:14px solid green;"">","null","","","",""
"","image-keyboard-response","323","125948","0.0-323.0","3C44YUNSI2B81SMPRC73J0A218ZDPB","A3AU8PZ6HHBCVT","39WSF6KUV27TMEQUH506BZR9N6KEO1","","777.8999999761581","img/food2.png","74","784.5999999940395","74","0",""
"","html-keyboard-response","324","126254","0.0-324.0","3C44YUNSI2B81SMPRC73J0A218ZDPB","A3AU8PZ6HHBCVT","39WSF6KUV27TMEQUH506BZR9N6KEO1","","null","<img src=""img/food2.png"" style=""width:200px;border:14px solid red;"">","null","","","",""
"","image-keyboard-response","325","126621","0.0-325.0","3C44YUNSI2B81SMPRC73J0A218ZDPB","A3AU8PZ6HHBCVT","39WSF6KUV27TMEQUH506BZR9N6KEO1","","358.90000000596046","img/food2.png","74","365.30000001192093","74","1",""
"","html-keyboard-response","326","126926","0.0-326.0","3C44YUNSI2B81SMPRC73J0A218ZDPB","A3AU8PZ6HHBCVT","39WSF6KUV27TMEQUH506BZR9N6KEO1","","null","<img src=""img/food2.png"" style=""width:200px; border:14px solid green;"">","null","","","",""
"","image-keyboard-response","327","127365","0.0-327.0","3C44YUNSI2B81SMPRC73J0A218ZDPB","A3AU8PZ6HHBCVT","39WSF6KUV27TMEQUH506BZR9N6KEO1","","433.09999999403954","img/food2.png","74","436.80000001192093","74","1",""
"","html-keyboard-response","328","127669","0.0-328.0","3C44YUNSI2B81SMPRC73J0A218ZDPB","A3AU8PZ6HHBCVT","39WSF6KUV27TMEQUH506BZR9N6KEO1","","null","<img src=""img/food2.png"" style=""width:200px; border:14px solid green;"">","null","","","",""
"","image-keyboard-response","329","128325","0.0-329.0","3C44YUNSI2B81SMPRC73J0A218ZDPB","A3AU8PZ6HHBCVT","39WSF6KUV27TMEQUH506BZR9N6KEO1","","648.3999999761581","img/food4.png","75","654","75","1",""
"","html-keyboard-response","330","128630","0.0-330.0","3C44YUNSI2B81SMPRC73J0A218ZDPB","A3AU8PZ6HHBCVT","39WSF6KUV27TMEQUH506BZR9N6KEO1","","null","<img src=""img/food4.png"" style=""width:200px; border:14px solid green;"">","null","","","",""
"","image-keyboard-response","331","129387","0.0-331.0","3C44YUNSI2B81SMPRC73J0A218ZDPB","A3AU8PZ6HHBCVT","39WSF6KUV27TMEQUH506BZR9N6KEO1","","752","img/food6.png","76","755.1999999880791","76","0",""
"","html-keyboard-response","332","129690","0.0-332.0","3C44YUNSI2B81SMPRC73J0A218ZDPB","A3AU8PZ6HHBCVT","39WSF6KUV27TMEQUH506BZR9N6KEO1","","null","<img src=""img/food6.png"" style=""width:200px;border:14px solid red;"">","null","","","",""
"","image-keyboard-response","333","130345","0.0-333.0","3C44YUNSI2B81SMPRC73J0A218ZDPB","A3AU8PZ6HHBCVT","39WSF6KUV27TMEQUH506BZR9N6KEO1","","649.9000000059605","img/food4.png","75","654.4000000059605","75","0",""
"","html-keyboard-response","334","130652","0.0-334.0","3C44YUNSI2B81SMPRC73J0A218ZDPB","A3AU8PZ6HHBCVT","39WSF6KUV27TMEQUH506BZR9N6KEO1","","null","<img src=""img/food4.png"" style=""width:200px;border:14px solid red;"">","null","","","",""
"","image-keyboard-response","335","131248","0.0-335.0","3C44YUNSI2B81SMPRC73J0A218ZDPB","A3AU8PZ6HHBCVT","39WSF6KUV27TMEQUH506BZR9N6KEO1","","592.4000000059605","img/food6.png","76","594.9000000059605","76","1",""
"","html-keyboard-response","336","131554","0.0-336.0","3C44YUNSI2B81SMPRC73J0A218ZDPB","A3AU8PZ6HHBCVT","39WSF6KUV27TMEQUH506BZR9N6KEO1","","null","<img src=""img/food6.png"" style=""width:200px; border:14px solid green;"">","null","","","",""
"","image-keyboard-response","337","131917","0.0-337.0","3C44YUNSI2B81SMPRC73J0A218ZDPB","A3AU8PZ6HHBCVT","39WSF6KUV27TMEQUH506BZR9N6KEO1","","359","img/food6.png","76","361.10000002384186","76","1",""
"","html-keyboard-response","338","132221","0.0-338.0","3C44YUNSI2B81SMPRC73J0A218ZDPB","A3AU8PZ6HHBCVT","39WSF6KUV27TMEQUH506BZR9N6KEO1","","null","<img src=""img/food6.png"" style=""width:200px; border:14px solid green;"">","null","","","",""
"","image-keyboard-response","339","132613","0.0-339.0","3C44YUNSI2B81SMPRC73J0A218ZDPB","A3AU8PZ6HHBCVT","39WSF6KUV27TMEQUH506BZR9N6KEO1","","383.39999997615814","img/food6.png","76","390.59999999403954","76","1",""
"","html-keyboard-response","340","132918","0.0-340.0","3C44YUNSI2B81SMPRC73J0A218ZDPB","A3AU8PZ6HHBCVT","39WSF6KUV27TMEQUH506BZR9N6KEO1","","null","<img src=""img/food6.png"" style=""width:200px; border:14px solid green;"">","null","","","",""
"","image-keyboard-response","341","133403","0.0-341.0","3C44YUNSI2B81SMPRC73J0A218ZDPB","A3AU8PZ6HHBCVT","39WSF6KUV27TMEQUH506BZR9N6KEO1","","478.90000000596046","img/food4.png","75","483.90000000596046","75","0",""
"","html-keyboard-response","342","133710","0.0-342.0","3C44YUNSI2B81SMPRC73J0A218ZDPB","A3AU8PZ6HHBCVT","39WSF6KUV27TMEQUH506BZR9N6KEO1","","null","<img src=""img/food4.png"" style=""width:200px;border:14px solid red;"">","null","","","",""
"","image-keyboard-response","343","134207","0.0-343.0","3C44YUNSI2B81SMPRC73J0A218ZDPB","A3AU8PZ6HHBCVT","39WSF6KUV27TMEQUH506BZR9N6KEO1","","492.59999999403954","img/food2.png","74","498.09999999403954","74","1",""
"","html-keyboard-response","344","134515","0.0-344.0","3C44YUNSI2B81SMPRC73J0A218ZDPB","A3AU8PZ6HHBCVT","39WSF6KUV27TMEQUH506BZR9N6KEO1","","null","<img src=""img/food2.png"" style=""width:200px; border:14px solid green;"">","null","","","",""
"","image-keyboard-response","345","135023","0.0-345.0","3C44YUNSI2B81SMPRC73J0A218ZDPB","A3AU8PZ6HHBCVT","39WSF6KUV27TMEQUH506BZR9N6KEO1","","501.90000000596046","img/food2.png","74","507.19999998807907","74","1",""
"","html-keyboard-response","346","135331","0.0-346.0","3C44YUNSI2B81SMPRC73J0A218ZDPB","A3AU8PZ6HHBCVT","39WSF6KUV27TMEQUH506BZR9N6KEO1","","null","<img src=""img/food2.png"" style=""width:200px; border:14px solid green;"">","null","","","",""
"","image-keyboard-response","347","136273","0.0-347.0","3C44YUNSI2B81SMPRC73J0A218ZDPB","A3AU8PZ6HHBCVT","39WSF6KUV27TMEQUH506BZR9N6KEO1","","938.1999999880791","img/food6.png","76","940.6999999880791","76","1",""
"","html-keyboard-response","348","136579","0.0-348.0","3C44YUNSI2B81SMPRC73J0A218ZDPB","A3AU8PZ6HHBCVT","39WSF6KUV27TMEQUH506BZR9N6KEO1","","null","<img src=""img/food6.png"" style=""width:200px; border:14px solid green;"">","null","","","",""
"","image-keyboard-response","349","136987","0.0-349.0","3C44YUNSI2B81SMPRC73J0A218ZDPB","A3AU8PZ6HHBCVT","39WSF6KUV27TMEQUH506BZR9N6KEO1","","400.09999999403954","img/food6.png","76","407.2000000178814","76","0",""
"","html-keyboard-response","350","137293","0.0-350.0","3C44YUNSI2B81SMPRC73J0A218ZDPB","A3AU8PZ6HHBCVT","39WSF6KUV27TMEQUH506BZR9N6KEO1","","null","<img src=""img/food6.png"" style=""width:200px;border:14px solid red;"">","null","","","",""
"","image-keyboard-response","351","137790","0.0-351.0","3C44YUNSI2B81SMPRC73J0A218ZDPB","A3AU8PZ6HHBCVT","39WSF6KUV27TMEQUH506BZR9N6KEO1","","491.59999999403954","img/food4.png","75","496.09999999403954","75","0",""
"","html-keyboard-response","352","138098","0.0-352.0","3C44YUNSI2B81SMPRC73J0A218ZDPB","A3AU8PZ6HHBCVT","39WSF6KUV27TMEQUH506BZR9N6KEO1","","null","<img src=""img/food4.png"" style=""width:200px;border:14px solid red;"">","null","","","",""
"","image-keyboard-response","353","138783","0.0-353.0","3C44YUNSI2B81SMPRC73J0A218ZDPB","A3AU8PZ6HHBCVT","39WSF6KUV27TMEQUH506BZR9N6KEO1","","674.3000000119209","img/food6.png","76","682.3000000119209","76","1",""
"","html-keyboard-response","354","139088","0.0-354.0","3C44YUNSI2B81SMPRC73J0A218ZDPB","A3AU8PZ6HHBCVT","39WSF6KUV27TMEQUH506BZR9N6KEO1","","null","<img src=""img/food6.png"" style=""width:200px; border:14px solid green;"">","null","","","",""
"","image-keyboard-response","355","139473","0.0-355.0","3C44YUNSI2B81SMPRC73J0A218ZDPB","A3AU8PZ6HHBCVT","39WSF6KUV27TMEQUH506BZR9N6KEO1","","376.90000000596046","img/food6.png","76","383.30000001192093","76","1",""
"","html-keyboard-response","356","139778","0.0-356.0","3C44YUNSI2B81SMPRC73J0A218ZDPB","A3AU8PZ6HHBCVT","39WSF6KUV27TMEQUH506BZR9N6KEO1","","null","<img src=""img/food6.png"" style=""width:200px; border:14px solid green;"">","null","","","",""
"","image-keyboard-response","357","140319","0.0-357.0","3C44YUNSI2B81SMPRC73J0A218ZDPB","A3AU8PZ6HHBCVT","39WSF6KUV27TMEQUH506BZR9N6KEO1","","531.7999999821186","img/food4.png","75","540.5","75","1",""
"","html-keyboard-response","358","140627","0.0-358.0","3C44YUNSI2B81SMPRC73J0A218ZDPB","A3AU8PZ6HHBCVT","39WSF6KUV27TMEQUH506BZR9N6KEO1","","null","<img src=""img/food4.png"" style=""width:200px; border:14px solid green;"">","null","","","",""
"","image-keyboard-response","359","140949","0.0-359.0","3C44YUNSI2B81SMPRC73J0A218ZDPB","A3AU8PZ6HHBCVT","39WSF6KUV27TMEQUH506BZR9N6KEO1","","313.59999999403954","img/food4.png","75","320.5","75","1",""
"","html-keyboard-response","360","141257","0.0-360.0","3C44YUNSI2B81SMPRC73J0A218ZDPB","A3AU8PZ6HHBCVT","39WSF6KUV27TMEQUH506BZR9N6KEO1","","null","<img src=""img/food4.png"" style=""width:200px; border:14px solid green;"">","null","","","",""
"","image-keyboard-response","361","141579","0.0-361.0","3C44YUNSI2B81SMPRC73J0A218ZDPB","A3AU8PZ6HHBCVT","39WSF6KUV27TMEQUH506BZR9N6KEO1","","311.19999998807907","img/food4.png","75","316","75","1",""
"","html-keyboard-response","362","141884","0.0-362.0","3C44YUNSI2B81SMPRC73J0A218ZDPB","A3AU8PZ6HHBCVT","39WSF6KUV27TMEQUH506BZR9N6KEO1","","null","<img src=""img/food4.png"" style=""width:200px; border:14px solid green;"">","null","","","",""
"","instructions","363","144511","0.0-363.0","3C44YUNSI2B81SMPRC73J0A218ZDPB","A3AU8PZ6HHBCVT","39WSF6KUV27TMEQUH506BZR9N6KEO1","[{""page_index"":0,""viewing_time"":2618.899999976158}]","2620.7999999821186","","","","","",""
"","survey-text","364","166993","0.0-364.0","3C44YUNSI2B81SMPRC73J0A218ZDPB","A3AU8PZ6HHBCVT","39WSF6KUV27TMEQUH506BZR9N6KEO1","","22469.5","","","","","","{""Q0"":""A3AU8PZ6HHBCVT""}"
