"success","trial_type","trial_index","time_elapsed","internal_node_id","assignmentID","mturkID","hitID","view_history","rt","stimulus","key_press","reactionTime","a","r","s","cond","reward_cond","reward_cond_actual","reward_matrix_idx","warning","responses"
"true","fullscreen","0","9462","0.0-0.0","","","","","","","","","","","","","","","","",""
"","instructions","1","32647","0.0-1.0","","","","[{""page_index"":0,""viewing_time"":11513},{""page_index"":1,""viewing_time"":991},{""page_index"":2,""viewing_time"":1018},{""page_index"":3,""viewing_time"":1483},{""page_index"":4,""viewing_time"":2532},{""page_index"":5,""viewing_time"":4062},{""page_index"":6,""viewing_time"":1578}]","23178","","","","","","","","","","","",""
"","image-keyboard-response","2","33363","0.0-2.0","","","","","706","img/food4.png","76","715","3","1","3","1","1,0.7,0,1,0.7,0,0.7,0,1","0.7,0,1,0.7,0,1,0,1,0.7","2","",""
"","html-keyboard-response","3","33671","0.0-3.0","","","","","null","<img src=""img/food4.png"" style=""width:200px; border:14px solid green;"">","null","","","","","","","","","",""
"","image-keyboard-response","4","34016","0.0-4.0","","","","","342","img/food4.png","76","344","3","1","3","1","1,0.7,0,1,0.7,0,0.7,0,1","0.7,0,1,0.7,0,1,0,1,0.7","2","",""
"","html-keyboard-response","5","34348","0.0-5.0","","","","","null","<img src=""img/food4.png"" style=""width:200px; border:14px solid green;"">","null","","","","","","","","","",""
"","image-keyboard-response","6","35033","0.0-6.0","","","","","681","img/food6.png","75","683","2","0","2","1","1,0.7,0,1,0.7,0,0.7,0,1","0.7,0,1,0.7,0,1,0,1,0.7","2","",""
"","html-keyboard-response","7","35338","0.0-7.0","","","","","null","<img src=""img/food6.png"" style=""width:200px;border:14px solid red;"">","null","","","","","","","","","",""
"","image-keyboard-response","8","35793","0.0-8.0","","","","","452","img/food6.png","76","454","3","1","2","1","1,0.7,0,1,0.7,0,0.7,0,1","0.7,0,1,0.7,0,1,0,1,0.7","2","",""
"","html-keyboard-response","9","36098","0.0-9.0","","","","","null","<img src=""img/food6.png"" style=""width:200px; border:14px solid green;"">","null","","","","","","","","","",""
"","image-keyboard-response","10","36617","0.0-10.0","","","","","514","img/food4.png","76","516","3","1","3","1","1,0.7,0,1,0.7,0,0.7,0,1","0.7,0,1,0.7,0,1,0,1,0.7","2","",""
"","html-keyboard-response","11","36921","0.0-11.0","","","","","null","<img src=""img/food4.png"" style=""width:200px; border:14px solid green;"">","null","","","","","","","","","",""
"","image-keyboard-response","12","37585","0.0-12.0","","","","","661","img/food6.png","76","663","3","1","2","1","1,0.7,0,1,0.7,0,0.7,0,1","0.7,0,1,0.7,0,1,0,1,0.7","2","",""
"","html-keyboard-response","13","37889","0.0-13.0","","","","","null","<img src=""img/food6.png"" style=""width:200px; border:14px solid green;"">","null","","","","","","","","","",""
"","image-keyboard-response","14","38337","0.0-14.0","","","","","446","img/food6.png","76","448","3","1","2","1","1,0.7,0,1,0.7,0,0.7,0,1","0.7,0,1,0.7,0,1,0,1,0.7","2","",""
"","html-keyboard-response","15","38641","0.0-15.0","","","","","null","<img src=""img/food6.png"" style=""width:200px; border:14px solid green;"">","null","","","","","","","","","",""
"","image-keyboard-response","16","39053","0.0-16.0","","","","","410","img/food6.png","76","411","3","1","2","1","1,0.7,0,1,0.7,0,0.7,0,1","0.7,0,1,0.7,0,1,0,1,0.7","2","",""
"","html-keyboard-response","17","39357","0.0-17.0","","","","","null","<img src=""img/food6.png"" style=""width:200px; border:14px solid green;"">","null","","","","","","","","","",""
"","image-keyboard-response","18","40217","0.0-18.0","","","","","858","img/food4.png","76","860","3","0","3","1","1,0.7,0,1,0.7,0,0.7,0,1","0.7,0,1,0.7,0,1,0,1,0.7","2","",""
"","html-keyboard-response","19","40523","0.0-19.0","","","","","null","<img src=""img/food4.png"" style=""width:200px;border:14px solid red;"">","null","","","","","","","","","",""
"","image-keyboard-response","20","41424","0.0-20.0","","","","","898","img/food2.png","76","901","3","1","1","1","1,0.7,0,1,0.7,0,0.7,0,1","0.7,0,1,0.7,0,1,0,1,0.7","2","",""
"","html-keyboard-response","21","41728","0.0-21.0","","","","","null","<img src=""img/food2.png"" style=""width:200px; border:14px solid green;"">","null","","","","","","","","","",""
"","image-keyboard-response","22","42209","0.0-22.0","","","","","478","img/food2.png","76","481","3","1","1","1","1,0.7,0,1,0.7,0,0.7,0,1","0.7,0,1,0.7,0,1,0,1,0.7","2","",""
"","html-keyboard-response","23","42512","0.0-23.0","","","","","null","<img src=""img/food2.png"" style=""width:200px; border:14px solid green;"">","null","","","","","","","","","",""
"","image-keyboard-response","24","43169","0.0-24.0","","","","","654","img/food4.png","76","658","3","1","3","1","1,0.7,0,1,0.7,0,0.7,0,1","0.7,0,1,0.7,0,1,0,1,0.7","2","",""
"","html-keyboard-response","25","43478","0.0-25.0","","","","","null","<img src=""img/food4.png"" style=""width:200px; border:14px solid green;"">","null","","","","","","","","","",""
"","image-keyboard-response","26","44225","0.0-26.0","","","","","744","img/food2.png","76","745","3","1","1","1","1,0.7,0,1,0.7,0,0.7,0,1","0.7,0,1,0.7,0,1,0,1,0.7","2","",""
"","html-keyboard-response","27","44527","0.0-27.0","","","","","null","<img src=""img/food2.png"" style=""width:200px; border:14px solid green;"">","null","","","","","","","","","",""
"","image-keyboard-response","28","44993","0.0-28.0","","","","","462","img/food4.png","76","464","3","1","3","1","1,0.7,0,1,0.7,0,0.7,0,1","0.7,0,1,0.7,0,1,0,1,0.7","2","",""
"","html-keyboard-response","29","45296","0.0-29.0","","","","","null","<img src=""img/food4.png"" style=""width:200px; border:14px solid green;"">","null","","","","","","","","","",""
"","image-keyboard-response","30","45760","0.0-30.0","","","","","463","img/food2.png","76","465","3","1","1","1","1,0.7,0,1,0.7,0,0.7,0,1","0.7,0,1,0.7,0,1,0,1,0.7","2","",""
"","html-keyboard-response","31","46065","0.0-31.0","","","","","null","<img src=""img/food2.png"" style=""width:200px; border:14px solid green;"">","null","","","","","","","","","",""
"","image-keyboard-response","32","46461","0.0-32.0","","","","","393","img/food2.png","76","395","3","1","1","1","1,0.7,0,1,0.7,0,0.7,0,1","0.7,0,1,0.7,0,1,0,1,0.7","2","",""
"","html-keyboard-response","33","46778","0.0-33.0","","","","","null","<img src=""img/food2.png"" style=""width:200px; border:14px solid green;"">","null","","","","","","","","","",""
"","image-keyboard-response","34","47721","0.0-34.0","","","","","939","img/food6.png","75","942","2","0","2","1","1,0.7,0,1,0.7,0,0.7,0,1","0.7,0,1,0.7,0,1,0,1,0.7","2","",""
"","html-keyboard-response","35","48024","0.0-35.0","","","","","null","<img src=""img/food6.png"" style=""width:200px;border:14px solid red;"">","null","","","","","","","","","",""
"","image-keyboard-response","36","48473","0.0-36.0","","","","","446","img/food4.png","76","447","3","1","3","1","1,0.7,0,1,0.7,0,0.7,0,1","0.7,0,1,0.7,0,1,0,1,0.7","2","",""
"","html-keyboard-response","37","48777","0.0-37.0","","","","","null","<img src=""img/food4.png"" style=""width:200px; border:14px solid green;"">","null","","","","","","","","","",""
"","image-keyboard-response","38","49281","0.0-38.0","","","","","502","img/food6.png","76","503","3","1","2","1","1,0.7,0,1,0.7,0,0.7,0,1","0.7,0,1,0.7,0,1,0,1,0.7","2","",""
"","html-keyboard-response","39","49614","0.0-39.0","","","","","null","<img src=""img/food6.png"" style=""width:200px; border:14px solid green;"">","null","","","","","","","","","",""
"","image-keyboard-response","40","50041","0.0-40.0","","","","","424","img/food4.png","76","425","3","0","3","1","1,0.7,0,1,0.7,0,0.7,0,1","0.7,0,1,0.7,0,1,0,1,0.7","2","",""
"","html-keyboard-response","41","50344","0.0-41.0","","","","","null","<img src=""img/food4.png"" style=""width:200px;border:14px solid red;"">","null","","","","","","","","","",""
"","image-keyboard-response","42","51513","0.0-42.0","","","","","1167","img/food4.png","76","1168","3","1","3","1","1,0.7,0,1,0.7,0,0.7,0,1","0.7,0,1,0.7,0,1,0,1,0.7","2","",""
"","html-keyboard-response","43","51816","0.0-43.0","","","","","null","<img src=""img/food4.png"" style=""width:200px; border:14px solid green;"">","null","","","","","","","","","",""
"","image-keyboard-response","44","52508","0.0-44.0","","","","","690","img/food2.png","76","692","3","1","1","1","1,0.7,0,1,0.7,0,0.7,0,1","0.7,0,1,0.7,0,1,0,1,0.7","2","",""
"","html-keyboard-response","45","52810","0.0-45.0","","","","","null","<img src=""img/food2.png"" style=""width:200px; border:14px solid green;"">","null","","","","","","","","","",""
"","image-keyboard-response","46","53233","0.0-46.0","","","","","419","img/food4.png","76","423","3","1","3","1","1,0.7,0,1,0.7,0,0.7,0,1","0.7,0,1,0.7,0,1,0,1,0.7","2","",""
"","html-keyboard-response","47","53536","0.0-47.0","","","","","null","<img src=""img/food4.png"" style=""width:200px; border:14px solid green;"">","null","","","","","","","","","",""
"","image-keyboard-response","48","54577","0.0-48.0","","","","","1039","img/food6.png","75","1041","2","0","2","1","1,0.7,0,1,0.7,0,0.7,0,1","0.7,0,1,0.7,0,1,0,1,0.7","2","",""
"","html-keyboard-response","49","54880","0.0-49.0","","","","","null","<img src=""img/food6.png"" style=""width:200px;border:14px solid red;"">","null","","","","","","","","","",""
"","image-keyboard-response","50","55448","0.0-50.0","","","","","566","img/food4.png","74","568","1","0","3","1","1,0.7,0,1,0.7,0,0.7,0,1","0.7,0,1,0.7,0,1,0,1,0.7","2","",""
"","html-keyboard-response","51","55757","0.0-51.0","","","","","null","<img src=""img/food4.png"" style=""width:200px;border:14px solid red;"">","null","","","","","","","","","",""
"","image-keyboard-response","52","56328","0.0-52.0","","","","","567","img/food2.png","74","570","1","1","1","1","1,0.7,0,1,0.7,0,0.7,0,1","0.7,0,1,0.7,0,1,0,1,0.7","2","",""
"","html-keyboard-response","53","56631","0.0-53.0","","","","","null","<img src=""img/food2.png"" style=""width:200px; border:14px solid green;"">","null","","","","","","","","","",""
"","image-keyboard-response","54","57612","0.0-54.0","","","","","978","img/food6.png","74","981","1","1","2","1","1,0.7,0,1,0.7,0,0.7,0,1","0.7,0,1,0.7,0,1,0,1,0.7","2","",""
"","html-keyboard-response","55","57915","0.0-55.0","","","","","null","<img src=""img/food6.png"" style=""width:200px; border:14px solid green;"">","null","","","","","","","","","",""
"","image-keyboard-response","56","58357","0.0-56.0","","","","","437","img/food6.png","74","440","1","0","2","1","1,0.7,0,1,0.7,0,0.7,0,1","0.7,0,1,0.7,0,1,0,1,0.7","2","",""
"","html-keyboard-response","57","58671","0.0-57.0","","","","","null","<img src=""img/food6.png"" style=""width:200px;border:14px solid red;"">","null","","","","","","","","","",""
"","image-keyboard-response","58","59177","0.0-58.0","","","","","503","img/food2.png","74","505","1","1","1","1","1,0.7,0,1,0.7,0,0.7,0,1","0.7,0,1,0.7,0,1,0,1,0.7","2","",""
"","html-keyboard-response","59","59480","0.0-59.0","","","","","null","<img src=""img/food2.png"" style=""width:200px; border:14px solid green;"">","null","","","","","","","","","",""
"","image-keyboard-response","60","59993","0.0-60.0","","","","","511","img/food6.png","76","513","3","1","2","1","1,0.7,0,1,0.7,0,0.7,0,1","0.7,0,1,0.7,0,1,0,1,0.7","2","",""
"","html-keyboard-response","61","60296","0.0-61.0","","","","","null","<img src=""img/food6.png"" style=""width:200px; border:14px solid green;"">","null","","","","","","","","","",""
"","image-keyboard-response","62","60736","0.0-62.0","","","","","437","img/food6.png","76","438","3","1","2","1","1,0.7,0,1,0.7,0,0.7,0,1","0.7,0,1,0.7,0,1,0,1,0.7","2","",""
"","html-keyboard-response","63","61041","0.0-63.0","","","","","null","<img src=""img/food6.png"" style=""width:200px; border:14px solid green;"">","null","","","","","","","","","",""
"","image-keyboard-response","64","61672","0.0-64.0","","","","","629","img/food2.png","74","632","1","1","1","1","1,0.7,0,1,0.7,0,0.7,0,1","0.7,0,1,0.7,0,1,0,1,0.7","2","",""
"","html-keyboard-response","65","61975","0.0-65.0","","","","","null","<img src=""img/food2.png"" style=""width:200px; border:14px solid green;"">","null","","","","","","","","","",""
"","image-keyboard-response","66","62433","0.0-66.0","","","","","455","img/food2.png","76","458","3","1","1","1","1,0.7,0,1,0.7,0,0.7,0,1","0.7,0,1,0.7,0,1,0,1,0.7","2","",""
"","html-keyboard-response","67","62737","0.0-67.0","","","","","null","<img src=""img/food2.png"" style=""width:200px; border:14px solid green;"">","null","","","","","","","","","",""
"","image-keyboard-response","68","63872","0.0-68.0","","","","","1133","img/food4.png","76","1135","3","1","3","1","1,0.7,0,1,0.7,0,0.7,0,1","0.7,0,1,0.7,0,1,0,1,0.7","2","",""
"","html-keyboard-response","69","64175","0.0-69.0","","","","","null","<img src=""img/food4.png"" style=""width:200px; border:14px solid green;"">","null","","","","","","","","","",""
"","image-keyboard-response","70","64712","0.0-70.0","","","","","534","img/food6.png","76","537","3","1","2","1","1,0.7,0,1,0.7,0,0.7,0,1","0.7,0,1,0.7,0,1,0,1,0.7","2","",""
"","html-keyboard-response","71","65015","0.0-71.0","","","","","null","<img src=""img/food6.png"" style=""width:200px; border:14px solid green;"">","null","","","","","","","","","",""
"","image-keyboard-response","72","65608","0.0-72.0","","","","","590","img/food2.png","74","592","1","1","1","1","1,0.7,0,1,0.7,0,0.7,0,1","0.7,0,1,0.7,0,1,0,1,0.7","2","",""
"","html-keyboard-response","73","65912","0.0-73.0","","","","","null","<img src=""img/food2.png"" style=""width:200px; border:14px solid green;"">","null","","","","","","","","","",""
"","image-keyboard-response","74","66411","0.0-74.0","","","","","495","img/food4.png","76","497","3","0","3","1","1,0.7,0,1,0.7,0,0.7,0,1","0.7,0,1,0.7,0,1,0,1,0.7","2","",""
"","html-keyboard-response","75","66714","0.0-75.0","","","","","null","<img src=""img/food4.png"" style=""width:200px;border:14px solid red;"">","null","","","","","","","","","",""
"","image-keyboard-response","76","68718","0.0-76.0","","","","","","img/food6.png","","2004","-1","0","2","1","1,0.7,0,1,0.7,0,0.7,0,1","0.7,0,1,0.7,0,1,0,1,0.7","2","",""
"","html-keyboard-response","77","69023","0.0-77.0","","","","","null","<img src=""img/food6.png"" style=""width:200px;border:14px solid red;"">","null","","","","","","","","","",""
"","image-keyboard-response","78","69944","0.0-78.0","","","","","919","img/food4.png","76","921","3","0","3","1","1,0.7,0,1,0.7,0,0.7,0,1","0.7,0,1,0.7,0,1,0,1,0.7","2","",""
"","html-keyboard-response","79","70248","0.0-79.0","","","","","null","<img src=""img/food4.png"" style=""width:200px;border:14px solid red;"">","null","","","","","","","","","",""
"","image-keyboard-response","80","70985","0.0-80.0","","","","","734","img/food4.png","74","736","1","0","3","1","1,0.7,0,1,0.7,0,0.7,0,1","0.7,0,1,0.7,0,1,0,1,0.7","2","",""
"","html-keyboard-response","81","71287","0.0-81.0","","","","","null","<img src=""img/food4.png"" style=""width:200px;border:14px solid red;"">","null","","","","","","","","","",""
"","image-keyboard-response","82","71784","0.0-82.0","","","","","495","img/food6.png","75","496","2","0","2","1","1,0.7,0,1,0.7,0,0.7,0,1","0.7,0,1,0.7,0,1,0,1,0.7","2","",""
"","html-keyboard-response","83","72088","0.0-83.0","","","","","null","<img src=""img/food6.png"" style=""width:200px;border:14px solid red;"">","null","","","","","","","","","",""
"","image-keyboard-response","84","72729","0.0-84.0","","","","","639","img/food4.png","75","641","2","1","3","1","1,0.7,0,1,0.7,0,0.7,0,1","0.7,0,1,0.7,0,1,0,1,0.7","2","",""
"","html-keyboard-response","85","73030","0.0-85.0","","","","","null","<img src=""img/food4.png"" style=""width:200px; border:14px solid green;"">","null","","","","","","","","","",""
"","image-keyboard-response","86","74563","0.0-86.0","","","","","1528","img/food2.png","76","1534","3","1","1","1","1,0.7,0,1,0.7,0,0.7,0,1","0.7,0,1,0.7,0,1,0,1,0.7","2","",""
"","html-keyboard-response","87","74874","0.0-87.0","","","","","null","<img src=""img/food2.png"" style=""width:200px; border:14px solid green;"">","null","","","","","","","","","",""
"","image-keyboard-response","88","75304","0.0-88.0","","","","","426","img/food2.png","76","428","3","1","1","1","1,0.7,0,1,0.7,0,0.7,0,1","0.7,0,1,0.7,0,1,0,1,0.7","2","",""
"","html-keyboard-response","89","75609","0.0-89.0","","","","","null","<img src=""img/food2.png"" style=""width:200px; border:14px solid green;"">","null","","","","","","","","","",""
"","image-keyboard-response","90","76305","0.0-90.0","","","","","690","img/food6.png","76","692","3","1","2","1","1,0.7,0,1,0.7,0,0.7,0,1","0.7,0,1,0.7,0,1,0,1,0.7","2","",""
"","html-keyboard-response","91","76631","0.0-91.0","","","","","null","<img src=""img/food6.png"" style=""width:200px; border:14px solid green;"">","null","","","","","","","","","",""
"","image-keyboard-response","92","77008","0.0-92.0","","","","","374","img/food6.png","76","376","3","1","2","1","1,0.7,0,1,0.7,0,0.7,0,1","0.7,0,1,0.7,0,1,0,1,0.7","2","",""
"","html-keyboard-response","93","77313","0.0-93.0","","","","","null","<img src=""img/food6.png"" style=""width:200px; border:14px solid green;"">","null","","","","","","","","","",""
"","image-keyboard-response","94","78168","0.0-94.0","","","","","852","img/food2.png","76","855","3","1","1","1","1,0.7,0,1,0.7,0,0.7,0,1","0.7,0,1,0.7,0,1,0,1,0.7","2","",""
"","html-keyboard-response","95","78473","0.0-95.0","","","","","null","<img src=""img/food2.png"" style=""width:200px; border:14px solid green;"">","null","","","","","","","","","",""
"","image-keyboard-response","96","78865","0.0-96.0","","","","","389","img/food2.png","76","391","3","1","1","1","1,0.7,0,1,0.7,0,0.7,0,1","0.7,0,1,0.7,0,1,0,1,0.7","2","",""
"","html-keyboard-response","97","79171","0.0-97.0","","","","","null","<img src=""img/food2.png"" style=""width:200px; border:14px solid green;"">","null","","","","","","","","","",""
"","image-keyboard-response","98","79592","0.0-98.0","","","","","419","img/food2.png","76","420","3","1","1","1","1,0.7,0,1,0.7,0,0.7,0,1","0.7,0,1,0.7,0,1,0,1,0.7","2","",""
"","html-keyboard-response","99","79895","0.0-99.0","","","","","null","<img src=""img/food2.png"" style=""width:200px; border:14px solid green;"">","null","","","","","","","","","",""
"","image-keyboard-response","100","80464","0.0-100.0","","","","","567","img/food4.png","75","568","2","1","3","1","1,0.7,0,1,0.7,0,0.7,0,1","0.7,0,1,0.7,0,1,0,1,0.7","2","",""
"","html-keyboard-response","101","80768","0.0-101.0","","","","","null","<img src=""img/food4.png"" style=""width:200px; border:14px solid green;"">","null","","","","","","","","","",""
"","image-keyboard-response","102","81384","0.0-102.0","","","","","615","img/food4.png","75","616","2","1","3","1","1,0.7,0,1,0.7,0,0.7,0,1","0.7,0,1,0.7,0,1,0,1,0.7","2","",""
"","html-keyboard-response","103","81689","0.0-103.0","","","","","null","<img src=""img/food4.png"" style=""width:200px; border:14px solid green;"">","null","","","","","","","","","",""
"","image-keyboard-response","104","82185","0.0-104.0","","","","","493","img/food6.png","76","496","3","1","2","1","1,0.7,0,1,0.7,0,0.7,0,1","0.7,0,1,0.7,0,1,0,1,0.7","2","",""
"","html-keyboard-response","105","82520","0.0-105.0","","","","","null","<img src=""img/food6.png"" style=""width:200px; border:14px solid green;"">","null","","","","","","","","","",""
"","image-keyboard-response","106","83024","0.0-106.0","","","","","503","img/food2.png","76","505","3","1","1","1","1,0.7,0,1,0.7,0,0.7,0,1","0.7,0,1,0.7,0,1,0,1,0.7","2","",""
"","html-keyboard-response","107","83328","0.0-107.0","","","","","null","<img src=""img/food2.png"" style=""width:200px; border:14px solid green;"">","null","","","","","","","","","",""
"","image-keyboard-response","108","83921","0.0-108.0","","","","","589","img/food6.png","76","591","3","1","2","1","1,0.7,0,1,0.7,0,0.7,0,1","0.7,0,1,0.7,0,1,0,1,0.7","2","",""
"","html-keyboard-response","109","84223","0.0-109.0","","","","","null","<img src=""img/food6.png"" style=""width:200px; border:14px solid green;"">","null","","","","","","","","","",""
"","image-keyboard-response","110","84504","0.0-110.0","","","","","279","img/food2.png","76","280","3","1","1","1","1,0.7,0,1,0.7,0,0.7,0,1","0.7,0,1,0.7,0,1,0,1,0.7","2","",""
"","html-keyboard-response","111","84807","0.0-111.0","","","","","null","<img src=""img/food2.png"" style=""width:200px; border:14px solid green;"">","null","","","","","","","","","",""
"","image-keyboard-response","112","85153","0.0-112.0","","","","","343","img/food4.png","76","345","3","1","3","1","1,0.7,0,1,0.7,0,0.7,0,1","0.7,0,1,0.7,0,1,0,1,0.7","2","",""
"","html-keyboard-response","113","85511","0.0-113.0","","","","","null","<img src=""img/food4.png"" style=""width:200px; border:14px solid green;"">","null","","","","","","","","","",""
"","image-keyboard-response","114","86609","0.0-114.0","","","","","1095","img/food2.png","76","1097","3","1","1","1","1,0.7,0,1,0.7,0,0.7,0,1","0.7,0,1,0.7,0,1,0,1,0.7","2","",""
"","html-keyboard-response","115","86912","0.0-115.0","","","","","null","<img src=""img/food2.png"" style=""width:200px; border:14px solid green;"">","null","","","","","","","","","",""
"","image-keyboard-response","116","87297","0.0-116.0","","","","","383","img/food2.png","76","385","3","1","1","1","1,0.7,0,1,0.7,0,0.7,0,1","0.7,0,1,0.7,0,1,0,1,0.7","2","",""
"","html-keyboard-response","117","87602","0.0-117.0","","","","","null","<img src=""img/food2.png"" style=""width:200px; border:14px solid green;"">","null","","","","","","","","","",""
"","image-keyboard-response","118","88009","0.0-118.0","","","","","404","img/food2.png","76","406","3","1","1","1","1,0.7,0,1,0.7,0,0.7,0,1","0.7,0,1,0.7,0,1,0,1,0.7","2","",""
"","html-keyboard-response","119","88311","0.0-119.0","","","","","null","<img src=""img/food2.png"" style=""width:200px; border:14px solid green;"">","null","","","","","","","","","",""
"","image-keyboard-response","120","88953","0.0-120.0","","","","","639","img/food4.png","75","641","2","1","3","1","1,0.7,0,1,0.7,0,0.7,0,1","0.7,0,1,0.7,0,1,0,1,0.7","2","",""
"","html-keyboard-response","121","89255","0.0-121.0","","","","","null","<img src=""img/food4.png"" style=""width:200px; border:14px solid green;"">","null","","","","","","","","","",""
"","image-keyboard-response","122","89928","0.0-122.0","","","","","671","img/food6.png","76","673","3","1","2","1","1,0.7,0,1,0.7,0,0.7,0,1","0.7,0,1,0.7,0,1,0,1,0.7","2","",""
"","html-keyboard-response","123","90230","0.0-123.0","","","","","null","<img src=""img/food6.png"" style=""width:200px; border:14px solid green;"">","null","","","","","","","","","",""
"","image-keyboard-response","124","91016","0.0-124.0","","","","","783","img/food4.png","76","786","3","0","3","1","1,0.7,0,1,0.7,0,0.7,0,1","0.7,0,1,0.7,0,1,0,1,0.7","2","",""
"","html-keyboard-response","125","91319","0.0-125.0","","","","","null","<img src=""img/food4.png"" style=""width:200px;border:14px solid red;"">","null","","","","","","","","","",""
"","image-keyboard-response","126","92032","0.0-126.0","","","","","711","img/food6.png","76","713","3","1","2","1","1,0.7,0,1,0.7,0,0.7,0,1","0.7,0,1,0.7,0,1,0,1,0.7","2","",""
"","html-keyboard-response","127","92335","0.0-127.0","","","","","null","<img src=""img/food6.png"" style=""width:200px; border:14px solid green;"">","null","","","","","","","","","",""
"","image-keyboard-response","128","92665","0.0-128.0","","","","","327","img/food6.png","76","329","3","1","2","1","1,0.7,0,1,0.7,0,0.7,0,1","0.7,0,1,0.7,0,1,0,1,0.7","2","",""
"","html-keyboard-response","129","92967","0.0-129.0","","","","","null","<img src=""img/food6.png"" style=""width:200px; border:14px solid green;"">","null","","","","","","","","","",""
"","image-keyboard-response","130","93616","0.0-130.0","","","","","647","img/food2.png","76","648","3","1","1","1","1,0.7,0,1,0.7,0,0.7,0,1","0.7,0,1,0.7,0,1,0,1,0.7","2","",""
"","html-keyboard-response","131","93919","0.0-131.0","","","","","null","<img src=""img/food2.png"" style=""width:200px; border:14px solid green;"">","null","","","","","","","","","",""
"","image-keyboard-response","132","94344","0.0-132.0","","","","","423","img/food2.png","76","425","3","1","1","1","1,0.7,0,1,0.7,0,0.7,0,1","0.7,0,1,0.7,0,1,0,1,0.7","2","",""
"","html-keyboard-response","133","94674","0.0-133.0","","","","","null","<img src=""img/food2.png"" style=""width:200px; border:14px solid green;"">","null","","","","","","","","","",""
"","image-keyboard-response","134","95120","0.0-134.0","","","","","444","img/food2.png","76","446","3","1","1","1","1,0.7,0,1,0.7,0,0.7,0,1","0.7,0,1,0.7,0,1,0,1,0.7","2","",""
"","html-keyboard-response","135","95423","0.0-135.0","","","","","null","<img src=""img/food2.png"" style=""width:200px; border:14px solid green;"">","null","","","","","","","","","",""
"","image-keyboard-response","136","96465","0.0-136.0","","","","","1039","img/food6.png","76","1041","3","1","2","1","1,0.7,0,1,0.7,0,0.7,0,1","0.7,0,1,0.7,0,1,0,1,0.7","2","",""
"","html-keyboard-response","137","96767","0.0-137.0","","","","","null","<img src=""img/food6.png"" style=""width:200px; border:14px solid green;"">","null","","","","","","","","","",""
"","image-keyboard-response","138","97424","0.0-138.0","","","","","655","img/food4.png","75","657","2","1","3","1","1,0.7,0,1,0.7,0,0.7,0,1","0.7,0,1,0.7,0,1,0,1,0.7","2","",""
"","html-keyboard-response","139","97779","0.0-139.0","","","","","null","<img src=""img/food4.png"" style=""width:200px; border:14px solid green;"">","null","","","","","","","","","",""
"","image-keyboard-response","140","98240","0.0-140.0","","","","","459","img/food4.png","75","461","2","1","3","1","1,0.7,0,1,0.7,0,0.7,0,1","0.7,0,1,0.7,0,1,0,1,0.7","2","",""
"","html-keyboard-response","141","98543","0.0-141.0","","","","","null","<img src=""img/food4.png"" style=""width:200px; border:14px solid green;"">","null","","","","","","","","","",""
"","image-keyboard-response","142","99024","0.0-142.0","","","","","479","img/food6.png","76","480","3","1","2","1","1,0.7,0,1,0.7,0,0.7,0,1","0.7,0,1,0.7,0,1,0,1,0.7","2","",""
"","html-keyboard-response","143","99328","0.0-143.0","","","","","null","<img src=""img/food6.png"" style=""width:200px; border:14px solid green;"">","null","","","","","","","","","",""
"","image-keyboard-response","144","100145","0.0-144.0","","","","","813","img/food4.png","75","815","2","1","3","1","1,0.7,0,1,0.7,0,0.7,0,1","0.7,0,1,0.7,0,1,0,1,0.7","2","",""
"","html-keyboard-response","145","100447","0.0-145.0","","","","","null","<img src=""img/food4.png"" style=""width:200px; border:14px solid green;"">","null","","","","","","","","","",""
"","image-keyboard-response","146","100953","0.0-146.0","","","","","503","img/food2.png","76","504","3","1","1","1","1,0.7,0,1,0.7,0,0.7,0,1","0.7,0,1,0.7,0,1,0,1,0.7","2","",""
"","html-keyboard-response","147","101257","0.0-147.0","","","","","null","<img src=""img/food2.png"" style=""width:200px; border:14px solid green;"">","null","","","","","","","","","",""
"","image-keyboard-response","148","101729","0.0-148.0","","","","","468","img/food2.png","76","469","3","1","1","1","1,0.7,0,1,0.7,0,0.7,0,1","0.7,0,1,0.7,0,1,0,1,0.7","2","",""
"","html-keyboard-response","149","102031","0.0-149.0","","","","","null","<img src=""img/food2.png"" style=""width:200px; border:14px solid green;"">","null","","","","","","","","","",""
"","image-keyboard-response","150","102680","0.0-150.0","","","","","646","img/food6.png","76","650","3","1","2","1","1,0.7,0,1,0.7,0,0.7,0,1","0.7,0,1,0.7,0,1,0,1,0.7","2","",""
"","html-keyboard-response","151","102983","0.0-151.0","","","","","null","<img src=""img/food6.png"" style=""width:200px; border:14px solid green;"">","null","","","","","","","","","",""
"","image-keyboard-response","152","103544","0.0-152.0","","","","","559","img/food4.png","75","561","2","1","3","1","1,0.7,0,1,0.7,0,0.7,0,1","0.7,0,1,0.7,0,1,0,1,0.7","2","",""
"","html-keyboard-response","153","103853","0.0-153.0","","","","","null","<img src=""img/food4.png"" style=""width:200px; border:14px solid green;"">","null","","","","","","","","","",""
"","image-keyboard-response","154","104472","0.0-154.0","","","","","618","img/food4.png","75","620","2","1","3","1","1,0.7,0,1,0.7,0,0.7,0,1","0.7,0,1,0.7,0,1,0,1,0.7","2","",""
"","html-keyboard-response","155","104775","0.0-155.0","","","","","null","<img src=""img/food4.png"" style=""width:200px; border:14px solid green;"">","null","","","","","","","","","",""
"","image-keyboard-response","156","105248","0.0-156.0","","","","","471","img/food6.png","76","473","3","1","2","1","1,0.7,0,1,0.7,0,0.7,0,1","0.7,0,1,0.7,0,1,0,1,0.7","2","",""
"","html-keyboard-response","157","105555","0.0-157.0","","","","","null","<img src=""img/food6.png"" style=""width:200px; border:14px solid green;"">","null","","","","","","","","","",""
"","image-keyboard-response","158","105977","0.0-158.0","","","","","418","img/food2.png","76","420","3","1","1","1","1,0.7,0,1,0.7,0,0.7,0,1","0.7,0,1,0.7,0,1,0,1,0.7","2","",""
"","html-keyboard-response","159","106281","0.0-159.0","","","","","null","<img src=""img/food2.png"" style=""width:200px; border:14px solid green;"">","null","","","","","","","","","",""
"","image-keyboard-response","160","106849","0.0-160.0","","","","","567","img/food6.png","75","568","2","0","2","1","1,0.7,0,1,0.7,0,0.7,0,1","0.7,0,1,0.7,0,1,0,1,0.7","2","",""
"","html-keyboard-response","161","107153","0.0-161.0","","","","","null","<img src=""img/food6.png"" style=""width:200px;border:14px solid red;"">","null","","","","","","","","","",""
"","image-keyboard-response","162","107624","0.0-162.0","","","","","469","img/food4.png","76","471","3","1","3","1","1,0.7,0,1,0.7,0,0.7,0,1","0.7,0,1,0.7,0,1,0,1,0.7","2","",""
"","html-keyboard-response","163","107928","0.0-163.0","","","","","null","<img src=""img/food4.png"" style=""width:200px; border:14px solid green;"">","null","","","","","","","","","",""
"","image-keyboard-response","164","109097","0.0-164.0","","","","","1167","img/food4.png","75","1169","2","1","3","1","1,0.7,0,1,0.7,0,0.7,0,1","0.7,0,1,0.7,0,1,0,1,0.7","2","",""
"","html-keyboard-response","165","109400","0.0-165.0","","","","","null","<img src=""img/food4.png"" style=""width:200px; border:14px solid green;"">","null","","","","","","","","","",""
"","image-keyboard-response","166","109977","0.0-166.0","","","","","574","img/food2.png","76","575","3","1","1","1","1,0.7,0,1,0.7,0,0.7,0,1","0.7,0,1,0.7,0,1,0,1,0.7","2","",""
"","html-keyboard-response","167","110282","0.0-167.0","","","","","null","<img src=""img/food2.png"" style=""width:200px; border:14px solid green;"">","null","","","","","","","","","",""
"","image-keyboard-response","168","110809","0.0-168.0","","","","","524","img/food6.png","76","526","3","1","2","1","1,0.7,0,1,0.7,0,0.7,0,1","0.7,0,1,0.7,0,1,0,1,0.7","2","",""
"","html-keyboard-response","169","111114","0.0-169.0","","","","","null","<img src=""img/food6.png"" style=""width:200px; border:14px solid green;"">","null","","","","","","","","","",""
"","image-keyboard-response","170","111714","0.0-170.0","","","","","597","img/food2.png","76","599","3","1","1","1","1,0.7,0,1,0.7,0,0.7,0,1","0.7,0,1,0.7,0,1,0,1,0.7","2","",""
"","html-keyboard-response","171","112016","0.0-171.0","","","","","null","<img src=""img/food2.png"" style=""width:200px; border:14px solid green;"">","null","","","","","","","","","",""
"","image-keyboard-response","172","112761","0.0-172.0","","","","","741","img/food4.png","75","744","2","1","3","1","1,0.7,0,1,0.7,0,0.7,0,1","0.7,0,1,0.7,0,1,0,1,0.7","2","",""
"","html-keyboard-response","173","113063","0.0-173.0","","","","","null","<img src=""img/food4.png"" style=""width:200px; border:14px solid green;"">","null","","","","","","","","","",""
"","image-keyboard-response","174","113649","0.0-174.0","","","","","582","img/food4.png","75","586","2","1","3","1","1,0.7,0,1,0.7,0,0.7,0,1","0.7,0,1,0.7,0,1,0,1,0.7","2","",""
"","html-keyboard-response","175","113953","0.0-175.0","","","","","null","<img src=""img/food4.png"" style=""width:200px; border:14px solid green;"">","null","","","","","","","","","",""
"","image-keyboard-response","176","114361","0.0-176.0","","","","","405","img/food6.png","76","406","3","1","2","1","1,0.7,0,1,0.7,0,0.7,0,1","0.7,0,1,0.7,0,1,0,1,0.7","2","",""
"","html-keyboard-response","177","114665","0.0-177.0","","","","","null","<img src=""img/food6.png"" style=""width:200px; border:14px solid green;"">","null","","","","","","","","","",""
"","image-keyboard-response","178","115032","0.0-178.0","","","","","366","img/food6.png","76","367","3","1","2","1","1,0.7,0,1,0.7,0,0.7,0,1","0.7,0,1,0.7,0,1,0,1,0.7","2","",""
"","html-keyboard-response","179","115337","0.0-179.0","","","","","null","<img src=""img/food6.png"" style=""width:200px; border:14px solid green;"">","null","","","","","","","","","",""
"","image-keyboard-response","180","115888","0.0-180.0","","","","","549","img/food2.png","76","552","3","1","1","1","1,0.7,0,1,0.7,0,0.7,0,1","0.7,0,1,0.7,0,1,0,1,0.7","2","",""
"","html-keyboard-response","181","116194","0.0-181.0","","","","","null","<img src=""img/food2.png"" style=""width:200px; border:14px solid green;"">","null","","","","","","","","","",""
"","html-keyboard-response","182","126562","0.0-182.0","","","","","","","","","","","","","","","","",""
"","instructions","183","130128","0.0-183.0","","","","[{""page_index"":0,""viewing_time"":2626},{""page_index"":1,""viewing_time"":930}]","3557","","","","","","","","","","","",""
"","image-keyboard-response","184","130569","0.0-184.0","","","","","433","img/food3.png","76","440","3","1","3","2","1,0.7,0,1,0.7,0,0.7,0,1","1,0.7,0,1,0.7,0,0.7,0,1","1","false",""
"","html-keyboard-response","185","130872","0.0-185.0","","","","","null","<img src=""img/food3.png"" style=""width:200px; border:14px solid green;"">","null","","","","","","","","","",""
"","image-keyboard-response","186","131248","0.0-187.0","","","","","372","img/food1.png","76","374","3","0","2","2","1,0.7,0,1,0.7,0,0.7,0,1","1,0.7,0,1,0.7,0,0.7,0,1","1","false",""
"","html-keyboard-response","187","131552","0.0-188.0","","","","","null","<img src=""img/food1.png"" style=""width:200px;border:14px solid red;"">","null","","","","","","","","","",""
"","image-keyboard-response","188","132129","0.0-190.0","","","","","574","img/food1.png","76","577","3","0","2","2","1,0.7,0,1,0.7,0,0.7,0,1","1,0.7,0,1,0.7,0,0.7,0,1","1","false",""
"","html-keyboard-response","189","132432","0.0-191.0","","","","","null","<img src=""img/food1.png"" style=""width:200px;border:14px solid red;"">","null","","","","","","","","","",""
"","image-keyboard-response","190","132817","0.0-193.0","","","","","381","img/food1.png","75","384","2","1","2","2","1,0.7,0,1,0.7,0,0.7,0,1","1,0.7,0,1,0.7,0,0.7,0,1","1","false",""
"","html-keyboard-response","191","133120","0.0-194.0","","","","","null","<img src=""img/food1.png"" style=""width:200px; border:14px solid green;"">","null","","","","","","","","","",""
"","image-keyboard-response","192","133657","0.0-196.0","","","","","534","img/food3.png","76","535","3","1","3","2","1,0.7,0,1,0.7,0,0.7,0,1","1,0.7,0,1,0.7,0,0.7,0,1","1","false",""
"","html-keyboard-response","193","133994","0.0-197.0","","","","","null","<img src=""img/food3.png"" style=""width:200px; border:14px solid green;"">","null","","","","","","","","","",""
"","image-keyboard-response","194","134337","0.0-199.0","","","","","340","img/food3.png","76","341","3","1","3","2","1,0.7,0,1,0.7,0,0.7,0,1","1,0.7,0,1,0.7,0,0.7,0,1","1","false",""
"","html-keyboard-response","195","134641","0.0-200.0","","","","","null","<img src=""img/food3.png"" style=""width:200px; border:14px solid green;"">","null","","","","","","","","","",""
"","image-keyboard-response","196","135033","0.0-202.0","","","","","389","img/food3.png","76","390","3","1","3","2","1,0.7,0,1,0.7,0,0.7,0,1","1,0.7,0,1,0.7,0,0.7,0,1","1","false",""
"","html-keyboard-response","197","135355","0.0-203.0","","","","","null","<img src=""img/food3.png"" style=""width:200px; border:14px solid green;"">","null","","","","","","","","","",""
"","image-keyboard-response","198","135736","0.0-205.0","","","","","379","img/food3.png","76","381","3","1","3","2","1,0.7,0,1,0.7,0,0.7,0,1","1,0.7,0,1,0.7,0,0.7,0,1","1","false",""
"","html-keyboard-response","199","136040","0.0-206.0","","","","","null","<img src=""img/food3.png"" style=""width:200px; border:14px solid green;"">","null","","","","","","","","","",""
"","image-keyboard-response","200","136393","0.0-208.0","","","","","350","img/food3.png","76","352","3","1","3","2","1,0.7,0,1,0.7,0,0.7,0,1","1,0.7,0,1,0.7,0,0.7,0,1","1","false",""
"","html-keyboard-response","201","136736","0.0-209.0","","","","","null","<img src=""img/food3.png"" style=""width:200px; border:14px solid green;"">","null","","","","","","","","","",""
"","image-keyboard-response","202","137625","0.0-211.0","","","","","886","img/food5.png","76","888","3","0","1","2","1,0.7,0,1,0.7,0,0.7,0,1","1,0.7,0,1,0.7,0,0.7,0,1","1","false",""
"","html-keyboard-response","203","137929","0.0-212.0","","","","","null","<img src=""img/food5.png"" style=""width:200px;border:14px solid red;"">","null","","","","","","","","","",""
"","image-keyboard-response","204","138736","0.0-214.0","","","","","804","img/food1.png","75","807","2","1","2","2","1,0.7,0,1,0.7,0,0.7,0,1","1,0.7,0,1,0.7,0,0.7,0,1","1","false",""
"","html-keyboard-response","205","139040","0.0-215.0","","","","","null","<img src=""img/food1.png"" style=""width:200px; border:14px solid green;"">","null","","","","","","","","","",""
"","image-keyboard-response","206","139760","0.0-217.0","","","","","718","img/food3.png","76","720","3","1","3","2","1,0.7,0,1,0.7,0,0.7,0,1","1,0.7,0,1,0.7,0,0.7,0,1","1","false",""
"","html-keyboard-response","207","140063","0.0-218.0","","","","","null","<img src=""img/food3.png"" style=""width:200px; border:14px solid green;"">","null","","","","","","","","","",""
"","image-keyboard-response","208","140489","0.0-220.0","","","","","422","img/food3.png","76","423","3","1","3","2","1,0.7,0,1,0.7,0,0.7,0,1","1,0.7,0,1,0.7,0,0.7,0,1","1","false",""
"","html-keyboard-response","209","140791","0.0-221.0","","","","","null","<img src=""img/food3.png"" style=""width:200px; border:14px solid green;"">","null","","","","","","","","","",""
"","image-keyboard-response","210","141384","0.0-223.0","","","","","590","img/food3.png","76","593","3","1","3","2","1,0.7,0,1,0.7,0,0.7,0,1","1,0.7,0,1,0.7,0,0.7,0,1","1","false",""
"","html-keyboard-response","211","141689","0.0-224.0","","","","","null","<img src=""img/food3.png"" style=""width:200px; border:14px solid green;"">","null","","","","","","","","","",""
"","image-keyboard-response","212","142692","0.0-226.0","","","","","","img/food3.png","","1002","-1","0","3","2","1,0.7,0,1,0.7,0,0.7,0,1","1,0.7,0,1,0.7,0,0.7,0,1","1","true",""
"","html-keyboard-response","213","143015","0.0-227.0","","","","","null","<img src=""img/food3.png"" style=""width:200px;border:14px solid red;"">","null","","","","","","","","","",""
"","html-keyboard-response","214","146121","0.0-228.0-0.0","","","","","","","","","","","","","","","","",""
"","image-keyboard-response","215","146585","0.0-229.0","","","","","456","img/food1.png","76","465","3","0","2","2","1,0.7,0,1,0.7,0,0.7,0,1","1,0.7,0,1,0.7,0,0.7,0,1","1","false",""
"","html-keyboard-response","216","146888","0.0-230.0","","","","","null","<img src=""img/food1.png"" style=""width:200px;border:14px solid red;"">","null","","","","","","","","","",""
"","image-keyboard-response","217","147040","0.0-232.0","","","","","150","img/food3.png","75","151","2","0","3","2","1,0.7,0,1,0.7,0,0.7,0,1","1,0.7,0,1,0.7,0,0.7,0,1","1","false",""
"","html-keyboard-response","218","147343","0.0-233.0","","","","","null","<img src=""img/food3.png"" style=""width:200px;border:14px solid red;"">","null","","","","","","","","","",""
"","image-keyboard-response","219","147787","0.0-235.0","","","","","442","img/food5.png","75","445","2","0","1","2","1,0.7,0,1,0.7,0,0.7,0,1","1,0.7,0,1,0.7,0,0.7,0,1","1","false",""
"","html-keyboard-response","220","148090","0.0-236.0","","","","","null","<img src=""img/food5.png"" style=""width:200px;border:14px solid red;"">","null","","","","","","","","","",""
"","image-keyboard-response","221","148232","0.0-238.0","","","","","140","img/food1.png","74","141","1","1","2","2","1,0.7,0,1,0.7,0,0.7,0,1","1,0.7,0,1,0.7,0,0.7,0,1","1","false",""
"","html-keyboard-response","222","148535","0.0-239.0","","","","","null","<img src=""img/food1.png"" style=""width:200px; border:14px solid green;"">","null","","","","","","","","","",""
"","image-keyboard-response","223","149001","0.0-241.0","","","","","463","img/food3.png","74","465","1","1","3","2","1,0.7,0,1,0.7,0,0.7,0,1","1,0.7,0,1,0.7,0,0.7,0,1","1","false",""
"","html-keyboard-response","224","149303","0.0-242.0","","","","","null","<img src=""img/food3.png"" style=""width:200px; border:14px solid green;"">","null","","","","","","","","","",""
"","image-keyboard-response","225","149896","0.0-244.0","","","","","590","img/food1.png","74","593","1","1","2","2","1,0.7,0,1,0.7,0,0.7,0,1","1,0.7,0,1,0.7,0,0.7,0,1","1","false",""
"","html-keyboard-response","226","150199","0.0-245.0","","","","","null","<img src=""img/food1.png"" style=""width:200px; border:14px solid green;"">","null","","","","","","","","","",""
"","image-keyboard-response","227","150648","0.0-247.0","","","","","446","img/food1.png","74","448","1","1","2","2","1,0.7,0,1,0.7,0,0.7,0,1","1,0.7,0,1,0.7,0,0.7,0,1","1","false",""
"","html-keyboard-response","228","150951","0.0-248.0","","","","","null","<img src=""img/food1.png"" style=""width:200px; border:14px solid green;"">","null","","","","","","","","","",""
"","image-keyboard-response","229","151456","0.0-250.0","","","","","503","img/food1.png","74","505","1","1","2","2","1,0.7,0,1,0.7,0,0.7,0,1","1,0.7,0,1,0.7,0,0.7,0,1","1","false",""
"","html-keyboard-response","230","151759","0.0-251.0","","","","","null","<img src=""img/food1.png"" style=""width:200px; border:14px solid green;"">","null","","","","","","","","","",""
"","image-keyboard-response","231","152184","0.0-253.0","","","","","421","img/food1.png","74","424","1","1","2","2","1,0.7,0,1,0.7,0,0.7,0,1","1,0.7,0,1,0.7,0,0.7,0,1","1","false",""
"","html-keyboard-response","232","152487","0.0-254.0","","","","","null","<img src=""img/food1.png"" style=""width:200px; border:14px solid green;"">","null","","","","","","","","","",""
"","image-keyboard-response","233","153097","0.0-256.0","","","","","606","img/food3.png","74","607","1","1","3","2","1,0.7,0,1,0.7,0,0.7,0,1","1,0.7,0,1,0.7,0,0.7,0,1","1","false",""
"","html-keyboard-response","234","153399","0.0-257.0","","","","","null","<img src=""img/food3.png"" style=""width:200px; border:14px solid green;"">","null","","","","","","","","","",""
"","image-keyboard-response","235","153960","0.0-259.0","","","","","559","img/food5.png","74","560","1","1","1","2","1,0.7,0,1,0.7,0,0.7,0,1","1,0.7,0,1,0.7,0,0.7,0,1","1","false",""
"","html-keyboard-response","236","154264","0.0-260.0","","","","","null","<img src=""img/food5.png"" style=""width:200px; border:14px solid green;"">","null","","","","","","","","","",""
"","image-keyboard-response","237","155120","0.0-262.0","","","","","854","img/food3.png","76","856","3","1","3","2","1,0.7,0,1,0.7,0,0.7,0,1","1,0.7,0,1,0.7,0,0.7,0,1","1","false",""
"","html-keyboard-response","238","155424","0.0-263.0","","","","","null","<img src=""img/food3.png"" style=""width:200px; border:14px solid green;"">","null","","","","","","","","","",""
"","image-keyboard-response","239","155888","0.0-265.0","","","","","462","img/food5.png","74","464","1","1","1","2","1,0.7,0,1,0.7,0,0.7,0,1","1,0.7,0,1,0.7,0,0.7,0,1","1","false",""
"","html-keyboard-response","240","156192","0.0-266.0","","","","","null","<img src=""img/food5.png"" style=""width:200px; border:14px solid green;"">","null","","","","","","","","","",""
"","image-keyboard-response","241","156728","0.0-268.0","","","","","535","img/food3.png","74","536","1","0","3","2","1,0.7,0,1,0.7,0,0.7,0,1","1,0.7,0,1,0.7,0,0.7,0,1","1","false",""
"","html-keyboard-response","242","157032","0.0-269.0","","","","","null","<img src=""img/food3.png"" style=""width:200px;border:14px solid red;"">","null","","","","","","","","","",""
"","image-keyboard-response","243","157664","0.0-271.0","","","","","630","img/food1.png","74","632","1","1","2","2","1,0.7,0,1,0.7,0,0.7,0,1","1,0.7,0,1,0.7,0,0.7,0,1","1","false",""
"","html-keyboard-response","244","157971","0.0-272.0","","","","","null","<img src=""img/food1.png"" style=""width:200px; border:14px solid green;"">","null","","","","","","","","","",""
"","image-keyboard-response","245","158152","0.0-274.0","","","","","177","img/food5.png","74","179","1","1","1","2","1,0.7,0,1,0.7,0,0.7,0,1","1,0.7,0,1,0.7,0,0.7,0,1","1","false",""
"","html-keyboard-response","246","158455","0.0-275.0","","","","","null","<img src=""img/food5.png"" style=""width:200px; border:14px solid green;"">","null","","","","","","","","","",""
"","image-keyboard-response","247","159192","0.0-277.0","","","","","735","img/food3.png","76","736","3","1","3","2","1,0.7,0,1,0.7,0,0.7,0,1","1,0.7,0,1,0.7,0,0.7,0,1","1","false",""
"","html-keyboard-response","248","159496","0.0-278.0","","","","","null","<img src=""img/food3.png"" style=""width:200px; border:14px solid green;"">","null","","","","","","","","","",""
"","image-keyboard-response","249","160104","0.0-280.0","","","","","606","img/food1.png","74","608","1","1","2","2","1,0.7,0,1,0.7,0,0.7,0,1","1,0.7,0,1,0.7,0,0.7,0,1","1","false",""
"","html-keyboard-response","250","160408","0.0-281.0","","","","","null","<img src=""img/food1.png"" style=""width:200px; border:14px solid green;"">","null","","","","","","","","","",""
"","image-keyboard-response","251","160808","0.0-283.0","","","","","397","img/food1.png","74","399","1","1","2","2","1,0.7,0,1,0.7,0,0.7,0,1","1,0.7,0,1,0.7,0,0.7,0,1","1","false",""
"","html-keyboard-response","252","161112","0.0-284.0","","","","","null","<img src=""img/food1.png"" style=""width:200px; border:14px solid green;"">","null","","","","","","","","","",""
"","image-keyboard-response","253","161681","0.0-286.0","","","","","566","img/food3.png","76","567","3","1","3","2","1,0.7,0,1,0.7,0,0.7,0,1","1,0.7,0,1,0.7,0,0.7,0,1","1","false",""
"","html-keyboard-response","254","161983","0.0-287.0","","","","","null","<img src=""img/food3.png"" style=""width:200px; border:14px solid green;"">","null","","","","","","","","","",""
"","image-keyboard-response","255","162376","0.0-289.0","","","","","390","img/food5.png","74","393","1","1","1","2","1,0.7,0,1,0.7,0,0.7,0,1","1,0.7,0,1,0.7,0,0.7,0,1","1","false",""
"","html-keyboard-response","256","162680","0.0-290.0","","","","","null","<img src=""img/food5.png"" style=""width:200px; border:14px solid green;"">","null","","","","","","","","","",""
"","image-keyboard-response","257","163025","0.0-292.0","","","","","342","img/food5.png","74","343","1","1","1","2","1,0.7,0,1,0.7,0,0.7,0,1","1,0.7,0,1,0.7,0,0.7,0,1","1","false",""
"","html-keyboard-response","258","163327","0.0-293.0","","","","","null","<img src=""img/food5.png"" style=""width:200px; border:14px solid green;"">","null","","","","","","","","","",""
"","image-keyboard-response","259","163744","0.0-295.0","","","","","413","img/food5.png","74","416","1","1","1","2","1,0.7,0,1,0.7,0,0.7,0,1","1,0.7,0,1,0.7,0,0.7,0,1","1","false",""
"","html-keyboard-response","260","164051","0.0-296.0","","","","","null","<img src=""img/food5.png"" style=""width:200px; border:14px solid green;"">","null","","","","","","","","","",""
"","image-keyboard-response","261","164488","0.0-298.0","","","","","435","img/food5.png","74","436","1","1","1","2","1,0.7,0,1,0.7,0,0.7,0,1","1,0.7,0,1,0.7,0,0.7,0,1","1","false",""
"","html-keyboard-response","262","164791","0.0-299.0","","","","","null","<img src=""img/food5.png"" style=""width:200px; border:14px solid green;"">","null","","","","","","","","","",""
"","image-keyboard-response","263","165224","0.0-301.0","","","","","430","img/food5.png","74","433","1","1","1","2","1,0.7,0,1,0.7,0,0.7,0,1","1,0.7,0,1,0.7,0,0.7,0,1","1","false",""
"","html-keyboard-response","264","165527","0.0-302.0","","","","","null","<img src=""img/food5.png"" style=""width:200px; border:14px solid green;"">","null","","","","","","","","","",""
"","image-keyboard-response","265","166512","0.0-304.0","","","","","981","img/food5.png","74","984","1","1","1","2","1,0.7,0,1,0.7,0,0.7,0,1","1,0.7,0,1,0.7,0,0.7,0,1","1","false",""
"","html-keyboard-response","266","166853","0.0-305.0","","","","","null","<img src=""img/food5.png"" style=""width:200px; border:14px solid green;"">","null","","","","","","","","","",""
"","image-keyboard-response","267","167096","0.0-307.0","","","","","240","img/food5.png","74","244","1","1","1","2","1,0.7,0,1,0.7,0,0.7,0,1","1,0.7,0,1,0.7,0,0.7,0,1","1","false",""
"","html-keyboard-response","268","167400","0.0-308.0","","","","","null","<img src=""img/food5.png"" style=""width:200px; border:14px solid green;"">","null","","","","","","","","","",""
"","image-keyboard-response","269","167808","0.0-310.0","","","","","405","img/food5.png","74","409","1","1","1","2","1,0.7,0,1,0.7,0,0.7,0,1","1,0.7,0,1,0.7,0,0.7,0,1","1","false",""
"","html-keyboard-response","270","168112","0.0-311.0","","","","","null","<img src=""img/food5.png"" style=""width:200px; border:14px solid green;"">","null","","","","","","","","","",""
"","image-keyboard-response","271","168513","0.0-313.0","","","","","400","img/food3.png","74","401","1","1","3","2","1,0.7,0,1,0.7,0,0.7,0,1","1,0.7,0,1,0.7,0,0.7,0,1","1","false",""
"","html-keyboard-response","272","168846","0.0-314.0","","","","","null","<img src=""img/food3.png"" style=""width:200px; border:14px solid green;"">","null","","","","","","","","","",""
"","image-keyboard-response","273","169529","0.0-316.0","","","","","679","img/food1.png","74","682","1","1","2","2","1,0.7,0,1,0.7,0,0.7,0,1","1,0.7,0,1,0.7,0,0.7,0,1","1","false",""
"","html-keyboard-response","274","169846","0.0-317.0","","","","","null","<img src=""img/food1.png"" style=""width:200px; border:14px solid green;"">","null","","","","","","","","","",""
"","image-keyboard-response","275","170224","0.0-319.0","","","","","376","img/food1.png","74","377","1","1","2","2","1,0.7,0,1,0.7,0,0.7,0,1","1,0.7,0,1,0.7,0,0.7,0,1","1","false",""
"","html-keyboard-response","276","170531","0.0-320.0","","","","","null","<img src=""img/food1.png"" style=""width:200px; border:14px solid green;"">","null","","","","","","","","","",""
"","image-keyboard-response","277","171456","0.0-322.0","","","","","924","img/food5.png","74","925","1","1","1","2","1,0.7,0,1,0.7,0,0.7,0,1","1,0.7,0,1,0.7,0,0.7,0,1","1","false",""
"","html-keyboard-response","278","171760","0.0-323.0","","","","","null","<img src=""img/food5.png"" style=""width:200px; border:14px solid green;"">","null","","","","","","","","","",""
"","image-keyboard-response","279","172121","0.0-325.0","","","","","359","img/food5.png","74","360","1","1","1","2","1,0.7,0,1,0.7,0,0.7,0,1","1,0.7,0,1,0.7,0,0.7,0,1","1","false",""
"","html-keyboard-response","280","172424","0.0-326.0","","","","","null","<img src=""img/food5.png"" style=""width:200px; border:14px solid green;"">","null","","","","","","","","","",""
"","image-keyboard-response","281","172624","0.0-328.0","","","","","198","img/food3.png","74","199","1","0","3","2","1,0.7,0,1,0.7,0,0.7,0,1","1,0.7,0,1,0.7,0,0.7,0,1","1","false",""
"","html-keyboard-response","282","172938","0.0-329.0","","","","","null","<img src=""img/food3.png"" style=""width:200px;border:14px solid red;"">","null","","","","","","","","","",""
"","image-keyboard-response","283","173521","0.0-331.0","","","","","579","img/food3.png","74","581","1","0","3","2","1,0.7,0,1,0.7,0,0.7,0,1","1,0.7,0,1,0.7,0,0.7,0,1","1","false",""
"","html-keyboard-response","284","173825","0.0-332.0","","","","","null","<img src=""img/food3.png"" style=""width:200px;border:14px solid red;"">","null","","","","","","","","","",""
"","image-keyboard-response","285","173936","0.0-334.0","","","","","109","img/food5.png","76","111","3","0","1","2","1,0.7,0,1,0.7,0,0.7,0,1","1,0.7,0,1,0.7,0,0.7,0,1","1","false",""
"","html-keyboard-response","286","174253","0.0-335.0","","","","","null","<img src=""img/food5.png"" style=""width:200px;border:14px solid red;"">","null","","","","","","","","","",""
"","image-keyboard-response","287","174721","0.0-337.0","","","","","465","img/food5.png","74","466","1","1","1","2","1,0.7,0,1,0.7,0,0.7,0,1","1,0.7,0,1,0.7,0,0.7,0,1","1","false",""
"","html-keyboard-response","288","175024","0.0-338.0","","","","","null","<img src=""img/food5.png"" style=""width:200px; border:14px solid green;"">","null","","","","","","","","","",""
"","image-keyboard-response","289","175385","0.0-340.0","","","","","357","img/food5.png","76","360","3","0","1","2","1,0.7,0,1,0.7,0,0.7,0,1","1,0.7,0,1,0.7,0,0.7,0,1","1","false",""
"","html-keyboard-response","290","175689","0.0-341.0","","","","","null","<img src=""img/food5.png"" style=""width:200px;border:14px solid red;"">","null","","","","","","","","","",""
"","image-keyboard-response","291","176409","0.0-343.0","","","","","717","img/food3.png","76","720","3","1","3","2","1,0.7,0,1,0.7,0,0.7,0,1","1,0.7,0,1,0.7,0,0.7,0,1","1","false",""
"","html-keyboard-response","292","176712","0.0-344.0","","","","","null","<img src=""img/food3.png"" style=""width:200px; border:14px solid green;"">","null","","","","","","","","","",""
"","image-keyboard-response","293","177369","0.0-346.0","","","","","654","img/food5.png","74","656","1","1","1","2","1,0.7,0,1,0.7,0,0.7,0,1","1,0.7,0,1,0.7,0,0.7,0,1","1","false",""
"","html-keyboard-response","294","177674","0.0-347.0","","","","","null","<img src=""img/food5.png"" style=""width:200px; border:14px solid green;"">","null","","","","","","","","","",""
"","image-keyboard-response","295","178304","0.0-349.0","","","","","628","img/food3.png","76","631","3","1","3","2","1,0.7,0,1,0.7,0,0.7,0,1","1,0.7,0,1,0.7,0,0.7,0,1","1","false",""
"","html-keyboard-response","296","178609","0.0-350.0","","","","","null","<img src=""img/food3.png"" style=""width:200px; border:14px solid green;"">","null","","","","","","","","","",""
"","image-keyboard-response","297","179353","0.0-352.0","","","","","742","img/food1.png","74","744","1","1","2","2","1,0.7,0,1,0.7,0,0.7,0,1","1,0.7,0,1,0.7,0,0.7,0,1","1","false",""
"","html-keyboard-response","298","179657","0.0-353.0","","","","","null","<img src=""img/food1.png"" style=""width:200px; border:14px solid green;"">","null","","","","","","","","","",""
"","image-keyboard-response","299","180241","0.0-355.0","","","","","581","img/food1.png","74","583","1","1","2","2","1,0.7,0,1,0.7,0,0.7,0,1","1,0.7,0,1,0.7,0,0.7,0,1","1","false",""
"","html-keyboard-response","300","180544","0.0-356.0","","","","","null","<img src=""img/food1.png"" style=""width:200px; border:14px solid green;"">","null","","","","","","","","","",""
"","image-keyboard-response","301","180985","0.0-358.0","","","","","436","img/food1.png","74","439","1","1","2","2","1,0.7,0,1,0.7,0,0.7,0,1","1,0.7,0,1,0.7,0,0.7,0,1","1","false",""
"","html-keyboard-response","302","181290","0.0-359.0","","","","","null","<img src=""img/food1.png"" style=""width:200px; border:14px solid green;"">","null","","","","","","","","","",""
"","image-keyboard-response","303","181721","0.0-361.0","","","","","429","img/food1.png","74","430","1","1","2","2","1,0.7,0,1,0.7,0,0.7,0,1","1,0.7,0,1,0.7,0,0.7,0,1","1","false",""
"","html-keyboard-response","304","182026","0.0-362.0","","","","","null","<img src=""img/food1.png"" style=""width:200px; border:14px solid green;"">","null","","","","","","","","","",""
"","image-keyboard-response","305","182617","0.0-364.0","","","","","587","img/food3.png","76","590","3","1","3","2","1,0.7,0,1,0.7,0,0.7,0,1","1,0.7,0,1,0.7,0,0.7,0,1","1","false",""
"","html-keyboard-response","306","182920","0.0-365.0","","","","","null","<img src=""img/food3.png"" style=""width:200px; border:14px solid green;"">","null","","","","","","","","","",""
"","image-keyboard-response","307","183465","0.0-367.0","","","","","541","img/food1.png","74","544","1","1","2","2","1,0.7,0,1,0.7,0,0.7,0,1","1,0.7,0,1,0.7,0,0.7,0,1","1","false",""
"","html-keyboard-response","308","183768","0.0-368.0","","","","","null","<img src=""img/food1.png"" style=""width:200px; border:14px solid green;"">","null","","","","","","","","","",""
"","image-keyboard-response","309","184241","0.0-370.0","","","","","469","img/food1.png","74","472","1","1","2","2","1,0.7,0,1,0.7,0,0.7,0,1","1,0.7,0,1,0.7,0,0.7,0,1","1","false",""
"","html-keyboard-response","310","184544","0.0-371.0","","","","","null","<img src=""img/food1.png"" style=""width:200px; border:14px solid green;"">","null","","","","","","","","","",""
"","image-keyboard-response","311","185128","0.0-373.0","","","","","581","img/food3.png","76","582","3","1","3","2","1,0.7,0,1,0.7,0,0.7,0,1","1,0.7,0,1,0.7,0,0.7,0,1","1","false",""
"","html-keyboard-response","312","185432","0.0-374.0","","","","","null","<img src=""img/food3.png"" style=""width:200px; border:14px solid green;"">","null","","","","","","","","","",""
"","image-keyboard-response","313","185968","0.0-376.0","","","","","534","img/food1.png","74","536","1","1","2","2","1,0.7,0,1,0.7,0,0.7,0,1","1,0.7,0,1,0.7,0,0.7,0,1","1","false",""
"","html-keyboard-response","314","186273","0.0-377.0","","","","","null","<img src=""img/food1.png"" style=""width:200px; border:14px solid green;"">","null","","","","","","","","","",""
"","image-keyboard-response","315","186889","0.0-379.0","","","","","612","img/food5.png","74","615","1","1","1","2","1,0.7,0,1,0.7,0,0.7,0,1","1,0.7,0,1,0.7,0,0.7,0,1","1","false",""
"","html-keyboard-response","316","187192","0.0-380.0","","","","","null","<img src=""img/food5.png"" style=""width:200px; border:14px solid green;"">","null","","","","","","","","","",""
"","image-keyboard-response","317","187672","0.0-382.0","","","","","477","img/food5.png","74","478","1","1","1","2","1,0.7,0,1,0.7,0,0.7,0,1","1,0.7,0,1,0.7,0,0.7,0,1","1","false",""
"","html-keyboard-response","318","187998","0.0-383.0","","","","","null","<img src=""img/food5.png"" style=""width:200px; border:14px solid green;"">","null","","","","","","","","","",""
"","image-keyboard-response","319","188592","0.0-385.0","","","","","591","img/food1.png","74","594","1","1","2","2","1,0.7,0,1,0.7,0,0.7,0,1","1,0.7,0,1,0.7,0,0.7,0,1","1","false",""
"","html-keyboard-response","320","188897","0.0-386.0","","","","","null","<img src=""img/food1.png"" style=""width:200px; border:14px solid green;"">","null","","","","","","","","","",""
"","image-keyboard-response","321","189400","0.0-388.0","","","","","500","img/food5.png","74","501","1","1","1","2","1,0.7,0,1,0.7,0,0.7,0,1","1,0.7,0,1,0.7,0,0.7,0,1","1","false",""
"","html-keyboard-response","322","189704","0.0-389.0","","","","","null","<img src=""img/food5.png"" style=""width:200px; border:14px solid green;"">","null","","","","","","","","","",""
"","image-keyboard-response","323","190153","0.0-391.0","","","","","445","img/food5.png","74","447","1","1","1","2","1,0.7,0,1,0.7,0,0.7,0,1","1,0.7,0,1,0.7,0,0.7,0,1","1","false",""
"","html-keyboard-response","324","190456","0.0-392.0","","","","","null","<img src=""img/food5.png"" style=""width:200px; border:14px solid green;"">","null","","","","","","","","","",""
"","image-keyboard-response","325","191081","0.0-394.0","","","","","622","img/food3.png","76","624","3","1","3","2","1,0.7,0,1,0.7,0,0.7,0,1","1,0.7,0,1,0.7,0,0.7,0,1","1","false",""
"","html-keyboard-response","326","191386","0.0-395.0","","","","","null","<img src=""img/food3.png"" style=""width:200px; border:14px solid green;"">","null","","","","","","","","","",""
"","image-keyboard-response","327","191936","0.0-397.0","","","","","549","img/food5.png","74","550","1","1","1","2","1,0.7,0,1,0.7,0,0.7,0,1","1,0.7,0,1,0.7,0,0.7,0,1","1","false",""
"","html-keyboard-response","328","192240","0.0-398.0","","","","","null","<img src=""img/food5.png"" style=""width:200px; border:14px solid green;"">","null","","","","","","","","","",""
"","image-keyboard-response","329","192617","0.0-400.0","","","","","373","img/food3.png","74","375","1","1","3","2","1,0.7,0,1,0.7,0,0.7,0,1","1,0.7,0,1,0.7,0,0.7,0,1","1","false",""
"","html-keyboard-response","330","192920","0.0-401.0","","","","","null","<img src=""img/food3.png"" style=""width:200px; border:14px solid green;"">","null","","","","","","","","","",""
"","image-keyboard-response","331","193552","0.0-403.0","","","","","629","img/food3.png","76","630","3","1","3","2","1,0.7,0,1,0.7,0,0.7,0,1","1,0.7,0,1,0.7,0,0.7,0,1","1","false",""
"","html-keyboard-response","332","193875","0.0-404.0","","","","","null","<img src=""img/food3.png"" style=""width:200px; border:14px solid green;"">","null","","","","","","","","","",""
"","image-keyboard-response","333","194489","0.0-406.0","","","","","611","img/food1.png","74","613","1","1","2","2","1,0.7,0,1,0.7,0,0.7,0,1","1,0.7,0,1,0.7,0,0.7,0,1","1","false",""
"","html-keyboard-response","334","194791","0.0-407.0","","","","","null","<img src=""img/food1.png"" style=""width:200px; border:14px solid green;"">","null","","","","","","","","","",""
"","image-keyboard-response","335","195225","0.0-409.0","","","","","430","img/food1.png","74","431","1","1","2","2","1,0.7,0,1,0.7,0,0.7,0,1","1,0.7,0,1,0.7,0,0.7,0,1","1","false",""
"","html-keyboard-response","336","195529","0.0-410.0","","","","","null","<img src=""img/food1.png"" style=""width:200px; border:14px solid green;"">","null","","","","","","","","","",""
"","image-keyboard-response","337","195929","0.0-412.0","","","","","397","img/food1.png","74","399","1","1","2","2","1,0.7,0,1,0.7,0,0.7,0,1","1,0.7,0,1,0.7,0,0.7,0,1","1","false",""
"","html-keyboard-response","338","196233","0.0-413.0","","","","","null","<img src=""img/food1.png"" style=""width:200px; border:14px solid green;"">","null","","","","","","","","","",""
"","image-keyboard-response","339","196840","0.0-415.0","","","","","604","img/food3.png","76","607","3","1","3","2","1,0.7,0,1,0.7,0,0.7,0,1","1,0.7,0,1,0.7,0,0.7,0,1","1","false",""
"","html-keyboard-response","340","197143","0.0-416.0","","","","","null","<img src=""img/food3.png"" style=""width:200px; border:14px solid green;"">","null","","","","","","","","","",""
"","image-keyboard-response","341","197784","0.0-418.0","","","","","638","img/food1.png","74","639","1","1","2","2","1,0.7,0,1,0.7,0,0.7,0,1","1,0.7,0,1,0.7,0,0.7,0,1","1","false",""
"","html-keyboard-response","342","198087","0.0-419.0","","","","","null","<img src=""img/food1.png"" style=""width:200px; border:14px solid green;"">","null","","","","","","","","","",""
"","image-keyboard-response","343","198569","0.0-421.0","","","","","478","img/food5.png","74","481","1","1","1","2","1,0.7,0,1,0.7,0,0.7,0,1","1,0.7,0,1,0.7,0,0.7,0,1","1","false",""
"","html-keyboard-response","344","198873","0.0-422.0","","","","","null","<img src=""img/food5.png"" style=""width:200px; border:14px solid green;"">","null","","","","","","","","","",""
"","image-keyboard-response","345","199305","0.0-424.0","","","","","428","img/food5.png","74","430","1","1","1","2","1,0.7,0,1,0.7,0,0.7,0,1","1,0.7,0,1,0.7,0,0.7,0,1","1","false",""
"","html-keyboard-response","346","199608","0.0-425.0","","","","","null","<img src=""img/food5.png"" style=""width:200px; border:14px solid green;"">","null","","","","","","","","","",""
"","image-keyboard-response","347","200002","0.0-427.0","","","","","392","img/food5.png","74","394","1","1","1","2","1,0.7,0,1,0.7,0,0.7,0,1","1,0.7,0,1,0.7,0,0.7,0,1","1","false",""
"","html-keyboard-response","348","200304","0.0-428.0","","","","","null","<img src=""img/food5.png"" style=""width:200px; border:14px solid green;"">","null","","","","","","","","","",""
"","image-keyboard-response","349","200913","0.0-430.0","","","","","605","img/food3.png","76","607","3","1","3","2","1,0.7,0,1,0.7,0,0.7,0,1","1,0.7,0,1,0.7,0,0.7,0,1","1","false",""
"","html-keyboard-response","350","201218","0.0-431.0","","","","","null","<img src=""img/food3.png"" style=""width:200px; border:14px solid green;"">","null","","","","","","","","","",""
"","image-keyboard-response","351","201761","0.0-433.0","","","","","542","img/food1.png","74","544","1","1","2","2","1,0.7,0,1,0.7,0,0.7,0,1","1,0.7,0,1,0.7,0,0.7,0,1","1","false",""
"","html-keyboard-response","352","202066","0.0-434.0","","","","","null","<img src=""img/food1.png"" style=""width:200px; border:14px solid green;"">","null","","","","","","","","","",""
"","image-keyboard-response","353","202448","0.0-436.0","","","","","380","img/food5.png","74","383","1","1","1","2","1,0.7,0,1,0.7,0,0.7,0,1","1,0.7,0,1,0.7,0,0.7,0,1","1","false",""
"","html-keyboard-response","354","202752","0.0-437.0","","","","","null","<img src=""img/food5.png"" style=""width:200px; border:14px solid green;"">","null","","","","","","","","","",""
"","image-keyboard-response","355","203312","0.0-439.0","","","","","556","img/food1.png","74","559","1","1","2","2","1,0.7,0,1,0.7,0,0.7,0,1","1,0.7,0,1,0.7,0,0.7,0,1","1","false",""
"","html-keyboard-response","356","203616","0.0-440.0","","","","","null","<img src=""img/food1.png"" style=""width:200px; border:14px solid green;"">","null","","","","","","","","","",""
"","image-keyboard-response","357","204105","0.0-442.0","","","","","486","img/food5.png","74","487","1","1","1","2","1,0.7,0,1,0.7,0,0.7,0,1","1,0.7,0,1,0.7,0,0.7,0,1","1","false",""
"","html-keyboard-response","358","204409","0.0-443.0","","","","","null","<img src=""img/food5.png"" style=""width:200px; border:14px solid green;"">","null","","","","","","","","","",""
"","image-keyboard-response","359","204816","0.0-445.0","","","","","404","img/food5.png","74","407","1","1","1","2","1,0.7,0,1,0.7,0,0.7,0,1","1,0.7,0,1,0.7,0,0.7,0,1","1","false",""
"","html-keyboard-response","360","205126","0.0-446.0","","","","","null","<img src=""img/food5.png"" style=""width:200px; border:14px solid green;"">","null","","","","","","","","","",""
"","image-keyboard-response","361","205720","0.0-448.0","","","","","593","img/food3.png","76","594","3","1","3","2","1,0.7,0,1,0.7,0,0.7,0,1","1,0.7,0,1,0.7,0,0.7,0,1","1","false",""
"","html-keyboard-response","362","206025","0.0-449.0","","","","","null","<img src=""img/food3.png"" style=""width:200px; border:14px solid green;"">","null","","","","","","","","","",""
"","image-keyboard-response","363","206505","0.0-451.0","","","","","475","img/food1.png","74","478","1","1","2","2","1,0.7,0,1,0.7,0,0.7,0,1","1,0.7,0,1,0.7,0,0.7,0,1","1","false",""
"","html-keyboard-response","364","206809","0.0-452.0","","","","","null","<img src=""img/food1.png"" style=""width:200px; border:14px solid green;"">","null","","","","","","","","","",""
"","instructions","365","208509","0.0-454.0","","","","[{""page_index"":0,""viewing_time"":1697}]","1698","","","","","","","","","","","",""
"","survey-text","366","213504","0.0-455.0","","","","","4974","","","","","","","","","","","","{""Q0"":""A3CSIM8V9IYXM7""}"
