"success","trial_type","trial_index","time_elapsed","internal_node_id","assignmentID","mturkID","hitID","view_history","rt","stimulus","key_press","reactionTime","a","r","warning","s","cond","reward_cond","reward_cond_actual","reward_matrix_idx","responses"
"true","fullscreen","0","5140","0.0-0.0","34S9DKFK74BBWI537THPSWF8NU4YN2","A3CT8UTPVYUL04","3UDTAB6HH6LRO17U79I9TKUGYFV09C","","","","","","","","","","","","","",""
"","instructions","1","13819","0.0-1.0","34S9DKFK74BBWI537THPSWF8NU4YN2","A3CT8UTPVYUL04","3UDTAB6HH6LRO17U79I9TKUGYFV09C","[{""page_index"":0,""viewing_time"":1357},{""page_index"":1,""viewing_time"":848},{""page_index"":2,""viewing_time"":784},{""page_index"":3,""viewing_time"":1527},{""page_index"":4,""viewing_time"":1064},{""page_index"":5,""viewing_time"":1840},{""page_index"":6,""viewing_time"":1255}]","8676","","","","","","","","","","","",""
"","instructions","2","19145","0.0-2.0","34S9DKFK74BBWI537THPSWF8NU4YN2","A3CT8UTPVYUL04","3UDTAB6HH6LRO17U79I9TKUGYFV09C","[{""page_index"":0,""viewing_time"":4452},{""page_index"":1,""viewing_time"":872}]","5325","","","","","","","","","","","",""
"","image-keyboard-response","3","20150","0.0-3.0","34S9DKFK74BBWI537THPSWF8NU4YN2","A3CT8UTPVYUL04","3UDTAB6HH6LRO17U79I9TKUGYFV09C","","","img/food5.png","","1004","-1","0","true","2","2","1,0.5,0,1,0.5,0,0.5,0,1","0,1,0.5,0,1,0.5,1,0.5,0","3",""
"","html-keyboard-response","4","20468","0.0-4.0","34S9DKFK74BBWI537THPSWF8NU4YN2","A3CT8UTPVYUL04","3UDTAB6HH6LRO17U79I9TKUGYFV09C","","null","<img src=""img/food5.png"" style=""width:200px;border:14px solid red;"">","null","","","","","","","","","",""
"","html-keyboard-response","5","24430","0.0-5.0-0.0","34S9DKFK74BBWI537THPSWF8NU4YN2","A3CT8UTPVYUL04","3UDTAB6HH6LRO17U79I9TKUGYFV09C","","","","","","","","","","","","","",""
"","image-keyboard-response","6","24727","0.0-6.0","34S9DKFK74BBWI537THPSWF8NU4YN2","A3CT8UTPVYUL04","3UDTAB6HH6LRO17U79I9TKUGYFV09C","","292","img/food5.png","75","296","2","1","false","2","2","1,0.5,0,1,0.5,0,0.5,0,1","0,1,0.5,0,1,0.5,1,0.5,0","3",""
"","html-keyboard-response","7","25040","0.0-7.0","34S9DKFK74BBWI537THPSWF8NU4YN2","A3CT8UTPVYUL04","3UDTAB6HH6LRO17U79I9TKUGYFV09C","","null","<img src=""img/food5.png"" style=""width:200px; border:14px solid green;"">","null","","","","","","","","","",""
"","image-keyboard-response","8","25254","0.0-9.0","34S9DKFK74BBWI537THPSWF8NU4YN2","A3CT8UTPVYUL04","3UDTAB6HH6LRO17U79I9TKUGYFV09C","","213","img/food2.png","75","213","2","1","false","3","2","1,0.5,0,1,0.5,0,0.5,0,1","0,1,0.5,0,1,0.5,1,0.5,0","3",""
"","html-keyboard-response","9","25559","0.0-10.0","34S9DKFK74BBWI537THPSWF8NU4YN2","A3CT8UTPVYUL04","3UDTAB6HH6LRO17U79I9TKUGYFV09C","","null","<img src=""img/food2.png"" style=""width:200px; border:14px solid green;"">","null","","","","","","","","","",""
"","image-keyboard-response","10","25586","0.0-12.0","34S9DKFK74BBWI537THPSWF8NU4YN2","A3CT8UTPVYUL04","3UDTAB6HH6LRO17U79I9TKUGYFV09C","","25","img/food1.png","75","26","2","1","false","1","2","1,0.5,0,1,0.5,0,0.5,0,1","0,1,0.5,0,1,0.5,1,0.5,0","3",""
"","html-keyboard-response","11","25913","0.0-13.0","34S9DKFK74BBWI537THPSWF8NU4YN2","A3CT8UTPVYUL04","3UDTAB6HH6LRO17U79I9TKUGYFV09C","","null","<img src=""img/food1.png"" style=""width:200px; border:14px solid green;"">","null","","","","","","","","","",""
"","image-keyboard-response","12","25941","0.0-15.0","34S9DKFK74BBWI537THPSWF8NU4YN2","A3CT8UTPVYUL04","3UDTAB6HH6LRO17U79I9TKUGYFV09C","","27","img/food1.png","74","28","1","0","false","1","2","1,0.5,0,1,0.5,0,0.5,0,1","0,1,0.5,0,1,0.5,1,0.5,0","3",""
"","html-keyboard-response","13","26248","0.0-16.0","34S9DKFK74BBWI537THPSWF8NU4YN2","A3CT8UTPVYUL04","3UDTAB6HH6LRO17U79I9TKUGYFV09C","","null","<img src=""img/food1.png"" style=""width:200px;border:14px solid red;"">","null","","","","","","","","","",""
"","image-keyboard-response","14","26326","0.0-18.0","34S9DKFK74BBWI537THPSWF8NU4YN2","A3CT8UTPVYUL04","3UDTAB6HH6LRO17U79I9TKUGYFV09C","","77","img/food5.png","75","79","2","1","false","2","2","1,0.5,0,1,0.5,0,0.5,0,1","0,1,0.5,0,1,0.5,1,0.5,0","3",""
"","html-keyboard-response","15","26633","0.0-19.0","34S9DKFK74BBWI537THPSWF8NU4YN2","A3CT8UTPVYUL04","3UDTAB6HH6LRO17U79I9TKUGYFV09C","","null","<img src=""img/food5.png"" style=""width:200px; border:14px solid green;"">","null","","","","","","","","","",""
"","image-keyboard-response","16","26670","0.0-21.0","34S9DKFK74BBWI537THPSWF8NU4YN2","A3CT8UTPVYUL04","3UDTAB6HH6LRO17U79I9TKUGYFV09C","","35","img/food1.png","74","35","1","0","false","1","2","1,0.5,0,1,0.5,0,0.5,0,1","0,1,0.5,0,1,0.5,1,0.5,0","3",""
"","html-keyboard-response","17","26991","0.0-22.0","34S9DKFK74BBWI537THPSWF8NU4YN2","A3CT8UTPVYUL04","3UDTAB6HH6LRO17U79I9TKUGYFV09C","","null","<img src=""img/food1.png"" style=""width:200px;border:14px solid red;"">","null","","","","","","","","","",""
"","image-keyboard-response","18","27019","0.0-24.0","34S9DKFK74BBWI537THPSWF8NU4YN2","A3CT8UTPVYUL04","3UDTAB6HH6LRO17U79I9TKUGYFV09C","","26","img/food5.png","75","27","2","1","false","2","2","1,0.5,0,1,0.5,0,0.5,0,1","0,1,0.5,0,1,0.5,1,0.5,0","3",""
"","html-keyboard-response","19","27322","0.0-25.0","34S9DKFK74BBWI537THPSWF8NU4YN2","A3CT8UTPVYUL04","3UDTAB6HH6LRO17U79I9TKUGYFV09C","","null","<img src=""img/food5.png"" style=""width:200px; border:14px solid green;"">","null","","","","","","","","","",""
"","image-keyboard-response","20","27405","0.0-27.0","34S9DKFK74BBWI537THPSWF8NU4YN2","A3CT8UTPVYUL04","3UDTAB6HH6LRO17U79I9TKUGYFV09C","","83","img/food2.png","74","83","1","1","false","3","2","1,0.5,0,1,0.5,0,0.5,0,1","0,1,0.5,0,1,0.5,1,0.5,0","3",""
"","html-keyboard-response","21","27708","0.0-28.0","34S9DKFK74BBWI537THPSWF8NU4YN2","A3CT8UTPVYUL04","3UDTAB6HH6LRO17U79I9TKUGYFV09C","","null","<img src=""img/food2.png"" style=""width:200px; border:14px solid green;"">","null","","","","","","","","","",""
"","image-keyboard-response","22","27717","0.0-30.0","34S9DKFK74BBWI537THPSWF8NU4YN2","A3CT8UTPVYUL04","3UDTAB6HH6LRO17U79I9TKUGYFV09C","","8","img/food2.png","75","9","2","1","false","3","2","1,0.5,0,1,0.5,0,0.5,0,1","0,1,0.5,0,1,0.5,1,0.5,0","3",""
"","html-keyboard-response","23","28027","0.0-31.0","34S9DKFK74BBWI537THPSWF8NU4YN2","A3CT8UTPVYUL04","3UDTAB6HH6LRO17U79I9TKUGYFV09C","","null","<img src=""img/food2.png"" style=""width:200px; border:14px solid green;"">","null","","","","","","","","","",""
"","image-keyboard-response","24","28102","0.0-33.0","34S9DKFK74BBWI537THPSWF8NU4YN2","A3CT8UTPVYUL04","3UDTAB6HH6LRO17U79I9TKUGYFV09C","","72","img/food5.png","74","74","1","0","false","2","2","1,0.5,0,1,0.5,0,0.5,0,1","0,1,0.5,0,1,0.5,1,0.5,0","3",""
"","html-keyboard-response","25","28446","0.0-34.0","34S9DKFK74BBWI537THPSWF8NU4YN2","A3CT8UTPVYUL04","3UDTAB6HH6LRO17U79I9TKUGYFV09C","","null","<img src=""img/food5.png"" style=""width:200px;border:14px solid red;"">","null","","","","","","","","","",""
"","image-keyboard-response","26","28493","0.0-36.0","34S9DKFK74BBWI537THPSWF8NU4YN2","A3CT8UTPVYUL04","3UDTAB6HH6LRO17U79I9TKUGYFV09C","","46","img/food2.png","75","47","2","0","false","3","2","1,0.5,0,1,0.5,0,0.5,0,1","0,1,0.5,0,1,0.5,1,0.5,0","3",""
"","html-keyboard-response","27","28800","0.0-37.0","34S9DKFK74BBWI537THPSWF8NU4YN2","A3CT8UTPVYUL04","3UDTAB6HH6LRO17U79I9TKUGYFV09C","","null","<img src=""img/food2.png"" style=""width:200px;border:14px solid red;"">","null","","","","","","","","","",""
"","image-keyboard-response","28","28853","0.0-39.0","34S9DKFK74BBWI537THPSWF8NU4YN2","A3CT8UTPVYUL04","3UDTAB6HH6LRO17U79I9TKUGYFV09C","","52","img/food2.png","74","53","1","1","false","3","2","1,0.5,0,1,0.5,0,0.5,0,1","0,1,0.5,0,1,0.5,1,0.5,0","3",""
"","html-keyboard-response","29","29164","0.0-40.0","34S9DKFK74BBWI537THPSWF8NU4YN2","A3CT8UTPVYUL04","3UDTAB6HH6LRO17U79I9TKUGYFV09C","","null","<img src=""img/food2.png"" style=""width:200px; border:14px solid green;"">","null","","","","","","","","","",""
"","image-keyboard-response","30","29221","0.0-42.0","34S9DKFK74BBWI537THPSWF8NU4YN2","A3CT8UTPVYUL04","3UDTAB6HH6LRO17U79I9TKUGYFV09C","","57","img/food2.png","75","57","2","0","false","3","2","1,0.5,0,1,0.5,0,0.5,0,1","0,1,0.5,0,1,0.5,1,0.5,0","3",""
"","html-keyboard-response","31","29535","0.0-43.0","34S9DKFK74BBWI537THPSWF8NU4YN2","A3CT8UTPVYUL04","3UDTAB6HH6LRO17U79I9TKUGYFV09C","","null","<img src=""img/food2.png"" style=""width:200px;border:14px solid red;"">","null","","","","","","","","","",""
"","image-keyboard-response","32","29614","0.0-45.0","34S9DKFK74BBWI537THPSWF8NU4YN2","A3CT8UTPVYUL04","3UDTAB6HH6LRO17U79I9TKUGYFV09C","","78","img/food2.png","74","79","1","1","false","3","2","1,0.5,0,1,0.5,0,0.5,0,1","0,1,0.5,0,1,0.5,1,0.5,0","3",""
"","html-keyboard-response","33","29920","0.0-46.0","34S9DKFK74BBWI537THPSWF8NU4YN2","A3CT8UTPVYUL04","3UDTAB6HH6LRO17U79I9TKUGYFV09C","","null","<img src=""img/food2.png"" style=""width:200px; border:14px solid green;"">","null","","","","","","","","","",""
"","image-keyboard-response","34","29965","0.0-48.0","34S9DKFK74BBWI537THPSWF8NU4YN2","A3CT8UTPVYUL04","3UDTAB6HH6LRO17U79I9TKUGYFV09C","","45","img/food1.png","75","45","2","1","false","1","2","1,0.5,0,1,0.5,0,0.5,0,1","0,1,0.5,0,1,0.5,1,0.5,0","3",""
"","html-keyboard-response","35","30268","0.0-49.0","34S9DKFK74BBWI537THPSWF8NU4YN2","A3CT8UTPVYUL04","3UDTAB6HH6LRO17U79I9TKUGYFV09C","","null","<img src=""img/food1.png"" style=""width:200px; border:14px solid green;"">","null","","","","","","","","","",""
"","image-keyboard-response","36","30325","0.0-51.0","34S9DKFK74BBWI537THPSWF8NU4YN2","A3CT8UTPVYUL04","3UDTAB6HH6LRO17U79I9TKUGYFV09C","","56","img/food5.png","74","57","1","0","false","2","2","1,0.5,0,1,0.5,0,0.5,0,1","0,1,0.5,0,1,0.5,1,0.5,0","3",""
"","html-keyboard-response","37","30638","0.0-52.0","34S9DKFK74BBWI537THPSWF8NU4YN2","A3CT8UTPVYUL04","3UDTAB6HH6LRO17U79I9TKUGYFV09C","","null","<img src=""img/food5.png"" style=""width:200px;border:14px solid red;"">","null","","","","","","","","","",""
"","image-keyboard-response","38","30677","0.0-54.0","34S9DKFK74BBWI537THPSWF8NU4YN2","A3CT8UTPVYUL04","3UDTAB6HH6LRO17U79I9TKUGYFV09C","","40","img/food1.png","75","40","2","1","false","1","2","1,0.5,0,1,0.5,0,0.5,0,1","0,1,0.5,0,1,0.5,1,0.5,0","3",""
"","html-keyboard-response","39","30985","0.0-55.0","34S9DKFK74BBWI537THPSWF8NU4YN2","A3CT8UTPVYUL04","3UDTAB6HH6LRO17U79I9TKUGYFV09C","","null","<img src=""img/food1.png"" style=""width:200px; border:14px solid green;"">","null","","","","","","","","","",""
"","image-keyboard-response","40","31085","0.0-57.0","34S9DKFK74BBWI537THPSWF8NU4YN2","A3CT8UTPVYUL04","3UDTAB6HH6LRO17U79I9TKUGYFV09C","","99","img/food2.png","74","99","1","1","false","3","2","1,0.5,0,1,0.5,0,0.5,0,1","0,1,0.5,0,1,0.5,1,0.5,0","3",""
"","html-keyboard-response","41","31410","0.0-58.0","34S9DKFK74BBWI537THPSWF8NU4YN2","A3CT8UTPVYUL04","3UDTAB6HH6LRO17U79I9TKUGYFV09C","","null","<img src=""img/food2.png"" style=""width:200px; border:14px solid green;"">","null","","","","","","","","","",""
"","image-keyboard-response","42","31420","0.0-60.0","34S9DKFK74BBWI537THPSWF8NU4YN2","A3CT8UTPVYUL04","3UDTAB6HH6LRO17U79I9TKUGYFV09C","","9","img/food5.png","75","9","2","1","false","2","2","1,0.5,0,1,0.5,0,0.5,0,1","0,1,0.5,0,1,0.5,1,0.5,0","3",""
"","html-keyboard-response","43","31728","0.0-61.0","34S9DKFK74BBWI537THPSWF8NU4YN2","A3CT8UTPVYUL04","3UDTAB6HH6LRO17U79I9TKUGYFV09C","","null","<img src=""img/food5.png"" style=""width:200px; border:14px solid green;"">","null","","","","","","","","","",""
"","image-keyboard-response","44","31828","0.0-63.0","34S9DKFK74BBWI537THPSWF8NU4YN2","A3CT8UTPVYUL04","3UDTAB6HH6LRO17U79I9TKUGYFV09C","","100","img/food5.png","74","100","1","0","false","2","2","1,0.5,0,1,0.5,0,0.5,0,1","0,1,0.5,0,1,0.5,1,0.5,0","3",""
"","html-keyboard-response","45","32131","0.0-64.0","34S9DKFK74BBWI537THPSWF8NU4YN2","A3CT8UTPVYUL04","3UDTAB6HH6LRO17U79I9TKUGYFV09C","","null","<img src=""img/food5.png"" style=""width:200px;border:14px solid red;"">","null","","","","","","","","","",""
"","image-keyboard-response","46","32180","0.0-66.0","34S9DKFK74BBWI537THPSWF8NU4YN2","A3CT8UTPVYUL04","3UDTAB6HH6LRO17U79I9TKUGYFV09C","","49","img/food1.png","75","49","2","1","false","1","2","1,0.5,0,1,0.5,0,0.5,0,1","0,1,0.5,0,1,0.5,1,0.5,0","3",""
"","html-keyboard-response","47","32495","0.0-67.0","34S9DKFK74BBWI537THPSWF8NU4YN2","A3CT8UTPVYUL04","3UDTAB6HH6LRO17U79I9TKUGYFV09C","","null","<img src=""img/food1.png"" style=""width:200px; border:14px solid green;"">","null","","","","","","","","","",""
"","image-keyboard-response","48","32604","0.0-69.0","34S9DKFK74BBWI537THPSWF8NU4YN2","A3CT8UTPVYUL04","3UDTAB6HH6LRO17U79I9TKUGYFV09C","","110","img/food2.png","74","111","1","1","false","3","2","1,0.5,0,1,0.5,0,0.5,0,1","0,1,0.5,0,1,0.5,1,0.5,0","3",""
"","html-keyboard-response","49","32921","0.0-70.0","34S9DKFK74BBWI537THPSWF8NU4YN2","A3CT8UTPVYUL04","3UDTAB6HH6LRO17U79I9TKUGYFV09C","","null","<img src=""img/food2.png"" style=""width:200px; border:14px solid green;"">","null","","","","","","","","","",""
"","image-keyboard-response","50","32933","0.0-72.0","34S9DKFK74BBWI537THPSWF8NU4YN2","A3CT8UTPVYUL04","3UDTAB6HH6LRO17U79I9TKUGYFV09C","","12","img/food2.png","75","12","2","1","false","3","2","1,0.5,0,1,0.5,0,0.5,0,1","0,1,0.5,0,1,0.5,1,0.5,0","3",""
"","html-keyboard-response","51","33237","0.0-73.0","34S9DKFK74BBWI537THPSWF8NU4YN2","A3CT8UTPVYUL04","3UDTAB6HH6LRO17U79I9TKUGYFV09C","","null","<img src=""img/food2.png"" style=""width:200px; border:14px solid green;"">","null","","","","","","","","","",""
"","image-keyboard-response","52","33347","0.0-75.0","34S9DKFK74BBWI537THPSWF8NU4YN2","A3CT8UTPVYUL04","3UDTAB6HH6LRO17U79I9TKUGYFV09C","","110","img/food5.png","74","110","1","0","false","2","2","1,0.5,0,1,0.5,0,0.5,0,1","0,1,0.5,0,1,0.5,1,0.5,0","3",""
"","html-keyboard-response","53","33656","0.0-76.0","34S9DKFK74BBWI537THPSWF8NU4YN2","A3CT8UTPVYUL04","3UDTAB6HH6LRO17U79I9TKUGYFV09C","","null","<img src=""img/food5.png"" style=""width:200px;border:14px solid red;"">","null","","","","","","","","","",""
"","image-keyboard-response","54","33700","0.0-78.0","34S9DKFK74BBWI537THPSWF8NU4YN2","A3CT8UTPVYUL04","3UDTAB6HH6LRO17U79I9TKUGYFV09C","","43","img/food1.png","75","44","2","1","false","1","2","1,0.5,0,1,0.5,0,0.5,0,1","0,1,0.5,0,1,0.5,1,0.5,0","3",""
"","html-keyboard-response","55","34005","0.0-79.0","34S9DKFK74BBWI537THPSWF8NU4YN2","A3CT8UTPVYUL04","3UDTAB6HH6LRO17U79I9TKUGYFV09C","","null","<img src=""img/food1.png"" style=""width:200px; border:14px solid green;"">","null","","","","","","","","","",""
"","image-keyboard-response","56","34084","0.0-81.0","34S9DKFK74BBWI537THPSWF8NU4YN2","A3CT8UTPVYUL04","3UDTAB6HH6LRO17U79I9TKUGYFV09C","","79","img/food5.png","74","79","1","0","false","2","2","1,0.5,0,1,0.5,0,0.5,0,1","0,1,0.5,0,1,0.5,1,0.5,0","3",""
"","html-keyboard-response","57","34389","0.0-82.0","34S9DKFK74BBWI537THPSWF8NU4YN2","A3CT8UTPVYUL04","3UDTAB6HH6LRO17U79I9TKUGYFV09C","","null","<img src=""img/food5.png"" style=""width:200px;border:14px solid red;"">","null","","","","","","","","","",""
"","image-keyboard-response","58","34428","0.0-84.0","34S9DKFK74BBWI537THPSWF8NU4YN2","A3CT8UTPVYUL04","3UDTAB6HH6LRO17U79I9TKUGYFV09C","","38","img/food2.png","75","38","2","1","false","3","2","1,0.5,0,1,0.5,0,0.5,0,1","0,1,0.5,0,1,0.5,1,0.5,0","3",""
"","html-keyboard-response","59","34730","0.0-85.0","34S9DKFK74BBWI537THPSWF8NU4YN2","A3CT8UTPVYUL04","3UDTAB6HH6LRO17U79I9TKUGYFV09C","","null","<img src=""img/food2.png"" style=""width:200px; border:14px solid green;"">","null","","","","","","","","","",""
"","image-keyboard-response","60","34836","0.0-87.0","34S9DKFK74BBWI537THPSWF8NU4YN2","A3CT8UTPVYUL04","3UDTAB6HH6LRO17U79I9TKUGYFV09C","","104","img/food2.png","74","105","1","1","false","3","2","1,0.5,0,1,0.5,0,0.5,0,1","0,1,0.5,0,1,0.5,1,0.5,0","3",""
"","html-keyboard-response","61","35149","0.0-88.0","34S9DKFK74BBWI537THPSWF8NU4YN2","A3CT8UTPVYUL04","3UDTAB6HH6LRO17U79I9TKUGYFV09C","","null","<img src=""img/food2.png"" style=""width:200px; border:14px solid green;"">","null","","","","","","","","","",""
"","image-keyboard-response","62","35188","0.0-90.0","34S9DKFK74BBWI537THPSWF8NU4YN2","A3CT8UTPVYUL04","3UDTAB6HH6LRO17U79I9TKUGYFV09C","","39","img/food2.png","75","39","2","1","false","3","2","1,0.5,0,1,0.5,0,0.5,0,1","0,1,0.5,0,1,0.5,1,0.5,0","3",""
"","html-keyboard-response","63","35498","0.0-91.0","34S9DKFK74BBWI537THPSWF8NU4YN2","A3CT8UTPVYUL04","3UDTAB6HH6LRO17U79I9TKUGYFV09C","","null","<img src=""img/food2.png"" style=""width:200px; border:14px solid green;"">","null","","","","","","","","","",""
"","image-keyboard-response","64","35620","0.0-93.0","34S9DKFK74BBWI537THPSWF8NU4YN2","A3CT8UTPVYUL04","3UDTAB6HH6LRO17U79I9TKUGYFV09C","","120","img/food2.png","74","120","1","1","false","3","2","1,0.5,0,1,0.5,0,0.5,0,1","0,1,0.5,0,1,0.5,1,0.5,0","3",""
"","html-keyboard-response","65","35940","0.0-94.0","34S9DKFK74BBWI537THPSWF8NU4YN2","A3CT8UTPVYUL04","3UDTAB6HH6LRO17U79I9TKUGYFV09C","","null","<img src=""img/food2.png"" style=""width:200px; border:14px solid green;"">","null","","","","","","","","","",""
"","image-keyboard-response","66","35963","0.0-96.0","34S9DKFK74BBWI537THPSWF8NU4YN2","A3CT8UTPVYUL04","3UDTAB6HH6LRO17U79I9TKUGYFV09C","","22","img/food2.png","75","23","2","0","false","3","2","1,0.5,0,1,0.5,0,0.5,0,1","0,1,0.5,0,1,0.5,1,0.5,0","3",""
"","html-keyboard-response","67","36272","0.0-97.0","34S9DKFK74BBWI537THPSWF8NU4YN2","A3CT8UTPVYUL04","3UDTAB6HH6LRO17U79I9TKUGYFV09C","","null","<img src=""img/food2.png"" style=""width:200px;border:14px solid red;"">","null","","","","","","","","","",""
"","image-keyboard-response","68","36404","0.0-99.0","34S9DKFK74BBWI537THPSWF8NU4YN2","A3CT8UTPVYUL04","3UDTAB6HH6LRO17U79I9TKUGYFV09C","","130","img/food2.png","74","130","1","1","false","3","2","1,0.5,0,1,0.5,0,0.5,0,1","0,1,0.5,0,1,0.5,1,0.5,0","3",""
"","html-keyboard-response","69","36706","0.0-100.0","34S9DKFK74BBWI537THPSWF8NU4YN2","A3CT8UTPVYUL04","3UDTAB6HH6LRO17U79I9TKUGYFV09C","","null","<img src=""img/food2.png"" style=""width:200px; border:14px solid green;"">","null","","","","","","","","","",""
"","image-keyboard-response","70","36724","0.0-102.0","34S9DKFK74BBWI537THPSWF8NU4YN2","A3CT8UTPVYUL04","3UDTAB6HH6LRO17U79I9TKUGYFV09C","","16","img/food1.png","75","19","2","1","false","1","2","1,0.5,0,1,0.5,0,0.5,0,1","0,1,0.5,0,1,0.5,1,0.5,0","3",""
"","html-keyboard-response","71","37044","0.0-103.0","34S9DKFK74BBWI537THPSWF8NU4YN2","A3CT8UTPVYUL04","3UDTAB6HH6LRO17U79I9TKUGYFV09C","","null","<img src=""img/food1.png"" style=""width:200px; border:14px solid green;"">","null","","","","","","","","","",""
"","image-keyboard-response","72","37148","0.0-105.0","34S9DKFK74BBWI537THPSWF8NU4YN2","A3CT8UTPVYUL04","3UDTAB6HH6LRO17U79I9TKUGYFV09C","","103","img/food1.png","74","103","1","0","false","1","2","1,0.5,0,1,0.5,0,0.5,0,1","0,1,0.5,0,1,0.5,1,0.5,0","3",""
"","html-keyboard-response","73","37464","0.0-106.0","34S9DKFK74BBWI537THPSWF8NU4YN2","A3CT8UTPVYUL04","3UDTAB6HH6LRO17U79I9TKUGYFV09C","","null","<img src=""img/food1.png"" style=""width:200px;border:14px solid red;"">","null","","","","","","","","","",""
"","image-keyboard-response","74","37491","0.0-108.0","34S9DKFK74BBWI537THPSWF8NU4YN2","A3CT8UTPVYUL04","3UDTAB6HH6LRO17U79I9TKUGYFV09C","","26","img/food1.png","75","26","2","1","false","1","2","1,0.5,0,1,0.5,0,0.5,0,1","0,1,0.5,0,1,0.5,1,0.5,0","3",""
"","html-keyboard-response","75","37797","0.0-109.0","34S9DKFK74BBWI537THPSWF8NU4YN2","A3CT8UTPVYUL04","3UDTAB6HH6LRO17U79I9TKUGYFV09C","","null","<img src=""img/food1.png"" style=""width:200px; border:14px solid green;"">","null","","","","","","","","","",""
"","image-keyboard-response","76","37906","0.0-111.0","34S9DKFK74BBWI537THPSWF8NU4YN2","A3CT8UTPVYUL04","3UDTAB6HH6LRO17U79I9TKUGYFV09C","","109","img/food1.png","74","110","1","0","false","1","2","1,0.5,0,1,0.5,0,0.5,0,1","0,1,0.5,0,1,0.5,1,0.5,0","3",""
"","html-keyboard-response","77","38216","0.0-112.0","34S9DKFK74BBWI537THPSWF8NU4YN2","A3CT8UTPVYUL04","3UDTAB6HH6LRO17U79I9TKUGYFV09C","","null","<img src=""img/food1.png"" style=""width:200px;border:14px solid red;"">","null","","","","","","","","","",""
"","image-keyboard-response","78","38243","0.0-114.0","34S9DKFK74BBWI537THPSWF8NU4YN2","A3CT8UTPVYUL04","3UDTAB6HH6LRO17U79I9TKUGYFV09C","","26","img/food2.png","75","26","2","0","false","3","2","1,0.5,0,1,0.5,0,0.5,0,1","0,1,0.5,0,1,0.5,1,0.5,0","3",""
"","html-keyboard-response","79","38555","0.0-115.0","34S9DKFK74BBWI537THPSWF8NU4YN2","A3CT8UTPVYUL04","3UDTAB6HH6LRO17U79I9TKUGYFV09C","","null","<img src=""img/food2.png"" style=""width:200px;border:14px solid red;"">","null","","","","","","","","","",""
"","image-keyboard-response","80","38651","0.0-117.0","34S9DKFK74BBWI537THPSWF8NU4YN2","A3CT8UTPVYUL04","3UDTAB6HH6LRO17U79I9TKUGYFV09C","","96","img/food2.png","74","96","1","1","false","3","2","1,0.5,0,1,0.5,0,0.5,0,1","0,1,0.5,0,1,0.5,1,0.5,0","3",""
"","html-keyboard-response","81","38956","0.0-118.0","34S9DKFK74BBWI537THPSWF8NU4YN2","A3CT8UTPVYUL04","3UDTAB6HH6LRO17U79I9TKUGYFV09C","","null","<img src=""img/food2.png"" style=""width:200px; border:14px solid green;"">","null","","","","","","","","","",""
"","image-keyboard-response","82","39010","0.0-120.0","34S9DKFK74BBWI537THPSWF8NU4YN2","A3CT8UTPVYUL04","3UDTAB6HH6LRO17U79I9TKUGYFV09C","","54","img/food1.png","75","54","2","1","false","1","2","1,0.5,0,1,0.5,0,0.5,0,1","0,1,0.5,0,1,0.5,1,0.5,0","3",""
"","html-keyboard-response","83","39320","0.0-121.0","34S9DKFK74BBWI537THPSWF8NU4YN2","A3CT8UTPVYUL04","3UDTAB6HH6LRO17U79I9TKUGYFV09C","","null","<img src=""img/food1.png"" style=""width:200px; border:14px solid green;"">","null","","","","","","","","","",""
"","image-keyboard-response","84","39426","0.0-123.0","34S9DKFK74BBWI537THPSWF8NU4YN2","A3CT8UTPVYUL04","3UDTAB6HH6LRO17U79I9TKUGYFV09C","","105","img/food5.png","74","106","1","0","false","2","2","1,0.5,0,1,0.5,0,0.5,0,1","0,1,0.5,0,1,0.5,1,0.5,0","3",""
"","html-keyboard-response","85","39738","0.0-124.0","34S9DKFK74BBWI537THPSWF8NU4YN2","A3CT8UTPVYUL04","3UDTAB6HH6LRO17U79I9TKUGYFV09C","","null","<img src=""img/food5.png"" style=""width:200px;border:14px solid red;"">","null","","","","","","","","","",""
"","image-keyboard-response","86","39739","0.0-126.0","34S9DKFK74BBWI537THPSWF8NU4YN2","A3CT8UTPVYUL04","3UDTAB6HH6LRO17U79I9TKUGYFV09C","","0","img/food1.png","75","0","2","1","false","1","2","1,0.5,0,1,0.5,0,0.5,0,1","0,1,0.5,0,1,0.5,1,0.5,0","3",""
"","html-keyboard-response","87","40060","0.0-127.0","34S9DKFK74BBWI537THPSWF8NU4YN2","A3CT8UTPVYUL04","3UDTAB6HH6LRO17U79I9TKUGYFV09C","","null","<img src=""img/food1.png"" style=""width:200px; border:14px solid green;"">","null","","","","","","","","","",""
"","image-keyboard-response","88","40154","0.0-129.0","34S9DKFK74BBWI537THPSWF8NU4YN2","A3CT8UTPVYUL04","3UDTAB6HH6LRO17U79I9TKUGYFV09C","","92","img/food2.png","74","92","1","1","false","3","2","1,0.5,0,1,0.5,0,0.5,0,1","0,1,0.5,0,1,0.5,1,0.5,0","3",""
"","html-keyboard-response","89","40462","0.0-130.0","34S9DKFK74BBWI537THPSWF8NU4YN2","A3CT8UTPVYUL04","3UDTAB6HH6LRO17U79I9TKUGYFV09C","","null","<img src=""img/food2.png"" style=""width:200px; border:14px solid green;"">","null","","","","","","","","","",""
"","image-keyboard-response","90","40468","0.0-132.0","34S9DKFK74BBWI537THPSWF8NU4YN2","A3CT8UTPVYUL04","3UDTAB6HH6LRO17U79I9TKUGYFV09C","","4","img/food5.png","75","5","2","1","false","2","2","1,0.5,0,1,0.5,0,0.5,0,1","0,1,0.5,0,1,0.5,1,0.5,0","3",""
"","html-keyboard-response","91","40780","0.0-133.0","34S9DKFK74BBWI537THPSWF8NU4YN2","A3CT8UTPVYUL04","3UDTAB6HH6LRO17U79I9TKUGYFV09C","","null","<img src=""img/food5.png"" style=""width:200px; border:14px solid green;"">","null","","","","","","","","","",""
"","image-keyboard-response","92","40883","0.0-135.0","34S9DKFK74BBWI537THPSWF8NU4YN2","A3CT8UTPVYUL04","3UDTAB6HH6LRO17U79I9TKUGYFV09C","","102","img/food1.png","74","102","1","0","false","1","2","1,0.5,0,1,0.5,0,0.5,0,1","0,1,0.5,0,1,0.5,1,0.5,0","3",""
"","html-keyboard-response","93","41197","0.0-136.0","34S9DKFK74BBWI537THPSWF8NU4YN2","A3CT8UTPVYUL04","3UDTAB6HH6LRO17U79I9TKUGYFV09C","","null","<img src=""img/food1.png"" style=""width:200px;border:14px solid red;"">","null","","","","","","","","","",""
"","image-keyboard-response","94","41219","0.0-138.0","34S9DKFK74BBWI537THPSWF8NU4YN2","A3CT8UTPVYUL04","3UDTAB6HH6LRO17U79I9TKUGYFV09C","","20","img/food5.png","75","20","2","1","false","2","2","1,0.5,0,1,0.5,0,0.5,0,1","0,1,0.5,0,1,0.5,1,0.5,0","3",""
"","html-keyboard-response","95","41553","0.0-139.0","34S9DKFK74BBWI537THPSWF8NU4YN2","A3CT8UTPVYUL04","3UDTAB6HH6LRO17U79I9TKUGYFV09C","","null","<img src=""img/food5.png"" style=""width:200px; border:14px solid green;"">","null","","","","","","","","","",""
"","image-keyboard-response","96","41623","0.0-141.0","34S9DKFK74BBWI537THPSWF8NU4YN2","A3CT8UTPVYUL04","3UDTAB6HH6LRO17U79I9TKUGYFV09C","","68","img/food5.png","74","71","1","0","false","2","2","1,0.5,0,1,0.5,0,0.5,0,1","0,1,0.5,0,1,0.5,1,0.5,0","3",""
"","html-keyboard-response","97","41934","0.0-142.0","34S9DKFK74BBWI537THPSWF8NU4YN2","A3CT8UTPVYUL04","3UDTAB6HH6LRO17U79I9TKUGYFV09C","","null","<img src=""img/food5.png"" style=""width:200px;border:14px solid red;"">","null","","","","","","","","","",""
"","image-keyboard-response","98","41940","0.0-144.0","34S9DKFK74BBWI537THPSWF8NU4YN2","A3CT8UTPVYUL04","3UDTAB6HH6LRO17U79I9TKUGYFV09C","","3","img/food1.png","75","6","2","1","false","1","2","1,0.5,0,1,0.5,0,0.5,0,1","0,1,0.5,0,1,0.5,1,0.5,0","3",""
"","html-keyboard-response","99","42251","0.0-145.0","34S9DKFK74BBWI537THPSWF8NU4YN2","A3CT8UTPVYUL04","3UDTAB6HH6LRO17U79I9TKUGYFV09C","","null","<img src=""img/food1.png"" style=""width:200px; border:14px solid green;"">","null","","","","","","","","","",""
"","image-keyboard-response","100","42330","0.0-147.0","34S9DKFK74BBWI537THPSWF8NU4YN2","A3CT8UTPVYUL04","3UDTAB6HH6LRO17U79I9TKUGYFV09C","","78","img/food2.png","74","78","1","1","false","3","2","1,0.5,0,1,0.5,0,0.5,0,1","0,1,0.5,0,1,0.5,1,0.5,0","3",""
"","html-keyboard-response","101","42638","0.0-148.0","34S9DKFK74BBWI537THPSWF8NU4YN2","A3CT8UTPVYUL04","3UDTAB6HH6LRO17U79I9TKUGYFV09C","","null","<img src=""img/food2.png"" style=""width:200px; border:14px solid green;"">","null","","","","","","","","","",""
"","image-keyboard-response","102","42697","0.0-150.0","34S9DKFK74BBWI537THPSWF8NU4YN2","A3CT8UTPVYUL04","3UDTAB6HH6LRO17U79I9TKUGYFV09C","","58","img/food1.png","75","58","2","1","false","1","2","1,0.5,0,1,0.5,0,0.5,0,1","0,1,0.5,0,1,0.5,1,0.5,0","3",""
"","html-keyboard-response","103","43008","0.0-151.0","34S9DKFK74BBWI537THPSWF8NU4YN2","A3CT8UTPVYUL04","3UDTAB6HH6LRO17U79I9TKUGYFV09C","","null","<img src=""img/food1.png"" style=""width:200px; border:14px solid green;"">","null","","","","","","","","","",""
"","image-keyboard-response","104","43113","0.0-153.0","34S9DKFK74BBWI537THPSWF8NU4YN2","A3CT8UTPVYUL04","3UDTAB6HH6LRO17U79I9TKUGYFV09C","","104","img/food5.png","74","105","1","0","false","2","2","1,0.5,0,1,0.5,0,0.5,0,1","0,1,0.5,0,1,0.5,1,0.5,0","3",""
"","html-keyboard-response","105","43427","0.0-154.0","34S9DKFK74BBWI537THPSWF8NU4YN2","A3CT8UTPVYUL04","3UDTAB6HH6LRO17U79I9TKUGYFV09C","","null","<img src=""img/food5.png"" style=""width:200px;border:14px solid red;"">","null","","","","","","","","","",""
"","image-keyboard-response","106","43521","0.0-156.0","34S9DKFK74BBWI537THPSWF8NU4YN2","A3CT8UTPVYUL04","3UDTAB6HH6LRO17U79I9TKUGYFV09C","","93","img/food5.png","75","94","2","1","false","2","2","1,0.5,0,1,0.5,0,0.5,0,1","0,1,0.5,0,1,0.5,1,0.5,0","3",""
"","html-keyboard-response","107","43844","0.0-157.0","34S9DKFK74BBWI537THPSWF8NU4YN2","A3CT8UTPVYUL04","3UDTAB6HH6LRO17U79I9TKUGYFV09C","","null","<img src=""img/food5.png"" style=""width:200px; border:14px solid green;"">","null","","","","","","","","","",""
"","image-keyboard-response","108","43898","0.0-159.0","34S9DKFK74BBWI537THPSWF8NU4YN2","A3CT8UTPVYUL04","3UDTAB6HH6LRO17U79I9TKUGYFV09C","","52","img/food2.png","74","54","1","1","false","3","2","1,0.5,0,1,0.5,0,0.5,0,1","0,1,0.5,0,1,0.5,1,0.5,0","3",""
"","html-keyboard-response","109","44201","0.0-160.0","34S9DKFK74BBWI537THPSWF8NU4YN2","A3CT8UTPVYUL04","3UDTAB6HH6LRO17U79I9TKUGYFV09C","","null","<img src=""img/food2.png"" style=""width:200px; border:14px solid green;"">","null","","","","","","","","","",""
"","image-keyboard-response","110","44250","0.0-162.0","34S9DKFK74BBWI537THPSWF8NU4YN2","A3CT8UTPVYUL04","3UDTAB6HH6LRO17U79I9TKUGYFV09C","","48","img/food1.png","75","48","2","1","false","1","2","1,0.5,0,1,0.5,0,0.5,0,1","0,1,0.5,0,1,0.5,1,0.5,0","3",""
"","html-keyboard-response","111","44568","0.0-163.0","34S9DKFK74BBWI537THPSWF8NU4YN2","A3CT8UTPVYUL04","3UDTAB6HH6LRO17U79I9TKUGYFV09C","","null","<img src=""img/food1.png"" style=""width:200px; border:14px solid green;"">","null","","","","","","","","","",""
"","image-keyboard-response","112","44681","0.0-165.0","34S9DKFK74BBWI537THPSWF8NU4YN2","A3CT8UTPVYUL04","3UDTAB6HH6LRO17U79I9TKUGYFV09C","","112","img/food5.png","74","113","1","0","false","2","2","1,0.5,0,1,0.5,0,0.5,0,1","0,1,0.5,0,1,0.5,1,0.5,0","3",""
"","html-keyboard-response","113","44989","0.0-166.0","34S9DKFK74BBWI537THPSWF8NU4YN2","A3CT8UTPVYUL04","3UDTAB6HH6LRO17U79I9TKUGYFV09C","","null","<img src=""img/food5.png"" style=""width:200px;border:14px solid red;"">","null","","","","","","","","","",""
"","image-keyboard-response","114","45056","0.0-168.0","34S9DKFK74BBWI537THPSWF8NU4YN2","A3CT8UTPVYUL04","3UDTAB6HH6LRO17U79I9TKUGYFV09C","","68","img/food1.png","75","68","2","1","false","1","2","1,0.5,0,1,0.5,0,0.5,0,1","0,1,0.5,0,1,0.5,1,0.5,0","3",""
"","html-keyboard-response","115","45370","0.0-169.0","34S9DKFK74BBWI537THPSWF8NU4YN2","A3CT8UTPVYUL04","3UDTAB6HH6LRO17U79I9TKUGYFV09C","","null","<img src=""img/food1.png"" style=""width:200px; border:14px solid green;"">","null","","","","","","","","","",""
"","image-keyboard-response","116","45449","0.0-171.0","34S9DKFK74BBWI537THPSWF8NU4YN2","A3CT8UTPVYUL04","3UDTAB6HH6LRO17U79I9TKUGYFV09C","","78","img/food1.png","74","79","1","0","false","1","2","1,0.5,0,1,0.5,0,0.5,0,1","0,1,0.5,0,1,0.5,1,0.5,0","3",""
"","html-keyboard-response","117","45771","0.0-172.0","34S9DKFK74BBWI537THPSWF8NU4YN2","A3CT8UTPVYUL04","3UDTAB6HH6LRO17U79I9TKUGYFV09C","","null","<img src=""img/food1.png"" style=""width:200px;border:14px solid red;"">","null","","","","","","","","","",""
"","image-keyboard-response","118","45809","0.0-174.0","34S9DKFK74BBWI537THPSWF8NU4YN2","A3CT8UTPVYUL04","3UDTAB6HH6LRO17U79I9TKUGYFV09C","","36","img/food1.png","75","37","2","1","false","1","2","1,0.5,0,1,0.5,0,0.5,0,1","0,1,0.5,0,1,0.5,1,0.5,0","3",""
"","html-keyboard-response","119","46111","0.0-175.0","34S9DKFK74BBWI537THPSWF8NU4YN2","A3CT8UTPVYUL04","3UDTAB6HH6LRO17U79I9TKUGYFV09C","","null","<img src=""img/food1.png"" style=""width:200px; border:14px solid green;"">","null","","","","","","","","","",""
"","image-keyboard-response","120","46241","0.0-177.0","34S9DKFK74BBWI537THPSWF8NU4YN2","A3CT8UTPVYUL04","3UDTAB6HH6LRO17U79I9TKUGYFV09C","","129","img/food5.png","74","129","1","0","false","2","2","1,0.5,0,1,0.5,0,0.5,0,1","0,1,0.5,0,1,0.5,1,0.5,0","3",""
"","html-keyboard-response","121","46561","0.0-178.0","34S9DKFK74BBWI537THPSWF8NU4YN2","A3CT8UTPVYUL04","3UDTAB6HH6LRO17U79I9TKUGYFV09C","","null","<img src=""img/food5.png"" style=""width:200px;border:14px solid red;"">","null","","","","","","","","","",""
"","image-keyboard-response","122","46617","0.0-180.0","34S9DKFK74BBWI537THPSWF8NU4YN2","A3CT8UTPVYUL04","3UDTAB6HH6LRO17U79I9TKUGYFV09C","","56","img/food1.png","75","57","2","1","false","1","2","1,0.5,0,1,0.5,0,0.5,0,1","0,1,0.5,0,1,0.5,1,0.5,0","3",""
"","html-keyboard-response","123","46930","0.0-181.0","34S9DKFK74BBWI537THPSWF8NU4YN2","A3CT8UTPVYUL04","3UDTAB6HH6LRO17U79I9TKUGYFV09C","","null","<img src=""img/food1.png"" style=""width:200px; border:14px solid green;"">","null","","","","","","","","","",""
"","image-keyboard-response","124","46993","0.0-183.0","34S9DKFK74BBWI537THPSWF8NU4YN2","A3CT8UTPVYUL04","3UDTAB6HH6LRO17U79I9TKUGYFV09C","","62","img/food1.png","74","63","1","0","false","1","2","1,0.5,0,1,0.5,0,0.5,0,1","0,1,0.5,0,1,0.5,1,0.5,0","3",""
"","html-keyboard-response","125","47301","0.0-184.0","34S9DKFK74BBWI537THPSWF8NU4YN2","A3CT8UTPVYUL04","3UDTAB6HH6LRO17U79I9TKUGYFV09C","","null","<img src=""img/food1.png"" style=""width:200px;border:14px solid red;"">","null","","","","","","","","","",""
"","image-keyboard-response","126","47368","0.0-186.0","34S9DKFK74BBWI537THPSWF8NU4YN2","A3CT8UTPVYUL04","3UDTAB6HH6LRO17U79I9TKUGYFV09C","","66","img/food5.png","75","67","2","1","false","2","2","1,0.5,0,1,0.5,0,0.5,0,1","0,1,0.5,0,1,0.5,1,0.5,0","3",""
"","html-keyboard-response","127","47680","0.0-187.0","34S9DKFK74BBWI537THPSWF8NU4YN2","A3CT8UTPVYUL04","3UDTAB6HH6LRO17U79I9TKUGYFV09C","","null","<img src=""img/food5.png"" style=""width:200px; border:14px solid green;"">","null","","","","","","","","","",""
"","image-keyboard-response","128","47776","0.0-189.0","34S9DKFK74BBWI537THPSWF8NU4YN2","A3CT8UTPVYUL04","3UDTAB6HH6LRO17U79I9TKUGYFV09C","","95","img/food1.png","74","96","1","0","false","1","2","1,0.5,0,1,0.5,0,0.5,0,1","0,1,0.5,0,1,0.5,1,0.5,0","3",""
"","html-keyboard-response","129","48083","0.0-190.0","34S9DKFK74BBWI537THPSWF8NU4YN2","A3CT8UTPVYUL04","3UDTAB6HH6LRO17U79I9TKUGYFV09C","","null","<img src=""img/food1.png"" style=""width:200px;border:14px solid red;"">","null","","","","","","","","","",""
"","image-keyboard-response","130","48144","0.0-192.0","34S9DKFK74BBWI537THPSWF8NU4YN2","A3CT8UTPVYUL04","3UDTAB6HH6LRO17U79I9TKUGYFV09C","","60","img/food5.png","75","60","2","1","false","2","2","1,0.5,0,1,0.5,0,0.5,0,1","0,1,0.5,0,1,0.5,1,0.5,0","3",""
"","html-keyboard-response","131","48453","0.0-193.0","34S9DKFK74BBWI537THPSWF8NU4YN2","A3CT8UTPVYUL04","3UDTAB6HH6LRO17U79I9TKUGYFV09C","","null","<img src=""img/food5.png"" style=""width:200px; border:14px solid green;"">","null","","","","","","","","","",""
"","image-keyboard-response","132","48544","0.0-195.0","34S9DKFK74BBWI537THPSWF8NU4YN2","A3CT8UTPVYUL04","3UDTAB6HH6LRO17U79I9TKUGYFV09C","","89","img/food1.png","74","90","1","0","false","1","2","1,0.5,0,1,0.5,0,0.5,0,1","0,1,0.5,0,1,0.5,1,0.5,0","3",""
"","html-keyboard-response","133","48857","0.0-196.0","34S9DKFK74BBWI537THPSWF8NU4YN2","A3CT8UTPVYUL04","3UDTAB6HH6LRO17U79I9TKUGYFV09C","","null","<img src=""img/food1.png"" style=""width:200px;border:14px solid red;"">","null","","","","","","","","","",""
"","image-keyboard-response","134","48896","0.0-198.0","34S9DKFK74BBWI537THPSWF8NU4YN2","A3CT8UTPVYUL04","3UDTAB6HH6LRO17U79I9TKUGYFV09C","","38","img/food5.png","75","39","2","1","false","2","2","1,0.5,0,1,0.5,0,0.5,0,1","0,1,0.5,0,1,0.5,1,0.5,0","3",""
"","html-keyboard-response","135","49210","0.0-199.0","34S9DKFK74BBWI537THPSWF8NU4YN2","A3CT8UTPVYUL04","3UDTAB6HH6LRO17U79I9TKUGYFV09C","","null","<img src=""img/food5.png"" style=""width:200px; border:14px solid green;"">","null","","","","","","","","","",""
"","image-keyboard-response","136","49328","0.0-201.0","34S9DKFK74BBWI537THPSWF8NU4YN2","A3CT8UTPVYUL04","3UDTAB6HH6LRO17U79I9TKUGYFV09C","","117","img/food2.png","74","117","1","1","false","3","2","1,0.5,0,1,0.5,0,0.5,0,1","0,1,0.5,0,1,0.5,1,0.5,0","3",""
"","html-keyboard-response","137","49660","0.0-202.0","34S9DKFK74BBWI537THPSWF8NU4YN2","A3CT8UTPVYUL04","3UDTAB6HH6LRO17U79I9TKUGYFV09C","","null","<img src=""img/food2.png"" style=""width:200px; border:14px solid green;"">","null","","","","","","","","","",""
"","image-keyboard-response","138","49672","0.0-204.0","34S9DKFK74BBWI537THPSWF8NU4YN2","A3CT8UTPVYUL04","3UDTAB6HH6LRO17U79I9TKUGYFV09C","","12","img/food5.png","75","12","2","1","false","2","2","1,0.5,0,1,0.5,0,0.5,0,1","0,1,0.5,0,1,0.5,1,0.5,0","3",""
"","html-keyboard-response","139","49977","0.0-205.0","34S9DKFK74BBWI537THPSWF8NU4YN2","A3CT8UTPVYUL04","3UDTAB6HH6LRO17U79I9TKUGYFV09C","","null","<img src=""img/food5.png"" style=""width:200px; border:14px solid green;"">","null","","","","","","","","","",""
"","image-keyboard-response","140","50096","0.0-207.0","34S9DKFK74BBWI537THPSWF8NU4YN2","A3CT8UTPVYUL04","3UDTAB6HH6LRO17U79I9TKUGYFV09C","","117","img/food5.png","74","118","1","0","false","2","2","1,0.5,0,1,0.5,0,0.5,0,1","0,1,0.5,0,1,0.5,1,0.5,0","3",""
"","html-keyboard-response","141","50417","0.0-208.0","34S9DKFK74BBWI537THPSWF8NU4YN2","A3CT8UTPVYUL04","3UDTAB6HH6LRO17U79I9TKUGYFV09C","","null","<img src=""img/food5.png"" style=""width:200px;border:14px solid red;"">","null","","","","","","","","","",""
"","image-keyboard-response","142","50456","0.0-210.0","34S9DKFK74BBWI537THPSWF8NU4YN2","A3CT8UTPVYUL04","3UDTAB6HH6LRO17U79I9TKUGYFV09C","","38","img/food1.png","75","39","2","1","false","1","2","1,0.5,0,1,0.5,0,0.5,0,1","0,1,0.5,0,1,0.5,1,0.5,0","3",""
"","html-keyboard-response","143","50765","0.0-211.0","34S9DKFK74BBWI537THPSWF8NU4YN2","A3CT8UTPVYUL04","3UDTAB6HH6LRO17U79I9TKUGYFV09C","","null","<img src=""img/food1.png"" style=""width:200px; border:14px solid green;"">","null","","","","","","","","","",""
"","image-keyboard-response","144","50872","0.0-213.0","34S9DKFK74BBWI537THPSWF8NU4YN2","A3CT8UTPVYUL04","3UDTAB6HH6LRO17U79I9TKUGYFV09C","","105","img/food5.png","74","106","1","0","false","2","2","1,0.5,0,1,0.5,0,0.5,0,1","0,1,0.5,0,1,0.5,1,0.5,0","3",""
"","html-keyboard-response","145","51182","0.0-214.0","34S9DKFK74BBWI537THPSWF8NU4YN2","A3CT8UTPVYUL04","3UDTAB6HH6LRO17U79I9TKUGYFV09C","","null","<img src=""img/food5.png"" style=""width:200px;border:14px solid red;"">","null","","","","","","","","","",""
"","image-keyboard-response","146","51239","0.0-216.0","34S9DKFK74BBWI537THPSWF8NU4YN2","A3CT8UTPVYUL04","3UDTAB6HH6LRO17U79I9TKUGYFV09C","","55","img/food5.png","75","57","2","1","false","2","2","1,0.5,0,1,0.5,0,0.5,0,1","0,1,0.5,0,1,0.5,1,0.5,0","3",""
"","html-keyboard-response","147","51571","0.0-217.0","34S9DKFK74BBWI537THPSWF8NU4YN2","A3CT8UTPVYUL04","3UDTAB6HH6LRO17U79I9TKUGYFV09C","","null","<img src=""img/food5.png"" style=""width:200px; border:14px solid green;"">","null","","","","","","","","","",""
"","image-keyboard-response","148","51631","0.0-219.0","34S9DKFK74BBWI537THPSWF8NU4YN2","A3CT8UTPVYUL04","3UDTAB6HH6LRO17U79I9TKUGYFV09C","","59","img/food2.png","74","61","1","1","false","3","2","1,0.5,0,1,0.5,0,0.5,0,1","0,1,0.5,0,1,0.5,1,0.5,0","3",""
"","html-keyboard-response","149","51940","0.0-220.0","34S9DKFK74BBWI537THPSWF8NU4YN2","A3CT8UTPVYUL04","3UDTAB6HH6LRO17U79I9TKUGYFV09C","","null","<img src=""img/food2.png"" style=""width:200px; border:14px solid green;"">","null","","","","","","","","","",""
"","image-keyboard-response","150","51991","0.0-222.0","34S9DKFK74BBWI537THPSWF8NU4YN2","A3CT8UTPVYUL04","3UDTAB6HH6LRO17U79I9TKUGYFV09C","","50","img/food1.png","75","50","2","1","false","1","2","1,0.5,0,1,0.5,0,0.5,0,1","0,1,0.5,0,1,0.5,1,0.5,0","3",""
"","html-keyboard-response","151","52311","0.0-223.0","34S9DKFK74BBWI537THPSWF8NU4YN2","A3CT8UTPVYUL04","3UDTAB6HH6LRO17U79I9TKUGYFV09C","","null","<img src=""img/food1.png"" style=""width:200px; border:14px solid green;"">","null","","","","","","","","","",""
"","image-keyboard-response","152","52375","0.0-225.0","34S9DKFK74BBWI537THPSWF8NU4YN2","A3CT8UTPVYUL04","3UDTAB6HH6LRO17U79I9TKUGYFV09C","","63","img/food2.png","74","64","1","1","false","3","2","1,0.5,0,1,0.5,0,0.5,0,1","0,1,0.5,0,1,0.5,1,0.5,0","3",""
"","html-keyboard-response","153","52678","0.0-226.0","34S9DKFK74BBWI537THPSWF8NU4YN2","A3CT8UTPVYUL04","3UDTAB6HH6LRO17U79I9TKUGYFV09C","","null","<img src=""img/food2.png"" style=""width:200px; border:14px solid green;"">","null","","","","","","","","","",""
"","image-keyboard-response","154","52799","0.0-228.0","34S9DKFK74BBWI537THPSWF8NU4YN2","A3CT8UTPVYUL04","3UDTAB6HH6LRO17U79I9TKUGYFV09C","","122","img/food1.png","76","122","3","1","false","1","2","1,0.5,0,1,0.5,0,0.5,0,1","0,1,0.5,0,1,0.5,1,0.5,0","3",""
"","html-keyboard-response","155","53133","0.0-229.0","34S9DKFK74BBWI537THPSWF8NU4YN2","A3CT8UTPVYUL04","3UDTAB6HH6LRO17U79I9TKUGYFV09C","","null","<img src=""img/food1.png"" style=""width:200px; border:14px solid green;"">","null","","","","","","","","","",""
"","image-keyboard-response","156","53247","0.0-231.0","34S9DKFK74BBWI537THPSWF8NU4YN2","A3CT8UTPVYUL04","3UDTAB6HH6LRO17U79I9TKUGYFV09C","","111","img/food2.png","75","113","2","0","false","3","2","1,0.5,0,1,0.5,0,0.5,0,1","0,1,0.5,0,1,0.5,1,0.5,0","3",""
"","html-keyboard-response","157","53551","0.0-232.0","34S9DKFK74BBWI537THPSWF8NU4YN2","A3CT8UTPVYUL04","3UDTAB6HH6LRO17U79I9TKUGYFV09C","","null","<img src=""img/food2.png"" style=""width:200px;border:14px solid red;"">","null","","","","","","","","","",""
"","image-keyboard-response","158","53631","0.0-234.0","34S9DKFK74BBWI537THPSWF8NU4YN2","A3CT8UTPVYUL04","3UDTAB6HH6LRO17U79I9TKUGYFV09C","","80","img/food1.png","74","80","1","0","false","1","2","1,0.5,0,1,0.5,0,0.5,0,1","0,1,0.5,0,1,0.5,1,0.5,0","3",""
"","html-keyboard-response","159","53940","0.0-235.0","34S9DKFK74BBWI537THPSWF8NU4YN2","A3CT8UTPVYUL04","3UDTAB6HH6LRO17U79I9TKUGYFV09C","","null","<img src=""img/food1.png"" style=""width:200px;border:14px solid red;"">","null","","","","","","","","","",""
"","image-keyboard-response","160","53983","0.0-237.0","34S9DKFK74BBWI537THPSWF8NU4YN2","A3CT8UTPVYUL04","3UDTAB6HH6LRO17U79I9TKUGYFV09C","","41","img/food5.png","75","43","2","1","false","2","2","1,0.5,0,1,0.5,0,0.5,0,1","0,1,0.5,0,1,0.5,1,0.5,0","3",""
"","html-keyboard-response","161","54289","0.0-238.0","34S9DKFK74BBWI537THPSWF8NU4YN2","A3CT8UTPVYUL04","3UDTAB6HH6LRO17U79I9TKUGYFV09C","","null","<img src=""img/food5.png"" style=""width:200px; border:14px solid green;"">","null","","","","","","","","","",""
"","image-keyboard-response","162","54327","0.0-240.0","34S9DKFK74BBWI537THPSWF8NU4YN2","A3CT8UTPVYUL04","3UDTAB6HH6LRO17U79I9TKUGYFV09C","","37","img/food5.png","74","37","1","0","false","2","2","1,0.5,0,1,0.5,0,0.5,0,1","0,1,0.5,0,1,0.5,1,0.5,0","3",""
"","html-keyboard-response","163","54643","0.0-241.0","34S9DKFK74BBWI537THPSWF8NU4YN2","A3CT8UTPVYUL04","3UDTAB6HH6LRO17U79I9TKUGYFV09C","","null","<img src=""img/food5.png"" style=""width:200px;border:14px solid red;"">","null","","","","","","","","","",""
"","image-keyboard-response","164","54687","0.0-243.0","34S9DKFK74BBWI537THPSWF8NU4YN2","A3CT8UTPVYUL04","3UDTAB6HH6LRO17U79I9TKUGYFV09C","","42","img/food5.png","75","42","2","1","false","2","2","1,0.5,0,1,0.5,0,0.5,0,1","0,1,0.5,0,1,0.5,1,0.5,0","3",""
"","html-keyboard-response","165","55007","0.0-244.0","34S9DKFK74BBWI537THPSWF8NU4YN2","A3CT8UTPVYUL04","3UDTAB6HH6LRO17U79I9TKUGYFV09C","","null","<img src=""img/food5.png"" style=""width:200px; border:14px solid green;"">","null","","","","","","","","","",""
"","image-keyboard-response","166","55319","0.0-246.0","34S9DKFK74BBWI537THPSWF8NU4YN2","A3CT8UTPVYUL04","3UDTAB6HH6LRO17U79I9TKUGYFV09C","","310","img/food1.png","74","312","1","0","false","1","2","1,0.5,0,1,0.5,0,0.5,0,1","0,1,0.5,0,1,0.5,1,0.5,0","3",""
"","html-keyboard-response","167","55626","0.0-247.0","34S9DKFK74BBWI537THPSWF8NU4YN2","A3CT8UTPVYUL04","3UDTAB6HH6LRO17U79I9TKUGYFV09C","","null","<img src=""img/food1.png"" style=""width:200px;border:14px solid red;"">","null","","","","","","","","","",""
"","image-keyboard-response","168","55662","0.0-249.0","34S9DKFK74BBWI537THPSWF8NU4YN2","A3CT8UTPVYUL04","3UDTAB6HH6LRO17U79I9TKUGYFV09C","","35","img/food2.png","76","35","3","0","false","3","2","1,0.5,0,1,0.5,0,0.5,0,1","0,1,0.5,0,1,0.5,1,0.5,0","3",""
"","html-keyboard-response","169","55965","0.0-250.0","34S9DKFK74BBWI537THPSWF8NU4YN2","A3CT8UTPVYUL04","3UDTAB6HH6LRO17U79I9TKUGYFV09C","","null","<img src=""img/food2.png"" style=""width:200px;border:14px solid red;"">","null","","","","","","","","","",""
"","image-keyboard-response","170","56079","0.0-252.0","34S9DKFK74BBWI537THPSWF8NU4YN2","A3CT8UTPVYUL04","3UDTAB6HH6LRO17U79I9TKUGYFV09C","","112","img/food5.png","74","113","1","0","false","2","2","1,0.5,0,1,0.5,0,0.5,0,1","0,1,0.5,0,1,0.5,1,0.5,0","3",""
"","html-keyboard-response","171","56383","0.0-253.0","34S9DKFK74BBWI537THPSWF8NU4YN2","A3CT8UTPVYUL04","3UDTAB6HH6LRO17U79I9TKUGYFV09C","","null","<img src=""img/food5.png"" style=""width:200px;border:14px solid red;"">","null","","","","","","","","","",""
"","image-keyboard-response","172","56406","0.0-255.0","34S9DKFK74BBWI537THPSWF8NU4YN2","A3CT8UTPVYUL04","3UDTAB6HH6LRO17U79I9TKUGYFV09C","","23","img/food2.png","75","23","2","1","false","3","2","1,0.5,0,1,0.5,0,0.5,0,1","0,1,0.5,0,1,0.5,1,0.5,0","3",""
"","html-keyboard-response","173","56715","0.0-256.0","34S9DKFK74BBWI537THPSWF8NU4YN2","A3CT8UTPVYUL04","3UDTAB6HH6LRO17U79I9TKUGYFV09C","","null","<img src=""img/food2.png"" style=""width:200px; border:14px solid green;"">","null","","","","","","","","","",""
"","image-keyboard-response","174","56742","0.0-258.0","34S9DKFK74BBWI537THPSWF8NU4YN2","A3CT8UTPVYUL04","3UDTAB6HH6LRO17U79I9TKUGYFV09C","","26","img/food2.png","75","26","2","0","false","3","2","1,0.5,0,1,0.5,0,0.5,0,1","0,1,0.5,0,1,0.5,1,0.5,0","3",""
"","html-keyboard-response","175","57054","0.0-259.0","34S9DKFK74BBWI537THPSWF8NU4YN2","A3CT8UTPVYUL04","3UDTAB6HH6LRO17U79I9TKUGYFV09C","","null","<img src=""img/food2.png"" style=""width:200px;border:14px solid red;"">","null","","","","","","","","","",""
"","image-keyboard-response","176","57238","0.0-261.0","34S9DKFK74BBWI537THPSWF8NU4YN2","A3CT8UTPVYUL04","3UDTAB6HH6LRO17U79I9TKUGYFV09C","","182","img/food2.png","74","183","1","1","false","3","2","1,0.5,0,1,0.5,0,0.5,0,1","0,1,0.5,0,1,0.5,1,0.5,0","3",""
"","html-keyboard-response","177","57557","0.0-262.0","34S9DKFK74BBWI537THPSWF8NU4YN2","A3CT8UTPVYUL04","3UDTAB6HH6LRO17U79I9TKUGYFV09C","","null","<img src=""img/food2.png"" style=""width:200px; border:14px solid green;"">","null","","","","","","","","","",""
"","image-keyboard-response","178","57631","0.0-264.0","34S9DKFK74BBWI537THPSWF8NU4YN2","A3CT8UTPVYUL04","3UDTAB6HH6LRO17U79I9TKUGYFV09C","","71","img/food5.png","75","72","2","1","false","2","2","1,0.5,0,1,0.5,0,0.5,0,1","0,1,0.5,0,1,0.5,1,0.5,0","3",""
"","html-keyboard-response","179","57936","0.0-265.0","34S9DKFK74BBWI537THPSWF8NU4YN2","A3CT8UTPVYUL04","3UDTAB6HH6LRO17U79I9TKUGYFV09C","","null","<img src=""img/food5.png"" style=""width:200px; border:14px solid green;"">","null","","","","","","","","","",""
"","image-keyboard-response","180","57958","0.0-267.0","34S9DKFK74BBWI537THPSWF8NU4YN2","A3CT8UTPVYUL04","3UDTAB6HH6LRO17U79I9TKUGYFV09C","","22","img/food2.png","75","22","2","1","false","3","2","1,0.5,0,1,0.5,0,0.5,0,1","0,1,0.5,0,1,0.5,1,0.5,0","3",""
"","html-keyboard-response","181","58260","0.0-268.0","34S9DKFK74BBWI537THPSWF8NU4YN2","A3CT8UTPVYUL04","3UDTAB6HH6LRO17U79I9TKUGYFV09C","","null","<img src=""img/food2.png"" style=""width:200px; border:14px solid green;"">","null","","","","","","","","","",""
"","image-keyboard-response","182","58294","0.0-270.0","34S9DKFK74BBWI537THPSWF8NU4YN2","A3CT8UTPVYUL04","3UDTAB6HH6LRO17U79I9TKUGYFV09C","","33","img/food1.png","75","33","2","1","false","1","2","1,0.5,0,1,0.5,0,0.5,0,1","0,1,0.5,0,1,0.5,1,0.5,0","3",""
"","html-keyboard-response","183","58608","0.0-271.0","34S9DKFK74BBWI537THPSWF8NU4YN2","A3CT8UTPVYUL04","3UDTAB6HH6LRO17U79I9TKUGYFV09C","","null","<img src=""img/food1.png"" style=""width:200px; border:14px solid green;"">","null","","","","","","","","","",""
"","instructions","184","62518","0.0-273.0","34S9DKFK74BBWI537THPSWF8NU4YN2","A3CT8UTPVYUL04","3UDTAB6HH6LRO17U79I9TKUGYFV09C","[{""page_index"":0,""viewing_time"":2934},{""page_index"":1,""viewing_time"":975}]","3910","","","","","","","","","","","",""
"","image-keyboard-response","185","63061","0.0-274.0","34S9DKFK74BBWI537THPSWF8NU4YN2","A3CT8UTPVYUL04","3UDTAB6HH6LRO17U79I9TKUGYFV09C","","540","img/food4.png","74","542","1","0","","2","1","1,0.5,0,1,0.5,0,0.5,0,1","0,1,0.5,0,1,0.5,1,0.5,0","3",""
"","html-keyboard-response","186","63366","0.0-275.0","34S9DKFK74BBWI537THPSWF8NU4YN2","A3CT8UTPVYUL04","3UDTAB6HH6LRO17U79I9TKUGYFV09C","","null","<img src=""img/food4.png"" style=""width:200px;border:14px solid red;"">","null","","","","","","","","","",""
"","image-keyboard-response","187","63380","0.0-276.0","34S9DKFK74BBWI537THPSWF8NU4YN2","A3CT8UTPVYUL04","3UDTAB6HH6LRO17U79I9TKUGYFV09C","","13","img/food3.png","75","13","2","1","","3","1","1,0.5,0,1,0.5,0,0.5,0,1","0,1,0.5,0,1,0.5,1,0.5,0","3",""
"","html-keyboard-response","188","63691","0.0-277.0","34S9DKFK74BBWI537THPSWF8NU4YN2","A3CT8UTPVYUL04","3UDTAB6HH6LRO17U79I9TKUGYFV09C","","null","<img src=""img/food3.png"" style=""width:200px; border:14px solid green;"">","null","","","","","","","","","",""
"","image-keyboard-response","189","63692","0.0-278.0","34S9DKFK74BBWI537THPSWF8NU4YN2","A3CT8UTPVYUL04","3UDTAB6HH6LRO17U79I9TKUGYFV09C","","1","img/food6.png","75","1","2","1","","1","1","1,0.5,0,1,0.5,0,0.5,0,1","0,1,0.5,0,1,0.5,1,0.5,0","3",""
"","html-keyboard-response","190","64040","0.0-279.0","34S9DKFK74BBWI537THPSWF8NU4YN2","A3CT8UTPVYUL04","3UDTAB6HH6LRO17U79I9TKUGYFV09C","","null","<img src=""img/food6.png"" style=""width:200px; border:14px solid green;"">","null","","","","","","","","","",""
"","image-keyboard-response","191","64116","0.0-280.0","34S9DKFK74BBWI537THPSWF8NU4YN2","A3CT8UTPVYUL04","3UDTAB6HH6LRO17U79I9TKUGYFV09C","","76","img/food3.png","76","78","3","0","","3","1","1,0.5,0,1,0.5,0,0.5,0,1","0,1,0.5,0,1,0.5,1,0.5,0","3",""
"","html-keyboard-response","192","64425","0.0-281.0","34S9DKFK74BBWI537THPSWF8NU4YN2","A3CT8UTPVYUL04","3UDTAB6HH6LRO17U79I9TKUGYFV09C","","null","<img src=""img/food3.png"" style=""width:200px;border:14px solid red;"">","null","","","","","","","","","",""
"","image-keyboard-response","193","64581","0.0-282.0","34S9DKFK74BBWI537THPSWF8NU4YN2","A3CT8UTPVYUL04","3UDTAB6HH6LRO17U79I9TKUGYFV09C","","154","img/food4.png","74","155","1","0","","2","1","1,0.5,0,1,0.5,0,0.5,0,1","0,1,0.5,0,1,0.5,1,0.5,0","3",""
"","html-keyboard-response","194","64897","0.0-283.0","34S9DKFK74BBWI537THPSWF8NU4YN2","A3CT8UTPVYUL04","3UDTAB6HH6LRO17U79I9TKUGYFV09C","","null","<img src=""img/food4.png"" style=""width:200px;border:14px solid red;"">","null","","","","","","","","","",""
"","image-keyboard-response","195","64907","0.0-284.0","34S9DKFK74BBWI537THPSWF8NU4YN2","A3CT8UTPVYUL04","3UDTAB6HH6LRO17U79I9TKUGYFV09C","","9","img/food3.png","74","11","1","1","","3","1","1,0.5,0,1,0.5,0,0.5,0,1","0,1,0.5,0,1,0.5,1,0.5,0","3",""
"","html-keyboard-response","196","65214","0.0-285.0","34S9DKFK74BBWI537THPSWF8NU4YN2","A3CT8UTPVYUL04","3UDTAB6HH6LRO17U79I9TKUGYFV09C","","null","<img src=""img/food3.png"" style=""width:200px; border:14px solid green;"">","null","","","","","","","","","",""
"","image-keyboard-response","197","65237","0.0-286.0","34S9DKFK74BBWI537THPSWF8NU4YN2","A3CT8UTPVYUL04","3UDTAB6HH6LRO17U79I9TKUGYFV09C","","22","img/food3.png","74","22","1","1","","3","1","1,0.5,0,1,0.5,0,0.5,0,1","0,1,0.5,0,1,0.5,1,0.5,0","3",""
"","html-keyboard-response","198","65548","0.0-287.0","34S9DKFK74BBWI537THPSWF8NU4YN2","A3CT8UTPVYUL04","3UDTAB6HH6LRO17U79I9TKUGYFV09C","","null","<img src=""img/food3.png"" style=""width:200px; border:14px solid green;"">","null","","","","","","","","","",""
"","image-keyboard-response","199","65571","0.0-288.0","34S9DKFK74BBWI537THPSWF8NU4YN2","A3CT8UTPVYUL04","3UDTAB6HH6LRO17U79I9TKUGYFV09C","","22","img/food3.png","74","23","1","1","","3","1","1,0.5,0,1,0.5,0,0.5,0,1","0,1,0.5,0,1,0.5,1,0.5,0","3",""
"","html-keyboard-response","200","65887","0.0-289.0","34S9DKFK74BBWI537THPSWF8NU4YN2","A3CT8UTPVYUL04","3UDTAB6HH6LRO17U79I9TKUGYFV09C","","null","<img src=""img/food3.png"" style=""width:200px; border:14px solid green;"">","null","","","","","","","","","",""
"","image-keyboard-response","201","65900","0.0-290.0","34S9DKFK74BBWI537THPSWF8NU4YN2","A3CT8UTPVYUL04","3UDTAB6HH6LRO17U79I9TKUGYFV09C","","12","img/food4.png","74","12","1","0","","2","1","1,0.5,0,1,0.5,0,0.5,0,1","0,1,0.5,0,1,0.5,1,0.5,0","3",""
"","html-keyboard-response","202","66205","0.0-291.0","34S9DKFK74BBWI537THPSWF8NU4YN2","A3CT8UTPVYUL04","3UDTAB6HH6LRO17U79I9TKUGYFV09C","","null","<img src=""img/food4.png"" style=""width:200px;border:14px solid red;"">","null","","","","","","","","","",""
"","image-keyboard-response","203","66219","0.0-292.0","34S9DKFK74BBWI537THPSWF8NU4YN2","A3CT8UTPVYUL04","3UDTAB6HH6LRO17U79I9TKUGYFV09C","","14","img/food4.png","74","14","1","0","","2","1","1,0.5,0,1,0.5,0,0.5,0,1","0,1,0.5,0,1,0.5,1,0.5,0","3",""
"","html-keyboard-response","204","66522","0.0-293.0","34S9DKFK74BBWI537THPSWF8NU4YN2","A3CT8UTPVYUL04","3UDTAB6HH6LRO17U79I9TKUGYFV09C","","null","<img src=""img/food4.png"" style=""width:200px;border:14px solid red;"">","null","","","","","","","","","",""
"","image-keyboard-response","205","66668","0.0-294.0","34S9DKFK74BBWI537THPSWF8NU4YN2","A3CT8UTPVYUL04","3UDTAB6HH6LRO17U79I9TKUGYFV09C","","145","img/food4.png","75","145","2","1","","2","1","1,0.5,0,1,0.5,0,0.5,0,1","0,1,0.5,0,1,0.5,1,0.5,0","3",""
"","html-keyboard-response","206","66971","0.0-295.0","34S9DKFK74BBWI537THPSWF8NU4YN2","A3CT8UTPVYUL04","3UDTAB6HH6LRO17U79I9TKUGYFV09C","","null","<img src=""img/food4.png"" style=""width:200px; border:14px solid green;"">","null","","","","","","","","","",""
"","image-keyboard-response","207","67115","0.0-296.0","34S9DKFK74BBWI537THPSWF8NU4YN2","A3CT8UTPVYUL04","3UDTAB6HH6LRO17U79I9TKUGYFV09C","","142","img/food6.png","74","145","1","0","","1","1","1,0.5,0,1,0.5,0,0.5,0,1","0,1,0.5,0,1,0.5,1,0.5,0","3",""
"","html-keyboard-response","208","67428","0.0-297.0","34S9DKFK74BBWI537THPSWF8NU4YN2","A3CT8UTPVYUL04","3UDTAB6HH6LRO17U79I9TKUGYFV09C","","null","<img src=""img/food6.png"" style=""width:200px;border:14px solid red;"">","null","","","","","","","","","",""
"","image-keyboard-response","209","67459","0.0-298.0","34S9DKFK74BBWI537THPSWF8NU4YN2","A3CT8UTPVYUL04","3UDTAB6HH6LRO17U79I9TKUGYFV09C","","32","img/food4.png","75","33","2","1","","2","1","1,0.5,0,1,0.5,0,0.5,0,1","0,1,0.5,0,1,0.5,1,0.5,0","3",""
"","html-keyboard-response","210","67760","0.0-299.0","34S9DKFK74BBWI537THPSWF8NU4YN2","A3CT8UTPVYUL04","3UDTAB6HH6LRO17U79I9TKUGYFV09C","","null","<img src=""img/food4.png"" style=""width:200px; border:14px solid green;"">","null","","","","","","","","","",""
"","image-keyboard-response","211","67788","0.0-300.0","34S9DKFK74BBWI537THPSWF8NU4YN2","A3CT8UTPVYUL04","3UDTAB6HH6LRO17U79I9TKUGYFV09C","","24","img/food6.png","75","25","2","1","","1","1","1,0.5,0,1,0.5,0,0.5,0,1","0,1,0.5,0,1,0.5,1,0.5,0","3",""
"","html-keyboard-response","212","68093","0.0-301.0","34S9DKFK74BBWI537THPSWF8NU4YN2","A3CT8UTPVYUL04","3UDTAB6HH6LRO17U79I9TKUGYFV09C","","null","<img src=""img/food6.png"" style=""width:200px; border:14px solid green;"">","null","","","","","","","","","",""
"","image-keyboard-response","213","68235","0.0-302.0","34S9DKFK74BBWI537THPSWF8NU4YN2","A3CT8UTPVYUL04","3UDTAB6HH6LRO17U79I9TKUGYFV09C","","141","img/food6.png","74","141","1","0","","1","1","1,0.5,0,1,0.5,0,0.5,0,1","0,1,0.5,0,1,0.5,1,0.5,0","3",""
"","html-keyboard-response","214","68551","0.0-303.0","34S9DKFK74BBWI537THPSWF8NU4YN2","A3CT8UTPVYUL04","3UDTAB6HH6LRO17U79I9TKUGYFV09C","","null","<img src=""img/food6.png"" style=""width:200px;border:14px solid red;"">","null","","","","","","","","","",""
"","image-keyboard-response","215","68557","0.0-304.0","34S9DKFK74BBWI537THPSWF8NU4YN2","A3CT8UTPVYUL04","3UDTAB6HH6LRO17U79I9TKUGYFV09C","","4","img/food6.png","75","5","2","1","","1","1","1,0.5,0,1,0.5,0,0.5,0,1","0,1,0.5,0,1,0.5,1,0.5,0","3",""
"","html-keyboard-response","216","68868","0.0-305.0","34S9DKFK74BBWI537THPSWF8NU4YN2","A3CT8UTPVYUL04","3UDTAB6HH6LRO17U79I9TKUGYFV09C","","null","<img src=""img/food6.png"" style=""width:200px; border:14px solid green;"">","null","","","","","","","","","",""
"","image-keyboard-response","217","68874","0.0-306.0","34S9DKFK74BBWI537THPSWF8NU4YN2","A3CT8UTPVYUL04","3UDTAB6HH6LRO17U79I9TKUGYFV09C","","6","img/food6.png","75","6","2","1","","1","1","1,0.5,0,1,0.5,0,0.5,0,1","0,1,0.5,0,1,0.5,1,0.5,0","3",""
"","html-keyboard-response","218","69186","0.0-307.0","34S9DKFK74BBWI537THPSWF8NU4YN2","A3CT8UTPVYUL04","3UDTAB6HH6LRO17U79I9TKUGYFV09C","","null","<img src=""img/food6.png"" style=""width:200px; border:14px solid green;"">","null","","","","","","","","","",""
"","image-keyboard-response","219","69243","0.0-308.0","34S9DKFK74BBWI537THPSWF8NU4YN2","A3CT8UTPVYUL04","3UDTAB6HH6LRO17U79I9TKUGYFV09C","","57","img/food6.png","76","57","3","1","","1","1","1,0.5,0,1,0.5,0,0.5,0,1","0,1,0.5,0,1,0.5,1,0.5,0","3",""
"","html-keyboard-response","220","69556","0.0-309.0","34S9DKFK74BBWI537THPSWF8NU4YN2","A3CT8UTPVYUL04","3UDTAB6HH6LRO17U79I9TKUGYFV09C","","null","<img src=""img/food6.png"" style=""width:200px; border:14px solid green;"">","null","","","","","","","","","",""
"","image-keyboard-response","221","69611","0.0-310.0","34S9DKFK74BBWI537THPSWF8NU4YN2","A3CT8UTPVYUL04","3UDTAB6HH6LRO17U79I9TKUGYFV09C","","53","img/food4.png","74","54","1","0","","2","1","1,0.5,0,1,0.5,0,0.5,0,1","0,1,0.5,0,1,0.5,1,0.5,0","3",""
"","html-keyboard-response","222","69927","0.0-311.0","34S9DKFK74BBWI537THPSWF8NU4YN2","A3CT8UTPVYUL04","3UDTAB6HH6LRO17U79I9TKUGYFV09C","","null","<img src=""img/food4.png"" style=""width:200px;border:14px solid red;"">","null","","","","","","","","","",""
"","image-keyboard-response","223","69932","0.0-312.0","34S9DKFK74BBWI537THPSWF8NU4YN2","A3CT8UTPVYUL04","3UDTAB6HH6LRO17U79I9TKUGYFV09C","","5","img/food6.png","75","6","2","1","","1","1","1,0.5,0,1,0.5,0,0.5,0,1","0,1,0.5,0,1,0.5,1,0.5,0","3",""
"","html-keyboard-response","224","70244","0.0-313.0","34S9DKFK74BBWI537THPSWF8NU4YN2","A3CT8UTPVYUL04","3UDTAB6HH6LRO17U79I9TKUGYFV09C","","null","<img src=""img/food6.png"" style=""width:200px; border:14px solid green;"">","null","","","","","","","","","",""
"","image-keyboard-response","225","70266","0.0-314.0","34S9DKFK74BBWI537THPSWF8NU4YN2","A3CT8UTPVYUL04","3UDTAB6HH6LRO17U79I9TKUGYFV09C","","21","img/food4.png","76","23","3","1","","2","1","1,0.5,0,1,0.5,0,0.5,0,1","0,1,0.5,0,1,0.5,1,0.5,0","3",""
"","html-keyboard-response","226","70594","0.0-315.0","34S9DKFK74BBWI537THPSWF8NU4YN2","A3CT8UTPVYUL04","3UDTAB6HH6LRO17U79I9TKUGYFV09C","","null","<img src=""img/food4.png"" style=""width:200px; border:14px solid green;"">","null","","","","","","","","","",""
"","image-keyboard-response","227","70707","0.0-316.0","34S9DKFK74BBWI537THPSWF8NU4YN2","A3CT8UTPVYUL04","3UDTAB6HH6LRO17U79I9TKUGYFV09C","","112","img/food3.png","74","113","1","1","","3","1","1,0.5,0,1,0.5,0,0.5,0,1","0,1,0.5,0,1,0.5,1,0.5,0","3",""
"","html-keyboard-response","228","71011","0.0-317.0","34S9DKFK74BBWI537THPSWF8NU4YN2","A3CT8UTPVYUL04","3UDTAB6HH6LRO17U79I9TKUGYFV09C","","null","<img src=""img/food3.png"" style=""width:200px; border:14px solid green;"">","null","","","","","","","","","",""
"","image-keyboard-response","229","71082","0.0-318.0","34S9DKFK74BBWI537THPSWF8NU4YN2","A3CT8UTPVYUL04","3UDTAB6HH6LRO17U79I9TKUGYFV09C","","70","img/food3.png","75","71","2","0","","3","1","1,0.5,0,1,0.5,0,0.5,0,1","0,1,0.5,0,1,0.5,1,0.5,0","3",""
"","html-keyboard-response","230","71397","0.0-319.0","34S9DKFK74BBWI537THPSWF8NU4YN2","A3CT8UTPVYUL04","3UDTAB6HH6LRO17U79I9TKUGYFV09C","","null","<img src=""img/food3.png"" style=""width:200px;border:14px solid red;"">","null","","","","","","","","","",""
"","image-keyboard-response","231","71434","0.0-320.0","34S9DKFK74BBWI537THPSWF8NU4YN2","A3CT8UTPVYUL04","3UDTAB6HH6LRO17U79I9TKUGYFV09C","","36","img/food3.png","76","36","3","0","","3","1","1,0.5,0,1,0.5,0,0.5,0,1","0,1,0.5,0,1,0.5,1,0.5,0","3",""
"","html-keyboard-response","232","71738","0.0-321.0","34S9DKFK74BBWI537THPSWF8NU4YN2","A3CT8UTPVYUL04","3UDTAB6HH6LRO17U79I9TKUGYFV09C","","null","<img src=""img/food3.png"" style=""width:200px;border:14px solid red;"">","null","","","","","","","","","",""
"","image-keyboard-response","233","71866","0.0-322.0","34S9DKFK74BBWI537THPSWF8NU4YN2","A3CT8UTPVYUL04","3UDTAB6HH6LRO17U79I9TKUGYFV09C","","127","img/food3.png","74","127","1","1","","3","1","1,0.5,0,1,0.5,0,0.5,0,1","0,1,0.5,0,1,0.5,1,0.5,0","3",""
"","html-keyboard-response","234","72170","0.0-323.0","34S9DKFK74BBWI537THPSWF8NU4YN2","A3CT8UTPVYUL04","3UDTAB6HH6LRO17U79I9TKUGYFV09C","","null","<img src=""img/food3.png"" style=""width:200px; border:14px solid green;"">","null","","","","","","","","","",""
"","image-keyboard-response","235","72257","0.0-324.0","34S9DKFK74BBWI537THPSWF8NU4YN2","A3CT8UTPVYUL04","3UDTAB6HH6LRO17U79I9TKUGYFV09C","","87","img/food3.png","75","87","2","0","","3","1","1,0.5,0,1,0.5,0,0.5,0,1","0,1,0.5,0,1,0.5,1,0.5,0","3",""
"","html-keyboard-response","236","72572","0.0-325.0","34S9DKFK74BBWI537THPSWF8NU4YN2","A3CT8UTPVYUL04","3UDTAB6HH6LRO17U79I9TKUGYFV09C","","null","<img src=""img/food3.png"" style=""width:200px;border:14px solid red;"">","null","","","","","","","","","",""
"","image-keyboard-response","237","72587","0.0-326.0","34S9DKFK74BBWI537THPSWF8NU4YN2","A3CT8UTPVYUL04","3UDTAB6HH6LRO17U79I9TKUGYFV09C","","13","img/food4.png","76","13","3","1","","2","1","1,0.5,0,1,0.5,0,0.5,0,1","0,1,0.5,0,1,0.5,1,0.5,0","3",""
"","html-keyboard-response","238","72904","0.0-327.0","34S9DKFK74BBWI537THPSWF8NU4YN2","A3CT8UTPVYUL04","3UDTAB6HH6LRO17U79I9TKUGYFV09C","","null","<img src=""img/food4.png"" style=""width:200px; border:14px solid green;"">","null","","","","","","","","","",""
"","image-keyboard-response","239","73034","0.0-328.0","34S9DKFK74BBWI537THPSWF8NU4YN2","A3CT8UTPVYUL04","3UDTAB6HH6LRO17U79I9TKUGYFV09C","","128","img/food6.png","74","130","1","0","","1","1","1,0.5,0,1,0.5,0,0.5,0,1","0,1,0.5,0,1,0.5,1,0.5,0","3",""
"","html-keyboard-response","240","73345","0.0-329.0","34S9DKFK74BBWI537THPSWF8NU4YN2","A3CT8UTPVYUL04","3UDTAB6HH6LRO17U79I9TKUGYFV09C","","null","<img src=""img/food6.png"" style=""width:200px;border:14px solid red;"">","null","","","","","","","","","",""
"","image-keyboard-response","241","73402","0.0-330.0","34S9DKFK74BBWI537THPSWF8NU4YN2","A3CT8UTPVYUL04","3UDTAB6HH6LRO17U79I9TKUGYFV09C","","56","img/food4.png","75","57","2","1","","2","1","1,0.5,0,1,0.5,0,0.5,0,1","0,1,0.5,0,1,0.5,1,0.5,0","3",""
"","html-keyboard-response","242","73710","0.0-331.0","34S9DKFK74BBWI537THPSWF8NU4YN2","A3CT8UTPVYUL04","3UDTAB6HH6LRO17U79I9TKUGYFV09C","","null","<img src=""img/food4.png"" style=""width:200px; border:14px solid green;"">","null","","","","","","","","","",""
"","image-keyboard-response","243","73754","0.0-332.0","34S9DKFK74BBWI537THPSWF8NU4YN2","A3CT8UTPVYUL04","3UDTAB6HH6LRO17U79I9TKUGYFV09C","","43","img/food4.png","75","44","2","1","","2","1","1,0.5,0,1,0.5,0,0.5,0,1","0,1,0.5,0,1,0.5,1,0.5,0","3",""
"","html-keyboard-response","244","74064","0.0-333.0","34S9DKFK74BBWI537THPSWF8NU4YN2","A3CT8UTPVYUL04","3UDTAB6HH6LRO17U79I9TKUGYFV09C","","null","<img src=""img/food4.png"" style=""width:200px; border:14px solid green;"">","null","","","","","","","","","",""
"","image-keyboard-response","245","74085","0.0-334.0","34S9DKFK74BBWI537THPSWF8NU4YN2","A3CT8UTPVYUL04","3UDTAB6HH6LRO17U79I9TKUGYFV09C","","18","img/food3.png","76","20","3","0","","3","1","1,0.5,0,1,0.5,0,0.5,0,1","0,1,0.5,0,1,0.5,1,0.5,0","3",""
"","html-keyboard-response","246","74398","0.0-335.0","34S9DKFK74BBWI537THPSWF8NU4YN2","A3CT8UTPVYUL04","3UDTAB6HH6LRO17U79I9TKUGYFV09C","","null","<img src=""img/food3.png"" style=""width:200px;border:14px solid red;"">","null","","","","","","","","","",""
"","image-keyboard-response","247","74420","0.0-336.0","34S9DKFK74BBWI537THPSWF8NU4YN2","A3CT8UTPVYUL04","3UDTAB6HH6LRO17U79I9TKUGYFV09C","","20","img/food4.png","76","21","3","0","","2","1","1,0.5,0,1,0.5,0,0.5,0,1","0,1,0.5,0,1,0.5,1,0.5,0","3",""
"","html-keyboard-response","248","74732","0.0-337.0","34S9DKFK74BBWI537THPSWF8NU4YN2","A3CT8UTPVYUL04","3UDTAB6HH6LRO17U79I9TKUGYFV09C","","null","<img src=""img/food4.png"" style=""width:200px;border:14px solid red;"">","null","","","","","","","","","",""
"","image-keyboard-response","249","74897","0.0-338.0","34S9DKFK74BBWI537THPSWF8NU4YN2","A3CT8UTPVYUL04","3UDTAB6HH6LRO17U79I9TKUGYFV09C","","165","img/food3.png","74","166","1","1","","3","1","1,0.5,0,1,0.5,0,0.5,0,1","0,1,0.5,0,1,0.5,1,0.5,0","3",""
"","html-keyboard-response","250","75204","0.0-339.0","34S9DKFK74BBWI537THPSWF8NU4YN2","A3CT8UTPVYUL04","3UDTAB6HH6LRO17U79I9TKUGYFV09C","","null","<img src=""img/food3.png"" style=""width:200px; border:14px solid green;"">","null","","","","","","","","","",""
"","image-keyboard-response","251","75289","0.0-340.0","34S9DKFK74BBWI537THPSWF8NU4YN2","A3CT8UTPVYUL04","3UDTAB6HH6LRO17U79I9TKUGYFV09C","","84","img/food3.png","75","85","2","0","","3","1","1,0.5,0,1,0.5,0,0.5,0,1","0,1,0.5,0,1,0.5,1,0.5,0","3",""
"","html-keyboard-response","252","75605","0.0-341.0","34S9DKFK74BBWI537THPSWF8NU4YN2","A3CT8UTPVYUL04","3UDTAB6HH6LRO17U79I9TKUGYFV09C","","null","<img src=""img/food3.png"" style=""width:200px;border:14px solid red;"">","null","","","","","","","","","",""
"","image-keyboard-response","253","75617","0.0-342.0","34S9DKFK74BBWI537THPSWF8NU4YN2","A3CT8UTPVYUL04","3UDTAB6HH6LRO17U79I9TKUGYFV09C","","11","img/food3.png","76","12","3","0","","3","1","1,0.5,0,1,0.5,0,0.5,0,1","0,1,0.5,0,1,0.5,1,0.5,0","3",""
"","html-keyboard-response","254","75924","0.0-343.0","34S9DKFK74BBWI537THPSWF8NU4YN2","A3CT8UTPVYUL04","3UDTAB6HH6LRO17U79I9TKUGYFV09C","","null","<img src=""img/food3.png"" style=""width:200px;border:14px solid red;"">","null","","","","","","","","","",""
"","image-keyboard-response","255","75930","0.0-344.0","34S9DKFK74BBWI537THPSWF8NU4YN2","A3CT8UTPVYUL04","3UDTAB6HH6LRO17U79I9TKUGYFV09C","","6","img/food6.png","76","6","3","0","","1","1","1,0.5,0,1,0.5,0,0.5,0,1","0,1,0.5,0,1,0.5,1,0.5,0","3",""
"","html-keyboard-response","256","76241","0.0-345.0","34S9DKFK74BBWI537THPSWF8NU4YN2","A3CT8UTPVYUL04","3UDTAB6HH6LRO17U79I9TKUGYFV09C","","null","<img src=""img/food6.png"" style=""width:200px;border:14px solid red;"">","null","","","","","","","","","",""
"","image-keyboard-response","257","76385","0.0-346.0","34S9DKFK74BBWI537THPSWF8NU4YN2","A3CT8UTPVYUL04","3UDTAB6HH6LRO17U79I9TKUGYFV09C","","144","img/food3.png","74","144","1","1","","3","1","1,0.5,0,1,0.5,0,0.5,0,1","0,1,0.5,0,1,0.5,1,0.5,0","3",""
"","html-keyboard-response","258","76696","0.0-347.0","34S9DKFK74BBWI537THPSWF8NU4YN2","A3CT8UTPVYUL04","3UDTAB6HH6LRO17U79I9TKUGYFV09C","","null","<img src=""img/food3.png"" style=""width:200px; border:14px solid green;"">","null","","","","","","","","","",""
"","image-keyboard-response","259","76705","0.0-348.0","34S9DKFK74BBWI537THPSWF8NU4YN2","A3CT8UTPVYUL04","3UDTAB6HH6LRO17U79I9TKUGYFV09C","","7","img/food3.png","74","7","1","1","","3","1","1,0.5,0,1,0.5,0,0.5,0,1","0,1,0.5,0,1,0.5,1,0.5,0","3",""
"","html-keyboard-response","260","77029","0.0-349.0","34S9DKFK74BBWI537THPSWF8NU4YN2","A3CT8UTPVYUL04","3UDTAB6HH6LRO17U79I9TKUGYFV09C","","null","<img src=""img/food3.png"" style=""width:200px; border:14px solid green;"">","null","","","","","","","","","",""
"","image-keyboard-response","261","77081","0.0-350.0","34S9DKFK74BBWI537THPSWF8NU4YN2","A3CT8UTPVYUL04","3UDTAB6HH6LRO17U79I9TKUGYFV09C","","50","img/food6.png","75","51","2","1","","1","1","1,0.5,0,1,0.5,0,0.5,0,1","0,1,0.5,0,1,0.5,1,0.5,0","3",""
"","html-keyboard-response","262","77385","0.0-351.0","34S9DKFK74BBWI537THPSWF8NU4YN2","A3CT8UTPVYUL04","3UDTAB6HH6LRO17U79I9TKUGYFV09C","","null","<img src=""img/food6.png"" style=""width:200px; border:14px solid green;"">","null","","","","","","","","","",""
"","image-keyboard-response","263","77408","0.0-352.0","34S9DKFK74BBWI537THPSWF8NU4YN2","A3CT8UTPVYUL04","3UDTAB6HH6LRO17U79I9TKUGYFV09C","","22","img/food4.png","75","24","2","1","","2","1","1,0.5,0,1,0.5,0,0.5,0,1","0,1,0.5,0,1,0.5,1,0.5,0","3",""
"","html-keyboard-response","264","77718","0.0-353.0","34S9DKFK74BBWI537THPSWF8NU4YN2","A3CT8UTPVYUL04","3UDTAB6HH6LRO17U79I9TKUGYFV09C","","null","<img src=""img/food4.png"" style=""width:200px; border:14px solid green;"">","null","","","","","","","","","",""
"","image-keyboard-response","265","77729","0.0-354.0","34S9DKFK74BBWI537THPSWF8NU4YN2","A3CT8UTPVYUL04","3UDTAB6HH6LRO17U79I9TKUGYFV09C","","9","img/food3.png","76","9","3","0","","3","1","1,0.5,0,1,0.5,0,0.5,0,1","0,1,0.5,0,1,0.5,1,0.5,0","3",""
"","html-keyboard-response","266","78051","0.0-355.0","34S9DKFK74BBWI537THPSWF8NU4YN2","A3CT8UTPVYUL04","3UDTAB6HH6LRO17U79I9TKUGYFV09C","","null","<img src=""img/food3.png"" style=""width:200px;border:14px solid red;"">","null","","","","","","","","","",""
"","image-keyboard-response","267","78160","0.0-356.0","34S9DKFK74BBWI537THPSWF8NU4YN2","A3CT8UTPVYUL04","3UDTAB6HH6LRO17U79I9TKUGYFV09C","","108","img/food4.png","74","109","1","0","","2","1","1,0.5,0,1,0.5,0,0.5,0,1","0,1,0.5,0,1,0.5,1,0.5,0","3",""
"","html-keyboard-response","268","78475","0.0-357.0","34S9DKFK74BBWI537THPSWF8NU4YN2","A3CT8UTPVYUL04","3UDTAB6HH6LRO17U79I9TKUGYFV09C","","null","<img src=""img/food4.png"" style=""width:200px;border:14px solid red;"">","null","","","","","","","","","",""
"","image-keyboard-response","269","78529","0.0-358.0","34S9DKFK74BBWI537THPSWF8NU4YN2","A3CT8UTPVYUL04","3UDTAB6HH6LRO17U79I9TKUGYFV09C","","51","img/food4.png","75","53","2","1","","2","1","1,0.5,0,1,0.5,0,0.5,0,1","0,1,0.5,0,1,0.5,1,0.5,0","3",""
"","html-keyboard-response","270","78840","0.0-359.0","34S9DKFK74BBWI537THPSWF8NU4YN2","A3CT8UTPVYUL04","3UDTAB6HH6LRO17U79I9TKUGYFV09C","","null","<img src=""img/food4.png"" style=""width:200px; border:14px solid green;"">","null","","","","","","","","","",""
"","image-keyboard-response","271","78859","0.0-360.0","34S9DKFK74BBWI537THPSWF8NU4YN2","A3CT8UTPVYUL04","3UDTAB6HH6LRO17U79I9TKUGYFV09C","","18","img/food3.png","76","19","3","0","","3","1","1,0.5,0,1,0.5,0,0.5,0,1","0,1,0.5,0,1,0.5,1,0.5,0","3",""
"","html-keyboard-response","272","79162","0.0-361.0","34S9DKFK74BBWI537THPSWF8NU4YN2","A3CT8UTPVYUL04","3UDTAB6HH6LRO17U79I9TKUGYFV09C","","null","<img src=""img/food3.png"" style=""width:200px;border:14px solid red;"">","null","","","","","","","","","",""
"","image-keyboard-response","273","79312","0.0-362.0","34S9DKFK74BBWI537THPSWF8NU4YN2","A3CT8UTPVYUL04","3UDTAB6HH6LRO17U79I9TKUGYFV09C","","148","img/food4.png","74","149","1","0","","2","1","1,0.5,0,1,0.5,0,0.5,0,1","0,1,0.5,0,1,0.5,1,0.5,0","3",""
"","html-keyboard-response","274","79627","0.0-363.0","34S9DKFK74BBWI537THPSWF8NU4YN2","A3CT8UTPVYUL04","3UDTAB6HH6LRO17U79I9TKUGYFV09C","","null","<img src=""img/food4.png"" style=""width:200px;border:14px solid red;"">","null","","","","","","","","","",""
"","image-keyboard-response","275","79640","0.0-364.0","34S9DKFK74BBWI537THPSWF8NU4YN2","A3CT8UTPVYUL04","3UDTAB6HH6LRO17U79I9TKUGYFV09C","","12","img/food3.png","74","12","1","1","","3","1","1,0.5,0,1,0.5,0,0.5,0,1","0,1,0.5,0,1,0.5,1,0.5,0","3",""
"","html-keyboard-response","276","79944","0.0-365.0","34S9DKFK74BBWI537THPSWF8NU4YN2","A3CT8UTPVYUL04","3UDTAB6HH6LRO17U79I9TKUGYFV09C","","null","<img src=""img/food3.png"" style=""width:200px; border:14px solid green;"">","null","","","","","","","","","",""
"","image-keyboard-response","277","80048","0.0-366.0","34S9DKFK74BBWI537THPSWF8NU4YN2","A3CT8UTPVYUL04","3UDTAB6HH6LRO17U79I9TKUGYFV09C","","103","img/food4.png","76","103","3","0","","2","1","1,0.5,0,1,0.5,0,0.5,0,1","0,1,0.5,0,1,0.5,1,0.5,0","3",""
"","html-keyboard-response","278","80363","0.0-367.0","34S9DKFK74BBWI537THPSWF8NU4YN2","A3CT8UTPVYUL04","3UDTAB6HH6LRO17U79I9TKUGYFV09C","","null","<img src=""img/food4.png"" style=""width:200px;border:14px solid red;"">","null","","","","","","","","","",""
"","image-keyboard-response","279","80513","0.0-368.0","34S9DKFK74BBWI537THPSWF8NU4YN2","A3CT8UTPVYUL04","3UDTAB6HH6LRO17U79I9TKUGYFV09C","","147","img/food3.png","74","148","1","1","","3","1","1,0.5,0,1,0.5,0,0.5,0,1","0,1,0.5,0,1,0.5,1,0.5,0","3",""
"","html-keyboard-response","280","80822","0.0-369.0","34S9DKFK74BBWI537THPSWF8NU4YN2","A3CT8UTPVYUL04","3UDTAB6HH6LRO17U79I9TKUGYFV09C","","null","<img src=""img/food3.png"" style=""width:200px; border:14px solid green;"">","null","","","","","","","","","",""
"","image-keyboard-response","281","80881","0.0-370.0","34S9DKFK74BBWI537THPSWF8NU4YN2","A3CT8UTPVYUL04","3UDTAB6HH6LRO17U79I9TKUGYFV09C","","57","img/food6.png","75","59","2","1","","1","1","1,0.5,0,1,0.5,0,0.5,0,1","0,1,0.5,0,1,0.5,1,0.5,0","3",""
"","html-keyboard-response","282","81191","0.0-371.0","34S9DKFK74BBWI537THPSWF8NU4YN2","A3CT8UTPVYUL04","3UDTAB6HH6LRO17U79I9TKUGYFV09C","","null","<img src=""img/food6.png"" style=""width:200px; border:14px solid green;"">","null","","","","","","","","","",""
"","image-keyboard-response","283","81207","0.0-372.0","34S9DKFK74BBWI537THPSWF8NU4YN2","A3CT8UTPVYUL04","3UDTAB6HH6LRO17U79I9TKUGYFV09C","","15","img/food4.png","76","16","3","0","","2","1","1,0.5,0,1,0.5,0,0.5,0,1","0,1,0.5,0,1,0.5,1,0.5,0","3",""
"","html-keyboard-response","284","81524","0.0-373.0","34S9DKFK74BBWI537THPSWF8NU4YN2","A3CT8UTPVYUL04","3UDTAB6HH6LRO17U79I9TKUGYFV09C","","null","<img src=""img/food4.png"" style=""width:200px;border:14px solid red;"">","null","","","","","","","","","",""
"","image-keyboard-response","285","81535","0.0-374.0","34S9DKFK74BBWI537THPSWF8NU4YN2","A3CT8UTPVYUL04","3UDTAB6HH6LRO17U79I9TKUGYFV09C","","10","img/food6.png","76","11","3","1","","1","1","1,0.5,0,1,0.5,0,0.5,0,1","0,1,0.5,0,1,0.5,1,0.5,0","3",""
"","html-keyboard-response","286","81842","0.0-375.0","34S9DKFK74BBWI537THPSWF8NU4YN2","A3CT8UTPVYUL04","3UDTAB6HH6LRO17U79I9TKUGYFV09C","","null","<img src=""img/food6.png"" style=""width:200px; border:14px solid green;"">","null","","","","","","","","","",""
"","image-keyboard-response","287","81848","0.0-376.0","34S9DKFK74BBWI537THPSWF8NU4YN2","A3CT8UTPVYUL04","3UDTAB6HH6LRO17U79I9TKUGYFV09C","","6","img/food6.png","76","7","3","0","","1","1","1,0.5,0,1,0.5,0,0.5,0,1","0,1,0.5,0,1,0.5,1,0.5,0","3",""
"","html-keyboard-response","288","82174","0.0-377.0","34S9DKFK74BBWI537THPSWF8NU4YN2","A3CT8UTPVYUL04","3UDTAB6HH6LRO17U79I9TKUGYFV09C","","null","<img src=""img/food6.png"" style=""width:200px;border:14px solid red;"">","null","","","","","","","","","",""
"","image-keyboard-response","289","82312","0.0-378.0","34S9DKFK74BBWI537THPSWF8NU4YN2","A3CT8UTPVYUL04","3UDTAB6HH6LRO17U79I9TKUGYFV09C","","137","img/food4.png","74","137","1","0","","2","1","1,0.5,0,1,0.5,0,0.5,0,1","0,1,0.5,0,1,0.5,1,0.5,0","3",""
"","html-keyboard-response","290","82620","0.0-379.0","34S9DKFK74BBWI537THPSWF8NU4YN2","A3CT8UTPVYUL04","3UDTAB6HH6LRO17U79I9TKUGYFV09C","","null","<img src=""img/food4.png"" style=""width:200px;border:14px solid red;"">","null","","","","","","","","","",""
"","image-keyboard-response","291","82680","0.0-380.0","34S9DKFK74BBWI537THPSWF8NU4YN2","A3CT8UTPVYUL04","3UDTAB6HH6LRO17U79I9TKUGYFV09C","","59","img/food4.png","75","60","2","1","","2","1","1,0.5,0,1,0.5,0,0.5,0,1","0,1,0.5,0,1,0.5,1,0.5,0","3",""
"","html-keyboard-response","292","82988","0.0-381.0","34S9DKFK74BBWI537THPSWF8NU4YN2","A3CT8UTPVYUL04","3UDTAB6HH6LRO17U79I9TKUGYFV09C","","null","<img src=""img/food4.png"" style=""width:200px; border:14px solid green;"">","null","","","","","","","","","",""
"","image-keyboard-response","293","83056","0.0-382.0","34S9DKFK74BBWI537THPSWF8NU4YN2","A3CT8UTPVYUL04","3UDTAB6HH6LRO17U79I9TKUGYFV09C","","66","img/food6.png","76","67","3","0","","1","1","1,0.5,0,1,0.5,0,0.5,0,1","0,1,0.5,0,1,0.5,1,0.5,0","3",""
"","html-keyboard-response","294","83371","0.0-383.0","34S9DKFK74BBWI537THPSWF8NU4YN2","A3CT8UTPVYUL04","3UDTAB6HH6LRO17U79I9TKUGYFV09C","","null","<img src=""img/food6.png"" style=""width:200px;border:14px solid red;"">","null","","","","","","","","","",""
"","image-keyboard-response","295","83384","0.0-384.0","34S9DKFK74BBWI537THPSWF8NU4YN2","A3CT8UTPVYUL04","3UDTAB6HH6LRO17U79I9TKUGYFV09C","","12","img/food4.png","76","13","3","1","","2","1","1,0.5,0,1,0.5,0,0.5,0,1","0,1,0.5,0,1,0.5,1,0.5,0","3",""
"","html-keyboard-response","296","83688","0.0-385.0","34S9DKFK74BBWI537THPSWF8NU4YN2","A3CT8UTPVYUL04","3UDTAB6HH6LRO17U79I9TKUGYFV09C","","null","<img src=""img/food4.png"" style=""width:200px; border:14px solid green;"">","null","","","","","","","","","",""
"","image-keyboard-response","297","83714","0.0-386.0","34S9DKFK74BBWI537THPSWF8NU4YN2","A3CT8UTPVYUL04","3UDTAB6HH6LRO17U79I9TKUGYFV09C","","26","img/food3.png","76","27","3","0","","3","1","1,0.5,0,1,0.5,0,0.5,0,1","0,1,0.5,0,1,0.5,1,0.5,0","3",""
"","html-keyboard-response","298","84028","0.0-387.0","34S9DKFK74BBWI537THPSWF8NU4YN2","A3CT8UTPVYUL04","3UDTAB6HH6LRO17U79I9TKUGYFV09C","","null","<img src=""img/food3.png"" style=""width:200px;border:14px solid red;"">","null","","","","","","","","","",""
"","image-keyboard-response","299","84175","0.0-388.0","34S9DKFK74BBWI537THPSWF8NU4YN2","A3CT8UTPVYUL04","3UDTAB6HH6LRO17U79I9TKUGYFV09C","","147","img/food3.png","74","147","1","1","","3","1","1,0.5,0,1,0.5,0,0.5,0,1","0,1,0.5,0,1,0.5,1,0.5,0","3",""
"","html-keyboard-response","300","84476","0.0-389.0","34S9DKFK74BBWI537THPSWF8NU4YN2","A3CT8UTPVYUL04","3UDTAB6HH6LRO17U79I9TKUGYFV09C","","null","<img src=""img/food3.png"" style=""width:200px; border:14px solid green;"">","null","","","","","","","","","",""
"","image-keyboard-response","301","84527","0.0-390.0","34S9DKFK74BBWI537THPSWF8NU4YN2","A3CT8UTPVYUL04","3UDTAB6HH6LRO17U79I9TKUGYFV09C","","49","img/food6.png","75","50","2","1","","1","1","1,0.5,0,1,0.5,0,0.5,0,1","0,1,0.5,0,1,0.5,1,0.5,0","3",""
"","html-keyboard-response","302","84833","0.0-391.0","34S9DKFK74BBWI537THPSWF8NU4YN2","A3CT8UTPVYUL04","3UDTAB6HH6LRO17U79I9TKUGYFV09C","","null","<img src=""img/food6.png"" style=""width:200px; border:14px solid green;"">","null","","","","","","","","","",""
"","image-keyboard-response","303","84886","0.0-392.0","34S9DKFK74BBWI537THPSWF8NU4YN2","A3CT8UTPVYUL04","3UDTAB6HH6LRO17U79I9TKUGYFV09C","","53","img/food3.png","76","55","3","0","","3","1","1,0.5,0,1,0.5,0,0.5,0,1","0,1,0.5,0,1,0.5,1,0.5,0","3",""
"","html-keyboard-response","304","85202","0.0-393.0","34S9DKFK74BBWI537THPSWF8NU4YN2","A3CT8UTPVYUL04","3UDTAB6HH6LRO17U79I9TKUGYFV09C","","null","<img src=""img/food3.png"" style=""width:200px;border:14px solid red;"">","null","","","","","","","","","",""
"","image-keyboard-response","305","85209","0.0-394.0","34S9DKFK74BBWI537THPSWF8NU4YN2","A3CT8UTPVYUL04","3UDTAB6HH6LRO17U79I9TKUGYFV09C","","5","img/food6.png","76","6","3","1","","1","1","1,0.5,0,1,0.5,0,0.5,0,1","0,1,0.5,0,1,0.5,1,0.5,0","3",""
"","html-keyboard-response","306","85519","0.0-395.0","34S9DKFK74BBWI537THPSWF8NU4YN2","A3CT8UTPVYUL04","3UDTAB6HH6LRO17U79I9TKUGYFV09C","","null","<img src=""img/food6.png"" style=""width:200px; border:14px solid green;"">","null","","","","","","","","","",""
"","image-keyboard-response","307","85687","0.0-396.0","34S9DKFK74BBWI537THPSWF8NU4YN2","A3CT8UTPVYUL04","3UDTAB6HH6LRO17U79I9TKUGYFV09C","","166","img/food3.png","74","167","1","1","","3","1","1,0.5,0,1,0.5,0,0.5,0,1","0,1,0.5,0,1,0.5,1,0.5,0","3",""
"","html-keyboard-response","308","86006","0.0-397.0","34S9DKFK74BBWI537THPSWF8NU4YN2","A3CT8UTPVYUL04","3UDTAB6HH6LRO17U79I9TKUGYFV09C","","null","<img src=""img/food3.png"" style=""width:200px; border:14px solid green;"">","null","","","","","","","","","",""
"","image-keyboard-response","309","86072","0.0-398.0","34S9DKFK74BBWI537THPSWF8NU4YN2","A3CT8UTPVYUL04","3UDTAB6HH6LRO17U79I9TKUGYFV09C","","65","img/food6.png","76","66","3","0","","1","1","1,0.5,0,1,0.5,0,0.5,0,1","0,1,0.5,0,1,0.5,1,0.5,0","3",""
"","html-keyboard-response","310","86387","0.0-399.0","34S9DKFK74BBWI537THPSWF8NU4YN2","A3CT8UTPVYUL04","3UDTAB6HH6LRO17U79I9TKUGYFV09C","","null","<img src=""img/food6.png"" style=""width:200px;border:14px solid red;"">","null","","","","","","","","","",""
"","image-keyboard-response","311","86535","0.0-400.0","34S9DKFK74BBWI537THPSWF8NU4YN2","A3CT8UTPVYUL04","3UDTAB6HH6LRO17U79I9TKUGYFV09C","","147","img/food6.png","74","148","1","0","","1","1","1,0.5,0,1,0.5,0,0.5,0,1","0,1,0.5,0,1,0.5,1,0.5,0","3",""
"","html-keyboard-response","312","86842","0.0-401.0","34S9DKFK74BBWI537THPSWF8NU4YN2","A3CT8UTPVYUL04","3UDTAB6HH6LRO17U79I9TKUGYFV09C","","null","<img src=""img/food6.png"" style=""width:200px;border:14px solid red;"">","null","","","","","","","","","",""
"","image-keyboard-response","313","86894","0.0-402.0","34S9DKFK74BBWI537THPSWF8NU4YN2","A3CT8UTPVYUL04","3UDTAB6HH6LRO17U79I9TKUGYFV09C","","52","img/food6.png","75","53","2","1","","1","1","1,0.5,0,1,0.5,0,0.5,0,1","0,1,0.5,0,1,0.5,1,0.5,0","3",""
"","html-keyboard-response","314","87206","0.0-403.0","34S9DKFK74BBWI537THPSWF8NU4YN2","A3CT8UTPVYUL04","3UDTAB6HH6LRO17U79I9TKUGYFV09C","","null","<img src=""img/food6.png"" style=""width:200px; border:14px solid green;"">","null","","","","","","","","","",""
"","image-keyboard-response","315","87247","0.0-404.0","34S9DKFK74BBWI537THPSWF8NU4YN2","A3CT8UTPVYUL04","3UDTAB6HH6LRO17U79I9TKUGYFV09C","","40","img/food6.png","76","40","3","0","","1","1","1,0.5,0,1,0.5,0,0.5,0,1","0,1,0.5,0,1,0.5,1,0.5,0","3",""
"","html-keyboard-response","316","87562","0.0-405.0","34S9DKFK74BBWI537THPSWF8NU4YN2","A3CT8UTPVYUL04","3UDTAB6HH6LRO17U79I9TKUGYFV09C","","null","<img src=""img/food6.png"" style=""width:200px;border:14px solid red;"">","null","","","","","","","","","",""
"","image-keyboard-response","317","87719","0.0-406.0","34S9DKFK74BBWI537THPSWF8NU4YN2","A3CT8UTPVYUL04","3UDTAB6HH6LRO17U79I9TKUGYFV09C","","157","img/food6.png","74","158","1","0","","1","1","1,0.5,0,1,0.5,0,0.5,0,1","0,1,0.5,0,1,0.5,1,0.5,0","3",""
"","html-keyboard-response","318","88033","0.0-407.0","34S9DKFK74BBWI537THPSWF8NU4YN2","A3CT8UTPVYUL04","3UDTAB6HH6LRO17U79I9TKUGYFV09C","","null","<img src=""img/food6.png"" style=""width:200px;border:14px solid red;"">","null","","","","","","","","","",""
"","image-keyboard-response","319","88045","0.0-408.0","34S9DKFK74BBWI537THPSWF8NU4YN2","A3CT8UTPVYUL04","3UDTAB6HH6LRO17U79I9TKUGYFV09C","","12","img/food4.png","75","13","2","1","","2","1","1,0.5,0,1,0.5,0,0.5,0,1","0,1,0.5,0,1,0.5,1,0.5,0","3",""
"","html-keyboard-response","320","88350","0.0-409.0","34S9DKFK74BBWI537THPSWF8NU4YN2","A3CT8UTPVYUL04","3UDTAB6HH6LRO17U79I9TKUGYFV09C","","null","<img src=""img/food4.png"" style=""width:200px; border:14px solid green;"">","null","","","","","","","","","",""
"","image-keyboard-response","321","88369","0.0-410.0","34S9DKFK74BBWI537THPSWF8NU4YN2","A3CT8UTPVYUL04","3UDTAB6HH6LRO17U79I9TKUGYFV09C","","17","img/food6.png","75","19","2","1","","1","1","1,0.5,0,1,0.5,0,0.5,0,1","0,1,0.5,0,1,0.5,1,0.5,0","3",""
"","html-keyboard-response","322","88684","0.0-411.0","34S9DKFK74BBWI537THPSWF8NU4YN2","A3CT8UTPVYUL04","3UDTAB6HH6LRO17U79I9TKUGYFV09C","","null","<img src=""img/food6.png"" style=""width:200px; border:14px solid green;"">","null","","","","","","","","","",""
"","image-keyboard-response","323","88718","0.0-412.0","34S9DKFK74BBWI537THPSWF8NU4YN2","A3CT8UTPVYUL04","3UDTAB6HH6LRO17U79I9TKUGYFV09C","","32","img/food6.png","76","33","3","0","","1","1","1,0.5,0,1,0.5,0,0.5,0,1","0,1,0.5,0,1,0.5,1,0.5,0","3",""
"","html-keyboard-response","324","89023","0.0-413.0","34S9DKFK74BBWI537THPSWF8NU4YN2","A3CT8UTPVYUL04","3UDTAB6HH6LRO17U79I9TKUGYFV09C","","null","<img src=""img/food6.png"" style=""width:200px;border:14px solid red;"">","null","","","","","","","","","",""
"","image-keyboard-response","325","89190","0.0-414.0","34S9DKFK74BBWI537THPSWF8NU4YN2","A3CT8UTPVYUL04","3UDTAB6HH6LRO17U79I9TKUGYFV09C","","165","img/food4.png","74","166","1","0","","2","1","1,0.5,0,1,0.5,0,0.5,0,1","0,1,0.5,0,1,0.5,1,0.5,0","3",""
"","html-keyboard-response","326","89505","0.0-415.0","34S9DKFK74BBWI537THPSWF8NU4YN2","A3CT8UTPVYUL04","3UDTAB6HH6LRO17U79I9TKUGYFV09C","","null","<img src=""img/food4.png"" style=""width:200px;border:14px solid red;"">","null","","","","","","","","","",""
"","image-keyboard-response","327","89535","0.0-416.0","34S9DKFK74BBWI537THPSWF8NU4YN2","A3CT8UTPVYUL04","3UDTAB6HH6LRO17U79I9TKUGYFV09C","","29","img/food4.png","75","29","2","1","","2","1","1,0.5,0,1,0.5,0,0.5,0,1","0,1,0.5,0,1,0.5,1,0.5,0","3",""
"","html-keyboard-response","328","89847","0.0-417.0","34S9DKFK74BBWI537THPSWF8NU4YN2","A3CT8UTPVYUL04","3UDTAB6HH6LRO17U79I9TKUGYFV09C","","null","<img src=""img/food4.png"" style=""width:200px; border:14px solid green;"">","null","","","","","","","","","",""
"","image-keyboard-response","329","89918","0.0-418.0","34S9DKFK74BBWI537THPSWF8NU4YN2","A3CT8UTPVYUL04","3UDTAB6HH6LRO17U79I9TKUGYFV09C","","71","img/food3.png","75","71","2","1","","3","1","1,0.5,0,1,0.5,0,0.5,0,1","0,1,0.5,0,1,0.5,1,0.5,0","3",""
"","html-keyboard-response","330","90232","0.0-419.0","34S9DKFK74BBWI537THPSWF8NU4YN2","A3CT8UTPVYUL04","3UDTAB6HH6LRO17U79I9TKUGYFV09C","","null","<img src=""img/food3.png"" style=""width:200px; border:14px solid green;"">","null","","","","","","","","","",""
"","image-keyboard-response","331","90326","0.0-420.0","34S9DKFK74BBWI537THPSWF8NU4YN2","A3CT8UTPVYUL04","3UDTAB6HH6LRO17U79I9TKUGYFV09C","","92","img/food4.png","76","94","3","0","","2","1","1,0.5,0,1,0.5,0,0.5,0,1","0,1,0.5,0,1,0.5,1,0.5,0","3",""
"","html-keyboard-response","332","90636","0.0-421.0","34S9DKFK74BBWI537THPSWF8NU4YN2","A3CT8UTPVYUL04","3UDTAB6HH6LRO17U79I9TKUGYFV09C","","null","<img src=""img/food4.png"" style=""width:200px;border:14px solid red;"">","null","","","","","","","","","",""
"","image-keyboard-response","333","90645","0.0-422.0","34S9DKFK74BBWI537THPSWF8NU4YN2","A3CT8UTPVYUL04","3UDTAB6HH6LRO17U79I9TKUGYFV09C","","7","img/food6.png","76","8","3","0","","1","1","1,0.5,0,1,0.5,0,0.5,0,1","0,1,0.5,0,1,0.5,1,0.5,0","3",""
"","html-keyboard-response","334","90953","0.0-423.0","34S9DKFK74BBWI537THPSWF8NU4YN2","A3CT8UTPVYUL04","3UDTAB6HH6LRO17U79I9TKUGYFV09C","","null","<img src=""img/food6.png"" style=""width:200px;border:14px solid red;"">","null","","","","","","","","","",""
"","image-keyboard-response","335","90981","0.0-424.0","34S9DKFK74BBWI537THPSWF8NU4YN2","A3CT8UTPVYUL04","3UDTAB6HH6LRO17U79I9TKUGYFV09C","","27","img/food6.png","76","28","3","1","","1","1","1,0.5,0,1,0.5,0,0.5,0,1","0,1,0.5,0,1,0.5,1,0.5,0","3",""
"","html-keyboard-response","336","91287","0.0-425.0","34S9DKFK74BBWI537THPSWF8NU4YN2","A3CT8UTPVYUL04","3UDTAB6HH6LRO17U79I9TKUGYFV09C","","null","<img src=""img/food6.png"" style=""width:200px; border:14px solid green;"">","null","","","","","","","","","",""
"","image-keyboard-response","337","91445","0.0-426.0","34S9DKFK74BBWI537THPSWF8NU4YN2","A3CT8UTPVYUL04","3UDTAB6HH6LRO17U79I9TKUGYFV09C","","158","img/food6.png","74","159","1","0","","1","1","1,0.5,0,1,0.5,0,0.5,0,1","0,1,0.5,0,1,0.5,1,0.5,0","3",""
"","html-keyboard-response","338","91758","0.0-427.0","34S9DKFK74BBWI537THPSWF8NU4YN2","A3CT8UTPVYUL04","3UDTAB6HH6LRO17U79I9TKUGYFV09C","","null","<img src=""img/food6.png"" style=""width:200px;border:14px solid red;"">","null","","","","","","","","","",""
"","image-keyboard-response","339","91781","0.0-428.0","34S9DKFK74BBWI537THPSWF8NU4YN2","A3CT8UTPVYUL04","3UDTAB6HH6LRO17U79I9TKUGYFV09C","","23","img/food6.png","75","23","2","1","","1","1","1,0.5,0,1,0.5,0,0.5,0,1","0,1,0.5,0,1,0.5,1,0.5,0","3",""
"","html-keyboard-response","340","92091","0.0-429.0","34S9DKFK74BBWI537THPSWF8NU4YN2","A3CT8UTPVYUL04","3UDTAB6HH6LRO17U79I9TKUGYFV09C","","null","<img src=""img/food6.png"" style=""width:200px; border:14px solid green;"">","null","","","","","","","","","",""
"","image-keyboard-response","341","92125","0.0-430.0","34S9DKFK74BBWI537THPSWF8NU4YN2","A3CT8UTPVYUL04","3UDTAB6HH6LRO17U79I9TKUGYFV09C","","32","img/food3.png","75","33","2","1","","3","1","1,0.5,0,1,0.5,0,0.5,0,1","0,1,0.5,0,1,0.5,1,0.5,0","3",""
"","html-keyboard-response","342","92440","0.0-431.0","34S9DKFK74BBWI537THPSWF8NU4YN2","A3CT8UTPVYUL04","3UDTAB6HH6LRO17U79I9TKUGYFV09C","","null","<img src=""img/food3.png"" style=""width:200px; border:14px solid green;"">","null","","","","","","","","","",""
"","image-keyboard-response","343","92485","0.0-432.0","34S9DKFK74BBWI537THPSWF8NU4YN2","A3CT8UTPVYUL04","3UDTAB6HH6LRO17U79I9TKUGYFV09C","","45","img/food4.png","76","46","3","0","","2","1","1,0.5,0,1,0.5,0,0.5,0,1","0,1,0.5,0,1,0.5,1,0.5,0","3",""
"","html-keyboard-response","344","92795","0.0-433.0","34S9DKFK74BBWI537THPSWF8NU4YN2","A3CT8UTPVYUL04","3UDTAB6HH6LRO17U79I9TKUGYFV09C","","null","<img src=""img/food4.png"" style=""width:200px;border:14px solid red;"">","null","","","","","","","","","",""
"","image-keyboard-response","345","92949","0.0-434.0","34S9DKFK74BBWI537THPSWF8NU4YN2","A3CT8UTPVYUL04","3UDTAB6HH6LRO17U79I9TKUGYFV09C","","152","img/food4.png","74","154","1","0","","2","1","1,0.5,0,1,0.5,0,0.5,0,1","0,1,0.5,0,1,0.5,1,0.5,0","3",""
"","html-keyboard-response","346","93266","0.0-435.0","34S9DKFK74BBWI537THPSWF8NU4YN2","A3CT8UTPVYUL04","3UDTAB6HH6LRO17U79I9TKUGYFV09C","","null","<img src=""img/food4.png"" style=""width:200px;border:14px solid red;"">","null","","","","","","","","","",""
"","image-keyboard-response","347","93270","0.0-436.0","34S9DKFK74BBWI537THPSWF8NU4YN2","A3CT8UTPVYUL04","3UDTAB6HH6LRO17U79I9TKUGYFV09C","","2","img/food3.png","75","4","2","1","","3","1","1,0.5,0,1,0.5,0,0.5,0,1","0,1,0.5,0,1,0.5,1,0.5,0","3",""
"","html-keyboard-response","348","93584","0.0-437.0","34S9DKFK74BBWI537THPSWF8NU4YN2","A3CT8UTPVYUL04","3UDTAB6HH6LRO17U79I9TKUGYFV09C","","null","<img src=""img/food3.png"" style=""width:200px; border:14px solid green;"">","null","","","","","","","","","",""
"","image-keyboard-response","349","93637","0.0-438.0","34S9DKFK74BBWI537THPSWF8NU4YN2","A3CT8UTPVYUL04","3UDTAB6HH6LRO17U79I9TKUGYFV09C","","52","img/food4.png","75","52","2","1","","2","1","1,0.5,0,1,0.5,0,0.5,0,1","0,1,0.5,0,1,0.5,1,0.5,0","3",""
"","html-keyboard-response","350","93949","0.0-439.0","34S9DKFK74BBWI537THPSWF8NU4YN2","A3CT8UTPVYUL04","3UDTAB6HH6LRO17U79I9TKUGYFV09C","","null","<img src=""img/food4.png"" style=""width:200px; border:14px solid green;"">","null","","","","","","","","","",""
"","image-keyboard-response","351","93991","0.0-440.0","34S9DKFK74BBWI537THPSWF8NU4YN2","A3CT8UTPVYUL04","3UDTAB6HH6LRO17U79I9TKUGYFV09C","","42","img/food3.png","75","42","2","1","","3","1","1,0.5,0,1,0.5,0,0.5,0,1","0,1,0.5,0,1,0.5,1,0.5,0","3",""
"","html-keyboard-response","352","94305","0.0-441.0","34S9DKFK74BBWI537THPSWF8NU4YN2","A3CT8UTPVYUL04","3UDTAB6HH6LRO17U79I9TKUGYFV09C","","null","<img src=""img/food3.png"" style=""width:200px; border:14px solid green;"">","null","","","","","","","","","",""
"","image-keyboard-response","353","94341","0.0-442.0","34S9DKFK74BBWI537THPSWF8NU4YN2","A3CT8UTPVYUL04","3UDTAB6HH6LRO17U79I9TKUGYFV09C","","36","img/food4.png","76","36","3","1","","2","1","1,0.5,0,1,0.5,0,0.5,0,1","0,1,0.5,0,1,0.5,1,0.5,0","3",""
"","html-keyboard-response","354","94652","0.0-443.0","34S9DKFK74BBWI537THPSWF8NU4YN2","A3CT8UTPVYUL04","3UDTAB6HH6LRO17U79I9TKUGYFV09C","","null","<img src=""img/food4.png"" style=""width:200px; border:14px solid green;"">","null","","","","","","","","","",""
"","image-keyboard-response","355","94813","0.0-444.0","34S9DKFK74BBWI537THPSWF8NU4YN2","A3CT8UTPVYUL04","3UDTAB6HH6LRO17U79I9TKUGYFV09C","","161","img/food3.png","74","161","1","1","","3","1","1,0.5,0,1,0.5,0,0.5,0,1","0,1,0.5,0,1,0.5,1,0.5,0","3",""
"","html-keyboard-response","356","95125","0.0-445.0","34S9DKFK74BBWI537THPSWF8NU4YN2","A3CT8UTPVYUL04","3UDTAB6HH6LRO17U79I9TKUGYFV09C","","null","<img src=""img/food3.png"" style=""width:200px; border:14px solid green;"">","null","","","","","","","","","",""
"","image-keyboard-response","357","95143","0.0-446.0","34S9DKFK74BBWI537THPSWF8NU4YN2","A3CT8UTPVYUL04","3UDTAB6HH6LRO17U79I9TKUGYFV09C","","16","img/food3.png","74","18","1","1","","3","1","1,0.5,0,1,0.5,0,0.5,0,1","0,1,0.5,0,1,0.5,1,0.5,0","3",""
"","html-keyboard-response","358","95470","0.0-447.0","34S9DKFK74BBWI537THPSWF8NU4YN2","A3CT8UTPVYUL04","3UDTAB6HH6LRO17U79I9TKUGYFV09C","","null","<img src=""img/food3.png"" style=""width:200px; border:14px solid green;"">","null","","","","","","","","","",""
"","image-keyboard-response","359","95485","0.0-448.0","34S9DKFK74BBWI537THPSWF8NU4YN2","A3CT8UTPVYUL04","3UDTAB6HH6LRO17U79I9TKUGYFV09C","","14","img/food4.png","75","15","2","1","","2","1","1,0.5,0,1,0.5,0,0.5,0,1","0,1,0.5,0,1,0.5,1,0.5,0","3",""
"","html-keyboard-response","360","95799","0.0-449.0","34S9DKFK74BBWI537THPSWF8NU4YN2","A3CT8UTPVYUL04","3UDTAB6HH6LRO17U79I9TKUGYFV09C","","null","<img src=""img/food4.png"" style=""width:200px; border:14px solid green;"">","null","","","","","","","","","",""
"","image-keyboard-response","361","95812","0.0-450.0","34S9DKFK74BBWI537THPSWF8NU4YN2","A3CT8UTPVYUL04","3UDTAB6HH6LRO17U79I9TKUGYFV09C","","12","img/food6.png","74","13","1","0","","1","1","1,0.5,0,1,0.5,0,0.5,0,1","0,1,0.5,0,1,0.5,1,0.5,0","3",""
"","html-keyboard-response","362","96116","0.0-451.0","34S9DKFK74BBWI537THPSWF8NU4YN2","A3CT8UTPVYUL04","3UDTAB6HH6LRO17U79I9TKUGYFV09C","","null","<img src=""img/food6.png"" style=""width:200px;border:14px solid red;"">","null","","","","","","","","","",""
"","image-keyboard-response","363","96300","0.0-452.0","34S9DKFK74BBWI537THPSWF8NU4YN2","A3CT8UTPVYUL04","3UDTAB6HH6LRO17U79I9TKUGYFV09C","","183","img/food6.png","74","183","1","0","","1","1","1,0.5,0,1,0.5,0,0.5,0,1","0,1,0.5,0,1,0.5,1,0.5,0","3",""
"","html-keyboard-response","364","96602","0.0-453.0","34S9DKFK74BBWI537THPSWF8NU4YN2","A3CT8UTPVYUL04","3UDTAB6HH6LRO17U79I9TKUGYFV09C","","null","<img src=""img/food6.png"" style=""width:200px;border:14px solid red;"">","null","","","","","","","","","",""
"","html-keyboard-response","365","99349","0.0-454.0","34S9DKFK74BBWI537THPSWF8NU4YN2","A3CT8UTPVYUL04","3UDTAB6HH6LRO17U79I9TKUGYFV09C","","","","","","","","","","","","","",""
"","instructions","366","101740","0.0-455.0","34S9DKFK74BBWI537THPSWF8NU4YN2","A3CT8UTPVYUL04","3UDTAB6HH6LRO17U79I9TKUGYFV09C","[{""page_index"":0,""viewing_time"":2389}]","2389","","","","","","","","","","","",""
"","survey-text","367","105613","0.0-456.0","34S9DKFK74BBWI537THPSWF8NU4YN2","A3CT8UTPVYUL04","3UDTAB6HH6LRO17U79I9TKUGYFV09C","","3864","","","","","","","","","","","","{""Q0"":""A3CT8UTPVYUL04""}"
