"success","trial_type","trial_index","time_elapsed","internal_node_id","assignmentID","mturkID","hitID","view_history","rt","stimulus","key_press","reactionTime","a","r","s","cond","reward_cond","reward_cond_actual","reward_matrix_idx","warning","responses"
"true","fullscreen","0","276730","0.0-0.0","3Y5140Z9DY2P932BJQ8EAXQFXV7IPM","A3DG8M8G0L4DNZ","3566S7OX5D5NH74JOVOPTTMK8IR17K","","","","","","","","","","","","","",""
"","instructions","1","290459","0.0-1.0","3Y5140Z9DY2P932BJQ8EAXQFXV7IPM","A3DG8M8G0L4DNZ","3566S7OX5D5NH74JOVOPTTMK8IR17K","[{""page_index"":0,""viewing_time"":2703.699999988079},{""page_index"":1,""viewing_time"":920.8999999761581},{""page_index"":2,""viewing_time"":996.6000000238419},{""page_index"":3,""viewing_time"":1138.8999999761581},{""page_index"":2,""viewing_time"":766.6000000238419},{""page_index"":3,""viewing_time"":1032.3999999761581},{""page_index"":4,""viewing_time"":1130.6000000238419},{""page_index"":5,""viewing_time"":1554.800000011921},{""page_index"":6,""viewing_time"":765.3999999761581},{""page_index"":5,""viewing_time"":616.5},{""page_index"":6,""viewing_time"":2099}]","13726.099999964237","","","","","","","","","","","",""
"","image-keyboard-response","2","292235","0.0-2.0","3Y5140Z9DY2P932BJQ8EAXQFXV7IPM","A3DG8M8G0L4DNZ","3566S7OX5D5NH74JOVOPTTMK8IR17K","","1774.6000000238419","img/food3.png","74","1775.5999999642372","1","1","1","1","1,0.5,0,1,0.5,0,0.5,0,1","1,0.5,0,1,0.5,0,0.5,0,1","1","",""
"","html-keyboard-response","3","292538","0.0-3.0","3Y5140Z9DY2P932BJQ8EAXQFXV7IPM","A3DG8M8G0L4DNZ","3566S7OX5D5NH74JOVOPTTMK8IR17K","","null","<img src=""img/food3.png"" style=""width:200px; border:14px solid green;"">","null","","","","","","","","","",""
"","image-keyboard-response","4","292993","0.0-4.0","3Y5140Z9DY2P932BJQ8EAXQFXV7IPM","A3DG8M8G0L4DNZ","3566S7OX5D5NH74JOVOPTTMK8IR17K","","453.89999997615814","img/food4.png","75","454.7000000476837","2","0","2","1","1,0.5,0,1,0.5,0,0.5,0,1","1,0.5,0,1,0.5,0,0.5,0,1","1","",""
"","html-keyboard-response","5","293305","0.0-5.0","3Y5140Z9DY2P932BJQ8EAXQFXV7IPM","A3DG8M8G0L4DNZ","3566S7OX5D5NH74JOVOPTTMK8IR17K","","null","<img src=""img/food4.png"" style=""width:200px;border:14px solid red;"">","null","","","","","","","","","",""
"","image-keyboard-response","6","293783","0.0-6.0","3Y5140Z9DY2P932BJQ8EAXQFXV7IPM","A3DG8M8G0L4DNZ","3566S7OX5D5NH74JOVOPTTMK8IR17K","","476.89999997615814","img/food5.png","76","477.5","3","1","3","1","1,0.5,0,1,0.5,0,0.5,0,1","1,0.5,0,1,0.5,0,0.5,0,1","1","",""
"","html-keyboard-response","7","294085","0.0-7.0","3Y5140Z9DY2P932BJQ8EAXQFXV7IPM","A3DG8M8G0L4DNZ","3566S7OX5D5NH74JOVOPTTMK8IR17K","","null","<img src=""img/food5.png"" style=""width:200px; border:14px solid green;"">","null","","","","","","","","","",""
"","image-keyboard-response","8","294403","0.0-8.0","3Y5140Z9DY2P932BJQ8EAXQFXV7IPM","A3DG8M8G0L4DNZ","3566S7OX5D5NH74JOVOPTTMK8IR17K","","317.4000000357628","img/food3.png","74","318.30000001192093","1","1","1","1","1,0.5,0,1,0.5,0,0.5,0,1","1,0.5,0,1,0.5,0,0.5,0,1","1","",""
"","html-keyboard-response","9","294711","0.0-9.0","3Y5140Z9DY2P932BJQ8EAXQFXV7IPM","A3DG8M8G0L4DNZ","3566S7OX5D5NH74JOVOPTTMK8IR17K","","null","<img src=""img/food3.png"" style=""width:200px; border:14px solid green;"">","null","","","","","","","","","",""
"","image-keyboard-response","10","295353","0.0-10.0","3Y5140Z9DY2P932BJQ8EAXQFXV7IPM","A3DG8M8G0L4DNZ","3566S7OX5D5NH74JOVOPTTMK8IR17K","","640.3999999761581","img/food4.png","76","641.5","3","0","2","1","1,0.5,0,1,0.5,0,0.5,0,1","1,0.5,0,1,0.5,0,0.5,0,1","1","",""
"","html-keyboard-response","11","295655","0.0-11.0","3Y5140Z9DY2P932BJQ8EAXQFXV7IPM","A3DG8M8G0L4DNZ","3566S7OX5D5NH74JOVOPTTMK8IR17K","","null","<img src=""img/food4.png"" style=""width:200px;border:14px solid red;"">","null","","","","","","","","","",""
"","image-keyboard-response","12","295832","0.0-12.0","3Y5140Z9DY2P932BJQ8EAXQFXV7IPM","A3DG8M8G0L4DNZ","3566S7OX5D5NH74JOVOPTTMK8IR17K","","176.5","img/food3.png","74","177.30000001192093","1","1","1","1","1,0.5,0,1,0.5,0,0.5,0,1","1,0.5,0,1,0.5,0,0.5,0,1","1","",""
"","html-keyboard-response","13","296134","0.0-13.0","3Y5140Z9DY2P932BJQ8EAXQFXV7IPM","A3DG8M8G0L4DNZ","3566S7OX5D5NH74JOVOPTTMK8IR17K","","null","<img src=""img/food3.png"" style=""width:200px; border:14px solid green;"">","null","","","","","","","","","",""
"","image-keyboard-response","14","296311","0.0-14.0","3Y5140Z9DY2P932BJQ8EAXQFXV7IPM","A3DG8M8G0L4DNZ","3566S7OX5D5NH74JOVOPTTMK8IR17K","","175.80000001192093","img/food4.png","75","176.69999998807907","2","1","2","1","1,0.5,0,1,0.5,0,0.5,0,1","1,0.5,0,1,0.5,0,0.5,0,1","1","",""
"","html-keyboard-response","15","296613","0.0-15.0","3Y5140Z9DY2P932BJQ8EAXQFXV7IPM","A3DG8M8G0L4DNZ","3566S7OX5D5NH74JOVOPTTMK8IR17K","","null","<img src=""img/food4.png"" style=""width:200px; border:14px solid green;"">","null","","","","","","","","","",""
"","image-keyboard-response","16","296701","0.0-16.0","3Y5140Z9DY2P932BJQ8EAXQFXV7IPM","A3DG8M8G0L4DNZ","3566S7OX5D5NH74JOVOPTTMK8IR17K","","86.90000003576279","img/food5.png","74","87.80000001192093","1","1","3","1","1,0.5,0,1,0.5,0,0.5,0,1","1,0.5,0,1,0.5,0,0.5,0,1","1","",""
"","html-keyboard-response","17","297002","0.0-17.0","3Y5140Z9DY2P932BJQ8EAXQFXV7IPM","A3DG8M8G0L4DNZ","3566S7OX5D5NH74JOVOPTTMK8IR17K","","null","<img src=""img/food5.png"" style=""width:200px; border:14px solid green;"">","null","","","","","","","","","",""
"","image-keyboard-response","18","297173","0.0-18.0","3Y5140Z9DY2P932BJQ8EAXQFXV7IPM","A3DG8M8G0L4DNZ","3566S7OX5D5NH74JOVOPTTMK8IR17K","","169","img/food4.png","76","170.10000002384186","3","0","2","1","1,0.5,0,1,0.5,0,0.5,0,1","1,0.5,0,1,0.5,0,0.5,0,1","1","",""
"","html-keyboard-response","19","297475","0.0-19.0","3Y5140Z9DY2P932BJQ8EAXQFXV7IPM","A3DG8M8G0L4DNZ","3566S7OX5D5NH74JOVOPTTMK8IR17K","","null","<img src=""img/food4.png"" style=""width:200px;border:14px solid red;"">","null","","","","","","","","","",""
"","image-keyboard-response","20","297615","0.0-20.0","3Y5140Z9DY2P932BJQ8EAXQFXV7IPM","A3DG8M8G0L4DNZ","3566S7OX5D5NH74JOVOPTTMK8IR17K","","138.9000000357628","img/food4.png","75","139.89999997615814","2","0","2","1","1,0.5,0,1,0.5,0,0.5,0,1","1,0.5,0,1,0.5,0,0.5,0,1","1","",""
"","html-keyboard-response","21","297916","0.0-21.0","3Y5140Z9DY2P932BJQ8EAXQFXV7IPM","A3DG8M8G0L4DNZ","3566S7OX5D5NH74JOVOPTTMK8IR17K","","null","<img src=""img/food4.png"" style=""width:200px;border:14px solid red;"">","null","","","","","","","","","",""
"","image-keyboard-response","22","298027","0.0-22.0","3Y5140Z9DY2P932BJQ8EAXQFXV7IPM","A3DG8M8G0L4DNZ","3566S7OX5D5NH74JOVOPTTMK8IR17K","","109.40000003576279","img/food4.png","74","110.19999998807907","1","1","2","1","1,0.5,0,1,0.5,0,0.5,0,1","1,0.5,0,1,0.5,0,0.5,0,1","1","",""
"","html-keyboard-response","23","298329","0.0-23.0","3Y5140Z9DY2P932BJQ8EAXQFXV7IPM","A3DG8M8G0L4DNZ","3566S7OX5D5NH74JOVOPTTMK8IR17K","","null","<img src=""img/food4.png"" style=""width:200px; border:14px solid green;"">","null","","","","","","","","","",""
"","image-keyboard-response","24","298331","0.0-24.0","3Y5140Z9DY2P932BJQ8EAXQFXV7IPM","A3DG8M8G0L4DNZ","3566S7OX5D5NH74JOVOPTTMK8IR17K","","0.3999999761581421","img/food4.png","76","1.199999988079071","3","0","2","1","1,0.5,0,1,0.5,0,0.5,0,1","1,0.5,0,1,0.5,0,0.5,0,1","1","",""
"","html-keyboard-response","25","298632","0.0-25.0","3Y5140Z9DY2P932BJQ8EAXQFXV7IPM","A3DG8M8G0L4DNZ","3566S7OX5D5NH74JOVOPTTMK8IR17K","","null","<img src=""img/food4.png"" style=""width:200px;border:14px solid red;"">","null","","","","","","","","","",""
"","image-keyboard-response","26","299097","0.0-26.0","3Y5140Z9DY2P932BJQ8EAXQFXV7IPM","A3DG8M8G0L4DNZ","3566S7OX5D5NH74JOVOPTTMK8IR17K","","464.30000001192093","img/food3.png","74","464.89999997615814","1","1","1","1","1,0.5,0,1,0.5,0,0.5,0,1","1,0.5,0,1,0.5,0,0.5,0,1","1","",""
"","html-keyboard-response","27","299399","0.0-27.0","3Y5140Z9DY2P932BJQ8EAXQFXV7IPM","A3DG8M8G0L4DNZ","3566S7OX5D5NH74JOVOPTTMK8IR17K","","null","<img src=""img/food3.png"" style=""width:200px; border:14px solid green;"">","null","","","","","","","","","",""
"","image-keyboard-response","28","299459","0.0-28.0","3Y5140Z9DY2P932BJQ8EAXQFXV7IPM","A3DG8M8G0L4DNZ","3566S7OX5D5NH74JOVOPTTMK8IR17K","","59","img/food5.png","74","59.69999998807907","1","1","3","1","1,0.5,0,1,0.5,0,0.5,0,1","1,0.5,0,1,0.5,0,0.5,0,1","1","",""
"","html-keyboard-response","29","299761","0.0-29.0","3Y5140Z9DY2P932BJQ8EAXQFXV7IPM","A3DG8M8G0L4DNZ","3566S7OX5D5NH74JOVOPTTMK8IR17K","","null","<img src=""img/food5.png"" style=""width:200px; border:14px solid green;"">","null","","","","","","","","","",""
"","image-keyboard-response","30","299860","0.0-30.0","3Y5140Z9DY2P932BJQ8EAXQFXV7IPM","A3DG8M8G0L4DNZ","3566S7OX5D5NH74JOVOPTTMK8IR17K","","98.59999996423721","img/food3.png","74","99.30000001192093","1","1","1","1","1,0.5,0,1,0.5,0,0.5,0,1","1,0.5,0,1,0.5,0,0.5,0,1","1","",""
"","html-keyboard-response","31","300161","0.0-31.0","3Y5140Z9DY2P932BJQ8EAXQFXV7IPM","A3DG8M8G0L4DNZ","3566S7OX5D5NH74JOVOPTTMK8IR17K","","null","<img src=""img/food3.png"" style=""width:200px; border:14px solid green;"">","null","","","","","","","","","",""
"","image-keyboard-response","32","300213","0.0-32.0","3Y5140Z9DY2P932BJQ8EAXQFXV7IPM","A3DG8M8G0L4DNZ","3566S7OX5D5NH74JOVOPTTMK8IR17K","","50.40000003576279","img/food4.png","74","51.200000047683716","1","1","2","1","1,0.5,0,1,0.5,0,0.5,0,1","1,0.5,0,1,0.5,0,0.5,0,1","1","",""
"","html-keyboard-response","33","300514","0.0-33.0","3Y5140Z9DY2P932BJQ8EAXQFXV7IPM","A3DG8M8G0L4DNZ","3566S7OX5D5NH74JOVOPTTMK8IR17K","","null","<img src=""img/food4.png"" style=""width:200px; border:14px solid green;"">","null","","","","","","","","","",""
"","image-keyboard-response","34","300543","0.0-34.0","3Y5140Z9DY2P932BJQ8EAXQFXV7IPM","A3DG8M8G0L4DNZ","3566S7OX5D5NH74JOVOPTTMK8IR17K","","27.099999964237213","img/food5.png","75","28.099999964237213","2","0","3","1","1,0.5,0,1,0.5,0,0.5,0,1","1,0.5,0,1,0.5,0,0.5,0,1","1","",""
"","html-keyboard-response","35","300845","0.0-35.0","3Y5140Z9DY2P932BJQ8EAXQFXV7IPM","A3DG8M8G0L4DNZ","3566S7OX5D5NH74JOVOPTTMK8IR17K","","null","<img src=""img/food5.png"" style=""width:200px;border:14px solid red;"">","null","","","","","","","","","",""
"","image-keyboard-response","36","300880","0.0-36.0","3Y5140Z9DY2P932BJQ8EAXQFXV7IPM","A3DG8M8G0L4DNZ","3566S7OX5D5NH74JOVOPTTMK8IR17K","","34.30000001192093","img/food3.png","75","35","2","1","1","1","1,0.5,0,1,0.5,0,0.5,0,1","1,0.5,0,1,0.5,0,0.5,0,1","1","",""
"","html-keyboard-response","37","301183","0.0-37.0","3Y5140Z9DY2P932BJQ8EAXQFXV7IPM","A3DG8M8G0L4DNZ","3566S7OX5D5NH74JOVOPTTMK8IR17K","","null","<img src=""img/food3.png"" style=""width:200px; border:14px solid green;"">","null","","","","","","","","","",""
"","image-keyboard-response","38","301203","0.0-38.0","3Y5140Z9DY2P932BJQ8EAXQFXV7IPM","A3DG8M8G0L4DNZ","3566S7OX5D5NH74JOVOPTTMK8IR17K","","19","img/food5.png","76","19.799999952316284","3","1","3","1","1,0.5,0,1,0.5,0,0.5,0,1","1,0.5,0,1,0.5,0,0.5,0,1","1","",""
"","html-keyboard-response","39","301504","0.0-39.0","3Y5140Z9DY2P932BJQ8EAXQFXV7IPM","A3DG8M8G0L4DNZ","3566S7OX5D5NH74JOVOPTTMK8IR17K","","null","<img src=""img/food5.png"" style=""width:200px; border:14px solid green;"">","null","","","","","","","","","",""
"","image-keyboard-response","40","301542","0.0-40.0","3Y5140Z9DY2P932BJQ8EAXQFXV7IPM","A3DG8M8G0L4DNZ","3566S7OX5D5NH74JOVOPTTMK8IR17K","","37.90000003576279","img/food5.png","76","38.69999998807907","3","1","3","1","1,0.5,0,1,0.5,0,0.5,0,1","1,0.5,0,1,0.5,0,0.5,0,1","1","",""
"","html-keyboard-response","41","301845","0.0-41.0","3Y5140Z9DY2P932BJQ8EAXQFXV7IPM","A3DG8M8G0L4DNZ","3566S7OX5D5NH74JOVOPTTMK8IR17K","","null","<img src=""img/food5.png"" style=""width:200px; border:14px solid green;"">","null","","","","","","","","","",""
"","image-keyboard-response","42","301889","0.0-42.0","3Y5140Z9DY2P932BJQ8EAXQFXV7IPM","A3DG8M8G0L4DNZ","3566S7OX5D5NH74JOVOPTTMK8IR17K","","43.299999952316284","img/food3.png","76","44.200000047683716","3","0","1","1","1,0.5,0,1,0.5,0,0.5,0,1","1,0.5,0,1,0.5,0,0.5,0,1","1","",""
"","html-keyboard-response","43","302191","0.0-43.0","3Y5140Z9DY2P932BJQ8EAXQFXV7IPM","A3DG8M8G0L4DNZ","3566S7OX5D5NH74JOVOPTTMK8IR17K","","null","<img src=""img/food3.png"" style=""width:200px;border:14px solid red;"">","null","","","","","","","","","",""
"","image-keyboard-response","44","302245","0.0-44.0","3Y5140Z9DY2P932BJQ8EAXQFXV7IPM","A3DG8M8G0L4DNZ","3566S7OX5D5NH74JOVOPTTMK8IR17K","","52.89999997615814","img/food3.png","74","53.60000002384186","1","1","1","1","1,0.5,0,1,0.5,0,0.5,0,1","1,0.5,0,1,0.5,0,0.5,0,1","1","",""
"","html-keyboard-response","45","302546","0.0-45.0","3Y5140Z9DY2P932BJQ8EAXQFXV7IPM","A3DG8M8G0L4DNZ","3566S7OX5D5NH74JOVOPTTMK8IR17K","","null","<img src=""img/food3.png"" style=""width:200px; border:14px solid green;"">","null","","","","","","","","","",""
"","image-keyboard-response","46","302563","0.0-46.0","3Y5140Z9DY2P932BJQ8EAXQFXV7IPM","A3DG8M8G0L4DNZ","3566S7OX5D5NH74JOVOPTTMK8IR17K","","15","img/food3.png","75","16","2","1","1","1","1,0.5,0,1,0.5,0,0.5,0,1","1,0.5,0,1,0.5,0,0.5,0,1","1","",""
"","html-keyboard-response","47","302865","0.0-47.0","3Y5140Z9DY2P932BJQ8EAXQFXV7IPM","A3DG8M8G0L4DNZ","3566S7OX5D5NH74JOVOPTTMK8IR17K","","null","<img src=""img/food3.png"" style=""width:200px; border:14px solid green;"">","null","","","","","","","","","",""
"","image-keyboard-response","48","302873","0.0-48.0","3Y5140Z9DY2P932BJQ8EAXQFXV7IPM","A3DG8M8G0L4DNZ","3566S7OX5D5NH74JOVOPTTMK8IR17K","","7.5","img/food3.png","76","8.199999988079071","3","0","1","1","1,0.5,0,1,0.5,0,0.5,0,1","1,0.5,0,1,0.5,0,0.5,0,1","1","",""
"","html-keyboard-response","49","303175","0.0-49.0","3Y5140Z9DY2P932BJQ8EAXQFXV7IPM","A3DG8M8G0L4DNZ","3566S7OX5D5NH74JOVOPTTMK8IR17K","","null","<img src=""img/food3.png"" style=""width:200px;border:14px solid red;"">","null","","","","","","","","","",""
"","image-keyboard-response","50","303363","0.0-50.0","3Y5140Z9DY2P932BJQ8EAXQFXV7IPM","A3DG8M8G0L4DNZ","3566S7OX5D5NH74JOVOPTTMK8IR17K","","187.0999999642372","img/food3.png","76","188.0999999642372","3","0","1","1","1,0.5,0,1,0.5,0,0.5,0,1","1,0.5,0,1,0.5,0,0.5,0,1","1","",""
"","html-keyboard-response","51","303665","0.0-51.0","3Y5140Z9DY2P932BJQ8EAXQFXV7IPM","A3DG8M8G0L4DNZ","3566S7OX5D5NH74JOVOPTTMK8IR17K","","null","<img src=""img/food3.png"" style=""width:200px;border:14px solid red;"">","null","","","","","","","","","",""
"","image-keyboard-response","52","303709","0.0-52.0","3Y5140Z9DY2P932BJQ8EAXQFXV7IPM","A3DG8M8G0L4DNZ","3566S7OX5D5NH74JOVOPTTMK8IR17K","","43.19999998807907","img/food3.png","74","44.19999998807907","1","1","1","1","1,0.5,0,1,0.5,0,0.5,0,1","1,0.5,0,1,0.5,0,0.5,0,1","1","",""
"","html-keyboard-response","53","304011","0.0-53.0","3Y5140Z9DY2P932BJQ8EAXQFXV7IPM","A3DG8M8G0L4DNZ","3566S7OX5D5NH74JOVOPTTMK8IR17K","","null","<img src=""img/food3.png"" style=""width:200px; border:14px solid green;"">","null","","","","","","","","","",""
"","image-keyboard-response","54","304059","0.0-54.0","3Y5140Z9DY2P932BJQ8EAXQFXV7IPM","A3DG8M8G0L4DNZ","3566S7OX5D5NH74JOVOPTTMK8IR17K","","47.19999998807907","img/food4.png","76","47.69999998807907","3","0","2","1","1,0.5,0,1,0.5,0,0.5,0,1","1,0.5,0,1,0.5,0,0.5,0,1","1","",""
"","html-keyboard-response","55","304360","0.0-55.0","3Y5140Z9DY2P932BJQ8EAXQFXV7IPM","A3DG8M8G0L4DNZ","3566S7OX5D5NH74JOVOPTTMK8IR17K","","null","<img src=""img/food4.png"" style=""width:200px;border:14px solid red;"">","null","","","","","","","","","",""
"","image-keyboard-response","56","304411","0.0-56.0","3Y5140Z9DY2P932BJQ8EAXQFXV7IPM","A3DG8M8G0L4DNZ","3566S7OX5D5NH74JOVOPTTMK8IR17K","","50","img/food3.png","75","50.69999998807907","2","0","1","1","1,0.5,0,1,0.5,0,0.5,0,1","1,0.5,0,1,0.5,0,0.5,0,1","1","",""
"","html-keyboard-response","57","304712","0.0-57.0","3Y5140Z9DY2P932BJQ8EAXQFXV7IPM","A3DG8M8G0L4DNZ","3566S7OX5D5NH74JOVOPTTMK8IR17K","","null","<img src=""img/food3.png"" style=""width:200px;border:14px solid red;"">","null","","","","","","","","","",""
"","image-keyboard-response","58","304819","0.0-58.0","3Y5140Z9DY2P932BJQ8EAXQFXV7IPM","A3DG8M8G0L4DNZ","3566S7OX5D5NH74JOVOPTTMK8IR17K","","105.90000003576279","img/food4.png","74","106.70000004768372","1","1","2","1","1,0.5,0,1,0.5,0,0.5,0,1","1,0.5,0,1,0.5,0,0.5,0,1","1","",""
"","html-keyboard-response","59","305120","0.0-59.0","3Y5140Z9DY2P932BJQ8EAXQFXV7IPM","A3DG8M8G0L4DNZ","3566S7OX5D5NH74JOVOPTTMK8IR17K","","null","<img src=""img/food4.png"" style=""width:200px; border:14px solid green;"">","null","","","","","","","","","",""
"","image-keyboard-response","60","305224","0.0-60.0","3Y5140Z9DY2P932BJQ8EAXQFXV7IPM","A3DG8M8G0L4DNZ","3566S7OX5D5NH74JOVOPTTMK8IR17K","","102.69999998807907","img/food5.png","76","103.80000001192093","3","1","3","1","1,0.5,0,1,0.5,0,0.5,0,1","1,0.5,0,1,0.5,0,0.5,0,1","1","",""
"","html-keyboard-response","61","305525","0.0-61.0","3Y5140Z9DY2P932BJQ8EAXQFXV7IPM","A3DG8M8G0L4DNZ","3566S7OX5D5NH74JOVOPTTMK8IR17K","","null","<img src=""img/food5.png"" style=""width:200px; border:14px solid green;"">","null","","","","","","","","","",""
"","image-keyboard-response","62","305653","0.0-62.0","3Y5140Z9DY2P932BJQ8EAXQFXV7IPM","A3DG8M8G0L4DNZ","3566S7OX5D5NH74JOVOPTTMK8IR17K","","126.59999996423721","img/food4.png","76","127.59999996423721","3","0","2","1","1,0.5,0,1,0.5,0,0.5,0,1","1,0.5,0,1,0.5,0,0.5,0,1","1","",""
"","html-keyboard-response","63","305954","0.0-63.0","3Y5140Z9DY2P932BJQ8EAXQFXV7IPM","A3DG8M8G0L4DNZ","3566S7OX5D5NH74JOVOPTTMK8IR17K","","null","<img src=""img/food4.png"" style=""width:200px;border:14px solid red;"">","null","","","","","","","","","",""
"","image-keyboard-response","64","306043","0.0-64.0","3Y5140Z9DY2P932BJQ8EAXQFXV7IPM","A3DG8M8G0L4DNZ","3566S7OX5D5NH74JOVOPTTMK8IR17K","","87.70000004768372","img/food5.png","74","88.5","1","1","3","1","1,0.5,0,1,0.5,0,0.5,0,1","1,0.5,0,1,0.5,0,0.5,0,1","1","",""
"","html-keyboard-response","65","306344","0.0-65.0","3Y5140Z9DY2P932BJQ8EAXQFXV7IPM","A3DG8M8G0L4DNZ","3566S7OX5D5NH74JOVOPTTMK8IR17K","","null","<img src=""img/food5.png"" style=""width:200px; border:14px solid green;"">","null","","","","","","","","","",""
"","image-keyboard-response","66","306465","0.0-66.0","3Y5140Z9DY2P932BJQ8EAXQFXV7IPM","A3DG8M8G0L4DNZ","3566S7OX5D5NH74JOVOPTTMK8IR17K","","119.60000002384186","img/food3.png","76","120.5","3","0","1","1","1,0.5,0,1,0.5,0,0.5,0,1","1,0.5,0,1,0.5,0,0.5,0,1","1","",""
"","html-keyboard-response","67","306776","0.0-67.0","3Y5140Z9DY2P932BJQ8EAXQFXV7IPM","A3DG8M8G0L4DNZ","3566S7OX5D5NH74JOVOPTTMK8IR17K","","null","<img src=""img/food3.png"" style=""width:200px;border:14px solid red;"">","null","","","","","","","","","",""
"","image-keyboard-response","68","306883","0.0-68.0","3Y5140Z9DY2P932BJQ8EAXQFXV7IPM","A3DG8M8G0L4DNZ","3566S7OX5D5NH74JOVOPTTMK8IR17K","","105.5","img/food5.png","74","106.30000001192093","1","0","3","1","1,0.5,0,1,0.5,0,0.5,0,1","1,0.5,0,1,0.5,0,0.5,0,1","1","",""
"","html-keyboard-response","69","307184","0.0-69.0","3Y5140Z9DY2P932BJQ8EAXQFXV7IPM","A3DG8M8G0L4DNZ","3566S7OX5D5NH74JOVOPTTMK8IR17K","","null","<img src=""img/food5.png"" style=""width:200px;border:14px solid red;"">","null","","","","","","","","","",""
"","image-keyboard-response","70","307453","0.0-70.0","3Y5140Z9DY2P932BJQ8EAXQFXV7IPM","A3DG8M8G0L4DNZ","3566S7OX5D5NH74JOVOPTTMK8IR17K","","268","img/food4.png","76","268.9000000357628","3","0","2","1","1,0.5,0,1,0.5,0,0.5,0,1","1,0.5,0,1,0.5,0,0.5,0,1","1","",""
"","html-keyboard-response","71","307755","0.0-71.0","3Y5140Z9DY2P932BJQ8EAXQFXV7IPM","A3DG8M8G0L4DNZ","3566S7OX5D5NH74JOVOPTTMK8IR17K","","null","<img src=""img/food4.png"" style=""width:200px;border:14px solid red;"">","null","","","","","","","","","",""
"","image-keyboard-response","72","307863","0.0-72.0","3Y5140Z9DY2P932BJQ8EAXQFXV7IPM","A3DG8M8G0L4DNZ","3566S7OX5D5NH74JOVOPTTMK8IR17K","","107.90000003576279","img/food5.png","75","108.89999997615814","2","0","3","1","1,0.5,0,1,0.5,0,0.5,0,1","1,0.5,0,1,0.5,0,0.5,0,1","1","",""
"","html-keyboard-response","73","308165","0.0-73.0","3Y5140Z9DY2P932BJQ8EAXQFXV7IPM","A3DG8M8G0L4DNZ","3566S7OX5D5NH74JOVOPTTMK8IR17K","","null","<img src=""img/food5.png"" style=""width:200px;border:14px solid red;"">","null","","","","","","","","","",""
"","image-keyboard-response","74","308231","0.0-74.0","3Y5140Z9DY2P932BJQ8EAXQFXV7IPM","A3DG8M8G0L4DNZ","3566S7OX5D5NH74JOVOPTTMK8IR17K","","65.59999996423721","img/food5.png","74","66.5","1","1","3","1","1,0.5,0,1,0.5,0,0.5,0,1","1,0.5,0,1,0.5,0,0.5,0,1","1","",""
"","html-keyboard-response","75","308533","0.0-75.0","3Y5140Z9DY2P932BJQ8EAXQFXV7IPM","A3DG8M8G0L4DNZ","3566S7OX5D5NH74JOVOPTTMK8IR17K","","null","<img src=""img/food5.png"" style=""width:200px; border:14px solid green;"">","null","","","","","","","","","",""
"","image-keyboard-response","76","308627","0.0-76.0","3Y5140Z9DY2P932BJQ8EAXQFXV7IPM","A3DG8M8G0L4DNZ","3566S7OX5D5NH74JOVOPTTMK8IR17K","","93.39999997615814","img/food3.png","76","94.10000002384186","3","0","1","1","1,0.5,0,1,0.5,0,0.5,0,1","1,0.5,0,1,0.5,0,0.5,0,1","1","",""
"","html-keyboard-response","77","308930","0.0-77.0","3Y5140Z9DY2P932BJQ8EAXQFXV7IPM","A3DG8M8G0L4DNZ","3566S7OX5D5NH74JOVOPTTMK8IR17K","","null","<img src=""img/food3.png"" style=""width:200px;border:14px solid red;"">","null","","","","","","","","","",""
"","image-keyboard-response","78","308979","0.0-78.0","3Y5140Z9DY2P932BJQ8EAXQFXV7IPM","A3DG8M8G0L4DNZ","3566S7OX5D5NH74JOVOPTTMK8IR17K","","47.30000001192093","img/food5.png","74","48.19999998807907","1","0","3","1","1,0.5,0,1,0.5,0,0.5,0,1","1,0.5,0,1,0.5,0,0.5,0,1","1","",""
"","html-keyboard-response","79","309282","0.0-79.0","3Y5140Z9DY2P932BJQ8EAXQFXV7IPM","A3DG8M8G0L4DNZ","3566S7OX5D5NH74JOVOPTTMK8IR17K","","null","<img src=""img/food5.png"" style=""width:200px;border:14px solid red;"">","null","","","","","","","","","",""
"","image-keyboard-response","80","309293","0.0-80.0","3Y5140Z9DY2P932BJQ8EAXQFXV7IPM","A3DG8M8G0L4DNZ","3566S7OX5D5NH74JOVOPTTMK8IR17K","","10.899999976158142","img/food3.png","74","11.800000011920929","1","1","1","1","1,0.5,0,1,0.5,0,0.5,0,1","1,0.5,0,1,0.5,0,0.5,0,1","1","",""
"","html-keyboard-response","81","309595","0.0-81.0","3Y5140Z9DY2P932BJQ8EAXQFXV7IPM","A3DG8M8G0L4DNZ","3566S7OX5D5NH74JOVOPTTMK8IR17K","","null","<img src=""img/food3.png"" style=""width:200px; border:14px solid green;"">","null","","","","","","","","","",""
"","image-keyboard-response","82","309679","0.0-82.0","3Y5140Z9DY2P932BJQ8EAXQFXV7IPM","A3DG8M8G0L4DNZ","3566S7OX5D5NH74JOVOPTTMK8IR17K","","83.19999998807907","img/food4.png","76","84","3","0","2","1","1,0.5,0,1,0.5,0,0.5,0,1","1,0.5,0,1,0.5,0,0.5,0,1","1","",""
"","html-keyboard-response","83","309980","0.0-83.0","3Y5140Z9DY2P932BJQ8EAXQFXV7IPM","A3DG8M8G0L4DNZ","3566S7OX5D5NH74JOVOPTTMK8IR17K","","null","<img src=""img/food4.png"" style=""width:200px;border:14px solid red;"">","null","","","","","","","","","",""
"","image-keyboard-response","84","309991","0.0-84.0","3Y5140Z9DY2P932BJQ8EAXQFXV7IPM","A3DG8M8G0L4DNZ","3566S7OX5D5NH74JOVOPTTMK8IR17K","","10.5","img/food3.png","76","11.199999988079071","3","0","1","1","1,0.5,0,1,0.5,0,0.5,0,1","1,0.5,0,1,0.5,0,0.5,0,1","1","",""
"","html-keyboard-response","85","310293","0.0-85.0","3Y5140Z9DY2P932BJQ8EAXQFXV7IPM","A3DG8M8G0L4DNZ","3566S7OX5D5NH74JOVOPTTMK8IR17K","","null","<img src=""img/food3.png"" style=""width:200px;border:14px solid red;"">","null","","","","","","","","","",""
"","image-keyboard-response","86","310383","0.0-86.0","3Y5140Z9DY2P932BJQ8EAXQFXV7IPM","A3DG8M8G0L4DNZ","3566S7OX5D5NH74JOVOPTTMK8IR17K","","89.60000002384186","img/food5.png","74","90.5","1","0","3","1","1,0.5,0,1,0.5,0,0.5,0,1","1,0.5,0,1,0.5,0,0.5,0,1","1","",""
"","html-keyboard-response","87","310684","0.0-87.0","3Y5140Z9DY2P932BJQ8EAXQFXV7IPM","A3DG8M8G0L4DNZ","3566S7OX5D5NH74JOVOPTTMK8IR17K","","null","<img src=""img/food5.png"" style=""width:200px;border:14px solid red;"">","null","","","","","","","","","",""
"","image-keyboard-response","88","310835","0.0-88.0","3Y5140Z9DY2P932BJQ8EAXQFXV7IPM","A3DG8M8G0L4DNZ","3566S7OX5D5NH74JOVOPTTMK8IR17K","","149.5","img/food3.png","74","150.5","1","1","1","1","1,0.5,0,1,0.5,0,0.5,0,1","1,0.5,0,1,0.5,0,0.5,0,1","1","",""
"","html-keyboard-response","89","311138","0.0-89.0","3Y5140Z9DY2P932BJQ8EAXQFXV7IPM","A3DG8M8G0L4DNZ","3566S7OX5D5NH74JOVOPTTMK8IR17K","","null","<img src=""img/food3.png"" style=""width:200px; border:14px solid green;"">","null","","","","","","","","","",""
"","image-keyboard-response","90","311201","0.0-90.0","3Y5140Z9DY2P932BJQ8EAXQFXV7IPM","A3DG8M8G0L4DNZ","3566S7OX5D5NH74JOVOPTTMK8IR17K","","62.19999998807907","img/food4.png","76","63","3","0","2","1","1,0.5,0,1,0.5,0,0.5,0,1","1,0.5,0,1,0.5,0,0.5,0,1","1","",""
"","html-keyboard-response","91","311503","0.0-91.0","3Y5140Z9DY2P932BJQ8EAXQFXV7IPM","A3DG8M8G0L4DNZ","3566S7OX5D5NH74JOVOPTTMK8IR17K","","null","<img src=""img/food4.png"" style=""width:200px;border:14px solid red;"">","null","","","","","","","","","",""
"","image-keyboard-response","92","311504","0.0-92.0","3Y5140Z9DY2P932BJQ8EAXQFXV7IPM","A3DG8M8G0L4DNZ","3566S7OX5D5NH74JOVOPTTMK8IR17K","","0.3999999761581421","img/food5.png","75","1.100000023841858","2","0","3","1","1,0.5,0,1,0.5,0,0.5,0,1","1,0.5,0,1,0.5,0,0.5,0,1","1","",""
"","html-keyboard-response","93","311806","0.0-93.0","3Y5140Z9DY2P932BJQ8EAXQFXV7IPM","A3DG8M8G0L4DNZ","3566S7OX5D5NH74JOVOPTTMK8IR17K","","null","<img src=""img/food5.png"" style=""width:200px;border:14px solid red;"">","null","","","","","","","","","",""
"","image-keyboard-response","94","311855","0.0-94.0","3Y5140Z9DY2P932BJQ8EAXQFXV7IPM","A3DG8M8G0L4DNZ","3566S7OX5D5NH74JOVOPTTMK8IR17K","","48.40000003576279","img/food5.png","74","49.10000002384186","1","1","3","1","1,0.5,0,1,0.5,0,0.5,0,1","1,0.5,0,1,0.5,0,0.5,0,1","1","",""
"","html-keyboard-response","95","312157","0.0-95.0","3Y5140Z9DY2P932BJQ8EAXQFXV7IPM","A3DG8M8G0L4DNZ","3566S7OX5D5NH74JOVOPTTMK8IR17K","","null","<img src=""img/food5.png"" style=""width:200px; border:14px solid green;"">","null","","","","","","","","","",""
"","image-keyboard-response","96","312209","0.0-96.0","3Y5140Z9DY2P932BJQ8EAXQFXV7IPM","A3DG8M8G0L4DNZ","3566S7OX5D5NH74JOVOPTTMK8IR17K","","51.200000047683716","img/food4.png","76","52","3","0","2","1","1,0.5,0,1,0.5,0,0.5,0,1","1,0.5,0,1,0.5,0,0.5,0,1","1","",""
"","html-keyboard-response","97","312511","0.0-97.0","3Y5140Z9DY2P932BJQ8EAXQFXV7IPM","A3DG8M8G0L4DNZ","3566S7OX5D5NH74JOVOPTTMK8IR17K","","null","<img src=""img/food4.png"" style=""width:200px;border:14px solid red;"">","null","","","","","","","","","",""
"","image-keyboard-response","98","312557","0.0-98.0","3Y5140Z9DY2P932BJQ8EAXQFXV7IPM","A3DG8M8G0L4DNZ","3566S7OX5D5NH74JOVOPTTMK8IR17K","","44.40000003576279","img/food3.png","74","45.30000001192093","1","1","1","1","1,0.5,0,1,0.5,0,0.5,0,1","1,0.5,0,1,0.5,0,0.5,0,1","1","",""
"","html-keyboard-response","99","312860","0.0-99.0","3Y5140Z9DY2P932BJQ8EAXQFXV7IPM","A3DG8M8G0L4DNZ","3566S7OX5D5NH74JOVOPTTMK8IR17K","","null","<img src=""img/food3.png"" style=""width:200px; border:14px solid green;"">","null","","","","","","","","","",""
"","image-keyboard-response","100","312893","0.0-100.0","3Y5140Z9DY2P932BJQ8EAXQFXV7IPM","A3DG8M8G0L4DNZ","3566S7OX5D5NH74JOVOPTTMK8IR17K","","32.30000001192093","img/food3.png","76","33","3","0","1","1","1,0.5,0,1,0.5,0,0.5,0,1","1,0.5,0,1,0.5,0,0.5,0,1","1","",""
"","html-keyboard-response","101","313195","0.0-101.0","3Y5140Z9DY2P932BJQ8EAXQFXV7IPM","A3DG8M8G0L4DNZ","3566S7OX5D5NH74JOVOPTTMK8IR17K","","null","<img src=""img/food3.png"" style=""width:200px;border:14px solid red;"">","null","","","","","","","","","",""
"","image-keyboard-response","102","313201","0.0-102.0","3Y5140Z9DY2P932BJQ8EAXQFXV7IPM","A3DG8M8G0L4DNZ","3566S7OX5D5NH74JOVOPTTMK8IR17K","","4.800000011920929","img/food4.png","75","5.5","2","0","2","1","1,0.5,0,1,0.5,0,0.5,0,1","1,0.5,0,1,0.5,0,0.5,0,1","1","",""
"","html-keyboard-response","103","313503","0.0-103.0","3Y5140Z9DY2P932BJQ8EAXQFXV7IPM","A3DG8M8G0L4DNZ","3566S7OX5D5NH74JOVOPTTMK8IR17K","","null","<img src=""img/food4.png"" style=""width:200px;border:14px solid red;"">","null","","","","","","","","","",""
"","image-keyboard-response","104","313521","0.0-104.0","3Y5140Z9DY2P932BJQ8EAXQFXV7IPM","A3DG8M8G0L4DNZ","3566S7OX5D5NH74JOVOPTTMK8IR17K","","17.099999964237213","img/food4.png","74","18","1","1","2","1","1,0.5,0,1,0.5,0,0.5,0,1","1,0.5,0,1,0.5,0,0.5,0,1","1","",""
"","html-keyboard-response","105","313822","0.0-105.0","3Y5140Z9DY2P932BJQ8EAXQFXV7IPM","A3DG8M8G0L4DNZ","3566S7OX5D5NH74JOVOPTTMK8IR17K","","null","<img src=""img/food4.png"" style=""width:200px; border:14px solid green;"">","null","","","","","","","","","",""
"","image-keyboard-response","106","313929","0.0-106.0","3Y5140Z9DY2P932BJQ8EAXQFXV7IPM","A3DG8M8G0L4DNZ","3566S7OX5D5NH74JOVOPTTMK8IR17K","","105.30000001192093","img/food3.png","76","106.09999996423721","3","0","1","1","1,0.5,0,1,0.5,0,0.5,0,1","1,0.5,0,1,0.5,0,0.5,0,1","1","",""
"","html-keyboard-response","107","314231","0.0-107.0","3Y5140Z9DY2P932BJQ8EAXQFXV7IPM","A3DG8M8G0L4DNZ","3566S7OX5D5NH74JOVOPTTMK8IR17K","","null","<img src=""img/food3.png"" style=""width:200px;border:14px solid red;"">","null","","","","","","","","","",""
"","image-keyboard-response","108","314313","0.0-108.0","3Y5140Z9DY2P932BJQ8EAXQFXV7IPM","A3DG8M8G0L4DNZ","3566S7OX5D5NH74JOVOPTTMK8IR17K","","80.19999998807907","img/food5.png","74","81.5","1","1","3","1","1,0.5,0,1,0.5,0,0.5,0,1","1,0.5,0,1,0.5,0,0.5,0,1","1","",""
"","html-keyboard-response","109","314615","0.0-109.0","3Y5140Z9DY2P932BJQ8EAXQFXV7IPM","A3DG8M8G0L4DNZ","3566S7OX5D5NH74JOVOPTTMK8IR17K","","null","<img src=""img/food5.png"" style=""width:200px; border:14px solid green;"">","null","","","","","","","","","",""
"","image-keyboard-response","110","314727","0.0-110.0","3Y5140Z9DY2P932BJQ8EAXQFXV7IPM","A3DG8M8G0L4DNZ","3566S7OX5D5NH74JOVOPTTMK8IR17K","","110.69999998807907","img/food5.png","76","111.30000001192093","3","1","3","1","1,0.5,0,1,0.5,0,0.5,0,1","1,0.5,0,1,0.5,0,0.5,0,1","1","",""
"","html-keyboard-response","111","315029","0.0-111.0","3Y5140Z9DY2P932BJQ8EAXQFXV7IPM","A3DG8M8G0L4DNZ","3566S7OX5D5NH74JOVOPTTMK8IR17K","","null","<img src=""img/food5.png"" style=""width:200px; border:14px solid green;"">","null","","","","","","","","","",""
"","image-keyboard-response","112","315145","0.0-112.0","3Y5140Z9DY2P932BJQ8EAXQFXV7IPM","A3DG8M8G0L4DNZ","3566S7OX5D5NH74JOVOPTTMK8IR17K","","115.09999996423721","img/food4.png","76","115.60000002384186","3","0","2","1","1,0.5,0,1,0.5,0,0.5,0,1","1,0.5,0,1,0.5,0,0.5,0,1","1","",""
"","html-keyboard-response","113","315446","0.0-113.0","3Y5140Z9DY2P932BJQ8EAXQFXV7IPM","A3DG8M8G0L4DNZ","3566S7OX5D5NH74JOVOPTTMK8IR17K","","null","<img src=""img/food4.png"" style=""width:200px;border:14px solid red;"">","null","","","","","","","","","",""
"","image-keyboard-response","114","315512","0.0-114.0","3Y5140Z9DY2P932BJQ8EAXQFXV7IPM","A3DG8M8G0L4DNZ","3566S7OX5D5NH74JOVOPTTMK8IR17K","","63.80000001192093","img/food4.png","76","64.89999997615814","3","0","2","1","1,0.5,0,1,0.5,0,0.5,0,1","1,0.5,0,1,0.5,0,0.5,0,1","1","",""
"","html-keyboard-response","115","315814","0.0-115.0","3Y5140Z9DY2P932BJQ8EAXQFXV7IPM","A3DG8M8G0L4DNZ","3566S7OX5D5NH74JOVOPTTMK8IR17K","","null","<img src=""img/food4.png"" style=""width:200px;border:14px solid red;"">","null","","","","","","","","","",""
"","image-keyboard-response","116","315817","0.0-116.0","3Y5140Z9DY2P932BJQ8EAXQFXV7IPM","A3DG8M8G0L4DNZ","3566S7OX5D5NH74JOVOPTTMK8IR17K","","2.100000023841858","img/food3.png","76","2.799999952316284","3","0","1","1","1,0.5,0,1,0.5,0,0.5,0,1","1,0.5,0,1,0.5,0,0.5,0,1","1","",""
"","html-keyboard-response","117","316118","0.0-117.0","3Y5140Z9DY2P932BJQ8EAXQFXV7IPM","A3DG8M8G0L4DNZ","3566S7OX5D5NH74JOVOPTTMK8IR17K","","null","<img src=""img/food3.png"" style=""width:200px;border:14px solid red;"">","null","","","","","","","","","",""
"","image-keyboard-response","118","316309","0.0-118.0","3Y5140Z9DY2P932BJQ8EAXQFXV7IPM","A3DG8M8G0L4DNZ","3566S7OX5D5NH74JOVOPTTMK8IR17K","","189.89999997615814","img/food3.png","74","190.89999997615814","1","1","1","1","1,0.5,0,1,0.5,0,0.5,0,1","1,0.5,0,1,0.5,0,0.5,0,1","1","",""
"","html-keyboard-response","119","316613","0.0-119.0","3Y5140Z9DY2P932BJQ8EAXQFXV7IPM","A3DG8M8G0L4DNZ","3566S7OX5D5NH74JOVOPTTMK8IR17K","","null","<img src=""img/food3.png"" style=""width:200px; border:14px solid green;"">","null","","","","","","","","","",""
"","image-keyboard-response","120","316755","0.0-120.0","3Y5140Z9DY2P932BJQ8EAXQFXV7IPM","A3DG8M8G0L4DNZ","3566S7OX5D5NH74JOVOPTTMK8IR17K","","141.60000002384186","img/food5.png","74","142.19999998807907","1","1","3","1","1,0.5,0,1,0.5,0,0.5,0,1","1,0.5,0,1,0.5,0,0.5,0,1","1","",""
"","html-keyboard-response","121","317056","0.0-121.0","3Y5140Z9DY2P932BJQ8EAXQFXV7IPM","A3DG8M8G0L4DNZ","3566S7OX5D5NH74JOVOPTTMK8IR17K","","null","<img src=""img/food5.png"" style=""width:200px; border:14px solid green;"">","null","","","","","","","","","",""
"","image-keyboard-response","122","317247","0.0-122.0","3Y5140Z9DY2P932BJQ8EAXQFXV7IPM","A3DG8M8G0L4DNZ","3566S7OX5D5NH74JOVOPTTMK8IR17K","","190.10000002384186","img/food5.png","74","190.80000001192093","1","0","3","1","1,0.5,0,1,0.5,0,0.5,0,1","1,0.5,0,1,0.5,0,0.5,0,1","1","",""
"","html-keyboard-response","123","317549","0.0-123.0","3Y5140Z9DY2P932BJQ8EAXQFXV7IPM","A3DG8M8G0L4DNZ","3566S7OX5D5NH74JOVOPTTMK8IR17K","","null","<img src=""img/food5.png"" style=""width:200px;border:14px solid red;"">","null","","","","","","","","","",""
"","image-keyboard-response","124","317600","0.0-124.0","3Y5140Z9DY2P932BJQ8EAXQFXV7IPM","A3DG8M8G0L4DNZ","3566S7OX5D5NH74JOVOPTTMK8IR17K","","49.60000002384186","img/food5.png","75","50.60000002384186","2","0","3","1","1,0.5,0,1,0.5,0,0.5,0,1","1,0.5,0,1,0.5,0,0.5,0,1","1","",""
"","html-keyboard-response","125","317901","0.0-125.0","3Y5140Z9DY2P932BJQ8EAXQFXV7IPM","A3DG8M8G0L4DNZ","3566S7OX5D5NH74JOVOPTTMK8IR17K","","null","<img src=""img/food5.png"" style=""width:200px;border:14px solid red;"">","null","","","","","","","","","",""
"","image-keyboard-response","126","318047","0.0-126.0","3Y5140Z9DY2P932BJQ8EAXQFXV7IPM","A3DG8M8G0L4DNZ","3566S7OX5D5NH74JOVOPTTMK8IR17K","","145.30000001192093","img/food5.png","76","146","3","1","3","1","1,0.5,0,1,0.5,0,0.5,0,1","1,0.5,0,1,0.5,0,0.5,0,1","1","",""
"","html-keyboard-response","127","318349","0.0-127.0","3Y5140Z9DY2P932BJQ8EAXQFXV7IPM","A3DG8M8G0L4DNZ","3566S7OX5D5NH74JOVOPTTMK8IR17K","","null","<img src=""img/food5.png"" style=""width:200px; border:14px solid green;"">","null","","","","","","","","","",""
"","image-keyboard-response","128","318379","0.0-128.0","3Y5140Z9DY2P932BJQ8EAXQFXV7IPM","A3DG8M8G0L4DNZ","3566S7OX5D5NH74JOVOPTTMK8IR17K","","28.80000001192093","img/food3.png","74","29.80000001192093","1","1","1","1","1,0.5,0,1,0.5,0,0.5,0,1","1,0.5,0,1,0.5,0,0.5,0,1","1","",""
"","html-keyboard-response","129","318682","0.0-129.0","3Y5140Z9DY2P932BJQ8EAXQFXV7IPM","A3DG8M8G0L4DNZ","3566S7OX5D5NH74JOVOPTTMK8IR17K","","null","<img src=""img/food3.png"" style=""width:200px; border:14px solid green;"">","null","","","","","","","","","",""
"","image-keyboard-response","130","319193","0.0-130.0","3Y5140Z9DY2P932BJQ8EAXQFXV7IPM","A3DG8M8G0L4DNZ","3566S7OX5D5NH74JOVOPTTMK8IR17K","","509.9000000357628","img/food4.png","74","510.9000000357628","1","1","2","1","1,0.5,0,1,0.5,0,0.5,0,1","1,0.5,0,1,0.5,0,0.5,0,1","1","",""
"","html-keyboard-response","131","319495","0.0-131.0","3Y5140Z9DY2P932BJQ8EAXQFXV7IPM","A3DG8M8G0L4DNZ","3566S7OX5D5NH74JOVOPTTMK8IR17K","","null","<img src=""img/food4.png"" style=""width:200px; border:14px solid green;"">","null","","","","","","","","","",""
"","image-keyboard-response","132","319754","0.0-132.0","3Y5140Z9DY2P932BJQ8EAXQFXV7IPM","A3DG8M8G0L4DNZ","3566S7OX5D5NH74JOVOPTTMK8IR17K","","258.19999998807907","img/food3.png","74","259.19999998807907","1","1","1","1","1,0.5,0,1,0.5,0,0.5,0,1","1,0.5,0,1,0.5,0,0.5,0,1","1","",""
"","html-keyboard-response","133","320057","0.0-133.0","3Y5140Z9DY2P932BJQ8EAXQFXV7IPM","A3DG8M8G0L4DNZ","3566S7OX5D5NH74JOVOPTTMK8IR17K","","null","<img src=""img/food3.png"" style=""width:200px; border:14px solid green;"">","null","","","","","","","","","",""
"","image-keyboard-response","134","320103","0.0-134.0","3Y5140Z9DY2P932BJQ8EAXQFXV7IPM","A3DG8M8G0L4DNZ","3566S7OX5D5NH74JOVOPTTMK8IR17K","","45.799999952316284","img/food4.png","75","46.5","2","0","2","1","1,0.5,0,1,0.5,0,0.5,0,1","1,0.5,0,1,0.5,0,0.5,0,1","1","",""
"","html-keyboard-response","135","320404","0.0-135.0","3Y5140Z9DY2P932BJQ8EAXQFXV7IPM","A3DG8M8G0L4DNZ","3566S7OX5D5NH74JOVOPTTMK8IR17K","","null","<img src=""img/food4.png"" style=""width:200px;border:14px solid red;"">","null","","","","","","","","","",""
"","image-keyboard-response","136","320457","0.0-136.0","3Y5140Z9DY2P932BJQ8EAXQFXV7IPM","A3DG8M8G0L4DNZ","3566S7OX5D5NH74JOVOPTTMK8IR17K","","51.80000001192093","img/food4.png","75","52.69999998807907","2","0","2","1","1,0.5,0,1,0.5,0,0.5,0,1","1,0.5,0,1,0.5,0,0.5,0,1","1","",""
"","html-keyboard-response","137","320760","0.0-137.0","3Y5140Z9DY2P932BJQ8EAXQFXV7IPM","A3DG8M8G0L4DNZ","3566S7OX5D5NH74JOVOPTTMK8IR17K","","null","<img src=""img/food4.png"" style=""width:200px;border:14px solid red;"">","null","","","","","","","","","",""
"","image-keyboard-response","138","320775","0.0-138.0","3Y5140Z9DY2P932BJQ8EAXQFXV7IPM","A3DG8M8G0L4DNZ","3566S7OX5D5NH74JOVOPTTMK8IR17K","","14.5","img/food5.png","76","15.399999976158142","3","1","3","1","1,0.5,0,1,0.5,0,0.5,0,1","1,0.5,0,1,0.5,0,0.5,0,1","1","",""
"","html-keyboard-response","139","321076","0.0-139.0","3Y5140Z9DY2P932BJQ8EAXQFXV7IPM","A3DG8M8G0L4DNZ","3566S7OX5D5NH74JOVOPTTMK8IR17K","","null","<img src=""img/food5.png"" style=""width:200px; border:14px solid green;"">","null","","","","","","","","","",""
"","image-keyboard-response","140","321080","0.0-140.0","3Y5140Z9DY2P932BJQ8EAXQFXV7IPM","A3DG8M8G0L4DNZ","3566S7OX5D5NH74JOVOPTTMK8IR17K","","2.5","img/food3.png","74","3.300000011920929","1","1","1","1","1,0.5,0,1,0.5,0,0.5,0,1","1,0.5,0,1,0.5,0,0.5,0,1","1","",""
"","html-keyboard-response","141","321381","0.0-141.0","3Y5140Z9DY2P932BJQ8EAXQFXV7IPM","A3DG8M8G0L4DNZ","3566S7OX5D5NH74JOVOPTTMK8IR17K","","null","<img src=""img/food3.png"" style=""width:200px; border:14px solid green;"">","null","","","","","","","","","",""
"","image-keyboard-response","142","321387","0.0-142.0","3Y5140Z9DY2P932BJQ8EAXQFXV7IPM","A3DG8M8G0L4DNZ","3566S7OX5D5NH74JOVOPTTMK8IR17K","","5.699999988079071","img/food5.png","75","6.600000023841858","2","0","3","1","1,0.5,0,1,0.5,0,0.5,0,1","1,0.5,0,1,0.5,0,0.5,0,1","1","",""
"","html-keyboard-response","143","321688","0.0-143.0","3Y5140Z9DY2P932BJQ8EAXQFXV7IPM","A3DG8M8G0L4DNZ","3566S7OX5D5NH74JOVOPTTMK8IR17K","","null","<img src=""img/food5.png"" style=""width:200px;border:14px solid red;"">","null","","","","","","","","","",""
"","image-keyboard-response","144","321786","0.0-144.0","3Y5140Z9DY2P932BJQ8EAXQFXV7IPM","A3DG8M8G0L4DNZ","3566S7OX5D5NH74JOVOPTTMK8IR17K","","96.70000004768372","img/food4.png","75","97.59999996423721","2","1","2","1","1,0.5,0,1,0.5,0,0.5,0,1","1,0.5,0,1,0.5,0,0.5,0,1","1","",""
"","html-keyboard-response","145","322087","0.0-145.0","3Y5140Z9DY2P932BJQ8EAXQFXV7IPM","A3DG8M8G0L4DNZ","3566S7OX5D5NH74JOVOPTTMK8IR17K","","null","<img src=""img/food4.png"" style=""width:200px; border:14px solid green;"">","null","","","","","","","","","",""
"","image-keyboard-response","146","322181","0.0-146.0","3Y5140Z9DY2P932BJQ8EAXQFXV7IPM","A3DG8M8G0L4DNZ","3566S7OX5D5NH74JOVOPTTMK8IR17K","","93.5","img/food4.png","75","94.19999998807907","2","0","2","1","1,0.5,0,1,0.5,0,0.5,0,1","1,0.5,0,1,0.5,0,0.5,0,1","1","",""
"","html-keyboard-response","147","322484","0.0-147.0","3Y5140Z9DY2P932BJQ8EAXQFXV7IPM","A3DG8M8G0L4DNZ","3566S7OX5D5NH74JOVOPTTMK8IR17K","","null","<img src=""img/food4.png"" style=""width:200px;border:14px solid red;"">","null","","","","","","","","","",""
"","image-keyboard-response","148","322571","0.0-148.0","3Y5140Z9DY2P932BJQ8EAXQFXV7IPM","A3DG8M8G0L4DNZ","3566S7OX5D5NH74JOVOPTTMK8IR17K","","86.70000004768372","img/food5.png","75","87.40000003576279","2","0","3","1","1,0.5,0,1,0.5,0,0.5,0,1","1,0.5,0,1,0.5,0,0.5,0,1","1","",""
"","html-keyboard-response","149","322873","0.0-149.0","3Y5140Z9DY2P932BJQ8EAXQFXV7IPM","A3DG8M8G0L4DNZ","3566S7OX5D5NH74JOVOPTTMK8IR17K","","null","<img src=""img/food5.png"" style=""width:200px;border:14px solid red;"">","null","","","","","","","","","",""
"","image-keyboard-response","150","322907","0.0-150.0","3Y5140Z9DY2P932BJQ8EAXQFXV7IPM","A3DG8M8G0L4DNZ","3566S7OX5D5NH74JOVOPTTMK8IR17K","","33.60000002384186","img/food3.png","76","34.30000001192093","3","0","1","1","1,0.5,0,1,0.5,0,0.5,0,1","1,0.5,0,1,0.5,0,0.5,0,1","1","",""
"","html-keyboard-response","151","323209","0.0-151.0","3Y5140Z9DY2P932BJQ8EAXQFXV7IPM","A3DG8M8G0L4DNZ","3566S7OX5D5NH74JOVOPTTMK8IR17K","","null","<img src=""img/food3.png"" style=""width:200px;border:14px solid red;"">","null","","","","","","","","","",""
"","image-keyboard-response","152","323223","0.0-152.0","3Y5140Z9DY2P932BJQ8EAXQFXV7IPM","A3DG8M8G0L4DNZ","3566S7OX5D5NH74JOVOPTTMK8IR17K","","13.699999988079071","img/food5.png","74","14.300000011920929","1","1","3","1","1,0.5,0,1,0.5,0,0.5,0,1","1,0.5,0,1,0.5,0,0.5,0,1","1","",""
"","html-keyboard-response","153","323525","0.0-153.0","3Y5140Z9DY2P932BJQ8EAXQFXV7IPM","A3DG8M8G0L4DNZ","3566S7OX5D5NH74JOVOPTTMK8IR17K","","null","<img src=""img/food5.png"" style=""width:200px; border:14px solid green;"">","null","","","","","","","","","",""
"","image-keyboard-response","154","323534","0.0-154.0","3Y5140Z9DY2P932BJQ8EAXQFXV7IPM","A3DG8M8G0L4DNZ","3566S7OX5D5NH74JOVOPTTMK8IR17K","","7.5","img/food4.png","75","8.199999988079071","2","1","2","1","1,0.5,0,1,0.5,0,0.5,0,1","1,0.5,0,1,0.5,0,0.5,0,1","1","",""
"","html-keyboard-response","155","323835","0.0-155.0","3Y5140Z9DY2P932BJQ8EAXQFXV7IPM","A3DG8M8G0L4DNZ","3566S7OX5D5NH74JOVOPTTMK8IR17K","","null","<img src=""img/food4.png"" style=""width:200px; border:14px solid green;"">","null","","","","","","","","","",""
"","image-keyboard-response","156","323950","0.0-156.0","3Y5140Z9DY2P932BJQ8EAXQFXV7IPM","A3DG8M8G0L4DNZ","3566S7OX5D5NH74JOVOPTTMK8IR17K","","113.60000002384186","img/food4.png","75","114.39999997615814","2","1","2","1","1,0.5,0,1,0.5,0,0.5,0,1","1,0.5,0,1,0.5,0,0.5,0,1","1","",""
"","html-keyboard-response","157","324251","0.0-157.0","3Y5140Z9DY2P932BJQ8EAXQFXV7IPM","A3DG8M8G0L4DNZ","3566S7OX5D5NH74JOVOPTTMK8IR17K","","null","<img src=""img/food4.png"" style=""width:200px; border:14px solid green;"">","null","","","","","","","","","",""
"","image-keyboard-response","158","324331","0.0-158.0","3Y5140Z9DY2P932BJQ8EAXQFXV7IPM","A3DG8M8G0L4DNZ","3566S7OX5D5NH74JOVOPTTMK8IR17K","","79.09999996423721","img/food4.png","75","79.89999997615814","2","0","2","1","1,0.5,0,1,0.5,0,0.5,0,1","1,0.5,0,1,0.5,0,0.5,0,1","1","",""
"","html-keyboard-response","159","324633","0.0-159.0","3Y5140Z9DY2P932BJQ8EAXQFXV7IPM","A3DG8M8G0L4DNZ","3566S7OX5D5NH74JOVOPTTMK8IR17K","","null","<img src=""img/food4.png"" style=""width:200px;border:14px solid red;"">","null","","","","","","","","","",""
"","image-keyboard-response","160","324722","0.0-160.0","3Y5140Z9DY2P932BJQ8EAXQFXV7IPM","A3DG8M8G0L4DNZ","3566S7OX5D5NH74JOVOPTTMK8IR17K","","86.89999997615814","img/food5.png","75","88.09999996423721","2","0","3","1","1,0.5,0,1,0.5,0,0.5,0,1","1,0.5,0,1,0.5,0,0.5,0,1","1","",""
"","html-keyboard-response","161","325024","0.0-161.0","3Y5140Z9DY2P932BJQ8EAXQFXV7IPM","A3DG8M8G0L4DNZ","3566S7OX5D5NH74JOVOPTTMK8IR17K","","null","<img src=""img/food5.png"" style=""width:200px;border:14px solid red;"">","null","","","","","","","","","",""
"","image-keyboard-response","162","325032","0.0-162.0","3Y5140Z9DY2P932BJQ8EAXQFXV7IPM","A3DG8M8G0L4DNZ","3566S7OX5D5NH74JOVOPTTMK8IR17K","","7.199999988079071","img/food3.png","76","7.899999976158142","3","0","1","1","1,0.5,0,1,0.5,0,0.5,0,1","1,0.5,0,1,0.5,0,0.5,0,1","1","",""
"","html-keyboard-response","163","325333","0.0-163.0","3Y5140Z9DY2P932BJQ8EAXQFXV7IPM","A3DG8M8G0L4DNZ","3566S7OX5D5NH74JOVOPTTMK8IR17K","","null","<img src=""img/food3.png"" style=""width:200px;border:14px solid red;"">","null","","","","","","","","","",""
"","image-keyboard-response","164","325417","0.0-164.0","3Y5140Z9DY2P932BJQ8EAXQFXV7IPM","A3DG8M8G0L4DNZ","3566S7OX5D5NH74JOVOPTTMK8IR17K","","83.10000002384186","img/food4.png","74","84.10000002384186","1","1","2","1","1,0.5,0,1,0.5,0,0.5,0,1","1,0.5,0,1,0.5,0,0.5,0,1","1","",""
"","html-keyboard-response","165","325720","0.0-165.0","3Y5140Z9DY2P932BJQ8EAXQFXV7IPM","A3DG8M8G0L4DNZ","3566S7OX5D5NH74JOVOPTTMK8IR17K","","null","<img src=""img/food4.png"" style=""width:200px; border:14px solid green;"">","null","","","","","","","","","",""
"","image-keyboard-response","166","325753","0.0-166.0","3Y5140Z9DY2P932BJQ8EAXQFXV7IPM","A3DG8M8G0L4DNZ","3566S7OX5D5NH74JOVOPTTMK8IR17K","","31.400000035762787","img/food4.png","75","32.69999998807907","2","1","2","1","1,0.5,0,1,0.5,0,0.5,0,1","1,0.5,0,1,0.5,0,0.5,0,1","1","",""
"","html-keyboard-response","167","326062","0.0-167.0","3Y5140Z9DY2P932BJQ8EAXQFXV7IPM","A3DG8M8G0L4DNZ","3566S7OX5D5NH74JOVOPTTMK8IR17K","","null","<img src=""img/food4.png"" style=""width:200px; border:14px solid green;"">","null","","","","","","","","","",""
"","image-keyboard-response","168","326092","0.0-168.0","3Y5140Z9DY2P932BJQ8EAXQFXV7IPM","A3DG8M8G0L4DNZ","3566S7OX5D5NH74JOVOPTTMK8IR17K","","28.400000035762787","img/food5.png","76","29.200000047683716","3","1","3","1","1,0.5,0,1,0.5,0,0.5,0,1","1,0.5,0,1,0.5,0,0.5,0,1","1","",""
"","html-keyboard-response","169","326393","0.0-169.0","3Y5140Z9DY2P932BJQ8EAXQFXV7IPM","A3DG8M8G0L4DNZ","3566S7OX5D5NH74JOVOPTTMK8IR17K","","null","<img src=""img/food5.png"" style=""width:200px; border:14px solid green;"">","null","","","","","","","","","",""
"","image-keyboard-response","170","326482","0.0-170.0","3Y5140Z9DY2P932BJQ8EAXQFXV7IPM","A3DG8M8G0L4DNZ","3566S7OX5D5NH74JOVOPTTMK8IR17K","","88","img/food5.png","74","88.80000001192093","1","0","3","1","1,0.5,0,1,0.5,0,0.5,0,1","1,0.5,0,1,0.5,0,0.5,0,1","1","",""
"","html-keyboard-response","171","326784","0.0-171.0","3Y5140Z9DY2P932BJQ8EAXQFXV7IPM","A3DG8M8G0L4DNZ","3566S7OX5D5NH74JOVOPTTMK8IR17K","","null","<img src=""img/food5.png"" style=""width:200px;border:14px solid red;"">","null","","","","","","","","","",""
"","image-keyboard-response","172","326860","0.0-172.0","3Y5140Z9DY2P932BJQ8EAXQFXV7IPM","A3DG8M8G0L4DNZ","3566S7OX5D5NH74JOVOPTTMK8IR17K","","74.39999997615814","img/food4.png","75","75.40000003576279","2","0","2","1","1,0.5,0,1,0.5,0,0.5,0,1","1,0.5,0,1,0.5,0,0.5,0,1","1","",""
"","html-keyboard-response","173","327162","0.0-173.0","3Y5140Z9DY2P932BJQ8EAXQFXV7IPM","A3DG8M8G0L4DNZ","3566S7OX5D5NH74JOVOPTTMK8IR17K","","null","<img src=""img/food4.png"" style=""width:200px;border:14px solid red;"">","null","","","","","","","","","",""
"","image-keyboard-response","174","327163","0.0-174.0","3Y5140Z9DY2P932BJQ8EAXQFXV7IPM","A3DG8M8G0L4DNZ","3566S7OX5D5NH74JOVOPTTMK8IR17K","","0.30000001192092896","img/food5.png","76","1.100000023841858","3","1","3","1","1,0.5,0,1,0.5,0,0.5,0,1","1,0.5,0,1,0.5,0,0.5,0,1","1","",""
"","html-keyboard-response","175","327465","0.0-175.0","3Y5140Z9DY2P932BJQ8EAXQFXV7IPM","A3DG8M8G0L4DNZ","3566S7OX5D5NH74JOVOPTTMK8IR17K","","null","<img src=""img/food5.png"" style=""width:200px; border:14px solid green;"">","null","","","","","","","","","",""
"","image-keyboard-response","176","327517","0.0-176.0","3Y5140Z9DY2P932BJQ8EAXQFXV7IPM","A3DG8M8G0L4DNZ","3566S7OX5D5NH74JOVOPTTMK8IR17K","","51.89999997615814","img/food5.png","75","52.69999998807907","2","0","3","1","1,0.5,0,1,0.5,0,0.5,0,1","1,0.5,0,1,0.5,0,0.5,0,1","1","",""
"","html-keyboard-response","177","327819","0.0-177.0","3Y5140Z9DY2P932BJQ8EAXQFXV7IPM","A3DG8M8G0L4DNZ","3566S7OX5D5NH74JOVOPTTMK8IR17K","","null","<img src=""img/food5.png"" style=""width:200px;border:14px solid red;"">","null","","","","","","","","","",""
"","image-keyboard-response","178","327856","0.0-178.0","3Y5140Z9DY2P932BJQ8EAXQFXV7IPM","A3DG8M8G0L4DNZ","3566S7OX5D5NH74JOVOPTTMK8IR17K","","36.30000001192093","img/food3.png","74","37.39999997615814","1","1","1","1","1,0.5,0,1,0.5,0,0.5,0,1","1,0.5,0,1,0.5,0,0.5,0,1","1","",""
"","html-keyboard-response","179","328158","0.0-179.0","3Y5140Z9DY2P932BJQ8EAXQFXV7IPM","A3DG8M8G0L4DNZ","3566S7OX5D5NH74JOVOPTTMK8IR17K","","null","<img src=""img/food3.png"" style=""width:200px; border:14px solid green;"">","null","","","","","","","","","",""
"","image-keyboard-response","180","328232","0.0-180.0","3Y5140Z9DY2P932BJQ8EAXQFXV7IPM","A3DG8M8G0L4DNZ","3566S7OX5D5NH74JOVOPTTMK8IR17K","","72.79999995231628","img/food3.png","76","73.69999998807907","3","0","1","1","1,0.5,0,1,0.5,0,0.5,0,1","1,0.5,0,1,0.5,0,0.5,0,1","1","",""
"","html-keyboard-response","181","328535","0.0-181.0","3Y5140Z9DY2P932BJQ8EAXQFXV7IPM","A3DG8M8G0L4DNZ","3566S7OX5D5NH74JOVOPTTMK8IR17K","","null","<img src=""img/food3.png"" style=""width:200px;border:14px solid red;"">","null","","","","","","","","","",""
"","html-keyboard-response","182","331128","0.0-182.0","3Y5140Z9DY2P932BJQ8EAXQFXV7IPM","A3DG8M8G0L4DNZ","3566S7OX5D5NH74JOVOPTTMK8IR17K","","","","","","","","","","","","","",""
"","instructions","183","338448","0.0-183.0","3Y5140Z9DY2P932BJQ8EAXQFXV7IPM","A3DG8M8G0L4DNZ","3566S7OX5D5NH74JOVOPTTMK8IR17K","[{""page_index"":0,""viewing_time"":6753.799999952316},{""page_index"":1,""viewing_time"":565.8000000119209}]","7319.899999976158","","","","","","","","","","","",""
"","image-keyboard-response","184","338632","0.0-184.0","3Y5140Z9DY2P932BJQ8EAXQFXV7IPM","A3DG8M8G0L4DNZ","3566S7OX5D5NH74JOVOPTTMK8IR17K","","182.79999995231628","img/food6.png","76","183.60000002384186","3","0","3","2","1,0.5,0,1,0.5,0,0.5,0,1","0,1,0.5,0,1,0.5,1,0.5,0","3","false",""
"","html-keyboard-response","185","338935","0.0-185.0","3Y5140Z9DY2P932BJQ8EAXQFXV7IPM","A3DG8M8G0L4DNZ","3566S7OX5D5NH74JOVOPTTMK8IR17K","","null","<img src=""img/food6.png"" style=""width:200px;border:14px solid red;"">","null","","","","","","","","","",""
"","image-keyboard-response","186","338984","0.0-187.0","3Y5140Z9DY2P932BJQ8EAXQFXV7IPM","A3DG8M8G0L4DNZ","3566S7OX5D5NH74JOVOPTTMK8IR17K","","47.5","img/food1.png","76","48.09999996423721","3","0","2","2","1,0.5,0,1,0.5,0,0.5,0,1","0,1,0.5,0,1,0.5,1,0.5,0","3","false",""
"","html-keyboard-response","187","339286","0.0-188.0","3Y5140Z9DY2P932BJQ8EAXQFXV7IPM","A3DG8M8G0L4DNZ","3566S7OX5D5NH74JOVOPTTMK8IR17K","","null","<img src=""img/food1.png"" style=""width:200px;border:14px solid red;"">","null","","","","","","","","","",""
"","image-keyboard-response","188","339358","0.0-190.0","3Y5140Z9DY2P932BJQ8EAXQFXV7IPM","A3DG8M8G0L4DNZ","3566S7OX5D5NH74JOVOPTTMK8IR17K","","70.89999997615814","img/food6.png","76","71.60000002384186","3","0","3","2","1,0.5,0,1,0.5,0,0.5,0,1","0,1,0.5,0,1,0.5,1,0.5,0","3","false",""
"","html-keyboard-response","189","339659","0.0-191.0","3Y5140Z9DY2P932BJQ8EAXQFXV7IPM","A3DG8M8G0L4DNZ","3566S7OX5D5NH74JOVOPTTMK8IR17K","","null","<img src=""img/food6.png"" style=""width:200px;border:14px solid red;"">","null","","","","","","","","","",""
"","image-keyboard-response","190","339725","0.0-193.0","3Y5140Z9DY2P932BJQ8EAXQFXV7IPM","A3DG8M8G0L4DNZ","3566S7OX5D5NH74JOVOPTTMK8IR17K","","64.30000001192093","img/food6.png","76","65.09999996423721","3","0","3","2","1,0.5,0,1,0.5,0,0.5,0,1","0,1,0.5,0,1,0.5,1,0.5,0","3","false",""
"","html-keyboard-response","191","340027","0.0-194.0","3Y5140Z9DY2P932BJQ8EAXQFXV7IPM","A3DG8M8G0L4DNZ","3566S7OX5D5NH74JOVOPTTMK8IR17K","","null","<img src=""img/food6.png"" style=""width:200px;border:14px solid red;"">","null","","","","","","","","","",""
"","image-keyboard-response","192","340081","0.0-196.0","3Y5140Z9DY2P932BJQ8EAXQFXV7IPM","A3DG8M8G0L4DNZ","3566S7OX5D5NH74JOVOPTTMK8IR17K","","53","img/food6.png","74","54","1","1","3","2","1,0.5,0,1,0.5,0,0.5,0,1","0,1,0.5,0,1,0.5,1,0.5,0","3","false",""
"","html-keyboard-response","193","340382","0.0-197.0","3Y5140Z9DY2P932BJQ8EAXQFXV7IPM","A3DG8M8G0L4DNZ","3566S7OX5D5NH74JOVOPTTMK8IR17K","","null","<img src=""img/food6.png"" style=""width:200px; border:14px solid green;"">","null","","","","","","","","","",""
"","image-keyboard-response","194","340452","0.0-199.0","3Y5140Z9DY2P932BJQ8EAXQFXV7IPM","A3DG8M8G0L4DNZ","3566S7OX5D5NH74JOVOPTTMK8IR17K","","69.40000003576279","img/food6.png","74","70.30000001192093","1","1","3","2","1,0.5,0,1,0.5,0,0.5,0,1","0,1,0.5,0,1,0.5,1,0.5,0","3","false",""
"","html-keyboard-response","195","340754","0.0-200.0","3Y5140Z9DY2P932BJQ8EAXQFXV7IPM","A3DG8M8G0L4DNZ","3566S7OX5D5NH74JOVOPTTMK8IR17K","","null","<img src=""img/food6.png"" style=""width:200px; border:14px solid green;"">","null","","","","","","","","","",""
"","image-keyboard-response","196","340820","0.0-202.0","3Y5140Z9DY2P932BJQ8EAXQFXV7IPM","A3DG8M8G0L4DNZ","3566S7OX5D5NH74JOVOPTTMK8IR17K","","65.90000003576279","img/food2.png","74","66.29999995231628","1","0","1","2","1,0.5,0,1,0.5,0,0.5,0,1","0,1,0.5,0,1,0.5,1,0.5,0","3","false",""
"","html-keyboard-response","197","341122","0.0-203.0","3Y5140Z9DY2P932BJQ8EAXQFXV7IPM","A3DG8M8G0L4DNZ","3566S7OX5D5NH74JOVOPTTMK8IR17K","","null","<img src=""img/food2.png"" style=""width:200px;border:14px solid red;"">","null","","","","","","","","","",""
"","image-keyboard-response","198","341196","0.0-205.0","3Y5140Z9DY2P932BJQ8EAXQFXV7IPM","A3DG8M8G0L4DNZ","3566S7OX5D5NH74JOVOPTTMK8IR17K","","73.30000001192093","img/food2.png","74","74.39999997615814","1","0","1","2","1,0.5,0,1,0.5,0,0.5,0,1","0,1,0.5,0,1,0.5,1,0.5,0","3","false",""
"","html-keyboard-response","199","341500","0.0-206.0","3Y5140Z9DY2P932BJQ8EAXQFXV7IPM","A3DG8M8G0L4DNZ","3566S7OX5D5NH74JOVOPTTMK8IR17K","","null","<img src=""img/food2.png"" style=""width:200px;border:14px solid red;"">","null","","","","","","","","","",""
"","image-keyboard-response","200","341563","0.0-208.0","3Y5140Z9DY2P932BJQ8EAXQFXV7IPM","A3DG8M8G0L4DNZ","3566S7OX5D5NH74JOVOPTTMK8IR17K","","62.5","img/food1.png","74","63.40000003576279","1","0","2","2","1,0.5,0,1,0.5,0,0.5,0,1","0,1,0.5,0,1,0.5,1,0.5,0","3","false",""
"","html-keyboard-response","201","341865","0.0-209.0","3Y5140Z9DY2P932BJQ8EAXQFXV7IPM","A3DG8M8G0L4DNZ","3566S7OX5D5NH74JOVOPTTMK8IR17K","","null","<img src=""img/food1.png"" style=""width:200px;border:14px solid red;"">","null","","","","","","","","","",""
"","image-keyboard-response","202","341946","0.0-211.0","3Y5140Z9DY2P932BJQ8EAXQFXV7IPM","A3DG8M8G0L4DNZ","3566S7OX5D5NH74JOVOPTTMK8IR17K","","80.30000001192093","img/food2.png","74","80.89999997615814","1","0","1","2","1,0.5,0,1,0.5,0,0.5,0,1","0,1,0.5,0,1,0.5,1,0.5,0","3","false",""
"","html-keyboard-response","203","342248","0.0-212.0","3Y5140Z9DY2P932BJQ8EAXQFXV7IPM","A3DG8M8G0L4DNZ","3566S7OX5D5NH74JOVOPTTMK8IR17K","","null","<img src=""img/food2.png"" style=""width:200px;border:14px solid red;"">","null","","","","","","","","","",""
"","image-keyboard-response","204","342337","0.0-214.0","3Y5140Z9DY2P932BJQ8EAXQFXV7IPM","A3DG8M8G0L4DNZ","3566S7OX5D5NH74JOVOPTTMK8IR17K","","87.69999998807907","img/food1.png","74","88.60000002384186","1","0","2","2","1,0.5,0,1,0.5,0,0.5,0,1","0,1,0.5,0,1,0.5,1,0.5,0","3","false",""
"","html-keyboard-response","205","342639","0.0-215.0","3Y5140Z9DY2P932BJQ8EAXQFXV7IPM","A3DG8M8G0L4DNZ","3566S7OX5D5NH74JOVOPTTMK8IR17K","","null","<img src=""img/food1.png"" style=""width:200px;border:14px solid red;"">","null","","","","","","","","","",""
"","image-keyboard-response","206","342725","0.0-217.0","3Y5140Z9DY2P932BJQ8EAXQFXV7IPM","A3DG8M8G0L4DNZ","3566S7OX5D5NH74JOVOPTTMK8IR17K","","85.19999998807907","img/food6.png","74","86.30000001192093","1","1","3","2","1,0.5,0,1,0.5,0,0.5,0,1","0,1,0.5,0,1,0.5,1,0.5,0","3","false",""
"","html-keyboard-response","207","343027","0.0-218.0","3Y5140Z9DY2P932BJQ8EAXQFXV7IPM","A3DG8M8G0L4DNZ","3566S7OX5D5NH74JOVOPTTMK8IR17K","","null","<img src=""img/food6.png"" style=""width:200px; border:14px solid green;"">","null","","","","","","","","","",""
"","image-keyboard-response","208","343111","0.0-220.0","3Y5140Z9DY2P932BJQ8EAXQFXV7IPM","A3DG8M8G0L4DNZ","3566S7OX5D5NH74JOVOPTTMK8IR17K","","82.19999998807907","img/food6.png","74","83.40000003576279","1","1","3","2","1,0.5,0,1,0.5,0,0.5,0,1","0,1,0.5,0,1,0.5,1,0.5,0","3","false",""
"","html-keyboard-response","209","343412","0.0-221.0","3Y5140Z9DY2P932BJQ8EAXQFXV7IPM","A3DG8M8G0L4DNZ","3566S7OX5D5NH74JOVOPTTMK8IR17K","","null","<img src=""img/food6.png"" style=""width:200px; border:14px solid green;"">","null","","","","","","","","","",""
"","image-keyboard-response","210","343573","0.0-223.0","3Y5140Z9DY2P932BJQ8EAXQFXV7IPM","A3DG8M8G0L4DNZ","3566S7OX5D5NH74JOVOPTTMK8IR17K","","159","img/food6.png","75","160","2","0","3","2","1,0.5,0,1,0.5,0,0.5,0,1","0,1,0.5,0,1,0.5,1,0.5,0","3","false",""
"","html-keyboard-response","211","343874","0.0-224.0","3Y5140Z9DY2P932BJQ8EAXQFXV7IPM","A3DG8M8G0L4DNZ","3566S7OX5D5NH74JOVOPTTMK8IR17K","","null","<img src=""img/food6.png"" style=""width:200px;border:14px solid red;"">","null","","","","","","","","","",""
"","image-keyboard-response","212","344015","0.0-226.0","3Y5140Z9DY2P932BJQ8EAXQFXV7IPM","A3DG8M8G0L4DNZ","3566S7OX5D5NH74JOVOPTTMK8IR17K","","140.39999997615814","img/food2.png","76","141.19999998807907","3","1","1","2","1,0.5,0,1,0.5,0,0.5,0,1","0,1,0.5,0,1,0.5,1,0.5,0","3","false",""
"","html-keyboard-response","213","344317","0.0-227.0","3Y5140Z9DY2P932BJQ8EAXQFXV7IPM","A3DG8M8G0L4DNZ","3566S7OX5D5NH74JOVOPTTMK8IR17K","","null","<img src=""img/food2.png"" style=""width:200px; border:14px solid green;"">","null","","","","","","","","","",""
"","image-keyboard-response","214","344332","0.0-229.0","3Y5140Z9DY2P932BJQ8EAXQFXV7IPM","A3DG8M8G0L4DNZ","3566S7OX5D5NH74JOVOPTTMK8IR17K","","14.400000035762787","img/food2.png","74","15.300000011920929","1","0","1","2","1,0.5,0,1,0.5,0,0.5,0,1","0,1,0.5,0,1,0.5,1,0.5,0","3","false",""
"","html-keyboard-response","215","344634","0.0-230.0","3Y5140Z9DY2P932BJQ8EAXQFXV7IPM","A3DG8M8G0L4DNZ","3566S7OX5D5NH74JOVOPTTMK8IR17K","","null","<img src=""img/food2.png"" style=""width:200px;border:14px solid red;"">","null","","","","","","","","","",""
"","image-keyboard-response","216","344677","0.0-232.0","3Y5140Z9DY2P932BJQ8EAXQFXV7IPM","A3DG8M8G0L4DNZ","3566S7OX5D5NH74JOVOPTTMK8IR17K","","41.19999998807907","img/food1.png","76","42.5","3","1","2","2","1,0.5,0,1,0.5,0,0.5,0,1","0,1,0.5,0,1,0.5,1,0.5,0","3","false",""
"","html-keyboard-response","217","344979","0.0-233.0","3Y5140Z9DY2P932BJQ8EAXQFXV7IPM","A3DG8M8G0L4DNZ","3566S7OX5D5NH74JOVOPTTMK8IR17K","","null","<img src=""img/food1.png"" style=""width:200px; border:14px solid green;"">","null","","","","","","","","","",""
"","image-keyboard-response","218","345076","0.0-235.0","3Y5140Z9DY2P932BJQ8EAXQFXV7IPM","A3DG8M8G0L4DNZ","3566S7OX5D5NH74JOVOPTTMK8IR17K","","96.90000003576279","img/food1.png","74","97.60000002384186","1","0","2","2","1,0.5,0,1,0.5,0,0.5,0,1","0,1,0.5,0,1,0.5,1,0.5,0","3","false",""
"","html-keyboard-response","219","345379","0.0-236.0","3Y5140Z9DY2P932BJQ8EAXQFXV7IPM","A3DG8M8G0L4DNZ","3566S7OX5D5NH74JOVOPTTMK8IR17K","","null","<img src=""img/food1.png"" style=""width:200px;border:14px solid red;"">","null","","","","","","","","","",""
"","image-keyboard-response","220","345444","0.0-238.0","3Y5140Z9DY2P932BJQ8EAXQFXV7IPM","A3DG8M8G0L4DNZ","3566S7OX5D5NH74JOVOPTTMK8IR17K","","64.90000003576279","img/food6.png","74","65.5","1","1","3","2","1,0.5,0,1,0.5,0,0.5,0,1","0,1,0.5,0,1,0.5,1,0.5,0","3","false",""
"","html-keyboard-response","221","345746","0.0-239.0","3Y5140Z9DY2P932BJQ8EAXQFXV7IPM","A3DG8M8G0L4DNZ","3566S7OX5D5NH74JOVOPTTMK8IR17K","","null","<img src=""img/food6.png"" style=""width:200px; border:14px solid green;"">","null","","","","","","","","","",""
"","image-keyboard-response","222","345819","0.0-241.0","3Y5140Z9DY2P932BJQ8EAXQFXV7IPM","A3DG8M8G0L4DNZ","3566S7OX5D5NH74JOVOPTTMK8IR17K","","71.80000001192093","img/food6.png","74","72.60000002384186","1","1","3","2","1,0.5,0,1,0.5,0,0.5,0,1","0,1,0.5,0,1,0.5,1,0.5,0","3","false",""
"","html-keyboard-response","223","346120","0.0-242.0","3Y5140Z9DY2P932BJQ8EAXQFXV7IPM","A3DG8M8G0L4DNZ","3566S7OX5D5NH74JOVOPTTMK8IR17K","","null","<img src=""img/food6.png"" style=""width:200px; border:14px solid green;"">","null","","","","","","","","","",""
"","image-keyboard-response","224","346150","0.0-244.0","3Y5140Z9DY2P932BJQ8EAXQFXV7IPM","A3DG8M8G0L4DNZ","3566S7OX5D5NH74JOVOPTTMK8IR17K","","28.69999998807907","img/food1.png","76","29.399999976158142","3","1","2","2","1,0.5,0,1,0.5,0,0.5,0,1","0,1,0.5,0,1,0.5,1,0.5,0","3","false",""
"","html-keyboard-response","225","346452","0.0-245.0","3Y5140Z9DY2P932BJQ8EAXQFXV7IPM","A3DG8M8G0L4DNZ","3566S7OX5D5NH74JOVOPTTMK8IR17K","","null","<img src=""img/food1.png"" style=""width:200px; border:14px solid green;"">","null","","","","","","","","","",""
"","image-keyboard-response","226","346521","0.0-247.0","3Y5140Z9DY2P932BJQ8EAXQFXV7IPM","A3DG8M8G0L4DNZ","3566S7OX5D5NH74JOVOPTTMK8IR17K","","67.30000001192093","img/food1.png","74","68.30000001192093","1","0","2","2","1,0.5,0,1,0.5,0,0.5,0,1","0,1,0.5,0,1,0.5,1,0.5,0","3","false",""
"","html-keyboard-response","227","346823","0.0-248.0","3Y5140Z9DY2P932BJQ8EAXQFXV7IPM","A3DG8M8G0L4DNZ","3566S7OX5D5NH74JOVOPTTMK8IR17K","","null","<img src=""img/food1.png"" style=""width:200px;border:14px solid red;"">","null","","","","","","","","","",""
"","image-keyboard-response","228","346858","0.0-250.0","3Y5140Z9DY2P932BJQ8EAXQFXV7IPM","A3DG8M8G0L4DNZ","3566S7OX5D5NH74JOVOPTTMK8IR17K","","34.30000001192093","img/food2.png","76","34.89999997615814","3","0","1","2","1,0.5,0,1,0.5,0,0.5,0,1","0,1,0.5,0,1,0.5,1,0.5,0","3","false",""
"","html-keyboard-response","229","347161","0.0-251.0","3Y5140Z9DY2P932BJQ8EAXQFXV7IPM","A3DG8M8G0L4DNZ","3566S7OX5D5NH74JOVOPTTMK8IR17K","","null","<img src=""img/food2.png"" style=""width:200px;border:14px solid red;"">","null","","","","","","","","","",""
"","image-keyboard-response","230","347253","0.0-253.0","3Y5140Z9DY2P932BJQ8EAXQFXV7IPM","A3DG8M8G0L4DNZ","3566S7OX5D5NH74JOVOPTTMK8IR17K","","91.10000002384186","img/food1.png","75","92","2","1","2","2","1,0.5,0,1,0.5,0,0.5,0,1","0,1,0.5,0,1,0.5,1,0.5,0","3","false",""
"","html-keyboard-response","231","347555","0.0-254.0","3Y5140Z9DY2P932BJQ8EAXQFXV7IPM","A3DG8M8G0L4DNZ","3566S7OX5D5NH74JOVOPTTMK8IR17K","","null","<img src=""img/food1.png"" style=""width:200px; border:14px solid green;"">","null","","","","","","","","","",""
"","image-keyboard-response","232","347612","0.0-256.0","3Y5140Z9DY2P932BJQ8EAXQFXV7IPM","A3DG8M8G0L4DNZ","3566S7OX5D5NH74JOVOPTTMK8IR17K","","55.59999996423721","img/food2.png","74","56.40000003576279","1","0","1","2","1,0.5,0,1,0.5,0,0.5,0,1","0,1,0.5,0,1,0.5,1,0.5,0","3","false",""
"","html-keyboard-response","233","347913","0.0-257.0","3Y5140Z9DY2P932BJQ8EAXQFXV7IPM","A3DG8M8G0L4DNZ","3566S7OX5D5NH74JOVOPTTMK8IR17K","","null","<img src=""img/food2.png"" style=""width:200px;border:14px solid red;"">","null","","","","","","","","","",""
"","image-keyboard-response","234","347974","0.0-259.0","3Y5140Z9DY2P932BJQ8EAXQFXV7IPM","A3DG8M8G0L4DNZ","3566S7OX5D5NH74JOVOPTTMK8IR17K","","59.5","img/food1.png","75","60.30000001192093","2","1","2","2","1,0.5,0,1,0.5,0,0.5,0,1","0,1,0.5,0,1,0.5,1,0.5,0","3","false",""
"","html-keyboard-response","235","348285","0.0-260.0","3Y5140Z9DY2P932BJQ8EAXQFXV7IPM","A3DG8M8G0L4DNZ","3566S7OX5D5NH74JOVOPTTMK8IR17K","","null","<img src=""img/food1.png"" style=""width:200px; border:14px solid green;"">","null","","","","","","","","","",""
"","image-keyboard-response","236","348308","0.0-262.0","3Y5140Z9DY2P932BJQ8EAXQFXV7IPM","A3DG8M8G0L4DNZ","3566S7OX5D5NH74JOVOPTTMK8IR17K","","22","img/food6.png","74","22.69999998807907","1","1","3","2","1,0.5,0,1,0.5,0,0.5,0,1","0,1,0.5,0,1,0.5,1,0.5,0","3","false",""
"","html-keyboard-response","237","348609","0.0-263.0","3Y5140Z9DY2P932BJQ8EAXQFXV7IPM","A3DG8M8G0L4DNZ","3566S7OX5D5NH74JOVOPTTMK8IR17K","","null","<img src=""img/food6.png"" style=""width:200px; border:14px solid green;"">","null","","","","","","","","","",""
"","image-keyboard-response","238","348645","0.0-265.0","3Y5140Z9DY2P932BJQ8EAXQFXV7IPM","A3DG8M8G0L4DNZ","3566S7OX5D5NH74JOVOPTTMK8IR17K","","34.19999998807907","img/food2.png","76","35.19999998807907","3","1","1","2","1,0.5,0,1,0.5,0,0.5,0,1","0,1,0.5,0,1,0.5,1,0.5,0","3","false",""
"","html-keyboard-response","239","348946","0.0-266.0","3Y5140Z9DY2P932BJQ8EAXQFXV7IPM","A3DG8M8G0L4DNZ","3566S7OX5D5NH74JOVOPTTMK8IR17K","","null","<img src=""img/food2.png"" style=""width:200px; border:14px solid green;"">","null","","","","","","","","","",""
"","image-keyboard-response","240","349055","0.0-268.0","3Y5140Z9DY2P932BJQ8EAXQFXV7IPM","A3DG8M8G0L4DNZ","3566S7OX5D5NH74JOVOPTTMK8IR17K","","107.19999998807907","img/food6.png","74","108","1","1","3","2","1,0.5,0,1,0.5,0,0.5,0,1","0,1,0.5,0,1,0.5,1,0.5,0","3","false",""
"","html-keyboard-response","241","349356","0.0-269.0","3Y5140Z9DY2P932BJQ8EAXQFXV7IPM","A3DG8M8G0L4DNZ","3566S7OX5D5NH74JOVOPTTMK8IR17K","","null","<img src=""img/food6.png"" style=""width:200px; border:14px solid green;"">","null","","","","","","","","","",""
"","image-keyboard-response","242","349483","0.0-271.0","3Y5140Z9DY2P932BJQ8EAXQFXV7IPM","A3DG8M8G0L4DNZ","3566S7OX5D5NH74JOVOPTTMK8IR17K","","126.29999995231628","img/food1.png","75","127.10000002384186","2","1","2","2","1,0.5,0,1,0.5,0,0.5,0,1","0,1,0.5,0,1,0.5,1,0.5,0","3","false",""
"","html-keyboard-response","243","349786","0.0-272.0","3Y5140Z9DY2P932BJQ8EAXQFXV7IPM","A3DG8M8G0L4DNZ","3566S7OX5D5NH74JOVOPTTMK8IR17K","","null","<img src=""img/food1.png"" style=""width:200px; border:14px solid green;"">","null","","","","","","","","","",""
"","image-keyboard-response","244","349789","0.0-274.0","3Y5140Z9DY2P932BJQ8EAXQFXV7IPM","A3DG8M8G0L4DNZ","3566S7OX5D5NH74JOVOPTTMK8IR17K","","1.899999976158142","img/food6.png","75","2.699999988079071","2","0","3","2","1,0.5,0,1,0.5,0,0.5,0,1","0,1,0.5,0,1,0.5,1,0.5,0","3","false",""
"","html-keyboard-response","245","350090","0.0-275.0","3Y5140Z9DY2P932BJQ8EAXQFXV7IPM","A3DG8M8G0L4DNZ","3566S7OX5D5NH74JOVOPTTMK8IR17K","","null","<img src=""img/food6.png"" style=""width:200px;border:14px solid red;"">","null","","","","","","","","","",""
"","image-keyboard-response","246","350106","0.0-277.0","3Y5140Z9DY2P932BJQ8EAXQFXV7IPM","A3DG8M8G0L4DNZ","3566S7OX5D5NH74JOVOPTTMK8IR17K","","14.600000023841858","img/food2.png","74","15.600000023841858","1","0","1","2","1,0.5,0,1,0.5,0,0.5,0,1","0,1,0.5,0,1,0.5,1,0.5,0","3","false",""
"","html-keyboard-response","247","350408","0.0-278.0","3Y5140Z9DY2P932BJQ8EAXQFXV7IPM","A3DG8M8G0L4DNZ","3566S7OX5D5NH74JOVOPTTMK8IR17K","","null","<img src=""img/food2.png"" style=""width:200px;border:14px solid red;"">","null","","","","","","","","","",""
"","image-keyboard-response","248","350411","0.0-280.0","3Y5140Z9DY2P932BJQ8EAXQFXV7IPM","A3DG8M8G0L4DNZ","3566S7OX5D5NH74JOVOPTTMK8IR17K","","2.100000023841858","img/food2.png","75","2.900000035762787","2","1","1","2","1,0.5,0,1,0.5,0,0.5,0,1","0,1,0.5,0,1,0.5,1,0.5,0","3","false",""
"","html-keyboard-response","249","350712","0.0-281.0","3Y5140Z9DY2P932BJQ8EAXQFXV7IPM","A3DG8M8G0L4DNZ","3566S7OX5D5NH74JOVOPTTMK8IR17K","","null","<img src=""img/food2.png"" style=""width:200px; border:14px solid green;"">","null","","","","","","","","","",""
"","image-keyboard-response","250","350761","0.0-283.0","3Y5140Z9DY2P932BJQ8EAXQFXV7IPM","A3DG8M8G0L4DNZ","3566S7OX5D5NH74JOVOPTTMK8IR17K","","47.09999996423721","img/food2.png","74","48.19999998807907","1","0","1","2","1,0.5,0,1,0.5,0,0.5,0,1","0,1,0.5,0,1,0.5,1,0.5,0","3","false",""
"","html-keyboard-response","251","351063","0.0-284.0","3Y5140Z9DY2P932BJQ8EAXQFXV7IPM","A3DG8M8G0L4DNZ","3566S7OX5D5NH74JOVOPTTMK8IR17K","","null","<img src=""img/food2.png"" style=""width:200px;border:14px solid red;"">","null","","","","","","","","","",""
"","image-keyboard-response","252","351069","0.0-286.0","3Y5140Z9DY2P932BJQ8EAXQFXV7IPM","A3DG8M8G0L4DNZ","3566S7OX5D5NH74JOVOPTTMK8IR17K","","4.5","img/food1.png","76","5.300000011920929","3","0","2","2","1,0.5,0,1,0.5,0,0.5,0,1","0,1,0.5,0,1,0.5,1,0.5,0","3","false",""
"","html-keyboard-response","253","351371","0.0-287.0","3Y5140Z9DY2P932BJQ8EAXQFXV7IPM","A3DG8M8G0L4DNZ","3566S7OX5D5NH74JOVOPTTMK8IR17K","","null","<img src=""img/food1.png"" style=""width:200px;border:14px solid red;"">","null","","","","","","","","","",""
"","image-keyboard-response","254","351433","0.0-289.0","3Y5140Z9DY2P932BJQ8EAXQFXV7IPM","A3DG8M8G0L4DNZ","3566S7OX5D5NH74JOVOPTTMK8IR17K","","61","img/food6.png","74","61.89999997615814","1","1","3","2","1,0.5,0,1,0.5,0,0.5,0,1","0,1,0.5,0,1,0.5,1,0.5,0","3","false",""
"","html-keyboard-response","255","351735","0.0-290.0","3Y5140Z9DY2P932BJQ8EAXQFXV7IPM","A3DG8M8G0L4DNZ","3566S7OX5D5NH74JOVOPTTMK8IR17K","","null","<img src=""img/food6.png"" style=""width:200px; border:14px solid green;"">","null","","","","","","","","","",""
"","image-keyboard-response","256","351833","0.0-292.0","3Y5140Z9DY2P932BJQ8EAXQFXV7IPM","A3DG8M8G0L4DNZ","3566S7OX5D5NH74JOVOPTTMK8IR17K","","96.60000002384186","img/food6.png","74","97.5","1","1","3","2","1,0.5,0,1,0.5,0,0.5,0,1","0,1,0.5,0,1,0.5,1,0.5,0","3","false",""
"","html-keyboard-response","257","352135","0.0-293.0","3Y5140Z9DY2P932BJQ8EAXQFXV7IPM","A3DG8M8G0L4DNZ","3566S7OX5D5NH74JOVOPTTMK8IR17K","","null","<img src=""img/food6.png"" style=""width:200px; border:14px solid green;"">","null","","","","","","","","","",""
"","image-keyboard-response","258","352242","0.0-295.0","3Y5140Z9DY2P932BJQ8EAXQFXV7IPM","A3DG8M8G0L4DNZ","3566S7OX5D5NH74JOVOPTTMK8IR17K","","106.40000003576279","img/food2.png","75","107.19999998807907","2","1","1","2","1,0.5,0,1,0.5,0,0.5,0,1","0,1,0.5,0,1,0.5,1,0.5,0","3","false",""
"","html-keyboard-response","259","352543","0.0-296.0","3Y5140Z9DY2P932BJQ8EAXQFXV7IPM","A3DG8M8G0L4DNZ","3566S7OX5D5NH74JOVOPTTMK8IR17K","","null","<img src=""img/food2.png"" style=""width:200px; border:14px solid green;"">","null","","","","","","","","","",""
"","image-keyboard-response","260","352605","0.0-298.0","3Y5140Z9DY2P932BJQ8EAXQFXV7IPM","A3DG8M8G0L4DNZ","3566S7OX5D5NH74JOVOPTTMK8IR17K","","60.10000002384186","img/food6.png","74","60.90000003576279","1","1","3","2","1,0.5,0,1,0.5,0,0.5,0,1","0,1,0.5,0,1,0.5,1,0.5,0","3","false",""
"","html-keyboard-response","261","352906","0.0-299.0","3Y5140Z9DY2P932BJQ8EAXQFXV7IPM","A3DG8M8G0L4DNZ","3566S7OX5D5NH74JOVOPTTMK8IR17K","","null","<img src=""img/food6.png"" style=""width:200px; border:14px solid green;"">","null","","","","","","","","","",""
"","image-keyboard-response","262","352909","0.0-301.0","3Y5140Z9DY2P932BJQ8EAXQFXV7IPM","A3DG8M8G0L4DNZ","3566S7OX5D5NH74JOVOPTTMK8IR17K","","1.699999988079071","img/food1.png","76","2.5","3","1","2","2","1,0.5,0,1,0.5,0,0.5,0,1","0,1,0.5,0,1,0.5,1,0.5,0","3","false",""
"","html-keyboard-response","263","353210","0.0-302.0","3Y5140Z9DY2P932BJQ8EAXQFXV7IPM","A3DG8M8G0L4DNZ","3566S7OX5D5NH74JOVOPTTMK8IR17K","","null","<img src=""img/food1.png"" style=""width:200px; border:14px solid green;"">","null","","","","","","","","","",""
"","image-keyboard-response","264","353259","0.0-304.0","3Y5140Z9DY2P932BJQ8EAXQFXV7IPM","A3DG8M8G0L4DNZ","3566S7OX5D5NH74JOVOPTTMK8IR17K","","47.80000001192093","img/food6.png","74","48.59999996423721","1","1","3","2","1,0.5,0,1,0.5,0,0.5,0,1","0,1,0.5,0,1,0.5,1,0.5,0","3","false",""
"","html-keyboard-response","265","353560","0.0-305.0","3Y5140Z9DY2P932BJQ8EAXQFXV7IPM","A3DG8M8G0L4DNZ","3566S7OX5D5NH74JOVOPTTMK8IR17K","","null","<img src=""img/food6.png"" style=""width:200px; border:14px solid green;"">","null","","","","","","","","","",""
"","image-keyboard-response","266","353611","0.0-307.0","3Y5140Z9DY2P932BJQ8EAXQFXV7IPM","A3DG8M8G0L4DNZ","3566S7OX5D5NH74JOVOPTTMK8IR17K","","50.10000002384186","img/food1.png","76","50.80000001192093","3","0","2","2","1,0.5,0,1,0.5,0,0.5,0,1","0,1,0.5,0,1,0.5,1,0.5,0","3","false",""
"","html-keyboard-response","267","353914","0.0-308.0","3Y5140Z9DY2P932BJQ8EAXQFXV7IPM","A3DG8M8G0L4DNZ","3566S7OX5D5NH74JOVOPTTMK8IR17K","","null","<img src=""img/food1.png"" style=""width:200px;border:14px solid red;"">","null","","","","","","","","","",""
"","image-keyboard-response","268","353929","0.0-310.0","3Y5140Z9DY2P932BJQ8EAXQFXV7IPM","A3DG8M8G0L4DNZ","3566S7OX5D5NH74JOVOPTTMK8IR17K","","13.800000011920929","img/food1.png","74","14.800000011920929","1","0","2","2","1,0.5,0,1,0.5,0,0.5,0,1","0,1,0.5,0,1,0.5,1,0.5,0","3","false",""
"","html-keyboard-response","269","354230","0.0-311.0","3Y5140Z9DY2P932BJQ8EAXQFXV7IPM","A3DG8M8G0L4DNZ","3566S7OX5D5NH74JOVOPTTMK8IR17K","","null","<img src=""img/food1.png"" style=""width:200px;border:14px solid red;"">","null","","","","","","","","","",""
"","image-keyboard-response","270","354311","0.0-313.0","3Y5140Z9DY2P932BJQ8EAXQFXV7IPM","A3DG8M8G0L4DNZ","3566S7OX5D5NH74JOVOPTTMK8IR17K","","79.39999997615814","img/food1.png","75","80.39999997615814","2","1","2","2","1,0.5,0,1,0.5,0,0.5,0,1","0,1,0.5,0,1,0.5,1,0.5,0","3","false",""
"","html-keyboard-response","271","354612","0.0-314.0","3Y5140Z9DY2P932BJQ8EAXQFXV7IPM","A3DG8M8G0L4DNZ","3566S7OX5D5NH74JOVOPTTMK8IR17K","","null","<img src=""img/food1.png"" style=""width:200px; border:14px solid green;"">","null","","","","","","","","","",""
"","image-keyboard-response","272","354625","0.0-316.0","3Y5140Z9DY2P932BJQ8EAXQFXV7IPM","A3DG8M8G0L4DNZ","3566S7OX5D5NH74JOVOPTTMK8IR17K","","12.100000023841858","img/food2.png","74","12.900000035762787","1","0","1","2","1,0.5,0,1,0.5,0,0.5,0,1","0,1,0.5,0,1,0.5,1,0.5,0","3","false",""
"","html-keyboard-response","273","354927","0.0-317.0","3Y5140Z9DY2P932BJQ8EAXQFXV7IPM","A3DG8M8G0L4DNZ","3566S7OX5D5NH74JOVOPTTMK8IR17K","","null","<img src=""img/food2.png"" style=""width:200px;border:14px solid red;"">","null","","","","","","","","","",""
"","image-keyboard-response","274","354981","0.0-319.0","3Y5140Z9DY2P932BJQ8EAXQFXV7IPM","A3DG8M8G0L4DNZ","3566S7OX5D5NH74JOVOPTTMK8IR17K","","52.30000001192093","img/food2.png","75","53.09999996423721","2","1","1","2","1,0.5,0,1,0.5,0,0.5,0,1","0,1,0.5,0,1,0.5,1,0.5,0","3","false",""
"","html-keyboard-response","275","355283","0.0-320.0","3Y5140Z9DY2P932BJQ8EAXQFXV7IPM","A3DG8M8G0L4DNZ","3566S7OX5D5NH74JOVOPTTMK8IR17K","","null","<img src=""img/food2.png"" style=""width:200px; border:14px solid green;"">","null","","","","","","","","","",""
"","image-keyboard-response","276","355341","0.0-322.0","3Y5140Z9DY2P932BJQ8EAXQFXV7IPM","A3DG8M8G0L4DNZ","3566S7OX5D5NH74JOVOPTTMK8IR17K","","57.30000001192093","img/food1.png","74","58.10000002384186","1","0","2","2","1,0.5,0,1,0.5,0,0.5,0,1","0,1,0.5,0,1,0.5,1,0.5,0","3","false",""
"","html-keyboard-response","277","355642","0.0-323.0","3Y5140Z9DY2P932BJQ8EAXQFXV7IPM","A3DG8M8G0L4DNZ","3566S7OX5D5NH74JOVOPTTMK8IR17K","","null","<img src=""img/food1.png"" style=""width:200px;border:14px solid red;"">","null","","","","","","","","","",""
"","image-keyboard-response","278","355661","0.0-325.0","3Y5140Z9DY2P932BJQ8EAXQFXV7IPM","A3DG8M8G0L4DNZ","3566S7OX5D5NH74JOVOPTTMK8IR17K","","17.299999952316284","img/food1.png","76","18","3","0","2","2","1,0.5,0,1,0.5,0,0.5,0,1","0,1,0.5,0,1,0.5,1,0.5,0","3","false",""
"","html-keyboard-response","279","355962","0.0-326.0","3Y5140Z9DY2P932BJQ8EAXQFXV7IPM","A3DG8M8G0L4DNZ","3566S7OX5D5NH74JOVOPTTMK8IR17K","","null","<img src=""img/food1.png"" style=""width:200px;border:14px solid red;"">","null","","","","","","","","","",""
"","image-keyboard-response","280","356016","0.0-328.0","3Y5140Z9DY2P932BJQ8EAXQFXV7IPM","A3DG8M8G0L4DNZ","3566S7OX5D5NH74JOVOPTTMK8IR17K","","52.10000002384186","img/food6.png","74","53.19999998807907","1","1","3","2","1,0.5,0,1,0.5,0,0.5,0,1","0,1,0.5,0,1,0.5,1,0.5,0","3","false",""
"","html-keyboard-response","281","356328","0.0-329.0","3Y5140Z9DY2P932BJQ8EAXQFXV7IPM","A3DG8M8G0L4DNZ","3566S7OX5D5NH74JOVOPTTMK8IR17K","","null","<img src=""img/food6.png"" style=""width:200px; border:14px solid green;"">","null","","","","","","","","","",""
"","image-keyboard-response","282","356333","0.0-331.0","3Y5140Z9DY2P932BJQ8EAXQFXV7IPM","A3DG8M8G0L4DNZ","3566S7OX5D5NH74JOVOPTTMK8IR17K","","4.200000047683716","img/food2.png","76","4.900000035762787","3","1","1","2","1,0.5,0,1,0.5,0,0.5,0,1","0,1,0.5,0,1,0.5,1,0.5,0","3","false",""
"","html-keyboard-response","283","356635","0.0-332.0","3Y5140Z9DY2P932BJQ8EAXQFXV7IPM","A3DG8M8G0L4DNZ","3566S7OX5D5NH74JOVOPTTMK8IR17K","","null","<img src=""img/food2.png"" style=""width:200px; border:14px solid green;"">","null","","","","","","","","","",""
"","image-keyboard-response","284","356664","0.0-334.0","3Y5140Z9DY2P932BJQ8EAXQFXV7IPM","A3DG8M8G0L4DNZ","3566S7OX5D5NH74JOVOPTTMK8IR17K","","28.5","img/food2.png","74","29.19999998807907","1","0","1","2","1,0.5,0,1,0.5,0,0.5,0,1","0,1,0.5,0,1,0.5,1,0.5,0","3","false",""
"","html-keyboard-response","285","356966","0.0-335.0","3Y5140Z9DY2P932BJQ8EAXQFXV7IPM","A3DG8M8G0L4DNZ","3566S7OX5D5NH74JOVOPTTMK8IR17K","","null","<img src=""img/food2.png"" style=""width:200px;border:14px solid red;"">","null","","","","","","","","","",""
"","image-keyboard-response","286","357025","0.0-337.0","3Y5140Z9DY2P932BJQ8EAXQFXV7IPM","A3DG8M8G0L4DNZ","3566S7OX5D5NH74JOVOPTTMK8IR17K","","58.200000047683716","img/food1.png","74","59.09999996423721","1","0","2","2","1,0.5,0,1,0.5,0,0.5,0,1","0,1,0.5,0,1,0.5,1,0.5,0","3","false",""
"","html-keyboard-response","287","357327","0.0-338.0","3Y5140Z9DY2P932BJQ8EAXQFXV7IPM","A3DG8M8G0L4DNZ","3566S7OX5D5NH74JOVOPTTMK8IR17K","","null","<img src=""img/food1.png"" style=""width:200px;border:14px solid red;"">","null","","","","","","","","","",""
"","image-keyboard-response","288","357419","0.0-340.0","3Y5140Z9DY2P932BJQ8EAXQFXV7IPM","A3DG8M8G0L4DNZ","3566S7OX5D5NH74JOVOPTTMK8IR17K","","90.30000001192093","img/food6.png","75","91","2","1","3","2","1,0.5,0,1,0.5,0,0.5,0,1","0,1,0.5,0,1,0.5,1,0.5,0","3","false",""
"","html-keyboard-response","289","357721","0.0-341.0","3Y5140Z9DY2P932BJQ8EAXQFXV7IPM","A3DG8M8G0L4DNZ","3566S7OX5D5NH74JOVOPTTMK8IR17K","","null","<img src=""img/food6.png"" style=""width:200px; border:14px solid green;"">","null","","","","","","","","","",""
"","image-keyboard-response","290","357755","0.0-343.0","3Y5140Z9DY2P932BJQ8EAXQFXV7IPM","A3DG8M8G0L4DNZ","3566S7OX5D5NH74JOVOPTTMK8IR17K","","32.80000001192093","img/food2.png","74","33.5","1","0","1","2","1,0.5,0,1,0.5,0,0.5,0,1","0,1,0.5,0,1,0.5,1,0.5,0","3","false",""
"","html-keyboard-response","291","358057","0.0-344.0","3Y5140Z9DY2P932BJQ8EAXQFXV7IPM","A3DG8M8G0L4DNZ","3566S7OX5D5NH74JOVOPTTMK8IR17K","","null","<img src=""img/food2.png"" style=""width:200px;border:14px solid red;"">","null","","","","","","","","","",""
"","image-keyboard-response","292","358073","0.0-346.0","3Y5140Z9DY2P932BJQ8EAXQFXV7IPM","A3DG8M8G0L4DNZ","3566S7OX5D5NH74JOVOPTTMK8IR17K","","14.600000023841858","img/food6.png","76","15.399999976158142","3","0","3","2","1,0.5,0,1,0.5,0,0.5,0,1","0,1,0.5,0,1,0.5,1,0.5,0","3","false",""
"","html-keyboard-response","293","358375","0.0-347.0","3Y5140Z9DY2P932BJQ8EAXQFXV7IPM","A3DG8M8G0L4DNZ","3566S7OX5D5NH74JOVOPTTMK8IR17K","","null","<img src=""img/food6.png"" style=""width:200px;border:14px solid red;"">","null","","","","","","","","","",""
"","image-keyboard-response","294","358409","0.0-349.0","3Y5140Z9DY2P932BJQ8EAXQFXV7IPM","A3DG8M8G0L4DNZ","3566S7OX5D5NH74JOVOPTTMK8IR17K","","32.60000002384186","img/food1.png","74","33.30000001192093","1","0","2","2","1,0.5,0,1,0.5,0,0.5,0,1","0,1,0.5,0,1,0.5,1,0.5,0","3","false",""
"","html-keyboard-response","295","358710","0.0-350.0","3Y5140Z9DY2P932BJQ8EAXQFXV7IPM","A3DG8M8G0L4DNZ","3566S7OX5D5NH74JOVOPTTMK8IR17K","","null","<img src=""img/food1.png"" style=""width:200px;border:14px solid red;"">","null","","","","","","","","","",""
"","image-keyboard-response","296","358712","0.0-352.0","3Y5140Z9DY2P932BJQ8EAXQFXV7IPM","A3DG8M8G0L4DNZ","3566S7OX5D5NH74JOVOPTTMK8IR17K","","0.40000003576278687","img/food2.png","76","1.7000000476837158","3","0","1","2","1,0.5,0,1,0.5,0,0.5,0,1","0,1,0.5,0,1,0.5,1,0.5,0","3","false",""
"","html-keyboard-response","297","359014","0.0-353.0","3Y5140Z9DY2P932BJQ8EAXQFXV7IPM","A3DG8M8G0L4DNZ","3566S7OX5D5NH74JOVOPTTMK8IR17K","","null","<img src=""img/food2.png"" style=""width:200px;border:14px solid red;"">","null","","","","","","","","","",""
"","image-keyboard-response","298","359067","0.0-355.0","3Y5140Z9DY2P932BJQ8EAXQFXV7IPM","A3DG8M8G0L4DNZ","3566S7OX5D5NH74JOVOPTTMK8IR17K","","51.40000003576279","img/food2.png","74","52.09999996423721","1","0","1","2","1,0.5,0,1,0.5,0,0.5,0,1","0,1,0.5,0,1,0.5,1,0.5,0","3","false",""
"","html-keyboard-response","299","359369","0.0-356.0","3Y5140Z9DY2P932BJQ8EAXQFXV7IPM","A3DG8M8G0L4DNZ","3566S7OX5D5NH74JOVOPTTMK8IR17K","","null","<img src=""img/food2.png"" style=""width:200px;border:14px solid red;"">","null","","","","","","","","","",""
"","image-keyboard-response","300","359419","0.0-358.0","3Y5140Z9DY2P932BJQ8EAXQFXV7IPM","A3DG8M8G0L4DNZ","3566S7OX5D5NH74JOVOPTTMK8IR17K","","49.10000002384186","img/food2.png","76","50","3","1","1","2","1,0.5,0,1,0.5,0,0.5,0,1","0,1,0.5,0,1,0.5,1,0.5,0","3","false",""
"","html-keyboard-response","301","359722","0.0-359.0","3Y5140Z9DY2P932BJQ8EAXQFXV7IPM","A3DG8M8G0L4DNZ","3566S7OX5D5NH74JOVOPTTMK8IR17K","","null","<img src=""img/food2.png"" style=""width:200px; border:14px solid green;"">","null","","","","","","","","","",""
"","image-keyboard-response","302","359873","0.0-361.0","3Y5140Z9DY2P932BJQ8EAXQFXV7IPM","A3DG8M8G0L4DNZ","3566S7OX5D5NH74JOVOPTTMK8IR17K","","150.60000002384186","img/food6.png","75","151.4000000357628","2","1","3","2","1,0.5,0,1,0.5,0,0.5,0,1","0,1,0.5,0,1,0.5,1,0.5,0","3","false",""
"","html-keyboard-response","303","360176","0.0-362.0","3Y5140Z9DY2P932BJQ8EAXQFXV7IPM","A3DG8M8G0L4DNZ","3566S7OX5D5NH74JOVOPTTMK8IR17K","","null","<img src=""img/food6.png"" style=""width:200px; border:14px solid green;"">","null","","","","","","","","","",""
"","image-keyboard-response","304","360192","0.0-364.0","3Y5140Z9DY2P932BJQ8EAXQFXV7IPM","A3DG8M8G0L4DNZ","3566S7OX5D5NH74JOVOPTTMK8IR17K","","14.900000035762787","img/food6.png","74","15.900000035762787","1","1","3","2","1,0.5,0,1,0.5,0,0.5,0,1","0,1,0.5,0,1,0.5,1,0.5,0","3","false",""
"","html-keyboard-response","305","360495","0.0-365.0","3Y5140Z9DY2P932BJQ8EAXQFXV7IPM","A3DG8M8G0L4DNZ","3566S7OX5D5NH74JOVOPTTMK8IR17K","","null","<img src=""img/food6.png"" style=""width:200px; border:14px solid green;"">","null","","","","","","","","","",""
"","image-keyboard-response","306","360549","0.0-367.0","3Y5140Z9DY2P932BJQ8EAXQFXV7IPM","A3DG8M8G0L4DNZ","3566S7OX5D5NH74JOVOPTTMK8IR17K","","52.89999997615814","img/food1.png","75","54","2","1","2","2","1,0.5,0,1,0.5,0,0.5,0,1","0,1,0.5,0,1,0.5,1,0.5,0","3","false",""
"","html-keyboard-response","307","360851","0.0-368.0","3Y5140Z9DY2P932BJQ8EAXQFXV7IPM","A3DG8M8G0L4DNZ","3566S7OX5D5NH74JOVOPTTMK8IR17K","","null","<img src=""img/food1.png"" style=""width:200px; border:14px solid green;"">","null","","","","","","","","","",""
"","image-keyboard-response","308","360911","0.0-370.0","3Y5140Z9DY2P932BJQ8EAXQFXV7IPM","A3DG8M8G0L4DNZ","3566S7OX5D5NH74JOVOPTTMK8IR17K","","59.30000001192093","img/food1.png","74","60.30000001192093","1","0","2","2","1,0.5,0,1,0.5,0,0.5,0,1","0,1,0.5,0,1,0.5,1,0.5,0","3","false",""
"","html-keyboard-response","309","361213","0.0-371.0","3Y5140Z9DY2P932BJQ8EAXQFXV7IPM","A3DG8M8G0L4DNZ","3566S7OX5D5NH74JOVOPTTMK8IR17K","","null","<img src=""img/food1.png"" style=""width:200px;border:14px solid red;"">","null","","","","","","","","","",""
"","image-keyboard-response","310","361265","0.0-373.0","3Y5140Z9DY2P932BJQ8EAXQFXV7IPM","A3DG8M8G0L4DNZ","3566S7OX5D5NH74JOVOPTTMK8IR17K","","51.799999952316284","img/food1.png","76","52.40000003576279","3","1","2","2","1,0.5,0,1,0.5,0,0.5,0,1","0,1,0.5,0,1,0.5,1,0.5,0","3","false",""
"","html-keyboard-response","311","361567","0.0-374.0","3Y5140Z9DY2P932BJQ8EAXQFXV7IPM","A3DG8M8G0L4DNZ","3566S7OX5D5NH74JOVOPTTMK8IR17K","","null","<img src=""img/food1.png"" style=""width:200px; border:14px solid green;"">","null","","","","","","","","","",""
"","image-keyboard-response","312","361626","0.0-376.0","3Y5140Z9DY2P932BJQ8EAXQFXV7IPM","A3DG8M8G0L4DNZ","3566S7OX5D5NH74JOVOPTTMK8IR17K","","57.59999996423721","img/food2.png","74","58.5","1","0","1","2","1,0.5,0,1,0.5,0,0.5,0,1","0,1,0.5,0,1,0.5,1,0.5,0","3","false",""
"","html-keyboard-response","313","361928","0.0-377.0","3Y5140Z9DY2P932BJQ8EAXQFXV7IPM","A3DG8M8G0L4DNZ","3566S7OX5D5NH74JOVOPTTMK8IR17K","","null","<img src=""img/food2.png"" style=""width:200px;border:14px solid red;"">","null","","","","","","","","","",""
"","image-keyboard-response","314","362032","0.0-379.0","3Y5140Z9DY2P932BJQ8EAXQFXV7IPM","A3DG8M8G0L4DNZ","3566S7OX5D5NH74JOVOPTTMK8IR17K","","103.80000001192093","img/food1.png","75","104.60000002384186","2","1","2","2","1,0.5,0,1,0.5,0,0.5,0,1","0,1,0.5,0,1,0.5,1,0.5,0","3","false",""
"","html-keyboard-response","315","362333","0.0-380.0","3Y5140Z9DY2P932BJQ8EAXQFXV7IPM","A3DG8M8G0L4DNZ","3566S7OX5D5NH74JOVOPTTMK8IR17K","","null","<img src=""img/food1.png"" style=""width:200px; border:14px solid green;"">","null","","","","","","","","","",""
"","image-keyboard-response","316","362377","0.0-382.0","3Y5140Z9DY2P932BJQ8EAXQFXV7IPM","A3DG8M8G0L4DNZ","3566S7OX5D5NH74JOVOPTTMK8IR17K","","42.09999996423721","img/food2.png","74","43","1","0","1","2","1,0.5,0,1,0.5,0,0.5,0,1","0,1,0.5,0,1,0.5,1,0.5,0","3","false",""
"","html-keyboard-response","317","362679","0.0-383.0","3Y5140Z9DY2P932BJQ8EAXQFXV7IPM","A3DG8M8G0L4DNZ","3566S7OX5D5NH74JOVOPTTMK8IR17K","","null","<img src=""img/food2.png"" style=""width:200px;border:14px solid red;"">","null","","","","","","","","","",""
"","image-keyboard-response","318","362691","0.0-385.0","3Y5140Z9DY2P932BJQ8EAXQFXV7IPM","A3DG8M8G0L4DNZ","3566S7OX5D5NH74JOVOPTTMK8IR17K","","10.599999964237213","img/food6.png","75","11.699999988079071","2","0","3","2","1,0.5,0,1,0.5,0,0.5,0,1","0,1,0.5,0,1,0.5,1,0.5,0","3","false",""
"","html-keyboard-response","319","362993","0.0-386.0","3Y5140Z9DY2P932BJQ8EAXQFXV7IPM","A3DG8M8G0L4DNZ","3566S7OX5D5NH74JOVOPTTMK8IR17K","","null","<img src=""img/food6.png"" style=""width:200px;border:14px solid red;"">","null","","","","","","","","","",""
"","image-keyboard-response","320","363027","0.0-388.0","3Y5140Z9DY2P932BJQ8EAXQFXV7IPM","A3DG8M8G0L4DNZ","3566S7OX5D5NH74JOVOPTTMK8IR17K","","32.69999998807907","img/food1.png","74","33.5","1","0","2","2","1,0.5,0,1,0.5,0,0.5,0,1","0,1,0.5,0,1,0.5,1,0.5,0","3","false",""
"","html-keyboard-response","321","363329","0.0-389.0","3Y5140Z9DY2P932BJQ8EAXQFXV7IPM","A3DG8M8G0L4DNZ","3566S7OX5D5NH74JOVOPTTMK8IR17K","","null","<img src=""img/food1.png"" style=""width:200px;border:14px solid red;"">","null","","","","","","","","","",""
"","image-keyboard-response","322","363371","0.0-391.0","3Y5140Z9DY2P932BJQ8EAXQFXV7IPM","A3DG8M8G0L4DNZ","3566S7OX5D5NH74JOVOPTTMK8IR17K","","41.10000002384186","img/food2.png","76","41.80000001192093","3","1","1","2","1,0.5,0,1,0.5,0,0.5,0,1","0,1,0.5,0,1,0.5,1,0.5,0","3","false",""
"","html-keyboard-response","323","363673","0.0-392.0","3Y5140Z9DY2P932BJQ8EAXQFXV7IPM","A3DG8M8G0L4DNZ","3566S7OX5D5NH74JOVOPTTMK8IR17K","","null","<img src=""img/food2.png"" style=""width:200px; border:14px solid green;"">","null","","","","","","","","","",""
"","image-keyboard-response","324","363753","0.0-394.0","3Y5140Z9DY2P932BJQ8EAXQFXV7IPM","A3DG8M8G0L4DNZ","3566S7OX5D5NH74JOVOPTTMK8IR17K","","78.60000002384186","img/food2.png","74","79.60000002384186","1","0","1","2","1,0.5,0,1,0.5,0,0.5,0,1","0,1,0.5,0,1,0.5,1,0.5,0","3","false",""
"","html-keyboard-response","325","364055","0.0-395.0","3Y5140Z9DY2P932BJQ8EAXQFXV7IPM","A3DG8M8G0L4DNZ","3566S7OX5D5NH74JOVOPTTMK8IR17K","","null","<img src=""img/food2.png"" style=""width:200px;border:14px solid red;"">","null","","","","","","","","","",""
"","image-keyboard-response","326","364128","0.0-397.0","3Y5140Z9DY2P932BJQ8EAXQFXV7IPM","A3DG8M8G0L4DNZ","3566S7OX5D5NH74JOVOPTTMK8IR17K","","71.20000004768372","img/food1.png","76","72.09999996423721","3","0","2","2","1,0.5,0,1,0.5,0,0.5,0,1","0,1,0.5,0,1,0.5,1,0.5,0","3","false",""
"","html-keyboard-response","327","364431","0.0-398.0","3Y5140Z9DY2P932BJQ8EAXQFXV7IPM","A3DG8M8G0L4DNZ","3566S7OX5D5NH74JOVOPTTMK8IR17K","","null","<img src=""img/food1.png"" style=""width:200px;border:14px solid red;"">","null","","","","","","","","","",""
"","image-keyboard-response","328","364445","0.0-400.0","3Y5140Z9DY2P932BJQ8EAXQFXV7IPM","A3DG8M8G0L4DNZ","3566S7OX5D5NH74JOVOPTTMK8IR17K","","13.400000035762787","img/food2.png","74","14.200000047683716","1","0","1","2","1,0.5,0,1,0.5,0,0.5,0,1","0,1,0.5,0,1,0.5,1,0.5,0","3","false",""
"","html-keyboard-response","329","364748","0.0-401.0","3Y5140Z9DY2P932BJQ8EAXQFXV7IPM","A3DG8M8G0L4DNZ","3566S7OX5D5NH74JOVOPTTMK8IR17K","","null","<img src=""img/food2.png"" style=""width:200px;border:14px solid red;"">","null","","","","","","","","","",""
"","image-keyboard-response","330","364852","0.0-403.0","3Y5140Z9DY2P932BJQ8EAXQFXV7IPM","A3DG8M8G0L4DNZ","3566S7OX5D5NH74JOVOPTTMK8IR17K","","102.90000003576279","img/food6.png","75","103.89999997615814","2","0","3","2","1,0.5,0,1,0.5,0,0.5,0,1","0,1,0.5,0,1,0.5,1,0.5,0","3","false",""
"","html-keyboard-response","331","365154","0.0-404.0","3Y5140Z9DY2P932BJQ8EAXQFXV7IPM","A3DG8M8G0L4DNZ","3566S7OX5D5NH74JOVOPTTMK8IR17K","","null","<img src=""img/food6.png"" style=""width:200px;border:14px solid red;"">","null","","","","","","","","","",""
"","image-keyboard-response","332","365204","0.0-406.0","3Y5140Z9DY2P932BJQ8EAXQFXV7IPM","A3DG8M8G0L4DNZ","3566S7OX5D5NH74JOVOPTTMK8IR17K","","48.700000047683716","img/food2.png","74","49.59999996423721","1","0","1","2","1,0.5,0,1,0.5,0,0.5,0,1","0,1,0.5,0,1,0.5,1,0.5,0","3","false",""
"","html-keyboard-response","333","365505","0.0-407.0","3Y5140Z9DY2P932BJQ8EAXQFXV7IPM","A3DG8M8G0L4DNZ","3566S7OX5D5NH74JOVOPTTMK8IR17K","","null","<img src=""img/food2.png"" style=""width:200px;border:14px solid red;"">","null","","","","","","","","","",""
"","image-keyboard-response","334","365578","0.0-409.0","3Y5140Z9DY2P932BJQ8EAXQFXV7IPM","A3DG8M8G0L4DNZ","3566S7OX5D5NH74JOVOPTTMK8IR17K","","71.5","img/food2.png","76","72.30000001192093","3","0","1","2","1,0.5,0,1,0.5,0,0.5,0,1","0,1,0.5,0,1,0.5,1,0.5,0","3","false",""
"","html-keyboard-response","335","365879","0.0-410.0","3Y5140Z9DY2P932BJQ8EAXQFXV7IPM","A3DG8M8G0L4DNZ","3566S7OX5D5NH74JOVOPTTMK8IR17K","","null","<img src=""img/food2.png"" style=""width:200px;border:14px solid red;"">","null","","","","","","","","","",""
"","image-keyboard-response","336","365934","0.0-412.0","3Y5140Z9DY2P932BJQ8EAXQFXV7IPM","A3DG8M8G0L4DNZ","3566S7OX5D5NH74JOVOPTTMK8IR17K","","53.5","img/food1.png","74","54.40000003576279","1","0","2","2","1,0.5,0,1,0.5,0,0.5,0,1","0,1,0.5,0,1,0.5,1,0.5,0","3","false",""
"","html-keyboard-response","337","366236","0.0-413.0","3Y5140Z9DY2P932BJQ8EAXQFXV7IPM","A3DG8M8G0L4DNZ","3566S7OX5D5NH74JOVOPTTMK8IR17K","","null","<img src=""img/food1.png"" style=""width:200px;border:14px solid red;"">","null","","","","","","","","","",""
"","image-keyboard-response","338","366251","0.0-415.0","3Y5140Z9DY2P932BJQ8EAXQFXV7IPM","A3DG8M8G0L4DNZ","3566S7OX5D5NH74JOVOPTTMK8IR17K","","14.5","img/food6.png","75","15.300000011920929","2","1","3","2","1,0.5,0,1,0.5,0,0.5,0,1","0,1,0.5,0,1,0.5,1,0.5,0","3","false",""
"","html-keyboard-response","339","366554","0.0-416.0","3Y5140Z9DY2P932BJQ8EAXQFXV7IPM","A3DG8M8G0L4DNZ","3566S7OX5D5NH74JOVOPTTMK8IR17K","","null","<img src=""img/food6.png"" style=""width:200px; border:14px solid green;"">","null","","","","","","","","","",""
"","image-keyboard-response","340","366658","0.0-418.0","3Y5140Z9DY2P932BJQ8EAXQFXV7IPM","A3DG8M8G0L4DNZ","3566S7OX5D5NH74JOVOPTTMK8IR17K","","103.10000002384186","img/food2.png","74","103.89999997615814","1","0","1","2","1,0.5,0,1,0.5,0,0.5,0,1","0,1,0.5,0,1,0.5,1,0.5,0","3","false",""
"","html-keyboard-response","341","366960","0.0-419.0","3Y5140Z9DY2P932BJQ8EAXQFXV7IPM","A3DG8M8G0L4DNZ","3566S7OX5D5NH74JOVOPTTMK8IR17K","","null","<img src=""img/food2.png"" style=""width:200px;border:14px solid red;"">","null","","","","","","","","","",""
"","image-keyboard-response","342","366989","0.0-421.0","3Y5140Z9DY2P932BJQ8EAXQFXV7IPM","A3DG8M8G0L4DNZ","3566S7OX5D5NH74JOVOPTTMK8IR17K","","28.100000023841858","img/food6.png","76","28.80000001192093","3","0","3","2","1,0.5,0,1,0.5,0,0.5,0,1","0,1,0.5,0,1,0.5,1,0.5,0","3","false",""
"","html-keyboard-response","343","367291","0.0-422.0","3Y5140Z9DY2P932BJQ8EAXQFXV7IPM","A3DG8M8G0L4DNZ","3566S7OX5D5NH74JOVOPTTMK8IR17K","","null","<img src=""img/food6.png"" style=""width:200px;border:14px solid red;"">","null","","","","","","","","","",""
"","image-keyboard-response","344","367319","0.0-424.0","3Y5140Z9DY2P932BJQ8EAXQFXV7IPM","A3DG8M8G0L4DNZ","3566S7OX5D5NH74JOVOPTTMK8IR17K","","27","img/food6.png","74","28.100000023841858","1","1","3","2","1,0.5,0,1,0.5,0,0.5,0,1","0,1,0.5,0,1,0.5,1,0.5,0","3","false",""
"","html-keyboard-response","345","367620","0.0-425.0","3Y5140Z9DY2P932BJQ8EAXQFXV7IPM","A3DG8M8G0L4DNZ","3566S7OX5D5NH74JOVOPTTMK8IR17K","","null","<img src=""img/food6.png"" style=""width:200px; border:14px solid green;"">","null","","","","","","","","","",""
"","image-keyboard-response","346","367698","0.0-427.0","3Y5140Z9DY2P932BJQ8EAXQFXV7IPM","A3DG8M8G0L4DNZ","3566S7OX5D5NH74JOVOPTTMK8IR17K","","76.10000002384186","img/food1.png","76","77.40000003576279","3","0","2","2","1,0.5,0,1,0.5,0,0.5,0,1","0,1,0.5,0,1,0.5,1,0.5,0","3","false",""
"","html-keyboard-response","347","368000","0.0-428.0","3Y5140Z9DY2P932BJQ8EAXQFXV7IPM","A3DG8M8G0L4DNZ","3566S7OX5D5NH74JOVOPTTMK8IR17K","","null","<img src=""img/food1.png"" style=""width:200px;border:14px solid red;"">","null","","","","","","","","","",""
"","image-keyboard-response","348","368057","0.0-430.0","3Y5140Z9DY2P932BJQ8EAXQFXV7IPM","A3DG8M8G0L4DNZ","3566S7OX5D5NH74JOVOPTTMK8IR17K","","56.09999996423721","img/food1.png","74","57.19999998807907","1","0","2","2","1,0.5,0,1,0.5,0,0.5,0,1","0,1,0.5,0,1,0.5,1,0.5,0","3","false",""
"","html-keyboard-response","349","368359","0.0-431.0","3Y5140Z9DY2P932BJQ8EAXQFXV7IPM","A3DG8M8G0L4DNZ","3566S7OX5D5NH74JOVOPTTMK8IR17K","","null","<img src=""img/food1.png"" style=""width:200px;border:14px solid red;"">","null","","","","","","","","","",""
"","image-keyboard-response","350","368409","0.0-433.0","3Y5140Z9DY2P932BJQ8EAXQFXV7IPM","A3DG8M8G0L4DNZ","3566S7OX5D5NH74JOVOPTTMK8IR17K","","48.5","img/food1.png","75","49.5","2","1","2","2","1,0.5,0,1,0.5,0,0.5,0,1","0,1,0.5,0,1,0.5,1,0.5,0","3","false",""
"","html-keyboard-response","351","368710","0.0-434.0","3Y5140Z9DY2P932BJQ8EAXQFXV7IPM","A3DG8M8G0L4DNZ","3566S7OX5D5NH74JOVOPTTMK8IR17K","","null","<img src=""img/food1.png"" style=""width:200px; border:14px solid green;"">","null","","","","","","","","","",""
"","image-keyboard-response","352","368717","0.0-436.0","3Y5140Z9DY2P932BJQ8EAXQFXV7IPM","A3DG8M8G0L4DNZ","3566S7OX5D5NH74JOVOPTTMK8IR17K","","5.600000023841858","img/food2.png","74","6.600000023841858","1","0","1","2","1,0.5,0,1,0.5,0,0.5,0,1","0,1,0.5,0,1,0.5,1,0.5,0","3","false",""
"","html-keyboard-response","353","369019","0.0-437.0","3Y5140Z9DY2P932BJQ8EAXQFXV7IPM","A3DG8M8G0L4DNZ","3566S7OX5D5NH74JOVOPTTMK8IR17K","","null","<img src=""img/food2.png"" style=""width:200px;border:14px solid red;"">","null","","","","","","","","","",""
"","image-keyboard-response","354","369126","0.0-439.0","3Y5140Z9DY2P932BJQ8EAXQFXV7IPM","A3DG8M8G0L4DNZ","3566S7OX5D5NH74JOVOPTTMK8IR17K","","106.09999996423721","img/food6.png","75","107.19999998807907","2","0","3","2","1,0.5,0,1,0.5,0,0.5,0,1","0,1,0.5,0,1,0.5,1,0.5,0","3","false",""
"","html-keyboard-response","355","369428","0.0-440.0","3Y5140Z9DY2P932BJQ8EAXQFXV7IPM","A3DG8M8G0L4DNZ","3566S7OX5D5NH74JOVOPTTMK8IR17K","","null","<img src=""img/food6.png"" style=""width:200px;border:14px solid red;"">","null","","","","","","","","","",""
"","image-keyboard-response","356","369522","0.0-442.0","3Y5140Z9DY2P932BJQ8EAXQFXV7IPM","A3DG8M8G0L4DNZ","3566S7OX5D5NH74JOVOPTTMK8IR17K","","93","img/food6.png","74","93.80000001192093","1","1","3","2","1,0.5,0,1,0.5,0,0.5,0,1","0,1,0.5,0,1,0.5,1,0.5,0","3","false",""
"","html-keyboard-response","357","369824","0.0-443.0","3Y5140Z9DY2P932BJQ8EAXQFXV7IPM","A3DG8M8G0L4DNZ","3566S7OX5D5NH74JOVOPTTMK8IR17K","","null","<img src=""img/food6.png"" style=""width:200px; border:14px solid green;"">","null","","","","","","","","","",""
"","image-keyboard-response","358","369926","0.0-445.0","3Y5140Z9DY2P932BJQ8EAXQFXV7IPM","A3DG8M8G0L4DNZ","3566S7OX5D5NH74JOVOPTTMK8IR17K","","100.70000004768372","img/food6.png","76","101.69999998807907","3","0","3","2","1,0.5,0,1,0.5,0,0.5,0,1","0,1,0.5,0,1,0.5,1,0.5,0","3","false",""
"","html-keyboard-response","359","370227","0.0-446.0","3Y5140Z9DY2P932BJQ8EAXQFXV7IPM","A3DG8M8G0L4DNZ","3566S7OX5D5NH74JOVOPTTMK8IR17K","","null","<img src=""img/food6.png"" style=""width:200px;border:14px solid red;"">","null","","","","","","","","","",""
"","image-keyboard-response","360","370260","0.0-448.0","3Y5140Z9DY2P932BJQ8EAXQFXV7IPM","A3DG8M8G0L4DNZ","3566S7OX5D5NH74JOVOPTTMK8IR17K","","31.099999964237213","img/food2.png","74","32.30000001192093","1","0","1","2","1,0.5,0,1,0.5,0,0.5,0,1","0,1,0.5,0,1,0.5,1,0.5,0","3","false",""
"","html-keyboard-response","361","370563","0.0-449.0","3Y5140Z9DY2P932BJQ8EAXQFXV7IPM","A3DG8M8G0L4DNZ","3566S7OX5D5NH74JOVOPTTMK8IR17K","","null","<img src=""img/food2.png"" style=""width:200px;border:14px solid red;"">","null","","","","","","","","","",""
"","image-keyboard-response","362","370724","0.0-451.0","3Y5140Z9DY2P932BJQ8EAXQFXV7IPM","A3DG8M8G0L4DNZ","3566S7OX5D5NH74JOVOPTTMK8IR17K","","159.5","img/food1.png","74","160.39999997615814","1","0","2","2","1,0.5,0,1,0.5,0,0.5,0,1","0,1,0.5,0,1,0.5,1,0.5,0","3","false",""
"","html-keyboard-response","363","371025","0.0-452.0","3Y5140Z9DY2P932BJQ8EAXQFXV7IPM","A3DG8M8G0L4DNZ","3566S7OX5D5NH74JOVOPTTMK8IR17K","","null","<img src=""img/food1.png"" style=""width:200px;border:14px solid red;"">","null","","","","","","","","","",""
"","instructions","364","373175","0.0-454.0","3Y5140Z9DY2P932BJQ8EAXQFXV7IPM","A3DG8M8G0L4DNZ","3566S7OX5D5NH74JOVOPTTMK8IR17K","[{""page_index"":0,""viewing_time"":2149.099999964237}]","2149.2999999523163","","","","","","","","","","","",""
"","survey-text","365","378465","0.0-455.0","3Y5140Z9DY2P932BJQ8EAXQFXV7IPM","A3DG8M8G0L4DNZ","3566S7OX5D5NH74JOVOPTTMK8IR17K","","5286.699999988079","","","","","","","","","","","","{""Q0"":""A3DG8M8G0L4DNZ""}"
