"success","trial_type","trial_index","time_elapsed","internal_node_id","assignmentID","mturkID","hitID","view_history","rt","stimulus","key_press","reactionTime","a","r","s","cond","reward_cond","reward_cond_actual","reward_matrix_idx","warning","responses"
"true","fullscreen","0","4790","0.0-0.0","3PDJHANYK62H329MYCRK4LYJ2D2H6M","A3DMSP55I880KW","3566S7OX5D5NH74JOVOPTTMK8IR17K","","","","","","","","","","","","","",""
"","instructions","1","32225","0.0-1.0","3PDJHANYK62H329MYCRK4LYJ2D2H6M","A3DMSP55I880KW","3566S7OX5D5NH74JOVOPTTMK8IR17K","[{""page_index"":0,""viewing_time"":5043.299999952316},{""page_index"":1,""viewing_time"":4623.5},{""page_index"":2,""viewing_time"":2554.4000000953674},{""page_index"":3,""viewing_time"":5409.799999952316},{""page_index"":4,""viewing_time"":2308.2999999523163},{""page_index"":5,""viewing_time"":3074.2000000476837},{""page_index"":6,""viewing_time"":4410.5}]","27425.200000047684","","","","","","","","","","","",""
"","image-keyboard-response","2","34140","0.0-2.0","3PDJHANYK62H329MYCRK4LYJ2D2H6M","A3DMSP55I880KW","3566S7OX5D5NH74JOVOPTTMK8IR17K","","1905.7000000476837","img/food3.png","74","1911.1000001430511","1","0","2","1","1,0.5,0,1,0.5,0,0.5,0,1","0,1,0.5,0,1,0.5,1,0.5,0","3","",""
"","html-keyboard-response","3","34448","0.0-3.0","3PDJHANYK62H329MYCRK4LYJ2D2H6M","A3DMSP55I880KW","3566S7OX5D5NH74JOVOPTTMK8IR17K","","null","<img src=""img/food3.png"" style=""width:200px;border:14px solid red;"">","null","","","","","","","","","",""
"","image-keyboard-response","4","35658","0.0-4.0","3PDJHANYK62H329MYCRK4LYJ2D2H6M","A3DMSP55I880KW","3566S7OX5D5NH74JOVOPTTMK8IR17K","","1205.8999998569489","img/food2.png","75","1209","2","1","1","1","1,0.5,0,1,0.5,0,0.5,0,1","0,1,0.5,0,1,0.5,1,0.5,0","3","",""
"","html-keyboard-response","5","35963","0.0-5.0","3PDJHANYK62H329MYCRK4LYJ2D2H6M","A3DMSP55I880KW","3566S7OX5D5NH74JOVOPTTMK8IR17K","","null","<img src=""img/food2.png"" style=""width:200px; border:14px solid green;"">","null","","","","","","","","","",""
"","image-keyboard-response","6","36625","0.0-6.0","3PDJHANYK62H329MYCRK4LYJ2D2H6M","A3DMSP55I880KW","3566S7OX5D5NH74JOVOPTTMK8IR17K","","658.6999998092651","img/food4.png","76","661.7000000476837","3","0","3","1","1,0.5,0,1,0.5,0,0.5,0,1","0,1,0.5,0,1,0.5,1,0.5,0","3","",""
"","html-keyboard-response","7","36931","0.0-7.0","3PDJHANYK62H329MYCRK4LYJ2D2H6M","A3DMSP55I880KW","3566S7OX5D5NH74JOVOPTTMK8IR17K","","null","<img src=""img/food4.png"" style=""width:200px;border:14px solid red;"">","null","","","","","","","","","",""
"","image-keyboard-response","8","37622","0.0-8.0","3PDJHANYK62H329MYCRK4LYJ2D2H6M","A3DMSP55I880KW","3566S7OX5D5NH74JOVOPTTMK8IR17K","","688.4000000953674","img/food3.png","75","690.5","2","1","2","1","1,0.5,0,1,0.5,0,0.5,0,1","0,1,0.5,0,1,0.5,1,0.5,0","3","",""
"","html-keyboard-response","9","37925","0.0-9.0","3PDJHANYK62H329MYCRK4LYJ2D2H6M","A3DMSP55I880KW","3566S7OX5D5NH74JOVOPTTMK8IR17K","","null","<img src=""img/food3.png"" style=""width:200px; border:14px solid green;"">","null","","","","","","","","","",""
"","image-keyboard-response","10","38697","0.0-10.0","3PDJHANYK62H329MYCRK4LYJ2D2H6M","A3DMSP55I880KW","3566S7OX5D5NH74JOVOPTTMK8IR17K","","767.5","img/food2.png","74","771.4000000953674","1","0","1","1","1,0.5,0,1,0.5,0,0.5,0,1","0,1,0.5,0,1,0.5,1,0.5,0","3","",""
"","html-keyboard-response","11","39001","0.0-11.0","3PDJHANYK62H329MYCRK4LYJ2D2H6M","A3DMSP55I880KW","3566S7OX5D5NH74JOVOPTTMK8IR17K","","null","<img src=""img/food2.png"" style=""width:200px;border:14px solid red;"">","null","","","","","","","","","",""
"","image-keyboard-response","12","39554","0.0-12.0","3PDJHANYK62H329MYCRK4LYJ2D2H6M","A3DMSP55I880KW","3566S7OX5D5NH74JOVOPTTMK8IR17K","","549.7999999523163","img/food2.png","76","552.5","3","1","1","1","1,0.5,0,1,0.5,0,0.5,0,1","0,1,0.5,0,1,0.5,1,0.5,0","3","",""
"","html-keyboard-response","13","39858","0.0-13.0","3PDJHANYK62H329MYCRK4LYJ2D2H6M","A3DMSP55I880KW","3566S7OX5D5NH74JOVOPTTMK8IR17K","","null","<img src=""img/food2.png"" style=""width:200px; border:14px solid green;"">","null","","","","","","","","","",""
"","image-keyboard-response","14","40607","0.0-14.0","3PDJHANYK62H329MYCRK4LYJ2D2H6M","A3DMSP55I880KW","3566S7OX5D5NH74JOVOPTTMK8IR17K","","745.1000001430511","img/food2.png","76","748.5","3","1","1","1","1,0.5,0,1,0.5,0,0.5,0,1","0,1,0.5,0,1,0.5,1,0.5,0","3","",""
"","html-keyboard-response","15","40911","0.0-15.0","3PDJHANYK62H329MYCRK4LYJ2D2H6M","A3DMSP55I880KW","3566S7OX5D5NH74JOVOPTTMK8IR17K","","null","<img src=""img/food2.png"" style=""width:200px; border:14px solid green;"">","null","","","","","","","","","",""
"","image-keyboard-response","16","41896","0.0-16.0","3PDJHANYK62H329MYCRK4LYJ2D2H6M","A3DMSP55I880KW","3566S7OX5D5NH74JOVOPTTMK8IR17K","","981.6000001430511","img/food4.png","76","984.0999999046326","3","0","3","1","1,0.5,0,1,0.5,0,0.5,0,1","0,1,0.5,0,1,0.5,1,0.5,0","3","",""
"","html-keyboard-response","17","42201","0.0-17.0","3PDJHANYK62H329MYCRK4LYJ2D2H6M","A3DMSP55I880KW","3566S7OX5D5NH74JOVOPTTMK8IR17K","","null","<img src=""img/food4.png"" style=""width:200px;border:14px solid red;"">","null","","","","","","","","","",""
"","image-keyboard-response","18","42859","0.0-18.0","3PDJHANYK62H329MYCRK4LYJ2D2H6M","A3DMSP55I880KW","3566S7OX5D5NH74JOVOPTTMK8IR17K","","655.5","img/food2.png","76","658.1999998092651","3","0","1","1","1,0.5,0,1,0.5,0,0.5,0,1","0,1,0.5,0,1,0.5,1,0.5,0","3","",""
"","html-keyboard-response","19","43164","0.0-19.0","3PDJHANYK62H329MYCRK4LYJ2D2H6M","A3DMSP55I880KW","3566S7OX5D5NH74JOVOPTTMK8IR17K","","null","<img src=""img/food2.png"" style=""width:200px;border:14px solid red;"">","null","","","","","","","","","",""
"","image-keyboard-response","20","43867","0.0-20.0","3PDJHANYK62H329MYCRK4LYJ2D2H6M","A3DMSP55I880KW","3566S7OX5D5NH74JOVOPTTMK8IR17K","","700.1000001430511","img/food3.png","75","702.9000000953674","2","1","2","1","1,0.5,0,1,0.5,0,0.5,0,1","0,1,0.5,0,1,0.5,1,0.5,0","3","",""
"","html-keyboard-response","21","44171","0.0-21.0","3PDJHANYK62H329MYCRK4LYJ2D2H6M","A3DMSP55I880KW","3566S7OX5D5NH74JOVOPTTMK8IR17K","","null","<img src=""img/food3.png"" style=""width:200px; border:14px solid green;"">","null","","","","","","","","","",""
"","image-keyboard-response","22","45096","0.0-22.0","3PDJHANYK62H329MYCRK4LYJ2D2H6M","A3DMSP55I880KW","3566S7OX5D5NH74JOVOPTTMK8IR17K","","922.5","img/food4.png","74","925.1000001430511","1","1","3","1","1,0.5,0,1,0.5,0,0.5,0,1","0,1,0.5,0,1,0.5,1,0.5,0","3","",""
"","html-keyboard-response","23","45401","0.0-23.0","3PDJHANYK62H329MYCRK4LYJ2D2H6M","A3DMSP55I880KW","3566S7OX5D5NH74JOVOPTTMK8IR17K","","null","<img src=""img/food4.png"" style=""width:200px; border:14px solid green;"">","null","","","","","","","","","",""
"","image-keyboard-response","24","46129","0.0-24.0","3PDJHANYK62H329MYCRK4LYJ2D2H6M","A3DMSP55I880KW","3566S7OX5D5NH74JOVOPTTMK8IR17K","","725.2999999523163","img/food3.png","75","727.7999999523163","2","1","2","1","1,0.5,0,1,0.5,0,0.5,0,1","0,1,0.5,0,1,0.5,1,0.5,0","3","",""
"","html-keyboard-response","25","46433","0.0-25.0","3PDJHANYK62H329MYCRK4LYJ2D2H6M","A3DMSP55I880KW","3566S7OX5D5NH74JOVOPTTMK8IR17K","","null","<img src=""img/food3.png"" style=""width:200px; border:14px solid green;"">","null","","","","","","","","","",""
"","image-keyboard-response","26","47709","0.0-26.0","3PDJHANYK62H329MYCRK4LYJ2D2H6M","A3DMSP55I880KW","3566S7OX5D5NH74JOVOPTTMK8IR17K","","1273.2000000476837","img/food2.png","76","1276","3","1","1","1","1,0.5,0,1,0.5,0,0.5,0,1","0,1,0.5,0,1,0.5,1,0.5,0","3","",""
"","html-keyboard-response","27","48027","0.0-27.0","3PDJHANYK62H329MYCRK4LYJ2D2H6M","A3DMSP55I880KW","3566S7OX5D5NH74JOVOPTTMK8IR17K","","null","<img src=""img/food2.png"" style=""width:200px; border:14px solid green;"">","null","","","","","","","","","",""
"","image-keyboard-response","28","48621","0.0-28.0","3PDJHANYK62H329MYCRK4LYJ2D2H6M","A3DMSP55I880KW","3566S7OX5D5NH74JOVOPTTMK8IR17K","","590.8999998569489","img/food3.png","75","593.5","2","1","2","1","1,0.5,0,1,0.5,0,0.5,0,1","0,1,0.5,0,1,0.5,1,0.5,0","3","",""
"","html-keyboard-response","29","48925","0.0-29.0","3PDJHANYK62H329MYCRK4LYJ2D2H6M","A3DMSP55I880KW","3566S7OX5D5NH74JOVOPTTMK8IR17K","","null","<img src=""img/food3.png"" style=""width:200px; border:14px solid green;"">","null","","","","","","","","","",""
"","image-keyboard-response","30","49419","0.0-30.0","3PDJHANYK62H329MYCRK4LYJ2D2H6M","A3DMSP55I880KW","3566S7OX5D5NH74JOVOPTTMK8IR17K","","490.59999990463257","img/food2.png","76","493.30000019073486","3","1","1","1","1,0.5,0,1,0.5,0,0.5,0,1","0,1,0.5,0,1,0.5,1,0.5,0","3","",""
"","html-keyboard-response","31","49723","0.0-31.0","3PDJHANYK62H329MYCRK4LYJ2D2H6M","A3DMSP55I880KW","3566S7OX5D5NH74JOVOPTTMK8IR17K","","null","<img src=""img/food2.png"" style=""width:200px; border:14px solid green;"">","null","","","","","","","","","",""
"","image-keyboard-response","32","50141","0.0-32.0","3PDJHANYK62H329MYCRK4LYJ2D2H6M","A3DMSP55I880KW","3566S7OX5D5NH74JOVOPTTMK8IR17K","","415.2000000476837","img/food3.png","75","417.5","2","1","2","1","1,0.5,0,1,0.5,0,0.5,0,1","0,1,0.5,0,1,0.5,1,0.5,0","3","",""
"","html-keyboard-response","33","50446","0.0-33.0","3PDJHANYK62H329MYCRK4LYJ2D2H6M","A3DMSP55I880KW","3566S7OX5D5NH74JOVOPTTMK8IR17K","","null","<img src=""img/food3.png"" style=""width:200px; border:14px solid green;"">","null","","","","","","","","","",""
"","image-keyboard-response","34","50879","0.0-34.0","3PDJHANYK62H329MYCRK4LYJ2D2H6M","A3DMSP55I880KW","3566S7OX5D5NH74JOVOPTTMK8IR17K","","430","img/food2.png","76","432.5","3","0","1","1","1,0.5,0,1,0.5,0,0.5,0,1","0,1,0.5,0,1,0.5,1,0.5,0","3","",""
"","html-keyboard-response","35","51182","0.0-35.0","3PDJHANYK62H329MYCRK4LYJ2D2H6M","A3DMSP55I880KW","3566S7OX5D5NH74JOVOPTTMK8IR17K","","null","<img src=""img/food2.png"" style=""width:200px;border:14px solid red;"">","null","","","","","","","","","",""
"","image-keyboard-response","36","51901","0.0-36.0","3PDJHANYK62H329MYCRK4LYJ2D2H6M","A3DMSP55I880KW","3566S7OX5D5NH74JOVOPTTMK8IR17K","","716.3999998569489","img/food2.png","76","719","3","0","1","1","1,0.5,0,1,0.5,0,0.5,0,1","0,1,0.5,0,1,0.5,1,0.5,0","3","",""
"","html-keyboard-response","37","52207","0.0-37.0","3PDJHANYK62H329MYCRK4LYJ2D2H6M","A3DMSP55I880KW","3566S7OX5D5NH74JOVOPTTMK8IR17K","","null","<img src=""img/food2.png"" style=""width:200px;border:14px solid red;"">","null","","","","","","","","","",""
"","image-keyboard-response","38","52954","0.0-38.0","3PDJHANYK62H329MYCRK4LYJ2D2H6M","A3DMSP55I880KW","3566S7OX5D5NH74JOVOPTTMK8IR17K","","744.5","img/food3.png","75","747","2","1","2","1","1,0.5,0,1,0.5,0,0.5,0,1","0,1,0.5,0,1,0.5,1,0.5,0","3","",""
"","html-keyboard-response","39","53259","0.0-39.0","3PDJHANYK62H329MYCRK4LYJ2D2H6M","A3DMSP55I880KW","3566S7OX5D5NH74JOVOPTTMK8IR17K","","null","<img src=""img/food3.png"" style=""width:200px; border:14px solid green;"">","null","","","","","","","","","",""
"","image-keyboard-response","40","54088","0.0-40.0","3PDJHANYK62H329MYCRK4LYJ2D2H6M","A3DMSP55I880KW","3566S7OX5D5NH74JOVOPTTMK8IR17K","","826.1000001430511","img/food4.png","74","828.7999999523163","1","1","3","1","1,0.5,0,1,0.5,0,0.5,0,1","0,1,0.5,0,1,0.5,1,0.5,0","3","",""
"","html-keyboard-response","41","54392","0.0-41.0","3PDJHANYK62H329MYCRK4LYJ2D2H6M","A3DMSP55I880KW","3566S7OX5D5NH74JOVOPTTMK8IR17K","","null","<img src=""img/food4.png"" style=""width:200px; border:14px solid green;"">","null","","","","","","","","","",""
"","image-keyboard-response","42","54920","0.0-42.0","3PDJHANYK62H329MYCRK4LYJ2D2H6M","A3DMSP55I880KW","3566S7OX5D5NH74JOVOPTTMK8IR17K","","526.7000000476837","img/food4.png","74","528.5","1","1","3","1","1,0.5,0,1,0.5,0,0.5,0,1","0,1,0.5,0,1,0.5,1,0.5,0","3","",""
"","html-keyboard-response","43","55224","0.0-43.0","3PDJHANYK62H329MYCRK4LYJ2D2H6M","A3DMSP55I880KW","3566S7OX5D5NH74JOVOPTTMK8IR17K","","null","<img src=""img/food4.png"" style=""width:200px; border:14px solid green;"">","null","","","","","","","","","",""
"","image-keyboard-response","44","55839","0.0-44.0","3PDJHANYK62H329MYCRK4LYJ2D2H6M","A3DMSP55I880KW","3566S7OX5D5NH74JOVOPTTMK8IR17K","","611.2000000476837","img/food2.png","76","614.4000000953674","3","0","1","1","1,0.5,0,1,0.5,0,0.5,0,1","0,1,0.5,0,1,0.5,1,0.5,0","3","",""
"","html-keyboard-response","45","56143","0.0-45.0","3PDJHANYK62H329MYCRK4LYJ2D2H6M","A3DMSP55I880KW","3566S7OX5D5NH74JOVOPTTMK8IR17K","","null","<img src=""img/food2.png"" style=""width:200px;border:14px solid red;"">","null","","","","","","","","","",""
"","image-keyboard-response","46","56545","0.0-46.0","3PDJHANYK62H329MYCRK4LYJ2D2H6M","A3DMSP55I880KW","3566S7OX5D5NH74JOVOPTTMK8IR17K","","399.2999999523163","img/food2.png","76","401.7999999523163","3","1","1","1","1,0.5,0,1,0.5,0,0.5,0,1","0,1,0.5,0,1,0.5,1,0.5,0","3","",""
"","html-keyboard-response","47","56849","0.0-47.0","3PDJHANYK62H329MYCRK4LYJ2D2H6M","A3DMSP55I880KW","3566S7OX5D5NH74JOVOPTTMK8IR17K","","null","<img src=""img/food2.png"" style=""width:200px; border:14px solid green;"">","null","","","","","","","","","",""
"","image-keyboard-response","48","57729","0.0-48.0","3PDJHANYK62H329MYCRK4LYJ2D2H6M","A3DMSP55I880KW","3566S7OX5D5NH74JOVOPTTMK8IR17K","","877","img/food4.png","74","879.4000000953674","1","1","3","1","1,0.5,0,1,0.5,0,0.5,0,1","0,1,0.5,0,1,0.5,1,0.5,0","3","",""
"","html-keyboard-response","49","58032","0.0-49.0","3PDJHANYK62H329MYCRK4LYJ2D2H6M","A3DMSP55I880KW","3566S7OX5D5NH74JOVOPTTMK8IR17K","","null","<img src=""img/food4.png"" style=""width:200px; border:14px solid green;"">","null","","","","","","","","","",""
"","image-keyboard-response","50","58587","0.0-50.0","3PDJHANYK62H329MYCRK4LYJ2D2H6M","A3DMSP55I880KW","3566S7OX5D5NH74JOVOPTTMK8IR17K","","552.5999999046326","img/food3.png","75","554.2000000476837","2","1","2","1","1,0.5,0,1,0.5,0,0.5,0,1","0,1,0.5,0,1,0.5,1,0.5,0","3","",""
"","html-keyboard-response","51","58891","0.0-51.0","3PDJHANYK62H329MYCRK4LYJ2D2H6M","A3DMSP55I880KW","3566S7OX5D5NH74JOVOPTTMK8IR17K","","null","<img src=""img/food3.png"" style=""width:200px; border:14px solid green;"">","null","","","","","","","","","",""
"","image-keyboard-response","52","59524","0.0-52.0","3PDJHANYK62H329MYCRK4LYJ2D2H6M","A3DMSP55I880KW","3566S7OX5D5NH74JOVOPTTMK8IR17K","","629.5999999046326","img/food4.png","74","633","1","1","3","1","1,0.5,0,1,0.5,0,0.5,0,1","0,1,0.5,0,1,0.5,1,0.5,0","3","",""
"","html-keyboard-response","53","59829","0.0-53.0","3PDJHANYK62H329MYCRK4LYJ2D2H6M","A3DMSP55I880KW","3566S7OX5D5NH74JOVOPTTMK8IR17K","","null","<img src=""img/food4.png"" style=""width:200px; border:14px solid green;"">","null","","","","","","","","","",""
"","image-keyboard-response","54","60327","0.0-54.0","3PDJHANYK62H329MYCRK4LYJ2D2H6M","A3DMSP55I880KW","3566S7OX5D5NH74JOVOPTTMK8IR17K","","494.7999999523163","img/food4.png","74","497.5","1","1","3","1","1,0.5,0,1,0.5,0,0.5,0,1","0,1,0.5,0,1,0.5,1,0.5,0","3","",""
"","html-keyboard-response","55","60631","0.0-55.0","3PDJHANYK62H329MYCRK4LYJ2D2H6M","A3DMSP55I880KW","3566S7OX5D5NH74JOVOPTTMK8IR17K","","null","<img src=""img/food4.png"" style=""width:200px; border:14px solid green;"">","null","","","","","","","","","",""
"","image-keyboard-response","56","61140","0.0-56.0","3PDJHANYK62H329MYCRK4LYJ2D2H6M","A3DMSP55I880KW","3566S7OX5D5NH74JOVOPTTMK8IR17K","","505.59999990463257","img/food2.png","76","508.2000000476837","3","0","1","1","1,0.5,0,1,0.5,0,0.5,0,1","0,1,0.5,0,1,0.5,1,0.5,0","3","",""
"","html-keyboard-response","57","61445","0.0-57.0","3PDJHANYK62H329MYCRK4LYJ2D2H6M","A3DMSP55I880KW","3566S7OX5D5NH74JOVOPTTMK8IR17K","","null","<img src=""img/food2.png"" style=""width:200px;border:14px solid red;"">","null","","","","","","","","","",""
"","image-keyboard-response","58","61861","0.0-58.0","3PDJHANYK62H329MYCRK4LYJ2D2H6M","A3DMSP55I880KW","3566S7OX5D5NH74JOVOPTTMK8IR17K","","413.2999999523163","img/food2.png","76","415.7000000476837","3","1","1","1","1,0.5,0,1,0.5,0,0.5,0,1","0,1,0.5,0,1,0.5,1,0.5,0","3","",""
"","html-keyboard-response","59","62166","0.0-59.0","3PDJHANYK62H329MYCRK4LYJ2D2H6M","A3DMSP55I880KW","3566S7OX5D5NH74JOVOPTTMK8IR17K","","null","<img src=""img/food2.png"" style=""width:200px; border:14px solid green;"">","null","","","","","","","","","",""
"","image-keyboard-response","60","62724","0.0-60.0","3PDJHANYK62H329MYCRK4LYJ2D2H6M","A3DMSP55I880KW","3566S7OX5D5NH74JOVOPTTMK8IR17K","","554.2999999523163","img/food3.png","75","557","2","1","2","1","1,0.5,0,1,0.5,0,0.5,0,1","0,1,0.5,0,1,0.5,1,0.5,0","3","",""
"","html-keyboard-response","61","63029","0.0-61.0","3PDJHANYK62H329MYCRK4LYJ2D2H6M","A3DMSP55I880KW","3566S7OX5D5NH74JOVOPTTMK8IR17K","","null","<img src=""img/food3.png"" style=""width:200px; border:14px solid green;"">","null","","","","","","","","","",""
"","image-keyboard-response","62","63536","0.0-62.0","3PDJHANYK62H329MYCRK4LYJ2D2H6M","A3DMSP55I880KW","3566S7OX5D5NH74JOVOPTTMK8IR17K","","504.59999990463257","img/food2.png","76","507.2000000476837","3","0","1","1","1,0.5,0,1,0.5,0,0.5,0,1","0,1,0.5,0,1,0.5,1,0.5,0","3","",""
"","html-keyboard-response","63","63840","0.0-63.0","3PDJHANYK62H329MYCRK4LYJ2D2H6M","A3DMSP55I880KW","3566S7OX5D5NH74JOVOPTTMK8IR17K","","null","<img src=""img/food2.png"" style=""width:200px;border:14px solid red;"">","null","","","","","","","","","",""
"","image-keyboard-response","64","64375","0.0-64.0","3PDJHANYK62H329MYCRK4LYJ2D2H6M","A3DMSP55I880KW","3566S7OX5D5NH74JOVOPTTMK8IR17K","","532.5999999046326","img/food3.png","75","535.0999999046326","2","1","2","1","1,0.5,0,1,0.5,0,0.5,0,1","0,1,0.5,0,1,0.5,1,0.5,0","3","",""
"","html-keyboard-response","65","64680","0.0-65.0","3PDJHANYK62H329MYCRK4LYJ2D2H6M","A3DMSP55I880KW","3566S7OX5D5NH74JOVOPTTMK8IR17K","","null","<img src=""img/food3.png"" style=""width:200px; border:14px solid green;"">","null","","","","","","","","","",""
"","image-keyboard-response","66","65603","0.0-66.0","3PDJHANYK62H329MYCRK4LYJ2D2H6M","A3DMSP55I880KW","3566S7OX5D5NH74JOVOPTTMK8IR17K","","921","img/food4.png","74","922.5999999046326","1","1","3","1","1,0.5,0,1,0.5,0,0.5,0,1","0,1,0.5,0,1,0.5,1,0.5,0","3","",""
"","html-keyboard-response","67","65907","0.0-67.0","3PDJHANYK62H329MYCRK4LYJ2D2H6M","A3DMSP55I880KW","3566S7OX5D5NH74JOVOPTTMK8IR17K","","null","<img src=""img/food4.png"" style=""width:200px; border:14px solid green;"">","null","","","","","","","","","",""
"","image-keyboard-response","68","66432","0.0-68.0","3PDJHANYK62H329MYCRK4LYJ2D2H6M","A3DMSP55I880KW","3566S7OX5D5NH74JOVOPTTMK8IR17K","","520.7999999523163","img/food2.png","76","524.3999998569489","3","1","1","1","1,0.5,0,1,0.5,0,0.5,0,1","0,1,0.5,0,1,0.5,1,0.5,0","3","",""
"","html-keyboard-response","69","66736","0.0-69.0","3PDJHANYK62H329MYCRK4LYJ2D2H6M","A3DMSP55I880KW","3566S7OX5D5NH74JOVOPTTMK8IR17K","","null","<img src=""img/food2.png"" style=""width:200px; border:14px solid green;"">","null","","","","","","","","","",""
"","image-keyboard-response","70","67258","0.0-70.0","3PDJHANYK62H329MYCRK4LYJ2D2H6M","A3DMSP55I880KW","3566S7OX5D5NH74JOVOPTTMK8IR17K","","519","img/food4.png","75","521.6000001430511","2","1","3","1","1,0.5,0,1,0.5,0,0.5,0,1","0,1,0.5,0,1,0.5,1,0.5,0","3","",""
"","html-keyboard-response","71","67562","0.0-71.0","3PDJHANYK62H329MYCRK4LYJ2D2H6M","A3DMSP55I880KW","3566S7OX5D5NH74JOVOPTTMK8IR17K","","null","<img src=""img/food4.png"" style=""width:200px; border:14px solid green;"">","null","","","","","","","","","",""
"","image-keyboard-response","72","68256","0.0-72.0","3PDJHANYK62H329MYCRK4LYJ2D2H6M","A3DMSP55I880KW","3566S7OX5D5NH74JOVOPTTMK8IR17K","","690.5","img/food3.png","75","692.8999998569489","2","1","2","1","1,0.5,0,1,0.5,0,0.5,0,1","0,1,0.5,0,1,0.5,1,0.5,0","3","",""
"","html-keyboard-response","73","68561","0.0-73.0","3PDJHANYK62H329MYCRK4LYJ2D2H6M","A3DMSP55I880KW","3566S7OX5D5NH74JOVOPTTMK8IR17K","","null","<img src=""img/food3.png"" style=""width:200px; border:14px solid green;"">","null","","","","","","","","","",""
"","image-keyboard-response","74","69133","0.0-74.0","3PDJHANYK62H329MYCRK4LYJ2D2H6M","A3DMSP55I880KW","3566S7OX5D5NH74JOVOPTTMK8IR17K","","569.3000001907349","img/food3.png","75","571.9000000953674","2","1","2","1","1,0.5,0,1,0.5,0,0.5,0,1","0,1,0.5,0,1,0.5,1,0.5,0","3","",""
"","html-keyboard-response","75","69438","0.0-75.0","3PDJHANYK62H329MYCRK4LYJ2D2H6M","A3DMSP55I880KW","3566S7OX5D5NH74JOVOPTTMK8IR17K","","null","<img src=""img/food3.png"" style=""width:200px; border:14px solid green;"">","null","","","","","","","","","",""
"","image-keyboard-response","76","70127","0.0-76.0","3PDJHANYK62H329MYCRK4LYJ2D2H6M","A3DMSP55I880KW","3566S7OX5D5NH74JOVOPTTMK8IR17K","","685.7000000476837","img/food4.png","74","688.4000000953674","1","1","3","1","1,0.5,0,1,0.5,0,0.5,0,1","0,1,0.5,0,1,0.5,1,0.5,0","3","",""
"","html-keyboard-response","77","70431","0.0-77.0","3PDJHANYK62H329MYCRK4LYJ2D2H6M","A3DMSP55I880KW","3566S7OX5D5NH74JOVOPTTMK8IR17K","","null","<img src=""img/food4.png"" style=""width:200px; border:14px solid green;"">","null","","","","","","","","","",""
"","image-keyboard-response","78","70879","0.0-78.0","3PDJHANYK62H329MYCRK4LYJ2D2H6M","A3DMSP55I880KW","3566S7OX5D5NH74JOVOPTTMK8IR17K","","444.60000014305115","img/food4.png","74","447.09999990463257","1","1","3","1","1,0.5,0,1,0.5,0,0.5,0,1","0,1,0.5,0,1,0.5,1,0.5,0","3","",""
"","html-keyboard-response","79","71182","0.0-79.0","3PDJHANYK62H329MYCRK4LYJ2D2H6M","A3DMSP55I880KW","3566S7OX5D5NH74JOVOPTTMK8IR17K","","null","<img src=""img/food4.png"" style=""width:200px; border:14px solid green;"">","null","","","","","","","","","",""
"","image-keyboard-response","80","71736","0.0-80.0","3PDJHANYK62H329MYCRK4LYJ2D2H6M","A3DMSP55I880KW","3566S7OX5D5NH74JOVOPTTMK8IR17K","","551.3000001907349","img/food2.png","76","553.7000000476837","3","1","1","1","1,0.5,0,1,0.5,0,0.5,0,1","0,1,0.5,0,1,0.5,1,0.5,0","3","",""
"","html-keyboard-response","81","72040","0.0-81.0","3PDJHANYK62H329MYCRK4LYJ2D2H6M","A3DMSP55I880KW","3566S7OX5D5NH74JOVOPTTMK8IR17K","","null","<img src=""img/food2.png"" style=""width:200px; border:14px solid green;"">","null","","","","","","","","","",""
"","image-keyboard-response","82","73100","0.0-82.0","3PDJHANYK62H329MYCRK4LYJ2D2H6M","A3DMSP55I880KW","3566S7OX5D5NH74JOVOPTTMK8IR17K","","1056.0999999046326","img/food4.png","74","1059.3000001907349","1","1","3","1","1,0.5,0,1,0.5,0,0.5,0,1","0,1,0.5,0,1,0.5,1,0.5,0","3","",""
"","html-keyboard-response","83","73404","0.0-83.0","3PDJHANYK62H329MYCRK4LYJ2D2H6M","A3DMSP55I880KW","3566S7OX5D5NH74JOVOPTTMK8IR17K","","null","<img src=""img/food4.png"" style=""width:200px; border:14px solid green;"">","null","","","","","","","","","",""
"","image-keyboard-response","84","73797","0.0-84.0","3PDJHANYK62H329MYCRK4LYJ2D2H6M","A3DMSP55I880KW","3566S7OX5D5NH74JOVOPTTMK8IR17K","","390.7999999523163","img/food4.png","74","393.09999990463257","1","1","3","1","1,0.5,0,1,0.5,0,0.5,0,1","0,1,0.5,0,1,0.5,1,0.5,0","3","",""
"","html-keyboard-response","85","74101","0.0-85.0","3PDJHANYK62H329MYCRK4LYJ2D2H6M","A3DMSP55I880KW","3566S7OX5D5NH74JOVOPTTMK8IR17K","","null","<img src=""img/food4.png"" style=""width:200px; border:14px solid green;"">","null","","","","","","","","","",""
"","image-keyboard-response","86","74711","0.0-86.0","3PDJHANYK62H329MYCRK4LYJ2D2H6M","A3DMSP55I880KW","3566S7OX5D5NH74JOVOPTTMK8IR17K","","606.7000000476837","img/food2.png","76","609.3999998569489","3","0","1","1","1,0.5,0,1,0.5,0,0.5,0,1","0,1,0.5,0,1,0.5,1,0.5,0","3","",""
"","html-keyboard-response","87","75015","0.0-87.0","3PDJHANYK62H329MYCRK4LYJ2D2H6M","A3DMSP55I880KW","3566S7OX5D5NH74JOVOPTTMK8IR17K","","null","<img src=""img/food2.png"" style=""width:200px;border:14px solid red;"">","null","","","","","","","","","",""
"","image-keyboard-response","88","75834","0.0-88.0","3PDJHANYK62H329MYCRK4LYJ2D2H6M","A3DMSP55I880KW","3566S7OX5D5NH74JOVOPTTMK8IR17K","","815.2000000476837","img/food4.png","74","817.7000000476837","1","1","3","1","1,0.5,0,1,0.5,0,0.5,0,1","0,1,0.5,0,1,0.5,1,0.5,0","3","",""
"","html-keyboard-response","89","76137","0.0-89.0","3PDJHANYK62H329MYCRK4LYJ2D2H6M","A3DMSP55I880KW","3566S7OX5D5NH74JOVOPTTMK8IR17K","","null","<img src=""img/food4.png"" style=""width:200px; border:14px solid green;"">","null","","","","","","","","","",""
"","image-keyboard-response","90","76662","0.0-90.0","3PDJHANYK62H329MYCRK4LYJ2D2H6M","A3DMSP55I880KW","3566S7OX5D5NH74JOVOPTTMK8IR17K","","521.6000001430511","img/food3.png","75","524.1000001430511","2","1","2","1","1,0.5,0,1,0.5,0,0.5,0,1","0,1,0.5,0,1,0.5,1,0.5,0","3","",""
"","html-keyboard-response","91","76966","0.0-91.0","3PDJHANYK62H329MYCRK4LYJ2D2H6M","A3DMSP55I880KW","3566S7OX5D5NH74JOVOPTTMK8IR17K","","null","<img src=""img/food3.png"" style=""width:200px; border:14px solid green;"">","null","","","","","","","","","",""
"","image-keyboard-response","92","77514","0.0-92.0","3PDJHANYK62H329MYCRK4LYJ2D2H6M","A3DMSP55I880KW","3566S7OX5D5NH74JOVOPTTMK8IR17K","","544.3999998569489","img/food2.png","76","547","3","0","1","1","1,0.5,0,1,0.5,0,0.5,0,1","0,1,0.5,0,1,0.5,1,0.5,0","3","",""
"","html-keyboard-response","93","77818","0.0-93.0","3PDJHANYK62H329MYCRK4LYJ2D2H6M","A3DMSP55I880KW","3566S7OX5D5NH74JOVOPTTMK8IR17K","","null","<img src=""img/food2.png"" style=""width:200px;border:14px solid red;"">","null","","","","","","","","","",""
"","image-keyboard-response","94","78231","0.0-94.0","3PDJHANYK62H329MYCRK4LYJ2D2H6M","A3DMSP55I880KW","3566S7OX5D5NH74JOVOPTTMK8IR17K","","409.90000009536743","img/food2.png","76","412.7000000476837","3","0","1","1","1,0.5,0,1,0.5,0,0.5,0,1","0,1,0.5,0,1,0.5,1,0.5,0","3","",""
"","html-keyboard-response","95","78536","0.0-95.0","3PDJHANYK62H329MYCRK4LYJ2D2H6M","A3DMSP55I880KW","3566S7OX5D5NH74JOVOPTTMK8IR17K","","null","<img src=""img/food2.png"" style=""width:200px;border:14px solid red;"">","null","","","","","","","","","",""
"","image-keyboard-response","96","78978","0.0-96.0","3PDJHANYK62H329MYCRK4LYJ2D2H6M","A3DMSP55I880KW","3566S7OX5D5NH74JOVOPTTMK8IR17K","","438.90000009536743","img/food2.png","76","441.59999990463257","3","0","1","1","1,0.5,0,1,0.5,0,0.5,0,1","0,1,0.5,0,1,0.5,1,0.5,0","3","",""
"","html-keyboard-response","97","79282","0.0-97.0","3PDJHANYK62H329MYCRK4LYJ2D2H6M","A3DMSP55I880KW","3566S7OX5D5NH74JOVOPTTMK8IR17K","","null","<img src=""img/food2.png"" style=""width:200px;border:14px solid red;"">","null","","","","","","","","","",""
"","image-keyboard-response","98","80488","0.0-98.0","3PDJHANYK62H329MYCRK4LYJ2D2H6M","A3DMSP55I880KW","3566S7OX5D5NH74JOVOPTTMK8IR17K","","1203.2999999523163","img/food4.png","74","1205.7999999523163","1","1","3","1","1,0.5,0,1,0.5,0,0.5,0,1","0,1,0.5,0,1,0.5,1,0.5,0","3","",""
"","html-keyboard-response","99","80792","0.0-99.0","3PDJHANYK62H329MYCRK4LYJ2D2H6M","A3DMSP55I880KW","3566S7OX5D5NH74JOVOPTTMK8IR17K","","null","<img src=""img/food4.png"" style=""width:200px; border:14px solid green;"">","null","","","","","","","","","",""
"","image-keyboard-response","100","81195","0.0-100.0","3PDJHANYK62H329MYCRK4LYJ2D2H6M","A3DMSP55I880KW","3566S7OX5D5NH74JOVOPTTMK8IR17K","","399.2999999523163","img/food4.png","74","401.80000019073486","1","1","3","1","1,0.5,0,1,0.5,0,0.5,0,1","0,1,0.5,0,1,0.5,1,0.5,0","3","",""
"","html-keyboard-response","101","81498","0.0-101.0","3PDJHANYK62H329MYCRK4LYJ2D2H6M","A3DMSP55I880KW","3566S7OX5D5NH74JOVOPTTMK8IR17K","","null","<img src=""img/food4.png"" style=""width:200px; border:14px solid green;"">","null","","","","","","","","","",""
"","image-keyboard-response","102","82118","0.0-102.0","3PDJHANYK62H329MYCRK4LYJ2D2H6M","A3DMSP55I880KW","3566S7OX5D5NH74JOVOPTTMK8IR17K","","617.2999999523163","img/food3.png","75","619.4000000953674","2","1","2","1","1,0.5,0,1,0.5,0,0.5,0,1","0,1,0.5,0,1,0.5,1,0.5,0","3","",""
"","html-keyboard-response","103","82421","0.0-103.0","3PDJHANYK62H329MYCRK4LYJ2D2H6M","A3DMSP55I880KW","3566S7OX5D5NH74JOVOPTTMK8IR17K","","null","<img src=""img/food3.png"" style=""width:200px; border:14px solid green;"">","null","","","","","","","","","",""
"","image-keyboard-response","104","83065","0.0-104.0","3PDJHANYK62H329MYCRK4LYJ2D2H6M","A3DMSP55I880KW","3566S7OX5D5NH74JOVOPTTMK8IR17K","","641","img/food2.png","76","643.5","3","1","1","1","1,0.5,0,1,0.5,0,0.5,0,1","0,1,0.5,0,1,0.5,1,0.5,0","3","",""
"","html-keyboard-response","105","83369","0.0-105.0","3PDJHANYK62H329MYCRK4LYJ2D2H6M","A3DMSP55I880KW","3566S7OX5D5NH74JOVOPTTMK8IR17K","","null","<img src=""img/food2.png"" style=""width:200px; border:14px solid green;"">","null","","","","","","","","","",""
"","image-keyboard-response","106","83833","0.0-106.0","3PDJHANYK62H329MYCRK4LYJ2D2H6M","A3DMSP55I880KW","3566S7OX5D5NH74JOVOPTTMK8IR17K","","460.90000009536743","img/food2.png","76","463.2999999523163","3","1","1","1","1,0.5,0,1,0.5,0,0.5,0,1","0,1,0.5,0,1,0.5,1,0.5,0","3","",""
"","html-keyboard-response","107","84137","0.0-107.0","3PDJHANYK62H329MYCRK4LYJ2D2H6M","A3DMSP55I880KW","3566S7OX5D5NH74JOVOPTTMK8IR17K","","null","<img src=""img/food2.png"" style=""width:200px; border:14px solid green;"">","null","","","","","","","","","",""
"","image-keyboard-response","108","84625","0.0-108.0","3PDJHANYK62H329MYCRK4LYJ2D2H6M","A3DMSP55I880KW","3566S7OX5D5NH74JOVOPTTMK8IR17K","","485.10000014305115","img/food2.png","76","488.10000014305115","3","1","1","1","1,0.5,0,1,0.5,0,0.5,0,1","0,1,0.5,0,1,0.5,1,0.5,0","3","",""
"","html-keyboard-response","109","84930","0.0-109.0","3PDJHANYK62H329MYCRK4LYJ2D2H6M","A3DMSP55I880KW","3566S7OX5D5NH74JOVOPTTMK8IR17K","","null","<img src=""img/food2.png"" style=""width:200px; border:14px solid green;"">","null","","","","","","","","","",""
"","image-keyboard-response","110","85371","0.0-110.0","3PDJHANYK62H329MYCRK4LYJ2D2H6M","A3DMSP55I880KW","3566S7OX5D5NH74JOVOPTTMK8IR17K","","437.5","img/food2.png","76","439.59999990463257","3","0","1","1","1,0.5,0,1,0.5,0,0.5,0,1","0,1,0.5,0,1,0.5,1,0.5,0","3","",""
"","html-keyboard-response","111","85674","0.0-111.0","3PDJHANYK62H329MYCRK4LYJ2D2H6M","A3DMSP55I880KW","3566S7OX5D5NH74JOVOPTTMK8IR17K","","null","<img src=""img/food2.png"" style=""width:200px;border:14px solid red;"">","null","","","","","","","","","",""
"","image-keyboard-response","112","86380","0.0-112.0","3PDJHANYK62H329MYCRK4LYJ2D2H6M","A3DMSP55I880KW","3566S7OX5D5NH74JOVOPTTMK8IR17K","","703","img/food4.png","74","706.2000000476837","1","1","3","1","1,0.5,0,1,0.5,0,0.5,0,1","0,1,0.5,0,1,0.5,1,0.5,0","3","",""
"","html-keyboard-response","113","86684","0.0-113.0","3PDJHANYK62H329MYCRK4LYJ2D2H6M","A3DMSP55I880KW","3566S7OX5D5NH74JOVOPTTMK8IR17K","","null","<img src=""img/food4.png"" style=""width:200px; border:14px solid green;"">","null","","","","","","","","","",""
"","image-keyboard-response","114","87264","0.0-114.0","3PDJHANYK62H329MYCRK4LYJ2D2H6M","A3DMSP55I880KW","3566S7OX5D5NH74JOVOPTTMK8IR17K","","576.6000001430511","img/food4.png","74","579.1000001430511","1","1","3","1","1,0.5,0,1,0.5,0,0.5,0,1","0,1,0.5,0,1,0.5,1,0.5,0","3","",""
"","html-keyboard-response","115","87568","0.0-115.0","3PDJHANYK62H329MYCRK4LYJ2D2H6M","A3DMSP55I880KW","3566S7OX5D5NH74JOVOPTTMK8IR17K","","null","<img src=""img/food4.png"" style=""width:200px; border:14px solid green;"">","null","","","","","","","","","",""
"","image-keyboard-response","116","88166","0.0-116.0","3PDJHANYK62H329MYCRK4LYJ2D2H6M","A3DMSP55I880KW","3566S7OX5D5NH74JOVOPTTMK8IR17K","","594.5","img/food3.png","75","597.0999999046326","2","1","2","1","1,0.5,0,1,0.5,0,0.5,0,1","0,1,0.5,0,1,0.5,1,0.5,0","3","",""
"","html-keyboard-response","117","88469","0.0-117.0","3PDJHANYK62H329MYCRK4LYJ2D2H6M","A3DMSP55I880KW","3566S7OX5D5NH74JOVOPTTMK8IR17K","","null","<img src=""img/food3.png"" style=""width:200px; border:14px solid green;"">","null","","","","","","","","","",""
"","image-keyboard-response","118","89210","0.0-118.0","3PDJHANYK62H329MYCRK4LYJ2D2H6M","A3DMSP55I880KW","3566S7OX5D5NH74JOVOPTTMK8IR17K","","737.4000000953674","img/food4.png","74","740","1","1","3","1","1,0.5,0,1,0.5,0,0.5,0,1","0,1,0.5,0,1,0.5,1,0.5,0","3","",""
"","html-keyboard-response","119","89514","0.0-119.0","3PDJHANYK62H329MYCRK4LYJ2D2H6M","A3DMSP55I880KW","3566S7OX5D5NH74JOVOPTTMK8IR17K","","null","<img src=""img/food4.png"" style=""width:200px; border:14px solid green;"">","null","","","","","","","","","",""
"","image-keyboard-response","120","90092","0.0-120.0","3PDJHANYK62H329MYCRK4LYJ2D2H6M","A3DMSP55I880KW","3566S7OX5D5NH74JOVOPTTMK8IR17K","","574.5","img/food3.png","75","577.2000000476837","2","1","2","1","1,0.5,0,1,0.5,0,0.5,0,1","0,1,0.5,0,1,0.5,1,0.5,0","3","",""
"","html-keyboard-response","121","90396","0.0-121.0","3PDJHANYK62H329MYCRK4LYJ2D2H6M","A3DMSP55I880KW","3566S7OX5D5NH74JOVOPTTMK8IR17K","","null","<img src=""img/food3.png"" style=""width:200px; border:14px solid green;"">","null","","","","","","","","","",""
"","image-keyboard-response","122","90929","0.0-122.0","3PDJHANYK62H329MYCRK4LYJ2D2H6M","A3DMSP55I880KW","3566S7OX5D5NH74JOVOPTTMK8IR17K","","530","img/food4.png","74","532.5999999046326","1","1","3","1","1,0.5,0,1,0.5,0,0.5,0,1","0,1,0.5,0,1,0.5,1,0.5,0","3","",""
"","html-keyboard-response","123","91233","0.0-123.0","3PDJHANYK62H329MYCRK4LYJ2D2H6M","A3DMSP55I880KW","3566S7OX5D5NH74JOVOPTTMK8IR17K","","null","<img src=""img/food4.png"" style=""width:200px; border:14px solid green;"">","null","","","","","","","","","",""
"","image-keyboard-response","124","91651","0.0-124.0","3PDJHANYK62H329MYCRK4LYJ2D2H6M","A3DMSP55I880KW","3566S7OX5D5NH74JOVOPTTMK8IR17K","","415.7999999523163","img/food2.png","75","418.2999999523163","2","1","1","1","1,0.5,0,1,0.5,0,0.5,0,1","0,1,0.5,0,1,0.5,1,0.5,0","3","",""
"","html-keyboard-response","125","91955","0.0-125.0","3PDJHANYK62H329MYCRK4LYJ2D2H6M","A3DMSP55I880KW","3566S7OX5D5NH74JOVOPTTMK8IR17K","","null","<img src=""img/food2.png"" style=""width:200px; border:14px solid green;"">","null","","","","","","","","","",""
"","image-keyboard-response","126","92500","0.0-126.0","3PDJHANYK62H329MYCRK4LYJ2D2H6M","A3DMSP55I880KW","3566S7OX5D5NH74JOVOPTTMK8IR17K","","541.5","img/food3.png","75","544.0999999046326","2","1","2","1","1,0.5,0,1,0.5,0,0.5,0,1","0,1,0.5,0,1,0.5,1,0.5,0","3","",""
"","html-keyboard-response","127","92803","0.0-127.0","3PDJHANYK62H329MYCRK4LYJ2D2H6M","A3DMSP55I880KW","3566S7OX5D5NH74JOVOPTTMK8IR17K","","null","<img src=""img/food3.png"" style=""width:200px; border:14px solid green;"">","null","","","","","","","","","",""
"","image-keyboard-response","128","93377","0.0-128.0","3PDJHANYK62H329MYCRK4LYJ2D2H6M","A3DMSP55I880KW","3566S7OX5D5NH74JOVOPTTMK8IR17K","","570.1000001430511","img/food3.png","75","572.5999999046326","2","1","2","1","1,0.5,0,1,0.5,0,0.5,0,1","0,1,0.5,0,1,0.5,1,0.5,0","3","",""
"","html-keyboard-response","129","93681","0.0-129.0","3PDJHANYK62H329MYCRK4LYJ2D2H6M","A3DMSP55I880KW","3566S7OX5D5NH74JOVOPTTMK8IR17K","","null","<img src=""img/food3.png"" style=""width:200px; border:14px solid green;"">","null","","","","","","","","","",""
"","image-keyboard-response","130","94461","0.0-130.0","3PDJHANYK62H329MYCRK4LYJ2D2H6M","A3DMSP55I880KW","3566S7OX5D5NH74JOVOPTTMK8IR17K","","776.4000000953674","img/food4.png","74","779","1","1","3","1","1,0.5,0,1,0.5,0,0.5,0,1","0,1,0.5,0,1,0.5,1,0.5,0","3","",""
"","html-keyboard-response","131","94765","0.0-131.0","3PDJHANYK62H329MYCRK4LYJ2D2H6M","A3DMSP55I880KW","3566S7OX5D5NH74JOVOPTTMK8IR17K","","null","<img src=""img/food4.png"" style=""width:200px; border:14px solid green;"">","null","","","","","","","","","",""
"","image-keyboard-response","132","95307","0.0-132.0","3PDJHANYK62H329MYCRK4LYJ2D2H6M","A3DMSP55I880KW","3566S7OX5D5NH74JOVOPTTMK8IR17K","","539.4000000953674","img/food4.png","74","542.2000000476837","1","1","3","1","1,0.5,0,1,0.5,0,0.5,0,1","0,1,0.5,0,1,0.5,1,0.5,0","3","",""
"","html-keyboard-response","133","95614","0.0-133.0","3PDJHANYK62H329MYCRK4LYJ2D2H6M","A3DMSP55I880KW","3566S7OX5D5NH74JOVOPTTMK8IR17K","","null","<img src=""img/food4.png"" style=""width:200px; border:14px solid green;"">","null","","","","","","","","","",""
"","image-keyboard-response","134","96180","0.0-134.0","3PDJHANYK62H329MYCRK4LYJ2D2H6M","A3DMSP55I880KW","3566S7OX5D5NH74JOVOPTTMK8IR17K","","563.1999998092651","img/food3.png","75","565.7000000476837","2","1","2","1","1,0.5,0,1,0.5,0,0.5,0,1","0,1,0.5,0,1,0.5,1,0.5,0","3","",""
"","html-keyboard-response","135","96484","0.0-135.0","3PDJHANYK62H329MYCRK4LYJ2D2H6M","A3DMSP55I880KW","3566S7OX5D5NH74JOVOPTTMK8IR17K","","null","<img src=""img/food3.png"" style=""width:200px; border:14px solid green;"">","null","","","","","","","","","",""
"","image-keyboard-response","136","96947","0.0-136.0","3PDJHANYK62H329MYCRK4LYJ2D2H6M","A3DMSP55I880KW","3566S7OX5D5NH74JOVOPTTMK8IR17K","","460.40000009536743","img/food2.png","76","464.7999999523163","3","1","1","1","1,0.5,0,1,0.5,0,0.5,0,1","0,1,0.5,0,1,0.5,1,0.5,0","3","",""
"","html-keyboard-response","137","97253","0.0-137.0","3PDJHANYK62H329MYCRK4LYJ2D2H6M","A3DMSP55I880KW","3566S7OX5D5NH74JOVOPTTMK8IR17K","","null","<img src=""img/food2.png"" style=""width:200px; border:14px solid green;"">","null","","","","","","","","","",""
"","image-keyboard-response","138","97595","0.0-138.0","3PDJHANYK62H329MYCRK4LYJ2D2H6M","A3DMSP55I880KW","3566S7OX5D5NH74JOVOPTTMK8IR17K","","338.40000009536743","img/food2.png","76","340.7000000476837","3","1","1","1","1,0.5,0,1,0.5,0,0.5,0,1","0,1,0.5,0,1,0.5,1,0.5,0","3","",""
"","html-keyboard-response","139","97899","0.0-139.0","3PDJHANYK62H329MYCRK4LYJ2D2H6M","A3DMSP55I880KW","3566S7OX5D5NH74JOVOPTTMK8IR17K","","null","<img src=""img/food2.png"" style=""width:200px; border:14px solid green;"">","null","","","","","","","","","",""
"","image-keyboard-response","140","98548","0.0-140.0","3PDJHANYK62H329MYCRK4LYJ2D2H6M","A3DMSP55I880KW","3566S7OX5D5NH74JOVOPTTMK8IR17K","","646.1999998092651","img/food4.png","74","648.9000000953674","1","1","3","1","1,0.5,0,1,0.5,0,0.5,0,1","0,1,0.5,0,1,0.5,1,0.5,0","3","",""
"","html-keyboard-response","141","98852","0.0-141.0","3PDJHANYK62H329MYCRK4LYJ2D2H6M","A3DMSP55I880KW","3566S7OX5D5NH74JOVOPTTMK8IR17K","","null","<img src=""img/food4.png"" style=""width:200px; border:14px solid green;"">","null","","","","","","","","","",""
"","image-keyboard-response","142","99420","0.0-142.0","3PDJHANYK62H329MYCRK4LYJ2D2H6M","A3DMSP55I880KW","3566S7OX5D5NH74JOVOPTTMK8IR17K","","564.5","img/food3.png","75","567.2000000476837","2","1","2","1","1,0.5,0,1,0.5,0,0.5,0,1","0,1,0.5,0,1,0.5,1,0.5,0","3","",""
"","html-keyboard-response","143","99723","0.0-143.0","3PDJHANYK62H329MYCRK4LYJ2D2H6M","A3DMSP55I880KW","3566S7OX5D5NH74JOVOPTTMK8IR17K","","null","<img src=""img/food3.png"" style=""width:200px; border:14px solid green;"">","null","","","","","","","","","",""
"","image-keyboard-response","144","100849","0.0-144.0","3PDJHANYK62H329MYCRK4LYJ2D2H6M","A3DMSP55I880KW","3566S7OX5D5NH74JOVOPTTMK8IR17K","","1122.2999999523163","img/food4.png","74","1125","1","1","3","1","1,0.5,0,1,0.5,0,0.5,0,1","0,1,0.5,0,1,0.5,1,0.5,0","3","",""
"","html-keyboard-response","145","101152","0.0-145.0","3PDJHANYK62H329MYCRK4LYJ2D2H6M","A3DMSP55I880KW","3566S7OX5D5NH74JOVOPTTMK8IR17K","","null","<img src=""img/food4.png"" style=""width:200px; border:14px solid green;"">","null","","","","","","","","","",""
"","image-keyboard-response","146","101666","0.0-146.0","3PDJHANYK62H329MYCRK4LYJ2D2H6M","A3DMSP55I880KW","3566S7OX5D5NH74JOVOPTTMK8IR17K","","510.7000000476837","img/food3.png","75","513.4000000953674","2","1","2","1","1,0.5,0,1,0.5,0,0.5,0,1","0,1,0.5,0,1,0.5,1,0.5,0","3","",""
"","html-keyboard-response","147","101970","0.0-147.0","3PDJHANYK62H329MYCRK4LYJ2D2H6M","A3DMSP55I880KW","3566S7OX5D5NH74JOVOPTTMK8IR17K","","null","<img src=""img/food3.png"" style=""width:200px; border:14px solid green;"">","null","","","","","","","","","",""
"","image-keyboard-response","148","102342","0.0-148.0","3PDJHANYK62H329MYCRK4LYJ2D2H6M","A3DMSP55I880KW","3566S7OX5D5NH74JOVOPTTMK8IR17K","","371.10000014305115","img/food3.png","75","372.2999999523163","2","1","2","1","1,0.5,0,1,0.5,0,0.5,0,1","0,1,0.5,0,1,0.5,1,0.5,0","3","",""
"","html-keyboard-response","149","102644","0.0-149.0","3PDJHANYK62H329MYCRK4LYJ2D2H6M","A3DMSP55I880KW","3566S7OX5D5NH74JOVOPTTMK8IR17K","","null","<img src=""img/food3.png"" style=""width:200px; border:14px solid green;"">","null","","","","","","","","","",""
"","image-keyboard-response","150","102970","0.0-150.0","3PDJHANYK62H329MYCRK4LYJ2D2H6M","A3DMSP55I880KW","3566S7OX5D5NH74JOVOPTTMK8IR17K","","323.19999980926514","img/food3.png","75","325.7000000476837","2","1","2","1","1,0.5,0,1,0.5,0,0.5,0,1","0,1,0.5,0,1,0.5,1,0.5,0","3","",""
"","html-keyboard-response","151","103274","0.0-151.0","3PDJHANYK62H329MYCRK4LYJ2D2H6M","A3DMSP55I880KW","3566S7OX5D5NH74JOVOPTTMK8IR17K","","null","<img src=""img/food3.png"" style=""width:200px; border:14px solid green;"">","null","","","","","","","","","",""
"","image-keyboard-response","152","103572","0.0-152.0","3PDJHANYK62H329MYCRK4LYJ2D2H6M","A3DMSP55I880KW","3566S7OX5D5NH74JOVOPTTMK8IR17K","","295.09999990463257","img/food3.png","75","297.59999990463257","2","1","2","1","1,0.5,0,1,0.5,0,0.5,0,1","0,1,0.5,0,1,0.5,1,0.5,0","3","",""
"","html-keyboard-response","153","103877","0.0-153.0","3PDJHANYK62H329MYCRK4LYJ2D2H6M","A3DMSP55I880KW","3566S7OX5D5NH74JOVOPTTMK8IR17K","","null","<img src=""img/food3.png"" style=""width:200px; border:14px solid green;"">","null","","","","","","","","","",""
"","image-keyboard-response","154","104906","0.0-154.0","3PDJHANYK62H329MYCRK4LYJ2D2H6M","A3DMSP55I880KW","3566S7OX5D5NH74JOVOPTTMK8IR17K","","1026.2000000476837","img/food4.png","74","1028.7000000476837","1","1","3","1","1,0.5,0,1,0.5,0,0.5,0,1","0,1,0.5,0,1,0.5,1,0.5,0","3","",""
"","html-keyboard-response","155","105212","0.0-155.0","3PDJHANYK62H329MYCRK4LYJ2D2H6M","A3DMSP55I880KW","3566S7OX5D5NH74JOVOPTTMK8IR17K","","null","<img src=""img/food4.png"" style=""width:200px; border:14px solid green;"">","null","","","","","","","","","",""
"","image-keyboard-response","156","105678","0.0-156.0","3PDJHANYK62H329MYCRK4LYJ2D2H6M","A3DMSP55I880KW","3566S7OX5D5NH74JOVOPTTMK8IR17K","","463.5","img/food2.png","76","466.09999990463257","3","1","1","1","1,0.5,0,1,0.5,0,0.5,0,1","0,1,0.5,0,1,0.5,1,0.5,0","3","",""
"","html-keyboard-response","157","105982","0.0-157.0","3PDJHANYK62H329MYCRK4LYJ2D2H6M","A3DMSP55I880KW","3566S7OX5D5NH74JOVOPTTMK8IR17K","","null","<img src=""img/food2.png"" style=""width:200px; border:14px solid green;"">","null","","","","","","","","","",""
"","image-keyboard-response","158","106592","0.0-158.0","3PDJHANYK62H329MYCRK4LYJ2D2H6M","A3DMSP55I880KW","3566S7OX5D5NH74JOVOPTTMK8IR17K","","607.0999999046326","img/food3.png","75","609.6999998092651","2","1","2","1","1,0.5,0,1,0.5,0,0.5,0,1","0,1,0.5,0,1,0.5,1,0.5,0","3","",""
"","html-keyboard-response","159","106896","0.0-159.0","3PDJHANYK62H329MYCRK4LYJ2D2H6M","A3DMSP55I880KW","3566S7OX5D5NH74JOVOPTTMK8IR17K","","null","<img src=""img/food3.png"" style=""width:200px; border:14px solid green;"">","null","","","","","","","","","",""
"","image-keyboard-response","160","107394","0.0-160.0","3PDJHANYK62H329MYCRK4LYJ2D2H6M","A3DMSP55I880KW","3566S7OX5D5NH74JOVOPTTMK8IR17K","","494.40000009536743","img/food3.png","75","497","2","1","2","1","1,0.5,0,1,0.5,0,0.5,0,1","0,1,0.5,0,1,0.5,1,0.5,0","3","",""
"","html-keyboard-response","161","107699","0.0-161.0","3PDJHANYK62H329MYCRK4LYJ2D2H6M","A3DMSP55I880KW","3566S7OX5D5NH74JOVOPTTMK8IR17K","","null","<img src=""img/food3.png"" style=""width:200px; border:14px solid green;"">","null","","","","","","","","","",""
"","image-keyboard-response","162","108352","0.0-162.0","3PDJHANYK62H329MYCRK4LYJ2D2H6M","A3DMSP55I880KW","3566S7OX5D5NH74JOVOPTTMK8IR17K","","650.2999999523163","img/food4.png","74","652.9000000953674","1","1","3","1","1,0.5,0,1,0.5,0,0.5,0,1","0,1,0.5,0,1,0.5,1,0.5,0","3","",""
"","html-keyboard-response","163","108665","0.0-163.0","3PDJHANYK62H329MYCRK4LYJ2D2H6M","A3DMSP55I880KW","3566S7OX5D5NH74JOVOPTTMK8IR17K","","null","<img src=""img/food4.png"" style=""width:200px; border:14px solid green;"">","null","","","","","","","","","",""
"","image-keyboard-response","164","109199","0.0-164.0","3PDJHANYK62H329MYCRK4LYJ2D2H6M","A3DMSP55I880KW","3566S7OX5D5NH74JOVOPTTMK8IR17K","","531.3999998569489","img/food2.png","76","533.7999999523163","3","0","1","1","1,0.5,0,1,0.5,0,0.5,0,1","0,1,0.5,0,1,0.5,1,0.5,0","3","",""
"","html-keyboard-response","165","109503","0.0-165.0","3PDJHANYK62H329MYCRK4LYJ2D2H6M","A3DMSP55I880KW","3566S7OX5D5NH74JOVOPTTMK8IR17K","","null","<img src=""img/food2.png"" style=""width:200px;border:14px solid red;"">","null","","","","","","","","","",""
"","image-keyboard-response","166","109986","0.0-166.0","3PDJHANYK62H329MYCRK4LYJ2D2H6M","A3DMSP55I880KW","3566S7OX5D5NH74JOVOPTTMK8IR17K","","480.2999999523163","img/food3.png","75","482.7999999523163","2","1","2","1","1,0.5,0,1,0.5,0,0.5,0,1","0,1,0.5,0,1,0.5,1,0.5,0","3","",""
"","html-keyboard-response","167","110291","0.0-167.0","3PDJHANYK62H329MYCRK4LYJ2D2H6M","A3DMSP55I880KW","3566S7OX5D5NH74JOVOPTTMK8IR17K","","null","<img src=""img/food3.png"" style=""width:200px; border:14px solid green;"">","null","","","","","","","","","",""
"","image-keyboard-response","168","110779","0.0-168.0","3PDJHANYK62H329MYCRK4LYJ2D2H6M","A3DMSP55I880KW","3566S7OX5D5NH74JOVOPTTMK8IR17K","","484.69999980926514","img/food3.png","75","487.2999999523163","2","1","2","1","1,0.5,0,1,0.5,0,0.5,0,1","0,1,0.5,0,1,0.5,1,0.5,0","3","",""
"","html-keyboard-response","169","111083","0.0-169.0","3PDJHANYK62H329MYCRK4LYJ2D2H6M","A3DMSP55I880KW","3566S7OX5D5NH74JOVOPTTMK8IR17K","","null","<img src=""img/food3.png"" style=""width:200px; border:14px solid green;"">","null","","","","","","","","","",""
"","image-keyboard-response","170","111552","0.0-170.0","3PDJHANYK62H329MYCRK4LYJ2D2H6M","A3DMSP55I880KW","3566S7OX5D5NH74JOVOPTTMK8IR17K","","466","img/food4.png","74","468.5","1","1","3","1","1,0.5,0,1,0.5,0,0.5,0,1","0,1,0.5,0,1,0.5,1,0.5,0","3","",""
"","html-keyboard-response","171","111856","0.0-171.0","3PDJHANYK62H329MYCRK4LYJ2D2H6M","A3DMSP55I880KW","3566S7OX5D5NH74JOVOPTTMK8IR17K","","null","<img src=""img/food4.png"" style=""width:200px; border:14px solid green;"">","null","","","","","","","","","",""
"","image-keyboard-response","172","112604","0.0-172.0","3PDJHANYK62H329MYCRK4LYJ2D2H6M","A3DMSP55I880KW","3566S7OX5D5NH74JOVOPTTMK8IR17K","","745","img/food4.png","74","748.2999999523163","1","1","3","1","1,0.5,0,1,0.5,0,0.5,0,1","0,1,0.5,0,1,0.5,1,0.5,0","3","",""
"","html-keyboard-response","173","112910","0.0-173.0","3PDJHANYK62H329MYCRK4LYJ2D2H6M","A3DMSP55I880KW","3566S7OX5D5NH74JOVOPTTMK8IR17K","","null","<img src=""img/food4.png"" style=""width:200px; border:14px solid green;"">","null","","","","","","","","","",""
"","image-keyboard-response","174","113427","0.0-174.0","3PDJHANYK62H329MYCRK4LYJ2D2H6M","A3DMSP55I880KW","3566S7OX5D5NH74JOVOPTTMK8IR17K","","514","img/food2.png","76","516.4000000953674","3","1","1","1","1,0.5,0,1,0.5,0,0.5,0,1","0,1,0.5,0,1,0.5,1,0.5,0","3","",""
"","html-keyboard-response","175","113731","0.0-175.0","3PDJHANYK62H329MYCRK4LYJ2D2H6M","A3DMSP55I880KW","3566S7OX5D5NH74JOVOPTTMK8IR17K","","null","<img src=""img/food2.png"" style=""width:200px; border:14px solid green;"">","null","","","","","","","","","",""
"","image-keyboard-response","176","114199","0.0-176.0","3PDJHANYK62H329MYCRK4LYJ2D2H6M","A3DMSP55I880KW","3566S7OX5D5NH74JOVOPTTMK8IR17K","","465.7000000476837","img/food3.png","75","468.19999980926514","2","1","2","1","1,0.5,0,1,0.5,0,0.5,0,1","0,1,0.5,0,1,0.5,1,0.5,0","3","",""
"","html-keyboard-response","177","114503","0.0-177.0","3PDJHANYK62H329MYCRK4LYJ2D2H6M","A3DMSP55I880KW","3566S7OX5D5NH74JOVOPTTMK8IR17K","","null","<img src=""img/food3.png"" style=""width:200px; border:14px solid green;"">","null","","","","","","","","","",""
"","image-keyboard-response","178","114946","0.0-178.0","3PDJHANYK62H329MYCRK4LYJ2D2H6M","A3DMSP55I880KW","3566S7OX5D5NH74JOVOPTTMK8IR17K","","441.2999999523163","img/food3.png","75","443","2","1","2","1","1,0.5,0,1,0.5,0,0.5,0,1","0,1,0.5,0,1,0.5,1,0.5,0","3","",""
"","html-keyboard-response","179","115250","0.0-179.0","3PDJHANYK62H329MYCRK4LYJ2D2H6M","A3DMSP55I880KW","3566S7OX5D5NH74JOVOPTTMK8IR17K","","null","<img src=""img/food3.png"" style=""width:200px; border:14px solid green;"">","null","","","","","","","","","",""
"","image-keyboard-response","180","116110","0.0-180.0","3PDJHANYK62H329MYCRK4LYJ2D2H6M","A3DMSP55I880KW","3566S7OX5D5NH74JOVOPTTMK8IR17K","","856.7000000476837","img/food4.png","74","859.2000000476837","1","1","3","1","1,0.5,0,1,0.5,0,0.5,0,1","0,1,0.5,0,1,0.5,1,0.5,0","3","",""
"","html-keyboard-response","181","116414","0.0-181.0","3PDJHANYK62H329MYCRK4LYJ2D2H6M","A3DMSP55I880KW","3566S7OX5D5NH74JOVOPTTMK8IR17K","","null","<img src=""img/food4.png"" style=""width:200px; border:14px solid green;"">","null","","","","","","","","","",""
"","html-keyboard-response","182","119864","0.0-182.0","3PDJHANYK62H329MYCRK4LYJ2D2H6M","A3DMSP55I880KW","3566S7OX5D5NH74JOVOPTTMK8IR17K","","","","","","","","","","","","","",""
"","instructions","183","132300","0.0-183.0","3PDJHANYK62H329MYCRK4LYJ2D2H6M","A3DMSP55I880KW","3566S7OX5D5NH74JOVOPTTMK8IR17K","[{""page_index"":0,""viewing_time"":10779.699999809265},{""page_index"":1,""viewing_time"":1652.9000000953674}]","12433.299999952316","","","","","","","","","","","",""
"","image-keyboard-response","184","133307","0.0-184.0","3PDJHANYK62H329MYCRK4LYJ2D2H6M","A3DMSP55I880KW","3566S7OX5D5NH74JOVOPTTMK8IR17K","","","img/food1.png","","1006.2000000476837","-1","0","2","2","1,0.5,0,1,0.5,0,0.5,0,1","0,1,0.5,0,1,0.5,1,0.5,0","3","true",""
"","html-keyboard-response","185","133613","0.0-185.0","3PDJHANYK62H329MYCRK4LYJ2D2H6M","A3DMSP55I880KW","3566S7OX5D5NH74JOVOPTTMK8IR17K","","null","<img src=""img/food1.png"" style=""width:200px;border:14px solid red;"">","null","","","","","","","","","",""
"","html-keyboard-response","186","138164","0.0-186.0-0.0","3PDJHANYK62H329MYCRK4LYJ2D2H6M","A3DMSP55I880KW","3566S7OX5D5NH74JOVOPTTMK8IR17K","","","","","","","","","","","","","",""
"","image-keyboard-response","187","138388","0.0-187.0","3PDJHANYK62H329MYCRK4LYJ2D2H6M","A3DMSP55I880KW","3566S7OX5D5NH74JOVOPTTMK8IR17K","","218.39999985694885","img/food6.png","75","222.5","2","1","1","2","1,0.5,0,1,0.5,0,0.5,0,1","0,1,0.5,0,1,0.5,1,0.5,0","3","false",""
"","html-keyboard-response","188","138693","0.0-188.0","3PDJHANYK62H329MYCRK4LYJ2D2H6M","A3DMSP55I880KW","3566S7OX5D5NH74JOVOPTTMK8IR17K","","null","<img src=""img/food6.png"" style=""width:200px; border:14px solid green;"">","null","","","","","","","","","",""
"","image-keyboard-response","189","139160","0.0-190.0","3PDJHANYK62H329MYCRK4LYJ2D2H6M","A3DMSP55I880KW","3566S7OX5D5NH74JOVOPTTMK8IR17K","","462.90000009536743","img/food5.png","74","465.89999985694885","1","1","3","2","1,0.5,0,1,0.5,0,0.5,0,1","0,1,0.5,0,1,0.5,1,0.5,0","3","false",""
"","html-keyboard-response","190","139464","0.0-191.0","3PDJHANYK62H329MYCRK4LYJ2D2H6M","A3DMSP55I880KW","3566S7OX5D5NH74JOVOPTTMK8IR17K","","null","<img src=""img/food5.png"" style=""width:200px; border:14px solid green;"">","null","","","","","","","","","",""
"","image-keyboard-response","191","139962","0.0-193.0","3PDJHANYK62H329MYCRK4LYJ2D2H6M","A3DMSP55I880KW","3566S7OX5D5NH74JOVOPTTMK8IR17K","","493.90000009536743","img/food1.png","75","496.59999990463257","2","1","2","2","1,0.5,0,1,0.5,0,0.5,0,1","0,1,0.5,0,1,0.5,1,0.5,0","3","false",""
"","html-keyboard-response","192","140267","0.0-194.0","3PDJHANYK62H329MYCRK4LYJ2D2H6M","A3DMSP55I880KW","3566S7OX5D5NH74JOVOPTTMK8IR17K","","null","<img src=""img/food1.png"" style=""width:200px; border:14px solid green;"">","null","","","","","","","","","",""
"","image-keyboard-response","193","140514","0.0-196.0","3PDJHANYK62H329MYCRK4LYJ2D2H6M","A3DMSP55I880KW","3566S7OX5D5NH74JOVOPTTMK8IR17K","","242.90000009536743","img/food1.png","76","245.70000004768372","3","0","2","2","1,0.5,0,1,0.5,0,0.5,0,1","0,1,0.5,0,1,0.5,1,0.5,0","3","false",""
"","html-keyboard-response","194","140819","0.0-197.0","3PDJHANYK62H329MYCRK4LYJ2D2H6M","A3DMSP55I880KW","3566S7OX5D5NH74JOVOPTTMK8IR17K","","null","<img src=""img/food1.png"" style=""width:200px;border:14px solid red;"">","null","","","","","","","","","",""
"","image-keyboard-response","195","141071","0.0-199.0","3PDJHANYK62H329MYCRK4LYJ2D2H6M","A3DMSP55I880KW","3566S7OX5D5NH74JOVOPTTMK8IR17K","","247.09999990463257","img/food5.png","75","250.79999995231628","2","0","3","2","1,0.5,0,1,0.5,0,0.5,0,1","0,1,0.5,0,1,0.5,1,0.5,0","3","false",""
"","html-keyboard-response","196","141375","0.0-200.0","3PDJHANYK62H329MYCRK4LYJ2D2H6M","A3DMSP55I880KW","3566S7OX5D5NH74JOVOPTTMK8IR17K","","null","<img src=""img/food5.png"" style=""width:200px;border:14px solid red;"">","null","","","","","","","","","",""
"","image-keyboard-response","197","141852","0.0-202.0","3PDJHANYK62H329MYCRK4LYJ2D2H6M","A3DMSP55I880KW","3566S7OX5D5NH74JOVOPTTMK8IR17K","","473.10000014305115","img/food1.png","75","475.2999999523163","2","1","2","2","1,0.5,0,1,0.5,0,0.5,0,1","0,1,0.5,0,1,0.5,1,0.5,0","3","false",""
"","html-keyboard-response","198","142155","0.0-203.0","3PDJHANYK62H329MYCRK4LYJ2D2H6M","A3DMSP55I880KW","3566S7OX5D5NH74JOVOPTTMK8IR17K","","null","<img src=""img/food1.png"" style=""width:200px; border:14px solid green;"">","null","","","","","","","","","",""
"","image-keyboard-response","199","142450","0.0-205.0","3PDJHANYK62H329MYCRK4LYJ2D2H6M","A3DMSP55I880KW","3566S7OX5D5NH74JOVOPTTMK8IR17K","","290.5","img/food1.png","75","293.10000014305115","2","1","2","2","1,0.5,0,1,0.5,0,0.5,0,1","0,1,0.5,0,1,0.5,1,0.5,0","3","false",""
"","html-keyboard-response","200","142754","0.0-206.0","3PDJHANYK62H329MYCRK4LYJ2D2H6M","A3DMSP55I880KW","3566S7OX5D5NH74JOVOPTTMK8IR17K","","null","<img src=""img/food1.png"" style=""width:200px; border:14px solid green;"">","null","","","","","","","","","",""
"","image-keyboard-response","201","142990","0.0-208.0","3PDJHANYK62H329MYCRK4LYJ2D2H6M","A3DMSP55I880KW","3566S7OX5D5NH74JOVOPTTMK8IR17K","","231.09999990463257","img/food1.png","75","233.29999995231628","2","1","2","2","1,0.5,0,1,0.5,0,0.5,0,1","0,1,0.5,0,1,0.5,1,0.5,0","3","false",""
"","html-keyboard-response","202","143293","0.0-209.0","3PDJHANYK62H329MYCRK4LYJ2D2H6M","A3DMSP55I880KW","3566S7OX5D5NH74JOVOPTTMK8IR17K","","null","<img src=""img/food1.png"" style=""width:200px; border:14px solid green;"">","null","","","","","","","","","",""
"","image-keyboard-response","203","143498","0.0-211.0","3PDJHANYK62H329MYCRK4LYJ2D2H6M","A3DMSP55I880KW","3566S7OX5D5NH74JOVOPTTMK8IR17K","","200.80000019073486","img/food1.png","75","203.39999985694885","2","1","2","2","1,0.5,0,1,0.5,0,0.5,0,1","0,1,0.5,0,1,0.5,1,0.5,0","3","false",""
"","html-keyboard-response","204","143802","0.0-212.0","3PDJHANYK62H329MYCRK4LYJ2D2H6M","A3DMSP55I880KW","3566S7OX5D5NH74JOVOPTTMK8IR17K","","null","<img src=""img/food1.png"" style=""width:200px; border:14px solid green;"">","null","","","","","","","","","",""
"","image-keyboard-response","205","143969","0.0-214.0","3PDJHANYK62H329MYCRK4LYJ2D2H6M","A3DMSP55I880KW","3566S7OX5D5NH74JOVOPTTMK8IR17K","","163.10000014305115","img/food6.png","75","165.59999990463257","2","1","1","2","1,0.5,0,1,0.5,0,0.5,0,1","0,1,0.5,0,1,0.5,1,0.5,0","3","false",""
"","html-keyboard-response","206","144273","0.0-215.0","3PDJHANYK62H329MYCRK4LYJ2D2H6M","A3DMSP55I880KW","3566S7OX5D5NH74JOVOPTTMK8IR17K","","null","<img src=""img/food6.png"" style=""width:200px; border:14px solid green;"">","null","","","","","","","","","",""
"","image-keyboard-response","207","144617","0.0-217.0","3PDJHANYK62H329MYCRK4LYJ2D2H6M","A3DMSP55I880KW","3566S7OX5D5NH74JOVOPTTMK8IR17K","","340","img/food5.png","74","342.40000009536743","1","1","3","2","1,0.5,0,1,0.5,0,0.5,0,1","0,1,0.5,0,1,0.5,1,0.5,0","3","false",""
"","html-keyboard-response","208","144921","0.0-218.0","3PDJHANYK62H329MYCRK4LYJ2D2H6M","A3DMSP55I880KW","3566S7OX5D5NH74JOVOPTTMK8IR17K","","null","<img src=""img/food5.png"" style=""width:200px; border:14px solid green;"">","null","","","","","","","","","",""
"","image-keyboard-response","209","145253","0.0-220.0","3PDJHANYK62H329MYCRK4LYJ2D2H6M","A3DMSP55I880KW","3566S7OX5D5NH74JOVOPTTMK8IR17K","","327.59999990463257","img/food5.png","74","330.2000000476837","1","1","3","2","1,0.5,0,1,0.5,0,0.5,0,1","0,1,0.5,0,1,0.5,1,0.5,0","3","false",""
"","html-keyboard-response","210","145559","0.0-221.0","3PDJHANYK62H329MYCRK4LYJ2D2H6M","A3DMSP55I880KW","3566S7OX5D5NH74JOVOPTTMK8IR17K","","null","<img src=""img/food5.png"" style=""width:200px; border:14px solid green;"">","null","","","","","","","","","",""
"","image-keyboard-response","211","145745","0.0-223.0","3PDJHANYK62H329MYCRK4LYJ2D2H6M","A3DMSP55I880KW","3566S7OX5D5NH74JOVOPTTMK8IR17K","","182.10000014305115","img/food5.png","74","184.80000019073486","1","1","3","2","1,0.5,0,1,0.5,0,0.5,0,1","0,1,0.5,0,1,0.5,1,0.5,0","3","false",""
"","html-keyboard-response","212","146049","0.0-224.0","3PDJHANYK62H329MYCRK4LYJ2D2H6M","A3DMSP55I880KW","3566S7OX5D5NH74JOVOPTTMK8IR17K","","null","<img src=""img/food5.png"" style=""width:200px; border:14px solid green;"">","null","","","","","","","","","",""
"","image-keyboard-response","213","146246","0.0-226.0","3PDJHANYK62H329MYCRK4LYJ2D2H6M","A3DMSP55I880KW","3566S7OX5D5NH74JOVOPTTMK8IR17K","","194.20000004768372","img/food5.png","74","196.69999980926514","1","1","3","2","1,0.5,0,1,0.5,0,0.5,0,1","0,1,0.5,0,1,0.5,1,0.5,0","3","false",""
"","html-keyboard-response","214","146551","0.0-227.0","3PDJHANYK62H329MYCRK4LYJ2D2H6M","A3DMSP55I880KW","3566S7OX5D5NH74JOVOPTTMK8IR17K","","null","<img src=""img/food5.png"" style=""width:200px; border:14px solid green;"">","null","","","","","","","","","",""
"","image-keyboard-response","215","146758","0.0-229.0","3PDJHANYK62H329MYCRK4LYJ2D2H6M","A3DMSP55I880KW","3566S7OX5D5NH74JOVOPTTMK8IR17K","","201.09999990463257","img/food6.png","74","204.5","1","0","1","2","1,0.5,0,1,0.5,0,0.5,0,1","0,1,0.5,0,1,0.5,1,0.5,0","3","false",""
"","html-keyboard-response","216","147061","0.0-230.0","3PDJHANYK62H329MYCRK4LYJ2D2H6M","A3DMSP55I880KW","3566S7OX5D5NH74JOVOPTTMK8IR17K","","null","<img src=""img/food6.png"" style=""width:200px;border:14px solid red;"">","null","","","","","","","","","",""
"","image-keyboard-response","217","147290","0.0-232.0","3PDJHANYK62H329MYCRK4LYJ2D2H6M","A3DMSP55I880KW","3566S7OX5D5NH74JOVOPTTMK8IR17K","","225","img/food6.png","75","227.70000004768372","2","1","1","2","1,0.5,0,1,0.5,0,0.5,0,1","0,1,0.5,0,1,0.5,1,0.5,0","3","false",""
"","html-keyboard-response","218","147594","0.0-233.0","3PDJHANYK62H329MYCRK4LYJ2D2H6M","A3DMSP55I880KW","3566S7OX5D5NH74JOVOPTTMK8IR17K","","null","<img src=""img/food6.png"" style=""width:200px; border:14px solid green;"">","null","","","","","","","","","",""
"","image-keyboard-response","219","147726","0.0-235.0","3PDJHANYK62H329MYCRK4LYJ2D2H6M","A3DMSP55I880KW","3566S7OX5D5NH74JOVOPTTMK8IR17K","","128.10000014305115","img/food1.png","76","130.70000004768372","3","0","2","2","1,0.5,0,1,0.5,0,0.5,0,1","0,1,0.5,0,1,0.5,1,0.5,0","3","false",""
"","html-keyboard-response","220","148031","0.0-236.0","3PDJHANYK62H329MYCRK4LYJ2D2H6M","A3DMSP55I880KW","3566S7OX5D5NH74JOVOPTTMK8IR17K","","null","<img src=""img/food1.png"" style=""width:200px;border:14px solid red;"">","null","","","","","","","","","",""
"","image-keyboard-response","221","148253","0.0-238.0","3PDJHANYK62H329MYCRK4LYJ2D2H6M","A3DMSP55I880KW","3566S7OX5D5NH74JOVOPTTMK8IR17K","","218.20000004768372","img/food5.png","75","220.80000019073486","2","1","3","2","1,0.5,0,1,0.5,0,0.5,0,1","0,1,0.5,0,1,0.5,1,0.5,0","3","false",""
"","html-keyboard-response","222","148558","0.0-239.0","3PDJHANYK62H329MYCRK4LYJ2D2H6M","A3DMSP55I880KW","3566S7OX5D5NH74JOVOPTTMK8IR17K","","null","<img src=""img/food5.png"" style=""width:200px; border:14px solid green;"">","null","","","","","","","","","",""
"","image-keyboard-response","223","148774","0.0-241.0","3PDJHANYK62H329MYCRK4LYJ2D2H6M","A3DMSP55I880KW","3566S7OX5D5NH74JOVOPTTMK8IR17K","","213.30000019073486","img/food1.png","75","215.90000009536743","2","1","2","2","1,0.5,0,1,0.5,0,0.5,0,1","0,1,0.5,0,1,0.5,1,0.5,0","3","false",""
"","html-keyboard-response","224","149078","0.0-242.0","3PDJHANYK62H329MYCRK4LYJ2D2H6M","A3DMSP55I880KW","3566S7OX5D5NH74JOVOPTTMK8IR17K","","null","<img src=""img/food1.png"" style=""width:200px; border:14px solid green;"">","null","","","","","","","","","",""
"","image-keyboard-response","225","149271","0.0-244.0","3PDJHANYK62H329MYCRK4LYJ2D2H6M","A3DMSP55I880KW","3566S7OX5D5NH74JOVOPTTMK8IR17K","","189.40000009536743","img/food1.png","74","192","1","0","2","2","1,0.5,0,1,0.5,0,0.5,0,1","0,1,0.5,0,1,0.5,1,0.5,0","3","false",""
"","html-keyboard-response","226","149575","0.0-245.0","3PDJHANYK62H329MYCRK4LYJ2D2H6M","A3DMSP55I880KW","3566S7OX5D5NH74JOVOPTTMK8IR17K","","null","<img src=""img/food1.png"" style=""width:200px;border:14px solid red;"">","null","","","","","","","","","",""
"","image-keyboard-response","227","149833","0.0-247.0","3PDJHANYK62H329MYCRK4LYJ2D2H6M","A3DMSP55I880KW","3566S7OX5D5NH74JOVOPTTMK8IR17K","","254.5","img/food6.png","75","257.2999999523163","2","1","1","2","1,0.5,0,1,0.5,0,0.5,0,1","0,1,0.5,0,1,0.5,1,0.5,0","3","false",""
"","html-keyboard-response","228","150138","0.0-248.0","3PDJHANYK62H329MYCRK4LYJ2D2H6M","A3DMSP55I880KW","3566S7OX5D5NH74JOVOPTTMK8IR17K","","null","<img src=""img/food6.png"" style=""width:200px; border:14px solid green;"">","null","","","","","","","","","",""
"","image-keyboard-response","229","150369","0.0-250.0","3PDJHANYK62H329MYCRK4LYJ2D2H6M","A3DMSP55I880KW","3566S7OX5D5NH74JOVOPTTMK8IR17K","","226.29999995231628","img/food6.png","75","229","2","1","1","2","1,0.5,0,1,0.5,0,0.5,0,1","0,1,0.5,0,1,0.5,1,0.5,0","3","false",""
"","html-keyboard-response","230","150673","0.0-251.0","3PDJHANYK62H329MYCRK4LYJ2D2H6M","A3DMSP55I880KW","3566S7OX5D5NH74JOVOPTTMK8IR17K","","null","<img src=""img/food6.png"" style=""width:200px; border:14px solid green;"">","null","","","","","","","","","",""
"","image-keyboard-response","231","151097","0.0-253.0","3PDJHANYK62H329MYCRK4LYJ2D2H6M","A3DMSP55I880KW","3566S7OX5D5NH74JOVOPTTMK8IR17K","","420.2000000476837","img/food5.png","76","422.7000000476837","3","0","3","2","1,0.5,0,1,0.5,0,0.5,0,1","0,1,0.5,0,1,0.5,1,0.5,0","3","false",""
"","html-keyboard-response","232","151401","0.0-254.0","3PDJHANYK62H329MYCRK4LYJ2D2H6M","A3DMSP55I880KW","3566S7OX5D5NH74JOVOPTTMK8IR17K","","null","<img src=""img/food5.png"" style=""width:200px;border:14px solid red;"">","null","","","","","","","","","",""
"","image-keyboard-response","233","151568","0.0-256.0","3PDJHANYK62H329MYCRK4LYJ2D2H6M","A3DMSP55I880KW","3566S7OX5D5NH74JOVOPTTMK8IR17K","","163.20000004768372","img/food5.png","74","165.90000009536743","1","1","3","2","1,0.5,0,1,0.5,0,0.5,0,1","0,1,0.5,0,1,0.5,1,0.5,0","3","false",""
"","html-keyboard-response","234","151871","0.0-257.0","3PDJHANYK62H329MYCRK4LYJ2D2H6M","A3DMSP55I880KW","3566S7OX5D5NH74JOVOPTTMK8IR17K","","null","<img src=""img/food5.png"" style=""width:200px; border:14px solid green;"">","null","","","","","","","","","",""
"","image-keyboard-response","235","152104","0.0-259.0","3PDJHANYK62H329MYCRK4LYJ2D2H6M","A3DMSP55I880KW","3566S7OX5D5NH74JOVOPTTMK8IR17K","","228.5","img/food1.png","74","231.70000004768372","1","0","2","2","1,0.5,0,1,0.5,0,0.5,0,1","0,1,0.5,0,1,0.5,1,0.5,0","3","false",""
"","html-keyboard-response","236","152410","0.0-260.0","3PDJHANYK62H329MYCRK4LYJ2D2H6M","A3DMSP55I880KW","3566S7OX5D5NH74JOVOPTTMK8IR17K","","null","<img src=""img/food1.png"" style=""width:200px;border:14px solid red;"">","null","","","","","","","","","",""
"","image-keyboard-response","237","152751","0.0-262.0","3PDJHANYK62H329MYCRK4LYJ2D2H6M","A3DMSP55I880KW","3566S7OX5D5NH74JOVOPTTMK8IR17K","","337","img/food5.png","75","340","2","0","3","2","1,0.5,0,1,0.5,0,0.5,0,1","0,1,0.5,0,1,0.5,1,0.5,0","3","false",""
"","html-keyboard-response","238","153056","0.0-263.0","3PDJHANYK62H329MYCRK4LYJ2D2H6M","A3DMSP55I880KW","3566S7OX5D5NH74JOVOPTTMK8IR17K","","null","<img src=""img/food5.png"" style=""width:200px;border:14px solid red;"">","null","","","","","","","","","",""
"","image-keyboard-response","239","153228","0.0-265.0","3PDJHANYK62H329MYCRK4LYJ2D2H6M","A3DMSP55I880KW","3566S7OX5D5NH74JOVOPTTMK8IR17K","","168.29999995231628","img/food5.png","74","170.89999985694885","1","1","3","2","1,0.5,0,1,0.5,0,0.5,0,1","0,1,0.5,0,1,0.5,1,0.5,0","3","false",""
"","html-keyboard-response","240","153532","0.0-266.0","3PDJHANYK62H329MYCRK4LYJ2D2H6M","A3DMSP55I880KW","3566S7OX5D5NH74JOVOPTTMK8IR17K","","null","<img src=""img/food5.png"" style=""width:200px; border:14px solid green;"">","null","","","","","","","","","",""
"","image-keyboard-response","241","153790","0.0-268.0","3PDJHANYK62H329MYCRK4LYJ2D2H6M","A3DMSP55I880KW","3566S7OX5D5NH74JOVOPTTMK8IR17K","","254.59999990463257","img/food5.png","74","257.09999990463257","1","1","3","2","1,0.5,0,1,0.5,0,0.5,0,1","0,1,0.5,0,1,0.5,1,0.5,0","3","false",""
"","html-keyboard-response","242","154093","0.0-269.0","3PDJHANYK62H329MYCRK4LYJ2D2H6M","A3DMSP55I880KW","3566S7OX5D5NH74JOVOPTTMK8IR17K","","null","<img src=""img/food5.png"" style=""width:200px; border:14px solid green;"">","null","","","","","","","","","",""
"","image-keyboard-response","243","154281","0.0-271.0","3PDJHANYK62H329MYCRK4LYJ2D2H6M","A3DMSP55I880KW","3566S7OX5D5NH74JOVOPTTMK8IR17K","","183.90000009536743","img/food1.png","74","186.5","1","0","2","2","1,0.5,0,1,0.5,0,0.5,0,1","0,1,0.5,0,1,0.5,1,0.5,0","3","false",""
"","html-keyboard-response","244","154585","0.0-272.0","3PDJHANYK62H329MYCRK4LYJ2D2H6M","A3DMSP55I880KW","3566S7OX5D5NH74JOVOPTTMK8IR17K","","null","<img src=""img/food1.png"" style=""width:200px;border:14px solid red;"">","null","","","","","","","","","",""
"","image-keyboard-response","245","154767","0.0-274.0","3PDJHANYK62H329MYCRK4LYJ2D2H6M","A3DMSP55I880KW","3566S7OX5D5NH74JOVOPTTMK8IR17K","","179.29999995231628","img/food5.png","75","181.89999985694885","2","1","3","2","1,0.5,0,1,0.5,0,0.5,0,1","0,1,0.5,0,1,0.5,1,0.5,0","3","false",""
"","html-keyboard-response","246","155072","0.0-275.0","3PDJHANYK62H329MYCRK4LYJ2D2H6M","A3DMSP55I880KW","3566S7OX5D5NH74JOVOPTTMK8IR17K","","null","<img src=""img/food5.png"" style=""width:200px; border:14px solid green;"">","null","","","","","","","","","",""
"","image-keyboard-response","247","155354","0.0-277.0","3PDJHANYK62H329MYCRK4LYJ2D2H6M","A3DMSP55I880KW","3566S7OX5D5NH74JOVOPTTMK8IR17K","","278.60000014305115","img/food1.png","74","281.30000019073486","1","0","2","2","1,0.5,0,1,0.5,0,0.5,0,1","0,1,0.5,0,1,0.5,1,0.5,0","3","false",""
"","html-keyboard-response","248","155659","0.0-278.0","3PDJHANYK62H329MYCRK4LYJ2D2H6M","A3DMSP55I880KW","3566S7OX5D5NH74JOVOPTTMK8IR17K","","null","<img src=""img/food1.png"" style=""width:200px;border:14px solid red;"">","null","","","","","","","","","",""
"","image-keyboard-response","249","156026","0.0-280.0","3PDJHANYK62H329MYCRK4LYJ2D2H6M","A3DMSP55I880KW","3566S7OX5D5NH74JOVOPTTMK8IR17K","","363.2999999523163","img/food6.png","75","365.90000009536743","2","1","1","2","1,0.5,0,1,0.5,0,0.5,0,1","0,1,0.5,0,1,0.5,1,0.5,0","3","false",""
"","html-keyboard-response","250","156331","0.0-281.0","3PDJHANYK62H329MYCRK4LYJ2D2H6M","A3DMSP55I880KW","3566S7OX5D5NH74JOVOPTTMK8IR17K","","null","<img src=""img/food6.png"" style=""width:200px; border:14px solid green;"">","null","","","","","","","","","",""
"","image-keyboard-response","251","156523","0.0-283.0","3PDJHANYK62H329MYCRK4LYJ2D2H6M","A3DMSP55I880KW","3566S7OX5D5NH74JOVOPTTMK8IR17K","","189","img/food1.png","76","191.5","3","0","2","2","1,0.5,0,1,0.5,0,0.5,0,1","0,1,0.5,0,1,0.5,1,0.5,0","3","false",""
"","html-keyboard-response","252","156827","0.0-284.0","3PDJHANYK62H329MYCRK4LYJ2D2H6M","A3DMSP55I880KW","3566S7OX5D5NH74JOVOPTTMK8IR17K","","null","<img src=""img/food1.png"" style=""width:200px;border:14px solid red;"">","null","","","","","","","","","",""
"","image-keyboard-response","253","157190","0.0-286.0","3PDJHANYK62H329MYCRK4LYJ2D2H6M","A3DMSP55I880KW","3566S7OX5D5NH74JOVOPTTMK8IR17K","","359.7000000476837","img/food1.png","76","362.30000019073486","3","1","2","2","1,0.5,0,1,0.5,0,0.5,0,1","0,1,0.5,0,1,0.5,1,0.5,0","3","false",""
"","html-keyboard-response","254","157494","0.0-287.0","3PDJHANYK62H329MYCRK4LYJ2D2H6M","A3DMSP55I880KW","3566S7OX5D5NH74JOVOPTTMK8IR17K","","null","<img src=""img/food1.png"" style=""width:200px; border:14px solid green;"">","null","","","","","","","","","",""
"","image-keyboard-response","255","157737","0.0-289.0","3PDJHANYK62H329MYCRK4LYJ2D2H6M","A3DMSP55I880KW","3566S7OX5D5NH74JOVOPTTMK8IR17K","","238.90000009536743","img/food1.png","76","241.60000014305115","3","0","2","2","1,0.5,0,1,0.5,0,0.5,0,1","0,1,0.5,0,1,0.5,1,0.5,0","3","false",""
"","html-keyboard-response","256","158042","0.0-290.0","3PDJHANYK62H329MYCRK4LYJ2D2H6M","A3DMSP55I880KW","3566S7OX5D5NH74JOVOPTTMK8IR17K","","null","<img src=""img/food1.png"" style=""width:200px;border:14px solid red;"">","null","","","","","","","","","",""
"","image-keyboard-response","257","158108","0.0-292.0","3PDJHANYK62H329MYCRK4LYJ2D2H6M","A3DMSP55I880KW","3566S7OX5D5NH74JOVOPTTMK8IR17K","","62.5","img/food5.png","76","65.09999990463257","3","0","3","2","1,0.5,0,1,0.5,0,0.5,0,1","0,1,0.5,0,1,0.5,1,0.5,0","3","false",""
"","html-keyboard-response","258","158411","0.0-293.0","3PDJHANYK62H329MYCRK4LYJ2D2H6M","A3DMSP55I880KW","3566S7OX5D5NH74JOVOPTTMK8IR17K","","null","<img src=""img/food5.png"" style=""width:200px;border:14px solid red;"">","null","","","","","","","","","",""
"","image-keyboard-response","259","158856","0.0-295.0","3PDJHANYK62H329MYCRK4LYJ2D2H6M","A3DMSP55I880KW","3566S7OX5D5NH74JOVOPTTMK8IR17K","","440.40000009536743","img/food5.png","74","443.30000019073486","1","1","3","2","1,0.5,0,1,0.5,0,0.5,0,1","0,1,0.5,0,1,0.5,1,0.5,0","3","false",""
"","html-keyboard-response","260","159160","0.0-296.0","3PDJHANYK62H329MYCRK4LYJ2D2H6M","A3DMSP55I880KW","3566S7OX5D5NH74JOVOPTTMK8IR17K","","null","<img src=""img/food5.png"" style=""width:200px; border:14px solid green;"">","null","","","","","","","","","",""
"","image-keyboard-response","261","159291","0.0-298.0","3PDJHANYK62H329MYCRK4LYJ2D2H6M","A3DMSP55I880KW","3566S7OX5D5NH74JOVOPTTMK8IR17K","","127.29999995231628","img/food6.png","74","129.29999995231628","1","0","1","2","1,0.5,0,1,0.5,0,0.5,0,1","0,1,0.5,0,1,0.5,1,0.5,0","3","false",""
"","html-keyboard-response","262","159594","0.0-299.0","3PDJHANYK62H329MYCRK4LYJ2D2H6M","A3DMSP55I880KW","3566S7OX5D5NH74JOVOPTTMK8IR17K","","null","<img src=""img/food6.png"" style=""width:200px;border:14px solid red;"">","null","","","","","","","","","",""
"","image-keyboard-response","263","159740","0.0-301.0","3PDJHANYK62H329MYCRK4LYJ2D2H6M","A3DMSP55I880KW","3566S7OX5D5NH74JOVOPTTMK8IR17K","","143","img/food6.png","75","145.70000004768372","2","1","1","2","1,0.5,0,1,0.5,0,0.5,0,1","0,1,0.5,0,1,0.5,1,0.5,0","3","false",""
"","html-keyboard-response","264","160044","0.0-302.0","3PDJHANYK62H329MYCRK4LYJ2D2H6M","A3DMSP55I880KW","3566S7OX5D5NH74JOVOPTTMK8IR17K","","null","<img src=""img/food6.png"" style=""width:200px; border:14px solid green;"">","null","","","","","","","","","",""
"","image-keyboard-response","265","160179","0.0-304.0","3PDJHANYK62H329MYCRK4LYJ2D2H6M","A3DMSP55I880KW","3566S7OX5D5NH74JOVOPTTMK8IR17K","","131.19999980926514","img/food5.png","75","133.70000004768372","2","0","3","2","1,0.5,0,1,0.5,0,0.5,0,1","0,1,0.5,0,1,0.5,1,0.5,0","3","false",""
"","html-keyboard-response","266","160483","0.0-305.0","3PDJHANYK62H329MYCRK4LYJ2D2H6M","A3DMSP55I880KW","3566S7OX5D5NH74JOVOPTTMK8IR17K","","null","<img src=""img/food5.png"" style=""width:200px;border:14px solid red;"">","null","","","","","","","","","",""
"","image-keyboard-response","267","161001","0.0-307.0","3PDJHANYK62H329MYCRK4LYJ2D2H6M","A3DMSP55I880KW","3566S7OX5D5NH74JOVOPTTMK8IR17K","","514.7000000476837","img/food1.png","74","517.3999998569489","1","0","2","2","1,0.5,0,1,0.5,0,0.5,0,1","0,1,0.5,0,1,0.5,1,0.5,0","3","false",""
"","html-keyboard-response","268","161306","0.0-308.0","3PDJHANYK62H329MYCRK4LYJ2D2H6M","A3DMSP55I880KW","3566S7OX5D5NH74JOVOPTTMK8IR17K","","null","<img src=""img/food1.png"" style=""width:200px;border:14px solid red;"">","null","","","","","","","","","",""
"","image-keyboard-response","269","161609","0.0-310.0","3PDJHANYK62H329MYCRK4LYJ2D2H6M","A3DMSP55I880KW","3566S7OX5D5NH74JOVOPTTMK8IR17K","","299.90000009536743","img/food1.png","76","302.39999985694885","3","0","2","2","1,0.5,0,1,0.5,0,0.5,0,1","0,1,0.5,0,1,0.5,1,0.5,0","3","false",""
"","html-keyboard-response","270","161914","0.0-311.0","3PDJHANYK62H329MYCRK4LYJ2D2H6M","A3DMSP55I880KW","3566S7OX5D5NH74JOVOPTTMK8IR17K","","null","<img src=""img/food1.png"" style=""width:200px;border:14px solid red;"">","null","","","","","","","","","",""
"","image-keyboard-response","271","162586","0.0-313.0","3PDJHANYK62H329MYCRK4LYJ2D2H6M","A3DMSP55I880KW","3566S7OX5D5NH74JOVOPTTMK8IR17K","","668.5999999046326","img/food6.png","75","671.5999999046326","2","1","1","2","1,0.5,0,1,0.5,0,0.5,0,1","0,1,0.5,0,1,0.5,1,0.5,0","3","false",""
"","html-keyboard-response","272","162891","0.0-314.0","3PDJHANYK62H329MYCRK4LYJ2D2H6M","A3DMSP55I880KW","3566S7OX5D5NH74JOVOPTTMK8IR17K","","null","<img src=""img/food6.png"" style=""width:200px; border:14px solid green;"">","null","","","","","","","","","",""
"","image-keyboard-response","273","163303","0.0-316.0","3PDJHANYK62H329MYCRK4LYJ2D2H6M","A3DMSP55I880KW","3566S7OX5D5NH74JOVOPTTMK8IR17K","","409.2999999523163","img/food6.png","75","412","2","1","1","2","1,0.5,0,1,0.5,0,0.5,0,1","0,1,0.5,0,1,0.5,1,0.5,0","3","false",""
"","html-keyboard-response","274","163609","0.0-317.0","3PDJHANYK62H329MYCRK4LYJ2D2H6M","A3DMSP55I880KW","3566S7OX5D5NH74JOVOPTTMK8IR17K","","null","<img src=""img/food6.png"" style=""width:200px; border:14px solid green;"">","null","","","","","","","","","",""
"","image-keyboard-response","275","163825","0.0-319.0","3PDJHANYK62H329MYCRK4LYJ2D2H6M","A3DMSP55I880KW","3566S7OX5D5NH74JOVOPTTMK8IR17K","","212.59999990463257","img/food5.png","75","215.20000004768372","2","0","3","2","1,0.5,0,1,0.5,0,0.5,0,1","0,1,0.5,0,1,0.5,1,0.5,0","3","false",""
"","html-keyboard-response","276","164129","0.0-320.0","3PDJHANYK62H329MYCRK4LYJ2D2H6M","A3DMSP55I880KW","3566S7OX5D5NH74JOVOPTTMK8IR17K","","null","<img src=""img/food5.png"" style=""width:200px;border:14px solid red;"">","null","","","","","","","","","",""
"","image-keyboard-response","277","164257","0.0-322.0","3PDJHANYK62H329MYCRK4LYJ2D2H6M","A3DMSP55I880KW","3566S7OX5D5NH74JOVOPTTMK8IR17K","","123.89999985694885","img/food5.png","74","126.5","1","1","3","2","1,0.5,0,1,0.5,0,0.5,0,1","0,1,0.5,0,1,0.5,1,0.5,0","3","false",""
"","html-keyboard-response","278","164561","0.0-323.0","3PDJHANYK62H329MYCRK4LYJ2D2H6M","A3DMSP55I880KW","3566S7OX5D5NH74JOVOPTTMK8IR17K","","null","<img src=""img/food5.png"" style=""width:200px; border:14px solid green;"">","null","","","","","","","","","",""
"","image-keyboard-response","279","165099","0.0-325.0","3PDJHANYK62H329MYCRK4LYJ2D2H6M","A3DMSP55I880KW","3566S7OX5D5NH74JOVOPTTMK8IR17K","","534.2000000476837","img/food6.png","75","536.7000000476837","2","1","1","2","1,0.5,0,1,0.5,0,0.5,0,1","0,1,0.5,0,1,0.5,1,0.5,0","3","false",""
"","html-keyboard-response","280","165403","0.0-326.0","3PDJHANYK62H329MYCRK4LYJ2D2H6M","A3DMSP55I880KW","3566S7OX5D5NH74JOVOPTTMK8IR17K","","null","<img src=""img/food6.png"" style=""width:200px; border:14px solid green;"">","null","","","","","","","","","",""
"","image-keyboard-response","281","165758","0.0-328.0","3PDJHANYK62H329MYCRK4LYJ2D2H6M","A3DMSP55I880KW","3566S7OX5D5NH74JOVOPTTMK8IR17K","","351.19999980926514","img/food5.png","75","354.59999990463257","2","1","3","2","1,0.5,0,1,0.5,0,0.5,0,1","0,1,0.5,0,1,0.5,1,0.5,0","3","false",""
"","html-keyboard-response","282","166062","0.0-329.0","3PDJHANYK62H329MYCRK4LYJ2D2H6M","A3DMSP55I880KW","3566S7OX5D5NH74JOVOPTTMK8IR17K","","null","<img src=""img/food5.png"" style=""width:200px; border:14px solid green;"">","null","","","","","","","","","",""
"","image-keyboard-response","283","166137","0.0-331.0","3PDJHANYK62H329MYCRK4LYJ2D2H6M","A3DMSP55I880KW","3566S7OX5D5NH74JOVOPTTMK8IR17K","","71.5","img/food1.png","74","74.20000004768372","1","0","2","2","1,0.5,0,1,0.5,0,0.5,0,1","0,1,0.5,0,1,0.5,1,0.5,0","3","false",""
"","html-keyboard-response","284","166442","0.0-332.0","3PDJHANYK62H329MYCRK4LYJ2D2H6M","A3DMSP55I880KW","3566S7OX5D5NH74JOVOPTTMK8IR17K","","null","<img src=""img/food1.png"" style=""width:200px;border:14px solid red;"">","null","","","","","","","","","",""
"","image-keyboard-response","285","166589","0.0-334.0","3PDJHANYK62H329MYCRK4LYJ2D2H6M","A3DMSP55I880KW","3566S7OX5D5NH74JOVOPTTMK8IR17K","","142.79999995231628","img/food5.png","75","145.90000009536743","2","0","3","2","1,0.5,0,1,0.5,0,0.5,0,1","0,1,0.5,0,1,0.5,1,0.5,0","3","false",""
"","html-keyboard-response","286","166893","0.0-335.0","3PDJHANYK62H329MYCRK4LYJ2D2H6M","A3DMSP55I880KW","3566S7OX5D5NH74JOVOPTTMK8IR17K","","null","<img src=""img/food5.png"" style=""width:200px;border:14px solid red;"">","null","","","","","","","","","",""
"","image-keyboard-response","287","167325","0.0-337.0","3PDJHANYK62H329MYCRK4LYJ2D2H6M","A3DMSP55I880KW","3566S7OX5D5NH74JOVOPTTMK8IR17K","","428.69999980926514","img/food6.png","75","431.2000000476837","2","1","1","2","1,0.5,0,1,0.5,0,0.5,0,1","0,1,0.5,0,1,0.5,1,0.5,0","3","false",""
"","html-keyboard-response","288","167629","0.0-338.0","3PDJHANYK62H329MYCRK4LYJ2D2H6M","A3DMSP55I880KW","3566S7OX5D5NH74JOVOPTTMK8IR17K","","null","<img src=""img/food6.png"" style=""width:200px; border:14px solid green;"">","null","","","","","","","","","",""
"","image-keyboard-response","289","168138","0.0-340.0","3PDJHANYK62H329MYCRK4LYJ2D2H6M","A3DMSP55I880KW","3566S7OX5D5NH74JOVOPTTMK8IR17K","","505.19999980926514","img/food5.png","74","508.2999999523163","1","1","3","2","1,0.5,0,1,0.5,0,0.5,0,1","0,1,0.5,0,1,0.5,1,0.5,0","3","false",""
"","html-keyboard-response","290","168444","0.0-341.0","3PDJHANYK62H329MYCRK4LYJ2D2H6M","A3DMSP55I880KW","3566S7OX5D5NH74JOVOPTTMK8IR17K","","null","<img src=""img/food5.png"" style=""width:200px; border:14px solid green;"">","null","","","","","","","","","",""
"","image-keyboard-response","291","168856","0.0-343.0","3PDJHANYK62H329MYCRK4LYJ2D2H6M","A3DMSP55I880KW","3566S7OX5D5NH74JOVOPTTMK8IR17K","","409.2000000476837","img/food1.png","75","411.30000019073486","2","1","2","2","1,0.5,0,1,0.5,0,0.5,0,1","0,1,0.5,0,1,0.5,1,0.5,0","3","false",""
"","html-keyboard-response","292","169160","0.0-344.0","3PDJHANYK62H329MYCRK4LYJ2D2H6M","A3DMSP55I880KW","3566S7OX5D5NH74JOVOPTTMK8IR17K","","null","<img src=""img/food1.png"" style=""width:200px; border:14px solid green;"">","null","","","","","","","","","",""
"","image-keyboard-response","293","169699","0.0-346.0","3PDJHANYK62H329MYCRK4LYJ2D2H6M","A3DMSP55I880KW","3566S7OX5D5NH74JOVOPTTMK8IR17K","","535.3999998569489","img/food1.png","75","538","2","1","2","2","1,0.5,0,1,0.5,0,0.5,0,1","0,1,0.5,0,1,0.5,1,0.5,0","3","false",""
"","html-keyboard-response","294","170003","0.0-347.0","3PDJHANYK62H329MYCRK4LYJ2D2H6M","A3DMSP55I880KW","3566S7OX5D5NH74JOVOPTTMK8IR17K","","null","<img src=""img/food1.png"" style=""width:200px; border:14px solid green;"">","null","","","","","","","","","",""
"","image-keyboard-response","295","170586","0.0-349.0","3PDJHANYK62H329MYCRK4LYJ2D2H6M","A3DMSP55I880KW","3566S7OX5D5NH74JOVOPTTMK8IR17K","","578.5999999046326","img/food6.png","75","582.0999999046326","2","1","1","2","1,0.5,0,1,0.5,0,0.5,0,1","0,1,0.5,0,1,0.5,1,0.5,0","3","false",""
"","html-keyboard-response","296","170890","0.0-350.0","3PDJHANYK62H329MYCRK4LYJ2D2H6M","A3DMSP55I880KW","3566S7OX5D5NH74JOVOPTTMK8IR17K","","null","<img src=""img/food6.png"" style=""width:200px; border:14px solid green;"">","null","","","","","","","","","",""
"","image-keyboard-response","297","171433","0.0-352.0","3PDJHANYK62H329MYCRK4LYJ2D2H6M","A3DMSP55I880KW","3566S7OX5D5NH74JOVOPTTMK8IR17K","","539.2999999523163","img/food1.png","76","541.9000000953674","3","1","2","2","1,0.5,0,1,0.5,0,0.5,0,1","0,1,0.5,0,1,0.5,1,0.5,0","3","false",""
"","html-keyboard-response","298","171737","0.0-353.0","3PDJHANYK62H329MYCRK4LYJ2D2H6M","A3DMSP55I880KW","3566S7OX5D5NH74JOVOPTTMK8IR17K","","null","<img src=""img/food1.png"" style=""width:200px; border:14px solid green;"">","null","","","","","","","","","",""
"","image-keyboard-response","299","172156","0.0-355.0","3PDJHANYK62H329MYCRK4LYJ2D2H6M","A3DMSP55I880KW","3566S7OX5D5NH74JOVOPTTMK8IR17K","","413.7999999523163","img/food6.png","75","416.5","2","1","1","2","1,0.5,0,1,0.5,0,0.5,0,1","0,1,0.5,0,1,0.5,1,0.5,0","3","false",""
"","html-keyboard-response","300","172461","0.0-356.0","3PDJHANYK62H329MYCRK4LYJ2D2H6M","A3DMSP55I880KW","3566S7OX5D5NH74JOVOPTTMK8IR17K","","null","<img src=""img/food6.png"" style=""width:200px; border:14px solid green;"">","null","","","","","","","","","",""
"","image-keyboard-response","301","172978","0.0-358.0","3PDJHANYK62H329MYCRK4LYJ2D2H6M","A3DMSP55I880KW","3566S7OX5D5NH74JOVOPTTMK8IR17K","","513.4000000953674","img/food5.png","74","516.2000000476837","1","1","3","2","1,0.5,0,1,0.5,0,0.5,0,1","0,1,0.5,0,1,0.5,1,0.5,0","3","false",""
"","html-keyboard-response","302","173282","0.0-359.0","3PDJHANYK62H329MYCRK4LYJ2D2H6M","A3DMSP55I880KW","3566S7OX5D5NH74JOVOPTTMK8IR17K","","null","<img src=""img/food5.png"" style=""width:200px; border:14px solid green;"">","null","","","","","","","","","",""
"","image-keyboard-response","303","173726","0.0-361.0","3PDJHANYK62H329MYCRK4LYJ2D2H6M","A3DMSP55I880KW","3566S7OX5D5NH74JOVOPTTMK8IR17K","","441.2000000476837","img/food5.png","74","444","1","1","3","2","1,0.5,0,1,0.5,0,0.5,0,1","0,1,0.5,0,1,0.5,1,0.5,0","3","false",""
"","html-keyboard-response","304","174031","0.0-362.0","3PDJHANYK62H329MYCRK4LYJ2D2H6M","A3DMSP55I880KW","3566S7OX5D5NH74JOVOPTTMK8IR17K","","null","<img src=""img/food5.png"" style=""width:200px; border:14px solid green;"">","null","","","","","","","","","",""
"","image-keyboard-response","305","174467","0.0-364.0","3PDJHANYK62H329MYCRK4LYJ2D2H6M","A3DMSP55I880KW","3566S7OX5D5NH74JOVOPTTMK8IR17K","","432.2999999523163","img/food6.png","75","434.90000009536743","2","1","1","2","1,0.5,0,1,0.5,0,0.5,0,1","0,1,0.5,0,1,0.5,1,0.5,0","3","false",""
"","html-keyboard-response","306","174772","0.0-365.0","3PDJHANYK62H329MYCRK4LYJ2D2H6M","A3DMSP55I880KW","3566S7OX5D5NH74JOVOPTTMK8IR17K","","null","<img src=""img/food6.png"" style=""width:200px; border:14px solid green;"">","null","","","","","","","","","",""
"","image-keyboard-response","307","175358","0.0-367.0","3PDJHANYK62H329MYCRK4LYJ2D2H6M","A3DMSP55I880KW","3566S7OX5D5NH74JOVOPTTMK8IR17K","","582","img/food5.png","74","584.9000000953674","1","1","3","2","1,0.5,0,1,0.5,0,0.5,0,1","0,1,0.5,0,1,0.5,1,0.5,0","3","false",""
"","html-keyboard-response","308","175662","0.0-368.0","3PDJHANYK62H329MYCRK4LYJ2D2H6M","A3DMSP55I880KW","3566S7OX5D5NH74JOVOPTTMK8IR17K","","null","<img src=""img/food5.png"" style=""width:200px; border:14px solid green;"">","null","","","","","","","","","",""
"","image-keyboard-response","309","176158","0.0-370.0","3PDJHANYK62H329MYCRK4LYJ2D2H6M","A3DMSP55I880KW","3566S7OX5D5NH74JOVOPTTMK8IR17K","","492.30000019073486","img/food6.png","75","495.2000000476837","2","1","1","2","1,0.5,0,1,0.5,0,0.5,0,1","0,1,0.5,0,1,0.5,1,0.5,0","3","false",""
"","html-keyboard-response","310","176462","0.0-371.0","3PDJHANYK62H329MYCRK4LYJ2D2H6M","A3DMSP55I880KW","3566S7OX5D5NH74JOVOPTTMK8IR17K","","null","<img src=""img/food6.png"" style=""width:200px; border:14px solid green;"">","null","","","","","","","","","",""
"","image-keyboard-response","311","176973","0.0-373.0","3PDJHANYK62H329MYCRK4LYJ2D2H6M","A3DMSP55I880KW","3566S7OX5D5NH74JOVOPTTMK8IR17K","","507.40000009536743","img/food6.png","75","509.59999990463257","2","1","1","2","1,0.5,0,1,0.5,0,0.5,0,1","0,1,0.5,0,1,0.5,1,0.5,0","3","false",""
"","html-keyboard-response","312","177277","0.0-374.0","3PDJHANYK62H329MYCRK4LYJ2D2H6M","A3DMSP55I880KW","3566S7OX5D5NH74JOVOPTTMK8IR17K","","null","<img src=""img/food6.png"" style=""width:200px; border:14px solid green;"">","null","","","","","","","","","",""
"","image-keyboard-response","313","177652","0.0-376.0","3PDJHANYK62H329MYCRK4LYJ2D2H6M","A3DMSP55I880KW","3566S7OX5D5NH74JOVOPTTMK8IR17K","","371.09999990463257","img/food6.png","75","374.09999990463257","2","1","1","2","1,0.5,0,1,0.5,0,0.5,0,1","0,1,0.5,0,1,0.5,1,0.5,0","3","false",""
"","html-keyboard-response","314","177957","0.0-377.0","3PDJHANYK62H329MYCRK4LYJ2D2H6M","A3DMSP55I880KW","3566S7OX5D5NH74JOVOPTTMK8IR17K","","null","<img src=""img/food6.png"" style=""width:200px; border:14px solid green;"">","null","","","","","","","","","",""
"","image-keyboard-response","315","178379","0.0-379.0","3PDJHANYK62H329MYCRK4LYJ2D2H6M","A3DMSP55I880KW","3566S7OX5D5NH74JOVOPTTMK8IR17K","","418.7999999523163","img/food1.png","76","421.40000009536743","3","0","2","2","1,0.5,0,1,0.5,0,0.5,0,1","0,1,0.5,0,1,0.5,1,0.5,0","3","false",""
"","html-keyboard-response","316","178684","0.0-380.0","3PDJHANYK62H329MYCRK4LYJ2D2H6M","A3DMSP55I880KW","3566S7OX5D5NH74JOVOPTTMK8IR17K","","null","<img src=""img/food1.png"" style=""width:200px;border:14px solid red;"">","null","","","","","","","","","",""
"","image-keyboard-response","317","179087","0.0-382.0","3PDJHANYK62H329MYCRK4LYJ2D2H6M","A3DMSP55I880KW","3566S7OX5D5NH74JOVOPTTMK8IR17K","","399.5","img/food1.png","76","402.2000000476837","3","0","2","2","1,0.5,0,1,0.5,0,0.5,0,1","0,1,0.5,0,1,0.5,1,0.5,0","3","false",""
"","html-keyboard-response","318","179391","0.0-383.0","3PDJHANYK62H329MYCRK4LYJ2D2H6M","A3DMSP55I880KW","3566S7OX5D5NH74JOVOPTTMK8IR17K","","null","<img src=""img/food1.png"" style=""width:200px;border:14px solid red;"">","null","","","","","","","","","",""
"","image-keyboard-response","319","179624","0.0-385.0","3PDJHANYK62H329MYCRK4LYJ2D2H6M","A3DMSP55I880KW","3566S7OX5D5NH74JOVOPTTMK8IR17K","","229","img/food1.png","76","231.5","3","1","2","2","1,0.5,0,1,0.5,0,0.5,0,1","0,1,0.5,0,1,0.5,1,0.5,0","3","false",""
"","html-keyboard-response","320","179928","0.0-386.0","3PDJHANYK62H329MYCRK4LYJ2D2H6M","A3DMSP55I880KW","3566S7OX5D5NH74JOVOPTTMK8IR17K","","null","<img src=""img/food1.png"" style=""width:200px; border:14px solid green;"">","null","","","","","","","","","",""
"","image-keyboard-response","321","180436","0.0-388.0","3PDJHANYK62H329MYCRK4LYJ2D2H6M","A3DMSP55I880KW","3566S7OX5D5NH74JOVOPTTMK8IR17K","","503.39999985694885","img/food6.png","75","506.09999990463257","2","1","1","2","1,0.5,0,1,0.5,0,0.5,0,1","0,1,0.5,0,1,0.5,1,0.5,0","3","false",""
"","html-keyboard-response","322","180742","0.0-389.0","3PDJHANYK62H329MYCRK4LYJ2D2H6M","A3DMSP55I880KW","3566S7OX5D5NH74JOVOPTTMK8IR17K","","null","<img src=""img/food6.png"" style=""width:200px; border:14px solid green;"">","null","","","","","","","","","",""
"","image-keyboard-response","323","181298","0.0-391.0","3PDJHANYK62H329MYCRK4LYJ2D2H6M","A3DMSP55I880KW","3566S7OX5D5NH74JOVOPTTMK8IR17K","","553.3999998569489","img/food5.png","74","556.0999999046326","1","1","3","2","1,0.5,0,1,0.5,0,0.5,0,1","0,1,0.5,0,1,0.5,1,0.5,0","3","false",""
"","html-keyboard-response","324","181603","0.0-392.0","3PDJHANYK62H329MYCRK4LYJ2D2H6M","A3DMSP55I880KW","3566S7OX5D5NH74JOVOPTTMK8IR17K","","null","<img src=""img/food5.png"" style=""width:200px; border:14px solid green;"">","null","","","","","","","","","",""
"","image-keyboard-response","325","182161","0.0-394.0","3PDJHANYK62H329MYCRK4LYJ2D2H6M","A3DMSP55I880KW","3566S7OX5D5NH74JOVOPTTMK8IR17K","","554","img/food1.png","75","557.2999999523163","2","1","2","2","1,0.5,0,1,0.5,0,0.5,0,1","0,1,0.5,0,1,0.5,1,0.5,0","3","false",""
"","html-keyboard-response","326","182467","0.0-395.0","3PDJHANYK62H329MYCRK4LYJ2D2H6M","A3DMSP55I880KW","3566S7OX5D5NH74JOVOPTTMK8IR17K","","null","<img src=""img/food1.png"" style=""width:200px; border:14px solid green;"">","null","","","","","","","","","",""
"","image-keyboard-response","327","182703","0.0-397.0","3PDJHANYK62H329MYCRK4LYJ2D2H6M","A3DMSP55I880KW","3566S7OX5D5NH74JOVOPTTMK8IR17K","","232.60000014305115","img/food6.png","75","235.19999980926514","2","1","1","2","1,0.5,0,1,0.5,0,0.5,0,1","0,1,0.5,0,1,0.5,1,0.5,0","3","false",""
"","html-keyboard-response","328","183008","0.0-398.0","3PDJHANYK62H329MYCRK4LYJ2D2H6M","A3DMSP55I880KW","3566S7OX5D5NH74JOVOPTTMK8IR17K","","null","<img src=""img/food6.png"" style=""width:200px; border:14px solid green;"">","null","","","","","","","","","",""
"","image-keyboard-response","329","183221","0.0-400.0","3PDJHANYK62H329MYCRK4LYJ2D2H6M","A3DMSP55I880KW","3566S7OX5D5NH74JOVOPTTMK8IR17K","","209.20000004768372","img/food5.png","75","211.09999990463257","2","0","3","2","1,0.5,0,1,0.5,0,0.5,0,1","0,1,0.5,0,1,0.5,1,0.5,0","3","false",""
"","html-keyboard-response","330","183524","0.0-401.0","3PDJHANYK62H329MYCRK4LYJ2D2H6M","A3DMSP55I880KW","3566S7OX5D5NH74JOVOPTTMK8IR17K","","null","<img src=""img/food5.png"" style=""width:200px;border:14px solid red;"">","null","","","","","","","","","",""
"","image-keyboard-response","331","183656","0.0-403.0","3PDJHANYK62H329MYCRK4LYJ2D2H6M","A3DMSP55I880KW","3566S7OX5D5NH74JOVOPTTMK8IR17K","","127.60000014305115","img/food5.png","75","130.59999990463257","2","0","3","2","1,0.5,0,1,0.5,0,0.5,0,1","0,1,0.5,0,1,0.5,1,0.5,0","3","false",""
"","html-keyboard-response","332","183961","0.0-404.0","3PDJHANYK62H329MYCRK4LYJ2D2H6M","A3DMSP55I880KW","3566S7OX5D5NH74JOVOPTTMK8IR17K","","null","<img src=""img/food5.png"" style=""width:200px;border:14px solid red;"">","null","","","","","","","","","",""
"","image-keyboard-response","333","184133","0.0-406.0","3PDJHANYK62H329MYCRK4LYJ2D2H6M","A3DMSP55I880KW","3566S7OX5D5NH74JOVOPTTMK8IR17K","","167.90000009536743","img/food6.png","74","170.79999995231628","1","0","1","2","1,0.5,0,1,0.5,0,0.5,0,1","0,1,0.5,0,1,0.5,1,0.5,0","3","false",""
"","html-keyboard-response","334","184436","0.0-407.0","3PDJHANYK62H329MYCRK4LYJ2D2H6M","A3DMSP55I880KW","3566S7OX5D5NH74JOVOPTTMK8IR17K","","null","<img src=""img/food6.png"" style=""width:200px;border:14px solid red;"">","null","","","","","","","","","",""
"","image-keyboard-response","335","184598","0.0-409.0","3PDJHANYK62H329MYCRK4LYJ2D2H6M","A3DMSP55I880KW","3566S7OX5D5NH74JOVOPTTMK8IR17K","","158","img/food6.png","75","161","2","1","1","2","1,0.5,0,1,0.5,0,0.5,0,1","0,1,0.5,0,1,0.5,1,0.5,0","3","false",""
"","html-keyboard-response","336","184903","0.0-410.0","3PDJHANYK62H329MYCRK4LYJ2D2H6M","A3DMSP55I880KW","3566S7OX5D5NH74JOVOPTTMK8IR17K","","null","<img src=""img/food6.png"" style=""width:200px; border:14px solid green;"">","null","","","","","","","","","",""
"","image-keyboard-response","337","185591","0.0-412.0","3PDJHANYK62H329MYCRK4LYJ2D2H6M","A3DMSP55I880KW","3566S7OX5D5NH74JOVOPTTMK8IR17K","","684.2999999523163","img/food1.png","76","687.8000001907349","3","1","2","2","1,0.5,0,1,0.5,0,0.5,0,1","0,1,0.5,0,1,0.5,1,0.5,0","3","false",""
"","html-keyboard-response","338","185895","0.0-413.0","3PDJHANYK62H329MYCRK4LYJ2D2H6M","A3DMSP55I880KW","3566S7OX5D5NH74JOVOPTTMK8IR17K","","null","<img src=""img/food1.png"" style=""width:200px; border:14px solid green;"">","null","","","","","","","","","",""
"","image-keyboard-response","339","186499","0.0-415.0","3PDJHANYK62H329MYCRK4LYJ2D2H6M","A3DMSP55I880KW","3566S7OX5D5NH74JOVOPTTMK8IR17K","","600.5","img/food6.png","75","603","2","1","1","2","1,0.5,0,1,0.5,0,0.5,0,1","0,1,0.5,0,1,0.5,1,0.5,0","3","false",""
"","html-keyboard-response","340","186803","0.0-416.0","3PDJHANYK62H329MYCRK4LYJ2D2H6M","A3DMSP55I880KW","3566S7OX5D5NH74JOVOPTTMK8IR17K","","null","<img src=""img/food6.png"" style=""width:200px; border:14px solid green;"">","null","","","","","","","","","",""
"","image-keyboard-response","341","187266","0.0-418.0","3PDJHANYK62H329MYCRK4LYJ2D2H6M","A3DMSP55I880KW","3566S7OX5D5NH74JOVOPTTMK8IR17K","","459.2000000476837","img/food5.png","74","461.2000000476837","1","1","3","2","1,0.5,0,1,0.5,0,0.5,0,1","0,1,0.5,0,1,0.5,1,0.5,0","3","false",""
"","html-keyboard-response","342","187570","0.0-419.0","3PDJHANYK62H329MYCRK4LYJ2D2H6M","A3DMSP55I880KW","3566S7OX5D5NH74JOVOPTTMK8IR17K","","null","<img src=""img/food5.png"" style=""width:200px; border:14px solid green;"">","null","","","","","","","","","",""
"","image-keyboard-response","343","188044","0.0-421.0","3PDJHANYK62H329MYCRK4LYJ2D2H6M","A3DMSP55I880KW","3566S7OX5D5NH74JOVOPTTMK8IR17K","","469.7000000476837","img/food6.png","75","472.39999985694885","2","1","1","2","1,0.5,0,1,0.5,0,0.5,0,1","0,1,0.5,0,1,0.5,1,0.5,0","3","false",""
"","html-keyboard-response","344","188348","0.0-422.0","3PDJHANYK62H329MYCRK4LYJ2D2H6M","A3DMSP55I880KW","3566S7OX5D5NH74JOVOPTTMK8IR17K","","null","<img src=""img/food6.png"" style=""width:200px; border:14px solid green;"">","null","","","","","","","","","",""
"","image-keyboard-response","345","188891","0.0-424.0","3PDJHANYK62H329MYCRK4LYJ2D2H6M","A3DMSP55I880KW","3566S7OX5D5NH74JOVOPTTMK8IR17K","","539.5999999046326","img/food5.png","74","542.2999999523163","1","1","3","2","1,0.5,0,1,0.5,0,0.5,0,1","0,1,0.5,0,1,0.5,1,0.5,0","3","false",""
"","html-keyboard-response","346","189196","0.0-425.0","3PDJHANYK62H329MYCRK4LYJ2D2H6M","A3DMSP55I880KW","3566S7OX5D5NH74JOVOPTTMK8IR17K","","null","<img src=""img/food5.png"" style=""width:200px; border:14px solid green;"">","null","","","","","","","","","",""
"","image-keyboard-response","347","189597","0.0-427.0","3PDJHANYK62H329MYCRK4LYJ2D2H6M","A3DMSP55I880KW","3566S7OX5D5NH74JOVOPTTMK8IR17K","","398.09999990463257","img/food5.png","74","400.2000000476837","1","1","3","2","1,0.5,0,1,0.5,0,0.5,0,1","0,1,0.5,0,1,0.5,1,0.5,0","3","false",""
"","html-keyboard-response","348","189899","0.0-428.0","3PDJHANYK62H329MYCRK4LYJ2D2H6M","A3DMSP55I880KW","3566S7OX5D5NH74JOVOPTTMK8IR17K","","null","<img src=""img/food5.png"" style=""width:200px; border:14px solid green;"">","null","","","","","","","","","",""
"","image-keyboard-response","349","190396","0.0-430.0","3PDJHANYK62H329MYCRK4LYJ2D2H6M","A3DMSP55I880KW","3566S7OX5D5NH74JOVOPTTMK8IR17K","","494.7000000476837","img/food6.png","75","496.60000014305115","2","1","1","2","1,0.5,0,1,0.5,0,0.5,0,1","0,1,0.5,0,1,0.5,1,0.5,0","3","false",""
"","html-keyboard-response","350","190700","0.0-431.0","3PDJHANYK62H329MYCRK4LYJ2D2H6M","A3DMSP55I880KW","3566S7OX5D5NH74JOVOPTTMK8IR17K","","null","<img src=""img/food6.png"" style=""width:200px; border:14px solid green;"">","null","","","","","","","","","",""
"","image-keyboard-response","351","191103","0.0-433.0","3PDJHANYK62H329MYCRK4LYJ2D2H6M","A3DMSP55I880KW","3566S7OX5D5NH74JOVOPTTMK8IR17K","","399.5","img/food6.png","75","402.19999980926514","2","1","1","2","1,0.5,0,1,0.5,0,0.5,0,1","0,1,0.5,0,1,0.5,1,0.5,0","3","false",""
"","html-keyboard-response","352","191408","0.0-434.0","3PDJHANYK62H329MYCRK4LYJ2D2H6M","A3DMSP55I880KW","3566S7OX5D5NH74JOVOPTTMK8IR17K","","null","<img src=""img/food6.png"" style=""width:200px; border:14px solid green;"">","null","","","","","","","","","",""
"","image-keyboard-response","353","191806","0.0-436.0","3PDJHANYK62H329MYCRK4LYJ2D2H6M","A3DMSP55I880KW","3566S7OX5D5NH74JOVOPTTMK8IR17K","","394.89999985694885","img/food1.png","76","397.7000000476837","3","0","2","2","1,0.5,0,1,0.5,0,0.5,0,1","0,1,0.5,0,1,0.5,1,0.5,0","3","false",""
"","html-keyboard-response","354","192111","0.0-437.0","3PDJHANYK62H329MYCRK4LYJ2D2H6M","A3DMSP55I880KW","3566S7OX5D5NH74JOVOPTTMK8IR17K","","null","<img src=""img/food1.png"" style=""width:200px;border:14px solid red;"">","null","","","","","","","","","",""
"","image-keyboard-response","355","192583","0.0-439.0","3PDJHANYK62H329MYCRK4LYJ2D2H6M","A3DMSP55I880KW","3566S7OX5D5NH74JOVOPTTMK8IR17K","","467.5","img/food1.png","76","470.2999999523163","3","0","2","2","1,0.5,0,1,0.5,0,0.5,0,1","0,1,0.5,0,1,0.5,1,0.5,0","3","false",""
"","html-keyboard-response","356","192887","0.0-440.0","3PDJHANYK62H329MYCRK4LYJ2D2H6M","A3DMSP55I880KW","3566S7OX5D5NH74JOVOPTTMK8IR17K","","null","<img src=""img/food1.png"" style=""width:200px;border:14px solid red;"">","null","","","","","","","","","",""
"","image-keyboard-response","357","193285","0.0-442.0","3PDJHANYK62H329MYCRK4LYJ2D2H6M","A3DMSP55I880KW","3566S7OX5D5NH74JOVOPTTMK8IR17K","","394","img/food1.png","76","396.89999985694885","3","1","2","2","1,0.5,0,1,0.5,0,0.5,0,1","0,1,0.5,0,1,0.5,1,0.5,0","3","false",""
"","html-keyboard-response","358","193590","0.0-443.0","3PDJHANYK62H329MYCRK4LYJ2D2H6M","A3DMSP55I880KW","3566S7OX5D5NH74JOVOPTTMK8IR17K","","null","<img src=""img/food1.png"" style=""width:200px; border:14px solid green;"">","null","","","","","","","","","",""
"","image-keyboard-response","359","194138","0.0-445.0","3PDJHANYK62H329MYCRK4LYJ2D2H6M","A3DMSP55I880KW","3566S7OX5D5NH74JOVOPTTMK8IR17K","","543.5","img/food6.png","75","546.4000000953674","2","1","1","2","1,0.5,0,1,0.5,0,0.5,0,1","0,1,0.5,0,1,0.5,1,0.5,0","3","false",""
"","html-keyboard-response","360","194442","0.0-446.0","3PDJHANYK62H329MYCRK4LYJ2D2H6M","A3DMSP55I880KW","3566S7OX5D5NH74JOVOPTTMK8IR17K","","null","<img src=""img/food6.png"" style=""width:200px; border:14px solid green;"">","null","","","","","","","","","",""
"","image-keyboard-response","361","194785","0.0-448.0","3PDJHANYK62H329MYCRK4LYJ2D2H6M","A3DMSP55I880KW","3566S7OX5D5NH74JOVOPTTMK8IR17K","","339.7000000476837","img/food6.png","75","342.2999999523163","2","1","1","2","1,0.5,0,1,0.5,0,0.5,0,1","0,1,0.5,0,1,0.5,1,0.5,0","3","false",""
"","html-keyboard-response","362","195091","0.0-449.0","3PDJHANYK62H329MYCRK4LYJ2D2H6M","A3DMSP55I880KW","3566S7OX5D5NH74JOVOPTTMK8IR17K","","null","<img src=""img/food6.png"" style=""width:200px; border:14px solid green;"">","null","","","","","","","","","",""
"","image-keyboard-response","363","195572","0.0-451.0","3PDJHANYK62H329MYCRK4LYJ2D2H6M","A3DMSP55I880KW","3566S7OX5D5NH74JOVOPTTMK8IR17K","","477.90000009536743","img/food6.png","75","480.59999990463257","2","1","1","2","1,0.5,0,1,0.5,0,0.5,0,1","0,1,0.5,0,1,0.5,1,0.5,0","3","false",""
"","html-keyboard-response","364","195876","0.0-452.0","3PDJHANYK62H329MYCRK4LYJ2D2H6M","A3DMSP55I880KW","3566S7OX5D5NH74JOVOPTTMK8IR17K","","null","<img src=""img/food6.png"" style=""width:200px; border:14px solid green;"">","null","","","","","","","","","",""
"","instructions","365","199914","0.0-454.0","3PDJHANYK62H329MYCRK4LYJ2D2H6M","A3DMSP55I880KW","3566S7OX5D5NH74JOVOPTTMK8IR17K","[{""page_index"":0,""viewing_time"":4035.2000000476837}]","4036","","","","","","","","","","","",""
"","survey-text","366","204032","0.0-455.0","3PDJHANYK62H329MYCRK4LYJ2D2H6M","A3DMSP55I880KW","3566S7OX5D5NH74JOVOPTTMK8IR17K","","4087","","","","","","","","","","","","{""Q0"":""A3DMSP55I880KW""}"
