"success","trial_type","trial_index","time_elapsed","internal_node_id","assignmentID","mturkID","hitID","view_history","rt","stimulus","key_press","reactionTime","a","r","s","cond","reward_cond","reward_cond_actual","reward_matrix_idx","warning","responses"
"true","fullscreen","0","2802","0.0-0.0","3ON104KXQLILL50XANK58QOSLFI4W7","A3E8SXH0BAYG85","3L1EFR8WWTRIL5MKAR1UWRHK4IC9FJ","","","","","","","","","","","","","",""
"","instructions","1","28199","0.0-1.0","3ON104KXQLILL50XANK58QOSLFI4W7","A3E8SXH0BAYG85","3L1EFR8WWTRIL5MKAR1UWRHK4IC9FJ","[{""page_index"":0,""viewing_time"":2731},{""page_index"":1,""viewing_time"":1783.800000011921},{""page_index"":2,""viewing_time"":6832.199999988079},{""page_index"":3,""viewing_time"":4888},{""page_index"":4,""viewing_time"":1864},{""page_index"":5,""viewing_time"":3952},{""page_index"":6,""viewing_time"":3344}]","25395.30000001192","","","","","","","","","","","",""
"","image-keyboard-response","2","30986","0.0-2.0","3ON104KXQLILL50XANK58QOSLFI4W7","A3E8SXH0BAYG85","3L1EFR8WWTRIL5MKAR1UWRHK4IC9FJ","","2784.199999988079","img/food3.png","74","2786.0999999940395","1","1","3","1","1,0.5,0,1,0.5,0,0.5,0,1","0,1,0.5,0,1,0.5,1,0.5,0","3","",""
"","html-keyboard-response","3","31291","0.0-3.0","3ON104KXQLILL50XANK58QOSLFI4W7","A3E8SXH0BAYG85","3L1EFR8WWTRIL5MKAR1UWRHK4IC9FJ","","null","<img src=""img/food3.png"" style=""width:200px; border:14px solid green;"">","null","","","","","","","","","",""
"","image-keyboard-response","4","32393","0.0-4.0","3ON104KXQLILL50XANK58QOSLFI4W7","A3E8SXH0BAYG85","3L1EFR8WWTRIL5MKAR1UWRHK4IC9FJ","","1099","img/food1.png","75","1101.1000000238419","2","1","2","1","1,0.5,0,1,0.5,0,0.5,0,1","0,1,0.5,0,1,0.5,1,0.5,0","3","",""
"","html-keyboard-response","5","32697","0.0-5.0","3ON104KXQLILL50XANK58QOSLFI4W7","A3E8SXH0BAYG85","3L1EFR8WWTRIL5MKAR1UWRHK4IC9FJ","","null","<img src=""img/food1.png"" style=""width:200px; border:14px solid green;"">","null","","","","","","","","","",""
"","image-keyboard-response","6","33337","0.0-6.0","3ON104KXQLILL50XANK58QOSLFI4W7","A3E8SXH0BAYG85","3L1EFR8WWTRIL5MKAR1UWRHK4IC9FJ","","637","img/food5.png","76","639.1000000238419","3","0","1","1","1,0.5,0,1,0.5,0,0.5,0,1","0,1,0.5,0,1,0.5,1,0.5,0","3","",""
"","html-keyboard-response","7","33639","0.0-7.0","3ON104KXQLILL50XANK58QOSLFI4W7","A3E8SXH0BAYG85","3L1EFR8WWTRIL5MKAR1UWRHK4IC9FJ","","null","<img src=""img/food5.png"" style=""width:200px;border:14px solid red;"">","null","","","","","","","","","",""
"","image-keyboard-response","8","34064","0.0-8.0","3ON104KXQLILL50XANK58QOSLFI4W7","A3E8SXH0BAYG85","3L1EFR8WWTRIL5MKAR1UWRHK4IC9FJ","","422.59999999403954","img/food5.png","75","424.5","2","1","1","1","1,0.5,0,1,0.5,0,0.5,0,1","0,1,0.5,0,1,0.5,1,0.5,0","3","",""
"","html-keyboard-response","9","34368","0.0-9.0","3ON104KXQLILL50XANK58QOSLFI4W7","A3E8SXH0BAYG85","3L1EFR8WWTRIL5MKAR1UWRHK4IC9FJ","","null","<img src=""img/food5.png"" style=""width:200px; border:14px solid green;"">","null","","","","","","","","","",""
"","image-keyboard-response","10","35480","0.0-10.0","3ON104KXQLILL50XANK58QOSLFI4W7","A3E8SXH0BAYG85","3L1EFR8WWTRIL5MKAR1UWRHK4IC9FJ","","1110.0999999940395","img/food3.png","75","1111.7999999821186","2","1","3","1","1,0.5,0,1,0.5,0,0.5,0,1","0,1,0.5,0,1,0.5,1,0.5,0","3","",""
"","html-keyboard-response","11","35783","0.0-11.0","3ON104KXQLILL50XANK58QOSLFI4W7","A3E8SXH0BAYG85","3L1EFR8WWTRIL5MKAR1UWRHK4IC9FJ","","null","<img src=""img/food3.png"" style=""width:200px; border:14px solid green;"">","null","","","","","","","","","",""
"","image-keyboard-response","12","36904","0.0-12.0","3ON104KXQLILL50XANK58QOSLFI4W7","A3E8SXH0BAYG85","3L1EFR8WWTRIL5MKAR1UWRHK4IC9FJ","","1120","img/food5.png","75","1121.300000011921","2","1","1","1","1,0.5,0,1,0.5,0,0.5,0,1","0,1,0.5,0,1,0.5,1,0.5,0","3","",""
"","html-keyboard-response","13","37207","0.0-13.0","3ON104KXQLILL50XANK58QOSLFI4W7","A3E8SXH0BAYG85","3L1EFR8WWTRIL5MKAR1UWRHK4IC9FJ","","null","<img src=""img/food5.png"" style=""width:200px; border:14px solid green;"">","null","","","","","","","","","",""
"","image-keyboard-response","14","38016","0.0-14.0","3ON104KXQLILL50XANK58QOSLFI4W7","A3E8SXH0BAYG85","3L1EFR8WWTRIL5MKAR1UWRHK4IC9FJ","","806.7999999821186","img/food1.png","74","808.4000000059605","1","0","2","1","1,0.5,0,1,0.5,0,0.5,0,1","0,1,0.5,0,1,0.5,1,0.5,0","3","",""
"","html-keyboard-response","15","38319","0.0-15.0","3ON104KXQLILL50XANK58QOSLFI4W7","A3E8SXH0BAYG85","3L1EFR8WWTRIL5MKAR1UWRHK4IC9FJ","","null","<img src=""img/food1.png"" style=""width:200px;border:14px solid red;"">","null","","","","","","","","","",""
"","image-keyboard-response","16","39560","0.0-16.0","3ON104KXQLILL50XANK58QOSLFI4W7","A3E8SXH0BAYG85","3L1EFR8WWTRIL5MKAR1UWRHK4IC9FJ","","1238.699999988079","img/food3.png","75","1240.5","2","0","3","1","1,0.5,0,1,0.5,0,0.5,0,1","0,1,0.5,0,1,0.5,1,0.5,0","3","",""
"","html-keyboard-response","17","39862","0.0-17.0","3ON104KXQLILL50XANK58QOSLFI4W7","A3E8SXH0BAYG85","3L1EFR8WWTRIL5MKAR1UWRHK4IC9FJ","","null","<img src=""img/food3.png"" style=""width:200px;border:14px solid red;"">","null","","","","","","","","","",""
"","image-keyboard-response","18","40752","0.0-18.0","3ON104KXQLILL50XANK58QOSLFI4W7","A3E8SXH0BAYG85","3L1EFR8WWTRIL5MKAR1UWRHK4IC9FJ","","889","img/food1.png","74","890.0999999940395","1","0","2","1","1,0.5,0,1,0.5,0,0.5,0,1","0,1,0.5,0,1,0.5,1,0.5,0","3","",""
"","html-keyboard-response","19","41055","0.0-19.0","3ON104KXQLILL50XANK58QOSLFI4W7","A3E8SXH0BAYG85","3L1EFR8WWTRIL5MKAR1UWRHK4IC9FJ","","null","<img src=""img/food1.png"" style=""width:200px;border:14px solid red;"">","null","","","","","","","","","",""
"","image-keyboard-response","20","41656","0.0-20.0","3ON104KXQLILL50XANK58QOSLFI4W7","A3E8SXH0BAYG85","3L1EFR8WWTRIL5MKAR1UWRHK4IC9FJ","","599","img/food3.png","75","600.8000000119209","2","1","3","1","1,0.5,0,1,0.5,0,0.5,0,1","0,1,0.5,0,1,0.5,1,0.5,0","3","",""
"","html-keyboard-response","21","41959","0.0-21.0","3ON104KXQLILL50XANK58QOSLFI4W7","A3E8SXH0BAYG85","3L1EFR8WWTRIL5MKAR1UWRHK4IC9FJ","","null","<img src=""img/food3.png"" style=""width:200px; border:14px solid green;"">","null","","","","","","","","","",""
"","image-keyboard-response","22","42336","0.0-22.0","3ON104KXQLILL50XANK58QOSLFI4W7","A3E8SXH0BAYG85","3L1EFR8WWTRIL5MKAR1UWRHK4IC9FJ","","374.90000000596046","img/food3.png","75","376.60000002384186","2","1","3","1","1,0.5,0,1,0.5,0,0.5,0,1","0,1,0.5,0,1,0.5,1,0.5,0","3","",""
"","html-keyboard-response","23","42639","0.0-23.0","3ON104KXQLILL50XANK58QOSLFI4W7","A3E8SXH0BAYG85","3L1EFR8WWTRIL5MKAR1UWRHK4IC9FJ","","null","<img src=""img/food3.png"" style=""width:200px; border:14px solid green;"">","null","","","","","","","","","",""
"","image-keyboard-response","24","44152","0.0-24.0","3ON104KXQLILL50XANK58QOSLFI4W7","A3E8SXH0BAYG85","3L1EFR8WWTRIL5MKAR1UWRHK4IC9FJ","","1511.7999999821186","img/food1.png","75","1513.1000000238419","2","1","2","1","1,0.5,0,1,0.5,0,0.5,0,1","0,1,0.5,0,1,0.5,1,0.5,0","3","",""
"","html-keyboard-response","25","44456","0.0-25.0","3ON104KXQLILL50XANK58QOSLFI4W7","A3E8SXH0BAYG85","3L1EFR8WWTRIL5MKAR1UWRHK4IC9FJ","","null","<img src=""img/food1.png"" style=""width:200px; border:14px solid green;"">","null","","","","","","","","","",""
"","image-keyboard-response","26","45200","0.0-26.0","3ON104KXQLILL50XANK58QOSLFI4W7","A3E8SXH0BAYG85","3L1EFR8WWTRIL5MKAR1UWRHK4IC9FJ","","742","img/food5.png","76","743.6999999880791","3","1","1","1","1,0.5,0,1,0.5,0,0.5,0,1","0,1,0.5,0,1,0.5,1,0.5,0","3","",""
"","html-keyboard-response","27","45503","0.0-27.0","3ON104KXQLILL50XANK58QOSLFI4W7","A3E8SXH0BAYG85","3L1EFR8WWTRIL5MKAR1UWRHK4IC9FJ","","null","<img src=""img/food5.png"" style=""width:200px; border:14px solid green;"">","null","","","","","","","","","",""
"","image-keyboard-response","28","46144","0.0-28.0","3ON104KXQLILL50XANK58QOSLFI4W7","A3E8SXH0BAYG85","3L1EFR8WWTRIL5MKAR1UWRHK4IC9FJ","","639.0999999940395","img/food1.png","75","640.8000000119209","2","1","2","1","1,0.5,0,1,0.5,0,0.5,0,1","0,1,0.5,0,1,0.5,1,0.5,0","3","",""
"","html-keyboard-response","29","46447","0.0-29.0","3ON104KXQLILL50XANK58QOSLFI4W7","A3E8SXH0BAYG85","3L1EFR8WWTRIL5MKAR1UWRHK4IC9FJ","","null","<img src=""img/food1.png"" style=""width:200px; border:14px solid green;"">","null","","","","","","","","","",""
"","image-keyboard-response","30","47568","0.0-30.0","3ON104KXQLILL50XANK58QOSLFI4W7","A3E8SXH0BAYG85","3L1EFR8WWTRIL5MKAR1UWRHK4IC9FJ","","1119.199999988079","img/food5.png","76","1120.699999988079","3","0","1","1","1,0.5,0,1,0.5,0,0.5,0,1","0,1,0.5,0,1,0.5,1,0.5,0","3","",""
"","html-keyboard-response","31","47871","0.0-31.0","3ON104KXQLILL50XANK58QOSLFI4W7","A3E8SXH0BAYG85","3L1EFR8WWTRIL5MKAR1UWRHK4IC9FJ","","null","<img src=""img/food5.png"" style=""width:200px;border:14px solid red;"">","null","","","","","","","","","",""
"","image-keyboard-response","32","49120","0.0-32.0","3ON104KXQLILL50XANK58QOSLFI4W7","A3E8SXH0BAYG85","3L1EFR8WWTRIL5MKAR1UWRHK4IC9FJ","","1247.199999988079","img/food3.png","75","1248.7999999821186","2","0","3","1","1,0.5,0,1,0.5,0,0.5,0,1","0,1,0.5,0,1,0.5,1,0.5,0","3","",""
"","html-keyboard-response","33","49423","0.0-33.0","3ON104KXQLILL50XANK58QOSLFI4W7","A3E8SXH0BAYG85","3L1EFR8WWTRIL5MKAR1UWRHK4IC9FJ","","null","<img src=""img/food3.png"" style=""width:200px;border:14px solid red;"">","null","","","","","","","","","",""
"","image-keyboard-response","34","49880","0.0-34.0","3ON104KXQLILL50XANK58QOSLFI4W7","A3E8SXH0BAYG85","3L1EFR8WWTRIL5MKAR1UWRHK4IC9FJ","","455.2999999821186","img/food3.png","75","457","2","1","3","1","1,0.5,0,1,0.5,0,0.5,0,1","0,1,0.5,0,1,0.5,1,0.5,0","3","",""
"","html-keyboard-response","35","50183","0.0-35.0","3ON104KXQLILL50XANK58QOSLFI4W7","A3E8SXH0BAYG85","3L1EFR8WWTRIL5MKAR1UWRHK4IC9FJ","","null","<img src=""img/food3.png"" style=""width:200px; border:14px solid green;"">","null","","","","","","","","","",""
"","image-keyboard-response","36","51672","0.0-36.0","3ON104KXQLILL50XANK58QOSLFI4W7","A3E8SXH0BAYG85","3L1EFR8WWTRIL5MKAR1UWRHK4IC9FJ","","1487","img/food5.png","76","1488.5999999940395","3","1","1","1","1,0.5,0,1,0.5,0,0.5,0,1","0,1,0.5,0,1,0.5,1,0.5,0","3","",""
"","html-keyboard-response","37","51975","0.0-37.0","3ON104KXQLILL50XANK58QOSLFI4W7","A3E8SXH0BAYG85","3L1EFR8WWTRIL5MKAR1UWRHK4IC9FJ","","null","<img src=""img/food5.png"" style=""width:200px; border:14px solid green;"">","null","","","","","","","","","",""
"","image-keyboard-response","38","52920","0.0-38.0","3ON104KXQLILL50XANK58QOSLFI4W7","A3E8SXH0BAYG85","3L1EFR8WWTRIL5MKAR1UWRHK4IC9FJ","","942.5999999940395","img/food1.png","74","944.2999999821186","1","0","2","1","1,0.5,0,1,0.5,0,0.5,0,1","0,1,0.5,0,1,0.5,1,0.5,0","3","",""
"","html-keyboard-response","39","53222","0.0-39.0","3ON104KXQLILL50XANK58QOSLFI4W7","A3E8SXH0BAYG85","3L1EFR8WWTRIL5MKAR1UWRHK4IC9FJ","","null","<img src=""img/food1.png"" style=""width:200px;border:14px solid red;"">","null","","","","","","","","","",""
"","image-keyboard-response","40","53616","0.0-40.0","3ON104KXQLILL50XANK58QOSLFI4W7","A3E8SXH0BAYG85","3L1EFR8WWTRIL5MKAR1UWRHK4IC9FJ","","391.80000001192093","img/food1.png","74","393.5","1","0","2","1","1,0.5,0,1,0.5,0,0.5,0,1","0,1,0.5,0,1,0.5,1,0.5,0","3","",""
"","html-keyboard-response","41","53919","0.0-41.0","3ON104KXQLILL50XANK58QOSLFI4W7","A3E8SXH0BAYG85","3L1EFR8WWTRIL5MKAR1UWRHK4IC9FJ","","null","<img src=""img/food1.png"" style=""width:200px;border:14px solid red;"">","null","","","","","","","","","",""
"","image-keyboard-response","42","54200","0.0-42.0","3ON104KXQLILL50XANK58QOSLFI4W7","A3E8SXH0BAYG85","3L1EFR8WWTRIL5MKAR1UWRHK4IC9FJ","","279","img/food3.png","75","280.60000002384186","2","1","3","1","1,0.5,0,1,0.5,0,0.5,0,1","0,1,0.5,0,1,0.5,1,0.5,0","3","",""
"","html-keyboard-response","43","54503","0.0-43.0","3ON104KXQLILL50XANK58QOSLFI4W7","A3E8SXH0BAYG85","3L1EFR8WWTRIL5MKAR1UWRHK4IC9FJ","","null","<img src=""img/food3.png"" style=""width:200px; border:14px solid green;"">","null","","","","","","","","","",""
"","image-keyboard-response","44","54952","0.0-44.0","3ON104KXQLILL50XANK58QOSLFI4W7","A3E8SXH0BAYG85","3L1EFR8WWTRIL5MKAR1UWRHK4IC9FJ","","447.5","img/food3.png","75","449.09999999403954","2","1","3","1","1,0.5,0,1,0.5,0,0.5,0,1","0,1,0.5,0,1,0.5,1,0.5,0","3","",""
"","html-keyboard-response","45","55255","0.0-45.0","3ON104KXQLILL50XANK58QOSLFI4W7","A3E8SXH0BAYG85","3L1EFR8WWTRIL5MKAR1UWRHK4IC9FJ","","null","<img src=""img/food3.png"" style=""width:200px; border:14px solid green;"">","null","","","","","","","","","",""
"","image-keyboard-response","46","55952","0.0-46.0","3ON104KXQLILL50XANK58QOSLFI4W7","A3E8SXH0BAYG85","3L1EFR8WWTRIL5MKAR1UWRHK4IC9FJ","","695.5","img/food5.png","75","697.3000000119209","2","1","1","1","1,0.5,0,1,0.5,0,0.5,0,1","0,1,0.5,0,1,0.5,1,0.5,0","3","",""
"","html-keyboard-response","47","56254","0.0-47.0","3ON104KXQLILL50XANK58QOSLFI4W7","A3E8SXH0BAYG85","3L1EFR8WWTRIL5MKAR1UWRHK4IC9FJ","","null","<img src=""img/food5.png"" style=""width:200px; border:14px solid green;"">","null","","","","","","","","","",""
"","image-keyboard-response","48","56656","0.0-48.0","3ON104KXQLILL50XANK58QOSLFI4W7","A3E8SXH0BAYG85","3L1EFR8WWTRIL5MKAR1UWRHK4IC9FJ","","399.59999999403954","img/food5.png","75","401.5","2","1","1","1","1,0.5,0,1,0.5,0,0.5,0,1","0,1,0.5,0,1,0.5,1,0.5,0","3","",""
"","html-keyboard-response","49","56959","0.0-49.0","3ON104KXQLILL50XANK58QOSLFI4W7","A3E8SXH0BAYG85","3L1EFR8WWTRIL5MKAR1UWRHK4IC9FJ","","null","<img src=""img/food5.png"" style=""width:200px; border:14px solid green;"">","null","","","","","","","","","",""
"","image-keyboard-response","50","57487","0.0-50.0","3ON104KXQLILL50XANK58QOSLFI4W7","A3E8SXH0BAYG85","3L1EFR8WWTRIL5MKAR1UWRHK4IC9FJ","","526.5","img/food5.png","75","527.7000000178814","2","1","1","1","1,0.5,0,1,0.5,0,0.5,0,1","0,1,0.5,0,1,0.5,1,0.5,0","3","",""
"","html-keyboard-response","51","57789","0.0-51.0","3ON104KXQLILL50XANK58QOSLFI4W7","A3E8SXH0BAYG85","3L1EFR8WWTRIL5MKAR1UWRHK4IC9FJ","","null","<img src=""img/food5.png"" style=""width:200px; border:14px solid green;"">","null","","","","","","","","","",""
"","image-keyboard-response","52","58600","0.0-52.0","3ON104KXQLILL50XANK58QOSLFI4W7","A3E8SXH0BAYG85","3L1EFR8WWTRIL5MKAR1UWRHK4IC9FJ","","809.2999999821186","img/food3.png","76","810.8000000119209","3","0","3","1","1,0.5,0,1,0.5,0,0.5,0,1","0,1,0.5,0,1,0.5,1,0.5,0","3","",""
"","html-keyboard-response","53","58902","0.0-53.0","3ON104KXQLILL50XANK58QOSLFI4W7","A3E8SXH0BAYG85","3L1EFR8WWTRIL5MKAR1UWRHK4IC9FJ","","null","<img src=""img/food3.png"" style=""width:200px;border:14px solid red;"">","null","","","","","","","","","",""
"","image-keyboard-response","54","59432","0.0-54.0","3ON104KXQLILL50XANK58QOSLFI4W7","A3E8SXH0BAYG85","3L1EFR8WWTRIL5MKAR1UWRHK4IC9FJ","","527.1999999880791","img/food1.png","75","529","2","1","2","1","1,0.5,0,1,0.5,0,0.5,0,1","0,1,0.5,0,1,0.5,1,0.5,0","3","",""
"","html-keyboard-response","55","59735","0.0-55.0","3ON104KXQLILL50XANK58QOSLFI4W7","A3E8SXH0BAYG85","3L1EFR8WWTRIL5MKAR1UWRHK4IC9FJ","","null","<img src=""img/food1.png"" style=""width:200px; border:14px solid green;"">","null","","","","","","","","","",""
"","image-keyboard-response","56","60151","0.0-56.0","3ON104KXQLILL50XANK58QOSLFI4W7","A3E8SXH0BAYG85","3L1EFR8WWTRIL5MKAR1UWRHK4IC9FJ","","413.59999999403954","img/food1.png","75","415","2","1","2","1","1,0.5,0,1,0.5,0,0.5,0,1","0,1,0.5,0,1,0.5,1,0.5,0","3","",""
"","html-keyboard-response","57","60452","0.0-57.0","3ON104KXQLILL50XANK58QOSLFI4W7","A3E8SXH0BAYG85","3L1EFR8WWTRIL5MKAR1UWRHK4IC9FJ","","null","<img src=""img/food1.png"" style=""width:200px; border:14px solid green;"">","null","","","","","","","","","",""
"","image-keyboard-response","58","61672","0.0-58.0","3ON104KXQLILL50XANK58QOSLFI4W7","A3E8SXH0BAYG85","3L1EFR8WWTRIL5MKAR1UWRHK4IC9FJ","","1217.5","img/food1.png","75","1219.0999999940395","2","1","2","1","1,0.5,0,1,0.5,0,0.5,0,1","0,1,0.5,0,1,0.5,1,0.5,0","3","",""
"","html-keyboard-response","59","61975","0.0-59.0","3ON104KXQLILL50XANK58QOSLFI4W7","A3E8SXH0BAYG85","3L1EFR8WWTRIL5MKAR1UWRHK4IC9FJ","","null","<img src=""img/food1.png"" style=""width:200px; border:14px solid green;"">","null","","","","","","","","","",""
"","image-keyboard-response","60","63176","0.0-60.0","3ON104KXQLILL50XANK58QOSLFI4W7","A3E8SXH0BAYG85","3L1EFR8WWTRIL5MKAR1UWRHK4IC9FJ","","1199.0999999940395","img/food3.png","75","1200.699999988079","2","0","3","1","1,0.5,0,1,0.5,0,0.5,0,1","0,1,0.5,0,1,0.5,1,0.5,0","3","",""
"","html-keyboard-response","61","63479","0.0-61.0","3ON104KXQLILL50XANK58QOSLFI4W7","A3E8SXH0BAYG85","3L1EFR8WWTRIL5MKAR1UWRHK4IC9FJ","","null","<img src=""img/food3.png"" style=""width:200px;border:14px solid red;"">","null","","","","","","","","","",""
"","image-keyboard-response","62","63952","0.0-62.0","3ON104KXQLILL50XANK58QOSLFI4W7","A3E8SXH0BAYG85","3L1EFR8WWTRIL5MKAR1UWRHK4IC9FJ","","471.19999998807907","img/food1.png","76","472.7999999821186","3","1","2","1","1,0.5,0,1,0.5,0,0.5,0,1","0,1,0.5,0,1,0.5,1,0.5,0","3","",""
"","html-keyboard-response","63","64254","0.0-63.0","3ON104KXQLILL50XANK58QOSLFI4W7","A3E8SXH0BAYG85","3L1EFR8WWTRIL5MKAR1UWRHK4IC9FJ","","null","<img src=""img/food1.png"" style=""width:200px; border:14px solid green;"">","null","","","","","","","","","",""
"","image-keyboard-response","64","65143","0.0-64.0","3ON104KXQLILL50XANK58QOSLFI4W7","A3E8SXH0BAYG85","3L1EFR8WWTRIL5MKAR1UWRHK4IC9FJ","","886.4000000059605","img/food1.png","76","887.7000000178814","3","0","2","1","1,0.5,0,1,0.5,0,0.5,0,1","0,1,0.5,0,1,0.5,1,0.5,0","3","",""
"","html-keyboard-response","65","65444","0.0-65.0","3ON104KXQLILL50XANK58QOSLFI4W7","A3E8SXH0BAYG85","3L1EFR8WWTRIL5MKAR1UWRHK4IC9FJ","","null","<img src=""img/food1.png"" style=""width:200px;border:14px solid red;"">","null","","","","","","","","","",""
"","image-keyboard-response","66","65896","0.0-66.0","3ON104KXQLILL50XANK58QOSLFI4W7","A3E8SXH0BAYG85","3L1EFR8WWTRIL5MKAR1UWRHK4IC9FJ","","449.90000000596046","img/food1.png","75","451.39999997615814","2","1","2","1","1,0.5,0,1,0.5,0,0.5,0,1","0,1,0.5,0,1,0.5,1,0.5,0","3","",""
"","html-keyboard-response","67","66199","0.0-67.0","3ON104KXQLILL50XANK58QOSLFI4W7","A3E8SXH0BAYG85","3L1EFR8WWTRIL5MKAR1UWRHK4IC9FJ","","null","<img src=""img/food1.png"" style=""width:200px; border:14px solid green;"">","null","","","","","","","","","",""
"","image-keyboard-response","68","66600","0.0-68.0","3ON104KXQLILL50XANK58QOSLFI4W7","A3E8SXH0BAYG85","3L1EFR8WWTRIL5MKAR1UWRHK4IC9FJ","","398.40000000596046","img/food1.png","75","399.90000000596046","2","1","2","1","1,0.5,0,1,0.5,0,0.5,0,1","0,1,0.5,0,1,0.5,1,0.5,0","3","",""
"","html-keyboard-response","69","66902","0.0-69.0","3ON104KXQLILL50XANK58QOSLFI4W7","A3E8SXH0BAYG85","3L1EFR8WWTRIL5MKAR1UWRHK4IC9FJ","","null","<img src=""img/food1.png"" style=""width:200px; border:14px solid green;"">","null","","","","","","","","","",""
"","image-keyboard-response","70","67792","0.0-70.0","3ON104KXQLILL50XANK58QOSLFI4W7","A3E8SXH0BAYG85","3L1EFR8WWTRIL5MKAR1UWRHK4IC9FJ","","888.2000000178814","img/food1.png","75","889.8000000119209","2","1","2","1","1,0.5,0,1,0.5,0,0.5,0,1","0,1,0.5,0,1,0.5,1,0.5,0","3","",""
"","html-keyboard-response","71","68095","0.0-71.0","3ON104KXQLILL50XANK58QOSLFI4W7","A3E8SXH0BAYG85","3L1EFR8WWTRIL5MKAR1UWRHK4IC9FJ","","null","<img src=""img/food1.png"" style=""width:200px; border:14px solid green;"">","null","","","","","","","","","",""
"","image-keyboard-response","72","69336","0.0-72.0","3ON104KXQLILL50XANK58QOSLFI4W7","A3E8SXH0BAYG85","3L1EFR8WWTRIL5MKAR1UWRHK4IC9FJ","","1238.9000000059605","img/food3.png","75","1240.5","2","0","3","1","1,0.5,0,1,0.5,0,0.5,0,1","0,1,0.5,0,1,0.5,1,0.5,0","3","",""
"","html-keyboard-response","73","69639","0.0-73.0","3ON104KXQLILL50XANK58QOSLFI4W7","A3E8SXH0BAYG85","3L1EFR8WWTRIL5MKAR1UWRHK4IC9FJ","","null","<img src=""img/food3.png"" style=""width:200px;border:14px solid red;"">","null","","","","","","","","","",""
"","image-keyboard-response","74","70440","0.0-74.0","3ON104KXQLILL50XANK58QOSLFI4W7","A3E8SXH0BAYG85","3L1EFR8WWTRIL5MKAR1UWRHK4IC9FJ","","798.6999999880791","img/food5.png","76","800.1999999880791","3","1","1","1","1,0.5,0,1,0.5,0,0.5,0,1","0,1,0.5,0,1,0.5,1,0.5,0","3","",""
"","html-keyboard-response","75","70743","0.0-75.0","3ON104KXQLILL50XANK58QOSLFI4W7","A3E8SXH0BAYG85","3L1EFR8WWTRIL5MKAR1UWRHK4IC9FJ","","null","<img src=""img/food5.png"" style=""width:200px; border:14px solid green;"">","null","","","","","","","","","",""
"","image-keyboard-response","76","71720","0.0-76.0","3ON104KXQLILL50XANK58QOSLFI4W7","A3E8SXH0BAYG85","3L1EFR8WWTRIL5MKAR1UWRHK4IC9FJ","","974.1999999880791","img/food3.png","74","975.8999999761581","1","1","3","1","1,0.5,0,1,0.5,0,0.5,0,1","0,1,0.5,0,1,0.5,1,0.5,0","3","",""
"","html-keyboard-response","77","72023","0.0-77.0","3ON104KXQLILL50XANK58QOSLFI4W7","A3E8SXH0BAYG85","3L1EFR8WWTRIL5MKAR1UWRHK4IC9FJ","","null","<img src=""img/food3.png"" style=""width:200px; border:14px solid green;"">","null","","","","","","","","","",""
"","image-keyboard-response","78","73144","0.0-78.0","3ON104KXQLILL50XANK58QOSLFI4W7","A3E8SXH0BAYG85","3L1EFR8WWTRIL5MKAR1UWRHK4IC9FJ","","1119.300000011921","img/food5.png","76","1120.8999999761581","3","0","1","1","1,0.5,0,1,0.5,0,0.5,0,1","0,1,0.5,0,1,0.5,1,0.5,0","3","",""
"","html-keyboard-response","79","73447","0.0-79.0","3ON104KXQLILL50XANK58QOSLFI4W7","A3E8SXH0BAYG85","3L1EFR8WWTRIL5MKAR1UWRHK4IC9FJ","","null","<img src=""img/food5.png"" style=""width:200px;border:14px solid red;"">","null","","","","","","","","","",""
"","image-keyboard-response","80","74568","0.0-80.0","3ON104KXQLILL50XANK58QOSLFI4W7","A3E8SXH0BAYG85","3L1EFR8WWTRIL5MKAR1UWRHK4IC9FJ","","1118.800000011921","img/food1.png","74","1120.5","1","0","2","1","1,0.5,0,1,0.5,0,0.5,0,1","0,1,0.5,0,1,0.5,1,0.5,0","3","",""
"","html-keyboard-response","81","74870","0.0-81.0","3ON104KXQLILL50XANK58QOSLFI4W7","A3E8SXH0BAYG85","3L1EFR8WWTRIL5MKAR1UWRHK4IC9FJ","","null","<img src=""img/food1.png"" style=""width:200px;border:14px solid red;"">","null","","","","","","","","","",""
"","image-keyboard-response","82","75488","0.0-82.0","3ON104KXQLILL50XANK58QOSLFI4W7","A3E8SXH0BAYG85","3L1EFR8WWTRIL5MKAR1UWRHK4IC9FJ","","615.5999999940395","img/food1.png","76","617.1000000238419","3","1","2","1","1,0.5,0,1,0.5,0,0.5,0,1","0,1,0.5,0,1,0.5,1,0.5,0","3","",""
"","html-keyboard-response","83","75791","0.0-83.0","3ON104KXQLILL50XANK58QOSLFI4W7","A3E8SXH0BAYG85","3L1EFR8WWTRIL5MKAR1UWRHK4IC9FJ","","null","<img src=""img/food1.png"" style=""width:200px; border:14px solid green;"">","null","","","","","","","","","",""
"","image-keyboard-response","84","77056","0.0-84.0","3ON104KXQLILL50XANK58QOSLFI4W7","A3E8SXH0BAYG85","3L1EFR8WWTRIL5MKAR1UWRHK4IC9FJ","","1262.800000011921","img/food3.png","75","1264.2999999821186","2","0","3","1","1,0.5,0,1,0.5,0,0.5,0,1","0,1,0.5,0,1,0.5,1,0.5,0","3","",""
"","html-keyboard-response","85","77359","0.0-85.0","3ON104KXQLILL50XANK58QOSLFI4W7","A3E8SXH0BAYG85","3L1EFR8WWTRIL5MKAR1UWRHK4IC9FJ","","null","<img src=""img/food3.png"" style=""width:200px;border:14px solid red;"">","null","","","","","","","","","",""
"","image-keyboard-response","86","78344","0.0-86.0","3ON104KXQLILL50XANK58QOSLFI4W7","A3E8SXH0BAYG85","3L1EFR8WWTRIL5MKAR1UWRHK4IC9FJ","","983","img/food5.png","76","984.5","3","1","1","1","1,0.5,0,1,0.5,0,0.5,0,1","0,1,0.5,0,1,0.5,1,0.5,0","3","",""
"","html-keyboard-response","87","78646","0.0-87.0","3ON104KXQLILL50XANK58QOSLFI4W7","A3E8SXH0BAYG85","3L1EFR8WWTRIL5MKAR1UWRHK4IC9FJ","","null","<img src=""img/food5.png"" style=""width:200px; border:14px solid green;"">","null","","","","","","","","","",""
"","image-keyboard-response","88","79024","0.0-88.0","3ON104KXQLILL50XANK58QOSLFI4W7","A3E8SXH0BAYG85","3L1EFR8WWTRIL5MKAR1UWRHK4IC9FJ","","375.5","img/food5.png","76","377","3","1","1","1","1,0.5,0,1,0.5,0,0.5,0,1","0,1,0.5,0,1,0.5,1,0.5,0","3","",""
"","html-keyboard-response","89","79326","0.0-89.0","3ON104KXQLILL50XANK58QOSLFI4W7","A3E8SXH0BAYG85","3L1EFR8WWTRIL5MKAR1UWRHK4IC9FJ","","null","<img src=""img/food5.png"" style=""width:200px; border:14px solid green;"">","null","","","","","","","","","",""
"","image-keyboard-response","90","80672","0.0-90.0","3ON104KXQLILL50XANK58QOSLFI4W7","A3E8SXH0BAYG85","3L1EFR8WWTRIL5MKAR1UWRHK4IC9FJ","","1343.5999999940395","img/food1.png","75","1345","2","1","2","1","1,0.5,0,1,0.5,0,0.5,0,1","0,1,0.5,0,1,0.5,1,0.5,0","3","",""
"","html-keyboard-response","91","80975","0.0-91.0","3ON104KXQLILL50XANK58QOSLFI4W7","A3E8SXH0BAYG85","3L1EFR8WWTRIL5MKAR1UWRHK4IC9FJ","","null","<img src=""img/food1.png"" style=""width:200px; border:14px solid green;"">","null","","","","","","","","","",""
"","image-keyboard-response","92","81319","0.0-92.0","3ON104KXQLILL50XANK58QOSLFI4W7","A3E8SXH0BAYG85","3L1EFR8WWTRIL5MKAR1UWRHK4IC9FJ","","342.09999999403954","img/food1.png","75","343.39999997615814","2","1","2","1","1,0.5,0,1,0.5,0,0.5,0,1","0,1,0.5,0,1,0.5,1,0.5,0","3","",""
"","html-keyboard-response","93","81621","0.0-93.0","3ON104KXQLILL50XANK58QOSLFI4W7","A3E8SXH0BAYG85","3L1EFR8WWTRIL5MKAR1UWRHK4IC9FJ","","null","<img src=""img/food1.png"" style=""width:200px; border:14px solid green;"">","null","","","","","","","","","",""
"","image-keyboard-response","94","82336","0.0-94.0","3ON104KXQLILL50XANK58QOSLFI4W7","A3E8SXH0BAYG85","3L1EFR8WWTRIL5MKAR1UWRHK4IC9FJ","","712.4000000059605","img/food3.png","75","713.9000000059605","2","0","3","1","1,0.5,0,1,0.5,0,0.5,0,1","0,1,0.5,0,1,0.5,1,0.5,0","3","",""
"","html-keyboard-response","95","82638","0.0-95.0","3ON104KXQLILL50XANK58QOSLFI4W7","A3E8SXH0BAYG85","3L1EFR8WWTRIL5MKAR1UWRHK4IC9FJ","","null","<img src=""img/food3.png"" style=""width:200px;border:14px solid red;"">","null","","","","","","","","","",""
"","image-keyboard-response","96","83024","0.0-96.0","3ON104KXQLILL50XANK58QOSLFI4W7","A3E8SXH0BAYG85","3L1EFR8WWTRIL5MKAR1UWRHK4IC9FJ","","383.40000000596046","img/food3.png","75","385.19999998807907","2","0","3","1","1,0.5,0,1,0.5,0,0.5,0,1","0,1,0.5,0,1,0.5,1,0.5,0","3","",""
"","html-keyboard-response","97","83327","0.0-97.0","3ON104KXQLILL50XANK58QOSLFI4W7","A3E8SXH0BAYG85","3L1EFR8WWTRIL5MKAR1UWRHK4IC9FJ","","null","<img src=""img/food3.png"" style=""width:200px;border:14px solid red;"">","null","","","","","","","","","",""
"","image-keyboard-response","98","84040","0.0-98.0","3ON104KXQLILL50XANK58QOSLFI4W7","A3E8SXH0BAYG85","3L1EFR8WWTRIL5MKAR1UWRHK4IC9FJ","","711.1999999880791","img/food5.png","76","712.6999999880791","3","0","1","1","1,0.5,0,1,0.5,0,0.5,0,1","0,1,0.5,0,1,0.5,1,0.5,0","3","",""
"","html-keyboard-response","99","84343","0.0-99.0","3ON104KXQLILL50XANK58QOSLFI4W7","A3E8SXH0BAYG85","3L1EFR8WWTRIL5MKAR1UWRHK4IC9FJ","","null","<img src=""img/food5.png"" style=""width:200px;border:14px solid red;"">","null","","","","","","","","","",""
"","image-keyboard-response","100","85488","0.0-100.0","3ON104KXQLILL50XANK58QOSLFI4W7","A3E8SXH0BAYG85","3L1EFR8WWTRIL5MKAR1UWRHK4IC9FJ","","1142.9000000059605","img/food3.png","76","1144.5","3","0","3","1","1,0.5,0,1,0.5,0,0.5,0,1","0,1,0.5,0,1,0.5,1,0.5,0","3","",""
"","html-keyboard-response","101","85791","0.0-101.0","3ON104KXQLILL50XANK58QOSLFI4W7","A3E8SXH0BAYG85","3L1EFR8WWTRIL5MKAR1UWRHK4IC9FJ","","null","<img src=""img/food3.png"" style=""width:200px;border:14px solid red;"">","null","","","","","","","","","",""
"","image-keyboard-response","102","86976","0.0-102.0","3ON104KXQLILL50XANK58QOSLFI4W7","A3E8SXH0BAYG85","3L1EFR8WWTRIL5MKAR1UWRHK4IC9FJ","","1182.8999999761581","img/food5.png","76","1184.7999999821186","3","0","1","1","1,0.5,0,1,0.5,0,0.5,0,1","0,1,0.5,0,1,0.5,1,0.5,0","3","",""
"","html-keyboard-response","103","87279","0.0-103.0","3ON104KXQLILL50XANK58QOSLFI4W7","A3E8SXH0BAYG85","3L1EFR8WWTRIL5MKAR1UWRHK4IC9FJ","","null","<img src=""img/food5.png"" style=""width:200px;border:14px solid red;"">","null","","","","","","","","","",""
"","image-keyboard-response","104","87608","0.0-104.0","3ON104KXQLILL50XANK58QOSLFI4W7","A3E8SXH0BAYG85","3L1EFR8WWTRIL5MKAR1UWRHK4IC9FJ","","326.59999999403954","img/food5.png","76","328.09999999403954","3","0","1","1","1,0.5,0,1,0.5,0,0.5,0,1","0,1,0.5,0,1,0.5,1,0.5,0","3","",""
"","html-keyboard-response","105","87910","0.0-105.0","3ON104KXQLILL50XANK58QOSLFI4W7","A3E8SXH0BAYG85","3L1EFR8WWTRIL5MKAR1UWRHK4IC9FJ","","null","<img src=""img/food5.png"" style=""width:200px;border:14px solid red;"">","null","","","","","","","","","",""
"","image-keyboard-response","106","88832","0.0-106.0","3ON104KXQLILL50XANK58QOSLFI4W7","A3E8SXH0BAYG85","3L1EFR8WWTRIL5MKAR1UWRHK4IC9FJ","","919.5999999940395","img/food3.png","74","921.2000000178814","1","1","3","1","1,0.5,0,1,0.5,0,0.5,0,1","0,1,0.5,0,1,0.5,1,0.5,0","3","",""
"","html-keyboard-response","107","89134","0.0-107.0","3ON104KXQLILL50XANK58QOSLFI4W7","A3E8SXH0BAYG85","3L1EFR8WWTRIL5MKAR1UWRHK4IC9FJ","","null","<img src=""img/food3.png"" style=""width:200px; border:14px solid green;"">","null","","","","","","","","","",""
"","image-keyboard-response","108","89664","0.0-108.0","3ON104KXQLILL50XANK58QOSLFI4W7","A3E8SXH0BAYG85","3L1EFR8WWTRIL5MKAR1UWRHK4IC9FJ","","527.2000000178814","img/food3.png","74","528.7000000178814","1","1","3","1","1,0.5,0,1,0.5,0,0.5,0,1","0,1,0.5,0,1,0.5,1,0.5,0","3","",""
"","html-keyboard-response","109","89967","0.0-109.0","3ON104KXQLILL50XANK58QOSLFI4W7","A3E8SXH0BAYG85","3L1EFR8WWTRIL5MKAR1UWRHK4IC9FJ","","null","<img src=""img/food3.png"" style=""width:200px; border:14px solid green;"">","null","","","","","","","","","",""
"","image-keyboard-response","110","90456","0.0-110.0","3ON104KXQLILL50XANK58QOSLFI4W7","A3E8SXH0BAYG85","3L1EFR8WWTRIL5MKAR1UWRHK4IC9FJ","","486.40000000596046","img/food3.png","74","488","1","1","3","1","1,0.5,0,1,0.5,0,0.5,0,1","0,1,0.5,0,1,0.5,1,0.5,0","3","",""
"","html-keyboard-response","111","90759","0.0-111.0","3ON104KXQLILL50XANK58QOSLFI4W7","A3E8SXH0BAYG85","3L1EFR8WWTRIL5MKAR1UWRHK4IC9FJ","","null","<img src=""img/food3.png"" style=""width:200px; border:14px solid green;"">","null","","","","","","","","","",""
"","image-keyboard-response","112","92104","0.0-112.0","3ON104KXQLILL50XANK58QOSLFI4W7","A3E8SXH0BAYG85","3L1EFR8WWTRIL5MKAR1UWRHK4IC9FJ","","1342.7999999821186","img/food1.png","75","1344.3999999761581","2","1","2","1","1,0.5,0,1,0.5,0,0.5,0,1","0,1,0.5,0,1,0.5,1,0.5,0","3","",""
"","html-keyboard-response","113","92407","0.0-113.0","3ON104KXQLILL50XANK58QOSLFI4W7","A3E8SXH0BAYG85","3L1EFR8WWTRIL5MKAR1UWRHK4IC9FJ","","null","<img src=""img/food1.png"" style=""width:200px; border:14px solid green;"">","null","","","","","","","","","",""
"","image-keyboard-response","114","93184","0.0-114.0","3ON104KXQLILL50XANK58QOSLFI4W7","A3E8SXH0BAYG85","3L1EFR8WWTRIL5MKAR1UWRHK4IC9FJ","","775.0999999940395","img/food3.png","74","776.5999999940395","1","1","3","1","1,0.5,0,1,0.5,0,0.5,0,1","0,1,0.5,0,1,0.5,1,0.5,0","3","",""
"","html-keyboard-response","115","93487","0.0-115.0","3ON104KXQLILL50XANK58QOSLFI4W7","A3E8SXH0BAYG85","3L1EFR8WWTRIL5MKAR1UWRHK4IC9FJ","","null","<img src=""img/food3.png"" style=""width:200px; border:14px solid green;"">","null","","","","","","","","","",""
"","image-keyboard-response","116","94264","0.0-116.0","3ON104KXQLILL50XANK58QOSLFI4W7","A3E8SXH0BAYG85","3L1EFR8WWTRIL5MKAR1UWRHK4IC9FJ","","774.4000000059605","img/food5.png","76","776.0999999940395","3","0","1","1","1,0.5,0,1,0.5,0,0.5,0,1","0,1,0.5,0,1,0.5,1,0.5,0","3","",""
"","html-keyboard-response","117","94567","0.0-117.0","3ON104KXQLILL50XANK58QOSLFI4W7","A3E8SXH0BAYG85","3L1EFR8WWTRIL5MKAR1UWRHK4IC9FJ","","null","<img src=""img/food5.png"" style=""width:200px;border:14px solid red;"">","null","","","","","","","","","",""
"","image-keyboard-response","118","94920","0.0-118.0","3ON104KXQLILL50XANK58QOSLFI4W7","A3E8SXH0BAYG85","3L1EFR8WWTRIL5MKAR1UWRHK4IC9FJ","","350.59999999403954","img/food5.png","76","352.5","3","0","1","1","1,0.5,0,1,0.5,0,0.5,0,1","0,1,0.5,0,1,0.5,1,0.5,0","3","",""
"","html-keyboard-response","119","95223","0.0-119.0","3ON104KXQLILL50XANK58QOSLFI4W7","A3E8SXH0BAYG85","3L1EFR8WWTRIL5MKAR1UWRHK4IC9FJ","","null","<img src=""img/food5.png"" style=""width:200px;border:14px solid red;"">","null","","","","","","","","","",""
"","image-keyboard-response","120","96272","0.0-120.0","3ON104KXQLILL50XANK58QOSLFI4W7","A3E8SXH0BAYG85","3L1EFR8WWTRIL5MKAR1UWRHK4IC9FJ","","1047","img/food3.png","75","1048.5999999940395","2","0","3","1","1,0.5,0,1,0.5,0,0.5,0,1","0,1,0.5,0,1,0.5,1,0.5,0","3","",""
"","html-keyboard-response","121","96577","0.0-121.0","3ON104KXQLILL50XANK58QOSLFI4W7","A3E8SXH0BAYG85","3L1EFR8WWTRIL5MKAR1UWRHK4IC9FJ","","null","<img src=""img/food3.png"" style=""width:200px;border:14px solid red;"">","null","","","","","","","","","",""
"","image-keyboard-response","122","97728","0.0-122.0","3ON104KXQLILL50XANK58QOSLFI4W7","A3E8SXH0BAYG85","3L1EFR8WWTRIL5MKAR1UWRHK4IC9FJ","","1148.699999988079","img/food5.png","76","1150.300000011921","3","0","1","1","1,0.5,0,1,0.5,0,0.5,0,1","0,1,0.5,0,1,0.5,1,0.5,0","3","",""
"","html-keyboard-response","123","98030","0.0-123.0","3ON104KXQLILL50XANK58QOSLFI4W7","A3E8SXH0BAYG85","3L1EFR8WWTRIL5MKAR1UWRHK4IC9FJ","","null","<img src=""img/food5.png"" style=""width:200px;border:14px solid red;"">","null","","","","","","","","","",""
"","image-keyboard-response","124","98344","0.0-124.0","3ON104KXQLILL50XANK58QOSLFI4W7","A3E8SXH0BAYG85","3L1EFR8WWTRIL5MKAR1UWRHK4IC9FJ","","311.5","img/food5.png","76","313","3","0","1","1","1,0.5,0,1,0.5,0,0.5,0,1","0,1,0.5,0,1,0.5,1,0.5,0","3","",""
"","html-keyboard-response","125","98647","0.0-125.0","3ON104KXQLILL50XANK58QOSLFI4W7","A3E8SXH0BAYG85","3L1EFR8WWTRIL5MKAR1UWRHK4IC9FJ","","null","<img src=""img/food5.png"" style=""width:200px;border:14px solid red;"">","null","","","","","","","","","",""
"","image-keyboard-response","126","99648","0.0-126.0","3ON104KXQLILL50XANK58QOSLFI4W7","A3E8SXH0BAYG85","3L1EFR8WWTRIL5MKAR1UWRHK4IC9FJ","","999.2999999821186","img/food3.png","74","1000.8999999761581","1","1","3","1","1,0.5,0,1,0.5,0,0.5,0,1","0,1,0.5,0,1,0.5,1,0.5,0","3","",""
"","html-keyboard-response","127","99950","0.0-127.0","3ON104KXQLILL50XANK58QOSLFI4W7","A3E8SXH0BAYG85","3L1EFR8WWTRIL5MKAR1UWRHK4IC9FJ","","null","<img src=""img/food3.png"" style=""width:200px; border:14px solid green;"">","null","","","","","","","","","",""
"","image-keyboard-response","128","100848","0.0-128.0","3ON104KXQLILL50XANK58QOSLFI4W7","A3E8SXH0BAYG85","3L1EFR8WWTRIL5MKAR1UWRHK4IC9FJ","","895.4000000059605","img/food1.png","75","897.0999999940395","2","1","2","1","1,0.5,0,1,0.5,0,0.5,0,1","0,1,0.5,0,1,0.5,1,0.5,0","3","",""
"","html-keyboard-response","129","101151","0.0-129.0","3ON104KXQLILL50XANK58QOSLFI4W7","A3E8SXH0BAYG85","3L1EFR8WWTRIL5MKAR1UWRHK4IC9FJ","","null","<img src=""img/food1.png"" style=""width:200px; border:14px solid green;"">","null","","","","","","","","","",""
"","image-keyboard-response","130","102080","0.0-130.0","3ON104KXQLILL50XANK58QOSLFI4W7","A3E8SXH0BAYG85","3L1EFR8WWTRIL5MKAR1UWRHK4IC9FJ","","927.1999999880791","img/food5.png","76","928.8999999761581","3","0","1","1","1,0.5,0,1,0.5,0,0.5,0,1","0,1,0.5,0,1,0.5,1,0.5,0","3","",""
"","html-keyboard-response","131","102382","0.0-131.0","3ON104KXQLILL50XANK58QOSLFI4W7","A3E8SXH0BAYG85","3L1EFR8WWTRIL5MKAR1UWRHK4IC9FJ","","null","<img src=""img/food5.png"" style=""width:200px;border:14px solid red;"">","null","","","","","","","","","",""
"","image-keyboard-response","132","102992","0.0-132.0","3ON104KXQLILL50XANK58QOSLFI4W7","A3E8SXH0BAYG85","3L1EFR8WWTRIL5MKAR1UWRHK4IC9FJ","","607.5","img/food5.png","75","610.5999999940395","2","1","1","1","1,0.5,0,1,0.5,0,0.5,0,1","0,1,0.5,0,1,0.5,1,0.5,0","3","",""
"","html-keyboard-response","133","103295","0.0-133.0","3ON104KXQLILL50XANK58QOSLFI4W7","A3E8SXH0BAYG85","3L1EFR8WWTRIL5MKAR1UWRHK4IC9FJ","","null","<img src=""img/food5.png"" style=""width:200px; border:14px solid green;"">","null","","","","","","","","","",""
"","image-keyboard-response","134","104336","0.0-134.0","3ON104KXQLILL50XANK58QOSLFI4W7","A3E8SXH0BAYG85","3L1EFR8WWTRIL5MKAR1UWRHK4IC9FJ","","1038.4000000059605","img/food3.png","74","1040.0999999940395","1","1","3","1","1,0.5,0,1,0.5,0,0.5,0,1","0,1,0.5,0,1,0.5,1,0.5,0","3","",""
"","html-keyboard-response","135","104639","0.0-135.0","3ON104KXQLILL50XANK58QOSLFI4W7","A3E8SXH0BAYG85","3L1EFR8WWTRIL5MKAR1UWRHK4IC9FJ","","null","<img src=""img/food3.png"" style=""width:200px; border:14px solid green;"">","null","","","","","","","","","",""
"","image-keyboard-response","136","105664","0.0-136.0","3ON104KXQLILL50XANK58QOSLFI4W7","A3E8SXH0BAYG85","3L1EFR8WWTRIL5MKAR1UWRHK4IC9FJ","","1022.9000000059605","img/food5.png","75","1024.4000000059605","2","1","1","1","1,0.5,0,1,0.5,0,0.5,0,1","0,1,0.5,0,1,0.5,1,0.5,0","3","",""
"","html-keyboard-response","137","105966","0.0-137.0","3ON104KXQLILL50XANK58QOSLFI4W7","A3E8SXH0BAYG85","3L1EFR8WWTRIL5MKAR1UWRHK4IC9FJ","","null","<img src=""img/food5.png"" style=""width:200px; border:14px solid green;"">","null","","","","","","","","","",""
"","image-keyboard-response","138","106776","0.0-138.0","3ON104KXQLILL50XANK58QOSLFI4W7","A3E8SXH0BAYG85","3L1EFR8WWTRIL5MKAR1UWRHK4IC9FJ","","807.9000000059605","img/food3.png","74","809.0999999940395","1","1","3","1","1,0.5,0,1,0.5,0,0.5,0,1","0,1,0.5,0,1,0.5,1,0.5,0","3","",""
"","html-keyboard-response","139","107079","0.0-139.0","3ON104KXQLILL50XANK58QOSLFI4W7","A3E8SXH0BAYG85","3L1EFR8WWTRIL5MKAR1UWRHK4IC9FJ","","null","<img src=""img/food3.png"" style=""width:200px; border:14px solid green;"">","null","","","","","","","","","",""
"","image-keyboard-response","140","108176","0.0-140.0","3ON104KXQLILL50XANK58QOSLFI4W7","A3E8SXH0BAYG85","3L1EFR8WWTRIL5MKAR1UWRHK4IC9FJ","","1094.5","img/food1.png","75","1095.9000000059605","2","1","2","1","1,0.5,0,1,0.5,0,0.5,0,1","0,1,0.5,0,1,0.5,1,0.5,0","3","",""
"","html-keyboard-response","141","108479","0.0-141.0","3ON104KXQLILL50XANK58QOSLFI4W7","A3E8SXH0BAYG85","3L1EFR8WWTRIL5MKAR1UWRHK4IC9FJ","","null","<img src=""img/food1.png"" style=""width:200px; border:14px solid green;"">","null","","","","","","","","","",""
"","image-keyboard-response","142","109504","0.0-142.0","3ON104KXQLILL50XANK58QOSLFI4W7","A3E8SXH0BAYG85","3L1EFR8WWTRIL5MKAR1UWRHK4IC9FJ","","1023","img/food3.png","74","1024.5999999940395","1","1","3","1","1,0.5,0,1,0.5,0,0.5,0,1","0,1,0.5,0,1,0.5,1,0.5,0","3","",""
"","html-keyboard-response","143","109807","0.0-143.0","3ON104KXQLILL50XANK58QOSLFI4W7","A3E8SXH0BAYG85","3L1EFR8WWTRIL5MKAR1UWRHK4IC9FJ","","null","<img src=""img/food3.png"" style=""width:200px; border:14px solid green;"">","null","","","","","","","","","",""
"","image-keyboard-response","144","110440","0.0-144.0","3ON104KXQLILL50XANK58QOSLFI4W7","A3E8SXH0BAYG85","3L1EFR8WWTRIL5MKAR1UWRHK4IC9FJ","","631.5999999940395","img/food3.png","74","632.5999999940395","1","1","3","1","1,0.5,0,1,0.5,0,0.5,0,1","0,1,0.5,0,1,0.5,1,0.5,0","3","",""
"","html-keyboard-response","145","110743","0.0-145.0","3ON104KXQLILL50XANK58QOSLFI4W7","A3E8SXH0BAYG85","3L1EFR8WWTRIL5MKAR1UWRHK4IC9FJ","","null","<img src=""img/food3.png"" style=""width:200px; border:14px solid green;"">","null","","","","","","","","","",""
"","image-keyboard-response","146","111767","0.0-146.0","3ON104KXQLILL50XANK58QOSLFI4W7","A3E8SXH0BAYG85","3L1EFR8WWTRIL5MKAR1UWRHK4IC9FJ","","1022.9000000059605","img/food5.png","75","1023.7000000178814","2","1","1","1","1,0.5,0,1,0.5,0,0.5,0,1","0,1,0.5,0,1,0.5,1,0.5,0","3","",""
"","html-keyboard-response","147","112069","0.0-147.0","3ON104KXQLILL50XANK58QOSLFI4W7","A3E8SXH0BAYG85","3L1EFR8WWTRIL5MKAR1UWRHK4IC9FJ","","null","<img src=""img/food5.png"" style=""width:200px; border:14px solid green;"">","null","","","","","","","","","",""
"","image-keyboard-response","148","112496","0.0-148.0","3ON104KXQLILL50XANK58QOSLFI4W7","A3E8SXH0BAYG85","3L1EFR8WWTRIL5MKAR1UWRHK4IC9FJ","","424.30000001192093","img/food5.png","75","425.90000000596046","2","1","1","1","1,0.5,0,1,0.5,0,0.5,0,1","0,1,0.5,0,1,0.5,1,0.5,0","3","",""
"","html-keyboard-response","149","112799","0.0-149.0","3ON104KXQLILL50XANK58QOSLFI4W7","A3E8SXH0BAYG85","3L1EFR8WWTRIL5MKAR1UWRHK4IC9FJ","","null","<img src=""img/food5.png"" style=""width:200px; border:14px solid green;"">","null","","","","","","","","","",""
"","image-keyboard-response","150","113200","0.0-150.0","3ON104KXQLILL50XANK58QOSLFI4W7","A3E8SXH0BAYG85","3L1EFR8WWTRIL5MKAR1UWRHK4IC9FJ","","398.90000000596046","img/food5.png","75","400.59999999403954","2","1","1","1","1,0.5,0,1,0.5,0,0.5,0,1","0,1,0.5,0,1,0.5,1,0.5,0","3","",""
"","html-keyboard-response","151","113502","0.0-151.0","3ON104KXQLILL50XANK58QOSLFI4W7","A3E8SXH0BAYG85","3L1EFR8WWTRIL5MKAR1UWRHK4IC9FJ","","null","<img src=""img/food5.png"" style=""width:200px; border:14px solid green;"">","null","","","","","","","","","",""
"","image-keyboard-response","152","114472","0.0-152.0","3ON104KXQLILL50XANK58QOSLFI4W7","A3E8SXH0BAYG85","3L1EFR8WWTRIL5MKAR1UWRHK4IC9FJ","","967.5999999940395","img/food3.png","74","969.1999999880791","1","1","3","1","1,0.5,0,1,0.5,0,0.5,0,1","0,1,0.5,0,1,0.5,1,0.5,0","3","",""
"","html-keyboard-response","153","114775","0.0-153.0","3ON104KXQLILL50XANK58QOSLFI4W7","A3E8SXH0BAYG85","3L1EFR8WWTRIL5MKAR1UWRHK4IC9FJ","","null","<img src=""img/food3.png"" style=""width:200px; border:14px solid green;"">","null","","","","","","","","","",""
"","image-keyboard-response","154","115694","0.0-154.0","3ON104KXQLILL50XANK58QOSLFI4W7","A3E8SXH0BAYG85","3L1EFR8WWTRIL5MKAR1UWRHK4IC9FJ","","917.3000000119209","img/food5.png","75","918.4000000059605","2","1","1","1","1,0.5,0,1,0.5,0,0.5,0,1","0,1,0.5,0,1,0.5,1,0.5,0","3","",""
"","html-keyboard-response","155","115996","0.0-155.0","3ON104KXQLILL50XANK58QOSLFI4W7","A3E8SXH0BAYG85","3L1EFR8WWTRIL5MKAR1UWRHK4IC9FJ","","null","<img src=""img/food5.png"" style=""width:200px; border:14px solid green;"">","null","","","","","","","","","",""
"","image-keyboard-response","156","116840","0.0-156.0","3ON104KXQLILL50XANK58QOSLFI4W7","A3E8SXH0BAYG85","3L1EFR8WWTRIL5MKAR1UWRHK4IC9FJ","","841.7000000178814","img/food1.png","75","843.1999999880791","2","1","2","1","1,0.5,0,1,0.5,0,0.5,0,1","0,1,0.5,0,1,0.5,1,0.5,0","3","",""
"","html-keyboard-response","157","117142","0.0-157.0","3ON104KXQLILL50XANK58QOSLFI4W7","A3E8SXH0BAYG85","3L1EFR8WWTRIL5MKAR1UWRHK4IC9FJ","","null","<img src=""img/food1.png"" style=""width:200px; border:14px solid green;"">","null","","","","","","","","","",""
"","image-keyboard-response","158","117520","0.0-158.0","3ON104KXQLILL50XANK58QOSLFI4W7","A3E8SXH0BAYG85","3L1EFR8WWTRIL5MKAR1UWRHK4IC9FJ","","375.2000000178814","img/food1.png","75","376.69999998807907","2","1","2","1","1,0.5,0,1,0.5,0,0.5,0,1","0,1,0.5,0,1,0.5,1,0.5,0","3","",""
"","html-keyboard-response","159","117822","0.0-159.0","3ON104KXQLILL50XANK58QOSLFI4W7","A3E8SXH0BAYG85","3L1EFR8WWTRIL5MKAR1UWRHK4IC9FJ","","null","<img src=""img/food1.png"" style=""width:200px; border:14px solid green;"">","null","","","","","","","","","",""
"","image-keyboard-response","160","119519","0.0-160.0","3ON104KXQLILL50XANK58QOSLFI4W7","A3E8SXH0BAYG85","3L1EFR8WWTRIL5MKAR1UWRHK4IC9FJ","","1694.199999988079","img/food5.png","75","1695.800000011921","2","1","1","1","1,0.5,0,1,0.5,0,0.5,0,1","0,1,0.5,0,1,0.5,1,0.5,0","3","",""
"","html-keyboard-response","161","119821","0.0-161.0","3ON104KXQLILL50XANK58QOSLFI4W7","A3E8SXH0BAYG85","3L1EFR8WWTRIL5MKAR1UWRHK4IC9FJ","","null","<img src=""img/food5.png"" style=""width:200px; border:14px solid green;"">","null","","","","","","","","","",""
"","image-keyboard-response","162","120216","0.0-162.0","3ON104KXQLILL50XANK58QOSLFI4W7","A3E8SXH0BAYG85","3L1EFR8WWTRIL5MKAR1UWRHK4IC9FJ","","392.80000001192093","img/food5.png","75","394.40000000596046","2","1","1","1","1,0.5,0,1,0.5,0,0.5,0,1","0,1,0.5,0,1,0.5,1,0.5,0","3","",""
"","html-keyboard-response","163","120520","0.0-163.0","3ON104KXQLILL50XANK58QOSLFI4W7","A3E8SXH0BAYG85","3L1EFR8WWTRIL5MKAR1UWRHK4IC9FJ","","null","<img src=""img/food5.png"" style=""width:200px; border:14px solid green;"">","null","","","","","","","","","",""
"","image-keyboard-response","164","121624","0.0-164.0","3ON104KXQLILL50XANK58QOSLFI4W7","A3E8SXH0BAYG85","3L1EFR8WWTRIL5MKAR1UWRHK4IC9FJ","","1103.199999988079","img/food1.png","75","1104.2999999821186","2","1","2","1","1,0.5,0,1,0.5,0,0.5,0,1","0,1,0.5,0,1,0.5,1,0.5,0","3","",""
"","html-keyboard-response","165","121927","0.0-165.0","3ON104KXQLILL50XANK58QOSLFI4W7","A3E8SXH0BAYG85","3L1EFR8WWTRIL5MKAR1UWRHK4IC9FJ","","null","<img src=""img/food1.png"" style=""width:200px; border:14px solid green;"">","null","","","","","","","","","",""
"","image-keyboard-response","166","122344","0.0-166.0","3ON104KXQLILL50XANK58QOSLFI4W7","A3E8SXH0BAYG85","3L1EFR8WWTRIL5MKAR1UWRHK4IC9FJ","","415","img/food1.png","75","416.69999998807907","2","1","2","1","1,0.5,0,1,0.5,0,0.5,0,1","0,1,0.5,0,1,0.5,1,0.5,0","3","",""
"","html-keyboard-response","167","122647","0.0-167.0","3ON104KXQLILL50XANK58QOSLFI4W7","A3E8SXH0BAYG85","3L1EFR8WWTRIL5MKAR1UWRHK4IC9FJ","","null","<img src=""img/food1.png"" style=""width:200px; border:14px solid green;"">","null","","","","","","","","","",""
"","image-keyboard-response","168","123008","0.0-168.0","3ON104KXQLILL50XANK58QOSLFI4W7","A3E8SXH0BAYG85","3L1EFR8WWTRIL5MKAR1UWRHK4IC9FJ","","359","img/food1.png","75","360.69999998807907","2","1","2","1","1,0.5,0,1,0.5,0,0.5,0,1","0,1,0.5,0,1,0.5,1,0.5,0","3","",""
"","html-keyboard-response","169","123311","0.0-169.0","3ON104KXQLILL50XANK58QOSLFI4W7","A3E8SXH0BAYG85","3L1EFR8WWTRIL5MKAR1UWRHK4IC9FJ","","null","<img src=""img/food1.png"" style=""width:200px; border:14px solid green;"">","null","","","","","","","","","",""
"","image-keyboard-response","170","123815","0.0-170.0","3ON104KXQLILL50XANK58QOSLFI4W7","A3E8SXH0BAYG85","3L1EFR8WWTRIL5MKAR1UWRHK4IC9FJ","","502.30000001192093","img/food3.png","74","503.5","1","1","3","1","1,0.5,0,1,0.5,0,0.5,0,1","0,1,0.5,0,1,0.5,1,0.5,0","3","",""
"","html-keyboard-response","171","124117","0.0-171.0","3ON104KXQLILL50XANK58QOSLFI4W7","A3E8SXH0BAYG85","3L1EFR8WWTRIL5MKAR1UWRHK4IC9FJ","","null","<img src=""img/food3.png"" style=""width:200px; border:14px solid green;"">","null","","","","","","","","","",""
"","image-keyboard-response","172","124504","0.0-172.0","3ON104KXQLILL50XANK58QOSLFI4W7","A3E8SXH0BAYG85","3L1EFR8WWTRIL5MKAR1UWRHK4IC9FJ","","385.60000002384186","img/food3.png","74","387.30000001192093","1","1","3","1","1,0.5,0,1,0.5,0,0.5,0,1","0,1,0.5,0,1,0.5,1,0.5,0","3","",""
"","html-keyboard-response","173","124807","0.0-173.0","3ON104KXQLILL50XANK58QOSLFI4W7","A3E8SXH0BAYG85","3L1EFR8WWTRIL5MKAR1UWRHK4IC9FJ","","null","<img src=""img/food3.png"" style=""width:200px; border:14px solid green;"">","null","","","","","","","","","",""
"","image-keyboard-response","174","125688","0.0-174.0","3ON104KXQLILL50XANK58QOSLFI4W7","A3E8SXH0BAYG85","3L1EFR8WWTRIL5MKAR1UWRHK4IC9FJ","","878.5999999940395","img/food5.png","75","880.3000000119209","2","1","1","1","1,0.5,0,1,0.5,0,0.5,0,1","0,1,0.5,0,1,0.5,1,0.5,0","3","",""
"","html-keyboard-response","175","125991","0.0-175.0","3ON104KXQLILL50XANK58QOSLFI4W7","A3E8SXH0BAYG85","3L1EFR8WWTRIL5MKAR1UWRHK4IC9FJ","","null","<img src=""img/food5.png"" style=""width:200px; border:14px solid green;"">","null","","","","","","","","","",""
"","image-keyboard-response","176","126528","0.0-176.0","3ON104KXQLILL50XANK58QOSLFI4W7","A3E8SXH0BAYG85","3L1EFR8WWTRIL5MKAR1UWRHK4IC9FJ","","535.3000000119209","img/food1.png","75","536.9000000059605","2","1","2","1","1,0.5,0,1,0.5,0,0.5,0,1","0,1,0.5,0,1,0.5,1,0.5,0","3","",""
"","html-keyboard-response","177","126831","0.0-177.0","3ON104KXQLILL50XANK58QOSLFI4W7","A3E8SXH0BAYG85","3L1EFR8WWTRIL5MKAR1UWRHK4IC9FJ","","null","<img src=""img/food1.png"" style=""width:200px; border:14px solid green;"">","null","","","","","","","","","",""
"","image-keyboard-response","178","127336","0.0-178.0","3ON104KXQLILL50XANK58QOSLFI4W7","A3E8SXH0BAYG85","3L1EFR8WWTRIL5MKAR1UWRHK4IC9FJ","","503.2000000178814","img/food1.png","75","504.69999998807907","2","1","2","1","1,0.5,0,1,0.5,0,0.5,0,1","0,1,0.5,0,1,0.5,1,0.5,0","3","",""
"","html-keyboard-response","179","127639","0.0-179.0","3ON104KXQLILL50XANK58QOSLFI4W7","A3E8SXH0BAYG85","3L1EFR8WWTRIL5MKAR1UWRHK4IC9FJ","","null","<img src=""img/food1.png"" style=""width:200px; border:14px solid green;"">","null","","","","","","","","","",""
"","image-keyboard-response","180","128008","0.0-180.0","3ON104KXQLILL50XANK58QOSLFI4W7","A3E8SXH0BAYG85","3L1EFR8WWTRIL5MKAR1UWRHK4IC9FJ","","366.7000000178814","img/food1.png","75","368.40000000596046","2","1","2","1","1,0.5,0,1,0.5,0,0.5,0,1","0,1,0.5,0,1,0.5,1,0.5,0","3","",""
"","html-keyboard-response","181","128310","0.0-181.0","3ON104KXQLILL50XANK58QOSLFI4W7","A3E8SXH0BAYG85","3L1EFR8WWTRIL5MKAR1UWRHK4IC9FJ","","null","<img src=""img/food1.png"" style=""width:200px; border:14px solid green;"">","null","","","","","","","","","",""
"","html-keyboard-response","182","131543","0.0-182.0","3ON104KXQLILL50XANK58QOSLFI4W7","A3E8SXH0BAYG85","3L1EFR8WWTRIL5MKAR1UWRHK4IC9FJ","","","","","","","","","","","","","",""
"","instructions","183","143927","0.0-183.0","3ON104KXQLILL50XANK58QOSLFI4W7","A3E8SXH0BAYG85","3L1EFR8WWTRIL5MKAR1UWRHK4IC9FJ","[{""page_index"":0,""viewing_time"":9959.199999988079},{""page_index"":1,""viewing_time"":2423.9000000059605}]","12383.300000011921","","","","","","","","","","","",""
"","image-keyboard-response","184","144440","0.0-184.0","3ON104KXQLILL50XANK58QOSLFI4W7","A3E8SXH0BAYG85","3L1EFR8WWTRIL5MKAR1UWRHK4IC9FJ","","511.7000000178814","img/food2.png","75","513.4000000059605","2","0","1","2","1,0.5,0,1,0.5,0,0.5,0,1","0.5,0,1,0.5,0,1,0,1,0.5","2","false",""
"","html-keyboard-response","185","144743","0.0-185.0","3ON104KXQLILL50XANK58QOSLFI4W7","A3E8SXH0BAYG85","3L1EFR8WWTRIL5MKAR1UWRHK4IC9FJ","","null","<img src=""img/food2.png"" style=""width:200px;border:14px solid red;"">","null","","","","","","","","","",""
"","image-keyboard-response","186","145439","0.0-187.0","3ON104KXQLILL50XANK58QOSLFI4W7","A3E8SXH0BAYG85","3L1EFR8WWTRIL5MKAR1UWRHK4IC9FJ","","693","img/food4.png","76","694.5","3","1","2","2","1,0.5,0,1,0.5,0,0.5,0,1","0.5,0,1,0.5,0,1,0,1,0.5","2","false",""
"","html-keyboard-response","187","145740","0.0-188.0","3ON104KXQLILL50XANK58QOSLFI4W7","A3E8SXH0BAYG85","3L1EFR8WWTRIL5MKAR1UWRHK4IC9FJ","","null","<img src=""img/food4.png"" style=""width:200px; border:14px solid green;"">","null","","","","","","","","","",""
"","image-keyboard-response","188","146592","0.0-190.0","3ON104KXQLILL50XANK58QOSLFI4W7","A3E8SXH0BAYG85","3L1EFR8WWTRIL5MKAR1UWRHK4IC9FJ","","848.5999999940395","img/food2.png","74","850.5","1","1","1","2","1,0.5,0,1,0.5,0,0.5,0,1","0.5,0,1,0.5,0,1,0,1,0.5","2","false",""
"","html-keyboard-response","189","146895","0.0-191.0","3ON104KXQLILL50XANK58QOSLFI4W7","A3E8SXH0BAYG85","3L1EFR8WWTRIL5MKAR1UWRHK4IC9FJ","","null","<img src=""img/food2.png"" style=""width:200px; border:14px solid green;"">","null","","","","","","","","","",""
"","image-keyboard-response","190","147376","0.0-193.0","3ON104KXQLILL50XANK58QOSLFI4W7","A3E8SXH0BAYG85","3L1EFR8WWTRIL5MKAR1UWRHK4IC9FJ","","478.90000000596046","img/food2.png","74","480.2999999821186","1","1","1","2","1,0.5,0,1,0.5,0,0.5,0,1","0.5,0,1,0.5,0,1,0,1,0.5","2","false",""
"","html-keyboard-response","191","147679","0.0-194.0","3ON104KXQLILL50XANK58QOSLFI4W7","A3E8SXH0BAYG85","3L1EFR8WWTRIL5MKAR1UWRHK4IC9FJ","","null","<img src=""img/food2.png"" style=""width:200px; border:14px solid green;"">","null","","","","","","","","","",""
"","image-keyboard-response","192","148488","0.0-196.0","3ON104KXQLILL50XANK58QOSLFI4W7","A3E8SXH0BAYG85","3L1EFR8WWTRIL5MKAR1UWRHK4IC9FJ","","806.7999999821186","img/food6.png","75","808.5999999940395","2","1","3","2","1,0.5,0,1,0.5,0,0.5,0,1","0.5,0,1,0.5,0,1,0,1,0.5","2","false",""
"","html-keyboard-response","193","148791","0.0-197.0","3ON104KXQLILL50XANK58QOSLFI4W7","A3E8SXH0BAYG85","3L1EFR8WWTRIL5MKAR1UWRHK4IC9FJ","","null","<img src=""img/food6.png"" style=""width:200px; border:14px solid green;"">","null","","","","","","","","","",""
"","image-keyboard-response","194","149168","0.0-199.0","3ON104KXQLILL50XANK58QOSLFI4W7","A3E8SXH0BAYG85","3L1EFR8WWTRIL5MKAR1UWRHK4IC9FJ","","373.90000000596046","img/food6.png","75","375.69999998807907","2","1","3","2","1,0.5,0,1,0.5,0,0.5,0,1","0.5,0,1,0.5,0,1,0,1,0.5","2","false",""
"","html-keyboard-response","195","149471","0.0-200.0","3ON104KXQLILL50XANK58QOSLFI4W7","A3E8SXH0BAYG85","3L1EFR8WWTRIL5MKAR1UWRHK4IC9FJ","","null","<img src=""img/food6.png"" style=""width:200px; border:14px solid green;"">","null","","","","","","","","","",""
"","image-keyboard-response","196","149832","0.0-202.0","3ON104KXQLILL50XANK58QOSLFI4W7","A3E8SXH0BAYG85","3L1EFR8WWTRIL5MKAR1UWRHK4IC9FJ","","358.60000002384186","img/food6.png","75","360.5","2","1","3","2","1,0.5,0,1,0.5,0,0.5,0,1","0.5,0,1,0.5,0,1,0,1,0.5","2","false",""
"","html-keyboard-response","197","150135","0.0-203.0","3ON104KXQLILL50XANK58QOSLFI4W7","A3E8SXH0BAYG85","3L1EFR8WWTRIL5MKAR1UWRHK4IC9FJ","","null","<img src=""img/food6.png"" style=""width:200px; border:14px solid green;"">","null","","","","","","","","","",""
"","image-keyboard-response","198","150536","0.0-205.0","3ON104KXQLILL50XANK58QOSLFI4W7","A3E8SXH0BAYG85","3L1EFR8WWTRIL5MKAR1UWRHK4IC9FJ","","398.90000000596046","img/food6.png","75","400.5","2","1","3","2","1,0.5,0,1,0.5,0,0.5,0,1","0.5,0,1,0.5,0,1,0,1,0.5","2","false",""
"","html-keyboard-response","199","150838","0.0-206.0","3ON104KXQLILL50XANK58QOSLFI4W7","A3E8SXH0BAYG85","3L1EFR8WWTRIL5MKAR1UWRHK4IC9FJ","","null","<img src=""img/food6.png"" style=""width:200px; border:14px solid green;"">","null","","","","","","","","","",""
"","image-keyboard-response","200","151192","0.0-208.0","3ON104KXQLILL50XANK58QOSLFI4W7","A3E8SXH0BAYG85","3L1EFR8WWTRIL5MKAR1UWRHK4IC9FJ","","352","img/food6.png","75","353.40000000596046","2","1","3","2","1,0.5,0,1,0.5,0,0.5,0,1","0.5,0,1,0.5,0,1,0,1,0.5","2","false",""
"","html-keyboard-response","201","151495","0.0-209.0","3ON104KXQLILL50XANK58QOSLFI4W7","A3E8SXH0BAYG85","3L1EFR8WWTRIL5MKAR1UWRHK4IC9FJ","","null","<img src=""img/food6.png"" style=""width:200px; border:14px solid green;"">","null","","","","","","","","","",""
"","image-keyboard-response","202","151903","0.0-211.0","3ON104KXQLILL50XANK58QOSLFI4W7","A3E8SXH0BAYG85","3L1EFR8WWTRIL5MKAR1UWRHK4IC9FJ","","405.09999999403954","img/food6.png","75","406.2999999821186","2","1","3","2","1,0.5,0,1,0.5,0,0.5,0,1","0.5,0,1,0.5,0,1,0,1,0.5","2","false",""
"","html-keyboard-response","203","152204","0.0-212.0","3ON104KXQLILL50XANK58QOSLFI4W7","A3E8SXH0BAYG85","3L1EFR8WWTRIL5MKAR1UWRHK4IC9FJ","","null","<img src=""img/food6.png"" style=""width:200px; border:14px solid green;"">","null","","","","","","","","","",""
"","image-keyboard-response","204","152552","0.0-214.0","3ON104KXQLILL50XANK58QOSLFI4W7","A3E8SXH0BAYG85","3L1EFR8WWTRIL5MKAR1UWRHK4IC9FJ","","345.30000001192093","img/food6.png","75","347","2","1","3","2","1,0.5,0,1,0.5,0,0.5,0,1","0.5,0,1,0.5,0,1,0,1,0.5","2","false",""
"","html-keyboard-response","205","152855","0.0-215.0","3ON104KXQLILL50XANK58QOSLFI4W7","A3E8SXH0BAYG85","3L1EFR8WWTRIL5MKAR1UWRHK4IC9FJ","","null","<img src=""img/food6.png"" style=""width:200px; border:14px solid green;"">","null","","","","","","","","","",""
"","image-keyboard-response","206","153160","0.0-217.0","3ON104KXQLILL50XANK58QOSLFI4W7","A3E8SXH0BAYG85","3L1EFR8WWTRIL5MKAR1UWRHK4IC9FJ","","302.2000000178814","img/food6.png","75","303.80000001192093","2","1","3","2","1,0.5,0,1,0.5,0,0.5,0,1","0.5,0,1,0.5,0,1,0,1,0.5","2","false",""
"","html-keyboard-response","207","153462","0.0-218.0","3ON104KXQLILL50XANK58QOSLFI4W7","A3E8SXH0BAYG85","3L1EFR8WWTRIL5MKAR1UWRHK4IC9FJ","","null","<img src=""img/food6.png"" style=""width:200px; border:14px solid green;"">","null","","","","","","","","","",""
"","image-keyboard-response","208","153768","0.0-220.0","3ON104KXQLILL50XANK58QOSLFI4W7","A3E8SXH0BAYG85","3L1EFR8WWTRIL5MKAR1UWRHK4IC9FJ","","302.89999997615814","img/food6.png","75","304.60000002384186","2","1","3","2","1,0.5,0,1,0.5,0,0.5,0,1","0.5,0,1,0.5,0,1,0,1,0.5","2","false",""
"","html-keyboard-response","209","154070","0.0-221.0","3ON104KXQLILL50XANK58QOSLFI4W7","A3E8SXH0BAYG85","3L1EFR8WWTRIL5MKAR1UWRHK4IC9FJ","","null","<img src=""img/food6.png"" style=""width:200px; border:14px solid green;"">","null","","","","","","","","","",""
"","image-keyboard-response","210","154744","0.0-223.0","3ON104KXQLILL50XANK58QOSLFI4W7","A3E8SXH0BAYG85","3L1EFR8WWTRIL5MKAR1UWRHK4IC9FJ","","671.6000000238419","img/food2.png","76","673.3000000119209","3","1","1","2","1,0.5,0,1,0.5,0,0.5,0,1","0.5,0,1,0.5,0,1,0,1,0.5","2","false",""
"","html-keyboard-response","211","155046","0.0-224.0","3ON104KXQLILL50XANK58QOSLFI4W7","A3E8SXH0BAYG85","3L1EFR8WWTRIL5MKAR1UWRHK4IC9FJ","","null","<img src=""img/food2.png"" style=""width:200px; border:14px solid green;"">","null","","","","","","","","","",""
"","image-keyboard-response","212","155560","0.0-226.0","3ON104KXQLILL50XANK58QOSLFI4W7","A3E8SXH0BAYG85","3L1EFR8WWTRIL5MKAR1UWRHK4IC9FJ","","511.7000000178814","img/food6.png","75","513.4000000059605","2","1","3","2","1,0.5,0,1,0.5,0,0.5,0,1","0.5,0,1,0.5,0,1,0,1,0.5","2","false",""
"","html-keyboard-response","213","155863","0.0-227.0","3ON104KXQLILL50XANK58QOSLFI4W7","A3E8SXH0BAYG85","3L1EFR8WWTRIL5MKAR1UWRHK4IC9FJ","","null","<img src=""img/food6.png"" style=""width:200px; border:14px solid green;"">","null","","","","","","","","","",""
"","image-keyboard-response","214","156512","0.0-229.0","3ON104KXQLILL50XANK58QOSLFI4W7","A3E8SXH0BAYG85","3L1EFR8WWTRIL5MKAR1UWRHK4IC9FJ","","646.2999999821186","img/food2.png","74","648","1","1","1","2","1,0.5,0,1,0.5,0,0.5,0,1","0.5,0,1,0.5,0,1,0,1,0.5","2","false",""
"","html-keyboard-response","215","156814","0.0-230.0","3ON104KXQLILL50XANK58QOSLFI4W7","A3E8SXH0BAYG85","3L1EFR8WWTRIL5MKAR1UWRHK4IC9FJ","","null","<img src=""img/food2.png"" style=""width:200px; border:14px solid green;"">","null","","","","","","","","","",""
"","image-keyboard-response","216","157248","0.0-232.0","3ON104KXQLILL50XANK58QOSLFI4W7","A3E8SXH0BAYG85","3L1EFR8WWTRIL5MKAR1UWRHK4IC9FJ","","431","img/food6.png","75","432.80000001192093","2","1","3","2","1,0.5,0,1,0.5,0,0.5,0,1","0.5,0,1,0.5,0,1,0,1,0.5","2","false",""
"","html-keyboard-response","217","157551","0.0-233.0","3ON104KXQLILL50XANK58QOSLFI4W7","A3E8SXH0BAYG85","3L1EFR8WWTRIL5MKAR1UWRHK4IC9FJ","","null","<img src=""img/food6.png"" style=""width:200px; border:14px solid green;"">","null","","","","","","","","","",""
"","image-keyboard-response","218","157800","0.0-235.0","3ON104KXQLILL50XANK58QOSLFI4W7","A3E8SXH0BAYG85","3L1EFR8WWTRIL5MKAR1UWRHK4IC9FJ","","246.7999999821186","img/food6.png","75","248.40000000596046","2","1","3","2","1,0.5,0,1,0.5,0,0.5,0,1","0.5,0,1,0.5,0,1,0,1,0.5","2","false",""
"","html-keyboard-response","219","158102","0.0-236.0","3ON104KXQLILL50XANK58QOSLFI4W7","A3E8SXH0BAYG85","3L1EFR8WWTRIL5MKAR1UWRHK4IC9FJ","","null","<img src=""img/food6.png"" style=""width:200px; border:14px solid green;"">","null","","","","","","","","","",""
"","image-keyboard-response","220","158824","0.0-238.0","3ON104KXQLILL50XANK58QOSLFI4W7","A3E8SXH0BAYG85","3L1EFR8WWTRIL5MKAR1UWRHK4IC9FJ","","719.2000000178814","img/food4.png","76","720.9000000059605","3","1","2","2","1,0.5,0,1,0.5,0,0.5,0,1","0.5,0,1,0.5,0,1,0,1,0.5","2","false",""
"","html-keyboard-response","221","159128","0.0-239.0","3ON104KXQLILL50XANK58QOSLFI4W7","A3E8SXH0BAYG85","3L1EFR8WWTRIL5MKAR1UWRHK4IC9FJ","","null","<img src=""img/food4.png"" style=""width:200px; border:14px solid green;"">","null","","","","","","","","","",""
"","image-keyboard-response","222","159401","0.0-241.0","3ON104KXQLILL50XANK58QOSLFI4W7","A3E8SXH0BAYG85","3L1EFR8WWTRIL5MKAR1UWRHK4IC9FJ","","269.89999997615814","img/food4.png","76","272","3","1","2","2","1,0.5,0,1,0.5,0,0.5,0,1","0.5,0,1,0.5,0,1,0,1,0.5","2","false",""
"","html-keyboard-response","223","159703","0.0-242.0","3ON104KXQLILL50XANK58QOSLFI4W7","A3E8SXH0BAYG85","3L1EFR8WWTRIL5MKAR1UWRHK4IC9FJ","","null","<img src=""img/food4.png"" style=""width:200px; border:14px solid green;"">","null","","","","","","","","","",""
"","image-keyboard-response","224","160376","0.0-244.0","3ON104KXQLILL50XANK58QOSLFI4W7","A3E8SXH0BAYG85","3L1EFR8WWTRIL5MKAR1UWRHK4IC9FJ","","670.0999999940395","img/food2.png","75","671.7999999821186","2","0","1","2","1,0.5,0,1,0.5,0,0.5,0,1","0.5,0,1,0.5,0,1,0,1,0.5","2","false",""
"","html-keyboard-response","225","160679","0.0-245.0","3ON104KXQLILL50XANK58QOSLFI4W7","A3E8SXH0BAYG85","3L1EFR8WWTRIL5MKAR1UWRHK4IC9FJ","","null","<img src=""img/food2.png"" style=""width:200px;border:14px solid red;"">","null","","","","","","","","","",""
"","image-keyboard-response","226","160872","0.0-247.0","3ON104KXQLILL50XANK58QOSLFI4W7","A3E8SXH0BAYG85","3L1EFR8WWTRIL5MKAR1UWRHK4IC9FJ","","191.40000000596046","img/food6.png","76","192.90000000596046","3","0","3","2","1,0.5,0,1,0.5,0,0.5,0,1","0.5,0,1,0.5,0,1,0,1,0.5","2","false",""
"","html-keyboard-response","227","161175","0.0-248.0","3ON104KXQLILL50XANK58QOSLFI4W7","A3E8SXH0BAYG85","3L1EFR8WWTRIL5MKAR1UWRHK4IC9FJ","","null","<img src=""img/food6.png"" style=""width:200px;border:14px solid red;"">","null","","","","","","","","","",""
"","image-keyboard-response","228","162048","0.0-250.0","3ON104KXQLILL50XANK58QOSLFI4W7","A3E8SXH0BAYG85","3L1EFR8WWTRIL5MKAR1UWRHK4IC9FJ","","870.5","img/food4.png","75","872.5","2","0","2","2","1,0.5,0,1,0.5,0,0.5,0,1","0.5,0,1,0.5,0,1,0,1,0.5","2","false",""
"","html-keyboard-response","229","162351","0.0-251.0","3ON104KXQLILL50XANK58QOSLFI4W7","A3E8SXH0BAYG85","3L1EFR8WWTRIL5MKAR1UWRHK4IC9FJ","","null","<img src=""img/food4.png"" style=""width:200px;border:14px solid red;"">","null","","","","","","","","","",""
"","image-keyboard-response","230","162416","0.0-253.0","3ON104KXQLILL50XANK58QOSLFI4W7","A3E8SXH0BAYG85","3L1EFR8WWTRIL5MKAR1UWRHK4IC9FJ","","62.5","img/food4.png","75","64.09999999403954","2","0","2","2","1,0.5,0,1,0.5,0,0.5,0,1","0.5,0,1,0.5,0,1,0,1,0.5","2","false",""
"","html-keyboard-response","231","162719","0.0-254.0","3ON104KXQLILL50XANK58QOSLFI4W7","A3E8SXH0BAYG85","3L1EFR8WWTRIL5MKAR1UWRHK4IC9FJ","","null","<img src=""img/food4.png"" style=""width:200px;border:14px solid red;"">","null","","","","","","","","","",""
"","image-keyboard-response","232","162872","0.0-256.0","3ON104KXQLILL50XANK58QOSLFI4W7","A3E8SXH0BAYG85","3L1EFR8WWTRIL5MKAR1UWRHK4IC9FJ","","150.5","img/food6.png","75","152.09999999403954","2","1","3","2","1,0.5,0,1,0.5,0,0.5,0,1","0.5,0,1,0.5,0,1,0,1,0.5","2","false",""
"","html-keyboard-response","233","163175","0.0-257.0","3ON104KXQLILL50XANK58QOSLFI4W7","A3E8SXH0BAYG85","3L1EFR8WWTRIL5MKAR1UWRHK4IC9FJ","","null","<img src=""img/food6.png"" style=""width:200px; border:14px solid green;"">","null","","","","","","","","","",""
"","image-keyboard-response","234","163536","0.0-259.0","3ON104KXQLILL50XANK58QOSLFI4W7","A3E8SXH0BAYG85","3L1EFR8WWTRIL5MKAR1UWRHK4IC9FJ","","358.69999998807907","img/food6.png","75","360.59999999403954","2","1","3","2","1,0.5,0,1,0.5,0,0.5,0,1","0.5,0,1,0.5,0,1,0,1,0.5","2","false",""
"","html-keyboard-response","235","163839","0.0-260.0","3ON104KXQLILL50XANK58QOSLFI4W7","A3E8SXH0BAYG85","3L1EFR8WWTRIL5MKAR1UWRHK4IC9FJ","","null","<img src=""img/food6.png"" style=""width:200px; border:14px solid green;"">","null","","","","","","","","","",""
"","image-keyboard-response","236","164192","0.0-262.0","3ON104KXQLILL50XANK58QOSLFI4W7","A3E8SXH0BAYG85","3L1EFR8WWTRIL5MKAR1UWRHK4IC9FJ","","350.5","img/food6.png","75","352.2000000178814","2","1","3","2","1,0.5,0,1,0.5,0,0.5,0,1","0.5,0,1,0.5,0,1,0,1,0.5","2","false",""
"","html-keyboard-response","237","164496","0.0-263.0","3ON104KXQLILL50XANK58QOSLFI4W7","A3E8SXH0BAYG85","3L1EFR8WWTRIL5MKAR1UWRHK4IC9FJ","","null","<img src=""img/food6.png"" style=""width:200px; border:14px solid green;"">","null","","","","","","","","","",""
"","image-keyboard-response","238","165192","0.0-265.0","3ON104KXQLILL50XANK58QOSLFI4W7","A3E8SXH0BAYG85","3L1EFR8WWTRIL5MKAR1UWRHK4IC9FJ","","693.8000000119209","img/food2.png","74","695.5","1","0","1","2","1,0.5,0,1,0.5,0,0.5,0,1","0.5,0,1,0.5,0,1,0,1,0.5","2","false",""
"","html-keyboard-response","239","165494","0.0-266.0","3ON104KXQLILL50XANK58QOSLFI4W7","A3E8SXH0BAYG85","3L1EFR8WWTRIL5MKAR1UWRHK4IC9FJ","","null","<img src=""img/food2.png"" style=""width:200px;border:14px solid red;"">","null","","","","","","","","","",""
"","image-keyboard-response","240","166024","0.0-268.0","3ON104KXQLILL50XANK58QOSLFI4W7","A3E8SXH0BAYG85","3L1EFR8WWTRIL5MKAR1UWRHK4IC9FJ","","527.5","img/food6.png","75","529.2000000178814","2","1","3","2","1,0.5,0,1,0.5,0,0.5,0,1","0.5,0,1,0.5,0,1,0,1,0.5","2","false",""
"","html-keyboard-response","241","166326","0.0-269.0","3ON104KXQLILL50XANK58QOSLFI4W7","A3E8SXH0BAYG85","3L1EFR8WWTRIL5MKAR1UWRHK4IC9FJ","","null","<img src=""img/food6.png"" style=""width:200px; border:14px solid green;"">","null","","","","","","","","","",""
"","image-keyboard-response","242","166447","0.0-271.0","3ON104KXQLILL50XANK58QOSLFI4W7","A3E8SXH0BAYG85","3L1EFR8WWTRIL5MKAR1UWRHK4IC9FJ","","118.2000000178814","img/food2.png","75","119.40000000596046","2","0","1","2","1,0.5,0,1,0.5,0,0.5,0,1","0.5,0,1,0.5,0,1,0,1,0.5","2","false",""
"","html-keyboard-response","243","166749","0.0-272.0","3ON104KXQLILL50XANK58QOSLFI4W7","A3E8SXH0BAYG85","3L1EFR8WWTRIL5MKAR1UWRHK4IC9FJ","","null","<img src=""img/food2.png"" style=""width:200px;border:14px solid red;"">","null","","","","","","","","","",""
"","image-keyboard-response","244","167632","0.0-274.0","3ON104KXQLILL50XANK58QOSLFI4W7","A3E8SXH0BAYG85","3L1EFR8WWTRIL5MKAR1UWRHK4IC9FJ","","880.7999999821186","img/food4.png","76","882.6999999880791","3","1","2","2","1,0.5,0,1,0.5,0,0.5,0,1","0.5,0,1,0.5,0,1,0,1,0.5","2","false",""
"","html-keyboard-response","245","167935","0.0-275.0","3ON104KXQLILL50XANK58QOSLFI4W7","A3E8SXH0BAYG85","3L1EFR8WWTRIL5MKAR1UWRHK4IC9FJ","","null","<img src=""img/food4.png"" style=""width:200px; border:14px solid green;"">","null","","","","","","","","","",""
"","image-keyboard-response","246","168016","0.0-277.0","3ON104KXQLILL50XANK58QOSLFI4W7","A3E8SXH0BAYG85","3L1EFR8WWTRIL5MKAR1UWRHK4IC9FJ","","79.09999999403954","img/food6.png","76","80.69999998807907","3","1","3","2","1,0.5,0,1,0.5,0,0.5,0,1","0.5,0,1,0.5,0,1,0,1,0.5","2","false",""
"","html-keyboard-response","247","168319","0.0-278.0","3ON104KXQLILL50XANK58QOSLFI4W7","A3E8SXH0BAYG85","3L1EFR8WWTRIL5MKAR1UWRHK4IC9FJ","","null","<img src=""img/food6.png"" style=""width:200px; border:14px solid green;"">","null","","","","","","","","","",""
"","image-keyboard-response","248","168510","0.0-280.0","3ON104KXQLILL50XANK58QOSLFI4W7","A3E8SXH0BAYG85","3L1EFR8WWTRIL5MKAR1UWRHK4IC9FJ","","189.39999997615814","img/food4.png","76","190.59999999403954","3","1","2","2","1,0.5,0,1,0.5,0,0.5,0,1","0.5,0,1,0.5,0,1,0,1,0.5","2","false",""
"","html-keyboard-response","249","168812","0.0-281.0","3ON104KXQLILL50XANK58QOSLFI4W7","A3E8SXH0BAYG85","3L1EFR8WWTRIL5MKAR1UWRHK4IC9FJ","","null","<img src=""img/food4.png"" style=""width:200px; border:14px solid green;"">","null","","","","","","","","","",""
"","image-keyboard-response","250","169320","0.0-283.0","3ON104KXQLILL50XANK58QOSLFI4W7","A3E8SXH0BAYG85","3L1EFR8WWTRIL5MKAR1UWRHK4IC9FJ","","505","img/food6.png","76","506.80000001192093","3","0","3","2","1,0.5,0,1,0.5,0,0.5,0,1","0.5,0,1,0.5,0,1,0,1,0.5","2","false",""
"","html-keyboard-response","251","169623","0.0-284.0","3ON104KXQLILL50XANK58QOSLFI4W7","A3E8SXH0BAYG85","3L1EFR8WWTRIL5MKAR1UWRHK4IC9FJ","","null","<img src=""img/food6.png"" style=""width:200px;border:14px solid red;"">","null","","","","","","","","","",""
"","image-keyboard-response","252","170168","0.0-286.0","3ON104KXQLILL50XANK58QOSLFI4W7","A3E8SXH0BAYG85","3L1EFR8WWTRIL5MKAR1UWRHK4IC9FJ","","542.5999999940395","img/food2.png","75","544.4000000059605","2","0","1","2","1,0.5,0,1,0.5,0,0.5,0,1","0.5,0,1,0.5,0,1,0,1,0.5","2","false",""
"","html-keyboard-response","253","170470","0.0-287.0","3ON104KXQLILL50XANK58QOSLFI4W7","A3E8SXH0BAYG85","3L1EFR8WWTRIL5MKAR1UWRHK4IC9FJ","","null","<img src=""img/food2.png"" style=""width:200px;border:14px solid red;"">","null","","","","","","","","","",""
"","image-keyboard-response","254","170696","0.0-289.0","3ON104KXQLILL50XANK58QOSLFI4W7","A3E8SXH0BAYG85","3L1EFR8WWTRIL5MKAR1UWRHK4IC9FJ","","223","img/food2.png","76","224.59999999403954","3","1","1","2","1,0.5,0,1,0.5,0,0.5,0,1","0.5,0,1,0.5,0,1,0,1,0.5","2","false",""
"","html-keyboard-response","255","170999","0.0-290.0","3ON104KXQLILL50XANK58QOSLFI4W7","A3E8SXH0BAYG85","3L1EFR8WWTRIL5MKAR1UWRHK4IC9FJ","","null","<img src=""img/food2.png"" style=""width:200px; border:14px solid green;"">","null","","","","","","","","","",""
"","image-keyboard-response","256","171208","0.0-292.0","3ON104KXQLILL50XANK58QOSLFI4W7","A3E8SXH0BAYG85","3L1EFR8WWTRIL5MKAR1UWRHK4IC9FJ","","206.5","img/food2.png","76","208.19999998807907","3","1","1","2","1,0.5,0,1,0.5,0,0.5,0,1","0.5,0,1,0.5,0,1,0,1,0.5","2","false",""
"","html-keyboard-response","257","171510","0.0-293.0","3ON104KXQLILL50XANK58QOSLFI4W7","A3E8SXH0BAYG85","3L1EFR8WWTRIL5MKAR1UWRHK4IC9FJ","","null","<img src=""img/food2.png"" style=""width:200px; border:14px solid green;"">","null","","","","","","","","","",""
"","image-keyboard-response","258","171552","0.0-295.0","3ON104KXQLILL50XANK58QOSLFI4W7","A3E8SXH0BAYG85","3L1EFR8WWTRIL5MKAR1UWRHK4IC9FJ","","39","img/food4.png","76","40.60000002384186","3","1","2","2","1,0.5,0,1,0.5,0,0.5,0,1","0.5,0,1,0.5,0,1,0,1,0.5","2","false",""
"","html-keyboard-response","259","171854","0.0-296.0","3ON104KXQLILL50XANK58QOSLFI4W7","A3E8SXH0BAYG85","3L1EFR8WWTRIL5MKAR1UWRHK4IC9FJ","","null","<img src=""img/food4.png"" style=""width:200px; border:14px solid green;"">","null","","","","","","","","","",""
"","image-keyboard-response","260","172184","0.0-298.0","3ON104KXQLILL50XANK58QOSLFI4W7","A3E8SXH0BAYG85","3L1EFR8WWTRIL5MKAR1UWRHK4IC9FJ","","327.59999999403954","img/food4.png","76","329.2999999821186","3","1","2","2","1,0.5,0,1,0.5,0,0.5,0,1","0.5,0,1,0.5,0,1,0,1,0.5","2","false",""
"","html-keyboard-response","261","172486","0.0-299.0","3ON104KXQLILL50XANK58QOSLFI4W7","A3E8SXH0BAYG85","3L1EFR8WWTRIL5MKAR1UWRHK4IC9FJ","","null","<img src=""img/food4.png"" style=""width:200px; border:14px solid green;"">","null","","","","","","","","","",""
"","image-keyboard-response","262","172552","0.0-301.0","3ON104KXQLILL50XANK58QOSLFI4W7","A3E8SXH0BAYG85","3L1EFR8WWTRIL5MKAR1UWRHK4IC9FJ","","63.20000001788139","img/food6.png","76","64.90000000596046","3","0","3","2","1,0.5,0,1,0.5,0,0.5,0,1","0.5,0,1,0.5,0,1,0,1,0.5","2","false",""
"","html-keyboard-response","263","172855","0.0-302.0","3ON104KXQLILL50XANK58QOSLFI4W7","A3E8SXH0BAYG85","3L1EFR8WWTRIL5MKAR1UWRHK4IC9FJ","","null","<img src=""img/food6.png"" style=""width:200px;border:14px solid red;"">","null","","","","","","","","","",""
"","image-keyboard-response","264","173408","0.0-304.0","3ON104KXQLILL50XANK58QOSLFI4W7","A3E8SXH0BAYG85","3L1EFR8WWTRIL5MKAR1UWRHK4IC9FJ","","550.7999999821186","img/food6.png","74","552.5999999940395","1","0","3","2","1,0.5,0,1,0.5,0,0.5,0,1","0.5,0,1,0.5,0,1,0,1,0.5","2","false",""
"","html-keyboard-response","265","173710","0.0-305.0","3ON104KXQLILL50XANK58QOSLFI4W7","A3E8SXH0BAYG85","3L1EFR8WWTRIL5MKAR1UWRHK4IC9FJ","","null","<img src=""img/food6.png"" style=""width:200px;border:14px solid red;"">","null","","","","","","","","","",""
"","image-keyboard-response","266","173784","0.0-307.0","3ON104KXQLILL50XANK58QOSLFI4W7","A3E8SXH0BAYG85","3L1EFR8WWTRIL5MKAR1UWRHK4IC9FJ","","71.40000000596046","img/food2.png","74","73","1","0","1","2","1,0.5,0,1,0.5,0,0.5,0,1","0.5,0,1,0.5,0,1,0,1,0.5","2","false",""
"","html-keyboard-response","267","174087","0.0-308.0","3ON104KXQLILL50XANK58QOSLFI4W7","A3E8SXH0BAYG85","3L1EFR8WWTRIL5MKAR1UWRHK4IC9FJ","","null","<img src=""img/food2.png"" style=""width:200px;border:14px solid red;"">","null","","","","","","","","","",""
"","image-keyboard-response","268","174408","0.0-310.0","3ON104KXQLILL50XANK58QOSLFI4W7","A3E8SXH0BAYG85","3L1EFR8WWTRIL5MKAR1UWRHK4IC9FJ","","318.19999998807907","img/food2.png","75","320","2","0","1","2","1,0.5,0,1,0.5,0,0.5,0,1","0.5,0,1,0.5,0,1,0,1,0.5","2","false",""
"","html-keyboard-response","269","174711","0.0-311.0","3ON104KXQLILL50XANK58QOSLFI4W7","A3E8SXH0BAYG85","3L1EFR8WWTRIL5MKAR1UWRHK4IC9FJ","","null","<img src=""img/food2.png"" style=""width:200px;border:14px solid red;"">","null","","","","","","","","","",""
"","image-keyboard-response","270","174714","0.0-313.0","3ON104KXQLILL50XANK58QOSLFI4W7","A3E8SXH0BAYG85","3L1EFR8WWTRIL5MKAR1UWRHK4IC9FJ","","0.800000011920929","img/food4.png","75","2.2000000178813934","2","0","2","2","1,0.5,0,1,0.5,0,0.5,0,1","0.5,0,1,0.5,0,1,0,1,0.5","2","false",""
"","html-keyboard-response","271","175016","0.0-314.0","3ON104KXQLILL50XANK58QOSLFI4W7","A3E8SXH0BAYG85","3L1EFR8WWTRIL5MKAR1UWRHK4IC9FJ","","null","<img src=""img/food4.png"" style=""width:200px;border:14px solid red;"">","null","","","","","","","","","",""
"","image-keyboard-response","272","175192","0.0-316.0","3ON104KXQLILL50XANK58QOSLFI4W7","A3E8SXH0BAYG85","3L1EFR8WWTRIL5MKAR1UWRHK4IC9FJ","","173.09999999403954","img/food4.png","75","175","2","0","2","2","1,0.5,0,1,0.5,0,0.5,0,1","0.5,0,1,0.5,0,1,0,1,0.5","2","false",""
"","html-keyboard-response","273","175495","0.0-317.0","3ON104KXQLILL50XANK58QOSLFI4W7","A3E8SXH0BAYG85","3L1EFR8WWTRIL5MKAR1UWRHK4IC9FJ","","null","<img src=""img/food4.png"" style=""width:200px;border:14px solid red;"">","null","","","","","","","","","",""
"","image-keyboard-response","274","175704","0.0-319.0","3ON104KXQLILL50XANK58QOSLFI4W7","A3E8SXH0BAYG85","3L1EFR8WWTRIL5MKAR1UWRHK4IC9FJ","","206.2000000178814","img/food2.png","76","208.09999999403954","3","1","1","2","1,0.5,0,1,0.5,0,0.5,0,1","0.5,0,1,0.5,0,1,0,1,0.5","2","false",""
"","html-keyboard-response","275","176008","0.0-320.0","3ON104KXQLILL50XANK58QOSLFI4W7","A3E8SXH0BAYG85","3L1EFR8WWTRIL5MKAR1UWRHK4IC9FJ","","null","<img src=""img/food2.png"" style=""width:200px; border:14px solid green;"">","null","","","","","","","","","",""
"","image-keyboard-response","276","176256","0.0-322.0","3ON104KXQLILL50XANK58QOSLFI4W7","A3E8SXH0BAYG85","3L1EFR8WWTRIL5MKAR1UWRHK4IC9FJ","","245","img/food2.png","76","246.80000001192093","3","1","1","2","1,0.5,0,1,0.5,0,0.5,0,1","0.5,0,1,0.5,0,1,0,1,0.5","2","false",""
"","html-keyboard-response","277","176558","0.0-323.0","3ON104KXQLILL50XANK58QOSLFI4W7","A3E8SXH0BAYG85","3L1EFR8WWTRIL5MKAR1UWRHK4IC9FJ","","null","<img src=""img/food2.png"" style=""width:200px; border:14px solid green;"">","null","","","","","","","","","",""
"","image-keyboard-response","278","176656","0.0-325.0","3ON104KXQLILL50XANK58QOSLFI4W7","A3E8SXH0BAYG85","3L1EFR8WWTRIL5MKAR1UWRHK4IC9FJ","","95.59999999403954","img/food6.png","76","97.30000001192093","3","0","3","2","1,0.5,0,1,0.5,0,0.5,0,1","0.5,0,1,0.5,0,1,0,1,0.5","2","false",""
"","html-keyboard-response","279","176958","0.0-326.0","3ON104KXQLILL50XANK58QOSLFI4W7","A3E8SXH0BAYG85","3L1EFR8WWTRIL5MKAR1UWRHK4IC9FJ","","null","<img src=""img/food6.png"" style=""width:200px;border:14px solid red;"">","null","","","","","","","","","",""
"","image-keyboard-response","280","177448","0.0-328.0","3ON104KXQLILL50XANK58QOSLFI4W7","A3E8SXH0BAYG85","3L1EFR8WWTRIL5MKAR1UWRHK4IC9FJ","","486.90000000596046","img/food2.png","75","488.69999998807907","2","0","1","2","1,0.5,0,1,0.5,0,0.5,0,1","0.5,0,1,0.5,0,1,0,1,0.5","2","false",""
"","html-keyboard-response","281","177750","0.0-329.0","3ON104KXQLILL50XANK58QOSLFI4W7","A3E8SXH0BAYG85","3L1EFR8WWTRIL5MKAR1UWRHK4IC9FJ","","null","<img src=""img/food2.png"" style=""width:200px;border:14px solid red;"">","null","","","","","","","","","",""
"","image-keyboard-response","282","178056","0.0-331.0","3ON104KXQLILL50XANK58QOSLFI4W7","A3E8SXH0BAYG85","3L1EFR8WWTRIL5MKAR1UWRHK4IC9FJ","","303.09999999403954","img/food2.png","76","305","3","1","1","2","1,0.5,0,1,0.5,0,0.5,0,1","0.5,0,1,0.5,0,1,0,1,0.5","2","false",""
"","html-keyboard-response","283","178359","0.0-332.0","3ON104KXQLILL50XANK58QOSLFI4W7","A3E8SXH0BAYG85","3L1EFR8WWTRIL5MKAR1UWRHK4IC9FJ","","null","<img src=""img/food2.png"" style=""width:200px; border:14px solid green;"">","null","","","","","","","","","",""
"","image-keyboard-response","284","178680","0.0-334.0","3ON104KXQLILL50XANK58QOSLFI4W7","A3E8SXH0BAYG85","3L1EFR8WWTRIL5MKAR1UWRHK4IC9FJ","","318.40000000596046","img/food4.png","76","320","3","1","2","2","1,0.5,0,1,0.5,0,0.5,0,1","0.5,0,1,0.5,0,1,0,1,0.5","2","false",""
"","html-keyboard-response","285","178983","0.0-335.0","3ON104KXQLILL50XANK58QOSLFI4W7","A3E8SXH0BAYG85","3L1EFR8WWTRIL5MKAR1UWRHK4IC9FJ","","null","<img src=""img/food4.png"" style=""width:200px; border:14px solid green;"">","null","","","","","","","","","",""
"","image-keyboard-response","286","179280","0.0-337.0","3ON104KXQLILL50XANK58QOSLFI4W7","A3E8SXH0BAYG85","3L1EFR8WWTRIL5MKAR1UWRHK4IC9FJ","","294.59999999403954","img/food2.png","76","296.40000000596046","3","1","1","2","1,0.5,0,1,0.5,0,0.5,0,1","0.5,0,1,0.5,0,1,0,1,0.5","2","false",""
"","html-keyboard-response","287","179583","0.0-338.0","3ON104KXQLILL50XANK58QOSLFI4W7","A3E8SXH0BAYG85","3L1EFR8WWTRIL5MKAR1UWRHK4IC9FJ","","null","<img src=""img/food2.png"" style=""width:200px; border:14px solid green;"">","null","","","","","","","","","",""
"","image-keyboard-response","288","179848","0.0-340.0","3ON104KXQLILL50XANK58QOSLFI4W7","A3E8SXH0BAYG85","3L1EFR8WWTRIL5MKAR1UWRHK4IC9FJ","","263.10000002384186","img/food4.png","76","264.90000000596046","3","1","2","2","1,0.5,0,1,0.5,0,0.5,0,1","0.5,0,1,0.5,0,1,0,1,0.5","2","false",""
"","html-keyboard-response","289","180152","0.0-341.0","3ON104KXQLILL50XANK58QOSLFI4W7","A3E8SXH0BAYG85","3L1EFR8WWTRIL5MKAR1UWRHK4IC9FJ","","null","<img src=""img/food4.png"" style=""width:200px; border:14px solid green;"">","null","","","","","","","","","",""
"","image-keyboard-response","290","180336","0.0-343.0","3ON104KXQLILL50XANK58QOSLFI4W7","A3E8SXH0BAYG85","3L1EFR8WWTRIL5MKAR1UWRHK4IC9FJ","","181.7999999821186","img/food4.png","76","183.80000001192093","3","1","2","2","1,0.5,0,1,0.5,0,0.5,0,1","0.5,0,1,0.5,0,1,0,1,0.5","2","false",""
"","html-keyboard-response","291","180639","0.0-344.0","3ON104KXQLILL50XANK58QOSLFI4W7","A3E8SXH0BAYG85","3L1EFR8WWTRIL5MKAR1UWRHK4IC9FJ","","null","<img src=""img/food4.png"" style=""width:200px; border:14px solid green;"">","null","","","","","","","","","",""
"","image-keyboard-response","292","180808","0.0-346.0","3ON104KXQLILL50XANK58QOSLFI4W7","A3E8SXH0BAYG85","3L1EFR8WWTRIL5MKAR1UWRHK4IC9FJ","","166.5","img/food2.png","76","168.09999999403954","3","1","1","2","1,0.5,0,1,0.5,0,0.5,0,1","0.5,0,1,0.5,0,1,0,1,0.5","2","false",""
"","html-keyboard-response","293","181111","0.0-347.0","3ON104KXQLILL50XANK58QOSLFI4W7","A3E8SXH0BAYG85","3L1EFR8WWTRIL5MKAR1UWRHK4IC9FJ","","null","<img src=""img/food2.png"" style=""width:200px; border:14px solid green;"">","null","","","","","","","","","",""
"","image-keyboard-response","294","181432","0.0-349.0","3ON104KXQLILL50XANK58QOSLFI4W7","A3E8SXH0BAYG85","3L1EFR8WWTRIL5MKAR1UWRHK4IC9FJ","","320.09999999403954","img/food2.png","76","321.2000000178814","3","1","1","2","1,0.5,0,1,0.5,0,0.5,0,1","0.5,0,1,0.5,0,1,0,1,0.5","2","false",""
"","html-keyboard-response","295","181735","0.0-350.0","3ON104KXQLILL50XANK58QOSLFI4W7","A3E8SXH0BAYG85","3L1EFR8WWTRIL5MKAR1UWRHK4IC9FJ","","null","<img src=""img/food2.png"" style=""width:200px; border:14px solid green;"">","null","","","","","","","","","",""
"","image-keyboard-response","296","181904","0.0-352.0","3ON104KXQLILL50XANK58QOSLFI4W7","A3E8SXH0BAYG85","3L1EFR8WWTRIL5MKAR1UWRHK4IC9FJ","","166.5","img/food4.png","76","168.2000000178814","3","1","2","2","1,0.5,0,1,0.5,0,0.5,0,1","0.5,0,1,0.5,0,1,0,1,0.5","2","false",""
"","html-keyboard-response","297","182207","0.0-353.0","3ON104KXQLILL50XANK58QOSLFI4W7","A3E8SXH0BAYG85","3L1EFR8WWTRIL5MKAR1UWRHK4IC9FJ","","null","<img src=""img/food4.png"" style=""width:200px; border:14px solid green;"">","null","","","","","","","","","",""
"","image-keyboard-response","298","182560","0.0-355.0","3ON104KXQLILL50XANK58QOSLFI4W7","A3E8SXH0BAYG85","3L1EFR8WWTRIL5MKAR1UWRHK4IC9FJ","","350.7000000178814","img/food4.png","76","352.40000000596046","3","1","2","2","1,0.5,0,1,0.5,0,0.5,0,1","0.5,0,1,0.5,0,1,0,1,0.5","2","false",""
"","html-keyboard-response","299","182864","0.0-356.0","3ON104KXQLILL50XANK58QOSLFI4W7","A3E8SXH0BAYG85","3L1EFR8WWTRIL5MKAR1UWRHK4IC9FJ","","null","<img src=""img/food4.png"" style=""width:200px; border:14px solid green;"">","null","","","","","","","","","",""
"","image-keyboard-response","300","183024","0.0-358.0","3ON104KXQLILL50XANK58QOSLFI4W7","A3E8SXH0BAYG85","3L1EFR8WWTRIL5MKAR1UWRHK4IC9FJ","","157.5","img/food2.png","76","159.2999999821186","3","1","1","2","1,0.5,0,1,0.5,0,0.5,0,1","0.5,0,1,0.5,0,1,0,1,0.5","2","false",""
"","html-keyboard-response","301","183328","0.0-359.0","3ON104KXQLILL50XANK58QOSLFI4W7","A3E8SXH0BAYG85","3L1EFR8WWTRIL5MKAR1UWRHK4IC9FJ","","null","<img src=""img/food2.png"" style=""width:200px; border:14px solid green;"">","null","","","","","","","","","",""
"","image-keyboard-response","302","183552","0.0-361.0","3ON104KXQLILL50XANK58QOSLFI4W7","A3E8SXH0BAYG85","3L1EFR8WWTRIL5MKAR1UWRHK4IC9FJ","","221.89999997615814","img/food2.png","76","223.59999999403954","3","1","1","2","1,0.5,0,1,0.5,0,0.5,0,1","0.5,0,1,0.5,0,1,0,1,0.5","2","false",""
"","html-keyboard-response","303","183855","0.0-362.0","3ON104KXQLILL50XANK58QOSLFI4W7","A3E8SXH0BAYG85","3L1EFR8WWTRIL5MKAR1UWRHK4IC9FJ","","null","<img src=""img/food2.png"" style=""width:200px; border:14px solid green;"">","null","","","","","","","","","",""
"","image-keyboard-response","304","183960","0.0-364.0","3ON104KXQLILL50XANK58QOSLFI4W7","A3E8SXH0BAYG85","3L1EFR8WWTRIL5MKAR1UWRHK4IC9FJ","","102.89999997615814","img/food2.png","76","104.7000000178814","3","1","1","2","1,0.5,0,1,0.5,0,0.5,0,1","0.5,0,1,0.5,0,1,0,1,0.5","2","false",""
"","html-keyboard-response","305","184263","0.0-365.0","3ON104KXQLILL50XANK58QOSLFI4W7","A3E8SXH0BAYG85","3L1EFR8WWTRIL5MKAR1UWRHK4IC9FJ","","null","<img src=""img/food2.png"" style=""width:200px; border:14px solid green;"">","null","","","","","","","","","",""
"","image-keyboard-response","306","184392","0.0-367.0","3ON104KXQLILL50XANK58QOSLFI4W7","A3E8SXH0BAYG85","3L1EFR8WWTRIL5MKAR1UWRHK4IC9FJ","","126.89999997615814","img/food4.png","76","128.59999999403954","3","1","2","2","1,0.5,0,1,0.5,0,0.5,0,1","0.5,0,1,0.5,0,1,0,1,0.5","2","false",""
"","html-keyboard-response","307","184694","0.0-368.0","3ON104KXQLILL50XANK58QOSLFI4W7","A3E8SXH0BAYG85","3L1EFR8WWTRIL5MKAR1UWRHK4IC9FJ","","null","<img src=""img/food4.png"" style=""width:200px; border:14px solid green;"">","null","","","","","","","","","",""
"","image-keyboard-response","308","184744","0.0-370.0","3ON104KXQLILL50XANK58QOSLFI4W7","A3E8SXH0BAYG85","3L1EFR8WWTRIL5MKAR1UWRHK4IC9FJ","","47.19999998807907","img/food4.png","76","49","3","1","2","2","1,0.5,0,1,0.5,0,0.5,0,1","0.5,0,1,0.5,0,1,0,1,0.5","2","false",""
"","html-keyboard-response","309","185047","0.0-371.0","3ON104KXQLILL50XANK58QOSLFI4W7","A3E8SXH0BAYG85","3L1EFR8WWTRIL5MKAR1UWRHK4IC9FJ","","null","<img src=""img/food4.png"" style=""width:200px; border:14px solid green;"">","null","","","","","","","","","",""
"","image-keyboard-response","310","185232","0.0-373.0","3ON104KXQLILL50XANK58QOSLFI4W7","A3E8SXH0BAYG85","3L1EFR8WWTRIL5MKAR1UWRHK4IC9FJ","","182.5","img/food6.png","76","184.19999998807907","3","1","3","2","1,0.5,0,1,0.5,0,0.5,0,1","0.5,0,1,0.5,0,1,0,1,0.5","2","false",""
"","html-keyboard-response","311","185535","0.0-374.0","3ON104KXQLILL50XANK58QOSLFI4W7","A3E8SXH0BAYG85","3L1EFR8WWTRIL5MKAR1UWRHK4IC9FJ","","null","<img src=""img/food6.png"" style=""width:200px; border:14px solid green;"">","null","","","","","","","","","",""
"","image-keyboard-response","312","185712","0.0-376.0","3ON104KXQLILL50XANK58QOSLFI4W7","A3E8SXH0BAYG85","3L1EFR8WWTRIL5MKAR1UWRHK4IC9FJ","","174.2999999821186","img/food2.png","76","176","3","1","1","2","1,0.5,0,1,0.5,0,0.5,0,1","0.5,0,1,0.5,0,1,0,1,0.5","2","false",""
"","html-keyboard-response","313","186015","0.0-377.0","3ON104KXQLILL50XANK58QOSLFI4W7","A3E8SXH0BAYG85","3L1EFR8WWTRIL5MKAR1UWRHK4IC9FJ","","null","<img src=""img/food2.png"" style=""width:200px; border:14px solid green;"">","null","","","","","","","","","",""
"","image-keyboard-response","314","186095","0.0-379.0","3ON104KXQLILL50XANK58QOSLFI4W7","A3E8SXH0BAYG85","3L1EFR8WWTRIL5MKAR1UWRHK4IC9FJ","","78.40000000596046","img/food4.png","76","79.80000001192093","3","1","2","2","1,0.5,0,1,0.5,0,0.5,0,1","0.5,0,1,0.5,0,1,0,1,0.5","2","false",""
"","html-keyboard-response","315","186398","0.0-380.0","3ON104KXQLILL50XANK58QOSLFI4W7","A3E8SXH0BAYG85","3L1EFR8WWTRIL5MKAR1UWRHK4IC9FJ","","null","<img src=""img/food4.png"" style=""width:200px; border:14px solid green;"">","null","","","","","","","","","",""
"","image-keyboard-response","316","186496","0.0-382.0","3ON104KXQLILL50XANK58QOSLFI4W7","A3E8SXH0BAYG85","3L1EFR8WWTRIL5MKAR1UWRHK4IC9FJ","","95.89999997615814","img/food2.png","76","97.7000000178814","3","1","1","2","1,0.5,0,1,0.5,0,0.5,0,1","0.5,0,1,0.5,0,1,0,1,0.5","2","false",""
"","html-keyboard-response","317","186799","0.0-383.0","3ON104KXQLILL50XANK58QOSLFI4W7","A3E8SXH0BAYG85","3L1EFR8WWTRIL5MKAR1UWRHK4IC9FJ","","null","<img src=""img/food2.png"" style=""width:200px; border:14px solid green;"">","null","","","","","","","","","",""
"","image-keyboard-response","318","186888","0.0-385.0","3ON104KXQLILL50XANK58QOSLFI4W7","A3E8SXH0BAYG85","3L1EFR8WWTRIL5MKAR1UWRHK4IC9FJ","","86.59999999403954","img/food6.png","76","88.30000001192093","3","1","3","2","1,0.5,0,1,0.5,0,0.5,0,1","0.5,0,1,0.5,0,1,0,1,0.5","2","false",""
"","html-keyboard-response","319","187191","0.0-386.0","3ON104KXQLILL50XANK58QOSLFI4W7","A3E8SXH0BAYG85","3L1EFR8WWTRIL5MKAR1UWRHK4IC9FJ","","null","<img src=""img/food6.png"" style=""width:200px; border:14px solid green;"">","null","","","","","","","","","",""
"","image-keyboard-response","320","187296","0.0-388.0","3ON104KXQLILL50XANK58QOSLFI4W7","A3E8SXH0BAYG85","3L1EFR8WWTRIL5MKAR1UWRHK4IC9FJ","","103.09999999403954","img/food4.png","76","105","3","1","2","2","1,0.5,0,1,0.5,0,0.5,0,1","0.5,0,1,0.5,0,1,0,1,0.5","2","false",""
"","html-keyboard-response","321","187600","0.0-389.0","3ON104KXQLILL50XANK58QOSLFI4W7","A3E8SXH0BAYG85","3L1EFR8WWTRIL5MKAR1UWRHK4IC9FJ","","null","<img src=""img/food4.png"" style=""width:200px; border:14px solid green;"">","null","","","","","","","","","",""
"","image-keyboard-response","322","187712","0.0-391.0","3ON104KXQLILL50XANK58QOSLFI4W7","A3E8SXH0BAYG85","3L1EFR8WWTRIL5MKAR1UWRHK4IC9FJ","","110.09999999403954","img/food2.png","76","111.7000000178814","3","1","1","2","1,0.5,0,1,0.5,0,0.5,0,1","0.5,0,1,0.5,0,1,0,1,0.5","2","false",""
"","html-keyboard-response","323","188016","0.0-392.0","3ON104KXQLILL50XANK58QOSLFI4W7","A3E8SXH0BAYG85","3L1EFR8WWTRIL5MKAR1UWRHK4IC9FJ","","null","<img src=""img/food2.png"" style=""width:200px; border:14px solid green;"">","null","","","","","","","","","",""
"","image-keyboard-response","324","188104","0.0-394.0","3ON104KXQLILL50XANK58QOSLFI4W7","A3E8SXH0BAYG85","3L1EFR8WWTRIL5MKAR1UWRHK4IC9FJ","","86.90000000596046","img/food6.png","76","88.30000001192093","3","0","3","2","1,0.5,0,1,0.5,0,0.5,0,1","0.5,0,1,0.5,0,1,0,1,0.5","2","false",""
"","html-keyboard-response","325","188407","0.0-395.0","3ON104KXQLILL50XANK58QOSLFI4W7","A3E8SXH0BAYG85","3L1EFR8WWTRIL5MKAR1UWRHK4IC9FJ","","null","<img src=""img/food6.png"" style=""width:200px;border:14px solid red;"">","null","","","","","","","","","",""
"","image-keyboard-response","326","188488","0.0-397.0","3ON104KXQLILL50XANK58QOSLFI4W7","A3E8SXH0BAYG85","3L1EFR8WWTRIL5MKAR1UWRHK4IC9FJ","","78.40000000596046","img/food6.png","76","80.2000000178814","3","0","3","2","1,0.5,0,1,0.5,0,0.5,0,1","0.5,0,1,0.5,0,1,0,1,0.5","2","false",""
"","html-keyboard-response","327","188791","0.0-398.0","3ON104KXQLILL50XANK58QOSLFI4W7","A3E8SXH0BAYG85","3L1EFR8WWTRIL5MKAR1UWRHK4IC9FJ","","null","<img src=""img/food6.png"" style=""width:200px;border:14px solid red;"">","null","","","","","","","","","",""
"","image-keyboard-response","328","189112","0.0-400.0","3ON104KXQLILL50XANK58QOSLFI4W7","A3E8SXH0BAYG85","3L1EFR8WWTRIL5MKAR1UWRHK4IC9FJ","","319.10000002384186","img/food6.png","75","320.69999998807907","2","1","3","2","1,0.5,0,1,0.5,0,0.5,0,1","0.5,0,1,0.5,0,1,0,1,0.5","2","false",""
"","html-keyboard-response","329","189415","0.0-401.0","3ON104KXQLILL50XANK58QOSLFI4W7","A3E8SXH0BAYG85","3L1EFR8WWTRIL5MKAR1UWRHK4IC9FJ","","null","<img src=""img/food6.png"" style=""width:200px; border:14px solid green;"">","null","","","","","","","","","",""
"","image-keyboard-response","330","189584","0.0-403.0","3ON104KXQLILL50XANK58QOSLFI4W7","A3E8SXH0BAYG85","3L1EFR8WWTRIL5MKAR1UWRHK4IC9FJ","","166.69999998807907","img/food2.png","75","168.59999999403954","2","0","1","2","1,0.5,0,1,0.5,0,0.5,0,1","0.5,0,1,0.5,0,1,0,1,0.5","2","false",""
"","html-keyboard-response","331","189886","0.0-404.0","3ON104KXQLILL50XANK58QOSLFI4W7","A3E8SXH0BAYG85","3L1EFR8WWTRIL5MKAR1UWRHK4IC9FJ","","null","<img src=""img/food2.png"" style=""width:200px;border:14px solid red;"">","null","","","","","","","","","",""
"","image-keyboard-response","332","190056","0.0-406.0","3ON104KXQLILL50XANK58QOSLFI4W7","A3E8SXH0BAYG85","3L1EFR8WWTRIL5MKAR1UWRHK4IC9FJ","","168.2999999821186","img/food4.png","76","169.59999999403954","3","1","2","2","1,0.5,0,1,0.5,0,0.5,0,1","0.5,0,1,0.5,0,1,0,1,0.5","2","false",""
"","html-keyboard-response","333","190359","0.0-407.0","3ON104KXQLILL50XANK58QOSLFI4W7","A3E8SXH0BAYG85","3L1EFR8WWTRIL5MKAR1UWRHK4IC9FJ","","null","<img src=""img/food4.png"" style=""width:200px; border:14px solid green;"">","null","","","","","","","","","",""
"","image-keyboard-response","334","190488","0.0-409.0","3ON104KXQLILL50XANK58QOSLFI4W7","A3E8SXH0BAYG85","3L1EFR8WWTRIL5MKAR1UWRHK4IC9FJ","","126.2999999821186","img/food4.png","76","128.09999999403954","3","1","2","2","1,0.5,0,1,0.5,0,0.5,0,1","0.5,0,1,0.5,0,1,0,1,0.5","2","false",""
"","html-keyboard-response","335","190791","0.0-410.0","3ON104KXQLILL50XANK58QOSLFI4W7","A3E8SXH0BAYG85","3L1EFR8WWTRIL5MKAR1UWRHK4IC9FJ","","null","<img src=""img/food4.png"" style=""width:200px; border:14px solid green;"">","null","","","","","","","","","",""
"","image-keyboard-response","336","190889","0.0-412.0","3ON104KXQLILL50XANK58QOSLFI4W7","A3E8SXH0BAYG85","3L1EFR8WWTRIL5MKAR1UWRHK4IC9FJ","","94.59999999403954","img/food2.png","76","96.7000000178814","3","1","1","2","1,0.5,0,1,0.5,0,0.5,0,1","0.5,0,1,0.5,0,1,0,1,0.5","2","false",""
"","html-keyboard-response","337","191191","0.0-413.0","3ON104KXQLILL50XANK58QOSLFI4W7","A3E8SXH0BAYG85","3L1EFR8WWTRIL5MKAR1UWRHK4IC9FJ","","null","<img src=""img/food2.png"" style=""width:200px; border:14px solid green;"">","null","","","","","","","","","",""
"","image-keyboard-response","338","191336","0.0-415.0","3ON104KXQLILL50XANK58QOSLFI4W7","A3E8SXH0BAYG85","3L1EFR8WWTRIL5MKAR1UWRHK4IC9FJ","","142.59999999403954","img/food6.png","76","144.40000000596046","3","1","3","2","1,0.5,0,1,0.5,0,0.5,0,1","0.5,0,1,0.5,0,1,0,1,0.5","2","false",""
"","html-keyboard-response","339","191639","0.0-416.0","3ON104KXQLILL50XANK58QOSLFI4W7","A3E8SXH0BAYG85","3L1EFR8WWTRIL5MKAR1UWRHK4IC9FJ","","null","<img src=""img/food6.png"" style=""width:200px; border:14px solid green;"">","null","","","","","","","","","",""
"","image-keyboard-response","340","191656","0.0-418.0","3ON104KXQLILL50XANK58QOSLFI4W7","A3E8SXH0BAYG85","3L1EFR8WWTRIL5MKAR1UWRHK4IC9FJ","","14.799999982118607","img/food2.png","75","16.400000005960464","2","0","1","2","1,0.5,0,1,0.5,0,0.5,0,1","0.5,0,1,0.5,0,1,0,1,0.5","2","false",""
"","html-keyboard-response","341","191968","0.0-419.0","3ON104KXQLILL50XANK58QOSLFI4W7","A3E8SXH0BAYG85","3L1EFR8WWTRIL5MKAR1UWRHK4IC9FJ","","null","<img src=""img/food2.png"" style=""width:200px;border:14px solid red;"">","null","","","","","","","","","",""
"","image-keyboard-response","342","192072","0.0-421.0","3ON104KXQLILL50XANK58QOSLFI4W7","A3E8SXH0BAYG85","3L1EFR8WWTRIL5MKAR1UWRHK4IC9FJ","","101.90000000596046","img/food4.png","75","103.59999999403954","2","0","2","2","1,0.5,0,1,0.5,0,0.5,0,1","0.5,0,1,0.5,0,1,0,1,0.5","2","false",""
"","html-keyboard-response","343","192375","0.0-422.0","3ON104KXQLILL50XANK58QOSLFI4W7","A3E8SXH0BAYG85","3L1EFR8WWTRIL5MKAR1UWRHK4IC9FJ","","null","<img src=""img/food4.png"" style=""width:200px;border:14px solid red;"">","null","","","","","","","","","",""
"","image-keyboard-response","344","192464","0.0-424.0","3ON104KXQLILL50XANK58QOSLFI4W7","A3E8SXH0BAYG85","3L1EFR8WWTRIL5MKAR1UWRHK4IC9FJ","","86.2999999821186","img/food4.png","76","88","3","1","2","2","1,0.5,0,1,0.5,0,0.5,0,1","0.5,0,1,0.5,0,1,0,1,0.5","2","false",""
"","html-keyboard-response","345","192767","0.0-425.0","3ON104KXQLILL50XANK58QOSLFI4W7","A3E8SXH0BAYG85","3L1EFR8WWTRIL5MKAR1UWRHK4IC9FJ","","null","<img src=""img/food4.png"" style=""width:200px; border:14px solid green;"">","null","","","","","","","","","",""
"","image-keyboard-response","346","192928","0.0-427.0","3ON104KXQLILL50XANK58QOSLFI4W7","A3E8SXH0BAYG85","3L1EFR8WWTRIL5MKAR1UWRHK4IC9FJ","","158.39999997615814","img/food4.png","76","160.09999999403954","3","1","2","2","1,0.5,0,1,0.5,0,0.5,0,1","0.5,0,1,0.5,0,1,0,1,0.5","2","false",""
"","html-keyboard-response","347","193231","0.0-428.0","3ON104KXQLILL50XANK58QOSLFI4W7","A3E8SXH0BAYG85","3L1EFR8WWTRIL5MKAR1UWRHK4IC9FJ","","null","<img src=""img/food4.png"" style=""width:200px; border:14px solid green;"">","null","","","","","","","","","",""
"","image-keyboard-response","348","193360","0.0-430.0","3ON104KXQLILL50XANK58QOSLFI4W7","A3E8SXH0BAYG85","3L1EFR8WWTRIL5MKAR1UWRHK4IC9FJ","","127","img/food4.png","76","128.90000000596046","3","1","2","2","1,0.5,0,1,0.5,0,0.5,0,1","0.5,0,1,0.5,0,1,0,1,0.5","2","false",""
"","html-keyboard-response","349","193663","0.0-431.0","3ON104KXQLILL50XANK58QOSLFI4W7","A3E8SXH0BAYG85","3L1EFR8WWTRIL5MKAR1UWRHK4IC9FJ","","null","<img src=""img/food4.png"" style=""width:200px; border:14px solid green;"">","null","","","","","","","","","",""
"","image-keyboard-response","350","193800","0.0-433.0","3ON104KXQLILL50XANK58QOSLFI4W7","A3E8SXH0BAYG85","3L1EFR8WWTRIL5MKAR1UWRHK4IC9FJ","","134.59999999403954","img/food4.png","76","136.40000000596046","3","1","2","2","1,0.5,0,1,0.5,0,0.5,0,1","0.5,0,1,0.5,0,1,0,1,0.5","2","false",""
"","html-keyboard-response","351","194103","0.0-434.0","3ON104KXQLILL50XANK58QOSLFI4W7","A3E8SXH0BAYG85","3L1EFR8WWTRIL5MKAR1UWRHK4IC9FJ","","null","<img src=""img/food4.png"" style=""width:200px; border:14px solid green;"">","null","","","","","","","","","",""
"","image-keyboard-response","352","194256","0.0-436.0","3ON104KXQLILL50XANK58QOSLFI4W7","A3E8SXH0BAYG85","3L1EFR8WWTRIL5MKAR1UWRHK4IC9FJ","","150.89999997615814","img/food4.png","76","152.69999998807907","3","1","2","2","1,0.5,0,1,0.5,0,0.5,0,1","0.5,0,1,0.5,0,1,0,1,0.5","2","false",""
"","html-keyboard-response","353","194559","0.0-437.0","3ON104KXQLILL50XANK58QOSLFI4W7","A3E8SXH0BAYG85","3L1EFR8WWTRIL5MKAR1UWRHK4IC9FJ","","null","<img src=""img/food4.png"" style=""width:200px; border:14px solid green;"">","null","","","","","","","","","",""
"","image-keyboard-response","354","194704","0.0-439.0","3ON104KXQLILL50XANK58QOSLFI4W7","A3E8SXH0BAYG85","3L1EFR8WWTRIL5MKAR1UWRHK4IC9FJ","","142.09999999403954","img/food4.png","76","144.09999999403954","3","1","2","2","1,0.5,0,1,0.5,0,0.5,0,1","0.5,0,1,0.5,0,1,0,1,0.5","2","false",""
"","html-keyboard-response","355","195007","0.0-440.0","3ON104KXQLILL50XANK58QOSLFI4W7","A3E8SXH0BAYG85","3L1EFR8WWTRIL5MKAR1UWRHK4IC9FJ","","null","<img src=""img/food4.png"" style=""width:200px; border:14px solid green;"">","null","","","","","","","","","",""
"","image-keyboard-response","356","195128","0.0-442.0","3ON104KXQLILL50XANK58QOSLFI4W7","A3E8SXH0BAYG85","3L1EFR8WWTRIL5MKAR1UWRHK4IC9FJ","","119.09999999403954","img/food6.png","76","120.7000000178814","3","1","3","2","1,0.5,0,1,0.5,0,0.5,0,1","0.5,0,1,0.5,0,1,0,1,0.5","2","false",""
"","html-keyboard-response","357","195431","0.0-443.0","3ON104KXQLILL50XANK58QOSLFI4W7","A3E8SXH0BAYG85","3L1EFR8WWTRIL5MKAR1UWRHK4IC9FJ","","null","<img src=""img/food6.png"" style=""width:200px; border:14px solid green;"">","null","","","","","","","","","",""
"","image-keyboard-response","358","195496","0.0-445.0","3ON104KXQLILL50XANK58QOSLFI4W7","A3E8SXH0BAYG85","3L1EFR8WWTRIL5MKAR1UWRHK4IC9FJ","","63.099999994039536","img/food4.png","76","64.80000001192093","3","1","2","2","1,0.5,0,1,0.5,0,0.5,0,1","0.5,0,1,0.5,0,1,0,1,0.5","2","false",""
"","html-keyboard-response","359","195799","0.0-446.0","3ON104KXQLILL50XANK58QOSLFI4W7","A3E8SXH0BAYG85","3L1EFR8WWTRIL5MKAR1UWRHK4IC9FJ","","null","<img src=""img/food4.png"" style=""width:200px; border:14px solid green;"">","null","","","","","","","","","",""
"","image-keyboard-response","360","195960","0.0-448.0","3ON104KXQLILL50XANK58QOSLFI4W7","A3E8SXH0BAYG85","3L1EFR8WWTRIL5MKAR1UWRHK4IC9FJ","","158.69999998807907","img/food6.png","76","160.5","3","1","3","2","1,0.5,0,1,0.5,0,0.5,0,1","0.5,0,1,0.5,0,1,0,1,0.5","2","false",""
"","html-keyboard-response","361","196262","0.0-449.0","3ON104KXQLILL50XANK58QOSLFI4W7","A3E8SXH0BAYG85","3L1EFR8WWTRIL5MKAR1UWRHK4IC9FJ","","null","<img src=""img/food6.png"" style=""width:200px; border:14px solid green;"">","null","","","","","","","","","",""
"","image-keyboard-response","362","196464","0.0-451.0","3ON104KXQLILL50XANK58QOSLFI4W7","A3E8SXH0BAYG85","3L1EFR8WWTRIL5MKAR1UWRHK4IC9FJ","","199.19999998807907","img/food2.png","76","200.90000000596046","3","1","1","2","1,0.5,0,1,0.5,0,0.5,0,1","0.5,0,1,0.5,0,1,0,1,0.5","2","false",""
"","html-keyboard-response","363","196767","0.0-452.0","3ON104KXQLILL50XANK58QOSLFI4W7","A3E8SXH0BAYG85","3L1EFR8WWTRIL5MKAR1UWRHK4IC9FJ","","null","<img src=""img/food2.png"" style=""width:200px; border:14px solid green;"">","null","","","","","","","","","",""
"","instructions","364","199919","0.0-454.0","3ON104KXQLILL50XANK58QOSLFI4W7","A3E8SXH0BAYG85","3L1EFR8WWTRIL5MKAR1UWRHK4IC9FJ","[{""page_index"":0,""viewing_time"":3150.300000011921}]","3150.4000000059605","","","","","","","","","","","",""
"","survey-text","365","204040","0.0-455.0","3ON104KXQLILL50XANK58QOSLFI4W7","A3E8SXH0BAYG85","3L1EFR8WWTRIL5MKAR1UWRHK4IC9FJ","","4117.5999999940395","","","","","","","","","","","","{""Q0"":""A3E8SXH0BAYG85""}"
