"success","trial_type","trial_index","time_elapsed","internal_node_id","assignmentID","mturkID","hitID","view_history","rt","stimulus","key_press","reactionTime","a","r","warning","s","cond","reward_cond","reward_cond_actual","reward_matrix_idx","responses"
"true","fullscreen","0","5242","0.0-0.0","379J5II41P2N2DLRVFPG81J30LOELM","A3FSDH6HUZPNQ8","3HUR21WDDUBEMSLDIXZW1FAIHVWXYO","","","","","","","","","","","","","",""
"","instructions","1","24987","0.0-1.0","379J5II41P2N2DLRVFPG81J30LOELM","A3FSDH6HUZPNQ8","3HUR21WDDUBEMSLDIXZW1FAIHVWXYO","[{""page_index"":0,""viewing_time"":10755},{""page_index"":1,""viewing_time"":881},{""page_index"":2,""viewing_time"":671},{""page_index"":3,""viewing_time"":2741},{""page_index"":4,""viewing_time"":2328},{""page_index"":5,""viewing_time"":1361},{""page_index"":6,""viewing_time"":1006}]","19744","","","","","","","","","","","",""
"","instructions","2","40171","0.0-2.0","379J5II41P2N2DLRVFPG81J30LOELM","A3FSDH6HUZPNQ8","3HUR21WDDUBEMSLDIXZW1FAIHVWXYO","[{""page_index"":0,""viewing_time"":13903},{""page_index"":1,""viewing_time"":1281}]","15184","","","","","","","","","","","",""
"","image-keyboard-response","3","40709","0.0-3.0","379J5II41P2N2DLRVFPG81J30LOELM","A3FSDH6HUZPNQ8","3HUR21WDDUBEMSLDIXZW1FAIHVWXYO","","538","img/food2.png","74","538","1","1","false","1","2","1,0.5,0,1,0.5,0,0.5,0,1","1,0.5,0,1,0.5,0,0.5,0,1","1",""
"","html-keyboard-response","4","41011","0.0-4.0","379J5II41P2N2DLRVFPG81J30LOELM","A3FSDH6HUZPNQ8","3HUR21WDDUBEMSLDIXZW1FAIHVWXYO","","null","<img src=""img/food2.png"" style=""width:200px; border:14px solid green;"">","null","","","","","","","","","",""
"","image-keyboard-response","5","41735","0.0-6.0","379J5II41P2N2DLRVFPG81J30LOELM","A3FSDH6HUZPNQ8","3HUR21WDDUBEMSLDIXZW1FAIHVWXYO","","724","img/food5.png","74","724","1","1","false","2","2","1,0.5,0,1,0.5,0,0.5,0,1","1,0.5,0,1,0.5,0,0.5,0,1","1",""
"","html-keyboard-response","6","42050","0.0-7.0","379J5II41P2N2DLRVFPG81J30LOELM","A3FSDH6HUZPNQ8","3HUR21WDDUBEMSLDIXZW1FAIHVWXYO","","null","<img src=""img/food5.png"" style=""width:200px; border:14px solid green;"">","null","","","","","","","","","",""
"","image-keyboard-response","7","42580","0.0-9.0","379J5II41P2N2DLRVFPG81J30LOELM","A3FSDH6HUZPNQ8","3HUR21WDDUBEMSLDIXZW1FAIHVWXYO","","530","img/food5.png","74","530","1","1","false","2","2","1,0.5,0,1,0.5,0,0.5,0,1","1,0.5,0,1,0.5,0,0.5,0,1","1",""
"","html-keyboard-response","8","42884","0.0-10.0","379J5II41P2N2DLRVFPG81J30LOELM","A3FSDH6HUZPNQ8","3HUR21WDDUBEMSLDIXZW1FAIHVWXYO","","null","<img src=""img/food5.png"" style=""width:200px; border:14px solid green;"">","null","","","","","","","","","",""
"","image-keyboard-response","9","43705","0.0-12.0","379J5II41P2N2DLRVFPG81J30LOELM","A3FSDH6HUZPNQ8","3HUR21WDDUBEMSLDIXZW1FAIHVWXYO","","821","img/food5.png","74","822","1","1","false","2","2","1,0.5,0,1,0.5,0,0.5,0,1","1,0.5,0,1,0.5,0,0.5,0,1","1",""
"","html-keyboard-response","10","44015","0.0-13.0","379J5II41P2N2DLRVFPG81J30LOELM","A3FSDH6HUZPNQ8","3HUR21WDDUBEMSLDIXZW1FAIHVWXYO","","null","<img src=""img/food5.png"" style=""width:200px; border:14px solid green;"">","null","","","","","","","","","",""
"","image-keyboard-response","11","44719","0.0-15.0","379J5II41P2N2DLRVFPG81J30LOELM","A3FSDH6HUZPNQ8","3HUR21WDDUBEMSLDIXZW1FAIHVWXYO","","704","img/food4.png","75","704","2","0","false","3","2","1,0.5,0,1,0.5,0,0.5,0,1","1,0.5,0,1,0.5,0,0.5,0,1","1",""
"","html-keyboard-response","12","45023","0.0-16.0","379J5II41P2N2DLRVFPG81J30LOELM","A3FSDH6HUZPNQ8","3HUR21WDDUBEMSLDIXZW1FAIHVWXYO","","null","<img src=""img/food4.png"" style=""width:200px;border:14px solid red;"">","null","","","","","","","","","",""
"","image-keyboard-response","13","45739","0.0-18.0","379J5II41P2N2DLRVFPG81J30LOELM","A3FSDH6HUZPNQ8","3HUR21WDDUBEMSLDIXZW1FAIHVWXYO","","716","img/food5.png","74","716","1","1","false","2","2","1,0.5,0,1,0.5,0,0.5,0,1","1,0.5,0,1,0.5,0,0.5,0,1","1",""
"","html-keyboard-response","14","46044","0.0-19.0","379J5II41P2N2DLRVFPG81J30LOELM","A3FSDH6HUZPNQ8","3HUR21WDDUBEMSLDIXZW1FAIHVWXYO","","null","<img src=""img/food5.png"" style=""width:200px; border:14px solid green;"">","null","","","","","","","","","",""
"","image-keyboard-response","15","47051","0.0-21.0","379J5II41P2N2DLRVFPG81J30LOELM","A3FSDH6HUZPNQ8","3HUR21WDDUBEMSLDIXZW1FAIHVWXYO","","","img/food2.png","","1006","-1","0","true","1","2","1,0.5,0,1,0.5,0,0.5,0,1","1,0.5,0,1,0.5,0,0.5,0,1","1",""
"","html-keyboard-response","16","47365","0.0-22.0","379J5II41P2N2DLRVFPG81J30LOELM","A3FSDH6HUZPNQ8","3HUR21WDDUBEMSLDIXZW1FAIHVWXYO","","null","<img src=""img/food2.png"" style=""width:200px;border:14px solid red;"">","null","","","","","","","","","",""
"","html-keyboard-response","17","53116","0.0-23.0-0.0","379J5II41P2N2DLRVFPG81J30LOELM","A3FSDH6HUZPNQ8","3HUR21WDDUBEMSLDIXZW1FAIHVWXYO","","","","","","","","","","","","","",""
"","image-keyboard-response","18","53630","0.0-24.0","379J5II41P2N2DLRVFPG81J30LOELM","A3FSDH6HUZPNQ8","3HUR21WDDUBEMSLDIXZW1FAIHVWXYO","","514","img/food5.png","74","514","1","1","false","2","2","1,0.5,0,1,0.5,0,0.5,0,1","1,0.5,0,1,0.5,0,0.5,0,1","1",""
"","html-keyboard-response","19","53943","0.0-25.0","379J5II41P2N2DLRVFPG81J30LOELM","A3FSDH6HUZPNQ8","3HUR21WDDUBEMSLDIXZW1FAIHVWXYO","","null","<img src=""img/food5.png"" style=""width:200px; border:14px solid green;"">","null","","","","","","","","","",""
"","image-keyboard-response","20","54399","0.0-27.0","379J5II41P2N2DLRVFPG81J30LOELM","A3FSDH6HUZPNQ8","3HUR21WDDUBEMSLDIXZW1FAIHVWXYO","","455","img/food4.png","74","455","1","1","false","3","2","1,0.5,0,1,0.5,0,0.5,0,1","1,0.5,0,1,0.5,0,0.5,0,1","1",""
"","html-keyboard-response","21","54713","0.0-28.0","379J5II41P2N2DLRVFPG81J30LOELM","A3FSDH6HUZPNQ8","3HUR21WDDUBEMSLDIXZW1FAIHVWXYO","","null","<img src=""img/food4.png"" style=""width:200px; border:14px solid green;"">","null","","","","","","","","","",""
"","image-keyboard-response","22","55201","0.0-30.0","379J5II41P2N2DLRVFPG81J30LOELM","A3FSDH6HUZPNQ8","3HUR21WDDUBEMSLDIXZW1FAIHVWXYO","","488","img/food5.png","74","489","1","1","false","2","2","1,0.5,0,1,0.5,0,0.5,0,1","1,0.5,0,1,0.5,0,0.5,0,1","1",""
"","html-keyboard-response","23","55515","0.0-31.0","379J5II41P2N2DLRVFPG81J30LOELM","A3FSDH6HUZPNQ8","3HUR21WDDUBEMSLDIXZW1FAIHVWXYO","","null","<img src=""img/food5.png"" style=""width:200px; border:14px solid green;"">","null","","","","","","","","","",""
"","image-keyboard-response","24","56086","0.0-33.0","379J5II41P2N2DLRVFPG81J30LOELM","A3FSDH6HUZPNQ8","3HUR21WDDUBEMSLDIXZW1FAIHVWXYO","","571","img/food5.png","74","572","1","1","false","2","2","1,0.5,0,1,0.5,0,0.5,0,1","1,0.5,0,1,0.5,0,0.5,0,1","1",""
"","html-keyboard-response","25","56427","0.0-34.0","379J5II41P2N2DLRVFPG81J30LOELM","A3FSDH6HUZPNQ8","3HUR21WDDUBEMSLDIXZW1FAIHVWXYO","","null","<img src=""img/food5.png"" style=""width:200px; border:14px solid green;"">","null","","","","","","","","","",""
"","image-keyboard-response","26","56961","0.0-36.0","379J5II41P2N2DLRVFPG81J30LOELM","A3FSDH6HUZPNQ8","3HUR21WDDUBEMSLDIXZW1FAIHVWXYO","","533","img/food2.png","74","533","1","1","false","1","2","1,0.5,0,1,0.5,0,0.5,0,1","1,0.5,0,1,0.5,0,0.5,0,1","1",""
"","html-keyboard-response","27","57275","0.0-37.0","379J5II41P2N2DLRVFPG81J30LOELM","A3FSDH6HUZPNQ8","3HUR21WDDUBEMSLDIXZW1FAIHVWXYO","","null","<img src=""img/food2.png"" style=""width:200px; border:14px solid green;"">","null","","","","","","","","","",""
"","image-keyboard-response","28","57709","0.0-39.0","379J5II41P2N2DLRVFPG81J30LOELM","A3FSDH6HUZPNQ8","3HUR21WDDUBEMSLDIXZW1FAIHVWXYO","","433","img/food5.png","74","433","1","1","false","2","2","1,0.5,0,1,0.5,0,0.5,0,1","1,0.5,0,1,0.5,0,0.5,0,1","1",""
"","html-keyboard-response","29","58014","0.0-40.0","379J5II41P2N2DLRVFPG81J30LOELM","A3FSDH6HUZPNQ8","3HUR21WDDUBEMSLDIXZW1FAIHVWXYO","","null","<img src=""img/food5.png"" style=""width:200px; border:14px solid green;"">","null","","","","","","","","","",""
"","image-keyboard-response","30","58508","0.0-42.0","379J5II41P2N2DLRVFPG81J30LOELM","A3FSDH6HUZPNQ8","3HUR21WDDUBEMSLDIXZW1FAIHVWXYO","","494","img/food4.png","74","494","1","1","false","3","2","1,0.5,0,1,0.5,0,0.5,0,1","1,0.5,0,1,0.5,0,0.5,0,1","1",""
"","html-keyboard-response","31","58817","0.0-43.0","379J5II41P2N2DLRVFPG81J30LOELM","A3FSDH6HUZPNQ8","3HUR21WDDUBEMSLDIXZW1FAIHVWXYO","","null","<img src=""img/food4.png"" style=""width:200px; border:14px solid green;"">","null","","","","","","","","","",""
"","image-keyboard-response","32","59309","0.0-45.0","379J5II41P2N2DLRVFPG81J30LOELM","A3FSDH6HUZPNQ8","3HUR21WDDUBEMSLDIXZW1FAIHVWXYO","","492","img/food5.png","74","492","1","1","false","2","2","1,0.5,0,1,0.5,0,0.5,0,1","1,0.5,0,1,0.5,0,0.5,0,1","1",""
"","html-keyboard-response","33","59620","0.0-46.0","379J5II41P2N2DLRVFPG81J30LOELM","A3FSDH6HUZPNQ8","3HUR21WDDUBEMSLDIXZW1FAIHVWXYO","","null","<img src=""img/food5.png"" style=""width:200px; border:14px solid green;"">","null","","","","","","","","","",""
"","image-keyboard-response","34","60240","0.0-48.0","379J5II41P2N2DLRVFPG81J30LOELM","A3FSDH6HUZPNQ8","3HUR21WDDUBEMSLDIXZW1FAIHVWXYO","","619","img/food2.png","75","619","2","1","false","1","2","1,0.5,0,1,0.5,0,0.5,0,1","1,0.5,0,1,0.5,0,0.5,0,1","1",""
"","html-keyboard-response","35","60548","0.0-49.0","379J5II41P2N2DLRVFPG81J30LOELM","A3FSDH6HUZPNQ8","3HUR21WDDUBEMSLDIXZW1FAIHVWXYO","","null","<img src=""img/food2.png"" style=""width:200px; border:14px solid green;"">","null","","","","","","","","","",""
"","image-keyboard-response","36","61195","0.0-51.0","379J5II41P2N2DLRVFPG81J30LOELM","A3FSDH6HUZPNQ8","3HUR21WDDUBEMSLDIXZW1FAIHVWXYO","","646","img/food4.png","74","646","1","1","false","3","2","1,0.5,0,1,0.5,0,0.5,0,1","1,0.5,0,1,0.5,0,0.5,0,1","1",""
"","html-keyboard-response","37","61507","0.0-52.0","379J5II41P2N2DLRVFPG81J30LOELM","A3FSDH6HUZPNQ8","3HUR21WDDUBEMSLDIXZW1FAIHVWXYO","","null","<img src=""img/food4.png"" style=""width:200px; border:14px solid green;"">","null","","","","","","","","","",""
"","image-keyboard-response","38","62452","0.0-54.0","379J5II41P2N2DLRVFPG81J30LOELM","A3FSDH6HUZPNQ8","3HUR21WDDUBEMSLDIXZW1FAIHVWXYO","","943","img/food2.png","74","944","1","1","false","1","2","1,0.5,0,1,0.5,0,0.5,0,1","1,0.5,0,1,0.5,0,0.5,0,1","1",""
"","html-keyboard-response","39","62766","0.0-55.0","379J5II41P2N2DLRVFPG81J30LOELM","A3FSDH6HUZPNQ8","3HUR21WDDUBEMSLDIXZW1FAIHVWXYO","","null","<img src=""img/food2.png"" style=""width:200px; border:14px solid green;"">","null","","","","","","","","","",""
"","image-keyboard-response","40","63297","0.0-57.0","379J5II41P2N2DLRVFPG81J30LOELM","A3FSDH6HUZPNQ8","3HUR21WDDUBEMSLDIXZW1FAIHVWXYO","","530","img/food2.png","74","531","1","1","false","1","2","1,0.5,0,1,0.5,0,0.5,0,1","1,0.5,0,1,0.5,0,0.5,0,1","1",""
"","html-keyboard-response","41","63599","0.0-58.0","379J5II41P2N2DLRVFPG81J30LOELM","A3FSDH6HUZPNQ8","3HUR21WDDUBEMSLDIXZW1FAIHVWXYO","","null","<img src=""img/food2.png"" style=""width:200px; border:14px solid green;"">","null","","","","","","","","","",""
"","image-keyboard-response","42","64502","0.0-60.0","379J5II41P2N2DLRVFPG81J30LOELM","A3FSDH6HUZPNQ8","3HUR21WDDUBEMSLDIXZW1FAIHVWXYO","","903","img/food4.png","75","904","2","0","false","3","2","1,0.5,0,1,0.5,0,0.5,0,1","1,0.5,0,1,0.5,0,0.5,0,1","1",""
"","html-keyboard-response","43","64809","0.0-61.0","379J5II41P2N2DLRVFPG81J30LOELM","A3FSDH6HUZPNQ8","3HUR21WDDUBEMSLDIXZW1FAIHVWXYO","","null","<img src=""img/food4.png"" style=""width:200px;border:14px solid red;"">","null","","","","","","","","","",""
"","image-keyboard-response","44","65415","0.0-63.0","379J5II41P2N2DLRVFPG81J30LOELM","A3FSDH6HUZPNQ8","3HUR21WDDUBEMSLDIXZW1FAIHVWXYO","","604","img/food2.png","74","605","1","1","false","1","2","1,0.5,0,1,0.5,0,0.5,0,1","1,0.5,0,1,0.5,0,0.5,0,1","1",""
"","html-keyboard-response","45","65722","0.0-64.0","379J5II41P2N2DLRVFPG81J30LOELM","A3FSDH6HUZPNQ8","3HUR21WDDUBEMSLDIXZW1FAIHVWXYO","","null","<img src=""img/food2.png"" style=""width:200px; border:14px solid green;"">","null","","","","","","","","","",""
"","image-keyboard-response","46","66361","0.0-66.0","379J5II41P2N2DLRVFPG81J30LOELM","A3FSDH6HUZPNQ8","3HUR21WDDUBEMSLDIXZW1FAIHVWXYO","","639","img/food5.png","74","639","1","1","false","2","2","1,0.5,0,1,0.5,0,0.5,0,1","1,0.5,0,1,0.5,0,0.5,0,1","1",""
"","html-keyboard-response","47","66666","0.0-67.0","379J5II41P2N2DLRVFPG81J30LOELM","A3FSDH6HUZPNQ8","3HUR21WDDUBEMSLDIXZW1FAIHVWXYO","","null","<img src=""img/food5.png"" style=""width:200px; border:14px solid green;"">","null","","","","","","","","","",""
"","image-keyboard-response","48","67280","0.0-69.0","379J5II41P2N2DLRVFPG81J30LOELM","A3FSDH6HUZPNQ8","3HUR21WDDUBEMSLDIXZW1FAIHVWXYO","","614","img/food4.png","74","614","1","0","false","3","2","1,0.5,0,1,0.5,0,0.5,0,1","1,0.5,0,1,0.5,0,0.5,0,1","1",""
"","html-keyboard-response","49","67593","0.0-70.0","379J5II41P2N2DLRVFPG81J30LOELM","A3FSDH6HUZPNQ8","3HUR21WDDUBEMSLDIXZW1FAIHVWXYO","","null","<img src=""img/food4.png"" style=""width:200px;border:14px solid red;"">","null","","","","","","","","","",""
"","image-keyboard-response","50","68118","0.0-72.0","379J5II41P2N2DLRVFPG81J30LOELM","A3FSDH6HUZPNQ8","3HUR21WDDUBEMSLDIXZW1FAIHVWXYO","","525","img/food4.png","75","526","2","0","false","3","2","1,0.5,0,1,0.5,0,0.5,0,1","1,0.5,0,1,0.5,0,0.5,0,1","1",""
"","html-keyboard-response","51","68425","0.0-73.0","379J5II41P2N2DLRVFPG81J30LOELM","A3FSDH6HUZPNQ8","3HUR21WDDUBEMSLDIXZW1FAIHVWXYO","","null","<img src=""img/food4.png"" style=""width:200px;border:14px solid red;"">","null","","","","","","","","","",""
"","image-keyboard-response","52","68955","0.0-75.0","379J5II41P2N2DLRVFPG81J30LOELM","A3FSDH6HUZPNQ8","3HUR21WDDUBEMSLDIXZW1FAIHVWXYO","","531","img/food4.png","76","531","3","1","false","3","2","1,0.5,0,1,0.5,0,0.5,0,1","1,0.5,0,1,0.5,0,0.5,0,1","1",""
"","html-keyboard-response","53","69290","0.0-76.0","379J5II41P2N2DLRVFPG81J30LOELM","A3FSDH6HUZPNQ8","3HUR21WDDUBEMSLDIXZW1FAIHVWXYO","","null","<img src=""img/food4.png"" style=""width:200px; border:14px solid green;"">","null","","","","","","","","","",""
"","image-keyboard-response","54","69964","0.0-78.0","379J5II41P2N2DLRVFPG81J30LOELM","A3FSDH6HUZPNQ8","3HUR21WDDUBEMSLDIXZW1FAIHVWXYO","","673","img/food2.png","74","673","1","1","false","1","2","1,0.5,0,1,0.5,0,0.5,0,1","1,0.5,0,1,0.5,0,0.5,0,1","1",""
"","html-keyboard-response","55","70265","0.0-79.0","379J5II41P2N2DLRVFPG81J30LOELM","A3FSDH6HUZPNQ8","3HUR21WDDUBEMSLDIXZW1FAIHVWXYO","","null","<img src=""img/food2.png"" style=""width:200px; border:14px solid green;"">","null","","","","","","","","","",""
"","image-keyboard-response","56","70866","0.0-81.0","379J5II41P2N2DLRVFPG81J30LOELM","A3FSDH6HUZPNQ8","3HUR21WDDUBEMSLDIXZW1FAIHVWXYO","","599","img/food4.png","76","600","3","1","false","3","2","1,0.5,0,1,0.5,0,0.5,0,1","1,0.5,0,1,0.5,0,0.5,0,1","1",""
"","html-keyboard-response","57","71177","0.0-82.0","379J5II41P2N2DLRVFPG81J30LOELM","A3FSDH6HUZPNQ8","3HUR21WDDUBEMSLDIXZW1FAIHVWXYO","","null","<img src=""img/food4.png"" style=""width:200px; border:14px solid green;"">","null","","","","","","","","","",""
"","image-keyboard-response","58","71747","0.0-84.0","379J5II41P2N2DLRVFPG81J30LOELM","A3FSDH6HUZPNQ8","3HUR21WDDUBEMSLDIXZW1FAIHVWXYO","","568","img/food2.png","74","569","1","1","false","1","2","1,0.5,0,1,0.5,0,0.5,0,1","1,0.5,0,1,0.5,0,0.5,0,1","1",""
"","html-keyboard-response","59","72058","0.0-85.0","379J5II41P2N2DLRVFPG81J30LOELM","A3FSDH6HUZPNQ8","3HUR21WDDUBEMSLDIXZW1FAIHVWXYO","","null","<img src=""img/food2.png"" style=""width:200px; border:14px solid green;"">","null","","","","","","","","","",""
"","image-keyboard-response","60","72553","0.0-87.0","379J5II41P2N2DLRVFPG81J30LOELM","A3FSDH6HUZPNQ8","3HUR21WDDUBEMSLDIXZW1FAIHVWXYO","","493","img/food4.png","76","495","3","1","false","3","2","1,0.5,0,1,0.5,0,0.5,0,1","1,0.5,0,1,0.5,0,0.5,0,1","1",""
"","html-keyboard-response","61","72858","0.0-88.0","379J5II41P2N2DLRVFPG81J30LOELM","A3FSDH6HUZPNQ8","3HUR21WDDUBEMSLDIXZW1FAIHVWXYO","","null","<img src=""img/food4.png"" style=""width:200px; border:14px solid green;"">","null","","","","","","","","","",""
"","image-keyboard-response","62","73378","0.0-90.0","379J5II41P2N2DLRVFPG81J30LOELM","A3FSDH6HUZPNQ8","3HUR21WDDUBEMSLDIXZW1FAIHVWXYO","","518","img/food2.png","74","519","1","1","false","1","2","1,0.5,0,1,0.5,0,0.5,0,1","1,0.5,0,1,0.5,0,0.5,0,1","1",""
"","html-keyboard-response","63","73691","0.0-91.0","379J5II41P2N2DLRVFPG81J30LOELM","A3FSDH6HUZPNQ8","3HUR21WDDUBEMSLDIXZW1FAIHVWXYO","","null","<img src=""img/food2.png"" style=""width:200px; border:14px solid green;"">","null","","","","","","","","","",""
"","image-keyboard-response","64","74227","0.0-93.0","379J5II41P2N2DLRVFPG81J30LOELM","A3FSDH6HUZPNQ8","3HUR21WDDUBEMSLDIXZW1FAIHVWXYO","","535","img/food2.png","74","536","1","1","false","1","2","1,0.5,0,1,0.5,0,0.5,0,1","1,0.5,0,1,0.5,0,0.5,0,1","1",""
"","html-keyboard-response","65","74540","0.0-94.0","379J5II41P2N2DLRVFPG81J30LOELM","A3FSDH6HUZPNQ8","3HUR21WDDUBEMSLDIXZW1FAIHVWXYO","","null","<img src=""img/food2.png"" style=""width:200px; border:14px solid green;"">","null","","","","","","","","","",""
"","image-keyboard-response","66","75013","0.0-96.0","379J5II41P2N2DLRVFPG81J30LOELM","A3FSDH6HUZPNQ8","3HUR21WDDUBEMSLDIXZW1FAIHVWXYO","","472","img/food4.png","76","473","3","1","false","3","2","1,0.5,0,1,0.5,0,0.5,0,1","1,0.5,0,1,0.5,0,0.5,0,1","1",""
"","html-keyboard-response","67","75327","0.0-97.0","379J5II41P2N2DLRVFPG81J30LOELM","A3FSDH6HUZPNQ8","3HUR21WDDUBEMSLDIXZW1FAIHVWXYO","","null","<img src=""img/food4.png"" style=""width:200px; border:14px solid green;"">","null","","","","","","","","","",""
"","image-keyboard-response","68","75850","0.0-99.0","379J5II41P2N2DLRVFPG81J30LOELM","A3FSDH6HUZPNQ8","3HUR21WDDUBEMSLDIXZW1FAIHVWXYO","","522","img/food2.png","74","523","1","1","false","1","2","1,0.5,0,1,0.5,0,0.5,0,1","1,0.5,0,1,0.5,0,0.5,0,1","1",""
"","html-keyboard-response","69","76160","0.0-100.0","379J5II41P2N2DLRVFPG81J30LOELM","A3FSDH6HUZPNQ8","3HUR21WDDUBEMSLDIXZW1FAIHVWXYO","","null","<img src=""img/food2.png"" style=""width:200px; border:14px solid green;"">","null","","","","","","","","","",""
"","image-keyboard-response","70","77146","0.0-102.0","379J5II41P2N2DLRVFPG81J30LOELM","A3FSDH6HUZPNQ8","3HUR21WDDUBEMSLDIXZW1FAIHVWXYO","","985","img/food5.png","74","986","1","1","false","2","2","1,0.5,0,1,0.5,0,0.5,0,1","1,0.5,0,1,0.5,0,0.5,0,1","1",""
"","html-keyboard-response","71","77449","0.0-103.0","379J5II41P2N2DLRVFPG81J30LOELM","A3FSDH6HUZPNQ8","3HUR21WDDUBEMSLDIXZW1FAIHVWXYO","","null","<img src=""img/food5.png"" style=""width:200px; border:14px solid green;"">","null","","","","","","","","","",""
"","image-keyboard-response","72","78456","0.0-105.0","379J5II41P2N2DLRVFPG81J30LOELM","A3FSDH6HUZPNQ8","3HUR21WDDUBEMSLDIXZW1FAIHVWXYO","","","img/food2.png","","1006","-1","0","true","1","2","1,0.5,0,1,0.5,0,0.5,0,1","1,0.5,0,1,0.5,0,0.5,0,1","1",""
"","html-keyboard-response","73","78771","0.0-106.0","379J5II41P2N2DLRVFPG81J30LOELM","A3FSDH6HUZPNQ8","3HUR21WDDUBEMSLDIXZW1FAIHVWXYO","","null","<img src=""img/food2.png"" style=""width:200px;border:14px solid red;"">","null","","","","","","","","","",""
"","html-keyboard-response","74","83000","0.0-107.0-0.0","379J5II41P2N2DLRVFPG81J30LOELM","A3FSDH6HUZPNQ8","3HUR21WDDUBEMSLDIXZW1FAIHVWXYO","","","","","","","","","","","","","",""
"","image-keyboard-response","75","83649","0.0-108.0","379J5II41P2N2DLRVFPG81J30LOELM","A3FSDH6HUZPNQ8","3HUR21WDDUBEMSLDIXZW1FAIHVWXYO","","647","img/food5.png","74","648","1","1","false","2","2","1,0.5,0,1,0.5,0,0.5,0,1","1,0.5,0,1,0.5,0,0.5,0,1","1",""
"","html-keyboard-response","76","83960","0.0-109.0","379J5II41P2N2DLRVFPG81J30LOELM","A3FSDH6HUZPNQ8","3HUR21WDDUBEMSLDIXZW1FAIHVWXYO","","null","<img src=""img/food5.png"" style=""width:200px; border:14px solid green;"">","null","","","","","","","","","",""
"","image-keyboard-response","77","84355","0.0-111.0","379J5II41P2N2DLRVFPG81J30LOELM","A3FSDH6HUZPNQ8","3HUR21WDDUBEMSLDIXZW1FAIHVWXYO","","394","img/food5.png","74","394","1","1","false","2","2","1,0.5,0,1,0.5,0,0.5,0,1","1,0.5,0,1,0.5,0,0.5,0,1","1",""
"","html-keyboard-response","78","84665","0.0-112.0","379J5II41P2N2DLRVFPG81J30LOELM","A3FSDH6HUZPNQ8","3HUR21WDDUBEMSLDIXZW1FAIHVWXYO","","null","<img src=""img/food5.png"" style=""width:200px; border:14px solid green;"">","null","","","","","","","","","",""
"","image-keyboard-response","79","85203","0.0-114.0","379J5II41P2N2DLRVFPG81J30LOELM","A3FSDH6HUZPNQ8","3HUR21WDDUBEMSLDIXZW1FAIHVWXYO","","536","img/food4.png","74","536","1","0","false","3","2","1,0.5,0,1,0.5,0,0.5,0,1","1,0.5,0,1,0.5,0,0.5,0,1","1",""
"","html-keyboard-response","80","85515","0.0-115.0","379J5II41P2N2DLRVFPG81J30LOELM","A3FSDH6HUZPNQ8","3HUR21WDDUBEMSLDIXZW1FAIHVWXYO","","null","<img src=""img/food4.png"" style=""width:200px;border:14px solid red;"">","null","","","","","","","","","",""
"","image-keyboard-response","81","86174","0.0-117.0","379J5II41P2N2DLRVFPG81J30LOELM","A3FSDH6HUZPNQ8","3HUR21WDDUBEMSLDIXZW1FAIHVWXYO","","659","img/food5.png","74","660","1","1","false","2","2","1,0.5,0,1,0.5,0,0.5,0,1","1,0.5,0,1,0.5,0,0.5,0,1","1",""
"","html-keyboard-response","82","86490","0.0-118.0","379J5II41P2N2DLRVFPG81J30LOELM","A3FSDH6HUZPNQ8","3HUR21WDDUBEMSLDIXZW1FAIHVWXYO","","null","<img src=""img/food5.png"" style=""width:200px; border:14px solid green;"">","null","","","","","","","","","",""
"","image-keyboard-response","83","86869","0.0-120.0","379J5II41P2N2DLRVFPG81J30LOELM","A3FSDH6HUZPNQ8","3HUR21WDDUBEMSLDIXZW1FAIHVWXYO","","378","img/food4.png","74","378","1","0","false","3","2","1,0.5,0,1,0.5,0,0.5,0,1","1,0.5,0,1,0.5,0,0.5,0,1","1",""
"","html-keyboard-response","84","87182","0.0-121.0","379J5II41P2N2DLRVFPG81J30LOELM","A3FSDH6HUZPNQ8","3HUR21WDDUBEMSLDIXZW1FAIHVWXYO","","null","<img src=""img/food4.png"" style=""width:200px;border:14px solid red;"">","null","","","","","","","","","",""
"","image-keyboard-response","85","87864","0.0-123.0","379J5II41P2N2DLRVFPG81J30LOELM","A3FSDH6HUZPNQ8","3HUR21WDDUBEMSLDIXZW1FAIHVWXYO","","681","img/food2.png","74","682","1","1","false","1","2","1,0.5,0,1,0.5,0,0.5,0,1","1,0.5,0,1,0.5,0,0.5,0,1","1",""
"","html-keyboard-response","86","88170","0.0-124.0","379J5II41P2N2DLRVFPG81J30LOELM","A3FSDH6HUZPNQ8","3HUR21WDDUBEMSLDIXZW1FAIHVWXYO","","null","<img src=""img/food2.png"" style=""width:200px; border:14px solid green;"">","null","","","","","","","","","",""
"","image-keyboard-response","87","88524","0.0-126.0","379J5II41P2N2DLRVFPG81J30LOELM","A3FSDH6HUZPNQ8","3HUR21WDDUBEMSLDIXZW1FAIHVWXYO","","353","img/food2.png","74","353","1","1","false","1","2","1,0.5,0,1,0.5,0,0.5,0,1","1,0.5,0,1,0.5,0,0.5,0,1","1",""
"","html-keyboard-response","88","88830","0.0-127.0","379J5II41P2N2DLRVFPG81J30LOELM","A3FSDH6HUZPNQ8","3HUR21WDDUBEMSLDIXZW1FAIHVWXYO","","null","<img src=""img/food2.png"" style=""width:200px; border:14px solid green;"">","null","","","","","","","","","",""
"","image-keyboard-response","89","89217","0.0-129.0","379J5II41P2N2DLRVFPG81J30LOELM","A3FSDH6HUZPNQ8","3HUR21WDDUBEMSLDIXZW1FAIHVWXYO","","385","img/food2.png","74","385","1","1","false","1","2","1,0.5,0,1,0.5,0,0.5,0,1","1,0.5,0,1,0.5,0,0.5,0,1","1",""
"","html-keyboard-response","90","89522","0.0-130.0","379J5II41P2N2DLRVFPG81J30LOELM","A3FSDH6HUZPNQ8","3HUR21WDDUBEMSLDIXZW1FAIHVWXYO","","null","<img src=""img/food2.png"" style=""width:200px; border:14px solid green;"">","null","","","","","","","","","",""
"","image-keyboard-response","91","89962","0.0-132.0","379J5II41P2N2DLRVFPG81J30LOELM","A3FSDH6HUZPNQ8","3HUR21WDDUBEMSLDIXZW1FAIHVWXYO","","440","img/food4.png","76","440","3","1","false","3","2","1,0.5,0,1,0.5,0,0.5,0,1","1,0.5,0,1,0.5,0,0.5,0,1","1",""
"","html-keyboard-response","92","90276","0.0-133.0","379J5II41P2N2DLRVFPG81J30LOELM","A3FSDH6HUZPNQ8","3HUR21WDDUBEMSLDIXZW1FAIHVWXYO","","null","<img src=""img/food4.png"" style=""width:200px; border:14px solid green;"">","null","","","","","","","","","",""
"","image-keyboard-response","93","91066","0.0-135.0","379J5II41P2N2DLRVFPG81J30LOELM","A3FSDH6HUZPNQ8","3HUR21WDDUBEMSLDIXZW1FAIHVWXYO","","791","img/food5.png","74","791","1","1","false","2","2","1,0.5,0,1,0.5,0,0.5,0,1","1,0.5,0,1,0.5,0,0.5,0,1","1",""
"","html-keyboard-response","94","91377","0.0-136.0","379J5II41P2N2DLRVFPG81J30LOELM","A3FSDH6HUZPNQ8","3HUR21WDDUBEMSLDIXZW1FAIHVWXYO","","null","<img src=""img/food5.png"" style=""width:200px; border:14px solid green;"">","null","","","","","","","","","",""
"","image-keyboard-response","95","92084","0.0-138.0","379J5II41P2N2DLRVFPG81J30LOELM","A3FSDH6HUZPNQ8","3HUR21WDDUBEMSLDIXZW1FAIHVWXYO","","706","img/food4.png","76","708","3","1","false","3","2","1,0.5,0,1,0.5,0,0.5,0,1","1,0.5,0,1,0.5,0,0.5,0,1","1",""
"","html-keyboard-response","96","92398","0.0-139.0","379J5II41P2N2DLRVFPG81J30LOELM","A3FSDH6HUZPNQ8","3HUR21WDDUBEMSLDIXZW1FAIHVWXYO","","null","<img src=""img/food4.png"" style=""width:200px; border:14px solid green;"">","null","","","","","","","","","",""
"","image-keyboard-response","97","92949","0.0-141.0","379J5II41P2N2DLRVFPG81J30LOELM","A3FSDH6HUZPNQ8","3HUR21WDDUBEMSLDIXZW1FAIHVWXYO","","550","img/food5.png","74","552","1","1","false","2","2","1,0.5,0,1,0.5,0,0.5,0,1","1,0.5,0,1,0.5,0,0.5,0,1","1",""
"","html-keyboard-response","98","93263","0.0-142.0","379J5II41P2N2DLRVFPG81J30LOELM","A3FSDH6HUZPNQ8","3HUR21WDDUBEMSLDIXZW1FAIHVWXYO","","null","<img src=""img/food5.png"" style=""width:200px; border:14px solid green;"">","null","","","","","","","","","",""
"","image-keyboard-response","99","93720","0.0-144.0","379J5II41P2N2DLRVFPG81J30LOELM","A3FSDH6HUZPNQ8","3HUR21WDDUBEMSLDIXZW1FAIHVWXYO","","456","img/food2.png","75","456","2","1","false","1","2","1,0.5,0,1,0.5,0,0.5,0,1","1,0.5,0,1,0.5,0,0.5,0,1","1",""
"","html-keyboard-response","100","94035","0.0-145.0","379J5II41P2N2DLRVFPG81J30LOELM","A3FSDH6HUZPNQ8","3HUR21WDDUBEMSLDIXZW1FAIHVWXYO","","null","<img src=""img/food2.png"" style=""width:200px; border:14px solid green;"">","null","","","","","","","","","",""
"","image-keyboard-response","101","94549","0.0-147.0","379J5II41P2N2DLRVFPG81J30LOELM","A3FSDH6HUZPNQ8","3HUR21WDDUBEMSLDIXZW1FAIHVWXYO","","513","img/food2.png","75","513","2","1","false","1","2","1,0.5,0,1,0.5,0,0.5,0,1","1,0.5,0,1,0.5,0,0.5,0,1","1",""
"","html-keyboard-response","102","94850","0.0-148.0","379J5II41P2N2DLRVFPG81J30LOELM","A3FSDH6HUZPNQ8","3HUR21WDDUBEMSLDIXZW1FAIHVWXYO","","null","<img src=""img/food2.png"" style=""width:200px; border:14px solid green;"">","null","","","","","","","","","",""
"","image-keyboard-response","103","95377","0.0-150.0","379J5II41P2N2DLRVFPG81J30LOELM","A3FSDH6HUZPNQ8","3HUR21WDDUBEMSLDIXZW1FAIHVWXYO","","526","img/food5.png","74","527","1","1","false","2","2","1,0.5,0,1,0.5,0,0.5,0,1","1,0.5,0,1,0.5,0,0.5,0,1","1",""
"","html-keyboard-response","104","95683","0.0-151.0","379J5II41P2N2DLRVFPG81J30LOELM","A3FSDH6HUZPNQ8","3HUR21WDDUBEMSLDIXZW1FAIHVWXYO","","null","<img src=""img/food5.png"" style=""width:200px; border:14px solid green;"">","null","","","","","","","","","",""
"","image-keyboard-response","105","96374","0.0-153.0","379J5II41P2N2DLRVFPG81J30LOELM","A3FSDH6HUZPNQ8","3HUR21WDDUBEMSLDIXZW1FAIHVWXYO","","690","img/food2.png","74","690","1","1","false","1","2","1,0.5,0,1,0.5,0,0.5,0,1","1,0.5,0,1,0.5,0,0.5,0,1","1",""
"","html-keyboard-response","106","96690","0.0-154.0","379J5II41P2N2DLRVFPG81J30LOELM","A3FSDH6HUZPNQ8","3HUR21WDDUBEMSLDIXZW1FAIHVWXYO","","null","<img src=""img/food2.png"" style=""width:200px; border:14px solid green;"">","null","","","","","","","","","",""
"","image-keyboard-response","107","97695","0.0-156.0","379J5II41P2N2DLRVFPG81J30LOELM","A3FSDH6HUZPNQ8","3HUR21WDDUBEMSLDIXZW1FAIHVWXYO","","","img/food4.png","","1006","-1","0","true","3","2","1,0.5,0,1,0.5,0,0.5,0,1","1,0.5,0,1,0.5,0,0.5,0,1","1",""
"","html-keyboard-response","108","98009","0.0-157.0","379J5II41P2N2DLRVFPG81J30LOELM","A3FSDH6HUZPNQ8","3HUR21WDDUBEMSLDIXZW1FAIHVWXYO","","null","<img src=""img/food4.png"" style=""width:200px;border:14px solid red;"">","null","","","","","","","","","",""
"","html-keyboard-response","109","101273","0.0-158.0-0.0","379J5II41P2N2DLRVFPG81J30LOELM","A3FSDH6HUZPNQ8","3HUR21WDDUBEMSLDIXZW1FAIHVWXYO","","","","","","","","","","","","","",""
"","image-keyboard-response","110","101852","0.0-159.0","379J5II41P2N2DLRVFPG81J30LOELM","A3FSDH6HUZPNQ8","3HUR21WDDUBEMSLDIXZW1FAIHVWXYO","","578","img/food2.png","74","578","1","1","false","1","2","1,0.5,0,1,0.5,0,0.5,0,1","1,0.5,0,1,0.5,0,0.5,0,1","1",""
"","html-keyboard-response","111","102155","0.0-160.0","379J5II41P2N2DLRVFPG81J30LOELM","A3FSDH6HUZPNQ8","3HUR21WDDUBEMSLDIXZW1FAIHVWXYO","","null","<img src=""img/food2.png"" style=""width:200px; border:14px solid green;"">","null","","","","","","","","","",""
"","image-keyboard-response","112","102618","0.0-162.0","379J5II41P2N2DLRVFPG81J30LOELM","A3FSDH6HUZPNQ8","3HUR21WDDUBEMSLDIXZW1FAIHVWXYO","","462","img/food5.png","74","462","1","1","false","2","2","1,0.5,0,1,0.5,0,0.5,0,1","1,0.5,0,1,0.5,0,0.5,0,1","1",""
"","html-keyboard-response","113","102926","0.0-163.0","379J5II41P2N2DLRVFPG81J30LOELM","A3FSDH6HUZPNQ8","3HUR21WDDUBEMSLDIXZW1FAIHVWXYO","","null","<img src=""img/food5.png"" style=""width:200px; border:14px solid green;"">","null","","","","","","","","","",""
"","image-keyboard-response","114","103313","0.0-165.0","379J5II41P2N2DLRVFPG81J30LOELM","A3FSDH6HUZPNQ8","3HUR21WDDUBEMSLDIXZW1FAIHVWXYO","","387","img/food2.png","74","389","1","1","false","1","2","1,0.5,0,1,0.5,0,0.5,0,1","1,0.5,0,1,0.5,0,0.5,0,1","1",""
"","html-keyboard-response","115","103615","0.0-166.0","379J5II41P2N2DLRVFPG81J30LOELM","A3FSDH6HUZPNQ8","3HUR21WDDUBEMSLDIXZW1FAIHVWXYO","","null","<img src=""img/food2.png"" style=""width:200px; border:14px solid green;"">","null","","","","","","","","","",""
"","image-keyboard-response","116","104004","0.0-168.0","379J5II41P2N2DLRVFPG81J30LOELM","A3FSDH6HUZPNQ8","3HUR21WDDUBEMSLDIXZW1FAIHVWXYO","","387","img/food2.png","74","388","1","1","false","1","2","1,0.5,0,1,0.5,0,0.5,0,1","1,0.5,0,1,0.5,0,0.5,0,1","1",""
"","html-keyboard-response","117","104306","0.0-169.0","379J5II41P2N2DLRVFPG81J30LOELM","A3FSDH6HUZPNQ8","3HUR21WDDUBEMSLDIXZW1FAIHVWXYO","","null","<img src=""img/food2.png"" style=""width:200px; border:14px solid green;"">","null","","","","","","","","","",""
"","image-keyboard-response","118","104868","0.0-171.0","379J5II41P2N2DLRVFPG81J30LOELM","A3FSDH6HUZPNQ8","3HUR21WDDUBEMSLDIXZW1FAIHVWXYO","","561","img/food5.png","74","562","1","1","false","2","2","1,0.5,0,1,0.5,0,0.5,0,1","1,0.5,0,1,0.5,0,0.5,0,1","1",""
"","html-keyboard-response","119","105170","0.0-172.0","379J5II41P2N2DLRVFPG81J30LOELM","A3FSDH6HUZPNQ8","3HUR21WDDUBEMSLDIXZW1FAIHVWXYO","","null","<img src=""img/food5.png"" style=""width:200px; border:14px solid green;"">","null","","","","","","","","","",""
"","image-keyboard-response","120","105558","0.0-174.0","379J5II41P2N2DLRVFPG81J30LOELM","A3FSDH6HUZPNQ8","3HUR21WDDUBEMSLDIXZW1FAIHVWXYO","","388","img/food4.png","74","388","1","1","false","3","2","1,0.5,0,1,0.5,0,0.5,0,1","1,0.5,0,1,0.5,0,0.5,0,1","1",""
"","html-keyboard-response","121","105861","0.0-175.0","379J5II41P2N2DLRVFPG81J30LOELM","A3FSDH6HUZPNQ8","3HUR21WDDUBEMSLDIXZW1FAIHVWXYO","","null","<img src=""img/food4.png"" style=""width:200px; border:14px solid green;"">","null","","","","","","","","","",""
"","image-keyboard-response","122","106157","0.0-177.0","379J5II41P2N2DLRVFPG81J30LOELM","A3FSDH6HUZPNQ8","3HUR21WDDUBEMSLDIXZW1FAIHVWXYO","","295","img/food2.png","74","295","1","1","false","1","2","1,0.5,0,1,0.5,0,0.5,0,1","1,0.5,0,1,0.5,0,0.5,0,1","1",""
"","html-keyboard-response","123","106457","0.0-178.0","379J5II41P2N2DLRVFPG81J30LOELM","A3FSDH6HUZPNQ8","3HUR21WDDUBEMSLDIXZW1FAIHVWXYO","","null","<img src=""img/food2.png"" style=""width:200px; border:14px solid green;"">","null","","","","","","","","","",""
"","image-keyboard-response","124","106830","0.0-180.0","379J5II41P2N2DLRVFPG81J30LOELM","A3FSDH6HUZPNQ8","3HUR21WDDUBEMSLDIXZW1FAIHVWXYO","","372","img/food2.png","74","372","1","1","false","1","2","1,0.5,0,1,0.5,0,0.5,0,1","1,0.5,0,1,0.5,0,0.5,0,1","1",""
"","html-keyboard-response","125","107133","0.0-181.0","379J5II41P2N2DLRVFPG81J30LOELM","A3FSDH6HUZPNQ8","3HUR21WDDUBEMSLDIXZW1FAIHVWXYO","","null","<img src=""img/food2.png"" style=""width:200px; border:14px solid green;"">","null","","","","","","","","","",""
"","image-keyboard-response","126","107556","0.0-183.0","379J5II41P2N2DLRVFPG81J30LOELM","A3FSDH6HUZPNQ8","3HUR21WDDUBEMSLDIXZW1FAIHVWXYO","","423","img/food4.png","74","423","1","0","false","3","2","1,0.5,0,1,0.5,0,0.5,0,1","1,0.5,0,1,0.5,0,0.5,0,1","1",""
"","html-keyboard-response","127","107871","0.0-184.0","379J5II41P2N2DLRVFPG81J30LOELM","A3FSDH6HUZPNQ8","3HUR21WDDUBEMSLDIXZW1FAIHVWXYO","","null","<img src=""img/food4.png"" style=""width:200px;border:14px solid red;"">","null","","","","","","","","","",""
"","image-keyboard-response","128","108474","0.0-186.0","379J5II41P2N2DLRVFPG81J30LOELM","A3FSDH6HUZPNQ8","3HUR21WDDUBEMSLDIXZW1FAIHVWXYO","","603","img/food2.png","76","603","3","0","false","1","2","1,0.5,0,1,0.5,0,0.5,0,1","1,0.5,0,1,0.5,0,0.5,0,1","1",""
"","html-keyboard-response","129","108783","0.0-187.0","379J5II41P2N2DLRVFPG81J30LOELM","A3FSDH6HUZPNQ8","3HUR21WDDUBEMSLDIXZW1FAIHVWXYO","","null","<img src=""img/food2.png"" style=""width:200px;border:14px solid red;"">","null","","","","","","","","","",""
"","image-keyboard-response","130","109200","0.0-189.0","379J5II41P2N2DLRVFPG81J30LOELM","A3FSDH6HUZPNQ8","3HUR21WDDUBEMSLDIXZW1FAIHVWXYO","","416","img/food4.png","74","417","1","0","false","3","2","1,0.5,0,1,0.5,0,0.5,0,1","1,0.5,0,1,0.5,0,0.5,0,1","1",""
"","html-keyboard-response","131","109506","0.0-190.0","379J5II41P2N2DLRVFPG81J30LOELM","A3FSDH6HUZPNQ8","3HUR21WDDUBEMSLDIXZW1FAIHVWXYO","","null","<img src=""img/food4.png"" style=""width:200px;border:14px solid red;"">","null","","","","","","","","","",""
"","image-keyboard-response","132","110280","0.0-192.0","379J5II41P2N2DLRVFPG81J30LOELM","A3FSDH6HUZPNQ8","3HUR21WDDUBEMSLDIXZW1FAIHVWXYO","","774","img/food5.png","74","774","1","1","false","2","2","1,0.5,0,1,0.5,0,0.5,0,1","1,0.5,0,1,0.5,0,0.5,0,1","1",""
"","html-keyboard-response","133","110590","0.0-193.0","379J5II41P2N2DLRVFPG81J30LOELM","A3FSDH6HUZPNQ8","3HUR21WDDUBEMSLDIXZW1FAIHVWXYO","","null","<img src=""img/food5.png"" style=""width:200px; border:14px solid green;"">","null","","","","","","","","","",""
"","image-keyboard-response","134","111233","0.0-195.0","379J5II41P2N2DLRVFPG81J30LOELM","A3FSDH6HUZPNQ8","3HUR21WDDUBEMSLDIXZW1FAIHVWXYO","","643","img/food2.png","75","644","2","0","false","1","2","1,0.5,0,1,0.5,0,0.5,0,1","1,0.5,0,1,0.5,0,0.5,0,1","1",""
"","html-keyboard-response","135","111534","0.0-196.0","379J5II41P2N2DLRVFPG81J30LOELM","A3FSDH6HUZPNQ8","3HUR21WDDUBEMSLDIXZW1FAIHVWXYO","","null","<img src=""img/food2.png"" style=""width:200px;border:14px solid red;"">","null","","","","","","","","","",""
"","image-keyboard-response","136","112038","0.0-198.0","379J5II41P2N2DLRVFPG81J30LOELM","A3FSDH6HUZPNQ8","3HUR21WDDUBEMSLDIXZW1FAIHVWXYO","","502","img/food5.png","74","504","1","1","false","2","2","1,0.5,0,1,0.5,0,0.5,0,1","1,0.5,0,1,0.5,0,0.5,0,1","1",""
"","html-keyboard-response","137","112351","0.0-199.0","379J5II41P2N2DLRVFPG81J30LOELM","A3FSDH6HUZPNQ8","3HUR21WDDUBEMSLDIXZW1FAIHVWXYO","","null","<img src=""img/food5.png"" style=""width:200px; border:14px solid green;"">","null","","","","","","","","","",""
"","image-keyboard-response","138","112836","0.0-201.0","379J5II41P2N2DLRVFPG81J30LOELM","A3FSDH6HUZPNQ8","3HUR21WDDUBEMSLDIXZW1FAIHVWXYO","","485","img/food4.png","75","485","2","0","false","3","2","1,0.5,0,1,0.5,0,0.5,0,1","1,0.5,0,1,0.5,0,0.5,0,1","1",""
"","html-keyboard-response","139","113139","0.0-202.0","379J5II41P2N2DLRVFPG81J30LOELM","A3FSDH6HUZPNQ8","3HUR21WDDUBEMSLDIXZW1FAIHVWXYO","","null","<img src=""img/food4.png"" style=""width:200px;border:14px solid red;"">","null","","","","","","","","","",""
"","image-keyboard-response","140","113675","0.0-204.0","379J5II41P2N2DLRVFPG81J30LOELM","A3FSDH6HUZPNQ8","3HUR21WDDUBEMSLDIXZW1FAIHVWXYO","","535","img/food4.png","76","535","3","1","false","3","2","1,0.5,0,1,0.5,0,0.5,0,1","1,0.5,0,1,0.5,0,0.5,0,1","1",""
"","html-keyboard-response","141","113988","0.0-205.0","379J5II41P2N2DLRVFPG81J30LOELM","A3FSDH6HUZPNQ8","3HUR21WDDUBEMSLDIXZW1FAIHVWXYO","","null","<img src=""img/food4.png"" style=""width:200px; border:14px solid green;"">","null","","","","","","","","","",""
"","image-keyboard-response","142","114702","0.0-207.0","379J5II41P2N2DLRVFPG81J30LOELM","A3FSDH6HUZPNQ8","3HUR21WDDUBEMSLDIXZW1FAIHVWXYO","","714","img/food5.png","74","715","1","1","false","2","2","1,0.5,0,1,0.5,0,0.5,0,1","1,0.5,0,1,0.5,0,0.5,0,1","1",""
"","html-keyboard-response","143","115008","0.0-208.0","379J5II41P2N2DLRVFPG81J30LOELM","A3FSDH6HUZPNQ8","3HUR21WDDUBEMSLDIXZW1FAIHVWXYO","","null","<img src=""img/food5.png"" style=""width:200px; border:14px solid green;"">","null","","","","","","","","","",""
"","image-keyboard-response","144","116015","0.0-210.0","379J5II41P2N2DLRVFPG81J30LOELM","A3FSDH6HUZPNQ8","3HUR21WDDUBEMSLDIXZW1FAIHVWXYO","","","img/food4.png","","1006","-1","0","true","3","2","1,0.5,0,1,0.5,0,0.5,0,1","1,0.5,0,1,0.5,0,0.5,0,1","1",""
"","html-keyboard-response","145","116329","0.0-211.0","379J5II41P2N2DLRVFPG81J30LOELM","A3FSDH6HUZPNQ8","3HUR21WDDUBEMSLDIXZW1FAIHVWXYO","","null","<img src=""img/food4.png"" style=""width:200px;border:14px solid red;"">","null","","","","","","","","","",""
"","html-keyboard-response","146","119523","0.0-212.0-0.0","379J5II41P2N2DLRVFPG81J30LOELM","A3FSDH6HUZPNQ8","3HUR21WDDUBEMSLDIXZW1FAIHVWXYO","","","","","","","","","","","","","",""
"","image-keyboard-response","147","119998","0.0-213.0","379J5II41P2N2DLRVFPG81J30LOELM","A3FSDH6HUZPNQ8","3HUR21WDDUBEMSLDIXZW1FAIHVWXYO","","473","img/food5.png","74","474","1","1","false","2","2","1,0.5,0,1,0.5,0,0.5,0,1","1,0.5,0,1,0.5,0,0.5,0,1","1",""
"","html-keyboard-response","148","120304","0.0-214.0","379J5II41P2N2DLRVFPG81J30LOELM","A3FSDH6HUZPNQ8","3HUR21WDDUBEMSLDIXZW1FAIHVWXYO","","null","<img src=""img/food5.png"" style=""width:200px; border:14px solid green;"">","null","","","","","","","","","",""
"","image-keyboard-response","149","120859","0.0-216.0","379J5II41P2N2DLRVFPG81J30LOELM","A3FSDH6HUZPNQ8","3HUR21WDDUBEMSLDIXZW1FAIHVWXYO","","554","img/food2.png","74","554","1","1","false","1","2","1,0.5,0,1,0.5,0,0.5,0,1","1,0.5,0,1,0.5,0,0.5,0,1","1",""
"","html-keyboard-response","150","121166","0.0-217.0","379J5II41P2N2DLRVFPG81J30LOELM","A3FSDH6HUZPNQ8","3HUR21WDDUBEMSLDIXZW1FAIHVWXYO","","null","<img src=""img/food2.png"" style=""width:200px; border:14px solid green;"">","null","","","","","","","","","",""
"","image-keyboard-response","151","121580","0.0-219.0","379J5II41P2N2DLRVFPG81J30LOELM","A3FSDH6HUZPNQ8","3HUR21WDDUBEMSLDIXZW1FAIHVWXYO","","414","img/food4.png","74","415","1","1","false","3","2","1,0.5,0,1,0.5,0,0.5,0,1","1,0.5,0,1,0.5,0,0.5,0,1","1",""
"","html-keyboard-response","152","121888","0.0-220.0","379J5II41P2N2DLRVFPG81J30LOELM","A3FSDH6HUZPNQ8","3HUR21WDDUBEMSLDIXZW1FAIHVWXYO","","null","<img src=""img/food4.png"" style=""width:200px; border:14px solid green;"">","null","","","","","","","","","",""
"","image-keyboard-response","153","122342","0.0-222.0","379J5II41P2N2DLRVFPG81J30LOELM","A3FSDH6HUZPNQ8","3HUR21WDDUBEMSLDIXZW1FAIHVWXYO","","452","img/food4.png","74","454","1","0","false","3","2","1,0.5,0,1,0.5,0,0.5,0,1","1,0.5,0,1,0.5,0,0.5,0,1","1",""
"","html-keyboard-response","154","122657","0.0-223.0","379J5II41P2N2DLRVFPG81J30LOELM","A3FSDH6HUZPNQ8","3HUR21WDDUBEMSLDIXZW1FAIHVWXYO","","null","<img src=""img/food4.png"" style=""width:200px;border:14px solid red;"">","null","","","","","","","","","",""
"","image-keyboard-response","155","123396","0.0-225.0","379J5II41P2N2DLRVFPG81J30LOELM","A3FSDH6HUZPNQ8","3HUR21WDDUBEMSLDIXZW1FAIHVWXYO","","738","img/food4.png","74","738","1","1","false","3","2","1,0.5,0,1,0.5,0,0.5,0,1","1,0.5,0,1,0.5,0,0.5,0,1","1",""
"","html-keyboard-response","156","123711","0.0-226.0","379J5II41P2N2DLRVFPG81J30LOELM","A3FSDH6HUZPNQ8","3HUR21WDDUBEMSLDIXZW1FAIHVWXYO","","null","<img src=""img/food4.png"" style=""width:200px; border:14px solid green;"">","null","","","","","","","","","",""
"","image-keyboard-response","157","124121","0.0-228.0","379J5II41P2N2DLRVFPG81J30LOELM","A3FSDH6HUZPNQ8","3HUR21WDDUBEMSLDIXZW1FAIHVWXYO","","411","img/food2.png","74","411","1","1","false","1","2","1,0.5,0,1,0.5,0,0.5,0,1","1,0.5,0,1,0.5,0,0.5,0,1","1",""
"","html-keyboard-response","158","124432","0.0-229.0","379J5II41P2N2DLRVFPG81J30LOELM","A3FSDH6HUZPNQ8","3HUR21WDDUBEMSLDIXZW1FAIHVWXYO","","null","<img src=""img/food2.png"" style=""width:200px; border:14px solid green;"">","null","","","","","","","","","",""
"","image-keyboard-response","159","124906","0.0-231.0","379J5II41P2N2DLRVFPG81J30LOELM","A3FSDH6HUZPNQ8","3HUR21WDDUBEMSLDIXZW1FAIHVWXYO","","473","img/food5.png","74","474","1","1","false","2","2","1,0.5,0,1,0.5,0,0.5,0,1","1,0.5,0,1,0.5,0,0.5,0,1","1",""
"","html-keyboard-response","160","125220","0.0-232.0","379J5II41P2N2DLRVFPG81J30LOELM","A3FSDH6HUZPNQ8","3HUR21WDDUBEMSLDIXZW1FAIHVWXYO","","null","<img src=""img/food5.png"" style=""width:200px; border:14px solid green;"">","null","","","","","","","","","",""
"","image-keyboard-response","161","125828","0.0-234.0","379J5II41P2N2DLRVFPG81J30LOELM","A3FSDH6HUZPNQ8","3HUR21WDDUBEMSLDIXZW1FAIHVWXYO","","608","img/food4.png","76","608","3","1","false","3","2","1,0.5,0,1,0.5,0,0.5,0,1","1,0.5,0,1,0.5,0,0.5,0,1","1",""
"","html-keyboard-response","162","126131","0.0-235.0","379J5II41P2N2DLRVFPG81J30LOELM","A3FSDH6HUZPNQ8","3HUR21WDDUBEMSLDIXZW1FAIHVWXYO","","null","<img src=""img/food4.png"" style=""width:200px; border:14px solid green;"">","null","","","","","","","","","",""
"","image-keyboard-response","163","126570","0.0-237.0","379J5II41P2N2DLRVFPG81J30LOELM","A3FSDH6HUZPNQ8","3HUR21WDDUBEMSLDIXZW1FAIHVWXYO","","436","img/food4.png","76","436","3","1","false","3","2","1,0.5,0,1,0.5,0,0.5,0,1","1,0.5,0,1,0.5,0,0.5,0,1","1",""
"","html-keyboard-response","164","126871","0.0-238.0","379J5II41P2N2DLRVFPG81J30LOELM","A3FSDH6HUZPNQ8","3HUR21WDDUBEMSLDIXZW1FAIHVWXYO","","null","<img src=""img/food4.png"" style=""width:200px; border:14px solid green;"">","null","","","","","","","","","",""
"","image-keyboard-response","165","127340","0.0-240.0","379J5II41P2N2DLRVFPG81J30LOELM","A3FSDH6HUZPNQ8","3HUR21WDDUBEMSLDIXZW1FAIHVWXYO","","468","img/food2.png","74","468","1","1","false","1","2","1,0.5,0,1,0.5,0,0.5,0,1","1,0.5,0,1,0.5,0,0.5,0,1","1",""
"","html-keyboard-response","166","127641","0.0-241.0","379J5II41P2N2DLRVFPG81J30LOELM","A3FSDH6HUZPNQ8","3HUR21WDDUBEMSLDIXZW1FAIHVWXYO","","null","<img src=""img/food2.png"" style=""width:200px; border:14px solid green;"">","null","","","","","","","","","",""
"","image-keyboard-response","167","128078","0.0-243.0","379J5II41P2N2DLRVFPG81J30LOELM","A3FSDH6HUZPNQ8","3HUR21WDDUBEMSLDIXZW1FAIHVWXYO","","437","img/food5.png","74","438","1","1","false","2","2","1,0.5,0,1,0.5,0,0.5,0,1","1,0.5,0,1,0.5,0,0.5,0,1","1",""
"","html-keyboard-response","168","128380","0.0-244.0","379J5II41P2N2DLRVFPG81J30LOELM","A3FSDH6HUZPNQ8","3HUR21WDDUBEMSLDIXZW1FAIHVWXYO","","null","<img src=""img/food5.png"" style=""width:200px; border:14px solid green;"">","null","","","","","","","","","",""
"","image-keyboard-response","169","128858","0.0-246.0","379J5II41P2N2DLRVFPG81J30LOELM","A3FSDH6HUZPNQ8","3HUR21WDDUBEMSLDIXZW1FAIHVWXYO","","477","img/food4.png","74","477","1","0","false","3","2","1,0.5,0,1,0.5,0,0.5,0,1","1,0.5,0,1,0.5,0,0.5,0,1","1",""
"","html-keyboard-response","170","129164","0.0-247.0","379J5II41P2N2DLRVFPG81J30LOELM","A3FSDH6HUZPNQ8","3HUR21WDDUBEMSLDIXZW1FAIHVWXYO","","null","<img src=""img/food4.png"" style=""width:200px;border:14px solid red;"">","null","","","","","","","","","",""
"","image-keyboard-response","171","129759","0.0-249.0","379J5II41P2N2DLRVFPG81J30LOELM","A3FSDH6HUZPNQ8","3HUR21WDDUBEMSLDIXZW1FAIHVWXYO","","594","img/food5.png","76","594","3","0","false","2","2","1,0.5,0,1,0.5,0,0.5,0,1","1,0.5,0,1,0.5,0,0.5,0,1","1",""
"","html-keyboard-response","172","130060","0.0-250.0","379J5II41P2N2DLRVFPG81J30LOELM","A3FSDH6HUZPNQ8","3HUR21WDDUBEMSLDIXZW1FAIHVWXYO","","null","<img src=""img/food5.png"" style=""width:200px;border:14px solid red;"">","null","","","","","","","","","",""
"","image-keyboard-response","173","130453","0.0-252.0","379J5II41P2N2DLRVFPG81J30LOELM","A3FSDH6HUZPNQ8","3HUR21WDDUBEMSLDIXZW1FAIHVWXYO","","393","img/food5.png","74","393","1","1","false","2","2","1,0.5,0,1,0.5,0,0.5,0,1","1,0.5,0,1,0.5,0,0.5,0,1","1",""
"","html-keyboard-response","174","130766","0.0-253.0","379J5II41P2N2DLRVFPG81J30LOELM","A3FSDH6HUZPNQ8","3HUR21WDDUBEMSLDIXZW1FAIHVWXYO","","null","<img src=""img/food5.png"" style=""width:200px; border:14px solid green;"">","null","","","","","","","","","",""
"","image-keyboard-response","175","131111","0.0-255.0","379J5II41P2N2DLRVFPG81J30LOELM","A3FSDH6HUZPNQ8","3HUR21WDDUBEMSLDIXZW1FAIHVWXYO","","345","img/food5.png","74","345","1","1","false","2","2","1,0.5,0,1,0.5,0,0.5,0,1","1,0.5,0,1,0.5,0,0.5,0,1","1",""
"","html-keyboard-response","176","131426","0.0-256.0","379J5II41P2N2DLRVFPG81J30LOELM","A3FSDH6HUZPNQ8","3HUR21WDDUBEMSLDIXZW1FAIHVWXYO","","null","<img src=""img/food5.png"" style=""width:200px; border:14px solid green;"">","null","","","","","","","","","",""
"","image-keyboard-response","177","132238","0.0-258.0","379J5II41P2N2DLRVFPG81J30LOELM","A3FSDH6HUZPNQ8","3HUR21WDDUBEMSLDIXZW1FAIHVWXYO","","812","img/food4.png","76","812","3","1","false","3","2","1,0.5,0,1,0.5,0,0.5,0,1","1,0.5,0,1,0.5,0,0.5,0,1","1",""
"","html-keyboard-response","178","132542","0.0-259.0","379J5II41P2N2DLRVFPG81J30LOELM","A3FSDH6HUZPNQ8","3HUR21WDDUBEMSLDIXZW1FAIHVWXYO","","null","<img src=""img/food4.png"" style=""width:200px; border:14px solid green;"">","null","","","","","","","","","",""
"","image-keyboard-response","179","133146","0.0-261.0","379J5II41P2N2DLRVFPG81J30LOELM","A3FSDH6HUZPNQ8","3HUR21WDDUBEMSLDIXZW1FAIHVWXYO","","603","img/food2.png","74","603","1","1","false","1","2","1,0.5,0,1,0.5,0,0.5,0,1","1,0.5,0,1,0.5,0,0.5,0,1","1",""
"","html-keyboard-response","180","133454","0.0-262.0","379J5II41P2N2DLRVFPG81J30LOELM","A3FSDH6HUZPNQ8","3HUR21WDDUBEMSLDIXZW1FAIHVWXYO","","null","<img src=""img/food2.png"" style=""width:200px; border:14px solid green;"">","null","","","","","","","","","",""
"","image-keyboard-response","181","134143","0.0-264.0","379J5II41P2N2DLRVFPG81J30LOELM","A3FSDH6HUZPNQ8","3HUR21WDDUBEMSLDIXZW1FAIHVWXYO","","689","img/food4.png","76","690","3","1","false","3","2","1,0.5,0,1,0.5,0,0.5,0,1","1,0.5,0,1,0.5,0,0.5,0,1","1",""
"","html-keyboard-response","182","134445","0.0-265.0","379J5II41P2N2DLRVFPG81J30LOELM","A3FSDH6HUZPNQ8","3HUR21WDDUBEMSLDIXZW1FAIHVWXYO","","null","<img src=""img/food4.png"" style=""width:200px; border:14px solid green;"">","null","","","","","","","","","",""
"","image-keyboard-response","183","135452","0.0-267.0","379J5II41P2N2DLRVFPG81J30LOELM","A3FSDH6HUZPNQ8","3HUR21WDDUBEMSLDIXZW1FAIHVWXYO","","","img/food5.png","","1007","-1","0","true","2","2","1,0.5,0,1,0.5,0,0.5,0,1","1,0.5,0,1,0.5,0,0.5,0,1","1",""
"","html-keyboard-response","184","135766","0.0-268.0","379J5II41P2N2DLRVFPG81J30LOELM","A3FSDH6HUZPNQ8","3HUR21WDDUBEMSLDIXZW1FAIHVWXYO","","null","<img src=""img/food5.png"" style=""width:200px;border:14px solid red;"">","null","","","","","","","","","",""
"","html-keyboard-response","185","138124","0.0-269.0-0.0","379J5II41P2N2DLRVFPG81J30LOELM","A3FSDH6HUZPNQ8","3HUR21WDDUBEMSLDIXZW1FAIHVWXYO","","","","","","","","","","","","","",""
"","image-keyboard-response","186","138811","0.0-270.0","379J5II41P2N2DLRVFPG81J30LOELM","A3FSDH6HUZPNQ8","3HUR21WDDUBEMSLDIXZW1FAIHVWXYO","","686","img/food5.png","74","687","1","1","false","2","2","1,0.5,0,1,0.5,0,0.5,0,1","1,0.5,0,1,0.5,0,0.5,0,1","1",""
"","html-keyboard-response","187","139126","0.0-271.0","379J5II41P2N2DLRVFPG81J30LOELM","A3FSDH6HUZPNQ8","3HUR21WDDUBEMSLDIXZW1FAIHVWXYO","","null","<img src=""img/food5.png"" style=""width:200px; border:14px solid green;"">","null","","","","","","","","","",""
"","instructions","188","152687","0.0-273.0","379J5II41P2N2DLRVFPG81J30LOELM","A3FSDH6HUZPNQ8","3HUR21WDDUBEMSLDIXZW1FAIHVWXYO","[{""page_index"":0,""viewing_time"":12529},{""page_index"":1,""viewing_time"":1033}]","13562","","","","","","","","","","","",""
"","image-keyboard-response","189","153259","0.0-274.0","379J5II41P2N2DLRVFPG81J30LOELM","A3FSDH6HUZPNQ8","3HUR21WDDUBEMSLDIXZW1FAIHVWXYO","","571","img/food1.png","74","573","1","1","","3","1","1,0.5,0,1,0.5,0,0.5,0,1","0,1,0.5,0,1,0.5,1,0.5,0","3",""
"","html-keyboard-response","190","153573","0.0-275.0","379J5II41P2N2DLRVFPG81J30LOELM","A3FSDH6HUZPNQ8","3HUR21WDDUBEMSLDIXZW1FAIHVWXYO","","null","<img src=""img/food1.png"" style=""width:200px; border:14px solid green;"">","null","","","","","","","","","",""
"","image-keyboard-response","191","154184","0.0-276.0","379J5II41P2N2DLRVFPG81J30LOELM","A3FSDH6HUZPNQ8","3HUR21WDDUBEMSLDIXZW1FAIHVWXYO","","611","img/food6.png","74","611","1","0","","1","1","1,0.5,0,1,0.5,0,0.5,0,1","0,1,0.5,0,1,0.5,1,0.5,0","3",""
"","html-keyboard-response","192","154486","0.0-277.0","379J5II41P2N2DLRVFPG81J30LOELM","A3FSDH6HUZPNQ8","3HUR21WDDUBEMSLDIXZW1FAIHVWXYO","","null","<img src=""img/food6.png"" style=""width:200px;border:14px solid red;"">","null","","","","","","","","","",""
"","image-keyboard-response","193","155257","0.0-278.0","379J5II41P2N2DLRVFPG81J30LOELM","A3FSDH6HUZPNQ8","3HUR21WDDUBEMSLDIXZW1FAIHVWXYO","","770","img/food3.png","75","771","2","1","","2","1","1,0.5,0,1,0.5,0,0.5,0,1","0,1,0.5,0,1,0.5,1,0.5,0","3",""
"","html-keyboard-response","194","155570","0.0-279.0","379J5II41P2N2DLRVFPG81J30LOELM","A3FSDH6HUZPNQ8","3HUR21WDDUBEMSLDIXZW1FAIHVWXYO","","null","<img src=""img/food3.png"" style=""width:200px; border:14px solid green;"">","null","","","","","","","","","",""
"","image-keyboard-response","195","156142","0.0-280.0","379J5II41P2N2DLRVFPG81J30LOELM","A3FSDH6HUZPNQ8","3HUR21WDDUBEMSLDIXZW1FAIHVWXYO","","571","img/food1.png","74","572","1","1","","3","1","1,0.5,0,1,0.5,0,0.5,0,1","0,1,0.5,0,1,0.5,1,0.5,0","3",""
"","html-keyboard-response","196","156450","0.0-281.0","379J5II41P2N2DLRVFPG81J30LOELM","A3FSDH6HUZPNQ8","3HUR21WDDUBEMSLDIXZW1FAIHVWXYO","","null","<img src=""img/food1.png"" style=""width:200px; border:14px solid green;"">","null","","","","","","","","","",""
"","image-keyboard-response","197","156776","0.0-282.0","379J5II41P2N2DLRVFPG81J30LOELM","A3FSDH6HUZPNQ8","3HUR21WDDUBEMSLDIXZW1FAIHVWXYO","","325","img/food1.png","74","326","1","1","","3","1","1,0.5,0,1,0.5,0,0.5,0,1","0,1,0.5,0,1,0.5,1,0.5,0","3",""
"","html-keyboard-response","198","157078","0.0-283.0","379J5II41P2N2DLRVFPG81J30LOELM","A3FSDH6HUZPNQ8","3HUR21WDDUBEMSLDIXZW1FAIHVWXYO","","null","<img src=""img/food1.png"" style=""width:200px; border:14px solid green;"">","null","","","","","","","","","",""
"","image-keyboard-response","199","157410","0.0-284.0","379J5II41P2N2DLRVFPG81J30LOELM","A3FSDH6HUZPNQ8","3HUR21WDDUBEMSLDIXZW1FAIHVWXYO","","332","img/food1.png","74","332","1","1","","3","1","1,0.5,0,1,0.5,0,0.5,0,1","0,1,0.5,0,1,0.5,1,0.5,0","3",""
"","html-keyboard-response","200","157722","0.0-285.0","379J5II41P2N2DLRVFPG81J30LOELM","A3FSDH6HUZPNQ8","3HUR21WDDUBEMSLDIXZW1FAIHVWXYO","","null","<img src=""img/food1.png"" style=""width:200px; border:14px solid green;"">","null","","","","","","","","","",""
"","image-keyboard-response","201","158016","0.0-286.0","379J5II41P2N2DLRVFPG81J30LOELM","A3FSDH6HUZPNQ8","3HUR21WDDUBEMSLDIXZW1FAIHVWXYO","","294","img/food1.png","74","294","1","1","","3","1","1,0.5,0,1,0.5,0,0.5,0,1","0,1,0.5,0,1,0.5,1,0.5,0","3",""
"","html-keyboard-response","202","158319","0.0-287.0","379J5II41P2N2DLRVFPG81J30LOELM","A3FSDH6HUZPNQ8","3HUR21WDDUBEMSLDIXZW1FAIHVWXYO","","null","<img src=""img/food1.png"" style=""width:200px; border:14px solid green;"">","null","","","","","","","","","",""
"","image-keyboard-response","203","159085","0.0-288.0","379J5II41P2N2DLRVFPG81J30LOELM","A3FSDH6HUZPNQ8","3HUR21WDDUBEMSLDIXZW1FAIHVWXYO","","765","img/food3.png","75","765","2","1","","2","1","1,0.5,0,1,0.5,0,0.5,0,1","0,1,0.5,0,1,0.5,1,0.5,0","3",""
"","html-keyboard-response","204","159418","0.0-289.0","379J5II41P2N2DLRVFPG81J30LOELM","A3FSDH6HUZPNQ8","3HUR21WDDUBEMSLDIXZW1FAIHVWXYO","","null","<img src=""img/food3.png"" style=""width:200px; border:14px solid green;"">","null","","","","","","","","","",""
"","image-keyboard-response","205","159815","0.0-290.0","379J5II41P2N2DLRVFPG81J30LOELM","A3FSDH6HUZPNQ8","3HUR21WDDUBEMSLDIXZW1FAIHVWXYO","","396","img/food1.png","74","396","1","1","","3","1","1,0.5,0,1,0.5,0,0.5,0,1","0,1,0.5,0,1,0.5,1,0.5,0","3",""
"","html-keyboard-response","206","160125","0.0-291.0","379J5II41P2N2DLRVFPG81J30LOELM","A3FSDH6HUZPNQ8","3HUR21WDDUBEMSLDIXZW1FAIHVWXYO","","null","<img src=""img/food1.png"" style=""width:200px; border:14px solid green;"">","null","","","","","","","","","",""
"","image-keyboard-response","207","160398","0.0-292.0","379J5II41P2N2DLRVFPG81J30LOELM","A3FSDH6HUZPNQ8","3HUR21WDDUBEMSLDIXZW1FAIHVWXYO","","272","img/food1.png","74","274","1","1","","3","1","1,0.5,0,1,0.5,0,0.5,0,1","0,1,0.5,0,1,0.5,1,0.5,0","3",""
"","html-keyboard-response","208","160706","0.0-293.0","379J5II41P2N2DLRVFPG81J30LOELM","A3FSDH6HUZPNQ8","3HUR21WDDUBEMSLDIXZW1FAIHVWXYO","","null","<img src=""img/food1.png"" style=""width:200px; border:14px solid green;"">","null","","","","","","","","","",""
"","image-keyboard-response","209","161131","0.0-294.0","379J5II41P2N2DLRVFPG81J30LOELM","A3FSDH6HUZPNQ8","3HUR21WDDUBEMSLDIXZW1FAIHVWXYO","","425","img/food3.png","75","425","2","1","","2","1","1,0.5,0,1,0.5,0,0.5,0,1","0,1,0.5,0,1,0.5,1,0.5,0","3",""
"","html-keyboard-response","210","161444","0.0-295.0","379J5II41P2N2DLRVFPG81J30LOELM","A3FSDH6HUZPNQ8","3HUR21WDDUBEMSLDIXZW1FAIHVWXYO","","null","<img src=""img/food3.png"" style=""width:200px; border:14px solid green;"">","null","","","","","","","","","",""
"","image-keyboard-response","211","161838","0.0-296.0","379J5II41P2N2DLRVFPG81J30LOELM","A3FSDH6HUZPNQ8","3HUR21WDDUBEMSLDIXZW1FAIHVWXYO","","393","img/food1.png","74","393","1","1","","3","1","1,0.5,0,1,0.5,0,0.5,0,1","0,1,0.5,0,1,0.5,1,0.5,0","3",""
"","html-keyboard-response","212","162151","0.0-297.0","379J5II41P2N2DLRVFPG81J30LOELM","A3FSDH6HUZPNQ8","3HUR21WDDUBEMSLDIXZW1FAIHVWXYO","","null","<img src=""img/food1.png"" style=""width:200px; border:14px solid green;"">","null","","","","","","","","","",""
"","image-keyboard-response","213","162842","0.0-298.0","379J5II41P2N2DLRVFPG81J30LOELM","A3FSDH6HUZPNQ8","3HUR21WDDUBEMSLDIXZW1FAIHVWXYO","","690","img/food3.png","75","691","2","1","","2","1","1,0.5,0,1,0.5,0,0.5,0,1","0,1,0.5,0,1,0.5,1,0.5,0","3",""
"","html-keyboard-response","214","163159","0.0-299.0","379J5II41P2N2DLRVFPG81J30LOELM","A3FSDH6HUZPNQ8","3HUR21WDDUBEMSLDIXZW1FAIHVWXYO","","null","<img src=""img/food3.png"" style=""width:200px; border:14px solid green;"">","null","","","","","","","","","",""
"","image-keyboard-response","215","163648","0.0-300.0","379J5II41P2N2DLRVFPG81J30LOELM","A3FSDH6HUZPNQ8","3HUR21WDDUBEMSLDIXZW1FAIHVWXYO","","488","img/food6.png","74","489","1","0","","1","1","1,0.5,0,1,0.5,0,0.5,0,1","0,1,0.5,0,1,0.5,1,0.5,0","3",""
"","html-keyboard-response","216","163961","0.0-301.0","379J5II41P2N2DLRVFPG81J30LOELM","A3FSDH6HUZPNQ8","3HUR21WDDUBEMSLDIXZW1FAIHVWXYO","","null","<img src=""img/food6.png"" style=""width:200px;border:14px solid red;"">","null","","","","","","","","","",""
"","image-keyboard-response","217","164482","0.0-302.0","379J5II41P2N2DLRVFPG81J30LOELM","A3FSDH6HUZPNQ8","3HUR21WDDUBEMSLDIXZW1FAIHVWXYO","","520","img/food6.png","76","520","3","1","","1","1","1,0.5,0,1,0.5,0,0.5,0,1","0,1,0.5,0,1,0.5,1,0.5,0","3",""
"","html-keyboard-response","218","164794","0.0-303.0","379J5II41P2N2DLRVFPG81J30LOELM","A3FSDH6HUZPNQ8","3HUR21WDDUBEMSLDIXZW1FAIHVWXYO","","null","<img src=""img/food6.png"" style=""width:200px; border:14px solid green;"">","null","","","","","","","","","",""
"","image-keyboard-response","219","165201","0.0-304.0","379J5II41P2N2DLRVFPG81J30LOELM","A3FSDH6HUZPNQ8","3HUR21WDDUBEMSLDIXZW1FAIHVWXYO","","405","img/food6.png","76","405","3","0","","1","1","1,0.5,0,1,0.5,0,0.5,0,1","0,1,0.5,0,1,0.5,1,0.5,0","3",""
"","html-keyboard-response","220","165502","0.0-305.0","379J5II41P2N2DLRVFPG81J30LOELM","A3FSDH6HUZPNQ8","3HUR21WDDUBEMSLDIXZW1FAIHVWXYO","","null","<img src=""img/food6.png"" style=""width:200px;border:14px solid red;"">","null","","","","","","","","","",""
"","image-keyboard-response","221","165759","0.0-306.0","379J5II41P2N2DLRVFPG81J30LOELM","A3FSDH6HUZPNQ8","3HUR21WDDUBEMSLDIXZW1FAIHVWXYO","","256","img/food6.png","76","257","3","1","","1","1","1,0.5,0,1,0.5,0,0.5,0,1","0,1,0.5,0,1,0.5,1,0.5,0","3",""
"","html-keyboard-response","222","166068","0.0-307.0","379J5II41P2N2DLRVFPG81J30LOELM","A3FSDH6HUZPNQ8","3HUR21WDDUBEMSLDIXZW1FAIHVWXYO","","null","<img src=""img/food6.png"" style=""width:200px; border:14px solid green;"">","null","","","","","","","","","",""
"","image-keyboard-response","223","166259","0.0-308.0","379J5II41P2N2DLRVFPG81J30LOELM","A3FSDH6HUZPNQ8","3HUR21WDDUBEMSLDIXZW1FAIHVWXYO","","192","img/food3.png","76","192","3","0","","2","1","1,0.5,0,1,0.5,0,0.5,0,1","0,1,0.5,0,1,0.5,1,0.5,0","3",""
"","html-keyboard-response","224","166571","0.0-309.0","379J5II41P2N2DLRVFPG81J30LOELM","A3FSDH6HUZPNQ8","3HUR21WDDUBEMSLDIXZW1FAIHVWXYO","","null","<img src=""img/food3.png"" style=""width:200px;border:14px solid red;"">","null","","","","","","","","","",""
"","image-keyboard-response","225","167416","0.0-310.0","379J5II41P2N2DLRVFPG81J30LOELM","A3FSDH6HUZPNQ8","3HUR21WDDUBEMSLDIXZW1FAIHVWXYO","","844","img/food1.png","75","845","2","0","","3","1","1,0.5,0,1,0.5,0,0.5,0,1","0,1,0.5,0,1,0.5,1,0.5,0","3",""
"","html-keyboard-response","226","167719","0.0-311.0","379J5II41P2N2DLRVFPG81J30LOELM","A3FSDH6HUZPNQ8","3HUR21WDDUBEMSLDIXZW1FAIHVWXYO","","null","<img src=""img/food1.png"" style=""width:200px;border:14px solid red;"">","null","","","","","","","","","",""
"","image-keyboard-response","227","168581","0.0-312.0","379J5II41P2N2DLRVFPG81J30LOELM","A3FSDH6HUZPNQ8","3HUR21WDDUBEMSLDIXZW1FAIHVWXYO","","860","img/food6.png","74","860","1","0","","1","1","1,0.5,0,1,0.5,0,0.5,0,1","0,1,0.5,0,1,0.5,1,0.5,0","3",""
"","html-keyboard-response","228","168883","0.0-313.0","379J5II41P2N2DLRVFPG81J30LOELM","A3FSDH6HUZPNQ8","3HUR21WDDUBEMSLDIXZW1FAIHVWXYO","","null","<img src=""img/food6.png"" style=""width:200px;border:14px solid red;"">","null","","","","","","","","","",""
"","image-keyboard-response","229","169799","0.0-314.0","379J5II41P2N2DLRVFPG81J30LOELM","A3FSDH6HUZPNQ8","3HUR21WDDUBEMSLDIXZW1FAIHVWXYO","","915","img/food3.png","74","915","1","0","","2","1","1,0.5,0,1,0.5,0,0.5,0,1","0,1,0.5,0,1,0.5,1,0.5,0","3",""
"","html-keyboard-response","230","170108","0.0-315.0","379J5II41P2N2DLRVFPG81J30LOELM","A3FSDH6HUZPNQ8","3HUR21WDDUBEMSLDIXZW1FAIHVWXYO","","null","<img src=""img/food3.png"" style=""width:200px;border:14px solid red;"">","null","","","","","","","","","",""
"","image-keyboard-response","231","170901","0.0-316.0","379J5II41P2N2DLRVFPG81J30LOELM","A3FSDH6HUZPNQ8","3HUR21WDDUBEMSLDIXZW1FAIHVWXYO","","791","img/food3.png","74","792","1","0","","2","1","1,0.5,0,1,0.5,0,0.5,0,1","0,1,0.5,0,1,0.5,1,0.5,0","3",""
"","html-keyboard-response","232","171210","0.0-317.0","379J5II41P2N2DLRVFPG81J30LOELM","A3FSDH6HUZPNQ8","3HUR21WDDUBEMSLDIXZW1FAIHVWXYO","","null","<img src=""img/food3.png"" style=""width:200px;border:14px solid red;"">","null","","","","","","","","","",""
"","image-keyboard-response","233","172146","0.0-318.0","379J5II41P2N2DLRVFPG81J30LOELM","A3FSDH6HUZPNQ8","3HUR21WDDUBEMSLDIXZW1FAIHVWXYO","","935","img/food1.png","75","935","2","1","","3","1","1,0.5,0,1,0.5,0,0.5,0,1","0,1,0.5,0,1,0.5,1,0.5,0","3",""
"","html-keyboard-response","234","172452","0.0-319.0","379J5II41P2N2DLRVFPG81J30LOELM","A3FSDH6HUZPNQ8","3HUR21WDDUBEMSLDIXZW1FAIHVWXYO","","null","<img src=""img/food1.png"" style=""width:200px; border:14px solid green;"">","null","","","","","","","","","",""
"","image-keyboard-response","235","172799","0.0-320.0","379J5II41P2N2DLRVFPG81J30LOELM","A3FSDH6HUZPNQ8","3HUR21WDDUBEMSLDIXZW1FAIHVWXYO","","346","img/food1.png","75","348","2","0","","3","1","1,0.5,0,1,0.5,0,0.5,0,1","0,1,0.5,0,1,0.5,1,0.5,0","3",""
"","html-keyboard-response","236","173112","0.0-321.0","379J5II41P2N2DLRVFPG81J30LOELM","A3FSDH6HUZPNQ8","3HUR21WDDUBEMSLDIXZW1FAIHVWXYO","","null","<img src=""img/food1.png"" style=""width:200px;border:14px solid red;"">","null","","","","","","","","","",""
"","image-keyboard-response","237","174099","0.0-322.0","379J5II41P2N2DLRVFPG81J30LOELM","A3FSDH6HUZPNQ8","3HUR21WDDUBEMSLDIXZW1FAIHVWXYO","","985","img/food3.png","76","987","3","1","","2","1","1,0.5,0,1,0.5,0,0.5,0,1","0,1,0.5,0,1,0.5,1,0.5,0","3",""
"","html-keyboard-response","238","174400","0.0-323.0","379J5II41P2N2DLRVFPG81J30LOELM","A3FSDH6HUZPNQ8","3HUR21WDDUBEMSLDIXZW1FAIHVWXYO","","null","<img src=""img/food3.png"" style=""width:200px; border:14px solid green;"">","null","","","","","","","","","",""
"","image-keyboard-response","239","175356","0.0-324.0","379J5II41P2N2DLRVFPG81J30LOELM","A3FSDH6HUZPNQ8","3HUR21WDDUBEMSLDIXZW1FAIHVWXYO","","955","img/food6.png","74","956","1","0","","1","1","1,0.5,0,1,0.5,0,0.5,0,1","0,1,0.5,0,1,0.5,1,0.5,0","3",""
"","html-keyboard-response","240","175659","0.0-325.0","379J5II41P2N2DLRVFPG81J30LOELM","A3FSDH6HUZPNQ8","3HUR21WDDUBEMSLDIXZW1FAIHVWXYO","","null","<img src=""img/food6.png"" style=""width:200px;border:14px solid red;"">","null","","","","","","","","","",""
"","image-keyboard-response","241","176771","0.0-326.0","379J5II41P2N2DLRVFPG81J30LOELM","A3FSDH6HUZPNQ8","3HUR21WDDUBEMSLDIXZW1FAIHVWXYO","","1112","img/food1.png","75","1112","2","1","","3","1","1,0.5,0,1,0.5,0,0.5,0,1","0,1,0.5,0,1,0.5,1,0.5,0","3",""
"","html-keyboard-response","242","177075","0.0-327.0","379J5II41P2N2DLRVFPG81J30LOELM","A3FSDH6HUZPNQ8","3HUR21WDDUBEMSLDIXZW1FAIHVWXYO","","null","<img src=""img/food1.png"" style=""width:200px; border:14px solid green;"">","null","","","","","","","","","",""
"","image-keyboard-response","243","178019","0.0-328.0","379J5II41P2N2DLRVFPG81J30LOELM","A3FSDH6HUZPNQ8","3HUR21WDDUBEMSLDIXZW1FAIHVWXYO","","943","img/food3.png","76","943","3","1","","2","1","1,0.5,0,1,0.5,0,0.5,0,1","0,1,0.5,0,1,0.5,1,0.5,0","3",""
"","html-keyboard-response","244","178333","0.0-329.0","379J5II41P2N2DLRVFPG81J30LOELM","A3FSDH6HUZPNQ8","3HUR21WDDUBEMSLDIXZW1FAIHVWXYO","","null","<img src=""img/food3.png"" style=""width:200px; border:14px solid green;"">","null","","","","","","","","","",""
"","image-keyboard-response","245","178814","0.0-330.0","379J5II41P2N2DLRVFPG81J30LOELM","A3FSDH6HUZPNQ8","3HUR21WDDUBEMSLDIXZW1FAIHVWXYO","","479","img/food3.png","76","480","3","1","","2","1","1,0.5,0,1,0.5,0,0.5,0,1","0,1,0.5,0,1,0.5,1,0.5,0","3",""
"","html-keyboard-response","246","179120","0.0-331.0","379J5II41P2N2DLRVFPG81J30LOELM","A3FSDH6HUZPNQ8","3HUR21WDDUBEMSLDIXZW1FAIHVWXYO","","null","<img src=""img/food3.png"" style=""width:200px; border:14px solid green;"">","null","","","","","","","","","",""
"","image-keyboard-response","247","179897","0.0-332.0","379J5II41P2N2DLRVFPG81J30LOELM","A3FSDH6HUZPNQ8","3HUR21WDDUBEMSLDIXZW1FAIHVWXYO","","777","img/food6.png","74","778","1","0","","1","1","1,0.5,0,1,0.5,0,0.5,0,1","0,1,0.5,0,1,0.5,1,0.5,0","3",""
"","html-keyboard-response","248","180203","0.0-333.0","379J5II41P2N2DLRVFPG81J30LOELM","A3FSDH6HUZPNQ8","3HUR21WDDUBEMSLDIXZW1FAIHVWXYO","","null","<img src=""img/food6.png"" style=""width:200px;border:14px solid red;"">","null","","","","","","","","","",""
"","image-keyboard-response","249","181101","0.0-334.0","379J5II41P2N2DLRVFPG81J30LOELM","A3FSDH6HUZPNQ8","3HUR21WDDUBEMSLDIXZW1FAIHVWXYO","","897","img/food1.png","74","897","1","1","","3","1","1,0.5,0,1,0.5,0,0.5,0,1","0,1,0.5,0,1,0.5,1,0.5,0","3",""
"","html-keyboard-response","250","181415","0.0-335.0","379J5II41P2N2DLRVFPG81J30LOELM","A3FSDH6HUZPNQ8","3HUR21WDDUBEMSLDIXZW1FAIHVWXYO","","null","<img src=""img/food1.png"" style=""width:200px; border:14px solid green;"">","null","","","","","","","","","",""
"","image-keyboard-response","251","182594","0.0-336.0","379J5II41P2N2DLRVFPG81J30LOELM","A3FSDH6HUZPNQ8","3HUR21WDDUBEMSLDIXZW1FAIHVWXYO","","1178","img/food6.png","74","1179","1","0","","1","1","1,0.5,0,1,0.5,0,0.5,0,1","0,1,0.5,0,1,0.5,1,0.5,0","3",""
"","html-keyboard-response","252","182895","0.0-337.0","379J5II41P2N2DLRVFPG81J30LOELM","A3FSDH6HUZPNQ8","3HUR21WDDUBEMSLDIXZW1FAIHVWXYO","","null","<img src=""img/food6.png"" style=""width:200px;border:14px solid red;"">","null","","","","","","","","","",""
"","image-keyboard-response","253","183703","0.0-338.0","379J5II41P2N2DLRVFPG81J30LOELM","A3FSDH6HUZPNQ8","3HUR21WDDUBEMSLDIXZW1FAIHVWXYO","","807","img/food3.png","75","809","2","1","","2","1","1,0.5,0,1,0.5,0,0.5,0,1","0,1,0.5,0,1,0.5,1,0.5,0","3",""
"","html-keyboard-response","254","184010","0.0-339.0","379J5II41P2N2DLRVFPG81J30LOELM","A3FSDH6HUZPNQ8","3HUR21WDDUBEMSLDIXZW1FAIHVWXYO","","null","<img src=""img/food3.png"" style=""width:200px; border:14px solid green;"">","null","","","","","","","","","",""
"","image-keyboard-response","255","184803","0.0-340.0","379J5II41P2N2DLRVFPG81J30LOELM","A3FSDH6HUZPNQ8","3HUR21WDDUBEMSLDIXZW1FAIHVWXYO","","792","img/food1.png","75","792","2","0","","3","1","1,0.5,0,1,0.5,0,0.5,0,1","0,1,0.5,0,1,0.5,1,0.5,0","3",""
"","html-keyboard-response","256","185112","0.0-341.0","379J5II41P2N2DLRVFPG81J30LOELM","A3FSDH6HUZPNQ8","3HUR21WDDUBEMSLDIXZW1FAIHVWXYO","","null","<img src=""img/food1.png"" style=""width:200px;border:14px solid red;"">","null","","","","","","","","","",""
"","image-keyboard-response","257","185767","0.0-342.0","379J5II41P2N2DLRVFPG81J30LOELM","A3FSDH6HUZPNQ8","3HUR21WDDUBEMSLDIXZW1FAIHVWXYO","","655","img/food6.png","75","655","2","1","","1","1","1,0.5,0,1,0.5,0,0.5,0,1","0,1,0.5,0,1,0.5,1,0.5,0","3",""
"","html-keyboard-response","258","186070","0.0-343.0","379J5II41P2N2DLRVFPG81J30LOELM","A3FSDH6HUZPNQ8","3HUR21WDDUBEMSLDIXZW1FAIHVWXYO","","null","<img src=""img/food6.png"" style=""width:200px; border:14px solid green;"">","null","","","","","","","","","",""
"","image-keyboard-response","259","186537","0.0-344.0","379J5II41P2N2DLRVFPG81J30LOELM","A3FSDH6HUZPNQ8","3HUR21WDDUBEMSLDIXZW1FAIHVWXYO","","467","img/food6.png","75","469","2","1","","1","1","1,0.5,0,1,0.5,0,0.5,0,1","0,1,0.5,0,1,0.5,1,0.5,0","3",""
"","html-keyboard-response","260","186840","0.0-345.0","379J5II41P2N2DLRVFPG81J30LOELM","A3FSDH6HUZPNQ8","3HUR21WDDUBEMSLDIXZW1FAIHVWXYO","","null","<img src=""img/food6.png"" style=""width:200px; border:14px solid green;"">","null","","","","","","","","","",""
"","image-keyboard-response","261","187810","0.0-346.0","379J5II41P2N2DLRVFPG81J30LOELM","A3FSDH6HUZPNQ8","3HUR21WDDUBEMSLDIXZW1FAIHVWXYO","","969","img/food3.png","75","970","2","1","","2","1","1,0.5,0,1,0.5,0,0.5,0,1","0,1,0.5,0,1,0.5,1,0.5,0","3",""
"","html-keyboard-response","262","188113","0.0-347.0","379J5II41P2N2DLRVFPG81J30LOELM","A3FSDH6HUZPNQ8","3HUR21WDDUBEMSLDIXZW1FAIHVWXYO","","null","<img src=""img/food3.png"" style=""width:200px; border:14px solid green;"">","null","","","","","","","","","",""
"","image-keyboard-response","263","188671","0.0-348.0","379J5II41P2N2DLRVFPG81J30LOELM","A3FSDH6HUZPNQ8","3HUR21WDDUBEMSLDIXZW1FAIHVWXYO","","558","img/food6.png","75","558","2","1","","1","1","1,0.5,0,1,0.5,0,0.5,0,1","0,1,0.5,0,1,0.5,1,0.5,0","3",""
"","html-keyboard-response","264","188977","0.0-349.0","379J5II41P2N2DLRVFPG81J30LOELM","A3FSDH6HUZPNQ8","3HUR21WDDUBEMSLDIXZW1FAIHVWXYO","","null","<img src=""img/food6.png"" style=""width:200px; border:14px solid green;"">","null","","","","","","","","","",""
"","image-keyboard-response","265","189296","0.0-350.0","379J5II41P2N2DLRVFPG81J30LOELM","A3FSDH6HUZPNQ8","3HUR21WDDUBEMSLDIXZW1FAIHVWXYO","","321","img/food6.png","75","321","2","1","","1","1","1,0.5,0,1,0.5,0,0.5,0,1","0,1,0.5,0,1,0.5,1,0.5,0","3",""
"","html-keyboard-response","266","189605","0.0-351.0","379J5II41P2N2DLRVFPG81J30LOELM","A3FSDH6HUZPNQ8","3HUR21WDDUBEMSLDIXZW1FAIHVWXYO","","null","<img src=""img/food6.png"" style=""width:200px; border:14px solid green;"">","null","","","","","","","","","",""
"","image-keyboard-response","267","189898","0.0-352.0","379J5II41P2N2DLRVFPG81J30LOELM","A3FSDH6HUZPNQ8","3HUR21WDDUBEMSLDIXZW1FAIHVWXYO","","293","img/food6.png","75","293","2","1","","1","1","1,0.5,0,1,0.5,0,0.5,0,1","0,1,0.5,0,1,0.5,1,0.5,0","3",""
"","html-keyboard-response","268","190202","0.0-353.0","379J5II41P2N2DLRVFPG81J30LOELM","A3FSDH6HUZPNQ8","3HUR21WDDUBEMSLDIXZW1FAIHVWXYO","","null","<img src=""img/food6.png"" style=""width:200px; border:14px solid green;"">","null","","","","","","","","","",""
"","image-keyboard-response","269","190489","0.0-354.0","379J5II41P2N2DLRVFPG81J30LOELM","A3FSDH6HUZPNQ8","3HUR21WDDUBEMSLDIXZW1FAIHVWXYO","","285","img/food6.png","75","287","2","1","","1","1","1,0.5,0,1,0.5,0,0.5,0,1","0,1,0.5,0,1,0.5,1,0.5,0","3",""
"","html-keyboard-response","270","190799","0.0-355.0","379J5II41P2N2DLRVFPG81J30LOELM","A3FSDH6HUZPNQ8","3HUR21WDDUBEMSLDIXZW1FAIHVWXYO","","null","<img src=""img/food6.png"" style=""width:200px; border:14px solid green;"">","null","","","","","","","","","",""
"","image-keyboard-response","271","191678","0.0-356.0","379J5II41P2N2DLRVFPG81J30LOELM","A3FSDH6HUZPNQ8","3HUR21WDDUBEMSLDIXZW1FAIHVWXYO","","878","img/food1.png","76","879","3","0","","3","1","1,0.5,0,1,0.5,0,0.5,0,1","0,1,0.5,0,1,0.5,1,0.5,0","3",""
"","html-keyboard-response","272","191979","0.0-357.0","379J5II41P2N2DLRVFPG81J30LOELM","A3FSDH6HUZPNQ8","3HUR21WDDUBEMSLDIXZW1FAIHVWXYO","","null","<img src=""img/food1.png"" style=""width:200px;border:14px solid red;"">","null","","","","","","","","","",""
"","image-keyboard-response","273","192583","0.0-358.0","379J5II41P2N2DLRVFPG81J30LOELM","A3FSDH6HUZPNQ8","3HUR21WDDUBEMSLDIXZW1FAIHVWXYO","","603","img/food1.png","74","603","1","1","","3","1","1,0.5,0,1,0.5,0,0.5,0,1","0,1,0.5,0,1,0.5,1,0.5,0","3",""
"","html-keyboard-response","274","192892","0.0-359.0","379J5II41P2N2DLRVFPG81J30LOELM","A3FSDH6HUZPNQ8","3HUR21WDDUBEMSLDIXZW1FAIHVWXYO","","null","<img src=""img/food1.png"" style=""width:200px; border:14px solid green;"">","null","","","","","","","","","",""
"","image-keyboard-response","275","193356","0.0-360.0","379J5II41P2N2DLRVFPG81J30LOELM","A3FSDH6HUZPNQ8","3HUR21WDDUBEMSLDIXZW1FAIHVWXYO","","464","img/food1.png","74","465","1","1","","3","1","1,0.5,0,1,0.5,0,0.5,0,1","0,1,0.5,0,1,0.5,1,0.5,0","3",""
"","html-keyboard-response","276","193691","0.0-361.0","379J5II41P2N2DLRVFPG81J30LOELM","A3FSDH6HUZPNQ8","3HUR21WDDUBEMSLDIXZW1FAIHVWXYO","","null","<img src=""img/food1.png"" style=""width:200px; border:14px solid green;"">","null","","","","","","","","","",""
"","image-keyboard-response","277","194185","0.0-362.0","379J5II41P2N2DLRVFPG81J30LOELM","A3FSDH6HUZPNQ8","3HUR21WDDUBEMSLDIXZW1FAIHVWXYO","","493","img/food1.png","74","493","1","1","","3","1","1,0.5,0,1,0.5,0,0.5,0,1","0,1,0.5,0,1,0.5,1,0.5,0","3",""
"","html-keyboard-response","278","194493","0.0-363.0","379J5II41P2N2DLRVFPG81J30LOELM","A3FSDH6HUZPNQ8","3HUR21WDDUBEMSLDIXZW1FAIHVWXYO","","null","<img src=""img/food1.png"" style=""width:200px; border:14px solid green;"">","null","","","","","","","","","",""
"","image-keyboard-response","279","195338","0.0-364.0","379J5II41P2N2DLRVFPG81J30LOELM","A3FSDH6HUZPNQ8","3HUR21WDDUBEMSLDIXZW1FAIHVWXYO","","845","img/food6.png","75","846","2","1","","1","1","1,0.5,0,1,0.5,0,0.5,0,1","0,1,0.5,0,1,0.5,1,0.5,0","3",""
"","html-keyboard-response","280","195641","0.0-365.0","379J5II41P2N2DLRVFPG81J30LOELM","A3FSDH6HUZPNQ8","3HUR21WDDUBEMSLDIXZW1FAIHVWXYO","","null","<img src=""img/food6.png"" style=""width:200px; border:14px solid green;"">","null","","","","","","","","","",""
"","image-keyboard-response","281","196856","0.0-366.0","379J5II41P2N2DLRVFPG81J30LOELM","A3FSDH6HUZPNQ8","3HUR21WDDUBEMSLDIXZW1FAIHVWXYO","","1216","img/food3.png","76","1216","3","0","","2","1","1,0.5,0,1,0.5,0,0.5,0,1","0,1,0.5,0,1,0.5,1,0.5,0","3",""
"","html-keyboard-response","282","197168","0.0-367.0","379J5II41P2N2DLRVFPG81J30LOELM","A3FSDH6HUZPNQ8","3HUR21WDDUBEMSLDIXZW1FAIHVWXYO","","null","<img src=""img/food3.png"" style=""width:200px;border:14px solid red;"">","null","","","","","","","","","",""
"","image-keyboard-response","283","197850","0.0-368.0","379J5II41P2N2DLRVFPG81J30LOELM","A3FSDH6HUZPNQ8","3HUR21WDDUBEMSLDIXZW1FAIHVWXYO","","681","img/food1.png","75","682","2","1","","3","1","1,0.5,0,1,0.5,0,0.5,0,1","0,1,0.5,0,1,0.5,1,0.5,0","3",""
"","html-keyboard-response","284","198157","0.0-369.0","379J5II41P2N2DLRVFPG81J30LOELM","A3FSDH6HUZPNQ8","3HUR21WDDUBEMSLDIXZW1FAIHVWXYO","","null","<img src=""img/food1.png"" style=""width:200px; border:14px solid green;"">","null","","","","","","","","","",""
"","image-keyboard-response","285","198960","0.0-370.0","379J5II41P2N2DLRVFPG81J30LOELM","A3FSDH6HUZPNQ8","3HUR21WDDUBEMSLDIXZW1FAIHVWXYO","","802","img/food3.png","74","802","1","0","","2","1","1,0.5,0,1,0.5,0,0.5,0,1","0,1,0.5,0,1,0.5,1,0.5,0","3",""
"","html-keyboard-response","286","199274","0.0-371.0","379J5II41P2N2DLRVFPG81J30LOELM","A3FSDH6HUZPNQ8","3HUR21WDDUBEMSLDIXZW1FAIHVWXYO","","null","<img src=""img/food3.png"" style=""width:200px;border:14px solid red;"">","null","","","","","","","","","",""
"","image-keyboard-response","287","199657","0.0-372.0","379J5II41P2N2DLRVFPG81J30LOELM","A3FSDH6HUZPNQ8","3HUR21WDDUBEMSLDIXZW1FAIHVWXYO","","383","img/food3.png","75","383","2","1","","2","1","1,0.5,0,1,0.5,0,0.5,0,1","0,1,0.5,0,1,0.5,1,0.5,0","3",""
"","html-keyboard-response","288","199966","0.0-373.0","379J5II41P2N2DLRVFPG81J30LOELM","A3FSDH6HUZPNQ8","3HUR21WDDUBEMSLDIXZW1FAIHVWXYO","","null","<img src=""img/food3.png"" style=""width:200px; border:14px solid green;"">","null","","","","","","","","","",""
"","image-keyboard-response","289","200483","0.0-374.0","379J5II41P2N2DLRVFPG81J30LOELM","A3FSDH6HUZPNQ8","3HUR21WDDUBEMSLDIXZW1FAIHVWXYO","","518","img/food1.png","75","518","2","0","","3","1","1,0.5,0,1,0.5,0,0.5,0,1","0,1,0.5,0,1,0.5,1,0.5,0","3",""
"","html-keyboard-response","290","200798","0.0-375.0","379J5II41P2N2DLRVFPG81J30LOELM","A3FSDH6HUZPNQ8","3HUR21WDDUBEMSLDIXZW1FAIHVWXYO","","null","<img src=""img/food1.png"" style=""width:200px;border:14px solid red;"">","null","","","","","","","","","",""
"","image-keyboard-response","291","201069","0.0-376.0","379J5II41P2N2DLRVFPG81J30LOELM","A3FSDH6HUZPNQ8","3HUR21WDDUBEMSLDIXZW1FAIHVWXYO","","270","img/food1.png","76","271","3","0","","3","1","1,0.5,0,1,0.5,0,0.5,0,1","0,1,0.5,0,1,0.5,1,0.5,0","3",""
"","html-keyboard-response","292","201380","0.0-377.0","379J5II41P2N2DLRVFPG81J30LOELM","A3FSDH6HUZPNQ8","3HUR21WDDUBEMSLDIXZW1FAIHVWXYO","","null","<img src=""img/food1.png"" style=""width:200px;border:14px solid red;"">","null","","","","","","","","","",""
"","image-keyboard-response","293","202053","0.0-378.0","379J5II41P2N2DLRVFPG81J30LOELM","A3FSDH6HUZPNQ8","3HUR21WDDUBEMSLDIXZW1FAIHVWXYO","","672","img/food3.png","74","673","1","0","","2","1","1,0.5,0,1,0.5,0,0.5,0,1","0,1,0.5,0,1,0.5,1,0.5,0","3",""
"","html-keyboard-response","294","202356","0.0-379.0","379J5II41P2N2DLRVFPG81J30LOELM","A3FSDH6HUZPNQ8","3HUR21WDDUBEMSLDIXZW1FAIHVWXYO","","null","<img src=""img/food3.png"" style=""width:200px;border:14px solid red;"">","null","","","","","","","","","",""
"","image-keyboard-response","295","203381","0.0-380.0","379J5II41P2N2DLRVFPG81J30LOELM","A3FSDH6HUZPNQ8","3HUR21WDDUBEMSLDIXZW1FAIHVWXYO","","1025","img/food1.png","74","1025","1","1","","3","1","1,0.5,0,1,0.5,0,0.5,0,1","0,1,0.5,0,1,0.5,1,0.5,0","3",""
"","html-keyboard-response","296","203692","0.0-381.0","379J5II41P2N2DLRVFPG81J30LOELM","A3FSDH6HUZPNQ8","3HUR21WDDUBEMSLDIXZW1FAIHVWXYO","","null","<img src=""img/food1.png"" style=""width:200px; border:14px solid green;"">","null","","","","","","","","","",""
"","image-keyboard-response","297","204331","0.0-382.0","379J5II41P2N2DLRVFPG81J30LOELM","A3FSDH6HUZPNQ8","3HUR21WDDUBEMSLDIXZW1FAIHVWXYO","","638","img/food6.png","74","638","1","0","","1","1","1,0.5,0,1,0.5,0,0.5,0,1","0,1,0.5,0,1,0.5,1,0.5,0","3",""
"","html-keyboard-response","298","204636","0.0-383.0","379J5II41P2N2DLRVFPG81J30LOELM","A3FSDH6HUZPNQ8","3HUR21WDDUBEMSLDIXZW1FAIHVWXYO","","null","<img src=""img/food6.png"" style=""width:200px;border:14px solid red;"">","null","","","","","","","","","",""
"","image-keyboard-response","299","205073","0.0-384.0","379J5II41P2N2DLRVFPG81J30LOELM","A3FSDH6HUZPNQ8","3HUR21WDDUBEMSLDIXZW1FAIHVWXYO","","436","img/food3.png","75","436","2","1","","2","1","1,0.5,0,1,0.5,0,0.5,0,1","0,1,0.5,0,1,0.5,1,0.5,0","3",""
"","html-keyboard-response","300","205390","0.0-385.0","379J5II41P2N2DLRVFPG81J30LOELM","A3FSDH6HUZPNQ8","3HUR21WDDUBEMSLDIXZW1FAIHVWXYO","","null","<img src=""img/food3.png"" style=""width:200px; border:14px solid green;"">","null","","","","","","","","","",""
"","image-keyboard-response","301","206261","0.0-386.0","379J5II41P2N2DLRVFPG81J30LOELM","A3FSDH6HUZPNQ8","3HUR21WDDUBEMSLDIXZW1FAIHVWXYO","","869","img/food6.png","76","870","3","0","","1","1","1,0.5,0,1,0.5,0,0.5,0,1","0,1,0.5,0,1,0.5,1,0.5,0","3",""
"","html-keyboard-response","302","206570","0.0-387.0","379J5II41P2N2DLRVFPG81J30LOELM","A3FSDH6HUZPNQ8","3HUR21WDDUBEMSLDIXZW1FAIHVWXYO","","null","<img src=""img/food6.png"" style=""width:200px;border:14px solid red;"">","null","","","","","","","","","",""
"","image-keyboard-response","303","206922","0.0-388.0","379J5II41P2N2DLRVFPG81J30LOELM","A3FSDH6HUZPNQ8","3HUR21WDDUBEMSLDIXZW1FAIHVWXYO","","351","img/food6.png","75","351","2","1","","1","1","1,0.5,0,1,0.5,0,0.5,0,1","0,1,0.5,0,1,0.5,1,0.5,0","3",""
"","html-keyboard-response","304","207229","0.0-389.0","379J5II41P2N2DLRVFPG81J30LOELM","A3FSDH6HUZPNQ8","3HUR21WDDUBEMSLDIXZW1FAIHVWXYO","","null","<img src=""img/food6.png"" style=""width:200px; border:14px solid green;"">","null","","","","","","","","","",""
"","image-keyboard-response","305","208023","0.0-390.0","379J5II41P2N2DLRVFPG81J30LOELM","A3FSDH6HUZPNQ8","3HUR21WDDUBEMSLDIXZW1FAIHVWXYO","","792","img/food1.png","74","793","1","1","","3","1","1,0.5,0,1,0.5,0,0.5,0,1","0,1,0.5,0,1,0.5,1,0.5,0","3",""
"","html-keyboard-response","306","208331","0.0-391.0","379J5II41P2N2DLRVFPG81J30LOELM","A3FSDH6HUZPNQ8","3HUR21WDDUBEMSLDIXZW1FAIHVWXYO","","null","<img src=""img/food1.png"" style=""width:200px; border:14px solid green;"">","null","","","","","","","","","",""
"","image-keyboard-response","307","208792","0.0-392.0","379J5II41P2N2DLRVFPG81J30LOELM","A3FSDH6HUZPNQ8","3HUR21WDDUBEMSLDIXZW1FAIHVWXYO","","461","img/food6.png","74","461","1","0","","1","1","1,0.5,0,1,0.5,0,0.5,0,1","0,1,0.5,0,1,0.5,1,0.5,0","3",""
"","html-keyboard-response","308","209102","0.0-393.0","379J5II41P2N2DLRVFPG81J30LOELM","A3FSDH6HUZPNQ8","3HUR21WDDUBEMSLDIXZW1FAIHVWXYO","","null","<img src=""img/food6.png"" style=""width:200px;border:14px solid red;"">","null","","","","","","","","","",""
"","image-keyboard-response","309","209749","0.0-394.0","379J5II41P2N2DLRVFPG81J30LOELM","A3FSDH6HUZPNQ8","3HUR21WDDUBEMSLDIXZW1FAIHVWXYO","","645","img/food3.png","74","646","1","0","","2","1","1,0.5,0,1,0.5,0,0.5,0,1","0,1,0.5,0,1,0.5,1,0.5,0","3",""
"","html-keyboard-response","310","210060","0.0-395.0","379J5II41P2N2DLRVFPG81J30LOELM","A3FSDH6HUZPNQ8","3HUR21WDDUBEMSLDIXZW1FAIHVWXYO","","null","<img src=""img/food3.png"" style=""width:200px;border:14px solid red;"">","null","","","","","","","","","",""
"","image-keyboard-response","311","210358","0.0-396.0","379J5II41P2N2DLRVFPG81J30LOELM","A3FSDH6HUZPNQ8","3HUR21WDDUBEMSLDIXZW1FAIHVWXYO","","296","img/food3.png","75","297","2","1","","2","1","1,0.5,0,1,0.5,0,0.5,0,1","0,1,0.5,0,1,0.5,1,0.5,0","3",""
"","html-keyboard-response","312","210673","0.0-397.0","379J5II41P2N2DLRVFPG81J30LOELM","A3FSDH6HUZPNQ8","3HUR21WDDUBEMSLDIXZW1FAIHVWXYO","","null","<img src=""img/food3.png"" style=""width:200px; border:14px solid green;"">","null","","","","","","","","","",""
"","image-keyboard-response","313","211049","0.0-398.0","379J5II41P2N2DLRVFPG81J30LOELM","A3FSDH6HUZPNQ8","3HUR21WDDUBEMSLDIXZW1FAIHVWXYO","","374","img/food3.png","75","376","2","1","","2","1","1,0.5,0,1,0.5,0,0.5,0,1","0,1,0.5,0,1,0.5,1,0.5,0","3",""
"","html-keyboard-response","314","211364","0.0-399.0","379J5II41P2N2DLRVFPG81J30LOELM","A3FSDH6HUZPNQ8","3HUR21WDDUBEMSLDIXZW1FAIHVWXYO","","null","<img src=""img/food3.png"" style=""width:200px; border:14px solid green;"">","null","","","","","","","","","",""
"","image-keyboard-response","315","212150","0.0-400.0","379J5II41P2N2DLRVFPG81J30LOELM","A3FSDH6HUZPNQ8","3HUR21WDDUBEMSLDIXZW1FAIHVWXYO","","785","img/food1.png","76","786","3","0","","3","1","1,0.5,0,1,0.5,0,0.5,0,1","0,1,0.5,0,1,0.5,1,0.5,0","3",""
"","html-keyboard-response","316","212466","0.0-401.0","379J5II41P2N2DLRVFPG81J30LOELM","A3FSDH6HUZPNQ8","3HUR21WDDUBEMSLDIXZW1FAIHVWXYO","","null","<img src=""img/food1.png"" style=""width:200px;border:14px solid red;"">","null","","","","","","","","","",""
"","image-keyboard-response","317","213019","0.0-402.0","379J5II41P2N2DLRVFPG81J30LOELM","A3FSDH6HUZPNQ8","3HUR21WDDUBEMSLDIXZW1FAIHVWXYO","","553","img/food3.png","74","553","1","0","","2","1","1,0.5,0,1,0.5,0,0.5,0,1","0,1,0.5,0,1,0.5,1,0.5,0","3",""
"","html-keyboard-response","318","213330","0.0-403.0","379J5II41P2N2DLRVFPG81J30LOELM","A3FSDH6HUZPNQ8","3HUR21WDDUBEMSLDIXZW1FAIHVWXYO","","null","<img src=""img/food3.png"" style=""width:200px;border:14px solid red;"">","null","","","","","","","","","",""
"","image-keyboard-response","319","213689","0.0-404.0","379J5II41P2N2DLRVFPG81J30LOELM","A3FSDH6HUZPNQ8","3HUR21WDDUBEMSLDIXZW1FAIHVWXYO","","358","img/food1.png","75","360","2","0","","3","1","1,0.5,0,1,0.5,0,0.5,0,1","0,1,0.5,0,1,0.5,1,0.5,0","3",""
"","html-keyboard-response","320","213990","0.0-405.0","379J5II41P2N2DLRVFPG81J30LOELM","A3FSDH6HUZPNQ8","3HUR21WDDUBEMSLDIXZW1FAIHVWXYO","","null","<img src=""img/food1.png"" style=""width:200px;border:14px solid red;"">","null","","","","","","","","","",""
"","image-keyboard-response","321","214556","0.0-406.0","379J5II41P2N2DLRVFPG81J30LOELM","A3FSDH6HUZPNQ8","3HUR21WDDUBEMSLDIXZW1FAIHVWXYO","","564","img/food6.png","75","564","2","1","","1","1","1,0.5,0,1,0.5,0,0.5,0,1","0,1,0.5,0,1,0.5,1,0.5,0","3",""
"","html-keyboard-response","322","214869","0.0-407.0","379J5II41P2N2DLRVFPG81J30LOELM","A3FSDH6HUZPNQ8","3HUR21WDDUBEMSLDIXZW1FAIHVWXYO","","null","<img src=""img/food6.png"" style=""width:200px; border:14px solid green;"">","null","","","","","","","","","",""
"","image-keyboard-response","323","215217","0.0-408.0","379J5II41P2N2DLRVFPG81J30LOELM","A3FSDH6HUZPNQ8","3HUR21WDDUBEMSLDIXZW1FAIHVWXYO","","347","img/food3.png","75","348","2","1","","2","1","1,0.5,0,1,0.5,0,0.5,0,1","0,1,0.5,0,1,0.5,1,0.5,0","3",""
"","html-keyboard-response","324","215531","0.0-409.0","379J5II41P2N2DLRVFPG81J30LOELM","A3FSDH6HUZPNQ8","3HUR21WDDUBEMSLDIXZW1FAIHVWXYO","","null","<img src=""img/food3.png"" style=""width:200px; border:14px solid green;"">","null","","","","","","","","","",""
"","image-keyboard-response","325","215880","0.0-410.0","379J5II41P2N2DLRVFPG81J30LOELM","A3FSDH6HUZPNQ8","3HUR21WDDUBEMSLDIXZW1FAIHVWXYO","","348","img/food3.png","75","348","2","1","","2","1","1,0.5,0,1,0.5,0,0.5,0,1","0,1,0.5,0,1,0.5,1,0.5,0","3",""
"","html-keyboard-response","326","216192","0.0-411.0","379J5II41P2N2DLRVFPG81J30LOELM","A3FSDH6HUZPNQ8","3HUR21WDDUBEMSLDIXZW1FAIHVWXYO","","null","<img src=""img/food3.png"" style=""width:200px; border:14px solid green;"">","null","","","","","","","","","",""
"","image-keyboard-response","327","216744","0.0-412.0","379J5II41P2N2DLRVFPG81J30LOELM","A3FSDH6HUZPNQ8","3HUR21WDDUBEMSLDIXZW1FAIHVWXYO","","551","img/food1.png","75","552","2","0","","3","1","1,0.5,0,1,0.5,0,0.5,0,1","0,1,0.5,0,1,0.5,1,0.5,0","3",""
"","html-keyboard-response","328","217056","0.0-413.0","379J5II41P2N2DLRVFPG81J30LOELM","A3FSDH6HUZPNQ8","3HUR21WDDUBEMSLDIXZW1FAIHVWXYO","","null","<img src=""img/food1.png"" style=""width:200px;border:14px solid red;"">","null","","","","","","","","","",""
"","image-keyboard-response","329","217821","0.0-414.0","379J5II41P2N2DLRVFPG81J30LOELM","A3FSDH6HUZPNQ8","3HUR21WDDUBEMSLDIXZW1FAIHVWXYO","","765","img/food6.png","76","766","3","1","","1","1","1,0.5,0,1,0.5,0,0.5,0,1","0,1,0.5,0,1,0.5,1,0.5,0","3",""
"","html-keyboard-response","330","218125","0.0-415.0","379J5II41P2N2DLRVFPG81J30LOELM","A3FSDH6HUZPNQ8","3HUR21WDDUBEMSLDIXZW1FAIHVWXYO","","null","<img src=""img/food6.png"" style=""width:200px; border:14px solid green;"">","null","","","","","","","","","",""
"","image-keyboard-response","331","218548","0.0-416.0","379J5II41P2N2DLRVFPG81J30LOELM","A3FSDH6HUZPNQ8","3HUR21WDDUBEMSLDIXZW1FAIHVWXYO","","422","img/food6.png","76","422","3","1","","1","1","1,0.5,0,1,0.5,0,0.5,0,1","0,1,0.5,0,1,0.5,1,0.5,0","3",""
"","html-keyboard-response","332","218848","0.0-417.0","379J5II41P2N2DLRVFPG81J30LOELM","A3FSDH6HUZPNQ8","3HUR21WDDUBEMSLDIXZW1FAIHVWXYO","","null","<img src=""img/food6.png"" style=""width:200px; border:14px solid green;"">","null","","","","","","","","","",""
"","image-keyboard-response","333","219707","0.0-418.0","379J5II41P2N2DLRVFPG81J30LOELM","A3FSDH6HUZPNQ8","3HUR21WDDUBEMSLDIXZW1FAIHVWXYO","","857","img/food3.png","75","858","2","1","","2","1","1,0.5,0,1,0.5,0,0.5,0,1","0,1,0.5,0,1,0.5,1,0.5,0","3",""
"","html-keyboard-response","334","220012","0.0-419.0","379J5II41P2N2DLRVFPG81J30LOELM","A3FSDH6HUZPNQ8","3HUR21WDDUBEMSLDIXZW1FAIHVWXYO","","null","<img src=""img/food3.png"" style=""width:200px; border:14px solid green;"">","null","","","","","","","","","",""
"","image-keyboard-response","335","220282","0.0-420.0","379J5II41P2N2DLRVFPG81J30LOELM","A3FSDH6HUZPNQ8","3HUR21WDDUBEMSLDIXZW1FAIHVWXYO","","269","img/food3.png","75","269","2","1","","2","1","1,0.5,0,1,0.5,0,0.5,0,1","0,1,0.5,0,1,0.5,1,0.5,0","3",""
"","html-keyboard-response","336","220594","0.0-421.0","379J5II41P2N2DLRVFPG81J30LOELM","A3FSDH6HUZPNQ8","3HUR21WDDUBEMSLDIXZW1FAIHVWXYO","","null","<img src=""img/food3.png"" style=""width:200px; border:14px solid green;"">","null","","","","","","","","","",""
"","image-keyboard-response","337","221160","0.0-422.0","379J5II41P2N2DLRVFPG81J30LOELM","A3FSDH6HUZPNQ8","3HUR21WDDUBEMSLDIXZW1FAIHVWXYO","","565","img/food6.png","76","566","3","1","","1","1","1,0.5,0,1,0.5,0,0.5,0,1","0,1,0.5,0,1,0.5,1,0.5,0","3",""
"","html-keyboard-response","338","221475","0.0-423.0","379J5II41P2N2DLRVFPG81J30LOELM","A3FSDH6HUZPNQ8","3HUR21WDDUBEMSLDIXZW1FAIHVWXYO","","null","<img src=""img/food6.png"" style=""width:200px; border:14px solid green;"">","null","","","","","","","","","",""
"","image-keyboard-response","339","221962","0.0-424.0","379J5II41P2N2DLRVFPG81J30LOELM","A3FSDH6HUZPNQ8","3HUR21WDDUBEMSLDIXZW1FAIHVWXYO","","486","img/food6.png","76","487","3","0","","1","1","1,0.5,0,1,0.5,0,0.5,0,1","0,1,0.5,0,1,0.5,1,0.5,0","3",""
"","html-keyboard-response","340","222276","0.0-425.0","379J5II41P2N2DLRVFPG81J30LOELM","A3FSDH6HUZPNQ8","3HUR21WDDUBEMSLDIXZW1FAIHVWXYO","","null","<img src=""img/food6.png"" style=""width:200px;border:14px solid red;"">","null","","","","","","","","","",""
"","image-keyboard-response","341","223519","0.0-426.0","379J5II41P2N2DLRVFPG81J30LOELM","A3FSDH6HUZPNQ8","3HUR21WDDUBEMSLDIXZW1FAIHVWXYO","","1242","img/food1.png","74","1243","1","1","","3","1","1,0.5,0,1,0.5,0,0.5,0,1","0,1,0.5,0,1,0.5,1,0.5,0","3",""
"","html-keyboard-response","342","223834","0.0-427.0","379J5II41P2N2DLRVFPG81J30LOELM","A3FSDH6HUZPNQ8","3HUR21WDDUBEMSLDIXZW1FAIHVWXYO","","null","<img src=""img/food1.png"" style=""width:200px; border:14px solid green;"">","null","","","","","","","","","",""
"","image-keyboard-response","343","224221","0.0-428.0","379J5II41P2N2DLRVFPG81J30LOELM","A3FSDH6HUZPNQ8","3HUR21WDDUBEMSLDIXZW1FAIHVWXYO","","385","img/food1.png","74","386","1","1","","3","1","1,0.5,0,1,0.5,0,0.5,0,1","0,1,0.5,0,1,0.5,1,0.5,0","3",""
"","html-keyboard-response","344","224526","0.0-429.0","379J5II41P2N2DLRVFPG81J30LOELM","A3FSDH6HUZPNQ8","3HUR21WDDUBEMSLDIXZW1FAIHVWXYO","","null","<img src=""img/food1.png"" style=""width:200px; border:14px solid green;"">","null","","","","","","","","","",""
"","image-keyboard-response","345","225505","0.0-430.0","379J5II41P2N2DLRVFPG81J30LOELM","A3FSDH6HUZPNQ8","3HUR21WDDUBEMSLDIXZW1FAIHVWXYO","","978","img/food6.png","76","978","3","0","","1","1","1,0.5,0,1,0.5,0,0.5,0,1","0,1,0.5,0,1,0.5,1,0.5,0","3",""
"","html-keyboard-response","346","225816","0.0-431.0","379J5II41P2N2DLRVFPG81J30LOELM","A3FSDH6HUZPNQ8","3HUR21WDDUBEMSLDIXZW1FAIHVWXYO","","null","<img src=""img/food6.png"" style=""width:200px;border:14px solid red;"">","null","","","","","","","","","",""
"","image-keyboard-response","347","226555","0.0-432.0","379J5II41P2N2DLRVFPG81J30LOELM","A3FSDH6HUZPNQ8","3HUR21WDDUBEMSLDIXZW1FAIHVWXYO","","739","img/food6.png","75","739","2","1","","1","1","1,0.5,0,1,0.5,0,0.5,0,1","0,1,0.5,0,1,0.5,1,0.5,0","3",""
"","html-keyboard-response","348","226868","0.0-433.0","379J5II41P2N2DLRVFPG81J30LOELM","A3FSDH6HUZPNQ8","3HUR21WDDUBEMSLDIXZW1FAIHVWXYO","","null","<img src=""img/food6.png"" style=""width:200px; border:14px solid green;"">","null","","","","","","","","","",""
"","image-keyboard-response","349","228308","0.0-434.0","379J5II41P2N2DLRVFPG81J30LOELM","A3FSDH6HUZPNQ8","3HUR21WDDUBEMSLDIXZW1FAIHVWXYO","","1439","img/food3.png","75","1439","2","1","","2","1","1,0.5,0,1,0.5,0,0.5,0,1","0,1,0.5,0,1,0.5,1,0.5,0","3",""
"","html-keyboard-response","350","228614","0.0-435.0","379J5II41P2N2DLRVFPG81J30LOELM","A3FSDH6HUZPNQ8","3HUR21WDDUBEMSLDIXZW1FAIHVWXYO","","null","<img src=""img/food3.png"" style=""width:200px; border:14px solid green;"">","null","","","","","","","","","",""
"","image-keyboard-response","351","228971","0.0-436.0","379J5II41P2N2DLRVFPG81J30LOELM","A3FSDH6HUZPNQ8","3HUR21WDDUBEMSLDIXZW1FAIHVWXYO","","355","img/food3.png","75","355","2","1","","2","1","1,0.5,0,1,0.5,0,0.5,0,1","0,1,0.5,0,1,0.5,1,0.5,0","3",""
"","html-keyboard-response","352","229274","0.0-437.0","379J5II41P2N2DLRVFPG81J30LOELM","A3FSDH6HUZPNQ8","3HUR21WDDUBEMSLDIXZW1FAIHVWXYO","","null","<img src=""img/food3.png"" style=""width:200px; border:14px solid green;"">","null","","","","","","","","","",""
"","image-keyboard-response","353","230326","0.0-438.0","379J5II41P2N2DLRVFPG81J30LOELM","A3FSDH6HUZPNQ8","3HUR21WDDUBEMSLDIXZW1FAIHVWXYO","","1050","img/food6.png","75","1051","2","1","","1","1","1,0.5,0,1,0.5,0,0.5,0,1","0,1,0.5,0,1,0.5,1,0.5,0","3",""
"","html-keyboard-response","354","230627","0.0-439.0","379J5II41P2N2DLRVFPG81J30LOELM","A3FSDH6HUZPNQ8","3HUR21WDDUBEMSLDIXZW1FAIHVWXYO","","null","<img src=""img/food6.png"" style=""width:200px; border:14px solid green;"">","null","","","","","","","","","",""
"","image-keyboard-response","355","230988","0.0-440.0","379J5II41P2N2DLRVFPG81J30LOELM","A3FSDH6HUZPNQ8","3HUR21WDDUBEMSLDIXZW1FAIHVWXYO","","360","img/food6.png","75","361","2","1","","1","1","1,0.5,0,1,0.5,0,0.5,0,1","0,1,0.5,0,1,0.5,1,0.5,0","3",""
"","html-keyboard-response","356","231303","0.0-441.0","379J5II41P2N2DLRVFPG81J30LOELM","A3FSDH6HUZPNQ8","3HUR21WDDUBEMSLDIXZW1FAIHVWXYO","","null","<img src=""img/food6.png"" style=""width:200px; border:14px solid green;"">","null","","","","","","","","","",""
"","image-keyboard-response","357","232233","0.0-442.0","379J5II41P2N2DLRVFPG81J30LOELM","A3FSDH6HUZPNQ8","3HUR21WDDUBEMSLDIXZW1FAIHVWXYO","","929","img/food1.png","74","929","1","1","","3","1","1,0.5,0,1,0.5,0,0.5,0,1","0,1,0.5,0,1,0.5,1,0.5,0","3",""
"","html-keyboard-response","358","232546","0.0-443.0","379J5II41P2N2DLRVFPG81J30LOELM","A3FSDH6HUZPNQ8","3HUR21WDDUBEMSLDIXZW1FAIHVWXYO","","null","<img src=""img/food1.png"" style=""width:200px; border:14px solid green;"">","null","","","","","","","","","",""
"","image-keyboard-response","359","233340","0.0-444.0","379J5II41P2N2DLRVFPG81J30LOELM","A3FSDH6HUZPNQ8","3HUR21WDDUBEMSLDIXZW1FAIHVWXYO","","794","img/food3.png","74","794","1","0","","2","1","1,0.5,0,1,0.5,0,0.5,0,1","0,1,0.5,0,1,0.5,1,0.5,0","3",""
"","html-keyboard-response","360","233649","0.0-445.0","379J5II41P2N2DLRVFPG81J30LOELM","A3FSDH6HUZPNQ8","3HUR21WDDUBEMSLDIXZW1FAIHVWXYO","","null","<img src=""img/food3.png"" style=""width:200px;border:14px solid red;"">","null","","","","","","","","","",""
"","image-keyboard-response","361","234536","0.0-446.0","379J5II41P2N2DLRVFPG81J30LOELM","A3FSDH6HUZPNQ8","3HUR21WDDUBEMSLDIXZW1FAIHVWXYO","","888","img/food3.png","75","889","2","1","","2","1","1,0.5,0,1,0.5,0,0.5,0,1","0,1,0.5,0,1,0.5,1,0.5,0","3",""
"","html-keyboard-response","362","234845","0.0-447.0","379J5II41P2N2DLRVFPG81J30LOELM","A3FSDH6HUZPNQ8","3HUR21WDDUBEMSLDIXZW1FAIHVWXYO","","null","<img src=""img/food3.png"" style=""width:200px; border:14px solid green;"">","null","","","","","","","","","",""
"","image-keyboard-response","363","235893","0.0-448.0","379J5II41P2N2DLRVFPG81J30LOELM","A3FSDH6HUZPNQ8","3HUR21WDDUBEMSLDIXZW1FAIHVWXYO","","1048","img/food6.png","76","1048","3","1","","1","1","1,0.5,0,1,0.5,0,0.5,0,1","0,1,0.5,0,1,0.5,1,0.5,0","3",""
"","html-keyboard-response","364","236196","0.0-449.0","379J5II41P2N2DLRVFPG81J30LOELM","A3FSDH6HUZPNQ8","3HUR21WDDUBEMSLDIXZW1FAIHVWXYO","","null","<img src=""img/food6.png"" style=""width:200px; border:14px solid green;"">","null","","","","","","","","","",""
"","image-keyboard-response","365","236914","0.0-450.0","379J5II41P2N2DLRVFPG81J30LOELM","A3FSDH6HUZPNQ8","3HUR21WDDUBEMSLDIXZW1FAIHVWXYO","","716","img/food3.png","74","717","1","0","","2","1","1,0.5,0,1,0.5,0,0.5,0,1","0,1,0.5,0,1,0.5,1,0.5,0","3",""
"","html-keyboard-response","366","237218","0.0-451.0","379J5II41P2N2DLRVFPG81J30LOELM","A3FSDH6HUZPNQ8","3HUR21WDDUBEMSLDIXZW1FAIHVWXYO","","null","<img src=""img/food3.png"" style=""width:200px;border:14px solid red;"">","null","","","","","","","","","",""
"","image-keyboard-response","367","238229","0.0-452.0","379J5II41P2N2DLRVFPG81J30LOELM","A3FSDH6HUZPNQ8","3HUR21WDDUBEMSLDIXZW1FAIHVWXYO","","1010","img/food1.png","74","1011","1","1","","3","1","1,0.5,0,1,0.5,0,0.5,0,1","0,1,0.5,0,1,0.5,1,0.5,0","3",""
"","html-keyboard-response","368","238540","0.0-453.0","379J5II41P2N2DLRVFPG81J30LOELM","A3FSDH6HUZPNQ8","3HUR21WDDUBEMSLDIXZW1FAIHVWXYO","","null","<img src=""img/food1.png"" style=""width:200px; border:14px solid green;"">","null","","","","","","","","","",""
"","html-keyboard-response","369","244547","0.0-454.0","379J5II41P2N2DLRVFPG81J30LOELM","A3FSDH6HUZPNQ8","3HUR21WDDUBEMSLDIXZW1FAIHVWXYO","","","","","","","","","","","","","",""
"","instructions","370","249926","0.0-455.0","379J5II41P2N2DLRVFPG81J30LOELM","A3FSDH6HUZPNQ8","3HUR21WDDUBEMSLDIXZW1FAIHVWXYO","[{""page_index"":0,""viewing_time"":5376}]","5376","","","","","","","","","","","",""
"","survey-text","371","257600","0.0-456.0","379J5II41P2N2DLRVFPG81J30LOELM","A3FSDH6HUZPNQ8","3HUR21WDDUBEMSLDIXZW1FAIHVWXYO","","7673","","","","","","","","","","","","{""Q0"":""A3FSDH6HUZPNQ8""}"
