"success","trial_type","trial_index","time_elapsed","internal_node_id","assignmentID","mturkID","hitID","view_history","rt","stimulus","key_press","reactionTime","a","r","warning","s","cond","reward_cond","reward_cond_actual","reward_matrix_idx","responses"
"true","fullscreen","0","3002","0.0-0.0","","","","","","","","","","","","","","","","",""
"","instructions","1","11297","0.0-1.0","","","","[{""page_index"":0,""viewing_time"":2349.899999976158},{""page_index"":1,""viewing_time"":1189.800000011921},{""page_index"":2,""viewing_time"":684},{""page_index"":3,""viewing_time"":1373.9000000357628},{""page_index"":4,""viewing_time"":982.1999999880791},{""page_index"":5,""viewing_time"":1075.8999999761581},{""page_index"":6,""viewing_time"":638}]","8294","","","","","","","","","","","",""
"","instructions","2","22505","0.0-2.0","","","","[{""page_index"":0,""viewing_time"":8458.699999988079},{""page_index"":1,""viewing_time"":2747.699999988079}]","11206.699999988079","","","","","","","","","","","",""
"","image-keyboard-response","3","22833","0.0-3.0","","","","","326.5999999642372","img/food4.png","74","327.89999997615814","1","0","false","2","2","1,0.7,0,1,0.7,0,0.7,0,1","0,1,0.7,0,1,0.7,1,0.7,0","3",""
"","html-keyboard-response","4","23142","0.0-4.0","","","","","null","<img src=""img/food4.png"" style=""width:200px;border:14px solid red;"">","null","","","","","","","","","",""
"","image-keyboard-response","5","23362","0.0-6.0","","","","","218.4000000357628","img/food5.png","75","219.80000001192093","2","1","false","1","2","1,0.7,0,1,0.7,0,0.7,0,1","0,1,0.7,0,1,0.7,1,0.7,0","3",""
"","html-keyboard-response","6","23666","0.0-7.0","","","","","null","<img src=""img/food5.png"" style=""width:200px; border:14px solid green;"">","null","","","","","","","","","",""
"","image-keyboard-response","7","23905","0.0-9.0","","","","","236.79999995231628","img/food1.png","75","238.20000004768372","2","1","false","3","2","1,0.7,0,1,0.7,0,0.7,0,1","0,1,0.7,0,1,0.7,1,0.7,0","3",""
"","html-keyboard-response","8","24207","0.0-10.0","","","","","null","<img src=""img/food1.png"" style=""width:200px; border:14px solid green;"">","null","","","","","","","","","",""
"","image-keyboard-response","9","24465","0.0-12.0","","","","","255","img/food5.png","75","256.5999999642372","2","1","false","1","2","1,0.7,0,1,0.7,0,0.7,0,1","0,1,0.7,0,1,0.7,1,0.7,0","3",""
"","html-keyboard-response","10","24777","0.0-13.0","","","","","null","<img src=""img/food5.png"" style=""width:200px; border:14px solid green;"">","null","","","","","","","","","",""
"","image-keyboard-response","11","24961","0.0-15.0","","","","","182.5999999642372","img/food4.png","75","183.5","2","1","false","2","2","1,0.7,0,1,0.7,0,0.7,0,1","0,1,0.7,0,1,0.7,1,0.7,0","3",""
"","html-keyboard-response","12","25268","0.0-16.0","","","","","null","<img src=""img/food4.png"" style=""width:200px; border:14px solid green;"">","null","","","","","","","","","",""
"","image-keyboard-response","13","25569","0.0-18.0","","","","","299.0999999642372","img/food5.png","75","300.30000001192093","2","1","false","1","2","1,0.7,0,1,0.7,0,0.7,0,1","0,1,0.7,0,1,0.7,1,0.7,0","3",""
"","html-keyboard-response","14","25871","0.0-19.0","","","","","null","<img src=""img/food5.png"" style=""width:200px; border:14px solid green;"">","null","","","","","","","","","",""
"","image-keyboard-response","15","26177","0.0-21.0","","","","","305","img/food5.png","75","305.69999998807907","2","1","false","1","2","1,0.7,0,1,0.7,0,0.7,0,1","0,1,0.7,0,1,0.7,1,0.7,0","3",""
"","html-keyboard-response","16","26485","0.0-22.0","","","","","null","<img src=""img/food5.png"" style=""width:200px; border:14px solid green;"">","null","","","","","","","","","",""
"","image-keyboard-response","17","26704","0.0-24.0","","","","","218","img/food1.png","75","219.0999999642372","2","0","false","3","2","1,0.7,0,1,0.7,0,0.7,0,1","0,1,0.7,0,1,0.7,1,0.7,0","3",""
"","html-keyboard-response","18","27018","0.0-25.0","","","","","null","<img src=""img/food1.png"" style=""width:200px;border:14px solid red;"">","null","","","","","","","","","",""
"","image-keyboard-response","19","27280","0.0-27.0","","","","","261.39999997615814","img/food5.png","76","262.30000001192093","3","1","false","1","2","1,0.7,0,1,0.7,0,0.7,0,1","0,1,0.7,0,1,0.7,1,0.7,0","3",""
"","html-keyboard-response","20","27584","0.0-28.0","","","","","null","<img src=""img/food5.png"" style=""width:200px; border:14px solid green;"">","null","","","","","","","","","",""
"","image-keyboard-response","21","28528","0.0-30.0","","","","","942.6999999880791","img/food4.png","76","943.7000000476837","3","1","false","2","2","1,0.7,0,1,0.7,0,0.7,0,1","0,1,0.7,0,1,0.7,1,0.7,0","3",""
"","html-keyboard-response","22","28837","0.0-31.0","","","","","null","<img src=""img/food4.png"" style=""width:200px; border:14px solid green;"">","null","","","","","","","","","",""
"","image-keyboard-response","23","29056","0.0-33.0","","","","","218.29999995231628","img/food5.png","75","219","2","1","false","1","2","1,0.7,0,1,0.7,0,0.7,0,1","0,1,0.7,0,1,0.7,1,0.7,0","3",""
"","html-keyboard-response","24","29370","0.0-34.0","","","","","null","<img src=""img/food5.png"" style=""width:200px; border:14px solid green;"">","null","","","","","","","","","",""
"","image-keyboard-response","25","29584","0.0-36.0","","","","","213.69999998807907","img/food5.png","75","214.5","2","1","false","1","2","1,0.7,0,1,0.7,0,0.7,0,1","0,1,0.7,0,1,0.7,1,0.7,0","3",""
"","html-keyboard-response","26","29886","0.0-37.0","","","","","null","<img src=""img/food5.png"" style=""width:200px; border:14px solid green;"">","null","","","","","","","","","",""
"","image-keyboard-response","27","30032","0.0-39.0","","","","","145.30000001192093","img/food1.png","75","146.30000001192093","2","0","false","3","2","1,0.7,0,1,0.7,0,0.7,0,1","0,1,0.7,0,1,0.7,1,0.7,0","3",""
"","html-keyboard-response","28","30335","0.0-40.0","","","","","null","<img src=""img/food1.png"" style=""width:200px;border:14px solid red;"">","null","","","","","","","","","",""
"","image-keyboard-response","29","30656","0.0-42.0","","","","","320.5","img/food4.png","75","321.39999997615814","2","1","false","2","2","1,0.7,0,1,0.7,0,0.7,0,1","0,1,0.7,0,1,0.7,1,0.7,0","3",""
"","html-keyboard-response","30","30958","0.0-43.0","","","","","null","<img src=""img/food4.png"" style=""width:200px; border:14px solid green;"">","null","","","","","","","","","",""
"","image-keyboard-response","31","31185","0.0-45.0","","","","","225.69999998807907","img/food4.png","75","226.69999998807907","2","1","false","2","2","1,0.7,0,1,0.7,0,0.7,0,1","0,1,0.7,0,1,0.7,1,0.7,0","3",""
"","html-keyboard-response","32","31489","0.0-46.0","","","","","null","<img src=""img/food4.png"" style=""width:200px; border:14px solid green;"">","null","","","","","","","","","",""
"","image-keyboard-response","33","31712","0.0-48.0","","","","","222.60000002384186","img/food1.png","75","223.4000000357628","2","0","false","3","2","1,0.7,0,1,0.7,0,0.7,0,1","0,1,0.7,0,1,0.7,1,0.7,0","3",""
"","html-keyboard-response","34","32015","0.0-49.0","","","","","null","<img src=""img/food1.png"" style=""width:200px;border:14px solid red;"">","null","","","","","","","","","",""
"","image-keyboard-response","35","32368","0.0-51.0","","","","","352.0999999642372","img/food1.png","74","353","1","1","false","3","2","1,0.7,0,1,0.7,0,0.7,0,1","0,1,0.7,0,1,0.7,1,0.7,0","3",""
"","html-keyboard-response","36","32676","0.0-52.0","","","","","null","<img src=""img/food1.png"" style=""width:200px; border:14px solid green;"">","null","","","","","","","","","",""
"","image-keyboard-response","37","32960","0.0-54.0","","","","","283.5","img/food1.png","75","284.60000002384186","2","1","false","3","2","1,0.7,0,1,0.7,0,0.7,0,1","0,1,0.7,0,1,0.7,1,0.7,0","3",""
"","html-keyboard-response","38","33263","0.0-55.0","","","","","null","<img src=""img/food1.png"" style=""width:200px; border:14px solid green;"">","null","","","","","","","","","",""
"","image-keyboard-response","39","33520","0.0-57.0","","","","","256.10000002384186","img/food4.png","75","256.9000000357628","2","1","false","2","2","1,0.7,0,1,0.7,0,0.7,0,1","0,1,0.7,0,1,0.7,1,0.7,0","3",""
"","html-keyboard-response","40","33823","0.0-58.0","","","","","null","<img src=""img/food4.png"" style=""width:200px; border:14px solid green;"">","null","","","","","","","","","",""
"","image-keyboard-response","41","34064","0.0-60.0","","","","","240.30000001192093","img/food1.png","75","241.30000001192093","2","0","false","3","2","1,0.7,0,1,0.7,0,0.7,0,1","0,1,0.7,0,1,0.7,1,0.7,0","3",""
"","html-keyboard-response","42","34367","0.0-61.0","","","","","null","<img src=""img/food1.png"" style=""width:200px;border:14px solid red;"">","null","","","","","","","","","",""
"","image-keyboard-response","43","34576","0.0-63.0","","","","","208.19999998807907","img/food4.png","74","208.89999997615814","1","0","false","2","2","1,0.7,0,1,0.7,0,0.7,0,1","0,1,0.7,0,1,0.7,1,0.7,0","3",""
"","html-keyboard-response","44","34878","0.0-64.0","","","","","null","<img src=""img/food4.png"" style=""width:200px;border:14px solid red;"">","null","","","","","","","","","",""
"","image-keyboard-response","45","35200","0.0-66.0","","","","","321.69999998807907","img/food1.png","75","322.5999999642372","2","1","false","3","2","1,0.7,0,1,0.7,0,0.7,0,1","0,1,0.7,0,1,0.7,1,0.7,0","3",""
"","html-keyboard-response","46","35503","0.0-67.0","","","","","null","<img src=""img/food1.png"" style=""width:200px; border:14px solid green;"">","null","","","","","","","","","",""
"","image-keyboard-response","47","35712","0.0-69.0","","","","","208.0999999642372","img/food5.png","75","209.0999999642372","2","1","false","1","2","1,0.7,0,1,0.7,0,0.7,0,1","0,1,0.7,0,1,0.7,1,0.7,0","3",""
"","html-keyboard-response","48","36015","0.0-70.0","","","","","null","<img src=""img/food5.png"" style=""width:200px; border:14px solid green;"">","null","","","","","","","","","",""
"","image-keyboard-response","49","36289","0.0-72.0","","","","","270.89999997615814","img/food1.png","75","272.5","2","1","false","3","2","1,0.7,0,1,0.7,0,0.7,0,1","0,1,0.7,0,1,0.7,1,0.7,0","3",""
"","html-keyboard-response","50","36590","0.0-73.0","","","","","null","<img src=""img/food1.png"" style=""width:200px; border:14px solid green;"">","null","","","","","","","","","",""
"","image-keyboard-response","51","36818","0.0-75.0","","","","","225.5999999642372","img/food1.png","75","227.19999998807907","2","0","false","3","2","1,0.7,0,1,0.7,0,0.7,0,1","0,1,0.7,0,1,0.7,1,0.7,0","3",""
"","html-keyboard-response","52","37121","0.0-76.0","","","","","null","<img src=""img/food1.png"" style=""width:200px;border:14px solid red;"">","null","","","","","","","","","",""
"","image-keyboard-response","53","37409","0.0-78.0","","","","","287.19999998807907","img/food5.png","75","288.39999997615814","2","1","false","1","2","1,0.7,0,1,0.7,0,0.7,0,1","0,1,0.7,0,1,0.7,1,0.7,0","3",""
"","html-keyboard-response","54","37712","0.0-79.0","","","","","null","<img src=""img/food5.png"" style=""width:200px; border:14px solid green;"">","null","","","","","","","","","",""
"","image-keyboard-response","55","37953","0.0-81.0","","","","","239.4000000357628","img/food4.png","75","240.89999997615814","2","1","false","2","2","1,0.7,0,1,0.7,0,0.7,0,1","0,1,0.7,0,1,0.7,1,0.7,0","3",""
"","html-keyboard-response","56","38256","0.0-82.0","","","","","null","<img src=""img/food4.png"" style=""width:200px; border:14px solid green;"">","null","","","","","","","","","",""
"","image-keyboard-response","57","38496","0.0-84.0","","","","","238.4000000357628","img/food4.png","75","239.80000001192093","2","1","false","2","2","1,0.7,0,1,0.7,0,0.7,0,1","0,1,0.7,0,1,0.7,1,0.7,0","3",""
"","html-keyboard-response","58","38798","0.0-85.0","","","","","null","<img src=""img/food4.png"" style=""width:200px; border:14px solid green;"">","null","","","","","","","","","",""
"","image-keyboard-response","59","39169","0.0-87.0","","","","","368.60000002384186","img/food1.png","74","370","1","1","false","3","2","1,0.7,0,1,0.7,0,0.7,0,1","0,1,0.7,0,1,0.7,1,0.7,0","3",""
"","html-keyboard-response","60","39472","0.0-88.0","","","","","null","<img src=""img/food1.png"" style=""width:200px; border:14px solid green;"">","null","","","","","","","","","",""
"","image-keyboard-response","61","39728","0.0-90.0","","","","","255.5999999642372","img/food4.png","74","256.39999997615814","1","0","false","2","2","1,0.7,0,1,0.7,0,0.7,0,1","0,1,0.7,0,1,0.7,1,0.7,0","3",""
"","html-keyboard-response","62","40031","0.0-91.0","","","","","null","<img src=""img/food4.png"" style=""width:200px;border:14px solid red;"">","null","","","","","","","","","",""
"","image-keyboard-response","63","40240","0.0-93.0","","","","","208.19999998807907","img/food4.png","75","209","2","1","false","2","2","1,0.7,0,1,0.7,0,0.7,0,1","0,1,0.7,0,1,0.7,1,0.7,0","3",""
"","html-keyboard-response","64","40543","0.0-94.0","","","","","null","<img src=""img/food4.png"" style=""width:200px; border:14px solid green;"">","null","","","","","","","","","",""
"","image-keyboard-response","65","40816","0.0-96.0","","","","","272.5999999642372","img/food4.png","75","273.4000000357628","2","1","false","2","2","1,0.7,0,1,0.7,0,0.7,0,1","0,1,0.7,0,1,0.7,1,0.7,0","3",""
"","html-keyboard-response","66","41119","0.0-97.0","","","","","null","<img src=""img/food4.png"" style=""width:200px; border:14px solid green;"">","null","","","","","","","","","",""
"","image-keyboard-response","67","41472","0.0-99.0","","","","","352.5","img/food1.png","74","353.30000001192093","1","1","false","3","2","1,0.7,0,1,0.7,0,0.7,0,1","0,1,0.7,0,1,0.7,1,0.7,0","3",""
"","html-keyboard-response","68","41775","0.0-100.0","","","","","null","<img src=""img/food1.png"" style=""width:200px; border:14px solid green;"">","null","","","","","","","","","",""
"","image-keyboard-response","69","42000","0.0-102.0","","","","","224.10000002384186","img/food4.png","75","225.0999999642372","2","1","false","2","2","1,0.7,0,1,0.7,0,0.7,0,1","0,1,0.7,0,1,0.7,1,0.7,0","3",""
"","html-keyboard-response","70","42303","0.0-103.0","","","","","null","<img src=""img/food4.png"" style=""width:200px; border:14px solid green;"">","null","","","","","","","","","",""
"","image-keyboard-response","71","42529","0.0-105.0","","","","","225.0999999642372","img/food1.png","75","226.19999998807907","2","1","false","3","2","1,0.7,0,1,0.7,0,0.7,0,1","0,1,0.7,0,1,0.7,1,0.7,0","3",""
"","html-keyboard-response","72","42832","0.0-106.0","","","","","null","<img src=""img/food1.png"" style=""width:200px; border:14px solid green;"">","null","","","","","","","","","",""
"","image-keyboard-response","73","43073","0.0-108.0","","","","","239.5","img/food1.png","75","240.39999997615814","2","1","false","3","2","1,0.7,0,1,0.7,0,0.7,0,1","0,1,0.7,0,1,0.7,1,0.7,0","3",""
"","html-keyboard-response","74","43376","0.0-109.0","","","","","null","<img src=""img/food1.png"" style=""width:200px; border:14px solid green;"">","null","","","","","","","","","",""
"","image-keyboard-response","75","43649","0.0-111.0","","","","","272.10000002384186","img/food5.png","75","273.10000002384186","2","1","false","1","2","1,0.7,0,1,0.7,0,0.7,0,1","0,1,0.7,0,1,0.7,1,0.7,0","3",""
"","html-keyboard-response","76","43952","0.0-112.0","","","","","null","<img src=""img/food5.png"" style=""width:200px; border:14px solid green;"">","null","","","","","","","","","",""
"","image-keyboard-response","77","44464","0.0-114.0","","","","","511.39999997615814","img/food1.png","74","512.1999999880791","1","1","false","3","2","1,0.7,0,1,0.7,0,0.7,0,1","0,1,0.7,0,1,0.7,1,0.7,0","3",""
"","html-keyboard-response","78","44767","0.0-115.0","","","","","null","<img src=""img/food1.png"" style=""width:200px; border:14px solid green;"">","null","","","","","","","","","",""
"","image-keyboard-response","79","45040","0.0-117.0","","","","","271.89999997615814","img/food1.png","74","272.80000001192093","1","1","false","3","2","1,0.7,0,1,0.7,0,0.7,0,1","0,1,0.7,0,1,0.7,1,0.7,0","3",""
"","html-keyboard-response","80","45343","0.0-118.0","","","","","null","<img src=""img/food1.png"" style=""width:200px; border:14px solid green;"">","null","","","","","","","","","",""
"","image-keyboard-response","81","45665","0.0-120.0","","","","","319.9000000357628","img/food5.png","75","321.5","2","1","false","1","2","1,0.7,0,1,0.7,0,0.7,0,1","0,1,0.7,0,1,0.7,1,0.7,0","3",""
"","html-keyboard-response","82","45967","0.0-121.0","","","","","null","<img src=""img/food5.png"" style=""width:200px; border:14px solid green;"">","null","","","","","","","","","",""
"","image-keyboard-response","83","46177","0.0-123.0","","","","","208.39999997615814","img/food1.png","75","210.0999999642372","2","1","false","3","2","1,0.7,0,1,0.7,0,0.7,0,1","0,1,0.7,0,1,0.7,1,0.7,0","3",""
"","html-keyboard-response","84","46481","0.0-124.0","","","","","null","<img src=""img/food1.png"" style=""width:200px; border:14px solid green;"">","null","","","","","","","","","",""
"","image-keyboard-response","85","46832","0.0-126.0","","","","","350.30000001192093","img/food4.png","74","351.2000000476837","1","0","false","2","2","1,0.7,0,1,0.7,0,0.7,0,1","0,1,0.7,0,1,0.7,1,0.7,0","3",""
"","html-keyboard-response","86","47135","0.0-127.0","","","","","null","<img src=""img/food4.png"" style=""width:200px;border:14px solid red;"">","null","","","","","","","","","",""
"","image-keyboard-response","87","47200","0.0-129.0","","","","","64.19999998807907","img/food5.png","75","65","2","1","false","1","2","1,0.7,0,1,0.7,0,0.7,0,1","0,1,0.7,0,1,0.7,1,0.7,0","3",""
"","html-keyboard-response","88","47503","0.0-130.0","","","","","null","<img src=""img/food5.png"" style=""width:200px; border:14px solid green;"">","null","","","","","","","","","",""
"","image-keyboard-response","89","47792","0.0-132.0","","","","","288.30000001192093","img/food4.png","75","289.2000000476837","2","1","false","2","2","1,0.7,0,1,0.7,0,0.7,0,1","0,1,0.7,0,1,0.7,1,0.7,0","3",""
"","html-keyboard-response","90","48095","0.0-133.0","","","","","null","<img src=""img/food4.png"" style=""width:200px; border:14px solid green;"">","null","","","","","","","","","",""
"","image-keyboard-response","91","48400","0.0-135.0","","","","","304.5","img/food4.png","75","305.4000000357628","2","1","false","2","2","1,0.7,0,1,0.7,0,0.7,0,1","0,1,0.7,0,1,0.7,1,0.7,0","3",""
"","html-keyboard-response","92","48702","0.0-136.0","","","","","null","<img src=""img/food4.png"" style=""width:200px; border:14px solid green;"">","null","","","","","","","","","",""
"","image-keyboard-response","93","49137","0.0-138.0","","","","","433.19999998807907","img/food5.png","75","434.10000002384186","2","1","false","1","2","1,0.7,0,1,0.7,0,0.7,0,1","0,1,0.7,0,1,0.7,1,0.7,0","3",""
"","html-keyboard-response","94","49439","0.0-139.0","","","","","null","<img src=""img/food5.png"" style=""width:200px; border:14px solid green;"">","null","","","","","","","","","",""
"","image-keyboard-response","95","49648","0.0-141.0","","","","","208.39999997615814","img/food5.png","75","209.19999998807907","2","1","false","1","2","1,0.7,0,1,0.7,0,0.7,0,1","0,1,0.7,0,1,0.7,1,0.7,0","3",""
"","html-keyboard-response","96","49951","0.0-142.0","","","","","null","<img src=""img/food5.png"" style=""width:200px; border:14px solid green;"">","null","","","","","","","","","",""
"","image-keyboard-response","97","50240","0.0-144.0","","","","","288.69999998807907","img/food4.png","75","289.5999999642372","2","1","false","2","2","1,0.7,0,1,0.7,0,0.7,0,1","0,1,0.7,0,1,0.7,1,0.7,0","3",""
"","html-keyboard-response","98","50543","0.0-145.0","","","","","null","<img src=""img/food4.png"" style=""width:200px; border:14px solid green;"">","null","","","","","","","","","",""
"","image-keyboard-response","99","50785","0.0-147.0","","","","","240.30000001192093","img/food4.png","75","241.29999995231628","2","1","false","2","2","1,0.7,0,1,0.7,0,0.7,0,1","0,1,0.7,0,1,0.7,1,0.7,0","3",""
"","html-keyboard-response","100","51087","0.0-148.0","","","","","null","<img src=""img/food4.png"" style=""width:200px; border:14px solid green;"">","null","","","","","","","","","",""
"","image-keyboard-response","101","51344","0.0-150.0","","","","","256.60000002384186","img/food1.png","75","257.5","2","1","false","3","2","1,0.7,0,1,0.7,0,0.7,0,1","0,1,0.7,0,1,0.7,1,0.7,0","3",""
"","html-keyboard-response","102","51647","0.0-151.0","","","","","null","<img src=""img/food1.png"" style=""width:200px; border:14px solid green;"">","null","","","","","","","","","",""
"","image-keyboard-response","103","51920","0.0-153.0","","","","","272.19999998807907","img/food1.png","74","273","1","1","false","3","2","1,0.7,0,1,0.7,0,0.7,0,1","0,1,0.7,0,1,0.7,1,0.7,0","3",""
"","html-keyboard-response","104","52223","0.0-154.0","","","","","null","<img src=""img/food1.png"" style=""width:200px; border:14px solid green;"">","null","","","","","","","","","",""
"","image-keyboard-response","105","52432","0.0-156.0","","","","","208.5","img/food5.png","75","209.39999997615814","2","1","false","1","2","1,0.7,0,1,0.7,0,0.7,0,1","0,1,0.7,0,1,0.7,1,0.7,0","3",""
"","html-keyboard-response","106","52734","0.0-157.0","","","","","null","<img src=""img/food5.png"" style=""width:200px; border:14px solid green;"">","null","","","","","","","","","",""
"","image-keyboard-response","107","52977","0.0-159.0","","","","","241.10000002384186","img/food1.png","75","242.10000002384186","2","1","false","3","2","1,0.7,0,1,0.7,0,0.7,0,1","0,1,0.7,0,1,0.7,1,0.7,0","3",""
"","html-keyboard-response","108","53279","0.0-160.0","","","","","null","<img src=""img/food1.png"" style=""width:200px; border:14px solid green;"">","null","","","","","","","","","",""
"","image-keyboard-response","109","53505","0.0-162.0","","","","","224.39999997615814","img/food4.png","74","225.69999998807907","1","0","false","2","2","1,0.7,0,1,0.7,0,0.7,0,1","0,1,0.7,0,1,0.7,1,0.7,0","3",""
"","html-keyboard-response","110","53807","0.0-163.0","","","","","null","<img src=""img/food4.png"" style=""width:200px;border:14px solid red;"">","null","","","","","","","","","",""
"","image-keyboard-response","111","53984","0.0-165.0","","","","","176.0999999642372","img/food4.png","75","176.89999997615814","2","1","false","2","2","1,0.7,0,1,0.7,0,0.7,0,1","0,1,0.7,0,1,0.7,1,0.7,0","3",""
"","html-keyboard-response","112","54287","0.0-166.0","","","","","null","<img src=""img/food4.png"" style=""width:200px; border:14px solid green;"">","null","","","","","","","","","",""
"","image-keyboard-response","113","54704","0.0-168.0","","","","","416.39999997615814","img/food1.png","75","417.30000001192093","2","0","false","3","2","1,0.7,0,1,0.7,0,0.7,0,1","0,1,0.7,0,1,0.7,1,0.7,0","3",""
"","html-keyboard-response","114","55007","0.0-169.0","","","","","null","<img src=""img/food1.png"" style=""width:200px;border:14px solid red;"">","null","","","","","","","","","",""
"","image-keyboard-response","115","55568","0.0-171.0","","","","","560.5","img/food5.png","75","561.3000000119209","2","1","false","1","2","1,0.7,0,1,0.7,0,0.7,0,1","0,1,0.7,0,1,0.7,1,0.7,0","3",""
"","html-keyboard-response","116","55871","0.0-172.0","","","","","null","<img src=""img/food5.png"" style=""width:200px; border:14px solid green;"">","null","","","","","","","","","",""
"","image-keyboard-response","117","56032","0.0-174.0","","","","","160.29999995231628","img/food4.png","75","161.10000002384186","2","1","false","2","2","1,0.7,0,1,0.7,0,0.7,0,1","0,1,0.7,0,1,0.7,1,0.7,0","3",""
"","html-keyboard-response","118","56335","0.0-175.0","","","","","null","<img src=""img/food4.png"" style=""width:200px; border:14px solid green;"">","null","","","","","","","","","",""
"","image-keyboard-response","119","56624","0.0-177.0","","","","","288.4000000357628","img/food4.png","75","289.39999997615814","2","1","false","2","2","1,0.7,0,1,0.7,0,0.7,0,1","0,1,0.7,0,1,0.7,1,0.7,0","3",""
"","html-keyboard-response","120","56927","0.0-178.0","","","","","null","<img src=""img/food4.png"" style=""width:200px; border:14px solid green;"">","null","","","","","","","","","",""
"","image-keyboard-response","121","57201","0.0-180.0","","","","","272.30000001192093","img/food4.png","75","273.19999998807907","2","1","false","2","2","1,0.7,0,1,0.7,0,0.7,0,1","0,1,0.7,0,1,0.7,1,0.7,0","3",""
"","html-keyboard-response","122","57504","0.0-181.0","","","","","null","<img src=""img/food4.png"" style=""width:200px; border:14px solid green;"">","null","","","","","","","","","",""
"","image-keyboard-response","123","57776","0.0-183.0","","","","","270.69999998807907","img/food5.png","75","272","2","1","false","1","2","1,0.7,0,1,0.7,0,0.7,0,1","0,1,0.7,0,1,0.7,1,0.7,0","3",""
"","html-keyboard-response","124","58078","0.0-184.0","","","","","null","<img src=""img/food5.png"" style=""width:200px; border:14px solid green;"">","null","","","","","","","","","",""
"","image-keyboard-response","125","58384","0.0-186.0","","","","","304.80000001192093","img/food4.png","75","305.60000002384186","2","1","false","2","2","1,0.7,0,1,0.7,0,0.7,0,1","0,1,0.7,0,1,0.7,1,0.7,0","3",""
"","html-keyboard-response","126","58687","0.0-187.0","","","","","null","<img src=""img/food4.png"" style=""width:200px; border:14px solid green;"">","null","","","","","","","","","",""
"","image-keyboard-response","127","58944","0.0-189.0","","","","","256.39999997615814","img/food1.png","75","257.30000001192093","2","1","false","3","2","1,0.7,0,1,0.7,0,0.7,0,1","0,1,0.7,0,1,0.7,1,0.7,0","3",""
"","html-keyboard-response","128","59247","0.0-190.0","","","","","null","<img src=""img/food1.png"" style=""width:200px; border:14px solid green;"">","null","","","","","","","","","",""
"","image-keyboard-response","129","59441","0.0-192.0","","","","","192.0999999642372","img/food5.png","74","193.10000002384186","1","0","false","1","2","1,0.7,0,1,0.7,0,0.7,0,1","0,1,0.7,0,1,0.7,1,0.7,0","3",""
"","html-keyboard-response","130","59744","0.0-193.0","","","","","null","<img src=""img/food5.png"" style=""width:200px;border:14px solid red;"">","null","","","","","","","","","",""
"","image-keyboard-response","131","59921","0.0-195.0","","","","","175","img/food4.png","75","176.4000000357628","2","1","false","2","2","1,0.7,0,1,0.7,0,0.7,0,1","0,1,0.7,0,1,0.7,1,0.7,0","3",""
"","html-keyboard-response","132","60224","0.0-196.0","","","","","null","<img src=""img/food4.png"" style=""width:200px; border:14px solid green;"">","null","","","","","","","","","",""
"","image-keyboard-response","133","60560","0.0-198.0","","","","","334.60000002384186","img/food4.png","75","336","2","1","false","2","2","1,0.7,0,1,0.7,0,0.7,0,1","0,1,0.7,0,1,0.7,1,0.7,0","3",""
"","html-keyboard-response","134","60863","0.0-199.0","","","","","null","<img src=""img/food4.png"" style=""width:200px; border:14px solid green;"">","null","","","","","","","","","",""
"","image-keyboard-response","135","61296","0.0-201.0","","","","","432.7999999523163","img/food5.png","75","433.69999998807907","2","1","false","1","2","1,0.7,0,1,0.7,0,0.7,0,1","0,1,0.7,0,1,0.7,1,0.7,0","3",""
"","html-keyboard-response","136","61600","0.0-202.0","","","","","null","<img src=""img/food5.png"" style=""width:200px; border:14px solid green;"">","null","","","","","","","","","",""
"","image-keyboard-response","137","61872","0.0-204.0","","","","","271.39999997615814","img/food4.png","75","272.30000001192093","2","1","false","2","2","1,0.7,0,1,0.7,0,0.7,0,1","0,1,0.7,0,1,0.7,1,0.7,0","3",""
"","html-keyboard-response","138","62175","0.0-205.0","","","","","null","<img src=""img/food4.png"" style=""width:200px; border:14px solid green;"">","null","","","","","","","","","",""
"","image-keyboard-response","139","62496","0.0-207.0","","","","","319.80000001192093","img/food5.png","75","320.7000000476837","2","1","false","1","2","1,0.7,0,1,0.7,0,0.7,0,1","0,1,0.7,0,1,0.7,1,0.7,0","3",""
"","html-keyboard-response","140","62799","0.0-208.0","","","","","null","<img src=""img/food5.png"" style=""width:200px; border:14px solid green;"">","null","","","","","","","","","",""
"","image-keyboard-response","141","63058","0.0-210.0","","","","","257.5","img/food5.png","75","258.4000000357628","2","1","false","1","2","1,0.7,0,1,0.7,0,0.7,0,1","0,1,0.7,0,1,0.7,1,0.7,0","3",""
"","html-keyboard-response","142","63360","0.0-211.0","","","","","null","<img src=""img/food5.png"" style=""width:200px; border:14px solid green;"">","null","","","","","","","","","",""
"","image-keyboard-response","143","63633","0.0-213.0","","","","","271","img/food4.png","75","271.9000000357628","2","1","false","2","2","1,0.7,0,1,0.7,0,0.7,0,1","0,1,0.7,0,1,0.7,1,0.7,0","3",""
"","html-keyboard-response","144","63935","0.0-214.0","","","","","null","<img src=""img/food4.png"" style=""width:200px; border:14px solid green;"">","null","","","","","","","","","",""
"","image-keyboard-response","145","64192","0.0-216.0","","","","","256","img/food1.png","75","256.89999997615814","2","1","false","3","2","1,0.7,0,1,0.7,0,0.7,0,1","0,1,0.7,0,1,0.7,1,0.7,0","3",""
"","html-keyboard-response","146","64495","0.0-217.0","","","","","null","<img src=""img/food1.png"" style=""width:200px; border:14px solid green;"">","null","","","","","","","","","",""
"","image-keyboard-response","147","64832","0.0-219.0","","","","","336.5","img/food5.png","75","337.30000001192093","2","1","false","1","2","1,0.7,0,1,0.7,0,0.7,0,1","0,1,0.7,0,1,0.7,1,0.7,0","3",""
"","html-keyboard-response","148","65135","0.0-220.0","","","","","null","<img src=""img/food5.png"" style=""width:200px; border:14px solid green;"">","null","","","","","","","","","",""
"","image-keyboard-response","149","65425","0.0-222.0","","","","","288.2000000476837","img/food4.png","75","289.30000001192093","2","1","false","2","2","1,0.7,0,1,0.7,0,0.7,0,1","0,1,0.7,0,1,0.7,1,0.7,0","3",""
"","html-keyboard-response","150","65728","0.0-223.0","","","","","null","<img src=""img/food4.png"" style=""width:200px; border:14px solid green;"">","null","","","","","","","","","",""
"","image-keyboard-response","151","66016","0.0-225.0","","","","","287.60000002384186","img/food5.png","75","288.60000002384186","2","1","false","1","2","1,0.7,0,1,0.7,0,0.7,0,1","0,1,0.7,0,1,0.7,1,0.7,0","3",""
"","html-keyboard-response","152","66319","0.0-226.0","","","","","null","<img src=""img/food5.png"" style=""width:200px; border:14px solid green;"">","null","","","","","","","","","",""
"","image-keyboard-response","153","66592","0.0-228.0","","","","","272.19999998807907","img/food5.png","75","273.0999999642372","2","1","false","1","2","1,0.7,0,1,0.7,0,0.7,0,1","0,1,0.7,0,1,0.7,1,0.7,0","3",""
"","html-keyboard-response","154","66895","0.0-229.0","","","","","null","<img src=""img/food5.png"" style=""width:200px; border:14px solid green;"">","null","","","","","","","","","",""
"","image-keyboard-response","155","67168","0.0-231.0","","","","","272","img/food1.png","75","272.89999997615814","2","1","false","3","2","1,0.7,0,1,0.7,0,0.7,0,1","0,1,0.7,0,1,0.7,1,0.7,0","3",""
"","html-keyboard-response","156","67470","0.0-232.0","","","","","null","<img src=""img/food1.png"" style=""width:200px; border:14px solid green;"">","null","","","","","","","","","",""
"","image-keyboard-response","157","67808","0.0-234.0","","","","","336.80000001192093","img/food5.png","75","337.9000000357628","2","1","false","1","2","1,0.7,0,1,0.7,0,0.7,0,1","0,1,0.7,0,1,0.7,1,0.7,0","3",""
"","html-keyboard-response","158","68115","0.0-235.0","","","","","null","<img src=""img/food5.png"" style=""width:200px; border:14px solid green;"">","null","","","","","","","","","",""
"","image-keyboard-response","159","68352","0.0-237.0","","","","","236.29999995231628","img/food1.png","75","237.0999999642372","2","1","false","3","2","1,0.7,0,1,0.7,0,0.7,0,1","0,1,0.7,0,1,0.7,1,0.7,0","3",""
"","html-keyboard-response","160","68655","0.0-238.0","","","","","null","<img src=""img/food1.png"" style=""width:200px; border:14px solid green;"">","null","","","","","","","","","",""
"","image-keyboard-response","161","68912","0.0-240.0","","","","","256.5","img/food1.png","75","257.5","2","1","false","3","2","1,0.7,0,1,0.7,0,0.7,0,1","0,1,0.7,0,1,0.7,1,0.7,0","3",""
"","html-keyboard-response","162","69215","0.0-241.0","","","","","null","<img src=""img/food1.png"" style=""width:200px; border:14px solid green;"">","null","","","","","","","","","",""
"","image-keyboard-response","163","69456","0.0-243.0","","","","","240","img/food1.png","75","240.80000001192093","2","1","false","3","2","1,0.7,0,1,0.7,0,0.7,0,1","0,1,0.7,0,1,0.7,1,0.7,0","3",""
"","html-keyboard-response","164","69759","0.0-244.0","","","","","null","<img src=""img/food1.png"" style=""width:200px; border:14px solid green;"">","null","","","","","","","","","",""
"","image-keyboard-response","165","70032","0.0-246.0","","","","","272.5999999642372","img/food1.png","75","273.39999997615814","2","0","false","3","2","1,0.7,0,1,0.7,0,0.7,0,1","0,1,0.7,0,1,0.7,1,0.7,0","3",""
"","html-keyboard-response","166","70335","0.0-247.0","","","","","null","<img src=""img/food1.png"" style=""width:200px;border:14px solid red;"">","null","","","","","","","","","",""
"","image-keyboard-response","167","70737","0.0-249.0","","","","","400.4000000357628","img/food1.png","75","401.5","2","0","false","3","2","1,0.7,0,1,0.7,0,0.7,0,1","0,1,0.7,0,1,0.7,1,0.7,0","3",""
"","html-keyboard-response","168","71040","0.0-250.0","","","","","null","<img src=""img/food1.png"" style=""width:200px;border:14px solid red;"">","null","","","","","","","","","",""
"","image-keyboard-response","169","71216","0.0-252.0","","","","","175.69999998807907","img/food5.png","74","176.69999998807907","1","0","false","1","2","1,0.7,0,1,0.7,0,0.7,0,1","0,1,0.7,0,1,0.7,1,0.7,0","3",""
"","html-keyboard-response","170","71519","0.0-253.0","","","","","null","<img src=""img/food5.png"" style=""width:200px;border:14px solid red;"">","null","","","","","","","","","",""
"","image-keyboard-response","171","71680","0.0-255.0","","","","","160.10000002384186","img/food5.png","75","161","2","1","false","1","2","1,0.7,0,1,0.7,0,0.7,0,1","0,1,0.7,0,1,0.7,1,0.7,0","3",""
"","html-keyboard-response","172","71983","0.0-256.0","","","","","null","<img src=""img/food5.png"" style=""width:200px; border:14px solid green;"">","null","","","","","","","","","",""
"","image-keyboard-response","173","72368","0.0-258.0","","","","","384.5","img/food5.png","75","385.30000001192093","2","1","false","1","2","1,0.7,0,1,0.7,0,0.7,0,1","0,1,0.7,0,1,0.7,1,0.7,0","3",""
"","html-keyboard-response","174","72671","0.0-259.0","","","","","null","<img src=""img/food5.png"" style=""width:200px; border:14px solid green;"">","null","","","","","","","","","",""
"","image-keyboard-response","175","72913","0.0-261.0","","","","","241.19999998807907","img/food5.png","75","242.19999998807907","2","1","false","1","2","1,0.7,0,1,0.7,0,0.7,0,1","0,1,0.7,0,1,0.7,1,0.7,0","3",""
"","html-keyboard-response","176","73216","0.0-262.0","","","","","null","<img src=""img/food5.png"" style=""width:200px; border:14px solid green;"">","null","","","","","","","","","",""
"","image-keyboard-response","177","73505","0.0-264.0","","","","","287.19999998807907","img/food5.png","75","288","2","1","false","1","2","1,0.7,0,1,0.7,0,0.7,0,1","0,1,0.7,0,1,0.7,1,0.7,0","3",""
"","html-keyboard-response","178","73806","0.0-265.0","","","","","null","<img src=""img/food5.png"" style=""width:200px; border:14px solid green;"">","null","","","","","","","","","",""
"","image-keyboard-response","179","74065","0.0-267.0","","","","","257.39999997615814","img/food4.png","75","258.7000000476837","2","1","false","2","2","1,0.7,0,1,0.7,0,0.7,0,1","0,1,0.7,0,1,0.7,1,0.7,0","3",""
"","html-keyboard-response","180","74368","0.0-268.0","","","","","null","<img src=""img/food4.png"" style=""width:200px; border:14px solid green;"">","null","","","","","","","","","",""
"","image-keyboard-response","181","74641","0.0-270.0","","","","","271.19999998807907","img/food1.png","75","272.30000001192093","2","0","false","3","2","1,0.7,0,1,0.7,0,0.7,0,1","0,1,0.7,0,1,0.7,1,0.7,0","3",""
"","html-keyboard-response","182","74943","0.0-271.0","","","","","null","<img src=""img/food1.png"" style=""width:200px;border:14px solid red;"">","null","","","","","","","","","",""
"","instructions","183","81415","0.0-273.0","","","","[{""page_index"":0,""viewing_time"":5002.599999964237},{""page_index"":1,""viewing_time"":1467.800000011921}]","6470.699999988079","","","","","","","","","","","",""
"","image-keyboard-response","184","82097","0.0-274.0","","","","","681.2000000476837","img/food2.png","75","682.5","2","1","","3","1","1,0.7,0,1,0.7,0,0.7,0,1","0.7,0,1,0.7,0,1,0,1,0.7","2",""
"","html-keyboard-response","185","82407","0.0-275.0","","","","","null","<img src=""img/food2.png"" style=""width:200px; border:14px solid green;"">","null","","","","","","","","","",""
"","image-keyboard-response","186","82688","0.0-276.0","","","","","280.5","img/food3.png","75","281.30000001192093","2","0","","1","1","1,0.7,0,1,0.7,0,0.7,0,1","0.7,0,1,0.7,0,1,0,1,0.7","2",""
"","html-keyboard-response","187","82991","0.0-277.0","","","","","null","<img src=""img/food3.png"" style=""width:200px;border:14px solid red;"">","null","","","","","","","","","",""
"","image-keyboard-response","188","83456","0.0-278.0","","","","","463.89999997615814","img/food6.png","75","464.9000000357628","2","0","","2","1","1,0.7,0,1,0.7,0,0.7,0,1","0.7,0,1,0.7,0,1,0,1,0.7","2",""
"","html-keyboard-response","189","83759","0.0-279.0","","","","","null","<img src=""img/food6.png"" style=""width:200px;border:14px solid red;"">","null","","","","","","","","","",""
"","image-keyboard-response","190","84097","0.0-280.0","","","","","336.9000000357628","img/food2.png","74","337.89999997615814","1","0","","3","1","1,0.7,0,1,0.7,0,0.7,0,1","0.7,0,1,0.7,0,1,0,1,0.7","2",""
"","html-keyboard-response","191","84399","0.0-281.0","","","","","null","<img src=""img/food2.png"" style=""width:200px;border:14px solid red;"">","null","","","","","","","","","",""
"","image-keyboard-response","192","84736","0.0-282.0","","","","","336.0999999642372","img/food3.png","76","337.0999999642372","3","1","","1","1","1,0.7,0,1,0.7,0,0.7,0,1","0.7,0,1,0.7,0,1,0,1,0.7","2",""
"","html-keyboard-response","193","85039","0.0-283.0","","","","","null","<img src=""img/food3.png"" style=""width:200px; border:14px solid green;"">","null","","","","","","","","","",""
"","image-keyboard-response","194","85312","0.0-284.0","","","","","272.60000002384186","img/food3.png","76","273.5","3","1","","1","1","1,0.7,0,1,0.7,0,0.7,0,1","0.7,0,1,0.7,0,1,0,1,0.7","2",""
"","html-keyboard-response","195","85615","0.0-285.0","","","","","null","<img src=""img/food3.png"" style=""width:200px; border:14px solid green;"">","null","","","","","","","","","",""
"","image-keyboard-response","196","85856","0.0-286.0","","","","","240.69999998807907","img/food6.png","76","241.69999998807907","3","1","","2","1","1,0.7,0,1,0.7,0,0.7,0,1","0.7,0,1,0.7,0,1,0,1,0.7","2",""
"","html-keyboard-response","197","86159","0.0-287.0","","","","","null","<img src=""img/food6.png"" style=""width:200px; border:14px solid green;"">","null","","","","","","","","","",""
"","image-keyboard-response","198","86385","0.0-288.0","","","","","224.30000001192093","img/food3.png","76","226.60000002384186","3","1","","1","1","1,0.7,0,1,0.7,0,0.7,0,1","0.7,0,1,0.7,0,1,0,1,0.7","2",""
"","html-keyboard-response","199","86694","0.0-289.0","","","","","null","<img src=""img/food3.png"" style=""width:200px; border:14px solid green;"">","null","","","","","","","","","",""
"","image-keyboard-response","200","86960","0.0-290.0","","","","","265.5","img/food3.png","76","266.5","3","1","","1","1","1,0.7,0,1,0.7,0,0.7,0,1","0.7,0,1,0.7,0,1,0,1,0.7","2",""
"","html-keyboard-response","201","87263","0.0-291.0","","","","","null","<img src=""img/food3.png"" style=""width:200px; border:14px solid green;"">","null","","","","","","","","","",""
"","image-keyboard-response","202","87521","0.0-292.0","","","","","256","img/food3.png","76","257.69999998807907","3","1","","1","1","1,0.7,0,1,0.7,0,0.7,0,1","0.7,0,1,0.7,0,1,0,1,0.7","2",""
"","html-keyboard-response","203","87823","0.0-293.0","","","","","null","<img src=""img/food3.png"" style=""width:200px; border:14px solid green;"">","null","","","","","","","","","",""
"","image-keyboard-response","204","88192","0.0-294.0","","","","","368.19999998807907","img/food6.png","76","369.19999998807907","3","1","","2","1","1,0.7,0,1,0.7,0,0.7,0,1","0.7,0,1,0.7,0,1,0,1,0.7","2",""
"","html-keyboard-response","205","88495","0.0-295.0","","","","","null","<img src=""img/food6.png"" style=""width:200px; border:14px solid green;"">","null","","","","","","","","","",""
"","image-keyboard-response","206","88721","0.0-296.0","","","","","224.19999998807907","img/food3.png","76","226.0999999642372","3","1","","1","1","1,0.7,0,1,0.7,0,0.7,0,1","0.7,0,1,0.7,0,1,0,1,0.7","2",""
"","html-keyboard-response","207","89025","0.0-297.0","","","","","null","<img src=""img/food3.png"" style=""width:200px; border:14px solid green;"">","null","","","","","","","","","",""
"","image-keyboard-response","208","89313","0.0-298.0","","","","","286","img/food3.png","76","288","3","1","","1","1","1,0.7,0,1,0.7,0,0.7,0,1","0.7,0,1,0.7,0,1,0,1,0.7","2",""
"","html-keyboard-response","209","89617","0.0-299.0","","","","","null","<img src=""img/food3.png"" style=""width:200px; border:14px solid green;"">","null","","","","","","","","","",""
"","image-keyboard-response","210","89873","0.0-300.0","","","","","254.80000001192093","img/food6.png","76","255.9000000357628","3","1","","2","1","1,0.7,0,1,0.7,0,0.7,0,1","0.7,0,1,0.7,0,1,0,1,0.7","2",""
"","html-keyboard-response","211","90176","0.0-301.0","","","","","null","<img src=""img/food6.png"" style=""width:200px; border:14px solid green;"">","null","","","","","","","","","",""
"","image-keyboard-response","212","90480","0.0-302.0","","","","","303.5","img/food6.png","76","304.39999997615814","3","1","","2","1","1,0.7,0,1,0.7,0,0.7,0,1","0.7,0,1,0.7,0,1,0,1,0.7","2",""
"","html-keyboard-response","213","90782","0.0-303.0","","","","","null","<img src=""img/food6.png"" style=""width:200px; border:14px solid green;"">","null","","","","","","","","","",""
"","image-keyboard-response","214","91040","0.0-304.0","","","","","256.7000000476837","img/food3.png","76","257.69999998807907","3","1","","1","1","1,0.7,0,1,0.7,0,0.7,0,1","0.7,0,1,0.7,0,1,0,1,0.7","2",""
"","html-keyboard-response","215","91343","0.0-305.0","","","","","null","<img src=""img/food3.png"" style=""width:200px; border:14px solid green;"">","null","","","","","","","","","",""
"","image-keyboard-response","216","91616","0.0-306.0","","","","","272.69999998807907","img/food6.png","76","273.69999998807907","3","1","","2","1","1,0.7,0,1,0.7,0,0.7,0,1","0.7,0,1,0.7,0,1,0,1,0.7","2",""
"","html-keyboard-response","217","91919","0.0-307.0","","","","","null","<img src=""img/food6.png"" style=""width:200px; border:14px solid green;"">","null","","","","","","","","","",""
"","image-keyboard-response","218","92208","0.0-308.0","","","","","288.19999998807907","img/food3.png","76","289","3","1","","1","1","1,0.7,0,1,0.7,0,0.7,0,1","0.7,0,1,0.7,0,1,0,1,0.7","2",""
"","html-keyboard-response","219","92511","0.0-309.0","","","","","null","<img src=""img/food3.png"" style=""width:200px; border:14px solid green;"">","null","","","","","","","","","",""
"","image-keyboard-response","220","92753","0.0-310.0","","","","","241.4000000357628","img/food2.png","76","242.29999995231628","3","0","","3","1","1,0.7,0,1,0.7,0,0.7,0,1","0.7,0,1,0.7,0,1,0,1,0.7","2",""
"","html-keyboard-response","221","93056","0.0-311.0","","","","","null","<img src=""img/food2.png"" style=""width:200px;border:14px solid red;"">","null","","","","","","","","","",""
"","image-keyboard-response","222","93472","0.0-312.0","","","","","415.69999998807907","img/food3.png","76","416.39999997615814","3","1","","1","1","1,0.7,0,1,0.7,0,0.7,0,1","0.7,0,1,0.7,0,1,0,1,0.7","2",""
"","html-keyboard-response","223","93775","0.0-313.0","","","","","null","<img src=""img/food3.png"" style=""width:200px; border:14px solid green;"">","null","","","","","","","","","",""
"","image-keyboard-response","224","94017","0.0-314.0","","","","","240.30000001192093","img/food6.png","76","241.39999997615814","3","1","","2","1","1,0.7,0,1,0.7,0,0.7,0,1","0.7,0,1,0.7,0,1,0,1,0.7","2",""
"","html-keyboard-response","225","94319","0.0-315.0","","","","","null","<img src=""img/food6.png"" style=""width:200px; border:14px solid green;"">","null","","","","","","","","","",""
"","image-keyboard-response","226","94577","0.0-316.0","","","","","256.39999997615814","img/food3.png","76","257.19999998807907","3","1","","1","1","1,0.7,0,1,0.7,0,0.7,0,1","0.7,0,1,0.7,0,1,0,1,0.7","2",""
"","html-keyboard-response","227","94878","0.0-317.0","","","","","null","<img src=""img/food3.png"" style=""width:200px; border:14px solid green;"">","null","","","","","","","","","",""
"","image-keyboard-response","228","95152","0.0-318.0","","","","","272.7999999523163","img/food3.png","76","274.19999998807907","3","1","","1","1","1,0.7,0,1,0.7,0,0.7,0,1","0.7,0,1,0.7,0,1,0,1,0.7","2",""
"","html-keyboard-response","229","95455","0.0-319.0","","","","","null","<img src=""img/food3.png"" style=""width:200px; border:14px solid green;"">","null","","","","","","","","","",""
"","image-keyboard-response","230","95810","0.0-320.0","","","","","353.19999998807907","img/food2.png","76","354.39999997615814","3","1","","3","1","1,0.7,0,1,0.7,0,0.7,0,1","0.7,0,1,0.7,0,1,0,1,0.7","2",""
"","html-keyboard-response","231","96112","0.0-321.0","","","","","null","<img src=""img/food2.png"" style=""width:200px; border:14px solid green;"">","null","","","","","","","","","",""
"","image-keyboard-response","232","96561","0.0-322.0","","","","","447.30000001192093","img/food3.png","76","448.89999997615814","3","1","","1","1","1,0.7,0,1,0.7,0,0.7,0,1","0.7,0,1,0.7,0,1,0,1,0.7","2",""
"","html-keyboard-response","233","96865","0.0-323.0","","","","","null","<img src=""img/food3.png"" style=""width:200px; border:14px solid green;"">","null","","","","","","","","","",""
"","image-keyboard-response","234","97104","0.0-324.0","","","","","238.5","img/food2.png","76","239.19999998807907","3","0","","3","1","1,0.7,0,1,0.7,0,0.7,0,1","0.7,0,1,0.7,0,1,0,1,0.7","2",""
"","html-keyboard-response","235","97407","0.0-325.0","","","","","null","<img src=""img/food2.png"" style=""width:200px;border:14px solid red;"">","null","","","","","","","","","",""
"","image-keyboard-response","236","97856","0.0-326.0","","","","","448","img/food2.png","75","449","2","1","","3","1","1,0.7,0,1,0.7,0,0.7,0,1","0.7,0,1,0.7,0,1,0,1,0.7","2",""
"","html-keyboard-response","237","98172","0.0-327.0","","","","","null","<img src=""img/food2.png"" style=""width:200px; border:14px solid green;"">","null","","","","","","","","","",""
"","image-keyboard-response","238","98432","0.0-328.0","","","","","259.5","img/food2.png","76","260.5999999642372","3","1","","3","1","1,0.7,0,1,0.7,0,0.7,0,1","0.7,0,1,0.7,0,1,0,1,0.7","2",""
"","html-keyboard-response","239","98735","0.0-329.0","","","","","null","<img src=""img/food2.png"" style=""width:200px; border:14px solid green;"">","null","","","","","","","","","",""
"","image-keyboard-response","240","99169","0.0-330.0","","","","","432.2000000476837","img/food6.png","76","433.0999999642372","3","1","","2","1","1,0.7,0,1,0.7,0,0.7,0,1","0.7,0,1,0.7,0,1,0,1,0.7","2",""
"","html-keyboard-response","241","99470","0.0-331.0","","","","","null","<img src=""img/food6.png"" style=""width:200px; border:14px solid green;"">","null","","","","","","","","","",""
"","image-keyboard-response","242","99808","0.0-332.0","","","","","337","img/food3.png","76","337.80000001192093","3","1","","1","1","1,0.7,0,1,0.7,0,0.7,0,1","0.7,0,1,0.7,0,1,0,1,0.7","2",""
"","html-keyboard-response","243","100110","0.0-333.0","","","","","null","<img src=""img/food3.png"" style=""width:200px; border:14px solid green;"">","null","","","","","","","","","",""
"","image-keyboard-response","244","100369","0.0-334.0","","","","","257.39999997615814","img/food3.png","76","259","3","1","","1","1","1,0.7,0,1,0.7,0,0.7,0,1","0.7,0,1,0.7,0,1,0,1,0.7","2",""
"","html-keyboard-response","245","100672","0.0-335.0","","","","","null","<img src=""img/food3.png"" style=""width:200px; border:14px solid green;"">","null","","","","","","","","","",""
"","image-keyboard-response","246","101121","0.0-336.0","","","","","446.9000000357628","img/food6.png","76","448.60000002384186","3","1","","2","1","1,0.7,0,1,0.7,0,0.7,0,1","0.7,0,1,0.7,0,1,0,1,0.7","2",""
"","html-keyboard-response","247","101424","0.0-337.0","","","","","null","<img src=""img/food6.png"" style=""width:200px; border:14px solid green;"">","null","","","","","","","","","",""
"","image-keyboard-response","248","101649","0.0-338.0","","","","","224.5","img/food3.png","76","225.70000004768372","3","1","","1","1","1,0.7,0,1,0.7,0,0.7,0,1","0.7,0,1,0.7,0,1,0,1,0.7","2",""
"","html-keyboard-response","249","101953","0.0-339.0","","","","","null","<img src=""img/food3.png"" style=""width:200px; border:14px solid green;"">","null","","","","","","","","","",""
"","image-keyboard-response","250","102240","0.0-340.0","","","","","286.80000001192093","img/food3.png","76","287.80000001192093","3","1","","1","1","1,0.7,0,1,0.7,0,0.7,0,1","0.7,0,1,0.7,0,1,0,1,0.7","2",""
"","html-keyboard-response","251","102543","0.0-341.0","","","","","null","<img src=""img/food3.png"" style=""width:200px; border:14px solid green;"">","null","","","","","","","","","",""
"","image-keyboard-response","252","102976","0.0-342.0","","","","","432.89999997615814","img/food6.png","76","433.69999998807907","3","1","","2","1","1,0.7,0,1,0.7,0,0.7,0,1","0.7,0,1,0.7,0,1,0,1,0.7","2",""
"","html-keyboard-response","253","103280","0.0-343.0","","","","","null","<img src=""img/food6.png"" style=""width:200px; border:14px solid green;"">","null","","","","","","","","","",""
"","image-keyboard-response","254","103552","0.0-344.0","","","","","271.5999999642372","img/food3.png","76","272.39999997615814","3","1","","1","1","1,0.7,0,1,0.7,0,0.7,0,1","0.7,0,1,0.7,0,1,0,1,0.7","2",""
"","html-keyboard-response","255","103855","0.0-345.0","","","","","null","<img src=""img/food3.png"" style=""width:200px; border:14px solid green;"">","null","","","","","","","","","",""
"","image-keyboard-response","256","104160","0.0-346.0","","","","","304.4000000357628","img/food3.png","76","305.30000001192093","3","1","","1","1","1,0.7,0,1,0.7,0,0.7,0,1","0.7,0,1,0.7,0,1,0,1,0.7","2",""
"","html-keyboard-response","257","104463","0.0-347.0","","","","","null","<img src=""img/food3.png"" style=""width:200px; border:14px solid green;"">","null","","","","","","","","","",""
"","image-keyboard-response","258","104801","0.0-348.0","","","","","336.39999997615814","img/food3.png","76","337.39999997615814","3","1","","1","1","1,0.7,0,1,0.7,0,0.7,0,1","0.7,0,1,0.7,0,1,0,1,0.7","2",""
"","html-keyboard-response","259","105104","0.0-349.0","","","","","null","<img src=""img/food3.png"" style=""width:200px; border:14px solid green;"">","null","","","","","","","","","",""
"","image-keyboard-response","260","105632","0.0-350.0","","","","","527.3000000119209","img/food2.png","75","528.3000000119209","2","1","","3","1","1,0.7,0,1,0.7,0,0.7,0,1","0.7,0,1,0.7,0,1,0,1,0.7","2",""
"","html-keyboard-response","261","105934","0.0-351.0","","","","","null","<img src=""img/food2.png"" style=""width:200px; border:14px solid green;"">","null","","","","","","","","","",""
"","image-keyboard-response","262","106208","0.0-352.0","","","","","272.89999997615814","img/food3.png","76","273.69999998807907","3","1","","1","1","1,0.7,0,1,0.7,0,0.7,0,1","0.7,0,1,0.7,0,1,0,1,0.7","2",""
"","html-keyboard-response","263","106511","0.0-353.0","","","","","null","<img src=""img/food3.png"" style=""width:200px; border:14px solid green;"">","null","","","","","","","","","",""
"","image-keyboard-response","264","107056","0.0-354.0","","","","","544.4000000357628","img/food2.png","75","545.3999999761581","2","1","","3","1","1,0.7,0,1,0.7,0,0.7,0,1","0.7,0,1,0.7,0,1,0,1,0.7","2",""
"","html-keyboard-response","265","107359","0.0-355.0","","","","","null","<img src=""img/food2.png"" style=""width:200px; border:14px solid green;"">","null","","","","","","","","","",""
"","image-keyboard-response","266","107616","0.0-356.0","","","","","256.69999998807907","img/food6.png","76","257.5999999642372","3","1","","2","1","1,0.7,0,1,0.7,0,0.7,0,1","0.7,0,1,0.7,0,1,0,1,0.7","2",""
"","html-keyboard-response","267","107919","0.0-357.0","","","","","null","<img src=""img/food6.png"" style=""width:200px; border:14px solid green;"">","null","","","","","","","","","",""
"","image-keyboard-response","268","108224","0.0-358.0","","","","","304.10000002384186","img/food3.png","76","305","3","1","","1","1","1,0.7,0,1,0.7,0,0.7,0,1","0.7,0,1,0.7,0,1,0,1,0.7","2",""
"","html-keyboard-response","269","108526","0.0-359.0","","","","","null","<img src=""img/food3.png"" style=""width:200px; border:14px solid green;"">","null","","","","","","","","","",""
"","image-keyboard-response","270","108849","0.0-360.0","","","","","320.80000001192093","img/food3.png","76","322.2999999523163","3","1","","1","1","1,0.7,0,1,0.7,0,0.7,0,1","0.7,0,1,0.7,0,1,0,1,0.7","2",""
"","html-keyboard-response","271","109151","0.0-361.0","","","","","null","<img src=""img/food3.png"" style=""width:200px; border:14px solid green;"">","null","","","","","","","","","",""
"","image-keyboard-response","272","109648","0.0-362.0","","","","","496.30000001192093","img/food2.png","75","497.30000001192093","2","1","","3","1","1,0.7,0,1,0.7,0,0.7,0,1","0.7,0,1,0.7,0,1,0,1,0.7","2",""
"","html-keyboard-response","273","109952","0.0-363.0","","","","","null","<img src=""img/food2.png"" style=""width:200px; border:14px solid green;"">","null","","","","","","","","","",""
"","image-keyboard-response","274","110192","0.0-364.0","","","","","239.5","img/food2.png","76","240.5","3","1","","3","1","1,0.7,0,1,0.7,0,0.7,0,1","0.7,0,1,0.7,0,1,0,1,0.7","2",""
"","html-keyboard-response","275","110495","0.0-365.0","","","","","null","<img src=""img/food2.png"" style=""width:200px; border:14px solid green;"">","null","","","","","","","","","",""
"","image-keyboard-response","276","110944","0.0-366.0","","","","","448","img/food6.png","76","448.9000000357628","3","1","","2","1","1,0.7,0,1,0.7,0,0.7,0,1","0.7,0,1,0.7,0,1,0,1,0.7","2",""
"","html-keyboard-response","277","111247","0.0-367.0","","","","","null","<img src=""img/food6.png"" style=""width:200px; border:14px solid green;"">","null","","","","","","","","","",""
"","image-keyboard-response","278","111568","0.0-368.0","","","","","320.2999999523163","img/food6.png","76","321.0999999642372","3","1","","2","1","1,0.7,0,1,0.7,0,0.7,0,1","0.7,0,1,0.7,0,1,0,1,0.7","2",""
"","html-keyboard-response","279","111871","0.0-369.0","","","","","null","<img src=""img/food6.png"" style=""width:200px; border:14px solid green;"">","null","","","","","","","","","",""
"","image-keyboard-response","280","112448","0.0-370.0","","","","","576.6999999880791","img/food2.png","75","577.6999999880791","2","1","","3","1","1,0.7,0,1,0.7,0,0.7,0,1","0.7,0,1,0.7,0,1,0,1,0.7","2",""
"","html-keyboard-response","281","112751","0.0-371.0","","","","","null","<img src=""img/food2.png"" style=""width:200px; border:14px solid green;"">","null","","","","","","","","","",""
"","image-keyboard-response","282","113104","0.0-372.0","","","","","352.4000000357628","img/food6.png","76","353.5","3","1","","2","1","1,0.7,0,1,0.7,0,0.7,0,1","0.7,0,1,0.7,0,1,0,1,0.7","2",""
"","html-keyboard-response","283","113414","0.0-373.0","","","","","null","<img src=""img/food6.png"" style=""width:200px; border:14px solid green;"">","null","","","","","","","","","",""
"","image-keyboard-response","284","113680","0.0-374.0","","","","","264.89999997615814","img/food6.png","76","265.80000001192093","3","1","","2","1","1,0.7,0,1,0.7,0,0.7,0,1","0.7,0,1,0.7,0,1,0,1,0.7","2",""
"","html-keyboard-response","285","113983","0.0-375.0","","","","","null","<img src=""img/food6.png"" style=""width:200px; border:14px solid green;"">","null","","","","","","","","","",""
"","image-keyboard-response","286","114288","0.0-376.0","","","","","304.39999997615814","img/food6.png","76","305.4000000357628","3","1","","2","1","1,0.7,0,1,0.7,0,0.7,0,1","0.7,0,1,0.7,0,1,0,1,0.7","2",""
"","html-keyboard-response","287","114590","0.0-377.0","","","","","null","<img src=""img/food6.png"" style=""width:200px; border:14px solid green;"">","null","","","","","","","","","",""
"","image-keyboard-response","288","115185","0.0-378.0","","","","","592.6999999880791","img/food2.png","75","594","2","1","","3","1","1,0.7,0,1,0.7,0,0.7,0,1","0.7,0,1,0.7,0,1,0,1,0.7","2",""
"","html-keyboard-response","289","115487","0.0-379.0","","","","","null","<img src=""img/food2.png"" style=""width:200px; border:14px solid green;"">","null","","","","","","","","","",""
"","image-keyboard-response","290","115761","0.0-380.0","","","","","273.5","img/food6.png","76","274.5999999642372","3","1","","2","1","1,0.7,0,1,0.7,0,0.7,0,1","0.7,0,1,0.7,0,1,0,1,0.7","2",""
"","html-keyboard-response","291","116065","0.0-381.0","","","","","null","<img src=""img/food6.png"" style=""width:200px; border:14px solid green;"">","null","","","","","","","","","",""
"","image-keyboard-response","292","116528","0.0-382.0","","","","","461.69999998807907","img/food2.png","75","463","2","1","","3","1","1,0.7,0,1,0.7,0,0.7,0,1","0.7,0,1,0.7,0,1,0,1,0.7","2",""
"","html-keyboard-response","293","116845","0.0-383.0","","","","","null","<img src=""img/food2.png"" style=""width:200px; border:14px solid green;"">","null","","","","","","","","","",""
"","image-keyboard-response","294","117376","0.0-384.0","","","","","530.5","img/food2.png","75","531.5","2","1","","3","1","1,0.7,0,1,0.7,0,0.7,0,1","0.7,0,1,0.7,0,1,0,1,0.7","2",""
"","html-keyboard-response","295","117679","0.0-385.0","","","","","null","<img src=""img/food2.png"" style=""width:200px; border:14px solid green;"">","null","","","","","","","","","",""
"","image-keyboard-response","296","118032","0.0-386.0","","","","","352.10000002384186","img/food2.png","75","353","2","1","","3","1","1,0.7,0,1,0.7,0,0.7,0,1","0.7,0,1,0.7,0,1,0,1,0.7","2",""
"","html-keyboard-response","297","118335","0.0-387.0","","","","","null","<img src=""img/food2.png"" style=""width:200px; border:14px solid green;"">","null","","","","","","","","","",""
"","image-keyboard-response","298","118817","0.0-388.0","","","","","480.39999997615814","img/food3.png","76","481.5","3","1","","1","1","1,0.7,0,1,0.7,0,0.7,0,1","0.7,0,1,0.7,0,1,0,1,0.7","2",""
"","html-keyboard-response","299","119130","0.0-389.0","","","","","null","<img src=""img/food3.png"" style=""width:200px; border:14px solid green;"">","null","","","","","","","","","",""
"","image-keyboard-response","300","119361","0.0-390.0","","","","","229.10000002384186","img/food2.png","76","230.19999998807907","3","1","","3","1","1,0.7,0,1,0.7,0,0.7,0,1","0.7,0,1,0.7,0,1,0,1,0.7","2",""
"","html-keyboard-response","301","119664","0.0-391.0","","","","","null","<img src=""img/food2.png"" style=""width:200px; border:14px solid green;"">","null","","","","","","","","","",""
"","image-keyboard-response","302","120241","0.0-392.0","","","","","575.1999999880791","img/food6.png","76","576.3000000119209","3","1","","2","1","1,0.7,0,1,0.7,0,0.7,0,1","0.7,0,1,0.7,0,1,0,1,0.7","2",""
"","html-keyboard-response","303","120543","0.0-393.0","","","","","null","<img src=""img/food6.png"" style=""width:200px; border:14px solid green;"">","null","","","","","","","","","",""
"","image-keyboard-response","304","121089","0.0-394.0","","","","","544.1999999880791","img/food2.png","75","545.1999999880791","2","1","","3","1","1,0.7,0,1,0.7,0,0.7,0,1","0.7,0,1,0.7,0,1,0,1,0.7","2",""
"","html-keyboard-response","305","121392","0.0-395.0","","","","","null","<img src=""img/food2.png"" style=""width:200px; border:14px solid green;"">","null","","","","","","","","","",""
"","image-keyboard-response","306","121681","0.0-396.0","","","","","287.30000001192093","img/food2.png","75","288.60000002384186","2","1","","3","1","1,0.7,0,1,0.7,0,0.7,0,1","0.7,0,1,0.7,0,1,0,1,0.7","2",""
"","html-keyboard-response","307","121983","0.0-397.0","","","","","null","<img src=""img/food2.png"" style=""width:200px; border:14px solid green;"">","null","","","","","","","","","",""
"","image-keyboard-response","308","122401","0.0-398.0","","","","","416.5999999642372","img/food6.png","76","417.5","3","1","","2","1","1,0.7,0,1,0.7,0,0.7,0,1","0.7,0,1,0.7,0,1,0,1,0.7","2",""
"","html-keyboard-response","309","122706","0.0-399.0","","","","","null","<img src=""img/food6.png"" style=""width:200px; border:14px solid green;"">","null","","","","","","","","","",""
"","image-keyboard-response","310","122978","0.0-400.0","","","","","269.30000001192093","img/food6.png","76","271.0999999642372","3","1","","2","1","1,0.7,0,1,0.7,0,0.7,0,1","0.7,0,1,0.7,0,1,0,1,0.7","2",""
"","html-keyboard-response","311","123293","0.0-401.0","","","","","null","<img src=""img/food6.png"" style=""width:200px; border:14px solid green;"">","null","","","","","","","","","",""
"","image-keyboard-response","312","123697","0.0-402.0","","","","","402","img/food3.png","76","403.60000002384186","3","1","","1","1","1,0.7,0,1,0.7,0,0.7,0,1","0.7,0,1,0.7,0,1,0,1,0.7","2",""
"","html-keyboard-response","313","123999","0.0-403.0","","","","","null","<img src=""img/food3.png"" style=""width:200px; border:14px solid green;"">","null","","","","","","","","","",""
"","image-keyboard-response","314","124449","0.0-404.0","","","","","448","img/food6.png","76","449.10000002384186","3","1","","2","1","1,0.7,0,1,0.7,0,0.7,0,1","0.7,0,1,0.7,0,1,0,1,0.7","2",""
"","html-keyboard-response","315","124753","0.0-405.0","","","","","null","<img src=""img/food6.png"" style=""width:200px; border:14px solid green;"">","null","","","","","","","","","",""
"","image-keyboard-response","316","125089","0.0-406.0","","","","","334.5999999642372","img/food6.png","76","335.69999998807907","3","1","","2","1","1,0.7,0,1,0.7,0,0.7,0,1","0.7,0,1,0.7,0,1,0,1,0.7","2",""
"","html-keyboard-response","317","125391","0.0-407.0","","","","","null","<img src=""img/food6.png"" style=""width:200px; border:14px solid green;"">","null","","","","","","","","","",""
"","image-keyboard-response","318","125905","0.0-408.0","","","","","512.6000000238419","img/food2.png","75","513.5","2","1","","3","1","1,0.7,0,1,0.7,0,0.7,0,1","0.7,0,1,0.7,0,1,0,1,0.7","2",""
"","html-keyboard-response","319","126207","0.0-409.0","","","","","null","<img src=""img/food2.png"" style=""width:200px; border:14px solid green;"">","null","","","","","","","","","",""
"","image-keyboard-response","320","126577","0.0-410.0","","","","","368.10000002384186","img/food6.png","76","369","3","1","","2","1","1,0.7,0,1,0.7,0,0.7,0,1","0.7,0,1,0.7,0,1,0,1,0.7","2",""
"","html-keyboard-response","321","126883","0.0-411.0","","","","","null","<img src=""img/food6.png"" style=""width:200px; border:14px solid green;"">","null","","","","","","","","","",""
"","image-keyboard-response","322","127233","0.0-412.0","","","","","348.5","img/food6.png","76","349.60000002384186","3","1","","2","1","1,0.7,0,1,0.7,0,0.7,0,1","0.7,0,1,0.7,0,1,0,1,0.7","2",""
"","html-keyboard-response","323","127535","0.0-413.0","","","","","null","<img src=""img/food6.png"" style=""width:200px; border:14px solid green;"">","null","","","","","","","","","",""
"","image-keyboard-response","324","128001","0.0-414.0","","","","","464.2999999523163","img/food2.png","75","465.30000001192093","2","1","","3","1","1,0.7,0,1,0.7,0,0.7,0,1","0.7,0,1,0.7,0,1,0,1,0.7","2",""
"","html-keyboard-response","325","128304","0.0-415.0","","","","","null","<img src=""img/food2.png"" style=""width:200px; border:14px solid green;"">","null","","","","","","","","","",""
"","image-keyboard-response","326","129041","0.0-416.0","","","","","734.8000000119209","img/food3.png","75","736.3000000119209","2","0","","1","1","1,0.7,0,1,0.7,0,0.7,0,1","0.7,0,1,0.7,0,1,0,1,0.7","2",""
"","html-keyboard-response","327","129344","0.0-417.0","","","","","null","<img src=""img/food3.png"" style=""width:200px;border:14px solid red;"">","null","","","","","","","","","",""
"","image-keyboard-response","328","129680","0.0-418.0","","","","","335.5999999642372","img/food6.png","76","336.60000002384186","3","1","","2","1","1,0.7,0,1,0.7,0,0.7,0,1","0.7,0,1,0.7,0,1,0,1,0.7","2",""
"","html-keyboard-response","329","129983","0.0-419.0","","","","","null","<img src=""img/food6.png"" style=""width:200px; border:14px solid green;"">","null","","","","","","","","","",""
"","image-keyboard-response","330","130625","0.0-420.0","","","","","639.6999999880791","img/food2.png","75","641.3000000119209","2","1","","3","1","1,0.7,0,1,0.7,0,0.7,0,1","0.7,0,1,0.7,0,1,0,1,0.7","2",""
"","html-keyboard-response","331","130939","0.0-421.0","","","","","null","<img src=""img/food2.png"" style=""width:200px; border:14px solid green;"">","null","","","","","","","","","",""
"","image-keyboard-response","332","131377","0.0-422.0","","","","","436.60000002384186","img/food2.png","75","437.5999999642372","2","1","","3","1","1,0.7,0,1,0.7,0,0.7,0,1","0.7,0,1,0.7,0,1,0,1,0.7","2",""
"","html-keyboard-response","333","131679","0.0-423.0","","","","","null","<img src=""img/food2.png"" style=""width:200px; border:14px solid green;"">","null","","","","","","","","","",""
"","image-keyboard-response","334","132033","0.0-424.0","","","","","352.4000000357628","img/food2.png","75","353.30000001192093","2","1","","3","1","1,0.7,0,1,0.7,0,0.7,0,1","0.7,0,1,0.7,0,1,0,1,0.7","2",""
"","html-keyboard-response","335","132336","0.0-425.0","","","","","null","<img src=""img/food2.png"" style=""width:200px; border:14px solid green;"">","null","","","","","","","","","",""
"","image-keyboard-response","336","132720","0.0-426.0","","","","","384","img/food3.png","76","384.80000001192093","3","1","","1","1","1,0.7,0,1,0.7,0,0.7,0,1","0.7,0,1,0.7,0,1,0,1,0.7","2",""
"","html-keyboard-response","337","133023","0.0-427.0","","","","","null","<img src=""img/food3.png"" style=""width:200px; border:14px solid green;"">","null","","","","","","","","","",""
"","image-keyboard-response","338","133297","0.0-428.0","","","","","272.80000001192093","img/food2.png","76","273.80000001192093","3","1","","3","1","1,0.7,0,1,0.7,0,0.7,0,1","0.7,0,1,0.7,0,1,0,1,0.7","2",""
"","html-keyboard-response","339","133599","0.0-429.0","","","","","null","<img src=""img/food2.png"" style=""width:200px; border:14px solid green;"">","null","","","","","","","","","",""
"","image-keyboard-response","340","134112","0.0-430.0","","","","","512","img/food6.png","76","512.8999999761581","3","1","","2","1","1,0.7,0,1,0.7,0,0.7,0,1","0.7,0,1,0.7,0,1,0,1,0.7","2",""
"","html-keyboard-response","341","134415","0.0-431.0","","","","","null","<img src=""img/food6.png"" style=""width:200px; border:14px solid green;"">","null","","","","","","","","","",""
"","image-keyboard-response","342","134929","0.0-432.0","","","","","512.3999999761581","img/food2.png","75","513.3000000119209","2","1","","3","1","1,0.7,0,1,0.7,0,0.7,0,1","0.7,0,1,0.7,0,1,0,1,0.7","2",""
"","html-keyboard-response","343","135231","0.0-433.0","","","","","null","<img src=""img/food2.png"" style=""width:200px; border:14px solid green;"">","null","","","","","","","","","",""
"","image-keyboard-response","344","135601","0.0-434.0","","","","","367.89999997615814","img/food2.png","75","368.80000001192093","2","1","","3","1","1,0.7,0,1,0.7,0,0.7,0,1","0.7,0,1,0.7,0,1,0,1,0.7","2",""
"","html-keyboard-response","345","135904","0.0-435.0","","","","","null","<img src=""img/food2.png"" style=""width:200px; border:14px solid green;"">","null","","","","","","","","","",""
"","image-keyboard-response","346","136273","0.0-436.0","","","","","367","img/food2.png","75","368.69999998807907","2","1","","3","1","1,0.7,0,1,0.7,0,0.7,0,1","0.7,0,1,0.7,0,1,0,1,0.7","2",""
"","html-keyboard-response","347","136575","0.0-437.0","","","","","null","<img src=""img/food2.png"" style=""width:200px; border:14px solid green;"">","null","","","","","","","","","",""
"","image-keyboard-response","348","136946","0.0-438.0","","","","","369.5","img/food6.png","76","370.69999998807907","3","1","","2","1","1,0.7,0,1,0.7,0,0.7,0,1","0.7,0,1,0.7,0,1,0,1,0.7","2",""
"","html-keyboard-response","349","137249","0.0-439.0","","","","","null","<img src=""img/food6.png"" style=""width:200px; border:14px solid green;"">","null","","","","","","","","","",""
"","image-keyboard-response","350","137473","0.0-440.0","","","","","222.10000002384186","img/food2.png","76","223","3","0","","3","1","1,0.7,0,1,0.7,0,0.7,0,1","0.7,0,1,0.7,0,1,0,1,0.7","2",""
"","html-keyboard-response","351","137775","0.0-441.0","","","","","null","<img src=""img/food2.png"" style=""width:200px;border:14px solid red;"">","null","","","","","","","","","",""
"","image-keyboard-response","352","138577","0.0-442.0","","","","","799.4000000357628","img/food3.png","76","801","3","1","","1","1","1,0.7,0,1,0.7,0,0.7,0,1","0.7,0,1,0.7,0,1,0,1,0.7","2",""
"","html-keyboard-response","353","138879","0.0-443.0","","","","","null","<img src=""img/food3.png"" style=""width:200px; border:14px solid green;"">","null","","","","","","","","","",""
"","image-keyboard-response","354","139473","0.0-444.0","","","","","592.6999999880791","img/food6.png","76","593.6000000238419","3","1","","2","1","1,0.7,0,1,0.7,0,0.7,0,1","0.7,0,1,0.7,0,1,0,1,0.7","2",""
"","html-keyboard-response","355","139775","0.0-445.0","","","","","null","<img src=""img/food6.png"" style=""width:200px; border:14px solid green;"">","null","","","","","","","","","",""
"","image-keyboard-response","356","140049","0.0-446.0","","","","","272.89999997615814","img/food3.png","76","273.80000001192093","3","1","","1","1","1,0.7,0,1,0.7,0,0.7,0,1","0.7,0,1,0.7,0,1,0,1,0.7","2",""
"","html-keyboard-response","357","140351","0.0-447.0","","","","","null","<img src=""img/food3.png"" style=""width:200px; border:14px solid green;"">","null","","","","","","","","","",""
"","image-keyboard-response","358","140721","0.0-448.0","","","","","368.39999997615814","img/food6.png","76","369.19999998807907","3","1","","2","1","1,0.7,0,1,0.7,0,0.7,0,1","0.7,0,1,0.7,0,1,0,1,0.7","2",""
"","html-keyboard-response","359","141024","0.0-449.0","","","","","null","<img src=""img/food6.png"" style=""width:200px; border:14px solid green;"">","null","","","","","","","","","",""
"","image-keyboard-response","360","141345","0.0-450.0","","","","","320","img/food6.png","76","320.89999997615814","3","1","","2","1","1,0.7,0,1,0.7,0,0.7,0,1","0.7,0,1,0.7,0,1,0,1,0.7","2",""
"","html-keyboard-response","361","141647","0.0-451.0","","","","","null","<img src=""img/food6.png"" style=""width:200px; border:14px solid green;"">","null","","","","","","","","","",""
"","image-keyboard-response","362","142145","0.0-452.0","","","","","496.2999999523163","img/food2.png","75","497.30000001192093","2","1","","3","1","1,0.7,0,1,0.7,0,0.7,0,1","0.7,0,1,0.7,0,1,0,1,0.7","2",""
"","html-keyboard-response","363","142458","0.0-453.0","","","","","null","<img src=""img/food2.png"" style=""width:200px; border:14px solid green;"">","null","","","","","","","","","",""
"","html-keyboard-response","364","148633","0.0-454.0","","","","","","","","","","","","","","","","",""
"","instructions","365","151707","0.0-455.0","","","","[{""page_index"":0,""viewing_time"":3073.199999988079}]","3073.399999976158","","","","","","","","","","","",""
"","survey-text","366","155140","0.0-456.0","","","","","3428.800000011921","","","","","","","","","","","","{""Q0"":""A3G5OWGKHW6OL5""}"
