"success","trial_type","trial_index","time_elapsed","internal_node_id","assignmentID","mturkID","hitID","view_history","rt","stimulus","key_press","reactionTime","a","r","s","reward_cond","warning","responses"
"true","fullscreen","0","3992","0.0-0.0","32Z9ZLUT1M67S8FQY8DELLKAM9COHP","A3HFZPC8QR1Y54","338431Z1FL1IVIVZ3BK6A6QS21HROA","","","","","","","","","","",""
"","instructions","1","35121","0.0-1.0","32Z9ZLUT1M67S8FQY8DELLKAM9COHP","A3HFZPC8QR1Y54","338431Z1FL1IVIVZ3BK6A6QS21HROA","[{""page_index"":0,""viewing_time"":6548},{""page_index"":1,""viewing_time"":947},{""page_index"":2,""viewing_time"":2199},{""page_index"":3,""viewing_time"":16900},{""page_index"":4,""viewing_time"":1600},{""page_index"":5,""viewing_time"":1816},{""page_index"":6,""viewing_time"":1118}]","31128","","","","","","","","",""
"","image-keyboard-response","2","36743","0.0-2.0","32Z9ZLUT1M67S8FQY8DELLKAM9COHP","A3HFZPC8QR1Y54","338431Z1FL1IVIVZ3BK6A6QS21HROA","","1620","img/food5.png","74","1622","1","1","3","1,0.7,0,1,0.7,0,0.7,0,1","",""
"","html-keyboard-response","3","37047","0.0-3.0","32Z9ZLUT1M67S8FQY8DELLKAM9COHP","A3HFZPC8QR1Y54","338431Z1FL1IVIVZ3BK6A6QS21HROA","","null","<img src=""img/food5.png"" style=""width:200px; border:14px solid green;"">","null","","","","","","",""
"","image-keyboard-response","4","37520","0.0-4.0","32Z9ZLUT1M67S8FQY8DELLKAM9COHP","A3HFZPC8QR1Y54","338431Z1FL1IVIVZ3BK6A6QS21HROA","","471","img/food5.png","74","473","1","1","3","1,0.7,0,1,0.7,0,0.7,0,1","",""
"","html-keyboard-response","5","37824","0.0-5.0","32Z9ZLUT1M67S8FQY8DELLKAM9COHP","A3HFZPC8QR1Y54","338431Z1FL1IVIVZ3BK6A6QS21HROA","","null","<img src=""img/food5.png"" style=""width:200px; border:14px solid green;"">","null","","","","","","",""
"","image-keyboard-response","6","38189","0.0-6.0","32Z9ZLUT1M67S8FQY8DELLKAM9COHP","A3HFZPC8QR1Y54","338431Z1FL1IVIVZ3BK6A6QS21HROA","","363","img/food5.png","74","365","1","1","3","1,0.7,0,1,0.7,0,0.7,0,1","",""
"","html-keyboard-response","7","38492","0.0-7.0","32Z9ZLUT1M67S8FQY8DELLKAM9COHP","A3HFZPC8QR1Y54","338431Z1FL1IVIVZ3BK6A6QS21HROA","","null","<img src=""img/food5.png"" style=""width:200px; border:14px solid green;"">","null","","","","","","",""
"","image-keyboard-response","8","39962","0.0-8.0","32Z9ZLUT1M67S8FQY8DELLKAM9COHP","A3HFZPC8QR1Y54","338431Z1FL1IVIVZ3BK6A6QS21HROA","","1467","img/food6.png","76","1469","3","0","2","1,0.7,0,1,0.7,0,0.7,0,1","",""
"","html-keyboard-response","9","40264","0.0-9.0","32Z9ZLUT1M67S8FQY8DELLKAM9COHP","A3HFZPC8QR1Y54","338431Z1FL1IVIVZ3BK6A6QS21HROA","","null","<img src=""img/food6.png"" style=""width:200px;border:14px solid red;"">","null","","","","","","",""
"","image-keyboard-response","10","41161","0.0-10.0","32Z9ZLUT1M67S8FQY8DELLKAM9COHP","A3HFZPC8QR1Y54","338431Z1FL1IVIVZ3BK6A6QS21HROA","","895","img/food2.png","75","895","2","1","1","1,0.7,0,1,0.7,0,0.7,0,1","",""
"","html-keyboard-response","11","41464","0.0-11.0","32Z9ZLUT1M67S8FQY8DELLKAM9COHP","A3HFZPC8QR1Y54","338431Z1FL1IVIVZ3BK6A6QS21HROA","","null","<img src=""img/food2.png"" style=""width:200px; border:14px solid green;"">","null","","","","","","",""
"","image-keyboard-response","12","42334","0.0-12.0","32Z9ZLUT1M67S8FQY8DELLKAM9COHP","A3HFZPC8QR1Y54","338431Z1FL1IVIVZ3BK6A6QS21HROA","","869","img/food6.png","76","870","3","0","2","1,0.7,0,1,0.7,0,0.7,0,1","",""
"","html-keyboard-response","13","42637","0.0-13.0","32Z9ZLUT1M67S8FQY8DELLKAM9COHP","A3HFZPC8QR1Y54","338431Z1FL1IVIVZ3BK6A6QS21HROA","","null","<img src=""img/food6.png"" style=""width:200px;border:14px solid red;"">","null","","","","","","",""
"","image-keyboard-response","14","43344","0.0-14.0","32Z9ZLUT1M67S8FQY8DELLKAM9COHP","A3HFZPC8QR1Y54","338431Z1FL1IVIVZ3BK6A6QS21HROA","","705","img/food5.png","74","707.0000000000073","1","1","3","1,0.7,0,1,0.7,0,0.7,0,1","",""
"","html-keyboard-response","15","43647","0.0-15.0","32Z9ZLUT1M67S8FQY8DELLKAM9COHP","A3HFZPC8QR1Y54","338431Z1FL1IVIVZ3BK6A6QS21HROA","","null","<img src=""img/food5.png"" style=""width:200px; border:14px solid green;"">","null","","","","","","",""
"","image-keyboard-response","16","43979","0.0-16.0","32Z9ZLUT1M67S8FQY8DELLKAM9COHP","A3HFZPC8QR1Y54","338431Z1FL1IVIVZ3BK6A6QS21HROA","","330","img/food5.png","74","331","1","1","3","1,0.7,0,1,0.7,0,0.7,0,1","",""
"","html-keyboard-response","17","44280","0.0-17.0","32Z9ZLUT1M67S8FQY8DELLKAM9COHP","A3HFZPC8QR1Y54","338431Z1FL1IVIVZ3BK6A6QS21HROA","","null","<img src=""img/food5.png"" style=""width:200px; border:14px solid green;"">","null","","","","","","",""
"","image-keyboard-response","18","45579","0.0-18.0","32Z9ZLUT1M67S8FQY8DELLKAM9COHP","A3HFZPC8QR1Y54","338431Z1FL1IVIVZ3BK6A6QS21HROA","","1297","img/food2.png","75","1299","2","0","1","1,0.7,0,1,0.7,0,0.7,0,1","",""
"","html-keyboard-response","19","45881","0.0-19.0","32Z9ZLUT1M67S8FQY8DELLKAM9COHP","A3HFZPC8QR1Y54","338431Z1FL1IVIVZ3BK6A6QS21HROA","","null","<img src=""img/food2.png"" style=""width:200px;border:14px solid red;"">","null","","","","","","",""
"","image-keyboard-response","20","46757","0.0-20.0","32Z9ZLUT1M67S8FQY8DELLKAM9COHP","A3HFZPC8QR1Y54","338431Z1FL1IVIVZ3BK6A6QS21HROA","","873","img/food6.png","76","875","3","0","2","1,0.7,0,1,0.7,0,0.7,0,1","",""
"","html-keyboard-response","21","47060","0.0-21.0","32Z9ZLUT1M67S8FQY8DELLKAM9COHP","A3HFZPC8QR1Y54","338431Z1FL1IVIVZ3BK6A6QS21HROA","","null","<img src=""img/food6.png"" style=""width:200px;border:14px solid red;"">","null","","","","","","",""
"","image-keyboard-response","22","47590","0.0-22.0","32Z9ZLUT1M67S8FQY8DELLKAM9COHP","A3HFZPC8QR1Y54","338431Z1FL1IVIVZ3BK6A6QS21HROA","","527","img/food6.png","74","529","1","1","2","1,0.7,0,1,0.7,0,0.7,0,1","",""
"","html-keyboard-response","23","47893","0.0-23.0","32Z9ZLUT1M67S8FQY8DELLKAM9COHP","A3HFZPC8QR1Y54","338431Z1FL1IVIVZ3BK6A6QS21HROA","","null","<img src=""img/food6.png"" style=""width:200px; border:14px solid green;"">","null","","","","","","",""
"","image-keyboard-response","24","48549","0.0-24.0","32Z9ZLUT1M67S8FQY8DELLKAM9COHP","A3HFZPC8QR1Y54","338431Z1FL1IVIVZ3BK6A6QS21HROA","","655","img/food2.png","75","655.9999999999927","2","1","1","1,0.7,0,1,0.7,0,0.7,0,1","",""
"","html-keyboard-response","25","48852","0.0-25.0","32Z9ZLUT1M67S8FQY8DELLKAM9COHP","A3HFZPC8QR1Y54","338431Z1FL1IVIVZ3BK6A6QS21HROA","","null","<img src=""img/food2.png"" style=""width:200px; border:14px solid green;"">","null","","","","","","",""
"","image-keyboard-response","26","49297","0.0-26.0","32Z9ZLUT1M67S8FQY8DELLKAM9COHP","A3HFZPC8QR1Y54","338431Z1FL1IVIVZ3BK6A6QS21HROA","","443","img/food2.png","75","445","2","1","1","1,0.7,0,1,0.7,0,0.7,0,1","",""
"","html-keyboard-response","27","49600","0.0-27.0","32Z9ZLUT1M67S8FQY8DELLKAM9COHP","A3HFZPC8QR1Y54","338431Z1FL1IVIVZ3BK6A6QS21HROA","","null","<img src=""img/food2.png"" style=""width:200px; border:14px solid green;"">","null","","","","","","",""
"","image-keyboard-response","28","49904","0.0-28.0","32Z9ZLUT1M67S8FQY8DELLKAM9COHP","A3HFZPC8QR1Y54","338431Z1FL1IVIVZ3BK6A6QS21HROA","","302","img/food2.png","75","303","2","0","1","1,0.7,0,1,0.7,0,0.7,0,1","",""
"","html-keyboard-response","29","50207","0.0-29.0","32Z9ZLUT1M67S8FQY8DELLKAM9COHP","A3HFZPC8QR1Y54","338431Z1FL1IVIVZ3BK6A6QS21HROA","","null","<img src=""img/food2.png"" style=""width:200px;border:14px solid red;"">","null","","","","","","",""
"","image-keyboard-response","30","50810","0.0-30.0","32Z9ZLUT1M67S8FQY8DELLKAM9COHP","A3HFZPC8QR1Y54","338431Z1FL1IVIVZ3BK6A6QS21HROA","","602","img/food2.png","75","602","2","1","1","1,0.7,0,1,0.7,0,0.7,0,1","",""
"","html-keyboard-response","31","51113","0.0-31.0","32Z9ZLUT1M67S8FQY8DELLKAM9COHP","A3HFZPC8QR1Y54","338431Z1FL1IVIVZ3BK6A6QS21HROA","","null","<img src=""img/food2.png"" style=""width:200px; border:14px solid green;"">","null","","","","","","",""
"","image-keyboard-response","32","51817","0.0-32.0","32Z9ZLUT1M67S8FQY8DELLKAM9COHP","A3HFZPC8QR1Y54","338431Z1FL1IVIVZ3BK6A6QS21HROA","","702","img/food5.png","74","704","1","1","3","1,0.7,0,1,0.7,0,0.7,0,1","",""
"","html-keyboard-response","33","52121","0.0-33.0","32Z9ZLUT1M67S8FQY8DELLKAM9COHP","A3HFZPC8QR1Y54","338431Z1FL1IVIVZ3BK6A6QS21HROA","","null","<img src=""img/food5.png"" style=""width:200px; border:14px solid green;"">","null","","","","","","",""
"","image-keyboard-response","34","52742","0.0-34.0","32Z9ZLUT1M67S8FQY8DELLKAM9COHP","A3HFZPC8QR1Y54","338431Z1FL1IVIVZ3BK6A6QS21HROA","","620","img/food2.png","75","621","2","0","1","1,0.7,0,1,0.7,0,0.7,0,1","",""
"","html-keyboard-response","35","53045","0.0-35.0","32Z9ZLUT1M67S8FQY8DELLKAM9COHP","A3HFZPC8QR1Y54","338431Z1FL1IVIVZ3BK6A6QS21HROA","","null","<img src=""img/food2.png"" style=""width:200px;border:14px solid red;"">","null","","","","","","",""
"","image-keyboard-response","36","53895","0.0-36.0","32Z9ZLUT1M67S8FQY8DELLKAM9COHP","A3HFZPC8QR1Y54","338431Z1FL1IVIVZ3BK6A6QS21HROA","","848","img/food5.png","74","849","1","1","3","1,0.7,0,1,0.7,0,0.7,0,1","",""
"","html-keyboard-response","37","54198","0.0-37.0","32Z9ZLUT1M67S8FQY8DELLKAM9COHP","A3HFZPC8QR1Y54","338431Z1FL1IVIVZ3BK6A6QS21HROA","","null","<img src=""img/food5.png"" style=""width:200px; border:14px solid green;"">","null","","","","","","",""
"","image-keyboard-response","38","54882","0.0-38.0","32Z9ZLUT1M67S8FQY8DELLKAM9COHP","A3HFZPC8QR1Y54","338431Z1FL1IVIVZ3BK6A6QS21HROA","","683","img/food6.png","75","684","2","1","2","1,0.7,0,1,0.7,0,0.7,0,1","",""
"","html-keyboard-response","39","55184","0.0-39.0","32Z9ZLUT1M67S8FQY8DELLKAM9COHP","A3HFZPC8QR1Y54","338431Z1FL1IVIVZ3BK6A6QS21HROA","","null","<img src=""img/food6.png"" style=""width:200px; border:14px solid green;"">","null","","","","","","",""
"","image-keyboard-response","40","55786","0.0-40.0","32Z9ZLUT1M67S8FQY8DELLKAM9COHP","A3HFZPC8QR1Y54","338431Z1FL1IVIVZ3BK6A6QS21HROA","","601.0000000000073","img/food2.png","74","601.0000000000073","1","1","1","1,0.7,0,1,0.7,0,0.7,0,1","",""
"","html-keyboard-response","41","56089","0.0-41.0","32Z9ZLUT1M67S8FQY8DELLKAM9COHP","A3HFZPC8QR1Y54","338431Z1FL1IVIVZ3BK6A6QS21HROA","","null","<img src=""img/food2.png"" style=""width:200px; border:14px solid green;"">","null","","","","","","",""
"","image-keyboard-response","42","56687","0.0-42.0","32Z9ZLUT1M67S8FQY8DELLKAM9COHP","A3HFZPC8QR1Y54","338431Z1FL1IVIVZ3BK6A6QS21HROA","","597","img/food6.png","75","599","2","0","2","1,0.7,0,1,0.7,0,0.7,0,1","",""
"","html-keyboard-response","43","56990","0.0-43.0","32Z9ZLUT1M67S8FQY8DELLKAM9COHP","A3HFZPC8QR1Y54","338431Z1FL1IVIVZ3BK6A6QS21HROA","","null","<img src=""img/food6.png"" style=""width:200px;border:14px solid red;"">","null","","","","","","",""
"","image-keyboard-response","44","57379","0.0-44.0","32Z9ZLUT1M67S8FQY8DELLKAM9COHP","A3HFZPC8QR1Y54","338431Z1FL1IVIVZ3BK6A6QS21HROA","","387","img/food6.png","76","388","3","0","2","1,0.7,0,1,0.7,0,0.7,0,1","",""
"","html-keyboard-response","45","57682","0.0-45.0","32Z9ZLUT1M67S8FQY8DELLKAM9COHP","A3HFZPC8QR1Y54","338431Z1FL1IVIVZ3BK6A6QS21HROA","","null","<img src=""img/food6.png"" style=""width:200px;border:14px solid red;"">","null","","","","","","",""
"","image-keyboard-response","46","59165","0.0-46.0","32Z9ZLUT1M67S8FQY8DELLKAM9COHP","A3HFZPC8QR1Y54","338431Z1FL1IVIVZ3BK6A6QS21HROA","","1481","img/food6.png","76","1483","3","0","2","1,0.7,0,1,0.7,0,0.7,0,1","",""
"","html-keyboard-response","47","59468","0.0-47.0","32Z9ZLUT1M67S8FQY8DELLKAM9COHP","A3HFZPC8QR1Y54","338431Z1FL1IVIVZ3BK6A6QS21HROA","","null","<img src=""img/food6.png"" style=""width:200px;border:14px solid red;"">","null","","","","","","",""
"","image-keyboard-response","48","59916","0.0-48.0","32Z9ZLUT1M67S8FQY8DELLKAM9COHP","A3HFZPC8QR1Y54","338431Z1FL1IVIVZ3BK6A6QS21HROA","","446","img/food6.png","75","448","2","1","2","1,0.7,0,1,0.7,0,0.7,0,1","",""
"","html-keyboard-response","49","60219","0.0-49.0","32Z9ZLUT1M67S8FQY8DELLKAM9COHP","A3HFZPC8QR1Y54","338431Z1FL1IVIVZ3BK6A6QS21HROA","","null","<img src=""img/food6.png"" style=""width:200px; border:14px solid green;"">","null","","","","","","",""
"","image-keyboard-response","50","60888","0.0-50.0","32Z9ZLUT1M67S8FQY8DELLKAM9COHP","A3HFZPC8QR1Y54","338431Z1FL1IVIVZ3BK6A6QS21HROA","","668","img/food5.png","74","668","1","1","3","1,0.7,0,1,0.7,0,0.7,0,1","",""
"","html-keyboard-response","51","61190","0.0-51.0","32Z9ZLUT1M67S8FQY8DELLKAM9COHP","A3HFZPC8QR1Y54","338431Z1FL1IVIVZ3BK6A6QS21HROA","","null","<img src=""img/food5.png"" style=""width:200px; border:14px solid green;"">","null","","","","","","",""
"","image-keyboard-response","52","61984","0.0-52.0","32Z9ZLUT1M67S8FQY8DELLKAM9COHP","A3HFZPC8QR1Y54","338431Z1FL1IVIVZ3BK6A6QS21HROA","","792.9999999999927","img/food6.png","75","795","2","0","2","1,0.7,0,1,0.7,0,0.7,0,1","",""
"","html-keyboard-response","53","62286","0.0-53.0","32Z9ZLUT1M67S8FQY8DELLKAM9COHP","A3HFZPC8QR1Y54","338431Z1FL1IVIVZ3BK6A6QS21HROA","","null","<img src=""img/food6.png"" style=""width:200px;border:14px solid red;"">","null","","","","","","",""
"","image-keyboard-response","54","63217","0.0-54.0","32Z9ZLUT1M67S8FQY8DELLKAM9COHP","A3HFZPC8QR1Y54","338431Z1FL1IVIVZ3BK6A6QS21HROA","","929","img/food6.png","74","930.0000000000073","1","1","2","1,0.7,0,1,0.7,0,0.7,0,1","",""
"","html-keyboard-response","55","63519","0.0-55.0","32Z9ZLUT1M67S8FQY8DELLKAM9COHP","A3HFZPC8QR1Y54","338431Z1FL1IVIVZ3BK6A6QS21HROA","","null","<img src=""img/food6.png"" style=""width:200px; border:14px solid green;"">","null","","","","","","",""
"","image-keyboard-response","56","64110","0.0-56.0","32Z9ZLUT1M67S8FQY8DELLKAM9COHP","A3HFZPC8QR1Y54","338431Z1FL1IVIVZ3BK6A6QS21HROA","","589","img/food6.png","74","591","1","1","2","1,0.7,0,1,0.7,0,0.7,0,1","",""
"","html-keyboard-response","57","64413","0.0-57.0","32Z9ZLUT1M67S8FQY8DELLKAM9COHP","A3HFZPC8QR1Y54","338431Z1FL1IVIVZ3BK6A6QS21HROA","","null","<img src=""img/food6.png"" style=""width:200px; border:14px solid green;"">","null","","","","","","",""
"","image-keyboard-response","58","68539","0.0-58.0","32Z9ZLUT1M67S8FQY8DELLKAM9COHP","A3HFZPC8QR1Y54","338431Z1FL1IVIVZ3BK6A6QS21HROA","","4125","img/food5.png","74","4126","1","0","3","1,0.7,0,1,0.7,0,0.7,0,1","",""
"","html-keyboard-response","59","68842","0.0-59.0","32Z9ZLUT1M67S8FQY8DELLKAM9COHP","A3HFZPC8QR1Y54","338431Z1FL1IVIVZ3BK6A6QS21HROA","","null","<img src=""img/food5.png"" style=""width:200px;border:14px solid red;"">","null","","","","","","",""
"","image-keyboard-response","60","69515","0.0-60.0","32Z9ZLUT1M67S8FQY8DELLKAM9COHP","A3HFZPC8QR1Y54","338431Z1FL1IVIVZ3BK6A6QS21HROA","","670","img/food2.png","75","672.0000000000146","2","0","1","1,0.7,0,1,0.7,0,0.7,0,1","",""
"","html-keyboard-response","61","69817","0.0-61.0","32Z9ZLUT1M67S8FQY8DELLKAM9COHP","A3HFZPC8QR1Y54","338431Z1FL1IVIVZ3BK6A6QS21HROA","","null","<img src=""img/food2.png"" style=""width:200px;border:14px solid red;"">","null","","","","","","",""
"","image-keyboard-response","62","70656","0.0-62.0","32Z9ZLUT1M67S8FQY8DELLKAM9COHP","A3HFZPC8QR1Y54","338431Z1FL1IVIVZ3BK6A6QS21HROA","","837","img/food5.png","74","838","1","1","3","1,0.7,0,1,0.7,0,0.7,0,1","",""
"","html-keyboard-response","63","70959","0.0-63.0","32Z9ZLUT1M67S8FQY8DELLKAM9COHP","A3HFZPC8QR1Y54","338431Z1FL1IVIVZ3BK6A6QS21HROA","","null","<img src=""img/food5.png"" style=""width:200px; border:14px solid green;"">","null","","","","","","",""
"","image-keyboard-response","64","71420","0.0-64.0","32Z9ZLUT1M67S8FQY8DELLKAM9COHP","A3HFZPC8QR1Y54","338431Z1FL1IVIVZ3BK6A6QS21HROA","","459","img/food5.png","74","461","1","0","3","1,0.7,0,1,0.7,0,0.7,0,1","",""
"","html-keyboard-response","65","71723","0.0-65.0","32Z9ZLUT1M67S8FQY8DELLKAM9COHP","A3HFZPC8QR1Y54","338431Z1FL1IVIVZ3BK6A6QS21HROA","","null","<img src=""img/food5.png"" style=""width:200px;border:14px solid red;"">","null","","","","","","",""
"","image-keyboard-response","66","72073","0.0-66.0","32Z9ZLUT1M67S8FQY8DELLKAM9COHP","A3HFZPC8QR1Y54","338431Z1FL1IVIVZ3BK6A6QS21HROA","","349","img/food5.png","74","350","1","1","3","1,0.7,0,1,0.7,0,0.7,0,1","",""
"","html-keyboard-response","67","72376","0.0-67.0","32Z9ZLUT1M67S8FQY8DELLKAM9COHP","A3HFZPC8QR1Y54","338431Z1FL1IVIVZ3BK6A6QS21HROA","","null","<img src=""img/food5.png"" style=""width:200px; border:14px solid green;"">","null","","","","","","",""
"","image-keyboard-response","68","72950","0.0-68.0","32Z9ZLUT1M67S8FQY8DELLKAM9COHP","A3HFZPC8QR1Y54","338431Z1FL1IVIVZ3BK6A6QS21HROA","","570.9999999999854","img/food2.png","75","574","2","1","1","1,0.7,0,1,0.7,0,0.7,0,1","",""
"","html-keyboard-response","69","73253","0.0-69.0","32Z9ZLUT1M67S8FQY8DELLKAM9COHP","A3HFZPC8QR1Y54","338431Z1FL1IVIVZ3BK6A6QS21HROA","","null","<img src=""img/food2.png"" style=""width:200px; border:14px solid green;"">","null","","","","","","",""
"","image-keyboard-response","70","73572","0.0-70.0","32Z9ZLUT1M67S8FQY8DELLKAM9COHP","A3HFZPC8QR1Y54","338431Z1FL1IVIVZ3BK6A6QS21HROA","","316","img/food2.png","75","318","2","1","1","1,0.7,0,1,0.7,0,0.7,0,1","",""
"","html-keyboard-response","71","73874","0.0-71.0","32Z9ZLUT1M67S8FQY8DELLKAM9COHP","A3HFZPC8QR1Y54","338431Z1FL1IVIVZ3BK6A6QS21HROA","","null","<img src=""img/food2.png"" style=""width:200px; border:14px solid green;"">","null","","","","","","",""
"","image-keyboard-response","72","74668","0.0-72.0","32Z9ZLUT1M67S8FQY8DELLKAM9COHP","A3HFZPC8QR1Y54","338431Z1FL1IVIVZ3BK6A6QS21HROA","","792","img/food6.png","76","792.9999999999854","3","0","2","1,0.7,0,1,0.7,0,0.7,0,1","",""
"","html-keyboard-response","73","74970","0.0-73.0","32Z9ZLUT1M67S8FQY8DELLKAM9COHP","A3HFZPC8QR1Y54","338431Z1FL1IVIVZ3BK6A6QS21HROA","","null","<img src=""img/food6.png"" style=""width:200px;border:14px solid red;"">","null","","","","","","",""
"","image-keyboard-response","74","75468","0.0-74.0","32Z9ZLUT1M67S8FQY8DELLKAM9COHP","A3HFZPC8QR1Y54","338431Z1FL1IVIVZ3BK6A6QS21HROA","","496","img/food6.png","76","498","3","0","2","1,0.7,0,1,0.7,0,0.7,0,1","",""
"","html-keyboard-response","75","75770","0.0-75.0","32Z9ZLUT1M67S8FQY8DELLKAM9COHP","A3HFZPC8QR1Y54","338431Z1FL1IVIVZ3BK6A6QS21HROA","","null","<img src=""img/food6.png"" style=""width:200px;border:14px solid red;"">","null","","","","","","",""
"","image-keyboard-response","76","76491","0.0-76.0","32Z9ZLUT1M67S8FQY8DELLKAM9COHP","A3HFZPC8QR1Y54","338431Z1FL1IVIVZ3BK6A6QS21HROA","","719.0000000000146","img/food6.png","76","720","3","0","2","1,0.7,0,1,0.7,0,0.7,0,1","",""
"","html-keyboard-response","77","76794","0.0-77.0","32Z9ZLUT1M67S8FQY8DELLKAM9COHP","A3HFZPC8QR1Y54","338431Z1FL1IVIVZ3BK6A6QS21HROA","","null","<img src=""img/food6.png"" style=""width:200px;border:14px solid red;"">","null","","","","","","",""
"","image-keyboard-response","78","77657","0.0-78.0","32Z9ZLUT1M67S8FQY8DELLKAM9COHP","A3HFZPC8QR1Y54","338431Z1FL1IVIVZ3BK6A6QS21HROA","","860","img/food2.png","75","862","2","1","1","1,0.7,0,1,0.7,0,0.7,0,1","",""
"","html-keyboard-response","79","77960","0.0-79.0","32Z9ZLUT1M67S8FQY8DELLKAM9COHP","A3HFZPC8QR1Y54","338431Z1FL1IVIVZ3BK6A6QS21HROA","","null","<img src=""img/food2.png"" style=""width:200px; border:14px solid green;"">","null","","","","","","",""
"","image-keyboard-response","80","78584","0.0-80.0","32Z9ZLUT1M67S8FQY8DELLKAM9COHP","A3HFZPC8QR1Y54","338431Z1FL1IVIVZ3BK6A6QS21HROA","","619","img/food5.png","74","623","1","1","3","1,0.7,0,1,0.7,0,0.7,0,1","",""
"","html-keyboard-response","81","78887","0.0-81.0","32Z9ZLUT1M67S8FQY8DELLKAM9COHP","A3HFZPC8QR1Y54","338431Z1FL1IVIVZ3BK6A6QS21HROA","","null","<img src=""img/food5.png"" style=""width:200px; border:14px solid green;"">","null","","","","","","",""
"","image-keyboard-response","82","79256","0.0-82.0","32Z9ZLUT1M67S8FQY8DELLKAM9COHP","A3HFZPC8QR1Y54","338431Z1FL1IVIVZ3BK6A6QS21HROA","","366","img/food5.png","74","368.00000000001455","1","0","3","1,0.7,0,1,0.7,0,0.7,0,1","",""
"","html-keyboard-response","83","79559","0.0-83.0","32Z9ZLUT1M67S8FQY8DELLKAM9COHP","A3HFZPC8QR1Y54","338431Z1FL1IVIVZ3BK6A6QS21HROA","","null","<img src=""img/food5.png"" style=""width:200px;border:14px solid red;"">","null","","","","","","",""
"","image-keyboard-response","84","80153","0.0-84.0","32Z9ZLUT1M67S8FQY8DELLKAM9COHP","A3HFZPC8QR1Y54","338431Z1FL1IVIVZ3BK6A6QS21HROA","","592","img/food5.png","74","594","1","1","3","1,0.7,0,1,0.7,0,0.7,0,1","",""
"","html-keyboard-response","85","80456","0.0-85.0","32Z9ZLUT1M67S8FQY8DELLKAM9COHP","A3HFZPC8QR1Y54","338431Z1FL1IVIVZ3BK6A6QS21HROA","","null","<img src=""img/food5.png"" style=""width:200px; border:14px solid green;"">","null","","","","","","",""
"","image-keyboard-response","86","81688","0.0-86.0","32Z9ZLUT1M67S8FQY8DELLKAM9COHP","A3HFZPC8QR1Y54","338431Z1FL1IVIVZ3BK6A6QS21HROA","","1229","img/food2.png","75","1231","2","1","1","1,0.7,0,1,0.7,0,0.7,0,1","",""
"","html-keyboard-response","87","81991","0.0-87.0","32Z9ZLUT1M67S8FQY8DELLKAM9COHP","A3HFZPC8QR1Y54","338431Z1FL1IVIVZ3BK6A6QS21HROA","","null","<img src=""img/food2.png"" style=""width:200px; border:14px solid green;"">","null","","","","","","",""
"","image-keyboard-response","88","83156","0.0-88.0","32Z9ZLUT1M67S8FQY8DELLKAM9COHP","A3HFZPC8QR1Y54","338431Z1FL1IVIVZ3BK6A6QS21HROA","","1164","img/food5.png","76","1164.9999999999854","3","1","3","1,0.7,0,1,0.7,0,0.7,0,1","",""
"","html-keyboard-response","89","83459","0.0-89.0","32Z9ZLUT1M67S8FQY8DELLKAM9COHP","A3HFZPC8QR1Y54","338431Z1FL1IVIVZ3BK6A6QS21HROA","","null","<img src=""img/food5.png"" style=""width:200px; border:14px solid green;"">","null","","","","","","",""
"","image-keyboard-response","90","85120","0.0-90.0","32Z9ZLUT1M67S8FQY8DELLKAM9COHP","A3HFZPC8QR1Y54","338431Z1FL1IVIVZ3BK6A6QS21HROA","","1659","img/food6.png","74","1661","1","1","2","1,0.7,0,1,0.7,0,0.7,0,1","",""
"","html-keyboard-response","91","85422","0.0-91.0","32Z9ZLUT1M67S8FQY8DELLKAM9COHP","A3HFZPC8QR1Y54","338431Z1FL1IVIVZ3BK6A6QS21HROA","","null","<img src=""img/food6.png"" style=""width:200px; border:14px solid green;"">","null","","","","","","",""
"","image-keyboard-response","92","86001","0.0-92.0","32Z9ZLUT1M67S8FQY8DELLKAM9COHP","A3HFZPC8QR1Y54","338431Z1FL1IVIVZ3BK6A6QS21HROA","","577","img/food2.png","75","578","2","0","1","1,0.7,0,1,0.7,0,0.7,0,1","",""
"","html-keyboard-response","93","86303","0.0-93.0","32Z9ZLUT1M67S8FQY8DELLKAM9COHP","A3HFZPC8QR1Y54","338431Z1FL1IVIVZ3BK6A6QS21HROA","","null","<img src=""img/food2.png"" style=""width:200px;border:14px solid red;"">","null","","","","","","",""
"","image-keyboard-response","94","86618","0.0-94.0","32Z9ZLUT1M67S8FQY8DELLKAM9COHP","A3HFZPC8QR1Y54","338431Z1FL1IVIVZ3BK6A6QS21HROA","","312","img/food2.png","75","314.00000000001455","2","0","1","1,0.7,0,1,0.7,0,0.7,0,1","",""
"","html-keyboard-response","95","86921","0.0-95.0","32Z9ZLUT1M67S8FQY8DELLKAM9COHP","A3HFZPC8QR1Y54","338431Z1FL1IVIVZ3BK6A6QS21HROA","","null","<img src=""img/food2.png"" style=""width:200px;border:14px solid red;"">","null","","","","","","",""
"","image-keyboard-response","96","87458","0.0-96.0","32Z9ZLUT1M67S8FQY8DELLKAM9COHP","A3HFZPC8QR1Y54","338431Z1FL1IVIVZ3BK6A6QS21HROA","","535","img/food5.png","74","537","1","0","3","1,0.7,0,1,0.7,0,0.7,0,1","",""
"","html-keyboard-response","97","87760","0.0-97.0","32Z9ZLUT1M67S8FQY8DELLKAM9COHP","A3HFZPC8QR1Y54","338431Z1FL1IVIVZ3BK6A6QS21HROA","","null","<img src=""img/food5.png"" style=""width:200px;border:14px solid red;"">","null","","","","","","",""
"","image-keyboard-response","98","88384","0.0-98.0","32Z9ZLUT1M67S8FQY8DELLKAM9COHP","A3HFZPC8QR1Y54","338431Z1FL1IVIVZ3BK6A6QS21HROA","","622","img/food5.png","76","623.0000000000146","3","1","3","1,0.7,0,1,0.7,0,0.7,0,1","",""
"","html-keyboard-response","99","88687","0.0-99.0","32Z9ZLUT1M67S8FQY8DELLKAM9COHP","A3HFZPC8QR1Y54","338431Z1FL1IVIVZ3BK6A6QS21HROA","","null","<img src=""img/food5.png"" style=""width:200px; border:14px solid green;"">","null","","","","","","",""
"","image-keyboard-response","100","90660","0.0-100.0","32Z9ZLUT1M67S8FQY8DELLKAM9COHP","A3HFZPC8QR1Y54","338431Z1FL1IVIVZ3BK6A6QS21HROA","","1971","img/food5.png","76","1973","3","1","3","1,0.7,0,1,0.7,0,0.7,0,1","",""
"","html-keyboard-response","101","90963","0.0-101.0","32Z9ZLUT1M67S8FQY8DELLKAM9COHP","A3HFZPC8QR1Y54","338431Z1FL1IVIVZ3BK6A6QS21HROA","","null","<img src=""img/food5.png"" style=""width:200px; border:14px solid green;"">","null","","","","","","",""
"","image-keyboard-response","102","91743","0.0-102.0","32Z9ZLUT1M67S8FQY8DELLKAM9COHP","A3HFZPC8QR1Y54","338431Z1FL1IVIVZ3BK6A6QS21HROA","","777","img/food2.png","74","779.0000000000146","1","1","1","1,0.7,0,1,0.7,0,0.7,0,1","",""
"","html-keyboard-response","103","92046","0.0-103.0","32Z9ZLUT1M67S8FQY8DELLKAM9COHP","A3HFZPC8QR1Y54","338431Z1FL1IVIVZ3BK6A6QS21HROA","","null","<img src=""img/food2.png"" style=""width:200px; border:14px solid green;"">","null","","","","","","",""
"","image-keyboard-response","104","92597","0.0-104.0","32Z9ZLUT1M67S8FQY8DELLKAM9COHP","A3HFZPC8QR1Y54","338431Z1FL1IVIVZ3BK6A6QS21HROA","","549","img/food6.png","75","550","2","1","2","1,0.7,0,1,0.7,0,0.7,0,1","",""
"","html-keyboard-response","105","92899","0.0-105.0","32Z9ZLUT1M67S8FQY8DELLKAM9COHP","A3HFZPC8QR1Y54","338431Z1FL1IVIVZ3BK6A6QS21HROA","","null","<img src=""img/food6.png"" style=""width:200px; border:14px solid green;"">","null","","","","","","",""
"","image-keyboard-response","106","93468","0.0-106.0","32Z9ZLUT1M67S8FQY8DELLKAM9COHP","A3HFZPC8QR1Y54","338431Z1FL1IVIVZ3BK6A6QS21HROA","","566.9999999999854","img/food2.png","76","570","3","0","1","1,0.7,0,1,0.7,0,0.7,0,1","",""
"","html-keyboard-response","107","93772","0.0-107.0","32Z9ZLUT1M67S8FQY8DELLKAM9COHP","A3HFZPC8QR1Y54","338431Z1FL1IVIVZ3BK6A6QS21HROA","","null","<img src=""img/food2.png"" style=""width:200px;border:14px solid red;"">","null","","","","","","",""
"","image-keyboard-response","108","94404","0.0-108.0","32Z9ZLUT1M67S8FQY8DELLKAM9COHP","A3HFZPC8QR1Y54","338431Z1FL1IVIVZ3BK6A6QS21HROA","","629.9999999999854","img/food6.png","75","631","2","1","2","1,0.7,0,1,0.7,0,0.7,0,1","",""
"","html-keyboard-response","109","94706","0.0-109.0","32Z9ZLUT1M67S8FQY8DELLKAM9COHP","A3HFZPC8QR1Y54","338431Z1FL1IVIVZ3BK6A6QS21HROA","","null","<img src=""img/food6.png"" style=""width:200px; border:14px solid green;"">","null","","","","","","",""
"","image-keyboard-response","110","95548","0.0-110.0","32Z9ZLUT1M67S8FQY8DELLKAM9COHP","A3HFZPC8QR1Y54","338431Z1FL1IVIVZ3BK6A6QS21HROA","","839","img/food2.png","75","842","2","0","1","1,0.7,0,1,0.7,0,0.7,0,1","",""
"","html-keyboard-response","111","95851","0.0-111.0","32Z9ZLUT1M67S8FQY8DELLKAM9COHP","A3HFZPC8QR1Y54","338431Z1FL1IVIVZ3BK6A6QS21HROA","","null","<img src=""img/food2.png"" style=""width:200px;border:14px solid red;"">","null","","","","","","",""
"","image-keyboard-response","112","96901","0.0-112.0","32Z9ZLUT1M67S8FQY8DELLKAM9COHP","A3HFZPC8QR1Y54","338431Z1FL1IVIVZ3BK6A6QS21HROA","","1047","img/food6.png","74","1049.0000000000146","1","1","2","1,0.7,0,1,0.7,0,0.7,0,1","",""
"","html-keyboard-response","113","97204","0.0-113.0","32Z9ZLUT1M67S8FQY8DELLKAM9COHP","A3HFZPC8QR1Y54","338431Z1FL1IVIVZ3BK6A6QS21HROA","","null","<img src=""img/food6.png"" style=""width:200px; border:14px solid green;"">","null","","","","","","",""
"","image-keyboard-response","114","98298","0.0-114.0","32Z9ZLUT1M67S8FQY8DELLKAM9COHP","A3HFZPC8QR1Y54","338431Z1FL1IVIVZ3BK6A6QS21HROA","","1091","img/food2.png","76","1093","3","0","1","1,0.7,0,1,0.7,0,0.7,0,1","",""
"","html-keyboard-response","115","98602","0.0-115.0","32Z9ZLUT1M67S8FQY8DELLKAM9COHP","A3HFZPC8QR1Y54","338431Z1FL1IVIVZ3BK6A6QS21HROA","","null","<img src=""img/food2.png"" style=""width:200px;border:14px solid red;"">","null","","","","","","",""
"","image-keyboard-response","116","99249","0.0-116.0","32Z9ZLUT1M67S8FQY8DELLKAM9COHP","A3HFZPC8QR1Y54","338431Z1FL1IVIVZ3BK6A6QS21HROA","","645","img/food6.png","74","647.0000000000146","1","1","2","1,0.7,0,1,0.7,0,0.7,0,1","",""
"","html-keyboard-response","117","99553","0.0-117.0","32Z9ZLUT1M67S8FQY8DELLKAM9COHP","A3HFZPC8QR1Y54","338431Z1FL1IVIVZ3BK6A6QS21HROA","","null","<img src=""img/food6.png"" style=""width:200px; border:14px solid green;"">","null","","","","","","",""
"","image-keyboard-response","118","100042","0.0-118.0","32Z9ZLUT1M67S8FQY8DELLKAM9COHP","A3HFZPC8QR1Y54","338431Z1FL1IVIVZ3BK6A6QS21HROA","","487","img/food6.png","74","489","1","1","2","1,0.7,0,1,0.7,0,0.7,0,1","",""
"","html-keyboard-response","119","100344","0.0-119.0","32Z9ZLUT1M67S8FQY8DELLKAM9COHP","A3HFZPC8QR1Y54","338431Z1FL1IVIVZ3BK6A6QS21HROA","","null","<img src=""img/food6.png"" style=""width:200px; border:14px solid green;"">","null","","","","","","",""
"","image-keyboard-response","120","100684","0.0-120.0","32Z9ZLUT1M67S8FQY8DELLKAM9COHP","A3HFZPC8QR1Y54","338431Z1FL1IVIVZ3BK6A6QS21HROA","","337","img/food6.png","74","339","1","1","2","1,0.7,0,1,0.7,0,0.7,0,1","",""
"","html-keyboard-response","121","100988","0.0-121.0","32Z9ZLUT1M67S8FQY8DELLKAM9COHP","A3HFZPC8QR1Y54","338431Z1FL1IVIVZ3BK6A6QS21HROA","","null","<img src=""img/food6.png"" style=""width:200px; border:14px solid green;"">","null","","","","","","",""
"","image-keyboard-response","122","101317","0.0-122.0","32Z9ZLUT1M67S8FQY8DELLKAM9COHP","A3HFZPC8QR1Y54","338431Z1FL1IVIVZ3BK6A6QS21HROA","","326.99999999998545","img/food6.png","74","328","1","1","2","1,0.7,0,1,0.7,0,0.7,0,1","",""
"","html-keyboard-response","123","101620","0.0-123.0","32Z9ZLUT1M67S8FQY8DELLKAM9COHP","A3HFZPC8QR1Y54","338431Z1FL1IVIVZ3BK6A6QS21HROA","","null","<img src=""img/food6.png"" style=""width:200px; border:14px solid green;"">","null","","","","","","",""
"","image-keyboard-response","124","102258","0.0-124.0","32Z9ZLUT1M67S8FQY8DELLKAM9COHP","A3HFZPC8QR1Y54","338431Z1FL1IVIVZ3BK6A6QS21HROA","","636.0000000000146","img/food5.png","75","637","2","0","3","1,0.7,0,1,0.7,0,0.7,0,1","",""
"","html-keyboard-response","125","102561","0.0-125.0","32Z9ZLUT1M67S8FQY8DELLKAM9COHP","A3HFZPC8QR1Y54","338431Z1FL1IVIVZ3BK6A6QS21HROA","","null","<img src=""img/food5.png"" style=""width:200px;border:14px solid red;"">","null","","","","","","",""
"","image-keyboard-response","126","102929","0.0-126.0","32Z9ZLUT1M67S8FQY8DELLKAM9COHP","A3HFZPC8QR1Y54","338431Z1FL1IVIVZ3BK6A6QS21HROA","","366","img/food5.png","76","368","3","1","3","1,0.7,0,1,0.7,0,0.7,0,1","",""
"","html-keyboard-response","127","103232","0.0-127.0","32Z9ZLUT1M67S8FQY8DELLKAM9COHP","A3HFZPC8QR1Y54","338431Z1FL1IVIVZ3BK6A6QS21HROA","","null","<img src=""img/food5.png"" style=""width:200px; border:14px solid green;"">","null","","","","","","",""
"","image-keyboard-response","128","104084","0.0-128.0","32Z9ZLUT1M67S8FQY8DELLKAM9COHP","A3HFZPC8QR1Y54","338431Z1FL1IVIVZ3BK6A6QS21HROA","","850","img/food2.png","75","851","2","1","1","1,0.7,0,1,0.7,0,0.7,0,1","",""
"","html-keyboard-response","129","104387","0.0-129.0","32Z9ZLUT1M67S8FQY8DELLKAM9COHP","A3HFZPC8QR1Y54","338431Z1FL1IVIVZ3BK6A6QS21HROA","","null","<img src=""img/food2.png"" style=""width:200px; border:14px solid green;"">","null","","","","","","",""
"","image-keyboard-response","130","104871","0.0-130.0","32Z9ZLUT1M67S8FQY8DELLKAM9COHP","A3HFZPC8QR1Y54","338431Z1FL1IVIVZ3BK6A6QS21HROA","","482","img/food6.png","74","484","1","1","2","1,0.7,0,1,0.7,0,0.7,0,1","",""
"","html-keyboard-response","131","105175","0.0-131.0","32Z9ZLUT1M67S8FQY8DELLKAM9COHP","A3HFZPC8QR1Y54","338431Z1FL1IVIVZ3BK6A6QS21HROA","","null","<img src=""img/food6.png"" style=""width:200px; border:14px solid green;"">","null","","","","","","",""
"","image-keyboard-response","132","105753","0.0-132.0","32Z9ZLUT1M67S8FQY8DELLKAM9COHP","A3HFZPC8QR1Y54","338431Z1FL1IVIVZ3BK6A6QS21HROA","","576.0000000000146","img/food2.png","75","578","2","0","1","1,0.7,0,1,0.7,0,0.7,0,1","",""
"","html-keyboard-response","133","106055","0.0-133.0","32Z9ZLUT1M67S8FQY8DELLKAM9COHP","A3HFZPC8QR1Y54","338431Z1FL1IVIVZ3BK6A6QS21HROA","","null","<img src=""img/food2.png"" style=""width:200px;border:14px solid red;"">","null","","","","","","",""
"","image-keyboard-response","134","106607","0.0-134.0","32Z9ZLUT1M67S8FQY8DELLKAM9COHP","A3HFZPC8QR1Y54","338431Z1FL1IVIVZ3BK6A6QS21HROA","","551","img/food6.png","74","552","1","1","2","1,0.7,0,1,0.7,0,0.7,0,1","",""
"","html-keyboard-response","135","106910","0.0-135.0","32Z9ZLUT1M67S8FQY8DELLKAM9COHP","A3HFZPC8QR1Y54","338431Z1FL1IVIVZ3BK6A6QS21HROA","","null","<img src=""img/food6.png"" style=""width:200px; border:14px solid green;"">","null","","","","","","",""
"","image-keyboard-response","136","107393","0.0-136.0","32Z9ZLUT1M67S8FQY8DELLKAM9COHP","A3HFZPC8QR1Y54","338431Z1FL1IVIVZ3BK6A6QS21HROA","","480.00000000001455","img/food2.png","75","482","2","1","1","1,0.7,0,1,0.7,0,0.7,0,1","",""
"","html-keyboard-response","137","107695","0.0-137.0","32Z9ZLUT1M67S8FQY8DELLKAM9COHP","A3HFZPC8QR1Y54","338431Z1FL1IVIVZ3BK6A6QS21HROA","","null","<img src=""img/food2.png"" style=""width:200px; border:14px solid green;"">","null","","","","","","",""
"","image-keyboard-response","138","108183","0.0-138.0","32Z9ZLUT1M67S8FQY8DELLKAM9COHP","A3HFZPC8QR1Y54","338431Z1FL1IVIVZ3BK6A6QS21HROA","","487","img/food6.png","74","488","1","1","2","1,0.7,0,1,0.7,0,0.7,0,1","",""
"","html-keyboard-response","139","108486","0.0-139.0","32Z9ZLUT1M67S8FQY8DELLKAM9COHP","A3HFZPC8QR1Y54","338431Z1FL1IVIVZ3BK6A6QS21HROA","","null","<img src=""img/food6.png"" style=""width:200px; border:14px solid green;"">","null","","","","","","",""
"","image-keyboard-response","140","108919","0.0-140.0","32Z9ZLUT1M67S8FQY8DELLKAM9COHP","A3HFZPC8QR1Y54","338431Z1FL1IVIVZ3BK6A6QS21HROA","","431.99999999998545","img/food6.png","74","434","1","1","2","1,0.7,0,1,0.7,0,0.7,0,1","",""
"","html-keyboard-response","141","109222","0.0-141.0","32Z9ZLUT1M67S8FQY8DELLKAM9COHP","A3HFZPC8QR1Y54","338431Z1FL1IVIVZ3BK6A6QS21HROA","","null","<img src=""img/food6.png"" style=""width:200px; border:14px solid green;"">","null","","","","","","",""
"","image-keyboard-response","142","110324","0.0-142.0","32Z9ZLUT1M67S8FQY8DELLKAM9COHP","A3HFZPC8QR1Y54","338431Z1FL1IVIVZ3BK6A6QS21HROA","","1100","img/food5.png","76","1102","3","1","3","1,0.7,0,1,0.7,0,0.7,0,1","",""
"","html-keyboard-response","143","110627","0.0-143.0","32Z9ZLUT1M67S8FQY8DELLKAM9COHP","A3HFZPC8QR1Y54","338431Z1FL1IVIVZ3BK6A6QS21HROA","","null","<img src=""img/food5.png"" style=""width:200px; border:14px solid green;"">","null","","","","","","",""
"","image-keyboard-response","144","110959","0.0-144.0","32Z9ZLUT1M67S8FQY8DELLKAM9COHP","A3HFZPC8QR1Y54","338431Z1FL1IVIVZ3BK6A6QS21HROA","","330","img/food5.png","76","331","3","1","3","1,0.7,0,1,0.7,0,0.7,0,1","",""
"","html-keyboard-response","145","111262","0.0-145.0","32Z9ZLUT1M67S8FQY8DELLKAM9COHP","A3HFZPC8QR1Y54","338431Z1FL1IVIVZ3BK6A6QS21HROA","","null","<img src=""img/food5.png"" style=""width:200px; border:14px solid green;"">","null","","","","","","",""
"","image-keyboard-response","146","112075","0.0-146.0","32Z9ZLUT1M67S8FQY8DELLKAM9COHP","A3HFZPC8QR1Y54","338431Z1FL1IVIVZ3BK6A6QS21HROA","","810.9999999999854","img/food2.png","75","813","2","1","1","1,0.7,0,1,0.7,0,0.7,0,1","",""
"","html-keyboard-response","147","112378","0.0-147.0","32Z9ZLUT1M67S8FQY8DELLKAM9COHP","A3HFZPC8QR1Y54","338431Z1FL1IVIVZ3BK6A6QS21HROA","","null","<img src=""img/food2.png"" style=""width:200px; border:14px solid green;"">","null","","","","","","",""
"","image-keyboard-response","148","112946","0.0-148.0","32Z9ZLUT1M67S8FQY8DELLKAM9COHP","A3HFZPC8QR1Y54","338431Z1FL1IVIVZ3BK6A6QS21HROA","","564.9999999999854","img/food6.png","74","567","1","1","2","1,0.7,0,1,0.7,0,0.7,0,1","",""
"","html-keyboard-response","149","113248","0.0-149.0","32Z9ZLUT1M67S8FQY8DELLKAM9COHP","A3HFZPC8QR1Y54","338431Z1FL1IVIVZ3BK6A6QS21HROA","","null","<img src=""img/food6.png"" style=""width:200px; border:14px solid green;"">","null","","","","","","",""
"","image-keyboard-response","150","113811","0.0-150.0","32Z9ZLUT1M67S8FQY8DELLKAM9COHP","A3HFZPC8QR1Y54","338431Z1FL1IVIVZ3BK6A6QS21HROA","","560","img/food2.png","75","562.9999999999854","2","1","1","1,0.7,0,1,0.7,0,0.7,0,1","",""
"","html-keyboard-response","151","114113","0.0-151.0","32Z9ZLUT1M67S8FQY8DELLKAM9COHP","A3HFZPC8QR1Y54","338431Z1FL1IVIVZ3BK6A6QS21HROA","","null","<img src=""img/food2.png"" style=""width:200px; border:14px solid green;"">","null","","","","","","",""
"","image-keyboard-response","152","114580","0.0-152.0","32Z9ZLUT1M67S8FQY8DELLKAM9COHP","A3HFZPC8QR1Y54","338431Z1FL1IVIVZ3BK6A6QS21HROA","","464.99999999998545","img/food5.png","76","465.99999999998545","3","1","3","1,0.7,0,1,0.7,0,0.7,0,1","",""
"","html-keyboard-response","153","114884","0.0-153.0","32Z9ZLUT1M67S8FQY8DELLKAM9COHP","A3HFZPC8QR1Y54","338431Z1FL1IVIVZ3BK6A6QS21HROA","","null","<img src=""img/food5.png"" style=""width:200px; border:14px solid green;"">","null","","","","","","",""
"","image-keyboard-response","154","115390","0.0-154.0","32Z9ZLUT1M67S8FQY8DELLKAM9COHP","A3HFZPC8QR1Y54","338431Z1FL1IVIVZ3BK6A6QS21HROA","","503","img/food5.png","76","504.99999999998545","3","1","3","1,0.7,0,1,0.7,0,0.7,0,1","",""
"","html-keyboard-response","155","115694","0.0-155.0","32Z9ZLUT1M67S8FQY8DELLKAM9COHP","A3HFZPC8QR1Y54","338431Z1FL1IVIVZ3BK6A6QS21HROA","","null","<img src=""img/food5.png"" style=""width:200px; border:14px solid green;"">","null","","","","","","",""
"","image-keyboard-response","156","116294","0.0-156.0","32Z9ZLUT1M67S8FQY8DELLKAM9COHP","A3HFZPC8QR1Y54","338431Z1FL1IVIVZ3BK6A6QS21HROA","","598.0000000000146","img/food6.png","74","600","1","1","2","1,0.7,0,1,0.7,0,0.7,0,1","",""
"","html-keyboard-response","157","116597","0.0-157.0","32Z9ZLUT1M67S8FQY8DELLKAM9COHP","A3HFZPC8QR1Y54","338431Z1FL1IVIVZ3BK6A6QS21HROA","","null","<img src=""img/food6.png"" style=""width:200px; border:14px solid green;"">","null","","","","","","",""
"","image-keyboard-response","158","117118","0.0-158.0","32Z9ZLUT1M67S8FQY8DELLKAM9COHP","A3HFZPC8QR1Y54","338431Z1FL1IVIVZ3BK6A6QS21HROA","","519.0000000000146","img/food2.png","75","521","2","1","1","1,0.7,0,1,0.7,0,0.7,0,1","",""
"","html-keyboard-response","159","117420","0.0-159.0","32Z9ZLUT1M67S8FQY8DELLKAM9COHP","A3HFZPC8QR1Y54","338431Z1FL1IVIVZ3BK6A6QS21HROA","","null","<img src=""img/food2.png"" style=""width:200px; border:14px solid green;"">","null","","","","","","",""
"","image-keyboard-response","160","117742","0.0-160.0","32Z9ZLUT1M67S8FQY8DELLKAM9COHP","A3HFZPC8QR1Y54","338431Z1FL1IVIVZ3BK6A6QS21HROA","","319","img/food2.png","75","320.00000000001455","2","1","1","1,0.7,0,1,0.7,0,0.7,0,1","",""
"","html-keyboard-response","161","118045","0.0-161.0","32Z9ZLUT1M67S8FQY8DELLKAM9COHP","A3HFZPC8QR1Y54","338431Z1FL1IVIVZ3BK6A6QS21HROA","","null","<img src=""img/food2.png"" style=""width:200px; border:14px solid green;"">","null","","","","","","",""
"","image-keyboard-response","162","120732","0.0-162.0","32Z9ZLUT1M67S8FQY8DELLKAM9COHP","A3HFZPC8QR1Y54","338431Z1FL1IVIVZ3BK6A6QS21HROA","","2685","img/food2.png","74","2687","1","1","1","1,0.7,0,1,0.7,0,0.7,0,1","",""
"","html-keyboard-response","163","121035","0.0-163.0","32Z9ZLUT1M67S8FQY8DELLKAM9COHP","A3HFZPC8QR1Y54","338431Z1FL1IVIVZ3BK6A6QS21HROA","","null","<img src=""img/food2.png"" style=""width:200px; border:14px solid green;"">","null","","","","","","",""
"","image-keyboard-response","164","128259","0.0-164.0","32Z9ZLUT1M67S8FQY8DELLKAM9COHP","A3HFZPC8QR1Y54","338431Z1FL1IVIVZ3BK6A6QS21HROA","","7221.999999999985","img/food5.png","76","7225","3","1","3","1,0.7,0,1,0.7,0,0.7,0,1","",""
"","html-keyboard-response","165","128563","0.0-165.0","32Z9ZLUT1M67S8FQY8DELLKAM9COHP","A3HFZPC8QR1Y54","338431Z1FL1IVIVZ3BK6A6QS21HROA","","null","<img src=""img/food5.png"" style=""width:200px; border:14px solid green;"">","null","","","","","","",""
"","image-keyboard-response","166","128897","0.0-166.0","32Z9ZLUT1M67S8FQY8DELLKAM9COHP","A3HFZPC8QR1Y54","338431Z1FL1IVIVZ3BK6A6QS21HROA","","332","img/food5.png","76","333","3","1","3","1,0.7,0,1,0.7,0,0.7,0,1","",""
"","html-keyboard-response","167","129201","0.0-167.0","32Z9ZLUT1M67S8FQY8DELLKAM9COHP","A3HFZPC8QR1Y54","338431Z1FL1IVIVZ3BK6A6QS21HROA","","null","<img src=""img/food5.png"" style=""width:200px; border:14px solid green;"">","null","","","","","","",""
"","image-keyboard-response","168","129978","0.0-168.0","32Z9ZLUT1M67S8FQY8DELLKAM9COHP","A3HFZPC8QR1Y54","338431Z1FL1IVIVZ3BK6A6QS21HROA","","775","img/food2.png","75","776","2","0","1","1,0.7,0,1,0.7,0,0.7,0,1","",""
"","html-keyboard-response","169","130280","0.0-169.0","32Z9ZLUT1M67S8FQY8DELLKAM9COHP","A3HFZPC8QR1Y54","338431Z1FL1IVIVZ3BK6A6QS21HROA","","null","<img src=""img/food2.png"" style=""width:200px;border:14px solid red;"">","null","","","","","","",""
"","image-keyboard-response","170","131097","0.0-170.0","32Z9ZLUT1M67S8FQY8DELLKAM9COHP","A3HFZPC8QR1Y54","338431Z1FL1IVIVZ3BK6A6QS21HROA","","814","img/food5.png","76","816","3","1","3","1,0.7,0,1,0.7,0,0.7,0,1","",""
"","html-keyboard-response","171","131401","0.0-171.0","32Z9ZLUT1M67S8FQY8DELLKAM9COHP","A3HFZPC8QR1Y54","338431Z1FL1IVIVZ3BK6A6QS21HROA","","null","<img src=""img/food5.png"" style=""width:200px; border:14px solid green;"">","null","","","","","","",""
"","image-keyboard-response","172","132186","0.0-172.0","32Z9ZLUT1M67S8FQY8DELLKAM9COHP","A3HFZPC8QR1Y54","338431Z1FL1IVIVZ3BK6A6QS21HROA","","784","img/food2.png","75","785","2","0","1","1,0.7,0,1,0.7,0,0.7,0,1","",""
"","html-keyboard-response","173","132488","0.0-173.0","32Z9ZLUT1M67S8FQY8DELLKAM9COHP","A3HFZPC8QR1Y54","338431Z1FL1IVIVZ3BK6A6QS21HROA","","null","<img src=""img/food2.png"" style=""width:200px;border:14px solid red;"">","null","","","","","","",""
"","image-keyboard-response","174","133031","0.0-174.0","32Z9ZLUT1M67S8FQY8DELLKAM9COHP","A3HFZPC8QR1Y54","338431Z1FL1IVIVZ3BK6A6QS21HROA","","540","img/food2.png","75","542","2","1","1","1,0.7,0,1,0.7,0,0.7,0,1","",""
"","html-keyboard-response","175","133333","0.0-175.0","32Z9ZLUT1M67S8FQY8DELLKAM9COHP","A3HFZPC8QR1Y54","338431Z1FL1IVIVZ3BK6A6QS21HROA","","null","<img src=""img/food2.png"" style=""width:200px; border:14px solid green;"">","null","","","","","","",""
"","image-keyboard-response","176","133975","0.0-176.0","32Z9ZLUT1M67S8FQY8DELLKAM9COHP","A3HFZPC8QR1Y54","338431Z1FL1IVIVZ3BK6A6QS21HROA","","640","img/food5.png","76","642","3","1","3","1,0.7,0,1,0.7,0,0.7,0,1","",""
"","html-keyboard-response","177","134278","0.0-177.0","32Z9ZLUT1M67S8FQY8DELLKAM9COHP","A3HFZPC8QR1Y54","338431Z1FL1IVIVZ3BK6A6QS21HROA","","null","<img src=""img/food5.png"" style=""width:200px; border:14px solid green;"">","null","","","","","","",""
"","image-keyboard-response","178","134593","0.0-178.0","32Z9ZLUT1M67S8FQY8DELLKAM9COHP","A3HFZPC8QR1Y54","338431Z1FL1IVIVZ3BK6A6QS21HROA","","313","img/food5.png","76","315","3","1","3","1,0.7,0,1,0.7,0,0.7,0,1","",""
"","html-keyboard-response","179","134897","0.0-179.0","32Z9ZLUT1M67S8FQY8DELLKAM9COHP","A3HFZPC8QR1Y54","338431Z1FL1IVIVZ3BK6A6QS21HROA","","null","<img src=""img/food5.png"" style=""width:200px; border:14px solid green;"">","null","","","","","","",""
"","image-keyboard-response","180","135257","0.0-180.0","32Z9ZLUT1M67S8FQY8DELLKAM9COHP","A3HFZPC8QR1Y54","338431Z1FL1IVIVZ3BK6A6QS21HROA","","358","img/food6.png","74","361","1","1","2","1,0.7,0,1,0.7,0,0.7,0,1","",""
"","html-keyboard-response","181","135560","0.0-181.0","32Z9ZLUT1M67S8FQY8DELLKAM9COHP","A3HFZPC8QR1Y54","338431Z1FL1IVIVZ3BK6A6QS21HROA","","null","<img src=""img/food6.png"" style=""width:200px; border:14px solid green;"">","null","","","","","","",""
"","html-keyboard-response","182","139439","0.0-182.0","32Z9ZLUT1M67S8FQY8DELLKAM9COHP","A3HFZPC8QR1Y54","338431Z1FL1IVIVZ3BK6A6QS21HROA","","","","","","","","","","",""
"","instructions","183","165521","0.0-183.0","32Z9ZLUT1M67S8FQY8DELLKAM9COHP","A3HFZPC8QR1Y54","338431Z1FL1IVIVZ3BK6A6QS21HROA","[{""page_index"":0,""viewing_time"":24632},{""page_index"":1,""viewing_time"":1450}]","26082","","","","","","","","",""
"","image-keyboard-response","184","166366","0.0-184.0","32Z9ZLUT1M67S8FQY8DELLKAM9COHP","A3HFZPC8QR1Y54","338431Z1FL1IVIVZ3BK6A6QS21HROA","","844","img/food3.png","74","845","1","1","2","1,0.7,0,1,0.7,0,0.7,0,1","false",""
"","html-keyboard-response","185","166670","0.0-185.0","32Z9ZLUT1M67S8FQY8DELLKAM9COHP","A3HFZPC8QR1Y54","338431Z1FL1IVIVZ3BK6A6QS21HROA","","null","<img src=""img/food3.png"" style=""width:200px; border:14px solid green;"">","null","","","","","","",""
"","image-keyboard-response","186","167109","0.0-187.0","32Z9ZLUT1M67S8FQY8DELLKAM9COHP","A3HFZPC8QR1Y54","338431Z1FL1IVIVZ3BK6A6QS21HROA","","435.0000000000291","img/food3.png","74","436.0000000000291","1","1","2","1,0.7,0,1,0.7,0,0.7,0,1","false",""
"","html-keyboard-response","187","167412","0.0-188.0","32Z9ZLUT1M67S8FQY8DELLKAM9COHP","A3HFZPC8QR1Y54","338431Z1FL1IVIVZ3BK6A6QS21HROA","","null","<img src=""img/food3.png"" style=""width:200px; border:14px solid green;"">","null","","","","","","",""
"","image-keyboard-response","188","167773","0.0-190.0","32Z9ZLUT1M67S8FQY8DELLKAM9COHP","A3HFZPC8QR1Y54","338431Z1FL1IVIVZ3BK6A6QS21HROA","","358","img/food3.png","74","360","1","1","2","1,0.7,0,1,0.7,0,0.7,0,1","false",""
"","html-keyboard-response","189","168076","0.0-191.0","32Z9ZLUT1M67S8FQY8DELLKAM9COHP","A3HFZPC8QR1Y54","338431Z1FL1IVIVZ3BK6A6QS21HROA","","null","<img src=""img/food3.png"" style=""width:200px; border:14px solid green;"">","null","","","","","","",""
"","image-keyboard-response","190","168583","0.0-193.0","32Z9ZLUT1M67S8FQY8DELLKAM9COHP","A3HFZPC8QR1Y54","338431Z1FL1IVIVZ3BK6A6QS21HROA","","505","img/food4.png","75","507","2","1","1","1,0.7,0,1,0.7,0,0.7,0,1","false",""
"","html-keyboard-response","191","168887","0.0-194.0","32Z9ZLUT1M67S8FQY8DELLKAM9COHP","A3HFZPC8QR1Y54","338431Z1FL1IVIVZ3BK6A6QS21HROA","","null","<img src=""img/food4.png"" style=""width:200px; border:14px solid green;"">","null","","","","","","",""
"","image-keyboard-response","192","169168","0.0-196.0","32Z9ZLUT1M67S8FQY8DELLKAM9COHP","A3HFZPC8QR1Y54","338431Z1FL1IVIVZ3BK6A6QS21HROA","","278","img/food4.png","75","280","2","1","1","1,0.7,0,1,0.7,0,0.7,0,1","false",""
"","html-keyboard-response","193","169472","0.0-197.0","32Z9ZLUT1M67S8FQY8DELLKAM9COHP","A3HFZPC8QR1Y54","338431Z1FL1IVIVZ3BK6A6QS21HROA","","null","<img src=""img/food4.png"" style=""width:200px; border:14px solid green;"">","null","","","","","","",""
"","image-keyboard-response","194","169751","0.0-199.0","32Z9ZLUT1M67S8FQY8DELLKAM9COHP","A3HFZPC8QR1Y54","338431Z1FL1IVIVZ3BK6A6QS21HROA","","277","img/food4.png","75","279.0000000000291","2","1","1","1,0.7,0,1,0.7,0,0.7,0,1","false",""
"","html-keyboard-response","195","170054","0.0-200.0","32Z9ZLUT1M67S8FQY8DELLKAM9COHP","A3HFZPC8QR1Y54","338431Z1FL1IVIVZ3BK6A6QS21HROA","","null","<img src=""img/food4.png"" style=""width:200px; border:14px solid green;"">","null","","","","","","",""
"","image-keyboard-response","196","170560","0.0-202.0","32Z9ZLUT1M67S8FQY8DELLKAM9COHP","A3HFZPC8QR1Y54","338431Z1FL1IVIVZ3BK6A6QS21HROA","","503","img/food1.png","76","505.0000000000291","3","1","3","1,0.7,0,1,0.7,0,0.7,0,1","false",""
"","html-keyboard-response","197","170863","0.0-203.0","32Z9ZLUT1M67S8FQY8DELLKAM9COHP","A3HFZPC8QR1Y54","338431Z1FL1IVIVZ3BK6A6QS21HROA","","null","<img src=""img/food1.png"" style=""width:200px; border:14px solid green;"">","null","","","","","","",""
"","image-keyboard-response","198","171148","0.0-205.0","32Z9ZLUT1M67S8FQY8DELLKAM9COHP","A3HFZPC8QR1Y54","338431Z1FL1IVIVZ3BK6A6QS21HROA","","283","img/food1.png","76","283.9999999999709","3","1","3","1,0.7,0,1,0.7,0,0.7,0,1","false",""
"","html-keyboard-response","199","171452","0.0-206.0","32Z9ZLUT1M67S8FQY8DELLKAM9COHP","A3HFZPC8QR1Y54","338431Z1FL1IVIVZ3BK6A6QS21HROA","","null","<img src=""img/food1.png"" style=""width:200px; border:14px solid green;"">","null","","","","","","",""
"","image-keyboard-response","200","171874","0.0-208.0","32Z9ZLUT1M67S8FQY8DELLKAM9COHP","A3HFZPC8QR1Y54","338431Z1FL1IVIVZ3BK6A6QS21HROA","","419.9999999999709","img/food1.png","76","422","3","1","3","1,0.7,0,1,0.7,0,0.7,0,1","false",""
"","html-keyboard-response","201","172177","0.0-209.0","32Z9ZLUT1M67S8FQY8DELLKAM9COHP","A3HFZPC8QR1Y54","338431Z1FL1IVIVZ3BK6A6QS21HROA","","null","<img src=""img/food1.png"" style=""width:200px; border:14px solid green;"">","null","","","","","","",""
"","image-keyboard-response","202","172491","0.0-211.0","32Z9ZLUT1M67S8FQY8DELLKAM9COHP","A3HFZPC8QR1Y54","338431Z1FL1IVIVZ3BK6A6QS21HROA","","312","img/food1.png","76","314","3","1","3","1,0.7,0,1,0.7,0,0.7,0,1","false",""
"","html-keyboard-response","203","172794","0.0-212.0","32Z9ZLUT1M67S8FQY8DELLKAM9COHP","A3HFZPC8QR1Y54","338431Z1FL1IVIVZ3BK6A6QS21HROA","","null","<img src=""img/food1.png"" style=""width:200px; border:14px solid green;"">","null","","","","","","",""
"","image-keyboard-response","204","173317","0.0-214.0","32Z9ZLUT1M67S8FQY8DELLKAM9COHP","A3HFZPC8QR1Y54","338431Z1FL1IVIVZ3BK6A6QS21HROA","","520.0000000000291","img/food3.png","74","522","1","1","2","1,0.7,0,1,0.7,0,0.7,0,1","false",""
"","html-keyboard-response","205","173620","0.0-215.0","32Z9ZLUT1M67S8FQY8DELLKAM9COHP","A3HFZPC8QR1Y54","338431Z1FL1IVIVZ3BK6A6QS21HROA","","null","<img src=""img/food3.png"" style=""width:200px; border:14px solid green;"">","null","","","","","","",""
"","image-keyboard-response","206","174275","0.0-217.0","32Z9ZLUT1M67S8FQY8DELLKAM9COHP","A3HFZPC8QR1Y54","338431Z1FL1IVIVZ3BK6A6QS21HROA","","653","img/food1.png","76","654","3","1","3","1,0.7,0,1,0.7,0,0.7,0,1","false",""
"","html-keyboard-response","207","174577","0.0-218.0","32Z9ZLUT1M67S8FQY8DELLKAM9COHP","A3HFZPC8QR1Y54","338431Z1FL1IVIVZ3BK6A6QS21HROA","","null","<img src=""img/food1.png"" style=""width:200px; border:14px solid green;"">","null","","","","","","",""
"","image-keyboard-response","208","175110","0.0-220.0","32Z9ZLUT1M67S8FQY8DELLKAM9COHP","A3HFZPC8QR1Y54","338431Z1FL1IVIVZ3BK6A6QS21HROA","","531","img/food3.png","74","531.9999999999709","1","1","2","1,0.7,0,1,0.7,0,0.7,0,1","false",""
"","html-keyboard-response","209","175412","0.0-221.0","32Z9ZLUT1M67S8FQY8DELLKAM9COHP","A3HFZPC8QR1Y54","338431Z1FL1IVIVZ3BK6A6QS21HROA","","null","<img src=""img/food3.png"" style=""width:200px; border:14px solid green;"">","null","","","","","","",""
"","image-keyboard-response","210","175849","0.0-223.0","32Z9ZLUT1M67S8FQY8DELLKAM9COHP","A3HFZPC8QR1Y54","338431Z1FL1IVIVZ3BK6A6QS21HROA","","435","img/food1.png","76","436","3","1","3","1,0.7,0,1,0.7,0,0.7,0,1","false",""
"","html-keyboard-response","211","176152","0.0-224.0","32Z9ZLUT1M67S8FQY8DELLKAM9COHP","A3HFZPC8QR1Y54","338431Z1FL1IVIVZ3BK6A6QS21HROA","","null","<img src=""img/food1.png"" style=""width:200px; border:14px solid green;"">","null","","","","","","",""
"","image-keyboard-response","212","176574","0.0-226.0","32Z9ZLUT1M67S8FQY8DELLKAM9COHP","A3HFZPC8QR1Y54","338431Z1FL1IVIVZ3BK6A6QS21HROA","","421","img/food3.png","74","421","1","1","2","1,0.7,0,1,0.7,0,0.7,0,1","false",""
"","html-keyboard-response","213","176877","0.0-227.0","32Z9ZLUT1M67S8FQY8DELLKAM9COHP","A3HFZPC8QR1Y54","338431Z1FL1IVIVZ3BK6A6QS21HROA","","null","<img src=""img/food3.png"" style=""width:200px; border:14px solid green;"">","null","","","","","","",""
"","image-keyboard-response","214","177218","0.0-229.0","32Z9ZLUT1M67S8FQY8DELLKAM9COHP","A3HFZPC8QR1Y54","338431Z1FL1IVIVZ3BK6A6QS21HROA","","339","img/food3.png","76","340","3","0","2","1,0.7,0,1,0.7,0,0.7,0,1","false",""
"","html-keyboard-response","215","177521","0.0-230.0","32Z9ZLUT1M67S8FQY8DELLKAM9COHP","A3HFZPC8QR1Y54","338431Z1FL1IVIVZ3BK6A6QS21HROA","","null","<img src=""img/food3.png"" style=""width:200px;border:14px solid red;"">","null","","","","","","",""
"","image-keyboard-response","216","177626","0.0-232.0","32Z9ZLUT1M67S8FQY8DELLKAM9COHP","A3HFZPC8QR1Y54","338431Z1FL1IVIVZ3BK6A6QS21HROA","","104.0000000000291","img/food1.png","74","105.0000000000291","1","0","3","1,0.7,0,1,0.7,0,0.7,0,1","false",""
"","html-keyboard-response","217","177929","0.0-233.0","32Z9ZLUT1M67S8FQY8DELLKAM9COHP","A3HFZPC8QR1Y54","338431Z1FL1IVIVZ3BK6A6QS21HROA","","null","<img src=""img/food1.png"" style=""width:200px;border:14px solid red;"">","null","","","","","","",""
"","image-keyboard-response","218","178494","0.0-235.0","32Z9ZLUT1M67S8FQY8DELLKAM9COHP","A3HFZPC8QR1Y54","338431Z1FL1IVIVZ3BK6A6QS21HROA","","563","img/food3.png","74","564","1","1","2","1,0.7,0,1,0.7,0,0.7,0,1","false",""
"","html-keyboard-response","219","178797","0.0-236.0","32Z9ZLUT1M67S8FQY8DELLKAM9COHP","A3HFZPC8QR1Y54","338431Z1FL1IVIVZ3BK6A6QS21HROA","","null","<img src=""img/food3.png"" style=""width:200px; border:14px solid green;"">","null","","","","","","",""
"","image-keyboard-response","220","179201","0.0-238.0","32Z9ZLUT1M67S8FQY8DELLKAM9COHP","A3HFZPC8QR1Y54","338431Z1FL1IVIVZ3BK6A6QS21HROA","","402","img/food1.png","76","403","3","1","3","1,0.7,0,1,0.7,0,0.7,0,1","false",""
"","html-keyboard-response","221","179504","0.0-239.0","32Z9ZLUT1M67S8FQY8DELLKAM9COHP","A3HFZPC8QR1Y54","338431Z1FL1IVIVZ3BK6A6QS21HROA","","null","<img src=""img/food1.png"" style=""width:200px; border:14px solid green;"">","null","","","","","","",""
"","image-keyboard-response","222","179881","0.0-241.0","32Z9ZLUT1M67S8FQY8DELLKAM9COHP","A3HFZPC8QR1Y54","338431Z1FL1IVIVZ3BK6A6QS21HROA","","374","img/food1.png","76","376","3","1","3","1,0.7,0,1,0.7,0,0.7,0,1","false",""
"","html-keyboard-response","223","180184","0.0-242.0","32Z9ZLUT1M67S8FQY8DELLKAM9COHP","A3HFZPC8QR1Y54","338431Z1FL1IVIVZ3BK6A6QS21HROA","","null","<img src=""img/food1.png"" style=""width:200px; border:14px solid green;"">","null","","","","","","",""
"","image-keyboard-response","224","180507","0.0-244.0","32Z9ZLUT1M67S8FQY8DELLKAM9COHP","A3HFZPC8QR1Y54","338431Z1FL1IVIVZ3BK6A6QS21HROA","","321.0000000000291","img/food1.png","76","322.9999999999709","3","1","3","1,0.7,0,1,0.7,0,0.7,0,1","false",""
"","html-keyboard-response","225","180811","0.0-245.0","32Z9ZLUT1M67S8FQY8DELLKAM9COHP","A3HFZPC8QR1Y54","338431Z1FL1IVIVZ3BK6A6QS21HROA","","null","<img src=""img/food1.png"" style=""width:200px; border:14px solid green;"">","null","","","","","","",""
"","image-keyboard-response","226","181268","0.0-247.0","32Z9ZLUT1M67S8FQY8DELLKAM9COHP","A3HFZPC8QR1Y54","338431Z1FL1IVIVZ3BK6A6QS21HROA","","455","img/food3.png","74","456","1","1","2","1,0.7,0,1,0.7,0,0.7,0,1","false",""
"","html-keyboard-response","227","181571","0.0-248.0","32Z9ZLUT1M67S8FQY8DELLKAM9COHP","A3HFZPC8QR1Y54","338431Z1FL1IVIVZ3BK6A6QS21HROA","","null","<img src=""img/food3.png"" style=""width:200px; border:14px solid green;"">","null","","","","","","",""
"","image-keyboard-response","228","182148","0.0-250.0","32Z9ZLUT1M67S8FQY8DELLKAM9COHP","A3HFZPC8QR1Y54","338431Z1FL1IVIVZ3BK6A6QS21HROA","","573","img/food4.png","75","575","2","1","1","1,0.7,0,1,0.7,0,0.7,0,1","false",""
"","html-keyboard-response","229","182452","0.0-251.0","32Z9ZLUT1M67S8FQY8DELLKAM9COHP","A3HFZPC8QR1Y54","338431Z1FL1IVIVZ3BK6A6QS21HROA","","null","<img src=""img/food4.png"" style=""width:200px; border:14px solid green;"">","null","","","","","","",""
"","image-keyboard-response","230","182756","0.0-253.0","32Z9ZLUT1M67S8FQY8DELLKAM9COHP","A3HFZPC8QR1Y54","338431Z1FL1IVIVZ3BK6A6QS21HROA","","302","img/food4.png","75","304","2","1","1","1,0.7,0,1,0.7,0,0.7,0,1","false",""
"","html-keyboard-response","231","183060","0.0-254.0","32Z9ZLUT1M67S8FQY8DELLKAM9COHP","A3HFZPC8QR1Y54","338431Z1FL1IVIVZ3BK6A6QS21HROA","","null","<img src=""img/food4.png"" style=""width:200px; border:14px solid green;"">","null","","","","","","",""
"","image-keyboard-response","232","183342","0.0-256.0","32Z9ZLUT1M67S8FQY8DELLKAM9COHP","A3HFZPC8QR1Y54","338431Z1FL1IVIVZ3BK6A6QS21HROA","","280","img/food4.png","75","281","2","1","1","1,0.7,0,1,0.7,0,0.7,0,1","false",""
"","html-keyboard-response","233","183645","0.0-257.0","32Z9ZLUT1M67S8FQY8DELLKAM9COHP","A3HFZPC8QR1Y54","338431Z1FL1IVIVZ3BK6A6QS21HROA","","null","<img src=""img/food4.png"" style=""width:200px; border:14px solid green;"">","null","","","","","","",""
"","image-keyboard-response","234","184320","0.0-259.0","32Z9ZLUT1M67S8FQY8DELLKAM9COHP","A3HFZPC8QR1Y54","338431Z1FL1IVIVZ3BK6A6QS21HROA","","673","img/food3.png","74","674","1","1","2","1,0.7,0,1,0.7,0,0.7,0,1","false",""
"","html-keyboard-response","235","184623","0.0-260.0","32Z9ZLUT1M67S8FQY8DELLKAM9COHP","A3HFZPC8QR1Y54","338431Z1FL1IVIVZ3BK6A6QS21HROA","","null","<img src=""img/food3.png"" style=""width:200px; border:14px solid green;"">","null","","","","","","",""
"","image-keyboard-response","236","185062","0.0-262.0","32Z9ZLUT1M67S8FQY8DELLKAM9COHP","A3HFZPC8QR1Y54","338431Z1FL1IVIVZ3BK6A6QS21HROA","","437","img/food4.png","75","439","2","0","1","1,0.7,0,1,0.7,0,0.7,0,1","false",""
"","html-keyboard-response","237","185366","0.0-263.0","32Z9ZLUT1M67S8FQY8DELLKAM9COHP","A3HFZPC8QR1Y54","338431Z1FL1IVIVZ3BK6A6QS21HROA","","null","<img src=""img/food4.png"" style=""width:200px;border:14px solid red;"">","null","","","","","","",""
"","image-keyboard-response","238","185788","0.0-265.0","32Z9ZLUT1M67S8FQY8DELLKAM9COHP","A3HFZPC8QR1Y54","338431Z1FL1IVIVZ3BK6A6QS21HROA","","419","img/food4.png","75","421","2","0","1","1,0.7,0,1,0.7,0,0.7,0,1","false",""
"","html-keyboard-response","239","186090","0.0-266.0","32Z9ZLUT1M67S8FQY8DELLKAM9COHP","A3HFZPC8QR1Y54","338431Z1FL1IVIVZ3BK6A6QS21HROA","","null","<img src=""img/food4.png"" style=""width:200px;border:14px solid red;"">","null","","","","","","",""
"","image-keyboard-response","240","186649","0.0-268.0","32Z9ZLUT1M67S8FQY8DELLKAM9COHP","A3HFZPC8QR1Y54","338431Z1FL1IVIVZ3BK6A6QS21HROA","","558","img/food3.png","74","558","1","1","2","1,0.7,0,1,0.7,0,0.7,0,1","false",""
"","html-keyboard-response","241","186952","0.0-269.0","32Z9ZLUT1M67S8FQY8DELLKAM9COHP","A3HFZPC8QR1Y54","338431Z1FL1IVIVZ3BK6A6QS21HROA","","null","<img src=""img/food3.png"" style=""width:200px; border:14px solid green;"">","null","","","","","","",""
"","image-keyboard-response","242","187404","0.0-271.0","32Z9ZLUT1M67S8FQY8DELLKAM9COHP","A3HFZPC8QR1Y54","338431Z1FL1IVIVZ3BK6A6QS21HROA","","450","img/food4.png","75","450.9999999999709","2","0","1","1,0.7,0,1,0.7,0,0.7,0,1","false",""
"","html-keyboard-response","243","187707","0.0-272.0","32Z9ZLUT1M67S8FQY8DELLKAM9COHP","A3HFZPC8QR1Y54","338431Z1FL1IVIVZ3BK6A6QS21HROA","","null","<img src=""img/food4.png"" style=""width:200px;border:14px solid red;"">","null","","","","","","",""
"","image-keyboard-response","244","187961","0.0-274.0","32Z9ZLUT1M67S8FQY8DELLKAM9COHP","A3HFZPC8QR1Y54","338431Z1FL1IVIVZ3BK6A6QS21HROA","","251.9999999999709","img/food4.png","75","254","2","1","1","1,0.7,0,1,0.7,0,0.7,0,1","false",""
"","html-keyboard-response","245","188264","0.0-275.0","32Z9ZLUT1M67S8FQY8DELLKAM9COHP","A3HFZPC8QR1Y54","338431Z1FL1IVIVZ3BK6A6QS21HROA","","null","<img src=""img/food4.png"" style=""width:200px; border:14px solid green;"">","null","","","","","","",""
"","image-keyboard-response","246","188698","0.0-277.0","32Z9ZLUT1M67S8FQY8DELLKAM9COHP","A3HFZPC8QR1Y54","338431Z1FL1IVIVZ3BK6A6QS21HROA","","431","img/food4.png","75","433","2","0","1","1,0.7,0,1,0.7,0,0.7,0,1","false",""
"","html-keyboard-response","247","189002","0.0-278.0","32Z9ZLUT1M67S8FQY8DELLKAM9COHP","A3HFZPC8QR1Y54","338431Z1FL1IVIVZ3BK6A6QS21HROA","","null","<img src=""img/food4.png"" style=""width:200px;border:14px solid red;"">","null","","","","","","",""
"","image-keyboard-response","248","189131","0.0-280.0","32Z9ZLUT1M67S8FQY8DELLKAM9COHP","A3HFZPC8QR1Y54","338431Z1FL1IVIVZ3BK6A6QS21HROA","","127","img/food3.png","75","128","2","1","2","1,0.7,0,1,0.7,0,0.7,0,1","false",""
"","html-keyboard-response","249","189433","0.0-281.0","32Z9ZLUT1M67S8FQY8DELLKAM9COHP","A3HFZPC8QR1Y54","338431Z1FL1IVIVZ3BK6A6QS21HROA","","null","<img src=""img/food3.png"" style=""width:200px; border:14px solid green;"">","null","","","","","","",""
"","image-keyboard-response","250","190234","0.0-283.0","32Z9ZLUT1M67S8FQY8DELLKAM9COHP","A3HFZPC8QR1Y54","338431Z1FL1IVIVZ3BK6A6QS21HROA","","798.9999999999709","img/food1.png","76","800","3","1","3","1,0.7,0,1,0.7,0,0.7,0,1","false",""
"","html-keyboard-response","251","190537","0.0-284.0","32Z9ZLUT1M67S8FQY8DELLKAM9COHP","A3HFZPC8QR1Y54","338431Z1FL1IVIVZ3BK6A6QS21HROA","","null","<img src=""img/food1.png"" style=""width:200px; border:14px solid green;"">","null","","","","","","",""
"","image-keyboard-response","252","191270","0.0-286.0","32Z9ZLUT1M67S8FQY8DELLKAM9COHP","A3HFZPC8QR1Y54","338431Z1FL1IVIVZ3BK6A6QS21HROA","","729.0000000000291","img/food4.png","75","731","2","1","1","1,0.7,0,1,0.7,0,0.7,0,1","false",""
"","html-keyboard-response","253","191573","0.0-287.0","32Z9ZLUT1M67S8FQY8DELLKAM9COHP","A3HFZPC8QR1Y54","338431Z1FL1IVIVZ3BK6A6QS21HROA","","null","<img src=""img/food4.png"" style=""width:200px; border:14px solid green;"">","null","","","","","","",""
"","image-keyboard-response","254","191864","0.0-289.0","32Z9ZLUT1M67S8FQY8DELLKAM9COHP","A3HFZPC8QR1Y54","338431Z1FL1IVIVZ3BK6A6QS21HROA","","288.0000000000291","img/food4.png","75","290","2","0","1","1,0.7,0,1,0.7,0,0.7,0,1","false",""
"","html-keyboard-response","255","192167","0.0-290.0","32Z9ZLUT1M67S8FQY8DELLKAM9COHP","A3HFZPC8QR1Y54","338431Z1FL1IVIVZ3BK6A6QS21HROA","","null","<img src=""img/food4.png"" style=""width:200px;border:14px solid red;"">","null","","","","","","",""
"","image-keyboard-response","256","192420","0.0-292.0","32Z9ZLUT1M67S8FQY8DELLKAM9COHP","A3HFZPC8QR1Y54","338431Z1FL1IVIVZ3BK6A6QS21HROA","","251","img/food3.png","75","252","2","1","2","1,0.7,0,1,0.7,0,0.7,0,1","false",""
"","html-keyboard-response","257","192722","0.0-293.0","32Z9ZLUT1M67S8FQY8DELLKAM9COHP","A3HFZPC8QR1Y54","338431Z1FL1IVIVZ3BK6A6QS21HROA","","null","<img src=""img/food3.png"" style=""width:200px; border:14px solid green;"">","null","","","","","","",""
"","image-keyboard-response","258","193509","0.0-295.0","32Z9ZLUT1M67S8FQY8DELLKAM9COHP","A3HFZPC8QR1Y54","338431Z1FL1IVIVZ3BK6A6QS21HROA","","784","img/food4.png","76","785","3","0","1","1,0.7,0,1,0.7,0,0.7,0,1","false",""
"","html-keyboard-response","259","193811","0.0-296.0","32Z9ZLUT1M67S8FQY8DELLKAM9COHP","A3HFZPC8QR1Y54","338431Z1FL1IVIVZ3BK6A6QS21HROA","","null","<img src=""img/food4.png"" style=""width:200px;border:14px solid red;"">","null","","","","","","",""
"","image-keyboard-response","260","194686","0.0-298.0","32Z9ZLUT1M67S8FQY8DELLKAM9COHP","A3HFZPC8QR1Y54","338431Z1FL1IVIVZ3BK6A6QS21HROA","","873","img/food1.png","76","873","3","1","3","1,0.7,0,1,0.7,0,0.7,0,1","false",""
"","html-keyboard-response","261","194989","0.0-299.0","32Z9ZLUT1M67S8FQY8DELLKAM9COHP","A3HFZPC8QR1Y54","338431Z1FL1IVIVZ3BK6A6QS21HROA","","null","<img src=""img/food1.png"" style=""width:200px; border:14px solid green;"">","null","","","","","","",""
"","image-keyboard-response","262","195331","0.0-301.0","32Z9ZLUT1M67S8FQY8DELLKAM9COHP","A3HFZPC8QR1Y54","338431Z1FL1IVIVZ3BK6A6QS21HROA","","340","img/food1.png","76","342","3","1","3","1,0.7,0,1,0.7,0,0.7,0,1","false",""
"","html-keyboard-response","263","195635","0.0-302.0","32Z9ZLUT1M67S8FQY8DELLKAM9COHP","A3HFZPC8QR1Y54","338431Z1FL1IVIVZ3BK6A6QS21HROA","","null","<img src=""img/food1.png"" style=""width:200px; border:14px solid green;"">","null","","","","","","",""
"","image-keyboard-response","264","196639","0.0-304.0","32Z9ZLUT1M67S8FQY8DELLKAM9COHP","A3HFZPC8QR1Y54","338431Z1FL1IVIVZ3BK6A6QS21HROA","","","img/food3.png","","1004","-1","0","2","1,0.7,0,1,0.7,0,0.7,0,1","true",""
"","html-keyboard-response","265","196942","0.0-305.0","32Z9ZLUT1M67S8FQY8DELLKAM9COHP","A3HFZPC8QR1Y54","338431Z1FL1IVIVZ3BK6A6QS21HROA","","null","<img src=""img/food3.png"" style=""width:200px;border:14px solid red;"">","null","","","","","","",""
"","html-keyboard-response","266","200504","0.0-306.0-0.0","32Z9ZLUT1M67S8FQY8DELLKAM9COHP","A3HFZPC8QR1Y54","338431Z1FL1IVIVZ3BK6A6QS21HROA","","","","","","","","","","",""
"","image-keyboard-response","267","201163","0.0-307.0","32Z9ZLUT1M67S8FQY8DELLKAM9COHP","A3HFZPC8QR1Y54","338431Z1FL1IVIVZ3BK6A6QS21HROA","","657","img/food4.png","75","659","2","1","1","1,0.7,0,1,0.7,0,0.7,0,1","false",""
"","html-keyboard-response","268","201467","0.0-308.0","32Z9ZLUT1M67S8FQY8DELLKAM9COHP","A3HFZPC8QR1Y54","338431Z1FL1IVIVZ3BK6A6QS21HROA","","null","<img src=""img/food4.png"" style=""width:200px; border:14px solid green;"">","null","","","","","","",""
"","image-keyboard-response","269","201770","0.0-310.0","32Z9ZLUT1M67S8FQY8DELLKAM9COHP","A3HFZPC8QR1Y54","338431Z1FL1IVIVZ3BK6A6QS21HROA","","300","img/food4.png","75","303","2","1","1","1,0.7,0,1,0.7,0,0.7,0,1","false",""
"","html-keyboard-response","270","202072","0.0-311.0","32Z9ZLUT1M67S8FQY8DELLKAM9COHP","A3HFZPC8QR1Y54","338431Z1FL1IVIVZ3BK6A6QS21HROA","","null","<img src=""img/food4.png"" style=""width:200px; border:14px solid green;"">","null","","","","","","",""
"","image-keyboard-response","271","202376","0.0-313.0","32Z9ZLUT1M67S8FQY8DELLKAM9COHP","A3HFZPC8QR1Y54","338431Z1FL1IVIVZ3BK6A6QS21HROA","","301.0000000000291","img/food4.png","75","303","2","0","1","1,0.7,0,1,0.7,0,0.7,0,1","false",""
"","html-keyboard-response","272","202679","0.0-314.0","32Z9ZLUT1M67S8FQY8DELLKAM9COHP","A3HFZPC8QR1Y54","338431Z1FL1IVIVZ3BK6A6QS21HROA","","null","<img src=""img/food4.png"" style=""width:200px;border:14px solid red;"">","null","","","","","","",""
"","image-keyboard-response","273","203133","0.0-316.0","32Z9ZLUT1M67S8FQY8DELLKAM9COHP","A3HFZPC8QR1Y54","338431Z1FL1IVIVZ3BK6A6QS21HROA","","449","img/food1.png","74","451","1","1","3","1,0.7,0,1,0.7,0,0.7,0,1","false",""
"","html-keyboard-response","274","203437","0.0-317.0","32Z9ZLUT1M67S8FQY8DELLKAM9COHP","A3HFZPC8QR1Y54","338431Z1FL1IVIVZ3BK6A6QS21HROA","","null","<img src=""img/food1.png"" style=""width:200px; border:14px solid green;"">","null","","","","","","",""
"","image-keyboard-response","275","203839","0.0-319.0","32Z9ZLUT1M67S8FQY8DELLKAM9COHP","A3HFZPC8QR1Y54","338431Z1FL1IVIVZ3BK6A6QS21HROA","","399","img/food4.png","76","401.0000000000291","3","0","1","1,0.7,0,1,0.7,0,0.7,0,1","false",""
"","html-keyboard-response","276","204141","0.0-320.0","32Z9ZLUT1M67S8FQY8DELLKAM9COHP","A3HFZPC8QR1Y54","338431Z1FL1IVIVZ3BK6A6QS21HROA","","null","<img src=""img/food4.png"" style=""width:200px;border:14px solid red;"">","null","","","","","","",""
"","image-keyboard-response","277","204521","0.0-322.0","32Z9ZLUT1M67S8FQY8DELLKAM9COHP","A3HFZPC8QR1Y54","338431Z1FL1IVIVZ3BK6A6QS21HROA","","379","img/food4.png","74","380","1","1","1","1,0.7,0,1,0.7,0,0.7,0,1","false",""
"","html-keyboard-response","278","204825","0.0-323.0","32Z9ZLUT1M67S8FQY8DELLKAM9COHP","A3HFZPC8QR1Y54","338431Z1FL1IVIVZ3BK6A6QS21HROA","","null","<img src=""img/food4.png"" style=""width:200px; border:14px solid green;"">","null","","","","","","",""
"","image-keyboard-response","279","205104","0.0-325.0","32Z9ZLUT1M67S8FQY8DELLKAM9COHP","A3HFZPC8QR1Y54","338431Z1FL1IVIVZ3BK6A6QS21HROA","","276.9999999999709","img/food4.png","75","279","2","0","1","1,0.7,0,1,0.7,0,0.7,0,1","false",""
"","html-keyboard-response","280","205406","0.0-326.0","32Z9ZLUT1M67S8FQY8DELLKAM9COHP","A3HFZPC8QR1Y54","338431Z1FL1IVIVZ3BK6A6QS21HROA","","null","<img src=""img/food4.png"" style=""width:200px;border:14px solid red;"">","null","","","","","","",""
"","image-keyboard-response","281","205646","0.0-328.0","32Z9ZLUT1M67S8FQY8DELLKAM9COHP","A3HFZPC8QR1Y54","338431Z1FL1IVIVZ3BK6A6QS21HROA","","237","img/food4.png","75","239","2","1","1","1,0.7,0,1,0.7,0,0.7,0,1","false",""
"","html-keyboard-response","282","205949","0.0-329.0","32Z9ZLUT1M67S8FQY8DELLKAM9COHP","A3HFZPC8QR1Y54","338431Z1FL1IVIVZ3BK6A6QS21HROA","","null","<img src=""img/food4.png"" style=""width:200px; border:14px solid green;"">","null","","","","","","",""
"","image-keyboard-response","283","206414","0.0-331.0","32Z9ZLUT1M67S8FQY8DELLKAM9COHP","A3HFZPC8QR1Y54","338431Z1FL1IVIVZ3BK6A6QS21HROA","","463","img/food1.png","74","464","1","1","3","1,0.7,0,1,0.7,0,0.7,0,1","false",""
"","html-keyboard-response","284","206717","0.0-332.0","32Z9ZLUT1M67S8FQY8DELLKAM9COHP","A3HFZPC8QR1Y54","338431Z1FL1IVIVZ3BK6A6QS21HROA","","null","<img src=""img/food1.png"" style=""width:200px; border:14px solid green;"">","null","","","","","","",""
"","image-keyboard-response","285","207360","0.0-334.0","32Z9ZLUT1M67S8FQY8DELLKAM9COHP","A3HFZPC8QR1Y54","338431Z1FL1IVIVZ3BK6A6QS21HROA","","639.9999999999709","img/food3.png","74","642","1","1","2","1,0.7,0,1,0.7,0,0.7,0,1","false",""
"","html-keyboard-response","286","207664","0.0-335.0","32Z9ZLUT1M67S8FQY8DELLKAM9COHP","A3HFZPC8QR1Y54","338431Z1FL1IVIVZ3BK6A6QS21HROA","","null","<img src=""img/food3.png"" style=""width:200px; border:14px solid green;"">","null","","","","","","",""
"","image-keyboard-response","287","207971","0.0-337.0","32Z9ZLUT1M67S8FQY8DELLKAM9COHP","A3HFZPC8QR1Y54","338431Z1FL1IVIVZ3BK6A6QS21HROA","","303.0000000000291","img/food3.png","74","305","1","1","2","1,0.7,0,1,0.7,0,0.7,0,1","false",""
"","html-keyboard-response","288","208275","0.0-338.0","32Z9ZLUT1M67S8FQY8DELLKAM9COHP","A3HFZPC8QR1Y54","338431Z1FL1IVIVZ3BK6A6QS21HROA","","null","<img src=""img/food3.png"" style=""width:200px; border:14px solid green;"">","null","","","","","","",""
"","image-keyboard-response","289","208575","0.0-340.0","32Z9ZLUT1M67S8FQY8DELLKAM9COHP","A3HFZPC8QR1Y54","338431Z1FL1IVIVZ3BK6A6QS21HROA","","298","img/food3.png","74","299","1","1","2","1,0.7,0,1,0.7,0,0.7,0,1","false",""
"","html-keyboard-response","290","208878","0.0-341.0","32Z9ZLUT1M67S8FQY8DELLKAM9COHP","A3HFZPC8QR1Y54","338431Z1FL1IVIVZ3BK6A6QS21HROA","","null","<img src=""img/food3.png"" style=""width:200px; border:14px solid green;"">","null","","","","","","",""
"","image-keyboard-response","291","209249","0.0-343.0","32Z9ZLUT1M67S8FQY8DELLKAM9COHP","A3HFZPC8QR1Y54","338431Z1FL1IVIVZ3BK6A6QS21HROA","","366.9999999999709","img/food1.png","76","369","3","1","3","1,0.7,0,1,0.7,0,0.7,0,1","false",""
"","html-keyboard-response","292","209552","0.0-344.0","32Z9ZLUT1M67S8FQY8DELLKAM9COHP","A3HFZPC8QR1Y54","338431Z1FL1IVIVZ3BK6A6QS21HROA","","null","<img src=""img/food1.png"" style=""width:200px; border:14px solid green;"">","null","","","","","","",""
"","image-keyboard-response","293","209920","0.0-346.0","32Z9ZLUT1M67S8FQY8DELLKAM9COHP","A3HFZPC8QR1Y54","338431Z1FL1IVIVZ3BK6A6QS21HROA","","365","img/food1.png","76","366.9999999999709","3","1","3","1,0.7,0,1,0.7,0,0.7,0,1","false",""
"","html-keyboard-response","294","210223","0.0-347.0","32Z9ZLUT1M67S8FQY8DELLKAM9COHP","A3HFZPC8QR1Y54","338431Z1FL1IVIVZ3BK6A6QS21HROA","","null","<img src=""img/food1.png"" style=""width:200px; border:14px solid green;"">","null","","","","","","",""
"","image-keyboard-response","295","210556","0.0-349.0","32Z9ZLUT1M67S8FQY8DELLKAM9COHP","A3HFZPC8QR1Y54","338431Z1FL1IVIVZ3BK6A6QS21HROA","","331","img/food1.png","76","333","3","1","3","1,0.7,0,1,0.7,0,0.7,0,1","false",""
"","html-keyboard-response","296","210860","0.0-350.0","32Z9ZLUT1M67S8FQY8DELLKAM9COHP","A3HFZPC8QR1Y54","338431Z1FL1IVIVZ3BK6A6QS21HROA","","null","<img src=""img/food1.png"" style=""width:200px; border:14px solid green;"">","null","","","","","","",""
"","image-keyboard-response","297","211407","0.0-352.0","32Z9ZLUT1M67S8FQY8DELLKAM9COHP","A3HFZPC8QR1Y54","338431Z1FL1IVIVZ3BK6A6QS21HROA","","545","img/food3.png","74","547","1","1","2","1,0.7,0,1,0.7,0,0.7,0,1","false",""
"","html-keyboard-response","298","211711","0.0-353.0","32Z9ZLUT1M67S8FQY8DELLKAM9COHP","A3HFZPC8QR1Y54","338431Z1FL1IVIVZ3BK6A6QS21HROA","","null","<img src=""img/food3.png"" style=""width:200px; border:14px solid green;"">","null","","","","","","",""
"","image-keyboard-response","299","212008","0.0-355.0","32Z9ZLUT1M67S8FQY8DELLKAM9COHP","A3HFZPC8QR1Y54","338431Z1FL1IVIVZ3BK6A6QS21HROA","","294","img/food3.png","74","296","1","1","2","1,0.7,0,1,0.7,0,0.7,0,1","false",""
"","html-keyboard-response","300","212311","0.0-356.0","32Z9ZLUT1M67S8FQY8DELLKAM9COHP","A3HFZPC8QR1Y54","338431Z1FL1IVIVZ3BK6A6QS21HROA","","null","<img src=""img/food3.png"" style=""width:200px; border:14px solid green;"">","null","","","","","","",""
"","image-keyboard-response","301","212878","0.0-358.0","32Z9ZLUT1M67S8FQY8DELLKAM9COHP","A3HFZPC8QR1Y54","338431Z1FL1IVIVZ3BK6A6QS21HROA","","566","img/food4.png","75","567","2","1","1","1,0.7,0,1,0.7,0,0.7,0,1","false",""
"","html-keyboard-response","302","213181","0.0-359.0","32Z9ZLUT1M67S8FQY8DELLKAM9COHP","A3HFZPC8QR1Y54","338431Z1FL1IVIVZ3BK6A6QS21HROA","","null","<img src=""img/food4.png"" style=""width:200px; border:14px solid green;"">","null","","","","","","",""
"","image-keyboard-response","303","213556","0.0-361.0","32Z9ZLUT1M67S8FQY8DELLKAM9COHP","A3HFZPC8QR1Y54","338431Z1FL1IVIVZ3BK6A6QS21HROA","","371.9999999999709","img/food3.png","74","374","1","1","2","1,0.7,0,1,0.7,0,0.7,0,1","false",""
"","html-keyboard-response","304","213859","0.0-362.0","32Z9ZLUT1M67S8FQY8DELLKAM9COHP","A3HFZPC8QR1Y54","338431Z1FL1IVIVZ3BK6A6QS21HROA","","null","<img src=""img/food3.png"" style=""width:200px; border:14px solid green;"">","null","","","","","","",""
"","image-keyboard-response","305","214179","0.0-364.0","32Z9ZLUT1M67S8FQY8DELLKAM9COHP","A3HFZPC8QR1Y54","338431Z1FL1IVIVZ3BK6A6QS21HROA","","317","img/food1.png","75","320","2","0","3","1,0.7,0,1,0.7,0,0.7,0,1","false",""
"","html-keyboard-response","306","214483","0.0-365.0","32Z9ZLUT1M67S8FQY8DELLKAM9COHP","A3HFZPC8QR1Y54","338431Z1FL1IVIVZ3BK6A6QS21HROA","","null","<img src=""img/food1.png"" style=""width:200px;border:14px solid red;"">","null","","","","","","",""
"","image-keyboard-response","307","214832","0.0-367.0","32Z9ZLUT1M67S8FQY8DELLKAM9COHP","A3HFZPC8QR1Y54","338431Z1FL1IVIVZ3BK6A6QS21HROA","","347","img/food3.png","74","349.0000000000291","1","1","2","1,0.7,0,1,0.7,0,0.7,0,1","false",""
"","html-keyboard-response","308","215137","0.0-368.0","32Z9ZLUT1M67S8FQY8DELLKAM9COHP","A3HFZPC8QR1Y54","338431Z1FL1IVIVZ3BK6A6QS21HROA","","null","<img src=""img/food3.png"" style=""width:200px; border:14px solid green;"">","null","","","","","","",""
"","image-keyboard-response","309","215497","0.0-370.0","32Z9ZLUT1M67S8FQY8DELLKAM9COHP","A3HFZPC8QR1Y54","338431Z1FL1IVIVZ3BK6A6QS21HROA","","358","img/food1.png","74","360","1","1","3","1,0.7,0,1,0.7,0,0.7,0,1","false",""
"","html-keyboard-response","310","215800","0.0-371.0","32Z9ZLUT1M67S8FQY8DELLKAM9COHP","A3HFZPC8QR1Y54","338431Z1FL1IVIVZ3BK6A6QS21HROA","","null","<img src=""img/food1.png"" style=""width:200px; border:14px solid green;"">","null","","","","","","",""
"","image-keyboard-response","311","216200","0.0-373.0","32Z9ZLUT1M67S8FQY8DELLKAM9COHP","A3HFZPC8QR1Y54","338431Z1FL1IVIVZ3BK6A6QS21HROA","","397.9999999999709","img/food3.png","74","399","1","1","2","1,0.7,0,1,0.7,0,0.7,0,1","false",""
"","html-keyboard-response","312","216503","0.0-374.0","32Z9ZLUT1M67S8FQY8DELLKAM9COHP","A3HFZPC8QR1Y54","338431Z1FL1IVIVZ3BK6A6QS21HROA","","null","<img src=""img/food3.png"" style=""width:200px; border:14px solid green;"">","null","","","","","","",""
"","image-keyboard-response","313","217087","0.0-376.0","32Z9ZLUT1M67S8FQY8DELLKAM9COHP","A3HFZPC8QR1Y54","338431Z1FL1IVIVZ3BK6A6QS21HROA","","582","img/food4.png","75","585.0000000000291","2","0","1","1,0.7,0,1,0.7,0,0.7,0,1","false",""
"","html-keyboard-response","314","217391","0.0-377.0","32Z9ZLUT1M67S8FQY8DELLKAM9COHP","A3HFZPC8QR1Y54","338431Z1FL1IVIVZ3BK6A6QS21HROA","","null","<img src=""img/food4.png"" style=""width:200px;border:14px solid red;"">","null","","","","","","",""
"","image-keyboard-response","315","217913","0.0-379.0","32Z9ZLUT1M67S8FQY8DELLKAM9COHP","A3HFZPC8QR1Y54","338431Z1FL1IVIVZ3BK6A6QS21HROA","","519","img/food3.png","74","520.9999999999709","1","1","2","1,0.7,0,1,0.7,0,0.7,0,1","false",""
"","html-keyboard-response","316","218216","0.0-380.0","32Z9ZLUT1M67S8FQY8DELLKAM9COHP","A3HFZPC8QR1Y54","338431Z1FL1IVIVZ3BK6A6QS21HROA","","null","<img src=""img/food3.png"" style=""width:200px; border:14px solid green;"">","null","","","","","","",""
"","image-keyboard-response","317","218626","0.0-382.0","32Z9ZLUT1M67S8FQY8DELLKAM9COHP","A3HFZPC8QR1Y54","338431Z1FL1IVIVZ3BK6A6QS21HROA","","408","img/food4.png","75","410","2","1","1","1,0.7,0,1,0.7,0,0.7,0,1","false",""
"","html-keyboard-response","318","218929","0.0-383.0","32Z9ZLUT1M67S8FQY8DELLKAM9COHP","A3HFZPC8QR1Y54","338431Z1FL1IVIVZ3BK6A6QS21HROA","","null","<img src=""img/food4.png"" style=""width:200px; border:14px solid green;"">","null","","","","","","",""
"","image-keyboard-response","319","219212","0.0-385.0","32Z9ZLUT1M67S8FQY8DELLKAM9COHP","A3HFZPC8QR1Y54","338431Z1FL1IVIVZ3BK6A6QS21HROA","","279","img/food4.png","75","281","2","0","1","1,0.7,0,1,0.7,0,0.7,0,1","false",""
"","html-keyboard-response","320","219514","0.0-386.0","32Z9ZLUT1M67S8FQY8DELLKAM9COHP","A3HFZPC8QR1Y54","338431Z1FL1IVIVZ3BK6A6QS21HROA","","null","<img src=""img/food4.png"" style=""width:200px;border:14px solid red;"">","null","","","","","","",""
"","image-keyboard-response","321","219989","0.0-388.0","32Z9ZLUT1M67S8FQY8DELLKAM9COHP","A3HFZPC8QR1Y54","338431Z1FL1IVIVZ3BK6A6QS21HROA","","473","img/food3.png","75","474","2","0","2","1,0.7,0,1,0.7,0,0.7,0,1","false",""
"","html-keyboard-response","322","220292","0.0-389.0","32Z9ZLUT1M67S8FQY8DELLKAM9COHP","A3HFZPC8QR1Y54","338431Z1FL1IVIVZ3BK6A6QS21HROA","","null","<img src=""img/food3.png"" style=""width:200px;border:14px solid red;"">","null","","","","","","",""
"","image-keyboard-response","323","220486","0.0-391.0","32Z9ZLUT1M67S8FQY8DELLKAM9COHP","A3HFZPC8QR1Y54","338431Z1FL1IVIVZ3BK6A6QS21HROA","","192","img/food4.png","74","194","1","1","1","1,0.7,0,1,0.7,0,0.7,0,1","false",""
"","html-keyboard-response","324","220789","0.0-392.0","32Z9ZLUT1M67S8FQY8DELLKAM9COHP","A3HFZPC8QR1Y54","338431Z1FL1IVIVZ3BK6A6QS21HROA","","null","<img src=""img/food4.png"" style=""width:200px; border:14px solid green;"">","null","","","","","","",""
"","image-keyboard-response","325","221361","0.0-394.0","32Z9ZLUT1M67S8FQY8DELLKAM9COHP","A3HFZPC8QR1Y54","338431Z1FL1IVIVZ3BK6A6QS21HROA","","570","img/food1.png","76","571","3","1","3","1,0.7,0,1,0.7,0,0.7,0,1","false",""
"","html-keyboard-response","326","221664","0.0-395.0","32Z9ZLUT1M67S8FQY8DELLKAM9COHP","A3HFZPC8QR1Y54","338431Z1FL1IVIVZ3BK6A6QS21HROA","","null","<img src=""img/food1.png"" style=""width:200px; border:14px solid green;"">","null","","","","","","",""
"","image-keyboard-response","327","221996","0.0-397.0","32Z9ZLUT1M67S8FQY8DELLKAM9COHP","A3HFZPC8QR1Y54","338431Z1FL1IVIVZ3BK6A6QS21HROA","","330","img/food1.png","76","332","3","1","3","1,0.7,0,1,0.7,0,0.7,0,1","false",""
"","html-keyboard-response","328","222300","0.0-398.0","32Z9ZLUT1M67S8FQY8DELLKAM9COHP","A3HFZPC8QR1Y54","338431Z1FL1IVIVZ3BK6A6QS21HROA","","null","<img src=""img/food1.png"" style=""width:200px; border:14px solid green;"">","null","","","","","","",""
"","image-keyboard-response","329","222706","0.0-400.0","32Z9ZLUT1M67S8FQY8DELLKAM9COHP","A3HFZPC8QR1Y54","338431Z1FL1IVIVZ3BK6A6QS21HROA","","402.9999999999709","img/food1.png","76","406","3","1","3","1,0.7,0,1,0.7,0,0.7,0,1","false",""
"","html-keyboard-response","330","223010","0.0-401.0","32Z9ZLUT1M67S8FQY8DELLKAM9COHP","A3HFZPC8QR1Y54","338431Z1FL1IVIVZ3BK6A6QS21HROA","","null","<img src=""img/food1.png"" style=""width:200px; border:14px solid green;"">","null","","","","","","",""
"","image-keyboard-response","331","223311","0.0-403.0","32Z9ZLUT1M67S8FQY8DELLKAM9COHP","A3HFZPC8QR1Y54","338431Z1FL1IVIVZ3BK6A6QS21HROA","","298","img/food1.png","76","299.9999999999709","3","1","3","1,0.7,0,1,0.7,0,0.7,0,1","false",""
"","html-keyboard-response","332","223614","0.0-404.0","32Z9ZLUT1M67S8FQY8DELLKAM9COHP","A3HFZPC8QR1Y54","338431Z1FL1IVIVZ3BK6A6QS21HROA","","null","<img src=""img/food1.png"" style=""width:200px; border:14px solid green;"">","null","","","","","","",""
"","image-keyboard-response","333","223932","0.0-406.0","32Z9ZLUT1M67S8FQY8DELLKAM9COHP","A3HFZPC8QR1Y54","338431Z1FL1IVIVZ3BK6A6QS21HROA","","315","img/food1.png","76","317","3","1","3","1,0.7,0,1,0.7,0,0.7,0,1","false",""
"","html-keyboard-response","334","224236","0.0-407.0","32Z9ZLUT1M67S8FQY8DELLKAM9COHP","A3HFZPC8QR1Y54","338431Z1FL1IVIVZ3BK6A6QS21HROA","","null","<img src=""img/food1.png"" style=""width:200px; border:14px solid green;"">","null","","","","","","",""
"","image-keyboard-response","335","224702","0.0-409.0","32Z9ZLUT1M67S8FQY8DELLKAM9COHP","A3HFZPC8QR1Y54","338431Z1FL1IVIVZ3BK6A6QS21HROA","","464","img/food3.png","74","466","1","1","2","1,0.7,0,1,0.7,0,0.7,0,1","false",""
"","html-keyboard-response","336","225005","0.0-410.0","32Z9ZLUT1M67S8FQY8DELLKAM9COHP","A3HFZPC8QR1Y54","338431Z1FL1IVIVZ3BK6A6QS21HROA","","null","<img src=""img/food3.png"" style=""width:200px; border:14px solid green;"">","null","","","","","","",""
"","image-keyboard-response","337","225598","0.0-412.0","32Z9ZLUT1M67S8FQY8DELLKAM9COHP","A3HFZPC8QR1Y54","338431Z1FL1IVIVZ3BK6A6QS21HROA","","591","img/food4.png","75","592","2","1","1","1,0.7,0,1,0.7,0,0.7,0,1","false",""
"","html-keyboard-response","338","225902","0.0-413.0","32Z9ZLUT1M67S8FQY8DELLKAM9COHP","A3HFZPC8QR1Y54","338431Z1FL1IVIVZ3BK6A6QS21HROA","","null","<img src=""img/food4.png"" style=""width:200px; border:14px solid green;"">","null","","","","","","",""
"","image-keyboard-response","339","226375","0.0-415.0","32Z9ZLUT1M67S8FQY8DELLKAM9COHP","A3HFZPC8QR1Y54","338431Z1FL1IVIVZ3BK6A6QS21HROA","","470","img/food3.png","74","472","1","1","2","1,0.7,0,1,0.7,0,0.7,0,1","false",""
"","html-keyboard-response","340","226679","0.0-416.0","32Z9ZLUT1M67S8FQY8DELLKAM9COHP","A3HFZPC8QR1Y54","338431Z1FL1IVIVZ3BK6A6QS21HROA","","null","<img src=""img/food3.png"" style=""width:200px; border:14px solid green;"">","null","","","","","","",""
"","image-keyboard-response","341","226995","0.0-418.0","32Z9ZLUT1M67S8FQY8DELLKAM9COHP","A3HFZPC8QR1Y54","338431Z1FL1IVIVZ3BK6A6QS21HROA","","312","img/food3.png","74","314","1","1","2","1,0.7,0,1,0.7,0,0.7,0,1","false",""
"","html-keyboard-response","342","227298","0.0-419.0","32Z9ZLUT1M67S8FQY8DELLKAM9COHP","A3HFZPC8QR1Y54","338431Z1FL1IVIVZ3BK6A6QS21HROA","","null","<img src=""img/food3.png"" style=""width:200px; border:14px solid green;"">","null","","","","","","",""
"","image-keyboard-response","343","227943","0.0-421.0","32Z9ZLUT1M67S8FQY8DELLKAM9COHP","A3HFZPC8QR1Y54","338431Z1FL1IVIVZ3BK6A6QS21HROA","","642","img/food1.png","76","644","3","1","3","1,0.7,0,1,0.7,0,0.7,0,1","false",""
"","html-keyboard-response","344","228246","0.0-422.0","32Z9ZLUT1M67S8FQY8DELLKAM9COHP","A3HFZPC8QR1Y54","338431Z1FL1IVIVZ3BK6A6QS21HROA","","null","<img src=""img/food1.png"" style=""width:200px; border:14px solid green;"">","null","","","","","","",""
"","image-keyboard-response","345","228679","0.0-424.0","32Z9ZLUT1M67S8FQY8DELLKAM9COHP","A3HFZPC8QR1Y54","338431Z1FL1IVIVZ3BK6A6QS21HROA","","430","img/food3.png","74","432","1","1","2","1,0.7,0,1,0.7,0,0.7,0,1","false",""
"","html-keyboard-response","346","228984","0.0-425.0","32Z9ZLUT1M67S8FQY8DELLKAM9COHP","A3HFZPC8QR1Y54","338431Z1FL1IVIVZ3BK6A6QS21HROA","","null","<img src=""img/food3.png"" style=""width:200px; border:14px solid green;"">","null","","","","","","",""
"","image-keyboard-response","347","229303","0.0-427.0","32Z9ZLUT1M67S8FQY8DELLKAM9COHP","A3HFZPC8QR1Y54","338431Z1FL1IVIVZ3BK6A6QS21HROA","","315","img/food3.png","74","317","1","1","2","1,0.7,0,1,0.7,0,0.7,0,1","false",""
"","html-keyboard-response","348","229607","0.0-428.0","32Z9ZLUT1M67S8FQY8DELLKAM9COHP","A3HFZPC8QR1Y54","338431Z1FL1IVIVZ3BK6A6QS21HROA","","null","<img src=""img/food3.png"" style=""width:200px; border:14px solid green;"">","null","","","","","","",""
"","image-keyboard-response","349","229974","0.0-430.0","32Z9ZLUT1M67S8FQY8DELLKAM9COHP","A3HFZPC8QR1Y54","338431Z1FL1IVIVZ3BK6A6QS21HROA","","364","img/food1.png","76","366.0000000000291","3","1","3","1,0.7,0,1,0.7,0,0.7,0,1","false",""
"","html-keyboard-response","350","230278","0.0-431.0","32Z9ZLUT1M67S8FQY8DELLKAM9COHP","A3HFZPC8QR1Y54","338431Z1FL1IVIVZ3BK6A6QS21HROA","","null","<img src=""img/food1.png"" style=""width:200px; border:14px solid green;"">","null","","","","","","",""
"","image-keyboard-response","351","230563","0.0-433.0","32Z9ZLUT1M67S8FQY8DELLKAM9COHP","A3HFZPC8QR1Y54","338431Z1FL1IVIVZ3BK6A6QS21HROA","","283","img/food1.png","76","283.9999999999709","3","1","3","1,0.7,0,1,0.7,0,0.7,0,1","false",""
"","html-keyboard-response","352","230866","0.0-434.0","32Z9ZLUT1M67S8FQY8DELLKAM9COHP","A3HFZPC8QR1Y54","338431Z1FL1IVIVZ3BK6A6QS21HROA","","null","<img src=""img/food1.png"" style=""width:200px; border:14px solid green;"">","null","","","","","","",""
"","image-keyboard-response","353","231408","0.0-436.0","32Z9ZLUT1M67S8FQY8DELLKAM9COHP","A3HFZPC8QR1Y54","338431Z1FL1IVIVZ3BK6A6QS21HROA","","539","img/food4.png","75","539.9999999999709","2","1","1","1,0.7,0,1,0.7,0,0.7,0,1","false",""
"","html-keyboard-response","354","231711","0.0-437.0","32Z9ZLUT1M67S8FQY8DELLKAM9COHP","A3HFZPC8QR1Y54","338431Z1FL1IVIVZ3BK6A6QS21HROA","","null","<img src=""img/food4.png"" style=""width:200px; border:14px solid green;"">","null","","","","","","",""
"","image-keyboard-response","355","231995","0.0-439.0","32Z9ZLUT1M67S8FQY8DELLKAM9COHP","A3HFZPC8QR1Y54","338431Z1FL1IVIVZ3BK6A6QS21HROA","","281.9999999999709","img/food4.png","75","284","2","1","1","1,0.7,0,1,0.7,0,0.7,0,1","false",""
"","html-keyboard-response","356","232297","0.0-440.0","32Z9ZLUT1M67S8FQY8DELLKAM9COHP","A3HFZPC8QR1Y54","338431Z1FL1IVIVZ3BK6A6QS21HROA","","null","<img src=""img/food4.png"" style=""width:200px; border:14px solid green;"">","null","","","","","","",""
"","image-keyboard-response","357","232800","0.0-442.0","32Z9ZLUT1M67S8FQY8DELLKAM9COHP","A3HFZPC8QR1Y54","338431Z1FL1IVIVZ3BK6A6QS21HROA","","499","img/food3.png","74","502","1","1","2","1,0.7,0,1,0.7,0,0.7,0,1","false",""
"","html-keyboard-response","358","233103","0.0-443.0","32Z9ZLUT1M67S8FQY8DELLKAM9COHP","A3HFZPC8QR1Y54","338431Z1FL1IVIVZ3BK6A6QS21HROA","","null","<img src=""img/food3.png"" style=""width:200px; border:14px solid green;"">","null","","","","","","",""
"","image-keyboard-response","359","233670","0.0-445.0","32Z9ZLUT1M67S8FQY8DELLKAM9COHP","A3HFZPC8QR1Y54","338431Z1FL1IVIVZ3BK6A6QS21HROA","","565","img/food4.png","75","566","2","0","1","1,0.7,0,1,0.7,0,0.7,0,1","false",""
"","html-keyboard-response","360","233973","0.0-446.0","32Z9ZLUT1M67S8FQY8DELLKAM9COHP","A3HFZPC8QR1Y54","338431Z1FL1IVIVZ3BK6A6QS21HROA","","null","<img src=""img/food4.png"" style=""width:200px;border:14px solid red;"">","null","","","","","","",""
"","image-keyboard-response","361","234549","0.0-448.0","32Z9ZLUT1M67S8FQY8DELLKAM9COHP","A3HFZPC8QR1Y54","338431Z1FL1IVIVZ3BK6A6QS21HROA","","573.9999999999709","img/food1.png","76","576","3","1","3","1,0.7,0,1,0.7,0,0.7,0,1","false",""
"","html-keyboard-response","362","234852","0.0-449.0","32Z9ZLUT1M67S8FQY8DELLKAM9COHP","A3HFZPC8QR1Y54","338431Z1FL1IVIVZ3BK6A6QS21HROA","","null","<img src=""img/food1.png"" style=""width:200px; border:14px solid green;"">","null","","","","","","",""
"","image-keyboard-response","363","235197","0.0-451.0","32Z9ZLUT1M67S8FQY8DELLKAM9COHP","A3HFZPC8QR1Y54","338431Z1FL1IVIVZ3BK6A6QS21HROA","","342","img/food1.png","76","344","3","1","3","1,0.7,0,1,0.7,0,0.7,0,1","false",""
"","html-keyboard-response","364","235501","0.0-452.0","32Z9ZLUT1M67S8FQY8DELLKAM9COHP","A3HFZPC8QR1Y54","338431Z1FL1IVIVZ3BK6A6QS21HROA","","null","<img src=""img/food1.png"" style=""width:200px; border:14px solid green;"">","null","","","","","","",""
"","instructions","365","239488","0.0-454.0","32Z9ZLUT1M67S8FQY8DELLKAM9COHP","A3HFZPC8QR1Y54","338431Z1FL1IVIVZ3BK6A6QS21HROA","[{""page_index"":0,""viewing_time"":3985}]","3985","","","","","","","","",""
"","survey-text","366","242957","0.0-455.0","32Z9ZLUT1M67S8FQY8DELLKAM9COHP","A3HFZPC8QR1Y54","338431Z1FL1IVIVZ3BK6A6QS21HROA","","3456.000000000029","","","","","","","","","{""Q0"":""A3HFZPC8QR1Y54""}"
