"success","trial_type","trial_index","time_elapsed","internal_node_id","assignmentID","mturkID","hitID","view_history","rt","stimulus","key_press","reactionTime","a","r","s","cond","reward_cond","reward_cond_actual","reward_matrix_idx","warning","responses"
"true","fullscreen","0","19596","0.0-0.0","3FK0YFF9P0270TJ749GWVE5RRJ9VVI","A3HVFSD8K94SOR","3HUR21WDDUBEMSLDIXZW1FAIHW8YX3","","","","","","","","","","","","","",""
"","instructions","1","111370","0.0-1.0","3FK0YFF9P0270TJ749GWVE5RRJ9VVI","A3HVFSD8K94SOR","3HUR21WDDUBEMSLDIXZW1FAIHW8YX3","[{""page_index"":0,""viewing_time"":7581},{""page_index"":1,""viewing_time"":5899},{""page_index"":2,""viewing_time"":12197},{""page_index"":3,""viewing_time"":12578},{""page_index"":4,""viewing_time"":10364},{""page_index"":5,""viewing_time"":29145},{""page_index"":6,""viewing_time"":14008}]","91772","","","","","","","","","","","",""
"","image-keyboard-response","2","115865","0.0-2.0","3FK0YFF9P0270TJ749GWVE5RRJ9VVI","A3HVFSD8K94SOR","3HUR21WDDUBEMSLDIXZW1FAIHW8YX3","","4490","img/food2.png","75","4493","2","0","1","1","1,0.5,0,1,0.5,0,0.5,0,1","0.5,0,1,0.5,0,1,0,1,0.5","2","",""
"","html-keyboard-response","3","116176","0.0-3.0","3FK0YFF9P0270TJ749GWVE5RRJ9VVI","A3HVFSD8K94SOR","3HUR21WDDUBEMSLDIXZW1FAIHW8YX3","","null","<img src=""img/food2.png"" style=""width:200px;border:14px solid red;"">","null","","","","","","","","","",""
"","image-keyboard-response","4","118421","0.0-4.0","3FK0YFF9P0270TJ749GWVE5RRJ9VVI","A3HVFSD8K94SOR","3HUR21WDDUBEMSLDIXZW1FAIHW8YX3","","2243","img/food4.png","74","2244","1","0","3","1","1,0.5,0,1,0.5,0,0.5,0,1","0.5,0,1,0.5,0,1,0,1,0.5","2","",""
"","html-keyboard-response","5","118726","0.0-5.0","3FK0YFF9P0270TJ749GWVE5RRJ9VVI","A3HVFSD8K94SOR","3HUR21WDDUBEMSLDIXZW1FAIHW8YX3","","null","<img src=""img/food4.png"" style=""width:200px;border:14px solid red;"">","null","","","","","","","","","",""
"","image-keyboard-response","6","120304","0.0-6.0","3FK0YFF9P0270TJ749GWVE5RRJ9VVI","A3HVFSD8K94SOR","3HUR21WDDUBEMSLDIXZW1FAIHW8YX3","","1577","img/food2.png","74","1578","1","0","1","1","1,0.5,0,1,0.5,0,0.5,0,1","0.5,0,1,0.5,0,1,0,1,0.5","2","",""
"","html-keyboard-response","7","120608","0.0-7.0","3FK0YFF9P0270TJ749GWVE5RRJ9VVI","A3HVFSD8K94SOR","3HUR21WDDUBEMSLDIXZW1FAIHW8YX3","","null","<img src=""img/food2.png"" style=""width:200px;border:14px solid red;"">","null","","","","","","","","","",""
"","image-keyboard-response","8","122406","0.0-8.0","3FK0YFF9P0270TJ749GWVE5RRJ9VVI","A3HVFSD8K94SOR","3HUR21WDDUBEMSLDIXZW1FAIHW8YX3","","1797","img/food2.png","76","1798","3","1","1","1","1,0.5,0,1,0.5,0,0.5,0,1","0.5,0,1,0.5,0,1,0,1,0.5","2","",""
"","html-keyboard-response","9","122720","0.0-9.0","3FK0YFF9P0270TJ749GWVE5RRJ9VVI","A3HVFSD8K94SOR","3HUR21WDDUBEMSLDIXZW1FAIHW8YX3","","null","<img src=""img/food2.png"" style=""width:200px; border:14px solid green;"">","null","","","","","","","","","",""
"","image-keyboard-response","10","125273","0.0-10.0","3FK0YFF9P0270TJ749GWVE5RRJ9VVI","A3HVFSD8K94SOR","3HUR21WDDUBEMSLDIXZW1FAIHW8YX3","","2552","img/food1.png","75","2553","2","0","2","1","1,0.5,0,1,0.5,0,0.5,0,1","0.5,0,1,0.5,0,1,0,1,0.5","2","",""
"","html-keyboard-response","11","125591","0.0-11.0","3FK0YFF9P0270TJ749GWVE5RRJ9VVI","A3HVFSD8K94SOR","3HUR21WDDUBEMSLDIXZW1FAIHW8YX3","","null","<img src=""img/food1.png"" style=""width:200px;border:14px solid red;"">","null","","","","","","","","","",""
"","image-keyboard-response","12","126712","0.0-12.0","3FK0YFF9P0270TJ749GWVE5RRJ9VVI","A3HVFSD8K94SOR","3HUR21WDDUBEMSLDIXZW1FAIHW8YX3","","1121","img/food1.png","74","1122","1","1","2","1","1,0.5,0,1,0.5,0,0.5,0,1","0.5,0,1,0.5,0,1,0,1,0.5","2","",""
"","html-keyboard-response","13","127015","0.0-13.0","3FK0YFF9P0270TJ749GWVE5RRJ9VVI","A3HVFSD8K94SOR","3HUR21WDDUBEMSLDIXZW1FAIHW8YX3","","null","<img src=""img/food1.png"" style=""width:200px; border:14px solid green;"">","null","","","","","","","","","",""
"","image-keyboard-response","14","128254","0.0-14.0","3FK0YFF9P0270TJ749GWVE5RRJ9VVI","A3HVFSD8K94SOR","3HUR21WDDUBEMSLDIXZW1FAIHW8YX3","","1238","img/food1.png","74","1239","1","1","2","1","1,0.5,0,1,0.5,0,0.5,0,1","0.5,0,1,0.5,0,1,0,1,0.5","2","",""
"","html-keyboard-response","15","128575","0.0-15.0","3FK0YFF9P0270TJ749GWVE5RRJ9VVI","A3HVFSD8K94SOR","3HUR21WDDUBEMSLDIXZW1FAIHW8YX3","","null","<img src=""img/food1.png"" style=""width:200px; border:14px solid green;"">","null","","","","","","","","","",""
"","image-keyboard-response","16","129582","0.0-16.0","3FK0YFF9P0270TJ749GWVE5RRJ9VVI","A3HVFSD8K94SOR","3HUR21WDDUBEMSLDIXZW1FAIHW8YX3","","1005","img/food2.png","76","1007","3","1","1","1","1,0.5,0,1,0.5,0,0.5,0,1","0.5,0,1,0.5,0,1,0,1,0.5","2","",""
"","html-keyboard-response","17","129896","0.0-17.0","3FK0YFF9P0270TJ749GWVE5RRJ9VVI","A3HVFSD8K94SOR","3HUR21WDDUBEMSLDIXZW1FAIHW8YX3","","null","<img src=""img/food2.png"" style=""width:200px; border:14px solid green;"">","null","","","","","","","","","",""
"","image-keyboard-response","18","130746","0.0-18.0","3FK0YFF9P0270TJ749GWVE5RRJ9VVI","A3HVFSD8K94SOR","3HUR21WDDUBEMSLDIXZW1FAIHW8YX3","","849","img/food2.png","76","850","3","1","1","1","1,0.5,0,1,0.5,0,0.5,0,1","0.5,0,1,0.5,0,1,0,1,0.5","2","",""
"","html-keyboard-response","19","131063","0.0-19.0","3FK0YFF9P0270TJ749GWVE5RRJ9VVI","A3HVFSD8K94SOR","3HUR21WDDUBEMSLDIXZW1FAIHW8YX3","","null","<img src=""img/food2.png"" style=""width:200px; border:14px solid green;"">","null","","","","","","","","","",""
"","image-keyboard-response","20","131910","0.0-20.0","3FK0YFF9P0270TJ749GWVE5RRJ9VVI","A3HVFSD8K94SOR","3HUR21WDDUBEMSLDIXZW1FAIHW8YX3","","845","img/food1.png","74","846","1","1","2","1","1,0.5,0,1,0.5,0,0.5,0,1","0.5,0,1,0.5,0,1,0,1,0.5","2","",""
"","html-keyboard-response","21","132218","0.0-21.0","3FK0YFF9P0270TJ749GWVE5RRJ9VVI","A3HVFSD8K94SOR","3HUR21WDDUBEMSLDIXZW1FAIHW8YX3","","null","<img src=""img/food1.png"" style=""width:200px; border:14px solid green;"">","null","","","","","","","","","",""
"","image-keyboard-response","22","133170","0.0-22.0","3FK0YFF9P0270TJ749GWVE5RRJ9VVI","A3HVFSD8K94SOR","3HUR21WDDUBEMSLDIXZW1FAIHW8YX3","","950","img/food1.png","74","952","1","1","2","1","1,0.5,0,1,0.5,0,0.5,0,1","0.5,0,1,0.5,0,1,0,1,0.5","2","",""
"","html-keyboard-response","23","133496","0.0-23.0","3FK0YFF9P0270TJ749GWVE5RRJ9VVI","A3HVFSD8K94SOR","3HUR21WDDUBEMSLDIXZW1FAIHW8YX3","","null","<img src=""img/food1.png"" style=""width:200px; border:14px solid green;"">","null","","","","","","","","","",""
"","image-keyboard-response","24","134352","0.0-24.0","3FK0YFF9P0270TJ749GWVE5RRJ9VVI","A3HVFSD8K94SOR","3HUR21WDDUBEMSLDIXZW1FAIHW8YX3","","855","img/food4.png","75","856","2","1","3","1","1,0.5,0,1,0.5,0,0.5,0,1","0.5,0,1,0.5,0,1,0,1,0.5","2","",""
"","html-keyboard-response","25","134679","0.0-25.0","3FK0YFF9P0270TJ749GWVE5RRJ9VVI","A3HVFSD8K94SOR","3HUR21WDDUBEMSLDIXZW1FAIHW8YX3","","null","<img src=""img/food4.png"" style=""width:200px; border:14px solid green;"">","null","","","","","","","","","",""
"","image-keyboard-response","26","135727","0.0-26.0","3FK0YFF9P0270TJ749GWVE5RRJ9VVI","A3HVFSD8K94SOR","3HUR21WDDUBEMSLDIXZW1FAIHW8YX3","","1046","img/food1.png","74","1047","1","0","2","1","1,0.5,0,1,0.5,0,0.5,0,1","0.5,0,1,0.5,0,1,0,1,0.5","2","",""
"","html-keyboard-response","27","136037","0.0-27.0","3FK0YFF9P0270TJ749GWVE5RRJ9VVI","A3HVFSD8K94SOR","3HUR21WDDUBEMSLDIXZW1FAIHW8YX3","","null","<img src=""img/food1.png"" style=""width:200px;border:14px solid red;"">","null","","","","","","","","","",""
"","image-keyboard-response","28","136760","0.0-28.0","3FK0YFF9P0270TJ749GWVE5RRJ9VVI","A3HVFSD8K94SOR","3HUR21WDDUBEMSLDIXZW1FAIHW8YX3","","721","img/food1.png","74","722","1","1","2","1","1,0.5,0,1,0.5,0,0.5,0,1","0.5,0,1,0.5,0,1,0,1,0.5","2","",""
"","html-keyboard-response","29","137076","0.0-29.0","3FK0YFF9P0270TJ749GWVE5RRJ9VVI","A3HVFSD8K94SOR","3HUR21WDDUBEMSLDIXZW1FAIHW8YX3","","null","<img src=""img/food1.png"" style=""width:200px; border:14px solid green;"">","null","","","","","","","","","",""
"","image-keyboard-response","30","138202","0.0-30.0","3FK0YFF9P0270TJ749GWVE5RRJ9VVI","A3HVFSD8K94SOR","3HUR21WDDUBEMSLDIXZW1FAIHW8YX3","","1126","img/food4.png","75","1127","2","1","3","1","1,0.5,0,1,0.5,0,0.5,0,1","0.5,0,1,0.5,0,1,0,1,0.5","2","",""
"","html-keyboard-response","31","138524","0.0-31.0","3FK0YFF9P0270TJ749GWVE5RRJ9VVI","A3HVFSD8K94SOR","3HUR21WDDUBEMSLDIXZW1FAIHW8YX3","","null","<img src=""img/food4.png"" style=""width:200px; border:14px solid green;"">","null","","","","","","","","","",""
"","image-keyboard-response","32","139495","0.0-32.0","3FK0YFF9P0270TJ749GWVE5RRJ9VVI","A3HVFSD8K94SOR","3HUR21WDDUBEMSLDIXZW1FAIHW8YX3","","970","img/food4.png","75","971","2","1","3","1","1,0.5,0,1,0.5,0,0.5,0,1","0.5,0,1,0.5,0,1,0,1,0.5","2","",""
"","html-keyboard-response","33","139809","0.0-33.0","3FK0YFF9P0270TJ749GWVE5RRJ9VVI","A3HVFSD8K94SOR","3HUR21WDDUBEMSLDIXZW1FAIHW8YX3","","null","<img src=""img/food4.png"" style=""width:200px; border:14px solid green;"">","null","","","","","","","","","",""
"","image-keyboard-response","34","140779","0.0-34.0","3FK0YFF9P0270TJ749GWVE5RRJ9VVI","A3HVFSD8K94SOR","3HUR21WDDUBEMSLDIXZW1FAIHW8YX3","","969","img/food1.png","74","969","1","0","2","1","1,0.5,0,1,0.5,0,0.5,0,1","0.5,0,1,0.5,0,1,0,1,0.5","2","",""
"","html-keyboard-response","35","141081","0.0-35.0","3FK0YFF9P0270TJ749GWVE5RRJ9VVI","A3HVFSD8K94SOR","3HUR21WDDUBEMSLDIXZW1FAIHW8YX3","","null","<img src=""img/food1.png"" style=""width:200px;border:14px solid red;"">","null","","","","","","","","","",""
"","image-keyboard-response","36","141902","0.0-36.0","3FK0YFF9P0270TJ749GWVE5RRJ9VVI","A3HVFSD8K94SOR","3HUR21WDDUBEMSLDIXZW1FAIHW8YX3","","820","img/food4.png","75","821","2","1","3","1","1,0.5,0,1,0.5,0,0.5,0,1","0.5,0,1,0.5,0,1,0,1,0.5","2","",""
"","html-keyboard-response","37","142218","0.0-37.0","3FK0YFF9P0270TJ749GWVE5RRJ9VVI","A3HVFSD8K94SOR","3HUR21WDDUBEMSLDIXZW1FAIHW8YX3","","null","<img src=""img/food4.png"" style=""width:200px; border:14px solid green;"">","null","","","","","","","","","",""
"","image-keyboard-response","38","143201","0.0-38.0","3FK0YFF9P0270TJ749GWVE5RRJ9VVI","A3HVFSD8K94SOR","3HUR21WDDUBEMSLDIXZW1FAIHW8YX3","","981","img/food1.png","75","983","2","0","2","1","1,0.5,0,1,0.5,0,0.5,0,1","0.5,0,1,0.5,0,1,0,1,0.5","2","",""
"","html-keyboard-response","39","143503","0.0-39.0","3FK0YFF9P0270TJ749GWVE5RRJ9VVI","A3HVFSD8K94SOR","3HUR21WDDUBEMSLDIXZW1FAIHW8YX3","","null","<img src=""img/food1.png"" style=""width:200px;border:14px solid red;"">","null","","","","","","","","","",""
"","image-keyboard-response","40","145263","0.0-40.0","3FK0YFF9P0270TJ749GWVE5RRJ9VVI","A3HVFSD8K94SOR","3HUR21WDDUBEMSLDIXZW1FAIHW8YX3","","1758","img/food4.png","75","1758","2","1","3","1","1,0.5,0,1,0.5,0,0.5,0,1","0.5,0,1,0.5,0,1,0,1,0.5","2","",""
"","html-keyboard-response","41","145569","0.0-41.0","3FK0YFF9P0270TJ749GWVE5RRJ9VVI","A3HVFSD8K94SOR","3HUR21WDDUBEMSLDIXZW1FAIHW8YX3","","null","<img src=""img/food4.png"" style=""width:200px; border:14px solid green;"">","null","","","","","","","","","",""
"","image-keyboard-response","42","146387","0.0-42.0","3FK0YFF9P0270TJ749GWVE5RRJ9VVI","A3HVFSD8K94SOR","3HUR21WDDUBEMSLDIXZW1FAIHW8YX3","","817","img/food4.png","75","818","2","1","3","1","1,0.5,0,1,0.5,0,0.5,0,1","0.5,0,1,0.5,0,1,0,1,0.5","2","",""
"","html-keyboard-response","43","146695","0.0-43.0","3FK0YFF9P0270TJ749GWVE5RRJ9VVI","A3HVFSD8K94SOR","3HUR21WDDUBEMSLDIXZW1FAIHW8YX3","","null","<img src=""img/food4.png"" style=""width:200px; border:14px solid green;"">","null","","","","","","","","","",""
"","image-keyboard-response","44","147605","0.0-44.0","3FK0YFF9P0270TJ749GWVE5RRJ9VVI","A3HVFSD8K94SOR","3HUR21WDDUBEMSLDIXZW1FAIHW8YX3","","909","img/food4.png","75","911","2","1","3","1","1,0.5,0,1,0.5,0,0.5,0,1","0.5,0,1,0.5,0,1,0,1,0.5","2","",""
"","html-keyboard-response","45","147921","0.0-45.0","3FK0YFF9P0270TJ749GWVE5RRJ9VVI","A3HVFSD8K94SOR","3HUR21WDDUBEMSLDIXZW1FAIHW8YX3","","null","<img src=""img/food4.png"" style=""width:200px; border:14px solid green;"">","null","","","","","","","","","",""
"","image-keyboard-response","46","148794","0.0-46.0","3FK0YFF9P0270TJ749GWVE5RRJ9VVI","A3HVFSD8K94SOR","3HUR21WDDUBEMSLDIXZW1FAIHW8YX3","","872","img/food4.png","75","872","2","1","3","1","1,0.5,0,1,0.5,0,0.5,0,1","0.5,0,1,0.5,0,1,0,1,0.5","2","",""
"","html-keyboard-response","47","149109","0.0-47.0","3FK0YFF9P0270TJ749GWVE5RRJ9VVI","A3HVFSD8K94SOR","3HUR21WDDUBEMSLDIXZW1FAIHW8YX3","","null","<img src=""img/food4.png"" style=""width:200px; border:14px solid green;"">","null","","","","","","","","","",""
"","image-keyboard-response","48","150043","0.0-48.0","3FK0YFF9P0270TJ749GWVE5RRJ9VVI","A3HVFSD8K94SOR","3HUR21WDDUBEMSLDIXZW1FAIHW8YX3","","933","img/food1.png","76","933","3","1","2","1","1,0.5,0,1,0.5,0,0.5,0,1","0.5,0,1,0.5,0,1,0,1,0.5","2","",""
"","html-keyboard-response","49","150346","0.0-49.0","3FK0YFF9P0270TJ749GWVE5RRJ9VVI","A3HVFSD8K94SOR","3HUR21WDDUBEMSLDIXZW1FAIHW8YX3","","null","<img src=""img/food1.png"" style=""width:200px; border:14px solid green;"">","null","","","","","","","","","",""
"","image-keyboard-response","50","151202","0.0-50.0","3FK0YFF9P0270TJ749GWVE5RRJ9VVI","A3HVFSD8K94SOR","3HUR21WDDUBEMSLDIXZW1FAIHW8YX3","","854","img/food2.png","76","854","3","1","1","1","1,0.5,0,1,0.5,0,0.5,0,1","0.5,0,1,0.5,0,1,0,1,0.5","2","",""
"","html-keyboard-response","51","151512","0.0-51.0","3FK0YFF9P0270TJ749GWVE5RRJ9VVI","A3HVFSD8K94SOR","3HUR21WDDUBEMSLDIXZW1FAIHW8YX3","","null","<img src=""img/food2.png"" style=""width:200px; border:14px solid green;"">","null","","","","","","","","","",""
"","image-keyboard-response","52","152125","0.0-52.0","3FK0YFF9P0270TJ749GWVE5RRJ9VVI","A3HVFSD8K94SOR","3HUR21WDDUBEMSLDIXZW1FAIHW8YX3","","612","img/food1.png","76","612","3","1","2","1","1,0.5,0,1,0.5,0,0.5,0,1","0.5,0,1,0.5,0,1,0,1,0.5","2","",""
"","html-keyboard-response","53","152444","0.0-53.0","3FK0YFF9P0270TJ749GWVE5RRJ9VVI","A3HVFSD8K94SOR","3HUR21WDDUBEMSLDIXZW1FAIHW8YX3","","null","<img src=""img/food1.png"" style=""width:200px; border:14px solid green;"">","null","","","","","","","","","",""
"","image-keyboard-response","54","152909","0.0-54.0","3FK0YFF9P0270TJ749GWVE5RRJ9VVI","A3HVFSD8K94SOR","3HUR21WDDUBEMSLDIXZW1FAIHW8YX3","","463","img/food4.png","76","464","3","1","3","1","1,0.5,0,1,0.5,0,0.5,0,1","0.5,0,1,0.5,0,1,0,1,0.5","2","",""
"","html-keyboard-response","55","153220","0.0-55.0","3FK0YFF9P0270TJ749GWVE5RRJ9VVI","A3HVFSD8K94SOR","3HUR21WDDUBEMSLDIXZW1FAIHW8YX3","","null","<img src=""img/food4.png"" style=""width:200px; border:14px solid green;"">","null","","","","","","","","","",""
"","image-keyboard-response","56","153888","0.0-56.0","3FK0YFF9P0270TJ749GWVE5RRJ9VVI","A3HVFSD8K94SOR","3HUR21WDDUBEMSLDIXZW1FAIHW8YX3","","667","img/food4.png","76","667","3","1","3","1","1,0.5,0,1,0.5,0,0.5,0,1","0.5,0,1,0.5,0,1,0,1,0.5","2","",""
"","html-keyboard-response","57","154197","0.0-57.0","3FK0YFF9P0270TJ749GWVE5RRJ9VVI","A3HVFSD8K94SOR","3HUR21WDDUBEMSLDIXZW1FAIHW8YX3","","null","<img src=""img/food4.png"" style=""width:200px; border:14px solid green;"">","null","","","","","","","","","",""
"","image-keyboard-response","58","155311","0.0-58.0","3FK0YFF9P0270TJ749GWVE5RRJ9VVI","A3HVFSD8K94SOR","3HUR21WDDUBEMSLDIXZW1FAIHW8YX3","","1113","img/food2.png","76","1113","3","1","1","1","1,0.5,0,1,0.5,0,0.5,0,1","0.5,0,1,0.5,0,1,0,1,0.5","2","",""
"","html-keyboard-response","59","155627","0.0-59.0","3FK0YFF9P0270TJ749GWVE5RRJ9VVI","A3HVFSD8K94SOR","3HUR21WDDUBEMSLDIXZW1FAIHW8YX3","","null","<img src=""img/food2.png"" style=""width:200px; border:14px solid green;"">","null","","","","","","","","","",""
"","image-keyboard-response","60","156274","0.0-60.0","3FK0YFF9P0270TJ749GWVE5RRJ9VVI","A3HVFSD8K94SOR","3HUR21WDDUBEMSLDIXZW1FAIHW8YX3","","647","img/food1.png","76","647","3","1","2","1","1,0.5,0,1,0.5,0,0.5,0,1","0.5,0,1,0.5,0,1,0,1,0.5","2","",""
"","html-keyboard-response","61","156584","0.0-61.0","3FK0YFF9P0270TJ749GWVE5RRJ9VVI","A3HVFSD8K94SOR","3HUR21WDDUBEMSLDIXZW1FAIHW8YX3","","null","<img src=""img/food1.png"" style=""width:200px; border:14px solid green;"">","null","","","","","","","","","",""
"","image-keyboard-response","62","157273","0.0-62.0","3FK0YFF9P0270TJ749GWVE5RRJ9VVI","A3HVFSD8K94SOR","3HUR21WDDUBEMSLDIXZW1FAIHW8YX3","","689","img/food4.png","76","690","3","0","3","1","1,0.5,0,1,0.5,0,0.5,0,1","0.5,0,1,0.5,0,1,0,1,0.5","2","",""
"","html-keyboard-response","63","157587","0.0-63.0","3FK0YFF9P0270TJ749GWVE5RRJ9VVI","A3HVFSD8K94SOR","3HUR21WDDUBEMSLDIXZW1FAIHW8YX3","","null","<img src=""img/food4.png"" style=""width:200px;border:14px solid red;"">","null","","","","","","","","","",""
"","image-keyboard-response","64","158458","0.0-64.0","3FK0YFF9P0270TJ749GWVE5RRJ9VVI","A3HVFSD8K94SOR","3HUR21WDDUBEMSLDIXZW1FAIHW8YX3","","869","img/food2.png","76","870","3","1","1","1","1,0.5,0,1,0.5,0,0.5,0,1","0.5,0,1,0.5,0,1,0,1,0.5","2","",""
"","html-keyboard-response","65","158762","0.0-65.0","3FK0YFF9P0270TJ749GWVE5RRJ9VVI","A3HVFSD8K94SOR","3HUR21WDDUBEMSLDIXZW1FAIHW8YX3","","null","<img src=""img/food2.png"" style=""width:200px; border:14px solid green;"">","null","","","","","","","","","",""
"","image-keyboard-response","66","159346","0.0-66.0","3FK0YFF9P0270TJ749GWVE5RRJ9VVI","A3HVFSD8K94SOR","3HUR21WDDUBEMSLDIXZW1FAIHW8YX3","","583","img/food2.png","76","583","3","1","1","1","1,0.5,0,1,0.5,0,0.5,0,1","0.5,0,1,0.5,0,1,0,1,0.5","2","",""
"","html-keyboard-response","67","159648","0.0-67.0","3FK0YFF9P0270TJ749GWVE5RRJ9VVI","A3HVFSD8K94SOR","3HUR21WDDUBEMSLDIXZW1FAIHW8YX3","","null","<img src=""img/food2.png"" style=""width:200px; border:14px solid green;"">","null","","","","","","","","","",""
"","image-keyboard-response","68","160620","0.0-68.0","3FK0YFF9P0270TJ749GWVE5RRJ9VVI","A3HVFSD8K94SOR","3HUR21WDDUBEMSLDIXZW1FAIHW8YX3","","971","img/food1.png","76","972","3","1","2","1","1,0.5,0,1,0.5,0,0.5,0,1","0.5,0,1,0.5,0,1,0,1,0.5","2","",""
"","html-keyboard-response","69","160928","0.0-69.0","3FK0YFF9P0270TJ749GWVE5RRJ9VVI","A3HVFSD8K94SOR","3HUR21WDDUBEMSLDIXZW1FAIHW8YX3","","null","<img src=""img/food1.png"" style=""width:200px; border:14px solid green;"">","null","","","","","","","","","",""
"","image-keyboard-response","70","161743","0.0-70.0","3FK0YFF9P0270TJ749GWVE5RRJ9VVI","A3HVFSD8K94SOR","3HUR21WDDUBEMSLDIXZW1FAIHW8YX3","","814","img/food2.png","76","814","3","1","1","1","1,0.5,0,1,0.5,0,0.5,0,1","0.5,0,1,0.5,0,1,0,1,0.5","2","",""
"","html-keyboard-response","71","162053","0.0-71.0","3FK0YFF9P0270TJ749GWVE5RRJ9VVI","A3HVFSD8K94SOR","3HUR21WDDUBEMSLDIXZW1FAIHW8YX3","","null","<img src=""img/food2.png"" style=""width:200px; border:14px solid green;"">","null","","","","","","","","","",""
"","image-keyboard-response","72","162851","0.0-72.0","3FK0YFF9P0270TJ749GWVE5RRJ9VVI","A3HVFSD8K94SOR","3HUR21WDDUBEMSLDIXZW1FAIHW8YX3","","797","img/food4.png","75","798","2","1","3","1","1,0.5,0,1,0.5,0,0.5,0,1","0.5,0,1,0.5,0,1,0,1,0.5","2","",""
"","html-keyboard-response","73","163166","0.0-73.0","3FK0YFF9P0270TJ749GWVE5RRJ9VVI","A3HVFSD8K94SOR","3HUR21WDDUBEMSLDIXZW1FAIHW8YX3","","null","<img src=""img/food4.png"" style=""width:200px; border:14px solid green;"">","null","","","","","","","","","",""
"","image-keyboard-response","74","163815","0.0-74.0","3FK0YFF9P0270TJ749GWVE5RRJ9VVI","A3HVFSD8K94SOR","3HUR21WDDUBEMSLDIXZW1FAIHW8YX3","","648","img/food4.png","75","649","2","1","3","1","1,0.5,0,1,0.5,0,0.5,0,1","0.5,0,1,0.5,0,1,0,1,0.5","2","",""
"","html-keyboard-response","75","164131","0.0-75.0","3FK0YFF9P0270TJ749GWVE5RRJ9VVI","A3HVFSD8K94SOR","3HUR21WDDUBEMSLDIXZW1FAIHW8YX3","","null","<img src=""img/food4.png"" style=""width:200px; border:14px solid green;"">","null","","","","","","","","","",""
"","image-keyboard-response","76","165109","0.0-76.0","3FK0YFF9P0270TJ749GWVE5RRJ9VVI","A3HVFSD8K94SOR","3HUR21WDDUBEMSLDIXZW1FAIHW8YX3","","976","img/food1.png","76","978","3","1","2","1","1,0.5,0,1,0.5,0,0.5,0,1","0.5,0,1,0.5,0,1,0,1,0.5","2","",""
"","html-keyboard-response","77","165428","0.0-77.0","3FK0YFF9P0270TJ749GWVE5RRJ9VVI","A3HVFSD8K94SOR","3HUR21WDDUBEMSLDIXZW1FAIHW8YX3","","null","<img src=""img/food1.png"" style=""width:200px; border:14px solid green;"">","null","","","","","","","","","",""
"","image-keyboard-response","78","166477","0.0-78.0","3FK0YFF9P0270TJ749GWVE5RRJ9VVI","A3HVFSD8K94SOR","3HUR21WDDUBEMSLDIXZW1FAIHW8YX3","","1048","img/food2.png","76","1050","3","1","1","1","1,0.5,0,1,0.5,0,0.5,0,1","0.5,0,1,0.5,0,1,0,1,0.5","2","",""
"","html-keyboard-response","79","166784","0.0-79.0","3FK0YFF9P0270TJ749GWVE5RRJ9VVI","A3HVFSD8K94SOR","3HUR21WDDUBEMSLDIXZW1FAIHW8YX3","","null","<img src=""img/food2.png"" style=""width:200px; border:14px solid green;"">","null","","","","","","","","","",""
"","image-keyboard-response","80","167681","0.0-80.0","3FK0YFF9P0270TJ749GWVE5RRJ9VVI","A3HVFSD8K94SOR","3HUR21WDDUBEMSLDIXZW1FAIHW8YX3","","895","img/food4.png","75","896","2","1","3","1","1,0.5,0,1,0.5,0,0.5,0,1","0.5,0,1,0.5,0,1,0,1,0.5","2","",""
"","html-keyboard-response","81","167994","0.0-81.0","3FK0YFF9P0270TJ749GWVE5RRJ9VVI","A3HVFSD8K94SOR","3HUR21WDDUBEMSLDIXZW1FAIHW8YX3","","null","<img src=""img/food4.png"" style=""width:200px; border:14px solid green;"">","null","","","","","","","","","",""
"","image-keyboard-response","82","168813","0.0-82.0","3FK0YFF9P0270TJ749GWVE5RRJ9VVI","A3HVFSD8K94SOR","3HUR21WDDUBEMSLDIXZW1FAIHW8YX3","","819","img/food4.png","75","820","2","1","3","1","1,0.5,0,1,0.5,0,0.5,0,1","0.5,0,1,0.5,0,1,0,1,0.5","2","",""
"","html-keyboard-response","83","169122","0.0-83.0","3FK0YFF9P0270TJ749GWVE5RRJ9VVI","A3HVFSD8K94SOR","3HUR21WDDUBEMSLDIXZW1FAIHW8YX3","","null","<img src=""img/food4.png"" style=""width:200px; border:14px solid green;"">","null","","","","","","","","","",""
"","image-keyboard-response","84","169649","0.0-84.0","3FK0YFF9P0270TJ749GWVE5RRJ9VVI","A3HVFSD8K94SOR","3HUR21WDDUBEMSLDIXZW1FAIHW8YX3","","526","img/food1.png","76","528","3","1","2","1","1,0.5,0,1,0.5,0,0.5,0,1","0.5,0,1,0.5,0,1,0,1,0.5","2","",""
"","html-keyboard-response","85","169953","0.0-85.0","3FK0YFF9P0270TJ749GWVE5RRJ9VVI","A3HVFSD8K94SOR","3HUR21WDDUBEMSLDIXZW1FAIHW8YX3","","null","<img src=""img/food1.png"" style=""width:200px; border:14px solid green;"">","null","","","","","","","","","",""
"","image-keyboard-response","86","170582","0.0-86.0","3FK0YFF9P0270TJ749GWVE5RRJ9VVI","A3HVFSD8K94SOR","3HUR21WDDUBEMSLDIXZW1FAIHW8YX3","","627","img/food2.png","76","628","3","1","1","1","1,0.5,0,1,0.5,0,0.5,0,1","0.5,0,1,0.5,0,1,0,1,0.5","2","",""
"","html-keyboard-response","87","170890","0.0-87.0","3FK0YFF9P0270TJ749GWVE5RRJ9VVI","A3HVFSD8K94SOR","3HUR21WDDUBEMSLDIXZW1FAIHW8YX3","","null","<img src=""img/food2.png"" style=""width:200px; border:14px solid green;"">","null","","","","","","","","","",""
"","image-keyboard-response","88","171875","0.0-88.0","3FK0YFF9P0270TJ749GWVE5RRJ9VVI","A3HVFSD8K94SOR","3HUR21WDDUBEMSLDIXZW1FAIHW8YX3","","984","img/food1.png","76","986","3","1","2","1","1,0.5,0,1,0.5,0,0.5,0,1","0.5,0,1,0.5,0,1,0,1,0.5","2","",""
"","html-keyboard-response","89","172184","0.0-89.0","3FK0YFF9P0270TJ749GWVE5RRJ9VVI","A3HVFSD8K94SOR","3HUR21WDDUBEMSLDIXZW1FAIHW8YX3","","null","<img src=""img/food1.png"" style=""width:200px; border:14px solid green;"">","null","","","","","","","","","",""
"","image-keyboard-response","90","172894","0.0-90.0","3FK0YFF9P0270TJ749GWVE5RRJ9VVI","A3HVFSD8K94SOR","3HUR21WDDUBEMSLDIXZW1FAIHW8YX3","","708","img/food1.png","76","710","3","1","2","1","1,0.5,0,1,0.5,0,0.5,0,1","0.5,0,1,0.5,0,1,0,1,0.5","2","",""
"","html-keyboard-response","91","173203","0.0-91.0","3FK0YFF9P0270TJ749GWVE5RRJ9VVI","A3HVFSD8K94SOR","3HUR21WDDUBEMSLDIXZW1FAIHW8YX3","","null","<img src=""img/food1.png"" style=""width:200px; border:14px solid green;"">","null","","","","","","","","","",""
"","image-keyboard-response","92","174012","0.0-92.0","3FK0YFF9P0270TJ749GWVE5RRJ9VVI","A3HVFSD8K94SOR","3HUR21WDDUBEMSLDIXZW1FAIHW8YX3","","807","img/food2.png","76","807","3","1","1","1","1,0.5,0,1,0.5,0,0.5,0,1","0.5,0,1,0.5,0,1,0,1,0.5","2","",""
"","html-keyboard-response","93","174318","0.0-93.0","3FK0YFF9P0270TJ749GWVE5RRJ9VVI","A3HVFSD8K94SOR","3HUR21WDDUBEMSLDIXZW1FAIHW8YX3","","null","<img src=""img/food2.png"" style=""width:200px; border:14px solid green;"">","null","","","","","","","","","",""
"","image-keyboard-response","94","174976","0.0-94.0","3FK0YFF9P0270TJ749GWVE5RRJ9VVI","A3HVFSD8K94SOR","3HUR21WDDUBEMSLDIXZW1FAIHW8YX3","","656","img/food4.png","75","658","2","1","3","1","1,0.5,0,1,0.5,0,0.5,0,1","0.5,0,1,0.5,0,1,0,1,0.5","2","",""
"","html-keyboard-response","95","175283","0.0-95.0","3FK0YFF9P0270TJ749GWVE5RRJ9VVI","A3HVFSD8K94SOR","3HUR21WDDUBEMSLDIXZW1FAIHW8YX3","","null","<img src=""img/food4.png"" style=""width:200px; border:14px solid green;"">","null","","","","","","","","","",""
"","image-keyboard-response","96","176055","0.0-96.0","3FK0YFF9P0270TJ749GWVE5RRJ9VVI","A3HVFSD8K94SOR","3HUR21WDDUBEMSLDIXZW1FAIHW8YX3","","771","img/food1.png","76","771","3","1","2","1","1,0.5,0,1,0.5,0,0.5,0,1","0.5,0,1,0.5,0,1,0,1,0.5","2","",""
"","html-keyboard-response","97","176366","0.0-97.0","3FK0YFF9P0270TJ749GWVE5RRJ9VVI","A3HVFSD8K94SOR","3HUR21WDDUBEMSLDIXZW1FAIHW8YX3","","null","<img src=""img/food1.png"" style=""width:200px; border:14px solid green;"">","null","","","","","","","","","",""
"","image-keyboard-response","98","177529","0.0-98.0","3FK0YFF9P0270TJ749GWVE5RRJ9VVI","A3HVFSD8K94SOR","3HUR21WDDUBEMSLDIXZW1FAIHW8YX3","","1160","img/food4.png","75","1163","2","1","3","1","1,0.5,0,1,0.5,0,0.5,0,1","0.5,0,1,0.5,0,1,0,1,0.5","2","",""
"","html-keyboard-response","99","177830","0.0-99.0","3FK0YFF9P0270TJ749GWVE5RRJ9VVI","A3HVFSD8K94SOR","3HUR21WDDUBEMSLDIXZW1FAIHW8YX3","","null","<img src=""img/food4.png"" style=""width:200px; border:14px solid green;"">","null","","","","","","","","","",""
"","image-keyboard-response","100","178741","0.0-100.0","3FK0YFF9P0270TJ749GWVE5RRJ9VVI","A3HVFSD8K94SOR","3HUR21WDDUBEMSLDIXZW1FAIHW8YX3","","910","img/food4.png","75","911","2","1","3","1","1,0.5,0,1,0.5,0,0.5,0,1","0.5,0,1,0.5,0,1,0,1,0.5","2","",""
"","html-keyboard-response","101","179046","0.0-101.0","3FK0YFF9P0270TJ749GWVE5RRJ9VVI","A3HVFSD8K94SOR","3HUR21WDDUBEMSLDIXZW1FAIHW8YX3","","null","<img src=""img/food4.png"" style=""width:200px; border:14px solid green;"">","null","","","","","","","","","",""
"","image-keyboard-response","102","179612","0.0-102.0","3FK0YFF9P0270TJ749GWVE5RRJ9VVI","A3HVFSD8K94SOR","3HUR21WDDUBEMSLDIXZW1FAIHW8YX3","","564","img/food1.png","76","565","3","1","2","1","1,0.5,0,1,0.5,0,0.5,0,1","0.5,0,1,0.5,0,1,0,1,0.5","2","",""
"","html-keyboard-response","103","179920","0.0-103.0","3FK0YFF9P0270TJ749GWVE5RRJ9VVI","A3HVFSD8K94SOR","3HUR21WDDUBEMSLDIXZW1FAIHW8YX3","","null","<img src=""img/food1.png"" style=""width:200px; border:14px solid green;"">","null","","","","","","","","","",""
"","image-keyboard-response","104","180500","0.0-104.0","3FK0YFF9P0270TJ749GWVE5RRJ9VVI","A3HVFSD8K94SOR","3HUR21WDDUBEMSLDIXZW1FAIHW8YX3","","579","img/food2.png","76","580","3","1","1","1","1,0.5,0,1,0.5,0,0.5,0,1","0.5,0,1,0.5,0,1,0,1,0.5","2","",""
"","html-keyboard-response","105","180809","0.0-105.0","3FK0YFF9P0270TJ749GWVE5RRJ9VVI","A3HVFSD8K94SOR","3HUR21WDDUBEMSLDIXZW1FAIHW8YX3","","null","<img src=""img/food2.png"" style=""width:200px; border:14px solid green;"">","null","","","","","","","","","",""
"","image-keyboard-response","106","181644","0.0-106.0","3FK0YFF9P0270TJ749GWVE5RRJ9VVI","A3HVFSD8K94SOR","3HUR21WDDUBEMSLDIXZW1FAIHW8YX3","","835","img/food4.png","75","835","2","1","3","1","1,0.5,0,1,0.5,0,0.5,0,1","0.5,0,1,0.5,0,1,0,1,0.5","2","",""
"","html-keyboard-response","107","181961","0.0-107.0","3FK0YFF9P0270TJ749GWVE5RRJ9VVI","A3HVFSD8K94SOR","3HUR21WDDUBEMSLDIXZW1FAIHW8YX3","","null","<img src=""img/food4.png"" style=""width:200px; border:14px solid green;"">","null","","","","","","","","","",""
"","image-keyboard-response","108","182716","0.0-108.0","3FK0YFF9P0270TJ749GWVE5RRJ9VVI","A3HVFSD8K94SOR","3HUR21WDDUBEMSLDIXZW1FAIHW8YX3","","753","img/food2.png","76","754","3","1","1","1","1,0.5,0,1,0.5,0,0.5,0,1","0.5,0,1,0.5,0,1,0,1,0.5","2","",""
"","html-keyboard-response","109","183023","0.0-109.0","3FK0YFF9P0270TJ749GWVE5RRJ9VVI","A3HVFSD8K94SOR","3HUR21WDDUBEMSLDIXZW1FAIHW8YX3","","null","<img src=""img/food2.png"" style=""width:200px; border:14px solid green;"">","null","","","","","","","","","",""
"","image-keyboard-response","110","184094","0.0-110.0","3FK0YFF9P0270TJ749GWVE5RRJ9VVI","A3HVFSD8K94SOR","3HUR21WDDUBEMSLDIXZW1FAIHW8YX3","","1070","img/food1.png","76","1071","3","1","2","1","1,0.5,0,1,0.5,0,0.5,0,1","0.5,0,1,0.5,0,1,0,1,0.5","2","",""
"","html-keyboard-response","111","184397","0.0-111.0","3FK0YFF9P0270TJ749GWVE5RRJ9VVI","A3HVFSD8K94SOR","3HUR21WDDUBEMSLDIXZW1FAIHW8YX3","","null","<img src=""img/food1.png"" style=""width:200px; border:14px solid green;"">","null","","","","","","","","","",""
"","image-keyboard-response","112","185384","0.0-112.0","3FK0YFF9P0270TJ749GWVE5RRJ9VVI","A3HVFSD8K94SOR","3HUR21WDDUBEMSLDIXZW1FAIHW8YX3","","986","img/food4.png","75","986","2","1","3","1","1,0.5,0,1,0.5,0,0.5,0,1","0.5,0,1,0.5,0,1,0,1,0.5","2","",""
"","html-keyboard-response","113","185700","0.0-113.0","3FK0YFF9P0270TJ749GWVE5RRJ9VVI","A3HVFSD8K94SOR","3HUR21WDDUBEMSLDIXZW1FAIHW8YX3","","null","<img src=""img/food4.png"" style=""width:200px; border:14px solid green;"">","null","","","","","","","","","",""
"","image-keyboard-response","114","186447","0.0-114.0","3FK0YFF9P0270TJ749GWVE5RRJ9VVI","A3HVFSD8K94SOR","3HUR21WDDUBEMSLDIXZW1FAIHW8YX3","","746","img/food4.png","75","747","2","1","3","1","1,0.5,0,1,0.5,0,0.5,0,1","0.5,0,1,0.5,0,1,0,1,0.5","2","",""
"","html-keyboard-response","115","186751","0.0-115.0","3FK0YFF9P0270TJ749GWVE5RRJ9VVI","A3HVFSD8K94SOR","3HUR21WDDUBEMSLDIXZW1FAIHW8YX3","","null","<img src=""img/food4.png"" style=""width:200px; border:14px solid green;"">","null","","","","","","","","","",""
"","image-keyboard-response","116","187476","0.0-116.0","3FK0YFF9P0270TJ749GWVE5RRJ9VVI","A3HVFSD8K94SOR","3HUR21WDDUBEMSLDIXZW1FAIHW8YX3","","724","img/food1.png","76","725","3","1","2","1","1,0.5,0,1,0.5,0,0.5,0,1","0.5,0,1,0.5,0,1,0,1,0.5","2","",""
"","html-keyboard-response","117","187778","0.0-117.0","3FK0YFF9P0270TJ749GWVE5RRJ9VVI","A3HVFSD8K94SOR","3HUR21WDDUBEMSLDIXZW1FAIHW8YX3","","null","<img src=""img/food1.png"" style=""width:200px; border:14px solid green;"">","null","","","","","","","","","",""
"","image-keyboard-response","118","188390","0.0-118.0","3FK0YFF9P0270TJ749GWVE5RRJ9VVI","A3HVFSD8K94SOR","3HUR21WDDUBEMSLDIXZW1FAIHW8YX3","","612","img/food4.png","76","612","3","0","3","1","1,0.5,0,1,0.5,0,0.5,0,1","0.5,0,1,0.5,0,1,0,1,0.5","2","",""
"","html-keyboard-response","119","188699","0.0-119.0","3FK0YFF9P0270TJ749GWVE5RRJ9VVI","A3HVFSD8K94SOR","3HUR21WDDUBEMSLDIXZW1FAIHW8YX3","","null","<img src=""img/food4.png"" style=""width:200px;border:14px solid red;"">","null","","","","","","","","","",""
"","image-keyboard-response","120","189798","0.0-120.0","3FK0YFF9P0270TJ749GWVE5RRJ9VVI","A3HVFSD8K94SOR","3HUR21WDDUBEMSLDIXZW1FAIHW8YX3","","1098","img/food4.png","75","1099","2","1","3","1","1,0.5,0,1,0.5,0,0.5,0,1","0.5,0,1,0.5,0,1,0,1,0.5","2","",""
"","html-keyboard-response","121","190107","0.0-121.0","3FK0YFF9P0270TJ749GWVE5RRJ9VVI","A3HVFSD8K94SOR","3HUR21WDDUBEMSLDIXZW1FAIHW8YX3","","null","<img src=""img/food4.png"" style=""width:200px; border:14px solid green;"">","null","","","","","","","","","",""
"","image-keyboard-response","122","191072","0.0-122.0","3FK0YFF9P0270TJ749GWVE5RRJ9VVI","A3HVFSD8K94SOR","3HUR21WDDUBEMSLDIXZW1FAIHW8YX3","","962","img/food2.png","76","964","3","1","1","1","1,0.5,0,1,0.5,0,0.5,0,1","0.5,0,1,0.5,0,1,0,1,0.5","2","",""
"","html-keyboard-response","123","191384","0.0-123.0","3FK0YFF9P0270TJ749GWVE5RRJ9VVI","A3HVFSD8K94SOR","3HUR21WDDUBEMSLDIXZW1FAIHW8YX3","","null","<img src=""img/food2.png"" style=""width:200px; border:14px solid green;"">","null","","","","","","","","","",""
"","image-keyboard-response","124","192015","0.0-124.0","3FK0YFF9P0270TJ749GWVE5RRJ9VVI","A3HVFSD8K94SOR","3HUR21WDDUBEMSLDIXZW1FAIHW8YX3","","630","img/food2.png","76","632","3","1","1","1","1,0.5,0,1,0.5,0,0.5,0,1","0.5,0,1,0.5,0,1,0,1,0.5","2","",""
"","html-keyboard-response","125","192326","0.0-125.0","3FK0YFF9P0270TJ749GWVE5RRJ9VVI","A3HVFSD8K94SOR","3HUR21WDDUBEMSLDIXZW1FAIHW8YX3","","null","<img src=""img/food2.png"" style=""width:200px; border:14px solid green;"">","null","","","","","","","","","",""
"","image-keyboard-response","126","193199","0.0-126.0","3FK0YFF9P0270TJ749GWVE5RRJ9VVI","A3HVFSD8K94SOR","3HUR21WDDUBEMSLDIXZW1FAIHW8YX3","","872","img/food4.png","75","873","2","1","3","1","1,0.5,0,1,0.5,0,0.5,0,1","0.5,0,1,0.5,0,1,0,1,0.5","2","",""
"","html-keyboard-response","127","193512","0.0-127.0","3FK0YFF9P0270TJ749GWVE5RRJ9VVI","A3HVFSD8K94SOR","3HUR21WDDUBEMSLDIXZW1FAIHW8YX3","","null","<img src=""img/food4.png"" style=""width:200px; border:14px solid green;"">","null","","","","","","","","","",""
"","image-keyboard-response","128","194077","0.0-128.0","3FK0YFF9P0270TJ749GWVE5RRJ9VVI","A3HVFSD8K94SOR","3HUR21WDDUBEMSLDIXZW1FAIHW8YX3","","564","img/food4.png","75","565","2","1","3","1","1,0.5,0,1,0.5,0,0.5,0,1","0.5,0,1,0.5,0,1,0,1,0.5","2","",""
"","html-keyboard-response","129","194390","0.0-129.0","3FK0YFF9P0270TJ749GWVE5RRJ9VVI","A3HVFSD8K94SOR","3HUR21WDDUBEMSLDIXZW1FAIHW8YX3","","null","<img src=""img/food4.png"" style=""width:200px; border:14px solid green;"">","null","","","","","","","","","",""
"","image-keyboard-response","130","195101","0.0-130.0","3FK0YFF9P0270TJ749GWVE5RRJ9VVI","A3HVFSD8K94SOR","3HUR21WDDUBEMSLDIXZW1FAIHW8YX3","","711","img/food2.png","76","711","3","1","1","1","1,0.5,0,1,0.5,0,0.5,0,1","0.5,0,1,0.5,0,1,0,1,0.5","2","",""
"","html-keyboard-response","131","195419","0.0-131.0","3FK0YFF9P0270TJ749GWVE5RRJ9VVI","A3HVFSD8K94SOR","3HUR21WDDUBEMSLDIXZW1FAIHW8YX3","","null","<img src=""img/food2.png"" style=""width:200px; border:14px solid green;"">","null","","","","","","","","","",""
"","image-keyboard-response","132","196110","0.0-132.0","3FK0YFF9P0270TJ749GWVE5RRJ9VVI","A3HVFSD8K94SOR","3HUR21WDDUBEMSLDIXZW1FAIHW8YX3","","690","img/food1.png","76","691","3","1","2","1","1,0.5,0,1,0.5,0,0.5,0,1","0.5,0,1,0.5,0,1,0,1,0.5","2","",""
"","html-keyboard-response","133","196425","0.0-133.0","3FK0YFF9P0270TJ749GWVE5RRJ9VVI","A3HVFSD8K94SOR","3HUR21WDDUBEMSLDIXZW1FAIHW8YX3","","null","<img src=""img/food1.png"" style=""width:200px; border:14px solid green;"">","null","","","","","","","","","",""
"","image-keyboard-response","134","197630","0.0-134.0","3FK0YFF9P0270TJ749GWVE5RRJ9VVI","A3HVFSD8K94SOR","3HUR21WDDUBEMSLDIXZW1FAIHW8YX3","","1204","img/food4.png","75","1205","2","1","3","1","1,0.5,0,1,0.5,0,0.5,0,1","0.5,0,1,0.5,0,1,0,1,0.5","2","",""
"","html-keyboard-response","135","197932","0.0-135.0","3FK0YFF9P0270TJ749GWVE5RRJ9VVI","A3HVFSD8K94SOR","3HUR21WDDUBEMSLDIXZW1FAIHW8YX3","","null","<img src=""img/food4.png"" style=""width:200px; border:14px solid green;"">","null","","","","","","","","","",""
"","image-keyboard-response","136","198637","0.0-136.0","3FK0YFF9P0270TJ749GWVE5RRJ9VVI","A3HVFSD8K94SOR","3HUR21WDDUBEMSLDIXZW1FAIHW8YX3","","704","img/food2.png","76","705","3","1","1","1","1,0.5,0,1,0.5,0,0.5,0,1","0.5,0,1,0.5,0,1,0,1,0.5","2","",""
"","html-keyboard-response","137","198953","0.0-137.0","3FK0YFF9P0270TJ749GWVE5RRJ9VVI","A3HVFSD8K94SOR","3HUR21WDDUBEMSLDIXZW1FAIHW8YX3","","null","<img src=""img/food2.png"" style=""width:200px; border:14px solid green;"">","null","","","","","","","","","",""
"","image-keyboard-response","138","199815","0.0-138.0","3FK0YFF9P0270TJ749GWVE5RRJ9VVI","A3HVFSD8K94SOR","3HUR21WDDUBEMSLDIXZW1FAIHW8YX3","","860","img/food4.png","75","860","2","1","3","1","1,0.5,0,1,0.5,0,0.5,0,1","0.5,0,1,0.5,0,1,0,1,0.5","2","",""
"","html-keyboard-response","139","200130","0.0-139.0","3FK0YFF9P0270TJ749GWVE5RRJ9VVI","A3HVFSD8K94SOR","3HUR21WDDUBEMSLDIXZW1FAIHW8YX3","","null","<img src=""img/food4.png"" style=""width:200px; border:14px solid green;"">","null","","","","","","","","","",""
"","image-keyboard-response","140","200805","0.0-140.0","3FK0YFF9P0270TJ749GWVE5RRJ9VVI","A3HVFSD8K94SOR","3HUR21WDDUBEMSLDIXZW1FAIHW8YX3","","673","img/food2.png","76","673","3","1","1","1","1,0.5,0,1,0.5,0,0.5,0,1","0.5,0,1,0.5,0,1,0,1,0.5","2","",""
"","html-keyboard-response","141","201120","0.0-141.0","3FK0YFF9P0270TJ749GWVE5RRJ9VVI","A3HVFSD8K94SOR","3HUR21WDDUBEMSLDIXZW1FAIHW8YX3","","null","<img src=""img/food2.png"" style=""width:200px; border:14px solid green;"">","null","","","","","","","","","",""
"","image-keyboard-response","142","201954","0.0-142.0","3FK0YFF9P0270TJ749GWVE5RRJ9VVI","A3HVFSD8K94SOR","3HUR21WDDUBEMSLDIXZW1FAIHW8YX3","","831","img/food4.png","75","832","2","1","3","1","1,0.5,0,1,0.5,0,0.5,0,1","0.5,0,1,0.5,0,1,0,1,0.5","2","",""
"","html-keyboard-response","143","202260","0.0-143.0","3FK0YFF9P0270TJ749GWVE5RRJ9VVI","A3HVFSD8K94SOR","3HUR21WDDUBEMSLDIXZW1FAIHW8YX3","","null","<img src=""img/food4.png"" style=""width:200px; border:14px solid green;"">","null","","","","","","","","","",""
"","image-keyboard-response","144","203177","0.0-144.0","3FK0YFF9P0270TJ749GWVE5RRJ9VVI","A3HVFSD8K94SOR","3HUR21WDDUBEMSLDIXZW1FAIHW8YX3","","916","img/food2.png","76","917","3","1","1","1","1,0.5,0,1,0.5,0,0.5,0,1","0.5,0,1,0.5,0,1,0,1,0.5","2","",""
"","html-keyboard-response","145","203484","0.0-145.0","3FK0YFF9P0270TJ749GWVE5RRJ9VVI","A3HVFSD8K94SOR","3HUR21WDDUBEMSLDIXZW1FAIHW8YX3","","null","<img src=""img/food2.png"" style=""width:200px; border:14px solid green;"">","null","","","","","","","","","",""
"","image-keyboard-response","146","204061","0.0-146.0","3FK0YFF9P0270TJ749GWVE5RRJ9VVI","A3HVFSD8K94SOR","3HUR21WDDUBEMSLDIXZW1FAIHW8YX3","","577","img/food1.png","76","577","3","1","2","1","1,0.5,0,1,0.5,0,0.5,0,1","0.5,0,1,0.5,0,1,0,1,0.5","2","",""
"","html-keyboard-response","147","204372","0.0-147.0","3FK0YFF9P0270TJ749GWVE5RRJ9VVI","A3HVFSD8K94SOR","3HUR21WDDUBEMSLDIXZW1FAIHW8YX3","","null","<img src=""img/food1.png"" style=""width:200px; border:14px solid green;"">","null","","","","","","","","","",""
"","image-keyboard-response","148","205034","0.0-148.0","3FK0YFF9P0270TJ749GWVE5RRJ9VVI","A3HVFSD8K94SOR","3HUR21WDDUBEMSLDIXZW1FAIHW8YX3","","660","img/food2.png","76","662","3","1","1","1","1,0.5,0,1,0.5,0,0.5,0,1","0.5,0,1,0.5,0,1,0,1,0.5","2","",""
"","html-keyboard-response","149","205346","0.0-149.0","3FK0YFF9P0270TJ749GWVE5RRJ9VVI","A3HVFSD8K94SOR","3HUR21WDDUBEMSLDIXZW1FAIHW8YX3","","null","<img src=""img/food2.png"" style=""width:200px; border:14px solid green;"">","null","","","","","","","","","",""
"","image-keyboard-response","150","206113","0.0-150.0","3FK0YFF9P0270TJ749GWVE5RRJ9VVI","A3HVFSD8K94SOR","3HUR21WDDUBEMSLDIXZW1FAIHW8YX3","","766","img/food2.png","76","768","3","1","1","1","1,0.5,0,1,0.5,0,0.5,0,1","0.5,0,1,0.5,0,1,0,1,0.5","2","",""
"","html-keyboard-response","151","206437","0.0-151.0","3FK0YFF9P0270TJ749GWVE5RRJ9VVI","A3HVFSD8K94SOR","3HUR21WDDUBEMSLDIXZW1FAIHW8YX3","","null","<img src=""img/food2.png"" style=""width:200px; border:14px solid green;"">","null","","","","","","","","","",""
"","image-keyboard-response","152","207076","0.0-152.0","3FK0YFF9P0270TJ749GWVE5RRJ9VVI","A3HVFSD8K94SOR","3HUR21WDDUBEMSLDIXZW1FAIHW8YX3","","639","img/food2.png","76","640","3","1","1","1","1,0.5,0,1,0.5,0,0.5,0,1","0.5,0,1,0.5,0,1,0,1,0.5","2","",""
"","html-keyboard-response","153","207387","0.0-153.0","3FK0YFF9P0270TJ749GWVE5RRJ9VVI","A3HVFSD8K94SOR","3HUR21WDDUBEMSLDIXZW1FAIHW8YX3","","null","<img src=""img/food2.png"" style=""width:200px; border:14px solid green;"">","null","","","","","","","","","",""
"","image-keyboard-response","154","208081","0.0-154.0","3FK0YFF9P0270TJ749GWVE5RRJ9VVI","A3HVFSD8K94SOR","3HUR21WDDUBEMSLDIXZW1FAIHW8YX3","","692","img/food1.png","76","693","3","1","2","1","1,0.5,0,1,0.5,0,0.5,0,1","0.5,0,1,0.5,0,1,0,1,0.5","2","",""
"","html-keyboard-response","155","208394","0.0-155.0","3FK0YFF9P0270TJ749GWVE5RRJ9VVI","A3HVFSD8K94SOR","3HUR21WDDUBEMSLDIXZW1FAIHW8YX3","","null","<img src=""img/food1.png"" style=""width:200px; border:14px solid green;"">","null","","","","","","","","","",""
"","image-keyboard-response","156","209159","0.0-156.0","3FK0YFF9P0270TJ749GWVE5RRJ9VVI","A3HVFSD8K94SOR","3HUR21WDDUBEMSLDIXZW1FAIHW8YX3","","765","img/food2.png","76","765","3","1","1","1","1,0.5,0,1,0.5,0,0.5,0,1","0.5,0,1,0.5,0,1,0,1,0.5","2","",""
"","html-keyboard-response","157","209469","0.0-157.0","3FK0YFF9P0270TJ749GWVE5RRJ9VVI","A3HVFSD8K94SOR","3HUR21WDDUBEMSLDIXZW1FAIHW8YX3","","null","<img src=""img/food2.png"" style=""width:200px; border:14px solid green;"">","null","","","","","","","","","",""
"","image-keyboard-response","158","210153","0.0-158.0","3FK0YFF9P0270TJ749GWVE5RRJ9VVI","A3HVFSD8K94SOR","3HUR21WDDUBEMSLDIXZW1FAIHW8YX3","","681","img/food1.png","76","683","3","1","2","1","1,0.5,0,1,0.5,0,0.5,0,1","0.5,0,1,0.5,0,1,0,1,0.5","2","",""
"","html-keyboard-response","159","210460","0.0-159.0","3FK0YFF9P0270TJ749GWVE5RRJ9VVI","A3HVFSD8K94SOR","3HUR21WDDUBEMSLDIXZW1FAIHW8YX3","","null","<img src=""img/food1.png"" style=""width:200px; border:14px solid green;"">","null","","","","","","","","","",""
"","image-keyboard-response","160","211151","0.0-160.0","3FK0YFF9P0270TJ749GWVE5RRJ9VVI","A3HVFSD8K94SOR","3HUR21WDDUBEMSLDIXZW1FAIHW8YX3","","690","img/food2.png","76","691","3","1","1","1","1,0.5,0,1,0.5,0,0.5,0,1","0.5,0,1,0.5,0,1,0,1,0.5","2","",""
"","html-keyboard-response","161","211479","0.0-161.0","3FK0YFF9P0270TJ749GWVE5RRJ9VVI","A3HVFSD8K94SOR","3HUR21WDDUBEMSLDIXZW1FAIHW8YX3","","null","<img src=""img/food2.png"" style=""width:200px; border:14px solid green;"">","null","","","","","","","","","",""
"","image-keyboard-response","162","212860","0.0-162.0","3FK0YFF9P0270TJ749GWVE5RRJ9VVI","A3HVFSD8K94SOR","3HUR21WDDUBEMSLDIXZW1FAIHW8YX3","","1379","img/food2.png","76","1379","3","1","1","1","1,0.5,0,1,0.5,0,0.5,0,1","0.5,0,1,0.5,0,1,0,1,0.5","2","",""
"","html-keyboard-response","163","213175","0.0-163.0","3FK0YFF9P0270TJ749GWVE5RRJ9VVI","A3HVFSD8K94SOR","3HUR21WDDUBEMSLDIXZW1FAIHW8YX3","","null","<img src=""img/food2.png"" style=""width:200px; border:14px solid green;"">","null","","","","","","","","","",""
"","image-keyboard-response","164","213978","0.0-164.0","3FK0YFF9P0270TJ749GWVE5RRJ9VVI","A3HVFSD8K94SOR","3HUR21WDDUBEMSLDIXZW1FAIHW8YX3","","801","img/food1.png","76","802","3","1","2","1","1,0.5,0,1,0.5,0,0.5,0,1","0.5,0,1,0.5,0,1,0,1,0.5","2","",""
"","html-keyboard-response","165","214279","0.0-165.0","3FK0YFF9P0270TJ749GWVE5RRJ9VVI","A3HVFSD8K94SOR","3HUR21WDDUBEMSLDIXZW1FAIHW8YX3","","null","<img src=""img/food1.png"" style=""width:200px; border:14px solid green;"">","null","","","","","","","","","",""
"","image-keyboard-response","166","214986","0.0-166.0","3FK0YFF9P0270TJ749GWVE5RRJ9VVI","A3HVFSD8K94SOR","3HUR21WDDUBEMSLDIXZW1FAIHW8YX3","","705","img/food1.png","76","706","3","1","2","1","1,0.5,0,1,0.5,0,0.5,0,1","0.5,0,1,0.5,0,1,0,1,0.5","2","",""
"","html-keyboard-response","167","215293","0.0-167.0","3FK0YFF9P0270TJ749GWVE5RRJ9VVI","A3HVFSD8K94SOR","3HUR21WDDUBEMSLDIXZW1FAIHW8YX3","","null","<img src=""img/food1.png"" style=""width:200px; border:14px solid green;"">","null","","","","","","","","","",""
"","image-keyboard-response","168","215875","0.0-168.0","3FK0YFF9P0270TJ749GWVE5RRJ9VVI","A3HVFSD8K94SOR","3HUR21WDDUBEMSLDIXZW1FAIHW8YX3","","580","img/food2.png","76","580","3","1","1","1","1,0.5,0,1,0.5,0,0.5,0,1","0.5,0,1,0.5,0,1,0,1,0.5","2","",""
"","html-keyboard-response","169","216179","0.0-169.0","3FK0YFF9P0270TJ749GWVE5RRJ9VVI","A3HVFSD8K94SOR","3HUR21WDDUBEMSLDIXZW1FAIHW8YX3","","null","<img src=""img/food2.png"" style=""width:200px; border:14px solid green;"">","null","","","","","","","","","",""
"","image-keyboard-response","170","216914","0.0-170.0","3FK0YFF9P0270TJ749GWVE5RRJ9VVI","A3HVFSD8K94SOR","3HUR21WDDUBEMSLDIXZW1FAIHW8YX3","","736","img/food1.png","76","736","3","1","2","1","1,0.5,0,1,0.5,0,0.5,0,1","0.5,0,1,0.5,0,1,0,1,0.5","2","",""
"","html-keyboard-response","171","217216","0.0-171.0","3FK0YFF9P0270TJ749GWVE5RRJ9VVI","A3HVFSD8K94SOR","3HUR21WDDUBEMSLDIXZW1FAIHW8YX3","","null","<img src=""img/food1.png"" style=""width:200px; border:14px solid green;"">","null","","","","","","","","","",""
"","image-keyboard-response","172","217937","0.0-172.0","3FK0YFF9P0270TJ749GWVE5RRJ9VVI","A3HVFSD8K94SOR","3HUR21WDDUBEMSLDIXZW1FAIHW8YX3","","720","img/food2.png","76","721","3","1","1","1","1,0.5,0,1,0.5,0,0.5,0,1","0.5,0,1,0.5,0,1,0,1,0.5","2","",""
"","html-keyboard-response","173","218254","0.0-173.0","3FK0YFF9P0270TJ749GWVE5RRJ9VVI","A3HVFSD8K94SOR","3HUR21WDDUBEMSLDIXZW1FAIHW8YX3","","null","<img src=""img/food2.png"" style=""width:200px; border:14px solid green;"">","null","","","","","","","","","",""
"","image-keyboard-response","174","219042","0.0-174.0","3FK0YFF9P0270TJ749GWVE5RRJ9VVI","A3HVFSD8K94SOR","3HUR21WDDUBEMSLDIXZW1FAIHW8YX3","","787","img/food4.png","75","788","2","1","3","1","1,0.5,0,1,0.5,0,0.5,0,1","0.5,0,1,0.5,0,1,0,1,0.5","2","",""
"","html-keyboard-response","175","219345","0.0-175.0","3FK0YFF9P0270TJ749GWVE5RRJ9VVI","A3HVFSD8K94SOR","3HUR21WDDUBEMSLDIXZW1FAIHW8YX3","","null","<img src=""img/food4.png"" style=""width:200px; border:14px solid green;"">","null","","","","","","","","","",""
"","image-keyboard-response","176","220536","0.0-176.0","3FK0YFF9P0270TJ749GWVE5RRJ9VVI","A3HVFSD8K94SOR","3HUR21WDDUBEMSLDIXZW1FAIHW8YX3","","1189","img/food1.png","76","1191","3","1","2","1","1,0.5,0,1,0.5,0,0.5,0,1","0.5,0,1,0.5,0,1,0,1,0.5","2","",""
"","html-keyboard-response","177","220850","0.0-177.0","3FK0YFF9P0270TJ749GWVE5RRJ9VVI","A3HVFSD8K94SOR","3HUR21WDDUBEMSLDIXZW1FAIHW8YX3","","null","<img src=""img/food1.png"" style=""width:200px; border:14px solid green;"">","null","","","","","","","","","",""
"","image-keyboard-response","178","221783","0.0-178.0","3FK0YFF9P0270TJ749GWVE5RRJ9VVI","A3HVFSD8K94SOR","3HUR21WDDUBEMSLDIXZW1FAIHW8YX3","","932","img/food2.png","76","933","3","1","1","1","1,0.5,0,1,0.5,0,0.5,0,1","0.5,0,1,0.5,0,1,0,1,0.5","2","",""
"","html-keyboard-response","179","222095","0.0-179.0","3FK0YFF9P0270TJ749GWVE5RRJ9VVI","A3HVFSD8K94SOR","3HUR21WDDUBEMSLDIXZW1FAIHW8YX3","","null","<img src=""img/food2.png"" style=""width:200px; border:14px solid green;"">","null","","","","","","","","","",""
"","image-keyboard-response","180","223011","0.0-180.0","3FK0YFF9P0270TJ749GWVE5RRJ9VVI","A3HVFSD8K94SOR","3HUR21WDDUBEMSLDIXZW1FAIHW8YX3","","914","img/food1.png","76","915","3","1","2","1","1,0.5,0,1,0.5,0,0.5,0,1","0.5,0,1,0.5,0,1,0,1,0.5","2","",""
"","html-keyboard-response","181","223321","0.0-181.0","3FK0YFF9P0270TJ749GWVE5RRJ9VVI","A3HVFSD8K94SOR","3HUR21WDDUBEMSLDIXZW1FAIHW8YX3","","null","<img src=""img/food1.png"" style=""width:200px; border:14px solid green;"">","null","","","","","","","","","",""
"","html-keyboard-response","182","231166","0.0-182.0","3FK0YFF9P0270TJ749GWVE5RRJ9VVI","A3HVFSD8K94SOR","3HUR21WDDUBEMSLDIXZW1FAIHW8YX3","","","","","","","","","","","","","",""
"","instructions","183","262636","0.0-183.0","3FK0YFF9P0270TJ749GWVE5RRJ9VVI","A3HVFSD8K94SOR","3HUR21WDDUBEMSLDIXZW1FAIHW8YX3","[{""page_index"":0,""viewing_time"":27951},{""page_index"":1,""viewing_time"":3516}]","31467","","","","","","","","","","","",""
"","image-keyboard-response","184","263246","0.0-184.0","3FK0YFF9P0270TJ749GWVE5RRJ9VVI","A3HVFSD8K94SOR","3HUR21WDDUBEMSLDIXZW1FAIHW8YX3","","608","img/food6.png","74","609","1","1","2","2","1,0.5,0,1,0.5,0,0.5,0,1","0.5,0,1,0.5,0,1,0,1,0.5","2","false",""
"","html-keyboard-response","185","263554","0.0-185.0","3FK0YFF9P0270TJ749GWVE5RRJ9VVI","A3HVFSD8K94SOR","3HUR21WDDUBEMSLDIXZW1FAIHW8YX3","","null","<img src=""img/food6.png"" style=""width:200px; border:14px solid green;"">","null","","","","","","","","","",""
"","image-keyboard-response","186","264355","0.0-187.0","3FK0YFF9P0270TJ749GWVE5RRJ9VVI","A3HVFSD8K94SOR","3HUR21WDDUBEMSLDIXZW1FAIHW8YX3","","800","img/food3.png","75","801","2","1","3","2","1,0.5,0,1,0.5,0,0.5,0,1","0.5,0,1,0.5,0,1,0,1,0.5","2","false",""
"","html-keyboard-response","187","264659","0.0-188.0","3FK0YFF9P0270TJ749GWVE5RRJ9VVI","A3HVFSD8K94SOR","3HUR21WDDUBEMSLDIXZW1FAIHW8YX3","","null","<img src=""img/food3.png"" style=""width:200px; border:14px solid green;"">","null","","","","","","","","","",""
"","image-keyboard-response","188","265295","0.0-190.0","3FK0YFF9P0270TJ749GWVE5RRJ9VVI","A3HVFSD8K94SOR","3HUR21WDDUBEMSLDIXZW1FAIHW8YX3","","634","img/food6.png","74","635","1","1","2","2","1,0.5,0,1,0.5,0,0.5,0,1","0.5,0,1,0.5,0,1,0,1,0.5","2","false",""
"","html-keyboard-response","189","265617","0.0-191.0","3FK0YFF9P0270TJ749GWVE5RRJ9VVI","A3HVFSD8K94SOR","3HUR21WDDUBEMSLDIXZW1FAIHW8YX3","","null","<img src=""img/food6.png"" style=""width:200px; border:14px solid green;"">","null","","","","","","","","","",""
"","image-keyboard-response","190","266053","0.0-193.0","3FK0YFF9P0270TJ749GWVE5RRJ9VVI","A3HVFSD8K94SOR","3HUR21WDDUBEMSLDIXZW1FAIHW8YX3","","435","img/food3.png","75","436","2","1","3","2","1,0.5,0,1,0.5,0,0.5,0,1","0.5,0,1,0.5,0,1,0,1,0.5","2","false",""
"","html-keyboard-response","191","266368","0.0-194.0","3FK0YFF9P0270TJ749GWVE5RRJ9VVI","A3HVFSD8K94SOR","3HUR21WDDUBEMSLDIXZW1FAIHW8YX3","","null","<img src=""img/food3.png"" style=""width:200px; border:14px solid green;"">","null","","","","","","","","","",""
"","image-keyboard-response","192","266927","0.0-196.0","3FK0YFF9P0270TJ749GWVE5RRJ9VVI","A3HVFSD8K94SOR","3HUR21WDDUBEMSLDIXZW1FAIHW8YX3","","558","img/food6.png","74","558","1","0","2","2","1,0.5,0,1,0.5,0,0.5,0,1","0.5,0,1,0.5,0,1,0,1,0.5","2","false",""
"","html-keyboard-response","193","267243","0.0-197.0","3FK0YFF9P0270TJ749GWVE5RRJ9VVI","A3HVFSD8K94SOR","3HUR21WDDUBEMSLDIXZW1FAIHW8YX3","","null","<img src=""img/food6.png"" style=""width:200px;border:14px solid red;"">","null","","","","","","","","","",""
"","image-keyboard-response","194","268186","0.0-199.0","3FK0YFF9P0270TJ749GWVE5RRJ9VVI","A3HVFSD8K94SOR","3HUR21WDDUBEMSLDIXZW1FAIHW8YX3","","942","img/food5.png","76","944","3","1","1","2","1,0.5,0,1,0.5,0,0.5,0,1","0.5,0,1,0.5,0,1,0,1,0.5","2","false",""
"","html-keyboard-response","195","268494","0.0-200.0","3FK0YFF9P0270TJ749GWVE5RRJ9VVI","A3HVFSD8K94SOR","3HUR21WDDUBEMSLDIXZW1FAIHW8YX3","","null","<img src=""img/food5.png"" style=""width:200px; border:14px solid green;"">","null","","","","","","","","","",""
"","image-keyboard-response","196","269195","0.0-202.0","3FK0YFF9P0270TJ749GWVE5RRJ9VVI","A3HVFSD8K94SOR","3HUR21WDDUBEMSLDIXZW1FAIHW8YX3","","699","img/food5.png","76","699","3","1","1","2","1,0.5,0,1,0.5,0,0.5,0,1","0.5,0,1,0.5,0,1,0,1,0.5","2","false",""
"","html-keyboard-response","197","269500","0.0-203.0","3FK0YFF9P0270TJ749GWVE5RRJ9VVI","A3HVFSD8K94SOR","3HUR21WDDUBEMSLDIXZW1FAIHW8YX3","","null","<img src=""img/food5.png"" style=""width:200px; border:14px solid green;"">","null","","","","","","","","","",""
"","image-keyboard-response","198","270208","0.0-205.0","3FK0YFF9P0270TJ749GWVE5RRJ9VVI","A3HVFSD8K94SOR","3HUR21WDDUBEMSLDIXZW1FAIHW8YX3","","707","img/food3.png","75","707","2","1","3","2","1,0.5,0,1,0.5,0,0.5,0,1","0.5,0,1,0.5,0,1,0,1,0.5","2","false",""
"","html-keyboard-response","199","270529","0.0-206.0","3FK0YFF9P0270TJ749GWVE5RRJ9VVI","A3HVFSD8K94SOR","3HUR21WDDUBEMSLDIXZW1FAIHW8YX3","","null","<img src=""img/food3.png"" style=""width:200px; border:14px solid green;"">","null","","","","","","","","","",""
"","image-keyboard-response","200","271282","0.0-208.0","3FK0YFF9P0270TJ749GWVE5RRJ9VVI","A3HVFSD8K94SOR","3HUR21WDDUBEMSLDIXZW1FAIHW8YX3","","751","img/food5.png","76","753","3","1","1","2","1,0.5,0,1,0.5,0,0.5,0,1","0.5,0,1,0.5,0,1,0,1,0.5","2","false",""
"","html-keyboard-response","201","271599","0.0-209.0","3FK0YFF9P0270TJ749GWVE5RRJ9VVI","A3HVFSD8K94SOR","3HUR21WDDUBEMSLDIXZW1FAIHW8YX3","","null","<img src=""img/food5.png"" style=""width:200px; border:14px solid green;"">","null","","","","","","","","","",""
"","image-keyboard-response","202","272171","0.0-211.0","3FK0YFF9P0270TJ749GWVE5RRJ9VVI","A3HVFSD8K94SOR","3HUR21WDDUBEMSLDIXZW1FAIHW8YX3","","571","img/food3.png","75","572","2","1","3","2","1,0.5,0,1,0.5,0,0.5,0,1","0.5,0,1,0.5,0,1,0,1,0.5","2","false",""
"","html-keyboard-response","203","272474","0.0-212.0","3FK0YFF9P0270TJ749GWVE5RRJ9VVI","A3HVFSD8K94SOR","3HUR21WDDUBEMSLDIXZW1FAIHW8YX3","","null","<img src=""img/food3.png"" style=""width:200px; border:14px solid green;"">","null","","","","","","","","","",""
"","image-keyboard-response","204","273140","0.0-214.0","3FK0YFF9P0270TJ749GWVE5RRJ9VVI","A3HVFSD8K94SOR","3HUR21WDDUBEMSLDIXZW1FAIHW8YX3","","665","img/food3.png","75","665","2","1","3","2","1,0.5,0,1,0.5,0,0.5,0,1","0.5,0,1,0.5,0,1,0,1,0.5","2","false",""
"","html-keyboard-response","205","273462","0.0-215.0","3FK0YFF9P0270TJ749GWVE5RRJ9VVI","A3HVFSD8K94SOR","3HUR21WDDUBEMSLDIXZW1FAIHW8YX3","","null","<img src=""img/food3.png"" style=""width:200px; border:14px solid green;"">","null","","","","","","","","","",""
"","image-keyboard-response","206","274199","0.0-217.0","3FK0YFF9P0270TJ749GWVE5RRJ9VVI","A3HVFSD8K94SOR","3HUR21WDDUBEMSLDIXZW1FAIHW8YX3","","735","img/food6.png","74","737","1","0","2","2","1,0.5,0,1,0.5,0,0.5,0,1","0.5,0,1,0.5,0,1,0,1,0.5","2","false",""
"","html-keyboard-response","207","274502","0.0-218.0","3FK0YFF9P0270TJ749GWVE5RRJ9VVI","A3HVFSD8K94SOR","3HUR21WDDUBEMSLDIXZW1FAIHW8YX3","","null","<img src=""img/food6.png"" style=""width:200px;border:14px solid red;"">","null","","","","","","","","","",""
"","image-keyboard-response","208","275323","0.0-220.0","3FK0YFF9P0270TJ749GWVE5RRJ9VVI","A3HVFSD8K94SOR","3HUR21WDDUBEMSLDIXZW1FAIHW8YX3","","819","img/food5.png","76","821","3","1","1","2","1,0.5,0,1,0.5,0,0.5,0,1","0.5,0,1,0.5,0,1,0,1,0.5","2","false",""
"","html-keyboard-response","209","275636","0.0-221.0","3FK0YFF9P0270TJ749GWVE5RRJ9VVI","A3HVFSD8K94SOR","3HUR21WDDUBEMSLDIXZW1FAIHW8YX3","","null","<img src=""img/food5.png"" style=""width:200px; border:14px solid green;"">","null","","","","","","","","","",""
"","image-keyboard-response","210","276325","0.0-223.0","3FK0YFF9P0270TJ749GWVE5RRJ9VVI","A3HVFSD8K94SOR","3HUR21WDDUBEMSLDIXZW1FAIHW8YX3","","689","img/food6.png","75","689","2","0","2","2","1,0.5,0,1,0.5,0,0.5,0,1","0.5,0,1,0.5,0,1,0,1,0.5","2","false",""
"","html-keyboard-response","211","276640","0.0-224.0","3FK0YFF9P0270TJ749GWVE5RRJ9VVI","A3HVFSD8K94SOR","3HUR21WDDUBEMSLDIXZW1FAIHW8YX3","","null","<img src=""img/food6.png"" style=""width:200px;border:14px solid red;"">","null","","","","","","","","","",""
"","image-keyboard-response","212","277551","0.0-226.0","3FK0YFF9P0270TJ749GWVE5RRJ9VVI","A3HVFSD8K94SOR","3HUR21WDDUBEMSLDIXZW1FAIHW8YX3","","908","img/food5.png","76","910","3","1","1","2","1,0.5,0,1,0.5,0,0.5,0,1","0.5,0,1,0.5,0,1,0,1,0.5","2","false",""
"","html-keyboard-response","213","277864","0.0-227.0","3FK0YFF9P0270TJ749GWVE5RRJ9VVI","A3HVFSD8K94SOR","3HUR21WDDUBEMSLDIXZW1FAIHW8YX3","","null","<img src=""img/food5.png"" style=""width:200px; border:14px solid green;"">","null","","","","","","","","","",""
"","image-keyboard-response","214","278654","0.0-229.0","3FK0YFF9P0270TJ749GWVE5RRJ9VVI","A3HVFSD8K94SOR","3HUR21WDDUBEMSLDIXZW1FAIHW8YX3","","789","img/food6.png","74","789","1","0","2","2","1,0.5,0,1,0.5,0,0.5,0,1","0.5,0,1,0.5,0,1,0,1,0.5","2","false",""
"","html-keyboard-response","215","278970","0.0-230.0","3FK0YFF9P0270TJ749GWVE5RRJ9VVI","A3HVFSD8K94SOR","3HUR21WDDUBEMSLDIXZW1FAIHW8YX3","","null","<img src=""img/food6.png"" style=""width:200px;border:14px solid red;"">","null","","","","","","","","","",""
"","image-keyboard-response","216","279432","0.0-232.0","3FK0YFF9P0270TJ749GWVE5RRJ9VVI","A3HVFSD8K94SOR","3HUR21WDDUBEMSLDIXZW1FAIHW8YX3","","460","img/food6.png","74","461","1","0","2","2","1,0.5,0,1,0.5,0,0.5,0,1","0.5,0,1,0.5,0,1,0,1,0.5","2","false",""
"","html-keyboard-response","217","279743","0.0-233.0","3FK0YFF9P0270TJ749GWVE5RRJ9VVI","A3HVFSD8K94SOR","3HUR21WDDUBEMSLDIXZW1FAIHW8YX3","","null","<img src=""img/food6.png"" style=""width:200px;border:14px solid red;"">","null","","","","","","","","","",""
"","image-keyboard-response","218","280727","0.0-235.0","3FK0YFF9P0270TJ749GWVE5RRJ9VVI","A3HVFSD8K94SOR","3HUR21WDDUBEMSLDIXZW1FAIHW8YX3","","982","img/food3.png","75","982","2","1","3","2","1,0.5,0,1,0.5,0,0.5,0,1","0.5,0,1,0.5,0,1,0,1,0.5","2","false",""
"","html-keyboard-response","219","281034","0.0-236.0","3FK0YFF9P0270TJ749GWVE5RRJ9VVI","A3HVFSD8K94SOR","3HUR21WDDUBEMSLDIXZW1FAIHW8YX3","","null","<img src=""img/food3.png"" style=""width:200px; border:14px solid green;"">","null","","","","","","","","","",""
"","image-keyboard-response","220","281575","0.0-238.0","3FK0YFF9P0270TJ749GWVE5RRJ9VVI","A3HVFSD8K94SOR","3HUR21WDDUBEMSLDIXZW1FAIHW8YX3","","540","img/food3.png","75","540","2","1","3","2","1,0.5,0,1,0.5,0,0.5,0,1","0.5,0,1,0.5,0,1,0,1,0.5","2","false",""
"","html-keyboard-response","221","281884","0.0-239.0","3FK0YFF9P0270TJ749GWVE5RRJ9VVI","A3HVFSD8K94SOR","3HUR21WDDUBEMSLDIXZW1FAIHW8YX3","","null","<img src=""img/food3.png"" style=""width:200px; border:14px solid green;"">","null","","","","","","","","","",""
"","image-keyboard-response","222","282525","0.0-241.0","3FK0YFF9P0270TJ749GWVE5RRJ9VVI","A3HVFSD8K94SOR","3HUR21WDDUBEMSLDIXZW1FAIHW8YX3","","639","img/food3.png","75","639","2","1","3","2","1,0.5,0,1,0.5,0,0.5,0,1","0.5,0,1,0.5,0,1,0,1,0.5","2","false",""
"","html-keyboard-response","223","282828","0.0-242.0","3FK0YFF9P0270TJ749GWVE5RRJ9VVI","A3HVFSD8K94SOR","3HUR21WDDUBEMSLDIXZW1FAIHW8YX3","","null","<img src=""img/food3.png"" style=""width:200px; border:14px solid green;"">","null","","","","","","","","","",""
"","image-keyboard-response","224","283828","0.0-244.0","3FK0YFF9P0270TJ749GWVE5RRJ9VVI","A3HVFSD8K94SOR","3HUR21WDDUBEMSLDIXZW1FAIHW8YX3","","998","img/food6.png","75","999","2","0","2","2","1,0.5,0,1,0.5,0,0.5,0,1","0.5,0,1,0.5,0,1,0,1,0.5","2","false",""
"","html-keyboard-response","225","284133","0.0-245.0","3FK0YFF9P0270TJ749GWVE5RRJ9VVI","A3HVFSD8K94SOR","3HUR21WDDUBEMSLDIXZW1FAIHW8YX3","","null","<img src=""img/food6.png"" style=""width:200px;border:14px solid red;"">","null","","","","","","","","","",""
"","image-keyboard-response","226","285067","0.0-247.0","3FK0YFF9P0270TJ749GWVE5RRJ9VVI","A3HVFSD8K94SOR","3HUR21WDDUBEMSLDIXZW1FAIHW8YX3","","932","img/food5.png","76","934","3","1","1","2","1,0.5,0,1,0.5,0,0.5,0,1","0.5,0,1,0.5,0,1,0,1,0.5","2","false",""
"","html-keyboard-response","227","285372","0.0-248.0","3FK0YFF9P0270TJ749GWVE5RRJ9VVI","A3HVFSD8K94SOR","3HUR21WDDUBEMSLDIXZW1FAIHW8YX3","","null","<img src=""img/food5.png"" style=""width:200px; border:14px solid green;"">","null","","","","","","","","","",""
"","image-keyboard-response","228","286380","0.0-250.0","3FK0YFF9P0270TJ749GWVE5RRJ9VVI","A3HVFSD8K94SOR","3HUR21WDDUBEMSLDIXZW1FAIHW8YX3","","","img/food3.png","","1006","-1","0","3","2","1,0.5,0,1,0.5,0,0.5,0,1","0.5,0,1,0.5,0,1,0,1,0.5","2","true",""
"","html-keyboard-response","229","286682","0.0-251.0","3FK0YFF9P0270TJ749GWVE5RRJ9VVI","A3HVFSD8K94SOR","3HUR21WDDUBEMSLDIXZW1FAIHW8YX3","","null","<img src=""img/food3.png"" style=""width:200px;border:14px solid red;"">","null","","","","","","","","","",""
"","html-keyboard-response","230","295949","0.0-252.0-0.0","3FK0YFF9P0270TJ749GWVE5RRJ9VVI","A3HVFSD8K94SOR","3HUR21WDDUBEMSLDIXZW1FAIHW8YX3","","","","","","","","","","","","","",""
"","image-keyboard-response","231","296582","0.0-253.0","3FK0YFF9P0270TJ749GWVE5RRJ9VVI","A3HVFSD8K94SOR","3HUR21WDDUBEMSLDIXZW1FAIHW8YX3","","631","img/food3.png","75","633","2","1","3","2","1,0.5,0,1,0.5,0,0.5,0,1","0.5,0,1,0.5,0,1,0,1,0.5","2","false",""
"","html-keyboard-response","232","296887","0.0-254.0","3FK0YFF9P0270TJ749GWVE5RRJ9VVI","A3HVFSD8K94SOR","3HUR21WDDUBEMSLDIXZW1FAIHW8YX3","","null","<img src=""img/food3.png"" style=""width:200px; border:14px solid green;"">","null","","","","","","","","","",""
"","image-keyboard-response","233","297492","0.0-256.0","3FK0YFF9P0270TJ749GWVE5RRJ9VVI","A3HVFSD8K94SOR","3HUR21WDDUBEMSLDIXZW1FAIHW8YX3","","603","img/food5.png","76","605","3","1","1","2","1,0.5,0,1,0.5,0,0.5,0,1","0.5,0,1,0.5,0,1,0,1,0.5","2","false",""
"","html-keyboard-response","234","297793","0.0-257.0","3FK0YFF9P0270TJ749GWVE5RRJ9VVI","A3HVFSD8K94SOR","3HUR21WDDUBEMSLDIXZW1FAIHW8YX3","","null","<img src=""img/food5.png"" style=""width:200px; border:14px solid green;"">","null","","","","","","","","","",""
"","image-keyboard-response","235","298355","0.0-259.0","3FK0YFF9P0270TJ749GWVE5RRJ9VVI","A3HVFSD8K94SOR","3HUR21WDDUBEMSLDIXZW1FAIHW8YX3","","559","img/food3.png","75","560","2","1","3","2","1,0.5,0,1,0.5,0,0.5,0,1","0.5,0,1,0.5,0,1,0,1,0.5","2","false",""
"","html-keyboard-response","236","298659","0.0-260.0","3FK0YFF9P0270TJ749GWVE5RRJ9VVI","A3HVFSD8K94SOR","3HUR21WDDUBEMSLDIXZW1FAIHW8YX3","","null","<img src=""img/food3.png"" style=""width:200px; border:14px solid green;"">","null","","","","","","","","","",""
"","image-keyboard-response","237","299130","0.0-262.0","3FK0YFF9P0270TJ749GWVE5RRJ9VVI","A3HVFSD8K94SOR","3HUR21WDDUBEMSLDIXZW1FAIHW8YX3","","469","img/food3.png","75","469","2","1","3","2","1,0.5,0,1,0.5,0,0.5,0,1","0.5,0,1,0.5,0,1,0,1,0.5","2","false",""
"","html-keyboard-response","238","299433","0.0-263.0","3FK0YFF9P0270TJ749GWVE5RRJ9VVI","A3HVFSD8K94SOR","3HUR21WDDUBEMSLDIXZW1FAIHW8YX3","","null","<img src=""img/food3.png"" style=""width:200px; border:14px solid green;"">","null","","","","","","","","","",""
"","image-keyboard-response","239","300223","0.0-265.0","3FK0YFF9P0270TJ749GWVE5RRJ9VVI","A3HVFSD8K94SOR","3HUR21WDDUBEMSLDIXZW1FAIHW8YX3","","789","img/food6.png","74","791","1","0","2","2","1,0.5,0,1,0.5,0,0.5,0,1","0.5,0,1,0.5,0,1,0,1,0.5","2","false",""
"","html-keyboard-response","240","300538","0.0-266.0","3FK0YFF9P0270TJ749GWVE5RRJ9VVI","A3HVFSD8K94SOR","3HUR21WDDUBEMSLDIXZW1FAIHW8YX3","","null","<img src=""img/food6.png"" style=""width:200px;border:14px solid red;"">","null","","","","","","","","","",""
"","image-keyboard-response","241","301062","0.0-268.0","3FK0YFF9P0270TJ749GWVE5RRJ9VVI","A3HVFSD8K94SOR","3HUR21WDDUBEMSLDIXZW1FAIHW8YX3","","523","img/food5.png","74","523","1","1","1","2","1,0.5,0,1,0.5,0,0.5,0,1","0.5,0,1,0.5,0,1,0,1,0.5","2","false",""
"","html-keyboard-response","242","301390","0.0-269.0","3FK0YFF9P0270TJ749GWVE5RRJ9VVI","A3HVFSD8K94SOR","3HUR21WDDUBEMSLDIXZW1FAIHW8YX3","","null","<img src=""img/food5.png"" style=""width:200px; border:14px solid green;"">","null","","","","","","","","","",""
"","image-keyboard-response","243","302036","0.0-271.0","3FK0YFF9P0270TJ749GWVE5RRJ9VVI","A3HVFSD8K94SOR","3HUR21WDDUBEMSLDIXZW1FAIHW8YX3","","644","img/food3.png","74","645","1","0","3","2","1,0.5,0,1,0.5,0,0.5,0,1","0.5,0,1,0.5,0,1,0,1,0.5","2","false",""
"","html-keyboard-response","244","302350","0.0-272.0","3FK0YFF9P0270TJ749GWVE5RRJ9VVI","A3HVFSD8K94SOR","3HUR21WDDUBEMSLDIXZW1FAIHW8YX3","","null","<img src=""img/food3.png"" style=""width:200px;border:14px solid red;"">","null","","","","","","","","","",""
"","image-keyboard-response","245","302890","0.0-274.0","3FK0YFF9P0270TJ749GWVE5RRJ9VVI","A3HVFSD8K94SOR","3HUR21WDDUBEMSLDIXZW1FAIHW8YX3","","538","img/food3.png","75","539","2","1","3","2","1,0.5,0,1,0.5,0,0.5,0,1","0.5,0,1,0.5,0,1,0,1,0.5","2","false",""
"","html-keyboard-response","246","303201","0.0-275.0","3FK0YFF9P0270TJ749GWVE5RRJ9VVI","A3HVFSD8K94SOR","3HUR21WDDUBEMSLDIXZW1FAIHW8YX3","","null","<img src=""img/food3.png"" style=""width:200px; border:14px solid green;"">","null","","","","","","","","","",""
"","image-keyboard-response","247","303613","0.0-277.0","3FK0YFF9P0270TJ749GWVE5RRJ9VVI","A3HVFSD8K94SOR","3HUR21WDDUBEMSLDIXZW1FAIHW8YX3","","411","img/food3.png","75","412","2","1","3","2","1,0.5,0,1,0.5,0,0.5,0,1","0.5,0,1,0.5,0,1,0,1,0.5","2","false",""
"","html-keyboard-response","248","303925","0.0-278.0","3FK0YFF9P0270TJ749GWVE5RRJ9VVI","A3HVFSD8K94SOR","3HUR21WDDUBEMSLDIXZW1FAIHW8YX3","","null","<img src=""img/food3.png"" style=""width:200px; border:14px solid green;"">","null","","","","","","","","","",""
"","image-keyboard-response","249","304707","0.0-280.0","3FK0YFF9P0270TJ749GWVE5RRJ9VVI","A3HVFSD8K94SOR","3HUR21WDDUBEMSLDIXZW1FAIHW8YX3","","780","img/food6.png","75","781","2","0","2","2","1,0.5,0,1,0.5,0,0.5,0,1","0.5,0,1,0.5,0,1,0,1,0.5","2","false",""
"","html-keyboard-response","250","305031","0.0-281.0","3FK0YFF9P0270TJ749GWVE5RRJ9VVI","A3HVFSD8K94SOR","3HUR21WDDUBEMSLDIXZW1FAIHW8YX3","","null","<img src=""img/food6.png"" style=""width:200px;border:14px solid red;"">","null","","","","","","","","","",""
"","image-keyboard-response","251","305527","0.0-283.0","3FK0YFF9P0270TJ749GWVE5RRJ9VVI","A3HVFSD8K94SOR","3HUR21WDDUBEMSLDIXZW1FAIHW8YX3","","495","img/food6.png","76","497","3","1","2","2","1,0.5,0,1,0.5,0,0.5,0,1","0.5,0,1,0.5,0,1,0,1,0.5","2","false",""
"","html-keyboard-response","252","305835","0.0-284.0","3FK0YFF9P0270TJ749GWVE5RRJ9VVI","A3HVFSD8K94SOR","3HUR21WDDUBEMSLDIXZW1FAIHW8YX3","","null","<img src=""img/food6.png"" style=""width:200px; border:14px solid green;"">","null","","","","","","","","","",""
"","image-keyboard-response","253","306220","0.0-286.0","3FK0YFF9P0270TJ749GWVE5RRJ9VVI","A3HVFSD8K94SOR","3HUR21WDDUBEMSLDIXZW1FAIHW8YX3","","383","img/food6.png","76","384","3","1","2","2","1,0.5,0,1,0.5,0,0.5,0,1","0.5,0,1,0.5,0,1,0,1,0.5","2","false",""
"","html-keyboard-response","254","306532","0.0-287.0","3FK0YFF9P0270TJ749GWVE5RRJ9VVI","A3HVFSD8K94SOR","3HUR21WDDUBEMSLDIXZW1FAIHW8YX3","","null","<img src=""img/food6.png"" style=""width:200px; border:14px solid green;"">","null","","","","","","","","","",""
"","image-keyboard-response","255","306960","0.0-289.0","3FK0YFF9P0270TJ749GWVE5RRJ9VVI","A3HVFSD8K94SOR","3HUR21WDDUBEMSLDIXZW1FAIHW8YX3","","425","img/food6.png","76","426","3","1","2","2","1,0.5,0,1,0.5,0,0.5,0,1","0.5,0,1,0.5,0,1,0,1,0.5","2","false",""
"","html-keyboard-response","256","307272","0.0-290.0","3FK0YFF9P0270TJ749GWVE5RRJ9VVI","A3HVFSD8K94SOR","3HUR21WDDUBEMSLDIXZW1FAIHW8YX3","","null","<img src=""img/food6.png"" style=""width:200px; border:14px solid green;"">","null","","","","","","","","","",""
"","image-keyboard-response","257","307889","0.0-292.0","3FK0YFF9P0270TJ749GWVE5RRJ9VVI","A3HVFSD8K94SOR","3HUR21WDDUBEMSLDIXZW1FAIHW8YX3","","614","img/food3.png","75","615","2","1","3","2","1,0.5,0,1,0.5,0,0.5,0,1","0.5,0,1,0.5,0,1,0,1,0.5","2","false",""
"","html-keyboard-response","258","308200","0.0-293.0","3FK0YFF9P0270TJ749GWVE5RRJ9VVI","A3HVFSD8K94SOR","3HUR21WDDUBEMSLDIXZW1FAIHW8YX3","","null","<img src=""img/food3.png"" style=""width:200px; border:14px solid green;"">","null","","","","","","","","","",""
"","image-keyboard-response","259","308782","0.0-295.0","3FK0YFF9P0270TJ749GWVE5RRJ9VVI","A3HVFSD8K94SOR","3HUR21WDDUBEMSLDIXZW1FAIHW8YX3","","581","img/food6.png","76","582","3","1","2","2","1,0.5,0,1,0.5,0,0.5,0,1","0.5,0,1,0.5,0,1,0,1,0.5","2","false",""
"","html-keyboard-response","260","309086","0.0-296.0","3FK0YFF9P0270TJ749GWVE5RRJ9VVI","A3HVFSD8K94SOR","3HUR21WDDUBEMSLDIXZW1FAIHW8YX3","","null","<img src=""img/food6.png"" style=""width:200px; border:14px solid green;"">","null","","","","","","","","","",""
"","image-keyboard-response","261","309448","0.0-298.0","3FK0YFF9P0270TJ749GWVE5RRJ9VVI","A3HVFSD8K94SOR","3HUR21WDDUBEMSLDIXZW1FAIHW8YX3","","362","img/food6.png","76","362","3","1","2","2","1,0.5,0,1,0.5,0,0.5,0,1","0.5,0,1,0.5,0,1,0,1,0.5","2","false",""
"","html-keyboard-response","262","309752","0.0-299.0","3FK0YFF9P0270TJ749GWVE5RRJ9VVI","A3HVFSD8K94SOR","3HUR21WDDUBEMSLDIXZW1FAIHW8YX3","","null","<img src=""img/food6.png"" style=""width:200px; border:14px solid green;"">","null","","","","","","","","","",""
"","image-keyboard-response","263","310235","0.0-301.0","3FK0YFF9P0270TJ749GWVE5RRJ9VVI","A3HVFSD8K94SOR","3HUR21WDDUBEMSLDIXZW1FAIHW8YX3","","482","img/food3.png","75","484","2","1","3","2","1,0.5,0,1,0.5,0,0.5,0,1","0.5,0,1,0.5,0,1,0,1,0.5","2","false",""
"","html-keyboard-response","264","310546","0.0-302.0","3FK0YFF9P0270TJ749GWVE5RRJ9VVI","A3HVFSD8K94SOR","3HUR21WDDUBEMSLDIXZW1FAIHW8YX3","","null","<img src=""img/food3.png"" style=""width:200px; border:14px solid green;"">","null","","","","","","","","","",""
"","image-keyboard-response","265","311020","0.0-304.0","3FK0YFF9P0270TJ749GWVE5RRJ9VVI","A3HVFSD8K94SOR","3HUR21WDDUBEMSLDIXZW1FAIHW8YX3","","473","img/food3.png","75","474","2","1","3","2","1,0.5,0,1,0.5,0,0.5,0,1","0.5,0,1,0.5,0,1,0,1,0.5","2","false",""
"","html-keyboard-response","266","311324","0.0-305.0","3FK0YFF9P0270TJ749GWVE5RRJ9VVI","A3HVFSD8K94SOR","3HUR21WDDUBEMSLDIXZW1FAIHW8YX3","","null","<img src=""img/food3.png"" style=""width:200px; border:14px solid green;"">","null","","","","","","","","","",""
"","image-keyboard-response","267","312033","0.0-307.0","3FK0YFF9P0270TJ749GWVE5RRJ9VVI","A3HVFSD8K94SOR","3HUR21WDDUBEMSLDIXZW1FAIHW8YX3","","709","img/food5.png","76","709","3","1","1","2","1,0.5,0,1,0.5,0,0.5,0,1","0.5,0,1,0.5,0,1,0,1,0.5","2","false",""
"","html-keyboard-response","268","312349","0.0-308.0","3FK0YFF9P0270TJ749GWVE5RRJ9VVI","A3HVFSD8K94SOR","3HUR21WDDUBEMSLDIXZW1FAIHW8YX3","","null","<img src=""img/food5.png"" style=""width:200px; border:14px solid green;"">","null","","","","","","","","","",""
"","image-keyboard-response","269","313007","0.0-310.0","3FK0YFF9P0270TJ749GWVE5RRJ9VVI","A3HVFSD8K94SOR","3HUR21WDDUBEMSLDIXZW1FAIHW8YX3","","657","img/food3.png","75","658","2","1","3","2","1,0.5,0,1,0.5,0,0.5,0,1","0.5,0,1,0.5,0,1,0,1,0.5","2","false",""
"","html-keyboard-response","270","313318","0.0-311.0","3FK0YFF9P0270TJ749GWVE5RRJ9VVI","A3HVFSD8K94SOR","3HUR21WDDUBEMSLDIXZW1FAIHW8YX3","","null","<img src=""img/food3.png"" style=""width:200px; border:14px solid green;"">","null","","","","","","","","","",""
"","image-keyboard-response","271","313851","0.0-313.0","3FK0YFF9P0270TJ749GWVE5RRJ9VVI","A3HVFSD8K94SOR","3HUR21WDDUBEMSLDIXZW1FAIHW8YX3","","532","img/food5.png","76","533","3","1","1","2","1,0.5,0,1,0.5,0,0.5,0,1","0.5,0,1,0.5,0,1,0,1,0.5","2","false",""
"","html-keyboard-response","272","314155","0.0-314.0","3FK0YFF9P0270TJ749GWVE5RRJ9VVI","A3HVFSD8K94SOR","3HUR21WDDUBEMSLDIXZW1FAIHW8YX3","","null","<img src=""img/food5.png"" style=""width:200px; border:14px solid green;"">","null","","","","","","","","","",""
"","image-keyboard-response","273","314560","0.0-316.0","3FK0YFF9P0270TJ749GWVE5RRJ9VVI","A3HVFSD8K94SOR","3HUR21WDDUBEMSLDIXZW1FAIHW8YX3","","404","img/food5.png","76","405","3","1","1","2","1,0.5,0,1,0.5,0,0.5,0,1","0.5,0,1,0.5,0,1,0,1,0.5","2","false",""
"","html-keyboard-response","274","314872","0.0-317.0","3FK0YFF9P0270TJ749GWVE5RRJ9VVI","A3HVFSD8K94SOR","3HUR21WDDUBEMSLDIXZW1FAIHW8YX3","","null","<img src=""img/food5.png"" style=""width:200px; border:14px solid green;"">","null","","","","","","","","","",""
"","image-keyboard-response","275","315480","0.0-319.0","3FK0YFF9P0270TJ749GWVE5RRJ9VVI","A3HVFSD8K94SOR","3HUR21WDDUBEMSLDIXZW1FAIHW8YX3","","606","img/food3.png","75","608","2","1","3","2","1,0.5,0,1,0.5,0,0.5,0,1","0.5,0,1,0.5,0,1,0,1,0.5","2","false",""
"","html-keyboard-response","276","315787","0.0-320.0","3FK0YFF9P0270TJ749GWVE5RRJ9VVI","A3HVFSD8K94SOR","3HUR21WDDUBEMSLDIXZW1FAIHW8YX3","","null","<img src=""img/food3.png"" style=""width:200px; border:14px solid green;"">","null","","","","","","","","","",""
"","image-keyboard-response","277","316328","0.0-322.0","3FK0YFF9P0270TJ749GWVE5RRJ9VVI","A3HVFSD8K94SOR","3HUR21WDDUBEMSLDIXZW1FAIHW8YX3","","541","img/food5.png","76","541","3","1","1","2","1,0.5,0,1,0.5,0,0.5,0,1","0.5,0,1,0.5,0,1,0,1,0.5","2","false",""
"","html-keyboard-response","278","316632","0.0-323.0","3FK0YFF9P0270TJ749GWVE5RRJ9VVI","A3HVFSD8K94SOR","3HUR21WDDUBEMSLDIXZW1FAIHW8YX3","","null","<img src=""img/food5.png"" style=""width:200px; border:14px solid green;"">","null","","","","","","","","","",""
"","image-keyboard-response","279","317017","0.0-325.0","3FK0YFF9P0270TJ749GWVE5RRJ9VVI","A3HVFSD8K94SOR","3HUR21WDDUBEMSLDIXZW1FAIHW8YX3","","385","img/food5.png","76","385","3","1","1","2","1,0.5,0,1,0.5,0,0.5,0,1","0.5,0,1,0.5,0,1,0,1,0.5","2","false",""
"","html-keyboard-response","280","317327","0.0-326.0","3FK0YFF9P0270TJ749GWVE5RRJ9VVI","A3HVFSD8K94SOR","3HUR21WDDUBEMSLDIXZW1FAIHW8YX3","","null","<img src=""img/food5.png"" style=""width:200px; border:14px solid green;"">","null","","","","","","","","","",""
"","image-keyboard-response","281","317822","0.0-328.0","3FK0YFF9P0270TJ749GWVE5RRJ9VVI","A3HVFSD8K94SOR","3HUR21WDDUBEMSLDIXZW1FAIHW8YX3","","493","img/food3.png","75","494","2","1","3","2","1,0.5,0,1,0.5,0,0.5,0,1","0.5,0,1,0.5,0,1,0,1,0.5","2","false",""
"","html-keyboard-response","282","318125","0.0-329.0","3FK0YFF9P0270TJ749GWVE5RRJ9VVI","A3HVFSD8K94SOR","3HUR21WDDUBEMSLDIXZW1FAIHW8YX3","","null","<img src=""img/food3.png"" style=""width:200px; border:14px solid green;"">","null","","","","","","","","","",""
"","image-keyboard-response","283","318736","0.0-331.0","3FK0YFF9P0270TJ749GWVE5RRJ9VVI","A3HVFSD8K94SOR","3HUR21WDDUBEMSLDIXZW1FAIHW8YX3","","609","img/food5.png","76","611","3","1","1","2","1,0.5,0,1,0.5,0,0.5,0,1","0.5,0,1,0.5,0,1,0,1,0.5","2","false",""
"","html-keyboard-response","284","319047","0.0-332.0","3FK0YFF9P0270TJ749GWVE5RRJ9VVI","A3HVFSD8K94SOR","3HUR21WDDUBEMSLDIXZW1FAIHW8YX3","","null","<img src=""img/food5.png"" style=""width:200px; border:14px solid green;"">","null","","","","","","","","","",""
"","image-keyboard-response","285","319520","0.0-334.0","3FK0YFF9P0270TJ749GWVE5RRJ9VVI","A3HVFSD8K94SOR","3HUR21WDDUBEMSLDIXZW1FAIHW8YX3","","471","img/food6.png","75","473","2","0","2","2","1,0.5,0,1,0.5,0,0.5,0,1","0.5,0,1,0.5,0,1,0,1,0.5","2","false",""
"","html-keyboard-response","286","319834","0.0-335.0","3FK0YFF9P0270TJ749GWVE5RRJ9VVI","A3HVFSD8K94SOR","3HUR21WDDUBEMSLDIXZW1FAIHW8YX3","","null","<img src=""img/food6.png"" style=""width:200px;border:14px solid red;"">","null","","","","","","","","","",""
"","image-keyboard-response","287","320209","0.0-337.0","3FK0YFF9P0270TJ749GWVE5RRJ9VVI","A3HVFSD8K94SOR","3HUR21WDDUBEMSLDIXZW1FAIHW8YX3","","373","img/food5.png","76","374","3","1","1","2","1,0.5,0,1,0.5,0,0.5,0,1","0.5,0,1,0.5,0,1,0,1,0.5","2","false",""
"","html-keyboard-response","288","320522","0.0-338.0","3FK0YFF9P0270TJ749GWVE5RRJ9VVI","A3HVFSD8K94SOR","3HUR21WDDUBEMSLDIXZW1FAIHW8YX3","","null","<img src=""img/food5.png"" style=""width:200px; border:14px solid green;"">","null","","","","","","","","","",""
"","image-keyboard-response","289","320887","0.0-340.0","3FK0YFF9P0270TJ749GWVE5RRJ9VVI","A3HVFSD8K94SOR","3HUR21WDDUBEMSLDIXZW1FAIHW8YX3","","365","img/food5.png","76","365","3","1","1","2","1,0.5,0,1,0.5,0,0.5,0,1","0.5,0,1,0.5,0,1,0,1,0.5","2","false",""
"","html-keyboard-response","290","321204","0.0-341.0","3FK0YFF9P0270TJ749GWVE5RRJ9VVI","A3HVFSD8K94SOR","3HUR21WDDUBEMSLDIXZW1FAIHW8YX3","","null","<img src=""img/food5.png"" style=""width:200px; border:14px solid green;"">","null","","","","","","","","","",""
"","image-keyboard-response","291","321801","0.0-343.0","3FK0YFF9P0270TJ749GWVE5RRJ9VVI","A3HVFSD8K94SOR","3HUR21WDDUBEMSLDIXZW1FAIHW8YX3","","597","img/food3.png","75","597","2","1","3","2","1,0.5,0,1,0.5,0,0.5,0,1","0.5,0,1,0.5,0,1,0,1,0.5","2","false",""
"","html-keyboard-response","292","322113","0.0-344.0","3FK0YFF9P0270TJ749GWVE5RRJ9VVI","A3HVFSD8K94SOR","3HUR21WDDUBEMSLDIXZW1FAIHW8YX3","","null","<img src=""img/food3.png"" style=""width:200px; border:14px solid green;"">","null","","","","","","","","","",""
"","image-keyboard-response","293","322845","0.0-346.0","3FK0YFF9P0270TJ749GWVE5RRJ9VVI","A3HVFSD8K94SOR","3HUR21WDDUBEMSLDIXZW1FAIHW8YX3","","731","img/food5.png","76","732","3","1","1","2","1,0.5,0,1,0.5,0,0.5,0,1","0.5,0,1,0.5,0,1,0,1,0.5","2","false",""
"","html-keyboard-response","294","323149","0.0-347.0","3FK0YFF9P0270TJ749GWVE5RRJ9VVI","A3HVFSD8K94SOR","3HUR21WDDUBEMSLDIXZW1FAIHW8YX3","","null","<img src=""img/food5.png"" style=""width:200px; border:14px solid green;"">","null","","","","","","","","","",""
"","image-keyboard-response","295","323569","0.0-349.0","3FK0YFF9P0270TJ749GWVE5RRJ9VVI","A3HVFSD8K94SOR","3HUR21WDDUBEMSLDIXZW1FAIHW8YX3","","419","img/food5.png","76","420","3","1","1","2","1,0.5,0,1,0.5,0,0.5,0,1","0.5,0,1,0.5,0,1,0,1,0.5","2","false",""
"","html-keyboard-response","296","323892","0.0-350.0","3FK0YFF9P0270TJ749GWVE5RRJ9VVI","A3HVFSD8K94SOR","3HUR21WDDUBEMSLDIXZW1FAIHW8YX3","","null","<img src=""img/food5.png"" style=""width:200px; border:14px solid green;"">","null","","","","","","","","","",""
"","image-keyboard-response","297","324373","0.0-352.0","3FK0YFF9P0270TJ749GWVE5RRJ9VVI","A3HVFSD8K94SOR","3HUR21WDDUBEMSLDIXZW1FAIHW8YX3","","481","img/food5.png","76","481","3","1","1","2","1,0.5,0,1,0.5,0,0.5,0,1","0.5,0,1,0.5,0,1,0,1,0.5","2","false",""
"","html-keyboard-response","298","324684","0.0-353.0","3FK0YFF9P0270TJ749GWVE5RRJ9VVI","A3HVFSD8K94SOR","3HUR21WDDUBEMSLDIXZW1FAIHW8YX3","","null","<img src=""img/food5.png"" style=""width:200px; border:14px solid green;"">","null","","","","","","","","","",""
"","image-keyboard-response","299","325383","0.0-355.0","3FK0YFF9P0270TJ749GWVE5RRJ9VVI","A3HVFSD8K94SOR","3HUR21WDDUBEMSLDIXZW1FAIHW8YX3","","699","img/food3.png","75","699","2","1","3","2","1,0.5,0,1,0.5,0,0.5,0,1","0.5,0,1,0.5,0,1,0,1,0.5","2","false",""
"","html-keyboard-response","300","325700","0.0-356.0","3FK0YFF9P0270TJ749GWVE5RRJ9VVI","A3HVFSD8K94SOR","3HUR21WDDUBEMSLDIXZW1FAIHW8YX3","","null","<img src=""img/food3.png"" style=""width:200px; border:14px solid green;"">","null","","","","","","","","","",""
"","image-keyboard-response","301","326266","0.0-358.0","3FK0YFF9P0270TJ749GWVE5RRJ9VVI","A3HVFSD8K94SOR","3HUR21WDDUBEMSLDIXZW1FAIHW8YX3","","565","img/food5.png","76","566","3","1","1","2","1,0.5,0,1,0.5,0,0.5,0,1","0.5,0,1,0.5,0,1,0,1,0.5","2","false",""
"","html-keyboard-response","302","326582","0.0-359.0","3FK0YFF9P0270TJ749GWVE5RRJ9VVI","A3HVFSD8K94SOR","3HUR21WDDUBEMSLDIXZW1FAIHW8YX3","","null","<img src=""img/food5.png"" style=""width:200px; border:14px solid green;"">","null","","","","","","","","","",""
"","image-keyboard-response","303","326956","0.0-361.0","3FK0YFF9P0270TJ749GWVE5RRJ9VVI","A3HVFSD8K94SOR","3HUR21WDDUBEMSLDIXZW1FAIHW8YX3","","372","img/food5.png","76","375","3","1","1","2","1,0.5,0,1,0.5,0,0.5,0,1","0.5,0,1,0.5,0,1,0,1,0.5","2","false",""
"","html-keyboard-response","304","327269","0.0-362.0","3FK0YFF9P0270TJ749GWVE5RRJ9VVI","A3HVFSD8K94SOR","3HUR21WDDUBEMSLDIXZW1FAIHW8YX3","","null","<img src=""img/food5.png"" style=""width:200px; border:14px solid green;"">","null","","","","","","","","","",""
"","image-keyboard-response","305","327785","0.0-364.0","3FK0YFF9P0270TJ749GWVE5RRJ9VVI","A3HVFSD8K94SOR","3HUR21WDDUBEMSLDIXZW1FAIHW8YX3","","514","img/food6.png","75","514","2","0","2","2","1,0.5,0,1,0.5,0,0.5,0,1","0.5,0,1,0.5,0,1,0,1,0.5","2","false",""
"","html-keyboard-response","306","328089","0.0-365.0","3FK0YFF9P0270TJ749GWVE5RRJ9VVI","A3HVFSD8K94SOR","3HUR21WDDUBEMSLDIXZW1FAIHW8YX3","","null","<img src=""img/food6.png"" style=""width:200px;border:14px solid red;"">","null","","","","","","","","","",""
"","image-keyboard-response","307","328113","0.0-367.0","3FK0YFF9P0270TJ749GWVE5RRJ9VVI","A3HVFSD8K94SOR","3HUR21WDDUBEMSLDIXZW1FAIHW8YX3","","24","img/food6.png","76","24","3","1","2","2","1,0.5,0,1,0.5,0,0.5,0,1","0.5,0,1,0.5,0,1,0,1,0.5","2","false",""
"","html-keyboard-response","308","328428","0.0-368.0","3FK0YFF9P0270TJ749GWVE5RRJ9VVI","A3HVFSD8K94SOR","3HUR21WDDUBEMSLDIXZW1FAIHW8YX3","","null","<img src=""img/food6.png"" style=""width:200px; border:14px solid green;"">","null","","","","","","","","","",""
"","image-keyboard-response","309","328639","0.0-370.0","3FK0YFF9P0270TJ749GWVE5RRJ9VVI","A3HVFSD8K94SOR","3HUR21WDDUBEMSLDIXZW1FAIHW8YX3","","210","img/food6.png","76","210","3","1","2","2","1,0.5,0,1,0.5,0,0.5,0,1","0.5,0,1,0.5,0,1,0,1,0.5","2","false",""
"","html-keyboard-response","310","328944","0.0-371.0","3FK0YFF9P0270TJ749GWVE5RRJ9VVI","A3HVFSD8K94SOR","3HUR21WDDUBEMSLDIXZW1FAIHW8YX3","","null","<img src=""img/food6.png"" style=""width:200px; border:14px solid green;"">","null","","","","","","","","","",""
"","image-keyboard-response","311","329223","0.0-373.0","3FK0YFF9P0270TJ749GWVE5RRJ9VVI","A3HVFSD8K94SOR","3HUR21WDDUBEMSLDIXZW1FAIHW8YX3","","277","img/food6.png","76","277","3","1","2","2","1,0.5,0,1,0.5,0,0.5,0,1","0.5,0,1,0.5,0,1,0,1,0.5","2","false",""
"","html-keyboard-response","312","329550","0.0-374.0","3FK0YFF9P0270TJ749GWVE5RRJ9VVI","A3HVFSD8K94SOR","3HUR21WDDUBEMSLDIXZW1FAIHW8YX3","","null","<img src=""img/food6.png"" style=""width:200px; border:14px solid green;"">","null","","","","","","","","","",""
"","image-keyboard-response","313","329987","0.0-376.0","3FK0YFF9P0270TJ749GWVE5RRJ9VVI","A3HVFSD8K94SOR","3HUR21WDDUBEMSLDIXZW1FAIHW8YX3","","437","img/food6.png","76","438","3","1","2","2","1,0.5,0,1,0.5,0,0.5,0,1","0.5,0,1,0.5,0,1,0,1,0.5","2","false",""
"","html-keyboard-response","314","330300","0.0-377.0","3FK0YFF9P0270TJ749GWVE5RRJ9VVI","A3HVFSD8K94SOR","3HUR21WDDUBEMSLDIXZW1FAIHW8YX3","","null","<img src=""img/food6.png"" style=""width:200px; border:14px solid green;"">","null","","","","","","","","","",""
"","image-keyboard-response","315","331140","0.0-379.0","3FK0YFF9P0270TJ749GWVE5RRJ9VVI","A3HVFSD8K94SOR","3HUR21WDDUBEMSLDIXZW1FAIHW8YX3","","840","img/food5.png","76","840","3","1","1","2","1,0.5,0,1,0.5,0,0.5,0,1","0.5,0,1,0.5,0,1,0,1,0.5","2","false",""
"","html-keyboard-response","316","331447","0.0-380.0","3FK0YFF9P0270TJ749GWVE5RRJ9VVI","A3HVFSD8K94SOR","3HUR21WDDUBEMSLDIXZW1FAIHW8YX3","","null","<img src=""img/food5.png"" style=""width:200px; border:14px solid green;"">","null","","","","","","","","","",""
"","image-keyboard-response","317","331810","0.0-382.0","3FK0YFF9P0270TJ749GWVE5RRJ9VVI","A3HVFSD8K94SOR","3HUR21WDDUBEMSLDIXZW1FAIHW8YX3","","362","img/food5.png","76","363","3","1","1","2","1,0.5,0,1,0.5,0,0.5,0,1","0.5,0,1,0.5,0,1,0,1,0.5","2","false",""
"","html-keyboard-response","318","332112","0.0-383.0","3FK0YFF9P0270TJ749GWVE5RRJ9VVI","A3HVFSD8K94SOR","3HUR21WDDUBEMSLDIXZW1FAIHW8YX3","","null","<img src=""img/food5.png"" style=""width:200px; border:14px solid green;"">","null","","","","","","","","","",""
"","image-keyboard-response","319","332614","0.0-385.0","3FK0YFF9P0270TJ749GWVE5RRJ9VVI","A3HVFSD8K94SOR","3HUR21WDDUBEMSLDIXZW1FAIHW8YX3","","501","img/food6.png","76","501","3","1","2","2","1,0.5,0,1,0.5,0,0.5,0,1","0.5,0,1,0.5,0,1,0,1,0.5","2","false",""
"","html-keyboard-response","320","332937","0.0-386.0","3FK0YFF9P0270TJ749GWVE5RRJ9VVI","A3HVFSD8K94SOR","3HUR21WDDUBEMSLDIXZW1FAIHW8YX3","","null","<img src=""img/food6.png"" style=""width:200px; border:14px solid green;"">","null","","","","","","","","","",""
"","image-keyboard-response","321","333414","0.0-388.0","3FK0YFF9P0270TJ749GWVE5RRJ9VVI","A3HVFSD8K94SOR","3HUR21WDDUBEMSLDIXZW1FAIHW8YX3","","476","img/food5.png","76","477","3","1","1","2","1,0.5,0,1,0.5,0,0.5,0,1","0.5,0,1,0.5,0,1,0,1,0.5","2","false",""
"","html-keyboard-response","322","333718","0.0-389.0","3FK0YFF9P0270TJ749GWVE5RRJ9VVI","A3HVFSD8K94SOR","3HUR21WDDUBEMSLDIXZW1FAIHW8YX3","","null","<img src=""img/food5.png"" style=""width:200px; border:14px solid green;"">","null","","","","","","","","","",""
"","image-keyboard-response","323","334236","0.0-391.0","3FK0YFF9P0270TJ749GWVE5RRJ9VVI","A3HVFSD8K94SOR","3HUR21WDDUBEMSLDIXZW1FAIHW8YX3","","517","img/food3.png","75","518","2","1","3","2","1,0.5,0,1,0.5,0,0.5,0,1","0.5,0,1,0.5,0,1,0,1,0.5","2","false",""
"","html-keyboard-response","324","334546","0.0-392.0","3FK0YFF9P0270TJ749GWVE5RRJ9VVI","A3HVFSD8K94SOR","3HUR21WDDUBEMSLDIXZW1FAIHW8YX3","","null","<img src=""img/food3.png"" style=""width:200px; border:14px solid green;"">","null","","","","","","","","","",""
"","image-keyboard-response","325","335107","0.0-394.0","3FK0YFF9P0270TJ749GWVE5RRJ9VVI","A3HVFSD8K94SOR","3HUR21WDDUBEMSLDIXZW1FAIHW8YX3","","560","img/food6.png","76","560","3","1","2","2","1,0.5,0,1,0.5,0,0.5,0,1","0.5,0,1,0.5,0,1,0,1,0.5","2","false",""
"","html-keyboard-response","326","335412","0.0-395.0","3FK0YFF9P0270TJ749GWVE5RRJ9VVI","A3HVFSD8K94SOR","3HUR21WDDUBEMSLDIXZW1FAIHW8YX3","","null","<img src=""img/food6.png"" style=""width:200px; border:14px solid green;"">","null","","","","","","","","","",""
"","image-keyboard-response","327","336085","0.0-397.0","3FK0YFF9P0270TJ749GWVE5RRJ9VVI","A3HVFSD8K94SOR","3HUR21WDDUBEMSLDIXZW1FAIHW8YX3","","671","img/food3.png","75","673","2","1","3","2","1,0.5,0,1,0.5,0,0.5,0,1","0.5,0,1,0.5,0,1,0,1,0.5","2","false",""
"","html-keyboard-response","328","336418","0.0-398.0","3FK0YFF9P0270TJ749GWVE5RRJ9VVI","A3HVFSD8K94SOR","3HUR21WDDUBEMSLDIXZW1FAIHW8YX3","","null","<img src=""img/food3.png"" style=""width:200px; border:14px solid green;"">","null","","","","","","","","","",""
"","image-keyboard-response","329","336803","0.0-400.0","3FK0YFF9P0270TJ749GWVE5RRJ9VVI","A3HVFSD8K94SOR","3HUR21WDDUBEMSLDIXZW1FAIHW8YX3","","384","img/food3.png","75","386","2","1","3","2","1,0.5,0,1,0.5,0,0.5,0,1","0.5,0,1,0.5,0,1,0,1,0.5","2","false",""
"","html-keyboard-response","330","337107","0.0-401.0","3FK0YFF9P0270TJ749GWVE5RRJ9VVI","A3HVFSD8K94SOR","3HUR21WDDUBEMSLDIXZW1FAIHW8YX3","","null","<img src=""img/food3.png"" style=""width:200px; border:14px solid green;"">","null","","","","","","","","","",""
"","image-keyboard-response","331","337688","0.0-403.0","3FK0YFF9P0270TJ749GWVE5RRJ9VVI","A3HVFSD8K94SOR","3HUR21WDDUBEMSLDIXZW1FAIHW8YX3","","580","img/food5.png","76","581","3","1","1","2","1,0.5,0,1,0.5,0,0.5,0,1","0.5,0,1,0.5,0,1,0,1,0.5","2","false",""
"","html-keyboard-response","332","337996","0.0-404.0","3FK0YFF9P0270TJ749GWVE5RRJ9VVI","A3HVFSD8K94SOR","3HUR21WDDUBEMSLDIXZW1FAIHW8YX3","","null","<img src=""img/food5.png"" style=""width:200px; border:14px solid green;"">","null","","","","","","","","","",""
"","image-keyboard-response","333","338367","0.0-406.0","3FK0YFF9P0270TJ749GWVE5RRJ9VVI","A3HVFSD8K94SOR","3HUR21WDDUBEMSLDIXZW1FAIHW8YX3","","369","img/food5.png","76","370","3","1","1","2","1,0.5,0,1,0.5,0,0.5,0,1","0.5,0,1,0.5,0,1,0,1,0.5","2","false",""
"","html-keyboard-response","334","338682","0.0-407.0","3FK0YFF9P0270TJ749GWVE5RRJ9VVI","A3HVFSD8K94SOR","3HUR21WDDUBEMSLDIXZW1FAIHW8YX3","","null","<img src=""img/food5.png"" style=""width:200px; border:14px solid green;"">","null","","","","","","","","","",""
"","image-keyboard-response","335","339452","0.0-409.0","3FK0YFF9P0270TJ749GWVE5RRJ9VVI","A3HVFSD8K94SOR","3HUR21WDDUBEMSLDIXZW1FAIHW8YX3","","767","img/food3.png","75","769","2","1","3","2","1,0.5,0,1,0.5,0,0.5,0,1","0.5,0,1,0.5,0,1,0,1,0.5","2","false",""
"","html-keyboard-response","336","339772","0.0-410.0","3FK0YFF9P0270TJ749GWVE5RRJ9VVI","A3HVFSD8K94SOR","3HUR21WDDUBEMSLDIXZW1FAIHW8YX3","","null","<img src=""img/food3.png"" style=""width:200px; border:14px solid green;"">","null","","","","","","","","","",""
"","image-keyboard-response","337","340335","0.0-412.0","3FK0YFF9P0270TJ749GWVE5RRJ9VVI","A3HVFSD8K94SOR","3HUR21WDDUBEMSLDIXZW1FAIHW8YX3","","562","img/food6.png","76","562","3","1","2","2","1,0.5,0,1,0.5,0,0.5,0,1","0.5,0,1,0.5,0,1,0,1,0.5","2","false",""
"","html-keyboard-response","338","340638","0.0-413.0","3FK0YFF9P0270TJ749GWVE5RRJ9VVI","A3HVFSD8K94SOR","3HUR21WDDUBEMSLDIXZW1FAIHW8YX3","","null","<img src=""img/food6.png"" style=""width:200px; border:14px solid green;"">","null","","","","","","","","","",""
"","image-keyboard-response","339","340924","0.0-415.0","3FK0YFF9P0270TJ749GWVE5RRJ9VVI","A3HVFSD8K94SOR","3HUR21WDDUBEMSLDIXZW1FAIHW8YX3","","283","img/food6.png","76","285","3","1","2","2","1,0.5,0,1,0.5,0,0.5,0,1","0.5,0,1,0.5,0,1,0,1,0.5","2","false",""
"","html-keyboard-response","340","341225","0.0-416.0","3FK0YFF9P0270TJ749GWVE5RRJ9VVI","A3HVFSD8K94SOR","3HUR21WDDUBEMSLDIXZW1FAIHW8YX3","","null","<img src=""img/food6.png"" style=""width:200px; border:14px solid green;"">","null","","","","","","","","","",""
"","image-keyboard-response","341","341782","0.0-418.0","3FK0YFF9P0270TJ749GWVE5RRJ9VVI","A3HVFSD8K94SOR","3HUR21WDDUBEMSLDIXZW1FAIHW8YX3","","557","img/food3.png","75","557","2","1","3","2","1,0.5,0,1,0.5,0,0.5,0,1","0.5,0,1,0.5,0,1,0,1,0.5","2","false",""
"","html-keyboard-response","342","342097","0.0-419.0","3FK0YFF9P0270TJ749GWVE5RRJ9VVI","A3HVFSD8K94SOR","3HUR21WDDUBEMSLDIXZW1FAIHW8YX3","","null","<img src=""img/food3.png"" style=""width:200px; border:14px solid green;"">","null","","","","","","","","","",""
"","image-keyboard-response","343","342507","0.0-421.0","3FK0YFF9P0270TJ749GWVE5RRJ9VVI","A3HVFSD8K94SOR","3HUR21WDDUBEMSLDIXZW1FAIHW8YX3","","410","img/food3.png","75","411","2","1","3","2","1,0.5,0,1,0.5,0,0.5,0,1","0.5,0,1,0.5,0,1,0,1,0.5","2","false",""
"","html-keyboard-response","344","342817","0.0-422.0","3FK0YFF9P0270TJ749GWVE5RRJ9VVI","A3HVFSD8K94SOR","3HUR21WDDUBEMSLDIXZW1FAIHW8YX3","","null","<img src=""img/food3.png"" style=""width:200px; border:14px solid green;"">","null","","","","","","","","","",""
"","image-keyboard-response","345","343346","0.0-424.0","3FK0YFF9P0270TJ749GWVE5RRJ9VVI","A3HVFSD8K94SOR","3HUR21WDDUBEMSLDIXZW1FAIHW8YX3","","528","img/food5.png","76","529","3","1","1","2","1,0.5,0,1,0.5,0,0.5,0,1","0.5,0,1,0.5,0,1,0,1,0.5","2","false",""
"","html-keyboard-response","346","343651","0.0-425.0","3FK0YFF9P0270TJ749GWVE5RRJ9VVI","A3HVFSD8K94SOR","3HUR21WDDUBEMSLDIXZW1FAIHW8YX3","","null","<img src=""img/food5.png"" style=""width:200px; border:14px solid green;"">","null","","","","","","","","","",""
"","image-keyboard-response","347","344006","0.0-427.0","3FK0YFF9P0270TJ749GWVE5RRJ9VVI","A3HVFSD8K94SOR","3HUR21WDDUBEMSLDIXZW1FAIHW8YX3","","354","img/food5.png","76","354","3","1","1","2","1,0.5,0,1,0.5,0,0.5,0,1","0.5,0,1,0.5,0,1,0,1,0.5","2","false",""
"","html-keyboard-response","348","344307","0.0-428.0","3FK0YFF9P0270TJ749GWVE5RRJ9VVI","A3HVFSD8K94SOR","3HUR21WDDUBEMSLDIXZW1FAIHW8YX3","","null","<img src=""img/food5.png"" style=""width:200px; border:14px solid green;"">","null","","","","","","","","","",""
"","image-keyboard-response","349","344830","0.0-430.0","3FK0YFF9P0270TJ749GWVE5RRJ9VVI","A3HVFSD8K94SOR","3HUR21WDDUBEMSLDIXZW1FAIHW8YX3","","521","img/food3.png","75","522","2","1","3","2","1,0.5,0,1,0.5,0,0.5,0,1","0.5,0,1,0.5,0,1,0,1,0.5","2","false",""
"","html-keyboard-response","350","345142","0.0-431.0","3FK0YFF9P0270TJ749GWVE5RRJ9VVI","A3HVFSD8K94SOR","3HUR21WDDUBEMSLDIXZW1FAIHW8YX3","","null","<img src=""img/food3.png"" style=""width:200px; border:14px solid green;"">","null","","","","","","","","","",""
"","image-keyboard-response","351","345450","0.0-433.0","3FK0YFF9P0270TJ749GWVE5RRJ9VVI","A3HVFSD8K94SOR","3HUR21WDDUBEMSLDIXZW1FAIHW8YX3","","307","img/food5.png","75","308","2","0","1","2","1,0.5,0,1,0.5,0,0.5,0,1","0.5,0,1,0.5,0,1,0,1,0.5","2","false",""
"","html-keyboard-response","352","345761","0.0-434.0","3FK0YFF9P0270TJ749GWVE5RRJ9VVI","A3HVFSD8K94SOR","3HUR21WDDUBEMSLDIXZW1FAIHW8YX3","","null","<img src=""img/food5.png"" style=""width:200px;border:14px solid red;"">","null","","","","","","","","","",""
"","image-keyboard-response","353","345854","0.0-436.0","3FK0YFF9P0270TJ749GWVE5RRJ9VVI","A3HVFSD8K94SOR","3HUR21WDDUBEMSLDIXZW1FAIHW8YX3","","91","img/food5.png","76","92","3","1","1","2","1,0.5,0,1,0.5,0,0.5,0,1","0.5,0,1,0.5,0,1,0,1,0.5","2","false",""
"","html-keyboard-response","354","346163","0.0-437.0","3FK0YFF9P0270TJ749GWVE5RRJ9VVI","A3HVFSD8K94SOR","3HUR21WDDUBEMSLDIXZW1FAIHW8YX3","","null","<img src=""img/food5.png"" style=""width:200px; border:14px solid green;"">","null","","","","","","","","","",""
"","image-keyboard-response","355","346907","0.0-439.0","3FK0YFF9P0270TJ749GWVE5RRJ9VVI","A3HVFSD8K94SOR","3HUR21WDDUBEMSLDIXZW1FAIHW8YX3","","742","img/food6.png","76","744","3","1","2","2","1,0.5,0,1,0.5,0,0.5,0,1","0.5,0,1,0.5,0,1,0,1,0.5","2","false",""
"","html-keyboard-response","356","347218","0.0-440.0","3FK0YFF9P0270TJ749GWVE5RRJ9VVI","A3HVFSD8K94SOR","3HUR21WDDUBEMSLDIXZW1FAIHW8YX3","","null","<img src=""img/food6.png"" style=""width:200px; border:14px solid green;"">","null","","","","","","","","","",""
"","image-keyboard-response","357","347576","0.0-442.0","3FK0YFF9P0270TJ749GWVE5RRJ9VVI","A3HVFSD8K94SOR","3HUR21WDDUBEMSLDIXZW1FAIHW8YX3","","356","img/food6.png","76","358","3","1","2","2","1,0.5,0,1,0.5,0,0.5,0,1","0.5,0,1,0.5,0,1,0,1,0.5","2","false",""
"","html-keyboard-response","358","347883","0.0-443.0","3FK0YFF9P0270TJ749GWVE5RRJ9VVI","A3HVFSD8K94SOR","3HUR21WDDUBEMSLDIXZW1FAIHW8YX3","","null","<img src=""img/food6.png"" style=""width:200px; border:14px solid green;"">","null","","","","","","","","","",""
"","image-keyboard-response","359","348340","0.0-445.0","3FK0YFF9P0270TJ749GWVE5RRJ9VVI","A3HVFSD8K94SOR","3HUR21WDDUBEMSLDIXZW1FAIHW8YX3","","455","img/food6.png","76","457","3","1","2","2","1,0.5,0,1,0.5,0,0.5,0,1","0.5,0,1,0.5,0,1,0,1,0.5","2","false",""
"","html-keyboard-response","360","348655","0.0-446.0","3FK0YFF9P0270TJ749GWVE5RRJ9VVI","A3HVFSD8K94SOR","3HUR21WDDUBEMSLDIXZW1FAIHW8YX3","","null","<img src=""img/food6.png"" style=""width:200px; border:14px solid green;"">","null","","","","","","","","","",""
"","image-keyboard-response","361","349025","0.0-448.0","3FK0YFF9P0270TJ749GWVE5RRJ9VVI","A3HVFSD8K94SOR","3HUR21WDDUBEMSLDIXZW1FAIHW8YX3","","369","img/food6.png","76","369","3","1","2","2","1,0.5,0,1,0.5,0,0.5,0,1","0.5,0,1,0.5,0,1,0,1,0.5","2","false",""
"","html-keyboard-response","362","349327","0.0-449.0","3FK0YFF9P0270TJ749GWVE5RRJ9VVI","A3HVFSD8K94SOR","3HUR21WDDUBEMSLDIXZW1FAIHW8YX3","","null","<img src=""img/food6.png"" style=""width:200px; border:14px solid green;"">","null","","","","","","","","","",""
"","image-keyboard-response","363","349759","0.0-451.0","3FK0YFF9P0270TJ749GWVE5RRJ9VVI","A3HVFSD8K94SOR","3HUR21WDDUBEMSLDIXZW1FAIHW8YX3","","429","img/food6.png","76","431","3","1","2","2","1,0.5,0,1,0.5,0,0.5,0,1","0.5,0,1,0.5,0,1,0,1,0.5","2","false",""
"","html-keyboard-response","364","350064","0.0-452.0","3FK0YFF9P0270TJ749GWVE5RRJ9VVI","A3HVFSD8K94SOR","3HUR21WDDUBEMSLDIXZW1FAIHW8YX3","","null","<img src=""img/food6.png"" style=""width:200px; border:14px solid green;"">","null","","","","","","","","","",""
"","instructions","365","354803","0.0-454.0","3FK0YFF9P0270TJ749GWVE5RRJ9VVI","A3HVFSD8K94SOR","3HUR21WDDUBEMSLDIXZW1FAIHW8YX3","[{""page_index"":0,""viewing_time"":4739}]","4739","","","","","","","","","","","",""
"","survey-text","366","360724","0.0-455.0","3FK0YFF9P0270TJ749GWVE5RRJ9VVI","A3HVFSD8K94SOR","3HUR21WDDUBEMSLDIXZW1FAIHW8YX3","","5915","","","","","","","","","","","","{""Q0"":""A3HVFSD8K94SOR""}"
