"success","trial_type","trial_index","time_elapsed","internal_node_id","assignmentID","mturkID","hitID","view_history","rt","stimulus","key_press","reactionTime","a","r","s","reward_cond","responses"
"true","fullscreen","0","2599","0.0-0.0","324G5B4FB4UPW2HVJEPR47ZY7SA701","A3HXCMU4MOPSQI","3TZDZ3Y0JSSRVQSC3SM97PDQ3Z7196","","","","","","","","","",""
"","instructions","1","24857","0.0-1.0","324G5B4FB4UPW2HVJEPR47ZY7SA701","A3HXCMU4MOPSQI","3TZDZ3Y0JSSRVQSC3SM97PDQ3Z7196","[{""page_index"":0,""viewing_time"":7024.899999991059},{""page_index"":1,""viewing_time"":4866.800000011921},{""page_index"":2,""viewing_time"":438.8999999910593},{""page_index"":3,""viewing_time"":443},{""page_index"":4,""viewing_time"":2231.2000000029802},{""page_index"":5,""viewing_time"":2121.9000000059605},{""page_index"":6,""viewing_time"":4206},{""page_index"":7,""viewing_time"":922.8999999910593}]","22256","","","","","","","",""
"","image-keyboard-response","2","26155","0.0-2.0","324G5B4FB4UPW2HVJEPR47ZY7SA701","A3HXCMU4MOPSQI","3TZDZ3Y0JSSRVQSC3SM97PDQ3Z7196","","1297.5999999940395","img/food1.png","75","1298.2000000029802","1","0","2","0.2,0.8,0.2,0.8,0.2,0.8,0.8,0.2",""
"","html-keyboard-response","3","26460","0.0-3.0","324G5B4FB4UPW2HVJEPR47ZY7SA701","A3HXCMU4MOPSQI","3TZDZ3Y0JSSRVQSC3SM97PDQ3Z7196","","null","<img src=""img/food1.png"" style=""width:200px;border:14px solid red;"">","null","","","","","",""
"","image-keyboard-response","4","27279","0.0-4.0","324G5B4FB4UPW2HVJEPR47ZY7SA701","A3HXCMU4MOPSQI","3TZDZ3Y0JSSRVQSC3SM97PDQ3Z7196","","818","img/food3.png","75","818.7000000029802","1","1","4","0.2,0.8,0.2,0.8,0.2,0.8,0.8,0.2",""
"","html-keyboard-response","5","27586","0.0-5.0","324G5B4FB4UPW2HVJEPR47ZY7SA701","A3HXCMU4MOPSQI","3TZDZ3Y0JSSRVQSC3SM97PDQ3Z7196","","null","<img src=""img/food3.png"" style=""width:200px; border:14px solid green;"">","null","","","","","",""
"","image-keyboard-response","6","28247","0.0-6.0","324G5B4FB4UPW2HVJEPR47ZY7SA701","A3HXCMU4MOPSQI","3TZDZ3Y0JSSRVQSC3SM97PDQ3Z7196","","661.1000000089407","img/food3.png","75","661.5","1","1","4","0.2,0.8,0.2,0.8,0.2,0.8,0.8,0.2",""
"","html-keyboard-response","7","28556","0.0-7.0","324G5B4FB4UPW2HVJEPR47ZY7SA701","A3HXCMU4MOPSQI","3TZDZ3Y0JSSRVQSC3SM97PDQ3Z7196","","null","<img src=""img/food3.png"" style=""width:200px; border:14px solid green;"">","null","","","","","",""
"","image-keyboard-response","8","28957","0.0-8.0","324G5B4FB4UPW2HVJEPR47ZY7SA701","A3HXCMU4MOPSQI","3TZDZ3Y0JSSRVQSC3SM97PDQ3Z7196","","401.1000000089407","img/food3.png","75","401.70000000298023","1","1","4","0.2,0.8,0.2,0.8,0.2,0.8,0.8,0.2",""
"","html-keyboard-response","9","29265","0.0-9.0","324G5B4FB4UPW2HVJEPR47ZY7SA701","A3HXCMU4MOPSQI","3TZDZ3Y0JSSRVQSC3SM97PDQ3Z7196","","null","<img src=""img/food3.png"" style=""width:200px; border:14px solid green;"">","null","","","","","",""
"","image-keyboard-response","10","29645","0.0-10.0","324G5B4FB4UPW2HVJEPR47ZY7SA701","A3HXCMU4MOPSQI","3TZDZ3Y0JSSRVQSC3SM97PDQ3Z7196","","379.40000000596046","img/food3.png","75","379.90000000596046","1","1","4","0.2,0.8,0.2,0.8,0.2,0.8,0.8,0.2",""
"","html-keyboard-response","11","29947","0.0-11.0","324G5B4FB4UPW2HVJEPR47ZY7SA701","A3HXCMU4MOPSQI","3TZDZ3Y0JSSRVQSC3SM97PDQ3Z7196","","null","<img src=""img/food3.png"" style=""width:200px; border:14px solid green;"">","null","","","","","",""
"","image-keyboard-response","12","30279","0.0-12.0","324G5B4FB4UPW2HVJEPR47ZY7SA701","A3HXCMU4MOPSQI","3TZDZ3Y0JSSRVQSC3SM97PDQ3Z7196","","332.20000000298023","img/food3.png","75","332.79999999701977","1","1","4","0.2,0.8,0.2,0.8,0.2,0.8,0.8,0.2",""
"","html-keyboard-response","13","30581","0.0-13.0","324G5B4FB4UPW2HVJEPR47ZY7SA701","A3HXCMU4MOPSQI","3TZDZ3Y0JSSRVQSC3SM97PDQ3Z7196","","null","<img src=""img/food3.png"" style=""width:200px; border:14px solid green;"">","null","","","","","",""
"","image-keyboard-response","14","31242","0.0-14.0","324G5B4FB4UPW2HVJEPR47ZY7SA701","A3HXCMU4MOPSQI","3TZDZ3Y0JSSRVQSC3SM97PDQ3Z7196","","660.3000000119209","img/food5.png","76","660.8999999910593","2","0","1","0.2,0.8,0.2,0.8,0.2,0.8,0.8,0.2",""
"","html-keyboard-response","15","31543","0.0-15.0","324G5B4FB4UPW2HVJEPR47ZY7SA701","A3HXCMU4MOPSQI","3TZDZ3Y0JSSRVQSC3SM97PDQ3Z7196","","null","<img src=""img/food5.png"" style=""width:200px;border:14px solid red;"">","null","","","","","",""
"","image-keyboard-response","16","32152","0.0-16.0","324G5B4FB4UPW2HVJEPR47ZY7SA701","A3HXCMU4MOPSQI","3TZDZ3Y0JSSRVQSC3SM97PDQ3Z7196","","608.4000000059605","img/food1.png","75","608.8999999910593","1","0","2","0.2,0.8,0.2,0.8,0.2,0.8,0.8,0.2",""
"","html-keyboard-response","17","32453","0.0-17.0","324G5B4FB4UPW2HVJEPR47ZY7SA701","A3HXCMU4MOPSQI","3TZDZ3Y0JSSRVQSC3SM97PDQ3Z7196","","null","<img src=""img/food1.png"" style=""width:200px;border:14px solid red;"">","null","","","","","",""
"","image-keyboard-response","18","33314","0.0-18.0","324G5B4FB4UPW2HVJEPR47ZY7SA701","A3HXCMU4MOPSQI","3TZDZ3Y0JSSRVQSC3SM97PDQ3Z7196","","860.0999999940395","img/food5.png","76","860.5999999940395","2","0","1","0.2,0.8,0.2,0.8,0.2,0.8,0.8,0.2",""
"","html-keyboard-response","19","33615","0.0-19.0","324G5B4FB4UPW2HVJEPR47ZY7SA701","A3HXCMU4MOPSQI","3TZDZ3Y0JSSRVQSC3SM97PDQ3Z7196","","null","<img src=""img/food5.png"" style=""width:200px;border:14px solid red;"">","null","","","","","",""
"","image-keyboard-response","20","34034","0.0-20.0","324G5B4FB4UPW2HVJEPR47ZY7SA701","A3HXCMU4MOPSQI","3TZDZ3Y0JSSRVQSC3SM97PDQ3Z7196","","417.70000000298023","img/food3.png","75","418.3999999910593","1","1","4","0.2,0.8,0.2,0.8,0.2,0.8,0.8,0.2",""
"","html-keyboard-response","21","34335","0.0-21.0","324G5B4FB4UPW2HVJEPR47ZY7SA701","A3HXCMU4MOPSQI","3TZDZ3Y0JSSRVQSC3SM97PDQ3Z7196","","null","<img src=""img/food3.png"" style=""width:200px; border:14px solid green;"">","null","","","","","",""
"","image-keyboard-response","22","35048","0.0-22.0","324G5B4FB4UPW2HVJEPR47ZY7SA701","A3HXCMU4MOPSQI","3TZDZ3Y0JSSRVQSC3SM97PDQ3Z7196","","712","img/food1.png","76","712.4000000059605","2","1","2","0.2,0.8,0.2,0.8,0.2,0.8,0.8,0.2",""
"","html-keyboard-response","23","35349","0.0-23.0","324G5B4FB4UPW2HVJEPR47ZY7SA701","A3HXCMU4MOPSQI","3TZDZ3Y0JSSRVQSC3SM97PDQ3Z7196","","null","<img src=""img/food1.png"" style=""width:200px; border:14px solid green;"">","null","","","","","",""
"","image-keyboard-response","24","35736","0.0-24.0","324G5B4FB4UPW2HVJEPR47ZY7SA701","A3HXCMU4MOPSQI","3TZDZ3Y0JSSRVQSC3SM97PDQ3Z7196","","386.09999999403954","img/food1.png","76","386.6000000089407","2","1","2","0.2,0.8,0.2,0.8,0.2,0.8,0.8,0.2",""
"","html-keyboard-response","25","36038","0.0-25.0","324G5B4FB4UPW2HVJEPR47ZY7SA701","A3HXCMU4MOPSQI","3TZDZ3Y0JSSRVQSC3SM97PDQ3Z7196","","null","<img src=""img/food1.png"" style=""width:200px; border:14px solid green;"">","null","","","","","",""
"","image-keyboard-response","26","36610","0.0-26.0","324G5B4FB4UPW2HVJEPR47ZY7SA701","A3HXCMU4MOPSQI","3TZDZ3Y0JSSRVQSC3SM97PDQ3Z7196","","571.7000000029802","img/food3.png","76","572.2000000029802","2","0","4","0.2,0.8,0.2,0.8,0.2,0.8,0.8,0.2",""
"","html-keyboard-response","27","36911","0.0-27.0","324G5B4FB4UPW2HVJEPR47ZY7SA701","A3HXCMU4MOPSQI","3TZDZ3Y0JSSRVQSC3SM97PDQ3Z7196","","null","<img src=""img/food3.png"" style=""width:200px;border:14px solid red;"">","null","","","","","",""
"","image-keyboard-response","28","36982","0.0-28.0","324G5B4FB4UPW2HVJEPR47ZY7SA701","A3HXCMU4MOPSQI","3TZDZ3Y0JSSRVQSC3SM97PDQ3Z7196","","69.90000000596046","img/food5.png","75","70.3999999910593","1","0","1","0.2,0.8,0.2,0.8,0.2,0.8,0.8,0.2",""
"","html-keyboard-response","29","37283","0.0-29.0","324G5B4FB4UPW2HVJEPR47ZY7SA701","A3HXCMU4MOPSQI","3TZDZ3Y0JSSRVQSC3SM97PDQ3Z7196","","null","<img src=""img/food5.png"" style=""width:200px;border:14px solid red;"">","null","","","","","",""
"","image-keyboard-response","30","37644","0.0-30.0","324G5B4FB4UPW2HVJEPR47ZY7SA701","A3HXCMU4MOPSQI","3TZDZ3Y0JSSRVQSC3SM97PDQ3Z7196","","360.40000000596046","img/food3.png","76","360.8999999910593","2","1","4","0.2,0.8,0.2,0.8,0.2,0.8,0.8,0.2",""
"","html-keyboard-response","31","37945","0.0-31.0","324G5B4FB4UPW2HVJEPR47ZY7SA701","A3HXCMU4MOPSQI","3TZDZ3Y0JSSRVQSC3SM97PDQ3Z7196","","null","<img src=""img/food3.png"" style=""width:200px; border:14px solid green;"">","null","","","","","",""
"","image-keyboard-response","32","38354","0.0-32.0","324G5B4FB4UPW2HVJEPR47ZY7SA701","A3HXCMU4MOPSQI","3TZDZ3Y0JSSRVQSC3SM97PDQ3Z7196","","408.29999999701977","img/food5.png","75","408.8999999910593","1","0","1","0.2,0.8,0.2,0.8,0.2,0.8,0.8,0.2",""
"","html-keyboard-response","33","38660","0.0-33.0","324G5B4FB4UPW2HVJEPR47ZY7SA701","A3HXCMU4MOPSQI","3TZDZ3Y0JSSRVQSC3SM97PDQ3Z7196","","null","<img src=""img/food5.png"" style=""width:200px;border:14px solid red;"">","null","","","","","",""
"","image-keyboard-response","34","39434","0.0-34.0","324G5B4FB4UPW2HVJEPR47ZY7SA701","A3HXCMU4MOPSQI","3TZDZ3Y0JSSRVQSC3SM97PDQ3Z7196","","773.2999999970198","img/food5.png","76","773.7000000029802","2","1","1","0.2,0.8,0.2,0.8,0.2,0.8,0.8,0.2",""
"","html-keyboard-response","35","39735","0.0-35.0","324G5B4FB4UPW2HVJEPR47ZY7SA701","A3HXCMU4MOPSQI","3TZDZ3Y0JSSRVQSC3SM97PDQ3Z7196","","null","<img src=""img/food5.png"" style=""width:200px; border:14px solid green;"">","null","","","","","",""
"","image-keyboard-response","36","42000","0.0-36.0","324G5B4FB4UPW2HVJEPR47ZY7SA701","A3HXCMU4MOPSQI","3TZDZ3Y0JSSRVQSC3SM97PDQ3Z7196","","2263.800000011921","img/food3.png","75","2264.2999999970198","1","1","4","0.2,0.8,0.2,0.8,0.2,0.8,0.8,0.2",""
"","html-keyboard-response","37","42301","0.0-37.0","324G5B4FB4UPW2HVJEPR47ZY7SA701","A3HXCMU4MOPSQI","3TZDZ3Y0JSSRVQSC3SM97PDQ3Z7196","","null","<img src=""img/food3.png"" style=""width:200px; border:14px solid green;"">","null","","","","","",""
"","image-keyboard-response","38","43192","0.0-38.0","324G5B4FB4UPW2HVJEPR47ZY7SA701","A3HXCMU4MOPSQI","3TZDZ3Y0JSSRVQSC3SM97PDQ3Z7196","","890.6000000089407","img/food1.png","76","891.2000000029802","2","1","2","0.2,0.8,0.2,0.8,0.2,0.8,0.8,0.2",""
"","html-keyboard-response","39","43493","0.0-39.0","324G5B4FB4UPW2HVJEPR47ZY7SA701","A3HXCMU4MOPSQI","3TZDZ3Y0JSSRVQSC3SM97PDQ3Z7196","","null","<img src=""img/food1.png"" style=""width:200px; border:14px solid green;"">","null","","","","","",""
"","image-keyboard-response","40","43900","0.0-40.0","324G5B4FB4UPW2HVJEPR47ZY7SA701","A3HXCMU4MOPSQI","3TZDZ3Y0JSSRVQSC3SM97PDQ3Z7196","","406","img/food1.png","76","406.59999999403954","2","1","2","0.2,0.8,0.2,0.8,0.2,0.8,0.8,0.2",""
"","html-keyboard-response","41","44202","0.0-41.0","324G5B4FB4UPW2HVJEPR47ZY7SA701","A3HXCMU4MOPSQI","3TZDZ3Y0JSSRVQSC3SM97PDQ3Z7196","","null","<img src=""img/food1.png"" style=""width:200px; border:14px solid green;"">","null","","","","","",""
"","image-keyboard-response","42","44840","0.0-42.0","324G5B4FB4UPW2HVJEPR47ZY7SA701","A3HXCMU4MOPSQI","3TZDZ3Y0JSSRVQSC3SM97PDQ3Z7196","","637","img/food4.png","76","637.4000000059605","2","1","3","0.2,0.8,0.2,0.8,0.2,0.8,0.8,0.2",""
"","html-keyboard-response","43","45142","0.0-43.0","324G5B4FB4UPW2HVJEPR47ZY7SA701","A3HXCMU4MOPSQI","3TZDZ3Y0JSSRVQSC3SM97PDQ3Z7196","","null","<img src=""img/food4.png"" style=""width:200px; border:14px solid green;"">","null","","","","","",""
"","image-keyboard-response","44","45582","0.0-44.0","324G5B4FB4UPW2HVJEPR47ZY7SA701","A3HXCMU4MOPSQI","3TZDZ3Y0JSSRVQSC3SM97PDQ3Z7196","","439.20000000298023","img/food4.png","76","439.70000000298023","2","1","3","0.2,0.8,0.2,0.8,0.2,0.8,0.8,0.2",""
"","html-keyboard-response","45","45884","0.0-45.0","324G5B4FB4UPW2HVJEPR47ZY7SA701","A3HXCMU4MOPSQI","3TZDZ3Y0JSSRVQSC3SM97PDQ3Z7196","","null","<img src=""img/food4.png"" style=""width:200px; border:14px solid green;"">","null","","","","","",""
"","image-keyboard-response","46","46712","0.0-46.0","324G5B4FB4UPW2HVJEPR47ZY7SA701","A3HXCMU4MOPSQI","3TZDZ3Y0JSSRVQSC3SM97PDQ3Z7196","","827.5","img/food3.png","75","828","1","1","4","0.2,0.8,0.2,0.8,0.2,0.8,0.8,0.2",""
"","html-keyboard-response","47","47014","0.0-47.0","324G5B4FB4UPW2HVJEPR47ZY7SA701","A3HXCMU4MOPSQI","3TZDZ3Y0JSSRVQSC3SM97PDQ3Z7196","","null","<img src=""img/food3.png"" style=""width:200px; border:14px solid green;"">","null","","","","","",""
"","image-keyboard-response","48","47510","0.0-48.0","324G5B4FB4UPW2HVJEPR47ZY7SA701","A3HXCMU4MOPSQI","3TZDZ3Y0JSSRVQSC3SM97PDQ3Z7196","","495.3999999910593","img/food3.png","75","495.79999999701977","1","1","4","0.2,0.8,0.2,0.8,0.2,0.8,0.8,0.2",""
"","html-keyboard-response","49","47811","0.0-49.0","324G5B4FB4UPW2HVJEPR47ZY7SA701","A3HXCMU4MOPSQI","3TZDZ3Y0JSSRVQSC3SM97PDQ3Z7196","","null","<img src=""img/food3.png"" style=""width:200px; border:14px solid green;"">","null","","","","","",""
"","image-keyboard-response","50","48400","0.0-50.0","324G5B4FB4UPW2HVJEPR47ZY7SA701","A3HXCMU4MOPSQI","3TZDZ3Y0JSSRVQSC3SM97PDQ3Z7196","","588.2999999970198","img/food4.png","76","588.7000000029802","2","1","3","0.2,0.8,0.2,0.8,0.2,0.8,0.8,0.2",""
"","html-keyboard-response","51","48702","0.0-51.0","324G5B4FB4UPW2HVJEPR47ZY7SA701","A3HXCMU4MOPSQI","3TZDZ3Y0JSSRVQSC3SM97PDQ3Z7196","","null","<img src=""img/food4.png"" style=""width:200px; border:14px solid green;"">","null","","","","","",""
"","image-keyboard-response","52","49344","0.0-52.0","324G5B4FB4UPW2HVJEPR47ZY7SA701","A3HXCMU4MOPSQI","3TZDZ3Y0JSSRVQSC3SM97PDQ3Z7196","","641.3999999910593","img/food5.png","76","642","2","1","1","0.2,0.8,0.2,0.8,0.2,0.8,0.8,0.2",""
"","html-keyboard-response","53","49645","0.0-53.0","324G5B4FB4UPW2HVJEPR47ZY7SA701","A3HXCMU4MOPSQI","3TZDZ3Y0JSSRVQSC3SM97PDQ3Z7196","","null","<img src=""img/food5.png"" style=""width:200px; border:14px solid green;"">","null","","","","","",""
"","image-keyboard-response","54","50094","0.0-54.0","324G5B4FB4UPW2HVJEPR47ZY7SA701","A3HXCMU4MOPSQI","3TZDZ3Y0JSSRVQSC3SM97PDQ3Z7196","","448.30000001192093","img/food5.png","76","448.8999999910593","2","1","1","0.2,0.8,0.2,0.8,0.2,0.8,0.8,0.2",""
"","html-keyboard-response","55","50396","0.0-55.0","324G5B4FB4UPW2HVJEPR47ZY7SA701","A3HXCMU4MOPSQI","3TZDZ3Y0JSSRVQSC3SM97PDQ3Z7196","","null","<img src=""img/food5.png"" style=""width:200px; border:14px solid green;"">","null","","","","","",""
"","image-keyboard-response","56","50818","0.0-56.0","324G5B4FB4UPW2HVJEPR47ZY7SA701","A3HXCMU4MOPSQI","3TZDZ3Y0JSSRVQSC3SM97PDQ3Z7196","","421.70000000298023","img/food1.png","76","422.3999999910593","2","0","2","0.2,0.8,0.2,0.8,0.2,0.8,0.8,0.2",""
"","html-keyboard-response","57","51119","0.0-57.0","324G5B4FB4UPW2HVJEPR47ZY7SA701","A3HXCMU4MOPSQI","3TZDZ3Y0JSSRVQSC3SM97PDQ3Z7196","","null","<img src=""img/food1.png"" style=""width:200px;border:14px solid red;"">","null","","","","","",""
"","image-keyboard-response","58","52066","0.0-58.0","324G5B4FB4UPW2HVJEPR47ZY7SA701","A3HXCMU4MOPSQI","3TZDZ3Y0JSSRVQSC3SM97PDQ3Z7196","","945.6999999880791","img/food4.png","76","946.2000000029802","2","1","3","0.2,0.8,0.2,0.8,0.2,0.8,0.8,0.2",""
"","html-keyboard-response","59","52366","0.0-59.0","324G5B4FB4UPW2HVJEPR47ZY7SA701","A3HXCMU4MOPSQI","3TZDZ3Y0JSSRVQSC3SM97PDQ3Z7196","","null","<img src=""img/food4.png"" style=""width:200px; border:14px solid green;"">","null","","","","","",""
"","image-keyboard-response","60","52954","0.0-60.0","324G5B4FB4UPW2HVJEPR47ZY7SA701","A3HXCMU4MOPSQI","3TZDZ3Y0JSSRVQSC3SM97PDQ3Z7196","","586.7999999970198","img/food1.png","76","587.3000000119209","2","1","2","0.2,0.8,0.2,0.8,0.2,0.8,0.8,0.2",""
"","html-keyboard-response","61","53254","0.0-61.0","324G5B4FB4UPW2HVJEPR47ZY7SA701","A3HXCMU4MOPSQI","3TZDZ3Y0JSSRVQSC3SM97PDQ3Z7196","","null","<img src=""img/food1.png"" style=""width:200px; border:14px solid green;"">","null","","","","","",""
"","image-keyboard-response","62","53686","0.0-62.0","324G5B4FB4UPW2HVJEPR47ZY7SA701","A3HXCMU4MOPSQI","3TZDZ3Y0JSSRVQSC3SM97PDQ3Z7196","","430.6000000089407","img/food1.png","76","431.20000000298023","2","1","2","0.2,0.8,0.2,0.8,0.2,0.8,0.8,0.2",""
"","html-keyboard-response","63","53987","0.0-63.0","324G5B4FB4UPW2HVJEPR47ZY7SA701","A3HXCMU4MOPSQI","3TZDZ3Y0JSSRVQSC3SM97PDQ3Z7196","","null","<img src=""img/food1.png"" style=""width:200px; border:14px solid green;"">","null","","","","","",""
"","image-keyboard-response","64","54356","0.0-64.0","324G5B4FB4UPW2HVJEPR47ZY7SA701","A3HXCMU4MOPSQI","3TZDZ3Y0JSSRVQSC3SM97PDQ3Z7196","","368.20000000298023","img/food1.png","76","368.70000000298023","2","1","2","0.2,0.8,0.2,0.8,0.2,0.8,0.8,0.2",""
"","html-keyboard-response","65","54657","0.0-65.0","324G5B4FB4UPW2HVJEPR47ZY7SA701","A3HXCMU4MOPSQI","3TZDZ3Y0JSSRVQSC3SM97PDQ3Z7196","","null","<img src=""img/food1.png"" style=""width:200px; border:14px solid green;"">","null","","","","","",""
"","image-keyboard-response","66","55476","0.0-66.0","324G5B4FB4UPW2HVJEPR47ZY7SA701","A3HXCMU4MOPSQI","3TZDZ3Y0JSSRVQSC3SM97PDQ3Z7196","","818.2000000029802","img/food5.png","76","818.7999999970198","2","1","1","0.2,0.8,0.2,0.8,0.2,0.8,0.8,0.2",""
"","html-keyboard-response","67","55777","0.0-67.0","324G5B4FB4UPW2HVJEPR47ZY7SA701","A3HXCMU4MOPSQI","3TZDZ3Y0JSSRVQSC3SM97PDQ3Z7196","","null","<img src=""img/food5.png"" style=""width:200px; border:14px solid green;"">","null","","","","","",""
"","image-keyboard-response","68","56144","0.0-68.0","324G5B4FB4UPW2HVJEPR47ZY7SA701","A3HXCMU4MOPSQI","3TZDZ3Y0JSSRVQSC3SM97PDQ3Z7196","","366.19999998807907","img/food5.png","76","366.79999999701977","2","1","1","0.2,0.8,0.2,0.8,0.2,0.8,0.8,0.2",""
"","html-keyboard-response","69","56446","0.0-69.0","324G5B4FB4UPW2HVJEPR47ZY7SA701","A3HXCMU4MOPSQI","3TZDZ3Y0JSSRVQSC3SM97PDQ3Z7196","","null","<img src=""img/food5.png"" style=""width:200px; border:14px solid green;"">","null","","","","","",""
"","image-keyboard-response","70","56874","0.0-70.0","324G5B4FB4UPW2HVJEPR47ZY7SA701","A3HXCMU4MOPSQI","3TZDZ3Y0JSSRVQSC3SM97PDQ3Z7196","","427.5","img/food3.png","75","428","1","1","4","0.2,0.8,0.2,0.8,0.2,0.8,0.8,0.2",""
"","html-keyboard-response","71","57176","0.0-71.0","324G5B4FB4UPW2HVJEPR47ZY7SA701","A3HXCMU4MOPSQI","3TZDZ3Y0JSSRVQSC3SM97PDQ3Z7196","","null","<img src=""img/food3.png"" style=""width:200px; border:14px solid green;"">","null","","","","","",""
"","image-keyboard-response","72","57838","0.0-72.0","324G5B4FB4UPW2HVJEPR47ZY7SA701","A3HXCMU4MOPSQI","3TZDZ3Y0JSSRVQSC3SM97PDQ3Z7196","","661.5999999940395","img/food1.png","76","662","2","1","2","0.2,0.8,0.2,0.8,0.2,0.8,0.8,0.2",""
"","html-keyboard-response","73","58139","0.0-73.0","324G5B4FB4UPW2HVJEPR47ZY7SA701","A3HXCMU4MOPSQI","3TZDZ3Y0JSSRVQSC3SM97PDQ3Z7196","","null","<img src=""img/food1.png"" style=""width:200px; border:14px solid green;"">","null","","","","","",""
"","image-keyboard-response","74","58996","0.0-74.0","324G5B4FB4UPW2HVJEPR47ZY7SA701","A3HXCMU4MOPSQI","3TZDZ3Y0JSSRVQSC3SM97PDQ3Z7196","","856.2999999970198","img/food5.png","76","856.9000000059605","2","1","1","0.2,0.8,0.2,0.8,0.2,0.8,0.8,0.2",""
"","html-keyboard-response","75","59297","0.0-75.0","324G5B4FB4UPW2HVJEPR47ZY7SA701","A3HXCMU4MOPSQI","3TZDZ3Y0JSSRVQSC3SM97PDQ3Z7196","","null","<img src=""img/food5.png"" style=""width:200px; border:14px solid green;"">","null","","","","","",""
"","image-keyboard-response","76","59994","0.0-76.0","324G5B4FB4UPW2HVJEPR47ZY7SA701","A3HXCMU4MOPSQI","3TZDZ3Y0JSSRVQSC3SM97PDQ3Z7196","","696.4000000059605","img/food3.png","75","697","1","1","4","0.2,0.8,0.2,0.8,0.2,0.8,0.8,0.2",""
"","html-keyboard-response","77","60305","0.0-77.0","324G5B4FB4UPW2HVJEPR47ZY7SA701","A3HXCMU4MOPSQI","3TZDZ3Y0JSSRVQSC3SM97PDQ3Z7196","","null","<img src=""img/food3.png"" style=""width:200px; border:14px solid green;"">","null","","","","","",""
"","image-keyboard-response","78","60618","0.0-78.0","324G5B4FB4UPW2HVJEPR47ZY7SA701","A3HXCMU4MOPSQI","3TZDZ3Y0JSSRVQSC3SM97PDQ3Z7196","","312.5","img/food3.png","75","313","1","1","4","0.2,0.8,0.2,0.8,0.2,0.8,0.8,0.2",""
"","html-keyboard-response","79","60919","0.0-79.0","324G5B4FB4UPW2HVJEPR47ZY7SA701","A3HXCMU4MOPSQI","3TZDZ3Y0JSSRVQSC3SM97PDQ3Z7196","","null","<img src=""img/food3.png"" style=""width:200px; border:14px solid green;"">","null","","","","","",""
"","image-keyboard-response","80","61469","0.0-80.0","324G5B4FB4UPW2HVJEPR47ZY7SA701","A3HXCMU4MOPSQI","3TZDZ3Y0JSSRVQSC3SM97PDQ3Z7196","","548.8999999910593","img/food4.png","76","549.3999999910593","2","1","3","0.2,0.8,0.2,0.8,0.2,0.8,0.8,0.2",""
"","html-keyboard-response","81","61769","0.0-81.0","324G5B4FB4UPW2HVJEPR47ZY7SA701","A3HXCMU4MOPSQI","3TZDZ3Y0JSSRVQSC3SM97PDQ3Z7196","","null","<img src=""img/food4.png"" style=""width:200px; border:14px solid green;"">","null","","","","","",""
"","image-keyboard-response","82","62023","0.0-82.0","324G5B4FB4UPW2HVJEPR47ZY7SA701","A3HXCMU4MOPSQI","3TZDZ3Y0JSSRVQSC3SM97PDQ3Z7196","","252.40000000596046","img/food4.png","76","252.8999999910593","2","1","3","0.2,0.8,0.2,0.8,0.2,0.8,0.8,0.2",""
"","html-keyboard-response","83","62324","0.0-83.0","324G5B4FB4UPW2HVJEPR47ZY7SA701","A3HXCMU4MOPSQI","3TZDZ3Y0JSSRVQSC3SM97PDQ3Z7196","","null","<img src=""img/food4.png"" style=""width:200px; border:14px solid green;"">","null","","","","","",""
"","image-keyboard-response","84","62659","0.0-84.0","324G5B4FB4UPW2HVJEPR47ZY7SA701","A3HXCMU4MOPSQI","3TZDZ3Y0JSSRVQSC3SM97PDQ3Z7196","","333.79999999701977","img/food4.png","76","334.5","2","0","3","0.2,0.8,0.2,0.8,0.2,0.8,0.8,0.2",""
"","html-keyboard-response","85","62960","0.0-85.0","324G5B4FB4UPW2HVJEPR47ZY7SA701","A3HXCMU4MOPSQI","3TZDZ3Y0JSSRVQSC3SM97PDQ3Z7196","","null","<img src=""img/food4.png"" style=""width:200px;border:14px solid red;"">","null","","","","","",""
"","image-keyboard-response","86","63617","0.0-86.0","324G5B4FB4UPW2HVJEPR47ZY7SA701","A3HXCMU4MOPSQI","3TZDZ3Y0JSSRVQSC3SM97PDQ3Z7196","","656.5999999940395","img/food4.png","76","657.2000000029802","2","1","3","0.2,0.8,0.2,0.8,0.2,0.8,0.8,0.2",""
"","html-keyboard-response","87","63918","0.0-87.0","324G5B4FB4UPW2HVJEPR47ZY7SA701","A3HXCMU4MOPSQI","3TZDZ3Y0JSSRVQSC3SM97PDQ3Z7196","","null","<img src=""img/food4.png"" style=""width:200px; border:14px solid green;"">","null","","","","","",""
"","image-keyboard-response","88","64405","0.0-88.0","324G5B4FB4UPW2HVJEPR47ZY7SA701","A3HXCMU4MOPSQI","3TZDZ3Y0JSSRVQSC3SM97PDQ3Z7196","","486.19999998807907","img/food5.png","76","486.6000000089407","2","1","1","0.2,0.8,0.2,0.8,0.2,0.8,0.8,0.2",""
"","html-keyboard-response","89","64706","0.0-89.0","324G5B4FB4UPW2HVJEPR47ZY7SA701","A3HXCMU4MOPSQI","3TZDZ3Y0JSSRVQSC3SM97PDQ3Z7196","","null","<img src=""img/food5.png"" style=""width:200px; border:14px solid green;"">","null","","","","","",""
"","image-keyboard-response","90","65297","0.0-90.0","324G5B4FB4UPW2HVJEPR47ZY7SA701","A3HXCMU4MOPSQI","3TZDZ3Y0JSSRVQSC3SM97PDQ3Z7196","","590","img/food5.png","76","590.7000000029802","2","1","1","0.2,0.8,0.2,0.8,0.2,0.8,0.8,0.2",""
"","html-keyboard-response","91","65598","0.0-91.0","324G5B4FB4UPW2HVJEPR47ZY7SA701","A3HXCMU4MOPSQI","3TZDZ3Y0JSSRVQSC3SM97PDQ3Z7196","","null","<img src=""img/food5.png"" style=""width:200px; border:14px solid green;"">","null","","","","","",""
"","image-keyboard-response","92","65953","0.0-92.0","324G5B4FB4UPW2HVJEPR47ZY7SA701","A3HXCMU4MOPSQI","3TZDZ3Y0JSSRVQSC3SM97PDQ3Z7196","","354.5","img/food5.png","76","355.1000000089407","2","1","1","0.2,0.8,0.2,0.8,0.2,0.8,0.8,0.2",""
"","html-keyboard-response","93","66254","0.0-93.0","324G5B4FB4UPW2HVJEPR47ZY7SA701","A3HXCMU4MOPSQI","3TZDZ3Y0JSSRVQSC3SM97PDQ3Z7196","","null","<img src=""img/food5.png"" style=""width:200px; border:14px solid green;"">","null","","","","","",""
"","image-keyboard-response","94","67043","0.0-94.0","324G5B4FB4UPW2HVJEPR47ZY7SA701","A3HXCMU4MOPSQI","3TZDZ3Y0JSSRVQSC3SM97PDQ3Z7196","","788.7999999970198","img/food4.png","76","789.3000000119209","2","0","3","0.2,0.8,0.2,0.8,0.2,0.8,0.8,0.2",""
"","html-keyboard-response","95","67345","0.0-95.0","324G5B4FB4UPW2HVJEPR47ZY7SA701","A3HXCMU4MOPSQI","3TZDZ3Y0JSSRVQSC3SM97PDQ3Z7196","","null","<img src=""img/food4.png"" style=""width:200px;border:14px solid red;"">","null","","","","","",""
"","image-keyboard-response","96","68067","0.0-96.0","324G5B4FB4UPW2HVJEPR47ZY7SA701","A3HXCMU4MOPSQI","3TZDZ3Y0JSSRVQSC3SM97PDQ3Z7196","","721.8000000119209","img/food3.png","75","722.2999999970198","1","1","4","0.2,0.8,0.2,0.8,0.2,0.8,0.8,0.2",""
"","html-keyboard-response","97","68368","0.0-97.0","324G5B4FB4UPW2HVJEPR47ZY7SA701","A3HXCMU4MOPSQI","3TZDZ3Y0JSSRVQSC3SM97PDQ3Z7196","","null","<img src=""img/food3.png"" style=""width:200px; border:14px solid green;"">","null","","","","","",""
"","image-keyboard-response","98","69006","0.0-98.0","324G5B4FB4UPW2HVJEPR47ZY7SA701","A3HXCMU4MOPSQI","3TZDZ3Y0JSSRVQSC3SM97PDQ3Z7196","","636.7000000029802","img/food4.png","76","637.2999999970198","2","0","3","0.2,0.8,0.2,0.8,0.2,0.8,0.8,0.2",""
"","html-keyboard-response","99","69306","0.0-99.0","324G5B4FB4UPW2HVJEPR47ZY7SA701","A3HXCMU4MOPSQI","3TZDZ3Y0JSSRVQSC3SM97PDQ3Z7196","","null","<img src=""img/food4.png"" style=""width:200px;border:14px solid red;"">","null","","","","","",""
"","image-keyboard-response","100","70156","0.0-100.0","324G5B4FB4UPW2HVJEPR47ZY7SA701","A3HXCMU4MOPSQI","3TZDZ3Y0JSSRVQSC3SM97PDQ3Z7196","","848.6000000089407","img/food5.png","76","849.1999999880791","2","1","1","0.2,0.8,0.2,0.8,0.2,0.8,0.8,0.2",""
"","html-keyboard-response","101","70456","0.0-101.0","324G5B4FB4UPW2HVJEPR47ZY7SA701","A3HXCMU4MOPSQI","3TZDZ3Y0JSSRVQSC3SM97PDQ3Z7196","","null","<img src=""img/food5.png"" style=""width:200px; border:14px solid green;"">","null","","","","","",""
"","image-keyboard-response","102","71520","0.0-102.0","324G5B4FB4UPW2HVJEPR47ZY7SA701","A3HXCMU4MOPSQI","3TZDZ3Y0JSSRVQSC3SM97PDQ3Z7196","","1062.7999999970198","img/food1.png","76","1063.3999999910593","2","1","2","0.2,0.8,0.2,0.8,0.2,0.8,0.8,0.2",""
"","html-keyboard-response","103","71820","0.0-103.0","324G5B4FB4UPW2HVJEPR47ZY7SA701","A3HXCMU4MOPSQI","3TZDZ3Y0JSSRVQSC3SM97PDQ3Z7196","","null","<img src=""img/food1.png"" style=""width:200px; border:14px solid green;"">","null","","","","","",""
"","image-keyboard-response","104","72430","0.0-104.0","324G5B4FB4UPW2HVJEPR47ZY7SA701","A3HXCMU4MOPSQI","3TZDZ3Y0JSSRVQSC3SM97PDQ3Z7196","","608.7999999970198","img/food4.png","75","609.2999999970198","1","0","3","0.2,0.8,0.2,0.8,0.2,0.8,0.8,0.2",""
"","html-keyboard-response","105","72731","0.0-105.0","324G5B4FB4UPW2HVJEPR47ZY7SA701","A3HXCMU4MOPSQI","3TZDZ3Y0JSSRVQSC3SM97PDQ3Z7196","","null","<img src=""img/food4.png"" style=""width:200px;border:14px solid red;"">","null","","","","","",""
"","image-keyboard-response","106","73406","0.0-106.0","324G5B4FB4UPW2HVJEPR47ZY7SA701","A3HXCMU4MOPSQI","3TZDZ3Y0JSSRVQSC3SM97PDQ3Z7196","","674.1000000089407","img/food1.png","75","674.6999999880791","1","0","2","0.2,0.8,0.2,0.8,0.2,0.8,0.8,0.2",""
"","html-keyboard-response","107","73707","0.0-107.0","324G5B4FB4UPW2HVJEPR47ZY7SA701","A3HXCMU4MOPSQI","3TZDZ3Y0JSSRVQSC3SM97PDQ3Z7196","","null","<img src=""img/food1.png"" style=""width:200px;border:14px solid red;"">","null","","","","","",""
"","image-keyboard-response","108","74024","0.0-108.0","324G5B4FB4UPW2HVJEPR47ZY7SA701","A3HXCMU4MOPSQI","3TZDZ3Y0JSSRVQSC3SM97PDQ3Z7196","","316.1000000089407","img/food1.png","76","316.69999998807907","2","1","2","0.2,0.8,0.2,0.8,0.2,0.8,0.8,0.2",""
"","html-keyboard-response","109","74326","0.0-109.0","324G5B4FB4UPW2HVJEPR47ZY7SA701","A3HXCMU4MOPSQI","3TZDZ3Y0JSSRVQSC3SM97PDQ3Z7196","","null","<img src=""img/food1.png"" style=""width:200px; border:14px solid green;"">","null","","","","","",""
"","image-keyboard-response","110","75000","0.0-110.0","324G5B4FB4UPW2HVJEPR47ZY7SA701","A3HXCMU4MOPSQI","3TZDZ3Y0JSSRVQSC3SM97PDQ3Z7196","","674","img/food4.png","75","674.5","1","0","3","0.2,0.8,0.2,0.8,0.2,0.8,0.8,0.2",""
"","html-keyboard-response","111","75302","0.0-111.0","324G5B4FB4UPW2HVJEPR47ZY7SA701","A3HXCMU4MOPSQI","3TZDZ3Y0JSSRVQSC3SM97PDQ3Z7196","","null","<img src=""img/food4.png"" style=""width:200px;border:14px solid red;"">","null","","","","","",""
"","image-keyboard-response","112","76106","0.0-112.0","324G5B4FB4UPW2HVJEPR47ZY7SA701","A3HXCMU4MOPSQI","3TZDZ3Y0JSSRVQSC3SM97PDQ3Z7196","","803.2999999970198","img/food1.png","76","803.8999999910593","2","1","2","0.2,0.8,0.2,0.8,0.2,0.8,0.8,0.2",""
"","html-keyboard-response","113","76407","0.0-113.0","324G5B4FB4UPW2HVJEPR47ZY7SA701","A3HXCMU4MOPSQI","3TZDZ3Y0JSSRVQSC3SM97PDQ3Z7196","","null","<img src=""img/food1.png"" style=""width:200px; border:14px solid green;"">","null","","","","","",""
"","image-keyboard-response","114","76794","0.0-114.0","324G5B4FB4UPW2HVJEPR47ZY7SA701","A3HXCMU4MOPSQI","3TZDZ3Y0JSSRVQSC3SM97PDQ3Z7196","","386.20000000298023","img/food4.png","76","386.70000000298023","2","1","3","0.2,0.8,0.2,0.8,0.2,0.8,0.8,0.2",""
"","html-keyboard-response","115","77097","0.0-115.0","324G5B4FB4UPW2HVJEPR47ZY7SA701","A3HXCMU4MOPSQI","3TZDZ3Y0JSSRVQSC3SM97PDQ3Z7196","","null","<img src=""img/food4.png"" style=""width:200px; border:14px solid green;"">","null","","","","","",""
"","image-keyboard-response","116","77493","0.0-116.0","324G5B4FB4UPW2HVJEPR47ZY7SA701","A3HXCMU4MOPSQI","3TZDZ3Y0JSSRVQSC3SM97PDQ3Z7196","","395.30000001192093","img/food1.png","76","396","2","0","2","0.2,0.8,0.2,0.8,0.2,0.8,0.8,0.2",""
"","html-keyboard-response","117","77793","0.0-117.0","324G5B4FB4UPW2HVJEPR47ZY7SA701","A3HXCMU4MOPSQI","3TZDZ3Y0JSSRVQSC3SM97PDQ3Z7196","","null","<img src=""img/food1.png"" style=""width:200px;border:14px solid red;"">","null","","","","","",""
"","image-keyboard-response","118","78417","0.0-118.0","324G5B4FB4UPW2HVJEPR47ZY7SA701","A3HXCMU4MOPSQI","3TZDZ3Y0JSSRVQSC3SM97PDQ3Z7196","","622","img/food4.png","76","622.5","2","1","3","0.2,0.8,0.2,0.8,0.2,0.8,0.8,0.2",""
"","html-keyboard-response","119","78717","0.0-119.0","324G5B4FB4UPW2HVJEPR47ZY7SA701","A3HXCMU4MOPSQI","3TZDZ3Y0JSSRVQSC3SM97PDQ3Z7196","","null","<img src=""img/food4.png"" style=""width:200px; border:14px solid green;"">","null","","","","","",""
"","image-keyboard-response","120","79070","0.0-120.0","324G5B4FB4UPW2HVJEPR47ZY7SA701","A3HXCMU4MOPSQI","3TZDZ3Y0JSSRVQSC3SM97PDQ3Z7196","","352.6000000089407","img/food4.png","76","353.20000000298023","2","1","3","0.2,0.8,0.2,0.8,0.2,0.8,0.8,0.2",""
"","html-keyboard-response","121","79371","0.0-121.0","324G5B4FB4UPW2HVJEPR47ZY7SA701","A3HXCMU4MOPSQI","3TZDZ3Y0JSSRVQSC3SM97PDQ3Z7196","","null","<img src=""img/food4.png"" style=""width:200px; border:14px solid green;"">","null","","","","","",""
"","image-keyboard-response","122","79919","0.0-122.0","324G5B4FB4UPW2HVJEPR47ZY7SA701","A3HXCMU4MOPSQI","3TZDZ3Y0JSSRVQSC3SM97PDQ3Z7196","","546.7999999970198","img/food1.png","76","547.2000000029802","2","1","2","0.2,0.8,0.2,0.8,0.2,0.8,0.8,0.2",""
"","html-keyboard-response","123","80220","0.0-123.0","324G5B4FB4UPW2HVJEPR47ZY7SA701","A3HXCMU4MOPSQI","3TZDZ3Y0JSSRVQSC3SM97PDQ3Z7196","","null","<img src=""img/food1.png"" style=""width:200px; border:14px solid green;"">","null","","","","","",""
"","image-keyboard-response","124","80609","0.0-124.0","324G5B4FB4UPW2HVJEPR47ZY7SA701","A3HXCMU4MOPSQI","3TZDZ3Y0JSSRVQSC3SM97PDQ3Z7196","","388.6000000089407","img/food4.png","76","389.1000000089407","2","1","3","0.2,0.8,0.2,0.8,0.2,0.8,0.8,0.2",""
"","html-keyboard-response","125","80909","0.0-125.0","324G5B4FB4UPW2HVJEPR47ZY7SA701","A3HXCMU4MOPSQI","3TZDZ3Y0JSSRVQSC3SM97PDQ3Z7196","","null","<img src=""img/food4.png"" style=""width:200px; border:14px solid green;"">","null","","","","","",""
"","image-keyboard-response","126","81157","0.0-126.0","324G5B4FB4UPW2HVJEPR47ZY7SA701","A3HXCMU4MOPSQI","3TZDZ3Y0JSSRVQSC3SM97PDQ3Z7196","","246.79999999701977","img/food4.png","76","247.40000000596046","2","1","3","0.2,0.8,0.2,0.8,0.2,0.8,0.8,0.2",""
"","html-keyboard-response","127","81458","0.0-127.0","324G5B4FB4UPW2HVJEPR47ZY7SA701","A3HXCMU4MOPSQI","3TZDZ3Y0JSSRVQSC3SM97PDQ3Z7196","","null","<img src=""img/food4.png"" style=""width:200px; border:14px solid green;"">","null","","","","","",""
"","image-keyboard-response","128","81871","0.0-128.0","324G5B4FB4UPW2HVJEPR47ZY7SA701","A3HXCMU4MOPSQI","3TZDZ3Y0JSSRVQSC3SM97PDQ3Z7196","","412.09999999403954","img/food1.png","76","412.5","2","0","2","0.2,0.8,0.2,0.8,0.2,0.8,0.8,0.2",""
"","html-keyboard-response","129","82172","0.0-129.0","324G5B4FB4UPW2HVJEPR47ZY7SA701","A3HXCMU4MOPSQI","3TZDZ3Y0JSSRVQSC3SM97PDQ3Z7196","","null","<img src=""img/food1.png"" style=""width:200px;border:14px solid red;"">","null","","","","","",""
"","image-keyboard-response","130","82569","0.0-130.0","324G5B4FB4UPW2HVJEPR47ZY7SA701","A3HXCMU4MOPSQI","3TZDZ3Y0JSSRVQSC3SM97PDQ3Z7196","","396.09999999403954","img/food5.png","76","396.59999999403954","2","1","1","0.2,0.8,0.2,0.8,0.2,0.8,0.8,0.2",""
"","html-keyboard-response","131","82870","0.0-131.0","324G5B4FB4UPW2HVJEPR47ZY7SA701","A3HXCMU4MOPSQI","3TZDZ3Y0JSSRVQSC3SM97PDQ3Z7196","","null","<img src=""img/food5.png"" style=""width:200px; border:14px solid green;"">","null","","","","","",""
"","image-keyboard-response","132","83247","0.0-132.0","324G5B4FB4UPW2HVJEPR47ZY7SA701","A3HXCMU4MOPSQI","3TZDZ3Y0JSSRVQSC3SM97PDQ3Z7196","","376.09999999403954","img/food3.png","76","376.59999999403954","2","0","4","0.2,0.8,0.2,0.8,0.2,0.8,0.8,0.2",""
"","html-keyboard-response","133","83548","0.0-133.0","324G5B4FB4UPW2HVJEPR47ZY7SA701","A3HXCMU4MOPSQI","3TZDZ3Y0JSSRVQSC3SM97PDQ3Z7196","","null","<img src=""img/food3.png"" style=""width:200px;border:14px solid red;"">","null","","","","","",""
"","image-keyboard-response","134","84121","0.0-134.0","324G5B4FB4UPW2HVJEPR47ZY7SA701","A3HXCMU4MOPSQI","3TZDZ3Y0JSSRVQSC3SM97PDQ3Z7196","","572.5999999940395","img/food3.png","75","573.0999999940395","1","1","4","0.2,0.8,0.2,0.8,0.2,0.8,0.8,0.2",""
"","html-keyboard-response","135","84423","0.0-135.0","324G5B4FB4UPW2HVJEPR47ZY7SA701","A3HXCMU4MOPSQI","3TZDZ3Y0JSSRVQSC3SM97PDQ3Z7196","","null","<img src=""img/food3.png"" style=""width:200px; border:14px solid green;"">","null","","","","","",""
"","image-keyboard-response","136","85011","0.0-136.0","324G5B4FB4UPW2HVJEPR47ZY7SA701","A3HXCMU4MOPSQI","3TZDZ3Y0JSSRVQSC3SM97PDQ3Z7196","","587.1999999880791","img/food4.png","76","587.6000000089407","2","1","3","0.2,0.8,0.2,0.8,0.2,0.8,0.8,0.2",""
"","html-keyboard-response","137","85313","0.0-137.0","324G5B4FB4UPW2HVJEPR47ZY7SA701","A3HXCMU4MOPSQI","3TZDZ3Y0JSSRVQSC3SM97PDQ3Z7196","","null","<img src=""img/food4.png"" style=""width:200px; border:14px solid green;"">","null","","","","","",""
"","image-keyboard-response","138","86093","0.0-138.0","324G5B4FB4UPW2HVJEPR47ZY7SA701","A3HXCMU4MOPSQI","3TZDZ3Y0JSSRVQSC3SM97PDQ3Z7196","","780","img/food5.png","76","780.6000000089407","2","1","1","0.2,0.8,0.2,0.8,0.2,0.8,0.8,0.2",""
"","html-keyboard-response","139","86394","0.0-139.0","324G5B4FB4UPW2HVJEPR47ZY7SA701","A3HXCMU4MOPSQI","3TZDZ3Y0JSSRVQSC3SM97PDQ3Z7196","","null","<img src=""img/food5.png"" style=""width:200px; border:14px solid green;"">","null","","","","","",""
"","image-keyboard-response","140","86837","0.0-140.0","324G5B4FB4UPW2HVJEPR47ZY7SA701","A3HXCMU4MOPSQI","3TZDZ3Y0JSSRVQSC3SM97PDQ3Z7196","","442.5","img/food3.png","76","443","2","0","4","0.2,0.8,0.2,0.8,0.2,0.8,0.8,0.2",""
"","html-keyboard-response","141","87138","0.0-141.0","324G5B4FB4UPW2HVJEPR47ZY7SA701","A3HXCMU4MOPSQI","3TZDZ3Y0JSSRVQSC3SM97PDQ3Z7196","","null","<img src=""img/food3.png"" style=""width:200px;border:14px solid red;"">","null","","","","","",""
"","image-keyboard-response","142","88056","0.0-142.0","324G5B4FB4UPW2HVJEPR47ZY7SA701","A3HXCMU4MOPSQI","3TZDZ3Y0JSSRVQSC3SM97PDQ3Z7196","","916.8999999910593","img/food1.png","75","917.3999999910593","1","0","2","0.2,0.8,0.2,0.8,0.2,0.8,0.8,0.2",""
"","html-keyboard-response","143","88356","0.0-143.0","324G5B4FB4UPW2HVJEPR47ZY7SA701","A3HXCMU4MOPSQI","3TZDZ3Y0JSSRVQSC3SM97PDQ3Z7196","","null","<img src=""img/food1.png"" style=""width:200px;border:14px solid red;"">","null","","","","","",""
"","image-keyboard-response","144","89080","0.0-144.0","324G5B4FB4UPW2HVJEPR47ZY7SA701","A3HXCMU4MOPSQI","3TZDZ3Y0JSSRVQSC3SM97PDQ3Z7196","","722.7000000029802","img/food3.png","75","723.2000000029802","1","1","4","0.2,0.8,0.2,0.8,0.2,0.8,0.8,0.2",""
"","html-keyboard-response","145","89382","0.0-145.0","324G5B4FB4UPW2HVJEPR47ZY7SA701","A3HXCMU4MOPSQI","3TZDZ3Y0JSSRVQSC3SM97PDQ3Z7196","","null","<img src=""img/food3.png"" style=""width:200px; border:14px solid green;"">","null","","","","","",""
"","image-keyboard-response","146","89871","0.0-146.0","324G5B4FB4UPW2HVJEPR47ZY7SA701","A3HXCMU4MOPSQI","3TZDZ3Y0JSSRVQSC3SM97PDQ3Z7196","","487.79999999701977","img/food3.png","75","488.29999999701977","1","1","4","0.2,0.8,0.2,0.8,0.2,0.8,0.8,0.2",""
"","html-keyboard-response","147","90172","0.0-147.0","324G5B4FB4UPW2HVJEPR47ZY7SA701","A3HXCMU4MOPSQI","3TZDZ3Y0JSSRVQSC3SM97PDQ3Z7196","","null","<img src=""img/food3.png"" style=""width:200px; border:14px solid green;"">","null","","","","","",""
"","image-keyboard-response","148","90469","0.0-148.0","324G5B4FB4UPW2HVJEPR47ZY7SA701","A3HXCMU4MOPSQI","3TZDZ3Y0JSSRVQSC3SM97PDQ3Z7196","","295.79999999701977","img/food3.png","75","296.3999999910593","1","1","4","0.2,0.8,0.2,0.8,0.2,0.8,0.8,0.2",""
"","html-keyboard-response","149","90769","0.0-149.0","324G5B4FB4UPW2HVJEPR47ZY7SA701","A3HXCMU4MOPSQI","3TZDZ3Y0JSSRVQSC3SM97PDQ3Z7196","","null","<img src=""img/food3.png"" style=""width:200px; border:14px solid green;"">","null","","","","","",""
"","image-keyboard-response","150","91947","0.0-150.0","324G5B4FB4UPW2HVJEPR47ZY7SA701","A3HXCMU4MOPSQI","3TZDZ3Y0JSSRVQSC3SM97PDQ3Z7196","","1176.7000000029802","img/food5.png","75","1177.2000000029802","1","0","1","0.2,0.8,0.2,0.8,0.2,0.8,0.8,0.2",""
"","html-keyboard-response","151","92248","0.0-151.0","324G5B4FB4UPW2HVJEPR47ZY7SA701","A3HXCMU4MOPSQI","3TZDZ3Y0JSSRVQSC3SM97PDQ3Z7196","","null","<img src=""img/food5.png"" style=""width:200px;border:14px solid red;"">","null","","","","","",""
"","image-keyboard-response","152","92923","0.0-152.0","324G5B4FB4UPW2HVJEPR47ZY7SA701","A3HXCMU4MOPSQI","3TZDZ3Y0JSSRVQSC3SM97PDQ3Z7196","","674.4000000059605","img/food3.png","76","675.0999999940395","2","0","4","0.2,0.8,0.2,0.8,0.2,0.8,0.8,0.2",""
"","html-keyboard-response","153","93225","0.0-153.0","324G5B4FB4UPW2HVJEPR47ZY7SA701","A3HXCMU4MOPSQI","3TZDZ3Y0JSSRVQSC3SM97PDQ3Z7196","","null","<img src=""img/food3.png"" style=""width:200px;border:14px solid red;"">","null","","","","","",""
"","image-keyboard-response","154","93849","0.0-154.0","324G5B4FB4UPW2HVJEPR47ZY7SA701","A3HXCMU4MOPSQI","3TZDZ3Y0JSSRVQSC3SM97PDQ3Z7196","","623.3999999910593","img/food1.png","75","623.7999999970198","1","1","2","0.2,0.8,0.2,0.8,0.2,0.8,0.8,0.2",""
"","html-keyboard-response","155","94150","0.0-155.0","324G5B4FB4UPW2HVJEPR47ZY7SA701","A3HXCMU4MOPSQI","3TZDZ3Y0JSSRVQSC3SM97PDQ3Z7196","","null","<img src=""img/food1.png"" style=""width:200px; border:14px solid green;"">","null","","","","","",""
"","image-keyboard-response","156","95389","0.0-156.0","324G5B4FB4UPW2HVJEPR47ZY7SA701","A3HXCMU4MOPSQI","3TZDZ3Y0JSSRVQSC3SM97PDQ3Z7196","","1238.0999999940395","img/food5.png","76","1238.6000000089407","2","1","1","0.2,0.8,0.2,0.8,0.2,0.8,0.8,0.2",""
"","html-keyboard-response","157","95690","0.0-157.0","324G5B4FB4UPW2HVJEPR47ZY7SA701","A3HXCMU4MOPSQI","3TZDZ3Y0JSSRVQSC3SM97PDQ3Z7196","","null","<img src=""img/food5.png"" style=""width:200px; border:14px solid green;"">","null","","","","","",""
"","image-keyboard-response","158","96275","0.0-158.0","324G5B4FB4UPW2HVJEPR47ZY7SA701","A3HXCMU4MOPSQI","3TZDZ3Y0JSSRVQSC3SM97PDQ3Z7196","","584.5","img/food1.png","76","585","2","1","2","0.2,0.8,0.2,0.8,0.2,0.8,0.8,0.2",""
"","html-keyboard-response","159","96577","0.0-159.0","324G5B4FB4UPW2HVJEPR47ZY7SA701","A3HXCMU4MOPSQI","3TZDZ3Y0JSSRVQSC3SM97PDQ3Z7196","","null","<img src=""img/food1.png"" style=""width:200px; border:14px solid green;"">","null","","","","","",""
"","image-keyboard-response","160","96920","0.0-160.0","324G5B4FB4UPW2HVJEPR47ZY7SA701","A3HXCMU4MOPSQI","3TZDZ3Y0JSSRVQSC3SM97PDQ3Z7196","","341.5","img/food5.png","76","342","2","0","1","0.2,0.8,0.2,0.8,0.2,0.8,0.8,0.2",""
"","html-keyboard-response","161","97220","0.0-161.0","324G5B4FB4UPW2HVJEPR47ZY7SA701","A3HXCMU4MOPSQI","3TZDZ3Y0JSSRVQSC3SM97PDQ3Z7196","","null","<img src=""img/food5.png"" style=""width:200px;border:14px solid red;"">","null","","","","","",""
"","image-keyboard-response","162","97517","0.0-162.0","324G5B4FB4UPW2HVJEPR47ZY7SA701","A3HXCMU4MOPSQI","3TZDZ3Y0JSSRVQSC3SM97PDQ3Z7196","","296.59999999403954","img/food4.png","76","297.20000000298023","2","1","3","0.2,0.8,0.2,0.8,0.2,0.8,0.8,0.2",""
"","html-keyboard-response","163","97818","0.0-163.0","324G5B4FB4UPW2HVJEPR47ZY7SA701","A3HXCMU4MOPSQI","3TZDZ3Y0JSSRVQSC3SM97PDQ3Z7196","","null","<img src=""img/food4.png"" style=""width:200px; border:14px solid green;"">","null","","","","","",""
"","image-keyboard-response","164","98296","0.0-164.0","324G5B4FB4UPW2HVJEPR47ZY7SA701","A3HXCMU4MOPSQI","3TZDZ3Y0JSSRVQSC3SM97PDQ3Z7196","","476.79999999701977","img/food5.png","75","477.3999999910593","1","0","1","0.2,0.8,0.2,0.8,0.2,0.8,0.8,0.2",""
"","html-keyboard-response","165","98597","0.0-165.0","324G5B4FB4UPW2HVJEPR47ZY7SA701","A3HXCMU4MOPSQI","3TZDZ3Y0JSSRVQSC3SM97PDQ3Z7196","","null","<img src=""img/food5.png"" style=""width:200px;border:14px solid red;"">","null","","","","","",""
"","image-keyboard-response","166","98855","0.0-166.0","324G5B4FB4UPW2HVJEPR47ZY7SA701","A3HXCMU4MOPSQI","3TZDZ3Y0JSSRVQSC3SM97PDQ3Z7196","","256.5","img/food4.png","76","257.1000000089407","2","1","3","0.2,0.8,0.2,0.8,0.2,0.8,0.8,0.2",""
"","html-keyboard-response","167","99156","0.0-167.0","324G5B4FB4UPW2HVJEPR47ZY7SA701","A3HXCMU4MOPSQI","3TZDZ3Y0JSSRVQSC3SM97PDQ3Z7196","","null","<img src=""img/food4.png"" style=""width:200px; border:14px solid green;"">","null","","","","","",""
"","image-keyboard-response","168","99589","0.0-168.0","324G5B4FB4UPW2HVJEPR47ZY7SA701","A3HXCMU4MOPSQI","3TZDZ3Y0JSSRVQSC3SM97PDQ3Z7196","","432.6000000089407","img/food3.png","76","433.1000000089407","2","0","4","0.2,0.8,0.2,0.8,0.2,0.8,0.8,0.2",""
"","html-keyboard-response","169","99890","0.0-169.0","324G5B4FB4UPW2HVJEPR47ZY7SA701","A3HXCMU4MOPSQI","3TZDZ3Y0JSSRVQSC3SM97PDQ3Z7196","","null","<img src=""img/food3.png"" style=""width:200px;border:14px solid red;"">","null","","","","","",""
"","image-keyboard-response","170","100267","0.0-170.0","324G5B4FB4UPW2HVJEPR47ZY7SA701","A3HXCMU4MOPSQI","3TZDZ3Y0JSSRVQSC3SM97PDQ3Z7196","","375.8999999910593","img/food5.png","76","376.40000000596046","2","1","1","0.2,0.8,0.2,0.8,0.2,0.8,0.8,0.2",""
"","html-keyboard-response","171","100568","0.0-171.0","324G5B4FB4UPW2HVJEPR47ZY7SA701","A3HXCMU4MOPSQI","3TZDZ3Y0JSSRVQSC3SM97PDQ3Z7196","","null","<img src=""img/food5.png"" style=""width:200px; border:14px solid green;"">","null","","","","","",""
"","image-keyboard-response","172","100965","0.0-172.0","324G5B4FB4UPW2HVJEPR47ZY7SA701","A3HXCMU4MOPSQI","3TZDZ3Y0JSSRVQSC3SM97PDQ3Z7196","","396","img/food1.png","76","396.5","2","1","2","0.2,0.8,0.2,0.8,0.2,0.8,0.8,0.2",""
"","html-keyboard-response","173","101266","0.0-173.0","324G5B4FB4UPW2HVJEPR47ZY7SA701","A3HXCMU4MOPSQI","3TZDZ3Y0JSSRVQSC3SM97PDQ3Z7196","","null","<img src=""img/food1.png"" style=""width:200px; border:14px solid green;"">","null","","","","","",""
"","image-keyboard-response","174","101793","0.0-174.0","324G5B4FB4UPW2HVJEPR47ZY7SA701","A3HXCMU4MOPSQI","3TZDZ3Y0JSSRVQSC3SM97PDQ3Z7196","","525.9000000059605","img/food4.png","76","526.4000000059605","2","1","3","0.2,0.8,0.2,0.8,0.2,0.8,0.8,0.2",""
"","html-keyboard-response","175","102095","0.0-175.0","324G5B4FB4UPW2HVJEPR47ZY7SA701","A3HXCMU4MOPSQI","3TZDZ3Y0JSSRVQSC3SM97PDQ3Z7196","","null","<img src=""img/food4.png"" style=""width:200px; border:14px solid green;"">","null","","","","","",""
"","image-keyboard-response","176","102523","0.0-176.0","324G5B4FB4UPW2HVJEPR47ZY7SA701","A3HXCMU4MOPSQI","3TZDZ3Y0JSSRVQSC3SM97PDQ3Z7196","","427.70000000298023","img/food5.png","76","428.29999999701977","2","1","1","0.2,0.8,0.2,0.8,0.2,0.8,0.8,0.2",""
"","html-keyboard-response","177","102825","0.0-177.0","324G5B4FB4UPW2HVJEPR47ZY7SA701","A3HXCMU4MOPSQI","3TZDZ3Y0JSSRVQSC3SM97PDQ3Z7196","","null","<img src=""img/food5.png"" style=""width:200px; border:14px solid green;"">","null","","","","","",""
"","image-keyboard-response","178","103229","0.0-178.0","324G5B4FB4UPW2HVJEPR47ZY7SA701","A3HXCMU4MOPSQI","3TZDZ3Y0JSSRVQSC3SM97PDQ3Z7196","","404","img/food4.png","76","404.5","2","1","3","0.2,0.8,0.2,0.8,0.2,0.8,0.8,0.2",""
"","html-keyboard-response","179","103532","0.0-179.0","324G5B4FB4UPW2HVJEPR47ZY7SA701","A3HXCMU4MOPSQI","3TZDZ3Y0JSSRVQSC3SM97PDQ3Z7196","","null","<img src=""img/food4.png"" style=""width:200px; border:14px solid green;"">","null","","","","","",""
"","image-keyboard-response","180","103917","0.0-180.0","324G5B4FB4UPW2HVJEPR47ZY7SA701","A3HXCMU4MOPSQI","3TZDZ3Y0JSSRVQSC3SM97PDQ3Z7196","","384.90000000596046","img/food1.png","76","385.3999999910593","2","1","2","0.2,0.8,0.2,0.8,0.2,0.8,0.8,0.2",""
"","html-keyboard-response","181","104218","0.0-181.0","324G5B4FB4UPW2HVJEPR47ZY7SA701","A3HXCMU4MOPSQI","3TZDZ3Y0JSSRVQSC3SM97PDQ3Z7196","","null","<img src=""img/food1.png"" style=""width:200px; border:14px solid green;"">","null","","","","","",""
"","image-keyboard-response","182","104587","0.0-182.0","324G5B4FB4UPW2HVJEPR47ZY7SA701","A3HXCMU4MOPSQI","3TZDZ3Y0JSSRVQSC3SM97PDQ3Z7196","","368.5","img/food4.png","76","369.09999999403954","2","1","3","0.2,0.8,0.2,0.8,0.2,0.8,0.8,0.2",""
"","html-keyboard-response","183","104889","0.0-183.0","324G5B4FB4UPW2HVJEPR47ZY7SA701","A3HXCMU4MOPSQI","3TZDZ3Y0JSSRVQSC3SM97PDQ3Z7196","","null","<img src=""img/food4.png"" style=""width:200px; border:14px solid green;"">","null","","","","","",""
"","image-keyboard-response","184","105323","0.0-184.0","324G5B4FB4UPW2HVJEPR47ZY7SA701","A3HXCMU4MOPSQI","3TZDZ3Y0JSSRVQSC3SM97PDQ3Z7196","","434.20000000298023","img/food1.png","76","434.70000000298023","2","1","2","0.2,0.8,0.2,0.8,0.2,0.8,0.8,0.2",""
"","html-keyboard-response","185","105625","0.0-185.0","324G5B4FB4UPW2HVJEPR47ZY7SA701","A3HXCMU4MOPSQI","3TZDZ3Y0JSSRVQSC3SM97PDQ3Z7196","","null","<img src=""img/food1.png"" style=""width:200px; border:14px solid green;"">","null","","","","","",""
"","image-keyboard-response","186","106029","0.0-186.0","324G5B4FB4UPW2HVJEPR47ZY7SA701","A3HXCMU4MOPSQI","3TZDZ3Y0JSSRVQSC3SM97PDQ3Z7196","","403.79999999701977","img/food5.png","76","404.40000000596046","2","0","1","0.2,0.8,0.2,0.8,0.2,0.8,0.8,0.2",""
"","html-keyboard-response","187","106335","0.0-187.0","324G5B4FB4UPW2HVJEPR47ZY7SA701","A3HXCMU4MOPSQI","3TZDZ3Y0JSSRVQSC3SM97PDQ3Z7196","","null","<img src=""img/food5.png"" style=""width:200px;border:14px solid red;"">","null","","","","","",""
"","image-keyboard-response","188","106802","0.0-188.0","324G5B4FB4UPW2HVJEPR47ZY7SA701","A3HXCMU4MOPSQI","3TZDZ3Y0JSSRVQSC3SM97PDQ3Z7196","","465.5","img/food1.png","76","466","2","1","2","0.2,0.8,0.2,0.8,0.2,0.8,0.8,0.2",""
"","html-keyboard-response","189","107102","0.0-189.0","324G5B4FB4UPW2HVJEPR47ZY7SA701","A3HXCMU4MOPSQI","3TZDZ3Y0JSSRVQSC3SM97PDQ3Z7196","","null","<img src=""img/food1.png"" style=""width:200px; border:14px solid green;"">","null","","","","","",""
"","image-keyboard-response","190","107618","0.0-190.0","324G5B4FB4UPW2HVJEPR47ZY7SA701","A3HXCMU4MOPSQI","3TZDZ3Y0JSSRVQSC3SM97PDQ3Z7196","","514.5","img/food3.png","75","515","1","1","4","0.2,0.8,0.2,0.8,0.2,0.8,0.8,0.2",""
"","html-keyboard-response","191","107918","0.0-191.0","324G5B4FB4UPW2HVJEPR47ZY7SA701","A3HXCMU4MOPSQI","3TZDZ3Y0JSSRVQSC3SM97PDQ3Z7196","","null","<img src=""img/food3.png"" style=""width:200px; border:14px solid green;"">","null","","","","","",""
"","image-keyboard-response","192","108390","0.0-192.0","324G5B4FB4UPW2HVJEPR47ZY7SA701","A3HXCMU4MOPSQI","3TZDZ3Y0JSSRVQSC3SM97PDQ3Z7196","","470.79999999701977","img/food1.png","76","471.40000000596046","2","1","2","0.2,0.8,0.2,0.8,0.2,0.8,0.8,0.2",""
"","html-keyboard-response","193","108692","0.0-193.0","324G5B4FB4UPW2HVJEPR47ZY7SA701","A3HXCMU4MOPSQI","3TZDZ3Y0JSSRVQSC3SM97PDQ3Z7196","","null","<img src=""img/food1.png"" style=""width:200px; border:14px solid green;"">","null","","","","","",""
"","image-keyboard-response","194","109140","0.0-194.0","324G5B4FB4UPW2HVJEPR47ZY7SA701","A3HXCMU4MOPSQI","3TZDZ3Y0JSSRVQSC3SM97PDQ3Z7196","","446.8999999910593","img/food5.png","76","447.29999999701977","2","0","1","0.2,0.8,0.2,0.8,0.2,0.8,0.8,0.2",""
"","html-keyboard-response","195","109441","0.0-195.0","324G5B4FB4UPW2HVJEPR47ZY7SA701","A3HXCMU4MOPSQI","3TZDZ3Y0JSSRVQSC3SM97PDQ3Z7196","","null","<img src=""img/food5.png"" style=""width:200px;border:14px solid red;"">","null","","","","","",""
"","image-keyboard-response","196","110094","0.0-196.0","324G5B4FB4UPW2HVJEPR47ZY7SA701","A3HXCMU4MOPSQI","3TZDZ3Y0JSSRVQSC3SM97PDQ3Z7196","","652.6000000089407","img/food5.png","75","653.0999999940395","1","0","1","0.2,0.8,0.2,0.8,0.2,0.8,0.8,0.2",""
"","html-keyboard-response","197","110395","0.0-197.0","324G5B4FB4UPW2HVJEPR47ZY7SA701","A3HXCMU4MOPSQI","3TZDZ3Y0JSSRVQSC3SM97PDQ3Z7196","","null","<img src=""img/food5.png"" style=""width:200px;border:14px solid red;"">","null","","","","","",""
"","image-keyboard-response","198","110692","0.0-198.0","324G5B4FB4UPW2HVJEPR47ZY7SA701","A3HXCMU4MOPSQI","3TZDZ3Y0JSSRVQSC3SM97PDQ3Z7196","","296.09999999403954","img/food5.png","76","296.70000000298023","2","0","1","0.2,0.8,0.2,0.8,0.2,0.8,0.8,0.2",""
"","html-keyboard-response","199","110993","0.0-199.0","324G5B4FB4UPW2HVJEPR47ZY7SA701","A3HXCMU4MOPSQI","3TZDZ3Y0JSSRVQSC3SM97PDQ3Z7196","","null","<img src=""img/food5.png"" style=""width:200px;border:14px solid red;"">","null","","","","","",""
"","image-keyboard-response","200","111472","0.0-200.0","324G5B4FB4UPW2HVJEPR47ZY7SA701","A3HXCMU4MOPSQI","3TZDZ3Y0JSSRVQSC3SM97PDQ3Z7196","","478.29999999701977","img/food5.png","76","478.90000000596046","2","1","1","0.2,0.8,0.2,0.8,0.2,0.8,0.8,0.2",""
"","html-keyboard-response","201","111774","0.0-201.0","324G5B4FB4UPW2HVJEPR47ZY7SA701","A3HXCMU4MOPSQI","3TZDZ3Y0JSSRVQSC3SM97PDQ3Z7196","","null","<img src=""img/food5.png"" style=""width:200px; border:14px solid green;"">","null","","","","","",""
"","image-keyboard-response","202","112174","0.0-202.0","324G5B4FB4UPW2HVJEPR47ZY7SA701","A3HXCMU4MOPSQI","3TZDZ3Y0JSSRVQSC3SM97PDQ3Z7196","","399.19999998807907","img/food5.png","76","399.79999999701977","2","1","1","0.2,0.8,0.2,0.8,0.2,0.8,0.8,0.2",""
"","html-keyboard-response","203","112475","0.0-203.0","324G5B4FB4UPW2HVJEPR47ZY7SA701","A3HXCMU4MOPSQI","3TZDZ3Y0JSSRVQSC3SM97PDQ3Z7196","","null","<img src=""img/food5.png"" style=""width:200px; border:14px solid green;"">","null","","","","","",""
"","image-keyboard-response","204","113184","0.0-204.0","324G5B4FB4UPW2HVJEPR47ZY7SA701","A3HXCMU4MOPSQI","3TZDZ3Y0JSSRVQSC3SM97PDQ3Z7196","","708.0999999940395","img/food3.png","75","708.7000000029802","1","1","4","0.2,0.8,0.2,0.8,0.2,0.8,0.8,0.2",""
"","html-keyboard-response","205","113485","0.0-205.0","324G5B4FB4UPW2HVJEPR47ZY7SA701","A3HXCMU4MOPSQI","3TZDZ3Y0JSSRVQSC3SM97PDQ3Z7196","","null","<img src=""img/food3.png"" style=""width:200px; border:14px solid green;"">","null","","","","","",""
"","image-keyboard-response","206","114090","0.0-206.0","324G5B4FB4UPW2HVJEPR47ZY7SA701","A3HXCMU4MOPSQI","3TZDZ3Y0JSSRVQSC3SM97PDQ3Z7196","","604.5","img/food5.png","76","605.1000000089407","2","1","1","0.2,0.8,0.2,0.8,0.2,0.8,0.8,0.2",""
"","html-keyboard-response","207","114392","0.0-207.0","324G5B4FB4UPW2HVJEPR47ZY7SA701","A3HXCMU4MOPSQI","3TZDZ3Y0JSSRVQSC3SM97PDQ3Z7196","","null","<img src=""img/food5.png"" style=""width:200px; border:14px solid green;"">","null","","","","","",""
"","image-keyboard-response","208","114766","0.0-208.0","324G5B4FB4UPW2HVJEPR47ZY7SA701","A3HXCMU4MOPSQI","3TZDZ3Y0JSSRVQSC3SM97PDQ3Z7196","","373.59999999403954","img/food1.png","76","374.09999999403954","2","1","2","0.2,0.8,0.2,0.8,0.2,0.8,0.8,0.2",""
"","html-keyboard-response","209","115068","0.0-209.0","324G5B4FB4UPW2HVJEPR47ZY7SA701","A3HXCMU4MOPSQI","3TZDZ3Y0JSSRVQSC3SM97PDQ3Z7196","","null","<img src=""img/food1.png"" style=""width:200px; border:14px solid green;"">","null","","","","","",""
"","image-keyboard-response","210","115422","0.0-210.0","324G5B4FB4UPW2HVJEPR47ZY7SA701","A3HXCMU4MOPSQI","3TZDZ3Y0JSSRVQSC3SM97PDQ3Z7196","","354.1000000089407","img/food3.png","76","354.5","2","0","4","0.2,0.8,0.2,0.8,0.2,0.8,0.8,0.2",""
"","html-keyboard-response","211","115723","0.0-211.0","324G5B4FB4UPW2HVJEPR47ZY7SA701","A3HXCMU4MOPSQI","3TZDZ3Y0JSSRVQSC3SM97PDQ3Z7196","","null","<img src=""img/food3.png"" style=""width:200px;border:14px solid red;"">","null","","","","","",""
"","image-keyboard-response","212","116006","0.0-212.0","324G5B4FB4UPW2HVJEPR47ZY7SA701","A3HXCMU4MOPSQI","3TZDZ3Y0JSSRVQSC3SM97PDQ3Z7196","","282.40000000596046","img/food4.png","75","283","1","0","3","0.2,0.8,0.2,0.8,0.2,0.8,0.8,0.2",""
"","html-keyboard-response","213","116311","0.0-213.0","324G5B4FB4UPW2HVJEPR47ZY7SA701","A3HXCMU4MOPSQI","3TZDZ3Y0JSSRVQSC3SM97PDQ3Z7196","","null","<img src=""img/food4.png"" style=""width:200px;border:14px solid red;"">","null","","","","","",""
"","image-keyboard-response","214","116500","0.0-214.0","324G5B4FB4UPW2HVJEPR47ZY7SA701","A3HXCMU4MOPSQI","3TZDZ3Y0JSSRVQSC3SM97PDQ3Z7196","","189","img/food4.png","76","189.5","2","1","3","0.2,0.8,0.2,0.8,0.2,0.8,0.8,0.2",""
"","html-keyboard-response","215","116809","0.0-215.0","324G5B4FB4UPW2HVJEPR47ZY7SA701","A3HXCMU4MOPSQI","3TZDZ3Y0JSSRVQSC3SM97PDQ3Z7196","","null","<img src=""img/food4.png"" style=""width:200px; border:14px solid green;"">","null","","","","","",""
"","image-keyboard-response","216","117233","0.0-216.0","324G5B4FB4UPW2HVJEPR47ZY7SA701","A3HXCMU4MOPSQI","3TZDZ3Y0JSSRVQSC3SM97PDQ3Z7196","","423.40000000596046","img/food1.png","76","423.90000000596046","2","1","2","0.2,0.8,0.2,0.8,0.2,0.8,0.8,0.2",""
"","html-keyboard-response","217","117534","0.0-217.0","324G5B4FB4UPW2HVJEPR47ZY7SA701","A3HXCMU4MOPSQI","3TZDZ3Y0JSSRVQSC3SM97PDQ3Z7196","","null","<img src=""img/food1.png"" style=""width:200px; border:14px solid green;"">","null","","","","","",""
"","image-keyboard-response","218","117948","0.0-218.0","324G5B4FB4UPW2HVJEPR47ZY7SA701","A3HXCMU4MOPSQI","3TZDZ3Y0JSSRVQSC3SM97PDQ3Z7196","","412.70000000298023","img/food4.png","76","413.20000000298023","2","1","3","0.2,0.8,0.2,0.8,0.2,0.8,0.8,0.2",""
"","html-keyboard-response","219","118249","0.0-219.0","324G5B4FB4UPW2HVJEPR47ZY7SA701","A3HXCMU4MOPSQI","3TZDZ3Y0JSSRVQSC3SM97PDQ3Z7196","","null","<img src=""img/food4.png"" style=""width:200px; border:14px solid green;"">","null","","","","","",""
"","image-keyboard-response","220","118552","0.0-220.0","324G5B4FB4UPW2HVJEPR47ZY7SA701","A3HXCMU4MOPSQI","3TZDZ3Y0JSSRVQSC3SM97PDQ3Z7196","","302.20000000298023","img/food4.png","76","302.70000000298023","2","1","3","0.2,0.8,0.2,0.8,0.2,0.8,0.8,0.2",""
"","html-keyboard-response","221","118853","0.0-221.0","324G5B4FB4UPW2HVJEPR47ZY7SA701","A3HXCMU4MOPSQI","3TZDZ3Y0JSSRVQSC3SM97PDQ3Z7196","","null","<img src=""img/food4.png"" style=""width:200px; border:14px solid green;"">","null","","","","","",""
"","image-keyboard-response","222","119302","0.0-222.0","324G5B4FB4UPW2HVJEPR47ZY7SA701","A3HXCMU4MOPSQI","3TZDZ3Y0JSSRVQSC3SM97PDQ3Z7196","","448","img/food3.png","75","448.5","1","1","4","0.2,0.8,0.2,0.8,0.2,0.8,0.8,0.2",""
"","html-keyboard-response","223","119603","0.0-223.0","324G5B4FB4UPW2HVJEPR47ZY7SA701","A3HXCMU4MOPSQI","3TZDZ3Y0JSSRVQSC3SM97PDQ3Z7196","","null","<img src=""img/food3.png"" style=""width:200px; border:14px solid green;"">","null","","","","","",""
"","image-keyboard-response","224","119954","0.0-224.0","324G5B4FB4UPW2HVJEPR47ZY7SA701","A3HXCMU4MOPSQI","3TZDZ3Y0JSSRVQSC3SM97PDQ3Z7196","","349.79999999701977","img/food3.png","75","350.40000000596046","1","1","4","0.2,0.8,0.2,0.8,0.2,0.8,0.8,0.2",""
"","html-keyboard-response","225","120255","0.0-225.0","324G5B4FB4UPW2HVJEPR47ZY7SA701","A3HXCMU4MOPSQI","3TZDZ3Y0JSSRVQSC3SM97PDQ3Z7196","","null","<img src=""img/food3.png"" style=""width:200px; border:14px solid green;"">","null","","","","","",""
"","image-keyboard-response","226","120800","0.0-226.0","324G5B4FB4UPW2HVJEPR47ZY7SA701","A3HXCMU4MOPSQI","3TZDZ3Y0JSSRVQSC3SM97PDQ3Z7196","","544.2999999970198","img/food4.png","76","544.7999999970198","2","1","3","0.2,0.8,0.2,0.8,0.2,0.8,0.8,0.2",""
"","html-keyboard-response","227","121102","0.0-227.0","324G5B4FB4UPW2HVJEPR47ZY7SA701","A3HXCMU4MOPSQI","3TZDZ3Y0JSSRVQSC3SM97PDQ3Z7196","","null","<img src=""img/food4.png"" style=""width:200px; border:14px solid green;"">","null","","","","","",""
"","image-keyboard-response","228","121416","0.0-228.0","324G5B4FB4UPW2HVJEPR47ZY7SA701","A3HXCMU4MOPSQI","3TZDZ3Y0JSSRVQSC3SM97PDQ3Z7196","","313.1000000089407","img/food3.png","76","313.69999998807907","2","0","4","0.2,0.8,0.2,0.8,0.2,0.8,0.8,0.2",""
"","html-keyboard-response","229","121717","0.0-229.0","324G5B4FB4UPW2HVJEPR47ZY7SA701","A3HXCMU4MOPSQI","3TZDZ3Y0JSSRVQSC3SM97PDQ3Z7196","","null","<img src=""img/food3.png"" style=""width:200px;border:14px solid red;"">","null","","","","","",""
"","image-keyboard-response","230","122222","0.0-230.0","324G5B4FB4UPW2HVJEPR47ZY7SA701","A3HXCMU4MOPSQI","3TZDZ3Y0JSSRVQSC3SM97PDQ3Z7196","","504.40000000596046","img/food4.png","76","505","2","0","3","0.2,0.8,0.2,0.8,0.2,0.8,0.8,0.2",""
"","html-keyboard-response","231","122523","0.0-231.0","324G5B4FB4UPW2HVJEPR47ZY7SA701","A3HXCMU4MOPSQI","3TZDZ3Y0JSSRVQSC3SM97PDQ3Z7196","","null","<img src=""img/food4.png"" style=""width:200px;border:14px solid red;"">","null","","","","","",""
"","image-keyboard-response","232","122976","0.0-232.0","324G5B4FB4UPW2HVJEPR47ZY7SA701","A3HXCMU4MOPSQI","3TZDZ3Y0JSSRVQSC3SM97PDQ3Z7196","","452.20000000298023","img/food4.png","76","452.70000000298023","2","1","3","0.2,0.8,0.2,0.8,0.2,0.8,0.8,0.2",""
"","html-keyboard-response","233","123277","0.0-233.0","324G5B4FB4UPW2HVJEPR47ZY7SA701","A3HXCMU4MOPSQI","3TZDZ3Y0JSSRVQSC3SM97PDQ3Z7196","","null","<img src=""img/food4.png"" style=""width:200px; border:14px solid green;"">","null","","","","","",""
"","image-keyboard-response","234","123670","0.0-234.0","324G5B4FB4UPW2HVJEPR47ZY7SA701","A3HXCMU4MOPSQI","3TZDZ3Y0JSSRVQSC3SM97PDQ3Z7196","","392.09999999403954","img/food5.png","76","392.70000000298023","2","1","1","0.2,0.8,0.2,0.8,0.2,0.8,0.8,0.2",""
"","html-keyboard-response","235","123972","0.0-235.0","324G5B4FB4UPW2HVJEPR47ZY7SA701","A3HXCMU4MOPSQI","3TZDZ3Y0JSSRVQSC3SM97PDQ3Z7196","","null","<img src=""img/food5.png"" style=""width:200px; border:14px solid green;"">","null","","","","","",""
"","image-keyboard-response","236","124338","0.0-236.0","324G5B4FB4UPW2HVJEPR47ZY7SA701","A3HXCMU4MOPSQI","3TZDZ3Y0JSSRVQSC3SM97PDQ3Z7196","","365.59999999403954","img/food1.png","76","366.1000000089407","2","1","2","0.2,0.8,0.2,0.8,0.2,0.8,0.8,0.2",""
"","html-keyboard-response","237","124639","0.0-237.0","324G5B4FB4UPW2HVJEPR47ZY7SA701","A3HXCMU4MOPSQI","3TZDZ3Y0JSSRVQSC3SM97PDQ3Z7196","","null","<img src=""img/food1.png"" style=""width:200px; border:14px solid green;"">","null","","","","","",""
"","image-keyboard-response","238","125152","0.0-238.0","324G5B4FB4UPW2HVJEPR47ZY7SA701","A3HXCMU4MOPSQI","3TZDZ3Y0JSSRVQSC3SM97PDQ3Z7196","","512.5","img/food3.png","75","513.0999999940395","1","1","4","0.2,0.8,0.2,0.8,0.2,0.8,0.8,0.2",""
"","html-keyboard-response","239","125453","0.0-239.0","324G5B4FB4UPW2HVJEPR47ZY7SA701","A3HXCMU4MOPSQI","3TZDZ3Y0JSSRVQSC3SM97PDQ3Z7196","","null","<img src=""img/food3.png"" style=""width:200px; border:14px solid green;"">","null","","","","","",""
"","image-keyboard-response","240","125940","0.0-240.0","324G5B4FB4UPW2HVJEPR47ZY7SA701","A3HXCMU4MOPSQI","3TZDZ3Y0JSSRVQSC3SM97PDQ3Z7196","","486.59999999403954","img/food1.png","76","487","2","1","2","0.2,0.8,0.2,0.8,0.2,0.8,0.8,0.2",""
"","html-keyboard-response","241","126242","0.0-241.0","324G5B4FB4UPW2HVJEPR47ZY7SA701","A3HXCMU4MOPSQI","3TZDZ3Y0JSSRVQSC3SM97PDQ3Z7196","","null","<img src=""img/food1.png"" style=""width:200px; border:14px solid green;"">","null","","","","","",""
"","html-keyboard-response","242","129387","0.0-242.0","324G5B4FB4UPW2HVJEPR47ZY7SA701","A3HXCMU4MOPSQI","3TZDZ3Y0JSSRVQSC3SM97PDQ3Z7196","","","","","","","","","",""
"","image-keyboard-response","243","130582","0.0-243.0","324G5B4FB4UPW2HVJEPR47ZY7SA701","A3HXCMU4MOPSQI","3TZDZ3Y0JSSRVQSC3SM97PDQ3Z7196","","1194","img/food6.png","75","1194.8999999910593","1","0","3","0.8,0.2,0.8,0.2,0.2,0.8,0.2,0.8",""
"","html-keyboard-response","244","130884","0.0-244.0","324G5B4FB4UPW2HVJEPR47ZY7SA701","A3HXCMU4MOPSQI","3TZDZ3Y0JSSRVQSC3SM97PDQ3Z7196","","null","<img src=""img/food6.png"" style=""width:200px;border:14px solid red;"">","null","","","","","",""
"","image-keyboard-response","245","131168","0.0-245.0","324G5B4FB4UPW2HVJEPR47ZY7SA701","A3HXCMU4MOPSQI","3TZDZ3Y0JSSRVQSC3SM97PDQ3Z7196","","283.80000001192093","img/food6.png","76","284.5","2","1","3","0.8,0.2,0.8,0.2,0.2,0.8,0.2,0.8",""
"","html-keyboard-response","246","131469","0.0-246.0","324G5B4FB4UPW2HVJEPR47ZY7SA701","A3HXCMU4MOPSQI","3TZDZ3Y0JSSRVQSC3SM97PDQ3Z7196","","null","<img src=""img/food6.png"" style=""width:200px; border:14px solid green;"">","null","","","","","",""
"","image-keyboard-response","247","131774","0.0-247.0","324G5B4FB4UPW2HVJEPR47ZY7SA701","A3HXCMU4MOPSQI","3TZDZ3Y0JSSRVQSC3SM97PDQ3Z7196","","304.59999999403954","img/food6.png","76","305.40000000596046","2","1","3","0.8,0.2,0.8,0.2,0.2,0.8,0.2,0.8",""
"","html-keyboard-response","248","132075","0.0-248.0","324G5B4FB4UPW2HVJEPR47ZY7SA701","A3HXCMU4MOPSQI","3TZDZ3Y0JSSRVQSC3SM97PDQ3Z7196","","null","<img src=""img/food6.png"" style=""width:200px; border:14px solid green;"">","null","","","","","",""
"","image-keyboard-response","249","132360","0.0-249.0","324G5B4FB4UPW2HVJEPR47ZY7SA701","A3HXCMU4MOPSQI","3TZDZ3Y0JSSRVQSC3SM97PDQ3Z7196","","284.5","img/food6.png","76","285.1000000089407","2","0","3","0.8,0.2,0.8,0.2,0.2,0.8,0.2,0.8",""
"","html-keyboard-response","250","132661","0.0-250.0","324G5B4FB4UPW2HVJEPR47ZY7SA701","A3HXCMU4MOPSQI","3TZDZ3Y0JSSRVQSC3SM97PDQ3Z7196","","null","<img src=""img/food6.png"" style=""width:200px;border:14px solid red;"">","null","","","","","",""
"","image-keyboard-response","251","133014","0.0-251.0","324G5B4FB4UPW2HVJEPR47ZY7SA701","A3HXCMU4MOPSQI","3TZDZ3Y0JSSRVQSC3SM97PDQ3Z7196","","352.5","img/food6.png","76","353","2","0","3","0.8,0.2,0.8,0.2,0.2,0.8,0.2,0.8",""
"","html-keyboard-response","252","133315","0.0-252.0","324G5B4FB4UPW2HVJEPR47ZY7SA701","A3HXCMU4MOPSQI","3TZDZ3Y0JSSRVQSC3SM97PDQ3Z7196","","null","<img src=""img/food6.png"" style=""width:200px;border:14px solid red;"">","null","","","","","",""
"","image-keyboard-response","253","133722","0.0-253.0","324G5B4FB4UPW2HVJEPR47ZY7SA701","A3HXCMU4MOPSQI","3TZDZ3Y0JSSRVQSC3SM97PDQ3Z7196","","406.29999999701977","img/food7.png","76","406.80000001192093","2","0","2","0.8,0.2,0.8,0.2,0.2,0.8,0.2,0.8",""
"","html-keyboard-response","254","134023","0.0-254.0","324G5B4FB4UPW2HVJEPR47ZY7SA701","A3HXCMU4MOPSQI","3TZDZ3Y0JSSRVQSC3SM97PDQ3Z7196","","null","<img src=""img/food7.png"" style=""width:200px;border:14px solid red;"">","null","","","","","",""
"","image-keyboard-response","255","134289","0.0-255.0","324G5B4FB4UPW2HVJEPR47ZY7SA701","A3HXCMU4MOPSQI","3TZDZ3Y0JSSRVQSC3SM97PDQ3Z7196","","264.69999998807907","img/food8.png","75","265.20000000298023","1","1","1","0.8,0.2,0.8,0.2,0.2,0.8,0.2,0.8",""
"","html-keyboard-response","256","134590","0.0-256.0","324G5B4FB4UPW2HVJEPR47ZY7SA701","A3HXCMU4MOPSQI","3TZDZ3Y0JSSRVQSC3SM97PDQ3Z7196","","null","<img src=""img/food8.png"" style=""width:200px; border:14px solid green;"">","null","","","","","",""
"","image-keyboard-response","257","134949","0.0-257.0","324G5B4FB4UPW2HVJEPR47ZY7SA701","A3HXCMU4MOPSQI","3TZDZ3Y0JSSRVQSC3SM97PDQ3Z7196","","357.70000000298023","img/food8.png","76","358.29999999701977","2","1","1","0.8,0.2,0.8,0.2,0.2,0.8,0.2,0.8",""
"","html-keyboard-response","258","135249","0.0-258.0","324G5B4FB4UPW2HVJEPR47ZY7SA701","A3HXCMU4MOPSQI","3TZDZ3Y0JSSRVQSC3SM97PDQ3Z7196","","null","<img src=""img/food8.png"" style=""width:200px; border:14px solid green;"">","null","","","","","",""
"","image-keyboard-response","259","135795","0.0-259.0","324G5B4FB4UPW2HVJEPR47ZY7SA701","A3HXCMU4MOPSQI","3TZDZ3Y0JSSRVQSC3SM97PDQ3Z7196","","544.6999999880791","img/food8.png","76","545.2000000029802","2","0","1","0.8,0.2,0.8,0.2,0.2,0.8,0.2,0.8",""
"","html-keyboard-response","260","136106","0.0-260.0","324G5B4FB4UPW2HVJEPR47ZY7SA701","A3HXCMU4MOPSQI","3TZDZ3Y0JSSRVQSC3SM97PDQ3Z7196","","null","<img src=""img/food8.png"" style=""width:200px;border:14px solid red;"">","null","","","","","",""
"","image-keyboard-response","261","136727","0.0-261.0","324G5B4FB4UPW2HVJEPR47ZY7SA701","A3HXCMU4MOPSQI","3TZDZ3Y0JSSRVQSC3SM97PDQ3Z7196","","620.3999999910593","img/food2.png","75","621","1","0","4","0.8,0.2,0.8,0.2,0.2,0.8,0.2,0.8",""
"","html-keyboard-response","262","137028","0.0-262.0","324G5B4FB4UPW2HVJEPR47ZY7SA701","A3HXCMU4MOPSQI","3TZDZ3Y0JSSRVQSC3SM97PDQ3Z7196","","null","<img src=""img/food2.png"" style=""width:200px;border:14px solid red;"">","null","","","","","",""
"","image-keyboard-response","263","137404","0.0-263.0","324G5B4FB4UPW2HVJEPR47ZY7SA701","A3HXCMU4MOPSQI","3TZDZ3Y0JSSRVQSC3SM97PDQ3Z7196","","375.29999999701977","img/food7.png","75","376","1","1","2","0.8,0.2,0.8,0.2,0.2,0.8,0.2,0.8",""
"","html-keyboard-response","264","137705","0.0-264.0","324G5B4FB4UPW2HVJEPR47ZY7SA701","A3HXCMU4MOPSQI","3TZDZ3Y0JSSRVQSC3SM97PDQ3Z7196","","null","<img src=""img/food7.png"" style=""width:200px; border:14px solid green;"">","null","","","","","",""
"","image-keyboard-response","265","138076","0.0-265.0","324G5B4FB4UPW2HVJEPR47ZY7SA701","A3HXCMU4MOPSQI","3TZDZ3Y0JSSRVQSC3SM97PDQ3Z7196","","370.3999999910593","img/food8.png","75","370.90000000596046","1","1","1","0.8,0.2,0.8,0.2,0.2,0.8,0.2,0.8",""
"","html-keyboard-response","266","138384","0.0-266.0","324G5B4FB4UPW2HVJEPR47ZY7SA701","A3HXCMU4MOPSQI","3TZDZ3Y0JSSRVQSC3SM97PDQ3Z7196","","null","<img src=""img/food8.png"" style=""width:200px; border:14px solid green;"">","null","","","","","",""
"","image-keyboard-response","267","138748","0.0-267.0","324G5B4FB4UPW2HVJEPR47ZY7SA701","A3HXCMU4MOPSQI","3TZDZ3Y0JSSRVQSC3SM97PDQ3Z7196","","363.09999999403954","img/food2.png","75","363.70000000298023","1","0","4","0.8,0.2,0.8,0.2,0.2,0.8,0.2,0.8",""
"","html-keyboard-response","268","139050","0.0-268.0","324G5B4FB4UPW2HVJEPR47ZY7SA701","A3HXCMU4MOPSQI","3TZDZ3Y0JSSRVQSC3SM97PDQ3Z7196","","null","<img src=""img/food2.png"" style=""width:200px;border:14px solid red;"">","null","","","","","",""
"","image-keyboard-response","269","139349","0.0-269.0","324G5B4FB4UPW2HVJEPR47ZY7SA701","A3HXCMU4MOPSQI","3TZDZ3Y0JSSRVQSC3SM97PDQ3Z7196","","299.8999999910593","img/food6.png","76","300.29999999701977","2","1","3","0.8,0.2,0.8,0.2,0.2,0.8,0.2,0.8",""
"","html-keyboard-response","270","139651","0.0-270.0","324G5B4FB4UPW2HVJEPR47ZY7SA701","A3HXCMU4MOPSQI","3TZDZ3Y0JSSRVQSC3SM97PDQ3Z7196","","null","<img src=""img/food6.png"" style=""width:200px; border:14px solid green;"">","null","","","","","",""
"","image-keyboard-response","271","139999","0.0-271.0","324G5B4FB4UPW2HVJEPR47ZY7SA701","A3HXCMU4MOPSQI","3TZDZ3Y0JSSRVQSC3SM97PDQ3Z7196","","348","img/food7.png","75","348.70000000298023","1","1","2","0.8,0.2,0.8,0.2,0.2,0.8,0.2,0.8",""
"","html-keyboard-response","272","140300","0.0-272.0","324G5B4FB4UPW2HVJEPR47ZY7SA701","A3HXCMU4MOPSQI","3TZDZ3Y0JSSRVQSC3SM97PDQ3Z7196","","null","<img src=""img/food7.png"" style=""width:200px; border:14px solid green;"">","null","","","","","",""
"","image-keyboard-response","273","140803","0.0-273.0","324G5B4FB4UPW2HVJEPR47ZY7SA701","A3HXCMU4MOPSQI","3TZDZ3Y0JSSRVQSC3SM97PDQ3Z7196","","502.20000000298023","img/food6.png","75","502.59999999403954","1","0","3","0.8,0.2,0.8,0.2,0.2,0.8,0.2,0.8",""
"","html-keyboard-response","274","141105","0.0-274.0","324G5B4FB4UPW2HVJEPR47ZY7SA701","A3HXCMU4MOPSQI","3TZDZ3Y0JSSRVQSC3SM97PDQ3Z7196","","null","<img src=""img/food6.png"" style=""width:200px;border:14px solid red;"">","null","","","","","",""
"","image-keyboard-response","275","141418","0.0-275.0","324G5B4FB4UPW2HVJEPR47ZY7SA701","A3HXCMU4MOPSQI","3TZDZ3Y0JSSRVQSC3SM97PDQ3Z7196","","312.20000000298023","img/food7.png","76","312.79999999701977","2","0","2","0.8,0.2,0.8,0.2,0.2,0.8,0.2,0.8",""
"","html-keyboard-response","276","141718","0.0-276.0","324G5B4FB4UPW2HVJEPR47ZY7SA701","A3HXCMU4MOPSQI","3TZDZ3Y0JSSRVQSC3SM97PDQ3Z7196","","null","<img src=""img/food7.png"" style=""width:200px;border:14px solid red;"">","null","","","","","",""
"","image-keyboard-response","277","142208","0.0-277.0","324G5B4FB4UPW2HVJEPR47ZY7SA701","A3HXCMU4MOPSQI","3TZDZ3Y0JSSRVQSC3SM97PDQ3Z7196","","488.6000000089407","img/food6.png","75","489.09999999403954","1","0","3","0.8,0.2,0.8,0.2,0.2,0.8,0.2,0.8",""
"","html-keyboard-response","278","142509","0.0-278.0","324G5B4FB4UPW2HVJEPR47ZY7SA701","A3HXCMU4MOPSQI","3TZDZ3Y0JSSRVQSC3SM97PDQ3Z7196","","null","<img src=""img/food6.png"" style=""width:200px;border:14px solid red;"">","null","","","","","",""
"","image-keyboard-response","279","142880","0.0-279.0","324G5B4FB4UPW2HVJEPR47ZY7SA701","A3HXCMU4MOPSQI","3TZDZ3Y0JSSRVQSC3SM97PDQ3Z7196","","370.5","img/food2.png","76","370.90000000596046","2","1","4","0.8,0.2,0.8,0.2,0.2,0.8,0.2,0.8",""
"","html-keyboard-response","280","143181","0.0-280.0","324G5B4FB4UPW2HVJEPR47ZY7SA701","A3HXCMU4MOPSQI","3TZDZ3Y0JSSRVQSC3SM97PDQ3Z7196","","null","<img src=""img/food2.png"" style=""width:200px; border:14px solid green;"">","null","","","","","",""
"","image-keyboard-response","281","143550","0.0-281.0","324G5B4FB4UPW2HVJEPR47ZY7SA701","A3HXCMU4MOPSQI","3TZDZ3Y0JSSRVQSC3SM97PDQ3Z7196","","367.40000000596046","img/food8.png","76","367.90000000596046","2","0","1","0.8,0.2,0.8,0.2,0.2,0.8,0.2,0.8",""
"","html-keyboard-response","282","143852","0.0-282.0","324G5B4FB4UPW2HVJEPR47ZY7SA701","A3HXCMU4MOPSQI","3TZDZ3Y0JSSRVQSC3SM97PDQ3Z7196","","null","<img src=""img/food8.png"" style=""width:200px;border:14px solid red;"">","null","","","","","",""
"","image-keyboard-response","283","144280","0.0-283.0","324G5B4FB4UPW2HVJEPR47ZY7SA701","A3HXCMU4MOPSQI","3TZDZ3Y0JSSRVQSC3SM97PDQ3Z7196","","427.09999999403954","img/food2.png","75","427.70000000298023","1","1","4","0.8,0.2,0.8,0.2,0.2,0.8,0.2,0.8",""
"","html-keyboard-response","284","144581","0.0-284.0","324G5B4FB4UPW2HVJEPR47ZY7SA701","A3HXCMU4MOPSQI","3TZDZ3Y0JSSRVQSC3SM97PDQ3Z7196","","null","<img src=""img/food2.png"" style=""width:200px; border:14px solid green;"">","null","","","","","",""
"","image-keyboard-response","285","145062","0.0-285.0","324G5B4FB4UPW2HVJEPR47ZY7SA701","A3HXCMU4MOPSQI","3TZDZ3Y0JSSRVQSC3SM97PDQ3Z7196","","479.70000000298023","img/food7.png","75","480.19999998807907","1","0","2","0.8,0.2,0.8,0.2,0.2,0.8,0.2,0.8",""
"","html-keyboard-response","286","145363","0.0-286.0","324G5B4FB4UPW2HVJEPR47ZY7SA701","A3HXCMU4MOPSQI","3TZDZ3Y0JSSRVQSC3SM97PDQ3Z7196","","null","<img src=""img/food7.png"" style=""width:200px;border:14px solid red;"">","null","","","","","",""
"","image-keyboard-response","287","145644","0.0-287.0","324G5B4FB4UPW2HVJEPR47ZY7SA701","A3HXCMU4MOPSQI","3TZDZ3Y0JSSRVQSC3SM97PDQ3Z7196","","279.90000000596046","img/food2.png","76","280.5","2","1","4","0.8,0.2,0.8,0.2,0.2,0.8,0.2,0.8",""
"","html-keyboard-response","288","145945","0.0-288.0","324G5B4FB4UPW2HVJEPR47ZY7SA701","A3HXCMU4MOPSQI","3TZDZ3Y0JSSRVQSC3SM97PDQ3Z7196","","null","<img src=""img/food2.png"" style=""width:200px; border:14px solid green;"">","null","","","","","",""
"","image-keyboard-response","289","146412","0.0-289.0","324G5B4FB4UPW2HVJEPR47ZY7SA701","A3HXCMU4MOPSQI","3TZDZ3Y0JSSRVQSC3SM97PDQ3Z7196","","466.29999999701977","img/food2.png","75","467","1","0","4","0.8,0.2,0.8,0.2,0.2,0.8,0.2,0.8",""
"","html-keyboard-response","290","146713","0.0-290.0","324G5B4FB4UPW2HVJEPR47ZY7SA701","A3HXCMU4MOPSQI","3TZDZ3Y0JSSRVQSC3SM97PDQ3Z7196","","null","<img src=""img/food2.png"" style=""width:200px;border:14px solid red;"">","null","","","","","",""
"","image-keyboard-response","291","147142","0.0-291.0","324G5B4FB4UPW2HVJEPR47ZY7SA701","A3HXCMU4MOPSQI","3TZDZ3Y0JSSRVQSC3SM97PDQ3Z7196","","428.59999999403954","img/food8.png","76","429.20000000298023","2","1","1","0.8,0.2,0.8,0.2,0.2,0.8,0.2,0.8",""
"","html-keyboard-response","292","147443","0.0-292.0","324G5B4FB4UPW2HVJEPR47ZY7SA701","A3HXCMU4MOPSQI","3TZDZ3Y0JSSRVQSC3SM97PDQ3Z7196","","null","<img src=""img/food8.png"" style=""width:200px; border:14px solid green;"">","null","","","","","",""
"","image-keyboard-response","293","147912","0.0-293.0","324G5B4FB4UPW2HVJEPR47ZY7SA701","A3HXCMU4MOPSQI","3TZDZ3Y0JSSRVQSC3SM97PDQ3Z7196","","468.70000000298023","img/food2.png","76","469.20000000298023","2","1","4","0.8,0.2,0.8,0.2,0.2,0.8,0.2,0.8",""
"","html-keyboard-response","294","148213","0.0-294.0","324G5B4FB4UPW2HVJEPR47ZY7SA701","A3HXCMU4MOPSQI","3TZDZ3Y0JSSRVQSC3SM97PDQ3Z7196","","null","<img src=""img/food2.png"" style=""width:200px; border:14px solid green;"">","null","","","","","",""
"","image-keyboard-response","295","148694","0.0-295.0","324G5B4FB4UPW2HVJEPR47ZY7SA701","A3HXCMU4MOPSQI","3TZDZ3Y0JSSRVQSC3SM97PDQ3Z7196","","480.79999999701977","img/food6.png","76","481.29999999701977","2","1","3","0.8,0.2,0.8,0.2,0.2,0.8,0.2,0.8",""
"","html-keyboard-response","296","148996","0.0-296.0","324G5B4FB4UPW2HVJEPR47ZY7SA701","A3HXCMU4MOPSQI","3TZDZ3Y0JSSRVQSC3SM97PDQ3Z7196","","null","<img src=""img/food6.png"" style=""width:200px; border:14px solid green;"">","null","","","","","",""
"","image-keyboard-response","297","149380","0.0-297.0","324G5B4FB4UPW2HVJEPR47ZY7SA701","A3HXCMU4MOPSQI","3TZDZ3Y0JSSRVQSC3SM97PDQ3Z7196","","384.09999999403954","img/food7.png","76","384.70000000298023","2","0","2","0.8,0.2,0.8,0.2,0.2,0.8,0.2,0.8",""
"","html-keyboard-response","298","149689","0.0-298.0","324G5B4FB4UPW2HVJEPR47ZY7SA701","A3HXCMU4MOPSQI","3TZDZ3Y0JSSRVQSC3SM97PDQ3Z7196","","null","<img src=""img/food7.png"" style=""width:200px;border:14px solid red;"">","null","","","","","",""
"","image-keyboard-response","299","150126","0.0-299.0","324G5B4FB4UPW2HVJEPR47ZY7SA701","A3HXCMU4MOPSQI","3TZDZ3Y0JSSRVQSC3SM97PDQ3Z7196","","436.19999998807907","img/food7.png","76","436.8999999910593","2","1","2","0.8,0.2,0.8,0.2,0.2,0.8,0.2,0.8",""
"","html-keyboard-response","300","150427","0.0-300.0","324G5B4FB4UPW2HVJEPR47ZY7SA701","A3HXCMU4MOPSQI","3TZDZ3Y0JSSRVQSC3SM97PDQ3Z7196","","null","<img src=""img/food7.png"" style=""width:200px; border:14px solid green;"">","null","","","","","",""
"","image-keyboard-response","301","150646","0.0-301.0","324G5B4FB4UPW2HVJEPR47ZY7SA701","A3HXCMU4MOPSQI","3TZDZ3Y0JSSRVQSC3SM97PDQ3Z7196","","218.40000000596046","img/food8.png","75","218.90000000596046","1","0","1","0.8,0.2,0.8,0.2,0.2,0.8,0.2,0.8",""
"","html-keyboard-response","302","150949","0.0-302.0","324G5B4FB4UPW2HVJEPR47ZY7SA701","A3HXCMU4MOPSQI","3TZDZ3Y0JSSRVQSC3SM97PDQ3Z7196","","null","<img src=""img/food8.png"" style=""width:200px;border:14px solid red;"">","null","","","","","",""
"","image-keyboard-response","303","151251","0.0-303.0","324G5B4FB4UPW2HVJEPR47ZY7SA701","A3HXCMU4MOPSQI","3TZDZ3Y0JSSRVQSC3SM97PDQ3Z7196","","301.5","img/food7.png","76","302","2","0","2","0.8,0.2,0.8,0.2,0.2,0.8,0.2,0.8",""
"","html-keyboard-response","304","151551","0.0-304.0","324G5B4FB4UPW2HVJEPR47ZY7SA701","A3HXCMU4MOPSQI","3TZDZ3Y0JSSRVQSC3SM97PDQ3Z7196","","null","<img src=""img/food7.png"" style=""width:200px;border:14px solid red;"">","null","","","","","",""
"","image-keyboard-response","305","151834","0.0-305.0","324G5B4FB4UPW2HVJEPR47ZY7SA701","A3HXCMU4MOPSQI","3TZDZ3Y0JSSRVQSC3SM97PDQ3Z7196","","282.29999999701977","img/food8.png","75","282.8999999910593","1","1","1","0.8,0.2,0.8,0.2,0.2,0.8,0.2,0.8",""
"","html-keyboard-response","306","152136","0.0-306.0","324G5B4FB4UPW2HVJEPR47ZY7SA701","A3HXCMU4MOPSQI","3TZDZ3Y0JSSRVQSC3SM97PDQ3Z7196","","null","<img src=""img/food8.png"" style=""width:200px; border:14px solid green;"">","null","","","","","",""
"","image-keyboard-response","307","152379","0.0-307.0","324G5B4FB4UPW2HVJEPR47ZY7SA701","A3HXCMU4MOPSQI","3TZDZ3Y0JSSRVQSC3SM97PDQ3Z7196","","242.20000000298023","img/food8.png","76","242.79999999701977","2","0","1","0.8,0.2,0.8,0.2,0.2,0.8,0.2,0.8",""
"","html-keyboard-response","308","152680","0.0-308.0","324G5B4FB4UPW2HVJEPR47ZY7SA701","A3HXCMU4MOPSQI","3TZDZ3Y0JSSRVQSC3SM97PDQ3Z7196","","null","<img src=""img/food8.png"" style=""width:200px;border:14px solid red;"">","null","","","","","",""
"","image-keyboard-response","309","153071","0.0-309.0","324G5B4FB4UPW2HVJEPR47ZY7SA701","A3HXCMU4MOPSQI","3TZDZ3Y0JSSRVQSC3SM97PDQ3Z7196","","390.40000000596046","img/food7.png","75","391","1","1","2","0.8,0.2,0.8,0.2,0.2,0.8,0.2,0.8",""
"","html-keyboard-response","310","153372","0.0-310.0","324G5B4FB4UPW2HVJEPR47ZY7SA701","A3HXCMU4MOPSQI","3TZDZ3Y0JSSRVQSC3SM97PDQ3Z7196","","null","<img src=""img/food7.png"" style=""width:200px; border:14px solid green;"">","null","","","","","",""
"","image-keyboard-response","311","153647","0.0-311.0","324G5B4FB4UPW2HVJEPR47ZY7SA701","A3HXCMU4MOPSQI","3TZDZ3Y0JSSRVQSC3SM97PDQ3Z7196","","273.70000000298023","img/food6.png","75","274.19999998807907","1","0","3","0.8,0.2,0.8,0.2,0.2,0.8,0.2,0.8",""
"","html-keyboard-response","312","153947","0.0-312.0","324G5B4FB4UPW2HVJEPR47ZY7SA701","A3HXCMU4MOPSQI","3TZDZ3Y0JSSRVQSC3SM97PDQ3Z7196","","null","<img src=""img/food6.png"" style=""width:200px;border:14px solid red;"">","null","","","","","",""
"","image-keyboard-response","313","154285","0.0-313.0","324G5B4FB4UPW2HVJEPR47ZY7SA701","A3HXCMU4MOPSQI","3TZDZ3Y0JSSRVQSC3SM97PDQ3Z7196","","336.79999999701977","img/food6.png","76","337.40000000596046","2","1","3","0.8,0.2,0.8,0.2,0.2,0.8,0.2,0.8",""
"","html-keyboard-response","314","154586","0.0-314.0","324G5B4FB4UPW2HVJEPR47ZY7SA701","A3HXCMU4MOPSQI","3TZDZ3Y0JSSRVQSC3SM97PDQ3Z7196","","null","<img src=""img/food6.png"" style=""width:200px; border:14px solid green;"">","null","","","","","",""
"","image-keyboard-response","315","154935","0.0-315.0","324G5B4FB4UPW2HVJEPR47ZY7SA701","A3HXCMU4MOPSQI","3TZDZ3Y0JSSRVQSC3SM97PDQ3Z7196","","348.29999999701977","img/food8.png","75","348.80000001192093","1","1","1","0.8,0.2,0.8,0.2,0.2,0.8,0.2,0.8",""
"","html-keyboard-response","316","155237","0.0-316.0","324G5B4FB4UPW2HVJEPR47ZY7SA701","A3HXCMU4MOPSQI","3TZDZ3Y0JSSRVQSC3SM97PDQ3Z7196","","null","<img src=""img/food8.png"" style=""width:200px; border:14px solid green;"">","null","","","","","",""
"","image-keyboard-response","317","155561","0.0-317.0","324G5B4FB4UPW2HVJEPR47ZY7SA701","A3HXCMU4MOPSQI","3TZDZ3Y0JSSRVQSC3SM97PDQ3Z7196","","323.5","img/food8.png","76","324.20000000298023","2","0","1","0.8,0.2,0.8,0.2,0.2,0.8,0.2,0.8",""
"","html-keyboard-response","318","155862","0.0-318.0","324G5B4FB4UPW2HVJEPR47ZY7SA701","A3HXCMU4MOPSQI","3TZDZ3Y0JSSRVQSC3SM97PDQ3Z7196","","null","<img src=""img/food8.png"" style=""width:200px;border:14px solid red;"">","null","","","","","",""
"","image-keyboard-response","319","156238","0.0-319.0","324G5B4FB4UPW2HVJEPR47ZY7SA701","A3HXCMU4MOPSQI","3TZDZ3Y0JSSRVQSC3SM97PDQ3Z7196","","375.29999999701977","img/food7.png","75","375.79999999701977","1","1","2","0.8,0.2,0.8,0.2,0.2,0.8,0.2,0.8",""
"","html-keyboard-response","320","156539","0.0-320.0","324G5B4FB4UPW2HVJEPR47ZY7SA701","A3HXCMU4MOPSQI","3TZDZ3Y0JSSRVQSC3SM97PDQ3Z7196","","null","<img src=""img/food7.png"" style=""width:200px; border:14px solid green;"">","null","","","","","",""
"","image-keyboard-response","321","156929","0.0-321.0","324G5B4FB4UPW2HVJEPR47ZY7SA701","A3HXCMU4MOPSQI","3TZDZ3Y0JSSRVQSC3SM97PDQ3Z7196","","389.6000000089407","img/food2.png","75","390.29999999701977","1","0","4","0.8,0.2,0.8,0.2,0.2,0.8,0.2,0.8",""
"","html-keyboard-response","322","157231","0.0-322.0","324G5B4FB4UPW2HVJEPR47ZY7SA701","A3HXCMU4MOPSQI","3TZDZ3Y0JSSRVQSC3SM97PDQ3Z7196","","null","<img src=""img/food2.png"" style=""width:200px;border:14px solid red;"">","null","","","","","",""
"","image-keyboard-response","323","157548","0.0-323.0","324G5B4FB4UPW2HVJEPR47ZY7SA701","A3HXCMU4MOPSQI","3TZDZ3Y0JSSRVQSC3SM97PDQ3Z7196","","316.70000000298023","img/food7.png","76","317.29999999701977","2","0","2","0.8,0.2,0.8,0.2,0.2,0.8,0.2,0.8",""
"","html-keyboard-response","324","157849","0.0-324.0","324G5B4FB4UPW2HVJEPR47ZY7SA701","A3HXCMU4MOPSQI","3TZDZ3Y0JSSRVQSC3SM97PDQ3Z7196","","null","<img src=""img/food7.png"" style=""width:200px;border:14px solid red;"">","null","","","","","",""
"","image-keyboard-response","325","158234","0.0-325.0","324G5B4FB4UPW2HVJEPR47ZY7SA701","A3HXCMU4MOPSQI","3TZDZ3Y0JSSRVQSC3SM97PDQ3Z7196","","384.29999999701977","img/food6.png","76","384.90000000596046","2","0","3","0.8,0.2,0.8,0.2,0.2,0.8,0.2,0.8",""
"","html-keyboard-response","326","158536","0.0-326.0","324G5B4FB4UPW2HVJEPR47ZY7SA701","A3HXCMU4MOPSQI","3TZDZ3Y0JSSRVQSC3SM97PDQ3Z7196","","null","<img src=""img/food6.png"" style=""width:200px;border:14px solid red;"">","null","","","","","",""
"","image-keyboard-response","327","158874","0.0-327.0","324G5B4FB4UPW2HVJEPR47ZY7SA701","A3HXCMU4MOPSQI","3TZDZ3Y0JSSRVQSC3SM97PDQ3Z7196","","337.6000000089407","img/food7.png","75","338.09999999403954","1","0","2","0.8,0.2,0.8,0.2,0.2,0.8,0.2,0.8",""
"","html-keyboard-response","328","159176","0.0-328.0","324G5B4FB4UPW2HVJEPR47ZY7SA701","A3HXCMU4MOPSQI","3TZDZ3Y0JSSRVQSC3SM97PDQ3Z7196","","null","<img src=""img/food7.png"" style=""width:200px;border:14px solid red;"">","null","","","","","",""
"","image-keyboard-response","329","159532","0.0-329.0","324G5B4FB4UPW2HVJEPR47ZY7SA701","A3HXCMU4MOPSQI","3TZDZ3Y0JSSRVQSC3SM97PDQ3Z7196","","356","img/food8.png","76","356.5","2","0","1","0.8,0.2,0.8,0.2,0.2,0.8,0.2,0.8",""
"","html-keyboard-response","330","159834","0.0-330.0","324G5B4FB4UPW2HVJEPR47ZY7SA701","A3HXCMU4MOPSQI","3TZDZ3Y0JSSRVQSC3SM97PDQ3Z7196","","null","<img src=""img/food8.png"" style=""width:200px;border:14px solid red;"">","null","","","","","",""
"","image-keyboard-response","331","160182","0.0-331.0","324G5B4FB4UPW2HVJEPR47ZY7SA701","A3HXCMU4MOPSQI","3TZDZ3Y0JSSRVQSC3SM97PDQ3Z7196","","348","img/food2.png","75","348.5","1","1","4","0.8,0.2,0.8,0.2,0.2,0.8,0.2,0.8",""
"","html-keyboard-response","332","160484","0.0-332.0","324G5B4FB4UPW2HVJEPR47ZY7SA701","A3HXCMU4MOPSQI","3TZDZ3Y0JSSRVQSC3SM97PDQ3Z7196","","null","<img src=""img/food2.png"" style=""width:200px; border:14px solid green;"">","null","","","","","",""
"","image-keyboard-response","333","160856","0.0-333.0","324G5B4FB4UPW2HVJEPR47ZY7SA701","A3HXCMU4MOPSQI","3TZDZ3Y0JSSRVQSC3SM97PDQ3Z7196","","371.79999999701977","img/food7.png","75","372.30000001192093","1","1","2","0.8,0.2,0.8,0.2,0.2,0.8,0.2,0.8",""
"","html-keyboard-response","334","161158","0.0-334.0","324G5B4FB4UPW2HVJEPR47ZY7SA701","A3HXCMU4MOPSQI","3TZDZ3Y0JSSRVQSC3SM97PDQ3Z7196","","null","<img src=""img/food7.png"" style=""width:200px; border:14px solid green;"">","null","","","","","",""
"","image-keyboard-response","335","161529","0.0-335.0","324G5B4FB4UPW2HVJEPR47ZY7SA701","A3HXCMU4MOPSQI","3TZDZ3Y0JSSRVQSC3SM97PDQ3Z7196","","370.09999999403954","img/food2.png","75","370.70000000298023","1","0","4","0.8,0.2,0.8,0.2,0.2,0.8,0.2,0.8",""
"","html-keyboard-response","336","161830","0.0-336.0","324G5B4FB4UPW2HVJEPR47ZY7SA701","A3HXCMU4MOPSQI","3TZDZ3Y0JSSRVQSC3SM97PDQ3Z7196","","null","<img src=""img/food2.png"" style=""width:200px;border:14px solid red;"">","null","","","","","",""
"","image-keyboard-response","337","162048","0.0-337.0","324G5B4FB4UPW2HVJEPR47ZY7SA701","A3HXCMU4MOPSQI","3TZDZ3Y0JSSRVQSC3SM97PDQ3Z7196","","217.3999999910593","img/food8.png","76","218","2","0","1","0.8,0.2,0.8,0.2,0.2,0.8,0.2,0.8",""
"","html-keyboard-response","338","162350","0.0-338.0","324G5B4FB4UPW2HVJEPR47ZY7SA701","A3HXCMU4MOPSQI","3TZDZ3Y0JSSRVQSC3SM97PDQ3Z7196","","null","<img src=""img/food8.png"" style=""width:200px;border:14px solid red;"">","null","","","","","",""
"","image-keyboard-response","339","162843","0.0-339.0","324G5B4FB4UPW2HVJEPR47ZY7SA701","A3HXCMU4MOPSQI","3TZDZ3Y0JSSRVQSC3SM97PDQ3Z7196","","492.1000000089407","img/food2.png","76","492.69999998807907","2","1","4","0.8,0.2,0.8,0.2,0.2,0.8,0.2,0.8",""
"","html-keyboard-response","340","163144","0.0-340.0","324G5B4FB4UPW2HVJEPR47ZY7SA701","A3HXCMU4MOPSQI","3TZDZ3Y0JSSRVQSC3SM97PDQ3Z7196","","null","<img src=""img/food2.png"" style=""width:200px; border:14px solid green;"">","null","","","","","",""
"","image-keyboard-response","341","163291","0.0-341.0","324G5B4FB4UPW2HVJEPR47ZY7SA701","A3HXCMU4MOPSQI","3TZDZ3Y0JSSRVQSC3SM97PDQ3Z7196","","146.5","img/food6.png","75","147.1000000089407","1","1","3","0.8,0.2,0.8,0.2,0.2,0.8,0.2,0.8",""
"","html-keyboard-response","342","163592","0.0-342.0","324G5B4FB4UPW2HVJEPR47ZY7SA701","A3HXCMU4MOPSQI","3TZDZ3Y0JSSRVQSC3SM97PDQ3Z7196","","null","<img src=""img/food6.png"" style=""width:200px; border:14px solid green;"">","null","","","","","",""
"","image-keyboard-response","343","163737","0.0-343.0","324G5B4FB4UPW2HVJEPR47ZY7SA701","A3HXCMU4MOPSQI","3TZDZ3Y0JSSRVQSC3SM97PDQ3Z7196","","144.29999999701977","img/food6.png","76","144.79999999701977","2","1","3","0.8,0.2,0.8,0.2,0.2,0.8,0.2,0.8",""
"","html-keyboard-response","344","164039","0.0-344.0","324G5B4FB4UPW2HVJEPR47ZY7SA701","A3HXCMU4MOPSQI","3TZDZ3Y0JSSRVQSC3SM97PDQ3Z7196","","null","<img src=""img/food6.png"" style=""width:200px; border:14px solid green;"">","null","","","","","",""
"","image-keyboard-response","345","164549","0.0-345.0","324G5B4FB4UPW2HVJEPR47ZY7SA701","A3HXCMU4MOPSQI","3TZDZ3Y0JSSRVQSC3SM97PDQ3Z7196","","509.70000000298023","img/food2.png","76","510.20000000298023","2","0","4","0.8,0.2,0.8,0.2,0.2,0.8,0.2,0.8",""
"","html-keyboard-response","346","164851","0.0-346.0","324G5B4FB4UPW2HVJEPR47ZY7SA701","A3HXCMU4MOPSQI","3TZDZ3Y0JSSRVQSC3SM97PDQ3Z7196","","null","<img src=""img/food2.png"" style=""width:200px;border:14px solid red;"">","null","","","","","",""
"","image-keyboard-response","347","164923","0.0-347.0","324G5B4FB4UPW2HVJEPR47ZY7SA701","A3HXCMU4MOPSQI","3TZDZ3Y0JSSRVQSC3SM97PDQ3Z7196","","71.79999999701977","img/food8.png","75","72.30000001192093","1","1","1","0.8,0.2,0.8,0.2,0.2,0.8,0.2,0.8",""
"","html-keyboard-response","348","165225","0.0-348.0","324G5B4FB4UPW2HVJEPR47ZY7SA701","A3HXCMU4MOPSQI","3TZDZ3Y0JSSRVQSC3SM97PDQ3Z7196","","null","<img src=""img/food8.png"" style=""width:200px; border:14px solid green;"">","null","","","","","",""
"","image-keyboard-response","349","165442","0.0-349.0","324G5B4FB4UPW2HVJEPR47ZY7SA701","A3HXCMU4MOPSQI","3TZDZ3Y0JSSRVQSC3SM97PDQ3Z7196","","216","img/food8.png","75","216.59999999403954","1","1","1","0.8,0.2,0.8,0.2,0.2,0.8,0.2,0.8",""
"","html-keyboard-response","350","165744","0.0-350.0","324G5B4FB4UPW2HVJEPR47ZY7SA701","A3HXCMU4MOPSQI","3TZDZ3Y0JSSRVQSC3SM97PDQ3Z7196","","null","<img src=""img/food8.png"" style=""width:200px; border:14px solid green;"">","null","","","","","",""
"","image-keyboard-response","351","165936","0.0-351.0","324G5B4FB4UPW2HVJEPR47ZY7SA701","A3HXCMU4MOPSQI","3TZDZ3Y0JSSRVQSC3SM97PDQ3Z7196","","191.29999999701977","img/food2.png","75","191.80000001192093","1","0","4","0.8,0.2,0.8,0.2,0.2,0.8,0.2,0.8",""
"","html-keyboard-response","352","166237","0.0-352.0","324G5B4FB4UPW2HVJEPR47ZY7SA701","A3HXCMU4MOPSQI","3TZDZ3Y0JSSRVQSC3SM97PDQ3Z7196","","null","<img src=""img/food2.png"" style=""width:200px;border:14px solid red;"">","null","","","","","",""
"","image-keyboard-response","353","166610","0.0-353.0","324G5B4FB4UPW2HVJEPR47ZY7SA701","A3HXCMU4MOPSQI","3TZDZ3Y0JSSRVQSC3SM97PDQ3Z7196","","372.29999999701977","img/food6.png","76","372.79999999701977","2","1","3","0.8,0.2,0.8,0.2,0.2,0.8,0.2,0.8",""
"","html-keyboard-response","354","166912","0.0-354.0","324G5B4FB4UPW2HVJEPR47ZY7SA701","A3HXCMU4MOPSQI","3TZDZ3Y0JSSRVQSC3SM97PDQ3Z7196","","null","<img src=""img/food6.png"" style=""width:200px; border:14px solid green;"">","null","","","","","",""
"","image-keyboard-response","355","167192","0.0-355.0","324G5B4FB4UPW2HVJEPR47ZY7SA701","A3HXCMU4MOPSQI","3TZDZ3Y0JSSRVQSC3SM97PDQ3Z7196","","279.40000000596046","img/food7.png","76","280","2","0","2","0.8,0.2,0.8,0.2,0.2,0.8,0.2,0.8",""
"","html-keyboard-response","356","167495","0.0-356.0","324G5B4FB4UPW2HVJEPR47ZY7SA701","A3HXCMU4MOPSQI","3TZDZ3Y0JSSRVQSC3SM97PDQ3Z7196","","null","<img src=""img/food7.png"" style=""width:200px;border:14px solid red;"">","null","","","","","",""
"","image-keyboard-response","357","167602","0.0-357.0","324G5B4FB4UPW2HVJEPR47ZY7SA701","A3HXCMU4MOPSQI","3TZDZ3Y0JSSRVQSC3SM97PDQ3Z7196","","106.40000000596046","img/food6.png","75","106.8999999910593","1","0","3","0.8,0.2,0.8,0.2,0.2,0.8,0.2,0.8",""
"","html-keyboard-response","358","167904","0.0-358.0","324G5B4FB4UPW2HVJEPR47ZY7SA701","A3HXCMU4MOPSQI","3TZDZ3Y0JSSRVQSC3SM97PDQ3Z7196","","null","<img src=""img/food6.png"" style=""width:200px;border:14px solid red;"">","null","","","","","",""
"","image-keyboard-response","359","168268","0.0-359.0","324G5B4FB4UPW2HVJEPR47ZY7SA701","A3HXCMU4MOPSQI","3TZDZ3Y0JSSRVQSC3SM97PDQ3Z7196","","364","img/food6.png","75","364.59999999403954","1","0","3","0.8,0.2,0.8,0.2,0.2,0.8,0.2,0.8",""
"","html-keyboard-response","360","168570","0.0-360.0","324G5B4FB4UPW2HVJEPR47ZY7SA701","A3HXCMU4MOPSQI","3TZDZ3Y0JSSRVQSC3SM97PDQ3Z7196","","null","<img src=""img/food6.png"" style=""width:200px;border:14px solid red;"">","null","","","","","",""
"","image-keyboard-response","361","168674","0.0-361.0","324G5B4FB4UPW2HVJEPR47ZY7SA701","A3HXCMU4MOPSQI","3TZDZ3Y0JSSRVQSC3SM97PDQ3Z7196","","103.90000000596046","img/food8.png","76","104.5","2","0","1","0.8,0.2,0.8,0.2,0.2,0.8,0.2,0.8",""
"","html-keyboard-response","362","168977","0.0-362.0","324G5B4FB4UPW2HVJEPR47ZY7SA701","A3HXCMU4MOPSQI","3TZDZ3Y0JSSRVQSC3SM97PDQ3Z7196","","null","<img src=""img/food8.png"" style=""width:200px;border:14px solid red;"">","null","","","","","",""
"","image-keyboard-response","363","169146","0.0-363.0","324G5B4FB4UPW2HVJEPR47ZY7SA701","A3HXCMU4MOPSQI","3TZDZ3Y0JSSRVQSC3SM97PDQ3Z7196","","169.19999998807907","img/food8.png","76","169.70000000298023","2","0","1","0.8,0.2,0.8,0.2,0.2,0.8,0.2,0.8",""
"","html-keyboard-response","364","169448","0.0-364.0","324G5B4FB4UPW2HVJEPR47ZY7SA701","A3HXCMU4MOPSQI","3TZDZ3Y0JSSRVQSC3SM97PDQ3Z7196","","null","<img src=""img/food8.png"" style=""width:200px;border:14px solid red;"">","null","","","","","",""
"","image-keyboard-response","365","169675","0.0-365.0","324G5B4FB4UPW2HVJEPR47ZY7SA701","A3HXCMU4MOPSQI","3TZDZ3Y0JSSRVQSC3SM97PDQ3Z7196","","225.40000000596046","img/food8.png","75","226","1","1","1","0.8,0.2,0.8,0.2,0.2,0.8,0.2,0.8",""
"","html-keyboard-response","366","169975","0.0-366.0","324G5B4FB4UPW2HVJEPR47ZY7SA701","A3HXCMU4MOPSQI","3TZDZ3Y0JSSRVQSC3SM97PDQ3Z7196","","null","<img src=""img/food8.png"" style=""width:200px; border:14px solid green;"">","null","","","","","",""
"","image-keyboard-response","367","170144","0.0-367.0","324G5B4FB4UPW2HVJEPR47ZY7SA701","A3HXCMU4MOPSQI","3TZDZ3Y0JSSRVQSC3SM97PDQ3Z7196","","168.40000000596046","img/food7.png","76","169","2","1","2","0.8,0.2,0.8,0.2,0.2,0.8,0.2,0.8",""
"","html-keyboard-response","368","170446","0.0-368.0","324G5B4FB4UPW2HVJEPR47ZY7SA701","A3HXCMU4MOPSQI","3TZDZ3Y0JSSRVQSC3SM97PDQ3Z7196","","null","<img src=""img/food7.png"" style=""width:200px; border:14px solid green;"">","null","","","","","",""
"","image-keyboard-response","369","170713","0.0-369.0","324G5B4FB4UPW2HVJEPR47ZY7SA701","A3HXCMU4MOPSQI","3TZDZ3Y0JSSRVQSC3SM97PDQ3Z7196","","266.29999999701977","img/food2.png","76","266.90000000596046","2","1","4","0.8,0.2,0.8,0.2,0.2,0.8,0.2,0.8",""
"","html-keyboard-response","370","171014","0.0-370.0","324G5B4FB4UPW2HVJEPR47ZY7SA701","A3HXCMU4MOPSQI","3TZDZ3Y0JSSRVQSC3SM97PDQ3Z7196","","null","<img src=""img/food2.png"" style=""width:200px; border:14px solid green;"">","null","","","","","",""
"","image-keyboard-response","371","171353","0.0-371.0","324G5B4FB4UPW2HVJEPR47ZY7SA701","A3HXCMU4MOPSQI","3TZDZ3Y0JSSRVQSC3SM97PDQ3Z7196","","337.6000000089407","img/food7.png","75","338.20000000298023","1","1","2","0.8,0.2,0.8,0.2,0.2,0.8,0.2,0.8",""
"","html-keyboard-response","372","171654","0.0-372.0","324G5B4FB4UPW2HVJEPR47ZY7SA701","A3HXCMU4MOPSQI","3TZDZ3Y0JSSRVQSC3SM97PDQ3Z7196","","null","<img src=""img/food7.png"" style=""width:200px; border:14px solid green;"">","null","","","","","",""
"","image-keyboard-response","373","171935","0.0-373.0","324G5B4FB4UPW2HVJEPR47ZY7SA701","A3HXCMU4MOPSQI","3TZDZ3Y0JSSRVQSC3SM97PDQ3Z7196","","280.1000000089407","img/food2.png","76","280.69999998807907","2","0","4","0.8,0.2,0.8,0.2,0.2,0.8,0.2,0.8",""
"","html-keyboard-response","374","172236","0.0-374.0","324G5B4FB4UPW2HVJEPR47ZY7SA701","A3HXCMU4MOPSQI","3TZDZ3Y0JSSRVQSC3SM97PDQ3Z7196","","null","<img src=""img/food2.png"" style=""width:200px;border:14px solid red;"">","null","","","","","",""
"","image-keyboard-response","375","172543","0.0-375.0","324G5B4FB4UPW2HVJEPR47ZY7SA701","A3HXCMU4MOPSQI","3TZDZ3Y0JSSRVQSC3SM97PDQ3Z7196","","305.59999999403954","img/food2.png","75","306.09999999403954","1","0","4","0.8,0.2,0.8,0.2,0.2,0.8,0.2,0.8",""
"","html-keyboard-response","376","172844","0.0-376.0","324G5B4FB4UPW2HVJEPR47ZY7SA701","A3HXCMU4MOPSQI","3TZDZ3Y0JSSRVQSC3SM97PDQ3Z7196","","null","<img src=""img/food2.png"" style=""width:200px;border:14px solid red;"">","null","","","","","",""
"","image-keyboard-response","377","173111","0.0-377.0","324G5B4FB4UPW2HVJEPR47ZY7SA701","A3HXCMU4MOPSQI","3TZDZ3Y0JSSRVQSC3SM97PDQ3Z7196","","266.09999999403954","img/food2.png","76","266.5","2","1","4","0.8,0.2,0.8,0.2,0.2,0.8,0.2,0.8",""
"","html-keyboard-response","378","173412","0.0-378.0","324G5B4FB4UPW2HVJEPR47ZY7SA701","A3HXCMU4MOPSQI","3TZDZ3Y0JSSRVQSC3SM97PDQ3Z7196","","null","<img src=""img/food2.png"" style=""width:200px; border:14px solid green;"">","null","","","","","",""
"","image-keyboard-response","379","173737","0.0-379.0","324G5B4FB4UPW2HVJEPR47ZY7SA701","A3HXCMU4MOPSQI","3TZDZ3Y0JSSRVQSC3SM97PDQ3Z7196","","324.09999999403954","img/food7.png","75","324.6000000089407","1","0","2","0.8,0.2,0.8,0.2,0.2,0.8,0.2,0.8",""
"","html-keyboard-response","380","174038","0.0-380.0","324G5B4FB4UPW2HVJEPR47ZY7SA701","A3HXCMU4MOPSQI","3TZDZ3Y0JSSRVQSC3SM97PDQ3Z7196","","null","<img src=""img/food7.png"" style=""width:200px;border:14px solid red;"">","null","","","","","",""
"","image-keyboard-response","381","174377","0.0-381.0","324G5B4FB4UPW2HVJEPR47ZY7SA701","A3HXCMU4MOPSQI","3TZDZ3Y0JSSRVQSC3SM97PDQ3Z7196","","338.1000000089407","img/food2.png","76","338.69999998807907","2","1","4","0.8,0.2,0.8,0.2,0.2,0.8,0.2,0.8",""
"","html-keyboard-response","382","174678","0.0-382.0","324G5B4FB4UPW2HVJEPR47ZY7SA701","A3HXCMU4MOPSQI","3TZDZ3Y0JSSRVQSC3SM97PDQ3Z7196","","null","<img src=""img/food2.png"" style=""width:200px; border:14px solid green;"">","null","","","","","",""
"","image-keyboard-response","383","174976","0.0-383.0","324G5B4FB4UPW2HVJEPR47ZY7SA701","A3HXCMU4MOPSQI","3TZDZ3Y0JSSRVQSC3SM97PDQ3Z7196","","297.09999999403954","img/food2.png","76","297.6000000089407","2","1","4","0.8,0.2,0.8,0.2,0.2,0.8,0.2,0.8",""
"","html-keyboard-response","384","175277","0.0-384.0","324G5B4FB4UPW2HVJEPR47ZY7SA701","A3HXCMU4MOPSQI","3TZDZ3Y0JSSRVQSC3SM97PDQ3Z7196","","null","<img src=""img/food2.png"" style=""width:200px; border:14px solid green;"">","null","","","","","",""
"","image-keyboard-response","385","175530","0.0-385.0","324G5B4FB4UPW2HVJEPR47ZY7SA701","A3HXCMU4MOPSQI","3TZDZ3Y0JSSRVQSC3SM97PDQ3Z7196","","252.59999999403954","img/food7.png","76","253","2","0","2","0.8,0.2,0.8,0.2,0.2,0.8,0.2,0.8",""
"","html-keyboard-response","386","175832","0.0-386.0","324G5B4FB4UPW2HVJEPR47ZY7SA701","A3HXCMU4MOPSQI","3TZDZ3Y0JSSRVQSC3SM97PDQ3Z7196","","null","<img src=""img/food7.png"" style=""width:200px;border:14px solid red;"">","null","","","","","",""
"","image-keyboard-response","387","176098","0.0-387.0","324G5B4FB4UPW2HVJEPR47ZY7SA701","A3HXCMU4MOPSQI","3TZDZ3Y0JSSRVQSC3SM97PDQ3Z7196","","265.40000000596046","img/food7.png","75","265.90000000596046","1","1","2","0.8,0.2,0.8,0.2,0.2,0.8,0.2,0.8",""
"","html-keyboard-response","388","176400","0.0-388.0","324G5B4FB4UPW2HVJEPR47ZY7SA701","A3HXCMU4MOPSQI","3TZDZ3Y0JSSRVQSC3SM97PDQ3Z7196","","null","<img src=""img/food7.png"" style=""width:200px; border:14px solid green;"">","null","","","","","",""
"","image-keyboard-response","389","176550","0.0-389.0","324G5B4FB4UPW2HVJEPR47ZY7SA701","A3HXCMU4MOPSQI","3TZDZ3Y0JSSRVQSC3SM97PDQ3Z7196","","149.70000000298023","img/food2.png","75","150.3999999910593","1","0","4","0.8,0.2,0.8,0.2,0.2,0.8,0.2,0.8",""
"","html-keyboard-response","390","176852","0.0-390.0","324G5B4FB4UPW2HVJEPR47ZY7SA701","A3HXCMU4MOPSQI","3TZDZ3Y0JSSRVQSC3SM97PDQ3Z7196","","null","<img src=""img/food2.png"" style=""width:200px;border:14px solid red;"">","null","","","","","",""
"","image-keyboard-response","391","177206","0.0-391.0","324G5B4FB4UPW2HVJEPR47ZY7SA701","A3HXCMU4MOPSQI","3TZDZ3Y0JSSRVQSC3SM97PDQ3Z7196","","354.09999999403954","img/food7.png","76","354.6000000089407","2","0","2","0.8,0.2,0.8,0.2,0.2,0.8,0.2,0.8",""
"","html-keyboard-response","392","177508","0.0-392.0","324G5B4FB4UPW2HVJEPR47ZY7SA701","A3HXCMU4MOPSQI","3TZDZ3Y0JSSRVQSC3SM97PDQ3Z7196","","null","<img src=""img/food7.png"" style=""width:200px;border:14px solid red;"">","null","","","","","",""
"","image-keyboard-response","393","177720","0.0-393.0","324G5B4FB4UPW2HVJEPR47ZY7SA701","A3HXCMU4MOPSQI","3TZDZ3Y0JSSRVQSC3SM97PDQ3Z7196","","212","img/food2.png","76","212.3999999910593","2","0","4","0.8,0.2,0.8,0.2,0.2,0.8,0.2,0.8",""
"","html-keyboard-response","394","178021","0.0-394.0","324G5B4FB4UPW2HVJEPR47ZY7SA701","A3HXCMU4MOPSQI","3TZDZ3Y0JSSRVQSC3SM97PDQ3Z7196","","null","<img src=""img/food2.png"" style=""width:200px;border:14px solid red;"">","null","","","","","",""
"","image-keyboard-response","395","178294","0.0-395.0","324G5B4FB4UPW2HVJEPR47ZY7SA701","A3HXCMU4MOPSQI","3TZDZ3Y0JSSRVQSC3SM97PDQ3Z7196","","272.3999999910593","img/food7.png","75","273","1","1","2","0.8,0.2,0.8,0.2,0.2,0.8,0.2,0.8",""
"","html-keyboard-response","396","178595","0.0-396.0","324G5B4FB4UPW2HVJEPR47ZY7SA701","A3HXCMU4MOPSQI","3TZDZ3Y0JSSRVQSC3SM97PDQ3Z7196","","null","<img src=""img/food7.png"" style=""width:200px; border:14px solid green;"">","null","","","","","",""
"","image-keyboard-response","397","178866","0.0-397.0","324G5B4FB4UPW2HVJEPR47ZY7SA701","A3HXCMU4MOPSQI","3TZDZ3Y0JSSRVQSC3SM97PDQ3Z7196","","270.79999999701977","img/food7.png","75","271.30000001192093","1","1","2","0.8,0.2,0.8,0.2,0.2,0.8,0.2,0.8",""
"","html-keyboard-response","398","179168","0.0-398.0","324G5B4FB4UPW2HVJEPR47ZY7SA701","A3HXCMU4MOPSQI","3TZDZ3Y0JSSRVQSC3SM97PDQ3Z7196","","null","<img src=""img/food7.png"" style=""width:200px; border:14px solid green;"">","null","","","","","",""
"","image-keyboard-response","399","179528","0.0-399.0","324G5B4FB4UPW2HVJEPR47ZY7SA701","A3HXCMU4MOPSQI","3TZDZ3Y0JSSRVQSC3SM97PDQ3Z7196","","360.29999999701977","img/food8.png","75","360.80000001192093","1","1","1","0.8,0.2,0.8,0.2,0.2,0.8,0.2,0.8",""
"","html-keyboard-response","400","179830","0.0-400.0","324G5B4FB4UPW2HVJEPR47ZY7SA701","A3HXCMU4MOPSQI","3TZDZ3Y0JSSRVQSC3SM97PDQ3Z7196","","null","<img src=""img/food8.png"" style=""width:200px; border:14px solid green;"">","null","","","","","",""
"","image-keyboard-response","401","180111","0.0-401.0","324G5B4FB4UPW2HVJEPR47ZY7SA701","A3HXCMU4MOPSQI","3TZDZ3Y0JSSRVQSC3SM97PDQ3Z7196","","280.20000000298023","img/food2.png","75","280.79999999701977","1","0","4","0.8,0.2,0.8,0.2,0.2,0.8,0.2,0.8",""
