"success","trial_type","trial_index","time_elapsed","internal_node_id","assignmentID","mturkID","hitID","view_history","rt","stimulus","key_press","reactionTime","a","r","warning","s","cond","reward_cond","reward_cond_actual","reward_matrix_idx","responses"
"true","fullscreen","0","5722","0.0-0.0","3E7TUJ2EGD8N956IANB6XAAN0NZD94","A3ITZNJQUTIZ4C","3ECKRY5B1QIH1N6NFX1ECCW5ZDKIZQ","","","","","","","","","","","","","",""
"","instructions","1","77888","0.0-1.0","3E7TUJ2EGD8N956IANB6XAAN0NZD94","A3ITZNJQUTIZ4C","3ECKRY5B1QIH1N6NFX1ECCW5ZDKIZQ","[{""page_index"":0,""viewing_time"":6348.399999976158},{""page_index"":1,""viewing_time"":8683.600000023842},{""page_index"":2,""viewing_time"":10812.5},{""page_index"":3,""viewing_time"":12441.199999988079},{""page_index"":4,""viewing_time"":4162.399999976158},{""page_index"":5,""viewing_time"":25656.100000023842},{""page_index"":6,""viewing_time"":4055.5}]","72160.79999995232","","","","","","","","","","","",""
"","instructions","2","98299","0.0-2.0","3E7TUJ2EGD8N956IANB6XAAN0NZD94","A3ITZNJQUTIZ4C","3ECKRY5B1QIH1N6NFX1ECCW5ZDKIZQ","[{""page_index"":0,""viewing_time"":15068.399999976158},{""page_index"":1,""viewing_time"":5341.399999976158}]","20410","","","","","","","","","","","",""
"","image-keyboard-response","3","99305","0.0-3.0","3E7TUJ2EGD8N956IANB6XAAN0NZD94","A3ITZNJQUTIZ4C","3ECKRY5B1QIH1N6NFX1ECCW5ZDKIZQ","","","img/food4.png","","1005.3000000119209","-1","0","true","2","2","1,0.5,0,1,0.5,0,0.5,0,1","1,0.5,0,1,0.5,0,0.5,0,1","1",""
"","html-keyboard-response","4","99614","0.0-4.0","3E7TUJ2EGD8N956IANB6XAAN0NZD94","A3ITZNJQUTIZ4C","3ECKRY5B1QIH1N6NFX1ECCW5ZDKIZQ","","null","<img src=""img/food4.png"" style=""width:200px;border:14px solid red;"">","null","","","","","","","","","",""
"","html-keyboard-response","5","105899","0.0-5.0-0.0","3E7TUJ2EGD8N956IANB6XAAN0NZD94","A3ITZNJQUTIZ4C","3ECKRY5B1QIH1N6NFX1ECCW5ZDKIZQ","","","","","","","","","","","","","",""
"","image-keyboard-response","6","106082","0.0-6.0","3E7TUJ2EGD8N956IANB6XAAN0NZD94","A3ITZNJQUTIZ4C","3ECKRY5B1QIH1N6NFX1ECCW5ZDKIZQ","","181","img/food6.png","75","182.5999999642372","2","0","false","3","2","1,0.5,0,1,0.5,0,0.5,0,1","1,0.5,0,1,0.5,0,0.5,0,1","1",""
"","html-keyboard-response","7","106396","0.0-7.0","3E7TUJ2EGD8N956IANB6XAAN0NZD94","A3ITZNJQUTIZ4C","3ECKRY5B1QIH1N6NFX1ECCW5ZDKIZQ","","null","<img src=""img/food6.png"" style=""width:200px;border:14px solid red;"">","null","","","","","","","","","",""
"","image-keyboard-response","8","106817","0.0-9.0","3E7TUJ2EGD8N956IANB6XAAN0NZD94","A3ITZNJQUTIZ4C","3ECKRY5B1QIH1N6NFX1ECCW5ZDKIZQ","","419","img/food6.png","74","420.69999998807907","1","0","false","3","2","1,0.5,0,1,0.5,0,0.5,0,1","1,0.5,0,1,0.5,0,0.5,0,1","1",""
"","html-keyboard-response","9","107124","0.0-10.0","3E7TUJ2EGD8N956IANB6XAAN0NZD94","A3ITZNJQUTIZ4C","3ECKRY5B1QIH1N6NFX1ECCW5ZDKIZQ","","null","<img src=""img/food6.png"" style=""width:200px;border:14px solid red;"">","null","","","","","","","","","",""
"","image-keyboard-response","10","107406","0.0-12.0","3E7TUJ2EGD8N956IANB6XAAN0NZD94","A3ITZNJQUTIZ4C","3ECKRY5B1QIH1N6NFX1ECCW5ZDKIZQ","","279","img/food4.png","75","280.69999998807907","2","0","false","2","2","1,0.5,0,1,0.5,0,0.5,0,1","1,0.5,0,1,0.5,0,0.5,0,1","1",""
"","html-keyboard-response","11","107713","0.0-13.0","3E7TUJ2EGD8N956IANB6XAAN0NZD94","A3ITZNJQUTIZ4C","3ECKRY5B1QIH1N6NFX1ECCW5ZDKIZQ","","null","<img src=""img/food4.png"" style=""width:200px;border:14px solid red;"">","null","","","","","","","","","",""
"","image-keyboard-response","12","108103","0.0-15.0","3E7TUJ2EGD8N956IANB6XAAN0NZD94","A3ITZNJQUTIZ4C","3ECKRY5B1QIH1N6NFX1ECCW5ZDKIZQ","","388.80000001192093","img/food6.png","76","390.39999997615814","3","1","false","3","2","1,0.5,0,1,0.5,0,0.5,0,1","1,0.5,0,1,0.5,0,0.5,0,1","1",""
"","html-keyboard-response","13","108408","0.0-16.0","3E7TUJ2EGD8N956IANB6XAAN0NZD94","A3ITZNJQUTIZ4C","3ECKRY5B1QIH1N6NFX1ECCW5ZDKIZQ","","null","<img src=""img/food6.png"" style=""width:200px; border:14px solid green;"">","null","","","","","","","","","",""
"","image-keyboard-response","14","108760","0.0-18.0","3E7TUJ2EGD8N956IANB6XAAN0NZD94","A3ITZNJQUTIZ4C","3ECKRY5B1QIH1N6NFX1ECCW5ZDKIZQ","","348.5","img/food6.png","76","350.5999999642372","3","1","false","3","2","1,0.5,0,1,0.5,0,0.5,0,1","1,0.5,0,1,0.5,0,0.5,0,1","1",""
"","html-keyboard-response","15","109068","0.0-19.0","3E7TUJ2EGD8N956IANB6XAAN0NZD94","A3ITZNJQUTIZ4C","3ECKRY5B1QIH1N6NFX1ECCW5ZDKIZQ","","null","<img src=""img/food6.png"" style=""width:200px; border:14px solid green;"">","null","","","","","","","","","",""
"","image-keyboard-response","16","109556","0.0-21.0","3E7TUJ2EGD8N956IANB6XAAN0NZD94","A3ITZNJQUTIZ4C","3ECKRY5B1QIH1N6NFX1ECCW5ZDKIZQ","","486.0999999642372","img/food4.png","74","487.30000001192093","1","1","false","2","2","1,0.5,0,1,0.5,0,0.5,0,1","1,0.5,0,1,0.5,0,0.5,0,1","1",""
"","html-keyboard-response","17","109859","0.0-22.0","3E7TUJ2EGD8N956IANB6XAAN0NZD94","A3ITZNJQUTIZ4C","3ECKRY5B1QIH1N6NFX1ECCW5ZDKIZQ","","null","<img src=""img/food4.png"" style=""width:200px; border:14px solid green;"">","null","","","","","","","","","",""
"","image-keyboard-response","18","110269","0.0-24.0","3E7TUJ2EGD8N956IANB6XAAN0NZD94","A3ITZNJQUTIZ4C","3ECKRY5B1QIH1N6NFX1ECCW5ZDKIZQ","","407.30000001192093","img/food4.png","74","409","1","1","false","2","2","1,0.5,0,1,0.5,0,0.5,0,1","1,0.5,0,1,0.5,0,0.5,0,1","1",""
"","html-keyboard-response","19","110578","0.0-25.0","3E7TUJ2EGD8N956IANB6XAAN0NZD94","A3ITZNJQUTIZ4C","3ECKRY5B1QIH1N6NFX1ECCW5ZDKIZQ","","null","<img src=""img/food4.png"" style=""width:200px; border:14px solid green;"">","null","","","","","","","","","",""
"","image-keyboard-response","20","110984","0.0-27.0","3E7TUJ2EGD8N956IANB6XAAN0NZD94","A3ITZNJQUTIZ4C","3ECKRY5B1QIH1N6NFX1ECCW5ZDKIZQ","","403.80000001192093","img/food4.png","74","405.30000001192093","1","1","false","2","2","1,0.5,0,1,0.5,0,0.5,0,1","1,0.5,0,1,0.5,0,0.5,0,1","1",""
"","html-keyboard-response","21","111289","0.0-28.0","3E7TUJ2EGD8N956IANB6XAAN0NZD94","A3ITZNJQUTIZ4C","3ECKRY5B1QIH1N6NFX1ECCW5ZDKIZQ","","null","<img src=""img/food4.png"" style=""width:200px; border:14px solid green;"">","null","","","","","","","","","",""
"","image-keyboard-response","22","111629","0.0-30.0","3E7TUJ2EGD8N956IANB6XAAN0NZD94","A3ITZNJQUTIZ4C","3ECKRY5B1QIH1N6NFX1ECCW5ZDKIZQ","","338.4000000357628","img/food6.png","74","339.80000001192093","1","1","false","3","2","1,0.5,0,1,0.5,0,0.5,0,1","1,0.5,0,1,0.5,0,0.5,0,1","1",""
"","html-keyboard-response","23","111933","0.0-31.0","3E7TUJ2EGD8N956IANB6XAAN0NZD94","A3ITZNJQUTIZ4C","3ECKRY5B1QIH1N6NFX1ECCW5ZDKIZQ","","null","<img src=""img/food6.png"" style=""width:200px; border:14px solid green;"">","null","","","","","","","","","",""
"","image-keyboard-response","24","112369","0.0-33.0","3E7TUJ2EGD8N956IANB6XAAN0NZD94","A3ITZNJQUTIZ4C","3ECKRY5B1QIH1N6NFX1ECCW5ZDKIZQ","","433.89999997615814","img/food6.png","76","435.2999999523163","3","1","false","3","2","1,0.5,0,1,0.5,0,0.5,0,1","1,0.5,0,1,0.5,0,0.5,0,1","1",""
"","html-keyboard-response","25","112678","0.0-34.0","3E7TUJ2EGD8N956IANB6XAAN0NZD94","A3ITZNJQUTIZ4C","3ECKRY5B1QIH1N6NFX1ECCW5ZDKIZQ","","null","<img src=""img/food6.png"" style=""width:200px; border:14px solid green;"">","null","","","","","","","","","",""
"","image-keyboard-response","26","112950","0.0-36.0","3E7TUJ2EGD8N956IANB6XAAN0NZD94","A3ITZNJQUTIZ4C","3ECKRY5B1QIH1N6NFX1ECCW5ZDKIZQ","","271","img/food6.png","76","272.39999997615814","3","1","false","3","2","1,0.5,0,1,0.5,0,0.5,0,1","1,0.5,0,1,0.5,0,0.5,0,1","1",""
"","html-keyboard-response","27","113259","0.0-37.0","3E7TUJ2EGD8N956IANB6XAAN0NZD94","A3ITZNJQUTIZ4C","3ECKRY5B1QIH1N6NFX1ECCW5ZDKIZQ","","null","<img src=""img/food6.png"" style=""width:200px; border:14px solid green;"">","null","","","","","","","","","",""
"","image-keyboard-response","28","113512","0.0-39.0","3E7TUJ2EGD8N956IANB6XAAN0NZD94","A3ITZNJQUTIZ4C","3ECKRY5B1QIH1N6NFX1ECCW5ZDKIZQ","","249.79999995231628","img/food6.png","76","252.79999995231628","3","1","false","3","2","1,0.5,0,1,0.5,0,0.5,0,1","1,0.5,0,1,0.5,0,0.5,0,1","1",""
"","html-keyboard-response","29","113823","0.0-40.0","3E7TUJ2EGD8N956IANB6XAAN0NZD94","A3ITZNJQUTIZ4C","3ECKRY5B1QIH1N6NFX1ECCW5ZDKIZQ","","null","<img src=""img/food6.png"" style=""width:200px; border:14px solid green;"">","null","","","","","","","","","",""
"","image-keyboard-response","30","113873","0.0-42.0","3E7TUJ2EGD8N956IANB6XAAN0NZD94","A3ITZNJQUTIZ4C","3ECKRY5B1QIH1N6NFX1ECCW5ZDKIZQ","","48.200000047683716","img/food4.png","76","49.80000001192093","3","0","false","2","2","1,0.5,0,1,0.5,0,0.5,0,1","1,0.5,0,1,0.5,0,0.5,0,1","1",""
"","html-keyboard-response","31","114184","0.0-43.0","3E7TUJ2EGD8N956IANB6XAAN0NZD94","A3ITZNJQUTIZ4C","3ECKRY5B1QIH1N6NFX1ECCW5ZDKIZQ","","null","<img src=""img/food4.png"" style=""width:200px;border:14px solid red;"">","null","","","","","","","","","",""
"","image-keyboard-response","32","114310","0.0-45.0","3E7TUJ2EGD8N956IANB6XAAN0NZD94","A3ITZNJQUTIZ4C","3ECKRY5B1QIH1N6NFX1ECCW5ZDKIZQ","","123.89999997615814","img/food2.png","74","125.5","1","1","false","1","2","1,0.5,0,1,0.5,0,0.5,0,1","1,0.5,0,1,0.5,0,0.5,0,1","1",""
"","html-keyboard-response","33","114615","0.0-46.0","3E7TUJ2EGD8N956IANB6XAAN0NZD94","A3ITZNJQUTIZ4C","3ECKRY5B1QIH1N6NFX1ECCW5ZDKIZQ","","null","<img src=""img/food2.png"" style=""width:200px; border:14px solid green;"">","null","","","","","","","","","",""
"","image-keyboard-response","34","114932","0.0-48.0","3E7TUJ2EGD8N956IANB6XAAN0NZD94","A3ITZNJQUTIZ4C","3ECKRY5B1QIH1N6NFX1ECCW5ZDKIZQ","","314.5","img/food6.png","76","315.9000000357628","3","1","false","3","2","1,0.5,0,1,0.5,0,0.5,0,1","1,0.5,0,1,0.5,0,0.5,0,1","1",""
"","html-keyboard-response","35","115243","0.0-49.0","3E7TUJ2EGD8N956IANB6XAAN0NZD94","A3ITZNJQUTIZ4C","3ECKRY5B1QIH1N6NFX1ECCW5ZDKIZQ","","null","<img src=""img/food6.png"" style=""width:200px; border:14px solid green;"">","null","","","","","","","","","",""
"","image-keyboard-response","36","115518","0.0-51.0","3E7TUJ2EGD8N956IANB6XAAN0NZD94","A3ITZNJQUTIZ4C","3ECKRY5B1QIH1N6NFX1ECCW5ZDKIZQ","","272.39999997615814","img/food6.png","76","273.80000001192093","3","1","false","3","2","1,0.5,0,1,0.5,0,0.5,0,1","1,0.5,0,1,0.5,0,0.5,0,1","1",""
"","html-keyboard-response","37","115832","0.0-52.0","3E7TUJ2EGD8N956IANB6XAAN0NZD94","A3ITZNJQUTIZ4C","3ECKRY5B1QIH1N6NFX1ECCW5ZDKIZQ","","null","<img src=""img/food6.png"" style=""width:200px; border:14px solid green;"">","null","","","","","","","","","",""
"","image-keyboard-response","38","115849","0.0-54.0","3E7TUJ2EGD8N956IANB6XAAN0NZD94","A3ITZNJQUTIZ4C","3ECKRY5B1QIH1N6NFX1ECCW5ZDKIZQ","","15.599999964237213","img/food2.png","76","16.900000035762787","3","0","false","1","2","1,0.5,0,1,0.5,0,0.5,0,1","1,0.5,0,1,0.5,0,0.5,0,1","1",""
"","html-keyboard-response","39","116155","0.0-55.0","3E7TUJ2EGD8N956IANB6XAAN0NZD94","A3ITZNJQUTIZ4C","3ECKRY5B1QIH1N6NFX1ECCW5ZDKIZQ","","null","<img src=""img/food2.png"" style=""width:200px;border:14px solid red;"">","null","","","","","","","","","",""
"","image-keyboard-response","40","116324","0.0-57.0","3E7TUJ2EGD8N956IANB6XAAN0NZD94","A3ITZNJQUTIZ4C","3ECKRY5B1QIH1N6NFX1ECCW5ZDKIZQ","","166.80000001192093","img/food4.png","74","168.30000001192093","1","1","false","2","2","1,0.5,0,1,0.5,0,0.5,0,1","1,0.5,0,1,0.5,0,0.5,0,1","1",""
"","html-keyboard-response","41","116630","0.0-58.0","3E7TUJ2EGD8N956IANB6XAAN0NZD94","A3ITZNJQUTIZ4C","3ECKRY5B1QIH1N6NFX1ECCW5ZDKIZQ","","null","<img src=""img/food4.png"" style=""width:200px; border:14px solid green;"">","null","","","","","","","","","",""
"","image-keyboard-response","42","116903","0.0-60.0","3E7TUJ2EGD8N956IANB6XAAN0NZD94","A3ITZNJQUTIZ4C","3ECKRY5B1QIH1N6NFX1ECCW5ZDKIZQ","","271.4000000357628","img/food4.png","74","272.9000000357628","1","1","false","2","2","1,0.5,0,1,0.5,0,0.5,0,1","1,0.5,0,1,0.5,0,0.5,0,1","1",""
"","html-keyboard-response","43","117210","0.0-61.0","3E7TUJ2EGD8N956IANB6XAAN0NZD94","A3ITZNJQUTIZ4C","3ECKRY5B1QIH1N6NFX1ECCW5ZDKIZQ","","null","<img src=""img/food4.png"" style=""width:200px; border:14px solid green;"">","null","","","","","","","","","",""
"","image-keyboard-response","44","117445","0.0-63.0","3E7TUJ2EGD8N956IANB6XAAN0NZD94","A3ITZNJQUTIZ4C","3ECKRY5B1QIH1N6NFX1ECCW5ZDKIZQ","","233.30000001192093","img/food4.png","74","234.80000001192093","1","1","false","2","2","1,0.5,0,1,0.5,0,0.5,0,1","1,0.5,0,1,0.5,0,0.5,0,1","1",""
"","html-keyboard-response","45","117758","0.0-64.0","3E7TUJ2EGD8N956IANB6XAAN0NZD94","A3ITZNJQUTIZ4C","3ECKRY5B1QIH1N6NFX1ECCW5ZDKIZQ","","null","<img src=""img/food4.png"" style=""width:200px; border:14px solid green;"">","null","","","","","","","","","",""
"","image-keyboard-response","46","117872","0.0-66.0","3E7TUJ2EGD8N956IANB6XAAN0NZD94","A3ITZNJQUTIZ4C","3ECKRY5B1QIH1N6NFX1ECCW5ZDKIZQ","","111.90000003576279","img/food4.png","74","113.39999997615814","1","1","false","2","2","1,0.5,0,1,0.5,0,0.5,0,1","1,0.5,0,1,0.5,0,0.5,0,1","1",""
"","html-keyboard-response","47","118186","0.0-67.0","3E7TUJ2EGD8N956IANB6XAAN0NZD94","A3ITZNJQUTIZ4C","3ECKRY5B1QIH1N6NFX1ECCW5ZDKIZQ","","null","<img src=""img/food4.png"" style=""width:200px; border:14px solid green;"">","null","","","","","","","","","",""
"","image-keyboard-response","48","118325","0.0-69.0","3E7TUJ2EGD8N956IANB6XAAN0NZD94","A3ITZNJQUTIZ4C","3ECKRY5B1QIH1N6NFX1ECCW5ZDKIZQ","","137.19999998807907","img/food6.png","74","138.5","1","0","false","3","2","1,0.5,0,1,0.5,0,0.5,0,1","1,0.5,0,1,0.5,0,0.5,0,1","1",""
"","html-keyboard-response","49","118632","0.0-70.0","3E7TUJ2EGD8N956IANB6XAAN0NZD94","A3ITZNJQUTIZ4C","3ECKRY5B1QIH1N6NFX1ECCW5ZDKIZQ","","null","<img src=""img/food6.png"" style=""width:200px;border:14px solid red;"">","null","","","","","","","","","",""
"","image-keyboard-response","50","118815","0.0-72.0","3E7TUJ2EGD8N956IANB6XAAN0NZD94","A3ITZNJQUTIZ4C","3ECKRY5B1QIH1N6NFX1ECCW5ZDKIZQ","","180.30000001192093","img/food6.png","76","181.80000001192093","3","1","false","3","2","1,0.5,0,1,0.5,0,0.5,0,1","1,0.5,0,1,0.5,0,0.5,0,1","1",""
"","html-keyboard-response","51","119124","0.0-73.0","3E7TUJ2EGD8N956IANB6XAAN0NZD94","A3ITZNJQUTIZ4C","3ECKRY5B1QIH1N6NFX1ECCW5ZDKIZQ","","null","<img src=""img/food6.png"" style=""width:200px; border:14px solid green;"">","null","","","","","","","","","",""
"","image-keyboard-response","52","119132","0.0-75.0","3E7TUJ2EGD8N956IANB6XAAN0NZD94","A3ITZNJQUTIZ4C","3ECKRY5B1QIH1N6NFX1ECCW5ZDKIZQ","","6","img/food2.png","76","7.299999952316284","3","0","false","1","2","1,0.5,0,1,0.5,0,0.5,0,1","1,0.5,0,1,0.5,0,0.5,0,1","1",""
"","html-keyboard-response","53","119442","0.0-76.0","3E7TUJ2EGD8N956IANB6XAAN0NZD94","A3ITZNJQUTIZ4C","3ECKRY5B1QIH1N6NFX1ECCW5ZDKIZQ","","null","<img src=""img/food2.png"" style=""width:200px;border:14px solid red;"">","null","","","","","","","","","",""
"","image-keyboard-response","54","119623","0.0-78.0","3E7TUJ2EGD8N956IANB6XAAN0NZD94","A3ITZNJQUTIZ4C","3ECKRY5B1QIH1N6NFX1ECCW5ZDKIZQ","","179.5999999642372","img/food2.png","74","180.39999997615814","1","1","false","1","2","1,0.5,0,1,0.5,0,0.5,0,1","1,0.5,0,1,0.5,0,0.5,0,1","1",""
"","html-keyboard-response","55","119927","0.0-79.0","3E7TUJ2EGD8N956IANB6XAAN0NZD94","A3ITZNJQUTIZ4C","3ECKRY5B1QIH1N6NFX1ECCW5ZDKIZQ","","null","<img src=""img/food2.png"" style=""width:200px; border:14px solid green;"">","null","","","","","","","","","",""
"","image-keyboard-response","56","120254","0.0-81.0","3E7TUJ2EGD8N956IANB6XAAN0NZD94","A3ITZNJQUTIZ4C","3ECKRY5B1QIH1N6NFX1ECCW5ZDKIZQ","","325.2000000476837","img/food6.png","74","326.4000000357628","1","1","false","3","2","1,0.5,0,1,0.5,0,0.5,0,1","1,0.5,0,1,0.5,0,0.5,0,1","1",""
"","html-keyboard-response","57","120558","0.0-82.0","3E7TUJ2EGD8N956IANB6XAAN0NZD94","A3ITZNJQUTIZ4C","3ECKRY5B1QIH1N6NFX1ECCW5ZDKIZQ","","null","<img src=""img/food6.png"" style=""width:200px; border:14px solid green;"">","null","","","","","","","","","",""
"","image-keyboard-response","58","120672","0.0-84.0","3E7TUJ2EGD8N956IANB6XAAN0NZD94","A3ITZNJQUTIZ4C","3ECKRY5B1QIH1N6NFX1ECCW5ZDKIZQ","","112.69999998807907","img/food2.png","76","113.60000002384186","3","0","false","1","2","1,0.5,0,1,0.5,0,0.5,0,1","1,0.5,0,1,0.5,0,0.5,0,1","1",""
"","html-keyboard-response","59","120983","0.0-85.0","3E7TUJ2EGD8N956IANB6XAAN0NZD94","A3ITZNJQUTIZ4C","3ECKRY5B1QIH1N6NFX1ECCW5ZDKIZQ","","null","<img src=""img/food2.png"" style=""width:200px;border:14px solid red;"">","null","","","","","","","","","",""
"","image-keyboard-response","60","121051","0.0-87.0","3E7TUJ2EGD8N956IANB6XAAN0NZD94","A3ITZNJQUTIZ4C","3ECKRY5B1QIH1N6NFX1ECCW5ZDKIZQ","","65.5","img/food6.png","76","66.90000003576279","3","1","false","3","2","1,0.5,0,1,0.5,0,0.5,0,1","1,0.5,0,1,0.5,0,0.5,0,1","1",""
"","html-keyboard-response","61","121371","0.0-88.0","3E7TUJ2EGD8N956IANB6XAAN0NZD94","A3ITZNJQUTIZ4C","3ECKRY5B1QIH1N6NFX1ECCW5ZDKIZQ","","null","<img src=""img/food6.png"" style=""width:200px; border:14px solid green;"">","null","","","","","","","","","",""
"","image-keyboard-response","62","121396","0.0-90.0","3E7TUJ2EGD8N956IANB6XAAN0NZD94","A3ITZNJQUTIZ4C","3ECKRY5B1QIH1N6NFX1ECCW5ZDKIZQ","","23.099999964237213","img/food6.png","74","24.200000047683716","1","1","false","3","2","1,0.5,0,1,0.5,0,0.5,0,1","1,0.5,0,1,0.5,0,0.5,0,1","1",""
"","html-keyboard-response","63","121703","0.0-91.0","3E7TUJ2EGD8N956IANB6XAAN0NZD94","A3ITZNJQUTIZ4C","3ECKRY5B1QIH1N6NFX1ECCW5ZDKIZQ","","null","<img src=""img/food6.png"" style=""width:200px; border:14px solid green;"">","null","","","","","","","","","",""
"","image-keyboard-response","64","121709","0.0-93.0","3E7TUJ2EGD8N956IANB6XAAN0NZD94","A3ITZNJQUTIZ4C","3ECKRY5B1QIH1N6NFX1ECCW5ZDKIZQ","","4.399999976158142","img/food6.png","76","5.900000035762787","3","1","false","3","2","1,0.5,0,1,0.5,0,0.5,0,1","1,0.5,0,1,0.5,0,0.5,0,1","1",""
"","html-keyboard-response","65","122017","0.0-94.0","3E7TUJ2EGD8N956IANB6XAAN0NZD94","A3ITZNJQUTIZ4C","3ECKRY5B1QIH1N6NFX1ECCW5ZDKIZQ","","null","<img src=""img/food6.png"" style=""width:200px; border:14px solid green;"">","null","","","","","","","","","",""
"","image-keyboard-response","66","122100","0.0-96.0","3E7TUJ2EGD8N956IANB6XAAN0NZD94","A3ITZNJQUTIZ4C","3ECKRY5B1QIH1N6NFX1ECCW5ZDKIZQ","","81.59999996423721","img/food2.png","76","83","3","0","false","1","2","1,0.5,0,1,0.5,0,0.5,0,1","1,0.5,0,1,0.5,0,0.5,0,1","1",""
"","html-keyboard-response","67","122405","0.0-97.0","3E7TUJ2EGD8N956IANB6XAAN0NZD94","A3ITZNJQUTIZ4C","3ECKRY5B1QIH1N6NFX1ECCW5ZDKIZQ","","null","<img src=""img/food2.png"" style=""width:200px;border:14px solid red;"">","null","","","","","","","","","",""
"","image-keyboard-response","68","122635","0.0-99.0","3E7TUJ2EGD8N956IANB6XAAN0NZD94","A3ITZNJQUTIZ4C","3ECKRY5B1QIH1N6NFX1ECCW5ZDKIZQ","","228.4000000357628","img/food2.png","74","229.80000001192093","1","1","false","1","2","1,0.5,0,1,0.5,0,0.5,0,1","1,0.5,0,1,0.5,0,0.5,0,1","1",""
"","html-keyboard-response","69","122947","0.0-100.0","3E7TUJ2EGD8N956IANB6XAAN0NZD94","A3ITZNJQUTIZ4C","3ECKRY5B1QIH1N6NFX1ECCW5ZDKIZQ","","null","<img src=""img/food2.png"" style=""width:200px; border:14px solid green;"">","null","","","","","","","","","",""
"","image-keyboard-response","70","122964","0.0-102.0","3E7TUJ2EGD8N956IANB6XAAN0NZD94","A3ITZNJQUTIZ4C","3ECKRY5B1QIH1N6NFX1ECCW5ZDKIZQ","","15.5","img/food2.png","74","16.900000035762787","1","1","false","1","2","1,0.5,0,1,0.5,0,0.5,0,1","1,0.5,0,1,0.5,0,0.5,0,1","1",""
"","html-keyboard-response","71","123277","0.0-103.0","3E7TUJ2EGD8N956IANB6XAAN0NZD94","A3ITZNJQUTIZ4C","3ECKRY5B1QIH1N6NFX1ECCW5ZDKIZQ","","null","<img src=""img/food2.png"" style=""width:200px; border:14px solid green;"">","null","","","","","","","","","",""
"","image-keyboard-response","72","123488","0.0-105.0","3E7TUJ2EGD8N956IANB6XAAN0NZD94","A3ITZNJQUTIZ4C","3ECKRY5B1QIH1N6NFX1ECCW5ZDKIZQ","","208.69999998807907","img/food4.png","74","210.19999998807907","1","1","false","2","2","1,0.5,0,1,0.5,0,0.5,0,1","1,0.5,0,1,0.5,0,0.5,0,1","1",""
"","html-keyboard-response","73","123804","0.0-106.0","3E7TUJ2EGD8N956IANB6XAAN0NZD94","A3ITZNJQUTIZ4C","3ECKRY5B1QIH1N6NFX1ECCW5ZDKIZQ","","null","<img src=""img/food4.png"" style=""width:200px; border:14px solid green;"">","null","","","","","","","","","",""
"","image-keyboard-response","74","124356","0.0-108.0","3E7TUJ2EGD8N956IANB6XAAN0NZD94","A3ITZNJQUTIZ4C","3ECKRY5B1QIH1N6NFX1ECCW5ZDKIZQ","","549.6000000238419","img/food2.png","75","551.1000000238419","2","1","false","1","2","1,0.5,0,1,0.5,0,0.5,0,1","1,0.5,0,1,0.5,0,0.5,0,1","1",""
"","html-keyboard-response","75","124662","0.0-109.0","3E7TUJ2EGD8N956IANB6XAAN0NZD94","A3ITZNJQUTIZ4C","3ECKRY5B1QIH1N6NFX1ECCW5ZDKIZQ","","null","<img src=""img/food2.png"" style=""width:200px; border:14px solid green;"">","null","","","","","","","","","",""
"","image-keyboard-response","76","125089","0.0-111.0","3E7TUJ2EGD8N956IANB6XAAN0NZD94","A3ITZNJQUTIZ4C","3ECKRY5B1QIH1N6NFX1ECCW5ZDKIZQ","","424.60000002384186","img/food6.png","76","425.80000001192093","3","1","false","3","2","1,0.5,0,1,0.5,0,0.5,0,1","1,0.5,0,1,0.5,0,0.5,0,1","1",""
"","html-keyboard-response","77","125402","0.0-112.0","3E7TUJ2EGD8N956IANB6XAAN0NZD94","A3ITZNJQUTIZ4C","3ECKRY5B1QIH1N6NFX1ECCW5ZDKIZQ","","null","<img src=""img/food6.png"" style=""width:200px; border:14px solid green;"">","null","","","","","","","","","",""
"","image-keyboard-response","78","125448","0.0-114.0","3E7TUJ2EGD8N956IANB6XAAN0NZD94","A3ITZNJQUTIZ4C","3ECKRY5B1QIH1N6NFX1ECCW5ZDKIZQ","","45.10000002384186","img/food6.png","76","46.39999997615814","3","1","false","3","2","1,0.5,0,1,0.5,0,0.5,0,1","1,0.5,0,1,0.5,0,0.5,0,1","1",""
"","html-keyboard-response","79","125753","0.0-115.0","3E7TUJ2EGD8N956IANB6XAAN0NZD94","A3ITZNJQUTIZ4C","3ECKRY5B1QIH1N6NFX1ECCW5ZDKIZQ","","null","<img src=""img/food6.png"" style=""width:200px; border:14px solid green;"">","null","","","","","","","","","",""
"","image-keyboard-response","80","125759","0.0-117.0","3E7TUJ2EGD8N956IANB6XAAN0NZD94","A3ITZNJQUTIZ4C","3ECKRY5B1QIH1N6NFX1ECCW5ZDKIZQ","","3.5","img/food2.png","76","5","3","0","false","1","2","1,0.5,0,1,0.5,0,0.5,0,1","1,0.5,0,1,0.5,0,0.5,0,1","1",""
"","html-keyboard-response","81","126062","0.0-118.0","3E7TUJ2EGD8N956IANB6XAAN0NZD94","A3ITZNJQUTIZ4C","3ECKRY5B1QIH1N6NFX1ECCW5ZDKIZQ","","null","<img src=""img/food2.png"" style=""width:200px;border:14px solid red;"">","null","","","","","","","","","",""
"","image-keyboard-response","82","126217","0.0-120.0","3E7TUJ2EGD8N956IANB6XAAN0NZD94","A3ITZNJQUTIZ4C","3ECKRY5B1QIH1N6NFX1ECCW5ZDKIZQ","","153.0999999642372","img/food4.png","75","154.39999997615814","2","0","false","2","2","1,0.5,0,1,0.5,0,0.5,0,1","1,0.5,0,1,0.5,0,0.5,0,1","1",""
"","html-keyboard-response","83","126530","0.0-121.0","3E7TUJ2EGD8N956IANB6XAAN0NZD94","A3ITZNJQUTIZ4C","3ECKRY5B1QIH1N6NFX1ECCW5ZDKIZQ","","null","<img src=""img/food4.png"" style=""width:200px;border:14px solid red;"">","null","","","","","","","","","",""
"","image-keyboard-response","84","126724","0.0-123.0","3E7TUJ2EGD8N956IANB6XAAN0NZD94","A3ITZNJQUTIZ4C","3ECKRY5B1QIH1N6NFX1ECCW5ZDKIZQ","","192.0999999642372","img/food2.png","74","193.30000001192093","1","1","false","1","2","1,0.5,0,1,0.5,0,0.5,0,1","1,0.5,0,1,0.5,0,0.5,0,1","1",""
"","html-keyboard-response","85","127035","0.0-124.0","3E7TUJ2EGD8N956IANB6XAAN0NZD94","A3ITZNJQUTIZ4C","3ECKRY5B1QIH1N6NFX1ECCW5ZDKIZQ","","null","<img src=""img/food2.png"" style=""width:200px; border:14px solid green;"">","null","","","","","","","","","",""
"","image-keyboard-response","86","127176","0.0-126.0","3E7TUJ2EGD8N956IANB6XAAN0NZD94","A3ITZNJQUTIZ4C","3ECKRY5B1QIH1N6NFX1ECCW5ZDKIZQ","","139.10000002384186","img/food2.png","74","140.5","1","1","false","1","2","1,0.5,0,1,0.5,0,0.5,0,1","1,0.5,0,1,0.5,0,0.5,0,1","1",""
"","html-keyboard-response","87","127482","0.0-127.0","3E7TUJ2EGD8N956IANB6XAAN0NZD94","A3ITZNJQUTIZ4C","3ECKRY5B1QIH1N6NFX1ECCW5ZDKIZQ","","null","<img src=""img/food2.png"" style=""width:200px; border:14px solid green;"">","null","","","","","","","","","",""
"","image-keyboard-response","88","127609","0.0-129.0","3E7TUJ2EGD8N956IANB6XAAN0NZD94","A3ITZNJQUTIZ4C","3ECKRY5B1QIH1N6NFX1ECCW5ZDKIZQ","","124.80000001192093","img/food4.png","74","126.5","1","1","false","2","2","1,0.5,0,1,0.5,0,0.5,0,1","1,0.5,0,1,0.5,0,0.5,0,1","1",""
"","html-keyboard-response","89","127912","0.0-130.0","3E7TUJ2EGD8N956IANB6XAAN0NZD94","A3ITZNJQUTIZ4C","3ECKRY5B1QIH1N6NFX1ECCW5ZDKIZQ","","null","<img src=""img/food4.png"" style=""width:200px; border:14px solid green;"">","null","","","","","","","","","",""
"","image-keyboard-response","90","127991","0.0-132.0","3E7TUJ2EGD8N956IANB6XAAN0NZD94","A3ITZNJQUTIZ4C","3ECKRY5B1QIH1N6NFX1ECCW5ZDKIZQ","","78.19999998807907","img/food2.png","75","78.89999997615814","2","1","false","1","2","1,0.5,0,1,0.5,0,0.5,0,1","1,0.5,0,1,0.5,0,0.5,0,1","1",""
"","html-keyboard-response","91","128304","0.0-133.0","3E7TUJ2EGD8N956IANB6XAAN0NZD94","A3ITZNJQUTIZ4C","3ECKRY5B1QIH1N6NFX1ECCW5ZDKIZQ","","null","<img src=""img/food2.png"" style=""width:200px; border:14px solid green;"">","null","","","","","","","","","",""
"","image-keyboard-response","92","128323","0.0-135.0","3E7TUJ2EGD8N956IANB6XAAN0NZD94","A3ITZNJQUTIZ4C","3ECKRY5B1QIH1N6NFX1ECCW5ZDKIZQ","","16.899999976158142","img/food2.png","75","18.299999952316284","2","0","false","1","2","1,0.5,0,1,0.5,0,0.5,0,1","1,0.5,0,1,0.5,0,0.5,0,1","1",""
"","html-keyboard-response","93","128625","0.0-136.0","3E7TUJ2EGD8N956IANB6XAAN0NZD94","A3ITZNJQUTIZ4C","3ECKRY5B1QIH1N6NFX1ECCW5ZDKIZQ","","null","<img src=""img/food2.png"" style=""width:200px;border:14px solid red;"">","null","","","","","","","","","",""
"","image-keyboard-response","94","128655","0.0-138.0","3E7TUJ2EGD8N956IANB6XAAN0NZD94","A3ITZNJQUTIZ4C","3ECKRY5B1QIH1N6NFX1ECCW5ZDKIZQ","","27.400000035762787","img/food2.png","75","28.80000001192093","2","1","false","1","2","1,0.5,0,1,0.5,0,0.5,0,1","1,0.5,0,1,0.5,0,0.5,0,1","1",""
"","html-keyboard-response","95","128970","0.0-139.0","3E7TUJ2EGD8N956IANB6XAAN0NZD94","A3ITZNJQUTIZ4C","3ECKRY5B1QIH1N6NFX1ECCW5ZDKIZQ","","null","<img src=""img/food2.png"" style=""width:200px; border:14px solid green;"">","null","","","","","","","","","",""
"","image-keyboard-response","96","129203","0.0-141.0","3E7TUJ2EGD8N956IANB6XAAN0NZD94","A3ITZNJQUTIZ4C","3ECKRY5B1QIH1N6NFX1ECCW5ZDKIZQ","","230.70000004768372","img/food4.png","75","232.30000001192093","2","1","false","2","2","1,0.5,0,1,0.5,0,0.5,0,1","1,0.5,0,1,0.5,0,0.5,0,1","1",""
"","html-keyboard-response","97","129518","0.0-142.0","3E7TUJ2EGD8N956IANB6XAAN0NZD94","A3ITZNJQUTIZ4C","3ECKRY5B1QIH1N6NFX1ECCW5ZDKIZQ","","null","<img src=""img/food4.png"" style=""width:200px; border:14px solid green;"">","null","","","","","","","","","",""
"","image-keyboard-response","98","129547","0.0-144.0","3E7TUJ2EGD8N956IANB6XAAN0NZD94","A3ITZNJQUTIZ4C","3ECKRY5B1QIH1N6NFX1ECCW5ZDKIZQ","","26.899999976158142","img/food4.png","76","28.100000023841858","3","0","false","2","2","1,0.5,0,1,0.5,0,0.5,0,1","1,0.5,0,1,0.5,0,0.5,0,1","1",""
"","html-keyboard-response","99","129850","0.0-145.0","3E7TUJ2EGD8N956IANB6XAAN0NZD94","A3ITZNJQUTIZ4C","3ECKRY5B1QIH1N6NFX1ECCW5ZDKIZQ","","null","<img src=""img/food4.png"" style=""width:200px;border:14px solid red;"">","null","","","","","","","","","",""
"","image-keyboard-response","100","129859","0.0-147.0","3E7TUJ2EGD8N956IANB6XAAN0NZD94","A3ITZNJQUTIZ4C","3ECKRY5B1QIH1N6NFX1ECCW5ZDKIZQ","","7.100000023841858","img/food6.png","76","8.599999964237213","3","1","false","3","2","1,0.5,0,1,0.5,0,0.5,0,1","1,0.5,0,1,0.5,0,0.5,0,1","1",""
"","html-keyboard-response","101","130163","0.0-148.0","3E7TUJ2EGD8N956IANB6XAAN0NZD94","A3ITZNJQUTIZ4C","3ECKRY5B1QIH1N6NFX1ECCW5ZDKIZQ","","null","<img src=""img/food6.png"" style=""width:200px; border:14px solid green;"">","null","","","","","","","","","",""
"","image-keyboard-response","102","130313","0.0-150.0","3E7TUJ2EGD8N956IANB6XAAN0NZD94","A3ITZNJQUTIZ4C","3ECKRY5B1QIH1N6NFX1ECCW5ZDKIZQ","","148.60000002384186","img/food2.png","74","150.10000002384186","1","1","false","1","2","1,0.5,0,1,0.5,0,0.5,0,1","1,0.5,0,1,0.5,0,0.5,0,1","1",""
"","html-keyboard-response","103","130620","0.0-151.0","3E7TUJ2EGD8N956IANB6XAAN0NZD94","A3ITZNJQUTIZ4C","3ECKRY5B1QIH1N6NFX1ECCW5ZDKIZQ","","null","<img src=""img/food2.png"" style=""width:200px; border:14px solid green;"">","null","","","","","","","","","",""
"","image-keyboard-response","104","130642","0.0-153.0","3E7TUJ2EGD8N956IANB6XAAN0NZD94","A3ITZNJQUTIZ4C","3ECKRY5B1QIH1N6NFX1ECCW5ZDKIZQ","","20","img/food4.png","74","21.399999976158142","1","1","false","2","2","1,0.5,0,1,0.5,0,0.5,0,1","1,0.5,0,1,0.5,0,0.5,0,1","1",""
"","html-keyboard-response","105","130949","0.0-154.0","3E7TUJ2EGD8N956IANB6XAAN0NZD94","A3ITZNJQUTIZ4C","3ECKRY5B1QIH1N6NFX1ECCW5ZDKIZQ","","null","<img src=""img/food4.png"" style=""width:200px; border:14px solid green;"">","null","","","","","","","","","",""
"","image-keyboard-response","106","131072","0.0-156.0","3E7TUJ2EGD8N956IANB6XAAN0NZD94","A3ITZNJQUTIZ4C","3ECKRY5B1QIH1N6NFX1ECCW5ZDKIZQ","","121.09999996423721","img/food6.png","74","122.40000003576279","1","0","false","3","2","1,0.5,0,1,0.5,0,0.5,0,1","1,0.5,0,1,0.5,0,0.5,0,1","1",""
"","html-keyboard-response","107","131393","0.0-157.0","3E7TUJ2EGD8N956IANB6XAAN0NZD94","A3ITZNJQUTIZ4C","3ECKRY5B1QIH1N6NFX1ECCW5ZDKIZQ","","null","<img src=""img/food6.png"" style=""width:200px;border:14px solid red;"">","null","","","","","","","","","",""
"","image-keyboard-response","108","131481","0.0-159.0","3E7TUJ2EGD8N956IANB6XAAN0NZD94","A3ITZNJQUTIZ4C","3ECKRY5B1QIH1N6NFX1ECCW5ZDKIZQ","","84.90000003576279","img/food4.png","76","86.5","3","0","false","2","2","1,0.5,0,1,0.5,0,0.5,0,1","1,0.5,0,1,0.5,0,0.5,0,1","1",""
"","html-keyboard-response","109","131783","0.0-160.0","3E7TUJ2EGD8N956IANB6XAAN0NZD94","A3ITZNJQUTIZ4C","3ECKRY5B1QIH1N6NFX1ECCW5ZDKIZQ","","null","<img src=""img/food4.png"" style=""width:200px;border:14px solid red;"">","null","","","","","","","","","",""
"","image-keyboard-response","110","132393","0.0-162.0","3E7TUJ2EGD8N956IANB6XAAN0NZD94","A3ITZNJQUTIZ4C","3ECKRY5B1QIH1N6NFX1ECCW5ZDKIZQ","","608.6999999880791","img/food4.png","75","609.6000000238419","2","0","false","2","2","1,0.5,0,1,0.5,0,0.5,0,1","1,0.5,0,1,0.5,0,0.5,0,1","1",""
"","html-keyboard-response","111","132699","0.0-163.0","3E7TUJ2EGD8N956IANB6XAAN0NZD94","A3ITZNJQUTIZ4C","3ECKRY5B1QIH1N6NFX1ECCW5ZDKIZQ","","null","<img src=""img/food4.png"" style=""width:200px;border:14px solid red;"">","null","","","","","","","","","",""
"","image-keyboard-response","112","132902","0.0-165.0","3E7TUJ2EGD8N956IANB6XAAN0NZD94","A3ITZNJQUTIZ4C","3ECKRY5B1QIH1N6NFX1ECCW5ZDKIZQ","","201.60000002384186","img/food2.png","74","202.60000002384186","1","1","false","1","2","1,0.5,0,1,0.5,0,0.5,0,1","1,0.5,0,1,0.5,0,0.5,0,1","1",""
"","html-keyboard-response","113","133212","0.0-166.0","3E7TUJ2EGD8N956IANB6XAAN0NZD94","A3ITZNJQUTIZ4C","3ECKRY5B1QIH1N6NFX1ECCW5ZDKIZQ","","null","<img src=""img/food2.png"" style=""width:200px; border:14px solid green;"">","null","","","","","","","","","",""
"","image-keyboard-response","114","133473","0.0-168.0","3E7TUJ2EGD8N956IANB6XAAN0NZD94","A3ITZNJQUTIZ4C","3ECKRY5B1QIH1N6NFX1ECCW5ZDKIZQ","","258.69999998807907","img/food4.png","74","260","1","1","false","2","2","1,0.5,0,1,0.5,0,0.5,0,1","1,0.5,0,1,0.5,0,0.5,0,1","1",""
"","html-keyboard-response","115","133784","0.0-169.0","3E7TUJ2EGD8N956IANB6XAAN0NZD94","A3ITZNJQUTIZ4C","3ECKRY5B1QIH1N6NFX1ECCW5ZDKIZQ","","null","<img src=""img/food4.png"" style=""width:200px; border:14px solid green;"">","null","","","","","","","","","",""
"","image-keyboard-response","116","134303","0.0-171.0","3E7TUJ2EGD8N956IANB6XAAN0NZD94","A3ITZNJQUTIZ4C","3ECKRY5B1QIH1N6NFX1ECCW5ZDKIZQ","","516.6999999880791","img/food6.png","76","518.2999999523163","3","1","false","3","2","1,0.5,0,1,0.5,0,0.5,0,1","1,0.5,0,1,0.5,0,0.5,0,1","1",""
"","html-keyboard-response","117","134618","0.0-172.0","3E7TUJ2EGD8N956IANB6XAAN0NZD94","A3ITZNJQUTIZ4C","3ECKRY5B1QIH1N6NFX1ECCW5ZDKIZQ","","null","<img src=""img/food6.png"" style=""width:200px; border:14px solid green;"">","null","","","","","","","","","",""
"","image-keyboard-response","118","134693","0.0-174.0","3E7TUJ2EGD8N956IANB6XAAN0NZD94","A3ITZNJQUTIZ4C","3ECKRY5B1QIH1N6NFX1ECCW5ZDKIZQ","","73.30000001192093","img/food4.png","76","74.60000002384186","3","0","false","2","2","1,0.5,0,1,0.5,0,0.5,0,1","1,0.5,0,1,0.5,0,0.5,0,1","1",""
"","html-keyboard-response","119","134999","0.0-175.0","3E7TUJ2EGD8N956IANB6XAAN0NZD94","A3ITZNJQUTIZ4C","3ECKRY5B1QIH1N6NFX1ECCW5ZDKIZQ","","null","<img src=""img/food4.png"" style=""width:200px;border:14px solid red;"">","null","","","","","","","","","",""
"","image-keyboard-response","120","135191","0.0-177.0","3E7TUJ2EGD8N956IANB6XAAN0NZD94","A3ITZNJQUTIZ4C","3ECKRY5B1QIH1N6NFX1ECCW5ZDKIZQ","","190.4000000357628","img/food6.png","75","191.29999995231628","2","0","false","3","2","1,0.5,0,1,0.5,0,0.5,0,1","1,0.5,0,1,0.5,0,0.5,0,1","1",""
"","html-keyboard-response","121","135505","0.0-178.0","3E7TUJ2EGD8N956IANB6XAAN0NZD94","A3ITZNJQUTIZ4C","3ECKRY5B1QIH1N6NFX1ECCW5ZDKIZQ","","null","<img src=""img/food6.png"" style=""width:200px;border:14px solid red;"">","null","","","","","","","","","",""
"","image-keyboard-response","122","135682","0.0-180.0","3E7TUJ2EGD8N956IANB6XAAN0NZD94","A3ITZNJQUTIZ4C","3ECKRY5B1QIH1N6NFX1ECCW5ZDKIZQ","","174.5","img/food2.png","74","176","1","1","false","1","2","1,0.5,0,1,0.5,0,0.5,0,1","1,0.5,0,1,0.5,0,0.5,0,1","1",""
"","html-keyboard-response","123","135988","0.0-181.0","3E7TUJ2EGD8N956IANB6XAAN0NZD94","A3ITZNJQUTIZ4C","3ECKRY5B1QIH1N6NFX1ECCW5ZDKIZQ","","null","<img src=""img/food2.png"" style=""width:200px; border:14px solid green;"">","null","","","","","","","","","",""
"","image-keyboard-response","124","136445","0.0-183.0","3E7TUJ2EGD8N956IANB6XAAN0NZD94","A3ITZNJQUTIZ4C","3ECKRY5B1QIH1N6NFX1ECCW5ZDKIZQ","","455.39999997615814","img/food4.png","76","456.7999999523163","3","0","false","2","2","1,0.5,0,1,0.5,0,0.5,0,1","1,0.5,0,1,0.5,0,0.5,0,1","1",""
"","html-keyboard-response","125","136749","0.0-184.0","3E7TUJ2EGD8N956IANB6XAAN0NZD94","A3ITZNJQUTIZ4C","3ECKRY5B1QIH1N6NFX1ECCW5ZDKIZQ","","null","<img src=""img/food4.png"" style=""width:200px;border:14px solid red;"">","null","","","","","","","","","",""
"","image-keyboard-response","126","136987","0.0-186.0","3E7TUJ2EGD8N956IANB6XAAN0NZD94","A3ITZNJQUTIZ4C","3ECKRY5B1QIH1N6NFX1ECCW5ZDKIZQ","","235.89999997615814","img/food2.png","74","237","1","1","false","1","2","1,0.5,0,1,0.5,0,0.5,0,1","1,0.5,0,1,0.5,0,0.5,0,1","1",""
"","html-keyboard-response","127","137292","0.0-187.0","3E7TUJ2EGD8N956IANB6XAAN0NZD94","A3ITZNJQUTIZ4C","3ECKRY5B1QIH1N6NFX1ECCW5ZDKIZQ","","null","<img src=""img/food2.png"" style=""width:200px; border:14px solid green;"">","null","","","","","","","","","",""
"","image-keyboard-response","128","137546","0.0-189.0","3E7TUJ2EGD8N956IANB6XAAN0NZD94","A3ITZNJQUTIZ4C","3ECKRY5B1QIH1N6NFX1ECCW5ZDKIZQ","","252.0999999642372","img/food6.png","74","253.60000002384186","1","0","false","3","2","1,0.5,0,1,0.5,0,0.5,0,1","1,0.5,0,1,0.5,0,0.5,0,1","1",""
"","html-keyboard-response","129","137853","0.0-190.0","3E7TUJ2EGD8N956IANB6XAAN0NZD94","A3ITZNJQUTIZ4C","3ECKRY5B1QIH1N6NFX1ECCW5ZDKIZQ","","null","<img src=""img/food6.png"" style=""width:200px;border:14px solid red;"">","null","","","","","","","","","",""
"","image-keyboard-response","130","138148","0.0-192.0","3E7TUJ2EGD8N956IANB6XAAN0NZD94","A3ITZNJQUTIZ4C","3ECKRY5B1QIH1N6NFX1ECCW5ZDKIZQ","","293.19999998807907","img/food4.png","76","294.80000001192093","3","0","false","2","2","1,0.5,0,1,0.5,0,0.5,0,1","1,0.5,0,1,0.5,0,0.5,0,1","1",""
"","html-keyboard-response","131","138453","0.0-193.0","3E7TUJ2EGD8N956IANB6XAAN0NZD94","A3ITZNJQUTIZ4C","3ECKRY5B1QIH1N6NFX1ECCW5ZDKIZQ","","null","<img src=""img/food4.png"" style=""width:200px;border:14px solid red;"">","null","","","","","","","","","",""
"","image-keyboard-response","132","138935","0.0-195.0","3E7TUJ2EGD8N956IANB6XAAN0NZD94","A3ITZNJQUTIZ4C","3ECKRY5B1QIH1N6NFX1ECCW5ZDKIZQ","","481.30000001192093","img/food2.png","75","482.30000001192093","2","0","false","1","2","1,0.5,0,1,0.5,0,0.5,0,1","1,0.5,0,1,0.5,0,0.5,0,1","1",""
"","html-keyboard-response","133","139240","0.0-196.0","3E7TUJ2EGD8N956IANB6XAAN0NZD94","A3ITZNJQUTIZ4C","3ECKRY5B1QIH1N6NFX1ECCW5ZDKIZQ","","null","<img src=""img/food2.png"" style=""width:200px;border:14px solid red;"">","null","","","","","","","","","",""
"","image-keyboard-response","134","139495","0.0-198.0","3E7TUJ2EGD8N956IANB6XAAN0NZD94","A3ITZNJQUTIZ4C","3ECKRY5B1QIH1N6NFX1ECCW5ZDKIZQ","","250.69999998807907","img/food6.png","75","252.19999998807907","2","0","false","3","2","1,0.5,0,1,0.5,0,0.5,0,1","1,0.5,0,1,0.5,0,0.5,0,1","1",""
"","html-keyboard-response","135","139806","0.0-199.0","3E7TUJ2EGD8N956IANB6XAAN0NZD94","A3ITZNJQUTIZ4C","3ECKRY5B1QIH1N6NFX1ECCW5ZDKIZQ","","null","<img src=""img/food6.png"" style=""width:200px;border:14px solid red;"">","null","","","","","","","","","",""
"","image-keyboard-response","136","140430","0.0-201.0","3E7TUJ2EGD8N956IANB6XAAN0NZD94","A3ITZNJQUTIZ4C","3ECKRY5B1QIH1N6NFX1ECCW5ZDKIZQ","","622.3999999761581","img/food2.png","74","623.5999999642372","1","1","false","1","2","1,0.5,0,1,0.5,0,0.5,0,1","1,0.5,0,1,0.5,0,0.5,0,1","1",""
"","html-keyboard-response","137","140734","0.0-202.0","3E7TUJ2EGD8N956IANB6XAAN0NZD94","A3ITZNJQUTIZ4C","3ECKRY5B1QIH1N6NFX1ECCW5ZDKIZQ","","null","<img src=""img/food2.png"" style=""width:200px; border:14px solid green;"">","null","","","","","","","","","",""
"","image-keyboard-response","138","141328","0.0-204.0","3E7TUJ2EGD8N956IANB6XAAN0NZD94","A3ITZNJQUTIZ4C","3ECKRY5B1QIH1N6NFX1ECCW5ZDKIZQ","","592.1999999880791","img/food2.png","74","593.6999999880791","1","1","false","1","2","1,0.5,0,1,0.5,0,0.5,0,1","1,0.5,0,1,0.5,0,0.5,0,1","1",""
"","html-keyboard-response","139","141635","0.0-205.0","3E7TUJ2EGD8N956IANB6XAAN0NZD94","A3ITZNJQUTIZ4C","3ECKRY5B1QIH1N6NFX1ECCW5ZDKIZQ","","null","<img src=""img/food2.png"" style=""width:200px; border:14px solid green;"">","null","","","","","","","","","",""
"","image-keyboard-response","140","142171","0.0-207.0","3E7TUJ2EGD8N956IANB6XAAN0NZD94","A3ITZNJQUTIZ4C","3ECKRY5B1QIH1N6NFX1ECCW5ZDKIZQ","","533.5999999642372","img/food2.png","74","535.1000000238419","1","1","false","1","2","1,0.5,0,1,0.5,0,0.5,0,1","1,0.5,0,1,0.5,0,0.5,0,1","1",""
"","html-keyboard-response","141","142474","0.0-208.0","3E7TUJ2EGD8N956IANB6XAAN0NZD94","A3ITZNJQUTIZ4C","3ECKRY5B1QIH1N6NFX1ECCW5ZDKIZQ","","null","<img src=""img/food2.png"" style=""width:200px; border:14px solid green;"">","null","","","","","","","","","",""
"","image-keyboard-response","142","142965","0.0-210.0","3E7TUJ2EGD8N956IANB6XAAN0NZD94","A3ITZNJQUTIZ4C","3ECKRY5B1QIH1N6NFX1ECCW5ZDKIZQ","","490.2999999523163","img/food2.png","74","491.30000001192093","1","1","false","1","2","1,0.5,0,1,0.5,0,0.5,0,1","1,0.5,0,1,0.5,0,0.5,0,1","1",""
"","html-keyboard-response","143","143275","0.0-211.0","3E7TUJ2EGD8N956IANB6XAAN0NZD94","A3ITZNJQUTIZ4C","3ECKRY5B1QIH1N6NFX1ECCW5ZDKIZQ","","null","<img src=""img/food2.png"" style=""width:200px; border:14px solid green;"">","null","","","","","","","","","",""
"","image-keyboard-response","144","143985","0.0-213.0","3E7TUJ2EGD8N956IANB6XAAN0NZD94","A3ITZNJQUTIZ4C","3ECKRY5B1QIH1N6NFX1ECCW5ZDKIZQ","","707.8999999761581","img/food4.png","75","709.6000000238419","2","1","false","2","2","1,0.5,0,1,0.5,0,0.5,0,1","1,0.5,0,1,0.5,0,0.5,0,1","1",""
"","html-keyboard-response","145","144294","0.0-214.0","3E7TUJ2EGD8N956IANB6XAAN0NZD94","A3ITZNJQUTIZ4C","3ECKRY5B1QIH1N6NFX1ECCW5ZDKIZQ","","null","<img src=""img/food4.png"" style=""width:200px; border:14px solid green;"">","null","","","","","","","","","",""
"","image-keyboard-response","146","144507","0.0-216.0","3E7TUJ2EGD8N956IANB6XAAN0NZD94","A3ITZNJQUTIZ4C","3ECKRY5B1QIH1N6NFX1ECCW5ZDKIZQ","","210.80000001192093","img/food2.png","75","212.29999995231628","2","1","false","1","2","1,0.5,0,1,0.5,0,0.5,0,1","1,0.5,0,1,0.5,0,0.5,0,1","1",""
"","html-keyboard-response","147","144814","0.0-217.0","3E7TUJ2EGD8N956IANB6XAAN0NZD94","A3ITZNJQUTIZ4C","3ECKRY5B1QIH1N6NFX1ECCW5ZDKIZQ","","null","<img src=""img/food2.png"" style=""width:200px; border:14px solid green;"">","null","","","","","","","","","",""
"","image-keyboard-response","148","145237","0.0-219.0","3E7TUJ2EGD8N956IANB6XAAN0NZD94","A3ITZNJQUTIZ4C","3ECKRY5B1QIH1N6NFX1ECCW5ZDKIZQ","","421.30000001192093","img/food4.png","75","422.5","2","1","false","2","2","1,0.5,0,1,0.5,0,0.5,0,1","1,0.5,0,1,0.5,0,0.5,0,1","1",""
"","html-keyboard-response","149","145546","0.0-220.0","3E7TUJ2EGD8N956IANB6XAAN0NZD94","A3ITZNJQUTIZ4C","3ECKRY5B1QIH1N6NFX1ECCW5ZDKIZQ","","null","<img src=""img/food4.png"" style=""width:200px; border:14px solid green;"">","null","","","","","","","","","",""
"","image-keyboard-response","150","145937","0.0-222.0","3E7TUJ2EGD8N956IANB6XAAN0NZD94","A3ITZNJQUTIZ4C","3ECKRY5B1QIH1N6NFX1ECCW5ZDKIZQ","","389.39999997615814","img/food4.png","75","391","2","0","false","2","2","1,0.5,0,1,0.5,0,0.5,0,1","1,0.5,0,1,0.5,0,0.5,0,1","1",""
"","html-keyboard-response","151","146242","0.0-223.0","3E7TUJ2EGD8N956IANB6XAAN0NZD94","A3ITZNJQUTIZ4C","3ECKRY5B1QIH1N6NFX1ECCW5ZDKIZQ","","null","<img src=""img/food4.png"" style=""width:200px;border:14px solid red;"">","null","","","","","","","","","",""
"","image-keyboard-response","152","146752","0.0-225.0","3E7TUJ2EGD8N956IANB6XAAN0NZD94","A3ITZNJQUTIZ4C","3ECKRY5B1QIH1N6NFX1ECCW5ZDKIZQ","","507.5999999642372","img/food4.png","74","509","1","1","false","2","2","1,0.5,0,1,0.5,0,0.5,0,1","1,0.5,0,1,0.5,0,0.5,0,1","1",""
"","html-keyboard-response","153","147063","0.0-226.0","3E7TUJ2EGD8N956IANB6XAAN0NZD94","A3ITZNJQUTIZ4C","3ECKRY5B1QIH1N6NFX1ECCW5ZDKIZQ","","null","<img src=""img/food4.png"" style=""width:200px; border:14px solid green;"">","null","","","","","","","","","",""
"","image-keyboard-response","154","147673","0.0-228.0","3E7TUJ2EGD8N956IANB6XAAN0NZD94","A3ITZNJQUTIZ4C","3ECKRY5B1QIH1N6NFX1ECCW5ZDKIZQ","","607.8999999761581","img/food2.png","74","609.1999999880791","1","1","false","1","2","1,0.5,0,1,0.5,0,0.5,0,1","1,0.5,0,1,0.5,0,0.5,0,1","1",""
"","html-keyboard-response","155","147979","0.0-229.0","3E7TUJ2EGD8N956IANB6XAAN0NZD94","A3ITZNJQUTIZ4C","3ECKRY5B1QIH1N6NFX1ECCW5ZDKIZQ","","null","<img src=""img/food2.png"" style=""width:200px; border:14px solid green;"">","null","","","","","","","","","",""
"","image-keyboard-response","156","148518","0.0-231.0","3E7TUJ2EGD8N956IANB6XAAN0NZD94","A3ITZNJQUTIZ4C","3ECKRY5B1QIH1N6NFX1ECCW5ZDKIZQ","","537","img/food4.png","74","538.3999999761581","1","1","false","2","2","1,0.5,0,1,0.5,0,0.5,0,1","1,0.5,0,1,0.5,0,0.5,0,1","1",""
"","html-keyboard-response","157","148834","0.0-232.0","3E7TUJ2EGD8N956IANB6XAAN0NZD94","A3ITZNJQUTIZ4C","3ECKRY5B1QIH1N6NFX1ECCW5ZDKIZQ","","null","<img src=""img/food4.png"" style=""width:200px; border:14px solid green;"">","null","","","","","","","","","",""
"","image-keyboard-response","158","149158","0.0-234.0","3E7TUJ2EGD8N956IANB6XAAN0NZD94","A3ITZNJQUTIZ4C","3ECKRY5B1QIH1N6NFX1ECCW5ZDKIZQ","","322.5","img/food4.png","74","323.80000001192093","1","1","false","2","2","1,0.5,0,1,0.5,0,0.5,0,1","1,0.5,0,1,0.5,0,0.5,0,1","1",""
"","html-keyboard-response","159","149472","0.0-235.0","3E7TUJ2EGD8N956IANB6XAAN0NZD94","A3ITZNJQUTIZ4C","3ECKRY5B1QIH1N6NFX1ECCW5ZDKIZQ","","null","<img src=""img/food4.png"" style=""width:200px; border:14px solid green;"">","null","","","","","","","","","",""
"","image-keyboard-response","160","149920","0.0-237.0","3E7TUJ2EGD8N956IANB6XAAN0NZD94","A3ITZNJQUTIZ4C","3ECKRY5B1QIH1N6NFX1ECCW5ZDKIZQ","","445.60000002384186","img/food6.png","76","447.2000000476837","3","1","false","3","2","1,0.5,0,1,0.5,0,0.5,0,1","1,0.5,0,1,0.5,0,0.5,0,1","1",""
"","html-keyboard-response","161","150226","0.0-238.0","3E7TUJ2EGD8N956IANB6XAAN0NZD94","A3ITZNJQUTIZ4C","3ECKRY5B1QIH1N6NFX1ECCW5ZDKIZQ","","null","<img src=""img/food6.png"" style=""width:200px; border:14px solid green;"">","null","","","","","","","","","",""
"","image-keyboard-response","162","150625","0.0-240.0","3E7TUJ2EGD8N956IANB6XAAN0NZD94","A3ITZNJQUTIZ4C","3ECKRY5B1QIH1N6NFX1ECCW5ZDKIZQ","","397.5999999642372","img/food6.png","76","398.69999998807907","3","1","false","3","2","1,0.5,0,1,0.5,0,0.5,0,1","1,0.5,0,1,0.5,0,0.5,0,1","1",""
"","html-keyboard-response","163","150928","0.0-241.0","3E7TUJ2EGD8N956IANB6XAAN0NZD94","A3ITZNJQUTIZ4C","3ECKRY5B1QIH1N6NFX1ECCW5ZDKIZQ","","null","<img src=""img/food6.png"" style=""width:200px; border:14px solid green;"">","null","","","","","","","","","",""
"","image-keyboard-response","164","151378","0.0-243.0","3E7TUJ2EGD8N956IANB6XAAN0NZD94","A3ITZNJQUTIZ4C","3ECKRY5B1QIH1N6NFX1ECCW5ZDKIZQ","","447.80000001192093","img/food4.png","74","449.19999998807907","1","1","false","2","2","1,0.5,0,1,0.5,0,0.5,0,1","1,0.5,0,1,0.5,0,0.5,0,1","1",""
"","html-keyboard-response","165","151689","0.0-244.0","3E7TUJ2EGD8N956IANB6XAAN0NZD94","A3ITZNJQUTIZ4C","3ECKRY5B1QIH1N6NFX1ECCW5ZDKIZQ","","null","<img src=""img/food4.png"" style=""width:200px; border:14px solid green;"">","null","","","","","","","","","",""
"","image-keyboard-response","166","151860","0.0-246.0","3E7TUJ2EGD8N956IANB6XAAN0NZD94","A3ITZNJQUTIZ4C","3ECKRY5B1QIH1N6NFX1ECCW5ZDKIZQ","","169.5","img/food6.png","74","170.80000001192093","1","0","false","3","2","1,0.5,0,1,0.5,0,0.5,0,1","1,0.5,0,1,0.5,0,0.5,0,1","1",""
"","html-keyboard-response","167","152173","0.0-247.0","3E7TUJ2EGD8N956IANB6XAAN0NZD94","A3ITZNJQUTIZ4C","3ECKRY5B1QIH1N6NFX1ECCW5ZDKIZQ","","null","<img src=""img/food6.png"" style=""width:200px;border:14px solid red;"">","null","","","","","","","","","",""
"","image-keyboard-response","168","152729","0.0-249.0","3E7TUJ2EGD8N956IANB6XAAN0NZD94","A3ITZNJQUTIZ4C","3ECKRY5B1QIH1N6NFX1ECCW5ZDKIZQ","","553.8000000119209","img/food2.png","74","555.3999999761581","1","1","false","1","2","1,0.5,0,1,0.5,0,0.5,0,1","1,0.5,0,1,0.5,0,0.5,0,1","1",""
"","html-keyboard-response","169","153045","0.0-250.0","3E7TUJ2EGD8N956IANB6XAAN0NZD94","A3ITZNJQUTIZ4C","3ECKRY5B1QIH1N6NFX1ECCW5ZDKIZQ","","null","<img src=""img/food2.png"" style=""width:200px; border:14px solid green;"">","null","","","","","","","","","",""
"","image-keyboard-response","170","153184","0.0-252.0","3E7TUJ2EGD8N956IANB6XAAN0NZD94","A3ITZNJQUTIZ4C","3ECKRY5B1QIH1N6NFX1ECCW5ZDKIZQ","","136.5","img/food6.png","74","138.0999999642372","1","1","false","3","2","1,0.5,0,1,0.5,0,0.5,0,1","1,0.5,0,1,0.5,0,0.5,0,1","1",""
"","html-keyboard-response","171","153492","0.0-253.0","3E7TUJ2EGD8N956IANB6XAAN0NZD94","A3ITZNJQUTIZ4C","3ECKRY5B1QIH1N6NFX1ECCW5ZDKIZQ","","null","<img src=""img/food6.png"" style=""width:200px; border:14px solid green;"">","null","","","","","","","","","",""
"","image-keyboard-response","172","153900","0.0-255.0","3E7TUJ2EGD8N956IANB6XAAN0NZD94","A3ITZNJQUTIZ4C","3ECKRY5B1QIH1N6NFX1ECCW5ZDKIZQ","","405.80000001192093","img/food4.png","74","407.19999998807907","1","1","false","2","2","1,0.5,0,1,0.5,0,0.5,0,1","1,0.5,0,1,0.5,0,0.5,0,1","1",""
"","html-keyboard-response","173","154209","0.0-256.0","3E7TUJ2EGD8N956IANB6XAAN0NZD94","A3ITZNJQUTIZ4C","3ECKRY5B1QIH1N6NFX1ECCW5ZDKIZQ","","null","<img src=""img/food4.png"" style=""width:200px; border:14px solid green;"">","null","","","","","","","","","",""
"","image-keyboard-response","174","154769","0.0-258.0","3E7TUJ2EGD8N956IANB6XAAN0NZD94","A3ITZNJQUTIZ4C","3ECKRY5B1QIH1N6NFX1ECCW5ZDKIZQ","","557.2999999523163","img/food6.png","76","558.6999999880791","3","1","false","3","2","1,0.5,0,1,0.5,0,0.5,0,1","1,0.5,0,1,0.5,0,0.5,0,1","1",""
"","html-keyboard-response","175","155074","0.0-259.0","3E7TUJ2EGD8N956IANB6XAAN0NZD94","A3ITZNJQUTIZ4C","3ECKRY5B1QIH1N6NFX1ECCW5ZDKIZQ","","null","<img src=""img/food6.png"" style=""width:200px; border:14px solid green;"">","null","","","","","","","","","",""
"","image-keyboard-response","176","155565","0.0-261.0","3E7TUJ2EGD8N956IANB6XAAN0NZD94","A3ITZNJQUTIZ4C","3ECKRY5B1QIH1N6NFX1ECCW5ZDKIZQ","","488.69999998807907","img/food2.png","74","490.2000000476837","1","1","false","1","2","1,0.5,0,1,0.5,0,0.5,0,1","1,0.5,0,1,0.5,0,0.5,0,1","1",""
"","html-keyboard-response","177","155871","0.0-262.0","3E7TUJ2EGD8N956IANB6XAAN0NZD94","A3ITZNJQUTIZ4C","3ECKRY5B1QIH1N6NFX1ECCW5ZDKIZQ","","null","<img src=""img/food2.png"" style=""width:200px; border:14px solid green;"">","null","","","","","","","","","",""
"","image-keyboard-response","178","156322","0.0-264.0","3E7TUJ2EGD8N956IANB6XAAN0NZD94","A3ITZNJQUTIZ4C","3ECKRY5B1QIH1N6NFX1ECCW5ZDKIZQ","","448.60000002384186","img/food6.png","74","449.80000001192093","1","0","false","3","2","1,0.5,0,1,0.5,0,0.5,0,1","1,0.5,0,1,0.5,0,0.5,0,1","1",""
"","html-keyboard-response","179","156628","0.0-265.0","3E7TUJ2EGD8N956IANB6XAAN0NZD94","A3ITZNJQUTIZ4C","3ECKRY5B1QIH1N6NFX1ECCW5ZDKIZQ","","null","<img src=""img/food6.png"" style=""width:200px;border:14px solid red;"">","null","","","","","","","","","",""
"","image-keyboard-response","180","157127","0.0-267.0","3E7TUJ2EGD8N956IANB6XAAN0NZD94","A3ITZNJQUTIZ4C","3ECKRY5B1QIH1N6NFX1ECCW5ZDKIZQ","","497.69999998807907","img/food2.png","74","499.19999998807907","1","1","false","1","2","1,0.5,0,1,0.5,0,0.5,0,1","1,0.5,0,1,0.5,0,0.5,0,1","1",""
"","html-keyboard-response","181","157438","0.0-268.0","3E7TUJ2EGD8N956IANB6XAAN0NZD94","A3ITZNJQUTIZ4C","3ECKRY5B1QIH1N6NFX1ECCW5ZDKIZQ","","null","<img src=""img/food2.png"" style=""width:200px; border:14px solid green;"">","null","","","","","","","","","",""
"","image-keyboard-response","182","157879","0.0-270.0","3E7TUJ2EGD8N956IANB6XAAN0NZD94","A3ITZNJQUTIZ4C","3ECKRY5B1QIH1N6NFX1ECCW5ZDKIZQ","","437.69999998807907","img/food2.png","74","439.2999999523163","1","1","false","1","2","1,0.5,0,1,0.5,0,0.5,0,1","1,0.5,0,1,0.5,0,0.5,0,1","1",""
"","html-keyboard-response","183","158189","0.0-271.0","3E7TUJ2EGD8N956IANB6XAAN0NZD94","A3ITZNJQUTIZ4C","3ECKRY5B1QIH1N6NFX1ECCW5ZDKIZQ","","null","<img src=""img/food2.png"" style=""width:200px; border:14px solid green;"">","null","","","","","","","","","",""
"","instructions","184","171096","0.0-273.0","3E7TUJ2EGD8N956IANB6XAAN0NZD94","A3ITZNJQUTIZ4C","3ECKRY5B1QIH1N6NFX1ECCW5ZDKIZQ","[{""page_index"":0,""viewing_time"":10707.300000011921},{""page_index"":1,""viewing_time"":2197.899999976158}]","12905.399999976158","","","","","","","","","","","",""
"","image-keyboard-response","185","172183","0.0-274.0","3E7TUJ2EGD8N956IANB6XAAN0NZD94","A3ITZNJQUTIZ4C","3ECKRY5B1QIH1N6NFX1ECCW5ZDKIZQ","","1085.7000000476837","img/food1.png","76","1087.0999999642372","3","0","","1","1","1,0.5,0,1,0.5,0,0.5,0,1","1,0.5,0,1,0.5,0,0.5,0,1","1",""
"","html-keyboard-response","186","172494","0.0-275.0","3E7TUJ2EGD8N956IANB6XAAN0NZD94","A3ITZNJQUTIZ4C","3ECKRY5B1QIH1N6NFX1ECCW5ZDKIZQ","","null","<img src=""img/food1.png"" style=""width:200px;border:14px solid red;"">","null","","","","","","","","","",""
"","image-keyboard-response","187","172859","0.0-276.0","3E7TUJ2EGD8N956IANB6XAAN0NZD94","A3ITZNJQUTIZ4C","3ECKRY5B1QIH1N6NFX1ECCW5ZDKIZQ","","364","img/food1.png","75","364.69999998807907","2","1","","1","1","1,0.5,0,1,0.5,0,0.5,0,1","1,0.5,0,1,0.5,0,0.5,0,1","1",""
"","html-keyboard-response","188","173162","0.0-277.0","3E7TUJ2EGD8N956IANB6XAAN0NZD94","A3ITZNJQUTIZ4C","3ECKRY5B1QIH1N6NFX1ECCW5ZDKIZQ","","null","<img src=""img/food1.png"" style=""width:200px; border:14px solid green;"">","null","","","","","","","","","",""
"","image-keyboard-response","189","173728","0.0-278.0","3E7TUJ2EGD8N956IANB6XAAN0NZD94","A3ITZNJQUTIZ4C","3ECKRY5B1QIH1N6NFX1ECCW5ZDKIZQ","","564","img/food1.png","75","565.4000000357628","2","1","","1","1","1,0.5,0,1,0.5,0,0.5,0,1","1,0.5,0,1,0.5,0,0.5,0,1","1",""
"","html-keyboard-response","190","174032","0.0-279.0","3E7TUJ2EGD8N956IANB6XAAN0NZD94","A3ITZNJQUTIZ4C","3ECKRY5B1QIH1N6NFX1ECCW5ZDKIZQ","","null","<img src=""img/food1.png"" style=""width:200px; border:14px solid green;"">","null","","","","","","","","","",""
"","image-keyboard-response","191","174478","0.0-280.0","3E7TUJ2EGD8N956IANB6XAAN0NZD94","A3ITZNJQUTIZ4C","3ECKRY5B1QIH1N6NFX1ECCW5ZDKIZQ","","443.7999999523163","img/food1.png","75","445.2999999523163","2","1","","1","1","1,0.5,0,1,0.5,0,0.5,0,1","1,0.5,0,1,0.5,0,0.5,0,1","1",""
"","html-keyboard-response","192","174785","0.0-281.0","3E7TUJ2EGD8N956IANB6XAAN0NZD94","A3ITZNJQUTIZ4C","3ECKRY5B1QIH1N6NFX1ECCW5ZDKIZQ","","null","<img src=""img/food1.png"" style=""width:200px; border:14px solid green;"">","null","","","","","","","","","",""
"","image-keyboard-response","193","175305","0.0-282.0","3E7TUJ2EGD8N956IANB6XAAN0NZD94","A3ITZNJQUTIZ4C","3ECKRY5B1QIH1N6NFX1ECCW5ZDKIZQ","","518","img/food1.png","75","519.5","2","1","","1","1","1,0.5,0,1,0.5,0,0.5,0,1","1,0.5,0,1,0.5,0,0.5,0,1","1",""
"","html-keyboard-response","194","175611","0.0-283.0","3E7TUJ2EGD8N956IANB6XAAN0NZD94","A3ITZNJQUTIZ4C","3ECKRY5B1QIH1N6NFX1ECCW5ZDKIZQ","","null","<img src=""img/food1.png"" style=""width:200px; border:14px solid green;"">","null","","","","","","","","","",""
"","image-keyboard-response","195","176232","0.0-284.0","3E7TUJ2EGD8N956IANB6XAAN0NZD94","A3ITZNJQUTIZ4C","3ECKRY5B1QIH1N6NFX1ECCW5ZDKIZQ","","618.7000000476837","img/food3.png","74","620.1000000238419","1","0","","3","1","1,0.5,0,1,0.5,0,0.5,0,1","1,0.5,0,1,0.5,0,0.5,0,1","1",""
"","html-keyboard-response","196","176543","0.0-285.0","3E7TUJ2EGD8N956IANB6XAAN0NZD94","A3ITZNJQUTIZ4C","3ECKRY5B1QIH1N6NFX1ECCW5ZDKIZQ","","null","<img src=""img/food3.png"" style=""width:200px;border:14px solid red;"">","null","","","","","","","","","",""
"","image-keyboard-response","197","176967","0.0-286.0","3E7TUJ2EGD8N956IANB6XAAN0NZD94","A3ITZNJQUTIZ4C","3ECKRY5B1QIH1N6NFX1ECCW5ZDKIZQ","","422.9000000357628","img/food3.png","76","424.5","3","1","","3","1","1,0.5,0,1,0.5,0,0.5,0,1","1,0.5,0,1,0.5,0,0.5,0,1","1",""
"","html-keyboard-response","198","177279","0.0-287.0","3E7TUJ2EGD8N956IANB6XAAN0NZD94","A3ITZNJQUTIZ4C","3ECKRY5B1QIH1N6NFX1ECCW5ZDKIZQ","","null","<img src=""img/food3.png"" style=""width:200px; border:14px solid green;"">","null","","","","","","","","","",""
"","image-keyboard-response","199","177663","0.0-288.0","3E7TUJ2EGD8N956IANB6XAAN0NZD94","A3ITZNJQUTIZ4C","3ECKRY5B1QIH1N6NFX1ECCW5ZDKIZQ","","382.39999997615814","img/food3.png","76","383.69999998807907","3","1","","3","1","1,0.5,0,1,0.5,0,0.5,0,1","1,0.5,0,1,0.5,0,0.5,0,1","1",""
"","html-keyboard-response","200","177972","0.0-289.0","3E7TUJ2EGD8N956IANB6XAAN0NZD94","A3ITZNJQUTIZ4C","3ECKRY5B1QIH1N6NFX1ECCW5ZDKIZQ","","null","<img src=""img/food3.png"" style=""width:200px; border:14px solid green;"">","null","","","","","","","","","",""
"","image-keyboard-response","201","178737","0.0-290.0","3E7TUJ2EGD8N956IANB6XAAN0NZD94","A3ITZNJQUTIZ4C","3ECKRY5B1QIH1N6NFX1ECCW5ZDKIZQ","","763.3999999761581","img/food5.png","74","764.7999999523163","1","1","","2","1","1,0.5,0,1,0.5,0,0.5,0,1","1,0.5,0,1,0.5,0,0.5,0,1","1",""
"","html-keyboard-response","202","179040","0.0-291.0","3E7TUJ2EGD8N956IANB6XAAN0NZD94","A3ITZNJQUTIZ4C","3ECKRY5B1QIH1N6NFX1ECCW5ZDKIZQ","","null","<img src=""img/food5.png"" style=""width:200px; border:14px solid green;"">","null","","","","","","","","","",""
"","image-keyboard-response","203","179823","0.0-292.0","3E7TUJ2EGD8N956IANB6XAAN0NZD94","A3ITZNJQUTIZ4C","3ECKRY5B1QIH1N6NFX1ECCW5ZDKIZQ","","782.1999999880791","img/food1.png","75","783.5","2","1","","1","1","1,0.5,0,1,0.5,0,0.5,0,1","1,0.5,0,1,0.5,0,0.5,0,1","1",""
"","html-keyboard-response","204","180133","0.0-293.0","3E7TUJ2EGD8N956IANB6XAAN0NZD94","A3ITZNJQUTIZ4C","3ECKRY5B1QIH1N6NFX1ECCW5ZDKIZQ","","null","<img src=""img/food1.png"" style=""width:200px; border:14px solid green;"">","null","","","","","","","","","",""
"","image-keyboard-response","205","181310","0.0-294.0","3E7TUJ2EGD8N956IANB6XAAN0NZD94","A3ITZNJQUTIZ4C","3ECKRY5B1QIH1N6NFX1ECCW5ZDKIZQ","","1175.5","img/food3.png","74","1177","1","1","","3","1","1,0.5,0,1,0.5,0,0.5,0,1","1,0.5,0,1,0.5,0,0.5,0,1","1",""
"","html-keyboard-response","206","181629","0.0-295.0","3E7TUJ2EGD8N956IANB6XAAN0NZD94","A3ITZNJQUTIZ4C","3ECKRY5B1QIH1N6NFX1ECCW5ZDKIZQ","","null","<img src=""img/food3.png"" style=""width:200px; border:14px solid green;"">","null","","","","","","","","","",""
"","image-keyboard-response","207","183134","0.0-296.0","3E7TUJ2EGD8N956IANB6XAAN0NZD94","A3ITZNJQUTIZ4C","3ECKRY5B1QIH1N6NFX1ECCW5ZDKIZQ","","1503.5","img/food5.png","76","1505","3","0","","2","1","1,0.5,0,1,0.5,0,0.5,0,1","1,0.5,0,1,0.5,0,0.5,0,1","1",""
"","html-keyboard-response","208","183446","0.0-297.0","3E7TUJ2EGD8N956IANB6XAAN0NZD94","A3ITZNJQUTIZ4C","3ECKRY5B1QIH1N6NFX1ECCW5ZDKIZQ","","null","<img src=""img/food5.png"" style=""width:200px;border:14px solid red;"">","null","","","","","","","","","",""
"","image-keyboard-response","209","184439","0.0-298.0","3E7TUJ2EGD8N956IANB6XAAN0NZD94","A3ITZNJQUTIZ4C","3ECKRY5B1QIH1N6NFX1ECCW5ZDKIZQ","","991.9000000357628","img/food1.png","75","993.2000000476837","2","1","","1","1","1,0.5,0,1,0.5,0,0.5,0,1","1,0.5,0,1,0.5,0,0.5,0,1","1",""
"","html-keyboard-response","210","184744","0.0-299.0","3E7TUJ2EGD8N956IANB6XAAN0NZD94","A3ITZNJQUTIZ4C","3ECKRY5B1QIH1N6NFX1ECCW5ZDKIZQ","","null","<img src=""img/food1.png"" style=""width:200px; border:14px solid green;"">","null","","","","","","","","","",""
"","image-keyboard-response","211","185201","0.0-300.0","3E7TUJ2EGD8N956IANB6XAAN0NZD94","A3ITZNJQUTIZ4C","3ECKRY5B1QIH1N6NFX1ECCW5ZDKIZQ","","455.10000002384186","img/food1.png","75","456.19999998807907","2","0","","1","1","1,0.5,0,1,0.5,0,0.5,0,1","1,0.5,0,1,0.5,0,0.5,0,1","1",""
"","html-keyboard-response","212","185506","0.0-301.0","3E7TUJ2EGD8N956IANB6XAAN0NZD94","A3ITZNJQUTIZ4C","3ECKRY5B1QIH1N6NFX1ECCW5ZDKIZQ","","null","<img src=""img/food1.png"" style=""width:200px;border:14px solid red;"">","null","","","","","","","","","",""
"","image-keyboard-response","213","185924","0.0-302.0","3E7TUJ2EGD8N956IANB6XAAN0NZD94","A3ITZNJQUTIZ4C","3ECKRY5B1QIH1N6NFX1ECCW5ZDKIZQ","","416","img/food1.png","75","417.69999998807907","2","1","","1","1","1,0.5,0,1,0.5,0,0.5,0,1","1,0.5,0,1,0.5,0,0.5,0,1","1",""
"","html-keyboard-response","214","186245","0.0-303.0","3E7TUJ2EGD8N956IANB6XAAN0NZD94","A3ITZNJQUTIZ4C","3ECKRY5B1QIH1N6NFX1ECCW5ZDKIZQ","","null","<img src=""img/food1.png"" style=""width:200px; border:14px solid green;"">","null","","","","","","","","","",""
"","image-keyboard-response","215","187034","0.0-304.0","3E7TUJ2EGD8N956IANB6XAAN0NZD94","A3ITZNJQUTIZ4C","3ECKRY5B1QIH1N6NFX1ECCW5ZDKIZQ","","786.3000000119209","img/food3.png","74","788.1000000238419","1","1","","3","1","1,0.5,0,1,0.5,0,0.5,0,1","1,0.5,0,1,0.5,0,0.5,0,1","1",""
"","html-keyboard-response","216","187338","0.0-305.0","3E7TUJ2EGD8N956IANB6XAAN0NZD94","A3ITZNJQUTIZ4C","3ECKRY5B1QIH1N6NFX1ECCW5ZDKIZQ","","null","<img src=""img/food3.png"" style=""width:200px; border:14px solid green;"">","null","","","","","","","","","",""
"","image-keyboard-response","217","188064","0.0-306.0","3E7TUJ2EGD8N956IANB6XAAN0NZD94","A3ITZNJQUTIZ4C","3ECKRY5B1QIH1N6NFX1ECCW5ZDKIZQ","","724.1000000238419","img/food5.png","76","725.7000000476837","3","0","","2","1","1,0.5,0,1,0.5,0,0.5,0,1","1,0.5,0,1,0.5,0,0.5,0,1","1",""
"","html-keyboard-response","218","188377","0.0-307.0","3E7TUJ2EGD8N956IANB6XAAN0NZD94","A3ITZNJQUTIZ4C","3ECKRY5B1QIH1N6NFX1ECCW5ZDKIZQ","","null","<img src=""img/food5.png"" style=""width:200px;border:14px solid red;"">","null","","","","","","","","","",""
"","image-keyboard-response","219","189047","0.0-308.0","3E7TUJ2EGD8N956IANB6XAAN0NZD94","A3ITZNJQUTIZ4C","3ECKRY5B1QIH1N6NFX1ECCW5ZDKIZQ","","667.8999999761581","img/food1.png","75","669.2000000476837","2","0","","1","1","1,0.5,0,1,0.5,0,0.5,0,1","1,0.5,0,1,0.5,0,0.5,0,1","1",""
"","html-keyboard-response","220","189358","0.0-309.0","3E7TUJ2EGD8N956IANB6XAAN0NZD94","A3ITZNJQUTIZ4C","3ECKRY5B1QIH1N6NFX1ECCW5ZDKIZQ","","null","<img src=""img/food1.png"" style=""width:200px;border:14px solid red;"">","null","","","","","","","","","",""
"","image-keyboard-response","221","190658","0.0-310.0","3E7TUJ2EGD8N956IANB6XAAN0NZD94","A3ITZNJQUTIZ4C","3ECKRY5B1QIH1N6NFX1ECCW5ZDKIZQ","","1298.4000000357628","img/food3.png","75","1299.3999999761581","2","0","","3","1","1,0.5,0,1,0.5,0,0.5,0,1","1,0.5,0,1,0.5,0,0.5,0,1","1",""
"","html-keyboard-response","222","190965","0.0-311.0","3E7TUJ2EGD8N956IANB6XAAN0NZD94","A3ITZNJQUTIZ4C","3ECKRY5B1QIH1N6NFX1ECCW5ZDKIZQ","","null","<img src=""img/food3.png"" style=""width:200px;border:14px solid red;"">","null","","","","","","","","","",""
"","image-keyboard-response","223","191681","0.0-312.0","3E7TUJ2EGD8N956IANB6XAAN0NZD94","A3ITZNJQUTIZ4C","3ECKRY5B1QIH1N6NFX1ECCW5ZDKIZQ","","714.1000000238419","img/food1.png","74","715.5","1","1","","1","1","1,0.5,0,1,0.5,0,0.5,0,1","1,0.5,0,1,0.5,0,0.5,0,1","1",""
"","html-keyboard-response","224","191984","0.0-313.0","3E7TUJ2EGD8N956IANB6XAAN0NZD94","A3ITZNJQUTIZ4C","3ECKRY5B1QIH1N6NFX1ECCW5ZDKIZQ","","null","<img src=""img/food1.png"" style=""width:200px; border:14px solid green;"">","null","","","","","","","","","",""
"","image-keyboard-response","225","193005","0.0-314.0","3E7TUJ2EGD8N956IANB6XAAN0NZD94","A3ITZNJQUTIZ4C","3ECKRY5B1QIH1N6NFX1ECCW5ZDKIZQ","","1018.6999999880791","img/food3.png","76","1020.3000000119209","3","1","","3","1","1,0.5,0,1,0.5,0,0.5,0,1","1,0.5,0,1,0.5,0,0.5,0,1","1",""
"","html-keyboard-response","226","193311","0.0-315.0","3E7TUJ2EGD8N956IANB6XAAN0NZD94","A3ITZNJQUTIZ4C","3ECKRY5B1QIH1N6NFX1ECCW5ZDKIZQ","","null","<img src=""img/food3.png"" style=""width:200px; border:14px solid green;"">","null","","","","","","","","","",""
"","image-keyboard-response","227","193823","0.0-316.0","3E7TUJ2EGD8N956IANB6XAAN0NZD94","A3ITZNJQUTIZ4C","3ECKRY5B1QIH1N6NFX1ECCW5ZDKIZQ","","510.19999998807907","img/food3.png","76","511.4000000357628","3","1","","3","1","1,0.5,0,1,0.5,0,0.5,0,1","1,0.5,0,1,0.5,0,0.5,0,1","1",""
"","html-keyboard-response","228","194136","0.0-317.0","3E7TUJ2EGD8N956IANB6XAAN0NZD94","A3ITZNJQUTIZ4C","3ECKRY5B1QIH1N6NFX1ECCW5ZDKIZQ","","null","<img src=""img/food3.png"" style=""width:200px; border:14px solid green;"">","null","","","","","","","","","",""
"","image-keyboard-response","229","194561","0.0-318.0","3E7TUJ2EGD8N956IANB6XAAN0NZD94","A3ITZNJQUTIZ4C","3ECKRY5B1QIH1N6NFX1ECCW5ZDKIZQ","","423.0999999642372","img/food3.png","76","424.5999999642372","3","1","","3","1","1,0.5,0,1,0.5,0,0.5,0,1","1,0.5,0,1,0.5,0,0.5,0,1","1",""
"","html-keyboard-response","230","194864","0.0-319.0","3E7TUJ2EGD8N956IANB6XAAN0NZD94","A3ITZNJQUTIZ4C","3ECKRY5B1QIH1N6NFX1ECCW5ZDKIZQ","","null","<img src=""img/food3.png"" style=""width:200px; border:14px solid green;"">","null","","","","","","","","","",""
"","image-keyboard-response","231","196114","0.0-320.0","3E7TUJ2EGD8N956IANB6XAAN0NZD94","A3ITZNJQUTIZ4C","3ECKRY5B1QIH1N6NFX1ECCW5ZDKIZQ","","1248.199999988079","img/food5.png","74","1249.6000000238419","1","1","","2","1","1,0.5,0,1,0.5,0,0.5,0,1","1,0.5,0,1,0.5,0,0.5,0,1","1",""
"","html-keyboard-response","232","196422","0.0-321.0","3E7TUJ2EGD8N956IANB6XAAN0NZD94","A3ITZNJQUTIZ4C","3ECKRY5B1QIH1N6NFX1ECCW5ZDKIZQ","","null","<img src=""img/food5.png"" style=""width:200px; border:14px solid green;"">","null","","","","","","","","","",""
"","image-keyboard-response","233","196840","0.0-322.0","3E7TUJ2EGD8N956IANB6XAAN0NZD94","A3ITZNJQUTIZ4C","3ECKRY5B1QIH1N6NFX1ECCW5ZDKIZQ","","415.60000002384186","img/food5.png","74","417","1","1","","2","1","1,0.5,0,1,0.5,0,0.5,0,1","1,0.5,0,1,0.5,0,0.5,0,1","1",""
"","html-keyboard-response","234","197146","0.0-323.0","3E7TUJ2EGD8N956IANB6XAAN0NZD94","A3ITZNJQUTIZ4C","3ECKRY5B1QIH1N6NFX1ECCW5ZDKIZQ","","null","<img src=""img/food5.png"" style=""width:200px; border:14px solid green;"">","null","","","","","","","","","",""
"","image-keyboard-response","235","197522","0.0-324.0","3E7TUJ2EGD8N956IANB6XAAN0NZD94","A3ITZNJQUTIZ4C","3ECKRY5B1QIH1N6NFX1ECCW5ZDKIZQ","","375.4000000357628","img/food5.png","74","376.5","1","1","","2","1","1,0.5,0,1,0.5,0,0.5,0,1","1,0.5,0,1,0.5,0,0.5,0,1","1",""
"","html-keyboard-response","236","197830","0.0-325.0","3E7TUJ2EGD8N956IANB6XAAN0NZD94","A3ITZNJQUTIZ4C","3ECKRY5B1QIH1N6NFX1ECCW5ZDKIZQ","","null","<img src=""img/food5.png"" style=""width:200px; border:14px solid green;"">","null","","","","","","","","","",""
"","image-keyboard-response","237","198177","0.0-326.0","3E7TUJ2EGD8N956IANB6XAAN0NZD94","A3ITZNJQUTIZ4C","3ECKRY5B1QIH1N6NFX1ECCW5ZDKIZQ","","344.80000001192093","img/food5.png","74","346.39999997615814","1","1","","2","1","1,0.5,0,1,0.5,0,0.5,0,1","1,0.5,0,1,0.5,0,0.5,0,1","1",""
"","html-keyboard-response","238","198481","0.0-327.0","3E7TUJ2EGD8N956IANB6XAAN0NZD94","A3ITZNJQUTIZ4C","3ECKRY5B1QIH1N6NFX1ECCW5ZDKIZQ","","null","<img src=""img/food5.png"" style=""width:200px; border:14px solid green;"">","null","","","","","","","","","",""
"","image-keyboard-response","239","198818","0.0-328.0","3E7TUJ2EGD8N956IANB6XAAN0NZD94","A3ITZNJQUTIZ4C","3ECKRY5B1QIH1N6NFX1ECCW5ZDKIZQ","","335.5999999642372","img/food5.png","74","336.80000001192093","1","1","","2","1","1,0.5,0,1,0.5,0,0.5,0,1","1,0.5,0,1,0.5,0,0.5,0,1","1",""
"","html-keyboard-response","240","199125","0.0-329.0","3E7TUJ2EGD8N956IANB6XAAN0NZD94","A3ITZNJQUTIZ4C","3ECKRY5B1QIH1N6NFX1ECCW5ZDKIZQ","","null","<img src=""img/food5.png"" style=""width:200px; border:14px solid green;"">","null","","","","","","","","","",""
"","image-keyboard-response","241","200297","0.0-330.0","3E7TUJ2EGD8N956IANB6XAAN0NZD94","A3ITZNJQUTIZ4C","3ECKRY5B1QIH1N6NFX1ECCW5ZDKIZQ","","1169.5","img/food1.png","75","1170.6000000238419","2","0","","1","1","1,0.5,0,1,0.5,0,0.5,0,1","1,0.5,0,1,0.5,0,0.5,0,1","1",""
"","html-keyboard-response","242","200605","0.0-331.0","3E7TUJ2EGD8N956IANB6XAAN0NZD94","A3ITZNJQUTIZ4C","3ECKRY5B1QIH1N6NFX1ECCW5ZDKIZQ","","null","<img src=""img/food1.png"" style=""width:200px;border:14px solid red;"">","null","","","","","","","","","",""
"","image-keyboard-response","243","201480","0.0-332.0","3E7TUJ2EGD8N956IANB6XAAN0NZD94","A3ITZNJQUTIZ4C","3ECKRY5B1QIH1N6NFX1ECCW5ZDKIZQ","","873.5999999642372","img/food3.png","76","874.5","3","1","","3","1","1,0.5,0,1,0.5,0,0.5,0,1","1,0.5,0,1,0.5,0,0.5,0,1","1",""
"","html-keyboard-response","244","201791","0.0-333.0","3E7TUJ2EGD8N956IANB6XAAN0NZD94","A3ITZNJQUTIZ4C","3ECKRY5B1QIH1N6NFX1ECCW5ZDKIZQ","","null","<img src=""img/food3.png"" style=""width:200px; border:14px solid green;"">","null","","","","","","","","","",""
"","image-keyboard-response","245","203415","0.0-334.0","3E7TUJ2EGD8N956IANB6XAAN0NZD94","A3ITZNJQUTIZ4C","3ECKRY5B1QIH1N6NFX1ECCW5ZDKIZQ","","1623","img/food5.png","74","1623.7999999523163","1","1","","2","1","1,0.5,0,1,0.5,0,0.5,0,1","1,0.5,0,1,0.5,0,0.5,0,1","1",""
"","html-keyboard-response","246","203725","0.0-335.0","3E7TUJ2EGD8N956IANB6XAAN0NZD94","A3ITZNJQUTIZ4C","3ECKRY5B1QIH1N6NFX1ECCW5ZDKIZQ","","null","<img src=""img/food5.png"" style=""width:200px; border:14px solid green;"">","null","","","","","","","","","",""
"","image-keyboard-response","247","204383","0.0-336.0","3E7TUJ2EGD8N956IANB6XAAN0NZD94","A3ITZNJQUTIZ4C","3ECKRY5B1QIH1N6NFX1ECCW5ZDKIZQ","","656","img/food1.png","74","657","1","1","","1","1","1,0.5,0,1,0.5,0,0.5,0,1","1,0.5,0,1,0.5,0,0.5,0,1","1",""
"","html-keyboard-response","248","204693","0.0-337.0","3E7TUJ2EGD8N956IANB6XAAN0NZD94","A3ITZNJQUTIZ4C","3ECKRY5B1QIH1N6NFX1ECCW5ZDKIZQ","","null","<img src=""img/food1.png"" style=""width:200px; border:14px solid green;"">","null","","","","","","","","","",""
"","image-keyboard-response","249","205151","0.0-338.0","3E7TUJ2EGD8N956IANB6XAAN0NZD94","A3ITZNJQUTIZ4C","3ECKRY5B1QIH1N6NFX1ECCW5ZDKIZQ","","457","img/food1.png","74","457.89999997615814","1","1","","1","1","1,0.5,0,1,0.5,0,0.5,0,1","1,0.5,0,1,0.5,0,0.5,0,1","1",""
"","html-keyboard-response","250","205455","0.0-339.0","3E7TUJ2EGD8N956IANB6XAAN0NZD94","A3ITZNJQUTIZ4C","3ECKRY5B1QIH1N6NFX1ECCW5ZDKIZQ","","null","<img src=""img/food1.png"" style=""width:200px; border:14px solid green;"">","null","","","","","","","","","",""
"","image-keyboard-response","251","206291","0.0-340.0","3E7TUJ2EGD8N956IANB6XAAN0NZD94","A3ITZNJQUTIZ4C","3ECKRY5B1QIH1N6NFX1ECCW5ZDKIZQ","","835.8000000119209","img/food3.png","76","836.8000000119209","3","1","","3","1","1,0.5,0,1,0.5,0,0.5,0,1","1,0.5,0,1,0.5,0,0.5,0,1","1",""
"","html-keyboard-response","252","206599","0.0-341.0","3E7TUJ2EGD8N956IANB6XAAN0NZD94","A3ITZNJQUTIZ4C","3ECKRY5B1QIH1N6NFX1ECCW5ZDKIZQ","","null","<img src=""img/food3.png"" style=""width:200px; border:14px solid green;"">","null","","","","","","","","","",""
"","image-keyboard-response","253","207310","0.0-342.0","3E7TUJ2EGD8N956IANB6XAAN0NZD94","A3ITZNJQUTIZ4C","3ECKRY5B1QIH1N6NFX1ECCW5ZDKIZQ","","709.6999999880791","img/food5.png","74","711","1","1","","2","1","1,0.5,0,1,0.5,0,0.5,0,1","1,0.5,0,1,0.5,0,0.5,0,1","1",""
"","html-keyboard-response","254","207614","0.0-343.0","3E7TUJ2EGD8N956IANB6XAAN0NZD94","A3ITZNJQUTIZ4C","3ECKRY5B1QIH1N6NFX1ECCW5ZDKIZQ","","null","<img src=""img/food5.png"" style=""width:200px; border:14px solid green;"">","null","","","","","","","","","",""
"","image-keyboard-response","255","208454","0.0-344.0","3E7TUJ2EGD8N956IANB6XAAN0NZD94","A3ITZNJQUTIZ4C","3ECKRY5B1QIH1N6NFX1ECCW5ZDKIZQ","","838.1999999880791","img/food3.png","76","839.6000000238419","3","1","","3","1","1,0.5,0,1,0.5,0,0.5,0,1","1,0.5,0,1,0.5,0,0.5,0,1","1",""
"","html-keyboard-response","256","208759","0.0-345.0","3E7TUJ2EGD8N956IANB6XAAN0NZD94","A3ITZNJQUTIZ4C","3ECKRY5B1QIH1N6NFX1ECCW5ZDKIZQ","","null","<img src=""img/food3.png"" style=""width:200px; border:14px solid green;"">","null","","","","","","","","","",""
"","image-keyboard-response","257","209339","0.0-346.0","3E7TUJ2EGD8N956IANB6XAAN0NZD94","A3ITZNJQUTIZ4C","3ECKRY5B1QIH1N6NFX1ECCW5ZDKIZQ","","578.4000000357628","img/food5.png","74","579.5","1","1","","2","1","1,0.5,0,1,0.5,0,0.5,0,1","1,0.5,0,1,0.5,0,0.5,0,1","1",""
"","html-keyboard-response","258","209647","0.0-347.0","3E7TUJ2EGD8N956IANB6XAAN0NZD94","A3ITZNJQUTIZ4C","3ECKRY5B1QIH1N6NFX1ECCW5ZDKIZQ","","null","<img src=""img/food5.png"" style=""width:200px; border:14px solid green;"">","null","","","","","","","","","",""
"","image-keyboard-response","259","210263","0.0-348.0","3E7TUJ2EGD8N956IANB6XAAN0NZD94","A3ITZNJQUTIZ4C","3ECKRY5B1QIH1N6NFX1ECCW5ZDKIZQ","","614.4000000357628","img/food3.png","76","615.8999999761581","3","1","","3","1","1,0.5,0,1,0.5,0,0.5,0,1","1,0.5,0,1,0.5,0,0.5,0,1","1",""
"","html-keyboard-response","260","210570","0.0-349.0","3E7TUJ2EGD8N956IANB6XAAN0NZD94","A3ITZNJQUTIZ4C","3ECKRY5B1QIH1N6NFX1ECCW5ZDKIZQ","","null","<img src=""img/food3.png"" style=""width:200px; border:14px solid green;"">","null","","","","","","","","","",""
"","image-keyboard-response","261","211091","0.0-350.0","3E7TUJ2EGD8N956IANB6XAAN0NZD94","A3ITZNJQUTIZ4C","3ECKRY5B1QIH1N6NFX1ECCW5ZDKIZQ","","519.3999999761581","img/food3.png","76","520.6000000238419","3","1","","3","1","1,0.5,0,1,0.5,0,0.5,0,1","1,0.5,0,1,0.5,0,0.5,0,1","1",""
"","html-keyboard-response","262","211411","0.0-351.0","3E7TUJ2EGD8N956IANB6XAAN0NZD94","A3ITZNJQUTIZ4C","3ECKRY5B1QIH1N6NFX1ECCW5ZDKIZQ","","null","<img src=""img/food3.png"" style=""width:200px; border:14px solid green;"">","null","","","","","","","","","",""
"","image-keyboard-response","263","211995","0.0-352.0","3E7TUJ2EGD8N956IANB6XAAN0NZD94","A3ITZNJQUTIZ4C","3ECKRY5B1QIH1N6NFX1ECCW5ZDKIZQ","","581.5999999642372","img/food5.png","74","583.4000000357628","1","1","","2","1","1,0.5,0,1,0.5,0,0.5,0,1","1,0.5,0,1,0.5,0,0.5,0,1","1",""
"","html-keyboard-response","264","212306","0.0-353.0","3E7TUJ2EGD8N956IANB6XAAN0NZD94","A3ITZNJQUTIZ4C","3ECKRY5B1QIH1N6NFX1ECCW5ZDKIZQ","","null","<img src=""img/food5.png"" style=""width:200px; border:14px solid green;"">","null","","","","","","","","","",""
"","image-keyboard-response","265","213235","0.0-354.0","3E7TUJ2EGD8N956IANB6XAAN0NZD94","A3ITZNJQUTIZ4C","3ECKRY5B1QIH1N6NFX1ECCW5ZDKIZQ","","927.1999999880791","img/food1.png","76","928.6000000238419","3","0","","1","1","1,0.5,0,1,0.5,0,0.5,0,1","1,0.5,0,1,0.5,0,0.5,0,1","1",""
"","html-keyboard-response","266","213550","0.0-355.0","3E7TUJ2EGD8N956IANB6XAAN0NZD94","A3ITZNJQUTIZ4C","3ECKRY5B1QIH1N6NFX1ECCW5ZDKIZQ","","null","<img src=""img/food1.png"" style=""width:200px;border:14px solid red;"">","null","","","","","","","","","",""
"","image-keyboard-response","267","214018","0.0-356.0","3E7TUJ2EGD8N956IANB6XAAN0NZD94","A3ITZNJQUTIZ4C","3ECKRY5B1QIH1N6NFX1ECCW5ZDKIZQ","","466.5","img/food1.png","74","467.5","1","1","","1","1","1,0.5,0,1,0.5,0,0.5,0,1","1,0.5,0,1,0.5,0,0.5,0,1","1",""
"","html-keyboard-response","268","214320","0.0-357.0","3E7TUJ2EGD8N956IANB6XAAN0NZD94","A3ITZNJQUTIZ4C","3ECKRY5B1QIH1N6NFX1ECCW5ZDKIZQ","","null","<img src=""img/food1.png"" style=""width:200px; border:14px solid green;"">","null","","","","","","","","","",""
"","image-keyboard-response","269","214454","0.0-358.0","3E7TUJ2EGD8N956IANB6XAAN0NZD94","A3ITZNJQUTIZ4C","3ECKRY5B1QIH1N6NFX1ECCW5ZDKIZQ","","133.30000001192093","img/food5.png","74","134.30000001192093","1","1","","2","1","1,0.5,0,1,0.5,0,0.5,0,1","1,0.5,0,1,0.5,0,0.5,0,1","1",""
"","html-keyboard-response","270","214766","0.0-359.0","3E7TUJ2EGD8N956IANB6XAAN0NZD94","A3ITZNJQUTIZ4C","3ECKRY5B1QIH1N6NFX1ECCW5ZDKIZQ","","null","<img src=""img/food5.png"" style=""width:200px; border:14px solid green;"">","null","","","","","","","","","",""
"","image-keyboard-response","271","215457","0.0-360.0","3E7TUJ2EGD8N956IANB6XAAN0NZD94","A3ITZNJQUTIZ4C","3ECKRY5B1QIH1N6NFX1ECCW5ZDKIZQ","","689.8000000119209","img/food1.png","74","690.8000000119209","1","1","","1","1","1,0.5,0,1,0.5,0,0.5,0,1","1,0.5,0,1,0.5,0,0.5,0,1","1",""
"","html-keyboard-response","272","215763","0.0-361.0","3E7TUJ2EGD8N956IANB6XAAN0NZD94","A3ITZNJQUTIZ4C","3ECKRY5B1QIH1N6NFX1ECCW5ZDKIZQ","","null","<img src=""img/food1.png"" style=""width:200px; border:14px solid green;"">","null","","","","","","","","","",""
"","image-keyboard-response","273","216379","0.0-362.0","3E7TUJ2EGD8N956IANB6XAAN0NZD94","A3ITZNJQUTIZ4C","3ECKRY5B1QIH1N6NFX1ECCW5ZDKIZQ","","615","img/food5.png","74","615.8999999761581","1","1","","2","1","1,0.5,0,1,0.5,0,0.5,0,1","1,0.5,0,1,0.5,0,0.5,0,1","1",""
"","html-keyboard-response","274","216685","0.0-363.0","3E7TUJ2EGD8N956IANB6XAAN0NZD94","A3ITZNJQUTIZ4C","3ECKRY5B1QIH1N6NFX1ECCW5ZDKIZQ","","null","<img src=""img/food5.png"" style=""width:200px; border:14px solid green;"">","null","","","","","","","","","",""
"","image-keyboard-response","275","217532","0.0-364.0","3E7TUJ2EGD8N956IANB6XAAN0NZD94","A3ITZNJQUTIZ4C","3ECKRY5B1QIH1N6NFX1ECCW5ZDKIZQ","","846.5","img/food3.png","76","847.4000000357628","3","1","","3","1","1,0.5,0,1,0.5,0,0.5,0,1","1,0.5,0,1,0.5,0,0.5,0,1","1",""
"","html-keyboard-response","276","217842","0.0-365.0","3E7TUJ2EGD8N956IANB6XAAN0NZD94","A3ITZNJQUTIZ4C","3ECKRY5B1QIH1N6NFX1ECCW5ZDKIZQ","","null","<img src=""img/food3.png"" style=""width:200px; border:14px solid green;"">","null","","","","","","","","","",""
"","image-keyboard-response","277","218253","0.0-366.0","3E7TUJ2EGD8N956IANB6XAAN0NZD94","A3ITZNJQUTIZ4C","3ECKRY5B1QIH1N6NFX1ECCW5ZDKIZQ","","410.60000002384186","img/food3.png","76","411.30000001192093","3","1","","3","1","1,0.5,0,1,0.5,0,0.5,0,1","1,0.5,0,1,0.5,0,0.5,0,1","1",""
"","html-keyboard-response","278","218560","0.0-367.0","3E7TUJ2EGD8N956IANB6XAAN0NZD94","A3ITZNJQUTIZ4C","3ECKRY5B1QIH1N6NFX1ECCW5ZDKIZQ","","null","<img src=""img/food3.png"" style=""width:200px; border:14px solid green;"">","null","","","","","","","","","",""
"","image-keyboard-response","279","219388","0.0-368.0","3E7TUJ2EGD8N956IANB6XAAN0NZD94","A3ITZNJQUTIZ4C","3ECKRY5B1QIH1N6NFX1ECCW5ZDKIZQ","","826.1999999880791","img/food1.png","74","827.5","1","1","","1","1","1,0.5,0,1,0.5,0,0.5,0,1","1,0.5,0,1,0.5,0,0.5,0,1","1",""
"","html-keyboard-response","280","219696","0.0-369.0","3E7TUJ2EGD8N956IANB6XAAN0NZD94","A3ITZNJQUTIZ4C","3ECKRY5B1QIH1N6NFX1ECCW5ZDKIZQ","","null","<img src=""img/food1.png"" style=""width:200px; border:14px solid green;"">","null","","","","","","","","","",""
"","image-keyboard-response","281","220275","0.0-370.0","3E7TUJ2EGD8N956IANB6XAAN0NZD94","A3ITZNJQUTIZ4C","3ECKRY5B1QIH1N6NFX1ECCW5ZDKIZQ","","577.3000000119209","img/food3.png","76","578.6000000238419","3","1","","3","1","1,0.5,0,1,0.5,0,0.5,0,1","1,0.5,0,1,0.5,0,0.5,0,1","1",""
"","html-keyboard-response","282","220582","0.0-371.0","3E7TUJ2EGD8N956IANB6XAAN0NZD94","A3ITZNJQUTIZ4C","3ECKRY5B1QIH1N6NFX1ECCW5ZDKIZQ","","null","<img src=""img/food3.png"" style=""width:200px; border:14px solid green;"">","null","","","","","","","","","",""
"","image-keyboard-response","283","221215","0.0-372.0","3E7TUJ2EGD8N956IANB6XAAN0NZD94","A3ITZNJQUTIZ4C","3ECKRY5B1QIH1N6NFX1ECCW5ZDKIZQ","","631.6000000238419","img/food5.png","74","632.5999999642372","1","1","","2","1","1,0.5,0,1,0.5,0,0.5,0,1","1,0.5,0,1,0.5,0,0.5,0,1","1",""
"","html-keyboard-response","284","221520","0.0-373.0","3E7TUJ2EGD8N956IANB6XAAN0NZD94","A3ITZNJQUTIZ4C","3ECKRY5B1QIH1N6NFX1ECCW5ZDKIZQ","","null","<img src=""img/food5.png"" style=""width:200px; border:14px solid green;"">","null","","","","","","","","","",""
"","image-keyboard-response","285","221946","0.0-374.0","3E7TUJ2EGD8N956IANB6XAAN0NZD94","A3ITZNJQUTIZ4C","3ECKRY5B1QIH1N6NFX1ECCW5ZDKIZQ","","425","img/food5.png","74","425.80000001192093","1","1","","2","1","1,0.5,0,1,0.5,0,0.5,0,1","1,0.5,0,1,0.5,0,0.5,0,1","1",""
"","html-keyboard-response","286","222252","0.0-375.0","3E7TUJ2EGD8N956IANB6XAAN0NZD94","A3ITZNJQUTIZ4C","3ECKRY5B1QIH1N6NFX1ECCW5ZDKIZQ","","null","<img src=""img/food5.png"" style=""width:200px; border:14px solid green;"">","null","","","","","","","","","",""
"","image-keyboard-response","287","222948","0.0-376.0","3E7TUJ2EGD8N956IANB6XAAN0NZD94","A3ITZNJQUTIZ4C","3ECKRY5B1QIH1N6NFX1ECCW5ZDKIZQ","","695.2000000476837","img/food1.png","76","696.1999999880791","3","0","","1","1","1,0.5,0,1,0.5,0,0.5,0,1","1,0.5,0,1,0.5,0,0.5,0,1","1",""
"","html-keyboard-response","288","223256","0.0-377.0","3E7TUJ2EGD8N956IANB6XAAN0NZD94","A3ITZNJQUTIZ4C","3ECKRY5B1QIH1N6NFX1ECCW5ZDKIZQ","","null","<img src=""img/food1.png"" style=""width:200px;border:14px solid red;"">","null","","","","","","","","","",""
"","image-keyboard-response","289","225003","0.0-378.0","3E7TUJ2EGD8N956IANB6XAAN0NZD94","A3ITZNJQUTIZ4C","3ECKRY5B1QIH1N6NFX1ECCW5ZDKIZQ","","1745.699999988079","img/food3.png","76","1746.6000000238419","3","1","","3","1","1,0.5,0,1,0.5,0,0.5,0,1","1,0.5,0,1,0.5,0,0.5,0,1","1",""
"","html-keyboard-response","290","225308","0.0-379.0","3E7TUJ2EGD8N956IANB6XAAN0NZD94","A3ITZNJQUTIZ4C","3ECKRY5B1QIH1N6NFX1ECCW5ZDKIZQ","","null","<img src=""img/food3.png"" style=""width:200px; border:14px solid green;"">","null","","","","","","","","","",""
"","image-keyboard-response","291","225712","0.0-380.0","3E7TUJ2EGD8N956IANB6XAAN0NZD94","A3ITZNJQUTIZ4C","3ECKRY5B1QIH1N6NFX1ECCW5ZDKIZQ","","403","img/food3.png","76","404.5","3","1","","3","1","1,0.5,0,1,0.5,0,0.5,0,1","1,0.5,0,1,0.5,0,0.5,0,1","1",""
"","html-keyboard-response","292","226018","0.0-381.0","3E7TUJ2EGD8N956IANB6XAAN0NZD94","A3ITZNJQUTIZ4C","3ECKRY5B1QIH1N6NFX1ECCW5ZDKIZQ","","null","<img src=""img/food3.png"" style=""width:200px; border:14px solid green;"">","null","","","","","","","","","",""
"","image-keyboard-response","293","226676","0.0-382.0","3E7TUJ2EGD8N956IANB6XAAN0NZD94","A3ITZNJQUTIZ4C","3ECKRY5B1QIH1N6NFX1ECCW5ZDKIZQ","","656.2000000476837","img/food5.png","74","657.3999999761581","1","1","","2","1","1,0.5,0,1,0.5,0,0.5,0,1","1,0.5,0,1,0.5,0,0.5,0,1","1",""
"","html-keyboard-response","294","226978","0.0-383.0","3E7TUJ2EGD8N956IANB6XAAN0NZD94","A3ITZNJQUTIZ4C","3ECKRY5B1QIH1N6NFX1ECCW5ZDKIZQ","","null","<img src=""img/food5.png"" style=""width:200px; border:14px solid green;"">","null","","","","","","","","","",""
"","image-keyboard-response","295","227672","0.0-384.0","3E7TUJ2EGD8N956IANB6XAAN0NZD94","A3ITZNJQUTIZ4C","3ECKRY5B1QIH1N6NFX1ECCW5ZDKIZQ","","690.8000000119209","img/food3.png","76","692.9000000357628","3","1","","3","1","1,0.5,0,1,0.5,0,0.5,0,1","1,0.5,0,1,0.5,0,0.5,0,1","1",""
"","html-keyboard-response","296","227982","0.0-385.0","3E7TUJ2EGD8N956IANB6XAAN0NZD94","A3ITZNJQUTIZ4C","3ECKRY5B1QIH1N6NFX1ECCW5ZDKIZQ","","null","<img src=""img/food3.png"" style=""width:200px; border:14px solid green;"">","null","","","","","","","","","",""
"","image-keyboard-response","297","228695","0.0-386.0","3E7TUJ2EGD8N956IANB6XAAN0NZD94","A3ITZNJQUTIZ4C","3ECKRY5B1QIH1N6NFX1ECCW5ZDKIZQ","","710.6999999880791","img/food5.png","74","712","1","1","","2","1","1,0.5,0,1,0.5,0,0.5,0,1","1,0.5,0,1,0.5,0,0.5,0,1","1",""
"","html-keyboard-response","298","228999","0.0-387.0","3E7TUJ2EGD8N956IANB6XAAN0NZD94","A3ITZNJQUTIZ4C","3ECKRY5B1QIH1N6NFX1ECCW5ZDKIZQ","","null","<img src=""img/food5.png"" style=""width:200px; border:14px solid green;"">","null","","","","","","","","","",""
"","image-keyboard-response","299","229557","0.0-388.0","3E7TUJ2EGD8N956IANB6XAAN0NZD94","A3ITZNJQUTIZ4C","3ECKRY5B1QIH1N6NFX1ECCW5ZDKIZQ","","555.9000000357628","img/food3.png","76","557.1999999880791","3","1","","3","1","1,0.5,0,1,0.5,0,0.5,0,1","1,0.5,0,1,0.5,0,0.5,0,1","1",""
"","html-keyboard-response","300","229865","0.0-389.0","3E7TUJ2EGD8N956IANB6XAAN0NZD94","A3ITZNJQUTIZ4C","3ECKRY5B1QIH1N6NFX1ECCW5ZDKIZQ","","null","<img src=""img/food3.png"" style=""width:200px; border:14px solid green;"">","null","","","","","","","","","",""
"","image-keyboard-response","301","230464","0.0-390.0","3E7TUJ2EGD8N956IANB6XAAN0NZD94","A3ITZNJQUTIZ4C","3ECKRY5B1QIH1N6NFX1ECCW5ZDKIZQ","","597","img/food3.png","76","598.6999999880791","3","1","","3","1","1,0.5,0,1,0.5,0,0.5,0,1","1,0.5,0,1,0.5,0,0.5,0,1","1",""
"","html-keyboard-response","302","230775","0.0-391.0","3E7TUJ2EGD8N956IANB6XAAN0NZD94","A3ITZNJQUTIZ4C","3ECKRY5B1QIH1N6NFX1ECCW5ZDKIZQ","","null","<img src=""img/food3.png"" style=""width:200px; border:14px solid green;"">","null","","","","","","","","","",""
"","image-keyboard-response","303","231289","0.0-392.0","3E7TUJ2EGD8N956IANB6XAAN0NZD94","A3ITZNJQUTIZ4C","3ECKRY5B1QIH1N6NFX1ECCW5ZDKIZQ","","511.5","img/food3.png","76","512.9000000357628","3","1","","3","1","1,0.5,0,1,0.5,0,0.5,0,1","1,0.5,0,1,0.5,0,0.5,0,1","1",""
"","html-keyboard-response","304","231600","0.0-393.0","3E7TUJ2EGD8N956IANB6XAAN0NZD94","A3ITZNJQUTIZ4C","3ECKRY5B1QIH1N6NFX1ECCW5ZDKIZQ","","null","<img src=""img/food3.png"" style=""width:200px; border:14px solid green;"">","null","","","","","","","","","",""
"","image-keyboard-response","305","232301","0.0-394.0","3E7TUJ2EGD8N956IANB6XAAN0NZD94","A3ITZNJQUTIZ4C","3ECKRY5B1QIH1N6NFX1ECCW5ZDKIZQ","","699.3000000119209","img/food5.png","74","700.8000000119209","1","1","","2","1","1,0.5,0,1,0.5,0,0.5,0,1","1,0.5,0,1,0.5,0,0.5,0,1","1",""
"","html-keyboard-response","306","232611","0.0-395.0","3E7TUJ2EGD8N956IANB6XAAN0NZD94","A3ITZNJQUTIZ4C","3ECKRY5B1QIH1N6NFX1ECCW5ZDKIZQ","","null","<img src=""img/food5.png"" style=""width:200px; border:14px solid green;"">","null","","","","","","","","","",""
"","image-keyboard-response","307","233114","0.0-396.0","3E7TUJ2EGD8N956IANB6XAAN0NZD94","A3ITZNJQUTIZ4C","3ECKRY5B1QIH1N6NFX1ECCW5ZDKIZQ","","500.89999997615814","img/food3.png","76","502.30000001192093","3","1","","3","1","1,0.5,0,1,0.5,0,0.5,0,1","1,0.5,0,1,0.5,0,0.5,0,1","1",""
"","html-keyboard-response","308","233417","0.0-397.0","3E7TUJ2EGD8N956IANB6XAAN0NZD94","A3ITZNJQUTIZ4C","3ECKRY5B1QIH1N6NFX1ECCW5ZDKIZQ","","null","<img src=""img/food3.png"" style=""width:200px; border:14px solid green;"">","null","","","","","","","","","",""
"","image-keyboard-response","309","239313","0.0-398.0","3E7TUJ2EGD8N956IANB6XAAN0NZD94","A3ITZNJQUTIZ4C","3ECKRY5B1QIH1N6NFX1ECCW5ZDKIZQ","","5894.099999964237","img/food1.png","76","5895.299999952316","3","0","","1","1","1,0.5,0,1,0.5,0,0.5,0,1","1,0.5,0,1,0.5,0,0.5,0,1","1",""
"","html-keyboard-response","310","239622","0.0-399.0","3E7TUJ2EGD8N956IANB6XAAN0NZD94","A3ITZNJQUTIZ4C","3ECKRY5B1QIH1N6NFX1ECCW5ZDKIZQ","","null","<img src=""img/food1.png"" style=""width:200px;border:14px solid red;"">","null","","","","","","","","","",""
"","image-keyboard-response","311","240139","0.0-400.0","3E7TUJ2EGD8N956IANB6XAAN0NZD94","A3ITZNJQUTIZ4C","3ECKRY5B1QIH1N6NFX1ECCW5ZDKIZQ","","515","img/food3.png","75","516.5","2","0","","3","1","1,0.5,0,1,0.5,0,0.5,0,1","1,0.5,0,1,0.5,0,0.5,0,1","1",""
"","html-keyboard-response","312","240449","0.0-401.0","3E7TUJ2EGD8N956IANB6XAAN0NZD94","A3ITZNJQUTIZ4C","3ECKRY5B1QIH1N6NFX1ECCW5ZDKIZQ","","null","<img src=""img/food3.png"" style=""width:200px;border:14px solid red;"">","null","","","","","","","","","",""
"","image-keyboard-response","313","240904","0.0-402.0","3E7TUJ2EGD8N956IANB6XAAN0NZD94","A3ITZNJQUTIZ4C","3ECKRY5B1QIH1N6NFX1ECCW5ZDKIZQ","","453.2999999523163","img/food5.png","74","454.80000001192093","1","1","","2","1","1,0.5,0,1,0.5,0,0.5,0,1","1,0.5,0,1,0.5,0,0.5,0,1","1",""
"","html-keyboard-response","314","241211","0.0-403.0","3E7TUJ2EGD8N956IANB6XAAN0NZD94","A3ITZNJQUTIZ4C","3ECKRY5B1QIH1N6NFX1ECCW5ZDKIZQ","","null","<img src=""img/food5.png"" style=""width:200px; border:14px solid green;"">","null","","","","","","","","","",""
"","image-keyboard-response","315","241646","0.0-404.0","3E7TUJ2EGD8N956IANB6XAAN0NZD94","A3ITZNJQUTIZ4C","3ECKRY5B1QIH1N6NFX1ECCW5ZDKIZQ","","434","img/food5.png","74","435.2999999523163","1","1","","2","1","1,0.5,0,1,0.5,0,0.5,0,1","1,0.5,0,1,0.5,0,0.5,0,1","1",""
"","html-keyboard-response","316","241951","0.0-405.0","3E7TUJ2EGD8N956IANB6XAAN0NZD94","A3ITZNJQUTIZ4C","3ECKRY5B1QIH1N6NFX1ECCW5ZDKIZQ","","null","<img src=""img/food5.png"" style=""width:200px; border:14px solid green;"">","null","","","","","","","","","",""
"","image-keyboard-response","317","242319","0.0-406.0","3E7TUJ2EGD8N956IANB6XAAN0NZD94","A3ITZNJQUTIZ4C","3ECKRY5B1QIH1N6NFX1ECCW5ZDKIZQ","","366.19999998807907","img/food5.png","74","367.69999998807907","1","1","","2","1","1,0.5,0,1,0.5,0,0.5,0,1","1,0.5,0,1,0.5,0,0.5,0,1","1",""
"","html-keyboard-response","318","242624","0.0-407.0","3E7TUJ2EGD8N956IANB6XAAN0NZD94","A3ITZNJQUTIZ4C","3ECKRY5B1QIH1N6NFX1ECCW5ZDKIZQ","","null","<img src=""img/food5.png"" style=""width:200px; border:14px solid green;"">","null","","","","","","","","","",""
"","image-keyboard-response","319","243614","0.0-408.0","3E7TUJ2EGD8N956IANB6XAAN0NZD94","A3ITZNJQUTIZ4C","3ECKRY5B1QIH1N6NFX1ECCW5ZDKIZQ","","989.4000000357628","img/food1.png","76","990.5999999642372","3","0","","1","1","1,0.5,0,1,0.5,0,0.5,0,1","1,0.5,0,1,0.5,0,0.5,0,1","1",""
"","html-keyboard-response","320","243922","0.0-409.0","3E7TUJ2EGD8N956IANB6XAAN0NZD94","A3ITZNJQUTIZ4C","3ECKRY5B1QIH1N6NFX1ECCW5ZDKIZQ","","null","<img src=""img/food1.png"" style=""width:200px;border:14px solid red;"">","null","","","","","","","","","",""
"","image-keyboard-response","321","244474","0.0-410.0","3E7TUJ2EGD8N956IANB6XAAN0NZD94","A3ITZNJQUTIZ4C","3ECKRY5B1QIH1N6NFX1ECCW5ZDKIZQ","","550.5","img/food5.png","74","551.8999999761581","1","1","","2","1","1,0.5,0,1,0.5,0,0.5,0,1","1,0.5,0,1,0.5,0,0.5,0,1","1",""
"","html-keyboard-response","322","244779","0.0-411.0","3E7TUJ2EGD8N956IANB6XAAN0NZD94","A3ITZNJQUTIZ4C","3ECKRY5B1QIH1N6NFX1ECCW5ZDKIZQ","","null","<img src=""img/food5.png"" style=""width:200px; border:14px solid green;"">","null","","","","","","","","","",""
"","image-keyboard-response","323","245527","0.0-412.0","3E7TUJ2EGD8N956IANB6XAAN0NZD94","A3ITZNJQUTIZ4C","3ECKRY5B1QIH1N6NFX1ECCW5ZDKIZQ","","746.8999999761581","img/food3.png","76","748","3","1","","3","1","1,0.5,0,1,0.5,0,0.5,0,1","1,0.5,0,1,0.5,0,0.5,0,1","1",""
"","html-keyboard-response","324","245834","0.0-413.0","3E7TUJ2EGD8N956IANB6XAAN0NZD94","A3ITZNJQUTIZ4C","3ECKRY5B1QIH1N6NFX1ECCW5ZDKIZQ","","null","<img src=""img/food3.png"" style=""width:200px; border:14px solid green;"">","null","","","","","","","","","",""
"","image-keyboard-response","325","246388","0.0-414.0","3E7TUJ2EGD8N956IANB6XAAN0NZD94","A3ITZNJQUTIZ4C","3ECKRY5B1QIH1N6NFX1ECCW5ZDKIZQ","","551.6999999880791","img/food1.png","74","553.1999999880791","1","1","","1","1","1,0.5,0,1,0.5,0,0.5,0,1","1,0.5,0,1,0.5,0,0.5,0,1","1",""
"","html-keyboard-response","326","246691","0.0-415.0","3E7TUJ2EGD8N956IANB6XAAN0NZD94","A3ITZNJQUTIZ4C","3ECKRY5B1QIH1N6NFX1ECCW5ZDKIZQ","","null","<img src=""img/food1.png"" style=""width:200px; border:14px solid green;"">","null","","","","","","","","","",""
"","image-keyboard-response","327","247069","0.0-416.0","3E7TUJ2EGD8N956IANB6XAAN0NZD94","A3ITZNJQUTIZ4C","3ECKRY5B1QIH1N6NFX1ECCW5ZDKIZQ","","376","img/food1.png","74","377.5","1","1","","1","1","1,0.5,0,1,0.5,0,0.5,0,1","1,0.5,0,1,0.5,0,0.5,0,1","1",""
"","html-keyboard-response","328","247372","0.0-417.0","3E7TUJ2EGD8N956IANB6XAAN0NZD94","A3ITZNJQUTIZ4C","3ECKRY5B1QIH1N6NFX1ECCW5ZDKIZQ","","null","<img src=""img/food1.png"" style=""width:200px; border:14px solid green;"">","null","","","","","","","","","",""
"","image-keyboard-response","329","247757","0.0-418.0","3E7TUJ2EGD8N956IANB6XAAN0NZD94","A3ITZNJQUTIZ4C","3ECKRY5B1QIH1N6NFX1ECCW5ZDKIZQ","","383.0999999642372","img/food1.png","74","384.69999998807907","1","1","","1","1","1,0.5,0,1,0.5,0,0.5,0,1","1,0.5,0,1,0.5,0,0.5,0,1","1",""
"","html-keyboard-response","330","248061","0.0-419.0","3E7TUJ2EGD8N956IANB6XAAN0NZD94","A3ITZNJQUTIZ4C","3ECKRY5B1QIH1N6NFX1ECCW5ZDKIZQ","","null","<img src=""img/food1.png"" style=""width:200px; border:14px solid green;"">","null","","","","","","","","","",""
"","image-keyboard-response","331","249532","0.0-420.0","3E7TUJ2EGD8N956IANB6XAAN0NZD94","A3ITZNJQUTIZ4C","3ECKRY5B1QIH1N6NFX1ECCW5ZDKIZQ","","1468.7000000476837","img/food5.png","74","1470.300000011921","1","1","","2","1","1,0.5,0,1,0.5,0,0.5,0,1","1,0.5,0,1,0.5,0,0.5,0,1","1",""
"","html-keyboard-response","332","249847","0.0-421.0","3E7TUJ2EGD8N956IANB6XAAN0NZD94","A3ITZNJQUTIZ4C","3ECKRY5B1QIH1N6NFX1ECCW5ZDKIZQ","","null","<img src=""img/food5.png"" style=""width:200px; border:14px solid green;"">","null","","","","","","","","","",""
"","image-keyboard-response","333","250263","0.0-422.0","3E7TUJ2EGD8N956IANB6XAAN0NZD94","A3ITZNJQUTIZ4C","3ECKRY5B1QIH1N6NFX1ECCW5ZDKIZQ","","414.19999998807907","img/food5.png","74","415.60000002384186","1","1","","2","1","1,0.5,0,1,0.5,0,0.5,0,1","1,0.5,0,1,0.5,0,0.5,0,1","1",""
"","html-keyboard-response","334","250573","0.0-423.0","3E7TUJ2EGD8N956IANB6XAAN0NZD94","A3ITZNJQUTIZ4C","3ECKRY5B1QIH1N6NFX1ECCW5ZDKIZQ","","null","<img src=""img/food5.png"" style=""width:200px; border:14px solid green;"">","null","","","","","","","","","",""
"","image-keyboard-response","335","251075","0.0-424.0","3E7TUJ2EGD8N956IANB6XAAN0NZD94","A3ITZNJQUTIZ4C","3ECKRY5B1QIH1N6NFX1ECCW5ZDKIZQ","","497.5","img/food5.png","74","499.19999998807907","1","1","","2","1","1,0.5,0,1,0.5,0,0.5,0,1","1,0.5,0,1,0.5,0,0.5,0,1","1",""
"","html-keyboard-response","336","251381","0.0-425.0","3E7TUJ2EGD8N956IANB6XAAN0NZD94","A3ITZNJQUTIZ4C","3ECKRY5B1QIH1N6NFX1ECCW5ZDKIZQ","","null","<img src=""img/food5.png"" style=""width:200px; border:14px solid green;"">","null","","","","","","","","","",""
"","image-keyboard-response","337","252590","0.0-426.0","3E7TUJ2EGD8N956IANB6XAAN0NZD94","A3ITZNJQUTIZ4C","3ECKRY5B1QIH1N6NFX1ECCW5ZDKIZQ","","1207.199999988079","img/food1.png","74","1208.699999988079","1","1","","1","1","1,0.5,0,1,0.5,0,0.5,0,1","1,0.5,0,1,0.5,0,0.5,0,1","1",""
"","html-keyboard-response","338","252897","0.0-427.0","3E7TUJ2EGD8N956IANB6XAAN0NZD94","A3ITZNJQUTIZ4C","3ECKRY5B1QIH1N6NFX1ECCW5ZDKIZQ","","null","<img src=""img/food1.png"" style=""width:200px; border:14px solid green;"">","null","","","","","","","","","",""
"","image-keyboard-response","339","253676","0.0-428.0","3E7TUJ2EGD8N956IANB6XAAN0NZD94","A3ITZNJQUTIZ4C","3ECKRY5B1QIH1N6NFX1ECCW5ZDKIZQ","","776.8999999761581","img/food1.png","74","778.5","1","1","","1","1","1,0.5,0,1,0.5,0,0.5,0,1","1,0.5,0,1,0.5,0,0.5,0,1","1",""
"","html-keyboard-response","340","253988","0.0-429.0","3E7TUJ2EGD8N956IANB6XAAN0NZD94","A3ITZNJQUTIZ4C","3ECKRY5B1QIH1N6NFX1ECCW5ZDKIZQ","","null","<img src=""img/food1.png"" style=""width:200px; border:14px solid green;"">","null","","","","","","","","","",""
"","image-keyboard-response","341","254398","0.0-430.0","3E7TUJ2EGD8N956IANB6XAAN0NZD94","A3ITZNJQUTIZ4C","3ECKRY5B1QIH1N6NFX1ECCW5ZDKIZQ","","407.80000001192093","img/food1.png","74","409.10000002384186","1","1","","1","1","1,0.5,0,1,0.5,0,0.5,0,1","1,0.5,0,1,0.5,0,0.5,0,1","1",""
"","html-keyboard-response","342","254711","0.0-431.0","3E7TUJ2EGD8N956IANB6XAAN0NZD94","A3ITZNJQUTIZ4C","3ECKRY5B1QIH1N6NFX1ECCW5ZDKIZQ","","null","<img src=""img/food1.png"" style=""width:200px; border:14px solid green;"">","null","","","","","","","","","",""
"","image-keyboard-response","343","255127","0.0-432.0","3E7TUJ2EGD8N956IANB6XAAN0NZD94","A3ITZNJQUTIZ4C","3ECKRY5B1QIH1N6NFX1ECCW5ZDKIZQ","","413.60000002384186","img/food1.png","74","415.5","1","1","","1","1","1,0.5,0,1,0.5,0,0.5,0,1","1,0.5,0,1,0.5,0,0.5,0,1","1",""
"","html-keyboard-response","344","255429","0.0-433.0","3E7TUJ2EGD8N956IANB6XAAN0NZD94","A3ITZNJQUTIZ4C","3ECKRY5B1QIH1N6NFX1ECCW5ZDKIZQ","","null","<img src=""img/food1.png"" style=""width:200px; border:14px solid green;"">","null","","","","","","","","","",""
"","image-keyboard-response","345","256133","0.0-434.0","3E7TUJ2EGD8N956IANB6XAAN0NZD94","A3ITZNJQUTIZ4C","3ECKRY5B1QIH1N6NFX1ECCW5ZDKIZQ","","702.3000000119209","img/food5.png","74","703.3999999761581","1","1","","2","1","1,0.5,0,1,0.5,0,0.5,0,1","1,0.5,0,1,0.5,0,0.5,0,1","1",""
"","html-keyboard-response","346","256444","0.0-435.0","3E7TUJ2EGD8N956IANB6XAAN0NZD94","A3ITZNJQUTIZ4C","3ECKRY5B1QIH1N6NFX1ECCW5ZDKIZQ","","null","<img src=""img/food5.png"" style=""width:200px; border:14px solid green;"">","null","","","","","","","","","",""
"","image-keyboard-response","347","256820","0.0-436.0","3E7TUJ2EGD8N956IANB6XAAN0NZD94","A3ITZNJQUTIZ4C","3ECKRY5B1QIH1N6NFX1ECCW5ZDKIZQ","","373.7000000476837","img/food5.png","74","375.10000002384186","1","1","","2","1","1,0.5,0,1,0.5,0,0.5,0,1","1,0.5,0,1,0.5,0,0.5,0,1","1",""
"","html-keyboard-response","348","257131","0.0-437.0","3E7TUJ2EGD8N956IANB6XAAN0NZD94","A3ITZNJQUTIZ4C","3ECKRY5B1QIH1N6NFX1ECCW5ZDKIZQ","","null","<img src=""img/food5.png"" style=""width:200px; border:14px solid green;"">","null","","","","","","","","","",""
"","image-keyboard-response","349","257858","0.0-438.0","3E7TUJ2EGD8N956IANB6XAAN0NZD94","A3ITZNJQUTIZ4C","3ECKRY5B1QIH1N6NFX1ECCW5ZDKIZQ","","725.8999999761581","img/food3.png","76","727.4000000357628","3","1","","3","1","1,0.5,0,1,0.5,0,0.5,0,1","1,0.5,0,1,0.5,0,0.5,0,1","1",""
"","html-keyboard-response","350","258163","0.0-439.0","3E7TUJ2EGD8N956IANB6XAAN0NZD94","A3ITZNJQUTIZ4C","3ECKRY5B1QIH1N6NFX1ECCW5ZDKIZQ","","null","<img src=""img/food3.png"" style=""width:200px; border:14px solid green;"">","null","","","","","","","","","",""
"","image-keyboard-response","351","258607","0.0-440.0","3E7TUJ2EGD8N956IANB6XAAN0NZD94","A3ITZNJQUTIZ4C","3ECKRY5B1QIH1N6NFX1ECCW5ZDKIZQ","","442","img/food3.png","76","443.5","3","1","","3","1","1,0.5,0,1,0.5,0,0.5,0,1","1,0.5,0,1,0.5,0,0.5,0,1","1",""
"","html-keyboard-response","352","258911","0.0-441.0","3E7TUJ2EGD8N956IANB6XAAN0NZD94","A3ITZNJQUTIZ4C","3ECKRY5B1QIH1N6NFX1ECCW5ZDKIZQ","","null","<img src=""img/food3.png"" style=""width:200px; border:14px solid green;"">","null","","","","","","","","","",""
"","image-keyboard-response","353","259327","0.0-442.0","3E7TUJ2EGD8N956IANB6XAAN0NZD94","A3ITZNJQUTIZ4C","3ECKRY5B1QIH1N6NFX1ECCW5ZDKIZQ","","414.5","img/food3.png","76","415.80000001192093","3","1","","3","1","1,0.5,0,1,0.5,0,0.5,0,1","1,0.5,0,1,0.5,0,0.5,0,1","1",""
"","html-keyboard-response","354","259630","0.0-443.0","3E7TUJ2EGD8N956IANB6XAAN0NZD94","A3ITZNJQUTIZ4C","3ECKRY5B1QIH1N6NFX1ECCW5ZDKIZQ","","null","<img src=""img/food3.png"" style=""width:200px; border:14px solid green;"">","null","","","","","","","","","",""
"","image-keyboard-response","355","260175","0.0-444.0","3E7TUJ2EGD8N956IANB6XAAN0NZD94","A3ITZNJQUTIZ4C","3ECKRY5B1QIH1N6NFX1ECCW5ZDKIZQ","","543.1000000238419","img/food5.png","74","544.3999999761581","1","1","","2","1","1,0.5,0,1,0.5,0,0.5,0,1","1,0.5,0,1,0.5,0,0.5,0,1","1",""
"","html-keyboard-response","356","260485","0.0-445.0","3E7TUJ2EGD8N956IANB6XAAN0NZD94","A3ITZNJQUTIZ4C","3ECKRY5B1QIH1N6NFX1ECCW5ZDKIZQ","","null","<img src=""img/food5.png"" style=""width:200px; border:14px solid green;"">","null","","","","","","","","","",""
"","image-keyboard-response","357","261249","0.0-446.0","3E7TUJ2EGD8N956IANB6XAAN0NZD94","A3ITZNJQUTIZ4C","3ECKRY5B1QIH1N6NFX1ECCW5ZDKIZQ","","762.9000000357628","img/food1.png","74","764.1999999880791","1","1","","1","1","1,0.5,0,1,0.5,0,0.5,0,1","1,0.5,0,1,0.5,0,0.5,0,1","1",""
"","html-keyboard-response","358","261556","0.0-447.0","3E7TUJ2EGD8N956IANB6XAAN0NZD94","A3ITZNJQUTIZ4C","3ECKRY5B1QIH1N6NFX1ECCW5ZDKIZQ","","null","<img src=""img/food1.png"" style=""width:200px; border:14px solid green;"">","null","","","","","","","","","",""
"","image-keyboard-response","359","262080","0.0-448.0","3E7TUJ2EGD8N956IANB6XAAN0NZD94","A3ITZNJQUTIZ4C","3ECKRY5B1QIH1N6NFX1ECCW5ZDKIZQ","","521.5999999642372","img/food1.png","74","523","1","1","","1","1","1,0.5,0,1,0.5,0,0.5,0,1","1,0.5,0,1,0.5,0,0.5,0,1","1",""
"","html-keyboard-response","360","262390","0.0-449.0","3E7TUJ2EGD8N956IANB6XAAN0NZD94","A3ITZNJQUTIZ4C","3ECKRY5B1QIH1N6NFX1ECCW5ZDKIZQ","","null","<img src=""img/food1.png"" style=""width:200px; border:14px solid green;"">","null","","","","","","","","","",""
"","image-keyboard-response","361","263034","0.0-450.0","3E7TUJ2EGD8N956IANB6XAAN0NZD94","A3ITZNJQUTIZ4C","3ECKRY5B1QIH1N6NFX1ECCW5ZDKIZQ","","641.8000000119209","img/food3.png","76","643.5999999642372","3","1","","3","1","1,0.5,0,1,0.5,0,0.5,0,1","1,0.5,0,1,0.5,0,0.5,0,1","1",""
"","html-keyboard-response","362","263349","0.0-451.0","3E7TUJ2EGD8N956IANB6XAAN0NZD94","A3ITZNJQUTIZ4C","3ECKRY5B1QIH1N6NFX1ECCW5ZDKIZQ","","null","<img src=""img/food3.png"" style=""width:200px; border:14px solid green;"">","null","","","","","","","","","",""
"","image-keyboard-response","363","263915","0.0-452.0","3E7TUJ2EGD8N956IANB6XAAN0NZD94","A3ITZNJQUTIZ4C","3ECKRY5B1QIH1N6NFX1ECCW5ZDKIZQ","","563.5","img/food5.png","74","564.9000000357628","1","1","","2","1","1,0.5,0,1,0.5,0,0.5,0,1","1,0.5,0,1,0.5,0,0.5,0,1","1",""
"","html-keyboard-response","364","264221","0.0-453.0","3E7TUJ2EGD8N956IANB6XAAN0NZD94","A3ITZNJQUTIZ4C","3ECKRY5B1QIH1N6NFX1ECCW5ZDKIZQ","","null","<img src=""img/food5.png"" style=""width:200px; border:14px solid green;"">","null","","","","","","","","","",""
"","html-keyboard-response","365","267844","0.0-454.0","3E7TUJ2EGD8N956IANB6XAAN0NZD94","A3ITZNJQUTIZ4C","3ECKRY5B1QIH1N6NFX1ECCW5ZDKIZQ","","","","","","","","","","","","","",""
"","instructions","366","271259","0.0-455.0","3E7TUJ2EGD8N956IANB6XAAN0NZD94","A3ITZNJQUTIZ4C","3ECKRY5B1QIH1N6NFX1ECCW5ZDKIZQ","[{""page_index"":0,""viewing_time"":3413.100000023842}]","3413.300000011921","","","","","","","","","","","",""
"","survey-text","367","277548","0.0-456.0","3E7TUJ2EGD8N956IANB6XAAN0NZD94","A3ITZNJQUTIZ4C","3ECKRY5B1QIH1N6NFX1ECCW5ZDKIZQ","","6284.100000023842","","","","","","","","","","","","{""Q0"":""A3ITZNJQUTIZ4C""}"
