"success","trial_type","trial_index","time_elapsed","internal_node_id","assignmentID","mturkID","hitID","view_history","rt","stimulus","key_press","reactionTime","a","r","warning","s","cond","reward_cond","reward_cond_actual","reward_matrix_idx","responses"
"true","fullscreen","0","5065","0.0-0.0","3TE3O85731U6AV4O7FRBSCJD9J3R2L","A3IXFZZ3JWTCPW","3WRBLBQ2GRU63BU2LFOJL1G32T90GO","","","","","","","","","","","","","",""
"","instructions","1","52634","0.0-1.0","3TE3O85731U6AV4O7FRBSCJD9J3R2L","A3IXFZZ3JWTCPW","3WRBLBQ2GRU63BU2LFOJL1G32T90GO","[{""page_index"":0,""viewing_time"":5561},{""page_index"":1,""viewing_time"":4997.5},{""page_index"":2,""viewing_time"":6228.700000000186},{""page_index"":3,""viewing_time"":22818.899999999907},{""page_index"":4,""viewing_time"":4122.5},{""page_index"":5,""viewing_time"":1819.5},{""page_index"":6,""viewing_time"":2016.3999999999069}]","47565.799999999814","","","","","","","","","","","",""
"","instructions","2","64788","0.0-2.0","3TE3O85731U6AV4O7FRBSCJD9J3R2L","A3IXFZZ3JWTCPW","3WRBLBQ2GRU63BU2LFOJL1G32T90GO","[{""page_index"":0,""viewing_time"":10667.400000000373},{""page_index"":1,""viewing_time"":1482.8999999999069}]","12150.700000000186","","","","","","","","","","","",""
"","image-keyboard-response","3","65793","0.0-3.0","3TE3O85731U6AV4O7FRBSCJD9J3R2L","A3IXFZZ3JWTCPW","3WRBLBQ2GRU63BU2LFOJL1G32T90GO","","","img/food3.png","","1004.1999999997206","-1","0","true","2","2","1,0.5,0,1,0.5,0,0.5,0,1","1,0.5,0,1,0.5,0,0.5,0,1","1",""
"","html-keyboard-response","4","66097","0.0-4.0","3TE3O85731U6AV4O7FRBSCJD9J3R2L","A3IXFZZ3JWTCPW","3WRBLBQ2GRU63BU2LFOJL1G32T90GO","","null","<img src=""img/food3.png"" style=""width:200px;border:14px solid red;"">","null","","","","","","","","","",""
"","html-keyboard-response","5","69223","0.0-5.0-0.0","3TE3O85731U6AV4O7FRBSCJD9J3R2L","A3IXFZZ3JWTCPW","3WRBLBQ2GRU63BU2LFOJL1G32T90GO","","","","","","","","","","","","","",""
"","image-keyboard-response","6","70063","0.0-6.0","3TE3O85731U6AV4O7FRBSCJD9J3R2L","A3IXFZZ3JWTCPW","3WRBLBQ2GRU63BU2LFOJL1G32T90GO","","837","img/food2.png","75","839","2","0","false","3","2","1,0.5,0,1,0.5,0,0.5,0,1","1,0.5,0,1,0.5,0,0.5,0,1","1",""
"","html-keyboard-response","7","70365","0.0-7.0","3TE3O85731U6AV4O7FRBSCJD9J3R2L","A3IXFZZ3JWTCPW","3WRBLBQ2GRU63BU2LFOJL1G32T90GO","","null","<img src=""img/food2.png"" style=""width:200px;border:14px solid red;"">","null","","","","","","","","","",""
"","image-keyboard-response","8","71369","0.0-9.0","3TE3O85731U6AV4O7FRBSCJD9J3R2L","A3IXFZZ3JWTCPW","3WRBLBQ2GRU63BU2LFOJL1G32T90GO","","","img/food5.png","","1001.7000000001863","-1","0","true","1","2","1,0.5,0,1,0.5,0,0.5,0,1","1,0.5,0,1,0.5,0,0.5,0,1","1",""
"","html-keyboard-response","9","71672","0.0-10.0","3TE3O85731U6AV4O7FRBSCJD9J3R2L","A3IXFZZ3JWTCPW","3WRBLBQ2GRU63BU2LFOJL1G32T90GO","","null","<img src=""img/food5.png"" style=""width:200px;border:14px solid red;"">","null","","","","","","","","","",""
"","html-keyboard-response","10","75761","0.0-11.0-0.0","3TE3O85731U6AV4O7FRBSCJD9J3R2L","A3IXFZZ3JWTCPW","3WRBLBQ2GRU63BU2LFOJL1G32T90GO","","","","","","","","","","","","","",""
"","image-keyboard-response","11","76765","0.0-12.0","3TE3O85731U6AV4O7FRBSCJD9J3R2L","A3IXFZZ3JWTCPW","3WRBLBQ2GRU63BU2LFOJL1G32T90GO","","","img/food5.png","","1004","-1","0","true","1","2","1,0.5,0,1,0.5,0,0.5,0,1","1,0.5,0,1,0.5,0,0.5,0,1","1",""
"","html-keyboard-response","12","77068","0.0-13.0","3TE3O85731U6AV4O7FRBSCJD9J3R2L","A3IXFZZ3JWTCPW","3WRBLBQ2GRU63BU2LFOJL1G32T90GO","","null","<img src=""img/food5.png"" style=""width:200px;border:14px solid red;"">","null","","","","","","","","","",""
"","html-keyboard-response","13","80794","0.0-14.0-0.0","3TE3O85731U6AV4O7FRBSCJD9J3R2L","A3IXFZZ3JWTCPW","3WRBLBQ2GRU63BU2LFOJL1G32T90GO","","","","","","","","","","","","","",""
"","image-keyboard-response","14","81796","0.0-15.0","3TE3O85731U6AV4O7FRBSCJD9J3R2L","A3IXFZZ3JWTCPW","3WRBLBQ2GRU63BU2LFOJL1G32T90GO","","","img/food2.png","","1001.7999999998137","-1","0","true","3","2","1,0.5,0,1,0.5,0,0.5,0,1","1,0.5,0,1,0.5,0,0.5,0,1","1",""
"","html-keyboard-response","15","82098","0.0-16.0","3TE3O85731U6AV4O7FRBSCJD9J3R2L","A3IXFZZ3JWTCPW","3WRBLBQ2GRU63BU2LFOJL1G32T90GO","","null","<img src=""img/food2.png"" style=""width:200px;border:14px solid red;"">","null","","","","","","","","","",""
"","html-keyboard-response","16","84877","0.0-17.0-0.0","3TE3O85731U6AV4O7FRBSCJD9J3R2L","A3IXFZZ3JWTCPW","3WRBLBQ2GRU63BU2LFOJL1G32T90GO","","","","","","","","","","","","","",""
"","image-keyboard-response","17","85262","0.0-18.0","3TE3O85731U6AV4O7FRBSCJD9J3R2L","A3IXFZZ3JWTCPW","3WRBLBQ2GRU63BU2LFOJL1G32T90GO","","382.3000000002794","img/food2.png","75","383.89999999990687","2","0","false","3","2","1,0.5,0,1,0.5,0,0.5,0,1","1,0.5,0,1,0.5,0,0.5,0,1","1",""
"","html-keyboard-response","18","85564","0.0-19.0","3TE3O85731U6AV4O7FRBSCJD9J3R2L","A3IXFZZ3JWTCPW","3WRBLBQ2GRU63BU2LFOJL1G32T90GO","","null","<img src=""img/food2.png"" style=""width:200px;border:14px solid red;"">","null","","","","","","","","","",""
"","image-keyboard-response","19","86567","0.0-21.0","3TE3O85731U6AV4O7FRBSCJD9J3R2L","A3IXFZZ3JWTCPW","3WRBLBQ2GRU63BU2LFOJL1G32T90GO","","","img/food5.png","","1001.7999999998137","-1","0","true","1","2","1,0.5,0,1,0.5,0,0.5,0,1","1,0.5,0,1,0.5,0,0.5,0,1","1",""
"","html-keyboard-response","20","86869","0.0-22.0","3TE3O85731U6AV4O7FRBSCJD9J3R2L","A3IXFZZ3JWTCPW","3WRBLBQ2GRU63BU2LFOJL1G32T90GO","","null","<img src=""img/food5.png"" style=""width:200px;border:14px solid red;"">","null","","","","","","","","","",""
"","html-keyboard-response","21","88320","0.0-23.0-0.0","3TE3O85731U6AV4O7FRBSCJD9J3R2L","A3IXFZZ3JWTCPW","3WRBLBQ2GRU63BU2LFOJL1G32T90GO","","","","","","","","","","","","","",""
"","image-keyboard-response","22","88954","0.0-24.0","3TE3O85731U6AV4O7FRBSCJD9J3R2L","A3IXFZZ3JWTCPW","3WRBLBQ2GRU63BU2LFOJL1G32T90GO","","631.5","img/food2.png","75","633.2000000001863","2","0","false","3","2","1,0.5,0,1,0.5,0,0.5,0,1","1,0.5,0,1,0.5,0,0.5,0,1","1",""
"","html-keyboard-response","23","89256","0.0-25.0","3TE3O85731U6AV4O7FRBSCJD9J3R2L","A3IXFZZ3JWTCPW","3WRBLBQ2GRU63BU2LFOJL1G32T90GO","","null","<img src=""img/food2.png"" style=""width:200px;border:14px solid red;"">","null","","","","","","","","","",""
"","image-keyboard-response","24","90000","0.0-27.0","3TE3O85731U6AV4O7FRBSCJD9J3R2L","A3IXFZZ3JWTCPW","3WRBLBQ2GRU63BU2LFOJL1G32T90GO","","742.0999999996275","img/food2.png","75","743.4000000003725","2","0","false","3","2","1,0.5,0,1,0.5,0,0.5,0,1","1,0.5,0,1,0.5,0,0.5,0,1","1",""
"","html-keyboard-response","25","90302","0.0-28.0","3TE3O85731U6AV4O7FRBSCJD9J3R2L","A3IXFZZ3JWTCPW","3WRBLBQ2GRU63BU2LFOJL1G32T90GO","","null","<img src=""img/food2.png"" style=""width:200px;border:14px solid red;"">","null","","","","","","","","","",""
"","image-keyboard-response","26","91123","0.0-30.0","3TE3O85731U6AV4O7FRBSCJD9J3R2L","A3IXFZZ3JWTCPW","3WRBLBQ2GRU63BU2LFOJL1G32T90GO","","818.5","img/food3.png","76","819.6000000000931","3","0","false","2","2","1,0.5,0,1,0.5,0,0.5,0,1","1,0.5,0,1,0.5,0,0.5,0,1","1",""
"","html-keyboard-response","27","91425","0.0-31.0","3TE3O85731U6AV4O7FRBSCJD9J3R2L","A3IXFZZ3JWTCPW","3WRBLBQ2GRU63BU2LFOJL1G32T90GO","","null","<img src=""img/food3.png"" style=""width:200px;border:14px solid red;"">","null","","","","","","","","","",""
"","image-keyboard-response","28","92058","0.0-33.0","3TE3O85731U6AV4O7FRBSCJD9J3R2L","A3IXFZZ3JWTCPW","3WRBLBQ2GRU63BU2LFOJL1G32T90GO","","630.7999999998137","img/food5.png","74","632.1000000000931","1","1","false","1","2","1,0.5,0,1,0.5,0,0.5,0,1","1,0.5,0,1,0.5,0,0.5,0,1","1",""
"","html-keyboard-response","29","92360","0.0-34.0","3TE3O85731U6AV4O7FRBSCJD9J3R2L","A3IXFZZ3JWTCPW","3WRBLBQ2GRU63BU2LFOJL1G32T90GO","","null","<img src=""img/food5.png"" style=""width:200px; border:14px solid green;"">","null","","","","","","","","","",""
"","image-keyboard-response","30","93012","0.0-36.0","3TE3O85731U6AV4O7FRBSCJD9J3R2L","A3IXFZZ3JWTCPW","3WRBLBQ2GRU63BU2LFOJL1G32T90GO","","649.5","img/food2.png","75","651","2","0","false","3","2","1,0.5,0,1,0.5,0,0.5,0,1","1,0.5,0,1,0.5,0,0.5,0,1","1",""
"","html-keyboard-response","31","93314","0.0-37.0","3TE3O85731U6AV4O7FRBSCJD9J3R2L","A3IXFZZ3JWTCPW","3WRBLBQ2GRU63BU2LFOJL1G32T90GO","","null","<img src=""img/food2.png"" style=""width:200px;border:14px solid red;"">","null","","","","","","","","","",""
"","image-keyboard-response","32","94317","0.0-39.0","3TE3O85731U6AV4O7FRBSCJD9J3R2L","A3IXFZZ3JWTCPW","3WRBLBQ2GRU63BU2LFOJL1G32T90GO","","","img/food2.png","","1001.5","-1","0","true","3","2","1,0.5,0,1,0.5,0,0.5,0,1","1,0.5,0,1,0.5,0,0.5,0,1","1",""
"","html-keyboard-response","33","94619","0.0-40.0","3TE3O85731U6AV4O7FRBSCJD9J3R2L","A3IXFZZ3JWTCPW","3WRBLBQ2GRU63BU2LFOJL1G32T90GO","","null","<img src=""img/food2.png"" style=""width:200px;border:14px solid red;"">","null","","","","","","","","","",""
"","html-keyboard-response","34","96083","0.0-41.0-0.0","3TE3O85731U6AV4O7FRBSCJD9J3R2L","A3IXFZZ3JWTCPW","3WRBLBQ2GRU63BU2LFOJL1G32T90GO","","","","","","","","","","","","","",""
"","image-keyboard-response","35","96670","0.0-42.0","3TE3O85731U6AV4O7FRBSCJD9J3R2L","A3IXFZZ3JWTCPW","3WRBLBQ2GRU63BU2LFOJL1G32T90GO","","585.5","img/food2.png","75","587.2000000001863","2","0","false","3","2","1,0.5,0,1,0.5,0,0.5,0,1","1,0.5,0,1,0.5,0,0.5,0,1","1",""
"","html-keyboard-response","36","96972","0.0-43.0","3TE3O85731U6AV4O7FRBSCJD9J3R2L","A3IXFZZ3JWTCPW","3WRBLBQ2GRU63BU2LFOJL1G32T90GO","","null","<img src=""img/food2.png"" style=""width:200px;border:14px solid red;"">","null","","","","","","","","","",""
"","image-keyboard-response","37","97499","0.0-45.0","3TE3O85731U6AV4O7FRBSCJD9J3R2L","A3IXFZZ3JWTCPW","3WRBLBQ2GRU63BU2LFOJL1G32T90GO","","524.3000000002794","img/food2.png","75","525.7000000001863","2","0","false","3","2","1,0.5,0,1,0.5,0,0.5,0,1","1,0.5,0,1,0.5,0,0.5,0,1","1",""
"","html-keyboard-response","38","97801","0.0-46.0","3TE3O85731U6AV4O7FRBSCJD9J3R2L","A3IXFZZ3JWTCPW","3WRBLBQ2GRU63BU2LFOJL1G32T90GO","","null","<img src=""img/food2.png"" style=""width:200px;border:14px solid red;"">","null","","","","","","","","","",""
"","image-keyboard-response","39","98342","0.0-48.0","3TE3O85731U6AV4O7FRBSCJD9J3R2L","A3IXFZZ3JWTCPW","3WRBLBQ2GRU63BU2LFOJL1G32T90GO","","538.8999999999069","img/food5.png","74","540.0999999996275","1","1","false","1","2","1,0.5,0,1,0.5,0,0.5,0,1","1,0.5,0,1,0.5,0,0.5,0,1","1",""
"","html-keyboard-response","40","98645","0.0-49.0","3TE3O85731U6AV4O7FRBSCJD9J3R2L","A3IXFZZ3JWTCPW","3WRBLBQ2GRU63BU2LFOJL1G32T90GO","","null","<img src=""img/food5.png"" style=""width:200px; border:14px solid green;"">","null","","","","","","","","","",""
"","image-keyboard-response","41","99367","0.0-51.0","3TE3O85731U6AV4O7FRBSCJD9J3R2L","A3IXFZZ3JWTCPW","3WRBLBQ2GRU63BU2LFOJL1G32T90GO","","719.8999999999069","img/food2.png","75","721.1000000000931","2","0","false","3","2","1,0.5,0,1,0.5,0,0.5,0,1","1,0.5,0,1,0.5,0,0.5,0,1","1",""
"","html-keyboard-response","42","99669","0.0-52.0","3TE3O85731U6AV4O7FRBSCJD9J3R2L","A3IXFZZ3JWTCPW","3WRBLBQ2GRU63BU2LFOJL1G32T90GO","","null","<img src=""img/food2.png"" style=""width:200px;border:14px solid red;"">","null","","","","","","","","","",""
"","image-keyboard-response","43","100213","0.0-54.0","3TE3O85731U6AV4O7FRBSCJD9J3R2L","A3IXFZZ3JWTCPW","3WRBLBQ2GRU63BU2LFOJL1G32T90GO","","541.2000000001863","img/food2.png","75","542.5","2","0","false","3","2","1,0.5,0,1,0.5,0,0.5,0,1","1,0.5,0,1,0.5,0,0.5,0,1","1",""
"","html-keyboard-response","44","100515","0.0-55.0","3TE3O85731U6AV4O7FRBSCJD9J3R2L","A3IXFZZ3JWTCPW","3WRBLBQ2GRU63BU2LFOJL1G32T90GO","","null","<img src=""img/food2.png"" style=""width:200px;border:14px solid red;"">","null","","","","","","","","","",""
"","image-keyboard-response","45","101085","0.0-57.0","3TE3O85731U6AV4O7FRBSCJD9J3R2L","A3IXFZZ3JWTCPW","3WRBLBQ2GRU63BU2LFOJL1G32T90GO","","567.8999999999069","img/food5.png","74","569.1999999997206","1","1","false","1","2","1,0.5,0,1,0.5,0,0.5,0,1","1,0.5,0,1,0.5,0,0.5,0,1","1",""
"","html-keyboard-response","46","101387","0.0-58.0","3TE3O85731U6AV4O7FRBSCJD9J3R2L","A3IXFZZ3JWTCPW","3WRBLBQ2GRU63BU2LFOJL1G32T90GO","","null","<img src=""img/food5.png"" style=""width:200px; border:14px solid green;"">","null","","","","","","","","","",""
"","image-keyboard-response","47","102103","0.0-60.0","3TE3O85731U6AV4O7FRBSCJD9J3R2L","A3IXFZZ3JWTCPW","3WRBLBQ2GRU63BU2LFOJL1G32T90GO","","714.5","img/food2.png","75","715.6999999997206","2","0","false","3","2","1,0.5,0,1,0.5,0,0.5,0,1","1,0.5,0,1,0.5,0,0.5,0,1","1",""
"","html-keyboard-response","48","102405","0.0-61.0","3TE3O85731U6AV4O7FRBSCJD9J3R2L","A3IXFZZ3JWTCPW","3WRBLBQ2GRU63BU2LFOJL1G32T90GO","","null","<img src=""img/food2.png"" style=""width:200px;border:14px solid red;"">","null","","","","","","","","","",""
"","image-keyboard-response","49","102945","0.0-63.0","3TE3O85731U6AV4O7FRBSCJD9J3R2L","A3IXFZZ3JWTCPW","3WRBLBQ2GRU63BU2LFOJL1G32T90GO","","537.5","img/food3.png","76","538.9000000003725","3","0","false","2","2","1,0.5,0,1,0.5,0,0.5,0,1","1,0.5,0,1,0.5,0,0.5,0,1","1",""
"","html-keyboard-response","50","103247","0.0-64.0","3TE3O85731U6AV4O7FRBSCJD9J3R2L","A3IXFZZ3JWTCPW","3WRBLBQ2GRU63BU2LFOJL1G32T90GO","","null","<img src=""img/food3.png"" style=""width:200px;border:14px solid red;"">","null","","","","","","","","","",""
"","image-keyboard-response","51","103740","0.0-66.0","3TE3O85731U6AV4O7FRBSCJD9J3R2L","A3IXFZZ3JWTCPW","3WRBLBQ2GRU63BU2LFOJL1G32T90GO","","490.39999999990687","img/food3.png","76","491.6999999997206","3","0","false","2","2","1,0.5,0,1,0.5,0,0.5,0,1","1,0.5,0,1,0.5,0,0.5,0,1","1",""
"","html-keyboard-response","52","104042","0.0-67.0","3TE3O85731U6AV4O7FRBSCJD9J3R2L","A3IXFZZ3JWTCPW","3WRBLBQ2GRU63BU2LFOJL1G32T90GO","","null","<img src=""img/food3.png"" style=""width:200px;border:14px solid red;"">","null","","","","","","","","","",""
"","image-keyboard-response","53","104656","0.0-69.0","3TE3O85731U6AV4O7FRBSCJD9J3R2L","A3IXFZZ3JWTCPW","3WRBLBQ2GRU63BU2LFOJL1G32T90GO","","612.5","img/food5.png","74","613.6999999997206","1","1","false","1","2","1,0.5,0,1,0.5,0,0.5,0,1","1,0.5,0,1,0.5,0,0.5,0,1","1",""
"","html-keyboard-response","54","104959","0.0-70.0","3TE3O85731U6AV4O7FRBSCJD9J3R2L","A3IXFZZ3JWTCPW","3WRBLBQ2GRU63BU2LFOJL1G32T90GO","","null","<img src=""img/food5.png"" style=""width:200px; border:14px solid green;"">","null","","","","","","","","","",""
"","image-keyboard-response","55","105634","0.0-72.0","3TE3O85731U6AV4O7FRBSCJD9J3R2L","A3IXFZZ3JWTCPW","3WRBLBQ2GRU63BU2LFOJL1G32T90GO","","673.2999999998137","img/food3.png","75","674.5999999996275","2","0","false","2","2","1,0.5,0,1,0.5,0,0.5,0,1","1,0.5,0,1,0.5,0,0.5,0,1","1",""
"","html-keyboard-response","56","105936","0.0-73.0","3TE3O85731U6AV4O7FRBSCJD9J3R2L","A3IXFZZ3JWTCPW","3WRBLBQ2GRU63BU2LFOJL1G32T90GO","","null","<img src=""img/food3.png"" style=""width:200px;border:14px solid red;"">","null","","","","","","","","","",""
"","image-keyboard-response","57","106427","0.0-75.0","3TE3O85731U6AV4O7FRBSCJD9J3R2L","A3IXFZZ3JWTCPW","3WRBLBQ2GRU63BU2LFOJL1G32T90GO","","489.10000000009313","img/food3.png","76","490.39999999990687","3","0","false","2","2","1,0.5,0,1,0.5,0,0.5,0,1","1,0.5,0,1,0.5,0,0.5,0,1","1",""
"","html-keyboard-response","58","106730","0.0-76.0","3TE3O85731U6AV4O7FRBSCJD9J3R2L","A3IXFZZ3JWTCPW","3WRBLBQ2GRU63BU2LFOJL1G32T90GO","","null","<img src=""img/food3.png"" style=""width:200px;border:14px solid red;"">","null","","","","","","","","","",""
"","image-keyboard-response","59","107428","0.0-78.0","3TE3O85731U6AV4O7FRBSCJD9J3R2L","A3IXFZZ3JWTCPW","3WRBLBQ2GRU63BU2LFOJL1G32T90GO","","695.8000000002794","img/food3.png","76","697","3","0","false","2","2","1,0.5,0,1,0.5,0,0.5,0,1","1,0.5,0,1,0.5,0,0.5,0,1","1",""
"","html-keyboard-response","60","107730","0.0-79.0","3TE3O85731U6AV4O7FRBSCJD9J3R2L","A3IXFZZ3JWTCPW","3WRBLBQ2GRU63BU2LFOJL1G32T90GO","","null","<img src=""img/food3.png"" style=""width:200px;border:14px solid red;"">","null","","","","","","","","","",""
"","image-keyboard-response","61","108323","0.0-81.0","3TE3O85731U6AV4O7FRBSCJD9J3R2L","A3IXFZZ3JWTCPW","3WRBLBQ2GRU63BU2LFOJL1G32T90GO","","591.2000000001863","img/food2.png","75","592.5","2","0","false","3","2","1,0.5,0,1,0.5,0,0.5,0,1","1,0.5,0,1,0.5,0,0.5,0,1","1",""
"","html-keyboard-response","62","108625","0.0-82.0","3TE3O85731U6AV4O7FRBSCJD9J3R2L","A3IXFZZ3JWTCPW","3WRBLBQ2GRU63BU2LFOJL1G32T90GO","","null","<img src=""img/food2.png"" style=""width:200px;border:14px solid red;"">","null","","","","","","","","","",""
"","image-keyboard-response","63","109136","0.0-84.0","3TE3O85731U6AV4O7FRBSCJD9J3R2L","A3IXFZZ3JWTCPW","3WRBLBQ2GRU63BU2LFOJL1G32T90GO","","507.90000000037253","img/food2.png","75","509.20000000018626","2","0","false","3","2","1,0.5,0,1,0.5,0,0.5,0,1","1,0.5,0,1,0.5,0,0.5,0,1","1",""
"","html-keyboard-response","64","109438","0.0-85.0","3TE3O85731U6AV4O7FRBSCJD9J3R2L","A3IXFZZ3JWTCPW","3WRBLBQ2GRU63BU2LFOJL1G32T90GO","","null","<img src=""img/food2.png"" style=""width:200px;border:14px solid red;"">","null","","","","","","","","","",""
"","image-keyboard-response","65","110099","0.0-87.0","3TE3O85731U6AV4O7FRBSCJD9J3R2L","A3IXFZZ3JWTCPW","3WRBLBQ2GRU63BU2LFOJL1G32T90GO","","658.2000000001863","img/food3.png","76","659.7000000001863","3","0","false","2","2","1,0.5,0,1,0.5,0,0.5,0,1","1,0.5,0,1,0.5,0,0.5,0,1","1",""
"","html-keyboard-response","66","110401","0.0-88.0","3TE3O85731U6AV4O7FRBSCJD9J3R2L","A3IXFZZ3JWTCPW","3WRBLBQ2GRU63BU2LFOJL1G32T90GO","","null","<img src=""img/food3.png"" style=""width:200px;border:14px solid red;"">","null","","","","","","","","","",""
"","image-keyboard-response","67","110836","0.0-90.0","3TE3O85731U6AV4O7FRBSCJD9J3R2L","A3IXFZZ3JWTCPW","3WRBLBQ2GRU63BU2LFOJL1G32T90GO","","432.60000000009313","img/food3.png","76","434","3","0","false","2","2","1,0.5,0,1,0.5,0,0.5,0,1","1,0.5,0,1,0.5,0,0.5,0,1","1",""
"","html-keyboard-response","68","111138","0.0-91.0","3TE3O85731U6AV4O7FRBSCJD9J3R2L","A3IXFZZ3JWTCPW","3WRBLBQ2GRU63BU2LFOJL1G32T90GO","","null","<img src=""img/food3.png"" style=""width:200px;border:14px solid red;"">","null","","","","","","","","","",""
"","image-keyboard-response","69","111761","0.0-93.0","3TE3O85731U6AV4O7FRBSCJD9J3R2L","A3IXFZZ3JWTCPW","3WRBLBQ2GRU63BU2LFOJL1G32T90GO","","621.3999999999069","img/food5.png","74","630.3999999999069","1","1","false","1","2","1,0.5,0,1,0.5,0,0.5,0,1","1,0.5,0,1,0.5,0,0.5,0,1","1",""
"","html-keyboard-response","70","112071","0.0-94.0","3TE3O85731U6AV4O7FRBSCJD9J3R2L","A3IXFZZ3JWTCPW","3WRBLBQ2GRU63BU2LFOJL1G32T90GO","","null","<img src=""img/food5.png"" style=""width:200px; border:14px solid green;"">","null","","","","","","","","","",""
"","image-keyboard-response","71","112792","0.0-96.0","3TE3O85731U6AV4O7FRBSCJD9J3R2L","A3IXFZZ3JWTCPW","3WRBLBQ2GRU63BU2LFOJL1G32T90GO","","718.2999999998137","img/food2.png","75","719.6000000000931","2","0","false","3","2","1,0.5,0,1,0.5,0,0.5,0,1","1,0.5,0,1,0.5,0,0.5,0,1","1",""
"","html-keyboard-response","72","113094","0.0-97.0","3TE3O85731U6AV4O7FRBSCJD9J3R2L","A3IXFZZ3JWTCPW","3WRBLBQ2GRU63BU2LFOJL1G32T90GO","","null","<img src=""img/food2.png"" style=""width:200px;border:14px solid red;"">","null","","","","","","","","","",""
"","image-keyboard-response","73","113602","0.0-99.0","3TE3O85731U6AV4O7FRBSCJD9J3R2L","A3IXFZZ3JWTCPW","3WRBLBQ2GRU63BU2LFOJL1G32T90GO","","505.6999999997206","img/food2.png","75","507","2","0","false","3","2","1,0.5,0,1,0.5,0,0.5,0,1","1,0.5,0,1,0.5,0,0.5,0,1","1",""
"","html-keyboard-response","74","113904","0.0-100.0","3TE3O85731U6AV4O7FRBSCJD9J3R2L","A3IXFZZ3JWTCPW","3WRBLBQ2GRU63BU2LFOJL1G32T90GO","","null","<img src=""img/food2.png"" style=""width:200px;border:14px solid red;"">","null","","","","","","","","","",""
"","image-keyboard-response","75","114599","0.0-102.0","3TE3O85731U6AV4O7FRBSCJD9J3R2L","A3IXFZZ3JWTCPW","3WRBLBQ2GRU63BU2LFOJL1G32T90GO","","692.9000000003725","img/food3.png","76","694.1000000000931","3","0","false","2","2","1,0.5,0,1,0.5,0,0.5,0,1","1,0.5,0,1,0.5,0,0.5,0,1","1",""
"","html-keyboard-response","76","114901","0.0-103.0","3TE3O85731U6AV4O7FRBSCJD9J3R2L","A3IXFZZ3JWTCPW","3WRBLBQ2GRU63BU2LFOJL1G32T90GO","","null","<img src=""img/food3.png"" style=""width:200px;border:14px solid red;"">","null","","","","","","","","","",""
"","image-keyboard-response","77","115599","0.0-105.0","3TE3O85731U6AV4O7FRBSCJD9J3R2L","A3IXFZZ3JWTCPW","3WRBLBQ2GRU63BU2LFOJL1G32T90GO","","696.2000000001863","img/food2.png","74","697.3999999999069","1","1","false","3","2","1,0.5,0,1,0.5,0,0.5,0,1","1,0.5,0,1,0.5,0,0.5,0,1","1",""
"","html-keyboard-response","78","115901","0.0-106.0","3TE3O85731U6AV4O7FRBSCJD9J3R2L","A3IXFZZ3JWTCPW","3WRBLBQ2GRU63BU2LFOJL1G32T90GO","","null","<img src=""img/food2.png"" style=""width:200px; border:14px solid green;"">","null","","","","","","","","","",""
"","image-keyboard-response","79","116773","0.0-108.0","3TE3O85731U6AV4O7FRBSCJD9J3R2L","A3IXFZZ3JWTCPW","3WRBLBQ2GRU63BU2LFOJL1G32T90GO","","870.2000000001863","img/food3.png","76","871.3999999999069","3","0","false","2","2","1,0.5,0,1,0.5,0,0.5,0,1","1,0.5,0,1,0.5,0,0.5,0,1","1",""
"","html-keyboard-response","80","117076","0.0-109.0","3TE3O85731U6AV4O7FRBSCJD9J3R2L","A3IXFZZ3JWTCPW","3WRBLBQ2GRU63BU2LFOJL1G32T90GO","","null","<img src=""img/food3.png"" style=""width:200px;border:14px solid red;"">","null","","","","","","","","","",""
"","image-keyboard-response","81","117774","0.0-111.0","3TE3O85731U6AV4O7FRBSCJD9J3R2L","A3IXFZZ3JWTCPW","3WRBLBQ2GRU63BU2LFOJL1G32T90GO","","696.0999999996275","img/food2.png","75","697.2999999998137","2","0","false","3","2","1,0.5,0,1,0.5,0,0.5,0,1","1,0.5,0,1,0.5,0,0.5,0,1","1",""
"","html-keyboard-response","82","118076","0.0-112.0","3TE3O85731U6AV4O7FRBSCJD9J3R2L","A3IXFZZ3JWTCPW","3WRBLBQ2GRU63BU2LFOJL1G32T90GO","","null","<img src=""img/food2.png"" style=""width:200px;border:14px solid red;"">","null","","","","","","","","","",""
"","image-keyboard-response","83","118670","0.0-114.0","3TE3O85731U6AV4O7FRBSCJD9J3R2L","A3IXFZZ3JWTCPW","3WRBLBQ2GRU63BU2LFOJL1G32T90GO","","592","img/food3.png","76","593.3999999999069","3","0","false","2","2","1,0.5,0,1,0.5,0,0.5,0,1","1,0.5,0,1,0.5,0,0.5,0,1","1",""
"","html-keyboard-response","84","118972","0.0-115.0","3TE3O85731U6AV4O7FRBSCJD9J3R2L","A3IXFZZ3JWTCPW","3WRBLBQ2GRU63BU2LFOJL1G32T90GO","","null","<img src=""img/food3.png"" style=""width:200px;border:14px solid red;"">","null","","","","","","","","","",""
"","image-keyboard-response","85","119418","0.0-117.0","3TE3O85731U6AV4O7FRBSCJD9J3R2L","A3IXFZZ3JWTCPW","3WRBLBQ2GRU63BU2LFOJL1G32T90GO","","443.39999999990687","img/food3.png","76","444.60000000009313","3","0","false","2","2","1,0.5,0,1,0.5,0,0.5,0,1","1,0.5,0,1,0.5,0,0.5,0,1","1",""
"","html-keyboard-response","86","119720","0.0-118.0","3TE3O85731U6AV4O7FRBSCJD9J3R2L","A3IXFZZ3JWTCPW","3WRBLBQ2GRU63BU2LFOJL1G32T90GO","","null","<img src=""img/food3.png"" style=""width:200px;border:14px solid red;"">","null","","","","","","","","","",""
"","image-keyboard-response","87","120140","0.0-120.0","3TE3O85731U6AV4O7FRBSCJD9J3R2L","A3IXFZZ3JWTCPW","3WRBLBQ2GRU63BU2LFOJL1G32T90GO","","417.6999999997206","img/food3.png","76","418.90000000037253","3","0","false","2","2","1,0.5,0,1,0.5,0,0.5,0,1","1,0.5,0,1,0.5,0,0.5,0,1","1",""
"","html-keyboard-response","88","120442","0.0-121.0","3TE3O85731U6AV4O7FRBSCJD9J3R2L","A3IXFZZ3JWTCPW","3WRBLBQ2GRU63BU2LFOJL1G32T90GO","","null","<img src=""img/food3.png"" style=""width:200px;border:14px solid red;"">","null","","","","","","","","","",""
"","image-keyboard-response","89","121102","0.0-123.0","3TE3O85731U6AV4O7FRBSCJD9J3R2L","A3IXFZZ3JWTCPW","3WRBLBQ2GRU63BU2LFOJL1G32T90GO","","651.3999999999069","img/food5.png","74","652.7000000001863","1","1","false","1","2","1,0.5,0,1,0.5,0,0.5,0,1","1,0.5,0,1,0.5,0,0.5,0,1","1",""
"","html-keyboard-response","90","121404","0.0-124.0","3TE3O85731U6AV4O7FRBSCJD9J3R2L","A3IXFZZ3JWTCPW","3WRBLBQ2GRU63BU2LFOJL1G32T90GO","","null","<img src=""img/food5.png"" style=""width:200px; border:14px solid green;"">","null","","","","","","","","","",""
"","image-keyboard-response","91","122173","0.0-126.0","3TE3O85731U6AV4O7FRBSCJD9J3R2L","A3IXFZZ3JWTCPW","3WRBLBQ2GRU63BU2LFOJL1G32T90GO","","765.8000000002794","img/food3.png","76","767.1999999997206","3","0","false","2","2","1,0.5,0,1,0.5,0,0.5,0,1","1,0.5,0,1,0.5,0,0.5,0,1","1",""
"","html-keyboard-response","92","122475","0.0-127.0","3TE3O85731U6AV4O7FRBSCJD9J3R2L","A3IXFZZ3JWTCPW","3WRBLBQ2GRU63BU2LFOJL1G32T90GO","","null","<img src=""img/food3.png"" style=""width:200px;border:14px solid red;"">","null","","","","","","","","","",""
"","image-keyboard-response","93","123125","0.0-129.0","3TE3O85731U6AV4O7FRBSCJD9J3R2L","A3IXFZZ3JWTCPW","3WRBLBQ2GRU63BU2LFOJL1G32T90GO","","647.6000000000931","img/food5.png","74","648.8999999999069","1","1","false","1","2","1,0.5,0,1,0.5,0,0.5,0,1","1,0.5,0,1,0.5,0,0.5,0,1","1",""
"","html-keyboard-response","94","123427","0.0-130.0","3TE3O85731U6AV4O7FRBSCJD9J3R2L","A3IXFZZ3JWTCPW","3WRBLBQ2GRU63BU2LFOJL1G32T90GO","","null","<img src=""img/food5.png"" style=""width:200px; border:14px solid green;"">","null","","","","","","","","","",""
"","image-keyboard-response","95","124367","0.0-132.0","3TE3O85731U6AV4O7FRBSCJD9J3R2L","A3IXFZZ3JWTCPW","3WRBLBQ2GRU63BU2LFOJL1G32T90GO","","937.2000000001863","img/food3.png","76","938.6000000000931","3","0","false","2","2","1,0.5,0,1,0.5,0,0.5,0,1","1,0.5,0,1,0.5,0,0.5,0,1","1",""
"","html-keyboard-response","96","124669","0.0-133.0","3TE3O85731U6AV4O7FRBSCJD9J3R2L","A3IXFZZ3JWTCPW","3WRBLBQ2GRU63BU2LFOJL1G32T90GO","","null","<img src=""img/food3.png"" style=""width:200px;border:14px solid red;"">","null","","","","","","","","","",""
"","image-keyboard-response","97","125378","0.0-135.0","3TE3O85731U6AV4O7FRBSCJD9J3R2L","A3IXFZZ3JWTCPW","3WRBLBQ2GRU63BU2LFOJL1G32T90GO","","707.5","img/food5.png","74","708.7999999998137","1","1","false","1","2","1,0.5,0,1,0.5,0,0.5,0,1","1,0.5,0,1,0.5,0,0.5,0,1","1",""
"","html-keyboard-response","98","125680","0.0-136.0","3TE3O85731U6AV4O7FRBSCJD9J3R2L","A3IXFZZ3JWTCPW","3WRBLBQ2GRU63BU2LFOJL1G32T90GO","","null","<img src=""img/food5.png"" style=""width:200px; border:14px solid green;"">","null","","","","","","","","","",""
"","image-keyboard-response","99","126246","0.0-138.0","3TE3O85731U6AV4O7FRBSCJD9J3R2L","A3IXFZZ3JWTCPW","3WRBLBQ2GRU63BU2LFOJL1G32T90GO","","563.3999999999069","img/food3.png","76","564.7999999998137","3","0","false","2","2","1,0.5,0,1,0.5,0,0.5,0,1","1,0.5,0,1,0.5,0,0.5,0,1","1",""
"","html-keyboard-response","100","126548","0.0-139.0","3TE3O85731U6AV4O7FRBSCJD9J3R2L","A3IXFZZ3JWTCPW","3WRBLBQ2GRU63BU2LFOJL1G32T90GO","","null","<img src=""img/food3.png"" style=""width:200px;border:14px solid red;"">","null","","","","","","","","","",""
"","image-keyboard-response","101","127196","0.0-141.0","3TE3O85731U6AV4O7FRBSCJD9J3R2L","A3IXFZZ3JWTCPW","3WRBLBQ2GRU63BU2LFOJL1G32T90GO","","645.5","img/food2.png","75","646.7999999998137","2","0","false","3","2","1,0.5,0,1,0.5,0,0.5,0,1","1,0.5,0,1,0.5,0,0.5,0,1","1",""
"","html-keyboard-response","102","127498","0.0-142.0","3TE3O85731U6AV4O7FRBSCJD9J3R2L","A3IXFZZ3JWTCPW","3WRBLBQ2GRU63BU2LFOJL1G32T90GO","","null","<img src=""img/food2.png"" style=""width:200px;border:14px solid red;"">","null","","","","","","","","","",""
"","image-keyboard-response","103","128485","0.0-144.0","3TE3O85731U6AV4O7FRBSCJD9J3R2L","A3IXFZZ3JWTCPW","3WRBLBQ2GRU63BU2LFOJL1G32T90GO","","984.6999999997206","img/food2.png","75","986","2","0","false","3","2","1,0.5,0,1,0.5,0,0.5,0,1","1,0.5,0,1,0.5,0,0.5,0,1","1",""
"","html-keyboard-response","104","128787","0.0-145.0","3TE3O85731U6AV4O7FRBSCJD9J3R2L","A3IXFZZ3JWTCPW","3WRBLBQ2GRU63BU2LFOJL1G32T90GO","","null","<img src=""img/food2.png"" style=""width:200px;border:14px solid red;"">","null","","","","","","","","","",""
"","image-keyboard-response","105","129789","0.0-147.0","3TE3O85731U6AV4O7FRBSCJD9J3R2L","A3IXFZZ3JWTCPW","3WRBLBQ2GRU63BU2LFOJL1G32T90GO","","","img/food5.png","","1001.5","-1","0","true","1","2","1,0.5,0,1,0.5,0,0.5,0,1","1,0.5,0,1,0.5,0,0.5,0,1","1",""
"","html-keyboard-response","106","130091","0.0-148.0","3TE3O85731U6AV4O7FRBSCJD9J3R2L","A3IXFZZ3JWTCPW","3WRBLBQ2GRU63BU2LFOJL1G32T90GO","","null","<img src=""img/food5.png"" style=""width:200px;border:14px solid red;"">","null","","","","","","","","","",""
"","html-keyboard-response","107","132806","0.0-149.0-0.0","3TE3O85731U6AV4O7FRBSCJD9J3R2L","A3IXFZZ3JWTCPW","3WRBLBQ2GRU63BU2LFOJL1G32T90GO","","","","","","","","","","","","","",""
"","image-keyboard-response","108","133808","0.0-150.0","3TE3O85731U6AV4O7FRBSCJD9J3R2L","A3IXFZZ3JWTCPW","3WRBLBQ2GRU63BU2LFOJL1G32T90GO","","","img/food5.png","","1001.7999999998137","-1","0","true","1","2","1,0.5,0,1,0.5,0,0.5,0,1","1,0.5,0,1,0.5,0,0.5,0,1","1",""
"","html-keyboard-response","109","134111","0.0-151.0","3TE3O85731U6AV4O7FRBSCJD9J3R2L","A3IXFZZ3JWTCPW","3WRBLBQ2GRU63BU2LFOJL1G32T90GO","","null","<img src=""img/food5.png"" style=""width:200px;border:14px solid red;"">","null","","","","","","","","","",""
"","html-keyboard-response","110","140147","0.0-152.0-0.0","3TE3O85731U6AV4O7FRBSCJD9J3R2L","A3IXFZZ3JWTCPW","3WRBLBQ2GRU63BU2LFOJL1G32T90GO","","","","","","","","","","","","","",""
"","image-keyboard-response","111","140739","0.0-153.0","3TE3O85731U6AV4O7FRBSCJD9J3R2L","A3IXFZZ3JWTCPW","3WRBLBQ2GRU63BU2LFOJL1G32T90GO","","589.6000000000931","img/food5.png","74","591.1000000000931","1","1","false","1","2","1,0.5,0,1,0.5,0,0.5,0,1","1,0.5,0,1,0.5,0,0.5,0,1","1",""
"","html-keyboard-response","112","141042","0.0-154.0","3TE3O85731U6AV4O7FRBSCJD9J3R2L","A3IXFZZ3JWTCPW","3WRBLBQ2GRU63BU2LFOJL1G32T90GO","","null","<img src=""img/food5.png"" style=""width:200px; border:14px solid green;"">","null","","","","","","","","","",""
"","image-keyboard-response","113","141701","0.0-156.0","3TE3O85731U6AV4O7FRBSCJD9J3R2L","A3IXFZZ3JWTCPW","3WRBLBQ2GRU63BU2LFOJL1G32T90GO","","656.7999999998137","img/food2.png","75","657.9000000003725","2","0","false","3","2","1,0.5,0,1,0.5,0,0.5,0,1","1,0.5,0,1,0.5,0,0.5,0,1","1",""
"","html-keyboard-response","114","142002","0.0-157.0","3TE3O85731U6AV4O7FRBSCJD9J3R2L","A3IXFZZ3JWTCPW","3WRBLBQ2GRU63BU2LFOJL1G32T90GO","","null","<img src=""img/food2.png"" style=""width:200px;border:14px solid red;"">","null","","","","","","","","","",""
"","image-keyboard-response","115","142374","0.0-159.0","3TE3O85731U6AV4O7FRBSCJD9J3R2L","A3IXFZZ3JWTCPW","3WRBLBQ2GRU63BU2LFOJL1G32T90GO","","368.90000000037253","img/food2.png","75","370.20000000018626","2","0","false","3","2","1,0.5,0,1,0.5,0,0.5,0,1","1,0.5,0,1,0.5,0,0.5,0,1","1",""
"","html-keyboard-response","116","142675","0.0-160.0","3TE3O85731U6AV4O7FRBSCJD9J3R2L","A3IXFZZ3JWTCPW","3WRBLBQ2GRU63BU2LFOJL1G32T90GO","","null","<img src=""img/food2.png"" style=""width:200px;border:14px solid red;"">","null","","","","","","","","","",""
"","image-keyboard-response","117","143298","0.0-162.0","3TE3O85731U6AV4O7FRBSCJD9J3R2L","A3IXFZZ3JWTCPW","3WRBLBQ2GRU63BU2LFOJL1G32T90GO","","620.6000000000931","img/food5.png","74","621.6999999997206","1","1","false","1","2","1,0.5,0,1,0.5,0,0.5,0,1","1,0.5,0,1,0.5,0,0.5,0,1","1",""
"","html-keyboard-response","118","143600","0.0-163.0","3TE3O85731U6AV4O7FRBSCJD9J3R2L","A3IXFZZ3JWTCPW","3WRBLBQ2GRU63BU2LFOJL1G32T90GO","","null","<img src=""img/food5.png"" style=""width:200px; border:14px solid green;"">","null","","","","","","","","","",""
"","image-keyboard-response","119","144443","0.0-165.0","3TE3O85731U6AV4O7FRBSCJD9J3R2L","A3IXFZZ3JWTCPW","3WRBLBQ2GRU63BU2LFOJL1G32T90GO","","840.7000000001863","img/food5.png","74","841.8999999999069","1","1","false","1","2","1,0.5,0,1,0.5,0,0.5,0,1","1,0.5,0,1,0.5,0,0.5,0,1","1",""
"","html-keyboard-response","120","144745","0.0-166.0","3TE3O85731U6AV4O7FRBSCJD9J3R2L","A3IXFZZ3JWTCPW","3WRBLBQ2GRU63BU2LFOJL1G32T90GO","","null","<img src=""img/food5.png"" style=""width:200px; border:14px solid green;"">","null","","","","","","","","","",""
"","image-keyboard-response","121","145330","0.0-168.0","3TE3O85731U6AV4O7FRBSCJD9J3R2L","A3IXFZZ3JWTCPW","3WRBLBQ2GRU63BU2LFOJL1G32T90GO","","581.8999999999069","img/food3.png","76","583.3000000002794","3","0","false","2","2","1,0.5,0,1,0.5,0,0.5,0,1","1,0.5,0,1,0.5,0,0.5,0,1","1",""
"","html-keyboard-response","122","145632","0.0-169.0","3TE3O85731U6AV4O7FRBSCJD9J3R2L","A3IXFZZ3JWTCPW","3WRBLBQ2GRU63BU2LFOJL1G32T90GO","","null","<img src=""img/food3.png"" style=""width:200px;border:14px solid red;"">","null","","","","","","","","","",""
"","image-keyboard-response","123","145840","0.0-171.0","3TE3O85731U6AV4O7FRBSCJD9J3R2L","A3IXFZZ3JWTCPW","3WRBLBQ2GRU63BU2LFOJL1G32T90GO","","205.89999999990687","img/food3.png","76","207.1999999997206","3","0","false","2","2","1,0.5,0,1,0.5,0,0.5,0,1","1,0.5,0,1,0.5,0,0.5,0,1","1",""
"","html-keyboard-response","124","146143","0.0-172.0","3TE3O85731U6AV4O7FRBSCJD9J3R2L","A3IXFZZ3JWTCPW","3WRBLBQ2GRU63BU2LFOJL1G32T90GO","","null","<img src=""img/food3.png"" style=""width:200px;border:14px solid red;"">","null","","","","","","","","","",""
"","image-keyboard-response","125","146736","0.0-174.0","3TE3O85731U6AV4O7FRBSCJD9J3R2L","A3IXFZZ3JWTCPW","3WRBLBQ2GRU63BU2LFOJL1G32T90GO","","591.2999999998137","img/food2.png","75","592.5999999996275","2","0","false","3","2","1,0.5,0,1,0.5,0,0.5,0,1","1,0.5,0,1,0.5,0,0.5,0,1","1",""
"","html-keyboard-response","126","147038","0.0-175.0","3TE3O85731U6AV4O7FRBSCJD9J3R2L","A3IXFZZ3JWTCPW","3WRBLBQ2GRU63BU2LFOJL1G32T90GO","","null","<img src=""img/food2.png"" style=""width:200px;border:14px solid red;"">","null","","","","","","","","","",""
"","image-keyboard-response","127","147548","0.0-177.0","3TE3O85731U6AV4O7FRBSCJD9J3R2L","A3IXFZZ3JWTCPW","3WRBLBQ2GRU63BU2LFOJL1G32T90GO","","507.5","img/food3.png","76","508.79999999981374","3","0","false","2","2","1,0.5,0,1,0.5,0,0.5,0,1","1,0.5,0,1,0.5,0,0.5,0,1","1",""
"","html-keyboard-response","128","147850","0.0-178.0","3TE3O85731U6AV4O7FRBSCJD9J3R2L","A3IXFZZ3JWTCPW","3WRBLBQ2GRU63BU2LFOJL1G32T90GO","","null","<img src=""img/food3.png"" style=""width:200px;border:14px solid red;"">","null","","","","","","","","","",""
"","image-keyboard-response","129","148309","0.0-180.0","3TE3O85731U6AV4O7FRBSCJD9J3R2L","A3IXFZZ3JWTCPW","3WRBLBQ2GRU63BU2LFOJL1G32T90GO","","456.6999999997206","img/food3.png","76","458.10000000009313","3","0","false","2","2","1,0.5,0,1,0.5,0,0.5,0,1","1,0.5,0,1,0.5,0,0.5,0,1","1",""
"","html-keyboard-response","130","148611","0.0-181.0","3TE3O85731U6AV4O7FRBSCJD9J3R2L","A3IXFZZ3JWTCPW","3WRBLBQ2GRU63BU2LFOJL1G32T90GO","","null","<img src=""img/food3.png"" style=""width:200px;border:14px solid red;"">","null","","","","","","","","","",""
"","image-keyboard-response","131","149032","0.0-183.0","3TE3O85731U6AV4O7FRBSCJD9J3R2L","A3IXFZZ3JWTCPW","3WRBLBQ2GRU63BU2LFOJL1G32T90GO","","418.1999999997206","img/food3.png","76","419.5","3","0","false","2","2","1,0.5,0,1,0.5,0,0.5,0,1","1,0.5,0,1,0.5,0,0.5,0,1","1",""
"","html-keyboard-response","132","149334","0.0-184.0","3TE3O85731U6AV4O7FRBSCJD9J3R2L","A3IXFZZ3JWTCPW","3WRBLBQ2GRU63BU2LFOJL1G32T90GO","","null","<img src=""img/food3.png"" style=""width:200px;border:14px solid red;"">","null","","","","","","","","","",""
"","image-keyboard-response","133","149877","0.0-186.0","3TE3O85731U6AV4O7FRBSCJD9J3R2L","A3IXFZZ3JWTCPW","3WRBLBQ2GRU63BU2LFOJL1G32T90GO","","540.6000000000931","img/food5.png","74","541.8999999999069","1","1","false","1","2","1,0.5,0,1,0.5,0,0.5,0,1","1,0.5,0,1,0.5,0,0.5,0,1","1",""
"","html-keyboard-response","134","150179","0.0-187.0","3TE3O85731U6AV4O7FRBSCJD9J3R2L","A3IXFZZ3JWTCPW","3WRBLBQ2GRU63BU2LFOJL1G32T90GO","","null","<img src=""img/food5.png"" style=""width:200px; border:14px solid green;"">","null","","","","","","","","","",""
"","image-keyboard-response","135","150770","0.0-189.0","3TE3O85731U6AV4O7FRBSCJD9J3R2L","A3IXFZZ3JWTCPW","3WRBLBQ2GRU63BU2LFOJL1G32T90GO","","587.5","img/food3.png","76","589.4000000003725","3","0","false","2","2","1,0.5,0,1,0.5,0,0.5,0,1","1,0.5,0,1,0.5,0,0.5,0,1","1",""
"","html-keyboard-response","136","151072","0.0-190.0","3TE3O85731U6AV4O7FRBSCJD9J3R2L","A3IXFZZ3JWTCPW","3WRBLBQ2GRU63BU2LFOJL1G32T90GO","","null","<img src=""img/food3.png"" style=""width:200px;border:14px solid red;"">","null","","","","","","","","","",""
"","image-keyboard-response","137","151760","0.0-192.0","3TE3O85731U6AV4O7FRBSCJD9J3R2L","A3IXFZZ3JWTCPW","3WRBLBQ2GRU63BU2LFOJL1G32T90GO","","686.6000000000931","img/food5.png","74","687.8000000002794","1","1","false","1","2","1,0.5,0,1,0.5,0,0.5,0,1","1,0.5,0,1,0.5,0,0.5,0,1","1",""
"","html-keyboard-response","138","152063","0.0-193.0","3TE3O85731U6AV4O7FRBSCJD9J3R2L","A3IXFZZ3JWTCPW","3WRBLBQ2GRU63BU2LFOJL1G32T90GO","","null","<img src=""img/food5.png"" style=""width:200px; border:14px solid green;"">","null","","","","","","","","","",""
"","image-keyboard-response","139","152487","0.0-195.0","3TE3O85731U6AV4O7FRBSCJD9J3R2L","A3IXFZZ3JWTCPW","3WRBLBQ2GRU63BU2LFOJL1G32T90GO","","421.90000000037253","img/food2.png","75","423.29999999981374","2","0","false","3","2","1,0.5,0,1,0.5,0,0.5,0,1","1,0.5,0,1,0.5,0,0.5,0,1","1",""
"","html-keyboard-response","140","152789","0.0-196.0","3TE3O85731U6AV4O7FRBSCJD9J3R2L","A3IXFZZ3JWTCPW","3WRBLBQ2GRU63BU2LFOJL1G32T90GO","","null","<img src=""img/food2.png"" style=""width:200px;border:14px solid red;"">","null","","","","","","","","","",""
"","image-keyboard-response","141","153553","0.0-198.0","3TE3O85731U6AV4O7FRBSCJD9J3R2L","A3IXFZZ3JWTCPW","3WRBLBQ2GRU63BU2LFOJL1G32T90GO","","761.6999999997206","img/food5.png","74","763","1","1","false","1","2","1,0.5,0,1,0.5,0,0.5,0,1","1,0.5,0,1,0.5,0,0.5,0,1","1",""
"","html-keyboard-response","142","153855","0.0-199.0","3TE3O85731U6AV4O7FRBSCJD9J3R2L","A3IXFZZ3JWTCPW","3WRBLBQ2GRU63BU2LFOJL1G32T90GO","","null","<img src=""img/food5.png"" style=""width:200px; border:14px solid green;"">","null","","","","","","","","","",""
"","image-keyboard-response","143","154279","0.0-201.0","3TE3O85731U6AV4O7FRBSCJD9J3R2L","A3IXFZZ3JWTCPW","3WRBLBQ2GRU63BU2LFOJL1G32T90GO","","421.5","img/food5.png","74","422.89999999990687","1","1","false","1","2","1,0.5,0,1,0.5,0,0.5,0,1","1,0.5,0,1,0.5,0,0.5,0,1","1",""
"","html-keyboard-response","144","154581","0.0-202.0","3TE3O85731U6AV4O7FRBSCJD9J3R2L","A3IXFZZ3JWTCPW","3WRBLBQ2GRU63BU2LFOJL1G32T90GO","","null","<img src=""img/food5.png"" style=""width:200px; border:14px solid green;"">","null","","","","","","","","","",""
"","image-keyboard-response","145","155012","0.0-204.0","3TE3O85731U6AV4O7FRBSCJD9J3R2L","A3IXFZZ3JWTCPW","3WRBLBQ2GRU63BU2LFOJL1G32T90GO","","428.6999999997206","img/food5.png","74","430.5","1","1","false","1","2","1,0.5,0,1,0.5,0,0.5,0,1","1,0.5,0,1,0.5,0,0.5,0,1","1",""
"","html-keyboard-response","146","155314","0.0-205.0","3TE3O85731U6AV4O7FRBSCJD9J3R2L","A3IXFZZ3JWTCPW","3WRBLBQ2GRU63BU2LFOJL1G32T90GO","","null","<img src=""img/food5.png"" style=""width:200px; border:14px solid green;"">","null","","","","","","","","","",""
"","image-keyboard-response","147","155959","0.0-207.0","3TE3O85731U6AV4O7FRBSCJD9J3R2L","A3IXFZZ3JWTCPW","3WRBLBQ2GRU63BU2LFOJL1G32T90GO","","642.7000000001863","img/food2.png","75","644","2","0","false","3","2","1,0.5,0,1,0.5,0,0.5,0,1","1,0.5,0,1,0.5,0,0.5,0,1","1",""
"","html-keyboard-response","148","156261","0.0-208.0","3TE3O85731U6AV4O7FRBSCJD9J3R2L","A3IXFZZ3JWTCPW","3WRBLBQ2GRU63BU2LFOJL1G32T90GO","","null","<img src=""img/food2.png"" style=""width:200px;border:14px solid red;"">","null","","","","","","","","","",""
"","image-keyboard-response","149","156893","0.0-210.0","3TE3O85731U6AV4O7FRBSCJD9J3R2L","A3IXFZZ3JWTCPW","3WRBLBQ2GRU63BU2LFOJL1G32T90GO","","629.3000000002794","img/food5.png","74","630.5999999996275","1","1","false","1","2","1,0.5,0,1,0.5,0,0.5,0,1","1,0.5,0,1,0.5,0,0.5,0,1","1",""
"","html-keyboard-response","150","157195","0.0-211.0","3TE3O85731U6AV4O7FRBSCJD9J3R2L","A3IXFZZ3JWTCPW","3WRBLBQ2GRU63BU2LFOJL1G32T90GO","","null","<img src=""img/food5.png"" style=""width:200px; border:14px solid green;"">","null","","","","","","","","","",""
"","image-keyboard-response","151","157815","0.0-213.0","3TE3O85731U6AV4O7FRBSCJD9J3R2L","A3IXFZZ3JWTCPW","3WRBLBQ2GRU63BU2LFOJL1G32T90GO","","618","img/food5.png","74","619.2999999998137","1","1","false","1","2","1,0.5,0,1,0.5,0,0.5,0,1","1,0.5,0,1,0.5,0,0.5,0,1","1",""
"","html-keyboard-response","152","158117","0.0-214.0","3TE3O85731U6AV4O7FRBSCJD9J3R2L","A3IXFZZ3JWTCPW","3WRBLBQ2GRU63BU2LFOJL1G32T90GO","","null","<img src=""img/food5.png"" style=""width:200px; border:14px solid green;"">","null","","","","","","","","","",""
"","image-keyboard-response","153","158639","0.0-216.0","3TE3O85731U6AV4O7FRBSCJD9J3R2L","A3IXFZZ3JWTCPW","3WRBLBQ2GRU63BU2LFOJL1G32T90GO","","519.5","img/food2.png","75","520.7000000001863","2","0","false","3","2","1,0.5,0,1,0.5,0,0.5,0,1","1,0.5,0,1,0.5,0,0.5,0,1","1",""
"","html-keyboard-response","154","158941","0.0-217.0","3TE3O85731U6AV4O7FRBSCJD9J3R2L","A3IXFZZ3JWTCPW","3WRBLBQ2GRU63BU2LFOJL1G32T90GO","","null","<img src=""img/food2.png"" style=""width:200px;border:14px solid red;"">","null","","","","","","","","","",""
"","image-keyboard-response","155","159475","0.0-219.0","3TE3O85731U6AV4O7FRBSCJD9J3R2L","A3IXFZZ3JWTCPW","3WRBLBQ2GRU63BU2LFOJL1G32T90GO","","531.3999999999069","img/food3.png","76","532.6000000000931","3","0","false","2","2","1,0.5,0,1,0.5,0,0.5,0,1","1,0.5,0,1,0.5,0,0.5,0,1","1",""
"","html-keyboard-response","156","159777","0.0-220.0","3TE3O85731U6AV4O7FRBSCJD9J3R2L","A3IXFZZ3JWTCPW","3WRBLBQ2GRU63BU2LFOJL1G32T90GO","","null","<img src=""img/food3.png"" style=""width:200px;border:14px solid red;"">","null","","","","","","","","","",""
"","image-keyboard-response","157","160538","0.0-222.0","3TE3O85731U6AV4O7FRBSCJD9J3R2L","A3IXFZZ3JWTCPW","3WRBLBQ2GRU63BU2LFOJL1G32T90GO","","759.2000000001863","img/food2.png","75","760.3999999999069","2","0","false","3","2","1,0.5,0,1,0.5,0,0.5,0,1","1,0.5,0,1,0.5,0,0.5,0,1","1",""
"","html-keyboard-response","158","160840","0.0-223.0","3TE3O85731U6AV4O7FRBSCJD9J3R2L","A3IXFZZ3JWTCPW","3WRBLBQ2GRU63BU2LFOJL1G32T90GO","","null","<img src=""img/food2.png"" style=""width:200px;border:14px solid red;"">","null","","","","","","","","","",""
"","image-keyboard-response","159","161224","0.0-225.0","3TE3O85731U6AV4O7FRBSCJD9J3R2L","A3IXFZZ3JWTCPW","3WRBLBQ2GRU63BU2LFOJL1G32T90GO","","382.1999999997206","img/food2.png","75","383.5","2","0","false","3","2","1,0.5,0,1,0.5,0,0.5,0,1","1,0.5,0,1,0.5,0,0.5,0,1","1",""
"","html-keyboard-response","160","161526","0.0-226.0","3TE3O85731U6AV4O7FRBSCJD9J3R2L","A3IXFZZ3JWTCPW","3WRBLBQ2GRU63BU2LFOJL1G32T90GO","","null","<img src=""img/food2.png"" style=""width:200px;border:14px solid red;"">","null","","","","","","","","","",""
"","image-keyboard-response","161","162019","0.0-228.0","3TE3O85731U6AV4O7FRBSCJD9J3R2L","A3IXFZZ3JWTCPW","3WRBLBQ2GRU63BU2LFOJL1G32T90GO","","490.40000000037253","img/food2.png","76","491.70000000018626","3","1","false","3","2","1,0.5,0,1,0.5,0,0.5,0,1","1,0.5,0,1,0.5,0,0.5,0,1","1",""
"","html-keyboard-response","162","162322","0.0-229.0","3TE3O85731U6AV4O7FRBSCJD9J3R2L","A3IXFZZ3JWTCPW","3WRBLBQ2GRU63BU2LFOJL1G32T90GO","","null","<img src=""img/food2.png"" style=""width:200px; border:14px solid green;"">","null","","","","","","","","","",""
"","image-keyboard-response","163","162500","0.0-231.0","3TE3O85731U6AV4O7FRBSCJD9J3R2L","A3IXFZZ3JWTCPW","3WRBLBQ2GRU63BU2LFOJL1G32T90GO","","176.39999999990687","img/food5.png","75","177.79999999981374","2","1","false","1","2","1,0.5,0,1,0.5,0,0.5,0,1","1,0.5,0,1,0.5,0,0.5,0,1","1",""
"","html-keyboard-response","164","162802","0.0-232.0","3TE3O85731U6AV4O7FRBSCJD9J3R2L","A3IXFZZ3JWTCPW","3WRBLBQ2GRU63BU2LFOJL1G32T90GO","","null","<img src=""img/food5.png"" style=""width:200px; border:14px solid green;"">","null","","","","","","","","","",""
"","image-keyboard-response","165","162988","0.0-234.0","3TE3O85731U6AV4O7FRBSCJD9J3R2L","A3IXFZZ3JWTCPW","3WRBLBQ2GRU63BU2LFOJL1G32T90GO","","184.10000000009313","img/food5.png","74","185.3000000002794","1","1","false","1","2","1,0.5,0,1,0.5,0,0.5,0,1","1,0.5,0,1,0.5,0,0.5,0,1","1",""
"","html-keyboard-response","166","163291","0.0-235.0","3TE3O85731U6AV4O7FRBSCJD9J3R2L","A3IXFZZ3JWTCPW","3WRBLBQ2GRU63BU2LFOJL1G32T90GO","","null","<img src=""img/food5.png"" style=""width:200px; border:14px solid green;"">","null","","","","","","","","","",""
"","image-keyboard-response","167","163834","0.0-237.0","3TE3O85731U6AV4O7FRBSCJD9J3R2L","A3IXFZZ3JWTCPW","3WRBLBQ2GRU63BU2LFOJL1G32T90GO","","540.8000000002794","img/food5.png","74","542.3999999999069","1","1","false","1","2","1,0.5,0,1,0.5,0,0.5,0,1","1,0.5,0,1,0.5,0,0.5,0,1","1",""
"","html-keyboard-response","168","164136","0.0-238.0","3TE3O85731U6AV4O7FRBSCJD9J3R2L","A3IXFZZ3JWTCPW","3WRBLBQ2GRU63BU2LFOJL1G32T90GO","","null","<img src=""img/food5.png"" style=""width:200px; border:14px solid green;"">","null","","","","","","","","","",""
"","image-keyboard-response","169","164449","0.0-240.0","3TE3O85731U6AV4O7FRBSCJD9J3R2L","A3IXFZZ3JWTCPW","3WRBLBQ2GRU63BU2LFOJL1G32T90GO","","310.60000000009313","img/food5.png","74","311.89999999990687","1","1","false","1","2","1,0.5,0,1,0.5,0,0.5,0,1","1,0.5,0,1,0.5,0,0.5,0,1","1",""
"","html-keyboard-response","170","164751","0.0-241.0","3TE3O85731U6AV4O7FRBSCJD9J3R2L","A3IXFZZ3JWTCPW","3WRBLBQ2GRU63BU2LFOJL1G32T90GO","","null","<img src=""img/food5.png"" style=""width:200px; border:14px solid green;"">","null","","","","","","","","","",""
"","image-keyboard-response","171","165372","0.0-243.0","3TE3O85731U6AV4O7FRBSCJD9J3R2L","A3IXFZZ3JWTCPW","3WRBLBQ2GRU63BU2LFOJL1G32T90GO","","618.1999999997206","img/food2.png","75","619.3999999999069","2","0","false","3","2","1,0.5,0,1,0.5,0,0.5,0,1","1,0.5,0,1,0.5,0,0.5,0,1","1",""
"","html-keyboard-response","172","165674","0.0-244.0","3TE3O85731U6AV4O7FRBSCJD9J3R2L","A3IXFZZ3JWTCPW","3WRBLBQ2GRU63BU2LFOJL1G32T90GO","","null","<img src=""img/food2.png"" style=""width:200px;border:14px solid red;"">","null","","","","","","","","","",""
"","image-keyboard-response","173","166185","0.0-246.0","3TE3O85731U6AV4O7FRBSCJD9J3R2L","A3IXFZZ3JWTCPW","3WRBLBQ2GRU63BU2LFOJL1G32T90GO","","507.90000000037253","img/food3.png","76","510.20000000018626","3","0","false","2","2","1,0.5,0,1,0.5,0,0.5,0,1","1,0.5,0,1,0.5,0,0.5,0,1","1",""
"","html-keyboard-response","174","166487","0.0-247.0","3TE3O85731U6AV4O7FRBSCJD9J3R2L","A3IXFZZ3JWTCPW","3WRBLBQ2GRU63BU2LFOJL1G32T90GO","","null","<img src=""img/food3.png"" style=""width:200px;border:14px solid red;"">","null","","","","","","","","","",""
"","image-keyboard-response","175","166899","0.0-249.0","3TE3O85731U6AV4O7FRBSCJD9J3R2L","A3IXFZZ3JWTCPW","3WRBLBQ2GRU63BU2LFOJL1G32T90GO","","409.59999999962747","img/food3.png","76","410.89999999990687","3","0","false","2","2","1,0.5,0,1,0.5,0,0.5,0,1","1,0.5,0,1,0.5,0,0.5,0,1","1",""
"","html-keyboard-response","176","167201","0.0-250.0","3TE3O85731U6AV4O7FRBSCJD9J3R2L","A3IXFZZ3JWTCPW","3WRBLBQ2GRU63BU2LFOJL1G32T90GO","","null","<img src=""img/food3.png"" style=""width:200px;border:14px solid red;"">","null","","","","","","","","","",""
"","image-keyboard-response","177","167845","0.0-252.0","3TE3O85731U6AV4O7FRBSCJD9J3R2L","A3IXFZZ3JWTCPW","3WRBLBQ2GRU63BU2LFOJL1G32T90GO","","641.7999999998137","img/food5.png","74","643.3999999999069","1","1","false","1","2","1,0.5,0,1,0.5,0,0.5,0,1","1,0.5,0,1,0.5,0,0.5,0,1","1",""
"","html-keyboard-response","178","168147","0.0-253.0","3TE3O85731U6AV4O7FRBSCJD9J3R2L","A3IXFZZ3JWTCPW","3WRBLBQ2GRU63BU2LFOJL1G32T90GO","","null","<img src=""img/food5.png"" style=""width:200px; border:14px solid green;"">","null","","","","","","","","","",""
"","image-keyboard-response","179","168838","0.0-255.0","3TE3O85731U6AV4O7FRBSCJD9J3R2L","A3IXFZZ3JWTCPW","3WRBLBQ2GRU63BU2LFOJL1G32T90GO","","688.8999999999069","img/food3.png","76","690.2000000001863","3","0","false","2","2","1,0.5,0,1,0.5,0,0.5,0,1","1,0.5,0,1,0.5,0,0.5,0,1","1",""
"","html-keyboard-response","180","169140","0.0-256.0","3TE3O85731U6AV4O7FRBSCJD9J3R2L","A3IXFZZ3JWTCPW","3WRBLBQ2GRU63BU2LFOJL1G32T90GO","","null","<img src=""img/food3.png"" style=""width:200px;border:14px solid red;"">","null","","","","","","","","","",""
"","image-keyboard-response","181","169545","0.0-258.0","3TE3O85731U6AV4O7FRBSCJD9J3R2L","A3IXFZZ3JWTCPW","3WRBLBQ2GRU63BU2LFOJL1G32T90GO","","402.5","img/food3.png","76","404.3000000002794","3","0","false","2","2","1,0.5,0,1,0.5,0,0.5,0,1","1,0.5,0,1,0.5,0,0.5,0,1","1",""
"","html-keyboard-response","182","169847","0.0-259.0","3TE3O85731U6AV4O7FRBSCJD9J3R2L","A3IXFZZ3JWTCPW","3WRBLBQ2GRU63BU2LFOJL1G32T90GO","","null","<img src=""img/food3.png"" style=""width:200px;border:14px solid red;"">","null","","","","","","","","","",""
"","image-keyboard-response","183","170355","0.0-261.0","3TE3O85731U6AV4O7FRBSCJD9J3R2L","A3IXFZZ3JWTCPW","3WRBLBQ2GRU63BU2LFOJL1G32T90GO","","505.8000000002794","img/food5.png","74","507.10000000009313","1","1","false","1","2","1,0.5,0,1,0.5,0,0.5,0,1","1,0.5,0,1,0.5,0,0.5,0,1","1",""
"","html-keyboard-response","184","170657","0.0-262.0","3TE3O85731U6AV4O7FRBSCJD9J3R2L","A3IXFZZ3JWTCPW","3WRBLBQ2GRU63BU2LFOJL1G32T90GO","","null","<img src=""img/food5.png"" style=""width:200px; border:14px solid green;"">","null","","","","","","","","","",""
"","image-keyboard-response","185","171242","0.0-264.0","3TE3O85731U6AV4O7FRBSCJD9J3R2L","A3IXFZZ3JWTCPW","3WRBLBQ2GRU63BU2LFOJL1G32T90GO","","582.6999999997206","img/food3.png","76","584.0999999996275","3","0","false","2","2","1,0.5,0,1,0.5,0,0.5,0,1","1,0.5,0,1,0.5,0,0.5,0,1","1",""
"","html-keyboard-response","186","171544","0.0-265.0","3TE3O85731U6AV4O7FRBSCJD9J3R2L","A3IXFZZ3JWTCPW","3WRBLBQ2GRU63BU2LFOJL1G32T90GO","","null","<img src=""img/food3.png"" style=""width:200px;border:14px solid red;"">","null","","","","","","","","","",""
"","image-keyboard-response","187","172282","0.0-267.0","3TE3O85731U6AV4O7FRBSCJD9J3R2L","A3IXFZZ3JWTCPW","3WRBLBQ2GRU63BU2LFOJL1G32T90GO","","734.6999999997206","img/food3.png","76","736.1000000000931","3","0","false","2","2","1,0.5,0,1,0.5,0,0.5,0,1","1,0.5,0,1,0.5,0,0.5,0,1","1",""
"","html-keyboard-response","188","172584","0.0-268.0","3TE3O85731U6AV4O7FRBSCJD9J3R2L","A3IXFZZ3JWTCPW","3WRBLBQ2GRU63BU2LFOJL1G32T90GO","","null","<img src=""img/food3.png"" style=""width:200px;border:14px solid red;"">","null","","","","","","","","","",""
"","image-keyboard-response","189","173107","0.0-270.0","3TE3O85731U6AV4O7FRBSCJD9J3R2L","A3IXFZZ3JWTCPW","3WRBLBQ2GRU63BU2LFOJL1G32T90GO","","520.6000000000931","img/food5.png","74","521.7999999998137","1","1","false","1","2","1,0.5,0,1,0.5,0,0.5,0,1","1,0.5,0,1,0.5,0,0.5,0,1","1",""
"","html-keyboard-response","190","173409","0.0-271.0","3TE3O85731U6AV4O7FRBSCJD9J3R2L","A3IXFZZ3JWTCPW","3WRBLBQ2GRU63BU2LFOJL1G32T90GO","","null","<img src=""img/food5.png"" style=""width:200px; border:14px solid green;"">","null","","","","","","","","","",""
"","instructions","191","180897","0.0-273.0","3TE3O85731U6AV4O7FRBSCJD9J3R2L","A3IXFZZ3JWTCPW","3WRBLBQ2GRU63BU2LFOJL1G32T90GO","[{""page_index"":0,""viewing_time"":5744.600000000093},{""page_index"":1,""viewing_time"":1740.8999999999069}]","7486","","","","","","","","","","","",""
"","image-keyboard-response","192","182289","0.0-274.0","3TE3O85731U6AV4O7FRBSCJD9J3R2L","A3IXFZZ3JWTCPW","3WRBLBQ2GRU63BU2LFOJL1G32T90GO","","1390.5","img/food6.png","74","1392.1000000000931","1","0","","3","1","1,0.5,0,1,0.5,0,0.5,0,1","1,0.5,0,1,0.5,0,0.5,0,1","1",""
"","html-keyboard-response","193","182592","0.0-275.0","3TE3O85731U6AV4O7FRBSCJD9J3R2L","A3IXFZZ3JWTCPW","3WRBLBQ2GRU63BU2LFOJL1G32T90GO","","null","<img src=""img/food6.png"" style=""width:200px;border:14px solid red;"">","null","","","","","","","","","",""
"","image-keyboard-response","194","183369","0.0-276.0","3TE3O85731U6AV4O7FRBSCJD9J3R2L","A3IXFZZ3JWTCPW","3WRBLBQ2GRU63BU2LFOJL1G32T90GO","","774.8999999999069","img/food4.png","74","776.3000000002794","1","1","","2","1","1,0.5,0,1,0.5,0,0.5,0,1","1,0.5,0,1,0.5,0,0.5,0,1","1",""
"","html-keyboard-response","195","183671","0.0-277.0","3TE3O85731U6AV4O7FRBSCJD9J3R2L","A3IXFZZ3JWTCPW","3WRBLBQ2GRU63BU2LFOJL1G32T90GO","","null","<img src=""img/food4.png"" style=""width:200px; border:14px solid green;"">","null","","","","","","","","","",""
"","image-keyboard-response","196","184540","0.0-278.0","3TE3O85731U6AV4O7FRBSCJD9J3R2L","A3IXFZZ3JWTCPW","3WRBLBQ2GRU63BU2LFOJL1G32T90GO","","867.6000000000931","img/food6.png","75","868.7000000001863","2","0","","3","1","1,0.5,0,1,0.5,0,0.5,0,1","1,0.5,0,1,0.5,0,0.5,0,1","1",""
"","html-keyboard-response","197","184842","0.0-279.0","3TE3O85731U6AV4O7FRBSCJD9J3R2L","A3IXFZZ3JWTCPW","3WRBLBQ2GRU63BU2LFOJL1G32T90GO","","null","<img src=""img/food6.png"" style=""width:200px;border:14px solid red;"">","null","","","","","","","","","",""
"","image-keyboard-response","198","185891","0.0-280.0","3TE3O85731U6AV4O7FRBSCJD9J3R2L","A3IXFZZ3JWTCPW","3WRBLBQ2GRU63BU2LFOJL1G32T90GO","","1047.1000000000931","img/food1.png","74","1048.1000000000931","1","1","","1","1","1,0.5,0,1,0.5,0,0.5,0,1","1,0.5,0,1,0.5,0,0.5,0,1","1",""
"","html-keyboard-response","199","186193","0.0-281.0","3TE3O85731U6AV4O7FRBSCJD9J3R2L","A3IXFZZ3JWTCPW","3WRBLBQ2GRU63BU2LFOJL1G32T90GO","","null","<img src=""img/food1.png"" style=""width:200px; border:14px solid green;"">","null","","","","","","","","","",""
"","image-keyboard-response","200","187015","0.0-282.0","3TE3O85731U6AV4O7FRBSCJD9J3R2L","A3IXFZZ3JWTCPW","3WRBLBQ2GRU63BU2LFOJL1G32T90GO","","819.3999999999069","img/food4.png","75","820.6999999997206","2","0","","2","1","1,0.5,0,1,0.5,0,0.5,0,1","1,0.5,0,1,0.5,0,0.5,0,1","1",""
"","html-keyboard-response","201","187317","0.0-283.0","3TE3O85731U6AV4O7FRBSCJD9J3R2L","A3IXFZZ3JWTCPW","3WRBLBQ2GRU63BU2LFOJL1G32T90GO","","null","<img src=""img/food4.png"" style=""width:200px;border:14px solid red;"">","null","","","","","","","","","",""
"","image-keyboard-response","202","187950","0.0-284.0","3TE3O85731U6AV4O7FRBSCJD9J3R2L","A3IXFZZ3JWTCPW","3WRBLBQ2GRU63BU2LFOJL1G32T90GO","","630.6000000000931","img/food1.png","74","632.0999999996275","1","1","","1","1","1,0.5,0,1,0.5,0,0.5,0,1","1,0.5,0,1,0.5,0,0.5,0,1","1",""
"","html-keyboard-response","203","188252","0.0-285.0","3TE3O85731U6AV4O7FRBSCJD9J3R2L","A3IXFZZ3JWTCPW","3WRBLBQ2GRU63BU2LFOJL1G32T90GO","","null","<img src=""img/food1.png"" style=""width:200px; border:14px solid green;"">","null","","","","","","","","","",""
"","image-keyboard-response","204","189296","0.0-286.0","3TE3O85731U6AV4O7FRBSCJD9J3R2L","A3IXFZZ3JWTCPW","3WRBLBQ2GRU63BU2LFOJL1G32T90GO","","1041.7000000001863","img/food6.png","76","1042.8999999999069","3","1","","3","1","1,0.5,0,1,0.5,0,0.5,0,1","1,0.5,0,1,0.5,0,0.5,0,1","1",""
"","html-keyboard-response","205","189598","0.0-287.0","3TE3O85731U6AV4O7FRBSCJD9J3R2L","A3IXFZZ3JWTCPW","3WRBLBQ2GRU63BU2LFOJL1G32T90GO","","null","<img src=""img/food6.png"" style=""width:200px; border:14px solid green;"">","null","","","","","","","","","",""
"","image-keyboard-response","206","190283","0.0-288.0","3TE3O85731U6AV4O7FRBSCJD9J3R2L","A3IXFZZ3JWTCPW","3WRBLBQ2GRU63BU2LFOJL1G32T90GO","","683.3999999999069","img/food1.png","74","684.6000000000931","1","1","","1","1","1,0.5,0,1,0.5,0,0.5,0,1","1,0.5,0,1,0.5,0,0.5,0,1","1",""
"","html-keyboard-response","207","190585","0.0-289.0","3TE3O85731U6AV4O7FRBSCJD9J3R2L","A3IXFZZ3JWTCPW","3WRBLBQ2GRU63BU2LFOJL1G32T90GO","","null","<img src=""img/food1.png"" style=""width:200px; border:14px solid green;"">","null","","","","","","","","","",""
"","image-keyboard-response","208","191582","0.0-290.0","3TE3O85731U6AV4O7FRBSCJD9J3R2L","A3IXFZZ3JWTCPW","3WRBLBQ2GRU63BU2LFOJL1G32T90GO","","994.2999999998137","img/food4.png","75","995.7999999998137","2","0","","2","1","1,0.5,0,1,0.5,0,0.5,0,1","1,0.5,0,1,0.5,0,0.5,0,1","1",""
"","html-keyboard-response","209","191884","0.0-291.0","3TE3O85731U6AV4O7FRBSCJD9J3R2L","A3IXFZZ3JWTCPW","3WRBLBQ2GRU63BU2LFOJL1G32T90GO","","null","<img src=""img/food4.png"" style=""width:200px;border:14px solid red;"">","null","","","","","","","","","",""
"","image-keyboard-response","210","192553","0.0-292.0","3TE3O85731U6AV4O7FRBSCJD9J3R2L","A3IXFZZ3JWTCPW","3WRBLBQ2GRU63BU2LFOJL1G32T90GO","","666.7999999998137","img/food6.png","74","668.1000000000931","1","0","","3","1","1,0.5,0,1,0.5,0,0.5,0,1","1,0.5,0,1,0.5,0,0.5,0,1","1",""
"","html-keyboard-response","211","192855","0.0-293.0","3TE3O85731U6AV4O7FRBSCJD9J3R2L","A3IXFZZ3JWTCPW","3WRBLBQ2GRU63BU2LFOJL1G32T90GO","","null","<img src=""img/food6.png"" style=""width:200px;border:14px solid red;"">","null","","","","","","","","","",""
"","image-keyboard-response","212","193645","0.0-294.0","3TE3O85731U6AV4O7FRBSCJD9J3R2L","A3IXFZZ3JWTCPW","3WRBLBQ2GRU63BU2LFOJL1G32T90GO","","787.8999999999069","img/food4.png","76","789.1000000000931","3","0","","2","1","1,0.5,0,1,0.5,0,0.5,0,1","1,0.5,0,1,0.5,0,0.5,0,1","1",""
"","html-keyboard-response","213","193947","0.0-295.0","3TE3O85731U6AV4O7FRBSCJD9J3R2L","A3IXFZZ3JWTCPW","3WRBLBQ2GRU63BU2LFOJL1G32T90GO","","null","<img src=""img/food4.png"" style=""width:200px;border:14px solid red;"">","null","","","","","","","","","",""
"","image-keyboard-response","214","194719","0.0-296.0","3TE3O85731U6AV4O7FRBSCJD9J3R2L","A3IXFZZ3JWTCPW","3WRBLBQ2GRU63BU2LFOJL1G32T90GO","","768.8999999999069","img/food1.png","74","771.1000000000931","1","1","","1","1","1,0.5,0,1,0.5,0,0.5,0,1","1,0.5,0,1,0.5,0,0.5,0,1","1",""
"","html-keyboard-response","215","195021","0.0-297.0","3TE3O85731U6AV4O7FRBSCJD9J3R2L","A3IXFZZ3JWTCPW","3WRBLBQ2GRU63BU2LFOJL1G32T90GO","","null","<img src=""img/food1.png"" style=""width:200px; border:14px solid green;"">","null","","","","","","","","","",""
"","image-keyboard-response","216","195609","0.0-298.0","3TE3O85731U6AV4O7FRBSCJD9J3R2L","A3IXFZZ3JWTCPW","3WRBLBQ2GRU63BU2LFOJL1G32T90GO","","586.1999999997206","img/food1.png","74","587.3999999999069","1","1","","1","1","1,0.5,0,1,0.5,0,0.5,0,1","1,0.5,0,1,0.5,0,0.5,0,1","1",""
"","html-keyboard-response","217","195911","0.0-299.0","3TE3O85731U6AV4O7FRBSCJD9J3R2L","A3IXFZZ3JWTCPW","3WRBLBQ2GRU63BU2LFOJL1G32T90GO","","null","<img src=""img/food1.png"" style=""width:200px; border:14px solid green;"">","null","","","","","","","","","",""
"","image-keyboard-response","218","196400","0.0-300.0","3TE3O85731U6AV4O7FRBSCJD9J3R2L","A3IXFZZ3JWTCPW","3WRBLBQ2GRU63BU2LFOJL1G32T90GO","","487.5","img/food1.png","74","488.6999999997206","1","1","","1","1","1,0.5,0,1,0.5,0,0.5,0,1","1,0.5,0,1,0.5,0,0.5,0,1","1",""
"","html-keyboard-response","219","196704","0.0-301.0","3TE3O85731U6AV4O7FRBSCJD9J3R2L","A3IXFZZ3JWTCPW","3WRBLBQ2GRU63BU2LFOJL1G32T90GO","","null","<img src=""img/food1.png"" style=""width:200px; border:14px solid green;"">","null","","","","","","","","","",""
"","image-keyboard-response","220","197676","0.0-302.0","3TE3O85731U6AV4O7FRBSCJD9J3R2L","A3IXFZZ3JWTCPW","3WRBLBQ2GRU63BU2LFOJL1G32T90GO","","970.5999999996275","img/food6.png","76","971.7999999998137","3","1","","3","1","1,0.5,0,1,0.5,0,0.5,0,1","1,0.5,0,1,0.5,0,0.5,0,1","1",""
"","html-keyboard-response","221","197978","0.0-303.0","3TE3O85731U6AV4O7FRBSCJD9J3R2L","A3IXFZZ3JWTCPW","3WRBLBQ2GRU63BU2LFOJL1G32T90GO","","null","<img src=""img/food6.png"" style=""width:200px; border:14px solid green;"">","null","","","","","","","","","",""
"","image-keyboard-response","222","198811","0.0-304.0","3TE3O85731U6AV4O7FRBSCJD9J3R2L","A3IXFZZ3JWTCPW","3WRBLBQ2GRU63BU2LFOJL1G32T90GO","","831.1000000000931","img/food1.png","74","832.3999999999069","1","1","","1","1","1,0.5,0,1,0.5,0,0.5,0,1","1,0.5,0,1,0.5,0,0.5,0,1","1",""
"","html-keyboard-response","223","199113","0.0-305.0","3TE3O85731U6AV4O7FRBSCJD9J3R2L","A3IXFZZ3JWTCPW","3WRBLBQ2GRU63BU2LFOJL1G32T90GO","","null","<img src=""img/food1.png"" style=""width:200px; border:14px solid green;"">","null","","","","","","","","","",""
"","image-keyboard-response","224","199745","0.0-306.0","3TE3O85731U6AV4O7FRBSCJD9J3R2L","A3IXFZZ3JWTCPW","3WRBLBQ2GRU63BU2LFOJL1G32T90GO","","629.5","img/food1.png","74","630.6999999997206","1","1","","1","1","1,0.5,0,1,0.5,0,0.5,0,1","1,0.5,0,1,0.5,0,0.5,0,1","1",""
"","html-keyboard-response","225","200047","0.0-307.0","3TE3O85731U6AV4O7FRBSCJD9J3R2L","A3IXFZZ3JWTCPW","3WRBLBQ2GRU63BU2LFOJL1G32T90GO","","null","<img src=""img/food1.png"" style=""width:200px; border:14px solid green;"">","null","","","","","","","","","",""
"","image-keyboard-response","226","200512","0.0-308.0","3TE3O85731U6AV4O7FRBSCJD9J3R2L","A3IXFZZ3JWTCPW","3WRBLBQ2GRU63BU2LFOJL1G32T90GO","","463.09999999962747","img/food6.png","76","464.39999999990687","3","1","","3","1","1,0.5,0,1,0.5,0,0.5,0,1","1,0.5,0,1,0.5,0,0.5,0,1","1",""
"","html-keyboard-response","227","200814","0.0-309.0","3TE3O85731U6AV4O7FRBSCJD9J3R2L","A3IXFZZ3JWTCPW","3WRBLBQ2GRU63BU2LFOJL1G32T90GO","","null","<img src=""img/food6.png"" style=""width:200px; border:14px solid green;"">","null","","","","","","","","","",""
"","image-keyboard-response","228","201608","0.0-310.0","3TE3O85731U6AV4O7FRBSCJD9J3R2L","A3IXFZZ3JWTCPW","3WRBLBQ2GRU63BU2LFOJL1G32T90GO","","791.6000000000931","img/food4.png","75","793.1000000000931","2","1","","2","1","1,0.5,0,1,0.5,0,0.5,0,1","1,0.5,0,1,0.5,0,0.5,0,1","1",""
"","html-keyboard-response","229","201910","0.0-311.0","3TE3O85731U6AV4O7FRBSCJD9J3R2L","A3IXFZZ3JWTCPW","3WRBLBQ2GRU63BU2LFOJL1G32T90GO","","null","<img src=""img/food4.png"" style=""width:200px; border:14px solid green;"">","null","","","","","","","","","",""
"","image-keyboard-response","230","202321","0.0-312.0","3TE3O85731U6AV4O7FRBSCJD9J3R2L","A3IXFZZ3JWTCPW","3WRBLBQ2GRU63BU2LFOJL1G32T90GO","","408.29999999981374","img/food4.png","75","409.5","2","0","","2","1","1,0.5,0,1,0.5,0,0.5,0,1","1,0.5,0,1,0.5,0,0.5,0,1","1",""
"","html-keyboard-response","231","202623","0.0-313.0","3TE3O85731U6AV4O7FRBSCJD9J3R2L","A3IXFZZ3JWTCPW","3WRBLBQ2GRU63BU2LFOJL1G32T90GO","","null","<img src=""img/food4.png"" style=""width:200px;border:14px solid red;"">","null","","","","","","","","","",""
"","image-keyboard-response","232","203019","0.0-314.0","3TE3O85731U6AV4O7FRBSCJD9J3R2L","A3IXFZZ3JWTCPW","3WRBLBQ2GRU63BU2LFOJL1G32T90GO","","394.5","img/food4.png","75","395.70000000018626","2","0","","2","1","1,0.5,0,1,0.5,0,0.5,0,1","1,0.5,0,1,0.5,0,0.5,0,1","1",""
"","html-keyboard-response","233","203321","0.0-315.0","3TE3O85731U6AV4O7FRBSCJD9J3R2L","A3IXFZZ3JWTCPW","3WRBLBQ2GRU63BU2LFOJL1G32T90GO","","null","<img src=""img/food4.png"" style=""width:200px;border:14px solid red;"">","null","","","","","","","","","",""
"","image-keyboard-response","234","203627","0.0-316.0","3TE3O85731U6AV4O7FRBSCJD9J3R2L","A3IXFZZ3JWTCPW","3WRBLBQ2GRU63BU2LFOJL1G32T90GO","","303.60000000009313","img/food4.png","75","304.89999999990687","2","1","","2","1","1,0.5,0,1,0.5,0,0.5,0,1","1,0.5,0,1,0.5,0,0.5,0,1","1",""
"","html-keyboard-response","235","203929","0.0-317.0","3TE3O85731U6AV4O7FRBSCJD9J3R2L","A3IXFZZ3JWTCPW","3WRBLBQ2GRU63BU2LFOJL1G32T90GO","","null","<img src=""img/food4.png"" style=""width:200px; border:14px solid green;"">","null","","","","","","","","","",""
"","image-keyboard-response","236","204325","0.0-318.0","3TE3O85731U6AV4O7FRBSCJD9J3R2L","A3IXFZZ3JWTCPW","3WRBLBQ2GRU63BU2LFOJL1G32T90GO","","394.20000000018626","img/food4.png","75","395.59999999962747","2","1","","2","1","1,0.5,0,1,0.5,0,0.5,0,1","1,0.5,0,1,0.5,0,0.5,0,1","1",""
"","html-keyboard-response","237","204628","0.0-319.0","3TE3O85731U6AV4O7FRBSCJD9J3R2L","A3IXFZZ3JWTCPW","3WRBLBQ2GRU63BU2LFOJL1G32T90GO","","null","<img src=""img/food4.png"" style=""width:200px; border:14px solid green;"">","null","","","","","","","","","",""
"","image-keyboard-response","238","205012","0.0-320.0","3TE3O85731U6AV4O7FRBSCJD9J3R2L","A3IXFZZ3JWTCPW","3WRBLBQ2GRU63BU2LFOJL1G32T90GO","","381.89999999990687","img/food4.png","75","383.39999999990687","2","0","","2","1","1,0.5,0,1,0.5,0,0.5,0,1","1,0.5,0,1,0.5,0,0.5,0,1","1",""
"","html-keyboard-response","239","205314","0.0-321.0","3TE3O85731U6AV4O7FRBSCJD9J3R2L","A3IXFZZ3JWTCPW","3WRBLBQ2GRU63BU2LFOJL1G32T90GO","","null","<img src=""img/food4.png"" style=""width:200px;border:14px solid red;"">","null","","","","","","","","","",""
"","image-keyboard-response","240","206021","0.0-322.0","3TE3O85731U6AV4O7FRBSCJD9J3R2L","A3IXFZZ3JWTCPW","3WRBLBQ2GRU63BU2LFOJL1G32T90GO","","705.0999999996275","img/food1.png","74","706.2999999998137","1","1","","1","1","1,0.5,0,1,0.5,0,0.5,0,1","1,0.5,0,1,0.5,0,0.5,0,1","1",""
"","html-keyboard-response","241","206323","0.0-323.0","3TE3O85731U6AV4O7FRBSCJD9J3R2L","A3IXFZZ3JWTCPW","3WRBLBQ2GRU63BU2LFOJL1G32T90GO","","null","<img src=""img/food1.png"" style=""width:200px; border:14px solid green;"">","null","","","","","","","","","",""
"","image-keyboard-response","242","207024","0.0-324.0","3TE3O85731U6AV4O7FRBSCJD9J3R2L","A3IXFZZ3JWTCPW","3WRBLBQ2GRU63BU2LFOJL1G32T90GO","","698.5","img/food1.png","74","699.7999999998137","1","1","","1","1","1,0.5,0,1,0.5,0,0.5,0,1","1,0.5,0,1,0.5,0,0.5,0,1","1",""
"","html-keyboard-response","243","207326","0.0-325.0","3TE3O85731U6AV4O7FRBSCJD9J3R2L","A3IXFZZ3JWTCPW","3WRBLBQ2GRU63BU2LFOJL1G32T90GO","","null","<img src=""img/food1.png"" style=""width:200px; border:14px solid green;"">","null","","","","","","","","","",""
"","image-keyboard-response","244","208006","0.0-326.0","3TE3O85731U6AV4O7FRBSCJD9J3R2L","A3IXFZZ3JWTCPW","3WRBLBQ2GRU63BU2LFOJL1G32T90GO","","676.8999999999069","img/food6.png","76","678.5","3","1","","3","1","1,0.5,0,1,0.5,0,0.5,0,1","1,0.5,0,1,0.5,0,0.5,0,1","1",""
"","html-keyboard-response","245","208308","0.0-327.0","3TE3O85731U6AV4O7FRBSCJD9J3R2L","A3IXFZZ3JWTCPW","3WRBLBQ2GRU63BU2LFOJL1G32T90GO","","null","<img src=""img/food6.png"" style=""width:200px; border:14px solid green;"">","null","","","","","","","","","",""
"","image-keyboard-response","246","209060","0.0-328.0","3TE3O85731U6AV4O7FRBSCJD9J3R2L","A3IXFZZ3JWTCPW","3WRBLBQ2GRU63BU2LFOJL1G32T90GO","","750.1999999997206","img/food1.png","74","751.5","1","1","","1","1","1,0.5,0,1,0.5,0,0.5,0,1","1,0.5,0,1,0.5,0,0.5,0,1","1",""
"","html-keyboard-response","247","209363","0.0-329.0","3TE3O85731U6AV4O7FRBSCJD9J3R2L","A3IXFZZ3JWTCPW","3WRBLBQ2GRU63BU2LFOJL1G32T90GO","","null","<img src=""img/food1.png"" style=""width:200px; border:14px solid green;"">","null","","","","","","","","","",""
"","image-keyboard-response","248","210140","0.0-330.0","3TE3O85731U6AV4O7FRBSCJD9J3R2L","A3IXFZZ3JWTCPW","3WRBLBQ2GRU63BU2LFOJL1G32T90GO","","775.1000000000931","img/food1.png","74","776.3000000002794","1","1","","1","1","1,0.5,0,1,0.5,0,0.5,0,1","1,0.5,0,1,0.5,0,0.5,0,1","1",""
"","html-keyboard-response","249","210442","0.0-331.0","3TE3O85731U6AV4O7FRBSCJD9J3R2L","A3IXFZZ3JWTCPW","3WRBLBQ2GRU63BU2LFOJL1G32T90GO","","null","<img src=""img/food1.png"" style=""width:200px; border:14px solid green;"">","null","","","","","","","","","",""
"","image-keyboard-response","250","211270","0.0-332.0","3TE3O85731U6AV4O7FRBSCJD9J3R2L","A3IXFZZ3JWTCPW","3WRBLBQ2GRU63BU2LFOJL1G32T90GO","","825.5","img/food4.png","75","826.8999999999069","2","1","","2","1","1,0.5,0,1,0.5,0,0.5,0,1","1,0.5,0,1,0.5,0,0.5,0,1","1",""
"","html-keyboard-response","251","211572","0.0-333.0","3TE3O85731U6AV4O7FRBSCJD9J3R2L","A3IXFZZ3JWTCPW","3WRBLBQ2GRU63BU2LFOJL1G32T90GO","","null","<img src=""img/food4.png"" style=""width:200px; border:14px solid green;"">","null","","","","","","","","","",""
"","image-keyboard-response","252","212194","0.0-334.0","3TE3O85731U6AV4O7FRBSCJD9J3R2L","A3IXFZZ3JWTCPW","3WRBLBQ2GRU63BU2LFOJL1G32T90GO","","619.5","img/food4.png","75","621.2999999998137","2","0","","2","1","1,0.5,0,1,0.5,0,0.5,0,1","1,0.5,0,1,0.5,0,0.5,0,1","1",""
"","html-keyboard-response","253","212497","0.0-335.0","3TE3O85731U6AV4O7FRBSCJD9J3R2L","A3IXFZZ3JWTCPW","3WRBLBQ2GRU63BU2LFOJL1G32T90GO","","null","<img src=""img/food4.png"" style=""width:200px;border:14px solid red;"">","null","","","","","","","","","",""
"","image-keyboard-response","254","213165","0.0-336.0","3TE3O85731U6AV4O7FRBSCJD9J3R2L","A3IXFZZ3JWTCPW","3WRBLBQ2GRU63BU2LFOJL1G32T90GO","","666.7000000001863","img/food1.png","74","668.2000000001863","1","1","","1","1","1,0.5,0,1,0.5,0,0.5,0,1","1,0.5,0,1,0.5,0,0.5,0,1","1",""
"","html-keyboard-response","255","213468","0.0-337.0","3TE3O85731U6AV4O7FRBSCJD9J3R2L","A3IXFZZ3JWTCPW","3WRBLBQ2GRU63BU2LFOJL1G32T90GO","","null","<img src=""img/food1.png"" style=""width:200px; border:14px solid green;"">","null","","","","","","","","","",""
"","image-keyboard-response","256","214069","0.0-338.0","3TE3O85731U6AV4O7FRBSCJD9J3R2L","A3IXFZZ3JWTCPW","3WRBLBQ2GRU63BU2LFOJL1G32T90GO","","599","img/food4.png","75","600.2999999998137","2","0","","2","1","1,0.5,0,1,0.5,0,0.5,0,1","1,0.5,0,1,0.5,0,0.5,0,1","1",""
"","html-keyboard-response","257","214371","0.0-339.0","3TE3O85731U6AV4O7FRBSCJD9J3R2L","A3IXFZZ3JWTCPW","3WRBLBQ2GRU63BU2LFOJL1G32T90GO","","null","<img src=""img/food4.png"" style=""width:200px;border:14px solid red;"">","null","","","","","","","","","",""
"","image-keyboard-response","258","215023","0.0-340.0","3TE3O85731U6AV4O7FRBSCJD9J3R2L","A3IXFZZ3JWTCPW","3WRBLBQ2GRU63BU2LFOJL1G32T90GO","","649.7999999998137","img/food6.png","76","651.1999999997206","3","1","","3","1","1,0.5,0,1,0.5,0,0.5,0,1","1,0.5,0,1,0.5,0,0.5,0,1","1",""
"","html-keyboard-response","259","215325","0.0-341.0","3TE3O85731U6AV4O7FRBSCJD9J3R2L","A3IXFZZ3JWTCPW","3WRBLBQ2GRU63BU2LFOJL1G32T90GO","","null","<img src=""img/food6.png"" style=""width:200px; border:14px solid green;"">","null","","","","","","","","","",""
"","image-keyboard-response","260","216080","0.0-342.0","3TE3O85731U6AV4O7FRBSCJD9J3R2L","A3IXFZZ3JWTCPW","3WRBLBQ2GRU63BU2LFOJL1G32T90GO","","752.3000000002794","img/food4.png","75","753.6999999997206","2","1","","2","1","1,0.5,0,1,0.5,0,0.5,0,1","1,0.5,0,1,0.5,0,0.5,0,1","1",""
"","html-keyboard-response","261","216382","0.0-343.0","3TE3O85731U6AV4O7FRBSCJD9J3R2L","A3IXFZZ3JWTCPW","3WRBLBQ2GRU63BU2LFOJL1G32T90GO","","null","<img src=""img/food4.png"" style=""width:200px; border:14px solid green;"">","null","","","","","","","","","",""
"","image-keyboard-response","262","217152","0.0-344.0","3TE3O85731U6AV4O7FRBSCJD9J3R2L","A3IXFZZ3JWTCPW","3WRBLBQ2GRU63BU2LFOJL1G32T90GO","","767.9000000003725","img/food4.png","75","769.3000000002794","2","0","","2","1","1,0.5,0,1,0.5,0,0.5,0,1","1,0.5,0,1,0.5,0,0.5,0,1","1",""
"","html-keyboard-response","263","217454","0.0-345.0","3TE3O85731U6AV4O7FRBSCJD9J3R2L","A3IXFZZ3JWTCPW","3WRBLBQ2GRU63BU2LFOJL1G32T90GO","","null","<img src=""img/food4.png"" style=""width:200px;border:14px solid red;"">","null","","","","","","","","","",""
"","image-keyboard-response","264","218156","0.0-346.0","3TE3O85731U6AV4O7FRBSCJD9J3R2L","A3IXFZZ3JWTCPW","3WRBLBQ2GRU63BU2LFOJL1G32T90GO","","699.6999999997206","img/food6.png","76","701","3","1","","3","1","1,0.5,0,1,0.5,0,0.5,0,1","1,0.5,0,1,0.5,0,0.5,0,1","1",""
"","html-keyboard-response","265","218458","0.0-347.0","3TE3O85731U6AV4O7FRBSCJD9J3R2L","A3IXFZZ3JWTCPW","3WRBLBQ2GRU63BU2LFOJL1G32T90GO","","null","<img src=""img/food6.png"" style=""width:200px; border:14px solid green;"">","null","","","","","","","","","",""
"","image-keyboard-response","266","219001","0.0-348.0","3TE3O85731U6AV4O7FRBSCJD9J3R2L","A3IXFZZ3JWTCPW","3WRBLBQ2GRU63BU2LFOJL1G32T90GO","","541.5","img/food1.png","74","542.6999999997206","1","1","","1","1","1,0.5,0,1,0.5,0,0.5,0,1","1,0.5,0,1,0.5,0,0.5,0,1","1",""
"","html-keyboard-response","267","219304","0.0-349.0","3TE3O85731U6AV4O7FRBSCJD9J3R2L","A3IXFZZ3JWTCPW","3WRBLBQ2GRU63BU2LFOJL1G32T90GO","","null","<img src=""img/food1.png"" style=""width:200px; border:14px solid green;"">","null","","","","","","","","","",""
"","image-keyboard-response","268","220004","0.0-350.0","3TE3O85731U6AV4O7FRBSCJD9J3R2L","A3IXFZZ3JWTCPW","3WRBLBQ2GRU63BU2LFOJL1G32T90GO","","698.5","img/food4.png","75","699.8000000002794","2","0","","2","1","1,0.5,0,1,0.5,0,0.5,0,1","1,0.5,0,1,0.5,0,0.5,0,1","1",""
"","html-keyboard-response","269","220306","0.0-351.0","3TE3O85731U6AV4O7FRBSCJD9J3R2L","A3IXFZZ3JWTCPW","3WRBLBQ2GRU63BU2LFOJL1G32T90GO","","null","<img src=""img/food4.png"" style=""width:200px;border:14px solid red;"">","null","","","","","","","","","",""
"","image-keyboard-response","270","221262","0.0-352.0","3TE3O85731U6AV4O7FRBSCJD9J3R2L","A3IXFZZ3JWTCPW","3WRBLBQ2GRU63BU2LFOJL1G32T90GO","","953.3000000002794","img/food1.png","74","954.8000000002794","1","1","","1","1","1,0.5,0,1,0.5,0,0.5,0,1","1,0.5,0,1,0.5,0,0.5,0,1","1",""
"","html-keyboard-response","271","221564","0.0-353.0","3TE3O85731U6AV4O7FRBSCJD9J3R2L","A3IXFZZ3JWTCPW","3WRBLBQ2GRU63BU2LFOJL1G32T90GO","","null","<img src=""img/food1.png"" style=""width:200px; border:14px solid green;"">","null","","","","","","","","","",""
"","image-keyboard-response","272","222099","0.0-354.0","3TE3O85731U6AV4O7FRBSCJD9J3R2L","A3IXFZZ3JWTCPW","3WRBLBQ2GRU63BU2LFOJL1G32T90GO","","532.5","img/food1.png","74","534","1","1","","1","1","1,0.5,0,1,0.5,0,0.5,0,1","1,0.5,0,1,0.5,0,0.5,0,1","1",""
"","html-keyboard-response","273","222401","0.0-355.0","3TE3O85731U6AV4O7FRBSCJD9J3R2L","A3IXFZZ3JWTCPW","3WRBLBQ2GRU63BU2LFOJL1G32T90GO","","null","<img src=""img/food1.png"" style=""width:200px; border:14px solid green;"">","null","","","","","","","","","",""
"","image-keyboard-response","274","222879","0.0-356.0","3TE3O85731U6AV4O7FRBSCJD9J3R2L","A3IXFZZ3JWTCPW","3WRBLBQ2GRU63BU2LFOJL1G32T90GO","","475.60000000009313","img/food1.png","74","477.10000000009313","1","1","","1","1","1,0.5,0,1,0.5,0,0.5,0,1","1,0.5,0,1,0.5,0,0.5,0,1","1",""
"","html-keyboard-response","275","223181","0.0-357.0","3TE3O85731U6AV4O7FRBSCJD9J3R2L","A3IXFZZ3JWTCPW","3WRBLBQ2GRU63BU2LFOJL1G32T90GO","","null","<img src=""img/food1.png"" style=""width:200px; border:14px solid green;"">","null","","","","","","","","","",""
"","image-keyboard-response","276","223725","0.0-358.0","3TE3O85731U6AV4O7FRBSCJD9J3R2L","A3IXFZZ3JWTCPW","3WRBLBQ2GRU63BU2LFOJL1G32T90GO","","541.3000000002794","img/food4.png","75","542.6000000000931","2","1","","2","1","1,0.5,0,1,0.5,0,0.5,0,1","1,0.5,0,1,0.5,0,0.5,0,1","1",""
"","html-keyboard-response","277","224027","0.0-359.0","3TE3O85731U6AV4O7FRBSCJD9J3R2L","A3IXFZZ3JWTCPW","3WRBLBQ2GRU63BU2LFOJL1G32T90GO","","null","<img src=""img/food4.png"" style=""width:200px; border:14px solid green;"">","null","","","","","","","","","",""
"","image-keyboard-response","278","225046","0.0-360.0","3TE3O85731U6AV4O7FRBSCJD9J3R2L","A3IXFZZ3JWTCPW","3WRBLBQ2GRU63BU2LFOJL1G32T90GO","","1017","img/food1.png","74","1018.3999999999069","1","1","","1","1","1,0.5,0,1,0.5,0,0.5,0,1","1,0.5,0,1,0.5,0,0.5,0,1","1",""
"","html-keyboard-response","279","225349","0.0-361.0","3TE3O85731U6AV4O7FRBSCJD9J3R2L","A3IXFZZ3JWTCPW","3WRBLBQ2GRU63BU2LFOJL1G32T90GO","","null","<img src=""img/food1.png"" style=""width:200px; border:14px solid green;"">","null","","","","","","","","","",""
"","image-keyboard-response","280","225792","0.0-362.0","3TE3O85731U6AV4O7FRBSCJD9J3R2L","A3IXFZZ3JWTCPW","3WRBLBQ2GRU63BU2LFOJL1G32T90GO","","441.20000000018626","img/food4.png","75","442.60000000009313","2","1","","2","1","1,0.5,0,1,0.5,0,0.5,0,1","1,0.5,0,1,0.5,0,0.5,0,1","1",""
"","html-keyboard-response","281","226094","0.0-363.0","3TE3O85731U6AV4O7FRBSCJD9J3R2L","A3IXFZZ3JWTCPW","3WRBLBQ2GRU63BU2LFOJL1G32T90GO","","null","<img src=""img/food4.png"" style=""width:200px; border:14px solid green;"">","null","","","","","","","","","",""
"","image-keyboard-response","282","226623","0.0-364.0","3TE3O85731U6AV4O7FRBSCJD9J3R2L","A3IXFZZ3JWTCPW","3WRBLBQ2GRU63BU2LFOJL1G32T90GO","","526.6000000000931","img/food6.png","76","528","3","1","","3","1","1,0.5,0,1,0.5,0,0.5,0,1","1,0.5,0,1,0.5,0,0.5,0,1","1",""
"","html-keyboard-response","283","226925","0.0-365.0","3TE3O85731U6AV4O7FRBSCJD9J3R2L","A3IXFZZ3JWTCPW","3WRBLBQ2GRU63BU2LFOJL1G32T90GO","","null","<img src=""img/food6.png"" style=""width:200px; border:14px solid green;"">","null","","","","","","","","","",""
"","image-keyboard-response","284","227695","0.0-366.0","3TE3O85731U6AV4O7FRBSCJD9J3R2L","A3IXFZZ3JWTCPW","3WRBLBQ2GRU63BU2LFOJL1G32T90GO","","767.2000000001863","img/food4.png","74","768.6000000000931","1","1","","2","1","1,0.5,0,1,0.5,0,0.5,0,1","1,0.5,0,1,0.5,0,0.5,0,1","1",""
"","html-keyboard-response","285","227997","0.0-367.0","3TE3O85731U6AV4O7FRBSCJD9J3R2L","A3IXFZZ3JWTCPW","3WRBLBQ2GRU63BU2LFOJL1G32T90GO","","null","<img src=""img/food4.png"" style=""width:200px; border:14px solid green;"">","null","","","","","","","","","",""
"","image-keyboard-response","286","228737","0.0-368.0","3TE3O85731U6AV4O7FRBSCJD9J3R2L","A3IXFZZ3JWTCPW","3WRBLBQ2GRU63BU2LFOJL1G32T90GO","","737.8000000002794","img/food4.png","75","739.7000000001863","2","0","","2","1","1,0.5,0,1,0.5,0,0.5,0,1","1,0.5,0,1,0.5,0,0.5,0,1","1",""
"","html-keyboard-response","287","229039","0.0-369.0","3TE3O85731U6AV4O7FRBSCJD9J3R2L","A3IXFZZ3JWTCPW","3WRBLBQ2GRU63BU2LFOJL1G32T90GO","","null","<img src=""img/food4.png"" style=""width:200px;border:14px solid red;"">","null","","","","","","","","","",""
"","image-keyboard-response","288","229734","0.0-370.0","3TE3O85731U6AV4O7FRBSCJD9J3R2L","A3IXFZZ3JWTCPW","3WRBLBQ2GRU63BU2LFOJL1G32T90GO","","692.5","img/food6.png","76","693.9000000003725","3","1","","3","1","1,0.5,0,1,0.5,0,0.5,0,1","1,0.5,0,1,0.5,0,0.5,0,1","1",""
"","html-keyboard-response","289","230036","0.0-371.0","3TE3O85731U6AV4O7FRBSCJD9J3R2L","A3IXFZZ3JWTCPW","3WRBLBQ2GRU63BU2LFOJL1G32T90GO","","null","<img src=""img/food6.png"" style=""width:200px; border:14px solid green;"">","null","","","","","","","","","",""
"","image-keyboard-response","290","230717","0.0-372.0","3TE3O85731U6AV4O7FRBSCJD9J3R2L","A3IXFZZ3JWTCPW","3WRBLBQ2GRU63BU2LFOJL1G32T90GO","","679.5999999996275","img/food1.png","74","680.8999999999069","1","1","","1","1","1,0.5,0,1,0.5,0,0.5,0,1","1,0.5,0,1,0.5,0,0.5,0,1","1",""
"","html-keyboard-response","291","231019","0.0-373.0","3TE3O85731U6AV4O7FRBSCJD9J3R2L","A3IXFZZ3JWTCPW","3WRBLBQ2GRU63BU2LFOJL1G32T90GO","","null","<img src=""img/food1.png"" style=""width:200px; border:14px solid green;"">","null","","","","","","","","","",""
"","image-keyboard-response","292","231712","0.0-374.0","3TE3O85731U6AV4O7FRBSCJD9J3R2L","A3IXFZZ3JWTCPW","3WRBLBQ2GRU63BU2LFOJL1G32T90GO","","690.7000000001863","img/food1.png","74","692","1","1","","1","1","1,0.5,0,1,0.5,0,0.5,0,1","1,0.5,0,1,0.5,0,0.5,0,1","1",""
"","html-keyboard-response","293","232014","0.0-375.0","3TE3O85731U6AV4O7FRBSCJD9J3R2L","A3IXFZZ3JWTCPW","3WRBLBQ2GRU63BU2LFOJL1G32T90GO","","null","<img src=""img/food1.png"" style=""width:200px; border:14px solid green;"">","null","","","","","","","","","",""
"","image-keyboard-response","294","232692","0.0-376.0","3TE3O85731U6AV4O7FRBSCJD9J3R2L","A3IXFZZ3JWTCPW","3WRBLBQ2GRU63BU2LFOJL1G32T90GO","","676.1000000000931","img/food6.png","76","677.5","3","1","","3","1","1,0.5,0,1,0.5,0,0.5,0,1","1,0.5,0,1,0.5,0,0.5,0,1","1",""
"","html-keyboard-response","295","232995","0.0-377.0","3TE3O85731U6AV4O7FRBSCJD9J3R2L","A3IXFZZ3JWTCPW","3WRBLBQ2GRU63BU2LFOJL1G32T90GO","","null","<img src=""img/food6.png"" style=""width:200px; border:14px solid green;"">","null","","","","","","","","","",""
"","image-keyboard-response","296","233371","0.0-378.0","3TE3O85731U6AV4O7FRBSCJD9J3R2L","A3IXFZZ3JWTCPW","3WRBLBQ2GRU63BU2LFOJL1G32T90GO","","374.5","img/food6.png","76","375.8000000002794","3","1","","3","1","1,0.5,0,1,0.5,0,0.5,0,1","1,0.5,0,1,0.5,0,0.5,0,1","1",""
"","html-keyboard-response","297","233673","0.0-379.0","3TE3O85731U6AV4O7FRBSCJD9J3R2L","A3IXFZZ3JWTCPW","3WRBLBQ2GRU63BU2LFOJL1G32T90GO","","null","<img src=""img/food6.png"" style=""width:200px; border:14px solid green;"">","null","","","","","","","","","",""
"","image-keyboard-response","298","234349","0.0-380.0","3TE3O85731U6AV4O7FRBSCJD9J3R2L","A3IXFZZ3JWTCPW","3WRBLBQ2GRU63BU2LFOJL1G32T90GO","","674.2000000001863","img/food1.png","74","675.5","1","1","","1","1","1,0.5,0,1,0.5,0,0.5,0,1","1,0.5,0,1,0.5,0,0.5,0,1","1",""
"","html-keyboard-response","299","234651","0.0-381.0","3TE3O85731U6AV4O7FRBSCJD9J3R2L","A3IXFZZ3JWTCPW","3WRBLBQ2GRU63BU2LFOJL1G32T90GO","","null","<img src=""img/food1.png"" style=""width:200px; border:14px solid green;"">","null","","","","","","","","","",""
"","image-keyboard-response","300","235352","0.0-382.0","3TE3O85731U6AV4O7FRBSCJD9J3R2L","A3IXFZZ3JWTCPW","3WRBLBQ2GRU63BU2LFOJL1G32T90GO","","698.2999999998137","img/food4.png","75","699.7999999998137","2","0","","2","1","1,0.5,0,1,0.5,0,0.5,0,1","1,0.5,0,1,0.5,0,0.5,0,1","1",""
"","html-keyboard-response","301","235654","0.0-383.0","3TE3O85731U6AV4O7FRBSCJD9J3R2L","A3IXFZZ3JWTCPW","3WRBLBQ2GRU63BU2LFOJL1G32T90GO","","null","<img src=""img/food4.png"" style=""width:200px;border:14px solid red;"">","null","","","","","","","","","",""
"","image-keyboard-response","302","236168","0.0-384.0","3TE3O85731U6AV4O7FRBSCJD9J3R2L","A3IXFZZ3JWTCPW","3WRBLBQ2GRU63BU2LFOJL1G32T90GO","","511.6999999997206","img/food4.png","75","513.1999999997206","2","0","","2","1","1,0.5,0,1,0.5,0,0.5,0,1","1,0.5,0,1,0.5,0,0.5,0,1","1",""
"","html-keyboard-response","303","236470","0.0-385.0","3TE3O85731U6AV4O7FRBSCJD9J3R2L","A3IXFZZ3JWTCPW","3WRBLBQ2GRU63BU2LFOJL1G32T90GO","","null","<img src=""img/food4.png"" style=""width:200px;border:14px solid red;"">","null","","","","","","","","","",""
"","image-keyboard-response","304","237099","0.0-386.0","3TE3O85731U6AV4O7FRBSCJD9J3R2L","A3IXFZZ3JWTCPW","3WRBLBQ2GRU63BU2LFOJL1G32T90GO","","627.1999999997206","img/food1.png","74","628.5","1","1","","1","1","1,0.5,0,1,0.5,0,0.5,0,1","1,0.5,0,1,0.5,0,0.5,0,1","1",""
"","html-keyboard-response","305","237401","0.0-387.0","3TE3O85731U6AV4O7FRBSCJD9J3R2L","A3IXFZZ3JWTCPW","3WRBLBQ2GRU63BU2LFOJL1G32T90GO","","null","<img src=""img/food1.png"" style=""width:200px; border:14px solid green;"">","null","","","","","","","","","",""
"","image-keyboard-response","306","237814","0.0-388.0","3TE3O85731U6AV4O7FRBSCJD9J3R2L","A3IXFZZ3JWTCPW","3WRBLBQ2GRU63BU2LFOJL1G32T90GO","","410.8000000002794","img/food1.png","74","412.09999999962747","1","1","","1","1","1,0.5,0,1,0.5,0,0.5,0,1","1,0.5,0,1,0.5,0,0.5,0,1","1",""
"","html-keyboard-response","307","238116","0.0-389.0","3TE3O85731U6AV4O7FRBSCJD9J3R2L","A3IXFZZ3JWTCPW","3WRBLBQ2GRU63BU2LFOJL1G32T90GO","","null","<img src=""img/food1.png"" style=""width:200px; border:14px solid green;"">","null","","","","","","","","","",""
"","image-keyboard-response","308","238795","0.0-390.0","3TE3O85731U6AV4O7FRBSCJD9J3R2L","A3IXFZZ3JWTCPW","3WRBLBQ2GRU63BU2LFOJL1G32T90GO","","677.7000000001863","img/food4.png","75","678.8000000002794","2","1","","2","1","1,0.5,0,1,0.5,0,0.5,0,1","1,0.5,0,1,0.5,0,0.5,0,1","1",""
"","html-keyboard-response","309","239098","0.0-391.0","3TE3O85731U6AV4O7FRBSCJD9J3R2L","A3IXFZZ3JWTCPW","3WRBLBQ2GRU63BU2LFOJL1G32T90GO","","null","<img src=""img/food4.png"" style=""width:200px; border:14px solid green;"">","null","","","","","","","","","",""
"","image-keyboard-response","310","239576","0.0-392.0","3TE3O85731U6AV4O7FRBSCJD9J3R2L","A3IXFZZ3JWTCPW","3WRBLBQ2GRU63BU2LFOJL1G32T90GO","","476.09999999962747","img/food4.png","75","477.5","2","1","","2","1","1,0.5,0,1,0.5,0,0.5,0,1","1,0.5,0,1,0.5,0,0.5,0,1","1",""
"","html-keyboard-response","311","239878","0.0-393.0","3TE3O85731U6AV4O7FRBSCJD9J3R2L","A3IXFZZ3JWTCPW","3WRBLBQ2GRU63BU2LFOJL1G32T90GO","","null","<img src=""img/food4.png"" style=""width:200px; border:14px solid green;"">","null","","","","","","","","","",""
"","image-keyboard-response","312","240432","0.0-394.0","3TE3O85731U6AV4O7FRBSCJD9J3R2L","A3IXFZZ3JWTCPW","3WRBLBQ2GRU63BU2LFOJL1G32T90GO","","552.1000000000931","img/food6.png","76","553.5","3","1","","3","1","1,0.5,0,1,0.5,0,0.5,0,1","1,0.5,0,1,0.5,0,0.5,0,1","1",""
"","html-keyboard-response","313","240734","0.0-395.0","3TE3O85731U6AV4O7FRBSCJD9J3R2L","A3IXFZZ3JWTCPW","3WRBLBQ2GRU63BU2LFOJL1G32T90GO","","null","<img src=""img/food6.png"" style=""width:200px; border:14px solid green;"">","null","","","","","","","","","",""
"","image-keyboard-response","314","241081","0.0-396.0","3TE3O85731U6AV4O7FRBSCJD9J3R2L","A3IXFZZ3JWTCPW","3WRBLBQ2GRU63BU2LFOJL1G32T90GO","","345","img/food6.png","76","346.29999999981374","3","1","","3","1","1,0.5,0,1,0.5,0,0.5,0,1","1,0.5,0,1,0.5,0,0.5,0,1","1",""
"","html-keyboard-response","315","241383","0.0-397.0","3TE3O85731U6AV4O7FRBSCJD9J3R2L","A3IXFZZ3JWTCPW","3WRBLBQ2GRU63BU2LFOJL1G32T90GO","","null","<img src=""img/food6.png"" style=""width:200px; border:14px solid green;"">","null","","","","","","","","","",""
"","image-keyboard-response","316","242708","0.0-398.0","3TE3O85731U6AV4O7FRBSCJD9J3R2L","A3IXFZZ3JWTCPW","3WRBLBQ2GRU63BU2LFOJL1G32T90GO","","1322.8000000002794","img/food4.png","75","1324.2000000001863","2","1","","2","1","1,0.5,0,1,0.5,0,0.5,0,1","1,0.5,0,1,0.5,0,0.5,0,1","1",""
"","html-keyboard-response","317","243010","0.0-399.0","3TE3O85731U6AV4O7FRBSCJD9J3R2L","A3IXFZZ3JWTCPW","3WRBLBQ2GRU63BU2LFOJL1G32T90GO","","null","<img src=""img/food4.png"" style=""width:200px; border:14px solid green;"">","null","","","","","","","","","",""
"","image-keyboard-response","318","243632","0.0-400.0","3TE3O85731U6AV4O7FRBSCJD9J3R2L","A3IXFZZ3JWTCPW","3WRBLBQ2GRU63BU2LFOJL1G32T90GO","","619.9000000003725","img/food6.png","76","621.3000000002794","3","1","","3","1","1,0.5,0,1,0.5,0,0.5,0,1","1,0.5,0,1,0.5,0,0.5,0,1","1",""
"","html-keyboard-response","319","243934","0.0-401.0","3TE3O85731U6AV4O7FRBSCJD9J3R2L","A3IXFZZ3JWTCPW","3WRBLBQ2GRU63BU2LFOJL1G32T90GO","","null","<img src=""img/food6.png"" style=""width:200px; border:14px solid green;"">","null","","","","","","","","","",""
"","image-keyboard-response","320","244409","0.0-402.0","3TE3O85731U6AV4O7FRBSCJD9J3R2L","A3IXFZZ3JWTCPW","3WRBLBQ2GRU63BU2LFOJL1G32T90GO","","472.89999999990687","img/food6.png","76","474.10000000009313","3","1","","3","1","1,0.5,0,1,0.5,0,0.5,0,1","1,0.5,0,1,0.5,0,0.5,0,1","1",""
"","html-keyboard-response","321","244711","0.0-403.0","3TE3O85731U6AV4O7FRBSCJD9J3R2L","A3IXFZZ3JWTCPW","3WRBLBQ2GRU63BU2LFOJL1G32T90GO","","null","<img src=""img/food6.png"" style=""width:200px; border:14px solid green;"">","null","","","","","","","","","",""
"","image-keyboard-response","322","245125","0.0-404.0","3TE3O85731U6AV4O7FRBSCJD9J3R2L","A3IXFZZ3JWTCPW","3WRBLBQ2GRU63BU2LFOJL1G32T90GO","","411.90000000037253","img/food6.png","76","413.3000000002794","3","1","","3","1","1,0.5,0,1,0.5,0,0.5,0,1","1,0.5,0,1,0.5,0,0.5,0,1","1",""
"","html-keyboard-response","323","245427","0.0-405.0","3TE3O85731U6AV4O7FRBSCJD9J3R2L","A3IXFZZ3JWTCPW","3WRBLBQ2GRU63BU2LFOJL1G32T90GO","","null","<img src=""img/food6.png"" style=""width:200px; border:14px solid green;"">","null","","","","","","","","","",""
"","image-keyboard-response","324","245852","0.0-406.0","3TE3O85731U6AV4O7FRBSCJD9J3R2L","A3IXFZZ3JWTCPW","3WRBLBQ2GRU63BU2LFOJL1G32T90GO","","423.3000000002794","img/food6.png","76","424.5","3","1","","3","1","1,0.5,0,1,0.5,0,0.5,0,1","1,0.5,0,1,0.5,0,0.5,0,1","1",""
"","html-keyboard-response","325","246154","0.0-407.0","3TE3O85731U6AV4O7FRBSCJD9J3R2L","A3IXFZZ3JWTCPW","3WRBLBQ2GRU63BU2LFOJL1G32T90GO","","null","<img src=""img/food6.png"" style=""width:200px; border:14px solid green;"">","null","","","","","","","","","",""
"","image-keyboard-response","326","246746","0.0-408.0","3TE3O85731U6AV4O7FRBSCJD9J3R2L","A3IXFZZ3JWTCPW","3WRBLBQ2GRU63BU2LFOJL1G32T90GO","","589.5999999996275","img/food1.png","74","590.8999999999069","1","1","","1","1","1,0.5,0,1,0.5,0,0.5,0,1","1,0.5,0,1,0.5,0,0.5,0,1","1",""
"","html-keyboard-response","327","247048","0.0-409.0","3TE3O85731U6AV4O7FRBSCJD9J3R2L","A3IXFZZ3JWTCPW","3WRBLBQ2GRU63BU2LFOJL1G32T90GO","","null","<img src=""img/food1.png"" style=""width:200px; border:14px solid green;"">","null","","","","","","","","","",""
"","image-keyboard-response","328","247736","0.0-410.0","3TE3O85731U6AV4O7FRBSCJD9J3R2L","A3IXFZZ3JWTCPW","3WRBLBQ2GRU63BU2LFOJL1G32T90GO","","686.7000000001863","img/food6.png","76","688","3","1","","3","1","1,0.5,0,1,0.5,0,0.5,0,1","1,0.5,0,1,0.5,0,0.5,0,1","1",""
"","html-keyboard-response","329","248038","0.0-411.0","3TE3O85731U6AV4O7FRBSCJD9J3R2L","A3IXFZZ3JWTCPW","3WRBLBQ2GRU63BU2LFOJL1G32T90GO","","null","<img src=""img/food6.png"" style=""width:200px; border:14px solid green;"">","null","","","","","","","","","",""
"","image-keyboard-response","330","248593","0.0-412.0","3TE3O85731U6AV4O7FRBSCJD9J3R2L","A3IXFZZ3JWTCPW","3WRBLBQ2GRU63BU2LFOJL1G32T90GO","","552.7000000001863","img/food1.png","74","554","1","1","","1","1","1,0.5,0,1,0.5,0,0.5,0,1","1,0.5,0,1,0.5,0,0.5,0,1","1",""
"","html-keyboard-response","331","248895","0.0-413.0","3TE3O85731U6AV4O7FRBSCJD9J3R2L","A3IXFZZ3JWTCPW","3WRBLBQ2GRU63BU2LFOJL1G32T90GO","","null","<img src=""img/food1.png"" style=""width:200px; border:14px solid green;"">","null","","","","","","","","","",""
"","image-keyboard-response","332","249522","0.0-414.0","3TE3O85731U6AV4O7FRBSCJD9J3R2L","A3IXFZZ3JWTCPW","3WRBLBQ2GRU63BU2LFOJL1G32T90GO","","625.2999999998137","img/food6.png","76","626.8000000002794","3","1","","3","1","1,0.5,0,1,0.5,0,0.5,0,1","1,0.5,0,1,0.5,0,0.5,0,1","1",""
"","html-keyboard-response","333","249825","0.0-415.0","3TE3O85731U6AV4O7FRBSCJD9J3R2L","A3IXFZZ3JWTCPW","3WRBLBQ2GRU63BU2LFOJL1G32T90GO","","null","<img src=""img/food6.png"" style=""width:200px; border:14px solid green;"">","null","","","","","","","","","",""
"","image-keyboard-response","334","250371","0.0-416.0","3TE3O85731U6AV4O7FRBSCJD9J3R2L","A3IXFZZ3JWTCPW","3WRBLBQ2GRU63BU2LFOJL1G32T90GO","","544.7999999998137","img/food1.png","74","546.2000000001863","1","1","","1","1","1,0.5,0,1,0.5,0,0.5,0,1","1,0.5,0,1,0.5,0,0.5,0,1","1",""
"","html-keyboard-response","335","250674","0.0-417.0","3TE3O85731U6AV4O7FRBSCJD9J3R2L","A3IXFZZ3JWTCPW","3WRBLBQ2GRU63BU2LFOJL1G32T90GO","","null","<img src=""img/food1.png"" style=""width:200px; border:14px solid green;"">","null","","","","","","","","","",""
"","image-keyboard-response","336","251359","0.0-418.0","3TE3O85731U6AV4O7FRBSCJD9J3R2L","A3IXFZZ3JWTCPW","3WRBLBQ2GRU63BU2LFOJL1G32T90GO","","682.6999999997206","img/food6.png","76","684.2000000001863","3","1","","3","1","1,0.5,0,1,0.5,0,0.5,0,1","1,0.5,0,1,0.5,0,0.5,0,1","1",""
"","html-keyboard-response","337","251661","0.0-419.0","3TE3O85731U6AV4O7FRBSCJD9J3R2L","A3IXFZZ3JWTCPW","3WRBLBQ2GRU63BU2LFOJL1G32T90GO","","null","<img src=""img/food6.png"" style=""width:200px; border:14px solid green;"">","null","","","","","","","","","",""
"","image-keyboard-response","338","252365","0.0-420.0","3TE3O85731U6AV4O7FRBSCJD9J3R2L","A3IXFZZ3JWTCPW","3WRBLBQ2GRU63BU2LFOJL1G32T90GO","","701.5999999996275","img/food1.png","74","703","1","1","","1","1","1,0.5,0,1,0.5,0,0.5,0,1","1,0.5,0,1,0.5,0,0.5,0,1","1",""
"","html-keyboard-response","339","252667","0.0-421.0","3TE3O85731U6AV4O7FRBSCJD9J3R2L","A3IXFZZ3JWTCPW","3WRBLBQ2GRU63BU2LFOJL1G32T90GO","","null","<img src=""img/food1.png"" style=""width:200px; border:14px solid green;"">","null","","","","","","","","","",""
"","image-keyboard-response","340","253336","0.0-422.0","3TE3O85731U6AV4O7FRBSCJD9J3R2L","A3IXFZZ3JWTCPW","3WRBLBQ2GRU63BU2LFOJL1G32T90GO","","666.7000000001863","img/food4.png","75","668.3999999999069","2","1","","2","1","1,0.5,0,1,0.5,0,0.5,0,1","1,0.5,0,1,0.5,0,0.5,0,1","1",""
"","html-keyboard-response","341","253638","0.0-423.0","3TE3O85731U6AV4O7FRBSCJD9J3R2L","A3IXFZZ3JWTCPW","3WRBLBQ2GRU63BU2LFOJL1G32T90GO","","null","<img src=""img/food4.png"" style=""width:200px; border:14px solid green;"">","null","","","","","","","","","",""
"","image-keyboard-response","342","254324","0.0-424.0","3TE3O85731U6AV4O7FRBSCJD9J3R2L","A3IXFZZ3JWTCPW","3WRBLBQ2GRU63BU2LFOJL1G32T90GO","","683.1000000000931","img/food1.png","74","684.9000000003725","1","1","","1","1","1,0.5,0,1,0.5,0,0.5,0,1","1,0.5,0,1,0.5,0,0.5,0,1","1",""
"","html-keyboard-response","343","254626","0.0-425.0","3TE3O85731U6AV4O7FRBSCJD9J3R2L","A3IXFZZ3JWTCPW","3WRBLBQ2GRU63BU2LFOJL1G32T90GO","","null","<img src=""img/food1.png"" style=""width:200px; border:14px solid green;"">","null","","","","","","","","","",""
"","image-keyboard-response","344","255176","0.0-426.0","3TE3O85731U6AV4O7FRBSCJD9J3R2L","A3IXFZZ3JWTCPW","3WRBLBQ2GRU63BU2LFOJL1G32T90GO","","548.7999999998137","img/food6.png","76","550.2000000001863","3","1","","3","1","1,0.5,0,1,0.5,0,0.5,0,1","1,0.5,0,1,0.5,0,0.5,0,1","1",""
"","html-keyboard-response","345","255478","0.0-427.0","3TE3O85731U6AV4O7FRBSCJD9J3R2L","A3IXFZZ3JWTCPW","3WRBLBQ2GRU63BU2LFOJL1G32T90GO","","null","<img src=""img/food6.png"" style=""width:200px; border:14px solid green;"">","null","","","","","","","","","",""
"","image-keyboard-response","346","256128","0.0-428.0","3TE3O85731U6AV4O7FRBSCJD9J3R2L","A3IXFZZ3JWTCPW","3WRBLBQ2GRU63BU2LFOJL1G32T90GO","","646.6999999997206","img/food1.png","74","648","1","1","","1","1","1,0.5,0,1,0.5,0,0.5,0,1","1,0.5,0,1,0.5,0,0.5,0,1","1",""
"","html-keyboard-response","347","256430","0.0-429.0","3TE3O85731U6AV4O7FRBSCJD9J3R2L","A3IXFZZ3JWTCPW","3WRBLBQ2GRU63BU2LFOJL1G32T90GO","","null","<img src=""img/food1.png"" style=""width:200px; border:14px solid green;"">","null","","","","","","","","","",""
"","image-keyboard-response","348","257110","0.0-430.0","3TE3O85731U6AV4O7FRBSCJD9J3R2L","A3IXFZZ3JWTCPW","3WRBLBQ2GRU63BU2LFOJL1G32T90GO","","677.5","img/food4.png","75","679.3999999999069","2","1","","2","1","1,0.5,0,1,0.5,0,0.5,0,1","1,0.5,0,1,0.5,0,0.5,0,1","1",""
"","html-keyboard-response","349","257413","0.0-431.0","3TE3O85731U6AV4O7FRBSCJD9J3R2L","A3IXFZZ3JWTCPW","3WRBLBQ2GRU63BU2LFOJL1G32T90GO","","null","<img src=""img/food4.png"" style=""width:200px; border:14px solid green;"">","null","","","","","","","","","",""
"","image-keyboard-response","350","258228","0.0-432.0","3TE3O85731U6AV4O7FRBSCJD9J3R2L","A3IXFZZ3JWTCPW","3WRBLBQ2GRU63BU2LFOJL1G32T90GO","","813.3000000002794","img/food6.png","76","814.5","3","1","","3","1","1,0.5,0,1,0.5,0,0.5,0,1","1,0.5,0,1,0.5,0,0.5,0,1","1",""
"","html-keyboard-response","351","258530","0.0-433.0","3TE3O85731U6AV4O7FRBSCJD9J3R2L","A3IXFZZ3JWTCPW","3WRBLBQ2GRU63BU2LFOJL1G32T90GO","","null","<img src=""img/food6.png"" style=""width:200px; border:14px solid green;"">","null","","","","","","","","","",""
"","image-keyboard-response","352","258984","0.0-434.0","3TE3O85731U6AV4O7FRBSCJD9J3R2L","A3IXFZZ3JWTCPW","3WRBLBQ2GRU63BU2LFOJL1G32T90GO","","451.5","img/food6.png","76","452.79999999981374","3","1","","3","1","1,0.5,0,1,0.5,0,0.5,0,1","1,0.5,0,1,0.5,0,0.5,0,1","1",""
"","html-keyboard-response","353","259286","0.0-435.0","3TE3O85731U6AV4O7FRBSCJD9J3R2L","A3IXFZZ3JWTCPW","3WRBLBQ2GRU63BU2LFOJL1G32T90GO","","null","<img src=""img/food6.png"" style=""width:200px; border:14px solid green;"">","null","","","","","","","","","",""
"","image-keyboard-response","354","259842","0.0-436.0","3TE3O85731U6AV4O7FRBSCJD9J3R2L","A3IXFZZ3JWTCPW","3WRBLBQ2GRU63BU2LFOJL1G32T90GO","","553.8999999999069","img/food1.png","74","555.3999999999069","1","1","","1","1","1,0.5,0,1,0.5,0,0.5,0,1","1,0.5,0,1,0.5,0,0.5,0,1","1",""
"","html-keyboard-response","355","260145","0.0-437.0","3TE3O85731U6AV4O7FRBSCJD9J3R2L","A3IXFZZ3JWTCPW","3WRBLBQ2GRU63BU2LFOJL1G32T90GO","","null","<img src=""img/food1.png"" style=""width:200px; border:14px solid green;"">","null","","","","","","","","","",""
"","image-keyboard-response","356","260620","0.0-438.0","3TE3O85731U6AV4O7FRBSCJD9J3R2L","A3IXFZZ3JWTCPW","3WRBLBQ2GRU63BU2LFOJL1G32T90GO","","473.5","img/food4.png","75","474.89999999990687","2","1","","2","1","1,0.5,0,1,0.5,0,0.5,0,1","1,0.5,0,1,0.5,0,0.5,0,1","1",""
"","html-keyboard-response","357","260922","0.0-439.0","3TE3O85731U6AV4O7FRBSCJD9J3R2L","A3IXFZZ3JWTCPW","3WRBLBQ2GRU63BU2LFOJL1G32T90GO","","null","<img src=""img/food4.png"" style=""width:200px; border:14px solid green;"">","null","","","","","","","","","",""
"","image-keyboard-response","358","261458","0.0-440.0","3TE3O85731U6AV4O7FRBSCJD9J3R2L","A3IXFZZ3JWTCPW","3WRBLBQ2GRU63BU2LFOJL1G32T90GO","","533.7000000001863","img/food6.png","76","535.1000000000931","3","1","","3","1","1,0.5,0,1,0.5,0,0.5,0,1","1,0.5,0,1,0.5,0,0.5,0,1","1",""
"","html-keyboard-response","359","261760","0.0-441.0","3TE3O85731U6AV4O7FRBSCJD9J3R2L","A3IXFZZ3JWTCPW","3WRBLBQ2GRU63BU2LFOJL1G32T90GO","","null","<img src=""img/food6.png"" style=""width:200px; border:14px solid green;"">","null","","","","","","","","","",""
"","image-keyboard-response","360","262223","0.0-442.0","3TE3O85731U6AV4O7FRBSCJD9J3R2L","A3IXFZZ3JWTCPW","3WRBLBQ2GRU63BU2LFOJL1G32T90GO","","460.39999999990687","img/food6.png","76","462.20000000018626","3","1","","3","1","1,0.5,0,1,0.5,0,0.5,0,1","1,0.5,0,1,0.5,0,0.5,0,1","1",""
"","html-keyboard-response","361","262526","0.0-443.0","3TE3O85731U6AV4O7FRBSCJD9J3R2L","A3IXFZZ3JWTCPW","3WRBLBQ2GRU63BU2LFOJL1G32T90GO","","null","<img src=""img/food6.png"" style=""width:200px; border:14px solid green;"">","null","","","","","","","","","",""
"","image-keyboard-response","362","263354","0.0-444.0","3TE3O85731U6AV4O7FRBSCJD9J3R2L","A3IXFZZ3JWTCPW","3WRBLBQ2GRU63BU2LFOJL1G32T90GO","","826","img/food4.png","75","827.7000000001863","2","0","","2","1","1,0.5,0,1,0.5,0,0.5,0,1","1,0.5,0,1,0.5,0,0.5,0,1","1",""
"","html-keyboard-response","363","263657","0.0-445.0","3TE3O85731U6AV4O7FRBSCJD9J3R2L","A3IXFZZ3JWTCPW","3WRBLBQ2GRU63BU2LFOJL1G32T90GO","","null","<img src=""img/food4.png"" style=""width:200px;border:14px solid red;"">","null","","","","","","","","","",""
"","image-keyboard-response","364","264361","0.0-446.0","3TE3O85731U6AV4O7FRBSCJD9J3R2L","A3IXFZZ3JWTCPW","3WRBLBQ2GRU63BU2LFOJL1G32T90GO","","702.5","img/food6.png","76","703.8000000002794","3","1","","3","1","1,0.5,0,1,0.5,0,0.5,0,1","1,0.5,0,1,0.5,0,0.5,0,1","1",""
"","html-keyboard-response","365","264663","0.0-447.0","3TE3O85731U6AV4O7FRBSCJD9J3R2L","A3IXFZZ3JWTCPW","3WRBLBQ2GRU63BU2LFOJL1G32T90GO","","null","<img src=""img/food6.png"" style=""width:200px; border:14px solid green;"">","null","","","","","","","","","",""
"","image-keyboard-response","366","265025","0.0-448.0","3TE3O85731U6AV4O7FRBSCJD9J3R2L","A3IXFZZ3JWTCPW","3WRBLBQ2GRU63BU2LFOJL1G32T90GO","","359.90000000037253","img/food6.png","76","361.29999999981374","3","1","","3","1","1,0.5,0,1,0.5,0,0.5,0,1","1,0.5,0,1,0.5,0,0.5,0,1","1",""
"","html-keyboard-response","367","265327","0.0-449.0","3TE3O85731U6AV4O7FRBSCJD9J3R2L","A3IXFZZ3JWTCPW","3WRBLBQ2GRU63BU2LFOJL1G32T90GO","","null","<img src=""img/food6.png"" style=""width:200px; border:14px solid green;"">","null","","","","","","","","","",""
"","image-keyboard-response","368","265932","0.0-450.0","3TE3O85731U6AV4O7FRBSCJD9J3R2L","A3IXFZZ3JWTCPW","3WRBLBQ2GRU63BU2LFOJL1G32T90GO","","603.1000000000931","img/food4.png","75","604.5","2","0","","2","1","1,0.5,0,1,0.5,0,0.5,0,1","1,0.5,0,1,0.5,0,0.5,0,1","1",""
"","html-keyboard-response","369","266235","0.0-451.0","3TE3O85731U6AV4O7FRBSCJD9J3R2L","A3IXFZZ3JWTCPW","3WRBLBQ2GRU63BU2LFOJL1G32T90GO","","null","<img src=""img/food4.png"" style=""width:200px;border:14px solid red;"">","null","","","","","","","","","",""
"","image-keyboard-response","370","266731","0.0-452.0","3TE3O85731U6AV4O7FRBSCJD9J3R2L","A3IXFZZ3JWTCPW","3WRBLBQ2GRU63BU2LFOJL1G32T90GO","","494.10000000009313","img/food6.png","76","495.60000000009313","3","1","","3","1","1,0.5,0,1,0.5,0,0.5,0,1","1,0.5,0,1,0.5,0,0.5,0,1","1",""
"","html-keyboard-response","371","267033","0.0-453.0","3TE3O85731U6AV4O7FRBSCJD9J3R2L","A3IXFZZ3JWTCPW","3WRBLBQ2GRU63BU2LFOJL1G32T90GO","","null","<img src=""img/food6.png"" style=""width:200px; border:14px solid green;"">","null","","","","","","","","","",""
