"success","trial_type","trial_index","time_elapsed","internal_node_id","assignmentID","mturkID","hitID","view_history","rt","stimulus","key_press","reactionTime","a","r","warning","s","cond","reward_cond","reward_cond_actual","reward_matrix_idx","responses"
"true","fullscreen","0","3482","0.0-0.0","37TRT2X24RDJ0KL7I3BDRE0QSTABJ8","A3JI3B5GTVA95F","3S1L4CQSFXRWQOWP2XFUSMS4AZDFAL","","","","","","","","","","","","","",""
"","instructions","1","37957","0.0-1.0","37TRT2X24RDJ0KL7I3BDRE0QSTABJ8","A3JI3B5GTVA95F","3S1L4CQSFXRWQOWP2XFUSMS4AZDFAL","[{""page_index"":0,""viewing_time"":1645},{""page_index"":1,""viewing_time"":788},{""page_index"":2,""viewing_time"":550},{""page_index"":3,""viewing_time"":16574},{""page_index"":4,""viewing_time"":2742},{""page_index"":5,""viewing_time"":1756},{""page_index"":6,""viewing_time"":10418}]","34473","","","","","","","","","","","",""
"","instructions","2","62244","0.0-2.0","37TRT2X24RDJ0KL7I3BDRE0QSTABJ8","A3JI3B5GTVA95F","3S1L4CQSFXRWQOWP2XFUSMS4AZDFAL","[{""page_index"":0,""viewing_time"":20585},{""page_index"":1,""viewing_time"":3700}]","24285","","","","","","","","","","","",""
"","image-keyboard-response","3","62884","0.0-3.0","37TRT2X24RDJ0KL7I3BDRE0QSTABJ8","A3JI3B5GTVA95F","3S1L4CQSFXRWQOWP2XFUSMS4AZDFAL","","636","img/food2.png","74","639","1","0","false","3","2","1,0.7,0,1,0.7,0,0.7,0,1","1,0.7,0,1,0.7,0,0.7,0,1","1",""
"","html-keyboard-response","4","63191","0.0-4.0","37TRT2X24RDJ0KL7I3BDRE0QSTABJ8","A3JI3B5GTVA95F","3S1L4CQSFXRWQOWP2XFUSMS4AZDFAL","","null","<img src=""img/food2.png"" style=""width:200px;border:14px solid red;"">","null","","","","","","","","","",""
"","image-keyboard-response","5","63715","0.0-6.0","37TRT2X24RDJ0KL7I3BDRE0QSTABJ8","A3JI3B5GTVA95F","3S1L4CQSFXRWQOWP2XFUSMS4AZDFAL","","523","img/food3.png","75","524","2","1","false","2","2","1,0.7,0,1,0.7,0,0.7,0,1","1,0.7,0,1,0.7,0,0.7,0,1","1",""
"","html-keyboard-response","6","64021","0.0-7.0","37TRT2X24RDJ0KL7I3BDRE0QSTABJ8","A3JI3B5GTVA95F","3S1L4CQSFXRWQOWP2XFUSMS4AZDFAL","","null","<img src=""img/food3.png"" style=""width:200px; border:14px solid green;"">","null","","","","","","","","","",""
"","image-keyboard-response","7","64820","0.0-9.0","37TRT2X24RDJ0KL7I3BDRE0QSTABJ8","A3JI3B5GTVA95F","3S1L4CQSFXRWQOWP2XFUSMS4AZDFAL","","797","img/food2.png","74","798","1","1","false","3","2","1,0.7,0,1,0.7,0,0.7,0,1","1,0.7,0,1,0.7,0,0.7,0,1","1",""
"","html-keyboard-response","8","65121","0.0-10.0","37TRT2X24RDJ0KL7I3BDRE0QSTABJ8","A3JI3B5GTVA95F","3S1L4CQSFXRWQOWP2XFUSMS4AZDFAL","","null","<img src=""img/food2.png"" style=""width:200px; border:14px solid green;"">","null","","","","","","","","","",""
"","image-keyboard-response","9","65739","0.0-12.0","37TRT2X24RDJ0KL7I3BDRE0QSTABJ8","A3JI3B5GTVA95F","3S1L4CQSFXRWQOWP2XFUSMS4AZDFAL","","617","img/food5.png","75","619","2","1","false","1","2","1,0.7,0,1,0.7,0,0.7,0,1","1,0.7,0,1,0.7,0,0.7,0,1","1",""
"","html-keyboard-response","10","66041","0.0-13.0","37TRT2X24RDJ0KL7I3BDRE0QSTABJ8","A3JI3B5GTVA95F","3S1L4CQSFXRWQOWP2XFUSMS4AZDFAL","","null","<img src=""img/food5.png"" style=""width:200px; border:14px solid green;"">","null","","","","","","","","","",""
"","image-keyboard-response","11","66387","0.0-15.0","37TRT2X24RDJ0KL7I3BDRE0QSTABJ8","A3JI3B5GTVA95F","3S1L4CQSFXRWQOWP2XFUSMS4AZDFAL","","344","img/food5.png","75","346","2","0","false","1","2","1,0.7,0,1,0.7,0,0.7,0,1","1,0.7,0,1,0.7,0,0.7,0,1","1",""
"","html-keyboard-response","12","66691","0.0-16.0","37TRT2X24RDJ0KL7I3BDRE0QSTABJ8","A3JI3B5GTVA95F","3S1L4CQSFXRWQOWP2XFUSMS4AZDFAL","","null","<img src=""img/food5.png"" style=""width:200px;border:14px solid red;"">","null","","","","","","","","","",""
"","image-keyboard-response","13","67043","0.0-18.0","37TRT2X24RDJ0KL7I3BDRE0QSTABJ8","A3JI3B5GTVA95F","3S1L4CQSFXRWQOWP2XFUSMS4AZDFAL","","352","img/food5.png","76","353","3","0","false","1","2","1,0.7,0,1,0.7,0,0.7,0,1","1,0.7,0,1,0.7,0,0.7,0,1","1",""
"","html-keyboard-response","14","67350","0.0-19.0","37TRT2X24RDJ0KL7I3BDRE0QSTABJ8","A3JI3B5GTVA95F","3S1L4CQSFXRWQOWP2XFUSMS4AZDFAL","","null","<img src=""img/food5.png"" style=""width:200px;border:14px solid red;"">","null","","","","","","","","","",""
"","image-keyboard-response","15","67740","0.0-21.0","37TRT2X24RDJ0KL7I3BDRE0QSTABJ8","A3JI3B5GTVA95F","3S1L4CQSFXRWQOWP2XFUSMS4AZDFAL","","388","img/food5.png","75","388","2","1","false","1","2","1,0.7,0,1,0.7,0,0.7,0,1","1,0.7,0,1,0.7,0,0.7,0,1","1",""
"","html-keyboard-response","16","68047","0.0-22.0","37TRT2X24RDJ0KL7I3BDRE0QSTABJ8","A3JI3B5GTVA95F","3S1L4CQSFXRWQOWP2XFUSMS4AZDFAL","","null","<img src=""img/food5.png"" style=""width:200px; border:14px solid green;"">","null","","","","","","","","","",""
"","image-keyboard-response","17","68347","0.0-24.0","37TRT2X24RDJ0KL7I3BDRE0QSTABJ8","A3JI3B5GTVA95F","3S1L4CQSFXRWQOWP2XFUSMS4AZDFAL","","299","img/food5.png","75","301","2","0","false","1","2","1,0.7,0,1,0.7,0,0.7,0,1","1,0.7,0,1,0.7,0,0.7,0,1","1",""
"","html-keyboard-response","18","68657","0.0-25.0","37TRT2X24RDJ0KL7I3BDRE0QSTABJ8","A3JI3B5GTVA95F","3S1L4CQSFXRWQOWP2XFUSMS4AZDFAL","","null","<img src=""img/food5.png"" style=""width:200px;border:14px solid red;"">","null","","","","","","","","","",""
"","image-keyboard-response","19","68979","0.0-27.0","37TRT2X24RDJ0KL7I3BDRE0QSTABJ8","A3JI3B5GTVA95F","3S1L4CQSFXRWQOWP2XFUSMS4AZDFAL","","322","img/food5.png","74","322","1","1","false","1","2","1,0.7,0,1,0.7,0,0.7,0,1","1,0.7,0,1,0.7,0,0.7,0,1","1",""
"","html-keyboard-response","20","69289","0.0-28.0","37TRT2X24RDJ0KL7I3BDRE0QSTABJ8","A3JI3B5GTVA95F","3S1L4CQSFXRWQOWP2XFUSMS4AZDFAL","","null","<img src=""img/food5.png"" style=""width:200px; border:14px solid green;"">","null","","","","","","","","","",""
"","image-keyboard-response","21","69700","0.0-30.0","37TRT2X24RDJ0KL7I3BDRE0QSTABJ8","A3JI3B5GTVA95F","3S1L4CQSFXRWQOWP2XFUSMS4AZDFAL","","409","img/food3.png","74","411","1","1","false","2","2","1,0.7,0,1,0.7,0,0.7,0,1","1,0.7,0,1,0.7,0,0.7,0,1","1",""
"","html-keyboard-response","22","70009","0.0-31.0","37TRT2X24RDJ0KL7I3BDRE0QSTABJ8","A3JI3B5GTVA95F","3S1L4CQSFXRWQOWP2XFUSMS4AZDFAL","","null","<img src=""img/food3.png"" style=""width:200px; border:14px solid green;"">","null","","","","","","","","","",""
"","image-keyboard-response","23","70579","0.0-33.0","37TRT2X24RDJ0KL7I3BDRE0QSTABJ8","A3JI3B5GTVA95F","3S1L4CQSFXRWQOWP2XFUSMS4AZDFAL","","565","img/food2.png","75","567","2","0","false","3","2","1,0.7,0,1,0.7,0,0.7,0,1","1,0.7,0,1,0.7,0,0.7,0,1","1",""
"","html-keyboard-response","24","70889","0.0-34.0","37TRT2X24RDJ0KL7I3BDRE0QSTABJ8","A3JI3B5GTVA95F","3S1L4CQSFXRWQOWP2XFUSMS4AZDFAL","","null","<img src=""img/food2.png"" style=""width:200px;border:14px solid red;"">","null","","","","","","","","","",""
"","image-keyboard-response","25","71276","0.0-36.0","37TRT2X24RDJ0KL7I3BDRE0QSTABJ8","A3JI3B5GTVA95F","3S1L4CQSFXRWQOWP2XFUSMS4AZDFAL","","385","img/food2.png","75","385","2","0","false","3","2","1,0.7,0,1,0.7,0,0.7,0,1","1,0.7,0,1,0.7,0,0.7,0,1","1",""
"","html-keyboard-response","26","71579","0.0-37.0","37TRT2X24RDJ0KL7I3BDRE0QSTABJ8","A3JI3B5GTVA95F","3S1L4CQSFXRWQOWP2XFUSMS4AZDFAL","","null","<img src=""img/food2.png"" style=""width:200px;border:14px solid red;"">","null","","","","","","","","","",""
"","image-keyboard-response","27","71699","0.0-39.0","37TRT2X24RDJ0KL7I3BDRE0QSTABJ8","A3JI3B5GTVA95F","3S1L4CQSFXRWQOWP2XFUSMS4AZDFAL","","119","img/food3.png","74","119","1","1","false","2","2","1,0.7,0,1,0.7,0,0.7,0,1","1,0.7,0,1,0.7,0,0.7,0,1","1",""
"","html-keyboard-response","28","72001","0.0-40.0","37TRT2X24RDJ0KL7I3BDRE0QSTABJ8","A3JI3B5GTVA95F","3S1L4CQSFXRWQOWP2XFUSMS4AZDFAL","","null","<img src=""img/food3.png"" style=""width:200px; border:14px solid green;"">","null","","","","","","","","","",""
"","image-keyboard-response","29","72667","0.0-42.0","37TRT2X24RDJ0KL7I3BDRE0QSTABJ8","A3JI3B5GTVA95F","3S1L4CQSFXRWQOWP2XFUSMS4AZDFAL","","664","img/food2.png","75","665","2","0","false","3","2","1,0.7,0,1,0.7,0,0.7,0,1","1,0.7,0,1,0.7,0,0.7,0,1","1",""
"","html-keyboard-response","30","72969","0.0-43.0","37TRT2X24RDJ0KL7I3BDRE0QSTABJ8","A3JI3B5GTVA95F","3S1L4CQSFXRWQOWP2XFUSMS4AZDFAL","","null","<img src=""img/food2.png"" style=""width:200px;border:14px solid red;"">","null","","","","","","","","","",""
"","image-keyboard-response","31","73139","0.0-45.0","37TRT2X24RDJ0KL7I3BDRE0QSTABJ8","A3JI3B5GTVA95F","3S1L4CQSFXRWQOWP2XFUSMS4AZDFAL","","169","img/food3.png","74","170","1","1","false","2","2","1,0.7,0,1,0.7,0,0.7,0,1","1,0.7,0,1,0.7,0,0.7,0,1","1",""
"","html-keyboard-response","32","73449","0.0-46.0","37TRT2X24RDJ0KL7I3BDRE0QSTABJ8","A3JI3B5GTVA95F","3S1L4CQSFXRWQOWP2XFUSMS4AZDFAL","","null","<img src=""img/food3.png"" style=""width:200px; border:14px solid green;"">","null","","","","","","","","","",""
"","image-keyboard-response","33","73995","0.0-48.0","37TRT2X24RDJ0KL7I3BDRE0QSTABJ8","A3JI3B5GTVA95F","3S1L4CQSFXRWQOWP2XFUSMS4AZDFAL","","544","img/food5.png","74","545","1","1","false","1","2","1,0.7,0,1,0.7,0,0.7,0,1","1,0.7,0,1,0.7,0,0.7,0,1","1",""
"","html-keyboard-response","34","74300","0.0-49.0","37TRT2X24RDJ0KL7I3BDRE0QSTABJ8","A3JI3B5GTVA95F","3S1L4CQSFXRWQOWP2XFUSMS4AZDFAL","","null","<img src=""img/food5.png"" style=""width:200px; border:14px solid green;"">","null","","","","","","","","","",""
"","image-keyboard-response","35","74691","0.0-51.0","37TRT2X24RDJ0KL7I3BDRE0QSTABJ8","A3JI3B5GTVA95F","3S1L4CQSFXRWQOWP2XFUSMS4AZDFAL","","390","img/food3.png","74","392","1","1","false","2","2","1,0.7,0,1,0.7,0,0.7,0,1","1,0.7,0,1,0.7,0,0.7,0,1","1",""
"","html-keyboard-response","36","75000","0.0-52.0","37TRT2X24RDJ0KL7I3BDRE0QSTABJ8","A3JI3B5GTVA95F","3S1L4CQSFXRWQOWP2XFUSMS4AZDFAL","","null","<img src=""img/food3.png"" style=""width:200px; border:14px solid green;"">","null","","","","","","","","","",""
"","image-keyboard-response","37","75299","0.0-54.0","37TRT2X24RDJ0KL7I3BDRE0QSTABJ8","A3JI3B5GTVA95F","3S1L4CQSFXRWQOWP2XFUSMS4AZDFAL","","299","img/food5.png","74","299","1","1","false","1","2","1,0.7,0,1,0.7,0,0.7,0,1","1,0.7,0,1,0.7,0,0.7,0,1","1",""
"","html-keyboard-response","38","75609","0.0-55.0","37TRT2X24RDJ0KL7I3BDRE0QSTABJ8","A3JI3B5GTVA95F","3S1L4CQSFXRWQOWP2XFUSMS4AZDFAL","","null","<img src=""img/food5.png"" style=""width:200px; border:14px solid green;"">","null","","","","","","","","","",""
"","image-keyboard-response","39","75931","0.0-57.0","37TRT2X24RDJ0KL7I3BDRE0QSTABJ8","A3JI3B5GTVA95F","3S1L4CQSFXRWQOWP2XFUSMS4AZDFAL","","321","img/food2.png","74","321","1","1","false","3","2","1,0.7,0,1,0.7,0,0.7,0,1","1,0.7,0,1,0.7,0,0.7,0,1","1",""
"","html-keyboard-response","40","76239","0.0-58.0","37TRT2X24RDJ0KL7I3BDRE0QSTABJ8","A3JI3B5GTVA95F","3S1L4CQSFXRWQOWP2XFUSMS4AZDFAL","","null","<img src=""img/food2.png"" style=""width:200px; border:14px solid green;"">","null","","","","","","","","","",""
"","image-keyboard-response","41","76563","0.0-60.0","37TRT2X24RDJ0KL7I3BDRE0QSTABJ8","A3JI3B5GTVA95F","3S1L4CQSFXRWQOWP2XFUSMS4AZDFAL","","322","img/food2.png","74","324","1","0","false","3","2","1,0.7,0,1,0.7,0,0.7,0,1","1,0.7,0,1,0.7,0,0.7,0,1","1",""
"","html-keyboard-response","42","76869","0.0-61.0","37TRT2X24RDJ0KL7I3BDRE0QSTABJ8","A3JI3B5GTVA95F","3S1L4CQSFXRWQOWP2XFUSMS4AZDFAL","","null","<img src=""img/food2.png"" style=""width:200px;border:14px solid red;"">","null","","","","","","","","","",""
"","image-keyboard-response","43","77483","0.0-63.0","37TRT2X24RDJ0KL7I3BDRE0QSTABJ8","A3JI3B5GTVA95F","3S1L4CQSFXRWQOWP2XFUSMS4AZDFAL","","613","img/food3.png","74","614","1","1","false","2","2","1,0.7,0,1,0.7,0,0.7,0,1","1,0.7,0,1,0.7,0,0.7,0,1","1",""
"","html-keyboard-response","44","77790","0.0-64.0","37TRT2X24RDJ0KL7I3BDRE0QSTABJ8","A3JI3B5GTVA95F","3S1L4CQSFXRWQOWP2XFUSMS4AZDFAL","","null","<img src=""img/food3.png"" style=""width:200px; border:14px solid green;"">","null","","","","","","","","","",""
"","image-keyboard-response","45","78067","0.0-66.0","37TRT2X24RDJ0KL7I3BDRE0QSTABJ8","A3JI3B5GTVA95F","3S1L4CQSFXRWQOWP2XFUSMS4AZDFAL","","276","img/food2.png","74","276","1","0","false","3","2","1,0.7,0,1,0.7,0,0.7,0,1","1,0.7,0,1,0.7,0,0.7,0,1","1",""
"","html-keyboard-response","46","78369","0.0-67.0","37TRT2X24RDJ0KL7I3BDRE0QSTABJ8","A3JI3B5GTVA95F","3S1L4CQSFXRWQOWP2XFUSMS4AZDFAL","","null","<img src=""img/food2.png"" style=""width:200px;border:14px solid red;"">","null","","","","","","","","","",""
"","image-keyboard-response","47","78922","0.0-69.0","37TRT2X24RDJ0KL7I3BDRE0QSTABJ8","A3JI3B5GTVA95F","3S1L4CQSFXRWQOWP2XFUSMS4AZDFAL","","553","img/food3.png","74","553","1","1","false","2","2","1,0.7,0,1,0.7,0,0.7,0,1","1,0.7,0,1,0.7,0,0.7,0,1","1",""
"","html-keyboard-response","48","79229","0.0-70.0","37TRT2X24RDJ0KL7I3BDRE0QSTABJ8","A3JI3B5GTVA95F","3S1L4CQSFXRWQOWP2XFUSMS4AZDFAL","","null","<img src=""img/food3.png"" style=""width:200px; border:14px solid green;"">","null","","","","","","","","","",""
"","image-keyboard-response","49","79579","0.0-72.0","37TRT2X24RDJ0KL7I3BDRE0QSTABJ8","A3JI3B5GTVA95F","3S1L4CQSFXRWQOWP2XFUSMS4AZDFAL","","349","img/food2.png","75","349","2","0","false","3","2","1,0.7,0,1,0.7,0,0.7,0,1","1,0.7,0,1,0.7,0,0.7,0,1","1",""
"","html-keyboard-response","50","79890","0.0-73.0","37TRT2X24RDJ0KL7I3BDRE0QSTABJ8","A3JI3B5GTVA95F","3S1L4CQSFXRWQOWP2XFUSMS4AZDFAL","","null","<img src=""img/food2.png"" style=""width:200px;border:14px solid red;"">","null","","","","","","","","","",""
"","image-keyboard-response","51","80315","0.0-75.0","37TRT2X24RDJ0KL7I3BDRE0QSTABJ8","A3JI3B5GTVA95F","3S1L4CQSFXRWQOWP2XFUSMS4AZDFAL","","425","img/food5.png","74","425","1","1","false","1","2","1,0.7,0,1,0.7,0,0.7,0,1","1,0.7,0,1,0.7,0,0.7,0,1","1",""
"","html-keyboard-response","52","80619","0.0-76.0","37TRT2X24RDJ0KL7I3BDRE0QSTABJ8","A3JI3B5GTVA95F","3S1L4CQSFXRWQOWP2XFUSMS4AZDFAL","","null","<img src=""img/food5.png"" style=""width:200px; border:14px solid green;"">","null","","","","","","","","","",""
"","image-keyboard-response","53","80883","0.0-78.0","37TRT2X24RDJ0KL7I3BDRE0QSTABJ8","A3JI3B5GTVA95F","3S1L4CQSFXRWQOWP2XFUSMS4AZDFAL","","262","img/food5.png","74","263","1","1","false","1","2","1,0.7,0,1,0.7,0,0.7,0,1","1,0.7,0,1,0.7,0,0.7,0,1","1",""
"","html-keyboard-response","54","81189","0.0-79.0","37TRT2X24RDJ0KL7I3BDRE0QSTABJ8","A3JI3B5GTVA95F","3S1L4CQSFXRWQOWP2XFUSMS4AZDFAL","","null","<img src=""img/food5.png"" style=""width:200px; border:14px solid green;"">","null","","","","","","","","","",""
"","image-keyboard-response","55","81507","0.0-81.0","37TRT2X24RDJ0KL7I3BDRE0QSTABJ8","A3JI3B5GTVA95F","3S1L4CQSFXRWQOWP2XFUSMS4AZDFAL","","317","img/food5.png","74","318","1","1","false","1","2","1,0.7,0,1,0.7,0,0.7,0,1","1,0.7,0,1,0.7,0,0.7,0,1","1",""
"","html-keyboard-response","56","81810","0.0-82.0","37TRT2X24RDJ0KL7I3BDRE0QSTABJ8","A3JI3B5GTVA95F","3S1L4CQSFXRWQOWP2XFUSMS4AZDFAL","","null","<img src=""img/food5.png"" style=""width:200px; border:14px solid green;"">","null","","","","","","","","","",""
"","image-keyboard-response","57","82139","0.0-84.0","37TRT2X24RDJ0KL7I3BDRE0QSTABJ8","A3JI3B5GTVA95F","3S1L4CQSFXRWQOWP2XFUSMS4AZDFAL","","329","img/food5.png","74","329","1","1","false","1","2","1,0.7,0,1,0.7,0,0.7,0,1","1,0.7,0,1,0.7,0,0.7,0,1","1",""
"","html-keyboard-response","58","82449","0.0-85.0","37TRT2X24RDJ0KL7I3BDRE0QSTABJ8","A3JI3B5GTVA95F","3S1L4CQSFXRWQOWP2XFUSMS4AZDFAL","","null","<img src=""img/food5.png"" style=""width:200px; border:14px solid green;"">","null","","","","","","","","","",""
"","image-keyboard-response","59","83083","0.0-87.0","37TRT2X24RDJ0KL7I3BDRE0QSTABJ8","A3JI3B5GTVA95F","3S1L4CQSFXRWQOWP2XFUSMS4AZDFAL","","632","img/food3.png","76","633","3","0","false","2","2","1,0.7,0,1,0.7,0,0.7,0,1","1,0.7,0,1,0.7,0,0.7,0,1","1",""
"","html-keyboard-response","60","83389","0.0-88.0","37TRT2X24RDJ0KL7I3BDRE0QSTABJ8","A3JI3B5GTVA95F","3S1L4CQSFXRWQOWP2XFUSMS4AZDFAL","","null","<img src=""img/food3.png"" style=""width:200px;border:14px solid red;"">","null","","","","","","","","","",""
"","image-keyboard-response","61","83715","0.0-90.0","37TRT2X24RDJ0KL7I3BDRE0QSTABJ8","A3JI3B5GTVA95F","3S1L4CQSFXRWQOWP2XFUSMS4AZDFAL","","323","img/food3.png","76","325","3","0","false","2","2","1,0.7,0,1,0.7,0,0.7,0,1","1,0.7,0,1,0.7,0,0.7,0,1","1",""
"","html-keyboard-response","62","84019","0.0-91.0","37TRT2X24RDJ0KL7I3BDRE0QSTABJ8","A3JI3B5GTVA95F","3S1L4CQSFXRWQOWP2XFUSMS4AZDFAL","","null","<img src=""img/food3.png"" style=""width:200px;border:14px solid red;"">","null","","","","","","","","","",""
"","image-keyboard-response","63","84074","0.0-93.0","37TRT2X24RDJ0KL7I3BDRE0QSTABJ8","A3JI3B5GTVA95F","3S1L4CQSFXRWQOWP2XFUSMS4AZDFAL","","55","img/food3.png","75","55","2","1","false","2","2","1,0.7,0,1,0.7,0,0.7,0,1","1,0.7,0,1,0.7,0,0.7,0,1","1",""
"","html-keyboard-response","64","84379","0.0-94.0","37TRT2X24RDJ0KL7I3BDRE0QSTABJ8","A3JI3B5GTVA95F","3S1L4CQSFXRWQOWP2XFUSMS4AZDFAL","","null","<img src=""img/food3.png"" style=""width:200px; border:14px solid green;"">","null","","","","","","","","","",""
"","image-keyboard-response","65","84907","0.0-96.0","37TRT2X24RDJ0KL7I3BDRE0QSTABJ8","A3JI3B5GTVA95F","3S1L4CQSFXRWQOWP2XFUSMS4AZDFAL","","526","img/food5.png","75","527","2","0","false","1","2","1,0.7,0,1,0.7,0,0.7,0,1","1,0.7,0,1,0.7,0,0.7,0,1","1",""
"","html-keyboard-response","66","85209","0.0-97.0","37TRT2X24RDJ0KL7I3BDRE0QSTABJ8","A3JI3B5GTVA95F","3S1L4CQSFXRWQOWP2XFUSMS4AZDFAL","","null","<img src=""img/food5.png"" style=""width:200px;border:14px solid red;"">","null","","","","","","","","","",""
"","image-keyboard-response","67","85355","0.0-99.0","37TRT2X24RDJ0KL7I3BDRE0QSTABJ8","A3JI3B5GTVA95F","3S1L4CQSFXRWQOWP2XFUSMS4AZDFAL","","144","img/food3.png","74","146","1","1","false","2","2","1,0.7,0,1,0.7,0,0.7,0,1","1,0.7,0,1,0.7,0,0.7,0,1","1",""
"","html-keyboard-response","68","85660","0.0-100.0","37TRT2X24RDJ0KL7I3BDRE0QSTABJ8","A3JI3B5GTVA95F","3S1L4CQSFXRWQOWP2XFUSMS4AZDFAL","","null","<img src=""img/food3.png"" style=""width:200px; border:14px solid green;"">","null","","","","","","","","","",""
"","image-keyboard-response","69","86187","0.0-102.0","37TRT2X24RDJ0KL7I3BDRE0QSTABJ8","A3JI3B5GTVA95F","3S1L4CQSFXRWQOWP2XFUSMS4AZDFAL","","527","img/food2.png","74","527","1","1","false","3","2","1,0.7,0,1,0.7,0,0.7,0,1","1,0.7,0,1,0.7,0,0.7,0,1","1",""
"","html-keyboard-response","70","86489","0.0-103.0","37TRT2X24RDJ0KL7I3BDRE0QSTABJ8","A3JI3B5GTVA95F","3S1L4CQSFXRWQOWP2XFUSMS4AZDFAL","","null","<img src=""img/food2.png"" style=""width:200px; border:14px solid green;"">","null","","","","","","","","","",""
"","image-keyboard-response","71","86819","0.0-105.0","37TRT2X24RDJ0KL7I3BDRE0QSTABJ8","A3JI3B5GTVA95F","3S1L4CQSFXRWQOWP2XFUSMS4AZDFAL","","328","img/food2.png","74","329","1","1","false","3","2","1,0.7,0,1,0.7,0,0.7,0,1","1,0.7,0,1,0.7,0,0.7,0,1","1",""
"","html-keyboard-response","72","87129","0.0-106.0","37TRT2X24RDJ0KL7I3BDRE0QSTABJ8","A3JI3B5GTVA95F","3S1L4CQSFXRWQOWP2XFUSMS4AZDFAL","","null","<img src=""img/food2.png"" style=""width:200px; border:14px solid green;"">","null","","","","","","","","","",""
"","image-keyboard-response","73","87363","0.0-108.0","37TRT2X24RDJ0KL7I3BDRE0QSTABJ8","A3JI3B5GTVA95F","3S1L4CQSFXRWQOWP2XFUSMS4AZDFAL","","233","img/food5.png","74","233","1","1","false","1","2","1,0.7,0,1,0.7,0,0.7,0,1","1,0.7,0,1,0.7,0,0.7,0,1","1",""
"","html-keyboard-response","74","87669","0.0-109.0","37TRT2X24RDJ0KL7I3BDRE0QSTABJ8","A3JI3B5GTVA95F","3S1L4CQSFXRWQOWP2XFUSMS4AZDFAL","","null","<img src=""img/food5.png"" style=""width:200px; border:14px solid green;"">","null","","","","","","","","","",""
"","image-keyboard-response","75","87923","0.0-111.0","37TRT2X24RDJ0KL7I3BDRE0QSTABJ8","A3JI3B5GTVA95F","3S1L4CQSFXRWQOWP2XFUSMS4AZDFAL","","253","img/food2.png","74","253","1","1","false","3","2","1,0.7,0,1,0.7,0,0.7,0,1","1,0.7,0,1,0.7,0,0.7,0,1","1",""
"","html-keyboard-response","76","88229","0.0-112.0","37TRT2X24RDJ0KL7I3BDRE0QSTABJ8","A3JI3B5GTVA95F","3S1L4CQSFXRWQOWP2XFUSMS4AZDFAL","","null","<img src=""img/food2.png"" style=""width:200px; border:14px solid green;"">","null","","","","","","","","","",""
"","image-keyboard-response","77","88458","0.0-114.0","37TRT2X24RDJ0KL7I3BDRE0QSTABJ8","A3JI3B5GTVA95F","3S1L4CQSFXRWQOWP2XFUSMS4AZDFAL","","229","img/food3.png","74","229","1","1","false","2","2","1,0.7,0,1,0.7,0,0.7,0,1","1,0.7,0,1,0.7,0,0.7,0,1","1",""
"","html-keyboard-response","78","88769","0.0-115.0","37TRT2X24RDJ0KL7I3BDRE0QSTABJ8","A3JI3B5GTVA95F","3S1L4CQSFXRWQOWP2XFUSMS4AZDFAL","","null","<img src=""img/food3.png"" style=""width:200px; border:14px solid green;"">","null","","","","","","","","","",""
"","image-keyboard-response","79","89091","0.0-117.0","37TRT2X24RDJ0KL7I3BDRE0QSTABJ8","A3JI3B5GTVA95F","3S1L4CQSFXRWQOWP2XFUSMS4AZDFAL","","321","img/food2.png","74","321","1","0","false","3","2","1,0.7,0,1,0.7,0,0.7,0,1","1,0.7,0,1,0.7,0,0.7,0,1","1",""
"","html-keyboard-response","80","89399","0.0-118.0","37TRT2X24RDJ0KL7I3BDRE0QSTABJ8","A3JI3B5GTVA95F","3S1L4CQSFXRWQOWP2XFUSMS4AZDFAL","","null","<img src=""img/food2.png"" style=""width:200px;border:14px solid red;"">","null","","","","","","","","","",""
"","image-keyboard-response","81","90019","0.0-120.0","37TRT2X24RDJ0KL7I3BDRE0QSTABJ8","A3JI3B5GTVA95F","3S1L4CQSFXRWQOWP2XFUSMS4AZDFAL","","619","img/food5.png","74","619","1","1","false","1","2","1,0.7,0,1,0.7,0,0.7,0,1","1,0.7,0,1,0.7,0,0.7,0,1","1",""
"","html-keyboard-response","82","90329","0.0-121.0","37TRT2X24RDJ0KL7I3BDRE0QSTABJ8","A3JI3B5GTVA95F","3S1L4CQSFXRWQOWP2XFUSMS4AZDFAL","","null","<img src=""img/food5.png"" style=""width:200px; border:14px solid green;"">","null","","","","","","","","","",""
"","image-keyboard-response","83","90915","0.0-123.0","37TRT2X24RDJ0KL7I3BDRE0QSTABJ8","A3JI3B5GTVA95F","3S1L4CQSFXRWQOWP2XFUSMS4AZDFAL","","584","img/food2.png","75","585","2","0","false","3","2","1,0.7,0,1,0.7,0,0.7,0,1","1,0.7,0,1,0.7,0,0.7,0,1","1",""
"","html-keyboard-response","84","91219","0.0-124.0","37TRT2X24RDJ0KL7I3BDRE0QSTABJ8","A3JI3B5GTVA95F","3S1L4CQSFXRWQOWP2XFUSMS4AZDFAL","","null","<img src=""img/food2.png"" style=""width:200px;border:14px solid red;"">","null","","","","","","","","","",""
"","image-keyboard-response","85","91634","0.0-126.0","37TRT2X24RDJ0KL7I3BDRE0QSTABJ8","A3JI3B5GTVA95F","3S1L4CQSFXRWQOWP2XFUSMS4AZDFAL","","414","img/food3.png","74","416","1","1","false","2","2","1,0.7,0,1,0.7,0,0.7,0,1","1,0.7,0,1,0.7,0,0.7,0,1","1",""
"","html-keyboard-response","86","91939","0.0-127.0","37TRT2X24RDJ0KL7I3BDRE0QSTABJ8","A3JI3B5GTVA95F","3S1L4CQSFXRWQOWP2XFUSMS4AZDFAL","","null","<img src=""img/food3.png"" style=""width:200px; border:14px solid green;"">","null","","","","","","","","","",""
"","image-keyboard-response","87","92491","0.0-129.0","37TRT2X24RDJ0KL7I3BDRE0QSTABJ8","A3JI3B5GTVA95F","3S1L4CQSFXRWQOWP2XFUSMS4AZDFAL","","551","img/food5.png","74","551","1","1","false","1","2","1,0.7,0,1,0.7,0,0.7,0,1","1,0.7,0,1,0.7,0,0.7,0,1","1",""
"","html-keyboard-response","88","92799","0.0-130.0","37TRT2X24RDJ0KL7I3BDRE0QSTABJ8","A3JI3B5GTVA95F","3S1L4CQSFXRWQOWP2XFUSMS4AZDFAL","","null","<img src=""img/food5.png"" style=""width:200px; border:14px solid green;"">","null","","","","","","","","","",""
"","image-keyboard-response","89","93499","0.0-132.0","37TRT2X24RDJ0KL7I3BDRE0QSTABJ8","A3JI3B5GTVA95F","3S1L4CQSFXRWQOWP2XFUSMS4AZDFAL","","698","img/food3.png","74","699","1","1","false","2","2","1,0.7,0,1,0.7,0,0.7,0,1","1,0.7,0,1,0.7,0,0.7,0,1","1",""
"","html-keyboard-response","90","93809","0.0-133.0","37TRT2X24RDJ0KL7I3BDRE0QSTABJ8","A3JI3B5GTVA95F","3S1L4CQSFXRWQOWP2XFUSMS4AZDFAL","","null","<img src=""img/food3.png"" style=""width:200px; border:14px solid green;"">","null","","","","","","","","","",""
"","image-keyboard-response","91","94218","0.0-135.0","37TRT2X24RDJ0KL7I3BDRE0QSTABJ8","A3JI3B5GTVA95F","3S1L4CQSFXRWQOWP2XFUSMS4AZDFAL","","409","img/food3.png","74","409","1","1","false","2","2","1,0.7,0,1,0.7,0,0.7,0,1","1,0.7,0,1,0.7,0,0.7,0,1","1",""
"","html-keyboard-response","92","94529","0.0-136.0","37TRT2X24RDJ0KL7I3BDRE0QSTABJ8","A3JI3B5GTVA95F","3S1L4CQSFXRWQOWP2XFUSMS4AZDFAL","","null","<img src=""img/food3.png"" style=""width:200px; border:14px solid green;"">","null","","","","","","","","","",""
"","image-keyboard-response","93","94922","0.0-138.0","37TRT2X24RDJ0KL7I3BDRE0QSTABJ8","A3JI3B5GTVA95F","3S1L4CQSFXRWQOWP2XFUSMS4AZDFAL","","393","img/food2.png","74","393","1","1","false","3","2","1,0.7,0,1,0.7,0,0.7,0,1","1,0.7,0,1,0.7,0,0.7,0,1","1",""
"","html-keyboard-response","94","95228","0.0-139.0","37TRT2X24RDJ0KL7I3BDRE0QSTABJ8","A3JI3B5GTVA95F","3S1L4CQSFXRWQOWP2XFUSMS4AZDFAL","","null","<img src=""img/food2.png"" style=""width:200px; border:14px solid green;"">","null","","","","","","","","","",""
"","image-keyboard-response","95","95531","0.0-141.0","37TRT2X24RDJ0KL7I3BDRE0QSTABJ8","A3JI3B5GTVA95F","3S1L4CQSFXRWQOWP2XFUSMS4AZDFAL","","301","img/food5.png","75","301","2","1","false","1","2","1,0.7,0,1,0.7,0,0.7,0,1","1,0.7,0,1,0.7,0,0.7,0,1","1",""
"","html-keyboard-response","96","95839","0.0-142.0","37TRT2X24RDJ0KL7I3BDRE0QSTABJ8","A3JI3B5GTVA95F","3S1L4CQSFXRWQOWP2XFUSMS4AZDFAL","","null","<img src=""img/food5.png"" style=""width:200px; border:14px solid green;"">","null","","","","","","","","","",""
"","image-keyboard-response","97","96338","0.0-144.0","37TRT2X24RDJ0KL7I3BDRE0QSTABJ8","A3JI3B5GTVA95F","3S1L4CQSFXRWQOWP2XFUSMS4AZDFAL","","498","img/food2.png","75","499","2","0","false","3","2","1,0.7,0,1,0.7,0,0.7,0,1","1,0.7,0,1,0.7,0,0.7,0,1","1",""
"","html-keyboard-response","98","96640","0.0-145.0","37TRT2X24RDJ0KL7I3BDRE0QSTABJ8","A3JI3B5GTVA95F","3S1L4CQSFXRWQOWP2XFUSMS4AZDFAL","","null","<img src=""img/food2.png"" style=""width:200px;border:14px solid red;"">","null","","","","","","","","","",""
"","image-keyboard-response","99","96835","0.0-147.0","37TRT2X24RDJ0KL7I3BDRE0QSTABJ8","A3JI3B5GTVA95F","3S1L4CQSFXRWQOWP2XFUSMS4AZDFAL","","193","img/food3.png","74","194","1","1","false","2","2","1,0.7,0,1,0.7,0,0.7,0,1","1,0.7,0,1,0.7,0,0.7,0,1","1",""
"","html-keyboard-response","100","97141","0.0-148.0","37TRT2X24RDJ0KL7I3BDRE0QSTABJ8","A3JI3B5GTVA95F","3S1L4CQSFXRWQOWP2XFUSMS4AZDFAL","","null","<img src=""img/food3.png"" style=""width:200px; border:14px solid green;"">","null","","","","","","","","","",""
"","image-keyboard-response","101","97506","0.0-150.0","37TRT2X24RDJ0KL7I3BDRE0QSTABJ8","A3JI3B5GTVA95F","3S1L4CQSFXRWQOWP2XFUSMS4AZDFAL","","364","img/food2.png","74","364","1","1","false","3","2","1,0.7,0,1,0.7,0,0.7,0,1","1,0.7,0,1,0.7,0,0.7,0,1","1",""
"","html-keyboard-response","102","97811","0.0-151.0","37TRT2X24RDJ0KL7I3BDRE0QSTABJ8","A3JI3B5GTVA95F","3S1L4CQSFXRWQOWP2XFUSMS4AZDFAL","","null","<img src=""img/food2.png"" style=""width:200px; border:14px solid green;"">","null","","","","","","","","","",""
"","image-keyboard-response","103","98114","0.0-153.0","37TRT2X24RDJ0KL7I3BDRE0QSTABJ8","A3JI3B5GTVA95F","3S1L4CQSFXRWQOWP2XFUSMS4AZDFAL","","303","img/food2.png","74","304","1","0","false","3","2","1,0.7,0,1,0.7,0,0.7,0,1","1,0.7,0,1,0.7,0,0.7,0,1","1",""
"","html-keyboard-response","104","98421","0.0-154.0","37TRT2X24RDJ0KL7I3BDRE0QSTABJ8","A3JI3B5GTVA95F","3S1L4CQSFXRWQOWP2XFUSMS4AZDFAL","","null","<img src=""img/food2.png"" style=""width:200px;border:14px solid red;"">","null","","","","","","","","","",""
"","image-keyboard-response","105","98898","0.0-156.0","37TRT2X24RDJ0KL7I3BDRE0QSTABJ8","A3JI3B5GTVA95F","3S1L4CQSFXRWQOWP2XFUSMS4AZDFAL","","477","img/food5.png","74","478","1","1","false","1","2","1,0.7,0,1,0.7,0,0.7,0,1","1,0.7,0,1,0.7,0,0.7,0,1","1",""
"","html-keyboard-response","106","99201","0.0-157.0","37TRT2X24RDJ0KL7I3BDRE0QSTABJ8","A3JI3B5GTVA95F","3S1L4CQSFXRWQOWP2XFUSMS4AZDFAL","","null","<img src=""img/food5.png"" style=""width:200px; border:14px solid green;"">","null","","","","","","","","","",""
"","image-keyboard-response","107","99531","0.0-159.0","37TRT2X24RDJ0KL7I3BDRE0QSTABJ8","A3JI3B5GTVA95F","3S1L4CQSFXRWQOWP2XFUSMS4AZDFAL","","328","img/food2.png","74","329","1","0","false","3","2","1,0.7,0,1,0.7,0,0.7,0,1","1,0.7,0,1,0.7,0,0.7,0,1","1",""
"","html-keyboard-response","108","99841","0.0-160.0","37TRT2X24RDJ0KL7I3BDRE0QSTABJ8","A3JI3B5GTVA95F","3S1L4CQSFXRWQOWP2XFUSMS4AZDFAL","","null","<img src=""img/food2.png"" style=""width:200px;border:14px solid red;"">","null","","","","","","","","","",""
"","image-keyboard-response","109","100115","0.0-162.0","37TRT2X24RDJ0KL7I3BDRE0QSTABJ8","A3JI3B5GTVA95F","3S1L4CQSFXRWQOWP2XFUSMS4AZDFAL","","272","img/food5.png","74","273","1","1","false","1","2","1,0.7,0,1,0.7,0,0.7,0,1","1,0.7,0,1,0.7,0,0.7,0,1","1",""
"","html-keyboard-response","110","100421","0.0-163.0","37TRT2X24RDJ0KL7I3BDRE0QSTABJ8","A3JI3B5GTVA95F","3S1L4CQSFXRWQOWP2XFUSMS4AZDFAL","","null","<img src=""img/food5.png"" style=""width:200px; border:14px solid green;"">","null","","","","","","","","","",""
"","image-keyboard-response","111","100818","0.0-165.0","37TRT2X24RDJ0KL7I3BDRE0QSTABJ8","A3JI3B5GTVA95F","3S1L4CQSFXRWQOWP2XFUSMS4AZDFAL","","398","img/food5.png","74","398","1","1","false","1","2","1,0.7,0,1,0.7,0,0.7,0,1","1,0.7,0,1,0.7,0,0.7,0,1","1",""
"","html-keyboard-response","112","101121","0.0-166.0","37TRT2X24RDJ0KL7I3BDRE0QSTABJ8","A3JI3B5GTVA95F","3S1L4CQSFXRWQOWP2XFUSMS4AZDFAL","","null","<img src=""img/food5.png"" style=""width:200px; border:14px solid green;"">","null","","","","","","","","","",""
"","image-keyboard-response","113","101715","0.0-168.0","37TRT2X24RDJ0KL7I3BDRE0QSTABJ8","A3JI3B5GTVA95F","3S1L4CQSFXRWQOWP2XFUSMS4AZDFAL","","592","img/food2.png","76","593","3","1","false","3","2","1,0.7,0,1,0.7,0,0.7,0,1","1,0.7,0,1,0.7,0,0.7,0,1","1",""
"","html-keyboard-response","114","102020","0.0-169.0","37TRT2X24RDJ0KL7I3BDRE0QSTABJ8","A3JI3B5GTVA95F","3S1L4CQSFXRWQOWP2XFUSMS4AZDFAL","","null","<img src=""img/food2.png"" style=""width:200px; border:14px solid green;"">","null","","","","","","","","","",""
"","image-keyboard-response","115","102659","0.0-171.0","37TRT2X24RDJ0KL7I3BDRE0QSTABJ8","A3JI3B5GTVA95F","3S1L4CQSFXRWQOWP2XFUSMS4AZDFAL","","637","img/food3.png","74","637","1","1","false","2","2","1,0.7,0,1,0.7,0,0.7,0,1","1,0.7,0,1,0.7,0,0.7,0,1","1",""
"","html-keyboard-response","116","102960","0.0-172.0","37TRT2X24RDJ0KL7I3BDRE0QSTABJ8","A3JI3B5GTVA95F","3S1L4CQSFXRWQOWP2XFUSMS4AZDFAL","","null","<img src=""img/food3.png"" style=""width:200px; border:14px solid green;"">","null","","","","","","","","","",""
"","image-keyboard-response","117","103290","0.0-174.0","37TRT2X24RDJ0KL7I3BDRE0QSTABJ8","A3JI3B5GTVA95F","3S1L4CQSFXRWQOWP2XFUSMS4AZDFAL","","328","img/food5.png","74","329","1","1","false","1","2","1,0.7,0,1,0.7,0,0.7,0,1","1,0.7,0,1,0.7,0,0.7,0,1","1",""
"","html-keyboard-response","118","103600","0.0-175.0","37TRT2X24RDJ0KL7I3BDRE0QSTABJ8","A3JI3B5GTVA95F","3S1L4CQSFXRWQOWP2XFUSMS4AZDFAL","","null","<img src=""img/food5.png"" style=""width:200px; border:14px solid green;"">","null","","","","","","","","","",""
"","image-keyboard-response","119","103898","0.0-177.0","37TRT2X24RDJ0KL7I3BDRE0QSTABJ8","A3JI3B5GTVA95F","3S1L4CQSFXRWQOWP2XFUSMS4AZDFAL","","296","img/food5.png","74","296","1","1","false","1","2","1,0.7,0,1,0.7,0,0.7,0,1","1,0.7,0,1,0.7,0,0.7,0,1","1",""
"","html-keyboard-response","120","104201","0.0-178.0","37TRT2X24RDJ0KL7I3BDRE0QSTABJ8","A3JI3B5GTVA95F","3S1L4CQSFXRWQOWP2XFUSMS4AZDFAL","","null","<img src=""img/food5.png"" style=""width:200px; border:14px solid green;"">","null","","","","","","","","","",""
"","image-keyboard-response","121","104707","0.0-180.0","37TRT2X24RDJ0KL7I3BDRE0QSTABJ8","A3JI3B5GTVA95F","3S1L4CQSFXRWQOWP2XFUSMS4AZDFAL","","504","img/food2.png","76","505","3","1","false","3","2","1,0.7,0,1,0.7,0,0.7,0,1","1,0.7,0,1,0.7,0,0.7,0,1","1",""
"","html-keyboard-response","122","105010","0.0-181.0","37TRT2X24RDJ0KL7I3BDRE0QSTABJ8","A3JI3B5GTVA95F","3S1L4CQSFXRWQOWP2XFUSMS4AZDFAL","","null","<img src=""img/food2.png"" style=""width:200px; border:14px solid green;"">","null","","","","","","","","","",""
"","image-keyboard-response","123","105362","0.0-183.0","37TRT2X24RDJ0KL7I3BDRE0QSTABJ8","A3JI3B5GTVA95F","3S1L4CQSFXRWQOWP2XFUSMS4AZDFAL","","350","img/food2.png","76","350","3","1","false","3","2","1,0.7,0,1,0.7,0,0.7,0,1","1,0.7,0,1,0.7,0,0.7,0,1","1",""
"","html-keyboard-response","124","105671","0.0-184.0","37TRT2X24RDJ0KL7I3BDRE0QSTABJ8","A3JI3B5GTVA95F","3S1L4CQSFXRWQOWP2XFUSMS4AZDFAL","","null","<img src=""img/food2.png"" style=""width:200px; border:14px solid green;"">","null","","","","","","","","","",""
"","image-keyboard-response","125","105986","0.0-186.0","37TRT2X24RDJ0KL7I3BDRE0QSTABJ8","A3JI3B5GTVA95F","3S1L4CQSFXRWQOWP2XFUSMS4AZDFAL","","314","img/food2.png","76","314","3","1","false","3","2","1,0.7,0,1,0.7,0,0.7,0,1","1,0.7,0,1,0.7,0,0.7,0,1","1",""
"","html-keyboard-response","126","106291","0.0-187.0","37TRT2X24RDJ0KL7I3BDRE0QSTABJ8","A3JI3B5GTVA95F","3S1L4CQSFXRWQOWP2XFUSMS4AZDFAL","","null","<img src=""img/food2.png"" style=""width:200px; border:14px solid green;"">","null","","","","","","","","","",""
"","image-keyboard-response","127","106778","0.0-189.0","37TRT2X24RDJ0KL7I3BDRE0QSTABJ8","A3JI3B5GTVA95F","3S1L4CQSFXRWQOWP2XFUSMS4AZDFAL","","487","img/food3.png","74","488","1","1","false","2","2","1,0.7,0,1,0.7,0,0.7,0,1","1,0.7,0,1,0.7,0,0.7,0,1","1",""
"","html-keyboard-response","128","107080","0.0-190.0","37TRT2X24RDJ0KL7I3BDRE0QSTABJ8","A3JI3B5GTVA95F","3S1L4CQSFXRWQOWP2XFUSMS4AZDFAL","","null","<img src=""img/food3.png"" style=""width:200px; border:14px solid green;"">","null","","","","","","","","","",""
"","image-keyboard-response","129","107338","0.0-192.0","37TRT2X24RDJ0KL7I3BDRE0QSTABJ8","A3JI3B5GTVA95F","3S1L4CQSFXRWQOWP2XFUSMS4AZDFAL","","257","img/food5.png","74","258","1","1","false","1","2","1,0.7,0,1,0.7,0,0.7,0,1","1,0.7,0,1,0.7,0,0.7,0,1","1",""
"","html-keyboard-response","130","107641","0.0-193.0","37TRT2X24RDJ0KL7I3BDRE0QSTABJ8","A3JI3B5GTVA95F","3S1L4CQSFXRWQOWP2XFUSMS4AZDFAL","","null","<img src=""img/food5.png"" style=""width:200px; border:14px solid green;"">","null","","","","","","","","","",""
"","image-keyboard-response","131","108107","0.0-195.0","37TRT2X24RDJ0KL7I3BDRE0QSTABJ8","A3JI3B5GTVA95F","3S1L4CQSFXRWQOWP2XFUSMS4AZDFAL","","464","img/food3.png","74","464","1","1","false","2","2","1,0.7,0,1,0.7,0,0.7,0,1","1,0.7,0,1,0.7,0,0.7,0,1","1",""
"","html-keyboard-response","132","108410","0.0-196.0","37TRT2X24RDJ0KL7I3BDRE0QSTABJ8","A3JI3B5GTVA95F","3S1L4CQSFXRWQOWP2XFUSMS4AZDFAL","","null","<img src=""img/food3.png"" style=""width:200px; border:14px solid green;"">","null","","","","","","","","","",""
"","image-keyboard-response","133","108827","0.0-198.0","37TRT2X24RDJ0KL7I3BDRE0QSTABJ8","A3JI3B5GTVA95F","3S1L4CQSFXRWQOWP2XFUSMS4AZDFAL","","415","img/food2.png","76","416","3","1","false","3","2","1,0.7,0,1,0.7,0,0.7,0,1","1,0.7,0,1,0.7,0,0.7,0,1","1",""
"","html-keyboard-response","134","109130","0.0-199.0","37TRT2X24RDJ0KL7I3BDRE0QSTABJ8","A3JI3B5GTVA95F","3S1L4CQSFXRWQOWP2XFUSMS4AZDFAL","","null","<img src=""img/food2.png"" style=""width:200px; border:14px solid green;"">","null","","","","","","","","","",""
"","image-keyboard-response","135","109474","0.0-201.0","37TRT2X24RDJ0KL7I3BDRE0QSTABJ8","A3JI3B5GTVA95F","3S1L4CQSFXRWQOWP2XFUSMS4AZDFAL","","343","img/food2.png","76","344","3","1","false","3","2","1,0.7,0,1,0.7,0,0.7,0,1","1,0.7,0,1,0.7,0,0.7,0,1","1",""
"","html-keyboard-response","136","109780","0.0-202.0","37TRT2X24RDJ0KL7I3BDRE0QSTABJ8","A3JI3B5GTVA95F","3S1L4CQSFXRWQOWP2XFUSMS4AZDFAL","","null","<img src=""img/food2.png"" style=""width:200px; border:14px solid green;"">","null","","","","","","","","","",""
"","image-keyboard-response","137","110266","0.0-204.0","37TRT2X24RDJ0KL7I3BDRE0QSTABJ8","A3JI3B5GTVA95F","3S1L4CQSFXRWQOWP2XFUSMS4AZDFAL","","485","img/food5.png","74","486","1","1","false","1","2","1,0.7,0,1,0.7,0,0.7,0,1","1,0.7,0,1,0.7,0,0.7,0,1","1",""
"","html-keyboard-response","138","110576","0.0-205.0","37TRT2X24RDJ0KL7I3BDRE0QSTABJ8","A3JI3B5GTVA95F","3S1L4CQSFXRWQOWP2XFUSMS4AZDFAL","","null","<img src=""img/food5.png"" style=""width:200px; border:14px solid green;"">","null","","","","","","","","","",""
"","image-keyboard-response","139","110898","0.0-207.0","37TRT2X24RDJ0KL7I3BDRE0QSTABJ8","A3JI3B5GTVA95F","3S1L4CQSFXRWQOWP2XFUSMS4AZDFAL","","321","img/food3.png","74","323","1","1","false","2","2","1,0.7,0,1,0.7,0,0.7,0,1","1,0.7,0,1,0.7,0,0.7,0,1","1",""
"","html-keyboard-response","140","111205","0.0-208.0","37TRT2X24RDJ0KL7I3BDRE0QSTABJ8","A3JI3B5GTVA95F","3S1L4CQSFXRWQOWP2XFUSMS4AZDFAL","","null","<img src=""img/food3.png"" style=""width:200px; border:14px solid green;"">","null","","","","","","","","","",""
"","image-keyboard-response","141","111482","0.0-210.0","37TRT2X24RDJ0KL7I3BDRE0QSTABJ8","A3JI3B5GTVA95F","3S1L4CQSFXRWQOWP2XFUSMS4AZDFAL","","276","img/food3.png","74","276","1","1","false","2","2","1,0.7,0,1,0.7,0,0.7,0,1","1,0.7,0,1,0.7,0,0.7,0,1","1",""
"","html-keyboard-response","142","111786","0.0-211.0","37TRT2X24RDJ0KL7I3BDRE0QSTABJ8","A3JI3B5GTVA95F","3S1L4CQSFXRWQOWP2XFUSMS4AZDFAL","","null","<img src=""img/food3.png"" style=""width:200px; border:14px solid green;"">","null","","","","","","","","","",""
"","image-keyboard-response","143","112242","0.0-213.0","37TRT2X24RDJ0KL7I3BDRE0QSTABJ8","A3JI3B5GTVA95F","3S1L4CQSFXRWQOWP2XFUSMS4AZDFAL","","455","img/food2.png","74","455","1","1","false","3","2","1,0.7,0,1,0.7,0,0.7,0,1","1,0.7,0,1,0.7,0,0.7,0,1","1",""
"","html-keyboard-response","144","112545","0.0-214.0","37TRT2X24RDJ0KL7I3BDRE0QSTABJ8","A3JI3B5GTVA95F","3S1L4CQSFXRWQOWP2XFUSMS4AZDFAL","","null","<img src=""img/food2.png"" style=""width:200px; border:14px solid green;"">","null","","","","","","","","","",""
"","image-keyboard-response","145","112874","0.0-216.0","37TRT2X24RDJ0KL7I3BDRE0QSTABJ8","A3JI3B5GTVA95F","3S1L4CQSFXRWQOWP2XFUSMS4AZDFAL","","328","img/food5.png","74","328","1","1","false","1","2","1,0.7,0,1,0.7,0,0.7,0,1","1,0.7,0,1,0.7,0,0.7,0,1","1",""
"","html-keyboard-response","146","113176","0.0-217.0","37TRT2X24RDJ0KL7I3BDRE0QSTABJ8","A3JI3B5GTVA95F","3S1L4CQSFXRWQOWP2XFUSMS4AZDFAL","","null","<img src=""img/food5.png"" style=""width:200px; border:14px solid green;"">","null","","","","","","","","","",""
"","image-keyboard-response","147","113618","0.0-219.0","37TRT2X24RDJ0KL7I3BDRE0QSTABJ8","A3JI3B5GTVA95F","3S1L4CQSFXRWQOWP2XFUSMS4AZDFAL","","441","img/food3.png","74","443","1","1","false","2","2","1,0.7,0,1,0.7,0,0.7,0,1","1,0.7,0,1,0.7,0,0.7,0,1","1",""
"","html-keyboard-response","148","113925","0.0-220.0","37TRT2X24RDJ0KL7I3BDRE0QSTABJ8","A3JI3B5GTVA95F","3S1L4CQSFXRWQOWP2XFUSMS4AZDFAL","","null","<img src=""img/food3.png"" style=""width:200px; border:14px solid green;"">","null","","","","","","","","","",""
"","image-keyboard-response","149","114378","0.0-222.0","37TRT2X24RDJ0KL7I3BDRE0QSTABJ8","A3JI3B5GTVA95F","3S1L4CQSFXRWQOWP2XFUSMS4AZDFAL","","452","img/food2.png","76","453","3","1","false","3","2","1,0.7,0,1,0.7,0,0.7,0,1","1,0.7,0,1,0.7,0,0.7,0,1","1",""
"","html-keyboard-response","150","114686","0.0-223.0","37TRT2X24RDJ0KL7I3BDRE0QSTABJ8","A3JI3B5GTVA95F","3S1L4CQSFXRWQOWP2XFUSMS4AZDFAL","","null","<img src=""img/food2.png"" style=""width:200px; border:14px solid green;"">","null","","","","","","","","","",""
"","image-keyboard-response","151","115218","0.0-225.0","37TRT2X24RDJ0KL7I3BDRE0QSTABJ8","A3JI3B5GTVA95F","3S1L4CQSFXRWQOWP2XFUSMS4AZDFAL","","531","img/food5.png","74","532","1","1","false","1","2","1,0.7,0,1,0.7,0,0.7,0,1","1,0.7,0,1,0.7,0,0.7,0,1","1",""
"","html-keyboard-response","152","115525","0.0-226.0","37TRT2X24RDJ0KL7I3BDRE0QSTABJ8","A3JI3B5GTVA95F","3S1L4CQSFXRWQOWP2XFUSMS4AZDFAL","","null","<img src=""img/food5.png"" style=""width:200px; border:14px solid green;"">","null","","","","","","","","","",""
"","image-keyboard-response","153","115842","0.0-228.0","37TRT2X24RDJ0KL7I3BDRE0QSTABJ8","A3JI3B5GTVA95F","3S1L4CQSFXRWQOWP2XFUSMS4AZDFAL","","316","img/food3.png","74","316","1","1","false","2","2","1,0.7,0,1,0.7,0,0.7,0,1","1,0.7,0,1,0.7,0,0.7,0,1","1",""
"","html-keyboard-response","154","116146","0.0-229.0","37TRT2X24RDJ0KL7I3BDRE0QSTABJ8","A3JI3B5GTVA95F","3S1L4CQSFXRWQOWP2XFUSMS4AZDFAL","","null","<img src=""img/food3.png"" style=""width:200px; border:14px solid green;"">","null","","","","","","","","","",""
"","image-keyboard-response","155","116474","0.0-231.0","37TRT2X24RDJ0KL7I3BDRE0QSTABJ8","A3JI3B5GTVA95F","3S1L4CQSFXRWQOWP2XFUSMS4AZDFAL","","328","img/food3.png","74","328","1","1","false","2","2","1,0.7,0,1,0.7,0,0.7,0,1","1,0.7,0,1,0.7,0,0.7,0,1","1",""
"","html-keyboard-response","156","116775","0.0-232.0","37TRT2X24RDJ0KL7I3BDRE0QSTABJ8","A3JI3B5GTVA95F","3S1L4CQSFXRWQOWP2XFUSMS4AZDFAL","","null","<img src=""img/food3.png"" style=""width:200px; border:14px solid green;"">","null","","","","","","","","","",""
"","image-keyboard-response","157","116946","0.0-234.0","37TRT2X24RDJ0KL7I3BDRE0QSTABJ8","A3JI3B5GTVA95F","3S1L4CQSFXRWQOWP2XFUSMS4AZDFAL","","169","img/food3.png","74","171","1","1","false","2","2","1,0.7,0,1,0.7,0,0.7,0,1","1,0.7,0,1,0.7,0,0.7,0,1","1",""
"","html-keyboard-response","158","117255","0.0-235.0","37TRT2X24RDJ0KL7I3BDRE0QSTABJ8","A3JI3B5GTVA95F","3S1L4CQSFXRWQOWP2XFUSMS4AZDFAL","","null","<img src=""img/food3.png"" style=""width:200px; border:14px solid green;"">","null","","","","","","","","","",""
"","image-keyboard-response","159","117578","0.0-237.0","37TRT2X24RDJ0KL7I3BDRE0QSTABJ8","A3JI3B5GTVA95F","3S1L4CQSFXRWQOWP2XFUSMS4AZDFAL","","321","img/food3.png","74","321","1","1","false","2","2","1,0.7,0,1,0.7,0,0.7,0,1","1,0.7,0,1,0.7,0,0.7,0,1","1",""
"","html-keyboard-response","160","117880","0.0-238.0","37TRT2X24RDJ0KL7I3BDRE0QSTABJ8","A3JI3B5GTVA95F","3S1L4CQSFXRWQOWP2XFUSMS4AZDFAL","","null","<img src=""img/food3.png"" style=""width:200px; border:14px solid green;"">","null","","","","","","","","","",""
"","image-keyboard-response","161","118338","0.0-240.0","37TRT2X24RDJ0KL7I3BDRE0QSTABJ8","A3JI3B5GTVA95F","3S1L4CQSFXRWQOWP2XFUSMS4AZDFAL","","457","img/food3.png","74","459","1","1","false","2","2","1,0.7,0,1,0.7,0,0.7,0,1","1,0.7,0,1,0.7,0,0.7,0,1","1",""
"","html-keyboard-response","162","118648","0.0-241.0","37TRT2X24RDJ0KL7I3BDRE0QSTABJ8","A3JI3B5GTVA95F","3S1L4CQSFXRWQOWP2XFUSMS4AZDFAL","","null","<img src=""img/food3.png"" style=""width:200px; border:14px solid green;"">","null","","","","","","","","","",""
"","image-keyboard-response","163","118946","0.0-243.0","37TRT2X24RDJ0KL7I3BDRE0QSTABJ8","A3JI3B5GTVA95F","3S1L4CQSFXRWQOWP2XFUSMS4AZDFAL","","298","img/food3.png","74","298","1","1","false","2","2","1,0.7,0,1,0.7,0,0.7,0,1","1,0.7,0,1,0.7,0,0.7,0,1","1",""
"","html-keyboard-response","164","119248","0.0-244.0","37TRT2X24RDJ0KL7I3BDRE0QSTABJ8","A3JI3B5GTVA95F","3S1L4CQSFXRWQOWP2XFUSMS4AZDFAL","","null","<img src=""img/food3.png"" style=""width:200px; border:14px solid green;"">","null","","","","","","","","","",""
"","image-keyboard-response","165","119553","0.0-246.0","37TRT2X24RDJ0KL7I3BDRE0QSTABJ8","A3JI3B5GTVA95F","3S1L4CQSFXRWQOWP2XFUSMS4AZDFAL","","305","img/food3.png","74","306","1","1","false","2","2","1,0.7,0,1,0.7,0,0.7,0,1","1,0.7,0,1,0.7,0,0.7,0,1","1",""
"","html-keyboard-response","166","119860","0.0-247.0","37TRT2X24RDJ0KL7I3BDRE0QSTABJ8","A3JI3B5GTVA95F","3S1L4CQSFXRWQOWP2XFUSMS4AZDFAL","","null","<img src=""img/food3.png"" style=""width:200px; border:14px solid green;"">","null","","","","","","","","","",""
"","image-keyboard-response","167","120322","0.0-249.0","37TRT2X24RDJ0KL7I3BDRE0QSTABJ8","A3JI3B5GTVA95F","3S1L4CQSFXRWQOWP2XFUSMS4AZDFAL","","461","img/food2.png","76","462","3","1","false","3","2","1,0.7,0,1,0.7,0,0.7,0,1","1,0.7,0,1,0.7,0,0.7,0,1","1",""
"","html-keyboard-response","168","120629","0.0-250.0","37TRT2X24RDJ0KL7I3BDRE0QSTABJ8","A3JI3B5GTVA95F","3S1L4CQSFXRWQOWP2XFUSMS4AZDFAL","","null","<img src=""img/food2.png"" style=""width:200px; border:14px solid green;"">","null","","","","","","","","","",""
"","image-keyboard-response","169","121154","0.0-252.0","37TRT2X24RDJ0KL7I3BDRE0QSTABJ8","A3JI3B5GTVA95F","3S1L4CQSFXRWQOWP2XFUSMS4AZDFAL","","524","img/food5.png","74","524","1","1","false","1","2","1,0.7,0,1,0.7,0,0.7,0,1","1,0.7,0,1,0.7,0,0.7,0,1","1",""
"","html-keyboard-response","170","121460","0.0-253.0","37TRT2X24RDJ0KL7I3BDRE0QSTABJ8","A3JI3B5GTVA95F","3S1L4CQSFXRWQOWP2XFUSMS4AZDFAL","","null","<img src=""img/food5.png"" style=""width:200px; border:14px solid green;"">","null","","","","","","","","","",""
"","image-keyboard-response","171","121826","0.0-255.0","37TRT2X24RDJ0KL7I3BDRE0QSTABJ8","A3JI3B5GTVA95F","3S1L4CQSFXRWQOWP2XFUSMS4AZDFAL","","364","img/food3.png","74","365","1","1","false","2","2","1,0.7,0,1,0.7,0,0.7,0,1","1,0.7,0,1,0.7,0,0.7,0,1","1",""
"","html-keyboard-response","172","122131","0.0-256.0","37TRT2X24RDJ0KL7I3BDRE0QSTABJ8","A3JI3B5GTVA95F","3S1L4CQSFXRWQOWP2XFUSMS4AZDFAL","","null","<img src=""img/food3.png"" style=""width:200px; border:14px solid green;"">","null","","","","","","","","","",""
"","image-keyboard-response","173","122754","0.0-258.0","37TRT2X24RDJ0KL7I3BDRE0QSTABJ8","A3JI3B5GTVA95F","3S1L4CQSFXRWQOWP2XFUSMS4AZDFAL","","623","img/food5.png","74","623","1","1","false","1","2","1,0.7,0,1,0.7,0,0.7,0,1","1,0.7,0,1,0.7,0,0.7,0,1","1",""
"","html-keyboard-response","174","123062","0.0-259.0","37TRT2X24RDJ0KL7I3BDRE0QSTABJ8","A3JI3B5GTVA95F","3S1L4CQSFXRWQOWP2XFUSMS4AZDFAL","","null","<img src=""img/food5.png"" style=""width:200px; border:14px solid green;"">","null","","","","","","","","","",""
"","image-keyboard-response","175","123338","0.0-261.0","37TRT2X24RDJ0KL7I3BDRE0QSTABJ8","A3JI3B5GTVA95F","3S1L4CQSFXRWQOWP2XFUSMS4AZDFAL","","274","img/food2.png","74","275","1","1","false","3","2","1,0.7,0,1,0.7,0,0.7,0,1","1,0.7,0,1,0.7,0,0.7,0,1","1",""
"","html-keyboard-response","176","123640","0.0-262.0","37TRT2X24RDJ0KL7I3BDRE0QSTABJ8","A3JI3B5GTVA95F","3S1L4CQSFXRWQOWP2XFUSMS4AZDFAL","","null","<img src=""img/food2.png"" style=""width:200px; border:14px solid green;"">","null","","","","","","","","","",""
"","image-keyboard-response","177","123986","0.0-264.0","37TRT2X24RDJ0KL7I3BDRE0QSTABJ8","A3JI3B5GTVA95F","3S1L4CQSFXRWQOWP2XFUSMS4AZDFAL","","345","img/food5.png","74","347","1","1","false","1","2","1,0.7,0,1,0.7,0,0.7,0,1","1,0.7,0,1,0.7,0,0.7,0,1","1",""
"","html-keyboard-response","178","124289","0.0-265.0","37TRT2X24RDJ0KL7I3BDRE0QSTABJ8","A3JI3B5GTVA95F","3S1L4CQSFXRWQOWP2XFUSMS4AZDFAL","","null","<img src=""img/food5.png"" style=""width:200px; border:14px solid green;"">","null","","","","","","","","","",""
"","image-keyboard-response","179","124641","0.0-267.0","37TRT2X24RDJ0KL7I3BDRE0QSTABJ8","A3JI3B5GTVA95F","3S1L4CQSFXRWQOWP2XFUSMS4AZDFAL","","350","img/food5.png","74","351","1","1","false","1","2","1,0.7,0,1,0.7,0,0.7,0,1","1,0.7,0,1,0.7,0,0.7,0,1","1",""
"","html-keyboard-response","180","124949","0.0-268.0","37TRT2X24RDJ0KL7I3BDRE0QSTABJ8","A3JI3B5GTVA95F","3S1L4CQSFXRWQOWP2XFUSMS4AZDFAL","","null","<img src=""img/food5.png"" style=""width:200px; border:14px solid green;"">","null","","","","","","","","","",""
"","image-keyboard-response","181","125426","0.0-270.0","37TRT2X24RDJ0KL7I3BDRE0QSTABJ8","A3JI3B5GTVA95F","3S1L4CQSFXRWQOWP2XFUSMS4AZDFAL","","474","img/food2.png","76","475","3","1","false","3","2","1,0.7,0,1,0.7,0,0.7,0,1","1,0.7,0,1,0.7,0,0.7,0,1","1",""
"","html-keyboard-response","182","125729","0.0-271.0","37TRT2X24RDJ0KL7I3BDRE0QSTABJ8","A3JI3B5GTVA95F","3S1L4CQSFXRWQOWP2XFUSMS4AZDFAL","","null","<img src=""img/food2.png"" style=""width:200px; border:14px solid green;"">","null","","","","","","","","","",""
"","instructions","183","137178","0.0-273.0","37TRT2X24RDJ0KL7I3BDRE0QSTABJ8","A3JI3B5GTVA95F","3S1L4CQSFXRWQOWP2XFUSMS4AZDFAL","[{""page_index"":0,""viewing_time"":8478},{""page_index"":1,""viewing_time"":2969}]","11448","","","","","","","","","","","",""
"","image-keyboard-response","184","138026","0.0-274.0","37TRT2X24RDJ0KL7I3BDRE0QSTABJ8","A3JI3B5GTVA95F","3S1L4CQSFXRWQOWP2XFUSMS4AZDFAL","","845","img/food4.png","74","848","1","1","","3","1","1,0.7,0,1,0.7,0,0.7,0,1","0,1,0.7,0,1,0.7,1,0.7,0","3",""
"","html-keyboard-response","185","138330","0.0-275.0","37TRT2X24RDJ0KL7I3BDRE0QSTABJ8","A3JI3B5GTVA95F","3S1L4CQSFXRWQOWP2XFUSMS4AZDFAL","","null","<img src=""img/food4.png"" style=""width:200px; border:14px solid green;"">","null","","","","","","","","","",""
"","image-keyboard-response","186","138905","0.0-276.0","37TRT2X24RDJ0KL7I3BDRE0QSTABJ8","A3JI3B5GTVA95F","3S1L4CQSFXRWQOWP2XFUSMS4AZDFAL","","574","img/food1.png","75","576","2","1","","1","1","1,0.7,0,1,0.7,0,0.7,0,1","0,1,0.7,0,1,0.7,1,0.7,0","3",""
"","html-keyboard-response","187","139210","0.0-277.0","37TRT2X24RDJ0KL7I3BDRE0QSTABJ8","A3JI3B5GTVA95F","3S1L4CQSFXRWQOWP2XFUSMS4AZDFAL","","null","<img src=""img/food1.png"" style=""width:200px; border:14px solid green;"">","null","","","","","","","","","",""
"","image-keyboard-response","188","139850","0.0-278.0","37TRT2X24RDJ0KL7I3BDRE0QSTABJ8","A3JI3B5GTVA95F","3S1L4CQSFXRWQOWP2XFUSMS4AZDFAL","","639","img/food6.png","74","639","1","0","","2","1","1,0.7,0,1,0.7,0,0.7,0,1","0,1,0.7,0,1,0.7,1,0.7,0","3",""
"","html-keyboard-response","189","140160","0.0-279.0","37TRT2X24RDJ0KL7I3BDRE0QSTABJ8","A3JI3B5GTVA95F","3S1L4CQSFXRWQOWP2XFUSMS4AZDFAL","","null","<img src=""img/food6.png"" style=""width:200px;border:14px solid red;"">","null","","","","","","","","","",""
"","image-keyboard-response","190","140818","0.0-280.0","37TRT2X24RDJ0KL7I3BDRE0QSTABJ8","A3JI3B5GTVA95F","3S1L4CQSFXRWQOWP2XFUSMS4AZDFAL","","656","img/food1.png","74","657","1","0","","1","1","1,0.7,0,1,0.7,0,0.7,0,1","0,1,0.7,0,1,0.7,1,0.7,0","3",""
"","html-keyboard-response","191","141120","0.0-281.0","37TRT2X24RDJ0KL7I3BDRE0QSTABJ8","A3JI3B5GTVA95F","3S1L4CQSFXRWQOWP2XFUSMS4AZDFAL","","null","<img src=""img/food1.png"" style=""width:200px;border:14px solid red;"">","null","","","","","","","","","",""
"","image-keyboard-response","192","141761","0.0-282.0","37TRT2X24RDJ0KL7I3BDRE0QSTABJ8","A3JI3B5GTVA95F","3S1L4CQSFXRWQOWP2XFUSMS4AZDFAL","","641","img/food4.png","75","641","2","1","","3","1","1,0.7,0,1,0.7,0,0.7,0,1","0,1,0.7,0,1,0.7,1,0.7,0","3",""
"","html-keyboard-response","193","142069","0.0-283.0","37TRT2X24RDJ0KL7I3BDRE0QSTABJ8","A3JI3B5GTVA95F","3S1L4CQSFXRWQOWP2XFUSMS4AZDFAL","","null","<img src=""img/food4.png"" style=""width:200px; border:14px solid green;"">","null","","","","","","","","","",""
"","image-keyboard-response","194","142553","0.0-284.0","37TRT2X24RDJ0KL7I3BDRE0QSTABJ8","A3JI3B5GTVA95F","3S1L4CQSFXRWQOWP2XFUSMS4AZDFAL","","482","img/food6.png","75","483","2","1","","2","1","1,0.7,0,1,0.7,0,0.7,0,1","0,1,0.7,0,1,0.7,1,0.7,0","3",""
"","html-keyboard-response","195","142860","0.0-285.0","37TRT2X24RDJ0KL7I3BDRE0QSTABJ8","A3JI3B5GTVA95F","3S1L4CQSFXRWQOWP2XFUSMS4AZDFAL","","null","<img src=""img/food6.png"" style=""width:200px; border:14px solid green;"">","null","","","","","","","","","",""
"","image-keyboard-response","196","143273","0.0-286.0","37TRT2X24RDJ0KL7I3BDRE0QSTABJ8","A3JI3B5GTVA95F","3S1L4CQSFXRWQOWP2XFUSMS4AZDFAL","","412","img/food6.png","75","413","2","1","","2","1","1,0.7,0,1,0.7,0,0.7,0,1","0,1,0.7,0,1,0.7,1,0.7,0","3",""
"","html-keyboard-response","197","143580","0.0-287.0","37TRT2X24RDJ0KL7I3BDRE0QSTABJ8","A3JI3B5GTVA95F","3S1L4CQSFXRWQOWP2XFUSMS4AZDFAL","","null","<img src=""img/food6.png"" style=""width:200px; border:14px solid green;"">","null","","","","","","","","","",""
"","image-keyboard-response","198","143897","0.0-288.0","37TRT2X24RDJ0KL7I3BDRE0QSTABJ8","A3JI3B5GTVA95F","3S1L4CQSFXRWQOWP2XFUSMS4AZDFAL","","316","img/food6.png","75","316","2","1","","2","1","1,0.7,0,1,0.7,0,0.7,0,1","0,1,0.7,0,1,0.7,1,0.7,0","3",""
"","html-keyboard-response","199","144199","0.0-289.0","37TRT2X24RDJ0KL7I3BDRE0QSTABJ8","A3JI3B5GTVA95F","3S1L4CQSFXRWQOWP2XFUSMS4AZDFAL","","null","<img src=""img/food6.png"" style=""width:200px; border:14px solid green;"">","null","","","","","","","","","",""
"","image-keyboard-response","200","144778","0.0-290.0","37TRT2X24RDJ0KL7I3BDRE0QSTABJ8","A3JI3B5GTVA95F","3S1L4CQSFXRWQOWP2XFUSMS4AZDFAL","","577","img/food1.png","76","578","3","1","","1","1","1,0.7,0,1,0.7,0,0.7,0,1","0,1,0.7,0,1,0.7,1,0.7,0","3",""
"","html-keyboard-response","201","145080","0.0-291.0","37TRT2X24RDJ0KL7I3BDRE0QSTABJ8","A3JI3B5GTVA95F","3S1L4CQSFXRWQOWP2XFUSMS4AZDFAL","","null","<img src=""img/food1.png"" style=""width:200px; border:14px solid green;"">","null","","","","","","","","","",""
"","image-keyboard-response","202","145698","0.0-292.0","37TRT2X24RDJ0KL7I3BDRE0QSTABJ8","A3JI3B5GTVA95F","3S1L4CQSFXRWQOWP2XFUSMS4AZDFAL","","617","img/food6.png","75","618","2","1","","2","1","1,0.7,0,1,0.7,0,0.7,0,1","0,1,0.7,0,1,0.7,1,0.7,0","3",""
"","html-keyboard-response","203","146000","0.0-293.0","37TRT2X24RDJ0KL7I3BDRE0QSTABJ8","A3JI3B5GTVA95F","3S1L4CQSFXRWQOWP2XFUSMS4AZDFAL","","null","<img src=""img/food6.png"" style=""width:200px; border:14px solid green;"">","null","","","","","","","","","",""
"","image-keyboard-response","204","146289","0.0-294.0","37TRT2X24RDJ0KL7I3BDRE0QSTABJ8","A3JI3B5GTVA95F","3S1L4CQSFXRWQOWP2XFUSMS4AZDFAL","","289","img/food6.png","75","289","2","1","","2","1","1,0.7,0,1,0.7,0,0.7,0,1","0,1,0.7,0,1,0.7,1,0.7,0","3",""
"","html-keyboard-response","205","146600","0.0-295.0","37TRT2X24RDJ0KL7I3BDRE0QSTABJ8","A3JI3B5GTVA95F","3S1L4CQSFXRWQOWP2XFUSMS4AZDFAL","","null","<img src=""img/food6.png"" style=""width:200px; border:14px solid green;"">","null","","","","","","","","","",""
"","image-keyboard-response","206","147521","0.0-296.0","37TRT2X24RDJ0KL7I3BDRE0QSTABJ8","A3JI3B5GTVA95F","3S1L4CQSFXRWQOWP2XFUSMS4AZDFAL","","920","img/food4.png","75","921","2","1","","3","1","1,0.7,0,1,0.7,0,0.7,0,1","0,1,0.7,0,1,0.7,1,0.7,0","3",""
"","html-keyboard-response","207","147830","0.0-297.0","37TRT2X24RDJ0KL7I3BDRE0QSTABJ8","A3JI3B5GTVA95F","3S1L4CQSFXRWQOWP2XFUSMS4AZDFAL","","null","<img src=""img/food4.png"" style=""width:200px; border:14px solid green;"">","null","","","","","","","","","",""
"","image-keyboard-response","208","148377","0.0-298.0","37TRT2X24RDJ0KL7I3BDRE0QSTABJ8","A3JI3B5GTVA95F","3S1L4CQSFXRWQOWP2XFUSMS4AZDFAL","","546","img/food6.png","75","546","2","1","","2","1","1,0.7,0,1,0.7,0,0.7,0,1","0,1,0.7,0,1,0.7,1,0.7,0","3",""
"","html-keyboard-response","209","148680","0.0-299.0","37TRT2X24RDJ0KL7I3BDRE0QSTABJ8","A3JI3B5GTVA95F","3S1L4CQSFXRWQOWP2XFUSMS4AZDFAL","","null","<img src=""img/food6.png"" style=""width:200px; border:14px solid green;"">","null","","","","","","","","","",""
"","image-keyboard-response","210","148961","0.0-300.0","37TRT2X24RDJ0KL7I3BDRE0QSTABJ8","A3JI3B5GTVA95F","3S1L4CQSFXRWQOWP2XFUSMS4AZDFAL","","281","img/food4.png","75","282","2","1","","3","1","1,0.7,0,1,0.7,0,0.7,0,1","0,1,0.7,0,1,0.7,1,0.7,0","3",""
"","html-keyboard-response","211","149269","0.0-301.0","37TRT2X24RDJ0KL7I3BDRE0QSTABJ8","A3JI3B5GTVA95F","3S1L4CQSFXRWQOWP2XFUSMS4AZDFAL","","null","<img src=""img/food4.png"" style=""width:200px; border:14px solid green;"">","null","","","","","","","","","",""
"","image-keyboard-response","212","149545","0.0-302.0","37TRT2X24RDJ0KL7I3BDRE0QSTABJ8","A3JI3B5GTVA95F","3S1L4CQSFXRWQOWP2XFUSMS4AZDFAL","","274","img/food4.png","75","274","2","1","","3","1","1,0.7,0,1,0.7,0,0.7,0,1","0,1,0.7,0,1,0.7,1,0.7,0","3",""
"","html-keyboard-response","213","149849","0.0-303.0","37TRT2X24RDJ0KL7I3BDRE0QSTABJ8","A3JI3B5GTVA95F","3S1L4CQSFXRWQOWP2XFUSMS4AZDFAL","","null","<img src=""img/food4.png"" style=""width:200px; border:14px solid green;"">","null","","","","","","","","","",""
"","image-keyboard-response","214","150289","0.0-304.0","37TRT2X24RDJ0KL7I3BDRE0QSTABJ8","A3JI3B5GTVA95F","3S1L4CQSFXRWQOWP2XFUSMS4AZDFAL","","438","img/food1.png","76","438","3","1","","1","1","1,0.7,0,1,0.7,0,0.7,0,1","0,1,0.7,0,1,0.7,1,0.7,0","3",""
"","html-keyboard-response","215","150599","0.0-305.0","37TRT2X24RDJ0KL7I3BDRE0QSTABJ8","A3JI3B5GTVA95F","3S1L4CQSFXRWQOWP2XFUSMS4AZDFAL","","null","<img src=""img/food1.png"" style=""width:200px; border:14px solid green;"">","null","","","","","","","","","",""
"","image-keyboard-response","216","151097","0.0-306.0","37TRT2X24RDJ0KL7I3BDRE0QSTABJ8","A3JI3B5GTVA95F","3S1L4CQSFXRWQOWP2XFUSMS4AZDFAL","","496","img/food6.png","75","497","2","1","","2","1","1,0.7,0,1,0.7,0,0.7,0,1","0,1,0.7,0,1,0.7,1,0.7,0","3",""
"","html-keyboard-response","217","151399","0.0-307.0","37TRT2X24RDJ0KL7I3BDRE0QSTABJ8","A3JI3B5GTVA95F","3S1L4CQSFXRWQOWP2XFUSMS4AZDFAL","","null","<img src=""img/food6.png"" style=""width:200px; border:14px solid green;"">","null","","","","","","","","","",""
"","image-keyboard-response","218","151801","0.0-308.0","37TRT2X24RDJ0KL7I3BDRE0QSTABJ8","A3JI3B5GTVA95F","3S1L4CQSFXRWQOWP2XFUSMS4AZDFAL","","401","img/food4.png","75","401","2","1","","3","1","1,0.7,0,1,0.7,0,0.7,0,1","0,1,0.7,0,1,0.7,1,0.7,0","3",""
"","html-keyboard-response","219","152109","0.0-309.0","37TRT2X24RDJ0KL7I3BDRE0QSTABJ8","A3JI3B5GTVA95F","3S1L4CQSFXRWQOWP2XFUSMS4AZDFAL","","null","<img src=""img/food4.png"" style=""width:200px; border:14px solid green;"">","null","","","","","","","","","",""
"","image-keyboard-response","220","152537","0.0-310.0","37TRT2X24RDJ0KL7I3BDRE0QSTABJ8","A3JI3B5GTVA95F","3S1L4CQSFXRWQOWP2XFUSMS4AZDFAL","","426","img/food1.png","76","428","3","1","","1","1","1,0.7,0,1,0.7,0,0.7,0,1","0,1,0.7,0,1,0.7,1,0.7,0","3",""
"","html-keyboard-response","221","152839","0.0-311.0","37TRT2X24RDJ0KL7I3BDRE0QSTABJ8","A3JI3B5GTVA95F","3S1L4CQSFXRWQOWP2XFUSMS4AZDFAL","","null","<img src=""img/food1.png"" style=""width:200px; border:14px solid green;"">","null","","","","","","","","","",""
"","image-keyboard-response","222","153418","0.0-312.0","37TRT2X24RDJ0KL7I3BDRE0QSTABJ8","A3JI3B5GTVA95F","3S1L4CQSFXRWQOWP2XFUSMS4AZDFAL","","576","img/food6.png","75","577","2","1","","2","1","1,0.7,0,1,0.7,0,0.7,0,1","0,1,0.7,0,1,0.7,1,0.7,0","3",""
"","html-keyboard-response","223","153720","0.0-313.0","37TRT2X24RDJ0KL7I3BDRE0QSTABJ8","A3JI3B5GTVA95F","3S1L4CQSFXRWQOWP2XFUSMS4AZDFAL","","null","<img src=""img/food6.png"" style=""width:200px; border:14px solid green;"">","null","","","","","","","","","",""
"","image-keyboard-response","224","153889","0.0-314.0","37TRT2X24RDJ0KL7I3BDRE0QSTABJ8","A3JI3B5GTVA95F","3S1L4CQSFXRWQOWP2XFUSMS4AZDFAL","","168","img/food6.png","75","169","2","1","","2","1","1,0.7,0,1,0.7,0,0.7,0,1","0,1,0.7,0,1,0.7,1,0.7,0","3",""
"","html-keyboard-response","225","154200","0.0-315.0","37TRT2X24RDJ0KL7I3BDRE0QSTABJ8","A3JI3B5GTVA95F","3S1L4CQSFXRWQOWP2XFUSMS4AZDFAL","","null","<img src=""img/food6.png"" style=""width:200px; border:14px solid green;"">","null","","","","","","","","","",""
"","image-keyboard-response","226","154449","0.0-316.0","37TRT2X24RDJ0KL7I3BDRE0QSTABJ8","A3JI3B5GTVA95F","3S1L4CQSFXRWQOWP2XFUSMS4AZDFAL","","249","img/food6.png","75","249","2","1","","2","1","1,0.7,0,1,0.7,0,0.7,0,1","0,1,0.7,0,1,0.7,1,0.7,0","3",""
"","html-keyboard-response","227","154759","0.0-317.0","37TRT2X24RDJ0KL7I3BDRE0QSTABJ8","A3JI3B5GTVA95F","3S1L4CQSFXRWQOWP2XFUSMS4AZDFAL","","null","<img src=""img/food6.png"" style=""width:200px; border:14px solid green;"">","null","","","","","","","","","",""
"","image-keyboard-response","228","155241","0.0-318.0","37TRT2X24RDJ0KL7I3BDRE0QSTABJ8","A3JI3B5GTVA95F","3S1L4CQSFXRWQOWP2XFUSMS4AZDFAL","","480","img/food4.png","75","481","2","1","","3","1","1,0.7,0,1,0.7,0,0.7,0,1","0,1,0.7,0,1,0.7,1,0.7,0","3",""
"","html-keyboard-response","229","155550","0.0-319.0","37TRT2X24RDJ0KL7I3BDRE0QSTABJ8","A3JI3B5GTVA95F","3S1L4CQSFXRWQOWP2XFUSMS4AZDFAL","","null","<img src=""img/food4.png"" style=""width:200px; border:14px solid green;"">","null","","","","","","","","","",""
"","image-keyboard-response","230","155849","0.0-320.0","37TRT2X24RDJ0KL7I3BDRE0QSTABJ8","A3JI3B5GTVA95F","3S1L4CQSFXRWQOWP2XFUSMS4AZDFAL","","299","img/food4.png","75","300","2","1","","3","1","1,0.7,0,1,0.7,0,0.7,0,1","0,1,0.7,0,1,0.7,1,0.7,0","3",""
"","html-keyboard-response","231","156159","0.0-321.0","37TRT2X24RDJ0KL7I3BDRE0QSTABJ8","A3JI3B5GTVA95F","3S1L4CQSFXRWQOWP2XFUSMS4AZDFAL","","null","<img src=""img/food4.png"" style=""width:200px; border:14px solid green;"">","null","","","","","","","","","",""
"","image-keyboard-response","232","156481","0.0-322.0","37TRT2X24RDJ0KL7I3BDRE0QSTABJ8","A3JI3B5GTVA95F","3S1L4CQSFXRWQOWP2XFUSMS4AZDFAL","","321","img/food4.png","75","321","2","1","","3","1","1,0.7,0,1,0.7,0,0.7,0,1","0,1,0.7,0,1,0.7,1,0.7,0","3",""
"","html-keyboard-response","233","156790","0.0-323.0","37TRT2X24RDJ0KL7I3BDRE0QSTABJ8","A3JI3B5GTVA95F","3S1L4CQSFXRWQOWP2XFUSMS4AZDFAL","","null","<img src=""img/food4.png"" style=""width:200px; border:14px solid green;"">","null","","","","","","","","","",""
"","image-keyboard-response","234","157089","0.0-324.0","37TRT2X24RDJ0KL7I3BDRE0QSTABJ8","A3JI3B5GTVA95F","3S1L4CQSFXRWQOWP2XFUSMS4AZDFAL","","299","img/food4.png","75","300","2","1","","3","1","1,0.7,0,1,0.7,0,0.7,0,1","0,1,0.7,0,1,0.7,1,0.7,0","3",""
"","html-keyboard-response","235","157400","0.0-325.0","37TRT2X24RDJ0KL7I3BDRE0QSTABJ8","A3JI3B5GTVA95F","3S1L4CQSFXRWQOWP2XFUSMS4AZDFAL","","null","<img src=""img/food4.png"" style=""width:200px; border:14px solid green;"">","null","","","","","","","","","",""
"","image-keyboard-response","236","157897","0.0-326.0","37TRT2X24RDJ0KL7I3BDRE0QSTABJ8","A3JI3B5GTVA95F","3S1L4CQSFXRWQOWP2XFUSMS4AZDFAL","","497","img/food6.png","76","497","3","1","","2","1","1,0.7,0,1,0.7,0,0.7,0,1","0,1,0.7,0,1,0.7,1,0.7,0","3",""
"","html-keyboard-response","237","158200","0.0-327.0","37TRT2X24RDJ0KL7I3BDRE0QSTABJ8","A3JI3B5GTVA95F","3S1L4CQSFXRWQOWP2XFUSMS4AZDFAL","","null","<img src=""img/food6.png"" style=""width:200px; border:14px solid green;"">","null","","","","","","","","","",""
"","image-keyboard-response","238","158929","0.0-328.0","37TRT2X24RDJ0KL7I3BDRE0QSTABJ8","A3JI3B5GTVA95F","3S1L4CQSFXRWQOWP2XFUSMS4AZDFAL","","728","img/food6.png","76","728","3","1","","2","1","1,0.7,0,1,0.7,0,0.7,0,1","0,1,0.7,0,1,0.7,1,0.7,0","3",""
"","html-keyboard-response","239","159240","0.0-329.0","37TRT2X24RDJ0KL7I3BDRE0QSTABJ8","A3JI3B5GTVA95F","3S1L4CQSFXRWQOWP2XFUSMS4AZDFAL","","null","<img src=""img/food6.png"" style=""width:200px; border:14px solid green;"">","null","","","","","","","","","",""
"","image-keyboard-response","240","160033","0.0-330.0","37TRT2X24RDJ0KL7I3BDRE0QSTABJ8","A3JI3B5GTVA95F","3S1L4CQSFXRWQOWP2XFUSMS4AZDFAL","","792","img/food1.png","76","794","3","1","","1","1","1,0.7,0,1,0.7,0,0.7,0,1","0,1,0.7,0,1,0.7,1,0.7,0","3",""
"","html-keyboard-response","241","160339","0.0-331.0","37TRT2X24RDJ0KL7I3BDRE0QSTABJ8","A3JI3B5GTVA95F","3S1L4CQSFXRWQOWP2XFUSMS4AZDFAL","","null","<img src=""img/food1.png"" style=""width:200px; border:14px solid green;"">","null","","","","","","","","","",""
"","image-keyboard-response","242","160665","0.0-332.0","37TRT2X24RDJ0KL7I3BDRE0QSTABJ8","A3JI3B5GTVA95F","3S1L4CQSFXRWQOWP2XFUSMS4AZDFAL","","325","img/food1.png","76","325","3","1","","1","1","1,0.7,0,1,0.7,0,0.7,0,1","0,1,0.7,0,1,0.7,1,0.7,0","3",""
"","html-keyboard-response","243","160970","0.0-333.0","37TRT2X24RDJ0KL7I3BDRE0QSTABJ8","A3JI3B5GTVA95F","3S1L4CQSFXRWQOWP2XFUSMS4AZDFAL","","null","<img src=""img/food1.png"" style=""width:200px; border:14px solid green;"">","null","","","","","","","","","",""
"","image-keyboard-response","244","161289","0.0-334.0","37TRT2X24RDJ0KL7I3BDRE0QSTABJ8","A3JI3B5GTVA95F","3S1L4CQSFXRWQOWP2XFUSMS4AZDFAL","","319","img/food1.png","76","319","3","0","","1","1","1,0.7,0,1,0.7,0,0.7,0,1","0,1,0.7,0,1,0.7,1,0.7,0","3",""
"","html-keyboard-response","245","161599","0.0-335.0","37TRT2X24RDJ0KL7I3BDRE0QSTABJ8","A3JI3B5GTVA95F","3S1L4CQSFXRWQOWP2XFUSMS4AZDFAL","","null","<img src=""img/food1.png"" style=""width:200px;border:14px solid red;"">","null","","","","","","","","","",""
"","image-keyboard-response","246","161944","0.0-336.0","37TRT2X24RDJ0KL7I3BDRE0QSTABJ8","A3JI3B5GTVA95F","3S1L4CQSFXRWQOWP2XFUSMS4AZDFAL","","345","img/food1.png","76","345","3","1","","1","1","1,0.7,0,1,0.7,0,0.7,0,1","0,1,0.7,0,1,0.7,1,0.7,0","3",""
"","html-keyboard-response","247","162250","0.0-337.0","37TRT2X24RDJ0KL7I3BDRE0QSTABJ8","A3JI3B5GTVA95F","3S1L4CQSFXRWQOWP2XFUSMS4AZDFAL","","null","<img src=""img/food1.png"" style=""width:200px; border:14px solid green;"">","null","","","","","","","","","",""
"","image-keyboard-response","248","162601","0.0-338.0","37TRT2X24RDJ0KL7I3BDRE0QSTABJ8","A3JI3B5GTVA95F","3S1L4CQSFXRWQOWP2XFUSMS4AZDFAL","","350","img/food1.png","76","350","3","1","","1","1","1,0.7,0,1,0.7,0,0.7,0,1","0,1,0.7,0,1,0.7,1,0.7,0","3",""
"","html-keyboard-response","249","162909","0.0-339.0","37TRT2X24RDJ0KL7I3BDRE0QSTABJ8","A3JI3B5GTVA95F","3S1L4CQSFXRWQOWP2XFUSMS4AZDFAL","","null","<img src=""img/food1.png"" style=""width:200px; border:14px solid green;"">","null","","","","","","","","","",""
"","image-keyboard-response","250","163137","0.0-340.0","37TRT2X24RDJ0KL7I3BDRE0QSTABJ8","A3JI3B5GTVA95F","3S1L4CQSFXRWQOWP2XFUSMS4AZDFAL","","226","img/food4.png","76","226","3","0","","3","1","1,0.7,0,1,0.7,0,0.7,0,1","0,1,0.7,0,1,0.7,1,0.7,0","3",""
"","html-keyboard-response","251","163440","0.0-341.0","37TRT2X24RDJ0KL7I3BDRE0QSTABJ8","A3JI3B5GTVA95F","3S1L4CQSFXRWQOWP2XFUSMS4AZDFAL","","null","<img src=""img/food4.png"" style=""width:200px;border:14px solid red;"">","null","","","","","","","","","",""
"","image-keyboard-response","252","163881","0.0-342.0","37TRT2X24RDJ0KL7I3BDRE0QSTABJ8","A3JI3B5GTVA95F","3S1L4CQSFXRWQOWP2XFUSMS4AZDFAL","","441","img/food1.png","75","441","2","1","","1","1","1,0.7,0,1,0.7,0,0.7,0,1","0,1,0.7,0,1,0.7,1,0.7,0","3",""
"","html-keyboard-response","253","164190","0.0-343.0","37TRT2X24RDJ0KL7I3BDRE0QSTABJ8","A3JI3B5GTVA95F","3S1L4CQSFXRWQOWP2XFUSMS4AZDFAL","","null","<img src=""img/food1.png"" style=""width:200px; border:14px solid green;"">","null","","","","","","","","","",""
"","image-keyboard-response","254","164737","0.0-344.0","37TRT2X24RDJ0KL7I3BDRE0QSTABJ8","A3JI3B5GTVA95F","3S1L4CQSFXRWQOWP2XFUSMS4AZDFAL","","546","img/food4.png","75","548","2","1","","3","1","1,0.7,0,1,0.7,0,0.7,0,1","0,1,0.7,0,1,0.7,1,0.7,0","3",""
"","html-keyboard-response","255","165040","0.0-345.0","37TRT2X24RDJ0KL7I3BDRE0QSTABJ8","A3JI3B5GTVA95F","3S1L4CQSFXRWQOWP2XFUSMS4AZDFAL","","null","<img src=""img/food4.png"" style=""width:200px; border:14px solid green;"">","null","","","","","","","","","",""
"","image-keyboard-response","256","165593","0.0-346.0","37TRT2X24RDJ0KL7I3BDRE0QSTABJ8","A3JI3B5GTVA95F","3S1L4CQSFXRWQOWP2XFUSMS4AZDFAL","","553","img/food6.png","75","553","2","1","","2","1","1,0.7,0,1,0.7,0,0.7,0,1","0,1,0.7,0,1,0.7,1,0.7,0","3",""
"","html-keyboard-response","257","165899","0.0-347.0","37TRT2X24RDJ0KL7I3BDRE0QSTABJ8","A3JI3B5GTVA95F","3S1L4CQSFXRWQOWP2XFUSMS4AZDFAL","","null","<img src=""img/food6.png"" style=""width:200px; border:14px solid green;"">","null","","","","","","","","","",""
"","image-keyboard-response","258","166401","0.0-348.0","37TRT2X24RDJ0KL7I3BDRE0QSTABJ8","A3JI3B5GTVA95F","3S1L4CQSFXRWQOWP2XFUSMS4AZDFAL","","500","img/food1.png","76","501","3","1","","1","1","1,0.7,0,1,0.7,0,0.7,0,1","0,1,0.7,0,1,0.7,1,0.7,0","3",""
"","html-keyboard-response","259","166710","0.0-349.0","37TRT2X24RDJ0KL7I3BDRE0QSTABJ8","A3JI3B5GTVA95F","3S1L4CQSFXRWQOWP2XFUSMS4AZDFAL","","null","<img src=""img/food1.png"" style=""width:200px; border:14px solid green;"">","null","","","","","","","","","",""
"","image-keyboard-response","260","167185","0.0-350.0","37TRT2X24RDJ0KL7I3BDRE0QSTABJ8","A3JI3B5GTVA95F","3S1L4CQSFXRWQOWP2XFUSMS4AZDFAL","","475","img/food4.png","75","476","2","1","","3","1","1,0.7,0,1,0.7,0,0.7,0,1","0,1,0.7,0,1,0.7,1,0.7,0","3",""
"","html-keyboard-response","261","167490","0.0-351.0","37TRT2X24RDJ0KL7I3BDRE0QSTABJ8","A3JI3B5GTVA95F","3S1L4CQSFXRWQOWP2XFUSMS4AZDFAL","","null","<img src=""img/food4.png"" style=""width:200px; border:14px solid green;"">","null","","","","","","","","","",""
"","image-keyboard-response","262","167793","0.0-352.0","37TRT2X24RDJ0KL7I3BDRE0QSTABJ8","A3JI3B5GTVA95F","3S1L4CQSFXRWQOWP2XFUSMS4AZDFAL","","303","img/food6.png","75","304","2","1","","2","1","1,0.7,0,1,0.7,0,0.7,0,1","0,1,0.7,0,1,0.7,1,0.7,0","3",""
"","html-keyboard-response","263","168099","0.0-353.0","37TRT2X24RDJ0KL7I3BDRE0QSTABJ8","A3JI3B5GTVA95F","3S1L4CQSFXRWQOWP2XFUSMS4AZDFAL","","null","<img src=""img/food6.png"" style=""width:200px; border:14px solid green;"">","null","","","","","","","","","",""
"","image-keyboard-response","264","168241","0.0-354.0","37TRT2X24RDJ0KL7I3BDRE0QSTABJ8","A3JI3B5GTVA95F","3S1L4CQSFXRWQOWP2XFUSMS4AZDFAL","","141","img/food1.png","75","141","2","1","","1","1","1,0.7,0,1,0.7,0,0.7,0,1","0,1,0.7,0,1,0.7,1,0.7,0","3",""
"","html-keyboard-response","265","168549","0.0-355.0","37TRT2X24RDJ0KL7I3BDRE0QSTABJ8","A3JI3B5GTVA95F","3S1L4CQSFXRWQOWP2XFUSMS4AZDFAL","","null","<img src=""img/food1.png"" style=""width:200px; border:14px solid green;"">","null","","","","","","","","","",""
"","image-keyboard-response","266","168985","0.0-356.0","37TRT2X24RDJ0KL7I3BDRE0QSTABJ8","A3JI3B5GTVA95F","3S1L4CQSFXRWQOWP2XFUSMS4AZDFAL","","435","img/food4.png","75","436","2","1","","3","1","1,0.7,0,1,0.7,0,0.7,0,1","0,1,0.7,0,1,0.7,1,0.7,0","3",""
"","html-keyboard-response","267","169295","0.0-357.0","37TRT2X24RDJ0KL7I3BDRE0QSTABJ8","A3JI3B5GTVA95F","3S1L4CQSFXRWQOWP2XFUSMS4AZDFAL","","null","<img src=""img/food4.png"" style=""width:200px; border:14px solid green;"">","null","","","","","","","","","",""
"","image-keyboard-response","268","169641","0.0-358.0","37TRT2X24RDJ0KL7I3BDRE0QSTABJ8","A3JI3B5GTVA95F","3S1L4CQSFXRWQOWP2XFUSMS4AZDFAL","","344","img/food4.png","75","345","2","1","","3","1","1,0.7,0,1,0.7,0,0.7,0,1","0,1,0.7,0,1,0.7,1,0.7,0","3",""
"","html-keyboard-response","269","169947","0.0-359.0","37TRT2X24RDJ0KL7I3BDRE0QSTABJ8","A3JI3B5GTVA95F","3S1L4CQSFXRWQOWP2XFUSMS4AZDFAL","","null","<img src=""img/food4.png"" style=""width:200px; border:14px solid green;"">","null","","","","","","","","","",""
"","image-keyboard-response","270","170449","0.0-360.0","37TRT2X24RDJ0KL7I3BDRE0QSTABJ8","A3JI3B5GTVA95F","3S1L4CQSFXRWQOWP2XFUSMS4AZDFAL","","500","img/food1.png","76","501","3","0","","1","1","1,0.7,0,1,0.7,0,0.7,0,1","0,1,0.7,0,1,0.7,1,0.7,0","3",""
"","html-keyboard-response","271","170757","0.0-361.0","37TRT2X24RDJ0KL7I3BDRE0QSTABJ8","A3JI3B5GTVA95F","3S1L4CQSFXRWQOWP2XFUSMS4AZDFAL","","null","<img src=""img/food1.png"" style=""width:200px;border:14px solid red;"">","null","","","","","","","","","",""
"","image-keyboard-response","272","171369","0.0-362.0","37TRT2X24RDJ0KL7I3BDRE0QSTABJ8","A3JI3B5GTVA95F","3S1L4CQSFXRWQOWP2XFUSMS4AZDFAL","","610","img/food1.png","76","611","3","1","","1","1","1,0.7,0,1,0.7,0,0.7,0,1","0,1,0.7,0,1,0.7,1,0.7,0","3",""
"","html-keyboard-response","273","171677","0.0-363.0","37TRT2X24RDJ0KL7I3BDRE0QSTABJ8","A3JI3B5GTVA95F","3S1L4CQSFXRWQOWP2XFUSMS4AZDFAL","","null","<img src=""img/food1.png"" style=""width:200px; border:14px solid green;"">","null","","","","","","","","","",""
"","image-keyboard-response","274","172201","0.0-364.0","37TRT2X24RDJ0KL7I3BDRE0QSTABJ8","A3JI3B5GTVA95F","3S1L4CQSFXRWQOWP2XFUSMS4AZDFAL","","523","img/food6.png","75","524","2","1","","2","1","1,0.7,0,1,0.7,0,0.7,0,1","0,1,0.7,0,1,0.7,1,0.7,0","3",""
"","html-keyboard-response","275","172508","0.0-365.0","37TRT2X24RDJ0KL7I3BDRE0QSTABJ8","A3JI3B5GTVA95F","3S1L4CQSFXRWQOWP2XFUSMS4AZDFAL","","null","<img src=""img/food6.png"" style=""width:200px; border:14px solid green;"">","null","","","","","","","","","",""
"","image-keyboard-response","276","172833","0.0-366.0","37TRT2X24RDJ0KL7I3BDRE0QSTABJ8","A3JI3B5GTVA95F","3S1L4CQSFXRWQOWP2XFUSMS4AZDFAL","","324","img/food6.png","75","324","2","1","","2","1","1,0.7,0,1,0.7,0,0.7,0,1","0,1,0.7,0,1,0.7,1,0.7,0","3",""
"","html-keyboard-response","277","173140","0.0-367.0","37TRT2X24RDJ0KL7I3BDRE0QSTABJ8","A3JI3B5GTVA95F","3S1L4CQSFXRWQOWP2XFUSMS4AZDFAL","","null","<img src=""img/food6.png"" style=""width:200px; border:14px solid green;"">","null","","","","","","","","","",""
"","image-keyboard-response","278","173577","0.0-368.0","37TRT2X24RDJ0KL7I3BDRE0QSTABJ8","A3JI3B5GTVA95F","3S1L4CQSFXRWQOWP2XFUSMS4AZDFAL","","436","img/food4.png","75","436","2","1","","3","1","1,0.7,0,1,0.7,0,0.7,0,1","0,1,0.7,0,1,0.7,1,0.7,0","3",""
"","html-keyboard-response","279","173887","0.0-369.0","37TRT2X24RDJ0KL7I3BDRE0QSTABJ8","A3JI3B5GTVA95F","3S1L4CQSFXRWQOWP2XFUSMS4AZDFAL","","null","<img src=""img/food4.png"" style=""width:200px; border:14px solid green;"">","null","","","","","","","","","",""
"","image-keyboard-response","280","174184","0.0-370.0","37TRT2X24RDJ0KL7I3BDRE0QSTABJ8","A3JI3B5GTVA95F","3S1L4CQSFXRWQOWP2XFUSMS4AZDFAL","","297","img/food4.png","75","297","2","1","","3","1","1,0.7,0,1,0.7,0,0.7,0,1","0,1,0.7,0,1,0.7,1,0.7,0","3",""
"","html-keyboard-response","281","174487","0.0-371.0","37TRT2X24RDJ0KL7I3BDRE0QSTABJ8","A3JI3B5GTVA95F","3S1L4CQSFXRWQOWP2XFUSMS4AZDFAL","","null","<img src=""img/food4.png"" style=""width:200px; border:14px solid green;"">","null","","","","","","","","","",""
"","image-keyboard-response","282","175177","0.0-372.0","37TRT2X24RDJ0KL7I3BDRE0QSTABJ8","A3JI3B5GTVA95F","3S1L4CQSFXRWQOWP2XFUSMS4AZDFAL","","689","img/food1.png","74","689","1","0","","1","1","1,0.7,0,1,0.7,0,0.7,0,1","0,1,0.7,0,1,0.7,1,0.7,0","3",""
"","html-keyboard-response","283","175487","0.0-373.0","37TRT2X24RDJ0KL7I3BDRE0QSTABJ8","A3JI3B5GTVA95F","3S1L4CQSFXRWQOWP2XFUSMS4AZDFAL","","null","<img src=""img/food1.png"" style=""width:200px;border:14px solid red;"">","null","","","","","","","","","",""
"","image-keyboard-response","284","176049","0.0-374.0","37TRT2X24RDJ0KL7I3BDRE0QSTABJ8","A3JI3B5GTVA95F","3S1L4CQSFXRWQOWP2XFUSMS4AZDFAL","","560","img/food1.png","75","561","2","1","","1","1","1,0.7,0,1,0.7,0,0.7,0,1","0,1,0.7,0,1,0.7,1,0.7,0","3",""
"","html-keyboard-response","285","176357","0.0-375.0","37TRT2X24RDJ0KL7I3BDRE0QSTABJ8","A3JI3B5GTVA95F","3S1L4CQSFXRWQOWP2XFUSMS4AZDFAL","","null","<img src=""img/food1.png"" style=""width:200px; border:14px solid green;"">","null","","","","","","","","","",""
"","image-keyboard-response","286","176705","0.0-376.0","37TRT2X24RDJ0KL7I3BDRE0QSTABJ8","A3JI3B5GTVA95F","3S1L4CQSFXRWQOWP2XFUSMS4AZDFAL","","346","img/food4.png","75","347","2","1","","3","1","1,0.7,0,1,0.7,0,0.7,0,1","0,1,0.7,0,1,0.7,1,0.7,0","3",""
"","html-keyboard-response","287","177007","0.0-377.0","37TRT2X24RDJ0KL7I3BDRE0QSTABJ8","A3JI3B5GTVA95F","3S1L4CQSFXRWQOWP2XFUSMS4AZDFAL","","null","<img src=""img/food4.png"" style=""width:200px; border:14px solid green;"">","null","","","","","","","","","",""
"","image-keyboard-response","288","177312","0.0-378.0","37TRT2X24RDJ0KL7I3BDRE0QSTABJ8","A3JI3B5GTVA95F","3S1L4CQSFXRWQOWP2XFUSMS4AZDFAL","","304","img/food1.png","75","305","2","1","","1","1","1,0.7,0,1,0.7,0,0.7,0,1","0,1,0.7,0,1,0.7,1,0.7,0","3",""
"","html-keyboard-response","289","177617","0.0-379.0","37TRT2X24RDJ0KL7I3BDRE0QSTABJ8","A3JI3B5GTVA95F","3S1L4CQSFXRWQOWP2XFUSMS4AZDFAL","","null","<img src=""img/food1.png"" style=""width:200px; border:14px solid green;"">","null","","","","","","","","","",""
"","image-keyboard-response","290","178145","0.0-380.0","37TRT2X24RDJ0KL7I3BDRE0QSTABJ8","A3JI3B5GTVA95F","3S1L4CQSFXRWQOWP2XFUSMS4AZDFAL","","526","img/food4.png","75","527","2","0","","3","1","1,0.7,0,1,0.7,0,0.7,0,1","0,1,0.7,0,1,0.7,1,0.7,0","3",""
"","html-keyboard-response","291","178447","0.0-381.0","37TRT2X24RDJ0KL7I3BDRE0QSTABJ8","A3JI3B5GTVA95F","3S1L4CQSFXRWQOWP2XFUSMS4AZDFAL","","null","<img src=""img/food4.png"" style=""width:200px;border:14px solid red;"">","null","","","","","","","","","",""
"","image-keyboard-response","292","179360","0.0-382.0","37TRT2X24RDJ0KL7I3BDRE0QSTABJ8","A3JI3B5GTVA95F","3S1L4CQSFXRWQOWP2XFUSMS4AZDFAL","","912","img/food1.png","76","913","3","0","","1","1","1,0.7,0,1,0.7,0,0.7,0,1","0,1,0.7,0,1,0.7,1,0.7,0","3",""
"","html-keyboard-response","293","179668","0.0-383.0","37TRT2X24RDJ0KL7I3BDRE0QSTABJ8","A3JI3B5GTVA95F","3S1L4CQSFXRWQOWP2XFUSMS4AZDFAL","","null","<img src=""img/food1.png"" style=""width:200px;border:14px solid red;"">","null","","","","","","","","","",""
"","image-keyboard-response","294","180281","0.0-384.0","37TRT2X24RDJ0KL7I3BDRE0QSTABJ8","A3JI3B5GTVA95F","3S1L4CQSFXRWQOWP2XFUSMS4AZDFAL","","612","img/food4.png","75","613","2","0","","3","1","1,0.7,0,1,0.7,0,0.7,0,1","0,1,0.7,0,1,0.7,1,0.7,0","3",""
"","html-keyboard-response","295","180587","0.0-385.0","37TRT2X24RDJ0KL7I3BDRE0QSTABJ8","A3JI3B5GTVA95F","3S1L4CQSFXRWQOWP2XFUSMS4AZDFAL","","null","<img src=""img/food4.png"" style=""width:200px;border:14px solid red;"">","null","","","","","","","","","",""
"","image-keyboard-response","296","181473","0.0-386.0","37TRT2X24RDJ0KL7I3BDRE0QSTABJ8","A3JI3B5GTVA95F","3S1L4CQSFXRWQOWP2XFUSMS4AZDFAL","","884","img/food1.png","75","885","2","1","","1","1","1,0.7,0,1,0.7,0,0.7,0,1","0,1,0.7,0,1,0.7,1,0.7,0","3",""
"","html-keyboard-response","297","181777","0.0-387.0","37TRT2X24RDJ0KL7I3BDRE0QSTABJ8","A3JI3B5GTVA95F","3S1L4CQSFXRWQOWP2XFUSMS4AZDFAL","","null","<img src=""img/food1.png"" style=""width:200px; border:14px solid green;"">","null","","","","","","","","","",""
"","image-keyboard-response","298","182464","0.0-388.0","37TRT2X24RDJ0KL7I3BDRE0QSTABJ8","A3JI3B5GTVA95F","3S1L4CQSFXRWQOWP2XFUSMS4AZDFAL","","686","img/food6.png","75","686","2","1","","2","1","1,0.7,0,1,0.7,0,0.7,0,1","0,1,0.7,0,1,0.7,1,0.7,0","3",""
"","html-keyboard-response","299","182767","0.0-389.0","37TRT2X24RDJ0KL7I3BDRE0QSTABJ8","A3JI3B5GTVA95F","3S1L4CQSFXRWQOWP2XFUSMS4AZDFAL","","null","<img src=""img/food6.png"" style=""width:200px; border:14px solid green;"">","null","","","","","","","","","",""
"","image-keyboard-response","300","183232","0.0-390.0","37TRT2X24RDJ0KL7I3BDRE0QSTABJ8","A3JI3B5GTVA95F","3S1L4CQSFXRWQOWP2XFUSMS4AZDFAL","","464","img/food1.png","75","465","2","1","","1","1","1,0.7,0,1,0.7,0,0.7,0,1","0,1,0.7,0,1,0.7,1,0.7,0","3",""
"","html-keyboard-response","301","183537","0.0-391.0","37TRT2X24RDJ0KL7I3BDRE0QSTABJ8","A3JI3B5GTVA95F","3S1L4CQSFXRWQOWP2XFUSMS4AZDFAL","","null","<img src=""img/food1.png"" style=""width:200px; border:14px solid green;"">","null","","","","","","","","","",""
"","image-keyboard-response","302","183968","0.0-392.0","37TRT2X24RDJ0KL7I3BDRE0QSTABJ8","A3JI3B5GTVA95F","3S1L4CQSFXRWQOWP2XFUSMS4AZDFAL","","431","img/food6.png","75","431","2","1","","2","1","1,0.7,0,1,0.7,0,0.7,0,1","0,1,0.7,0,1,0.7,1,0.7,0","3",""
"","html-keyboard-response","303","184277","0.0-393.0","37TRT2X24RDJ0KL7I3BDRE0QSTABJ8","A3JI3B5GTVA95F","3S1L4CQSFXRWQOWP2XFUSMS4AZDFAL","","null","<img src=""img/food6.png"" style=""width:200px; border:14px solid green;"">","null","","","","","","","","","",""
"","image-keyboard-response","304","184600","0.0-394.0","37TRT2X24RDJ0KL7I3BDRE0QSTABJ8","A3JI3B5GTVA95F","3S1L4CQSFXRWQOWP2XFUSMS4AZDFAL","","322","img/food6.png","75","324","2","1","","2","1","1,0.7,0,1,0.7,0,0.7,0,1","0,1,0.7,0,1,0.7,1,0.7,0","3",""
"","html-keyboard-response","305","184907","0.0-395.0","37TRT2X24RDJ0KL7I3BDRE0QSTABJ8","A3JI3B5GTVA95F","3S1L4CQSFXRWQOWP2XFUSMS4AZDFAL","","null","<img src=""img/food6.png"" style=""width:200px; border:14px solid green;"">","null","","","","","","","","","",""
"","image-keyboard-response","306","185504","0.0-396.0","37TRT2X24RDJ0KL7I3BDRE0QSTABJ8","A3JI3B5GTVA95F","3S1L4CQSFXRWQOWP2XFUSMS4AZDFAL","","596","img/food1.png","75","597","2","1","","1","1","1,0.7,0,1,0.7,0,0.7,0,1","0,1,0.7,0,1,0.7,1,0.7,0","3",""
"","html-keyboard-response","307","185807","0.0-397.0","37TRT2X24RDJ0KL7I3BDRE0QSTABJ8","A3JI3B5GTVA95F","3S1L4CQSFXRWQOWP2XFUSMS4AZDFAL","","null","<img src=""img/food1.png"" style=""width:200px; border:14px solid green;"">","null","","","","","","","","","",""
"","image-keyboard-response","308","186240","0.0-398.0","37TRT2X24RDJ0KL7I3BDRE0QSTABJ8","A3JI3B5GTVA95F","3S1L4CQSFXRWQOWP2XFUSMS4AZDFAL","","432","img/food6.png","75","433","2","1","","2","1","1,0.7,0,1,0.7,0,0.7,0,1","0,1,0.7,0,1,0.7,1,0.7,0","3",""
"","html-keyboard-response","309","186547","0.0-399.0","37TRT2X24RDJ0KL7I3BDRE0QSTABJ8","A3JI3B5GTVA95F","3S1L4CQSFXRWQOWP2XFUSMS4AZDFAL","","null","<img src=""img/food6.png"" style=""width:200px; border:14px solid green;"">","null","","","","","","","","","",""
"","image-keyboard-response","310","186896","0.0-400.0","37TRT2X24RDJ0KL7I3BDRE0QSTABJ8","A3JI3B5GTVA95F","3S1L4CQSFXRWQOWP2XFUSMS4AZDFAL","","349","img/food4.png","75","349","2","1","","3","1","1,0.7,0,1,0.7,0,0.7,0,1","0,1,0.7,0,1,0.7,1,0.7,0","3",""
"","html-keyboard-response","311","187207","0.0-401.0","37TRT2X24RDJ0KL7I3BDRE0QSTABJ8","A3JI3B5GTVA95F","3S1L4CQSFXRWQOWP2XFUSMS4AZDFAL","","null","<img src=""img/food4.png"" style=""width:200px; border:14px solid green;"">","null","","","","","","","","","",""
"","image-keyboard-response","312","187840","0.0-402.0","37TRT2X24RDJ0KL7I3BDRE0QSTABJ8","A3JI3B5GTVA95F","3S1L4CQSFXRWQOWP2XFUSMS4AZDFAL","","632","img/food6.png","75","633","2","1","","2","1","1,0.7,0,1,0.7,0,0.7,0,1","0,1,0.7,0,1,0.7,1,0.7,0","3",""
"","html-keyboard-response","313","188147","0.0-403.0","37TRT2X24RDJ0KL7I3BDRE0QSTABJ8","A3JI3B5GTVA95F","3S1L4CQSFXRWQOWP2XFUSMS4AZDFAL","","null","<img src=""img/food6.png"" style=""width:200px; border:14px solid green;"">","null","","","","","","","","","",""
"","image-keyboard-response","314","188632","0.0-404.0","37TRT2X24RDJ0KL7I3BDRE0QSTABJ8","A3JI3B5GTVA95F","3S1L4CQSFXRWQOWP2XFUSMS4AZDFAL","","485","img/food1.png","75","485","2","1","","1","1","1,0.7,0,1,0.7,0,0.7,0,1","0,1,0.7,0,1,0.7,1,0.7,0","3",""
"","html-keyboard-response","315","188937","0.0-405.0","37TRT2X24RDJ0KL7I3BDRE0QSTABJ8","A3JI3B5GTVA95F","3S1L4CQSFXRWQOWP2XFUSMS4AZDFAL","","null","<img src=""img/food1.png"" style=""width:200px; border:14px solid green;"">","null","","","","","","","","","",""
"","image-keyboard-response","316","189416","0.0-406.0","37TRT2X24RDJ0KL7I3BDRE0QSTABJ8","A3JI3B5GTVA95F","3S1L4CQSFXRWQOWP2XFUSMS4AZDFAL","","479","img/food6.png","75","480","2","1","","2","1","1,0.7,0,1,0.7,0,0.7,0,1","0,1,0.7,0,1,0.7,1,0.7,0","3",""
"","html-keyboard-response","317","189727","0.0-407.0","37TRT2X24RDJ0KL7I3BDRE0QSTABJ8","A3JI3B5GTVA95F","3S1L4CQSFXRWQOWP2XFUSMS4AZDFAL","","null","<img src=""img/food6.png"" style=""width:200px; border:14px solid green;"">","null","","","","","","","","","",""
"","image-keyboard-response","318","190048","0.0-408.0","37TRT2X24RDJ0KL7I3BDRE0QSTABJ8","A3JI3B5GTVA95F","3S1L4CQSFXRWQOWP2XFUSMS4AZDFAL","","321","img/food6.png","75","322","2","1","","2","1","1,0.7,0,1,0.7,0,0.7,0,1","0,1,0.7,0,1,0.7,1,0.7,0","3",""
"","html-keyboard-response","319","190357","0.0-409.0","37TRT2X24RDJ0KL7I3BDRE0QSTABJ8","A3JI3B5GTVA95F","3S1L4CQSFXRWQOWP2XFUSMS4AZDFAL","","null","<img src=""img/food6.png"" style=""width:200px; border:14px solid green;"">","null","","","","","","","","","",""
"","image-keyboard-response","320","190856","0.0-410.0","37TRT2X24RDJ0KL7I3BDRE0QSTABJ8","A3JI3B5GTVA95F","3S1L4CQSFXRWQOWP2XFUSMS4AZDFAL","","498","img/food1.png","75","498","2","1","","1","1","1,0.7,0,1,0.7,0,0.7,0,1","0,1,0.7,0,1,0.7,1,0.7,0","3",""
"","html-keyboard-response","321","191167","0.0-411.0","37TRT2X24RDJ0KL7I3BDRE0QSTABJ8","A3JI3B5GTVA95F","3S1L4CQSFXRWQOWP2XFUSMS4AZDFAL","","null","<img src=""img/food1.png"" style=""width:200px; border:14px solid green;"">","null","","","","","","","","","",""
"","image-keyboard-response","322","191600","0.0-412.0","37TRT2X24RDJ0KL7I3BDRE0QSTABJ8","A3JI3B5GTVA95F","3S1L4CQSFXRWQOWP2XFUSMS4AZDFAL","","433","img/food6.png","75","434","2","1","","2","1","1,0.7,0,1,0.7,0,0.7,0,1","0,1,0.7,0,1,0.7,1,0.7,0","3",""
"","html-keyboard-response","323","191907","0.0-413.0","37TRT2X24RDJ0KL7I3BDRE0QSTABJ8","A3JI3B5GTVA95F","3S1L4CQSFXRWQOWP2XFUSMS4AZDFAL","","null","<img src=""img/food6.png"" style=""width:200px; border:14px solid green;"">","null","","","","","","","","","",""
"","image-keyboard-response","324","192208","0.0-414.0","37TRT2X24RDJ0KL7I3BDRE0QSTABJ8","A3JI3B5GTVA95F","3S1L4CQSFXRWQOWP2XFUSMS4AZDFAL","","300","img/food6.png","75","302","2","1","","2","1","1,0.7,0,1,0.7,0,0.7,0,1","0,1,0.7,0,1,0.7,1,0.7,0","3",""
"","html-keyboard-response","325","192516","0.0-415.0","37TRT2X24RDJ0KL7I3BDRE0QSTABJ8","A3JI3B5GTVA95F","3S1L4CQSFXRWQOWP2XFUSMS4AZDFAL","","null","<img src=""img/food6.png"" style=""width:200px; border:14px solid green;"">","null","","","","","","","","","",""
"","image-keyboard-response","326","192880","0.0-416.0","37TRT2X24RDJ0KL7I3BDRE0QSTABJ8","A3JI3B5GTVA95F","3S1L4CQSFXRWQOWP2XFUSMS4AZDFAL","","362","img/food6.png","75","362","2","1","","2","1","1,0.7,0,1,0.7,0,0.7,0,1","0,1,0.7,0,1,0.7,1,0.7,0","3",""
"","html-keyboard-response","327","193187","0.0-417.0","37TRT2X24RDJ0KL7I3BDRE0QSTABJ8","A3JI3B5GTVA95F","3S1L4CQSFXRWQOWP2XFUSMS4AZDFAL","","null","<img src=""img/food6.png"" style=""width:200px; border:14px solid green;"">","null","","","","","","","","","",""
"","image-keyboard-response","328","194008","0.0-418.0","37TRT2X24RDJ0KL7I3BDRE0QSTABJ8","A3JI3B5GTVA95F","3S1L4CQSFXRWQOWP2XFUSMS4AZDFAL","","820","img/food4.png","76","820","3","0","","3","1","1,0.7,0,1,0.7,0,0.7,0,1","0,1,0.7,0,1,0.7,1,0.7,0","3",""
"","html-keyboard-response","329","194316","0.0-419.0","37TRT2X24RDJ0KL7I3BDRE0QSTABJ8","A3JI3B5GTVA95F","3S1L4CQSFXRWQOWP2XFUSMS4AZDFAL","","null","<img src=""img/food4.png"" style=""width:200px;border:14px solid red;"">","null","","","","","","","","","",""
"","image-keyboard-response","330","194728","0.0-420.0","37TRT2X24RDJ0KL7I3BDRE0QSTABJ8","A3JI3B5GTVA95F","3S1L4CQSFXRWQOWP2XFUSMS4AZDFAL","","410","img/food1.png","75","411","2","1","","1","1","1,0.7,0,1,0.7,0,0.7,0,1","0,1,0.7,0,1,0.7,1,0.7,0","3",""
"","html-keyboard-response","331","195037","0.0-421.0","37TRT2X24RDJ0KL7I3BDRE0QSTABJ8","A3JI3B5GTVA95F","3S1L4CQSFXRWQOWP2XFUSMS4AZDFAL","","null","<img src=""img/food1.png"" style=""width:200px; border:14px solid green;"">","null","","","","","","","","","",""
"","image-keyboard-response","332","195376","0.0-422.0","37TRT2X24RDJ0KL7I3BDRE0QSTABJ8","A3JI3B5GTVA95F","3S1L4CQSFXRWQOWP2XFUSMS4AZDFAL","","339","img/food6.png","75","339","2","1","","2","1","1,0.7,0,1,0.7,0,0.7,0,1","0,1,0.7,0,1,0.7,1,0.7,0","3",""
"","html-keyboard-response","333","195686","0.0-423.0","37TRT2X24RDJ0KL7I3BDRE0QSTABJ8","A3JI3B5GTVA95F","3S1L4CQSFXRWQOWP2XFUSMS4AZDFAL","","null","<img src=""img/food6.png"" style=""width:200px; border:14px solid green;"">","null","","","","","","","","","",""
"","image-keyboard-response","334","196008","0.0-424.0","37TRT2X24RDJ0KL7I3BDRE0QSTABJ8","A3JI3B5GTVA95F","3S1L4CQSFXRWQOWP2XFUSMS4AZDFAL","","320","img/food6.png","75","321","2","1","","2","1","1,0.7,0,1,0.7,0,0.7,0,1","0,1,0.7,0,1,0.7,1,0.7,0","3",""
"","html-keyboard-response","335","196316","0.0-425.0","37TRT2X24RDJ0KL7I3BDRE0QSTABJ8","A3JI3B5GTVA95F","3S1L4CQSFXRWQOWP2XFUSMS4AZDFAL","","null","<img src=""img/food6.png"" style=""width:200px; border:14px solid green;"">","null","","","","","","","","","",""
"","image-keyboard-response","336","196705","0.0-426.0","37TRT2X24RDJ0KL7I3BDRE0QSTABJ8","A3JI3B5GTVA95F","3S1L4CQSFXRWQOWP2XFUSMS4AZDFAL","","386","img/food1.png","75","387","2","1","","1","1","1,0.7,0,1,0.7,0,0.7,0,1","0,1,0.7,0,1,0.7,1,0.7,0","3",""
"","html-keyboard-response","337","197007","0.0-427.0","37TRT2X24RDJ0KL7I3BDRE0QSTABJ8","A3JI3B5GTVA95F","3S1L4CQSFXRWQOWP2XFUSMS4AZDFAL","","null","<img src=""img/food1.png"" style=""width:200px; border:14px solid green;"">","null","","","","","","","","","",""
"","image-keyboard-response","338","197536","0.0-428.0","37TRT2X24RDJ0KL7I3BDRE0QSTABJ8","A3JI3B5GTVA95F","3S1L4CQSFXRWQOWP2XFUSMS4AZDFAL","","529","img/food4.png","75","529","2","0","","3","1","1,0.7,0,1,0.7,0,0.7,0,1","0,1,0.7,0,1,0.7,1,0.7,0","3",""
"","html-keyboard-response","339","197847","0.0-429.0","37TRT2X24RDJ0KL7I3BDRE0QSTABJ8","A3JI3B5GTVA95F","3S1L4CQSFXRWQOWP2XFUSMS4AZDFAL","","null","<img src=""img/food4.png"" style=""width:200px;border:14px solid red;"">","null","","","","","","","","","",""
"","image-keyboard-response","340","198240","0.0-430.0","37TRT2X24RDJ0KL7I3BDRE0QSTABJ8","A3JI3B5GTVA95F","3S1L4CQSFXRWQOWP2XFUSMS4AZDFAL","","393","img/food4.png","75","393","2","1","","3","1","1,0.7,0,1,0.7,0,0.7,0,1","0,1,0.7,0,1,0.7,1,0.7,0","3",""
"","html-keyboard-response","341","198547","0.0-431.0","37TRT2X24RDJ0KL7I3BDRE0QSTABJ8","A3JI3B5GTVA95F","3S1L4CQSFXRWQOWP2XFUSMS4AZDFAL","","null","<img src=""img/food4.png"" style=""width:200px; border:14px solid green;"">","null","","","","","","","","","",""
"","image-keyboard-response","342","198889","0.0-432.0","37TRT2X24RDJ0KL7I3BDRE0QSTABJ8","A3JI3B5GTVA95F","3S1L4CQSFXRWQOWP2XFUSMS4AZDFAL","","340","img/food4.png","75","342","2","1","","3","1","1,0.7,0,1,0.7,0,0.7,0,1","0,1,0.7,0,1,0.7,1,0.7,0","3",""
"","html-keyboard-response","343","199196","0.0-433.0","37TRT2X24RDJ0KL7I3BDRE0QSTABJ8","A3JI3B5GTVA95F","3S1L4CQSFXRWQOWP2XFUSMS4AZDFAL","","null","<img src=""img/food4.png"" style=""width:200px; border:14px solid green;"">","null","","","","","","","","","",""
"","image-keyboard-response","344","199544","0.0-434.0","37TRT2X24RDJ0KL7I3BDRE0QSTABJ8","A3JI3B5GTVA95F","3S1L4CQSFXRWQOWP2XFUSMS4AZDFAL","","347","img/food4.png","75","347","2","1","","3","1","1,0.7,0,1,0.7,0,0.7,0,1","0,1,0.7,0,1,0.7,1,0.7,0","3",""
"","html-keyboard-response","345","199847","0.0-435.0","37TRT2X24RDJ0KL7I3BDRE0QSTABJ8","A3JI3B5GTVA95F","3S1L4CQSFXRWQOWP2XFUSMS4AZDFAL","","null","<img src=""img/food4.png"" style=""width:200px; border:14px solid green;"">","null","","","","","","","","","",""
"","image-keyboard-response","346","200192","0.0-436.0","37TRT2X24RDJ0KL7I3BDRE0QSTABJ8","A3JI3B5GTVA95F","3S1L4CQSFXRWQOWP2XFUSMS4AZDFAL","","344","img/food4.png","75","345","2","1","","3","1","1,0.7,0,1,0.7,0,0.7,0,1","0,1,0.7,0,1,0.7,1,0.7,0","3",""
"","html-keyboard-response","347","200497","0.0-437.0","37TRT2X24RDJ0KL7I3BDRE0QSTABJ8","A3JI3B5GTVA95F","3S1L4CQSFXRWQOWP2XFUSMS4AZDFAL","","null","<img src=""img/food4.png"" style=""width:200px; border:14px solid green;"">","null","","","","","","","","","",""
"","image-keyboard-response","348","201296","0.0-438.0","37TRT2X24RDJ0KL7I3BDRE0QSTABJ8","A3JI3B5GTVA95F","3S1L4CQSFXRWQOWP2XFUSMS4AZDFAL","","798","img/food1.png","76","799","3","1","","1","1","1,0.7,0,1,0.7,0,0.7,0,1","0,1,0.7,0,1,0.7,1,0.7,0","3",""
"","html-keyboard-response","349","201606","0.0-439.0","37TRT2X24RDJ0KL7I3BDRE0QSTABJ8","A3JI3B5GTVA95F","3S1L4CQSFXRWQOWP2XFUSMS4AZDFAL","","null","<img src=""img/food1.png"" style=""width:200px; border:14px solid green;"">","null","","","","","","","","","",""
"","image-keyboard-response","350","202104","0.0-440.0","37TRT2X24RDJ0KL7I3BDRE0QSTABJ8","A3JI3B5GTVA95F","3S1L4CQSFXRWQOWP2XFUSMS4AZDFAL","","496","img/food4.png","75","496","2","0","","3","1","1,0.7,0,1,0.7,0,0.7,0,1","0,1,0.7,0,1,0.7,1,0.7,0","3",""
"","html-keyboard-response","351","202406","0.0-441.0","37TRT2X24RDJ0KL7I3BDRE0QSTABJ8","A3JI3B5GTVA95F","3S1L4CQSFXRWQOWP2XFUSMS4AZDFAL","","null","<img src=""img/food4.png"" style=""width:200px;border:14px solid red;"">","null","","","","","","","","","",""
"","image-keyboard-response","352","202712","0.0-442.0","37TRT2X24RDJ0KL7I3BDRE0QSTABJ8","A3JI3B5GTVA95F","3S1L4CQSFXRWQOWP2XFUSMS4AZDFAL","","304","img/food1.png","75","304","2","1","","1","1","1,0.7,0,1,0.7,0,0.7,0,1","0,1,0.7,0,1,0.7,1,0.7,0","3",""
"","html-keyboard-response","353","203016","0.0-443.0","37TRT2X24RDJ0KL7I3BDRE0QSTABJ8","A3JI3B5GTVA95F","3S1L4CQSFXRWQOWP2XFUSMS4AZDFAL","","null","<img src=""img/food1.png"" style=""width:200px; border:14px solid green;"">","null","","","","","","","","","",""
"","image-keyboard-response","354","203680","0.0-444.0","37TRT2X24RDJ0KL7I3BDRE0QSTABJ8","A3JI3B5GTVA95F","3S1L4CQSFXRWQOWP2XFUSMS4AZDFAL","","663","img/food4.png","75","663","2","1","","3","1","1,0.7,0,1,0.7,0,0.7,0,1","0,1,0.7,0,1,0.7,1,0.7,0","3",""
"","html-keyboard-response","355","203987","0.0-445.0","37TRT2X24RDJ0KL7I3BDRE0QSTABJ8","A3JI3B5GTVA95F","3S1L4CQSFXRWQOWP2XFUSMS4AZDFAL","","null","<img src=""img/food4.png"" style=""width:200px; border:14px solid green;"">","null","","","","","","","","","",""
"","image-keyboard-response","356","204448","0.0-446.0","37TRT2X24RDJ0KL7I3BDRE0QSTABJ8","A3JI3B5GTVA95F","3S1L4CQSFXRWQOWP2XFUSMS4AZDFAL","","461","img/food6.png","75","462","2","1","","2","1","1,0.7,0,1,0.7,0,0.7,0,1","0,1,0.7,0,1,0.7,1,0.7,0","3",""
"","html-keyboard-response","357","204756","0.0-447.0","37TRT2X24RDJ0KL7I3BDRE0QSTABJ8","A3JI3B5GTVA95F","3S1L4CQSFXRWQOWP2XFUSMS4AZDFAL","","null","<img src=""img/food6.png"" style=""width:200px; border:14px solid green;"">","null","","","","","","","","","",""
"","image-keyboard-response","358","205168","0.0-448.0","37TRT2X24RDJ0KL7I3BDRE0QSTABJ8","A3JI3B5GTVA95F","3S1L4CQSFXRWQOWP2XFUSMS4AZDFAL","","411","img/food1.png","76","412","3","1","","1","1","1,0.7,0,1,0.7,0,0.7,0,1","0,1,0.7,0,1,0.7,1,0.7,0","3",""
"","html-keyboard-response","359","205476","0.0-449.0","37TRT2X24RDJ0KL7I3BDRE0QSTABJ8","A3JI3B5GTVA95F","3S1L4CQSFXRWQOWP2XFUSMS4AZDFAL","","null","<img src=""img/food1.png"" style=""width:200px; border:14px solid green;"">","null","","","","","","","","","",""
"","image-keyboard-response","360","205911","0.0-450.0","37TRT2X24RDJ0KL7I3BDRE0QSTABJ8","A3JI3B5GTVA95F","3S1L4CQSFXRWQOWP2XFUSMS4AZDFAL","","434","img/food1.png","76","435","3","1","","1","1","1,0.7,0,1,0.7,0,0.7,0,1","0,1,0.7,0,1,0.7,1,0.7,0","3",""
"","html-keyboard-response","361","206217","0.0-451.0","37TRT2X24RDJ0KL7I3BDRE0QSTABJ8","A3JI3B5GTVA95F","3S1L4CQSFXRWQOWP2XFUSMS4AZDFAL","","null","<img src=""img/food1.png"" style=""width:200px; border:14px solid green;"">","null","","","","","","","","","",""
"","image-keyboard-response","362","206648","0.0-452.0","37TRT2X24RDJ0KL7I3BDRE0QSTABJ8","A3JI3B5GTVA95F","3S1L4CQSFXRWQOWP2XFUSMS4AZDFAL","","430","img/food4.png","75","431","2","0","","3","1","1,0.7,0,1,0.7,0,0.7,0,1","0,1,0.7,0,1,0.7,1,0.7,0","3",""
"","html-keyboard-response","363","206956","0.0-453.0","37TRT2X24RDJ0KL7I3BDRE0QSTABJ8","A3JI3B5GTVA95F","3S1L4CQSFXRWQOWP2XFUSMS4AZDFAL","","null","<img src=""img/food4.png"" style=""width:200px;border:14px solid red;"">","null","","","","","","","","","",""
"","html-keyboard-response","364","211257","0.0-454.0","37TRT2X24RDJ0KL7I3BDRE0QSTABJ8","A3JI3B5GTVA95F","3S1L4CQSFXRWQOWP2XFUSMS4AZDFAL","","","","","","","","","","","","","",""
"","instructions","365","213293","0.0-455.0","37TRT2X24RDJ0KL7I3BDRE0QSTABJ8","A3JI3B5GTVA95F","3S1L4CQSFXRWQOWP2XFUSMS4AZDFAL","[{""page_index"":0,""viewing_time"":2034}]","2034","","","","","","","","","","","",""
"","survey-text","366","223317","0.0-456.0","37TRT2X24RDJ0KL7I3BDRE0QSTABJ8","A3JI3B5GTVA95F","3S1L4CQSFXRWQOWP2XFUSMS4AZDFAL","","10021","","","","","","","","","","","","{""Q0"":""A3JI3B5GTVA95F""}"
