"success","trial_type","trial_index","time_elapsed","internal_node_id","assignmentID","mturkID","hitID","view_history","rt","stimulus","key_press","reactionTime","a","r","warning","s","cond","reward_cond","reward_cond_actual","reward_matrix_idx","responses"
"true","fullscreen","0","5208","0.0-0.0","3FQ5JJ512MAGCDGM3EGYJO0XPK7NKI","A3JZ2WCG7JH1Q8","3PEG1BH7AEDCPKTV9M6N3A4F0EHKBR","","","","","","","","","","","","","",""
"","instructions","1","46153","0.0-1.0","3FQ5JJ512MAGCDGM3EGYJO0XPK7NKI","A3JZ2WCG7JH1Q8","3PEG1BH7AEDCPKTV9M6N3A4F0EHKBR","[{""page_index"":0,""viewing_time"":27100.60000014305},{""page_index"":1,""viewing_time"":1677},{""page_index"":2,""viewing_time"":1469.3999998569489},{""page_index"":3,""viewing_time"":2732.2000000476837},{""page_index"":4,""viewing_time"":1998.7999999523163},{""page_index"":5,""viewing_time"":3961.2000000476837},{""page_index"":6,""viewing_time"":1999.9000000953674}]","40940.10000014305","","","","","","","","","","","",""
"","instructions","2","54853","0.0-2.0","3FQ5JJ512MAGCDGM3EGYJO0XPK7NKI","A3JZ2WCG7JH1Q8","3PEG1BH7AEDCPKTV9M6N3A4F0EHKBR","[{""page_index"":0,""viewing_time"":6518.299999952316},{""page_index"":1,""viewing_time"":2179.5}]","8698.599999904633","","","","","","","","","","","",""
"","image-keyboard-response","3","54971","0.0-3.0","3FQ5JJ512MAGCDGM3EGYJO0XPK7NKI","A3JZ2WCG7JH1Q8","3PEG1BH7AEDCPKTV9M6N3A4F0EHKBR","","113.90000009536743","img/food4.png","74","116.19999980926514","1","0","false","1","2","1,0.5,0,1,0.5,0,0.5,0,1","0,1,0.5,0,1,0.5,1,0.5,0","3",""
"","html-keyboard-response","4","55280","0.0-4.0","3FQ5JJ512MAGCDGM3EGYJO0XPK7NKI","A3JZ2WCG7JH1Q8","3PEG1BH7AEDCPKTV9M6N3A4F0EHKBR","","null","<img src=""img/food4.png"" style=""width:200px;border:14px solid red;"">","null","","","","","","","","","",""
"","image-keyboard-response","5","55452","0.0-6.0","3FQ5JJ512MAGCDGM3EGYJO0XPK7NKI","A3JZ2WCG7JH1Q8","3PEG1BH7AEDCPKTV9M6N3A4F0EHKBR","","169","img/food1.png","74","171.10000014305115","1","1","false","3","2","1,0.5,0,1,0.5,0,0.5,0,1","0,1,0.5,0,1,0.5,1,0.5,0","3",""
"","html-keyboard-response","6","55756","0.0-7.0","3FQ5JJ512MAGCDGM3EGYJO0XPK7NKI","A3JZ2WCG7JH1Q8","3PEG1BH7AEDCPKTV9M6N3A4F0EHKBR","","null","<img src=""img/food1.png"" style=""width:200px; border:14px solid green;"">","null","","","","","","","","","",""
"","image-keyboard-response","7","55993","0.0-9.0","3FQ5JJ512MAGCDGM3EGYJO0XPK7NKI","A3JZ2WCG7JH1Q8","3PEG1BH7AEDCPKTV9M6N3A4F0EHKBR","","234.60000014305115","img/food3.png","74","236.60000014305115","1","0","false","2","2","1,0.5,0,1,0.5,0,0.5,0,1","0,1,0.5,0,1,0.5,1,0.5,0","3",""
"","html-keyboard-response","8","56295","0.0-10.0","3FQ5JJ512MAGCDGM3EGYJO0XPK7NKI","A3JZ2WCG7JH1Q8","3PEG1BH7AEDCPKTV9M6N3A4F0EHKBR","","null","<img src=""img/food3.png"" style=""width:200px;border:14px solid red;"">","null","","","","","","","","","",""
"","image-keyboard-response","9","56339","0.0-12.0","3FQ5JJ512MAGCDGM3EGYJO0XPK7NKI","A3JZ2WCG7JH1Q8","3PEG1BH7AEDCPKTV9M6N3A4F0EHKBR","","41.59999990463257","img/food3.png","74","43.10000014305115","1","0","false","2","2","1,0.5,0,1,0.5,0,0.5,0,1","0,1,0.5,0,1,0.5,1,0.5,0","3",""
"","html-keyboard-response","10","56642","0.0-13.0","3FQ5JJ512MAGCDGM3EGYJO0XPK7NKI","A3JZ2WCG7JH1Q8","3PEG1BH7AEDCPKTV9M6N3A4F0EHKBR","","null","<img src=""img/food3.png"" style=""width:200px;border:14px solid red;"">","null","","","","","","","","","",""
"","image-keyboard-response","11","56810","0.0-15.0","3FQ5JJ512MAGCDGM3EGYJO0XPK7NKI","A3JZ2WCG7JH1Q8","3PEG1BH7AEDCPKTV9M6N3A4F0EHKBR","","166.59999990463257","img/food3.png","74","168","1","0","false","2","2","1,0.5,0,1,0.5,0,0.5,0,1","0,1,0.5,0,1,0.5,1,0.5,0","3",""
"","html-keyboard-response","12","57111","0.0-16.0","3FQ5JJ512MAGCDGM3EGYJO0XPK7NKI","A3JZ2WCG7JH1Q8","3PEG1BH7AEDCPKTV9M6N3A4F0EHKBR","","null","<img src=""img/food3.png"" style=""width:200px;border:14px solid red;"">","null","","","","","","","","","",""
"","image-keyboard-response","13","57150","0.0-18.0","3FQ5JJ512MAGCDGM3EGYJO0XPK7NKI","A3JZ2WCG7JH1Q8","3PEG1BH7AEDCPKTV9M6N3A4F0EHKBR","","36.700000047683716","img/food3.png","74","37.799999952316284","1","0","false","2","2","1,0.5,0,1,0.5,0,0.5,0,1","0,1,0.5,0,1,0.5,1,0.5,0","3",""
"","html-keyboard-response","14","57452","0.0-19.0","3FQ5JJ512MAGCDGM3EGYJO0XPK7NKI","A3JZ2WCG7JH1Q8","3PEG1BH7AEDCPKTV9M6N3A4F0EHKBR","","null","<img src=""img/food3.png"" style=""width:200px;border:14px solid red;"">","null","","","","","","","","","",""
"","image-keyboard-response","15","57530","0.0-21.0","3FQ5JJ512MAGCDGM3EGYJO0XPK7NKI","A3JZ2WCG7JH1Q8","3PEG1BH7AEDCPKTV9M6N3A4F0EHKBR","","75.90000009536743","img/food4.png","74","77","1","0","false","1","2","1,0.5,0,1,0.5,0,0.5,0,1","0,1,0.5,0,1,0.5,1,0.5,0","3",""
"","html-keyboard-response","16","57832","0.0-22.0","3FQ5JJ512MAGCDGM3EGYJO0XPK7NKI","A3JZ2WCG7JH1Q8","3PEG1BH7AEDCPKTV9M6N3A4F0EHKBR","","null","<img src=""img/food4.png"" style=""width:200px;border:14px solid red;"">","null","","","","","","","","","",""
"","image-keyboard-response","17","57888","0.0-24.0","3FQ5JJ512MAGCDGM3EGYJO0XPK7NKI","A3JZ2WCG7JH1Q8","3PEG1BH7AEDCPKTV9M6N3A4F0EHKBR","","54.700000047683716","img/food1.png","74","55.90000009536743","1","1","false","3","2","1,0.5,0,1,0.5,0,0.5,0,1","0,1,0.5,0,1,0.5,1,0.5,0","3",""
"","html-keyboard-response","18","58189","0.0-25.0","3FQ5JJ512MAGCDGM3EGYJO0XPK7NKI","A3JZ2WCG7JH1Q8","3PEG1BH7AEDCPKTV9M6N3A4F0EHKBR","","null","<img src=""img/food1.png"" style=""width:200px; border:14px solid green;"">","null","","","","","","","","","",""
"","image-keyboard-response","19","58270","0.0-27.0","3FQ5JJ512MAGCDGM3EGYJO0XPK7NKI","A3JZ2WCG7JH1Q8","3PEG1BH7AEDCPKTV9M6N3A4F0EHKBR","","79","img/food1.png","76","80.09999990463257","3","0","false","3","2","1,0.5,0,1,0.5,0,0.5,0,1","0,1,0.5,0,1,0.5,1,0.5,0","3",""
"","html-keyboard-response","20","58571","0.0-28.0","3FQ5JJ512MAGCDGM3EGYJO0XPK7NKI","A3JZ2WCG7JH1Q8","3PEG1BH7AEDCPKTV9M6N3A4F0EHKBR","","null","<img src=""img/food1.png"" style=""width:200px;border:14px solid red;"">","null","","","","","","","","","",""
"","image-keyboard-response","21","58690","0.0-30.0","3FQ5JJ512MAGCDGM3EGYJO0XPK7NKI","A3JZ2WCG7JH1Q8","3PEG1BH7AEDCPKTV9M6N3A4F0EHKBR","","117.30000019073486","img/food3.png","75","118.5","2","1","false","2","2","1,0.5,0,1,0.5,0,0.5,0,1","0,1,0.5,0,1,0.5,1,0.5,0","3",""
"","html-keyboard-response","22","58992","0.0-31.0","3FQ5JJ512MAGCDGM3EGYJO0XPK7NKI","A3JZ2WCG7JH1Q8","3PEG1BH7AEDCPKTV9M6N3A4F0EHKBR","","null","<img src=""img/food3.png"" style=""width:200px; border:14px solid green;"">","null","","","","","","","","","",""
"","image-keyboard-response","23","59109","0.0-33.0","3FQ5JJ512MAGCDGM3EGYJO0XPK7NKI","A3JZ2WCG7JH1Q8","3PEG1BH7AEDCPKTV9M6N3A4F0EHKBR","","115.10000014305115","img/food3.png","74","116.10000014305115","1","0","false","2","2","1,0.5,0,1,0.5,0,0.5,0,1","0,1,0.5,0,1,0.5,1,0.5,0","3",""
"","html-keyboard-response","24","59411","0.0-34.0","3FQ5JJ512MAGCDGM3EGYJO0XPK7NKI","A3JZ2WCG7JH1Q8","3PEG1BH7AEDCPKTV9M6N3A4F0EHKBR","","null","<img src=""img/food3.png"" style=""width:200px;border:14px solid red;"">","null","","","","","","","","","",""
"","image-keyboard-response","25","59442","0.0-36.0","3FQ5JJ512MAGCDGM3EGYJO0XPK7NKI","A3JZ2WCG7JH1Q8","3PEG1BH7AEDCPKTV9M6N3A4F0EHKBR","","30","img/food4.png","74","31.09999990463257","1","0","false","1","2","1,0.5,0,1,0.5,0,0.5,0,1","0,1,0.5,0,1,0.5,1,0.5,0","3",""
"","html-keyboard-response","26","59744","0.0-37.0","3FQ5JJ512MAGCDGM3EGYJO0XPK7NKI","A3JZ2WCG7JH1Q8","3PEG1BH7AEDCPKTV9M6N3A4F0EHKBR","","null","<img src=""img/food4.png"" style=""width:200px;border:14px solid red;"">","null","","","","","","","","","",""
"","image-keyboard-response","27","59770","0.0-39.0","3FQ5JJ512MAGCDGM3EGYJO0XPK7NKI","A3JZ2WCG7JH1Q8","3PEG1BH7AEDCPKTV9M6N3A4F0EHKBR","","24.09999990463257","img/food4.png","75","25.5","2","1","false","1","2","1,0.5,0,1,0.5,0,0.5,0,1","0,1,0.5,0,1,0.5,1,0.5,0","3",""
"","html-keyboard-response","28","60072","0.0-40.0","3FQ5JJ512MAGCDGM3EGYJO0XPK7NKI","A3JZ2WCG7JH1Q8","3PEG1BH7AEDCPKTV9M6N3A4F0EHKBR","","null","<img src=""img/food4.png"" style=""width:200px; border:14px solid green;"">","null","","","","","","","","","",""
"","image-keyboard-response","29","60089","0.0-42.0","3FQ5JJ512MAGCDGM3EGYJO0XPK7NKI","A3JZ2WCG7JH1Q8","3PEG1BH7AEDCPKTV9M6N3A4F0EHKBR","","16.40000009536743","img/food1.png","76","17.200000047683716","3","0","false","3","2","1,0.5,0,1,0.5,0,0.5,0,1","0,1,0.5,0,1,0.5,1,0.5,0","3",""
"","html-keyboard-response","30","60391","0.0-43.0","3FQ5JJ512MAGCDGM3EGYJO0XPK7NKI","A3JZ2WCG7JH1Q8","3PEG1BH7AEDCPKTV9M6N3A4F0EHKBR","","null","<img src=""img/food1.png"" style=""width:200px;border:14px solid red;"">","null","","","","","","","","","",""
"","image-keyboard-response","31","60418","0.0-45.0","3FQ5JJ512MAGCDGM3EGYJO0XPK7NKI","A3JZ2WCG7JH1Q8","3PEG1BH7AEDCPKTV9M6N3A4F0EHKBR","","25.700000047683716","img/food3.png","74","26.5","1","0","false","2","2","1,0.5,0,1,0.5,0,0.5,0,1","0,1,0.5,0,1,0.5,1,0.5,0","3",""
"","html-keyboard-response","32","60720","0.0-46.0","3FQ5JJ512MAGCDGM3EGYJO0XPK7NKI","A3JZ2WCG7JH1Q8","3PEG1BH7AEDCPKTV9M6N3A4F0EHKBR","","null","<img src=""img/food3.png"" style=""width:200px;border:14px solid red;"">","null","","","","","","","","","",""
"","image-keyboard-response","33","60769","0.0-48.0","3FQ5JJ512MAGCDGM3EGYJO0XPK7NKI","A3JZ2WCG7JH1Q8","3PEG1BH7AEDCPKTV9M6N3A4F0EHKBR","","48.10000014305115","img/food1.png","74","49.10000014305115","1","1","false","3","2","1,0.5,0,1,0.5,0,0.5,0,1","0,1,0.5,0,1,0.5,1,0.5,0","3",""
"","html-keyboard-response","34","61072","0.0-49.0","3FQ5JJ512MAGCDGM3EGYJO0XPK7NKI","A3JZ2WCG7JH1Q8","3PEG1BH7AEDCPKTV9M6N3A4F0EHKBR","","null","<img src=""img/food1.png"" style=""width:200px; border:14px solid green;"">","null","","","","","","","","","",""
"","image-keyboard-response","35","61110","0.0-51.0","3FQ5JJ512MAGCDGM3EGYJO0XPK7NKI","A3JZ2WCG7JH1Q8","3PEG1BH7AEDCPKTV9M6N3A4F0EHKBR","","35.5","img/food3.png","74","36.700000047683716","1","0","false","2","2","1,0.5,0,1,0.5,0,0.5,0,1","0,1,0.5,0,1,0.5,1,0.5,0","3",""
"","html-keyboard-response","36","61412","0.0-52.0","3FQ5JJ512MAGCDGM3EGYJO0XPK7NKI","A3JZ2WCG7JH1Q8","3PEG1BH7AEDCPKTV9M6N3A4F0EHKBR","","null","<img src=""img/food3.png"" style=""width:200px;border:14px solid red;"">","null","","","","","","","","","",""
"","image-keyboard-response","37","61489","0.0-54.0","3FQ5JJ512MAGCDGM3EGYJO0XPK7NKI","A3JZ2WCG7JH1Q8","3PEG1BH7AEDCPKTV9M6N3A4F0EHKBR","","75.5","img/food4.png","74","76.5","1","0","false","1","2","1,0.5,0,1,0.5,0,0.5,0,1","0,1,0.5,0,1,0.5,1,0.5,0","3",""
"","html-keyboard-response","38","61791","0.0-55.0","3FQ5JJ512MAGCDGM3EGYJO0XPK7NKI","A3JZ2WCG7JH1Q8","3PEG1BH7AEDCPKTV9M6N3A4F0EHKBR","","null","<img src=""img/food4.png"" style=""width:200px;border:14px solid red;"">","null","","","","","","","","","",""
"","image-keyboard-response","39","61991","0.0-57.0","3FQ5JJ512MAGCDGM3EGYJO0XPK7NKI","A3JZ2WCG7JH1Q8","3PEG1BH7AEDCPKTV9M6N3A4F0EHKBR","","198.10000014305115","img/food1.png","75","199.5","2","0","false","3","2","1,0.5,0,1,0.5,0,0.5,0,1","0,1,0.5,0,1,0.5,1,0.5,0","3",""
"","html-keyboard-response","40","62293","0.0-58.0","3FQ5JJ512MAGCDGM3EGYJO0XPK7NKI","A3JZ2WCG7JH1Q8","3PEG1BH7AEDCPKTV9M6N3A4F0EHKBR","","null","<img src=""img/food1.png"" style=""width:200px;border:14px solid red;"">","null","","","","","","","","","",""
"","image-keyboard-response","41","62550","0.0-60.0","3FQ5JJ512MAGCDGM3EGYJO0XPK7NKI","A3JZ2WCG7JH1Q8","3PEG1BH7AEDCPKTV9M6N3A4F0EHKBR","","255.09999990463257","img/food4.png","75","256.7000000476837","2","1","false","1","2","1,0.5,0,1,0.5,0,0.5,0,1","0,1,0.5,0,1,0.5,1,0.5,0","3",""
"","html-keyboard-response","42","62853","0.0-61.0","3FQ5JJ512MAGCDGM3EGYJO0XPK7NKI","A3JZ2WCG7JH1Q8","3PEG1BH7AEDCPKTV9M6N3A4F0EHKBR","","null","<img src=""img/food4.png"" style=""width:200px; border:14px solid green;"">","null","","","","","","","","","",""
"","image-keyboard-response","43","62862","0.0-63.0","3FQ5JJ512MAGCDGM3EGYJO0XPK7NKI","A3JZ2WCG7JH1Q8","3PEG1BH7AEDCPKTV9M6N3A4F0EHKBR","","7.099999904632568","img/food3.png","74","8.900000095367432","1","0","false","2","2","1,0.5,0,1,0.5,0,0.5,0,1","0,1,0.5,0,1,0.5,1,0.5,0","3",""
"","html-keyboard-response","44","63166","0.0-64.0","3FQ5JJ512MAGCDGM3EGYJO0XPK7NKI","A3JZ2WCG7JH1Q8","3PEG1BH7AEDCPKTV9M6N3A4F0EHKBR","","null","<img src=""img/food3.png"" style=""width:200px;border:14px solid red;"">","null","","","","","","","","","",""
"","image-keyboard-response","45","63179","0.0-66.0","3FQ5JJ512MAGCDGM3EGYJO0XPK7NKI","A3JZ2WCG7JH1Q8","3PEG1BH7AEDCPKTV9M6N3A4F0EHKBR","","10.299999952316284","img/food1.png","74","11.799999952316284","1","1","false","3","2","1,0.5,0,1,0.5,0,0.5,0,1","0,1,0.5,0,1,0.5,1,0.5,0","3",""
"","html-keyboard-response","46","63482","0.0-67.0","3FQ5JJ512MAGCDGM3EGYJO0XPK7NKI","A3JZ2WCG7JH1Q8","3PEG1BH7AEDCPKTV9M6N3A4F0EHKBR","","null","<img src=""img/food1.png"" style=""width:200px; border:14px solid green;"">","null","","","","","","","","","",""
"","image-keyboard-response","47","63556","0.0-69.0","3FQ5JJ512MAGCDGM3EGYJO0XPK7NKI","A3JZ2WCG7JH1Q8","3PEG1BH7AEDCPKTV9M6N3A4F0EHKBR","","72.70000004768372","img/food3.png","74","74.09999990463257","1","0","false","2","2","1,0.5,0,1,0.5,0,0.5,0,1","0,1,0.5,0,1,0.5,1,0.5,0","3",""
"","html-keyboard-response","48","63859","0.0-70.0","3FQ5JJ512MAGCDGM3EGYJO0XPK7NKI","A3JZ2WCG7JH1Q8","3PEG1BH7AEDCPKTV9M6N3A4F0EHKBR","","null","<img src=""img/food3.png"" style=""width:200px;border:14px solid red;"">","null","","","","","","","","","",""
"","image-keyboard-response","49","63970","0.0-72.0","3FQ5JJ512MAGCDGM3EGYJO0XPK7NKI","A3JZ2WCG7JH1Q8","3PEG1BH7AEDCPKTV9M6N3A4F0EHKBR","","108.40000009536743","img/food1.png","74","110.10000014305115","1","1","false","3","2","1,0.5,0,1,0.5,0,0.5,0,1","0,1,0.5,0,1,0.5,1,0.5,0","3",""
"","html-keyboard-response","50","64273","0.0-73.0","3FQ5JJ512MAGCDGM3EGYJO0XPK7NKI","A3JZ2WCG7JH1Q8","3PEG1BH7AEDCPKTV9M6N3A4F0EHKBR","","null","<img src=""img/food1.png"" style=""width:200px; border:14px solid green;"">","null","","","","","","","","","",""
"","image-keyboard-response","51","64311","0.0-75.0","3FQ5JJ512MAGCDGM3EGYJO0XPK7NKI","A3JZ2WCG7JH1Q8","3PEG1BH7AEDCPKTV9M6N3A4F0EHKBR","","35.299999952316284","img/food4.png","74","37.299999952316284","1","0","false","1","2","1,0.5,0,1,0.5,0,0.5,0,1","0,1,0.5,0,1,0.5,1,0.5,0","3",""
"","html-keyboard-response","52","64614","0.0-76.0","3FQ5JJ512MAGCDGM3EGYJO0XPK7NKI","A3JZ2WCG7JH1Q8","3PEG1BH7AEDCPKTV9M6N3A4F0EHKBR","","null","<img src=""img/food4.png"" style=""width:200px;border:14px solid red;"">","null","","","","","","","","","",""
"","image-keyboard-response","53","64723","0.0-78.0","3FQ5JJ512MAGCDGM3EGYJO0XPK7NKI","A3JZ2WCG7JH1Q8","3PEG1BH7AEDCPKTV9M6N3A4F0EHKBR","","106.30000019073486","img/food3.png","76","107.79999995231628","3","1","false","2","2","1,0.5,0,1,0.5,0,0.5,0,1","0,1,0.5,0,1,0.5,1,0.5,0","3",""
"","html-keyboard-response","54","65026","0.0-79.0","3FQ5JJ512MAGCDGM3EGYJO0XPK7NKI","A3JZ2WCG7JH1Q8","3PEG1BH7AEDCPKTV9M6N3A4F0EHKBR","","null","<img src=""img/food3.png"" style=""width:200px; border:14px solid green;"">","null","","","","","","","","","",""
"","image-keyboard-response","55","65056","0.0-81.0","3FQ5JJ512MAGCDGM3EGYJO0XPK7NKI","A3JZ2WCG7JH1Q8","3PEG1BH7AEDCPKTV9M6N3A4F0EHKBR","","27.799999952316284","img/food1.png","75","29.200000047683716","2","1","false","3","2","1,0.5,0,1,0.5,0,0.5,0,1","0,1,0.5,0,1,0.5,1,0.5,0","3",""
"","html-keyboard-response","56","65358","0.0-82.0","3FQ5JJ512MAGCDGM3EGYJO0XPK7NKI","A3JZ2WCG7JH1Q8","3PEG1BH7AEDCPKTV9M6N3A4F0EHKBR","","null","<img src=""img/food1.png"" style=""width:200px; border:14px solid green;"">","null","","","","","","","","","",""
"","image-keyboard-response","57","65493","0.0-84.0","3FQ5JJ512MAGCDGM3EGYJO0XPK7NKI","A3JZ2WCG7JH1Q8","3PEG1BH7AEDCPKTV9M6N3A4F0EHKBR","","132.5","img/food3.png","74","134.29999995231628","1","0","false","2","2","1,0.5,0,1,0.5,0,0.5,0,1","0,1,0.5,0,1,0.5,1,0.5,0","3",""
"","html-keyboard-response","58","65796","0.0-85.0","3FQ5JJ512MAGCDGM3EGYJO0XPK7NKI","A3JZ2WCG7JH1Q8","3PEG1BH7AEDCPKTV9M6N3A4F0EHKBR","","null","<img src=""img/food3.png"" style=""width:200px;border:14px solid red;"">","null","","","","","","","","","",""
"","image-keyboard-response","59","65813","0.0-87.0","3FQ5JJ512MAGCDGM3EGYJO0XPK7NKI","A3JZ2WCG7JH1Q8","3PEG1BH7AEDCPKTV9M6N3A4F0EHKBR","","15.200000047683716","img/food4.png","76","16.59999990463257","3","0","false","1","2","1,0.5,0,1,0.5,0,0.5,0,1","0,1,0.5,0,1,0.5,1,0.5,0","3",""
"","html-keyboard-response","60","66116","0.0-88.0","3FQ5JJ512MAGCDGM3EGYJO0XPK7NKI","A3JZ2WCG7JH1Q8","3PEG1BH7AEDCPKTV9M6N3A4F0EHKBR","","null","<img src=""img/food4.png"" style=""width:200px;border:14px solid red;"">","null","","","","","","","","","",""
"","image-keyboard-response","61","66146","0.0-90.0","3FQ5JJ512MAGCDGM3EGYJO0XPK7NKI","A3JZ2WCG7JH1Q8","3PEG1BH7AEDCPKTV9M6N3A4F0EHKBR","","28.299999952316284","img/food3.png","76","29.40000009536743","3","1","false","2","2","1,0.5,0,1,0.5,0,0.5,0,1","0,1,0.5,0,1,0.5,1,0.5,0","3",""
"","html-keyboard-response","62","66449","0.0-91.0","3FQ5JJ512MAGCDGM3EGYJO0XPK7NKI","A3JZ2WCG7JH1Q8","3PEG1BH7AEDCPKTV9M6N3A4F0EHKBR","","null","<img src=""img/food3.png"" style=""width:200px; border:14px solid green;"">","null","","","","","","","","","",""
"","image-keyboard-response","63","66570","0.0-93.0","3FQ5JJ512MAGCDGM3EGYJO0XPK7NKI","A3JZ2WCG7JH1Q8","3PEG1BH7AEDCPKTV9M6N3A4F0EHKBR","","118.89999985694885","img/food1.png","74","120.5","1","1","false","3","2","1,0.5,0,1,0.5,0,0.5,0,1","0,1,0.5,0,1,0.5,1,0.5,0","3",""
"","html-keyboard-response","64","66872","0.0-94.0","3FQ5JJ512MAGCDGM3EGYJO0XPK7NKI","A3JZ2WCG7JH1Q8","3PEG1BH7AEDCPKTV9M6N3A4F0EHKBR","","null","<img src=""img/food1.png"" style=""width:200px; border:14px solid green;"">","null","","","","","","","","","",""
"","image-keyboard-response","65","66890","0.0-96.0","3FQ5JJ512MAGCDGM3EGYJO0XPK7NKI","A3JZ2WCG7JH1Q8","3PEG1BH7AEDCPKTV9M6N3A4F0EHKBR","","15","img/food4.png","75","16.299999952316284","2","1","false","1","2","1,0.5,0,1,0.5,0,0.5,0,1","0,1,0.5,0,1,0.5,1,0.5,0","3",""
"","html-keyboard-response","66","67194","0.0-97.0","3FQ5JJ512MAGCDGM3EGYJO0XPK7NKI","A3JZ2WCG7JH1Q8","3PEG1BH7AEDCPKTV9M6N3A4F0EHKBR","","null","<img src=""img/food4.png"" style=""width:200px; border:14px solid green;"">","null","","","","","","","","","",""
"","image-keyboard-response","67","67290","0.0-99.0","3FQ5JJ512MAGCDGM3EGYJO0XPK7NKI","A3JZ2WCG7JH1Q8","3PEG1BH7AEDCPKTV9M6N3A4F0EHKBR","","92.90000009536743","img/food4.png","76","94.40000009536743","3","1","false","1","2","1,0.5,0,1,0.5,0,0.5,0,1","0,1,0.5,0,1,0.5,1,0.5,0","3",""
"","html-keyboard-response","68","67592","0.0-100.0","3FQ5JJ512MAGCDGM3EGYJO0XPK7NKI","A3JZ2WCG7JH1Q8","3PEG1BH7AEDCPKTV9M6N3A4F0EHKBR","","null","<img src=""img/food4.png"" style=""width:200px; border:14px solid green;"">","null","","","","","","","","","",""
"","image-keyboard-response","69","67650","0.0-102.0","3FQ5JJ512MAGCDGM3EGYJO0XPK7NKI","A3JZ2WCG7JH1Q8","3PEG1BH7AEDCPKTV9M6N3A4F0EHKBR","","55.40000009536743","img/food1.png","76","57.09999990463257","3","0","false","3","2","1,0.5,0,1,0.5,0,0.5,0,1","0,1,0.5,0,1,0.5,1,0.5,0","3",""
"","html-keyboard-response","70","67953","0.0-103.0","3FQ5JJ512MAGCDGM3EGYJO0XPK7NKI","A3JZ2WCG7JH1Q8","3PEG1BH7AEDCPKTV9M6N3A4F0EHKBR","","null","<img src=""img/food1.png"" style=""width:200px;border:14px solid red;"">","null","","","","","","","","","",""
"","image-keyboard-response","71","68239","0.0-105.0","3FQ5JJ512MAGCDGM3EGYJO0XPK7NKI","A3JZ2WCG7JH1Q8","3PEG1BH7AEDCPKTV9M6N3A4F0EHKBR","","284.7000000476837","img/food4.png","74","285.7999999523163","1","0","false","1","2","1,0.5,0,1,0.5,0,0.5,0,1","0,1,0.5,0,1,0.5,1,0.5,0","3",""
"","html-keyboard-response","72","68543","0.0-106.0","3FQ5JJ512MAGCDGM3EGYJO0XPK7NKI","A3JZ2WCG7JH1Q8","3PEG1BH7AEDCPKTV9M6N3A4F0EHKBR","","null","<img src=""img/food4.png"" style=""width:200px;border:14px solid red;"">","null","","","","","","","","","",""
"","image-keyboard-response","73","68631","0.0-108.0","3FQ5JJ512MAGCDGM3EGYJO0XPK7NKI","A3JZ2WCG7JH1Q8","3PEG1BH7AEDCPKTV9M6N3A4F0EHKBR","","85.39999985694885","img/food1.png","74","86.69999980926514","1","1","false","3","2","1,0.5,0,1,0.5,0,0.5,0,1","0,1,0.5,0,1,0.5,1,0.5,0","3",""
"","html-keyboard-response","74","68933","0.0-109.0","3FQ5JJ512MAGCDGM3EGYJO0XPK7NKI","A3JZ2WCG7JH1Q8","3PEG1BH7AEDCPKTV9M6N3A4F0EHKBR","","null","<img src=""img/food1.png"" style=""width:200px; border:14px solid green;"">","null","","","","","","","","","",""
"","image-keyboard-response","75","68990","0.0-111.0","3FQ5JJ512MAGCDGM3EGYJO0XPK7NKI","A3JZ2WCG7JH1Q8","3PEG1BH7AEDCPKTV9M6N3A4F0EHKBR","","54.60000014305115","img/food3.png","76","56.299999952316284","3","0","false","2","2","1,0.5,0,1,0.5,0,0.5,0,1","0,1,0.5,0,1,0.5,1,0.5,0","3",""
"","html-keyboard-response","76","69294","0.0-112.0","3FQ5JJ512MAGCDGM3EGYJO0XPK7NKI","A3JZ2WCG7JH1Q8","3PEG1BH7AEDCPKTV9M6N3A4F0EHKBR","","null","<img src=""img/food3.png"" style=""width:200px;border:14px solid red;"">","null","","","","","","","","","",""
"","image-keyboard-response","77","69351","0.0-114.0","3FQ5JJ512MAGCDGM3EGYJO0XPK7NKI","A3JZ2WCG7JH1Q8","3PEG1BH7AEDCPKTV9M6N3A4F0EHKBR","","55.39999985694885","img/food3.png","76","57.5","3","1","false","2","2","1,0.5,0,1,0.5,0,0.5,0,1","0,1,0.5,0,1,0.5,1,0.5,0","3",""
"","html-keyboard-response","78","69655","0.0-115.0","3FQ5JJ512MAGCDGM3EGYJO0XPK7NKI","A3JZ2WCG7JH1Q8","3PEG1BH7AEDCPKTV9M6N3A4F0EHKBR","","null","<img src=""img/food3.png"" style=""width:200px; border:14px solid green;"">","null","","","","","","","","","",""
"","image-keyboard-response","79","69691","0.0-117.0","3FQ5JJ512MAGCDGM3EGYJO0XPK7NKI","A3JZ2WCG7JH1Q8","3PEG1BH7AEDCPKTV9M6N3A4F0EHKBR","","33.89999985694885","img/food1.png","75","35.40000009536743","2","0","false","3","2","1,0.5,0,1,0.5,0,0.5,0,1","0,1,0.5,0,1,0.5,1,0.5,0","3",""
"","html-keyboard-response","80","69994","0.0-118.0","3FQ5JJ512MAGCDGM3EGYJO0XPK7NKI","A3JZ2WCG7JH1Q8","3PEG1BH7AEDCPKTV9M6N3A4F0EHKBR","","null","<img src=""img/food1.png"" style=""width:200px;border:14px solid red;"">","null","","","","","","","","","",""
"","image-keyboard-response","81","70071","0.0-120.0","3FQ5JJ512MAGCDGM3EGYJO0XPK7NKI","A3JZ2WCG7JH1Q8","3PEG1BH7AEDCPKTV9M6N3A4F0EHKBR","","74.20000004768372","img/food4.png","76","76.09999990463257","3","1","false","1","2","1,0.5,0,1,0.5,0,0.5,0,1","0,1,0.5,0,1,0.5,1,0.5,0","3",""
"","html-keyboard-response","82","70375","0.0-121.0","3FQ5JJ512MAGCDGM3EGYJO0XPK7NKI","A3JZ2WCG7JH1Q8","3PEG1BH7AEDCPKTV9M6N3A4F0EHKBR","","null","<img src=""img/food4.png"" style=""width:200px; border:14px solid green;"">","null","","","","","","","","","",""
"","image-keyboard-response","83","70418","0.0-123.0","3FQ5JJ512MAGCDGM3EGYJO0XPK7NKI","A3JZ2WCG7JH1Q8","3PEG1BH7AEDCPKTV9M6N3A4F0EHKBR","","40.799999952316284","img/food1.png","76","42.700000047683716","3","0","false","3","2","1,0.5,0,1,0.5,0,0.5,0,1","0,1,0.5,0,1,0.5,1,0.5,0","3",""
"","html-keyboard-response","84","70723","0.0-124.0","3FQ5JJ512MAGCDGM3EGYJO0XPK7NKI","A3JZ2WCG7JH1Q8","3PEG1BH7AEDCPKTV9M6N3A4F0EHKBR","","null","<img src=""img/food1.png"" style=""width:200px;border:14px solid red;"">","null","","","","","","","","","",""
"","image-keyboard-response","85","70804","0.0-126.0","3FQ5JJ512MAGCDGM3EGYJO0XPK7NKI","A3JZ2WCG7JH1Q8","3PEG1BH7AEDCPKTV9M6N3A4F0EHKBR","","79","img/food1.png","75","80.79999995231628","2","1","false","3","2","1,0.5,0,1,0.5,0,0.5,0,1","0,1,0.5,0,1,0.5,1,0.5,0","3",""
"","html-keyboard-response","86","71107","0.0-127.0","3FQ5JJ512MAGCDGM3EGYJO0XPK7NKI","A3JZ2WCG7JH1Q8","3PEG1BH7AEDCPKTV9M6N3A4F0EHKBR","","null","<img src=""img/food1.png"" style=""width:200px; border:14px solid green;"">","null","","","","","","","","","",""
"","image-keyboard-response","87","71150","0.0-129.0","3FQ5JJ512MAGCDGM3EGYJO0XPK7NKI","A3JZ2WCG7JH1Q8","3PEG1BH7AEDCPKTV9M6N3A4F0EHKBR","","41.799999952316284","img/food1.png","76","43","3","0","false","3","2","1,0.5,0,1,0.5,0,0.5,0,1","0,1,0.5,0,1,0.5,1,0.5,0","3",""
"","html-keyboard-response","88","71453","0.0-130.0","3FQ5JJ512MAGCDGM3EGYJO0XPK7NKI","A3JZ2WCG7JH1Q8","3PEG1BH7AEDCPKTV9M6N3A4F0EHKBR","","null","<img src=""img/food1.png"" style=""width:200px;border:14px solid red;"">","null","","","","","","","","","",""
"","image-keyboard-response","89","71515","0.0-132.0","3FQ5JJ512MAGCDGM3EGYJO0XPK7NKI","A3JZ2WCG7JH1Q8","3PEG1BH7AEDCPKTV9M6N3A4F0EHKBR","","59.90000009536743","img/food4.png","75","62","2","1","false","1","2","1,0.5,0,1,0.5,0,0.5,0,1","0,1,0.5,0,1,0.5,1,0.5,0","3",""
"","html-keyboard-response","90","71819","0.0-133.0","3FQ5JJ512MAGCDGM3EGYJO0XPK7NKI","A3JZ2WCG7JH1Q8","3PEG1BH7AEDCPKTV9M6N3A4F0EHKBR","","null","<img src=""img/food4.png"" style=""width:200px; border:14px solid green;"">","null","","","","","","","","","",""
"","image-keyboard-response","91","71836","0.0-135.0","3FQ5JJ512MAGCDGM3EGYJO0XPK7NKI","A3JZ2WCG7JH1Q8","3PEG1BH7AEDCPKTV9M6N3A4F0EHKBR","","14.5","img/food4.png","74","15.799999952316284","1","0","false","1","2","1,0.5,0,1,0.5,0,0.5,0,1","0,1,0.5,0,1,0.5,1,0.5,0","3",""
"","html-keyboard-response","92","72138","0.0-136.0","3FQ5JJ512MAGCDGM3EGYJO0XPK7NKI","A3JZ2WCG7JH1Q8","3PEG1BH7AEDCPKTV9M6N3A4F0EHKBR","","null","<img src=""img/food4.png"" style=""width:200px;border:14px solid red;"">","null","","","","","","","","","",""
"","image-keyboard-response","93","72291","0.0-138.0","3FQ5JJ512MAGCDGM3EGYJO0XPK7NKI","A3JZ2WCG7JH1Q8","3PEG1BH7AEDCPKTV9M6N3A4F0EHKBR","","151.5","img/food1.png","76","152.90000009536743","3","0","false","3","2","1,0.5,0,1,0.5,0,0.5,0,1","0,1,0.5,0,1,0.5,1,0.5,0","3",""
"","html-keyboard-response","94","72596","0.0-139.0","3FQ5JJ512MAGCDGM3EGYJO0XPK7NKI","A3JZ2WCG7JH1Q8","3PEG1BH7AEDCPKTV9M6N3A4F0EHKBR","","null","<img src=""img/food1.png"" style=""width:200px;border:14px solid red;"">","null","","","","","","","","","",""
"","image-keyboard-response","95","72650","0.0-141.0","3FQ5JJ512MAGCDGM3EGYJO0XPK7NKI","A3JZ2WCG7JH1Q8","3PEG1BH7AEDCPKTV9M6N3A4F0EHKBR","","51.5","img/food1.png","75","53.19999980926514","2","0","false","3","2","1,0.5,0,1,0.5,0,0.5,0,1","0,1,0.5,0,1,0.5,1,0.5,0","3",""
"","html-keyboard-response","96","72952","0.0-142.0","3FQ5JJ512MAGCDGM3EGYJO0XPK7NKI","A3JZ2WCG7JH1Q8","3PEG1BH7AEDCPKTV9M6N3A4F0EHKBR","","null","<img src=""img/food1.png"" style=""width:200px;border:14px solid red;"">","null","","","","","","","","","",""
"","image-keyboard-response","97","73030","0.0-144.0","3FQ5JJ512MAGCDGM3EGYJO0XPK7NKI","A3JZ2WCG7JH1Q8","3PEG1BH7AEDCPKTV9M6N3A4F0EHKBR","","74.59999990463257","img/food3.png","75","76.30000019073486","2","1","false","2","2","1,0.5,0,1,0.5,0,0.5,0,1","0,1,0.5,0,1,0.5,1,0.5,0","3",""
"","html-keyboard-response","98","73332","0.0-145.0","3FQ5JJ512MAGCDGM3EGYJO0XPK7NKI","A3JZ2WCG7JH1Q8","3PEG1BH7AEDCPKTV9M6N3A4F0EHKBR","","null","<img src=""img/food3.png"" style=""width:200px; border:14px solid green;"">","null","","","","","","","","","",""
"","image-keyboard-response","99","73409","0.0-147.0","3FQ5JJ512MAGCDGM3EGYJO0XPK7NKI","A3JZ2WCG7JH1Q8","3PEG1BH7AEDCPKTV9M6N3A4F0EHKBR","","75.59999990463257","img/food4.png","75","76.69999980926514","2","1","false","1","2","1,0.5,0,1,0.5,0,0.5,0,1","0,1,0.5,0,1,0.5,1,0.5,0","3",""
"","html-keyboard-response","100","73711","0.0-148.0","3FQ5JJ512MAGCDGM3EGYJO0XPK7NKI","A3JZ2WCG7JH1Q8","3PEG1BH7AEDCPKTV9M6N3A4F0EHKBR","","null","<img src=""img/food4.png"" style=""width:200px; border:14px solid green;"">","null","","","","","","","","","",""
"","image-keyboard-response","101","73811","0.0-150.0","3FQ5JJ512MAGCDGM3EGYJO0XPK7NKI","A3JZ2WCG7JH1Q8","3PEG1BH7AEDCPKTV9M6N3A4F0EHKBR","","98.80000019073486","img/food4.png","75","99.90000009536743","2","1","false","1","2","1,0.5,0,1,0.5,0,0.5,0,1","0,1,0.5,0,1,0.5,1,0.5,0","3",""
"","html-keyboard-response","102","74116","0.0-151.0","3FQ5JJ512MAGCDGM3EGYJO0XPK7NKI","A3JZ2WCG7JH1Q8","3PEG1BH7AEDCPKTV9M6N3A4F0EHKBR","","null","<img src=""img/food4.png"" style=""width:200px; border:14px solid green;"">","null","","","","","","","","","",""
"","image-keyboard-response","103","74139","0.0-153.0","3FQ5JJ512MAGCDGM3EGYJO0XPK7NKI","A3JZ2WCG7JH1Q8","3PEG1BH7AEDCPKTV9M6N3A4F0EHKBR","","21.200000047683716","img/food3.png","75","22.799999952316284","2","1","false","2","2","1,0.5,0,1,0.5,0,0.5,0,1","0,1,0.5,0,1,0.5,1,0.5,0","3",""
"","html-keyboard-response","104","74443","0.0-154.0","3FQ5JJ512MAGCDGM3EGYJO0XPK7NKI","A3JZ2WCG7JH1Q8","3PEG1BH7AEDCPKTV9M6N3A4F0EHKBR","","null","<img src=""img/food3.png"" style=""width:200px; border:14px solid green;"">","null","","","","","","","","","",""
"","image-keyboard-response","105","74511","0.0-156.0","3FQ5JJ512MAGCDGM3EGYJO0XPK7NKI","A3JZ2WCG7JH1Q8","3PEG1BH7AEDCPKTV9M6N3A4F0EHKBR","","64.69999980926514","img/food1.png","75","66.69999980926514","2","1","false","3","2","1,0.5,0,1,0.5,0,0.5,0,1","0,1,0.5,0,1,0.5,1,0.5,0","3",""
"","html-keyboard-response","106","74814","0.0-157.0","3FQ5JJ512MAGCDGM3EGYJO0XPK7NKI","A3JZ2WCG7JH1Q8","3PEG1BH7AEDCPKTV9M6N3A4F0EHKBR","","null","<img src=""img/food1.png"" style=""width:200px; border:14px solid green;"">","null","","","","","","","","","",""
"","image-keyboard-response","107","74870","0.0-159.0","3FQ5JJ512MAGCDGM3EGYJO0XPK7NKI","A3JZ2WCG7JH1Q8","3PEG1BH7AEDCPKTV9M6N3A4F0EHKBR","","53.09999990463257","img/food4.png","76","54.799999952316284","3","1","false","1","2","1,0.5,0,1,0.5,0,0.5,0,1","0,1,0.5,0,1,0.5,1,0.5,0","3",""
"","html-keyboard-response","108","75172","0.0-160.0","3FQ5JJ512MAGCDGM3EGYJO0XPK7NKI","A3JZ2WCG7JH1Q8","3PEG1BH7AEDCPKTV9M6N3A4F0EHKBR","","null","<img src=""img/food4.png"" style=""width:200px; border:14px solid green;"">","null","","","","","","","","","",""
"","image-keyboard-response","109","75258","0.0-162.0","3FQ5JJ512MAGCDGM3EGYJO0XPK7NKI","A3JZ2WCG7JH1Q8","3PEG1BH7AEDCPKTV9M6N3A4F0EHKBR","","83.60000014305115","img/food3.png","75","85.20000004768372","2","1","false","2","2","1,0.5,0,1,0.5,0,0.5,0,1","0,1,0.5,0,1,0.5,1,0.5,0","3",""
"","html-keyboard-response","110","75560","0.0-163.0","3FQ5JJ512MAGCDGM3EGYJO0XPK7NKI","A3JZ2WCG7JH1Q8","3PEG1BH7AEDCPKTV9M6N3A4F0EHKBR","","null","<img src=""img/food3.png"" style=""width:200px; border:14px solid green;"">","null","","","","","","","","","",""
"","image-keyboard-response","111","75630","0.0-165.0","3FQ5JJ512MAGCDGM3EGYJO0XPK7NKI","A3JZ2WCG7JH1Q8","3PEG1BH7AEDCPKTV9M6N3A4F0EHKBR","","67.90000009536743","img/food4.png","75","69.39999985694885","2","1","false","1","2","1,0.5,0,1,0.5,0,0.5,0,1","0,1,0.5,0,1,0.5,1,0.5,0","3",""
"","html-keyboard-response","112","75932","0.0-166.0","3FQ5JJ512MAGCDGM3EGYJO0XPK7NKI","A3JZ2WCG7JH1Q8","3PEG1BH7AEDCPKTV9M6N3A4F0EHKBR","","null","<img src=""img/food4.png"" style=""width:200px; border:14px solid green;"">","null","","","","","","","","","",""
"","image-keyboard-response","113","76002","0.0-168.0","3FQ5JJ512MAGCDGM3EGYJO0XPK7NKI","A3JZ2WCG7JH1Q8","3PEG1BH7AEDCPKTV9M6N3A4F0EHKBR","","67.40000009536743","img/food1.png","75","69","2","1","false","3","2","1,0.5,0,1,0.5,0,0.5,0,1","0,1,0.5,0,1,0.5,1,0.5,0","3",""
"","html-keyboard-response","114","76304","0.0-169.0","3FQ5JJ512MAGCDGM3EGYJO0XPK7NKI","A3JZ2WCG7JH1Q8","3PEG1BH7AEDCPKTV9M6N3A4F0EHKBR","","null","<img src=""img/food1.png"" style=""width:200px; border:14px solid green;"">","null","","","","","","","","","",""
"","image-keyboard-response","115","76350","0.0-171.0","3FQ5JJ512MAGCDGM3EGYJO0XPK7NKI","A3JZ2WCG7JH1Q8","3PEG1BH7AEDCPKTV9M6N3A4F0EHKBR","","43.59999990463257","img/food1.png","75","45.5","2","0","false","3","2","1,0.5,0,1,0.5,0,0.5,0,1","0,1,0.5,0,1,0.5,1,0.5,0","3",""
"","html-keyboard-response","116","76653","0.0-172.0","3FQ5JJ512MAGCDGM3EGYJO0XPK7NKI","A3JZ2WCG7JH1Q8","3PEG1BH7AEDCPKTV9M6N3A4F0EHKBR","","null","<img src=""img/food1.png"" style=""width:200px;border:14px solid red;"">","null","","","","","","","","","",""
"","image-keyboard-response","117","76732","0.0-174.0","3FQ5JJ512MAGCDGM3EGYJO0XPK7NKI","A3JZ2WCG7JH1Q8","3PEG1BH7AEDCPKTV9M6N3A4F0EHKBR","","75.79999995231628","img/food3.png","76","79.69999980926514","3","1","false","2","2","1,0.5,0,1,0.5,0,0.5,0,1","0,1,0.5,0,1,0.5,1,0.5,0","3",""
"","html-keyboard-response","118","77037","0.0-175.0","3FQ5JJ512MAGCDGM3EGYJO0XPK7NKI","A3JZ2WCG7JH1Q8","3PEG1BH7AEDCPKTV9M6N3A4F0EHKBR","","null","<img src=""img/food3.png"" style=""width:200px; border:14px solid green;"">","null","","","","","","","","","",""
"","image-keyboard-response","119","77090","0.0-177.0","3FQ5JJ512MAGCDGM3EGYJO0XPK7NKI","A3JZ2WCG7JH1Q8","3PEG1BH7AEDCPKTV9M6N3A4F0EHKBR","","50.59999990463257","img/food4.png","75","52.5","2","1","false","1","2","1,0.5,0,1,0.5,0,0.5,0,1","0,1,0.5,0,1,0.5,1,0.5,0","3",""
"","html-keyboard-response","120","77392","0.0-178.0","3FQ5JJ512MAGCDGM3EGYJO0XPK7NKI","A3JZ2WCG7JH1Q8","3PEG1BH7AEDCPKTV9M6N3A4F0EHKBR","","null","<img src=""img/food4.png"" style=""width:200px; border:14px solid green;"">","null","","","","","","","","","",""
"","image-keyboard-response","121","77443","0.0-180.0","3FQ5JJ512MAGCDGM3EGYJO0XPK7NKI","A3JZ2WCG7JH1Q8","3PEG1BH7AEDCPKTV9M6N3A4F0EHKBR","","50.299999952316284","img/food3.png","75","51.30000019073486","2","1","false","2","2","1,0.5,0,1,0.5,0,0.5,0,1","0,1,0.5,0,1,0.5,1,0.5,0","3",""
"","html-keyboard-response","122","77746","0.0-181.0","3FQ5JJ512MAGCDGM3EGYJO0XPK7NKI","A3JZ2WCG7JH1Q8","3PEG1BH7AEDCPKTV9M6N3A4F0EHKBR","","null","<img src=""img/food3.png"" style=""width:200px; border:14px solid green;"">","null","","","","","","","","","",""
"","image-keyboard-response","123","77830","0.0-183.0","3FQ5JJ512MAGCDGM3EGYJO0XPK7NKI","A3JZ2WCG7JH1Q8","3PEG1BH7AEDCPKTV9M6N3A4F0EHKBR","","82.5","img/food1.png","75","83.79999995231628","2","0","false","3","2","1,0.5,0,1,0.5,0,0.5,0,1","0,1,0.5,0,1,0.5,1,0.5,0","3",""
"","html-keyboard-response","124","78136","0.0-184.0","3FQ5JJ512MAGCDGM3EGYJO0XPK7NKI","A3JZ2WCG7JH1Q8","3PEG1BH7AEDCPKTV9M6N3A4F0EHKBR","","null","<img src=""img/food1.png"" style=""width:200px;border:14px solid red;"">","null","","","","","","","","","",""
"","image-keyboard-response","125","78219","0.0-186.0","3FQ5JJ512MAGCDGM3EGYJO0XPK7NKI","A3JZ2WCG7JH1Q8","3PEG1BH7AEDCPKTV9M6N3A4F0EHKBR","","80.89999985694885","img/food4.png","75","82.70000004768372","2","1","false","1","2","1,0.5,0,1,0.5,0,0.5,0,1","0,1,0.5,0,1,0.5,1,0.5,0","3",""
"","html-keyboard-response","126","78523","0.0-187.0","3FQ5JJ512MAGCDGM3EGYJO0XPK7NKI","A3JZ2WCG7JH1Q8","3PEG1BH7AEDCPKTV9M6N3A4F0EHKBR","","null","<img src=""img/food4.png"" style=""width:200px; border:14px solid green;"">","null","","","","","","","","","",""
"","image-keyboard-response","127","78592","0.0-189.0","3FQ5JJ512MAGCDGM3EGYJO0XPK7NKI","A3JZ2WCG7JH1Q8","3PEG1BH7AEDCPKTV9M6N3A4F0EHKBR","","66.5","img/food1.png","75","67.89999985694885","2","0","false","3","2","1,0.5,0,1,0.5,0,0.5,0,1","0,1,0.5,0,1,0.5,1,0.5,0","3",""
"","html-keyboard-response","128","78895","0.0-190.0","3FQ5JJ512MAGCDGM3EGYJO0XPK7NKI","A3JZ2WCG7JH1Q8","3PEG1BH7AEDCPKTV9M6N3A4F0EHKBR","","null","<img src=""img/food1.png"" style=""width:200px;border:14px solid red;"">","null","","","","","","","","","",""
"","image-keyboard-response","129","78969","0.0-192.0","3FQ5JJ512MAGCDGM3EGYJO0XPK7NKI","A3JZ2WCG7JH1Q8","3PEG1BH7AEDCPKTV9M6N3A4F0EHKBR","","71.5","img/food3.png","75","73.20000004768372","2","1","false","2","2","1,0.5,0,1,0.5,0,0.5,0,1","0,1,0.5,0,1,0.5,1,0.5,0","3",""
"","html-keyboard-response","130","79271","0.0-193.0","3FQ5JJ512MAGCDGM3EGYJO0XPK7NKI","A3JZ2WCG7JH1Q8","3PEG1BH7AEDCPKTV9M6N3A4F0EHKBR","","null","<img src=""img/food3.png"" style=""width:200px; border:14px solid green;"">","null","","","","","","","","","",""
"","image-keyboard-response","131","79372","0.0-195.0","3FQ5JJ512MAGCDGM3EGYJO0XPK7NKI","A3JZ2WCG7JH1Q8","3PEG1BH7AEDCPKTV9M6N3A4F0EHKBR","","99.29999995231628","img/food1.png","74","100.69999980926514","1","1","false","3","2","1,0.5,0,1,0.5,0,0.5,0,1","0,1,0.5,0,1,0.5,1,0.5,0","3",""
"","html-keyboard-response","132","79675","0.0-196.0","3FQ5JJ512MAGCDGM3EGYJO0XPK7NKI","A3JZ2WCG7JH1Q8","3PEG1BH7AEDCPKTV9M6N3A4F0EHKBR","","null","<img src=""img/food1.png"" style=""width:200px; border:14px solid green;"">","null","","","","","","","","","",""
"","image-keyboard-response","133","79730","0.0-198.0","3FQ5JJ512MAGCDGM3EGYJO0XPK7NKI","A3JZ2WCG7JH1Q8","3PEG1BH7AEDCPKTV9M6N3A4F0EHKBR","","52.60000014305115","img/food4.png","74","54","1","0","false","1","2","1,0.5,0,1,0.5,0,0.5,0,1","0,1,0.5,0,1,0.5,1,0.5,0","3",""
"","html-keyboard-response","134","80032","0.0-199.0","3FQ5JJ512MAGCDGM3EGYJO0XPK7NKI","A3JZ2WCG7JH1Q8","3PEG1BH7AEDCPKTV9M6N3A4F0EHKBR","","null","<img src=""img/food4.png"" style=""width:200px;border:14px solid red;"">","null","","","","","","","","","",""
"","image-keyboard-response","135","80250","0.0-201.0","3FQ5JJ512MAGCDGM3EGYJO0XPK7NKI","A3JZ2WCG7JH1Q8","3PEG1BH7AEDCPKTV9M6N3A4F0EHKBR","","215.30000019073486","img/food3.png","74","216.70000004768372","1","0","false","2","2","1,0.5,0,1,0.5,0,0.5,0,1","0,1,0.5,0,1,0.5,1,0.5,0","3",""
"","html-keyboard-response","136","80554","0.0-202.0","3FQ5JJ512MAGCDGM3EGYJO0XPK7NKI","A3JZ2WCG7JH1Q8","3PEG1BH7AEDCPKTV9M6N3A4F0EHKBR","","null","<img src=""img/food3.png"" style=""width:200px;border:14px solid red;"">","null","","","","","","","","","",""
"","image-keyboard-response","137","80610","0.0-204.0","3FQ5JJ512MAGCDGM3EGYJO0XPK7NKI","A3JZ2WCG7JH1Q8","3PEG1BH7AEDCPKTV9M6N3A4F0EHKBR","","55","img/food3.png","74","56.40000009536743","1","0","false","2","2","1,0.5,0,1,0.5,0,0.5,0,1","0,1,0.5,0,1,0.5,1,0.5,0","3",""
"","html-keyboard-response","138","80913","0.0-205.0","3FQ5JJ512MAGCDGM3EGYJO0XPK7NKI","A3JZ2WCG7JH1Q8","3PEG1BH7AEDCPKTV9M6N3A4F0EHKBR","","null","<img src=""img/food3.png"" style=""width:200px;border:14px solid red;"">","null","","","","","","","","","",""
"","image-keyboard-response","139","81072","0.0-207.0","3FQ5JJ512MAGCDGM3EGYJO0XPK7NKI","A3JZ2WCG7JH1Q8","3PEG1BH7AEDCPKTV9M6N3A4F0EHKBR","","157.10000014305115","img/food4.png","75","159","2","1","false","1","2","1,0.5,0,1,0.5,0,0.5,0,1","0,1,0.5,0,1,0.5,1,0.5,0","3",""
"","html-keyboard-response","140","81375","0.0-208.0","3FQ5JJ512MAGCDGM3EGYJO0XPK7NKI","A3JZ2WCG7JH1Q8","3PEG1BH7AEDCPKTV9M6N3A4F0EHKBR","","null","<img src=""img/food4.png"" style=""width:200px; border:14px solid green;"">","null","","","","","","","","","",""
"","image-keyboard-response","141","81591","0.0-210.0","3FQ5JJ512MAGCDGM3EGYJO0XPK7NKI","A3JZ2WCG7JH1Q8","3PEG1BH7AEDCPKTV9M6N3A4F0EHKBR","","213.59999990463257","img/food1.png","76","215.19999980926514","3","0","false","3","2","1,0.5,0,1,0.5,0,0.5,0,1","0,1,0.5,0,1,0.5,1,0.5,0","3",""
"","html-keyboard-response","142","81895","0.0-211.0","3FQ5JJ512MAGCDGM3EGYJO0XPK7NKI","A3JZ2WCG7JH1Q8","3PEG1BH7AEDCPKTV9M6N3A4F0EHKBR","","null","<img src=""img/food1.png"" style=""width:200px;border:14px solid red;"">","null","","","","","","","","","",""
"","image-keyboard-response","143","81912","0.0-213.0","3FQ5JJ512MAGCDGM3EGYJO0XPK7NKI","A3JZ2WCG7JH1Q8","3PEG1BH7AEDCPKTV9M6N3A4F0EHKBR","","14.599999904632568","img/food3.png","76","16.09999990463257","3","1","false","2","2","1,0.5,0,1,0.5,0,0.5,0,1","0,1,0.5,0,1,0.5,1,0.5,0","3",""
"","html-keyboard-response","144","82215","0.0-214.0","3FQ5JJ512MAGCDGM3EGYJO0XPK7NKI","A3JZ2WCG7JH1Q8","3PEG1BH7AEDCPKTV9M6N3A4F0EHKBR","","null","<img src=""img/food3.png"" style=""width:200px; border:14px solid green;"">","null","","","","","","","","","",""
"","image-keyboard-response","145","82372","0.0-216.0","3FQ5JJ512MAGCDGM3EGYJO0XPK7NKI","A3JZ2WCG7JH1Q8","3PEG1BH7AEDCPKTV9M6N3A4F0EHKBR","","155","img/food4.png","74","156.30000019073486","1","0","false","1","2","1,0.5,0,1,0.5,0,0.5,0,1","0,1,0.5,0,1,0.5,1,0.5,0","3",""
"","html-keyboard-response","146","82675","0.0-217.0","3FQ5JJ512MAGCDGM3EGYJO0XPK7NKI","A3JZ2WCG7JH1Q8","3PEG1BH7AEDCPKTV9M6N3A4F0EHKBR","","null","<img src=""img/food4.png"" style=""width:200px;border:14px solid red;"">","null","","","","","","","","","",""
"","image-keyboard-response","147","82750","0.0-219.0","3FQ5JJ512MAGCDGM3EGYJO0XPK7NKI","A3JZ2WCG7JH1Q8","3PEG1BH7AEDCPKTV9M6N3A4F0EHKBR","","72.5","img/food3.png","74","74.20000004768372","1","0","false","2","2","1,0.5,0,1,0.5,0,0.5,0,1","0,1,0.5,0,1,0.5,1,0.5,0","3",""
"","html-keyboard-response","148","83053","0.0-220.0","3FQ5JJ512MAGCDGM3EGYJO0XPK7NKI","A3JZ2WCG7JH1Q8","3PEG1BH7AEDCPKTV9M6N3A4F0EHKBR","","null","<img src=""img/food3.png"" style=""width:200px;border:14px solid red;"">","null","","","","","","","","","",""
"","image-keyboard-response","149","83109","0.0-222.0","3FQ5JJ512MAGCDGM3EGYJO0XPK7NKI","A3JZ2WCG7JH1Q8","3PEG1BH7AEDCPKTV9M6N3A4F0EHKBR","","55","img/food4.png","74","56.5","1","0","false","1","2","1,0.5,0,1,0.5,0,0.5,0,1","0,1,0.5,0,1,0.5,1,0.5,0","3",""
"","html-keyboard-response","150","83412","0.0-223.0","3FQ5JJ512MAGCDGM3EGYJO0XPK7NKI","A3JZ2WCG7JH1Q8","3PEG1BH7AEDCPKTV9M6N3A4F0EHKBR","","null","<img src=""img/food4.png"" style=""width:200px;border:14px solid red;"">","null","","","","","","","","","",""
"","image-keyboard-response","151","83501","0.0-225.0","3FQ5JJ512MAGCDGM3EGYJO0XPK7NKI","A3JZ2WCG7JH1Q8","3PEG1BH7AEDCPKTV9M6N3A4F0EHKBR","","86.90000009536743","img/food4.png","74","88.80000019073486","1","0","false","1","2","1,0.5,0,1,0.5,0,0.5,0,1","0,1,0.5,0,1,0.5,1,0.5,0","3",""
"","html-keyboard-response","152","83811","0.0-226.0","3FQ5JJ512MAGCDGM3EGYJO0XPK7NKI","A3JZ2WCG7JH1Q8","3PEG1BH7AEDCPKTV9M6N3A4F0EHKBR","","null","<img src=""img/food4.png"" style=""width:200px;border:14px solid red;"">","null","","","","","","","","","",""
"","image-keyboard-response","153","83850","0.0-228.0","3FQ5JJ512MAGCDGM3EGYJO0XPK7NKI","A3JZ2WCG7JH1Q8","3PEG1BH7AEDCPKTV9M6N3A4F0EHKBR","","36.30000019073486","img/food1.png","74","37.700000047683716","1","1","false","3","2","1,0.5,0,1,0.5,0,0.5,0,1","0,1,0.5,0,1,0.5,1,0.5,0","3",""
"","html-keyboard-response","154","84153","0.0-229.0","3FQ5JJ512MAGCDGM3EGYJO0XPK7NKI","A3JZ2WCG7JH1Q8","3PEG1BH7AEDCPKTV9M6N3A4F0EHKBR","","null","<img src=""img/food1.png"" style=""width:200px; border:14px solid green;"">","null","","","","","","","","","",""
"","image-keyboard-response","155","84210","0.0-231.0","3FQ5JJ512MAGCDGM3EGYJO0XPK7NKI","A3JZ2WCG7JH1Q8","3PEG1BH7AEDCPKTV9M6N3A4F0EHKBR","","54.60000014305115","img/food1.png","74","56.90000009536743","1","1","false","3","2","1,0.5,0,1,0.5,0,0.5,0,1","0,1,0.5,0,1,0.5,1,0.5,0","3",""
"","html-keyboard-response","156","84513","0.0-232.0","3FQ5JJ512MAGCDGM3EGYJO0XPK7NKI","A3JZ2WCG7JH1Q8","3PEG1BH7AEDCPKTV9M6N3A4F0EHKBR","","null","<img src=""img/food1.png"" style=""width:200px; border:14px solid green;"">","null","","","","","","","","","",""
"","image-keyboard-response","157","84611","0.0-234.0","3FQ5JJ512MAGCDGM3EGYJO0XPK7NKI","A3JZ2WCG7JH1Q8","3PEG1BH7AEDCPKTV9M6N3A4F0EHKBR","","94.5","img/food1.png","74","96.39999985694885","1","1","false","3","2","1,0.5,0,1,0.5,0,0.5,0,1","0,1,0.5,0,1,0.5,1,0.5,0","3",""
"","html-keyboard-response","158","84913","0.0-235.0","3FQ5JJ512MAGCDGM3EGYJO0XPK7NKI","A3JZ2WCG7JH1Q8","3PEG1BH7AEDCPKTV9M6N3A4F0EHKBR","","null","<img src=""img/food1.png"" style=""width:200px; border:14px solid green;"">","null","","","","","","","","","",""
"","image-keyboard-response","159","84950","0.0-237.0","3FQ5JJ512MAGCDGM3EGYJO0XPK7NKI","A3JZ2WCG7JH1Q8","3PEG1BH7AEDCPKTV9M6N3A4F0EHKBR","","34.299999952316284","img/food3.png","74","35.90000009536743","1","0","false","2","2","1,0.5,0,1,0.5,0,0.5,0,1","0,1,0.5,0,1,0.5,1,0.5,0","3",""
"","html-keyboard-response","160","85251","0.0-238.0","3FQ5JJ512MAGCDGM3EGYJO0XPK7NKI","A3JZ2WCG7JH1Q8","3PEG1BH7AEDCPKTV9M6N3A4F0EHKBR","","null","<img src=""img/food3.png"" style=""width:200px;border:14px solid red;"">","null","","","","","","","","","",""
"","image-keyboard-response","161","85338","0.0-240.0","3FQ5JJ512MAGCDGM3EGYJO0XPK7NKI","A3JZ2WCG7JH1Q8","3PEG1BH7AEDCPKTV9M6N3A4F0EHKBR","","84.79999995231628","img/food4.png","74","85.90000009536743","1","0","false","1","2","1,0.5,0,1,0.5,0,0.5,0,1","0,1,0.5,0,1,0.5,1,0.5,0","3",""
"","html-keyboard-response","162","85640","0.0-241.0","3FQ5JJ512MAGCDGM3EGYJO0XPK7NKI","A3JZ2WCG7JH1Q8","3PEG1BH7AEDCPKTV9M6N3A4F0EHKBR","","null","<img src=""img/food4.png"" style=""width:200px;border:14px solid red;"">","null","","","","","","","","","",""
"","image-keyboard-response","163","85771","0.0-243.0","3FQ5JJ512MAGCDGM3EGYJO0XPK7NKI","A3JZ2WCG7JH1Q8","3PEG1BH7AEDCPKTV9M6N3A4F0EHKBR","","128","img/food4.png","75","129.5","2","1","false","1","2","1,0.5,0,1,0.5,0,0.5,0,1","0,1,0.5,0,1,0.5,1,0.5,0","3",""
"","html-keyboard-response","164","86074","0.0-244.0","3FQ5JJ512MAGCDGM3EGYJO0XPK7NKI","A3JZ2WCG7JH1Q8","3PEG1BH7AEDCPKTV9M6N3A4F0EHKBR","","null","<img src=""img/food4.png"" style=""width:200px; border:14px solid green;"">","null","","","","","","","","","",""
"","image-keyboard-response","165","86130","0.0-246.0","3FQ5JJ512MAGCDGM3EGYJO0XPK7NKI","A3JZ2WCG7JH1Q8","3PEG1BH7AEDCPKTV9M6N3A4F0EHKBR","","52.59999990463257","img/food4.png","75","54.89999985694885","2","1","false","1","2","1,0.5,0,1,0.5,0,0.5,0,1","0,1,0.5,0,1,0.5,1,0.5,0","3",""
"","html-keyboard-response","166","86432","0.0-247.0","3FQ5JJ512MAGCDGM3EGYJO0XPK7NKI","A3JZ2WCG7JH1Q8","3PEG1BH7AEDCPKTV9M6N3A4F0EHKBR","","null","<img src=""img/food4.png"" style=""width:200px; border:14px solid green;"">","null","","","","","","","","","",""
"","image-keyboard-response","167","86501","0.0-249.0","3FQ5JJ512MAGCDGM3EGYJO0XPK7NKI","A3JZ2WCG7JH1Q8","3PEG1BH7AEDCPKTV9M6N3A4F0EHKBR","","66.5","img/food4.png","75","67.80000019073486","2","1","false","1","2","1,0.5,0,1,0.5,0,0.5,0,1","0,1,0.5,0,1,0.5,1,0.5,0","3",""
"","html-keyboard-response","168","86810","0.0-250.0","3FQ5JJ512MAGCDGM3EGYJO0XPK7NKI","A3JZ2WCG7JH1Q8","3PEG1BH7AEDCPKTV9M6N3A4F0EHKBR","","null","<img src=""img/food4.png"" style=""width:200px; border:14px solid green;"">","null","","","","","","","","","",""
"","image-keyboard-response","169","86831","0.0-252.0","3FQ5JJ512MAGCDGM3EGYJO0XPK7NKI","A3JZ2WCG7JH1Q8","3PEG1BH7AEDCPKTV9M6N3A4F0EHKBR","","19.700000047683716","img/food1.png","75","21.09999990463257","2","1","false","3","2","1,0.5,0,1,0.5,0,0.5,0,1","0,1,0.5,0,1,0.5,1,0.5,0","3",""
"","html-keyboard-response","170","87135","0.0-253.0","3FQ5JJ512MAGCDGM3EGYJO0XPK7NKI","A3JZ2WCG7JH1Q8","3PEG1BH7AEDCPKTV9M6N3A4F0EHKBR","","null","<img src=""img/food1.png"" style=""width:200px; border:14px solid green;"">","null","","","","","","","","","",""
"","image-keyboard-response","171","87227","0.0-255.0","3FQ5JJ512MAGCDGM3EGYJO0XPK7NKI","A3JZ2WCG7JH1Q8","3PEG1BH7AEDCPKTV9M6N3A4F0EHKBR","","90.29999995231628","img/food4.png","76","91.89999985694885","3","1","false","1","2","1,0.5,0,1,0.5,0,0.5,0,1","0,1,0.5,0,1,0.5,1,0.5,0","3",""
"","html-keyboard-response","172","87531","0.0-256.0","3FQ5JJ512MAGCDGM3EGYJO0XPK7NKI","A3JZ2WCG7JH1Q8","3PEG1BH7AEDCPKTV9M6N3A4F0EHKBR","","null","<img src=""img/food4.png"" style=""width:200px; border:14px solid green;"">","null","","","","","","","","","",""
"","image-keyboard-response","173","87571","0.0-258.0","3FQ5JJ512MAGCDGM3EGYJO0XPK7NKI","A3JZ2WCG7JH1Q8","3PEG1BH7AEDCPKTV9M6N3A4F0EHKBR","","37.5","img/food3.png","76","39.09999990463257","3","1","false","2","2","1,0.5,0,1,0.5,0,0.5,0,1","0,1,0.5,0,1,0.5,1,0.5,0","3",""
"","html-keyboard-response","174","87874","0.0-259.0","3FQ5JJ512MAGCDGM3EGYJO0XPK7NKI","A3JZ2WCG7JH1Q8","3PEG1BH7AEDCPKTV9M6N3A4F0EHKBR","","null","<img src=""img/food3.png"" style=""width:200px; border:14px solid green;"">","null","","","","","","","","","",""
"","image-keyboard-response","175","87950","0.0-261.0","3FQ5JJ512MAGCDGM3EGYJO0XPK7NKI","A3JZ2WCG7JH1Q8","3PEG1BH7AEDCPKTV9M6N3A4F0EHKBR","","73.90000009536743","img/food3.png","75","75.79999995231628","2","1","false","2","2","1,0.5,0,1,0.5,0,0.5,0,1","0,1,0.5,0,1,0.5,1,0.5,0","3",""
"","html-keyboard-response","176","88253","0.0-262.0","3FQ5JJ512MAGCDGM3EGYJO0XPK7NKI","A3JZ2WCG7JH1Q8","3PEG1BH7AEDCPKTV9M6N3A4F0EHKBR","","null","<img src=""img/food3.png"" style=""width:200px; border:14px solid green;"">","null","","","","","","","","","",""
"","image-keyboard-response","177","88351","0.0-264.0","3FQ5JJ512MAGCDGM3EGYJO0XPK7NKI","A3JZ2WCG7JH1Q8","3PEG1BH7AEDCPKTV9M6N3A4F0EHKBR","","95.10000014305115","img/food1.png","75","96.69999980926514","2","1","false","3","2","1,0.5,0,1,0.5,0,0.5,0,1","0,1,0.5,0,1,0.5,1,0.5,0","3",""
"","html-keyboard-response","178","88653","0.0-265.0","3FQ5JJ512MAGCDGM3EGYJO0XPK7NKI","A3JZ2WCG7JH1Q8","3PEG1BH7AEDCPKTV9M6N3A4F0EHKBR","","null","<img src=""img/food1.png"" style=""width:200px; border:14px solid green;"">","null","","","","","","","","","",""
"","image-keyboard-response","179","88722","0.0-267.0","3FQ5JJ512MAGCDGM3EGYJO0XPK7NKI","A3JZ2WCG7JH1Q8","3PEG1BH7AEDCPKTV9M6N3A4F0EHKBR","","67.89999985694885","img/food3.png","75","69","2","1","false","2","2","1,0.5,0,1,0.5,0,0.5,0,1","0,1,0.5,0,1,0.5,1,0.5,0","3",""
"","html-keyboard-response","180","89025","0.0-268.0","3FQ5JJ512MAGCDGM3EGYJO0XPK7NKI","A3JZ2WCG7JH1Q8","3PEG1BH7AEDCPKTV9M6N3A4F0EHKBR","","null","<img src=""img/food3.png"" style=""width:200px; border:14px solid green;"">","null","","","","","","","","","",""
"","image-keyboard-response","181","89110","0.0-270.0","3FQ5JJ512MAGCDGM3EGYJO0XPK7NKI","A3JZ2WCG7JH1Q8","3PEG1BH7AEDCPKTV9M6N3A4F0EHKBR","","82.70000004768372","img/food3.png","76","84.29999995231628","3","0","false","2","2","1,0.5,0,1,0.5,0,0.5,0,1","0,1,0.5,0,1,0.5,1,0.5,0","3",""
"","html-keyboard-response","182","89412","0.0-271.0","3FQ5JJ512MAGCDGM3EGYJO0XPK7NKI","A3JZ2WCG7JH1Q8","3PEG1BH7AEDCPKTV9M6N3A4F0EHKBR","","null","<img src=""img/food3.png"" style=""width:200px;border:14px solid red;"">","null","","","","","","","","","",""
"","instructions","183","103531","0.0-273.0","3FQ5JJ512MAGCDGM3EGYJO0XPK7NKI","A3JZ2WCG7JH1Q8","3PEG1BH7AEDCPKTV9M6N3A4F0EHKBR","[{""page_index"":0,""viewing_time"":9237},{""page_index"":1,""viewing_time"":4879.899999856949}]","14117.200000047684","","","","","","","","","","","",""
"","image-keyboard-response","184","103651","0.0-274.0","3FQ5JJ512MAGCDGM3EGYJO0XPK7NKI","A3JZ2WCG7JH1Q8","3PEG1BH7AEDCPKTV9M6N3A4F0EHKBR","","118.59999990463257","img/food5.png","74","120.30000019073486","1","1","","1","1","1,0.5,0,1,0.5,0,0.5,0,1","1,0.5,0,1,0.5,0,0.5,0,1","1",""
"","html-keyboard-response","185","103955","0.0-275.0","3FQ5JJ512MAGCDGM3EGYJO0XPK7NKI","A3JZ2WCG7JH1Q8","3PEG1BH7AEDCPKTV9M6N3A4F0EHKBR","","null","<img src=""img/food5.png"" style=""width:200px; border:14px solid green;"">","null","","","","","","","","","",""
"","image-keyboard-response","186","103990","0.0-276.0","3FQ5JJ512MAGCDGM3EGYJO0XPK7NKI","A3JZ2WCG7JH1Q8","3PEG1BH7AEDCPKTV9M6N3A4F0EHKBR","","33.09999990463257","img/food2.png","74","35.09999990463257","1","0","","3","1","1,0.5,0,1,0.5,0,0.5,0,1","1,0.5,0,1,0.5,0,0.5,0,1","1",""
"","html-keyboard-response","187","104293","0.0-277.0","3FQ5JJ512MAGCDGM3EGYJO0XPK7NKI","A3JZ2WCG7JH1Q8","3PEG1BH7AEDCPKTV9M6N3A4F0EHKBR","","null","<img src=""img/food2.png"" style=""width:200px;border:14px solid red;"">","null","","","","","","","","","",""
"","image-keyboard-response","188","104325","0.0-278.0","3FQ5JJ512MAGCDGM3EGYJO0XPK7NKI","A3JZ2WCG7JH1Q8","3PEG1BH7AEDCPKTV9M6N3A4F0EHKBR","","29.700000047683716","img/food6.png","74","31.799999952316284","1","1","","2","1","1,0.5,0,1,0.5,0,0.5,0,1","1,0.5,0,1,0.5,0,0.5,0,1","1",""
"","html-keyboard-response","189","104629","0.0-279.0","3FQ5JJ512MAGCDGM3EGYJO0XPK7NKI","A3JZ2WCG7JH1Q8","3PEG1BH7AEDCPKTV9M6N3A4F0EHKBR","","null","<img src=""img/food6.png"" style=""width:200px; border:14px solid green;"">","null","","","","","","","","","",""
"","image-keyboard-response","190","104690","0.0-280.0","3FQ5JJ512MAGCDGM3EGYJO0XPK7NKI","A3JZ2WCG7JH1Q8","3PEG1BH7AEDCPKTV9M6N3A4F0EHKBR","","59.09999990463257","img/food5.png","74","61.299999952316284","1","1","","1","1","1,0.5,0,1,0.5,0,0.5,0,1","1,0.5,0,1,0.5,0,0.5,0,1","1",""
"","html-keyboard-response","191","104995","0.0-281.0","3FQ5JJ512MAGCDGM3EGYJO0XPK7NKI","A3JZ2WCG7JH1Q8","3PEG1BH7AEDCPKTV9M6N3A4F0EHKBR","","null","<img src=""img/food5.png"" style=""width:200px; border:14px solid green;"">","null","","","","","","","","","",""
"","image-keyboard-response","192","105030","0.0-282.0","3FQ5JJ512MAGCDGM3EGYJO0XPK7NKI","A3JZ2WCG7JH1Q8","3PEG1BH7AEDCPKTV9M6N3A4F0EHKBR","","33.10000014305115","img/food6.png","74","34.700000047683716","1","1","","2","1","1,0.5,0,1,0.5,0,0.5,0,1","1,0.5,0,1,0.5,0,0.5,0,1","1",""
"","html-keyboard-response","193","105333","0.0-283.0","3FQ5JJ512MAGCDGM3EGYJO0XPK7NKI","A3JZ2WCG7JH1Q8","3PEG1BH7AEDCPKTV9M6N3A4F0EHKBR","","null","<img src=""img/food6.png"" style=""width:200px; border:14px solid green;"">","null","","","","","","","","","",""
"","image-keyboard-response","194","105368","0.0-284.0","3FQ5JJ512MAGCDGM3EGYJO0XPK7NKI","A3JZ2WCG7JH1Q8","3PEG1BH7AEDCPKTV9M6N3A4F0EHKBR","","34","img/food2.png","74","34.90000009536743","1","0","","3","1","1,0.5,0,1,0.5,0,0.5,0,1","1,0.5,0,1,0.5,0,0.5,0,1","1",""
"","html-keyboard-response","195","105670","0.0-285.0","3FQ5JJ512MAGCDGM3EGYJO0XPK7NKI","A3JZ2WCG7JH1Q8","3PEG1BH7AEDCPKTV9M6N3A4F0EHKBR","","null","<img src=""img/food2.png"" style=""width:200px;border:14px solid red;"">","null","","","","","","","","","",""
"","image-keyboard-response","196","105674","0.0-286.0","3FQ5JJ512MAGCDGM3EGYJO0XPK7NKI","A3JZ2WCG7JH1Q8","3PEG1BH7AEDCPKTV9M6N3A4F0EHKBR","","0.40000009536743164","img/food2.png","75","2.700000047683716","2","0","","3","1","1,0.5,0,1,0.5,0,0.5,0,1","1,0.5,0,1,0.5,0,0.5,0,1","1",""
"","html-keyboard-response","197","105977","0.0-287.0","3FQ5JJ512MAGCDGM3EGYJO0XPK7NKI","A3JZ2WCG7JH1Q8","3PEG1BH7AEDCPKTV9M6N3A4F0EHKBR","","null","<img src=""img/food2.png"" style=""width:200px;border:14px solid red;"">","null","","","","","","","","","",""
"","image-keyboard-response","198","106029","0.0-288.0","3FQ5JJ512MAGCDGM3EGYJO0XPK7NKI","A3JZ2WCG7JH1Q8","3PEG1BH7AEDCPKTV9M6N3A4F0EHKBR","","50.69999980926514","img/food6.png","75","52.5","2","1","","2","1","1,0.5,0,1,0.5,0,0.5,0,1","1,0.5,0,1,0.5,0,0.5,0,1","1",""
"","html-keyboard-response","199","106332","0.0-289.0","3FQ5JJ512MAGCDGM3EGYJO0XPK7NKI","A3JZ2WCG7JH1Q8","3PEG1BH7AEDCPKTV9M6N3A4F0EHKBR","","null","<img src=""img/food6.png"" style=""width:200px; border:14px solid green;"">","null","","","","","","","","","",""
"","image-keyboard-response","200","106432","0.0-290.0","3FQ5JJ512MAGCDGM3EGYJO0XPK7NKI","A3JZ2WCG7JH1Q8","3PEG1BH7AEDCPKTV9M6N3A4F0EHKBR","","97.20000004768372","img/food6.png","76","99.09999990463257","3","0","","2","1","1,0.5,0,1,0.5,0,0.5,0,1","1,0.5,0,1,0.5,0,0.5,0,1","1",""
"","html-keyboard-response","201","106737","0.0-291.0","3FQ5JJ512MAGCDGM3EGYJO0XPK7NKI","A3JZ2WCG7JH1Q8","3PEG1BH7AEDCPKTV9M6N3A4F0EHKBR","","null","<img src=""img/food6.png"" style=""width:200px;border:14px solid red;"">","null","","","","","","","","","",""
"","image-keyboard-response","202","106791","0.0-292.0","3FQ5JJ512MAGCDGM3EGYJO0XPK7NKI","A3JZ2WCG7JH1Q8","3PEG1BH7AEDCPKTV9M6N3A4F0EHKBR","","52.89999985694885","img/food5.png","76","54.10000014305115","3","0","","1","1","1,0.5,0,1,0.5,0,0.5,0,1","1,0.5,0,1,0.5,0,0.5,0,1","1",""
"","html-keyboard-response","203","107094","0.0-293.0","3FQ5JJ512MAGCDGM3EGYJO0XPK7NKI","A3JZ2WCG7JH1Q8","3PEG1BH7AEDCPKTV9M6N3A4F0EHKBR","","null","<img src=""img/food5.png"" style=""width:200px;border:14px solid red;"">","null","","","","","","","","","",""
"","image-keyboard-response","204","107151","0.0-294.0","3FQ5JJ512MAGCDGM3EGYJO0XPK7NKI","A3JZ2WCG7JH1Q8","3PEG1BH7AEDCPKTV9M6N3A4F0EHKBR","","54.799999952316284","img/food6.png","76","56.799999952316284","3","0","","2","1","1,0.5,0,1,0.5,0,0.5,0,1","1,0.5,0,1,0.5,0,0.5,0,1","1",""
"","html-keyboard-response","205","107454","0.0-295.0","3FQ5JJ512MAGCDGM3EGYJO0XPK7NKI","A3JZ2WCG7JH1Q8","3PEG1BH7AEDCPKTV9M6N3A4F0EHKBR","","null","<img src=""img/food6.png"" style=""width:200px;border:14px solid red;"">","null","","","","","","","","","",""
"","image-keyboard-response","206","107531","0.0-296.0","3FQ5JJ512MAGCDGM3EGYJO0XPK7NKI","A3JZ2WCG7JH1Q8","3PEG1BH7AEDCPKTV9M6N3A4F0EHKBR","","74.90000009536743","img/food6.png","75","77","2","0","","2","1","1,0.5,0,1,0.5,0,0.5,0,1","1,0.5,0,1,0.5,0,0.5,0,1","1",""
"","html-keyboard-response","207","107834","0.0-297.0","3FQ5JJ512MAGCDGM3EGYJO0XPK7NKI","A3JZ2WCG7JH1Q8","3PEG1BH7AEDCPKTV9M6N3A4F0EHKBR","","null","<img src=""img/food6.png"" style=""width:200px;border:14px solid red;"">","null","","","","","","","","","",""
"","image-keyboard-response","208","107909","0.0-298.0","3FQ5JJ512MAGCDGM3EGYJO0XPK7NKI","A3JZ2WCG7JH1Q8","3PEG1BH7AEDCPKTV9M6N3A4F0EHKBR","","72.29999995231628","img/food5.png","75","74.40000009536743","2","0","","1","1","1,0.5,0,1,0.5,0,0.5,0,1","1,0.5,0,1,0.5,0,0.5,0,1","1",""
"","html-keyboard-response","209","108213","0.0-299.0","3FQ5JJ512MAGCDGM3EGYJO0XPK7NKI","A3JZ2WCG7JH1Q8","3PEG1BH7AEDCPKTV9M6N3A4F0EHKBR","","null","<img src=""img/food5.png"" style=""width:200px;border:14px solid red;"">","null","","","","","","","","","",""
"","image-keyboard-response","210","108333","0.0-300.0","3FQ5JJ512MAGCDGM3EGYJO0XPK7NKI","A3JZ2WCG7JH1Q8","3PEG1BH7AEDCPKTV9M6N3A4F0EHKBR","","117.90000009536743","img/food6.png","75","119.60000014305115","2","0","","2","1","1,0.5,0,1,0.5,0,0.5,0,1","1,0.5,0,1,0.5,0,0.5,0,1","1",""
"","html-keyboard-response","211","108636","0.0-301.0","3FQ5JJ512MAGCDGM3EGYJO0XPK7NKI","A3JZ2WCG7JH1Q8","3PEG1BH7AEDCPKTV9M6N3A4F0EHKBR","","null","<img src=""img/food6.png"" style=""width:200px;border:14px solid red;"">","null","","","","","","","","","",""
"","image-keyboard-response","212","108650","0.0-302.0","3FQ5JJ512MAGCDGM3EGYJO0XPK7NKI","A3JZ2WCG7JH1Q8","3PEG1BH7AEDCPKTV9M6N3A4F0EHKBR","","12.699999809265137","img/food5.png","74","13.700000047683716","1","1","","1","1","1,0.5,0,1,0.5,0,0.5,0,1","1,0.5,0,1,0.5,0,0.5,0,1","1",""
"","html-keyboard-response","213","108953","0.0-303.0","3FQ5JJ512MAGCDGM3EGYJO0XPK7NKI","A3JZ2WCG7JH1Q8","3PEG1BH7AEDCPKTV9M6N3A4F0EHKBR","","null","<img src=""img/food5.png"" style=""width:200px; border:14px solid green;"">","null","","","","","","","","","",""
"","image-keyboard-response","214","109048","0.0-304.0","3FQ5JJ512MAGCDGM3EGYJO0XPK7NKI","A3JZ2WCG7JH1Q8","3PEG1BH7AEDCPKTV9M6N3A4F0EHKBR","","94.20000004768372","img/food2.png","74","95.70000004768372","1","1","","3","1","1,0.5,0,1,0.5,0,0.5,0,1","1,0.5,0,1,0.5,0,0.5,0,1","1",""
"","html-keyboard-response","215","109351","0.0-305.0","3FQ5JJ512MAGCDGM3EGYJO0XPK7NKI","A3JZ2WCG7JH1Q8","3PEG1BH7AEDCPKTV9M6N3A4F0EHKBR","","null","<img src=""img/food2.png"" style=""width:200px; border:14px solid green;"">","null","","","","","","","","","",""
"","image-keyboard-response","216","109371","0.0-306.0","3FQ5JJ512MAGCDGM3EGYJO0XPK7NKI","A3JZ2WCG7JH1Q8","3PEG1BH7AEDCPKTV9M6N3A4F0EHKBR","","17.799999952316284","img/food5.png","74","19.40000009536743","1","1","","1","1","1,0.5,0,1,0.5,0,0.5,0,1","1,0.5,0,1,0.5,0,0.5,0,1","1",""
"","html-keyboard-response","217","109675","0.0-307.0","3FQ5JJ512MAGCDGM3EGYJO0XPK7NKI","A3JZ2WCG7JH1Q8","3PEG1BH7AEDCPKTV9M6N3A4F0EHKBR","","null","<img src=""img/food5.png"" style=""width:200px; border:14px solid green;"">","null","","","","","","","","","",""
"","image-keyboard-response","218","109729","0.0-308.0","3FQ5JJ512MAGCDGM3EGYJO0XPK7NKI","A3JZ2WCG7JH1Q8","3PEG1BH7AEDCPKTV9M6N3A4F0EHKBR","","52.60000014305115","img/food6.png","75","54.09999990463257","2","0","","2","1","1,0.5,0,1,0.5,0,0.5,0,1","1,0.5,0,1,0.5,0,0.5,0,1","1",""
"","html-keyboard-response","219","110032","0.0-309.0","3FQ5JJ512MAGCDGM3EGYJO0XPK7NKI","A3JZ2WCG7JH1Q8","3PEG1BH7AEDCPKTV9M6N3A4F0EHKBR","","null","<img src=""img/food6.png"" style=""width:200px;border:14px solid red;"">","null","","","","","","","","","",""
"","image-keyboard-response","220","110088","0.0-310.0","3FQ5JJ512MAGCDGM3EGYJO0XPK7NKI","A3JZ2WCG7JH1Q8","3PEG1BH7AEDCPKTV9M6N3A4F0EHKBR","","54.700000047683716","img/food6.png","75","56.299999952316284","2","1","","2","1","1,0.5,0,1,0.5,0,0.5,0,1","1,0.5,0,1,0.5,0,0.5,0,1","1",""
"","html-keyboard-response","221","110391","0.0-311.0","3FQ5JJ512MAGCDGM3EGYJO0XPK7NKI","A3JZ2WCG7JH1Q8","3PEG1BH7AEDCPKTV9M6N3A4F0EHKBR","","null","<img src=""img/food6.png"" style=""width:200px; border:14px solid green;"">","null","","","","","","","","","",""
"","image-keyboard-response","222","110459","0.0-312.0","3FQ5JJ512MAGCDGM3EGYJO0XPK7NKI","A3JZ2WCG7JH1Q8","3PEG1BH7AEDCPKTV9M6N3A4F0EHKBR","","65.29999995231628","img/food6.png","76","67.20000004768372","3","0","","2","1","1,0.5,0,1,0.5,0,0.5,0,1","1,0.5,0,1,0.5,0,0.5,0,1","1",""
"","html-keyboard-response","223","110763","0.0-313.0","3FQ5JJ512MAGCDGM3EGYJO0XPK7NKI","A3JZ2WCG7JH1Q8","3PEG1BH7AEDCPKTV9M6N3A4F0EHKBR","","null","<img src=""img/food6.png"" style=""width:200px;border:14px solid red;"">","null","","","","","","","","","",""
"","image-keyboard-response","224","110931","0.0-314.0","3FQ5JJ512MAGCDGM3EGYJO0XPK7NKI","A3JZ2WCG7JH1Q8","3PEG1BH7AEDCPKTV9M6N3A4F0EHKBR","","165.89999985694885","img/food6.png","74","167.69999980926514","1","1","","2","1","1,0.5,0,1,0.5,0,0.5,0,1","1,0.5,0,1,0.5,0,0.5,0,1","1",""
"","html-keyboard-response","225","111233","0.0-315.0","3FQ5JJ512MAGCDGM3EGYJO0XPK7NKI","A3JZ2WCG7JH1Q8","3PEG1BH7AEDCPKTV9M6N3A4F0EHKBR","","null","<img src=""img/food6.png"" style=""width:200px; border:14px solid green;"">","null","","","","","","","","","",""
"","image-keyboard-response","226","111309","0.0-316.0","3FQ5JJ512MAGCDGM3EGYJO0XPK7NKI","A3JZ2WCG7JH1Q8","3PEG1BH7AEDCPKTV9M6N3A4F0EHKBR","","73.70000004768372","img/food2.png","74","75.20000004768372","1","1","","3","1","1,0.5,0,1,0.5,0,0.5,0,1","1,0.5,0,1,0.5,0,0.5,0,1","1",""
"","html-keyboard-response","227","111612","0.0-317.0","3FQ5JJ512MAGCDGM3EGYJO0XPK7NKI","A3JZ2WCG7JH1Q8","3PEG1BH7AEDCPKTV9M6N3A4F0EHKBR","","null","<img src=""img/food2.png"" style=""width:200px; border:14px solid green;"">","null","","","","","","","","","",""
"","image-keyboard-response","228","111669","0.0-318.0","3FQ5JJ512MAGCDGM3EGYJO0XPK7NKI","A3JZ2WCG7JH1Q8","3PEG1BH7AEDCPKTV9M6N3A4F0EHKBR","","55.10000014305115","img/food5.png","75","56.90000009536743","2","0","","1","1","1,0.5,0,1,0.5,0,0.5,0,1","1,0.5,0,1,0.5,0,0.5,0,1","1",""
"","html-keyboard-response","229","111973","0.0-319.0","3FQ5JJ512MAGCDGM3EGYJO0XPK7NKI","A3JZ2WCG7JH1Q8","3PEG1BH7AEDCPKTV9M6N3A4F0EHKBR","","null","<img src=""img/food5.png"" style=""width:200px;border:14px solid red;"">","null","","","","","","","","","",""
"","image-keyboard-response","230","111978","0.0-320.0","3FQ5JJ512MAGCDGM3EGYJO0XPK7NKI","A3JZ2WCG7JH1Q8","3PEG1BH7AEDCPKTV9M6N3A4F0EHKBR","","4","img/food5.png","75","5.099999904632568","2","1","","1","1","1,0.5,0,1,0.5,0,0.5,0,1","1,0.5,0,1,0.5,0,0.5,0,1","1",""
"","html-keyboard-response","231","112280","0.0-321.0","3FQ5JJ512MAGCDGM3EGYJO0XPK7NKI","A3JZ2WCG7JH1Q8","3PEG1BH7AEDCPKTV9M6N3A4F0EHKBR","","null","<img src=""img/food5.png"" style=""width:200px; border:14px solid green;"">","null","","","","","","","","","",""
"","image-keyboard-response","232","112310","0.0-322.0","3FQ5JJ512MAGCDGM3EGYJO0XPK7NKI","A3JZ2WCG7JH1Q8","3PEG1BH7AEDCPKTV9M6N3A4F0EHKBR","","28","img/food2.png","74","29.200000047683716","1","1","","3","1","1,0.5,0,1,0.5,0,0.5,0,1","1,0.5,0,1,0.5,0,0.5,0,1","1",""
"","html-keyboard-response","233","112612","0.0-323.0","3FQ5JJ512MAGCDGM3EGYJO0XPK7NKI","A3JZ2WCG7JH1Q8","3PEG1BH7AEDCPKTV9M6N3A4F0EHKBR","","null","<img src=""img/food2.png"" style=""width:200px; border:14px solid green;"">","null","","","","","","","","","",""
"","image-keyboard-response","234","112670","0.0-324.0","3FQ5JJ512MAGCDGM3EGYJO0XPK7NKI","A3JZ2WCG7JH1Q8","3PEG1BH7AEDCPKTV9M6N3A4F0EHKBR","","55.90000009536743","img/food6.png","74","57.30000019073486","1","1","","2","1","1,0.5,0,1,0.5,0,0.5,0,1","1,0.5,0,1,0.5,0,0.5,0,1","1",""
"","html-keyboard-response","235","112973","0.0-325.0","3FQ5JJ512MAGCDGM3EGYJO0XPK7NKI","A3JZ2WCG7JH1Q8","3PEG1BH7AEDCPKTV9M6N3A4F0EHKBR","","null","<img src=""img/food6.png"" style=""width:200px; border:14px solid green;"">","null","","","","","","","","","",""
"","image-keyboard-response","236","113049","0.0-326.0","3FQ5JJ512MAGCDGM3EGYJO0XPK7NKI","A3JZ2WCG7JH1Q8","3PEG1BH7AEDCPKTV9M6N3A4F0EHKBR","","74.39999985694885","img/food6.png","75","75.90000009536743","2","0","","2","1","1,0.5,0,1,0.5,0,0.5,0,1","1,0.5,0,1,0.5,0,0.5,0,1","1",""
"","html-keyboard-response","237","113351","0.0-327.0","3FQ5JJ512MAGCDGM3EGYJO0XPK7NKI","A3JZ2WCG7JH1Q8","3PEG1BH7AEDCPKTV9M6N3A4F0EHKBR","","null","<img src=""img/food6.png"" style=""width:200px;border:14px solid red;"">","null","","","","","","","","","",""
"","image-keyboard-response","238","113450","0.0-328.0","3FQ5JJ512MAGCDGM3EGYJO0XPK7NKI","A3JZ2WCG7JH1Q8","3PEG1BH7AEDCPKTV9M6N3A4F0EHKBR","","96.89999985694885","img/food5.png","75","98.20000004768372","2","1","","1","1","1,0.5,0,1,0.5,0,0.5,0,1","1,0.5,0,1,0.5,0,0.5,0,1","1",""
"","html-keyboard-response","239","113753","0.0-329.0","3FQ5JJ512MAGCDGM3EGYJO0XPK7NKI","A3JZ2WCG7JH1Q8","3PEG1BH7AEDCPKTV9M6N3A4F0EHKBR","","null","<img src=""img/food5.png"" style=""width:200px; border:14px solid green;"">","null","","","","","","","","","",""
"","image-keyboard-response","240","113869","0.0-330.0","3FQ5JJ512MAGCDGM3EGYJO0XPK7NKI","A3JZ2WCG7JH1Q8","3PEG1BH7AEDCPKTV9M6N3A4F0EHKBR","","114.40000009536743","img/food6.png","75","115.69999980926514","2","1","","2","1","1,0.5,0,1,0.5,0,0.5,0,1","1,0.5,0,1,0.5,0,0.5,0,1","1",""
"","html-keyboard-response","241","114173","0.0-331.0","3FQ5JJ512MAGCDGM3EGYJO0XPK7NKI","A3JZ2WCG7JH1Q8","3PEG1BH7AEDCPKTV9M6N3A4F0EHKBR","","null","<img src=""img/food6.png"" style=""width:200px; border:14px solid green;"">","null","","","","","","","","","",""
"","image-keyboard-response","242","114230","0.0-332.0","3FQ5JJ512MAGCDGM3EGYJO0XPK7NKI","A3JZ2WCG7JH1Q8","3PEG1BH7AEDCPKTV9M6N3A4F0EHKBR","","55.5","img/food5.png","76","56.799999952316284","3","0","","1","1","1,0.5,0,1,0.5,0,0.5,0,1","1,0.5,0,1,0.5,0,0.5,0,1","1",""
"","html-keyboard-response","243","114533","0.0-333.0","3FQ5JJ512MAGCDGM3EGYJO0XPK7NKI","A3JZ2WCG7JH1Q8","3PEG1BH7AEDCPKTV9M6N3A4F0EHKBR","","null","<img src=""img/food5.png"" style=""width:200px;border:14px solid red;"">","null","","","","","","","","","",""
"","image-keyboard-response","244","114549","0.0-334.0","3FQ5JJ512MAGCDGM3EGYJO0XPK7NKI","A3JZ2WCG7JH1Q8","3PEG1BH7AEDCPKTV9M6N3A4F0EHKBR","","14.700000047683716","img/food5.png","74","15.700000047683716","1","1","","1","1","1,0.5,0,1,0.5,0,0.5,0,1","1,0.5,0,1,0.5,0,0.5,0,1","1",""
"","html-keyboard-response","245","114852","0.0-335.0","3FQ5JJ512MAGCDGM3EGYJO0XPK7NKI","A3JZ2WCG7JH1Q8","3PEG1BH7AEDCPKTV9M6N3A4F0EHKBR","","null","<img src=""img/food5.png"" style=""width:200px; border:14px solid green;"">","null","","","","","","","","","",""
"","image-keyboard-response","246","114889","0.0-336.0","3FQ5JJ512MAGCDGM3EGYJO0XPK7NKI","A3JZ2WCG7JH1Q8","3PEG1BH7AEDCPKTV9M6N3A4F0EHKBR","","35.299999952316284","img/food6.png","74","36.90000009536743","1","1","","2","1","1,0.5,0,1,0.5,0,0.5,0,1","1,0.5,0,1,0.5,0,0.5,0,1","1",""
"","html-keyboard-response","247","115193","0.0-337.0","3FQ5JJ512MAGCDGM3EGYJO0XPK7NKI","A3JZ2WCG7JH1Q8","3PEG1BH7AEDCPKTV9M6N3A4F0EHKBR","","null","<img src=""img/food6.png"" style=""width:200px; border:14px solid green;"">","null","","","","","","","","","",""
"","image-keyboard-response","248","115289","0.0-338.0","3FQ5JJ512MAGCDGM3EGYJO0XPK7NKI","A3JZ2WCG7JH1Q8","3PEG1BH7AEDCPKTV9M6N3A4F0EHKBR","","93","img/food5.png","74","94.5","1","1","","1","1","1,0.5,0,1,0.5,0,0.5,0,1","1,0.5,0,1,0.5,0,0.5,0,1","1",""
"","html-keyboard-response","249","115592","0.0-339.0","3FQ5JJ512MAGCDGM3EGYJO0XPK7NKI","A3JZ2WCG7JH1Q8","3PEG1BH7AEDCPKTV9M6N3A4F0EHKBR","","null","<img src=""img/food5.png"" style=""width:200px; border:14px solid green;"">","null","","","","","","","","","",""
"","image-keyboard-response","250","115648","0.0-340.0","3FQ5JJ512MAGCDGM3EGYJO0XPK7NKI","A3JZ2WCG7JH1Q8","3PEG1BH7AEDCPKTV9M6N3A4F0EHKBR","","55.299999952316284","img/food6.png","74","56.59999990463257","1","1","","2","1","1,0.5,0,1,0.5,0,0.5,0,1","1,0.5,0,1,0.5,0,0.5,0,1","1",""
"","html-keyboard-response","251","115950","0.0-341.0","3FQ5JJ512MAGCDGM3EGYJO0XPK7NKI","A3JZ2WCG7JH1Q8","3PEG1BH7AEDCPKTV9M6N3A4F0EHKBR","","null","<img src=""img/food6.png"" style=""width:200px; border:14px solid green;"">","null","","","","","","","","","",""
"","image-keyboard-response","252","116069","0.0-342.0","3FQ5JJ512MAGCDGM3EGYJO0XPK7NKI","A3JZ2WCG7JH1Q8","3PEG1BH7AEDCPKTV9M6N3A4F0EHKBR","","117.29999995231628","img/food2.png","74","118.5","1","0","","3","1","1,0.5,0,1,0.5,0,0.5,0,1","1,0.5,0,1,0.5,0,0.5,0,1","1",""
"","html-keyboard-response","253","116371","0.0-343.0","3FQ5JJ512MAGCDGM3EGYJO0XPK7NKI","A3JZ2WCG7JH1Q8","3PEG1BH7AEDCPKTV9M6N3A4F0EHKBR","","null","<img src=""img/food2.png"" style=""width:200px;border:14px solid red;"">","null","","","","","","","","","",""
"","image-keyboard-response","254","116407","0.0-344.0","3FQ5JJ512MAGCDGM3EGYJO0XPK7NKI","A3JZ2WCG7JH1Q8","3PEG1BH7AEDCPKTV9M6N3A4F0EHKBR","","34.59999990463257","img/food6.png","76","35.90000009536743","3","0","","2","1","1,0.5,0,1,0.5,0,0.5,0,1","1,0.5,0,1,0.5,0,0.5,0,1","1",""
"","html-keyboard-response","255","116710","0.0-345.0","3FQ5JJ512MAGCDGM3EGYJO0XPK7NKI","A3JZ2WCG7JH1Q8","3PEG1BH7AEDCPKTV9M6N3A4F0EHKBR","","null","<img src=""img/food6.png"" style=""width:200px;border:14px solid red;"">","null","","","","","","","","","",""
"","image-keyboard-response","256","116771","0.0-346.0","3FQ5JJ512MAGCDGM3EGYJO0XPK7NKI","A3JZ2WCG7JH1Q8","3PEG1BH7AEDCPKTV9M6N3A4F0EHKBR","","56.700000047683716","img/food2.png","75","59.89999985694885","2","0","","3","1","1,0.5,0,1,0.5,0,0.5,0,1","1,0.5,0,1,0.5,0,0.5,0,1","1",""
"","html-keyboard-response","257","117074","0.0-347.0","3FQ5JJ512MAGCDGM3EGYJO0XPK7NKI","A3JZ2WCG7JH1Q8","3PEG1BH7AEDCPKTV9M6N3A4F0EHKBR","","null","<img src=""img/food2.png"" style=""width:200px;border:14px solid red;"">","null","","","","","","","","","",""
"","image-keyboard-response","258","117289","0.0-348.0","3FQ5JJ512MAGCDGM3EGYJO0XPK7NKI","A3JZ2WCG7JH1Q8","3PEG1BH7AEDCPKTV9M6N3A4F0EHKBR","","212.59999990463257","img/food5.png","74","214.19999980926514","1","1","","1","1","1,0.5,0,1,0.5,0,0.5,0,1","1,0.5,0,1,0.5,0,0.5,0,1","1",""
"","html-keyboard-response","259","117592","0.0-349.0","3FQ5JJ512MAGCDGM3EGYJO0XPK7NKI","A3JZ2WCG7JH1Q8","3PEG1BH7AEDCPKTV9M6N3A4F0EHKBR","","null","<img src=""img/food5.png"" style=""width:200px; border:14px solid green;"">","null","","","","","","","","","",""
"","image-keyboard-response","260","117671","0.0-350.0","3FQ5JJ512MAGCDGM3EGYJO0XPK7NKI","A3JZ2WCG7JH1Q8","3PEG1BH7AEDCPKTV9M6N3A4F0EHKBR","","76.30000019073486","img/food6.png","74","78.10000014305115","1","1","","2","1","1,0.5,0,1,0.5,0,0.5,0,1","1,0.5,0,1,0.5,0,0.5,0,1","1",""
"","html-keyboard-response","261","117973","0.0-351.0","3FQ5JJ512MAGCDGM3EGYJO0XPK7NKI","A3JZ2WCG7JH1Q8","3PEG1BH7AEDCPKTV9M6N3A4F0EHKBR","","null","<img src=""img/food6.png"" style=""width:200px; border:14px solid green;"">","null","","","","","","","","","",""
"","image-keyboard-response","262","118070","0.0-352.0","3FQ5JJ512MAGCDGM3EGYJO0XPK7NKI","A3JZ2WCG7JH1Q8","3PEG1BH7AEDCPKTV9M6N3A4F0EHKBR","","94.5","img/food2.png","74","96.5","1","0","","3","1","1,0.5,0,1,0.5,0,0.5,0,1","1,0.5,0,1,0.5,0,0.5,0,1","1",""
"","html-keyboard-response","263","118374","0.0-353.0","3FQ5JJ512MAGCDGM3EGYJO0XPK7NKI","A3JZ2WCG7JH1Q8","3PEG1BH7AEDCPKTV9M6N3A4F0EHKBR","","null","<img src=""img/food2.png"" style=""width:200px;border:14px solid red;"">","null","","","","","","","","","",""
"","image-keyboard-response","264","118391","0.0-354.0","3FQ5JJ512MAGCDGM3EGYJO0XPK7NKI","A3JZ2WCG7JH1Q8","3PEG1BH7AEDCPKTV9M6N3A4F0EHKBR","","15.199999809265137","img/food2.png","75","16.90000009536743","2","0","","3","1","1,0.5,0,1,0.5,0,0.5,0,1","1,0.5,0,1,0.5,0,0.5,0,1","1",""
"","html-keyboard-response","265","118694","0.0-355.0","3FQ5JJ512MAGCDGM3EGYJO0XPK7NKI","A3JZ2WCG7JH1Q8","3PEG1BH7AEDCPKTV9M6N3A4F0EHKBR","","null","<img src=""img/food2.png"" style=""width:200px;border:14px solid red;"">","null","","","","","","","","","",""
"","image-keyboard-response","266","118869","0.0-356.0","3FQ5JJ512MAGCDGM3EGYJO0XPK7NKI","A3JZ2WCG7JH1Q8","3PEG1BH7AEDCPKTV9M6N3A4F0EHKBR","","174.20000004768372","img/food2.png","74","175","1","1","","3","1","1,0.5,0,1,0.5,0,0.5,0,1","1,0.5,0,1,0.5,0,0.5,0,1","1",""
"","html-keyboard-response","267","119171","0.0-357.0","3FQ5JJ512MAGCDGM3EGYJO0XPK7NKI","A3JZ2WCG7JH1Q8","3PEG1BH7AEDCPKTV9M6N3A4F0EHKBR","","null","<img src=""img/food2.png"" style=""width:200px; border:14px solid green;"">","null","","","","","","","","","",""
"","image-keyboard-response","268","119248","0.0-358.0","3FQ5JJ512MAGCDGM3EGYJO0XPK7NKI","A3JZ2WCG7JH1Q8","3PEG1BH7AEDCPKTV9M6N3A4F0EHKBR","","75.59999990463257","img/food5.png","74","76.70000004768372","1","1","","1","1","1,0.5,0,1,0.5,0,0.5,0,1","1,0.5,0,1,0.5,0,0.5,0,1","1",""
"","html-keyboard-response","269","119551","0.0-359.0","3FQ5JJ512MAGCDGM3EGYJO0XPK7NKI","A3JZ2WCG7JH1Q8","3PEG1BH7AEDCPKTV9M6N3A4F0EHKBR","","null","<img src=""img/food5.png"" style=""width:200px; border:14px solid green;"">","null","","","","","","","","","",""
"","image-keyboard-response","270","119572","0.0-360.0","3FQ5JJ512MAGCDGM3EGYJO0XPK7NKI","A3JZ2WCG7JH1Q8","3PEG1BH7AEDCPKTV9M6N3A4F0EHKBR","","20.399999856948853","img/food5.png","75","21.199999809265137","2","0","","1","1","1,0.5,0,1,0.5,0,0.5,0,1","1,0.5,0,1,0.5,0,0.5,0,1","1",""
"","html-keyboard-response","271","119874","0.0-361.0","3FQ5JJ512MAGCDGM3EGYJO0XPK7NKI","A3JZ2WCG7JH1Q8","3PEG1BH7AEDCPKTV9M6N3A4F0EHKBR","","null","<img src=""img/food5.png"" style=""width:200px;border:14px solid red;"">","null","","","","","","","","","",""
"","image-keyboard-response","272","120010","0.0-362.0","3FQ5JJ512MAGCDGM3EGYJO0XPK7NKI","A3JZ2WCG7JH1Q8","3PEG1BH7AEDCPKTV9M6N3A4F0EHKBR","","134.20000004768372","img/food5.png","74","136","1","1","","1","1","1,0.5,0,1,0.5,0,0.5,0,1","1,0.5,0,1,0.5,0,0.5,0,1","1",""
"","html-keyboard-response","273","120314","0.0-363.0","3FQ5JJ512MAGCDGM3EGYJO0XPK7NKI","A3JZ2WCG7JH1Q8","3PEG1BH7AEDCPKTV9M6N3A4F0EHKBR","","null","<img src=""img/food5.png"" style=""width:200px; border:14px solid green;"">","null","","","","","","","","","",""
"","image-keyboard-response","274","120349","0.0-364.0","3FQ5JJ512MAGCDGM3EGYJO0XPK7NKI","A3JZ2WCG7JH1Q8","3PEG1BH7AEDCPKTV9M6N3A4F0EHKBR","","32.700000047683716","img/food5.png","74","34","1","1","","1","1","1,0.5,0,1,0.5,0,0.5,0,1","1,0.5,0,1,0.5,0,0.5,0,1","1",""
"","html-keyboard-response","275","120651","0.0-365.0","3FQ5JJ512MAGCDGM3EGYJO0XPK7NKI","A3JZ2WCG7JH1Q8","3PEG1BH7AEDCPKTV9M6N3A4F0EHKBR","","null","<img src=""img/food5.png"" style=""width:200px; border:14px solid green;"">","null","","","","","","","","","",""
"","image-keyboard-response","276","120762","0.0-366.0","3FQ5JJ512MAGCDGM3EGYJO0XPK7NKI","A3JZ2WCG7JH1Q8","3PEG1BH7AEDCPKTV9M6N3A4F0EHKBR","","107","img/food5.png","74","110.20000004768372","1","1","","1","1","1,0.5,0,1,0.5,0,0.5,0,1","1,0.5,0,1,0.5,0,0.5,0,1","1",""
"","html-keyboard-response","277","121064","0.0-367.0","3FQ5JJ512MAGCDGM3EGYJO0XPK7NKI","A3JZ2WCG7JH1Q8","3PEG1BH7AEDCPKTV9M6N3A4F0EHKBR","","null","<img src=""img/food5.png"" style=""width:200px; border:14px solid green;"">","null","","","","","","","","","",""
"","image-keyboard-response","278","121163","0.0-368.0","3FQ5JJ512MAGCDGM3EGYJO0XPK7NKI","A3JZ2WCG7JH1Q8","3PEG1BH7AEDCPKTV9M6N3A4F0EHKBR","","97.40000009536743","img/food2.png","74","98.70000004768372","1","1","","3","1","1,0.5,0,1,0.5,0,0.5,0,1","1,0.5,0,1,0.5,0,0.5,0,1","1",""
"","html-keyboard-response","279","121467","0.0-369.0","3FQ5JJ512MAGCDGM3EGYJO0XPK7NKI","A3JZ2WCG7JH1Q8","3PEG1BH7AEDCPKTV9M6N3A4F0EHKBR","","null","<img src=""img/food2.png"" style=""width:200px; border:14px solid green;"">","null","","","","","","","","","",""
"","image-keyboard-response","280","121570","0.0-370.0","3FQ5JJ512MAGCDGM3EGYJO0XPK7NKI","A3JZ2WCG7JH1Q8","3PEG1BH7AEDCPKTV9M6N3A4F0EHKBR","","101.20000004768372","img/food6.png","74","102.5","1","1","","2","1","1,0.5,0,1,0.5,0,0.5,0,1","1,0.5,0,1,0.5,0,0.5,0,1","1",""
"","html-keyboard-response","281","121873","0.0-371.0","3FQ5JJ512MAGCDGM3EGYJO0XPK7NKI","A3JZ2WCG7JH1Q8","3PEG1BH7AEDCPKTV9M6N3A4F0EHKBR","","null","<img src=""img/food6.png"" style=""width:200px; border:14px solid green;"">","null","","","","","","","","","",""
"","image-keyboard-response","282","122002","0.0-372.0","3FQ5JJ512MAGCDGM3EGYJO0XPK7NKI","A3JZ2WCG7JH1Q8","3PEG1BH7AEDCPKTV9M6N3A4F0EHKBR","","126.60000014305115","img/food2.png","74","127.69999980926514","1","0","","3","1","1,0.5,0,1,0.5,0,0.5,0,1","1,0.5,0,1,0.5,0,0.5,0,1","1",""
"","html-keyboard-response","283","122304","0.0-373.0","3FQ5JJ512MAGCDGM3EGYJO0XPK7NKI","A3JZ2WCG7JH1Q8","3PEG1BH7AEDCPKTV9M6N3A4F0EHKBR","","null","<img src=""img/food2.png"" style=""width:200px;border:14px solid red;"">","null","","","","","","","","","",""
"","image-keyboard-response","284","122314","0.0-374.0","3FQ5JJ512MAGCDGM3EGYJO0XPK7NKI","A3JZ2WCG7JH1Q8","3PEG1BH7AEDCPKTV9M6N3A4F0EHKBR","","7.700000047683716","img/food2.png","74","8.599999904632568","1","1","","3","1","1,0.5,0,1,0.5,0,0.5,0,1","1,0.5,0,1,0.5,0,0.5,0,1","1",""
"","html-keyboard-response","285","122616","0.0-375.0","3FQ5JJ512MAGCDGM3EGYJO0XPK7NKI","A3JZ2WCG7JH1Q8","3PEG1BH7AEDCPKTV9M6N3A4F0EHKBR","","null","<img src=""img/food2.png"" style=""width:200px; border:14px solid green;"">","null","","","","","","","","","",""
"","image-keyboard-response","286","122712","0.0-376.0","3FQ5JJ512MAGCDGM3EGYJO0XPK7NKI","A3JZ2WCG7JH1Q8","3PEG1BH7AEDCPKTV9M6N3A4F0EHKBR","","94.79999995231628","img/food2.png","74","96.20000004768372","1","0","","3","1","1,0.5,0,1,0.5,0,0.5,0,1","1,0.5,0,1,0.5,0,0.5,0,1","1",""
"","html-keyboard-response","287","123014","0.0-377.0","3FQ5JJ512MAGCDGM3EGYJO0XPK7NKI","A3JZ2WCG7JH1Q8","3PEG1BH7AEDCPKTV9M6N3A4F0EHKBR","","null","<img src=""img/food2.png"" style=""width:200px;border:14px solid red;"">","null","","","","","","","","","",""
"","image-keyboard-response","288","123030","0.0-378.0","3FQ5JJ512MAGCDGM3EGYJO0XPK7NKI","A3JZ2WCG7JH1Q8","3PEG1BH7AEDCPKTV9M6N3A4F0EHKBR","","13.899999856948853","img/food6.png","75","15.599999904632568","2","0","","2","1","1,0.5,0,1,0.5,0,0.5,0,1","1,0.5,0,1,0.5,0,0.5,0,1","1",""
"","html-keyboard-response","289","123334","0.0-379.0","3FQ5JJ512MAGCDGM3EGYJO0XPK7NKI","A3JZ2WCG7JH1Q8","3PEG1BH7AEDCPKTV9M6N3A4F0EHKBR","","null","<img src=""img/food6.png"" style=""width:200px;border:14px solid red;"">","null","","","","","","","","","",""
"","image-keyboard-response","290","123411","0.0-380.0","3FQ5JJ512MAGCDGM3EGYJO0XPK7NKI","A3JZ2WCG7JH1Q8","3PEG1BH7AEDCPKTV9M6N3A4F0EHKBR","","74.29999995231628","img/food2.png","75","76.20000004768372","2","0","","3","1","1,0.5,0,1,0.5,0,0.5,0,1","1,0.5,0,1,0.5,0,0.5,0,1","1",""
"","html-keyboard-response","291","123715","0.0-381.0","3FQ5JJ512MAGCDGM3EGYJO0XPK7NKI","A3JZ2WCG7JH1Q8","3PEG1BH7AEDCPKTV9M6N3A4F0EHKBR","","null","<img src=""img/food2.png"" style=""width:200px;border:14px solid red;"">","null","","","","","","","","","",""
"","image-keyboard-response","292","123731","0.0-382.0","3FQ5JJ512MAGCDGM3EGYJO0XPK7NKI","A3JZ2WCG7JH1Q8","3PEG1BH7AEDCPKTV9M6N3A4F0EHKBR","","14.200000047683716","img/food2.png","74","15.699999809265137","1","1","","3","1","1,0.5,0,1,0.5,0,0.5,0,1","1,0.5,0,1,0.5,0,0.5,0,1","1",""
"","html-keyboard-response","293","124035","0.0-383.0","3FQ5JJ512MAGCDGM3EGYJO0XPK7NKI","A3JZ2WCG7JH1Q8","3PEG1BH7AEDCPKTV9M6N3A4F0EHKBR","","null","<img src=""img/food2.png"" style=""width:200px; border:14px solid green;"">","null","","","","","","","","","",""
"","image-keyboard-response","294","124156","0.0-384.0","3FQ5JJ512MAGCDGM3EGYJO0XPK7NKI","A3JZ2WCG7JH1Q8","3PEG1BH7AEDCPKTV9M6N3A4F0EHKBR","","119.39999985694885","img/food6.png","74","121.09999990463257","1","1","","2","1","1,0.5,0,1,0.5,0,0.5,0,1","1,0.5,0,1,0.5,0,0.5,0,1","1",""
"","html-keyboard-response","295","124460","0.0-385.0","3FQ5JJ512MAGCDGM3EGYJO0XPK7NKI","A3JZ2WCG7JH1Q8","3PEG1BH7AEDCPKTV9M6N3A4F0EHKBR","","null","<img src=""img/food6.png"" style=""width:200px; border:14px solid green;"">","null","","","","","","","","","",""
"","image-keyboard-response","296","124549","0.0-386.0","3FQ5JJ512MAGCDGM3EGYJO0XPK7NKI","A3JZ2WCG7JH1Q8","3PEG1BH7AEDCPKTV9M6N3A4F0EHKBR","","87.39999985694885","img/food6.png","74","88.79999995231628","1","1","","2","1","1,0.5,0,1,0.5,0,0.5,0,1","1,0.5,0,1,0.5,0,0.5,0,1","1",""
"","html-keyboard-response","297","124852","0.0-387.0","3FQ5JJ512MAGCDGM3EGYJO0XPK7NKI","A3JZ2WCG7JH1Q8","3PEG1BH7AEDCPKTV9M6N3A4F0EHKBR","","null","<img src=""img/food6.png"" style=""width:200px; border:14px solid green;"">","null","","","","","","","","","",""
"","image-keyboard-response","298","125029","0.0-388.0","3FQ5JJ512MAGCDGM3EGYJO0XPK7NKI","A3JZ2WCG7JH1Q8","3PEG1BH7AEDCPKTV9M6N3A4F0EHKBR","","175.39999985694885","img/food2.png","75","176.70000004768372","2","0","","3","1","1,0.5,0,1,0.5,0,0.5,0,1","1,0.5,0,1,0.5,0,0.5,0,1","1",""
"","html-keyboard-response","299","125331","0.0-389.0","3FQ5JJ512MAGCDGM3EGYJO0XPK7NKI","A3JZ2WCG7JH1Q8","3PEG1BH7AEDCPKTV9M6N3A4F0EHKBR","","null","<img src=""img/food2.png"" style=""width:200px;border:14px solid red;"">","null","","","","","","","","","",""
"","image-keyboard-response","300","125352","0.0-390.0","3FQ5JJ512MAGCDGM3EGYJO0XPK7NKI","A3JZ2WCG7JH1Q8","3PEG1BH7AEDCPKTV9M6N3A4F0EHKBR","","19.09999990463257","img/food5.png","74","20.699999809265137","1","1","","1","1","1,0.5,0,1,0.5,0,0.5,0,1","1,0.5,0,1,0.5,0,0.5,0,1","1",""
"","html-keyboard-response","301","125656","0.0-391.0","3FQ5JJ512MAGCDGM3EGYJO0XPK7NKI","A3JZ2WCG7JH1Q8","3PEG1BH7AEDCPKTV9M6N3A4F0EHKBR","","null","<img src=""img/food5.png"" style=""width:200px; border:14px solid green;"">","null","","","","","","","","","",""
"","image-keyboard-response","302","125831","0.0-392.0","3FQ5JJ512MAGCDGM3EGYJO0XPK7NKI","A3JZ2WCG7JH1Q8","3PEG1BH7AEDCPKTV9M6N3A4F0EHKBR","","172.70000004768372","img/food6.png","76","174.29999995231628","3","0","","2","1","1,0.5,0,1,0.5,0,0.5,0,1","1,0.5,0,1,0.5,0,0.5,0,1","1",""
"","html-keyboard-response","303","126133","0.0-393.0","3FQ5JJ512MAGCDGM3EGYJO0XPK7NKI","A3JZ2WCG7JH1Q8","3PEG1BH7AEDCPKTV9M6N3A4F0EHKBR","","null","<img src=""img/food6.png"" style=""width:200px;border:14px solid red;"">","null","","","","","","","","","",""
"","image-keyboard-response","304","126391","0.0-394.0","3FQ5JJ512MAGCDGM3EGYJO0XPK7NKI","A3JZ2WCG7JH1Q8","3PEG1BH7AEDCPKTV9M6N3A4F0EHKBR","","254.79999995231628","img/food2.png","75","257","2","0","","3","1","1,0.5,0,1,0.5,0,0.5,0,1","1,0.5,0,1,0.5,0,0.5,0,1","1",""
"","html-keyboard-response","305","126693","0.0-395.0","3FQ5JJ512MAGCDGM3EGYJO0XPK7NKI","A3JZ2WCG7JH1Q8","3PEG1BH7AEDCPKTV9M6N3A4F0EHKBR","","null","<img src=""img/food2.png"" style=""width:200px;border:14px solid red;"">","null","","","","","","","","","",""
"","image-keyboard-response","306","126790","0.0-396.0","3FQ5JJ512MAGCDGM3EGYJO0XPK7NKI","A3JZ2WCG7JH1Q8","3PEG1BH7AEDCPKTV9M6N3A4F0EHKBR","","94.79999995231628","img/food5.png","76","96.59999990463257","3","0","","1","1","1,0.5,0,1,0.5,0,0.5,0,1","1,0.5,0,1,0.5,0,0.5,0,1","1",""
"","html-keyboard-response","307","127094","0.0-397.0","3FQ5JJ512MAGCDGM3EGYJO0XPK7NKI","A3JZ2WCG7JH1Q8","3PEG1BH7AEDCPKTV9M6N3A4F0EHKBR","","null","<img src=""img/food5.png"" style=""width:200px;border:14px solid red;"">","null","","","","","","","","","",""
"","image-keyboard-response","308","127189","0.0-398.0","3FQ5JJ512MAGCDGM3EGYJO0XPK7NKI","A3JZ2WCG7JH1Q8","3PEG1BH7AEDCPKTV9M6N3A4F0EHKBR","","93.5","img/food6.png","75","95.39999985694885","2","0","","2","1","1,0.5,0,1,0.5,0,0.5,0,1","1,0.5,0,1,0.5,0,0.5,0,1","1",""
"","html-keyboard-response","309","127494","0.0-399.0","3FQ5JJ512MAGCDGM3EGYJO0XPK7NKI","A3JZ2WCG7JH1Q8","3PEG1BH7AEDCPKTV9M6N3A4F0EHKBR","","null","<img src=""img/food6.png"" style=""width:200px;border:14px solid red;"">","null","","","","","","","","","",""
"","image-keyboard-response","310","127529","0.0-400.0","3FQ5JJ512MAGCDGM3EGYJO0XPK7NKI","A3JZ2WCG7JH1Q8","3PEG1BH7AEDCPKTV9M6N3A4F0EHKBR","","34.19999980926514","img/food2.png","75","35.40000009536743","2","0","","3","1","1,0.5,0,1,0.5,0,0.5,0,1","1,0.5,0,1,0.5,0,0.5,0,1","1",""
"","html-keyboard-response","311","127831","0.0-401.0","3FQ5JJ512MAGCDGM3EGYJO0XPK7NKI","A3JZ2WCG7JH1Q8","3PEG1BH7AEDCPKTV9M6N3A4F0EHKBR","","null","<img src=""img/food2.png"" style=""width:200px;border:14px solid red;"">","null","","","","","","","","","",""
"","image-keyboard-response","312","127930","0.0-402.0","3FQ5JJ512MAGCDGM3EGYJO0XPK7NKI","A3JZ2WCG7JH1Q8","3PEG1BH7AEDCPKTV9M6N3A4F0EHKBR","","96.29999995231628","img/food5.png","76","97.79999995231628","3","0","","1","1","1,0.5,0,1,0.5,0,0.5,0,1","1,0.5,0,1,0.5,0,0.5,0,1","1",""
"","html-keyboard-response","313","128232","0.0-403.0","3FQ5JJ512MAGCDGM3EGYJO0XPK7NKI","A3JZ2WCG7JH1Q8","3PEG1BH7AEDCPKTV9M6N3A4F0EHKBR","","null","<img src=""img/food5.png"" style=""width:200px;border:14px solid red;"">","null","","","","","","","","","",""
"","image-keyboard-response","314","128330","0.0-404.0","3FQ5JJ512MAGCDGM3EGYJO0XPK7NKI","A3JZ2WCG7JH1Q8","3PEG1BH7AEDCPKTV9M6N3A4F0EHKBR","","96.29999995231628","img/food5.png","75","98.09999990463257","2","1","","1","1","1,0.5,0,1,0.5,0,0.5,0,1","1,0.5,0,1,0.5,0,0.5,0,1","1",""
"","html-keyboard-response","315","128633","0.0-405.0","3FQ5JJ512MAGCDGM3EGYJO0XPK7NKI","A3JZ2WCG7JH1Q8","3PEG1BH7AEDCPKTV9M6N3A4F0EHKBR","","null","<img src=""img/food5.png"" style=""width:200px; border:14px solid green;"">","null","","","","","","","","","",""
"","image-keyboard-response","316","128709","0.0-406.0","3FQ5JJ512MAGCDGM3EGYJO0XPK7NKI","A3JZ2WCG7JH1Q8","3PEG1BH7AEDCPKTV9M6N3A4F0EHKBR","","75.5","img/food2.png","75","76.59999990463257","2","0","","3","1","1,0.5,0,1,0.5,0,0.5,0,1","1,0.5,0,1,0.5,0,0.5,0,1","1",""
"","html-keyboard-response","317","129011","0.0-407.0","3FQ5JJ512MAGCDGM3EGYJO0XPK7NKI","A3JZ2WCG7JH1Q8","3PEG1BH7AEDCPKTV9M6N3A4F0EHKBR","","null","<img src=""img/food2.png"" style=""width:200px;border:14px solid red;"">","null","","","","","","","","","",""
"","image-keyboard-response","318","129069","0.0-408.0","3FQ5JJ512MAGCDGM3EGYJO0XPK7NKI","A3JZ2WCG7JH1Q8","3PEG1BH7AEDCPKTV9M6N3A4F0EHKBR","","56.10000014305115","img/food5.png","75","57.799999952316284","2","1","","1","1","1,0.5,0,1,0.5,0,0.5,0,1","1,0.5,0,1,0.5,0,0.5,0,1","1",""
"","html-keyboard-response","319","129374","0.0-409.0","3FQ5JJ512MAGCDGM3EGYJO0XPK7NKI","A3JZ2WCG7JH1Q8","3PEG1BH7AEDCPKTV9M6N3A4F0EHKBR","","null","<img src=""img/food5.png"" style=""width:200px; border:14px solid green;"">","null","","","","","","","","","",""
"","image-keyboard-response","320","129471","0.0-410.0","3FQ5JJ512MAGCDGM3EGYJO0XPK7NKI","A3JZ2WCG7JH1Q8","3PEG1BH7AEDCPKTV9M6N3A4F0EHKBR","","95.40000009536743","img/food5.png","75","97.40000009536743","2","0","","1","1","1,0.5,0,1,0.5,0,0.5,0,1","1,0.5,0,1,0.5,0,0.5,0,1","1",""
"","html-keyboard-response","321","129775","0.0-411.0","3FQ5JJ512MAGCDGM3EGYJO0XPK7NKI","A3JZ2WCG7JH1Q8","3PEG1BH7AEDCPKTV9M6N3A4F0EHKBR","","null","<img src=""img/food5.png"" style=""width:200px;border:14px solid red;"">","null","","","","","","","","","",""
"","image-keyboard-response","322","129911","0.0-412.0","3FQ5JJ512MAGCDGM3EGYJO0XPK7NKI","A3JZ2WCG7JH1Q8","3PEG1BH7AEDCPKTV9M6N3A4F0EHKBR","","134.10000014305115","img/food6.png","74","136","1","1","","2","1","1,0.5,0,1,0.5,0,0.5,0,1","1,0.5,0,1,0.5,0,0.5,0,1","1",""
"","html-keyboard-response","323","130214","0.0-413.0","3FQ5JJ512MAGCDGM3EGYJO0XPK7NKI","A3JZ2WCG7JH1Q8","3PEG1BH7AEDCPKTV9M6N3A4F0EHKBR","","null","<img src=""img/food6.png"" style=""width:200px; border:14px solid green;"">","null","","","","","","","","","",""
"","image-keyboard-response","324","130232","0.0-414.0","3FQ5JJ512MAGCDGM3EGYJO0XPK7NKI","A3JZ2WCG7JH1Q8","3PEG1BH7AEDCPKTV9M6N3A4F0EHKBR","","16.300000190734863","img/food2.png","74","18","1","1","","3","1","1,0.5,0,1,0.5,0,0.5,0,1","1,0.5,0,1,0.5,0,0.5,0,1","1",""
"","html-keyboard-response","325","130536","0.0-415.0","3FQ5JJ512MAGCDGM3EGYJO0XPK7NKI","A3JZ2WCG7JH1Q8","3PEG1BH7AEDCPKTV9M6N3A4F0EHKBR","","null","<img src=""img/food2.png"" style=""width:200px; border:14px solid green;"">","null","","","","","","","","","",""
"","image-keyboard-response","326","130589","0.0-416.0","3FQ5JJ512MAGCDGM3EGYJO0XPK7NKI","A3JZ2WCG7JH1Q8","3PEG1BH7AEDCPKTV9M6N3A4F0EHKBR","","51.10000014305115","img/food2.png","74","52.39999985694885","1","1","","3","1","1,0.5,0,1,0.5,0,0.5,0,1","1,0.5,0,1,0.5,0,0.5,0,1","1",""
"","html-keyboard-response","327","130891","0.0-417.0","3FQ5JJ512MAGCDGM3EGYJO0XPK7NKI","A3JZ2WCG7JH1Q8","3PEG1BH7AEDCPKTV9M6N3A4F0EHKBR","","null","<img src=""img/food2.png"" style=""width:200px; border:14px solid green;"">","null","","","","","","","","","",""
"","image-keyboard-response","328","130911","0.0-418.0","3FQ5JJ512MAGCDGM3EGYJO0XPK7NKI","A3JZ2WCG7JH1Q8","3PEG1BH7AEDCPKTV9M6N3A4F0EHKBR","","17.699999809265137","img/food5.png","74","19.299999952316284","1","1","","1","1","1,0.5,0,1,0.5,0,0.5,0,1","1,0.5,0,1,0.5,0,0.5,0,1","1",""
"","html-keyboard-response","329","131215","0.0-419.0","3FQ5JJ512MAGCDGM3EGYJO0XPK7NKI","A3JZ2WCG7JH1Q8","3PEG1BH7AEDCPKTV9M6N3A4F0EHKBR","","null","<img src=""img/food5.png"" style=""width:200px; border:14px solid green;"">","null","","","","","","","","","",""
"","image-keyboard-response","330","131369","0.0-420.0","3FQ5JJ512MAGCDGM3EGYJO0XPK7NKI","A3JZ2WCG7JH1Q8","3PEG1BH7AEDCPKTV9M6N3A4F0EHKBR","","151.10000014305115","img/food5.png","74","153.79999995231628","1","1","","1","1","1,0.5,0,1,0.5,0,0.5,0,1","1,0.5,0,1,0.5,0,0.5,0,1","1",""
"","html-keyboard-response","331","131672","0.0-421.0","3FQ5JJ512MAGCDGM3EGYJO0XPK7NKI","A3JZ2WCG7JH1Q8","3PEG1BH7AEDCPKTV9M6N3A4F0EHKBR","","null","<img src=""img/food5.png"" style=""width:200px; border:14px solid green;"">","null","","","","","","","","","",""
"","image-keyboard-response","332","131689","0.0-422.0","3FQ5JJ512MAGCDGM3EGYJO0XPK7NKI","A3JZ2WCG7JH1Q8","3PEG1BH7AEDCPKTV9M6N3A4F0EHKBR","","15.200000047683716","img/food2.png","74","16.799999952316284","1","0","","3","1","1,0.5,0,1,0.5,0,0.5,0,1","1,0.5,0,1,0.5,0,0.5,0,1","1",""
"","html-keyboard-response","333","131992","0.0-423.0","3FQ5JJ512MAGCDGM3EGYJO0XPK7NKI","A3JZ2WCG7JH1Q8","3PEG1BH7AEDCPKTV9M6N3A4F0EHKBR","","null","<img src=""img/food2.png"" style=""width:200px;border:14px solid red;"">","null","","","","","","","","","",""
"","image-keyboard-response","334","132010","0.0-424.0","3FQ5JJ512MAGCDGM3EGYJO0XPK7NKI","A3JZ2WCG7JH1Q8","3PEG1BH7AEDCPKTV9M6N3A4F0EHKBR","","15.5","img/food6.png","74","17.200000047683716","1","1","","2","1","1,0.5,0,1,0.5,0,0.5,0,1","1,0.5,0,1,0.5,0,0.5,0,1","1",""
"","html-keyboard-response","335","132313","0.0-425.0","3FQ5JJ512MAGCDGM3EGYJO0XPK7NKI","A3JZ2WCG7JH1Q8","3PEG1BH7AEDCPKTV9M6N3A4F0EHKBR","","null","<img src=""img/food6.png"" style=""width:200px; border:14px solid green;"">","null","","","","","","","","","",""
"","image-keyboard-response","336","132365","0.0-426.0","3FQ5JJ512MAGCDGM3EGYJO0XPK7NKI","A3JZ2WCG7JH1Q8","3PEG1BH7AEDCPKTV9M6N3A4F0EHKBR","","49.799999952316284","img/food2.png","74","51.299999952316284","1","0","","3","1","1,0.5,0,1,0.5,0,0.5,0,1","1,0.5,0,1,0.5,0,0.5,0,1","1",""
"","html-keyboard-response","337","132668","0.0-427.0","3FQ5JJ512MAGCDGM3EGYJO0XPK7NKI","A3JZ2WCG7JH1Q8","3PEG1BH7AEDCPKTV9M6N3A4F0EHKBR","","null","<img src=""img/food2.png"" style=""width:200px;border:14px solid red;"">","null","","","","","","","","","",""
"","image-keyboard-response","338","132710","0.0-428.0","3FQ5JJ512MAGCDGM3EGYJO0XPK7NKI","A3JZ2WCG7JH1Q8","3PEG1BH7AEDCPKTV9M6N3A4F0EHKBR","","40.69999980926514","img/food2.png","75","42.19999980926514","2","0","","3","1","1,0.5,0,1,0.5,0,0.5,0,1","1,0.5,0,1,0.5,0,0.5,0,1","1",""
"","html-keyboard-response","339","133013","0.0-429.0","3FQ5JJ512MAGCDGM3EGYJO0XPK7NKI","A3JZ2WCG7JH1Q8","3PEG1BH7AEDCPKTV9M6N3A4F0EHKBR","","null","<img src=""img/food2.png"" style=""width:200px;border:14px solid red;"">","null","","","","","","","","","",""
"","image-keyboard-response","340","133049","0.0-430.0","3FQ5JJ512MAGCDGM3EGYJO0XPK7NKI","A3JZ2WCG7JH1Q8","3PEG1BH7AEDCPKTV9M6N3A4F0EHKBR","","34","img/food6.png","74","35.40000009536743","1","1","","2","1","1,0.5,0,1,0.5,0,0.5,0,1","1,0.5,0,1,0.5,0,0.5,0,1","1",""
"","html-keyboard-response","341","133351","0.0-431.0","3FQ5JJ512MAGCDGM3EGYJO0XPK7NKI","A3JZ2WCG7JH1Q8","3PEG1BH7AEDCPKTV9M6N3A4F0EHKBR","","null","<img src=""img/food6.png"" style=""width:200px; border:14px solid green;"">","null","","","","","","","","","",""
"","image-keyboard-response","342","133532","0.0-432.0","3FQ5JJ512MAGCDGM3EGYJO0XPK7NKI","A3JZ2WCG7JH1Q8","3PEG1BH7AEDCPKTV9M6N3A4F0EHKBR","","176.80000019073486","img/food6.png","74","178.80000019073486","1","1","","2","1","1,0.5,0,1,0.5,0,0.5,0,1","1,0.5,0,1,0.5,0,0.5,0,1","1",""
"","html-keyboard-response","343","133837","0.0-433.0","3FQ5JJ512MAGCDGM3EGYJO0XPK7NKI","A3JZ2WCG7JH1Q8","3PEG1BH7AEDCPKTV9M6N3A4F0EHKBR","","null","<img src=""img/food6.png"" style=""width:200px; border:14px solid green;"">","null","","","","","","","","","",""
"","image-keyboard-response","344","133853","0.0-434.0","3FQ5JJ512MAGCDGM3EGYJO0XPK7NKI","A3JZ2WCG7JH1Q8","3PEG1BH7AEDCPKTV9M6N3A4F0EHKBR","","13.700000047683716","img/food6.png","74","17.600000143051147","1","1","","2","1","1,0.5,0,1,0.5,0,0.5,0,1","1,0.5,0,1,0.5,0,0.5,0,1","1",""
"","html-keyboard-response","345","134160","0.0-435.0","3FQ5JJ512MAGCDGM3EGYJO0XPK7NKI","A3JZ2WCG7JH1Q8","3PEG1BH7AEDCPKTV9M6N3A4F0EHKBR","","null","<img src=""img/food6.png"" style=""width:200px; border:14px solid green;"">","null","","","","","","","","","",""
"","image-keyboard-response","346","134190","0.0-436.0","3FQ5JJ512MAGCDGM3EGYJO0XPK7NKI","A3JZ2WCG7JH1Q8","3PEG1BH7AEDCPKTV9M6N3A4F0EHKBR","","27.200000047683716","img/food2.png","74","28.700000047683716","1","0","","3","1","1,0.5,0,1,0.5,0,0.5,0,1","1,0.5,0,1,0.5,0,0.5,0,1","1",""
"","html-keyboard-response","347","134493","0.0-437.0","3FQ5JJ512MAGCDGM3EGYJO0XPK7NKI","A3JZ2WCG7JH1Q8","3PEG1BH7AEDCPKTV9M6N3A4F0EHKBR","","null","<img src=""img/food2.png"" style=""width:200px;border:14px solid red;"">","null","","","","","","","","","",""
"","image-keyboard-response","348","134538","0.0-438.0","3FQ5JJ512MAGCDGM3EGYJO0XPK7NKI","A3JZ2WCG7JH1Q8","3PEG1BH7AEDCPKTV9M6N3A4F0EHKBR","","42.700000047683716","img/food2.png","74","45.09999990463257","1","0","","3","1","1,0.5,0,1,0.5,0,0.5,0,1","1,0.5,0,1,0.5,0,0.5,0,1","1",""
"","html-keyboard-response","349","134853","0.0-439.0","3FQ5JJ512MAGCDGM3EGYJO0XPK7NKI","A3JZ2WCG7JH1Q8","3PEG1BH7AEDCPKTV9M6N3A4F0EHKBR","","null","<img src=""img/food2.png"" style=""width:200px;border:14px solid red;"">","null","","","","","","","","","",""
"","image-keyboard-response","350","134869","0.0-440.0","3FQ5JJ512MAGCDGM3EGYJO0XPK7NKI","A3JZ2WCG7JH1Q8","3PEG1BH7AEDCPKTV9M6N3A4F0EHKBR","","13.799999952316284","img/food2.png","74","15","1","0","","3","1","1,0.5,0,1,0.5,0,0.5,0,1","1,0.5,0,1,0.5,0,0.5,0,1","1",""
"","html-keyboard-response","351","135172","0.0-441.0","3FQ5JJ512MAGCDGM3EGYJO0XPK7NKI","A3JZ2WCG7JH1Q8","3PEG1BH7AEDCPKTV9M6N3A4F0EHKBR","","null","<img src=""img/food2.png"" style=""width:200px;border:14px solid red;"">","null","","","","","","","","","",""
"","image-keyboard-response","352","135308","0.0-442.0","3FQ5JJ512MAGCDGM3EGYJO0XPK7NKI","A3JZ2WCG7JH1Q8","3PEG1BH7AEDCPKTV9M6N3A4F0EHKBR","","134.59999990463257","img/food5.png","75","136","2","0","","1","1","1,0.5,0,1,0.5,0,0.5,0,1","1,0.5,0,1,0.5,0,0.5,0,1","1",""
"","html-keyboard-response","353","135610","0.0-443.0","3FQ5JJ512MAGCDGM3EGYJO0XPK7NKI","A3JZ2WCG7JH1Q8","3PEG1BH7AEDCPKTV9M6N3A4F0EHKBR","","null","<img src=""img/food5.png"" style=""width:200px;border:14px solid red;"">","null","","","","","","","","","",""
"","image-keyboard-response","354","135671","0.0-444.0","3FQ5JJ512MAGCDGM3EGYJO0XPK7NKI","A3JZ2WCG7JH1Q8","3PEG1BH7AEDCPKTV9M6N3A4F0EHKBR","","58.799999952316284","img/food5.png","75","61","2","1","","1","1","1,0.5,0,1,0.5,0,0.5,0,1","1,0.5,0,1,0.5,0,0.5,0,1","1",""
"","html-keyboard-response","355","135974","0.0-445.0","3FQ5JJ512MAGCDGM3EGYJO0XPK7NKI","A3JZ2WCG7JH1Q8","3PEG1BH7AEDCPKTV9M6N3A4F0EHKBR","","null","<img src=""img/food5.png"" style=""width:200px; border:14px solid green;"">","null","","","","","","","","","",""
"","image-keyboard-response","356","136150","0.0-446.0","3FQ5JJ512MAGCDGM3EGYJO0XPK7NKI","A3JZ2WCG7JH1Q8","3PEG1BH7AEDCPKTV9M6N3A4F0EHKBR","","173.20000004768372","img/food5.png","76","175.29999995231628","3","0","","1","1","1,0.5,0,1,0.5,0,0.5,0,1","1,0.5,0,1,0.5,0,0.5,0,1","1",""
"","html-keyboard-response","357","136453","0.0-447.0","3FQ5JJ512MAGCDGM3EGYJO0XPK7NKI","A3JZ2WCG7JH1Q8","3PEG1BH7AEDCPKTV9M6N3A4F0EHKBR","","null","<img src=""img/food5.png"" style=""width:200px;border:14px solid red;"">","null","","","","","","","","","",""
"","image-keyboard-response","358","136470","0.0-448.0","3FQ5JJ512MAGCDGM3EGYJO0XPK7NKI","A3JZ2WCG7JH1Q8","3PEG1BH7AEDCPKTV9M6N3A4F0EHKBR","","15.599999904632568","img/food2.png","76","16.799999952316284","3","1","","3","1","1,0.5,0,1,0.5,0,0.5,0,1","1,0.5,0,1,0.5,0,0.5,0,1","1",""
"","html-keyboard-response","359","136774","0.0-449.0","3FQ5JJ512MAGCDGM3EGYJO0XPK7NKI","A3JZ2WCG7JH1Q8","3PEG1BH7AEDCPKTV9M6N3A4F0EHKBR","","null","<img src=""img/food2.png"" style=""width:200px; border:14px solid green;"">","null","","","","","","","","","",""
"","image-keyboard-response","360","136810","0.0-450.0","3FQ5JJ512MAGCDGM3EGYJO0XPK7NKI","A3JZ2WCG7JH1Q8","3PEG1BH7AEDCPKTV9M6N3A4F0EHKBR","","34.5","img/food6.png","75","36.39999985694885","2","0","","2","1","1,0.5,0,1,0.5,0,0.5,0,1","1,0.5,0,1,0.5,0,0.5,0,1","1",""
"","html-keyboard-response","361","137113","0.0-451.0","3FQ5JJ512MAGCDGM3EGYJO0XPK7NKI","A3JZ2WCG7JH1Q8","3PEG1BH7AEDCPKTV9M6N3A4F0EHKBR","","null","<img src=""img/food6.png"" style=""width:200px;border:14px solid red;"">","null","","","","","","","","","",""
"","image-keyboard-response","362","137131","0.0-452.0","3FQ5JJ512MAGCDGM3EGYJO0XPK7NKI","A3JZ2WCG7JH1Q8","3PEG1BH7AEDCPKTV9M6N3A4F0EHKBR","","15.299999952316284","img/food5.png","74","16.899999856948853","1","1","","1","1","1,0.5,0,1,0.5,0,0.5,0,1","1,0.5,0,1,0.5,0,0.5,0,1","1",""
"","html-keyboard-response","363","137434","0.0-453.0","3FQ5JJ512MAGCDGM3EGYJO0XPK7NKI","A3JZ2WCG7JH1Q8","3PEG1BH7AEDCPKTV9M6N3A4F0EHKBR","","null","<img src=""img/food5.png"" style=""width:200px; border:14px solid green;"">","null","","","","","","","","","",""
"","html-keyboard-response","364","140077","0.0-454.0","3FQ5JJ512MAGCDGM3EGYJO0XPK7NKI","A3JZ2WCG7JH1Q8","3PEG1BH7AEDCPKTV9M6N3A4F0EHKBR","","","","","","","","","","","","","",""
"","instructions","365","142330","0.0-455.0","3FQ5JJ512MAGCDGM3EGYJO0XPK7NKI","A3JZ2WCG7JH1Q8","3PEG1BH7AEDCPKTV9M6N3A4F0EHKBR","[{""page_index"":0,""viewing_time"":2250.5}]","2251.199999809265","","","","","","","","","","","",""
"","survey-text","366","156593","0.0-456.0","3FQ5JJ512MAGCDGM3EGYJO0XPK7NKI","A3JZ2WCG7JH1Q8","3PEG1BH7AEDCPKTV9M6N3A4F0EHKBR","","14249.900000095367","","","","","","","","","","","","{""Q0"":""A3JZ2WCG7JH1Q8""}"
