"success","trial_type","trial_index","time_elapsed","internal_node_id","assignmentID","mturkID","hitID","view_history","rt","stimulus","key_press","reactionTime","a","r","s","cond","reward_cond","reward_cond_actual","reward_matrix_idx","warning","responses"
"true","fullscreen","0","5267","0.0-0.0","3TESA3PJ32W5KJVPCPEELM319ZHMMB","A3KIDRWRKC7RI5","36U4VBVNQOZD8NFWZXWF9CIHKRIURB","","","","","","","","","","","","","",""
"","instructions","1","46620","0.0-1.0","3TESA3PJ32W5KJVPCPEELM319ZHMMB","A3KIDRWRKC7RI5","36U4VBVNQOZD8NFWZXWF9CIHKRIURB","[{""page_index"":0,""viewing_time"":6710.20000000298},{""page_index"":1,""viewing_time"":3935.6999999955297},{""page_index"":2,""viewing_time"":6343.5},{""page_index"":3,""viewing_time"":12270.10000000149},{""page_index"":4,""viewing_time"":3278.2999999970198},{""page_index"":5,""viewing_time"":5479.5},{""page_index"":6,""viewing_time"":3330.5}]","41348.60000000149","","","","","","","","","","","",""
"","image-keyboard-response","2","47772","0.0-2.0","3TESA3PJ32W5KJVPCPEELM319ZHMMB","A3KIDRWRKC7RI5","36U4VBVNQOZD8NFWZXWF9CIHKRIURB","","1149.1000000014901","img/food6.png","74","1152","1","1","2","1","1,0.5,0,1,0.5,0,0.5,0,1","0.5,0,1,0.5,0,1,0,1,0.5","2","",""
"","html-keyboard-response","3","48077","0.0-3.0","3TESA3PJ32W5KJVPCPEELM319ZHMMB","A3KIDRWRKC7RI5","36U4VBVNQOZD8NFWZXWF9CIHKRIURB","","null","<img src=""img/food6.png"" style=""width:200px; border:14px solid green;"">","null","","","","","","","","","",""
"","image-keyboard-response","4","49213","0.0-4.0","3TESA3PJ32W5KJVPCPEELM319ZHMMB","A3KIDRWRKC7RI5","36U4VBVNQOZD8NFWZXWF9CIHKRIURB","","1132.8999999985099","img/food5.png","75","1134.6999999955297","2","0","1","1","1,0.5,0,1,0.5,0,0.5,0,1","0.5,0,1,0.5,0,1,0,1,0.5","2","",""
"","html-keyboard-response","5","49517","0.0-5.0","3TESA3PJ32W5KJVPCPEELM319ZHMMB","A3KIDRWRKC7RI5","36U4VBVNQOZD8NFWZXWF9CIHKRIURB","","null","<img src=""img/food5.png"" style=""width:200px;border:14px solid red;"">","null","","","","","","","","","",""
"","image-keyboard-response","6","50841","0.0-6.0","3TESA3PJ32W5KJVPCPEELM319ZHMMB","A3KIDRWRKC7RI5","36U4VBVNQOZD8NFWZXWF9CIHKRIURB","","1321.2000000029802","img/food5.png","75","1322.8999999985099","2","0","1","1","1,0.5,0,1,0.5,0,0.5,0,1","0.5,0,1,0.5,0,1,0,1,0.5","2","",""
"","html-keyboard-response","7","51144","0.0-7.0","3TESA3PJ32W5KJVPCPEELM319ZHMMB","A3KIDRWRKC7RI5","36U4VBVNQOZD8NFWZXWF9CIHKRIURB","","null","<img src=""img/food5.png"" style=""width:200px;border:14px solid red;"">","null","","","","","","","","","",""
"","image-keyboard-response","8","52296","0.0-8.0","3TESA3PJ32W5KJVPCPEELM319ZHMMB","A3KIDRWRKC7RI5","36U4VBVNQOZD8NFWZXWF9CIHKRIURB","","1150.6999999955297","img/food6.png","74","1152","1","0","2","1","1,0.5,0,1,0.5,0,0.5,0,1","0.5,0,1,0.5,0,1,0,1,0.5","2","",""
"","html-keyboard-response","9","52601","0.0-9.0","3TESA3PJ32W5KJVPCPEELM319ZHMMB","A3KIDRWRKC7RI5","36U4VBVNQOZD8NFWZXWF9CIHKRIURB","","null","<img src=""img/food6.png"" style=""width:200px;border:14px solid red;"">","null","","","","","","","","","",""
"","image-keyboard-response","10","54200","0.0-10.0","3TESA3PJ32W5KJVPCPEELM319ZHMMB","A3KIDRWRKC7RI5","36U4VBVNQOZD8NFWZXWF9CIHKRIURB","","1596.4000000059605","img/food5.png","76","1598.3999999985099","3","1","1","1","1,0.5,0,1,0.5,0,0.5,0,1","0.5,0,1,0.5,0,1,0,1,0.5","2","",""
"","html-keyboard-response","11","54502","0.0-11.0","3TESA3PJ32W5KJVPCPEELM319ZHMMB","A3KIDRWRKC7RI5","36U4VBVNQOZD8NFWZXWF9CIHKRIURB","","null","<img src=""img/food5.png"" style=""width:200px; border:14px solid green;"">","null","","","","","","","","","",""
"","image-keyboard-response","12","55687","0.0-12.0","3TESA3PJ32W5KJVPCPEELM319ZHMMB","A3KIDRWRKC7RI5","36U4VBVNQOZD8NFWZXWF9CIHKRIURB","","1182.0999999940395","img/food6.png","74","1183.8000000044703","1","1","2","1","1,0.5,0,1,0.5,0,0.5,0,1","0.5,0,1,0.5,0,1,0,1,0.5","2","",""
"","html-keyboard-response","13","55990","0.0-13.0","3TESA3PJ32W5KJVPCPEELM319ZHMMB","A3KIDRWRKC7RI5","36U4VBVNQOZD8NFWZXWF9CIHKRIURB","","null","<img src=""img/food6.png"" style=""width:200px; border:14px solid green;"">","null","","","","","","","","","",""
"","image-keyboard-response","14","57724","0.0-14.0","3TESA3PJ32W5KJVPCPEELM319ZHMMB","A3KIDRWRKC7RI5","36U4VBVNQOZD8NFWZXWF9CIHKRIURB","","1732.1000000014901","img/food6.png","74","1733.5","1","0","2","1","1,0.5,0,1,0.5,0,0.5,0,1","0.5,0,1,0.5,0,1,0,1,0.5","2","",""
"","html-keyboard-response","15","58027","0.0-15.0","3TESA3PJ32W5KJVPCPEELM319ZHMMB","A3KIDRWRKC7RI5","36U4VBVNQOZD8NFWZXWF9CIHKRIURB","","null","<img src=""img/food6.png"" style=""width:200px;border:14px solid red;"">","null","","","","","","","","","",""
"","image-keyboard-response","16","59016","0.0-16.0","3TESA3PJ32W5KJVPCPEELM319ZHMMB","A3KIDRWRKC7RI5","36U4VBVNQOZD8NFWZXWF9CIHKRIURB","","986.8999999985099","img/food5.png","76","988.5","3","1","1","1","1,0.5,0,1,0.5,0,0.5,0,1","0.5,0,1,0.5,0,1,0,1,0.5","2","",""
"","html-keyboard-response","17","59319","0.0-17.0","3TESA3PJ32W5KJVPCPEELM319ZHMMB","A3KIDRWRKC7RI5","36U4VBVNQOZD8NFWZXWF9CIHKRIURB","","null","<img src=""img/food5.png"" style=""width:200px; border:14px solid green;"">","null","","","","","","","","","",""
"","image-keyboard-response","18","60286","0.0-18.0","3TESA3PJ32W5KJVPCPEELM319ZHMMB","A3KIDRWRKC7RI5","36U4VBVNQOZD8NFWZXWF9CIHKRIURB","","965","img/food3.png","75","966.5","2","1","3","1","1,0.5,0,1,0.5,0,0.5,0,1","0.5,0,1,0.5,0,1,0,1,0.5","2","",""
"","html-keyboard-response","19","60589","0.0-19.0","3TESA3PJ32W5KJVPCPEELM319ZHMMB","A3KIDRWRKC7RI5","36U4VBVNQOZD8NFWZXWF9CIHKRIURB","","null","<img src=""img/food3.png"" style=""width:200px; border:14px solid green;"">","null","","","","","","","","","",""
"","image-keyboard-response","20","61519","0.0-20.0","3TESA3PJ32W5KJVPCPEELM319ZHMMB","A3KIDRWRKC7RI5","36U4VBVNQOZD8NFWZXWF9CIHKRIURB","","927.1000000014901","img/food3.png","75","928.8000000044703","2","1","3","1","1,0.5,0,1,0.5,0,0.5,0,1","0.5,0,1,0.5,0,1,0,1,0.5","2","",""
"","html-keyboard-response","21","61821","0.0-21.0","3TESA3PJ32W5KJVPCPEELM319ZHMMB","A3KIDRWRKC7RI5","36U4VBVNQOZD8NFWZXWF9CIHKRIURB","","null","<img src=""img/food3.png"" style=""width:200px; border:14px solid green;"">","null","","","","","","","","","",""
"","image-keyboard-response","22","62775","0.0-22.0","3TESA3PJ32W5KJVPCPEELM319ZHMMB","A3KIDRWRKC7RI5","36U4VBVNQOZD8NFWZXWF9CIHKRIURB","","951.5","img/food5.png","76","953.2000000029802","3","1","1","1","1,0.5,0,1,0.5,0,0.5,0,1","0.5,0,1,0.5,0,1,0,1,0.5","2","",""
"","html-keyboard-response","23","63078","0.0-23.0","3TESA3PJ32W5KJVPCPEELM319ZHMMB","A3KIDRWRKC7RI5","36U4VBVNQOZD8NFWZXWF9CIHKRIURB","","null","<img src=""img/food5.png"" style=""width:200px; border:14px solid green;"">","null","","","","","","","","","",""
"","image-keyboard-response","24","64169","0.0-24.0","3TESA3PJ32W5KJVPCPEELM319ZHMMB","A3KIDRWRKC7RI5","36U4VBVNQOZD8NFWZXWF9CIHKRIURB","","1089.2000000029802","img/food6.png","74","1090.6999999955297","1","0","2","1","1,0.5,0,1,0.5,0,0.5,0,1","0.5,0,1,0.5,0,1,0,1,0.5","2","",""
"","html-keyboard-response","25","64472","0.0-25.0","3TESA3PJ32W5KJVPCPEELM319ZHMMB","A3KIDRWRKC7RI5","36U4VBVNQOZD8NFWZXWF9CIHKRIURB","","null","<img src=""img/food6.png"" style=""width:200px;border:14px solid red;"">","null","","","","","","","","","",""
"","image-keyboard-response","26","65471","0.0-26.0","3TESA3PJ32W5KJVPCPEELM319ZHMMB","A3KIDRWRKC7RI5","36U4VBVNQOZD8NFWZXWF9CIHKRIURB","","996.7000000029802","img/food6.png","74","998.2000000029802","1","1","2","1","1,0.5,0,1,0.5,0,0.5,0,1","0.5,0,1,0.5,0,1,0,1,0.5","2","",""
"","html-keyboard-response","27","65774","0.0-27.0","3TESA3PJ32W5KJVPCPEELM319ZHMMB","A3KIDRWRKC7RI5","36U4VBVNQOZD8NFWZXWF9CIHKRIURB","","null","<img src=""img/food6.png"" style=""width:200px; border:14px solid green;"">","null","","","","","","","","","",""
"","image-keyboard-response","28","66840","0.0-28.0","3TESA3PJ32W5KJVPCPEELM319ZHMMB","A3KIDRWRKC7RI5","36U4VBVNQOZD8NFWZXWF9CIHKRIURB","","1063.6000000014901","img/food6.png","74","1065.5","1","0","2","1","1,0.5,0,1,0.5,0,0.5,0,1","0.5,0,1,0.5,0,1,0,1,0.5","2","",""
"","html-keyboard-response","29","67143","0.0-29.0","3TESA3PJ32W5KJVPCPEELM319ZHMMB","A3KIDRWRKC7RI5","36U4VBVNQOZD8NFWZXWF9CIHKRIURB","","null","<img src=""img/food6.png"" style=""width:200px;border:14px solid red;"">","null","","","","","","","","","",""
"","image-keyboard-response","30","68710","0.0-30.0","3TESA3PJ32W5KJVPCPEELM319ZHMMB","A3KIDRWRKC7RI5","36U4VBVNQOZD8NFWZXWF9CIHKRIURB","","1565.4000000059605","img/food3.png","75","1566.8999999985099","2","1","3","1","1,0.5,0,1,0.5,0,0.5,0,1","0.5,0,1,0.5,0,1,0,1,0.5","2","",""
"","html-keyboard-response","31","69013","0.0-31.0","3TESA3PJ32W5KJVPCPEELM319ZHMMB","A3KIDRWRKC7RI5","36U4VBVNQOZD8NFWZXWF9CIHKRIURB","","null","<img src=""img/food3.png"" style=""width:200px; border:14px solid green;"">","null","","","","","","","","","",""
"","image-keyboard-response","32","70614","0.0-32.0","3TESA3PJ32W5KJVPCPEELM319ZHMMB","A3KIDRWRKC7RI5","36U4VBVNQOZD8NFWZXWF9CIHKRIURB","","1599.3999999985099","img/food3.png","75","1600.8999999985099","2","1","3","1","1,0.5,0,1,0.5,0,0.5,0,1","0.5,0,1,0.5,0,1,0,1,0.5","2","",""
"","html-keyboard-response","33","70918","0.0-33.0","3TESA3PJ32W5KJVPCPEELM319ZHMMB","A3KIDRWRKC7RI5","36U4VBVNQOZD8NFWZXWF9CIHKRIURB","","null","<img src=""img/food3.png"" style=""width:200px; border:14px solid green;"">","null","","","","","","","","","",""
"","image-keyboard-response","34","71904","0.0-34.0","3TESA3PJ32W5KJVPCPEELM319ZHMMB","A3KIDRWRKC7RI5","36U4VBVNQOZD8NFWZXWF9CIHKRIURB","","984","img/food3.png","75","985.5","2","1","3","1","1,0.5,0,1,0.5,0,0.5,0,1","0.5,0,1,0.5,0,1,0,1,0.5","2","",""
"","html-keyboard-response","35","72206","0.0-35.0","3TESA3PJ32W5KJVPCPEELM319ZHMMB","A3KIDRWRKC7RI5","36U4VBVNQOZD8NFWZXWF9CIHKRIURB","","null","<img src=""img/food3.png"" style=""width:200px; border:14px solid green;"">","null","","","","","","","","","",""
"","image-keyboard-response","36","73280","0.0-36.0","3TESA3PJ32W5KJVPCPEELM319ZHMMB","A3KIDRWRKC7RI5","36U4VBVNQOZD8NFWZXWF9CIHKRIURB","","1071.5999999940395","img/food3.png","75","1073","2","1","3","1","1,0.5,0,1,0.5,0,0.5,0,1","0.5,0,1,0.5,0,1,0,1,0.5","2","",""
"","html-keyboard-response","37","73582","0.0-37.0","3TESA3PJ32W5KJVPCPEELM319ZHMMB","A3KIDRWRKC7RI5","36U4VBVNQOZD8NFWZXWF9CIHKRIURB","","null","<img src=""img/food3.png"" style=""width:200px; border:14px solid green;"">","null","","","","","","","","","",""
"","image-keyboard-response","38","74696","0.0-38.0","3TESA3PJ32W5KJVPCPEELM319ZHMMB","A3KIDRWRKC7RI5","36U4VBVNQOZD8NFWZXWF9CIHKRIURB","","1111.5","img/food6.png","75","1113.1000000014901","2","0","2","1","1,0.5,0,1,0.5,0,0.5,0,1","0.5,0,1,0.5,0,1,0,1,0.5","2","",""
"","html-keyboard-response","39","74999","0.0-39.0","3TESA3PJ32W5KJVPCPEELM319ZHMMB","A3KIDRWRKC7RI5","36U4VBVNQOZD8NFWZXWF9CIHKRIURB","","null","<img src=""img/food6.png"" style=""width:200px;border:14px solid red;"">","null","","","","","","","","","",""
"","image-keyboard-response","40","76001","0.0-40.0","3TESA3PJ32W5KJVPCPEELM319ZHMMB","A3KIDRWRKC7RI5","36U4VBVNQOZD8NFWZXWF9CIHKRIURB","","999.9000000059605","img/food3.png","75","1001.3999999985099","2","1","3","1","1,0.5,0,1,0.5,0,0.5,0,1","0.5,0,1,0.5,0,1,0,1,0.5","2","",""
"","html-keyboard-response","41","76304","0.0-41.0","3TESA3PJ32W5KJVPCPEELM319ZHMMB","A3KIDRWRKC7RI5","36U4VBVNQOZD8NFWZXWF9CIHKRIURB","","null","<img src=""img/food3.png"" style=""width:200px; border:14px solid green;"">","null","","","","","","","","","",""
"","image-keyboard-response","42","77189","0.0-42.0","3TESA3PJ32W5KJVPCPEELM319ZHMMB","A3KIDRWRKC7RI5","36U4VBVNQOZD8NFWZXWF9CIHKRIURB","","882.7999999970198","img/food3.png","75","884.3000000044703","2","1","3","1","1,0.5,0,1,0.5,0,0.5,0,1","0.5,0,1,0.5,0,1,0,1,0.5","2","",""
"","html-keyboard-response","43","77492","0.0-43.0","3TESA3PJ32W5KJVPCPEELM319ZHMMB","A3KIDRWRKC7RI5","36U4VBVNQOZD8NFWZXWF9CIHKRIURB","","null","<img src=""img/food3.png"" style=""width:200px; border:14px solid green;"">","null","","","","","","","","","",""
"","image-keyboard-response","44","78301","0.0-44.0","3TESA3PJ32W5KJVPCPEELM319ZHMMB","A3KIDRWRKC7RI5","36U4VBVNQOZD8NFWZXWF9CIHKRIURB","","807.7999999970198","img/food5.png","76","809.3999999985099","3","1","1","1","1,0.5,0,1,0.5,0,0.5,0,1","0.5,0,1,0.5,0,1,0,1,0.5","2","",""
"","html-keyboard-response","45","78604","0.0-45.0","3TESA3PJ32W5KJVPCPEELM319ZHMMB","A3KIDRWRKC7RI5","36U4VBVNQOZD8NFWZXWF9CIHKRIURB","","null","<img src=""img/food5.png"" style=""width:200px; border:14px solid green;"">","null","","","","","","","","","",""
"","image-keyboard-response","46","79315","0.0-46.0","3TESA3PJ32W5KJVPCPEELM319ZHMMB","A3KIDRWRKC7RI5","36U4VBVNQOZD8NFWZXWF9CIHKRIURB","","708.8999999985099","img/food5.png","76","710.6000000014901","3","1","1","1","1,0.5,0,1,0.5,0,0.5,0,1","0.5,0,1,0.5,0,1,0,1,0.5","2","",""
"","html-keyboard-response","47","79618","0.0-47.0","3TESA3PJ32W5KJVPCPEELM319ZHMMB","A3KIDRWRKC7RI5","36U4VBVNQOZD8NFWZXWF9CIHKRIURB","","null","<img src=""img/food5.png"" style=""width:200px; border:14px solid green;"">","null","","","","","","","","","",""
"","image-keyboard-response","48","80500","0.0-48.0","3TESA3PJ32W5KJVPCPEELM319ZHMMB","A3KIDRWRKC7RI5","36U4VBVNQOZD8NFWZXWF9CIHKRIURB","","880.1000000014901","img/food3.png","75","881.5","2","1","3","1","1,0.5,0,1,0.5,0,0.5,0,1","0.5,0,1,0.5,0,1,0,1,0.5","2","",""
"","html-keyboard-response","49","80802","0.0-49.0","3TESA3PJ32W5KJVPCPEELM319ZHMMB","A3KIDRWRKC7RI5","36U4VBVNQOZD8NFWZXWF9CIHKRIURB","","null","<img src=""img/food3.png"" style=""width:200px; border:14px solid green;"">","null","","","","","","","","","",""
"","image-keyboard-response","50","81569","0.0-50.0","3TESA3PJ32W5KJVPCPEELM319ZHMMB","A3KIDRWRKC7RI5","36U4VBVNQOZD8NFWZXWF9CIHKRIURB","","764.7000000029802","img/food3.png","75","766.2000000029802","2","1","3","1","1,0.5,0,1,0.5,0,0.5,0,1","0.5,0,1,0.5,0,1,0,1,0.5","2","",""
"","html-keyboard-response","51","81872","0.0-51.0","3TESA3PJ32W5KJVPCPEELM319ZHMMB","A3KIDRWRKC7RI5","36U4VBVNQOZD8NFWZXWF9CIHKRIURB","","null","<img src=""img/food3.png"" style=""width:200px; border:14px solid green;"">","null","","","","","","","","","",""
"","image-keyboard-response","52","82588","0.0-52.0","3TESA3PJ32W5KJVPCPEELM319ZHMMB","A3KIDRWRKC7RI5","36U4VBVNQOZD8NFWZXWF9CIHKRIURB","","714.2000000029802","img/food6.png","76","715.7000000029802","3","1","2","1","1,0.5,0,1,0.5,0,0.5,0,1","0.5,0,1,0.5,0,1,0,1,0.5","2","",""
"","html-keyboard-response","53","82892","0.0-53.0","3TESA3PJ32W5KJVPCPEELM319ZHMMB","A3KIDRWRKC7RI5","36U4VBVNQOZD8NFWZXWF9CIHKRIURB","","null","<img src=""img/food6.png"" style=""width:200px; border:14px solid green;"">","null","","","","","","","","","",""
"","image-keyboard-response","54","83874","0.0-54.0","3TESA3PJ32W5KJVPCPEELM319ZHMMB","A3KIDRWRKC7RI5","36U4VBVNQOZD8NFWZXWF9CIHKRIURB","","980.6999999955297","img/food5.png","76","982.1000000014901","3","1","1","1","1,0.5,0,1,0.5,0,0.5,0,1","0.5,0,1,0.5,0,1,0,1,0.5","2","",""
"","html-keyboard-response","55","84177","0.0-55.0","3TESA3PJ32W5KJVPCPEELM319ZHMMB","A3KIDRWRKC7RI5","36U4VBVNQOZD8NFWZXWF9CIHKRIURB","","null","<img src=""img/food5.png"" style=""width:200px; border:14px solid green;"">","null","","","","","","","","","",""
"","image-keyboard-response","56","84929","0.0-56.0","3TESA3PJ32W5KJVPCPEELM319ZHMMB","A3KIDRWRKC7RI5","36U4VBVNQOZD8NFWZXWF9CIHKRIURB","","749.8999999985099","img/food5.png","76","751.6000000014901","3","1","1","1","1,0.5,0,1,0.5,0,0.5,0,1","0.5,0,1,0.5,0,1,0,1,0.5","2","",""
"","html-keyboard-response","57","85232","0.0-57.0","3TESA3PJ32W5KJVPCPEELM319ZHMMB","A3KIDRWRKC7RI5","36U4VBVNQOZD8NFWZXWF9CIHKRIURB","","null","<img src=""img/food5.png"" style=""width:200px; border:14px solid green;"">","null","","","","","","","","","",""
"","image-keyboard-response","58","86011","0.0-58.0","3TESA3PJ32W5KJVPCPEELM319ZHMMB","A3KIDRWRKC7RI5","36U4VBVNQOZD8NFWZXWF9CIHKRIURB","","777","img/food5.png","76","778.5","3","1","1","1","1,0.5,0,1,0.5,0,0.5,0,1","0.5,0,1,0.5,0,1,0,1,0.5","2","",""
"","html-keyboard-response","59","86314","0.0-59.0","3TESA3PJ32W5KJVPCPEELM319ZHMMB","A3KIDRWRKC7RI5","36U4VBVNQOZD8NFWZXWF9CIHKRIURB","","null","<img src=""img/food5.png"" style=""width:200px; border:14px solid green;"">","null","","","","","","","","","",""
"","image-keyboard-response","60","87118","0.0-60.0","3TESA3PJ32W5KJVPCPEELM319ZHMMB","A3KIDRWRKC7RI5","36U4VBVNQOZD8NFWZXWF9CIHKRIURB","","802.1999999955297","img/food6.png","76","803.6000000014901","3","1","2","1","1,0.5,0,1,0.5,0,0.5,0,1","0.5,0,1,0.5,0,1,0,1,0.5","2","",""
"","html-keyboard-response","61","87421","0.0-61.0","3TESA3PJ32W5KJVPCPEELM319ZHMMB","A3KIDRWRKC7RI5","36U4VBVNQOZD8NFWZXWF9CIHKRIURB","","null","<img src=""img/food6.png"" style=""width:200px; border:14px solid green;"">","null","","","","","","","","","",""
"","image-keyboard-response","62","88190","0.0-62.0","3TESA3PJ32W5KJVPCPEELM319ZHMMB","A3KIDRWRKC7RI5","36U4VBVNQOZD8NFWZXWF9CIHKRIURB","","766.5","img/food6.png","76","768.3999999985099","3","1","2","1","1,0.5,0,1,0.5,0,0.5,0,1","0.5,0,1,0.5,0,1,0,1,0.5","2","",""
"","html-keyboard-response","63","88492","0.0-63.0","3TESA3PJ32W5KJVPCPEELM319ZHMMB","A3KIDRWRKC7RI5","36U4VBVNQOZD8NFWZXWF9CIHKRIURB","","null","<img src=""img/food6.png"" style=""width:200px; border:14px solid green;"">","null","","","","","","","","","",""
"","image-keyboard-response","64","89261","0.0-64.0","3TESA3PJ32W5KJVPCPEELM319ZHMMB","A3KIDRWRKC7RI5","36U4VBVNQOZD8NFWZXWF9CIHKRIURB","","766.8999999985099","img/food5.png","76","768.5","3","1","1","1","1,0.5,0,1,0.5,0,0.5,0,1","0.5,0,1,0.5,0,1,0,1,0.5","2","",""
"","html-keyboard-response","65","89564","0.0-65.0","3TESA3PJ32W5KJVPCPEELM319ZHMMB","A3KIDRWRKC7RI5","36U4VBVNQOZD8NFWZXWF9CIHKRIURB","","null","<img src=""img/food5.png"" style=""width:200px; border:14px solid green;"">","null","","","","","","","","","",""
"","image-keyboard-response","66","90303","0.0-66.0","3TESA3PJ32W5KJVPCPEELM319ZHMMB","A3KIDRWRKC7RI5","36U4VBVNQOZD8NFWZXWF9CIHKRIURB","","737.5","img/food5.png","76","738.7999999970198","3","1","1","1","1,0.5,0,1,0.5,0,0.5,0,1","0.5,0,1,0.5,0,1,0,1,0.5","2","",""
"","html-keyboard-response","67","90620","0.0-67.0","3TESA3PJ32W5KJVPCPEELM319ZHMMB","A3KIDRWRKC7RI5","36U4VBVNQOZD8NFWZXWF9CIHKRIURB","","null","<img src=""img/food5.png"" style=""width:200px; border:14px solid green;"">","null","","","","","","","","","",""
"","image-keyboard-response","68","91399","0.0-68.0","3TESA3PJ32W5KJVPCPEELM319ZHMMB","A3KIDRWRKC7RI5","36U4VBVNQOZD8NFWZXWF9CIHKRIURB","","776.6999999955297","img/food3.png","75","778.1000000014901","2","1","3","1","1,0.5,0,1,0.5,0,0.5,0,1","0.5,0,1,0.5,0,1,0,1,0.5","2","",""
"","html-keyboard-response","69","91702","0.0-69.0","3TESA3PJ32W5KJVPCPEELM319ZHMMB","A3KIDRWRKC7RI5","36U4VBVNQOZD8NFWZXWF9CIHKRIURB","","null","<img src=""img/food3.png"" style=""width:200px; border:14px solid green;"">","null","","","","","","","","","",""
"","image-keyboard-response","70","92607","0.0-70.0","3TESA3PJ32W5KJVPCPEELM319ZHMMB","A3KIDRWRKC7RI5","36U4VBVNQOZD8NFWZXWF9CIHKRIURB","","902.6000000014901","img/food3.png","75","904.2999999970198","2","1","3","1","1,0.5,0,1,0.5,0,0.5,0,1","0.5,0,1,0.5,0,1,0,1,0.5","2","",""
"","html-keyboard-response","71","92910","0.0-71.0","3TESA3PJ32W5KJVPCPEELM319ZHMMB","A3KIDRWRKC7RI5","36U4VBVNQOZD8NFWZXWF9CIHKRIURB","","null","<img src=""img/food3.png"" style=""width:200px; border:14px solid green;"">","null","","","","","","","","","",""
"","image-keyboard-response","72","93745","0.0-72.0","3TESA3PJ32W5KJVPCPEELM319ZHMMB","A3KIDRWRKC7RI5","36U4VBVNQOZD8NFWZXWF9CIHKRIURB","","833.2000000029802","img/food3.png","75","834.8000000044703","2","1","3","1","1,0.5,0,1,0.5,0,0.5,0,1","0.5,0,1,0.5,0,1,0,1,0.5","2","",""
"","html-keyboard-response","73","94049","0.0-73.0","3TESA3PJ32W5KJVPCPEELM319ZHMMB","A3KIDRWRKC7RI5","36U4VBVNQOZD8NFWZXWF9CIHKRIURB","","null","<img src=""img/food3.png"" style=""width:200px; border:14px solid green;"">","null","","","","","","","","","",""
"","image-keyboard-response","74","94871","0.0-74.0","3TESA3PJ32W5KJVPCPEELM319ZHMMB","A3KIDRWRKC7RI5","36U4VBVNQOZD8NFWZXWF9CIHKRIURB","","820.3999999985099","img/food6.png","76","822","3","1","2","1","1,0.5,0,1,0.5,0,0.5,0,1","0.5,0,1,0.5,0,1,0,1,0.5","2","",""
"","html-keyboard-response","75","95173","0.0-75.0","3TESA3PJ32W5KJVPCPEELM319ZHMMB","A3KIDRWRKC7RI5","36U4VBVNQOZD8NFWZXWF9CIHKRIURB","","null","<img src=""img/food6.png"" style=""width:200px; border:14px solid green;"">","null","","","","","","","","","",""
"","image-keyboard-response","76","95896","0.0-76.0","3TESA3PJ32W5KJVPCPEELM319ZHMMB","A3KIDRWRKC7RI5","36U4VBVNQOZD8NFWZXWF9CIHKRIURB","","720.2999999970198","img/food6.png","76","721.9000000059605","3","1","2","1","1,0.5,0,1,0.5,0,0.5,0,1","0.5,0,1,0.5,0,1,0,1,0.5","2","",""
"","html-keyboard-response","77","96199","0.0-77.0","3TESA3PJ32W5KJVPCPEELM319ZHMMB","A3KIDRWRKC7RI5","36U4VBVNQOZD8NFWZXWF9CIHKRIURB","","null","<img src=""img/food6.png"" style=""width:200px; border:14px solid green;"">","null","","","","","","","","","",""
"","image-keyboard-response","78","97010","0.0-78.0","3TESA3PJ32W5KJVPCPEELM319ZHMMB","A3KIDRWRKC7RI5","36U4VBVNQOZD8NFWZXWF9CIHKRIURB","","808.9000000059605","img/food6.png","76","810.5","3","1","2","1","1,0.5,0,1,0.5,0,0.5,0,1","0.5,0,1,0.5,0,1,0,1,0.5","2","",""
"","html-keyboard-response","79","97312","0.0-79.0","3TESA3PJ32W5KJVPCPEELM319ZHMMB","A3KIDRWRKC7RI5","36U4VBVNQOZD8NFWZXWF9CIHKRIURB","","null","<img src=""img/food6.png"" style=""width:200px; border:14px solid green;"">","null","","","","","","","","","",""
"","image-keyboard-response","80","98127","0.0-80.0","3TESA3PJ32W5KJVPCPEELM319ZHMMB","A3KIDRWRKC7RI5","36U4VBVNQOZD8NFWZXWF9CIHKRIURB","","812.6000000014901","img/food5.png","76","814.1000000014901","3","1","1","1","1,0.5,0,1,0.5,0,0.5,0,1","0.5,0,1,0.5,0,1,0,1,0.5","2","",""
"","html-keyboard-response","81","98430","0.0-81.0","3TESA3PJ32W5KJVPCPEELM319ZHMMB","A3KIDRWRKC7RI5","36U4VBVNQOZD8NFWZXWF9CIHKRIURB","","null","<img src=""img/food5.png"" style=""width:200px; border:14px solid green;"">","null","","","","","","","","","",""
"","image-keyboard-response","82","99208","0.0-82.0","3TESA3PJ32W5KJVPCPEELM319ZHMMB","A3KIDRWRKC7RI5","36U4VBVNQOZD8NFWZXWF9CIHKRIURB","","776.2000000029802","img/food3.png","75","777.8999999985099","2","1","3","1","1,0.5,0,1,0.5,0,0.5,0,1","0.5,0,1,0.5,0,1,0,1,0.5","2","",""
"","html-keyboard-response","83","99511","0.0-83.0","3TESA3PJ32W5KJVPCPEELM319ZHMMB","A3KIDRWRKC7RI5","36U4VBVNQOZD8NFWZXWF9CIHKRIURB","","null","<img src=""img/food3.png"" style=""width:200px; border:14px solid green;"">","null","","","","","","","","","",""
"","image-keyboard-response","84","100260","0.0-84.0","3TESA3PJ32W5KJVPCPEELM319ZHMMB","A3KIDRWRKC7RI5","36U4VBVNQOZD8NFWZXWF9CIHKRIURB","","747.1000000014901","img/food6.png","76","748.6000000014901","3","1","2","1","1,0.5,0,1,0.5,0,0.5,0,1","0.5,0,1,0.5,0,1,0,1,0.5","2","",""
"","html-keyboard-response","85","100563","0.0-85.0","3TESA3PJ32W5KJVPCPEELM319ZHMMB","A3KIDRWRKC7RI5","36U4VBVNQOZD8NFWZXWF9CIHKRIURB","","null","<img src=""img/food6.png"" style=""width:200px; border:14px solid green;"">","null","","","","","","","","","",""
"","image-keyboard-response","86","101343","0.0-86.0","3TESA3PJ32W5KJVPCPEELM319ZHMMB","A3KIDRWRKC7RI5","36U4VBVNQOZD8NFWZXWF9CIHKRIURB","","778.1000000014901","img/food3.png","75","779.6999999955297","2","1","3","1","1,0.5,0,1,0.5,0,0.5,0,1","0.5,0,1,0.5,0,1,0,1,0.5","2","",""
"","html-keyboard-response","87","101652","0.0-87.0","3TESA3PJ32W5KJVPCPEELM319ZHMMB","A3KIDRWRKC7RI5","36U4VBVNQOZD8NFWZXWF9CIHKRIURB","","null","<img src=""img/food3.png"" style=""width:200px; border:14px solid green;"">","null","","","","","","","","","",""
"","image-keyboard-response","88","102410","0.0-88.0","3TESA3PJ32W5KJVPCPEELM319ZHMMB","A3KIDRWRKC7RI5","36U4VBVNQOZD8NFWZXWF9CIHKRIURB","","756","img/food6.png","76","757.7000000029802","3","1","2","1","1,0.5,0,1,0.5,0,0.5,0,1","0.5,0,1,0.5,0,1,0,1,0.5","2","",""
"","html-keyboard-response","89","102725","0.0-89.0","3TESA3PJ32W5KJVPCPEELM319ZHMMB","A3KIDRWRKC7RI5","36U4VBVNQOZD8NFWZXWF9CIHKRIURB","","null","<img src=""img/food6.png"" style=""width:200px; border:14px solid green;"">","null","","","","","","","","","",""
"","image-keyboard-response","90","103724","0.0-90.0","3TESA3PJ32W5KJVPCPEELM319ZHMMB","A3KIDRWRKC7RI5","36U4VBVNQOZD8NFWZXWF9CIHKRIURB","","997.2999999970198","img/food3.png","75","998.6000000014901","2","1","3","1","1,0.5,0,1,0.5,0,0.5,0,1","0.5,0,1,0.5,0,1,0,1,0.5","2","",""
"","html-keyboard-response","91","104027","0.0-91.0","3TESA3PJ32W5KJVPCPEELM319ZHMMB","A3KIDRWRKC7RI5","36U4VBVNQOZD8NFWZXWF9CIHKRIURB","","null","<img src=""img/food3.png"" style=""width:200px; border:14px solid green;"">","null","","","","","","","","","",""
"","image-keyboard-response","92","104778","0.0-92.0","3TESA3PJ32W5KJVPCPEELM319ZHMMB","A3KIDRWRKC7RI5","36U4VBVNQOZD8NFWZXWF9CIHKRIURB","","749.5","img/food5.png","76","750.7999999970198","3","1","1","1","1,0.5,0,1,0.5,0,0.5,0,1","0.5,0,1,0.5,0,1,0,1,0.5","2","",""
"","html-keyboard-response","93","105081","0.0-93.0","3TESA3PJ32W5KJVPCPEELM319ZHMMB","A3KIDRWRKC7RI5","36U4VBVNQOZD8NFWZXWF9CIHKRIURB","","null","<img src=""img/food5.png"" style=""width:200px; border:14px solid green;"">","null","","","","","","","","","",""
"","image-keyboard-response","94","105841","0.0-94.0","3TESA3PJ32W5KJVPCPEELM319ZHMMB","A3KIDRWRKC7RI5","36U4VBVNQOZD8NFWZXWF9CIHKRIURB","","757.8000000044703","img/food6.png","76","759.3999999985099","3","1","2","1","1,0.5,0,1,0.5,0,0.5,0,1","0.5,0,1,0.5,0,1,0,1,0.5","2","",""
"","html-keyboard-response","95","106145","0.0-95.0","3TESA3PJ32W5KJVPCPEELM319ZHMMB","A3KIDRWRKC7RI5","36U4VBVNQOZD8NFWZXWF9CIHKRIURB","","null","<img src=""img/food6.png"" style=""width:200px; border:14px solid green;"">","null","","","","","","","","","",""
"","image-keyboard-response","96","106906","0.0-96.0","3TESA3PJ32W5KJVPCPEELM319ZHMMB","A3KIDRWRKC7RI5","36U4VBVNQOZD8NFWZXWF9CIHKRIURB","","759","img/food6.png","76","760.6000000014901","3","1","2","1","1,0.5,0,1,0.5,0,0.5,0,1","0.5,0,1,0.5,0,1,0,1,0.5","2","",""
"","html-keyboard-response","97","107208","0.0-97.0","3TESA3PJ32W5KJVPCPEELM319ZHMMB","A3KIDRWRKC7RI5","36U4VBVNQOZD8NFWZXWF9CIHKRIURB","","null","<img src=""img/food6.png"" style=""width:200px; border:14px solid green;"">","null","","","","","","","","","",""
"","image-keyboard-response","98","108143","0.0-98.0","3TESA3PJ32W5KJVPCPEELM319ZHMMB","A3KIDRWRKC7RI5","36U4VBVNQOZD8NFWZXWF9CIHKRIURB","","932.6999999955297","img/food5.png","76","934.3000000044703","3","1","1","1","1,0.5,0,1,0.5,0,0.5,0,1","0.5,0,1,0.5,0,1,0,1,0.5","2","",""
"","html-keyboard-response","99","108445","0.0-99.0","3TESA3PJ32W5KJVPCPEELM319ZHMMB","A3KIDRWRKC7RI5","36U4VBVNQOZD8NFWZXWF9CIHKRIURB","","null","<img src=""img/food5.png"" style=""width:200px; border:14px solid green;"">","null","","","","","","","","","",""
"","image-keyboard-response","100","109280","0.0-100.0","3TESA3PJ32W5KJVPCPEELM319ZHMMB","A3KIDRWRKC7RI5","36U4VBVNQOZD8NFWZXWF9CIHKRIURB","","832.2999999970198","img/food3.png","76","833.8000000044703","3","1","3","1","1,0.5,0,1,0.5,0,0.5,0,1","0.5,0,1,0.5,0,1,0,1,0.5","2","",""
"","html-keyboard-response","101","109583","0.0-101.0","3TESA3PJ32W5KJVPCPEELM319ZHMMB","A3KIDRWRKC7RI5","36U4VBVNQOZD8NFWZXWF9CIHKRIURB","","null","<img src=""img/food3.png"" style=""width:200px; border:14px solid green;"">","null","","","","","","","","","",""
"","image-keyboard-response","102","110622","0.0-102.0","3TESA3PJ32W5KJVPCPEELM319ZHMMB","A3KIDRWRKC7RI5","36U4VBVNQOZD8NFWZXWF9CIHKRIURB","","1037.6999999955297","img/food6.png","76","1039.2000000029802","3","1","2","1","1,0.5,0,1,0.5,0,0.5,0,1","0.5,0,1,0.5,0,1,0,1,0.5","2","",""
"","html-keyboard-response","103","110925","0.0-103.0","3TESA3PJ32W5KJVPCPEELM319ZHMMB","A3KIDRWRKC7RI5","36U4VBVNQOZD8NFWZXWF9CIHKRIURB","","null","<img src=""img/food6.png"" style=""width:200px; border:14px solid green;"">","null","","","","","","","","","",""
"","image-keyboard-response","104","112355","0.0-104.0","3TESA3PJ32W5KJVPCPEELM319ZHMMB","A3KIDRWRKC7RI5","36U4VBVNQOZD8NFWZXWF9CIHKRIURB","","1427.1000000014901","img/food3.png","75","1428.7000000029802","2","1","3","1","1,0.5,0,1,0.5,0,0.5,0,1","0.5,0,1,0.5,0,1,0,1,0.5","2","",""
"","html-keyboard-response","105","112657","0.0-105.0","3TESA3PJ32W5KJVPCPEELM319ZHMMB","A3KIDRWRKC7RI5","36U4VBVNQOZD8NFWZXWF9CIHKRIURB","","null","<img src=""img/food3.png"" style=""width:200px; border:14px solid green;"">","null","","","","","","","","","",""
"","image-keyboard-response","106","113417","0.0-106.0","3TESA3PJ32W5KJVPCPEELM319ZHMMB","A3KIDRWRKC7RI5","36U4VBVNQOZD8NFWZXWF9CIHKRIURB","","757.8999999985099","img/food5.png","76","759.5","3","1","1","1","1,0.5,0,1,0.5,0,0.5,0,1","0.5,0,1,0.5,0,1,0,1,0.5","2","",""
"","html-keyboard-response","107","113720","0.0-107.0","3TESA3PJ32W5KJVPCPEELM319ZHMMB","A3KIDRWRKC7RI5","36U4VBVNQOZD8NFWZXWF9CIHKRIURB","","null","<img src=""img/food5.png"" style=""width:200px; border:14px solid green;"">","null","","","","","","","","","",""
"","image-keyboard-response","108","114470","0.0-108.0","3TESA3PJ32W5KJVPCPEELM319ZHMMB","A3KIDRWRKC7RI5","36U4VBVNQOZD8NFWZXWF9CIHKRIURB","","748","img/food5.png","76","749.5","3","1","1","1","1,0.5,0,1,0.5,0,0.5,0,1","0.5,0,1,0.5,0,1,0,1,0.5","2","",""
"","html-keyboard-response","109","114772","0.0-109.0","3TESA3PJ32W5KJVPCPEELM319ZHMMB","A3KIDRWRKC7RI5","36U4VBVNQOZD8NFWZXWF9CIHKRIURB","","null","<img src=""img/food5.png"" style=""width:200px; border:14px solid green;"">","null","","","","","","","","","",""
"","image-keyboard-response","110","115591","0.0-110.0","3TESA3PJ32W5KJVPCPEELM319ZHMMB","A3KIDRWRKC7RI5","36U4VBVNQOZD8NFWZXWF9CIHKRIURB","","816.9000000059605","img/food5.png","76","818.3999999985099","3","1","1","1","1,0.5,0,1,0.5,0,0.5,0,1","0.5,0,1,0.5,0,1,0,1,0.5","2","",""
"","html-keyboard-response","111","115894","0.0-111.0","3TESA3PJ32W5KJVPCPEELM319ZHMMB","A3KIDRWRKC7RI5","36U4VBVNQOZD8NFWZXWF9CIHKRIURB","","null","<img src=""img/food5.png"" style=""width:200px; border:14px solid green;"">","null","","","","","","","","","",""
"","image-keyboard-response","112","116664","0.0-112.0","3TESA3PJ32W5KJVPCPEELM319ZHMMB","A3KIDRWRKC7RI5","36U4VBVNQOZD8NFWZXWF9CIHKRIURB","","767.5","img/food3.png","75","769","2","1","3","1","1,0.5,0,1,0.5,0,0.5,0,1","0.5,0,1,0.5,0,1,0,1,0.5","2","",""
"","html-keyboard-response","113","116974","0.0-113.0","3TESA3PJ32W5KJVPCPEELM319ZHMMB","A3KIDRWRKC7RI5","36U4VBVNQOZD8NFWZXWF9CIHKRIURB","","null","<img src=""img/food3.png"" style=""width:200px; border:14px solid green;"">","null","","","","","","","","","",""
"","image-keyboard-response","114","117688","0.0-114.0","3TESA3PJ32W5KJVPCPEELM319ZHMMB","A3KIDRWRKC7RI5","36U4VBVNQOZD8NFWZXWF9CIHKRIURB","","712","img/food5.png","76","713.3999999985099","3","1","1","1","1,0.5,0,1,0.5,0,0.5,0,1","0.5,0,1,0.5,0,1,0,1,0.5","2","",""
"","html-keyboard-response","115","117991","0.0-115.0","3TESA3PJ32W5KJVPCPEELM319ZHMMB","A3KIDRWRKC7RI5","36U4VBVNQOZD8NFWZXWF9CIHKRIURB","","null","<img src=""img/food5.png"" style=""width:200px; border:14px solid green;"">","null","","","","","","","","","",""
"","image-keyboard-response","116","118810","0.0-116.0","3TESA3PJ32W5KJVPCPEELM319ZHMMB","A3KIDRWRKC7RI5","36U4VBVNQOZD8NFWZXWF9CIHKRIURB","","816.6000000014901","img/food3.png","75","818.3000000044703","2","1","3","1","1,0.5,0,1,0.5,0,0.5,0,1","0.5,0,1,0.5,0,1,0,1,0.5","2","",""
"","html-keyboard-response","117","119112","0.0-117.0","3TESA3PJ32W5KJVPCPEELM319ZHMMB","A3KIDRWRKC7RI5","36U4VBVNQOZD8NFWZXWF9CIHKRIURB","","null","<img src=""img/food3.png"" style=""width:200px; border:14px solid green;"">","null","","","","","","","","","",""
"","image-keyboard-response","118","119955","0.0-118.0","3TESA3PJ32W5KJVPCPEELM319ZHMMB","A3KIDRWRKC7RI5","36U4VBVNQOZD8NFWZXWF9CIHKRIURB","","841.1999999955297","img/food5.png","76","842.8000000044703","3","1","1","1","1,0.5,0,1,0.5,0,0.5,0,1","0.5,0,1,0.5,0,1,0,1,0.5","2","",""
"","html-keyboard-response","119","120258","0.0-119.0","3TESA3PJ32W5KJVPCPEELM319ZHMMB","A3KIDRWRKC7RI5","36U4VBVNQOZD8NFWZXWF9CIHKRIURB","","null","<img src=""img/food5.png"" style=""width:200px; border:14px solid green;"">","null","","","","","","","","","",""
"","image-keyboard-response","120","121169","0.0-120.0","3TESA3PJ32W5KJVPCPEELM319ZHMMB","A3KIDRWRKC7RI5","36U4VBVNQOZD8NFWZXWF9CIHKRIURB","","909","img/food3.png","75","910.7000000029802","2","1","3","1","1,0.5,0,1,0.5,0,0.5,0,1","0.5,0,1,0.5,0,1,0,1,0.5","2","",""
"","html-keyboard-response","121","121471","0.0-121.0","3TESA3PJ32W5KJVPCPEELM319ZHMMB","A3KIDRWRKC7RI5","36U4VBVNQOZD8NFWZXWF9CIHKRIURB","","null","<img src=""img/food3.png"" style=""width:200px; border:14px solid green;"">","null","","","","","","","","","",""
"","image-keyboard-response","122","122254","0.0-122.0","3TESA3PJ32W5KJVPCPEELM319ZHMMB","A3KIDRWRKC7RI5","36U4VBVNQOZD8NFWZXWF9CIHKRIURB","","780.3999999985099","img/food5.png","76","781.9000000059605","3","1","1","1","1,0.5,0,1,0.5,0,0.5,0,1","0.5,0,1,0.5,0,1,0,1,0.5","2","",""
"","html-keyboard-response","123","122559","0.0-123.0","3TESA3PJ32W5KJVPCPEELM319ZHMMB","A3KIDRWRKC7RI5","36U4VBVNQOZD8NFWZXWF9CIHKRIURB","","null","<img src=""img/food5.png"" style=""width:200px; border:14px solid green;"">","null","","","","","","","","","",""
"","image-keyboard-response","124","123296","0.0-124.0","3TESA3PJ32W5KJVPCPEELM319ZHMMB","A3KIDRWRKC7RI5","36U4VBVNQOZD8NFWZXWF9CIHKRIURB","","734.8999999985099","img/food6.png","76","736.5","3","1","2","1","1,0.5,0,1,0.5,0,0.5,0,1","0.5,0,1,0.5,0,1,0,1,0.5","2","",""
"","html-keyboard-response","125","123598","0.0-125.0","3TESA3PJ32W5KJVPCPEELM319ZHMMB","A3KIDRWRKC7RI5","36U4VBVNQOZD8NFWZXWF9CIHKRIURB","","null","<img src=""img/food6.png"" style=""width:200px; border:14px solid green;"">","null","","","","","","","","","",""
"","image-keyboard-response","126","124475","0.0-126.0","3TESA3PJ32W5KJVPCPEELM319ZHMMB","A3KIDRWRKC7RI5","36U4VBVNQOZD8NFWZXWF9CIHKRIURB","","875","img/food3.png","75","876.6000000014901","2","1","3","1","1,0.5,0,1,0.5,0,0.5,0,1","0.5,0,1,0.5,0,1,0,1,0.5","2","",""
"","html-keyboard-response","127","124779","0.0-127.0","3TESA3PJ32W5KJVPCPEELM319ZHMMB","A3KIDRWRKC7RI5","36U4VBVNQOZD8NFWZXWF9CIHKRIURB","","null","<img src=""img/food3.png"" style=""width:200px; border:14px solid green;"">","null","","","","","","","","","",""
"","image-keyboard-response","128","125574","0.0-128.0","3TESA3PJ32W5KJVPCPEELM319ZHMMB","A3KIDRWRKC7RI5","36U4VBVNQOZD8NFWZXWF9CIHKRIURB","","792.6000000014901","img/food3.png","75","794.1999999955297","2","1","3","1","1,0.5,0,1,0.5,0,0.5,0,1","0.5,0,1,0.5,0,1,0,1,0.5","2","",""
"","html-keyboard-response","129","125877","0.0-129.0","3TESA3PJ32W5KJVPCPEELM319ZHMMB","A3KIDRWRKC7RI5","36U4VBVNQOZD8NFWZXWF9CIHKRIURB","","null","<img src=""img/food3.png"" style=""width:200px; border:14px solid green;"">","null","","","","","","","","","",""
"","image-keyboard-response","130","126789","0.0-130.0","3TESA3PJ32W5KJVPCPEELM319ZHMMB","A3KIDRWRKC7RI5","36U4VBVNQOZD8NFWZXWF9CIHKRIURB","","909.8000000044703","img/food6.png","76","911.2999999970198","3","1","2","1","1,0.5,0,1,0.5,0,0.5,0,1","0.5,0,1,0.5,0,1,0,1,0.5","2","",""
"","html-keyboard-response","131","127091","0.0-131.0","3TESA3PJ32W5KJVPCPEELM319ZHMMB","A3KIDRWRKC7RI5","36U4VBVNQOZD8NFWZXWF9CIHKRIURB","","null","<img src=""img/food6.png"" style=""width:200px; border:14px solid green;"">","null","","","","","","","","","",""
"","image-keyboard-response","132","127892","0.0-132.0","3TESA3PJ32W5KJVPCPEELM319ZHMMB","A3KIDRWRKC7RI5","36U4VBVNQOZD8NFWZXWF9CIHKRIURB","","798.2000000029802","img/food6.png","76","799.7000000029802","3","1","2","1","1,0.5,0,1,0.5,0,0.5,0,1","0.5,0,1,0.5,0,1,0,1,0.5","2","",""
"","html-keyboard-response","133","128208","0.0-133.0","3TESA3PJ32W5KJVPCPEELM319ZHMMB","A3KIDRWRKC7RI5","36U4VBVNQOZD8NFWZXWF9CIHKRIURB","","null","<img src=""img/food6.png"" style=""width:200px; border:14px solid green;"">","null","","","","","","","","","",""
"","image-keyboard-response","134","128988","0.0-134.0","3TESA3PJ32W5KJVPCPEELM319ZHMMB","A3KIDRWRKC7RI5","36U4VBVNQOZD8NFWZXWF9CIHKRIURB","","777.3999999985099","img/food6.png","76","779","3","1","2","1","1,0.5,0,1,0.5,0,0.5,0,1","0.5,0,1,0.5,0,1,0,1,0.5","2","",""
"","html-keyboard-response","135","129292","0.0-135.0","3TESA3PJ32W5KJVPCPEELM319ZHMMB","A3KIDRWRKC7RI5","36U4VBVNQOZD8NFWZXWF9CIHKRIURB","","null","<img src=""img/food6.png"" style=""width:200px; border:14px solid green;"">","null","","","","","","","","","",""
"","image-keyboard-response","136","130145","0.0-136.0","3TESA3PJ32W5KJVPCPEELM319ZHMMB","A3KIDRWRKC7RI5","36U4VBVNQOZD8NFWZXWF9CIHKRIURB","","851","img/food6.png","76","852.6000000014901","3","1","2","1","1,0.5,0,1,0.5,0,0.5,0,1","0.5,0,1,0.5,0,1,0,1,0.5","2","",""
"","html-keyboard-response","137","130447","0.0-137.0","3TESA3PJ32W5KJVPCPEELM319ZHMMB","A3KIDRWRKC7RI5","36U4VBVNQOZD8NFWZXWF9CIHKRIURB","","null","<img src=""img/food6.png"" style=""width:200px; border:14px solid green;"">","null","","","","","","","","","",""
"","image-keyboard-response","138","131209","0.0-138.0","3TESA3PJ32W5KJVPCPEELM319ZHMMB","A3KIDRWRKC7RI5","36U4VBVNQOZD8NFWZXWF9CIHKRIURB","","760","img/food6.png","76","761.3999999985099","3","1","2","1","1,0.5,0,1,0.5,0,0.5,0,1","0.5,0,1,0.5,0,1,0,1,0.5","2","",""
"","html-keyboard-response","139","131512","0.0-139.0","3TESA3PJ32W5KJVPCPEELM319ZHMMB","A3KIDRWRKC7RI5","36U4VBVNQOZD8NFWZXWF9CIHKRIURB","","null","<img src=""img/food6.png"" style=""width:200px; border:14px solid green;"">","null","","","","","","","","","",""
"","image-keyboard-response","140","132288","0.0-140.0","3TESA3PJ32W5KJVPCPEELM319ZHMMB","A3KIDRWRKC7RI5","36U4VBVNQOZD8NFWZXWF9CIHKRIURB","","773.8999999985099","img/food5.png","76","775.6000000014901","3","1","1","1","1,0.5,0,1,0.5,0,0.5,0,1","0.5,0,1,0.5,0,1,0,1,0.5","2","",""
"","html-keyboard-response","141","132591","0.0-141.0","3TESA3PJ32W5KJVPCPEELM319ZHMMB","A3KIDRWRKC7RI5","36U4VBVNQOZD8NFWZXWF9CIHKRIURB","","null","<img src=""img/food5.png"" style=""width:200px; border:14px solid green;"">","null","","","","","","","","","",""
"","image-keyboard-response","142","133357","0.0-142.0","3TESA3PJ32W5KJVPCPEELM319ZHMMB","A3KIDRWRKC7RI5","36U4VBVNQOZD8NFWZXWF9CIHKRIURB","","764.8999999985099","img/food5.png","76","766.2000000029802","3","1","1","1","1,0.5,0,1,0.5,0,0.5,0,1","0.5,0,1,0.5,0,1,0,1,0.5","2","",""
"","html-keyboard-response","143","133659","0.0-143.0","3TESA3PJ32W5KJVPCPEELM319ZHMMB","A3KIDRWRKC7RI5","36U4VBVNQOZD8NFWZXWF9CIHKRIURB","","null","<img src=""img/food5.png"" style=""width:200px; border:14px solid green;"">","null","","","","","","","","","",""
"","image-keyboard-response","144","134480","0.0-144.0","3TESA3PJ32W5KJVPCPEELM319ZHMMB","A3KIDRWRKC7RI5","36U4VBVNQOZD8NFWZXWF9CIHKRIURB","","818.5","img/food6.png","76","820","3","1","2","1","1,0.5,0,1,0.5,0,0.5,0,1","0.5,0,1,0.5,0,1,0,1,0.5","2","",""
"","html-keyboard-response","145","134782","0.0-145.0","3TESA3PJ32W5KJVPCPEELM319ZHMMB","A3KIDRWRKC7RI5","36U4VBVNQOZD8NFWZXWF9CIHKRIURB","","null","<img src=""img/food6.png"" style=""width:200px; border:14px solid green;"">","null","","","","","","","","","",""
"","image-keyboard-response","146","135632","0.0-146.0","3TESA3PJ32W5KJVPCPEELM319ZHMMB","A3KIDRWRKC7RI5","36U4VBVNQOZD8NFWZXWF9CIHKRIURB","","846.8999999985099","img/food3.png","75","848.7000000029802","2","1","3","1","1,0.5,0,1,0.5,0,0.5,0,1","0.5,0,1,0.5,0,1,0,1,0.5","2","",""
"","html-keyboard-response","147","135936","0.0-147.0","3TESA3PJ32W5KJVPCPEELM319ZHMMB","A3KIDRWRKC7RI5","36U4VBVNQOZD8NFWZXWF9CIHKRIURB","","null","<img src=""img/food3.png"" style=""width:200px; border:14px solid green;"">","null","","","","","","","","","",""
"","image-keyboard-response","148","136739","0.0-148.0","3TESA3PJ32W5KJVPCPEELM319ZHMMB","A3KIDRWRKC7RI5","36U4VBVNQOZD8NFWZXWF9CIHKRIURB","","801.1999999955297","img/food3.png","75","802.7000000029802","2","1","3","1","1,0.5,0,1,0.5,0,0.5,0,1","0.5,0,1,0.5,0,1,0,1,0.5","2","",""
"","html-keyboard-response","149","137042","0.0-149.0","3TESA3PJ32W5KJVPCPEELM319ZHMMB","A3KIDRWRKC7RI5","36U4VBVNQOZD8NFWZXWF9CIHKRIURB","","null","<img src=""img/food3.png"" style=""width:200px; border:14px solid green;"">","null","","","","","","","","","",""
"","image-keyboard-response","150","137868","0.0-150.0","3TESA3PJ32W5KJVPCPEELM319ZHMMB","A3KIDRWRKC7RI5","36U4VBVNQOZD8NFWZXWF9CIHKRIURB","","823.2999999970198","img/food3.png","75","825","2","1","3","1","1,0.5,0,1,0.5,0,0.5,0,1","0.5,0,1,0.5,0,1,0,1,0.5","2","",""
"","html-keyboard-response","151","138171","0.0-151.0","3TESA3PJ32W5KJVPCPEELM319ZHMMB","A3KIDRWRKC7RI5","36U4VBVNQOZD8NFWZXWF9CIHKRIURB","","null","<img src=""img/food3.png"" style=""width:200px; border:14px solid green;"">","null","","","","","","","","","",""
"","image-keyboard-response","152","139019","0.0-152.0","3TESA3PJ32W5KJVPCPEELM319ZHMMB","A3KIDRWRKC7RI5","36U4VBVNQOZD8NFWZXWF9CIHKRIURB","","845.8000000044703","img/food3.png","75","847","2","1","3","1","1,0.5,0,1,0.5,0,0.5,0,1","0.5,0,1,0.5,0,1,0,1,0.5","2","",""
"","html-keyboard-response","153","139320","0.0-153.0","3TESA3PJ32W5KJVPCPEELM319ZHMMB","A3KIDRWRKC7RI5","36U4VBVNQOZD8NFWZXWF9CIHKRIURB","","null","<img src=""img/food3.png"" style=""width:200px; border:14px solid green;"">","null","","","","","","","","","",""
"","image-keyboard-response","154","140093","0.0-154.0","3TESA3PJ32W5KJVPCPEELM319ZHMMB","A3KIDRWRKC7RI5","36U4VBVNQOZD8NFWZXWF9CIHKRIURB","","770.6000000014901","img/food5.png","76","772.2000000029802","3","1","1","1","1,0.5,0,1,0.5,0,0.5,0,1","0.5,0,1,0.5,0,1,0,1,0.5","2","",""
"","html-keyboard-response","155","140396","0.0-155.0","3TESA3PJ32W5KJVPCPEELM319ZHMMB","A3KIDRWRKC7RI5","36U4VBVNQOZD8NFWZXWF9CIHKRIURB","","null","<img src=""img/food5.png"" style=""width:200px; border:14px solid green;"">","null","","","","","","","","","",""
"","image-keyboard-response","156","141169","0.0-156.0","3TESA3PJ32W5KJVPCPEELM319ZHMMB","A3KIDRWRKC7RI5","36U4VBVNQOZD8NFWZXWF9CIHKRIURB","","771.1999999955297","img/food6.png","76","772.6000000014901","3","1","2","1","1,0.5,0,1,0.5,0,0.5,0,1","0.5,0,1,0.5,0,1,0,1,0.5","2","",""
"","html-keyboard-response","157","141472","0.0-157.0","3TESA3PJ32W5KJVPCPEELM319ZHMMB","A3KIDRWRKC7RI5","36U4VBVNQOZD8NFWZXWF9CIHKRIURB","","null","<img src=""img/food6.png"" style=""width:200px; border:14px solid green;"">","null","","","","","","","","","",""
"","image-keyboard-response","158","142240","0.0-158.0","3TESA3PJ32W5KJVPCPEELM319ZHMMB","A3KIDRWRKC7RI5","36U4VBVNQOZD8NFWZXWF9CIHKRIURB","","765.8000000044703","img/food5.png","76","767.1999999955297","3","1","1","1","1,0.5,0,1,0.5,0,0.5,0,1","0.5,0,1,0.5,0,1,0,1,0.5","2","",""
"","html-keyboard-response","159","142542","0.0-159.0","3TESA3PJ32W5KJVPCPEELM319ZHMMB","A3KIDRWRKC7RI5","36U4VBVNQOZD8NFWZXWF9CIHKRIURB","","null","<img src=""img/food5.png"" style=""width:200px; border:14px solid green;"">","null","","","","","","","","","",""
"","image-keyboard-response","160","143364","0.0-160.0","3TESA3PJ32W5KJVPCPEELM319ZHMMB","A3KIDRWRKC7RI5","36U4VBVNQOZD8NFWZXWF9CIHKRIURB","","819.6000000014901","img/food6.png","76","821","3","1","2","1","1,0.5,0,1,0.5,0,0.5,0,1","0.5,0,1,0.5,0,1,0,1,0.5","2","",""
"","html-keyboard-response","161","143666","0.0-161.0","3TESA3PJ32W5KJVPCPEELM319ZHMMB","A3KIDRWRKC7RI5","36U4VBVNQOZD8NFWZXWF9CIHKRIURB","","null","<img src=""img/food6.png"" style=""width:200px; border:14px solid green;"">","null","","","","","","","","","",""
"","image-keyboard-response","162","144471","0.0-162.0","3TESA3PJ32W5KJVPCPEELM319ZHMMB","A3KIDRWRKC7RI5","36U4VBVNQOZD8NFWZXWF9CIHKRIURB","","802.3000000044703","img/food5.png","76","803.8999999985099","3","1","1","1","1,0.5,0,1,0.5,0,0.5,0,1","0.5,0,1,0.5,0,1,0,1,0.5","2","",""
"","html-keyboard-response","163","144773","0.0-163.0","3TESA3PJ32W5KJVPCPEELM319ZHMMB","A3KIDRWRKC7RI5","36U4VBVNQOZD8NFWZXWF9CIHKRIURB","","null","<img src=""img/food5.png"" style=""width:200px; border:14px solid green;"">","null","","","","","","","","","",""
"","image-keyboard-response","164","145556","0.0-164.0","3TESA3PJ32W5KJVPCPEELM319ZHMMB","A3KIDRWRKC7RI5","36U4VBVNQOZD8NFWZXWF9CIHKRIURB","","780.9000000059605","img/food6.png","76","782.2999999970198","3","1","2","1","1,0.5,0,1,0.5,0,0.5,0,1","0.5,0,1,0.5,0,1,0,1,0.5","2","",""
"","html-keyboard-response","165","145868","0.0-165.0","3TESA3PJ32W5KJVPCPEELM319ZHMMB","A3KIDRWRKC7RI5","36U4VBVNQOZD8NFWZXWF9CIHKRIURB","","null","<img src=""img/food6.png"" style=""width:200px; border:14px solid green;"">","null","","","","","","","","","",""
"","image-keyboard-response","166","146565","0.0-166.0","3TESA3PJ32W5KJVPCPEELM319ZHMMB","A3KIDRWRKC7RI5","36U4VBVNQOZD8NFWZXWF9CIHKRIURB","","695.1000000014901","img/food5.png","76","696.5","3","1","1","1","1,0.5,0,1,0.5,0,0.5,0,1","0.5,0,1,0.5,0,1,0,1,0.5","2","",""
"","html-keyboard-response","167","146868","0.0-167.0","3TESA3PJ32W5KJVPCPEELM319ZHMMB","A3KIDRWRKC7RI5","36U4VBVNQOZD8NFWZXWF9CIHKRIURB","","null","<img src=""img/food5.png"" style=""width:200px; border:14px solid green;"">","null","","","","","","","","","",""
"","image-keyboard-response","168","147667","0.0-168.0","3TESA3PJ32W5KJVPCPEELM319ZHMMB","A3KIDRWRKC7RI5","36U4VBVNQOZD8NFWZXWF9CIHKRIURB","","797.3999999985099","img/food3.png","75","799","2","1","3","1","1,0.5,0,1,0.5,0,0.5,0,1","0.5,0,1,0.5,0,1,0,1,0.5","2","",""
"","html-keyboard-response","169","147970","0.0-169.0","3TESA3PJ32W5KJVPCPEELM319ZHMMB","A3KIDRWRKC7RI5","36U4VBVNQOZD8NFWZXWF9CIHKRIURB","","null","<img src=""img/food3.png"" style=""width:200px; border:14px solid green;"">","null","","","","","","","","","",""
"","image-keyboard-response","170","148736","0.0-170.0","3TESA3PJ32W5KJVPCPEELM319ZHMMB","A3KIDRWRKC7RI5","36U4VBVNQOZD8NFWZXWF9CIHKRIURB","","763.8000000044703","img/food6.png","76","765.3999999985099","3","1","2","1","1,0.5,0,1,0.5,0,0.5,0,1","0.5,0,1,0.5,0,1,0,1,0.5","2","",""
"","html-keyboard-response","171","149039","0.0-171.0","3TESA3PJ32W5KJVPCPEELM319ZHMMB","A3KIDRWRKC7RI5","36U4VBVNQOZD8NFWZXWF9CIHKRIURB","","null","<img src=""img/food6.png"" style=""width:200px; border:14px solid green;"">","null","","","","","","","","","",""
"","image-keyboard-response","172","149921","0.0-172.0","3TESA3PJ32W5KJVPCPEELM319ZHMMB","A3KIDRWRKC7RI5","36U4VBVNQOZD8NFWZXWF9CIHKRIURB","","879.5999999940395","img/food5.png","76","881.2000000029802","3","1","1","1","1,0.5,0,1,0.5,0,0.5,0,1","0.5,0,1,0.5,0,1,0,1,0.5","2","",""
"","html-keyboard-response","173","150224","0.0-173.0","3TESA3PJ32W5KJVPCPEELM319ZHMMB","A3KIDRWRKC7RI5","36U4VBVNQOZD8NFWZXWF9CIHKRIURB","","null","<img src=""img/food5.png"" style=""width:200px; border:14px solid green;"">","null","","","","","","","","","",""
"","image-keyboard-response","174","151003","0.0-174.0","3TESA3PJ32W5KJVPCPEELM319ZHMMB","A3KIDRWRKC7RI5","36U4VBVNQOZD8NFWZXWF9CIHKRIURB","","777.7000000029802","img/food3.png","75","779.2999999970198","2","1","3","1","1,0.5,0,1,0.5,0,0.5,0,1","0.5,0,1,0.5,0,1,0,1,0.5","2","",""
"","html-keyboard-response","175","151306","0.0-175.0","3TESA3PJ32W5KJVPCPEELM319ZHMMB","A3KIDRWRKC7RI5","36U4VBVNQOZD8NFWZXWF9CIHKRIURB","","null","<img src=""img/food3.png"" style=""width:200px; border:14px solid green;"">","null","","","","","","","","","",""
"","image-keyboard-response","176","152062","0.0-176.0","3TESA3PJ32W5KJVPCPEELM319ZHMMB","A3KIDRWRKC7RI5","36U4VBVNQOZD8NFWZXWF9CIHKRIURB","","752.5999999940395","img/food5.png","76","754.6000000014901","3","1","1","1","1,0.5,0,1,0.5,0,0.5,0,1","0.5,0,1,0.5,0,1,0,1,0.5","2","",""
"","html-keyboard-response","177","152364","0.0-177.0","3TESA3PJ32W5KJVPCPEELM319ZHMMB","A3KIDRWRKC7RI5","36U4VBVNQOZD8NFWZXWF9CIHKRIURB","","null","<img src=""img/food5.png"" style=""width:200px; border:14px solid green;"">","null","","","","","","","","","",""
"","image-keyboard-response","178","153137","0.0-178.0","3TESA3PJ32W5KJVPCPEELM319ZHMMB","A3KIDRWRKC7RI5","36U4VBVNQOZD8NFWZXWF9CIHKRIURB","","770.0999999940395","img/food5.png","76","771.6000000014901","3","1","1","1","1,0.5,0,1,0.5,0,0.5,0,1","0.5,0,1,0.5,0,1,0,1,0.5","2","",""
"","html-keyboard-response","179","153440","0.0-179.0","3TESA3PJ32W5KJVPCPEELM319ZHMMB","A3KIDRWRKC7RI5","36U4VBVNQOZD8NFWZXWF9CIHKRIURB","","null","<img src=""img/food5.png"" style=""width:200px; border:14px solid green;"">","null","","","","","","","","","",""
"","image-keyboard-response","180","154211","0.0-180.0","3TESA3PJ32W5KJVPCPEELM319ZHMMB","A3KIDRWRKC7RI5","36U4VBVNQOZD8NFWZXWF9CIHKRIURB","","768.2999999970198","img/food3.png","75","770.1000000014901","2","1","3","1","1,0.5,0,1,0.5,0,0.5,0,1","0.5,0,1,0.5,0,1,0,1,0.5","2","",""
"","html-keyboard-response","181","154514","0.0-181.0","3TESA3PJ32W5KJVPCPEELM319ZHMMB","A3KIDRWRKC7RI5","36U4VBVNQOZD8NFWZXWF9CIHKRIURB","","null","<img src=""img/food3.png"" style=""width:200px; border:14px solid green;"">","null","","","","","","","","","",""
"","html-keyboard-response","182","159549","0.0-182.0","3TESA3PJ32W5KJVPCPEELM319ZHMMB","A3KIDRWRKC7RI5","36U4VBVNQOZD8NFWZXWF9CIHKRIURB","","","","","","","","","","","","","",""
"","instructions","183","174728","0.0-183.0","3TESA3PJ32W5KJVPCPEELM319ZHMMB","A3KIDRWRKC7RI5","36U4VBVNQOZD8NFWZXWF9CIHKRIURB","[{""page_index"":0,""viewing_time"":13085.5},{""page_index"":1,""viewing_time"":2092}]","15177.89999999851","","","","","","","","","","","",""
"","image-keyboard-response","184","175732","0.0-184.0","3TESA3PJ32W5KJVPCPEELM319ZHMMB","A3KIDRWRKC7RI5","36U4VBVNQOZD8NFWZXWF9CIHKRIURB","","","img/food1.png","","1002.8000000044703","-1","0","2","2","1,0.5,0,1,0.5,0,0.5,0,1","1,0.5,0,1,0.5,0,0.5,0,1","1","true",""
"","html-keyboard-response","185","176034","0.0-185.0","3TESA3PJ32W5KJVPCPEELM319ZHMMB","A3KIDRWRKC7RI5","36U4VBVNQOZD8NFWZXWF9CIHKRIURB","","null","<img src=""img/food1.png"" style=""width:200px;border:14px solid red;"">","null","","","","","","","","","",""
"","html-keyboard-response","186","179146","0.0-186.0-0.0","3TESA3PJ32W5KJVPCPEELM319ZHMMB","A3KIDRWRKC7RI5","36U4VBVNQOZD8NFWZXWF9CIHKRIURB","","","","","","","","","","","","","",""
"","image-keyboard-response","187","179493","0.0-187.0","3TESA3PJ32W5KJVPCPEELM319ZHMMB","A3KIDRWRKC7RI5","36U4VBVNQOZD8NFWZXWF9CIHKRIURB","","344.6000000014901","img/food2.png","74","346.3999999985099","1","1","1","2","1,0.5,0,1,0.5,0,0.5,0,1","1,0.5,0,1,0.5,0,0.5,0,1","1","false",""
"","html-keyboard-response","188","179796","0.0-188.0","3TESA3PJ32W5KJVPCPEELM319ZHMMB","A3KIDRWRKC7RI5","36U4VBVNQOZD8NFWZXWF9CIHKRIURB","","null","<img src=""img/food2.png"" style=""width:200px; border:14px solid green;"">","null","","","","","","","","","",""
"","image-keyboard-response","189","180533","0.0-190.0","3TESA3PJ32W5KJVPCPEELM319ZHMMB","A3KIDRWRKC7RI5","36U4VBVNQOZD8NFWZXWF9CIHKRIURB","","734.4000000059605","img/food4.png","74","736.1999999955297","1","0","3","2","1,0.5,0,1,0.5,0,0.5,0,1","1,0.5,0,1,0.5,0,0.5,0,1","1","false",""
"","html-keyboard-response","190","180836","0.0-191.0","3TESA3PJ32W5KJVPCPEELM319ZHMMB","A3KIDRWRKC7RI5","36U4VBVNQOZD8NFWZXWF9CIHKRIURB","","null","<img src=""img/food4.png"" style=""width:200px;border:14px solid red;"">","null","","","","","","","","","",""
"","image-keyboard-response","191","181658","0.0-193.0","3TESA3PJ32W5KJVPCPEELM319ZHMMB","A3KIDRWRKC7RI5","36U4VBVNQOZD8NFWZXWF9CIHKRIURB","","819.1000000014901","img/food2.png","74","820.6999999955297","1","1","1","2","1,0.5,0,1,0.5,0,0.5,0,1","1,0.5,0,1,0.5,0,0.5,0,1","1","false",""
"","html-keyboard-response","192","181961","0.0-194.0","3TESA3PJ32W5KJVPCPEELM319ZHMMB","A3KIDRWRKC7RI5","36U4VBVNQOZD8NFWZXWF9CIHKRIURB","","null","<img src=""img/food2.png"" style=""width:200px; border:14px solid green;"">","null","","","","","","","","","",""
"","image-keyboard-response","193","182681","0.0-196.0","3TESA3PJ32W5KJVPCPEELM319ZHMMB","A3KIDRWRKC7RI5","36U4VBVNQOZD8NFWZXWF9CIHKRIURB","","718.1000000014901","img/food1.png","75","719.7000000029802","2","0","2","2","1,0.5,0,1,0.5,0,0.5,0,1","1,0.5,0,1,0.5,0,0.5,0,1","1","false",""
"","html-keyboard-response","194","182985","0.0-197.0","3TESA3PJ32W5KJVPCPEELM319ZHMMB","A3KIDRWRKC7RI5","36U4VBVNQOZD8NFWZXWF9CIHKRIURB","","null","<img src=""img/food1.png"" style=""width:200px;border:14px solid red;"">","null","","","","","","","","","",""
"","image-keyboard-response","195","183719","0.0-199.0","3TESA3PJ32W5KJVPCPEELM319ZHMMB","A3KIDRWRKC7RI5","36U4VBVNQOZD8NFWZXWF9CIHKRIURB","","732.1999999955297","img/food2.png","74","733.7999999970198","1","1","1","2","1,0.5,0,1,0.5,0,0.5,0,1","1,0.5,0,1,0.5,0,0.5,0,1","1","false",""
"","html-keyboard-response","196","184022","0.0-200.0","3TESA3PJ32W5KJVPCPEELM319ZHMMB","A3KIDRWRKC7RI5","36U4VBVNQOZD8NFWZXWF9CIHKRIURB","","null","<img src=""img/food2.png"" style=""width:200px; border:14px solid green;"">","null","","","","","","","","","",""
"","image-keyboard-response","197","184829","0.0-202.0","3TESA3PJ32W5KJVPCPEELM319ZHMMB","A3KIDRWRKC7RI5","36U4VBVNQOZD8NFWZXWF9CIHKRIURB","","804.4000000059605","img/food4.png","76","805.8999999985099","3","1","3","2","1,0.5,0,1,0.5,0,0.5,0,1","1,0.5,0,1,0.5,0,0.5,0,1","1","false",""
"","html-keyboard-response","198","185132","0.0-203.0","3TESA3PJ32W5KJVPCPEELM319ZHMMB","A3KIDRWRKC7RI5","36U4VBVNQOZD8NFWZXWF9CIHKRIURB","","null","<img src=""img/food4.png"" style=""width:200px; border:14px solid green;"">","null","","","","","","","","","",""
"","image-keyboard-response","199","185864","0.0-205.0","3TESA3PJ32W5KJVPCPEELM319ZHMMB","A3KIDRWRKC7RI5","36U4VBVNQOZD8NFWZXWF9CIHKRIURB","","730.2000000029802","img/food4.png","76","731.7999999970198","3","1","3","2","1,0.5,0,1,0.5,0,0.5,0,1","1,0.5,0,1,0.5,0,0.5,0,1","1","false",""
"","html-keyboard-response","200","186167","0.0-206.0","3TESA3PJ32W5KJVPCPEELM319ZHMMB","A3KIDRWRKC7RI5","36U4VBVNQOZD8NFWZXWF9CIHKRIURB","","null","<img src=""img/food4.png"" style=""width:200px; border:14px solid green;"">","null","","","","","","","","","",""
"","image-keyboard-response","201","186956","0.0-208.0","3TESA3PJ32W5KJVPCPEELM319ZHMMB","A3KIDRWRKC7RI5","36U4VBVNQOZD8NFWZXWF9CIHKRIURB","","786.2000000029802","img/food2.png","74","787.7999999970198","1","1","1","2","1,0.5,0,1,0.5,0,0.5,0,1","1,0.5,0,1,0.5,0,0.5,0,1","1","false",""
"","html-keyboard-response","202","187259","0.0-209.0","3TESA3PJ32W5KJVPCPEELM319ZHMMB","A3KIDRWRKC7RI5","36U4VBVNQOZD8NFWZXWF9CIHKRIURB","","null","<img src=""img/food2.png"" style=""width:200px; border:14px solid green;"">","null","","","","","","","","","",""
"","image-keyboard-response","203","187995","0.0-211.0","3TESA3PJ32W5KJVPCPEELM319ZHMMB","A3KIDRWRKC7RI5","36U4VBVNQOZD8NFWZXWF9CIHKRIURB","","732.9000000059605","img/food2.png","74","734.6000000014901","1","1","1","2","1,0.5,0,1,0.5,0,0.5,0,1","1,0.5,0,1,0.5,0,0.5,0,1","1","false",""
"","html-keyboard-response","204","188298","0.0-212.0","3TESA3PJ32W5KJVPCPEELM319ZHMMB","A3KIDRWRKC7RI5","36U4VBVNQOZD8NFWZXWF9CIHKRIURB","","null","<img src=""img/food2.png"" style=""width:200px; border:14px solid green;"">","null","","","","","","","","","",""
"","image-keyboard-response","205","189046","0.0-214.0","3TESA3PJ32W5KJVPCPEELM319ZHMMB","A3KIDRWRKC7RI5","36U4VBVNQOZD8NFWZXWF9CIHKRIURB","","745.1000000014901","img/food4.png","76","746.8999999985099","3","1","3","2","1,0.5,0,1,0.5,0,0.5,0,1","1,0.5,0,1,0.5,0,0.5,0,1","1","false",""
"","html-keyboard-response","206","189350","0.0-215.0","3TESA3PJ32W5KJVPCPEELM319ZHMMB","A3KIDRWRKC7RI5","36U4VBVNQOZD8NFWZXWF9CIHKRIURB","","null","<img src=""img/food4.png"" style=""width:200px; border:14px solid green;"">","null","","","","","","","","","",""
"","image-keyboard-response","207","189950","0.0-217.0","3TESA3PJ32W5KJVPCPEELM319ZHMMB","A3KIDRWRKC7RI5","36U4VBVNQOZD8NFWZXWF9CIHKRIURB","","598.3999999985099","img/food1.png","75","599.8999999985099","2","1","2","2","1,0.5,0,1,0.5,0,0.5,0,1","1,0.5,0,1,0.5,0,0.5,0,1","1","false",""
"","html-keyboard-response","208","190253","0.0-218.0","3TESA3PJ32W5KJVPCPEELM319ZHMMB","A3KIDRWRKC7RI5","36U4VBVNQOZD8NFWZXWF9CIHKRIURB","","null","<img src=""img/food1.png"" style=""width:200px; border:14px solid green;"">","null","","","","","","","","","",""
"","image-keyboard-response","209","190916","0.0-220.0","3TESA3PJ32W5KJVPCPEELM319ZHMMB","A3KIDRWRKC7RI5","36U4VBVNQOZD8NFWZXWF9CIHKRIURB","","660.6000000014901","img/food4.png","76","662.2000000029802","3","1","3","2","1,0.5,0,1,0.5,0,0.5,0,1","1,0.5,0,1,0.5,0,0.5,0,1","1","false",""
"","html-keyboard-response","210","191231","0.0-221.0","3TESA3PJ32W5KJVPCPEELM319ZHMMB","A3KIDRWRKC7RI5","36U4VBVNQOZD8NFWZXWF9CIHKRIURB","","null","<img src=""img/food4.png"" style=""width:200px; border:14px solid green;"">","null","","","","","","","","","",""
"","image-keyboard-response","211","191957","0.0-223.0","3TESA3PJ32W5KJVPCPEELM319ZHMMB","A3KIDRWRKC7RI5","36U4VBVNQOZD8NFWZXWF9CIHKRIURB","","722.8999999985099","img/food1.png","75","724.5","2","0","2","2","1,0.5,0,1,0.5,0,0.5,0,1","1,0.5,0,1,0.5,0,0.5,0,1","1","false",""
"","html-keyboard-response","212","192259","0.0-224.0","3TESA3PJ32W5KJVPCPEELM319ZHMMB","A3KIDRWRKC7RI5","36U4VBVNQOZD8NFWZXWF9CIHKRIURB","","null","<img src=""img/food1.png"" style=""width:200px;border:14px solid red;"">","null","","","","","","","","","",""
"","image-keyboard-response","213","192827","0.0-226.0","3TESA3PJ32W5KJVPCPEELM319ZHMMB","A3KIDRWRKC7RI5","36U4VBVNQOZD8NFWZXWF9CIHKRIURB","","565.3000000044703","img/food4.png","76","567.1000000014901","3","1","3","2","1,0.5,0,1,0.5,0,0.5,0,1","1,0.5,0,1,0.5,0,0.5,0,1","1","false",""
"","html-keyboard-response","214","193131","0.0-227.0","3TESA3PJ32W5KJVPCPEELM319ZHMMB","A3KIDRWRKC7RI5","36U4VBVNQOZD8NFWZXWF9CIHKRIURB","","null","<img src=""img/food4.png"" style=""width:200px; border:14px solid green;"">","null","","","","","","","","","",""
"","image-keyboard-response","215","193811","0.0-229.0","3TESA3PJ32W5KJVPCPEELM319ZHMMB","A3KIDRWRKC7RI5","36U4VBVNQOZD8NFWZXWF9CIHKRIURB","","676","img/food1.png","75","677.6000000014901","2","1","2","2","1,0.5,0,1,0.5,0,0.5,0,1","1,0.5,0,1,0.5,0,0.5,0,1","1","false",""
"","html-keyboard-response","216","194115","0.0-230.0","3TESA3PJ32W5KJVPCPEELM319ZHMMB","A3KIDRWRKC7RI5","36U4VBVNQOZD8NFWZXWF9CIHKRIURB","","null","<img src=""img/food1.png"" style=""width:200px; border:14px solid green;"">","null","","","","","","","","","",""
"","image-keyboard-response","217","194739","0.0-232.0","3TESA3PJ32W5KJVPCPEELM319ZHMMB","A3KIDRWRKC7RI5","36U4VBVNQOZD8NFWZXWF9CIHKRIURB","","621.1000000014901","img/food2.png","74","622.7999999970198","1","1","1","2","1,0.5,0,1,0.5,0,0.5,0,1","1,0.5,0,1,0.5,0,0.5,0,1","1","false",""
"","html-keyboard-response","218","195041","0.0-233.0","3TESA3PJ32W5KJVPCPEELM319ZHMMB","A3KIDRWRKC7RI5","36U4VBVNQOZD8NFWZXWF9CIHKRIURB","","null","<img src=""img/food2.png"" style=""width:200px; border:14px solid green;"">","null","","","","","","","","","",""
"","image-keyboard-response","219","195697","0.0-235.0","3TESA3PJ32W5KJVPCPEELM319ZHMMB","A3KIDRWRKC7RI5","36U4VBVNQOZD8NFWZXWF9CIHKRIURB","","654.1000000014901","img/food4.png","76","655.6000000014901","3","1","3","2","1,0.5,0,1,0.5,0,0.5,0,1","1,0.5,0,1,0.5,0,0.5,0,1","1","false",""
"","html-keyboard-response","220","196001","0.0-236.0","3TESA3PJ32W5KJVPCPEELM319ZHMMB","A3KIDRWRKC7RI5","36U4VBVNQOZD8NFWZXWF9CIHKRIURB","","null","<img src=""img/food4.png"" style=""width:200px; border:14px solid green;"">","null","","","","","","","","","",""
"","image-keyboard-response","221","196735","0.0-238.0","3TESA3PJ32W5KJVPCPEELM319ZHMMB","A3KIDRWRKC7RI5","36U4VBVNQOZD8NFWZXWF9CIHKRIURB","","732","img/food2.png","74","733.6000000014901","1","1","1","2","1,0.5,0,1,0.5,0,0.5,0,1","1,0.5,0,1,0.5,0,0.5,0,1","1","false",""
"","html-keyboard-response","222","197038","0.0-239.0","3TESA3PJ32W5KJVPCPEELM319ZHMMB","A3KIDRWRKC7RI5","36U4VBVNQOZD8NFWZXWF9CIHKRIURB","","null","<img src=""img/food2.png"" style=""width:200px; border:14px solid green;"">","null","","","","","","","","","",""
"","image-keyboard-response","223","197727","0.0-241.0","3TESA3PJ32W5KJVPCPEELM319ZHMMB","A3KIDRWRKC7RI5","36U4VBVNQOZD8NFWZXWF9CIHKRIURB","","686.1999999955297","img/food2.png","74","687.7999999970198","1","1","1","2","1,0.5,0,1,0.5,0,0.5,0,1","1,0.5,0,1,0.5,0,0.5,0,1","1","false",""
"","html-keyboard-response","224","198030","0.0-242.0","3TESA3PJ32W5KJVPCPEELM319ZHMMB","A3KIDRWRKC7RI5","36U4VBVNQOZD8NFWZXWF9CIHKRIURB","","null","<img src=""img/food2.png"" style=""width:200px; border:14px solid green;"">","null","","","","","","","","","",""
"","image-keyboard-response","225","198614","0.0-244.0","3TESA3PJ32W5KJVPCPEELM319ZHMMB","A3KIDRWRKC7RI5","36U4VBVNQOZD8NFWZXWF9CIHKRIURB","","581.7000000029802","img/food4.png","76","583.2999999970198","3","1","3","2","1,0.5,0,1,0.5,0,0.5,0,1","1,0.5,0,1,0.5,0,0.5,0,1","1","false",""
"","html-keyboard-response","226","198924","0.0-245.0","3TESA3PJ32W5KJVPCPEELM319ZHMMB","A3KIDRWRKC7RI5","36U4VBVNQOZD8NFWZXWF9CIHKRIURB","","null","<img src=""img/food4.png"" style=""width:200px; border:14px solid green;"">","null","","","","","","","","","",""
"","image-keyboard-response","227","199448","0.0-247.0","3TESA3PJ32W5KJVPCPEELM319ZHMMB","A3KIDRWRKC7RI5","36U4VBVNQOZD8NFWZXWF9CIHKRIURB","","522","img/food1.png","75","523.6000000014901","2","0","2","2","1,0.5,0,1,0.5,0,0.5,0,1","1,0.5,0,1,0.5,0,0.5,0,1","1","false",""
"","html-keyboard-response","228","199751","0.0-248.0","3TESA3PJ32W5KJVPCPEELM319ZHMMB","A3KIDRWRKC7RI5","36U4VBVNQOZD8NFWZXWF9CIHKRIURB","","null","<img src=""img/food1.png"" style=""width:200px;border:14px solid red;"">","null","","","","","","","","","",""
"","image-keyboard-response","229","200408","0.0-250.0","3TESA3PJ32W5KJVPCPEELM319ZHMMB","A3KIDRWRKC7RI5","36U4VBVNQOZD8NFWZXWF9CIHKRIURB","","654.6999999955297","img/food1.png","75","656.2000000029802","2","1","2","2","1,0.5,0,1,0.5,0,0.5,0,1","1,0.5,0,1,0.5,0,0.5,0,1","1","false",""
"","html-keyboard-response","230","200711","0.0-251.0","3TESA3PJ32W5KJVPCPEELM319ZHMMB","A3KIDRWRKC7RI5","36U4VBVNQOZD8NFWZXWF9CIHKRIURB","","null","<img src=""img/food1.png"" style=""width:200px; border:14px solid green;"">","null","","","","","","","","","",""
"","image-keyboard-response","231","201295","0.0-253.0","3TESA3PJ32W5KJVPCPEELM319ZHMMB","A3KIDRWRKC7RI5","36U4VBVNQOZD8NFWZXWF9CIHKRIURB","","581.8000000044703","img/food4.png","76","583.5","3","1","3","2","1,0.5,0,1,0.5,0,0.5,0,1","1,0.5,0,1,0.5,0,0.5,0,1","1","false",""
"","html-keyboard-response","232","201597","0.0-254.0","3TESA3PJ32W5KJVPCPEELM319ZHMMB","A3KIDRWRKC7RI5","36U4VBVNQOZD8NFWZXWF9CIHKRIURB","","null","<img src=""img/food4.png"" style=""width:200px; border:14px solid green;"">","null","","","","","","","","","",""
"","image-keyboard-response","233","202238","0.0-256.0","3TESA3PJ32W5KJVPCPEELM319ZHMMB","A3KIDRWRKC7RI5","36U4VBVNQOZD8NFWZXWF9CIHKRIURB","","637.5","img/food1.png","75","639.1000000014901","2","1","2","2","1,0.5,0,1,0.5,0,0.5,0,1","1,0.5,0,1,0.5,0,0.5,0,1","1","false",""
"","html-keyboard-response","234","202552","0.0-257.0","3TESA3PJ32W5KJVPCPEELM319ZHMMB","A3KIDRWRKC7RI5","36U4VBVNQOZD8NFWZXWF9CIHKRIURB","","null","<img src=""img/food1.png"" style=""width:200px; border:14px solid green;"">","null","","","","","","","","","",""
"","image-keyboard-response","235","203189","0.0-259.0","3TESA3PJ32W5KJVPCPEELM319ZHMMB","A3KIDRWRKC7RI5","36U4VBVNQOZD8NFWZXWF9CIHKRIURB","","634.6999999955297","img/food1.png","75","636.3999999985099","2","0","2","2","1,0.5,0,1,0.5,0,0.5,0,1","1,0.5,0,1,0.5,0,0.5,0,1","1","false",""
"","html-keyboard-response","236","203492","0.0-260.0","3TESA3PJ32W5KJVPCPEELM319ZHMMB","A3KIDRWRKC7RI5","36U4VBVNQOZD8NFWZXWF9CIHKRIURB","","null","<img src=""img/food1.png"" style=""width:200px;border:14px solid red;"">","null","","","","","","","","","",""
"","image-keyboard-response","237","204240","0.0-262.0","3TESA3PJ32W5KJVPCPEELM319ZHMMB","A3KIDRWRKC7RI5","36U4VBVNQOZD8NFWZXWF9CIHKRIURB","","744.8999999985099","img/food2.png","74","746.4000000059605","1","1","1","2","1,0.5,0,1,0.5,0,0.5,0,1","1,0.5,0,1,0.5,0,0.5,0,1","1","false",""
"","html-keyboard-response","238","204542","0.0-263.0","3TESA3PJ32W5KJVPCPEELM319ZHMMB","A3KIDRWRKC7RI5","36U4VBVNQOZD8NFWZXWF9CIHKRIURB","","null","<img src=""img/food2.png"" style=""width:200px; border:14px solid green;"">","null","","","","","","","","","",""
"","image-keyboard-response","239","205153","0.0-265.0","3TESA3PJ32W5KJVPCPEELM319ZHMMB","A3KIDRWRKC7RI5","36U4VBVNQOZD8NFWZXWF9CIHKRIURB","","608.6000000014901","img/food2.png","74","610.3000000044703","1","1","1","2","1,0.5,0,1,0.5,0,0.5,0,1","1,0.5,0,1,0.5,0,0.5,0,1","1","false",""
"","html-keyboard-response","240","205456","0.0-266.0","3TESA3PJ32W5KJVPCPEELM319ZHMMB","A3KIDRWRKC7RI5","36U4VBVNQOZD8NFWZXWF9CIHKRIURB","","null","<img src=""img/food2.png"" style=""width:200px; border:14px solid green;"">","null","","","","","","","","","",""
"","image-keyboard-response","241","206094","0.0-268.0","3TESA3PJ32W5KJVPCPEELM319ZHMMB","A3KIDRWRKC7RI5","36U4VBVNQOZD8NFWZXWF9CIHKRIURB","","635.2999999970198","img/food2.png","74","636.9000000059605","1","1","1","2","1,0.5,0,1,0.5,0,0.5,0,1","1,0.5,0,1,0.5,0,0.5,0,1","1","false",""
"","html-keyboard-response","242","206397","0.0-269.0","3TESA3PJ32W5KJVPCPEELM319ZHMMB","A3KIDRWRKC7RI5","36U4VBVNQOZD8NFWZXWF9CIHKRIURB","","null","<img src=""img/food2.png"" style=""width:200px; border:14px solid green;"">","null","","","","","","","","","",""
"","image-keyboard-response","243","206993","0.0-271.0","3TESA3PJ32W5KJVPCPEELM319ZHMMB","A3KIDRWRKC7RI5","36U4VBVNQOZD8NFWZXWF9CIHKRIURB","","593.7999999970198","img/food2.png","74","595.3999999985099","1","1","1","2","1,0.5,0,1,0.5,0,0.5,0,1","1,0.5,0,1,0.5,0,0.5,0,1","1","false",""
"","html-keyboard-response","244","207295","0.0-272.0","3TESA3PJ32W5KJVPCPEELM319ZHMMB","A3KIDRWRKC7RI5","36U4VBVNQOZD8NFWZXWF9CIHKRIURB","","null","<img src=""img/food2.png"" style=""width:200px; border:14px solid green;"">","null","","","","","","","","","",""
"","image-keyboard-response","245","207863","0.0-274.0","3TESA3PJ32W5KJVPCPEELM319ZHMMB","A3KIDRWRKC7RI5","36U4VBVNQOZD8NFWZXWF9CIHKRIURB","","564.8999999985099","img/food1.png","75","566.5","2","0","2","2","1,0.5,0,1,0.5,0,0.5,0,1","1,0.5,0,1,0.5,0,0.5,0,1","1","false",""
"","html-keyboard-response","246","208179","0.0-275.0","3TESA3PJ32W5KJVPCPEELM319ZHMMB","A3KIDRWRKC7RI5","36U4VBVNQOZD8NFWZXWF9CIHKRIURB","","null","<img src=""img/food1.png"" style=""width:200px;border:14px solid red;"">","null","","","","","","","","","",""
"","image-keyboard-response","247","208687","0.0-277.0","3TESA3PJ32W5KJVPCPEELM319ZHMMB","A3KIDRWRKC7RI5","36U4VBVNQOZD8NFWZXWF9CIHKRIURB","","505.80000000447035","img/food4.png","76","507.5","3","1","3","2","1,0.5,0,1,0.5,0,0.5,0,1","1,0.5,0,1,0.5,0,0.5,0,1","1","false",""
"","html-keyboard-response","248","208989","0.0-278.0","3TESA3PJ32W5KJVPCPEELM319ZHMMB","A3KIDRWRKC7RI5","36U4VBVNQOZD8NFWZXWF9CIHKRIURB","","null","<img src=""img/food4.png"" style=""width:200px; border:14px solid green;"">","null","","","","","","","","","",""
"","image-keyboard-response","249","209557","0.0-280.0","3TESA3PJ32W5KJVPCPEELM319ZHMMB","A3KIDRWRKC7RI5","36U4VBVNQOZD8NFWZXWF9CIHKRIURB","","565.1000000014901","img/food2.png","74","566.6000000014901","1","1","1","2","1,0.5,0,1,0.5,0,0.5,0,1","1,0.5,0,1,0.5,0,0.5,0,1","1","false",""
"","html-keyboard-response","250","209860","0.0-281.0","3TESA3PJ32W5KJVPCPEELM319ZHMMB","A3KIDRWRKC7RI5","36U4VBVNQOZD8NFWZXWF9CIHKRIURB","","null","<img src=""img/food2.png"" style=""width:200px; border:14px solid green;"">","null","","","","","","","","","",""
"","image-keyboard-response","251","210371","0.0-283.0","3TESA3PJ32W5KJVPCPEELM319ZHMMB","A3KIDRWRKC7RI5","36U4VBVNQOZD8NFWZXWF9CIHKRIURB","","508.5","img/food2.png","74","510.1000000014901","1","1","1","2","1,0.5,0,1,0.5,0,0.5,0,1","1,0.5,0,1,0.5,0,0.5,0,1","1","false",""
"","html-keyboard-response","252","210673","0.0-284.0","3TESA3PJ32W5KJVPCPEELM319ZHMMB","A3KIDRWRKC7RI5","36U4VBVNQOZD8NFWZXWF9CIHKRIURB","","null","<img src=""img/food2.png"" style=""width:200px; border:14px solid green;"">","null","","","","","","","","","",""
"","image-keyboard-response","253","211172","0.0-286.0","3TESA3PJ32W5KJVPCPEELM319ZHMMB","A3KIDRWRKC7RI5","36U4VBVNQOZD8NFWZXWF9CIHKRIURB","","496.5","img/food2.png","74","497.8999999985099","1","1","1","2","1,0.5,0,1,0.5,0,0.5,0,1","1,0.5,0,1,0.5,0,0.5,0,1","1","false",""
"","html-keyboard-response","254","211475","0.0-287.0","3TESA3PJ32W5KJVPCPEELM319ZHMMB","A3KIDRWRKC7RI5","36U4VBVNQOZD8NFWZXWF9CIHKRIURB","","null","<img src=""img/food2.png"" style=""width:200px; border:14px solid green;"">","null","","","","","","","","","",""
"","image-keyboard-response","255","212006","0.0-289.0","3TESA3PJ32W5KJVPCPEELM319ZHMMB","A3KIDRWRKC7RI5","36U4VBVNQOZD8NFWZXWF9CIHKRIURB","","528.7000000029802","img/food1.png","75","530.1999999955297","2","0","2","2","1,0.5,0,1,0.5,0,0.5,0,1","1,0.5,0,1,0.5,0,0.5,0,1","1","false",""
"","html-keyboard-response","256","212310","0.0-290.0","3TESA3PJ32W5KJVPCPEELM319ZHMMB","A3KIDRWRKC7RI5","36U4VBVNQOZD8NFWZXWF9CIHKRIURB","","null","<img src=""img/food1.png"" style=""width:200px;border:14px solid red;"">","null","","","","","","","","","",""
"","image-keyboard-response","257","212839","0.0-292.0","3TESA3PJ32W5KJVPCPEELM319ZHMMB","A3KIDRWRKC7RI5","36U4VBVNQOZD8NFWZXWF9CIHKRIURB","","527.7000000029802","img/food4.png","76","529.1999999955297","3","1","3","2","1,0.5,0,1,0.5,0,0.5,0,1","1,0.5,0,1,0.5,0,0.5,0,1","1","false",""
"","html-keyboard-response","258","213142","0.0-293.0","3TESA3PJ32W5KJVPCPEELM319ZHMMB","A3KIDRWRKC7RI5","36U4VBVNQOZD8NFWZXWF9CIHKRIURB","","null","<img src=""img/food4.png"" style=""width:200px; border:14px solid green;"">","null","","","","","","","","","",""
"","image-keyboard-response","259","213672","0.0-295.0","3TESA3PJ32W5KJVPCPEELM319ZHMMB","A3KIDRWRKC7RI5","36U4VBVNQOZD8NFWZXWF9CIHKRIURB","","527.5","img/food1.png","75","529.2000000029802","2","1","2","2","1,0.5,0,1,0.5,0,0.5,0,1","1,0.5,0,1,0.5,0,0.5,0,1","1","false",""
"","html-keyboard-response","260","213978","0.0-296.0","3TESA3PJ32W5KJVPCPEELM319ZHMMB","A3KIDRWRKC7RI5","36U4VBVNQOZD8NFWZXWF9CIHKRIURB","","null","<img src=""img/food1.png"" style=""width:200px; border:14px solid green;"">","null","","","","","","","","","",""
"","image-keyboard-response","261","214493","0.0-298.0","3TESA3PJ32W5KJVPCPEELM319ZHMMB","A3KIDRWRKC7RI5","36U4VBVNQOZD8NFWZXWF9CIHKRIURB","","511.8999999985099","img/food4.png","76","513.6000000014901","3","1","3","2","1,0.5,0,1,0.5,0,0.5,0,1","1,0.5,0,1,0.5,0,0.5,0,1","1","false",""
"","html-keyboard-response","262","214795","0.0-299.0","3TESA3PJ32W5KJVPCPEELM319ZHMMB","A3KIDRWRKC7RI5","36U4VBVNQOZD8NFWZXWF9CIHKRIURB","","null","<img src=""img/food4.png"" style=""width:200px; border:14px solid green;"">","null","","","","","","","","","",""
"","image-keyboard-response","263","215419","0.0-301.0","3TESA3PJ32W5KJVPCPEELM319ZHMMB","A3KIDRWRKC7RI5","36U4VBVNQOZD8NFWZXWF9CIHKRIURB","","619.8999999985099","img/food4.png","76","622.1999999955297","3","1","3","2","1,0.5,0,1,0.5,0,0.5,0,1","1,0.5,0,1,0.5,0,0.5,0,1","1","false",""
"","html-keyboard-response","264","215722","0.0-302.0","3TESA3PJ32W5KJVPCPEELM319ZHMMB","A3KIDRWRKC7RI5","36U4VBVNQOZD8NFWZXWF9CIHKRIURB","","null","<img src=""img/food4.png"" style=""width:200px; border:14px solid green;"">","null","","","","","","","","","",""
"","image-keyboard-response","265","216203","0.0-304.0","3TESA3PJ32W5KJVPCPEELM319ZHMMB","A3KIDRWRKC7RI5","36U4VBVNQOZD8NFWZXWF9CIHKRIURB","","478.70000000298023","img/food4.png","76","480.1000000014901","3","1","3","2","1,0.5,0,1,0.5,0,0.5,0,1","1,0.5,0,1,0.5,0,0.5,0,1","1","false",""
"","html-keyboard-response","266","216506","0.0-305.0","3TESA3PJ32W5KJVPCPEELM319ZHMMB","A3KIDRWRKC7RI5","36U4VBVNQOZD8NFWZXWF9CIHKRIURB","","null","<img src=""img/food4.png"" style=""width:200px; border:14px solid green;"">","null","","","","","","","","","",""
"","image-keyboard-response","267","217002","0.0-307.0","3TESA3PJ32W5KJVPCPEELM319ZHMMB","A3KIDRWRKC7RI5","36U4VBVNQOZD8NFWZXWF9CIHKRIURB","","493.3999999985099","img/food1.png","75","495.1000000014901","2","0","2","2","1,0.5,0,1,0.5,0,0.5,0,1","1,0.5,0,1,0.5,0,0.5,0,1","1","false",""
"","html-keyboard-response","268","217304","0.0-308.0","3TESA3PJ32W5KJVPCPEELM319ZHMMB","A3KIDRWRKC7RI5","36U4VBVNQOZD8NFWZXWF9CIHKRIURB","","null","<img src=""img/food1.png"" style=""width:200px;border:14px solid red;"">","null","","","","","","","","","",""
"","image-keyboard-response","269","217886","0.0-310.0","3TESA3PJ32W5KJVPCPEELM319ZHMMB","A3KIDRWRKC7RI5","36U4VBVNQOZD8NFWZXWF9CIHKRIURB","","579.1000000014901","img/food2.png","74","580.6999999955297","1","1","1","2","1,0.5,0,1,0.5,0,0.5,0,1","1,0.5,0,1,0.5,0,0.5,0,1","1","false",""
"","html-keyboard-response","270","218188","0.0-311.0","3TESA3PJ32W5KJVPCPEELM319ZHMMB","A3KIDRWRKC7RI5","36U4VBVNQOZD8NFWZXWF9CIHKRIURB","","null","<img src=""img/food2.png"" style=""width:200px; border:14px solid green;"">","null","","","","","","","","","",""
"","image-keyboard-response","271","218679","0.0-313.0","3TESA3PJ32W5KJVPCPEELM319ZHMMB","A3KIDRWRKC7RI5","36U4VBVNQOZD8NFWZXWF9CIHKRIURB","","488.8999999985099","img/food2.png","74","490.5","1","1","1","2","1,0.5,0,1,0.5,0,0.5,0,1","1,0.5,0,1,0.5,0,0.5,0,1","1","false",""
"","html-keyboard-response","272","218982","0.0-314.0","3TESA3PJ32W5KJVPCPEELM319ZHMMB","A3KIDRWRKC7RI5","36U4VBVNQOZD8NFWZXWF9CIHKRIURB","","null","<img src=""img/food2.png"" style=""width:200px; border:14px solid green;"">","null","","","","","","","","","",""
"","image-keyboard-response","273","219497","0.0-316.0","3TESA3PJ32W5KJVPCPEELM319ZHMMB","A3KIDRWRKC7RI5","36U4VBVNQOZD8NFWZXWF9CIHKRIURB","","512","img/food1.png","75","513.6000000014901","2","0","2","2","1,0.5,0,1,0.5,0,0.5,0,1","1,0.5,0,1,0.5,0,0.5,0,1","1","false",""
"","html-keyboard-response","274","219800","0.0-317.0","3TESA3PJ32W5KJVPCPEELM319ZHMMB","A3KIDRWRKC7RI5","36U4VBVNQOZD8NFWZXWF9CIHKRIURB","","null","<img src=""img/food1.png"" style=""width:200px;border:14px solid red;"">","null","","","","","","","","","",""
"","image-keyboard-response","275","220359","0.0-319.0","3TESA3PJ32W5KJVPCPEELM319ZHMMB","A3KIDRWRKC7RI5","36U4VBVNQOZD8NFWZXWF9CIHKRIURB","","557","img/food2.png","74","558.3999999985099","1","1","1","2","1,0.5,0,1,0.5,0,0.5,0,1","1,0.5,0,1,0.5,0,0.5,0,1","1","false",""
"","html-keyboard-response","276","220662","0.0-320.0","3TESA3PJ32W5KJVPCPEELM319ZHMMB","A3KIDRWRKC7RI5","36U4VBVNQOZD8NFWZXWF9CIHKRIURB","","null","<img src=""img/food2.png"" style=""width:200px; border:14px solid green;"">","null","","","","","","","","","",""
"","image-keyboard-response","277","221195","0.0-322.0","3TESA3PJ32W5KJVPCPEELM319ZHMMB","A3KIDRWRKC7RI5","36U4VBVNQOZD8NFWZXWF9CIHKRIURB","","530.3000000044703","img/food4.png","76","531.8999999985099","3","1","3","2","1,0.5,0,1,0.5,0,0.5,0,1","1,0.5,0,1,0.5,0,0.5,0,1","1","false",""
"","html-keyboard-response","278","221498","0.0-323.0","3TESA3PJ32W5KJVPCPEELM319ZHMMB","A3KIDRWRKC7RI5","36U4VBVNQOZD8NFWZXWF9CIHKRIURB","","null","<img src=""img/food4.png"" style=""width:200px; border:14px solid green;"">","null","","","","","","","","","",""
"","image-keyboard-response","279","221976","0.0-325.0","3TESA3PJ32W5KJVPCPEELM319ZHMMB","A3KIDRWRKC7RI5","36U4VBVNQOZD8NFWZXWF9CIHKRIURB","","475.6000000014901","img/food4.png","76","477","3","1","3","2","1,0.5,0,1,0.5,0,0.5,0,1","1,0.5,0,1,0.5,0,0.5,0,1","1","false",""
"","html-keyboard-response","280","222278","0.0-326.0","3TESA3PJ32W5KJVPCPEELM319ZHMMB","A3KIDRWRKC7RI5","36U4VBVNQOZD8NFWZXWF9CIHKRIURB","","null","<img src=""img/food4.png"" style=""width:200px; border:14px solid green;"">","null","","","","","","","","","",""
"","image-keyboard-response","281","222764","0.0-328.0","3TESA3PJ32W5KJVPCPEELM319ZHMMB","A3KIDRWRKC7RI5","36U4VBVNQOZD8NFWZXWF9CIHKRIURB","","481.6000000014901","img/food4.png","76","483.29999999701977","3","1","3","2","1,0.5,0,1,0.5,0,0.5,0,1","1,0.5,0,1,0.5,0,0.5,0,1","1","false",""
"","html-keyboard-response","282","223066","0.0-329.0","3TESA3PJ32W5KJVPCPEELM319ZHMMB","A3KIDRWRKC7RI5","36U4VBVNQOZD8NFWZXWF9CIHKRIURB","","null","<img src=""img/food4.png"" style=""width:200px; border:14px solid green;"">","null","","","","","","","","","",""
"","image-keyboard-response","283","223573","0.0-331.0","3TESA3PJ32W5KJVPCPEELM319ZHMMB","A3KIDRWRKC7RI5","36U4VBVNQOZD8NFWZXWF9CIHKRIURB","","504.6000000014901","img/food1.png","75","506.3999999985099","2","0","2","2","1,0.5,0,1,0.5,0,0.5,0,1","1,0.5,0,1,0.5,0,0.5,0,1","1","false",""
"","html-keyboard-response","284","223876","0.0-332.0","3TESA3PJ32W5KJVPCPEELM319ZHMMB","A3KIDRWRKC7RI5","36U4VBVNQOZD8NFWZXWF9CIHKRIURB","","null","<img src=""img/food1.png"" style=""width:200px;border:14px solid red;"">","null","","","","","","","","","",""
"","image-keyboard-response","285","224358","0.0-334.0","3TESA3PJ32W5KJVPCPEELM319ZHMMB","A3KIDRWRKC7RI5","36U4VBVNQOZD8NFWZXWF9CIHKRIURB","","480.8999999985099","img/food4.png","76","482.29999999701977","3","1","3","2","1,0.5,0,1,0.5,0,0.5,0,1","1,0.5,0,1,0.5,0,0.5,0,1","1","false",""
"","html-keyboard-response","286","224662","0.0-335.0","3TESA3PJ32W5KJVPCPEELM319ZHMMB","A3KIDRWRKC7RI5","36U4VBVNQOZD8NFWZXWF9CIHKRIURB","","null","<img src=""img/food4.png"" style=""width:200px; border:14px solid green;"">","null","","","","","","","","","",""
"","image-keyboard-response","287","225211","0.0-337.0","3TESA3PJ32W5KJVPCPEELM319ZHMMB","A3KIDRWRKC7RI5","36U4VBVNQOZD8NFWZXWF9CIHKRIURB","","546.3999999985099","img/food2.png","74","548.1000000014901","1","1","1","2","1,0.5,0,1,0.5,0,0.5,0,1","1,0.5,0,1,0.5,0,0.5,0,1","1","false",""
"","html-keyboard-response","288","225513","0.0-338.0","3TESA3PJ32W5KJVPCPEELM319ZHMMB","A3KIDRWRKC7RI5","36U4VBVNQOZD8NFWZXWF9CIHKRIURB","","null","<img src=""img/food2.png"" style=""width:200px; border:14px solid green;"">","null","","","","","","","","","",""
"","image-keyboard-response","289","226015","0.0-340.0","3TESA3PJ32W5KJVPCPEELM319ZHMMB","A3KIDRWRKC7RI5","36U4VBVNQOZD8NFWZXWF9CIHKRIURB","","499.20000000298023","img/food2.png","74","500.80000000447035","1","1","1","2","1,0.5,0,1,0.5,0,0.5,0,1","1,0.5,0,1,0.5,0,0.5,0,1","1","false",""
"","html-keyboard-response","290","226318","0.0-341.0","3TESA3PJ32W5KJVPCPEELM319ZHMMB","A3KIDRWRKC7RI5","36U4VBVNQOZD8NFWZXWF9CIHKRIURB","","null","<img src=""img/food2.png"" style=""width:200px; border:14px solid green;"">","null","","","","","","","","","",""
"","image-keyboard-response","291","226862","0.0-343.0","3TESA3PJ32W5KJVPCPEELM319ZHMMB","A3KIDRWRKC7RI5","36U4VBVNQOZD8NFWZXWF9CIHKRIURB","","541.2999999970198","img/food1.png","75","542.9000000059605","2","1","2","2","1,0.5,0,1,0.5,0,0.5,0,1","1,0.5,0,1,0.5,0,0.5,0,1","1","false",""
"","html-keyboard-response","292","227165","0.0-344.0","3TESA3PJ32W5KJVPCPEELM319ZHMMB","A3KIDRWRKC7RI5","36U4VBVNQOZD8NFWZXWF9CIHKRIURB","","null","<img src=""img/food1.png"" style=""width:200px; border:14px solid green;"">","null","","","","","","","","","",""
"","image-keyboard-response","293","227606","0.0-346.0","3TESA3PJ32W5KJVPCPEELM319ZHMMB","A3KIDRWRKC7RI5","36U4VBVNQOZD8NFWZXWF9CIHKRIURB","","438.79999999701977","img/food4.png","76","440.40000000596046","3","1","3","2","1,0.5,0,1,0.5,0,0.5,0,1","1,0.5,0,1,0.5,0,0.5,0,1","1","false",""
"","html-keyboard-response","294","227910","0.0-347.0","3TESA3PJ32W5KJVPCPEELM319ZHMMB","A3KIDRWRKC7RI5","36U4VBVNQOZD8NFWZXWF9CIHKRIURB","","null","<img src=""img/food4.png"" style=""width:200px; border:14px solid green;"">","null","","","","","","","","","",""
"","image-keyboard-response","295","228453","0.0-349.0","3TESA3PJ32W5KJVPCPEELM319ZHMMB","A3KIDRWRKC7RI5","36U4VBVNQOZD8NFWZXWF9CIHKRIURB","","541.3999999985099","img/food2.png","74","543","1","1","1","2","1,0.5,0,1,0.5,0,0.5,0,1","1,0.5,0,1,0.5,0,0.5,0,1","1","false",""
"","html-keyboard-response","296","228756","0.0-350.0","3TESA3PJ32W5KJVPCPEELM319ZHMMB","A3KIDRWRKC7RI5","36U4VBVNQOZD8NFWZXWF9CIHKRIURB","","null","<img src=""img/food2.png"" style=""width:200px; border:14px solid green;"">","null","","","","","","","","","",""
"","image-keyboard-response","297","229246","0.0-352.0","3TESA3PJ32W5KJVPCPEELM319ZHMMB","A3KIDRWRKC7RI5","36U4VBVNQOZD8NFWZXWF9CIHKRIURB","","487.69999999552965","img/food4.png","76","489.20000000298023","3","1","3","2","1,0.5,0,1,0.5,0,0.5,0,1","1,0.5,0,1,0.5,0,0.5,0,1","1","false",""
"","html-keyboard-response","298","229550","0.0-353.0","3TESA3PJ32W5KJVPCPEELM319ZHMMB","A3KIDRWRKC7RI5","36U4VBVNQOZD8NFWZXWF9CIHKRIURB","","null","<img src=""img/food4.png"" style=""width:200px; border:14px solid green;"">","null","","","","","","","","","",""
"","image-keyboard-response","299","230138","0.0-355.0","3TESA3PJ32W5KJVPCPEELM319ZHMMB","A3KIDRWRKC7RI5","36U4VBVNQOZD8NFWZXWF9CIHKRIURB","","586.2999999970198","img/food1.png","75","587.8000000044703","2","0","2","2","1,0.5,0,1,0.5,0,0.5,0,1","1,0.5,0,1,0.5,0,0.5,0,1","1","false",""
"","html-keyboard-response","300","230441","0.0-356.0","3TESA3PJ32W5KJVPCPEELM319ZHMMB","A3KIDRWRKC7RI5","36U4VBVNQOZD8NFWZXWF9CIHKRIURB","","null","<img src=""img/food1.png"" style=""width:200px;border:14px solid red;"">","null","","","","","","","","","",""
"","image-keyboard-response","301","231162","0.0-358.0","3TESA3PJ32W5KJVPCPEELM319ZHMMB","A3KIDRWRKC7RI5","36U4VBVNQOZD8NFWZXWF9CIHKRIURB","","718.3999999985099","img/food2.png","74","720.2000000029802","1","1","1","2","1,0.5,0,1,0.5,0,0.5,0,1","1,0.5,0,1,0.5,0,0.5,0,1","1","false",""
"","html-keyboard-response","302","231465","0.0-359.0","3TESA3PJ32W5KJVPCPEELM319ZHMMB","A3KIDRWRKC7RI5","36U4VBVNQOZD8NFWZXWF9CIHKRIURB","","null","<img src=""img/food2.png"" style=""width:200px; border:14px solid green;"">","null","","","","","","","","","",""
"","image-keyboard-response","303","231971","0.0-361.0","3TESA3PJ32W5KJVPCPEELM319ZHMMB","A3KIDRWRKC7RI5","36U4VBVNQOZD8NFWZXWF9CIHKRIURB","","504.1000000014901","img/food4.png","76","505.80000000447035","3","1","3","2","1,0.5,0,1,0.5,0,0.5,0,1","1,0.5,0,1,0.5,0,0.5,0,1","1","false",""
"","html-keyboard-response","304","232274","0.0-362.0","3TESA3PJ32W5KJVPCPEELM319ZHMMB","A3KIDRWRKC7RI5","36U4VBVNQOZD8NFWZXWF9CIHKRIURB","","null","<img src=""img/food4.png"" style=""width:200px; border:14px solid green;"">","null","","","","","","","","","",""
"","image-keyboard-response","305","232788","0.0-364.0","3TESA3PJ32W5KJVPCPEELM319ZHMMB","A3KIDRWRKC7RI5","36U4VBVNQOZD8NFWZXWF9CIHKRIURB","","511.79999999701977","img/food1.png","75","513.5999999940395","2","0","2","2","1,0.5,0,1,0.5,0,0.5,0,1","1,0.5,0,1,0.5,0,0.5,0,1","1","false",""
"","html-keyboard-response","306","233092","0.0-365.0","3TESA3PJ32W5KJVPCPEELM319ZHMMB","A3KIDRWRKC7RI5","36U4VBVNQOZD8NFWZXWF9CIHKRIURB","","null","<img src=""img/food1.png"" style=""width:200px;border:14px solid red;"">","null","","","","","","","","","",""
"","image-keyboard-response","307","233688","0.0-367.0","3TESA3PJ32W5KJVPCPEELM319ZHMMB","A3KIDRWRKC7RI5","36U4VBVNQOZD8NFWZXWF9CIHKRIURB","","594","img/food2.png","74","595.8000000044703","1","1","1","2","1,0.5,0,1,0.5,0,0.5,0,1","1,0.5,0,1,0.5,0,0.5,0,1","1","false",""
"","html-keyboard-response","308","233991","0.0-368.0","3TESA3PJ32W5KJVPCPEELM319ZHMMB","A3KIDRWRKC7RI5","36U4VBVNQOZD8NFWZXWF9CIHKRIURB","","null","<img src=""img/food2.png"" style=""width:200px; border:14px solid green;"">","null","","","","","","","","","",""
"","image-keyboard-response","309","234527","0.0-370.0","3TESA3PJ32W5KJVPCPEELM319ZHMMB","A3KIDRWRKC7RI5","36U4VBVNQOZD8NFWZXWF9CIHKRIURB","","533.7000000029802","img/food1.png","75","535.3999999985099","2","0","2","2","1,0.5,0,1,0.5,0,0.5,0,1","1,0.5,0,1,0.5,0,0.5,0,1","1","false",""
"","html-keyboard-response","310","234830","0.0-371.0","3TESA3PJ32W5KJVPCPEELM319ZHMMB","A3KIDRWRKC7RI5","36U4VBVNQOZD8NFWZXWF9CIHKRIURB","","null","<img src=""img/food1.png"" style=""width:200px;border:14px solid red;"">","null","","","","","","","","","",""
"","image-keyboard-response","311","235296","0.0-373.0","3TESA3PJ32W5KJVPCPEELM319ZHMMB","A3KIDRWRKC7RI5","36U4VBVNQOZD8NFWZXWF9CIHKRIURB","","463.79999999701977","img/food1.png","75","465.29999999701977","2","0","2","2","1,0.5,0,1,0.5,0,0.5,0,1","1,0.5,0,1,0.5,0,0.5,0,1","1","false",""
"","html-keyboard-response","312","235600","0.0-374.0","3TESA3PJ32W5KJVPCPEELM319ZHMMB","A3KIDRWRKC7RI5","36U4VBVNQOZD8NFWZXWF9CIHKRIURB","","null","<img src=""img/food1.png"" style=""width:200px;border:14px solid red;"">","null","","","","","","","","","",""
"","image-keyboard-response","313","236095","0.0-376.0","3TESA3PJ32W5KJVPCPEELM319ZHMMB","A3KIDRWRKC7RI5","36U4VBVNQOZD8NFWZXWF9CIHKRIURB","","493.19999999552965","img/food1.png","75","494.70000000298023","2","0","2","2","1,0.5,0,1,0.5,0,0.5,0,1","1,0.5,0,1,0.5,0,0.5,0,1","1","false",""
"","html-keyboard-response","314","236398","0.0-377.0","3TESA3PJ32W5KJVPCPEELM319ZHMMB","A3KIDRWRKC7RI5","36U4VBVNQOZD8NFWZXWF9CIHKRIURB","","null","<img src=""img/food1.png"" style=""width:200px;border:14px solid red;"">","null","","","","","","","","","",""
"","image-keyboard-response","315","236887","0.0-379.0","3TESA3PJ32W5KJVPCPEELM319ZHMMB","A3KIDRWRKC7RI5","36U4VBVNQOZD8NFWZXWF9CIHKRIURB","","486.69999999552965","img/food1.png","75","488.20000000298023","2","1","2","2","1,0.5,0,1,0.5,0,0.5,0,1","1,0.5,0,1,0.5,0,0.5,0,1","1","false",""
"","html-keyboard-response","316","237190","0.0-380.0","3TESA3PJ32W5KJVPCPEELM319ZHMMB","A3KIDRWRKC7RI5","36U4VBVNQOZD8NFWZXWF9CIHKRIURB","","null","<img src=""img/food1.png"" style=""width:200px; border:14px solid green;"">","null","","","","","","","","","",""
"","image-keyboard-response","317","237833","0.0-382.0","3TESA3PJ32W5KJVPCPEELM319ZHMMB","A3KIDRWRKC7RI5","36U4VBVNQOZD8NFWZXWF9CIHKRIURB","","640.4000000059605","img/food2.png","76","642.3000000044703","3","0","1","2","1,0.5,0,1,0.5,0,0.5,0,1","1,0.5,0,1,0.5,0,0.5,0,1","1","false",""
"","html-keyboard-response","318","238136","0.0-383.0","3TESA3PJ32W5KJVPCPEELM319ZHMMB","A3KIDRWRKC7RI5","36U4VBVNQOZD8NFWZXWF9CIHKRIURB","","null","<img src=""img/food2.png"" style=""width:200px;border:14px solid red;"">","null","","","","","","","","","",""
"","image-keyboard-response","319","238811","0.0-385.0","3TESA3PJ32W5KJVPCPEELM319ZHMMB","A3KIDRWRKC7RI5","36U4VBVNQOZD8NFWZXWF9CIHKRIURB","","673","img/food1.png","75","674.5","2","1","2","2","1,0.5,0,1,0.5,0,0.5,0,1","1,0.5,0,1,0.5,0,0.5,0,1","1","false",""
"","html-keyboard-response","320","239114","0.0-386.0","3TESA3PJ32W5KJVPCPEELM319ZHMMB","A3KIDRWRKC7RI5","36U4VBVNQOZD8NFWZXWF9CIHKRIURB","","null","<img src=""img/food1.png"" style=""width:200px; border:14px solid green;"">","null","","","","","","","","","",""
"","image-keyboard-response","321","239634","0.0-388.0","3TESA3PJ32W5KJVPCPEELM319ZHMMB","A3KIDRWRKC7RI5","36U4VBVNQOZD8NFWZXWF9CIHKRIURB","","517.1999999955297","img/food1.png","75","518.7000000029802","2","1","2","2","1,0.5,0,1,0.5,0,0.5,0,1","1,0.5,0,1,0.5,0,0.5,0,1","1","false",""
"","html-keyboard-response","322","239936","0.0-389.0","3TESA3PJ32W5KJVPCPEELM319ZHMMB","A3KIDRWRKC7RI5","36U4VBVNQOZD8NFWZXWF9CIHKRIURB","","null","<img src=""img/food1.png"" style=""width:200px; border:14px solid green;"">","null","","","","","","","","","",""
"","image-keyboard-response","323","240498","0.0-391.0","3TESA3PJ32W5KJVPCPEELM319ZHMMB","A3KIDRWRKC7RI5","36U4VBVNQOZD8NFWZXWF9CIHKRIURB","","559.2999999970198","img/food4.png","76","560.8999999985099","3","1","3","2","1,0.5,0,1,0.5,0,0.5,0,1","1,0.5,0,1,0.5,0,0.5,0,1","1","false",""
"","html-keyboard-response","324","240801","0.0-392.0","3TESA3PJ32W5KJVPCPEELM319ZHMMB","A3KIDRWRKC7RI5","36U4VBVNQOZD8NFWZXWF9CIHKRIURB","","null","<img src=""img/food4.png"" style=""width:200px; border:14px solid green;"">","null","","","","","","","","","",""
"","image-keyboard-response","325","241295","0.0-394.0","3TESA3PJ32W5KJVPCPEELM319ZHMMB","A3KIDRWRKC7RI5","36U4VBVNQOZD8NFWZXWF9CIHKRIURB","","492.09999999403954","img/food4.png","76","494","3","1","3","2","1,0.5,0,1,0.5,0,0.5,0,1","1,0.5,0,1,0.5,0,0.5,0,1","1","false",""
"","html-keyboard-response","326","241598","0.0-395.0","3TESA3PJ32W5KJVPCPEELM319ZHMMB","A3KIDRWRKC7RI5","36U4VBVNQOZD8NFWZXWF9CIHKRIURB","","null","<img src=""img/food4.png"" style=""width:200px; border:14px solid green;"">","null","","","","","","","","","",""
"","image-keyboard-response","327","242151","0.0-397.0","3TESA3PJ32W5KJVPCPEELM319ZHMMB","A3KIDRWRKC7RI5","36U4VBVNQOZD8NFWZXWF9CIHKRIURB","","551.2000000029802","img/food2.png","74","552.7999999970198","1","1","1","2","1,0.5,0,1,0.5,0,0.5,0,1","1,0.5,0,1,0.5,0,0.5,0,1","1","false",""
"","html-keyboard-response","328","242463","0.0-398.0","3TESA3PJ32W5KJVPCPEELM319ZHMMB","A3KIDRWRKC7RI5","36U4VBVNQOZD8NFWZXWF9CIHKRIURB","","null","<img src=""img/food2.png"" style=""width:200px; border:14px solid green;"">","null","","","","","","","","","",""
"","image-keyboard-response","329","242981","0.0-400.0","3TESA3PJ32W5KJVPCPEELM319ZHMMB","A3KIDRWRKC7RI5","36U4VBVNQOZD8NFWZXWF9CIHKRIURB","","515.6000000014901","img/food1.png","75","517.3999999985099","2","0","2","2","1,0.5,0,1,0.5,0,0.5,0,1","1,0.5,0,1,0.5,0,0.5,0,1","1","false",""
"","html-keyboard-response","330","243284","0.0-401.0","3TESA3PJ32W5KJVPCPEELM319ZHMMB","A3KIDRWRKC7RI5","36U4VBVNQOZD8NFWZXWF9CIHKRIURB","","null","<img src=""img/food1.png"" style=""width:200px;border:14px solid red;"">","null","","","","","","","","","",""
"","image-keyboard-response","331","243747","0.0-403.0","3TESA3PJ32W5KJVPCPEELM319ZHMMB","A3KIDRWRKC7RI5","36U4VBVNQOZD8NFWZXWF9CIHKRIURB","","460.70000000298023","img/food4.png","76","462.29999999701977","3","1","3","2","1,0.5,0,1,0.5,0,0.5,0,1","1,0.5,0,1,0.5,0,0.5,0,1","1","false",""
"","html-keyboard-response","332","244050","0.0-404.0","3TESA3PJ32W5KJVPCPEELM319ZHMMB","A3KIDRWRKC7RI5","36U4VBVNQOZD8NFWZXWF9CIHKRIURB","","null","<img src=""img/food4.png"" style=""width:200px; border:14px solid green;"">","null","","","","","","","","","",""
"","image-keyboard-response","333","244568","0.0-406.0","3TESA3PJ32W5KJVPCPEELM319ZHMMB","A3KIDRWRKC7RI5","36U4VBVNQOZD8NFWZXWF9CIHKRIURB","","515.5","img/food4.png","76","517.3000000044703","3","1","3","2","1,0.5,0,1,0.5,0,0.5,0,1","1,0.5,0,1,0.5,0,0.5,0,1","1","false",""
"","html-keyboard-response","334","244871","0.0-407.0","3TESA3PJ32W5KJVPCPEELM319ZHMMB","A3KIDRWRKC7RI5","36U4VBVNQOZD8NFWZXWF9CIHKRIURB","","null","<img src=""img/food4.png"" style=""width:200px; border:14px solid green;"">","null","","","","","","","","","",""
"","image-keyboard-response","335","245347","0.0-409.0","3TESA3PJ32W5KJVPCPEELM319ZHMMB","A3KIDRWRKC7RI5","36U4VBVNQOZD8NFWZXWF9CIHKRIURB","","473.70000000298023","img/food4.png","76","475.20000000298023","3","1","3","2","1,0.5,0,1,0.5,0,0.5,0,1","1,0.5,0,1,0.5,0,0.5,0,1","1","false",""
"","html-keyboard-response","336","245650","0.0-410.0","3TESA3PJ32W5KJVPCPEELM319ZHMMB","A3KIDRWRKC7RI5","36U4VBVNQOZD8NFWZXWF9CIHKRIURB","","null","<img src=""img/food4.png"" style=""width:200px; border:14px solid green;"">","null","","","","","","","","","",""
"","image-keyboard-response","337","246146","0.0-412.0","3TESA3PJ32W5KJVPCPEELM319ZHMMB","A3KIDRWRKC7RI5","36U4VBVNQOZD8NFWZXWF9CIHKRIURB","","492.6000000014901","img/food1.png","75","494.8999999985099","2","1","2","2","1,0.5,0,1,0.5,0,0.5,0,1","1,0.5,0,1,0.5,0,0.5,0,1","1","false",""
"","html-keyboard-response","338","246448","0.0-413.0","3TESA3PJ32W5KJVPCPEELM319ZHMMB","A3KIDRWRKC7RI5","36U4VBVNQOZD8NFWZXWF9CIHKRIURB","","null","<img src=""img/food1.png"" style=""width:200px; border:14px solid green;"">","null","","","","","","","","","",""
"","image-keyboard-response","339","246939","0.0-415.0","3TESA3PJ32W5KJVPCPEELM319ZHMMB","A3KIDRWRKC7RI5","36U4VBVNQOZD8NFWZXWF9CIHKRIURB","","488.1000000014901","img/food2.png","74","489.59999999403954","1","1","1","2","1,0.5,0,1,0.5,0,0.5,0,1","1,0.5,0,1,0.5,0,0.5,0,1","1","false",""
"","html-keyboard-response","340","247241","0.0-416.0","3TESA3PJ32W5KJVPCPEELM319ZHMMB","A3KIDRWRKC7RI5","36U4VBVNQOZD8NFWZXWF9CIHKRIURB","","null","<img src=""img/food2.png"" style=""width:200px; border:14px solid green;"">","null","","","","","","","","","",""
"","image-keyboard-response","341","247709","0.0-418.0","3TESA3PJ32W5KJVPCPEELM319ZHMMB","A3KIDRWRKC7RI5","36U4VBVNQOZD8NFWZXWF9CIHKRIURB","","465.19999999552965","img/food2.png","74","466.90000000596046","1","1","1","2","1,0.5,0,1,0.5,0,0.5,0,1","1,0.5,0,1,0.5,0,0.5,0,1","1","false",""
"","html-keyboard-response","342","248012","0.0-419.0","3TESA3PJ32W5KJVPCPEELM319ZHMMB","A3KIDRWRKC7RI5","36U4VBVNQOZD8NFWZXWF9CIHKRIURB","","null","<img src=""img/food2.png"" style=""width:200px; border:14px solid green;"">","null","","","","","","","","","",""
"","image-keyboard-response","343","248495","0.0-421.0","3TESA3PJ32W5KJVPCPEELM319ZHMMB","A3KIDRWRKC7RI5","36U4VBVNQOZD8NFWZXWF9CIHKRIURB","","481","img/food1.png","75","482.5","2","0","2","2","1,0.5,0,1,0.5,0,0.5,0,1","1,0.5,0,1,0.5,0,0.5,0,1","1","false",""
"","html-keyboard-response","344","248798","0.0-422.0","3TESA3PJ32W5KJVPCPEELM319ZHMMB","A3KIDRWRKC7RI5","36U4VBVNQOZD8NFWZXWF9CIHKRIURB","","null","<img src=""img/food1.png"" style=""width:200px;border:14px solid red;"">","null","","","","","","","","","",""
"","image-keyboard-response","345","249315","0.0-424.0","3TESA3PJ32W5KJVPCPEELM319ZHMMB","A3KIDRWRKC7RI5","36U4VBVNQOZD8NFWZXWF9CIHKRIURB","","513.2000000029802","img/food4.png","76","514.8000000044703","3","1","3","2","1,0.5,0,1,0.5,0,0.5,0,1","1,0.5,0,1,0.5,0,0.5,0,1","1","false",""
"","html-keyboard-response","346","249618","0.0-425.0","3TESA3PJ32W5KJVPCPEELM319ZHMMB","A3KIDRWRKC7RI5","36U4VBVNQOZD8NFWZXWF9CIHKRIURB","","null","<img src=""img/food4.png"" style=""width:200px; border:14px solid green;"">","null","","","","","","","","","",""
"","image-keyboard-response","347","250171","0.0-427.0","3TESA3PJ32W5KJVPCPEELM319ZHMMB","A3KIDRWRKC7RI5","36U4VBVNQOZD8NFWZXWF9CIHKRIURB","","551.4000000059605","img/food2.png","74","553","1","1","1","2","1,0.5,0,1,0.5,0,0.5,0,1","1,0.5,0,1,0.5,0,0.5,0,1","1","false",""
"","html-keyboard-response","348","250474","0.0-428.0","3TESA3PJ32W5KJVPCPEELM319ZHMMB","A3KIDRWRKC7RI5","36U4VBVNQOZD8NFWZXWF9CIHKRIURB","","null","<img src=""img/food2.png"" style=""width:200px; border:14px solid green;"">","null","","","","","","","","","",""
"","image-keyboard-response","349","250930","0.0-430.0","3TESA3PJ32W5KJVPCPEELM319ZHMMB","A3KIDRWRKC7RI5","36U4VBVNQOZD8NFWZXWF9CIHKRIURB","","453","img/food2.png","74","454.6000000014901","1","1","1","2","1,0.5,0,1,0.5,0,0.5,0,1","1,0.5,0,1,0.5,0,0.5,0,1","1","false",""
"","html-keyboard-response","350","251232","0.0-431.0","3TESA3PJ32W5KJVPCPEELM319ZHMMB","A3KIDRWRKC7RI5","36U4VBVNQOZD8NFWZXWF9CIHKRIURB","","null","<img src=""img/food2.png"" style=""width:200px; border:14px solid green;"">","null","","","","","","","","","",""
"","image-keyboard-response","351","251790","0.0-433.0","3TESA3PJ32W5KJVPCPEELM319ZHMMB","A3KIDRWRKC7RI5","36U4VBVNQOZD8NFWZXWF9CIHKRIURB","","555.0999999940395","img/food4.png","76","556.7000000029802","3","1","3","2","1,0.5,0,1,0.5,0,0.5,0,1","1,0.5,0,1,0.5,0,0.5,0,1","1","false",""
"","html-keyboard-response","352","252092","0.0-434.0","3TESA3PJ32W5KJVPCPEELM319ZHMMB","A3KIDRWRKC7RI5","36U4VBVNQOZD8NFWZXWF9CIHKRIURB","","null","<img src=""img/food4.png"" style=""width:200px; border:14px solid green;"">","null","","","","","","","","","",""
"","image-keyboard-response","353","252565","0.0-436.0","3TESA3PJ32W5KJVPCPEELM319ZHMMB","A3KIDRWRKC7RI5","36U4VBVNQOZD8NFWZXWF9CIHKRIURB","","470.1000000014901","img/food1.png","75","471.70000000298023","2","0","2","2","1,0.5,0,1,0.5,0,0.5,0,1","1,0.5,0,1,0.5,0,0.5,0,1","1","false",""
"","html-keyboard-response","354","252868","0.0-437.0","3TESA3PJ32W5KJVPCPEELM319ZHMMB","A3KIDRWRKC7RI5","36U4VBVNQOZD8NFWZXWF9CIHKRIURB","","null","<img src=""img/food1.png"" style=""width:200px;border:14px solid red;"">","null","","","","","","","","","",""
"","image-keyboard-response","355","253323","0.0-439.0","3TESA3PJ32W5KJVPCPEELM319ZHMMB","A3KIDRWRKC7RI5","36U4VBVNQOZD8NFWZXWF9CIHKRIURB","","452.70000000298023","img/food4.png","76","454.19999999552965","3","1","3","2","1,0.5,0,1,0.5,0,0.5,0,1","1,0.5,0,1,0.5,0,0.5,0,1","1","false",""
"","html-keyboard-response","356","253626","0.0-440.0","3TESA3PJ32W5KJVPCPEELM319ZHMMB","A3KIDRWRKC7RI5","36U4VBVNQOZD8NFWZXWF9CIHKRIURB","","null","<img src=""img/food4.png"" style=""width:200px; border:14px solid green;"">","null","","","","","","","","","",""
"","image-keyboard-response","357","254135","0.0-442.0","3TESA3PJ32W5KJVPCPEELM319ZHMMB","A3KIDRWRKC7RI5","36U4VBVNQOZD8NFWZXWF9CIHKRIURB","","507.1000000014901","img/food4.png","76","508.6000000014901","3","1","3","2","1,0.5,0,1,0.5,0,0.5,0,1","1,0.5,0,1,0.5,0,0.5,0,1","1","false",""
"","html-keyboard-response","358","254437","0.0-443.0","3TESA3PJ32W5KJVPCPEELM319ZHMMB","A3KIDRWRKC7RI5","36U4VBVNQOZD8NFWZXWF9CIHKRIURB","","null","<img src=""img/food4.png"" style=""width:200px; border:14px solid green;"">","null","","","","","","","","","",""
"","image-keyboard-response","359","254944","0.0-445.0","3TESA3PJ32W5KJVPCPEELM319ZHMMB","A3KIDRWRKC7RI5","36U4VBVNQOZD8NFWZXWF9CIHKRIURB","","504","img/food2.png","74","505.5","1","1","1","2","1,0.5,0,1,0.5,0,0.5,0,1","1,0.5,0,1,0.5,0,0.5,0,1","1","false",""
"","html-keyboard-response","360","255246","0.0-446.0","3TESA3PJ32W5KJVPCPEELM319ZHMMB","A3KIDRWRKC7RI5","36U4VBVNQOZD8NFWZXWF9CIHKRIURB","","null","<img src=""img/food2.png"" style=""width:200px; border:14px solid green;"">","null","","","","","","","","","",""
"","image-keyboard-response","361","255689","0.0-448.0","3TESA3PJ32W5KJVPCPEELM319ZHMMB","A3KIDRWRKC7RI5","36U4VBVNQOZD8NFWZXWF9CIHKRIURB","","440.29999999701977","img/food1.png","75","441.90000000596046","2","1","2","2","1,0.5,0,1,0.5,0,0.5,0,1","1,0.5,0,1,0.5,0,0.5,0,1","1","false",""
"","html-keyboard-response","362","255992","0.0-449.0","3TESA3PJ32W5KJVPCPEELM319ZHMMB","A3KIDRWRKC7RI5","36U4VBVNQOZD8NFWZXWF9CIHKRIURB","","null","<img src=""img/food1.png"" style=""width:200px; border:14px solid green;"">","null","","","","","","","","","",""
"","image-keyboard-response","363","256483","0.0-451.0","3TESA3PJ32W5KJVPCPEELM319ZHMMB","A3KIDRWRKC7RI5","36U4VBVNQOZD8NFWZXWF9CIHKRIURB","","488.3999999985099","img/food1.png","75","490","2","0","2","2","1,0.5,0,1,0.5,0,0.5,0,1","1,0.5,0,1,0.5,0,0.5,0,1","1","false",""
"","html-keyboard-response","364","256793","0.0-452.0","3TESA3PJ32W5KJVPCPEELM319ZHMMB","A3KIDRWRKC7RI5","36U4VBVNQOZD8NFWZXWF9CIHKRIURB","","null","<img src=""img/food1.png"" style=""width:200px;border:14px solid red;"">","null","","","","","","","","","",""
"","instructions","365","260378","0.0-454.0","3TESA3PJ32W5KJVPCPEELM319ZHMMB","A3KIDRWRKC7RI5","36U4VBVNQOZD8NFWZXWF9CIHKRIURB","[{""page_index"":0,""viewing_time"":3583.39999999851}]","3583.8000000044703","","","","","","","","","","","",""
"","survey-text","366","272453","0.0-455.0","3TESA3PJ32W5KJVPCPEELM319ZHMMB","A3KIDRWRKC7RI5","36U4VBVNQOZD8NFWZXWF9CIHKRIURB","","12063.19999999553","","","","","","","","","","","","{""Q0"":""A3KIDRWRKC7RI5""}"
