"success","trial_type","trial_index","time_elapsed","internal_node_id","assignmentID","mturkID","hitID","view_history","rt","stimulus","key_press","reactionTime","chosenAction","reward","responses"
"true","fullscreen","0","6612","0.0-0.0","32XVDSJFP0JFDFRW27VU6DP3ZDKM22","A3L0DCUXI7X3A9","3SBNLSTU6UR0TCQ1NJ03LFGS7YQZDZ","","","","","","","",""
"","instructions","1","32137","0.0-1.0","32XVDSJFP0JFDFRW27VU6DP3ZDKM22","A3L0DCUXI7X3A9","3SBNLSTU6UR0TCQ1NJ03LFGS7YQZDZ","[{""page_index"":0,""viewing_time"":4171.600000008941},{""page_index"":1,""viewing_time"":2503.7999999970198},{""page_index"":2,""viewing_time"":3043.0999999940395},{""page_index"":3,""viewing_time"":5939.100000008941},{""page_index"":4,""viewing_time"":2412},{""page_index"":5,""viewing_time"":4700.5999999940395},{""page_index"":6,""viewing_time"":2752.2999999970198}]","25523","","","","","",""
"","image-keyboard-response","2","33446","0.0-2.0","32XVDSJFP0JFDFRW27VU6DP3ZDKM22","A3L0DCUXI7X3A9","3SBNLSTU6UR0TCQ1NJ03LFGS7YQZDZ","","1307.4000000059605","img/food3.png","74","1308.7000000029802","74","0",""
"","html-keyboard-response","3","33750","0.0-3.0","32XVDSJFP0JFDFRW27VU6DP3ZDKM22","A3L0DCUXI7X3A9","3SBNLSTU6UR0TCQ1NJ03LFGS7YQZDZ","","null","<img src=""img/food3.png"" style=""width:200px;border:14px solid red;"">","null","","","",""
"","image-keyboard-response","4","35542","0.0-4.0","32XVDSJFP0JFDFRW27VU6DP3ZDKM22","A3L0DCUXI7X3A9","3SBNLSTU6UR0TCQ1NJ03LFGS7YQZDZ","","1789.7000000029802","img/food6.png","74","1791.0999999940395","74","0",""
"","html-keyboard-response","5","35844","0.0-5.0","32XVDSJFP0JFDFRW27VU6DP3ZDKM22","A3L0DCUXI7X3A9","3SBNLSTU6UR0TCQ1NJ03LFGS7YQZDZ","","null","<img src=""img/food6.png"" style=""width:200px;border:14px solid red;"">","null","","","",""
"","image-keyboard-response","6","37221","0.0-6.0","32XVDSJFP0JFDFRW27VU6DP3ZDKM22","A3L0DCUXI7X3A9","3SBNLSTU6UR0TCQ1NJ03LFGS7YQZDZ","","1376.0999999940395","img/food6.png","75","1376.8999999910593","75","0",""
"","html-keyboard-response","7","37524","0.0-7.0","32XVDSJFP0JFDFRW27VU6DP3ZDKM22","A3L0DCUXI7X3A9","3SBNLSTU6UR0TCQ1NJ03LFGS7YQZDZ","","null","<img src=""img/food6.png"" style=""width:200px;border:14px solid red;"">","null","","","",""
"","image-keyboard-response","8","39653","0.0-8.0","32XVDSJFP0JFDFRW27VU6DP3ZDKM22","A3L0DCUXI7X3A9","3SBNLSTU6UR0TCQ1NJ03LFGS7YQZDZ","","2127.5","img/food3.png","76","2128.6000000089407","76","1",""
"","html-keyboard-response","9","39955","0.0-9.0","32XVDSJFP0JFDFRW27VU6DP3ZDKM22","A3L0DCUXI7X3A9","3SBNLSTU6UR0TCQ1NJ03LFGS7YQZDZ","","null","<img src=""img/food3.png"" style=""width:200px; border:14px solid green;"">","null","","","",""
"","image-keyboard-response","10","41268","0.0-10.0","32XVDSJFP0JFDFRW27VU6DP3ZDKM22","A3L0DCUXI7X3A9","3SBNLSTU6UR0TCQ1NJ03LFGS7YQZDZ","","1310.7000000029802","img/food3.png","76","1311.7000000029802","76","0",""
"","html-keyboard-response","11","41569","0.0-11.0","32XVDSJFP0JFDFRW27VU6DP3ZDKM22","A3L0DCUXI7X3A9","3SBNLSTU6UR0TCQ1NJ03LFGS7YQZDZ","","null","<img src=""img/food3.png"" style=""width:200px;border:14px solid red;"">","null","","","",""
"","image-keyboard-response","12","42899","0.0-12.0","32XVDSJFP0JFDFRW27VU6DP3ZDKM22","A3L0DCUXI7X3A9","3SBNLSTU6UR0TCQ1NJ03LFGS7YQZDZ","","1328.5","img/food1.png","75","1329.3999999910593","75","0",""
"","html-keyboard-response","13","43208","0.0-13.0","32XVDSJFP0JFDFRW27VU6DP3ZDKM22","A3L0DCUXI7X3A9","3SBNLSTU6UR0TCQ1NJ03LFGS7YQZDZ","","null","<img src=""img/food1.png"" style=""width:200px;border:14px solid red;"">","null","","","",""
"","image-keyboard-response","14","44565","0.0-14.0","32XVDSJFP0JFDFRW27VU6DP3ZDKM22","A3L0DCUXI7X3A9","3SBNLSTU6UR0TCQ1NJ03LFGS7YQZDZ","","1354.5999999940395","img/food6.png","75","1355.9000000059605","75","1",""
"","html-keyboard-response","15","44869","0.0-15.0","32XVDSJFP0JFDFRW27VU6DP3ZDKM22","A3L0DCUXI7X3A9","3SBNLSTU6UR0TCQ1NJ03LFGS7YQZDZ","","null","<img src=""img/food6.png"" style=""width:200px; border:14px solid green;"">","null","","","",""
"","image-keyboard-response","16","45621","0.0-16.0","32XVDSJFP0JFDFRW27VU6DP3ZDKM22","A3L0DCUXI7X3A9","3SBNLSTU6UR0TCQ1NJ03LFGS7YQZDZ","","750.7000000029802","img/food6.png","75","751.4000000059605","75","0",""
"","html-keyboard-response","17","45923","0.0-17.0","32XVDSJFP0JFDFRW27VU6DP3ZDKM22","A3L0DCUXI7X3A9","3SBNLSTU6UR0TCQ1NJ03LFGS7YQZDZ","","null","<img src=""img/food6.png"" style=""width:200px;border:14px solid red;"">","null","","","",""
"","image-keyboard-response","18","47252","0.0-18.0","32XVDSJFP0JFDFRW27VU6DP3ZDKM22","A3L0DCUXI7X3A9","3SBNLSTU6UR0TCQ1NJ03LFGS7YQZDZ","","1327.7000000029802","img/food6.png","76","1329","76","1",""
"","html-keyboard-response","19","47555","0.0-19.0","32XVDSJFP0JFDFRW27VU6DP3ZDKM22","A3L0DCUXI7X3A9","3SBNLSTU6UR0TCQ1NJ03LFGS7YQZDZ","","null","<img src=""img/food6.png"" style=""width:200px; border:14px solid green;"">","null","","","",""
"","image-keyboard-response","20","50277","0.0-20.0","32XVDSJFP0JFDFRW27VU6DP3ZDKM22","A3L0DCUXI7X3A9","3SBNLSTU6UR0TCQ1NJ03LFGS7YQZDZ","","2720.5999999940395","img/food3.png","76","2721.9000000059605","76","1",""
"","html-keyboard-response","21","50580","0.0-21.0","32XVDSJFP0JFDFRW27VU6DP3ZDKM22","A3L0DCUXI7X3A9","3SBNLSTU6UR0TCQ1NJ03LFGS7YQZDZ","","null","<img src=""img/food3.png"" style=""width:200px; border:14px solid green;"">","null","","","",""
"","image-keyboard-response","22","51220","0.0-22.0","32XVDSJFP0JFDFRW27VU6DP3ZDKM22","A3L0DCUXI7X3A9","3SBNLSTU6UR0TCQ1NJ03LFGS7YQZDZ","","638.7999999970198","img/food3.png","76","640","76","0",""
"","html-keyboard-response","23","51522","0.0-23.0","32XVDSJFP0JFDFRW27VU6DP3ZDKM22","A3L0DCUXI7X3A9","3SBNLSTU6UR0TCQ1NJ03LFGS7YQZDZ","","null","<img src=""img/food3.png"" style=""width:200px;border:14px solid red;"">","null","","","",""
"","image-keyboard-response","24","52179","0.0-24.0","32XVDSJFP0JFDFRW27VU6DP3ZDKM22","A3L0DCUXI7X3A9","3SBNLSTU6UR0TCQ1NJ03LFGS7YQZDZ","","655.7999999970198","img/food6.png","76","656.8000000119209","76","0",""
"","html-keyboard-response","25","52481","0.0-25.0","32XVDSJFP0JFDFRW27VU6DP3ZDKM22","A3L0DCUXI7X3A9","3SBNLSTU6UR0TCQ1NJ03LFGS7YQZDZ","","null","<img src=""img/food6.png"" style=""width:200px;border:14px solid red;"">","null","","","",""
"","image-keyboard-response","26","53061","0.0-26.0","32XVDSJFP0JFDFRW27VU6DP3ZDKM22","A3L0DCUXI7X3A9","3SBNLSTU6UR0TCQ1NJ03LFGS7YQZDZ","","578.5","img/food6.png","76","579.5999999940395","76","0",""
"","html-keyboard-response","27","53362","0.0-27.0","32XVDSJFP0JFDFRW27VU6DP3ZDKM22","A3L0DCUXI7X3A9","3SBNLSTU6UR0TCQ1NJ03LFGS7YQZDZ","","null","<img src=""img/food6.png"" style=""width:200px;border:14px solid red;"">","null","","","",""
"","image-keyboard-response","28","54068","0.0-28.0","32XVDSJFP0JFDFRW27VU6DP3ZDKM22","A3L0DCUXI7X3A9","3SBNLSTU6UR0TCQ1NJ03LFGS7YQZDZ","","705.7999999970198","img/food6.png","76","706.4000000059605","76","1",""
"","html-keyboard-response","29","54371","0.0-29.0","32XVDSJFP0JFDFRW27VU6DP3ZDKM22","A3L0DCUXI7X3A9","3SBNLSTU6UR0TCQ1NJ03LFGS7YQZDZ","","null","<img src=""img/food6.png"" style=""width:200px; border:14px solid green;"">","null","","","",""
"","image-keyboard-response","30","54949","0.0-30.0","32XVDSJFP0JFDFRW27VU6DP3ZDKM22","A3L0DCUXI7X3A9","3SBNLSTU6UR0TCQ1NJ03LFGS7YQZDZ","","577.8999999910593","img/food6.png","76","578.5","76","1",""
"","html-keyboard-response","31","55252","0.0-31.0","32XVDSJFP0JFDFRW27VU6DP3ZDKM22","A3L0DCUXI7X3A9","3SBNLSTU6UR0TCQ1NJ03LFGS7YQZDZ","","null","<img src=""img/food6.png"" style=""width:200px; border:14px solid green;"">","null","","","",""
"","image-keyboard-response","32","56452","0.0-32.0","32XVDSJFP0JFDFRW27VU6DP3ZDKM22","A3L0DCUXI7X3A9","3SBNLSTU6UR0TCQ1NJ03LFGS7YQZDZ","","1199.2999999970198","img/food1.png","74","1200.5","74","1",""
"","html-keyboard-response","33","56754","0.0-33.0","32XVDSJFP0JFDFRW27VU6DP3ZDKM22","A3L0DCUXI7X3A9","3SBNLSTU6UR0TCQ1NJ03LFGS7YQZDZ","","null","<img src=""img/food1.png"" style=""width:200px; border:14px solid green;"">","null","","","",""
"","image-keyboard-response","34","59203","0.0-34.0","32XVDSJFP0JFDFRW27VU6DP3ZDKM22","A3L0DCUXI7X3A9","3SBNLSTU6UR0TCQ1NJ03LFGS7YQZDZ","","2447.5","img/food6.png","76","2448.5","76","1",""
"","html-keyboard-response","35","59505","0.0-35.0","32XVDSJFP0JFDFRW27VU6DP3ZDKM22","A3L0DCUXI7X3A9","3SBNLSTU6UR0TCQ1NJ03LFGS7YQZDZ","","null","<img src=""img/food6.png"" style=""width:200px; border:14px solid green;"">","null","","","",""
"","image-keyboard-response","36","60180","0.0-36.0","32XVDSJFP0JFDFRW27VU6DP3ZDKM22","A3L0DCUXI7X3A9","3SBNLSTU6UR0TCQ1NJ03LFGS7YQZDZ","","674.3000000119209","img/food1.png","74","675.5","74","0",""
"","html-keyboard-response","37","60482","0.0-37.0","32XVDSJFP0JFDFRW27VU6DP3ZDKM22","A3L0DCUXI7X3A9","3SBNLSTU6UR0TCQ1NJ03LFGS7YQZDZ","","null","<img src=""img/food1.png"" style=""width:200px;border:14px solid red;"">","null","","","",""
"","image-keyboard-response","38","61493","0.0-38.0","32XVDSJFP0JFDFRW27VU6DP3ZDKM22","A3L0DCUXI7X3A9","3SBNLSTU6UR0TCQ1NJ03LFGS7YQZDZ","","1010.0999999940395","img/food6.png","76","1010.7000000029802","76","1",""
"","html-keyboard-response","39","61795","0.0-39.0","32XVDSJFP0JFDFRW27VU6DP3ZDKM22","A3L0DCUXI7X3A9","3SBNLSTU6UR0TCQ1NJ03LFGS7YQZDZ","","null","<img src=""img/food6.png"" style=""width:200px; border:14px solid green;"">","null","","","",""
"","image-keyboard-response","40","62612","0.0-40.0","32XVDSJFP0JFDFRW27VU6DP3ZDKM22","A3L0DCUXI7X3A9","3SBNLSTU6UR0TCQ1NJ03LFGS7YQZDZ","","816","img/food3.png","76","817.0999999940395","76","0",""
"","html-keyboard-response","41","62914","0.0-41.0","32XVDSJFP0JFDFRW27VU6DP3ZDKM22","A3L0DCUXI7X3A9","3SBNLSTU6UR0TCQ1NJ03LFGS7YQZDZ","","null","<img src=""img/food3.png"" style=""width:200px;border:14px solid red;"">","null","","","",""
"","image-keyboard-response","42","63749","0.0-42.0","32XVDSJFP0JFDFRW27VU6DP3ZDKM22","A3L0DCUXI7X3A9","3SBNLSTU6UR0TCQ1NJ03LFGS7YQZDZ","","833","img/food1.png","74","834.0999999940395","74","1",""
"","html-keyboard-response","43","64051","0.0-43.0","32XVDSJFP0JFDFRW27VU6DP3ZDKM22","A3L0DCUXI7X3A9","3SBNLSTU6UR0TCQ1NJ03LFGS7YQZDZ","","null","<img src=""img/food1.png"" style=""width:200px; border:14px solid green;"">","null","","","",""
"","image-keyboard-response","44","64501","0.0-44.0","32XVDSJFP0JFDFRW27VU6DP3ZDKM22","A3L0DCUXI7X3A9","3SBNLSTU6UR0TCQ1NJ03LFGS7YQZDZ","","448.6000000089407","img/food1.png","74","449.70000000298023","74","0",""
"","html-keyboard-response","45","64803","0.0-45.0","32XVDSJFP0JFDFRW27VU6DP3ZDKM22","A3L0DCUXI7X3A9","3SBNLSTU6UR0TCQ1NJ03LFGS7YQZDZ","","null","<img src=""img/food1.png"" style=""width:200px;border:14px solid red;"">","null","","","",""
"","image-keyboard-response","46","65654","0.0-46.0","32XVDSJFP0JFDFRW27VU6DP3ZDKM22","A3L0DCUXI7X3A9","3SBNLSTU6UR0TCQ1NJ03LFGS7YQZDZ","","849.5","img/food6.png","76","850.7000000029802","76","1",""
"","html-keyboard-response","47","65956","0.0-47.0","32XVDSJFP0JFDFRW27VU6DP3ZDKM22","A3L0DCUXI7X3A9","3SBNLSTU6UR0TCQ1NJ03LFGS7YQZDZ","","null","<img src=""img/food6.png"" style=""width:200px; border:14px solid green;"">","null","","","",""
"","image-keyboard-response","48","67701","0.0-48.0","32XVDSJFP0JFDFRW27VU6DP3ZDKM22","A3L0DCUXI7X3A9","3SBNLSTU6UR0TCQ1NJ03LFGS7YQZDZ","","1743.7999999970198","img/food3.png","76","1744.5","76","1",""
"","html-keyboard-response","49","68002","0.0-49.0","32XVDSJFP0JFDFRW27VU6DP3ZDKM22","A3L0DCUXI7X3A9","3SBNLSTU6UR0TCQ1NJ03LFGS7YQZDZ","","null","<img src=""img/food3.png"" style=""width:200px; border:14px solid green;"">","null","","","",""
"","image-keyboard-response","50","68995","0.0-50.0","32XVDSJFP0JFDFRW27VU6DP3ZDKM22","A3L0DCUXI7X3A9","3SBNLSTU6UR0TCQ1NJ03LFGS7YQZDZ","","991.2000000029802","img/food6.png","76","992.5","76","1",""
"","html-keyboard-response","51","69297","0.0-51.0","32XVDSJFP0JFDFRW27VU6DP3ZDKM22","A3L0DCUXI7X3A9","3SBNLSTU6UR0TCQ1NJ03LFGS7YQZDZ","","null","<img src=""img/food6.png"" style=""width:200px; border:14px solid green;"">","null","","","",""
"","image-keyboard-response","52","69828","0.0-52.0","32XVDSJFP0JFDFRW27VU6DP3ZDKM22","A3L0DCUXI7X3A9","3SBNLSTU6UR0TCQ1NJ03LFGS7YQZDZ","","530.5999999940395","img/food1.png","74","531.6000000089407","74","0",""
"","html-keyboard-response","53","70130","0.0-53.0","32XVDSJFP0JFDFRW27VU6DP3ZDKM22","A3L0DCUXI7X3A9","3SBNLSTU6UR0TCQ1NJ03LFGS7YQZDZ","","null","<img src=""img/food1.png"" style=""width:200px;border:14px solid red;"">","null","","","",""
"","image-keyboard-response","54","70934","0.0-54.0","32XVDSJFP0JFDFRW27VU6DP3ZDKM22","A3L0DCUXI7X3A9","3SBNLSTU6UR0TCQ1NJ03LFGS7YQZDZ","","802.6999999880791","img/food6.png","76","803.5","76","1",""
"","html-keyboard-response","55","71235","0.0-55.0","32XVDSJFP0JFDFRW27VU6DP3ZDKM22","A3L0DCUXI7X3A9","3SBNLSTU6UR0TCQ1NJ03LFGS7YQZDZ","","null","<img src=""img/food6.png"" style=""width:200px; border:14px solid green;"">","null","","","",""
"","image-keyboard-response","56","71733","0.0-56.0","32XVDSJFP0JFDFRW27VU6DP3ZDKM22","A3L0DCUXI7X3A9","3SBNLSTU6UR0TCQ1NJ03LFGS7YQZDZ","","496.3999999910593","img/food3.png","76","497.5","76","1",""
"","html-keyboard-response","57","72035","0.0-57.0","32XVDSJFP0JFDFRW27VU6DP3ZDKM22","A3L0DCUXI7X3A9","3SBNLSTU6UR0TCQ1NJ03LFGS7YQZDZ","","null","<img src=""img/food3.png"" style=""width:200px; border:14px solid green;"">","null","","","",""
"","image-keyboard-response","58","72741","0.0-58.0","32XVDSJFP0JFDFRW27VU6DP3ZDKM22","A3L0DCUXI7X3A9","3SBNLSTU6UR0TCQ1NJ03LFGS7YQZDZ","","704.7999999970198","img/food1.png","74","705.5999999940395","74","0",""
"","html-keyboard-response","59","73043","0.0-59.0","32XVDSJFP0JFDFRW27VU6DP3ZDKM22","A3L0DCUXI7X3A9","3SBNLSTU6UR0TCQ1NJ03LFGS7YQZDZ","","null","<img src=""img/food1.png"" style=""width:200px;border:14px solid red;"">","null","","","",""
"","image-keyboard-response","60","73685","0.0-60.0","32XVDSJFP0JFDFRW27VU6DP3ZDKM22","A3L0DCUXI7X3A9","3SBNLSTU6UR0TCQ1NJ03LFGS7YQZDZ","","640.2999999970198","img/food6.png","76","641.5","76","0",""
"","html-keyboard-response","61","73988","0.0-61.0","32XVDSJFP0JFDFRW27VU6DP3ZDKM22","A3L0DCUXI7X3A9","3SBNLSTU6UR0TCQ1NJ03LFGS7YQZDZ","","null","<img src=""img/food6.png"" style=""width:200px;border:14px solid red;"">","null","","","",""
"","image-keyboard-response","62","74420","0.0-62.0","32XVDSJFP0JFDFRW27VU6DP3ZDKM22","A3L0DCUXI7X3A9","3SBNLSTU6UR0TCQ1NJ03LFGS7YQZDZ","","430.80000001192093","img/food3.png","76","431.70000000298023","76","1",""
"","html-keyboard-response","63","74722","0.0-63.0","32XVDSJFP0JFDFRW27VU6DP3ZDKM22","A3L0DCUXI7X3A9","3SBNLSTU6UR0TCQ1NJ03LFGS7YQZDZ","","null","<img src=""img/food3.png"" style=""width:200px; border:14px solid green;"">","null","","","",""
"","image-keyboard-response","64","75301","0.0-64.0","32XVDSJFP0JFDFRW27VU6DP3ZDKM22","A3L0DCUXI7X3A9","3SBNLSTU6UR0TCQ1NJ03LFGS7YQZDZ","","577.2999999970198","img/food6.png","76","578.6000000089407","76","1",""
"","html-keyboard-response","65","75603","0.0-65.0","32XVDSJFP0JFDFRW27VU6DP3ZDKM22","A3L0DCUXI7X3A9","3SBNLSTU6UR0TCQ1NJ03LFGS7YQZDZ","","null","<img src=""img/food6.png"" style=""width:200px; border:14px solid green;"">","null","","","",""
"","image-keyboard-response","66","76245","0.0-66.0","32XVDSJFP0JFDFRW27VU6DP3ZDKM22","A3L0DCUXI7X3A9","3SBNLSTU6UR0TCQ1NJ03LFGS7YQZDZ","","640.5","img/food3.png","76","641.6000000089407","76","1",""
"","html-keyboard-response","67","76547","0.0-67.0","32XVDSJFP0JFDFRW27VU6DP3ZDKM22","A3L0DCUXI7X3A9","3SBNLSTU6UR0TCQ1NJ03LFGS7YQZDZ","","null","<img src=""img/food3.png"" style=""width:200px; border:14px solid green;"">","null","","","",""
"","image-keyboard-response","68","77285","0.0-68.0","32XVDSJFP0JFDFRW27VU6DP3ZDKM22","A3L0DCUXI7X3A9","3SBNLSTU6UR0TCQ1NJ03LFGS7YQZDZ","","736.8999999910593","img/food3.png","76","737.6000000089407","76","1",""
"","html-keyboard-response","69","77586","0.0-69.0","32XVDSJFP0JFDFRW27VU6DP3ZDKM22","A3L0DCUXI7X3A9","3SBNLSTU6UR0TCQ1NJ03LFGS7YQZDZ","","null","<img src=""img/food3.png"" style=""width:200px; border:14px solid green;"">","null","","","",""
"","image-keyboard-response","70","77987","0.0-70.0","32XVDSJFP0JFDFRW27VU6DP3ZDKM22","A3L0DCUXI7X3A9","3SBNLSTU6UR0TCQ1NJ03LFGS7YQZDZ","","399.20000000298023","img/food3.png","76","400.20000000298023","76","1",""
"","html-keyboard-response","71","78288","0.0-71.0","32XVDSJFP0JFDFRW27VU6DP3ZDKM22","A3L0DCUXI7X3A9","3SBNLSTU6UR0TCQ1NJ03LFGS7YQZDZ","","null","<img src=""img/food3.png"" style=""width:200px; border:14px solid green;"">","null","","","",""
"","image-keyboard-response","72","78804","0.0-72.0","32XVDSJFP0JFDFRW27VU6DP3ZDKM22","A3L0DCUXI7X3A9","3SBNLSTU6UR0TCQ1NJ03LFGS7YQZDZ","","514.5","img/food1.png","74","515.7000000029802","74","1",""
"","html-keyboard-response","73","79106","0.0-73.0","32XVDSJFP0JFDFRW27VU6DP3ZDKM22","A3L0DCUXI7X3A9","3SBNLSTU6UR0TCQ1NJ03LFGS7YQZDZ","","null","<img src=""img/food1.png"" style=""width:200px; border:14px solid green;"">","null","","","",""
"","image-keyboard-response","74","79701","0.0-74.0","32XVDSJFP0JFDFRW27VU6DP3ZDKM22","A3L0DCUXI7X3A9","3SBNLSTU6UR0TCQ1NJ03LFGS7YQZDZ","","594","img/food6.png","76","594.6999999880791","76","0",""
"","html-keyboard-response","75","80015","0.0-75.0","32XVDSJFP0JFDFRW27VU6DP3ZDKM22","A3L0DCUXI7X3A9","3SBNLSTU6UR0TCQ1NJ03LFGS7YQZDZ","","null","<img src=""img/food6.png"" style=""width:200px;border:14px solid red;"">","null","","","",""
"","image-keyboard-response","76","80357","0.0-76.0","32XVDSJFP0JFDFRW27VU6DP3ZDKM22","A3L0DCUXI7X3A9","3SBNLSTU6UR0TCQ1NJ03LFGS7YQZDZ","","341.19999998807907","img/food1.png","76","342.40000000596046","76","0",""
"","html-keyboard-response","77","80660","0.0-77.0","32XVDSJFP0JFDFRW27VU6DP3ZDKM22","A3L0DCUXI7X3A9","3SBNLSTU6UR0TCQ1NJ03LFGS7YQZDZ","","null","<img src=""img/food1.png"" style=""width:200px;border:14px solid red;"">","null","","","",""
"","image-keyboard-response","78","80949","0.0-78.0","32XVDSJFP0JFDFRW27VU6DP3ZDKM22","A3L0DCUXI7X3A9","3SBNLSTU6UR0TCQ1NJ03LFGS7YQZDZ","","287.70000000298023","img/food6.png","76","288.8999999910593","76","1",""
"","html-keyboard-response","79","81251","0.0-79.0","32XVDSJFP0JFDFRW27VU6DP3ZDKM22","A3L0DCUXI7X3A9","3SBNLSTU6UR0TCQ1NJ03LFGS7YQZDZ","","null","<img src=""img/food6.png"" style=""width:200px; border:14px solid green;"">","null","","","",""
"","image-keyboard-response","80","81716","0.0-80.0","32XVDSJFP0JFDFRW27VU6DP3ZDKM22","A3L0DCUXI7X3A9","3SBNLSTU6UR0TCQ1NJ03LFGS7YQZDZ","","464.40000000596046","img/food1.png","76","465.59999999403954","76","1",""
"","html-keyboard-response","81","82019","0.0-81.0","32XVDSJFP0JFDFRW27VU6DP3ZDKM22","A3L0DCUXI7X3A9","3SBNLSTU6UR0TCQ1NJ03LFGS7YQZDZ","","null","<img src=""img/food1.png"" style=""width:200px; border:14px solid green;"">","null","","","",""
"","image-keyboard-response","82","82757","0.0-82.0","32XVDSJFP0JFDFRW27VU6DP3ZDKM22","A3L0DCUXI7X3A9","3SBNLSTU6UR0TCQ1NJ03LFGS7YQZDZ","","736.4000000059605","img/food3.png","76","737.3999999910593","76","1",""
"","html-keyboard-response","83","83063","0.0-83.0","32XVDSJFP0JFDFRW27VU6DP3ZDKM22","A3L0DCUXI7X3A9","3SBNLSTU6UR0TCQ1NJ03LFGS7YQZDZ","","null","<img src=""img/food3.png"" style=""width:200px; border:14px solid green;"">","null","","","",""
"","image-keyboard-response","84","83475","0.0-84.0","32XVDSJFP0JFDFRW27VU6DP3ZDKM22","A3L0DCUXI7X3A9","3SBNLSTU6UR0TCQ1NJ03LFGS7YQZDZ","","410.5","img/food3.png","76","411.59999999403954","76","1",""
"","html-keyboard-response","85","83776","0.0-85.0","32XVDSJFP0JFDFRW27VU6DP3ZDKM22","A3L0DCUXI7X3A9","3SBNLSTU6UR0TCQ1NJ03LFGS7YQZDZ","","null","<img src=""img/food3.png"" style=""width:200px; border:14px solid green;"">","null","","","",""
"","image-keyboard-response","86","84180","0.0-86.0","32XVDSJFP0JFDFRW27VU6DP3ZDKM22","A3L0DCUXI7X3A9","3SBNLSTU6UR0TCQ1NJ03LFGS7YQZDZ","","402.59999999403954","img/food3.png","76","403.8999999910593","76","1",""
"","html-keyboard-response","87","84483","0.0-87.0","32XVDSJFP0JFDFRW27VU6DP3ZDKM22","A3L0DCUXI7X3A9","3SBNLSTU6UR0TCQ1NJ03LFGS7YQZDZ","","null","<img src=""img/food3.png"" style=""width:200px; border:14px solid green;"">","null","","","",""
"","image-keyboard-response","88","84837","0.0-88.0","32XVDSJFP0JFDFRW27VU6DP3ZDKM22","A3L0DCUXI7X3A9","3SBNLSTU6UR0TCQ1NJ03LFGS7YQZDZ","","352.09999999403954","img/food3.png","76","353.20000000298023","76","1",""
"","html-keyboard-response","89","85139","0.0-89.0","32XVDSJFP0JFDFRW27VU6DP3ZDKM22","A3L0DCUXI7X3A9","3SBNLSTU6UR0TCQ1NJ03LFGS7YQZDZ","","null","<img src=""img/food3.png"" style=""width:200px; border:14px solid green;"">","null","","","",""
"","image-keyboard-response","90","85715","0.0-90.0","32XVDSJFP0JFDFRW27VU6DP3ZDKM22","A3L0DCUXI7X3A9","3SBNLSTU6UR0TCQ1NJ03LFGS7YQZDZ","","574.7000000029802","img/food1.png","74","575.5999999940395","74","1",""
"","html-keyboard-response","91","86018","0.0-91.0","32XVDSJFP0JFDFRW27VU6DP3ZDKM22","A3L0DCUXI7X3A9","3SBNLSTU6UR0TCQ1NJ03LFGS7YQZDZ","","null","<img src=""img/food1.png"" style=""width:200px; border:14px solid green;"">","null","","","",""
"","image-keyboard-response","92","86500","0.0-92.0","32XVDSJFP0JFDFRW27VU6DP3ZDKM22","A3L0DCUXI7X3A9","3SBNLSTU6UR0TCQ1NJ03LFGS7YQZDZ","","481","img/food1.png","74","481.8999999910593","74","0",""
"","html-keyboard-response","93","86801","0.0-93.0","32XVDSJFP0JFDFRW27VU6DP3ZDKM22","A3L0DCUXI7X3A9","3SBNLSTU6UR0TCQ1NJ03LFGS7YQZDZ","","null","<img src=""img/food1.png"" style=""width:200px;border:14px solid red;"">","null","","","",""
"","image-keyboard-response","94","87252","0.0-94.0","32XVDSJFP0JFDFRW27VU6DP3ZDKM22","A3L0DCUXI7X3A9","3SBNLSTU6UR0TCQ1NJ03LFGS7YQZDZ","","449.59999999403954","img/food1.png","74","450.80000001192093","74","1",""
"","html-keyboard-response","95","87554","0.0-95.0","32XVDSJFP0JFDFRW27VU6DP3ZDKM22","A3L0DCUXI7X3A9","3SBNLSTU6UR0TCQ1NJ03LFGS7YQZDZ","","null","<img src=""img/food1.png"" style=""width:200px; border:14px solid green;"">","null","","","",""
"","image-keyboard-response","96","88245","0.0-96.0","32XVDSJFP0JFDFRW27VU6DP3ZDKM22","A3L0DCUXI7X3A9","3SBNLSTU6UR0TCQ1NJ03LFGS7YQZDZ","","689.5999999940395","img/food3.png","76","690.7000000029802","76","1",""
"","html-keyboard-response","97","88547","0.0-97.0","32XVDSJFP0JFDFRW27VU6DP3ZDKM22","A3L0DCUXI7X3A9","3SBNLSTU6UR0TCQ1NJ03LFGS7YQZDZ","","null","<img src=""img/food3.png"" style=""width:200px; border:14px solid green;"">","null","","","",""
"","image-keyboard-response","98","88980","0.0-98.0","32XVDSJFP0JFDFRW27VU6DP3ZDKM22","A3L0DCUXI7X3A9","3SBNLSTU6UR0TCQ1NJ03LFGS7YQZDZ","","432.79999999701977","img/food1.png","76","433.5","76","0",""
"","html-keyboard-response","99","89283","0.0-99.0","32XVDSJFP0JFDFRW27VU6DP3ZDKM22","A3L0DCUXI7X3A9","3SBNLSTU6UR0TCQ1NJ03LFGS7YQZDZ","","null","<img src=""img/food1.png"" style=""width:200px;border:14px solid red;"">","null","","","",""
"","image-keyboard-response","100","90084","0.0-100.0","32XVDSJFP0JFDFRW27VU6DP3ZDKM22","A3L0DCUXI7X3A9","3SBNLSTU6UR0TCQ1NJ03LFGS7YQZDZ","","799.5","img/food3.png","76","800.4000000059605","76","1",""
"","html-keyboard-response","101","90385","0.0-101.0","32XVDSJFP0JFDFRW27VU6DP3ZDKM22","A3L0DCUXI7X3A9","3SBNLSTU6UR0TCQ1NJ03LFGS7YQZDZ","","null","<img src=""img/food3.png"" style=""width:200px; border:14px solid green;"">","null","","","",""
"","image-keyboard-response","102","90789","0.0-102.0","32XVDSJFP0JFDFRW27VU6DP3ZDKM22","A3L0DCUXI7X3A9","3SBNLSTU6UR0TCQ1NJ03LFGS7YQZDZ","","402.30000001192093","img/food3.png","76","403.40000000596046","76","0",""
"","html-keyboard-response","103","91091","0.0-103.0","32XVDSJFP0JFDFRW27VU6DP3ZDKM22","A3L0DCUXI7X3A9","3SBNLSTU6UR0TCQ1NJ03LFGS7YQZDZ","","null","<img src=""img/food3.png"" style=""width:200px;border:14px solid red;"">","null","","","",""
"","image-keyboard-response","104","91523","0.0-104.0","32XVDSJFP0JFDFRW27VU6DP3ZDKM22","A3L0DCUXI7X3A9","3SBNLSTU6UR0TCQ1NJ03LFGS7YQZDZ","","431.5","img/food3.png","76","432.1000000089407","76","0",""
"","html-keyboard-response","105","91824","0.0-105.0","32XVDSJFP0JFDFRW27VU6DP3ZDKM22","A3L0DCUXI7X3A9","3SBNLSTU6UR0TCQ1NJ03LFGS7YQZDZ","","null","<img src=""img/food3.png"" style=""width:200px;border:14px solid red;"">","null","","","",""
"","image-keyboard-response","106","92197","0.0-106.0","32XVDSJFP0JFDFRW27VU6DP3ZDKM22","A3L0DCUXI7X3A9","3SBNLSTU6UR0TCQ1NJ03LFGS7YQZDZ","","370.59999999403954","img/food3.png","76","371.8999999910593","76","1",""
"","html-keyboard-response","107","92499","0.0-107.0","32XVDSJFP0JFDFRW27VU6DP3ZDKM22","A3L0DCUXI7X3A9","3SBNLSTU6UR0TCQ1NJ03LFGS7YQZDZ","","null","<img src=""img/food3.png"" style=""width:200px; border:14px solid green;"">","null","","","",""
"","image-keyboard-response","108","93348","0.0-108.0","32XVDSJFP0JFDFRW27VU6DP3ZDKM22","A3L0DCUXI7X3A9","3SBNLSTU6UR0TCQ1NJ03LFGS7YQZDZ","","848.8999999910593","img/food1.png","74","849.2999999970198","74","0",""
"","html-keyboard-response","109","93651","0.0-109.0","32XVDSJFP0JFDFRW27VU6DP3ZDKM22","A3L0DCUXI7X3A9","3SBNLSTU6UR0TCQ1NJ03LFGS7YQZDZ","","null","<img src=""img/food1.png"" style=""width:200px;border:14px solid red;"">","null","","","",""
"","image-keyboard-response","110","94181","0.0-110.0","32XVDSJFP0JFDFRW27VU6DP3ZDKM22","A3L0DCUXI7X3A9","3SBNLSTU6UR0TCQ1NJ03LFGS7YQZDZ","","528.5","img/food6.png","76","529.5","76","1",""
"","html-keyboard-response","111","94483","0.0-111.0","32XVDSJFP0JFDFRW27VU6DP3ZDKM22","A3L0DCUXI7X3A9","3SBNLSTU6UR0TCQ1NJ03LFGS7YQZDZ","","null","<img src=""img/food6.png"" style=""width:200px; border:14px solid green;"">","null","","","",""
"","image-keyboard-response","112","94933","0.0-112.0","32XVDSJFP0JFDFRW27VU6DP3ZDKM22","A3L0DCUXI7X3A9","3SBNLSTU6UR0TCQ1NJ03LFGS7YQZDZ","","449","img/food1.png","76","449.69999998807907","76","1",""
"","html-keyboard-response","113","95235","0.0-113.0","32XVDSJFP0JFDFRW27VU6DP3ZDKM22","A3L0DCUXI7X3A9","3SBNLSTU6UR0TCQ1NJ03LFGS7YQZDZ","","null","<img src=""img/food1.png"" style=""width:200px; border:14px solid green;"">","null","","","",""
"","image-keyboard-response","114","95844","0.0-114.0","32XVDSJFP0JFDFRW27VU6DP3ZDKM22","A3L0DCUXI7X3A9","3SBNLSTU6UR0TCQ1NJ03LFGS7YQZDZ","","607.3000000119209","img/food3.png","76","608.5999999940395","76","1",""
"","html-keyboard-response","115","96147","0.0-115.0","32XVDSJFP0JFDFRW27VU6DP3ZDKM22","A3L0DCUXI7X3A9","3SBNLSTU6UR0TCQ1NJ03LFGS7YQZDZ","","null","<img src=""img/food3.png"" style=""width:200px; border:14px solid green;"">","null","","","",""
"","image-keyboard-response","116","96501","0.0-116.0","32XVDSJFP0JFDFRW27VU6DP3ZDKM22","A3L0DCUXI7X3A9","3SBNLSTU6UR0TCQ1NJ03LFGS7YQZDZ","","352.79999999701977","img/food3.png","76","354","76","1",""
"","html-keyboard-response","117","96803","0.0-117.0","32XVDSJFP0JFDFRW27VU6DP3ZDKM22","A3L0DCUXI7X3A9","3SBNLSTU6UR0TCQ1NJ03LFGS7YQZDZ","","null","<img src=""img/food3.png"" style=""width:200px; border:14px solid green;"">","null","","","",""
"","image-keyboard-response","118","97189","0.0-118.0","32XVDSJFP0JFDFRW27VU6DP3ZDKM22","A3L0DCUXI7X3A9","3SBNLSTU6UR0TCQ1NJ03LFGS7YQZDZ","","384.6000000089407","img/food3.png","76","385.59999999403954","76","0",""
"","html-keyboard-response","119","97492","0.0-119.0","32XVDSJFP0JFDFRW27VU6DP3ZDKM22","A3L0DCUXI7X3A9","3SBNLSTU6UR0TCQ1NJ03LFGS7YQZDZ","","null","<img src=""img/food3.png"" style=""width:200px;border:14px solid red;"">","null","","","",""
"","image-keyboard-response","120","98196","0.0-120.0","32XVDSJFP0JFDFRW27VU6DP3ZDKM22","A3L0DCUXI7X3A9","3SBNLSTU6UR0TCQ1NJ03LFGS7YQZDZ","","703.0999999940395","img/food6.png","76","704.4000000059605","76","1",""
"","html-keyboard-response","121","98512","0.0-121.0","32XVDSJFP0JFDFRW27VU6DP3ZDKM22","A3L0DCUXI7X3A9","3SBNLSTU6UR0TCQ1NJ03LFGS7YQZDZ","","null","<img src=""img/food6.png"" style=""width:200px; border:14px solid green;"">","null","","","",""
"","image-keyboard-response","122","99252","0.0-122.0","32XVDSJFP0JFDFRW27VU6DP3ZDKM22","A3L0DCUXI7X3A9","3SBNLSTU6UR0TCQ1NJ03LFGS7YQZDZ","","738.5999999940395","img/food1.png","74","739.7000000029802","74","1",""
"","html-keyboard-response","123","99555","0.0-123.0","32XVDSJFP0JFDFRW27VU6DP3ZDKM22","A3L0DCUXI7X3A9","3SBNLSTU6UR0TCQ1NJ03LFGS7YQZDZ","","null","<img src=""img/food1.png"" style=""width:200px; border:14px solid green;"">","null","","","",""
"","image-keyboard-response","124","100020","0.0-124.0","32XVDSJFP0JFDFRW27VU6DP3ZDKM22","A3L0DCUXI7X3A9","3SBNLSTU6UR0TCQ1NJ03LFGS7YQZDZ","","463.90000000596046","img/food1.png","74","464.90000000596046","74","0",""
"","html-keyboard-response","125","100323","0.0-125.0","32XVDSJFP0JFDFRW27VU6DP3ZDKM22","A3L0DCUXI7X3A9","3SBNLSTU6UR0TCQ1NJ03LFGS7YQZDZ","","null","<img src=""img/food1.png"" style=""width:200px;border:14px solid red;"">","null","","","",""
"","image-keyboard-response","126","100917","0.0-126.0","32XVDSJFP0JFDFRW27VU6DP3ZDKM22","A3L0DCUXI7X3A9","3SBNLSTU6UR0TCQ1NJ03LFGS7YQZDZ","","593.4000000059605","img/food6.png","76","594.6000000089407","76","1",""
"","html-keyboard-response","127","101219","0.0-127.0","32XVDSJFP0JFDFRW27VU6DP3ZDKM22","A3L0DCUXI7X3A9","3SBNLSTU6UR0TCQ1NJ03LFGS7YQZDZ","","null","<img src=""img/food6.png"" style=""width:200px; border:14px solid green;"">","null","","","",""
"","image-keyboard-response","128","101716","0.0-128.0","32XVDSJFP0JFDFRW27VU6DP3ZDKM22","A3L0DCUXI7X3A9","3SBNLSTU6UR0TCQ1NJ03LFGS7YQZDZ","","495.59999999403954","img/food3.png","76","496.80000001192093","76","1",""
"","html-keyboard-response","129","102018","0.0-129.0","32XVDSJFP0JFDFRW27VU6DP3ZDKM22","A3L0DCUXI7X3A9","3SBNLSTU6UR0TCQ1NJ03LFGS7YQZDZ","","null","<img src=""img/food3.png"" style=""width:200px; border:14px solid green;"">","null","","","",""
"","image-keyboard-response","130","102469","0.0-130.0","32XVDSJFP0JFDFRW27VU6DP3ZDKM22","A3L0DCUXI7X3A9","3SBNLSTU6UR0TCQ1NJ03LFGS7YQZDZ","","449.3999999910593","img/food6.png","76","450.6000000089407","76","1",""
"","html-keyboard-response","131","102770","0.0-131.0","32XVDSJFP0JFDFRW27VU6DP3ZDKM22","A3L0DCUXI7X3A9","3SBNLSTU6UR0TCQ1NJ03LFGS7YQZDZ","","null","<img src=""img/food6.png"" style=""width:200px; border:14px solid green;"">","null","","","",""
"","image-keyboard-response","132","103173","0.0-132.0","32XVDSJFP0JFDFRW27VU6DP3ZDKM22","A3L0DCUXI7X3A9","3SBNLSTU6UR0TCQ1NJ03LFGS7YQZDZ","","400.70000000298023","img/food6.png","76","401.8999999910593","76","1",""
"","html-keyboard-response","133","103475","0.0-133.0","32XVDSJFP0JFDFRW27VU6DP3ZDKM22","A3L0DCUXI7X3A9","3SBNLSTU6UR0TCQ1NJ03LFGS7YQZDZ","","null","<img src=""img/food6.png"" style=""width:200px; border:14px solid green;"">","null","","","",""
"","image-keyboard-response","134","103973","0.0-134.0","32XVDSJFP0JFDFRW27VU6DP3ZDKM22","A3L0DCUXI7X3A9","3SBNLSTU6UR0TCQ1NJ03LFGS7YQZDZ","","496.5","img/food1.png","74","497.59999999403954","74","0",""
"","html-keyboard-response","135","104274","0.0-135.0","32XVDSJFP0JFDFRW27VU6DP3ZDKM22","A3L0DCUXI7X3A9","3SBNLSTU6UR0TCQ1NJ03LFGS7YQZDZ","","null","<img src=""img/food1.png"" style=""width:200px;border:14px solid red;"">","null","","","",""
"","image-keyboard-response","136","104965","0.0-136.0","32XVDSJFP0JFDFRW27VU6DP3ZDKM22","A3L0DCUXI7X3A9","3SBNLSTU6UR0TCQ1NJ03LFGS7YQZDZ","","689.4000000059605","img/food6.png","76","690.5999999940395","76","1",""
"","html-keyboard-response","137","105267","0.0-137.0","32XVDSJFP0JFDFRW27VU6DP3ZDKM22","A3L0DCUXI7X3A9","3SBNLSTU6UR0TCQ1NJ03LFGS7YQZDZ","","null","<img src=""img/food6.png"" style=""width:200px; border:14px solid green;"">","null","","","",""
"","image-keyboard-response","138","105620","0.0-138.0","32XVDSJFP0JFDFRW27VU6DP3ZDKM22","A3L0DCUXI7X3A9","3SBNLSTU6UR0TCQ1NJ03LFGS7YQZDZ","","351.59999999403954","img/food6.png","76","352.79999999701977","76","1",""
"","html-keyboard-response","139","105923","0.0-139.0","32XVDSJFP0JFDFRW27VU6DP3ZDKM22","A3L0DCUXI7X3A9","3SBNLSTU6UR0TCQ1NJ03LFGS7YQZDZ","","null","<img src=""img/food6.png"" style=""width:200px; border:14px solid green;"">","null","","","",""
"","image-keyboard-response","140","106501","0.0-140.0","32XVDSJFP0JFDFRW27VU6DP3ZDKM22","A3L0DCUXI7X3A9","3SBNLSTU6UR0TCQ1NJ03LFGS7YQZDZ","","576","img/food1.png","74","577.1999999880791","74","1",""
"","html-keyboard-response","141","106803","0.0-141.0","32XVDSJFP0JFDFRW27VU6DP3ZDKM22","A3L0DCUXI7X3A9","3SBNLSTU6UR0TCQ1NJ03LFGS7YQZDZ","","null","<img src=""img/food1.png"" style=""width:200px; border:14px solid green;"">","null","","","",""
"","image-keyboard-response","142","107445","0.0-142.0","32XVDSJFP0JFDFRW27VU6DP3ZDKM22","A3L0DCUXI7X3A9","3SBNLSTU6UR0TCQ1NJ03LFGS7YQZDZ","","639.0999999940395","img/food3.png","76","640.2999999970198","76","0",""
"","html-keyboard-response","143","107747","0.0-143.0","32XVDSJFP0JFDFRW27VU6DP3ZDKM22","A3L0DCUXI7X3A9","3SBNLSTU6UR0TCQ1NJ03LFGS7YQZDZ","","null","<img src=""img/food3.png"" style=""width:200px;border:14px solid red;"">","null","","","",""
"","image-keyboard-response","144","108083","0.0-144.0","32XVDSJFP0JFDFRW27VU6DP3ZDKM22","A3L0DCUXI7X3A9","3SBNLSTU6UR0TCQ1NJ03LFGS7YQZDZ","","335.40000000596046","img/food3.png","76","336.29999999701977","76","0",""
"","html-keyboard-response","145","108385","0.0-145.0","32XVDSJFP0JFDFRW27VU6DP3ZDKM22","A3L0DCUXI7X3A9","3SBNLSTU6UR0TCQ1NJ03LFGS7YQZDZ","","null","<img src=""img/food3.png"" style=""width:200px;border:14px solid red;"">","null","","","",""
"","image-keyboard-response","146","108901","0.0-146.0","32XVDSJFP0JFDFRW27VU6DP3ZDKM22","A3L0DCUXI7X3A9","3SBNLSTU6UR0TCQ1NJ03LFGS7YQZDZ","","515","img/food3.png","76","516.1000000089407","76","1",""
"","html-keyboard-response","147","109204","0.0-147.0","32XVDSJFP0JFDFRW27VU6DP3ZDKM22","A3L0DCUXI7X3A9","3SBNLSTU6UR0TCQ1NJ03LFGS7YQZDZ","","null","<img src=""img/food3.png"" style=""width:200px; border:14px solid green;"">","null","","","",""
"","image-keyboard-response","148","109780","0.0-148.0","32XVDSJFP0JFDFRW27VU6DP3ZDKM22","A3L0DCUXI7X3A9","3SBNLSTU6UR0TCQ1NJ03LFGS7YQZDZ","","574.7999999970198","img/food6.png","76","575.7000000029802","76","1",""
"","html-keyboard-response","149","110082","0.0-149.0","32XVDSJFP0JFDFRW27VU6DP3ZDKM22","A3L0DCUXI7X3A9","3SBNLSTU6UR0TCQ1NJ03LFGS7YQZDZ","","null","<img src=""img/food6.png"" style=""width:200px; border:14px solid green;"">","null","","","",""
"","image-keyboard-response","150","110564","0.0-150.0","32XVDSJFP0JFDFRW27VU6DP3ZDKM22","A3L0DCUXI7X3A9","3SBNLSTU6UR0TCQ1NJ03LFGS7YQZDZ","","481.29999999701977","img/food1.png","74","482.5","74","1",""
"","html-keyboard-response","151","110866","0.0-151.0","32XVDSJFP0JFDFRW27VU6DP3ZDKM22","A3L0DCUXI7X3A9","3SBNLSTU6UR0TCQ1NJ03LFGS7YQZDZ","","null","<img src=""img/food1.png"" style=""width:200px; border:14px solid green;"">","null","","","",""
"","image-keyboard-response","152","111333","0.0-152.0","32XVDSJFP0JFDFRW27VU6DP3ZDKM22","A3L0DCUXI7X3A9","3SBNLSTU6UR0TCQ1NJ03LFGS7YQZDZ","","465.1000000089407","img/food6.png","76","466.1000000089407","76","1",""
"","html-keyboard-response","153","111635","0.0-153.0","32XVDSJFP0JFDFRW27VU6DP3ZDKM22","A3L0DCUXI7X3A9","3SBNLSTU6UR0TCQ1NJ03LFGS7YQZDZ","","null","<img src=""img/food6.png"" style=""width:200px; border:14px solid green;"">","null","","","",""
"","image-keyboard-response","154","112131","0.0-154.0","32XVDSJFP0JFDFRW27VU6DP3ZDKM22","A3L0DCUXI7X3A9","3SBNLSTU6UR0TCQ1NJ03LFGS7YQZDZ","","495.29999999701977","img/food1.png","74","496.29999999701977","74","1",""
"","html-keyboard-response","155","112433","0.0-155.0","32XVDSJFP0JFDFRW27VU6DP3ZDKM22","A3L0DCUXI7X3A9","3SBNLSTU6UR0TCQ1NJ03LFGS7YQZDZ","","null","<img src=""img/food1.png"" style=""width:200px; border:14px solid green;"">","null","","","",""
"","image-keyboard-response","156","112885","0.0-156.0","32XVDSJFP0JFDFRW27VU6DP3ZDKM22","A3L0DCUXI7X3A9","3SBNLSTU6UR0TCQ1NJ03LFGS7YQZDZ","","450.40000000596046","img/food6.png","76","451.5","76","1",""
"","html-keyboard-response","157","113186","0.0-157.0","32XVDSJFP0JFDFRW27VU6DP3ZDKM22","A3L0DCUXI7X3A9","3SBNLSTU6UR0TCQ1NJ03LFGS7YQZDZ","","null","<img src=""img/food6.png"" style=""width:200px; border:14px solid green;"">","null","","","",""
"","image-keyboard-response","158","113573","0.0-158.0","32XVDSJFP0JFDFRW27VU6DP3ZDKM22","A3L0DCUXI7X3A9","3SBNLSTU6UR0TCQ1NJ03LFGS7YQZDZ","","385","img/food6.png","76","386.09999999403954","76","1",""
"","html-keyboard-response","159","113876","0.0-159.0","32XVDSJFP0JFDFRW27VU6DP3ZDKM22","A3L0DCUXI7X3A9","3SBNLSTU6UR0TCQ1NJ03LFGS7YQZDZ","","null","<img src=""img/food6.png"" style=""width:200px; border:14px solid green;"">","null","","","",""
"","image-keyboard-response","160","114548","0.0-160.0","32XVDSJFP0JFDFRW27VU6DP3ZDKM22","A3L0DCUXI7X3A9","3SBNLSTU6UR0TCQ1NJ03LFGS7YQZDZ","","670.7000000029802","img/food1.png","74","671.7999999970198","74","1",""
"","html-keyboard-response","161","114850","0.0-161.0","32XVDSJFP0JFDFRW27VU6DP3ZDKM22","A3L0DCUXI7X3A9","3SBNLSTU6UR0TCQ1NJ03LFGS7YQZDZ","","null","<img src=""img/food1.png"" style=""width:200px; border:14px solid green;"">","null","","","",""
"","image-keyboard-response","162","115236","0.0-162.0","32XVDSJFP0JFDFRW27VU6DP3ZDKM22","A3L0DCUXI7X3A9","3SBNLSTU6UR0TCQ1NJ03LFGS7YQZDZ","","385.1000000089407","img/food1.png","74","386.20000000298023","74","1",""
"","html-keyboard-response","163","115551","0.0-163.0","32XVDSJFP0JFDFRW27VU6DP3ZDKM22","A3L0DCUXI7X3A9","3SBNLSTU6UR0TCQ1NJ03LFGS7YQZDZ","","null","<img src=""img/food1.png"" style=""width:200px; border:14px solid green;"">","null","","","",""
"","image-keyboard-response","164","115892","0.0-164.0","32XVDSJFP0JFDFRW27VU6DP3ZDKM22","A3L0DCUXI7X3A9","3SBNLSTU6UR0TCQ1NJ03LFGS7YQZDZ","","339.79999999701977","img/food1.png","74","340.8999999910593","74","1",""
"","html-keyboard-response","165","116201","0.0-165.0","32XVDSJFP0JFDFRW27VU6DP3ZDKM22","A3L0DCUXI7X3A9","3SBNLSTU6UR0TCQ1NJ03LFGS7YQZDZ","","null","<img src=""img/food1.png"" style=""width:200px; border:14px solid green;"">","null","","","",""
"","image-keyboard-response","166","116549","0.0-166.0","32XVDSJFP0JFDFRW27VU6DP3ZDKM22","A3L0DCUXI7X3A9","3SBNLSTU6UR0TCQ1NJ03LFGS7YQZDZ","","346","img/food1.png","74","347.09999999403954","74","1",""
"","html-keyboard-response","167","116850","0.0-167.0","32XVDSJFP0JFDFRW27VU6DP3ZDKM22","A3L0DCUXI7X3A9","3SBNLSTU6UR0TCQ1NJ03LFGS7YQZDZ","","null","<img src=""img/food1.png"" style=""width:200px; border:14px solid green;"">","null","","","",""
"","image-keyboard-response","168","117203","0.0-168.0","32XVDSJFP0JFDFRW27VU6DP3ZDKM22","A3L0DCUXI7X3A9","3SBNLSTU6UR0TCQ1NJ03LFGS7YQZDZ","","351.70000000298023","img/food1.png","74","352.80000001192093","74","1",""
"","html-keyboard-response","169","117505","0.0-169.0","32XVDSJFP0JFDFRW27VU6DP3ZDKM22","A3L0DCUXI7X3A9","3SBNLSTU6UR0TCQ1NJ03LFGS7YQZDZ","","null","<img src=""img/food1.png"" style=""width:200px; border:14px solid green;"">","null","","","",""
"","image-keyboard-response","170","118116","0.0-170.0","32XVDSJFP0JFDFRW27VU6DP3ZDKM22","A3L0DCUXI7X3A9","3SBNLSTU6UR0TCQ1NJ03LFGS7YQZDZ","","609.5999999940395","img/food3.png","76","610.5","76","1",""
"","html-keyboard-response","171","118417","0.0-171.0","32XVDSJFP0JFDFRW27VU6DP3ZDKM22","A3L0DCUXI7X3A9","3SBNLSTU6UR0TCQ1NJ03LFGS7YQZDZ","","null","<img src=""img/food3.png"" style=""width:200px; border:14px solid green;"">","null","","","",""
"","image-keyboard-response","172","118869","0.0-172.0","32XVDSJFP0JFDFRW27VU6DP3ZDKM22","A3L0DCUXI7X3A9","3SBNLSTU6UR0TCQ1NJ03LFGS7YQZDZ","","451","img/food1.png","74","451.59999999403954","74","0",""
"","html-keyboard-response","173","119172","0.0-173.0","32XVDSJFP0JFDFRW27VU6DP3ZDKM22","A3L0DCUXI7X3A9","3SBNLSTU6UR0TCQ1NJ03LFGS7YQZDZ","","null","<img src=""img/food1.png"" style=""width:200px;border:14px solid red;"">","null","","","",""
"","image-keyboard-response","174","119637","0.0-174.0","32XVDSJFP0JFDFRW27VU6DP3ZDKM22","A3L0DCUXI7X3A9","3SBNLSTU6UR0TCQ1NJ03LFGS7YQZDZ","","463.6000000089407","img/food3.png","76","464.70000000298023","76","1",""
"","html-keyboard-response","175","119939","0.0-175.0","32XVDSJFP0JFDFRW27VU6DP3ZDKM22","A3L0DCUXI7X3A9","3SBNLSTU6UR0TCQ1NJ03LFGS7YQZDZ","","null","<img src=""img/food3.png"" style=""width:200px; border:14px solid green;"">","null","","","",""
"","image-keyboard-response","176","120357","0.0-176.0","32XVDSJFP0JFDFRW27VU6DP3ZDKM22","A3L0DCUXI7X3A9","3SBNLSTU6UR0TCQ1NJ03LFGS7YQZDZ","","416.70000000298023","img/food6.png","76","417.8999999910593","76","1",""
"","html-keyboard-response","177","120659","0.0-177.0","32XVDSJFP0JFDFRW27VU6DP3ZDKM22","A3L0DCUXI7X3A9","3SBNLSTU6UR0TCQ1NJ03LFGS7YQZDZ","","null","<img src=""img/food6.png"" style=""width:200px; border:14px solid green;"">","null","","","",""
"","image-keyboard-response","178","121043","0.0-178.0","32XVDSJFP0JFDFRW27VU6DP3ZDKM22","A3L0DCUXI7X3A9","3SBNLSTU6UR0TCQ1NJ03LFGS7YQZDZ","","383.09999999403954","img/food1.png","74","384.09999999403954","74","1",""
"","html-keyboard-response","179","121344","0.0-179.0","32XVDSJFP0JFDFRW27VU6DP3ZDKM22","A3L0DCUXI7X3A9","3SBNLSTU6UR0TCQ1NJ03LFGS7YQZDZ","","null","<img src=""img/food1.png"" style=""width:200px; border:14px solid green;"">","null","","","",""
"","image-keyboard-response","180","121876","0.0-180.0","32XVDSJFP0JFDFRW27VU6DP3ZDKM22","A3L0DCUXI7X3A9","3SBNLSTU6UR0TCQ1NJ03LFGS7YQZDZ","","530.0999999940395","img/food1.png","74","531.2999999970198","74","1",""
"","html-keyboard-response","181","122178","0.0-181.0","32XVDSJFP0JFDFRW27VU6DP3ZDKM22","A3L0DCUXI7X3A9","3SBNLSTU6UR0TCQ1NJ03LFGS7YQZDZ","","null","<img src=""img/food1.png"" style=""width:200px; border:14px solid green;"">","null","","","",""
"","html-keyboard-response","182","128642","0.0-182.0","32XVDSJFP0JFDFRW27VU6DP3ZDKM22","A3L0DCUXI7X3A9","3SBNLSTU6UR0TCQ1NJ03LFGS7YQZDZ","","","","","","","",""
"","image-keyboard-response","183","130421","0.0-183.0","32XVDSJFP0JFDFRW27VU6DP3ZDKM22","A3L0DCUXI7X3A9","3SBNLSTU6UR0TCQ1NJ03LFGS7YQZDZ","","1777.5999999940395","img/food4.png","74","1778.5","74","0",""
"","html-keyboard-response","184","130723","0.0-184.0","32XVDSJFP0JFDFRW27VU6DP3ZDKM22","A3L0DCUXI7X3A9","3SBNLSTU6UR0TCQ1NJ03LFGS7YQZDZ","","null","<img src=""img/food4.png"" style=""width:200px;border:14px solid red;"">","null","","","",""
"","image-keyboard-response","185","133075","0.0-185.0","32XVDSJFP0JFDFRW27VU6DP3ZDKM22","A3L0DCUXI7X3A9","3SBNLSTU6UR0TCQ1NJ03LFGS7YQZDZ","","2351.2000000029802","img/food2.png","74","2352.300000011921","74","1",""
"","html-keyboard-response","186","133376","0.0-186.0","32XVDSJFP0JFDFRW27VU6DP3ZDKM22","A3L0DCUXI7X3A9","3SBNLSTU6UR0TCQ1NJ03LFGS7YQZDZ","","null","<img src=""img/food2.png"" style=""width:200px; border:14px solid green;"">","null","","","",""
"","image-keyboard-response","187","134724","0.0-187.0","32XVDSJFP0JFDFRW27VU6DP3ZDKM22","A3L0DCUXI7X3A9","3SBNLSTU6UR0TCQ1NJ03LFGS7YQZDZ","","1347.7999999970198","img/food2.png","74","1348.5","74","1",""
"","html-keyboard-response","188","135027","0.0-188.0","32XVDSJFP0JFDFRW27VU6DP3ZDKM22","A3L0DCUXI7X3A9","3SBNLSTU6UR0TCQ1NJ03LFGS7YQZDZ","","null","<img src=""img/food2.png"" style=""width:200px; border:14px solid green;"">","null","","","",""
"","image-keyboard-response","189","135493","0.0-189.0","32XVDSJFP0JFDFRW27VU6DP3ZDKM22","A3L0DCUXI7X3A9","3SBNLSTU6UR0TCQ1NJ03LFGS7YQZDZ","","464","img/food2.png","74","465.29999999701977","74","0",""
"","html-keyboard-response","190","135795","0.0-190.0","32XVDSJFP0JFDFRW27VU6DP3ZDKM22","A3L0DCUXI7X3A9","3SBNLSTU6UR0TCQ1NJ03LFGS7YQZDZ","","null","<img src=""img/food2.png"" style=""width:200px;border:14px solid red;"">","null","","","",""
"","image-keyboard-response","191","137379","0.0-191.0","32XVDSJFP0JFDFRW27VU6DP3ZDKM22","A3L0DCUXI7X3A9","3SBNLSTU6UR0TCQ1NJ03LFGS7YQZDZ","","1582","img/food5.png","75","1583","75","0",""
"","html-keyboard-response","192","137686","0.0-192.0","32XVDSJFP0JFDFRW27VU6DP3ZDKM22","A3L0DCUXI7X3A9","3SBNLSTU6UR0TCQ1NJ03LFGS7YQZDZ","","null","<img src=""img/food5.png"" style=""width:200px;border:14px solid red;"">","null","","","",""
"","image-keyboard-response","193","138389","0.0-193.0","32XVDSJFP0JFDFRW27VU6DP3ZDKM22","A3L0DCUXI7X3A9","3SBNLSTU6UR0TCQ1NJ03LFGS7YQZDZ","","702","img/food5.png","76","703.2000000029802","76","1",""
"","html-keyboard-response","194","138692","0.0-194.0","32XVDSJFP0JFDFRW27VU6DP3ZDKM22","A3L0DCUXI7X3A9","3SBNLSTU6UR0TCQ1NJ03LFGS7YQZDZ","","null","<img src=""img/food5.png"" style=""width:200px; border:14px solid green;"">","null","","","",""
"","image-keyboard-response","195","141445","0.0-195.0","32XVDSJFP0JFDFRW27VU6DP3ZDKM22","A3L0DCUXI7X3A9","3SBNLSTU6UR0TCQ1NJ03LFGS7YQZDZ","","2751","img/food4.png","75","2752.4000000059605","75","1",""
"","html-keyboard-response","196","141747","0.0-196.0","32XVDSJFP0JFDFRW27VU6DP3ZDKM22","A3L0DCUXI7X3A9","3SBNLSTU6UR0TCQ1NJ03LFGS7YQZDZ","","null","<img src=""img/food4.png"" style=""width:200px; border:14px solid green;"">","null","","","",""
"","image-keyboard-response","197","142901","0.0-197.0","32XVDSJFP0JFDFRW27VU6DP3ZDKM22","A3L0DCUXI7X3A9","3SBNLSTU6UR0TCQ1NJ03LFGS7YQZDZ","","1152.5999999940395","img/food2.png","74","1153.800000011921","74","0",""
"","html-keyboard-response","198","143203","0.0-198.0","32XVDSJFP0JFDFRW27VU6DP3ZDKM22","A3L0DCUXI7X3A9","3SBNLSTU6UR0TCQ1NJ03LFGS7YQZDZ","","null","<img src=""img/food2.png"" style=""width:200px;border:14px solid red;"">","null","","","",""
"","image-keyboard-response","199","143876","0.0-199.0","32XVDSJFP0JFDFRW27VU6DP3ZDKM22","A3L0DCUXI7X3A9","3SBNLSTU6UR0TCQ1NJ03LFGS7YQZDZ","","671.5","img/food4.png","75","672.7000000029802","75","1",""
"","html-keyboard-response","200","144178","0.0-200.0","32XVDSJFP0JFDFRW27VU6DP3ZDKM22","A3L0DCUXI7X3A9","3SBNLSTU6UR0TCQ1NJ03LFGS7YQZDZ","","null","<img src=""img/food4.png"" style=""width:200px; border:14px solid green;"">","null","","","",""
"","image-keyboard-response","201","144980","0.0-201.0","32XVDSJFP0JFDFRW27VU6DP3ZDKM22","A3L0DCUXI7X3A9","3SBNLSTU6UR0TCQ1NJ03LFGS7YQZDZ","","800.0999999940395","img/food5.png","76","801.1000000089407","76","1",""
"","html-keyboard-response","202","145280","0.0-202.0","32XVDSJFP0JFDFRW27VU6DP3ZDKM22","A3L0DCUXI7X3A9","3SBNLSTU6UR0TCQ1NJ03LFGS7YQZDZ","","null","<img src=""img/food5.png"" style=""width:200px; border:14px solid green;"">","null","","","",""
"","image-keyboard-response","203","145827","0.0-203.0","32XVDSJFP0JFDFRW27VU6DP3ZDKM22","A3L0DCUXI7X3A9","3SBNLSTU6UR0TCQ1NJ03LFGS7YQZDZ","","545.4000000059605","img/food5.png","76","546.2999999970198","76","0",""
"","html-keyboard-response","204","146129","0.0-204.0","32XVDSJFP0JFDFRW27VU6DP3ZDKM22","A3L0DCUXI7X3A9","3SBNLSTU6UR0TCQ1NJ03LFGS7YQZDZ","","null","<img src=""img/food5.png"" style=""width:200px;border:14px solid red;"">","null","","","",""
"","image-keyboard-response","205","146628","0.0-205.0","32XVDSJFP0JFDFRW27VU6DP3ZDKM22","A3L0DCUXI7X3A9","3SBNLSTU6UR0TCQ1NJ03LFGS7YQZDZ","","498.19999998807907","img/food5.png","76","499.40000000596046","76","0",""
"","html-keyboard-response","206","146932","0.0-206.0","32XVDSJFP0JFDFRW27VU6DP3ZDKM22","A3L0DCUXI7X3A9","3SBNLSTU6UR0TCQ1NJ03LFGS7YQZDZ","","null","<img src=""img/food5.png"" style=""width:200px;border:14px solid red;"">","null","","","",""
"","image-keyboard-response","207","147685","0.0-207.0","32XVDSJFP0JFDFRW27VU6DP3ZDKM22","A3L0DCUXI7X3A9","3SBNLSTU6UR0TCQ1NJ03LFGS7YQZDZ","","751.2999999970198","img/food4.png","75","752.7000000029802","75","0",""
"","html-keyboard-response","208","147987","0.0-208.0","32XVDSJFP0JFDFRW27VU6DP3ZDKM22","A3L0DCUXI7X3A9","3SBNLSTU6UR0TCQ1NJ03LFGS7YQZDZ","","null","<img src=""img/food4.png"" style=""width:200px;border:14px solid red;"">","null","","","",""
"","image-keyboard-response","209","148388","0.0-209.0","32XVDSJFP0JFDFRW27VU6DP3ZDKM22","A3L0DCUXI7X3A9","3SBNLSTU6UR0TCQ1NJ03LFGS7YQZDZ","","400.79999999701977","img/food4.png","75","401.5","75","1",""
"","html-keyboard-response","210","148690","0.0-210.0","32XVDSJFP0JFDFRW27VU6DP3ZDKM22","A3L0DCUXI7X3A9","3SBNLSTU6UR0TCQ1NJ03LFGS7YQZDZ","","null","<img src=""img/food4.png"" style=""width:200px; border:14px solid green;"">","null","","","",""
"","image-keyboard-response","211","149572","0.0-211.0","32XVDSJFP0JFDFRW27VU6DP3ZDKM22","A3L0DCUXI7X3A9","3SBNLSTU6UR0TCQ1NJ03LFGS7YQZDZ","","881.2000000029802","img/food2.png","74","882.3999999910593","74","0",""
"","html-keyboard-response","212","149875","0.0-212.0","32XVDSJFP0JFDFRW27VU6DP3ZDKM22","A3L0DCUXI7X3A9","3SBNLSTU6UR0TCQ1NJ03LFGS7YQZDZ","","null","<img src=""img/food2.png"" style=""width:200px;border:14px solid red;"">","null","","","",""
"","image-keyboard-response","213","150340","0.0-213.0","32XVDSJFP0JFDFRW27VU6DP3ZDKM22","A3L0DCUXI7X3A9","3SBNLSTU6UR0TCQ1NJ03LFGS7YQZDZ","","463.29999999701977","img/food2.png","74","464.20000000298023","74","0",""
"","html-keyboard-response","214","150642","0.0-214.0","32XVDSJFP0JFDFRW27VU6DP3ZDKM22","A3L0DCUXI7X3A9","3SBNLSTU6UR0TCQ1NJ03LFGS7YQZDZ","","null","<img src=""img/food2.png"" style=""width:200px;border:14px solid red;"">","null","","","",""
"","image-keyboard-response","215","151588","0.0-215.0","32XVDSJFP0JFDFRW27VU6DP3ZDKM22","A3L0DCUXI7X3A9","3SBNLSTU6UR0TCQ1NJ03LFGS7YQZDZ","","944.2999999970198","img/food4.png","75","945.2999999970198","75","1",""
"","html-keyboard-response","216","151890","0.0-216.0","32XVDSJFP0JFDFRW27VU6DP3ZDKM22","A3L0DCUXI7X3A9","3SBNLSTU6UR0TCQ1NJ03LFGS7YQZDZ","","null","<img src=""img/food4.png"" style=""width:200px; border:14px solid green;"">","null","","","",""
"","image-keyboard-response","217","152724","0.0-217.0","32XVDSJFP0JFDFRW27VU6DP3ZDKM22","A3L0DCUXI7X3A9","3SBNLSTU6UR0TCQ1NJ03LFGS7YQZDZ","","833.5","img/food5.png","76","834.5999999940395","76","1",""
"","html-keyboard-response","218","153027","0.0-218.0","32XVDSJFP0JFDFRW27VU6DP3ZDKM22","A3L0DCUXI7X3A9","3SBNLSTU6UR0TCQ1NJ03LFGS7YQZDZ","","null","<img src=""img/food5.png"" style=""width:200px; border:14px solid green;"">","null","","","",""
"","image-keyboard-response","219","155333","0.0-219.0","32XVDSJFP0JFDFRW27VU6DP3ZDKM22","A3L0DCUXI7X3A9","3SBNLSTU6UR0TCQ1NJ03LFGS7YQZDZ","","2305.4000000059605","img/food2.png","75","2306.2000000029802","75","0",""
"","html-keyboard-response","220","155636","0.0-220.0","32XVDSJFP0JFDFRW27VU6DP3ZDKM22","A3L0DCUXI7X3A9","3SBNLSTU6UR0TCQ1NJ03LFGS7YQZDZ","","null","<img src=""img/food2.png"" style=""width:200px;border:14px solid red;"">","null","","","",""
"","image-keyboard-response","221","156820","0.0-221.0","32XVDSJFP0JFDFRW27VU6DP3ZDKM22","A3L0DCUXI7X3A9","3SBNLSTU6UR0TCQ1NJ03LFGS7YQZDZ","","1183.2999999970198","img/food4.png","75","1184.699999988079","75","0",""
"","html-keyboard-response","222","157123","0.0-222.0","32XVDSJFP0JFDFRW27VU6DP3ZDKM22","A3L0DCUXI7X3A9","3SBNLSTU6UR0TCQ1NJ03LFGS7YQZDZ","","null","<img src=""img/food4.png"" style=""width:200px;border:14px solid red;"">","null","","","",""
"","image-keyboard-response","223","158020","0.0-223.0","32XVDSJFP0JFDFRW27VU6DP3ZDKM22","A3L0DCUXI7X3A9","3SBNLSTU6UR0TCQ1NJ03LFGS7YQZDZ","","896.7000000029802","img/food4.png","75","897.5","75","1",""
"","html-keyboard-response","224","158323","0.0-224.0","32XVDSJFP0JFDFRW27VU6DP3ZDKM22","A3L0DCUXI7X3A9","3SBNLSTU6UR0TCQ1NJ03LFGS7YQZDZ","","null","<img src=""img/food4.png"" style=""width:200px; border:14px solid green;"">","null","","","",""
"","image-keyboard-response","225","159220","0.0-225.0","32XVDSJFP0JFDFRW27VU6DP3ZDKM22","A3L0DCUXI7X3A9","3SBNLSTU6UR0TCQ1NJ03LFGS7YQZDZ","","896.7999999970198","img/food5.png","76","897.5999999940395","76","0",""
"","html-keyboard-response","226","159526","0.0-226.0","32XVDSJFP0JFDFRW27VU6DP3ZDKM22","A3L0DCUXI7X3A9","3SBNLSTU6UR0TCQ1NJ03LFGS7YQZDZ","","null","<img src=""img/food5.png"" style=""width:200px;border:14px solid red;"">","null","","","",""
"","image-keyboard-response","227","160310","0.0-227.0","32XVDSJFP0JFDFRW27VU6DP3ZDKM22","A3L0DCUXI7X3A9","3SBNLSTU6UR0TCQ1NJ03LFGS7YQZDZ","","782.5","img/food5.png","76","783.7000000029802","76","0",""
"","html-keyboard-response","228","160617","0.0-228.0","32XVDSJFP0JFDFRW27VU6DP3ZDKM22","A3L0DCUXI7X3A9","3SBNLSTU6UR0TCQ1NJ03LFGS7YQZDZ","","null","<img src=""img/food5.png"" style=""width:200px;border:14px solid red;"">","null","","","",""
"","image-keyboard-response","229","161236","0.0-229.0","32XVDSJFP0JFDFRW27VU6DP3ZDKM22","A3L0DCUXI7X3A9","3SBNLSTU6UR0TCQ1NJ03LFGS7YQZDZ","","617.6999999880791","img/food5.png","76","618.9000000059605","76","0",""
"","html-keyboard-response","230","161539","0.0-230.0","32XVDSJFP0JFDFRW27VU6DP3ZDKM22","A3L0DCUXI7X3A9","3SBNLSTU6UR0TCQ1NJ03LFGS7YQZDZ","","null","<img src=""img/food5.png"" style=""width:200px;border:14px solid red;"">","null","","","",""
"","image-keyboard-response","231","164629","0.0-231.0","32XVDSJFP0JFDFRW27VU6DP3ZDKM22","A3L0DCUXI7X3A9","3SBNLSTU6UR0TCQ1NJ03LFGS7YQZDZ","","3089.1000000089407","img/food4.png","75","3090.2999999970198","75","0",""
"","html-keyboard-response","232","164932","0.0-232.0","32XVDSJFP0JFDFRW27VU6DP3ZDKM22","A3L0DCUXI7X3A9","3SBNLSTU6UR0TCQ1NJ03LFGS7YQZDZ","","null","<img src=""img/food4.png"" style=""width:200px;border:14px solid red;"">","null","","","",""
"","image-keyboard-response","233","165347","0.0-233.0","32XVDSJFP0JFDFRW27VU6DP3ZDKM22","A3L0DCUXI7X3A9","3SBNLSTU6UR0TCQ1NJ03LFGS7YQZDZ","","414.40000000596046","img/food4.png","75","415.3999999910593","75","1",""
"","html-keyboard-response","234","165648","0.0-234.0","32XVDSJFP0JFDFRW27VU6DP3ZDKM22","A3L0DCUXI7X3A9","3SBNLSTU6UR0TCQ1NJ03LFGS7YQZDZ","","null","<img src=""img/food4.png"" style=""width:200px; border:14px solid green;"">","null","","","",""
"","image-keyboard-response","235","166469","0.0-235.0","32XVDSJFP0JFDFRW27VU6DP3ZDKM22","A3L0DCUXI7X3A9","3SBNLSTU6UR0TCQ1NJ03LFGS7YQZDZ","","819.1000000089407","img/food5.png","76","820.5","76","1",""
"","html-keyboard-response","236","166771","0.0-236.0","32XVDSJFP0JFDFRW27VU6DP3ZDKM22","A3L0DCUXI7X3A9","3SBNLSTU6UR0TCQ1NJ03LFGS7YQZDZ","","null","<img src=""img/food5.png"" style=""width:200px; border:14px solid green;"">","null","","","",""
"","image-keyboard-response","237","167668","0.0-237.0","32XVDSJFP0JFDFRW27VU6DP3ZDKM22","A3L0DCUXI7X3A9","3SBNLSTU6UR0TCQ1NJ03LFGS7YQZDZ","","897.2999999970198","img/food2.png","74","898.0999999940395","74","0",""
"","html-keyboard-response","238","167971","0.0-238.0","32XVDSJFP0JFDFRW27VU6DP3ZDKM22","A3L0DCUXI7X3A9","3SBNLSTU6UR0TCQ1NJ03LFGS7YQZDZ","","null","<img src=""img/food2.png"" style=""width:200px;border:14px solid red;"">","null","","","",""
"","image-keyboard-response","239","168820","0.0-239.0","32XVDSJFP0JFDFRW27VU6DP3ZDKM22","A3L0DCUXI7X3A9","3SBNLSTU6UR0TCQ1NJ03LFGS7YQZDZ","","847.0999999940395","img/food4.png","75","848.4000000059605","75","1",""
"","html-keyboard-response","240","169122","0.0-240.0","32XVDSJFP0JFDFRW27VU6DP3ZDKM22","A3L0DCUXI7X3A9","3SBNLSTU6UR0TCQ1NJ03LFGS7YQZDZ","","null","<img src=""img/food4.png"" style=""width:200px; border:14px solid green;"">","null","","","",""
"","image-keyboard-response","241","169524","0.0-241.0","32XVDSJFP0JFDFRW27VU6DP3ZDKM22","A3L0DCUXI7X3A9","3SBNLSTU6UR0TCQ1NJ03LFGS7YQZDZ","","401.69999998807907","img/food4.png","75","402.5","75","0",""
"","html-keyboard-response","242","169826","0.0-242.0","32XVDSJFP0JFDFRW27VU6DP3ZDKM22","A3L0DCUXI7X3A9","3SBNLSTU6UR0TCQ1NJ03LFGS7YQZDZ","","null","<img src=""img/food4.png"" style=""width:200px;border:14px solid red;"">","null","","","",""
"","image-keyboard-response","243","170500","0.0-243.0","32XVDSJFP0JFDFRW27VU6DP3ZDKM22","A3L0DCUXI7X3A9","3SBNLSTU6UR0TCQ1NJ03LFGS7YQZDZ","","673.0999999940395","img/food2.png","76","674.2999999970198","76","0",""
"","html-keyboard-response","244","170803","0.0-244.0","32XVDSJFP0JFDFRW27VU6DP3ZDKM22","A3L0DCUXI7X3A9","3SBNLSTU6UR0TCQ1NJ03LFGS7YQZDZ","","null","<img src=""img/food2.png"" style=""width:200px;border:14px solid red;"">","null","","","",""
"","image-keyboard-response","245","171844","0.0-245.0","32XVDSJFP0JFDFRW27VU6DP3ZDKM22","A3L0DCUXI7X3A9","3SBNLSTU6UR0TCQ1NJ03LFGS7YQZDZ","","1039.7000000029802","img/food5.png","76","1040.8999999910593","76","0",""
"","html-keyboard-response","246","172146","0.0-246.0","32XVDSJFP0JFDFRW27VU6DP3ZDKM22","A3L0DCUXI7X3A9","3SBNLSTU6UR0TCQ1NJ03LFGS7YQZDZ","","null","<img src=""img/food5.png"" style=""width:200px;border:14px solid red;"">","null","","","",""
"","image-keyboard-response","247","172676","0.0-247.0","32XVDSJFP0JFDFRW27VU6DP3ZDKM22","A3L0DCUXI7X3A9","3SBNLSTU6UR0TCQ1NJ03LFGS7YQZDZ","","529.2999999970198","img/food5.png","76","530","76","1",""
"","html-keyboard-response","248","172978","0.0-248.0","32XVDSJFP0JFDFRW27VU6DP3ZDKM22","A3L0DCUXI7X3A9","3SBNLSTU6UR0TCQ1NJ03LFGS7YQZDZ","","null","<img src=""img/food5.png"" style=""width:200px; border:14px solid green;"">","null","","","",""
"","image-keyboard-response","249","173635","0.0-249.0","32XVDSJFP0JFDFRW27VU6DP3ZDKM22","A3L0DCUXI7X3A9","3SBNLSTU6UR0TCQ1NJ03LFGS7YQZDZ","","655.9000000059605","img/food5.png","76","657.1000000089407","76","0",""
"","html-keyboard-response","250","173938","0.0-250.0","32XVDSJFP0JFDFRW27VU6DP3ZDKM22","A3L0DCUXI7X3A9","3SBNLSTU6UR0TCQ1NJ03LFGS7YQZDZ","","null","<img src=""img/food5.png"" style=""width:200px;border:14px solid red;"">","null","","","",""
"","image-keyboard-response","251","174884","0.0-251.0","32XVDSJFP0JFDFRW27VU6DP3ZDKM22","A3L0DCUXI7X3A9","3SBNLSTU6UR0TCQ1NJ03LFGS7YQZDZ","","944.7999999970198","img/food4.png","75","946","75","0",""
"","html-keyboard-response","252","175187","0.0-252.0","32XVDSJFP0JFDFRW27VU6DP3ZDKM22","A3L0DCUXI7X3A9","3SBNLSTU6UR0TCQ1NJ03LFGS7YQZDZ","","null","<img src=""img/food4.png"" style=""width:200px;border:14px solid red;"">","null","","","",""
"","image-keyboard-response","253","175987","0.0-253.0","32XVDSJFP0JFDFRW27VU6DP3ZDKM22","A3L0DCUXI7X3A9","3SBNLSTU6UR0TCQ1NJ03LFGS7YQZDZ","","799.5","img/food5.png","76","800","76","1",""
"","html-keyboard-response","254","176289","0.0-254.0","32XVDSJFP0JFDFRW27VU6DP3ZDKM22","A3L0DCUXI7X3A9","3SBNLSTU6UR0TCQ1NJ03LFGS7YQZDZ","","null","<img src=""img/food5.png"" style=""width:200px; border:14px solid green;"">","null","","","",""
"","image-keyboard-response","255","177091","0.0-255.0","32XVDSJFP0JFDFRW27VU6DP3ZDKM22","A3L0DCUXI7X3A9","3SBNLSTU6UR0TCQ1NJ03LFGS7YQZDZ","","802.1999999880791","img/food2.png","74","802.7000000029802","74","0",""
"","html-keyboard-response","256","177394","0.0-256.0","32XVDSJFP0JFDFRW27VU6DP3ZDKM22","A3L0DCUXI7X3A9","3SBNLSTU6UR0TCQ1NJ03LFGS7YQZDZ","","null","<img src=""img/food2.png"" style=""width:200px;border:14px solid red;"">","null","","","",""
"","image-keyboard-response","257","177844","0.0-257.0","32XVDSJFP0JFDFRW27VU6DP3ZDKM22","A3L0DCUXI7X3A9","3SBNLSTU6UR0TCQ1NJ03LFGS7YQZDZ","","448.90000000596046","img/food2.png","74","449.5","74","1",""
"","html-keyboard-response","258","178147","0.0-258.0","32XVDSJFP0JFDFRW27VU6DP3ZDKM22","A3L0DCUXI7X3A9","3SBNLSTU6UR0TCQ1NJ03LFGS7YQZDZ","","null","<img src=""img/food2.png"" style=""width:200px; border:14px solid green;"">","null","","","",""
"","image-keyboard-response","259","178836","0.0-259.0","32XVDSJFP0JFDFRW27VU6DP3ZDKM22","A3L0DCUXI7X3A9","3SBNLSTU6UR0TCQ1NJ03LFGS7YQZDZ","","687.6000000089407","img/food4.png","75","688.7999999970198","75","1",""
"","html-keyboard-response","260","179140","0.0-260.0","32XVDSJFP0JFDFRW27VU6DP3ZDKM22","A3L0DCUXI7X3A9","3SBNLSTU6UR0TCQ1NJ03LFGS7YQZDZ","","null","<img src=""img/food4.png"" style=""width:200px; border:14px solid green;"">","null","","","",""
"","image-keyboard-response","261","179540","0.0-261.0","32XVDSJFP0JFDFRW27VU6DP3ZDKM22","A3L0DCUXI7X3A9","3SBNLSTU6UR0TCQ1NJ03LFGS7YQZDZ","","397.8999999910593","img/food4.png","75","399.20000000298023","75","0",""
"","html-keyboard-response","262","179841","0.0-262.0","32XVDSJFP0JFDFRW27VU6DP3ZDKM22","A3L0DCUXI7X3A9","3SBNLSTU6UR0TCQ1NJ03LFGS7YQZDZ","","null","<img src=""img/food4.png"" style=""width:200px;border:14px solid red;"">","null","","","",""
"","image-keyboard-response","263","180548","0.0-263.0","32XVDSJFP0JFDFRW27VU6DP3ZDKM22","A3L0DCUXI7X3A9","3SBNLSTU6UR0TCQ1NJ03LFGS7YQZDZ","","705.5","img/food5.png","76","706.7000000029802","76","1",""
"","html-keyboard-response","264","180851","0.0-264.0","32XVDSJFP0JFDFRW27VU6DP3ZDKM22","A3L0DCUXI7X3A9","3SBNLSTU6UR0TCQ1NJ03LFGS7YQZDZ","","null","<img src=""img/food5.png"" style=""width:200px; border:14px solid green;"">","null","","","",""
"","image-keyboard-response","265","181555","0.0-265.0","32XVDSJFP0JFDFRW27VU6DP3ZDKM22","A3L0DCUXI7X3A9","3SBNLSTU6UR0TCQ1NJ03LFGS7YQZDZ","","702.6000000089407","img/food2.png","74","703.6999999880791","74","1",""
"","html-keyboard-response","266","181856","0.0-266.0","32XVDSJFP0JFDFRW27VU6DP3ZDKM22","A3L0DCUXI7X3A9","3SBNLSTU6UR0TCQ1NJ03LFGS7YQZDZ","","null","<img src=""img/food2.png"" style=""width:200px; border:14px solid green;"">","null","","","",""
"","image-keyboard-response","267","182580","0.0-267.0","32XVDSJFP0JFDFRW27VU6DP3ZDKM22","A3L0DCUXI7X3A9","3SBNLSTU6UR0TCQ1NJ03LFGS7YQZDZ","","722.2000000029802","img/food4.png","75","723.5","75","0",""
"","html-keyboard-response","268","182881","0.0-268.0","32XVDSJFP0JFDFRW27VU6DP3ZDKM22","A3L0DCUXI7X3A9","3SBNLSTU6UR0TCQ1NJ03LFGS7YQZDZ","","null","<img src=""img/food4.png"" style=""width:200px;border:14px solid red;"">","null","","","",""
"","image-keyboard-response","269","184323","0.0-269.0","32XVDSJFP0JFDFRW27VU6DP3ZDKM22","A3L0DCUXI7X3A9","3SBNLSTU6UR0TCQ1NJ03LFGS7YQZDZ","","1440.300000011921","img/food2.png","74","1441.7999999970198","74","0",""
"","html-keyboard-response","270","184626","0.0-270.0","32XVDSJFP0JFDFRW27VU6DP3ZDKM22","A3L0DCUXI7X3A9","3SBNLSTU6UR0TCQ1NJ03LFGS7YQZDZ","","null","<img src=""img/food2.png"" style=""width:200px;border:14px solid red;"">","null","","","",""
"","image-keyboard-response","271","185028","0.0-271.0","32XVDSJFP0JFDFRW27VU6DP3ZDKM22","A3L0DCUXI7X3A9","3SBNLSTU6UR0TCQ1NJ03LFGS7YQZDZ","","401.09999999403954","img/food2.png","74","402.20000000298023","74","1",""
"","html-keyboard-response","272","185330","0.0-272.0","32XVDSJFP0JFDFRW27VU6DP3ZDKM22","A3L0DCUXI7X3A9","3SBNLSTU6UR0TCQ1NJ03LFGS7YQZDZ","","null","<img src=""img/food2.png"" style=""width:200px; border:14px solid green;"">","null","","","",""
"","image-keyboard-response","273","186036","0.0-273.0","32XVDSJFP0JFDFRW27VU6DP3ZDKM22","A3L0DCUXI7X3A9","3SBNLSTU6UR0TCQ1NJ03LFGS7YQZDZ","","704.4000000059605","img/food5.png","76","705.5999999940395","76","1",""
"","html-keyboard-response","274","186338","0.0-274.0","32XVDSJFP0JFDFRW27VU6DP3ZDKM22","A3L0DCUXI7X3A9","3SBNLSTU6UR0TCQ1NJ03LFGS7YQZDZ","","null","<img src=""img/food5.png"" style=""width:200px; border:14px solid green;"">","null","","","",""
"","image-keyboard-response","275","187107","0.0-275.0","32XVDSJFP0JFDFRW27VU6DP3ZDKM22","A3L0DCUXI7X3A9","3SBNLSTU6UR0TCQ1NJ03LFGS7YQZDZ","","767.0999999940395","img/food4.png","75","768.2999999970198","75","0",""
"","html-keyboard-response","276","187409","0.0-276.0","32XVDSJFP0JFDFRW27VU6DP3ZDKM22","A3L0DCUXI7X3A9","3SBNLSTU6UR0TCQ1NJ03LFGS7YQZDZ","","null","<img src=""img/food4.png"" style=""width:200px;border:14px solid red;"">","null","","","",""
"","image-keyboard-response","277","188419","0.0-277.0","32XVDSJFP0JFDFRW27VU6DP3ZDKM22","A3L0DCUXI7X3A9","3SBNLSTU6UR0TCQ1NJ03LFGS7YQZDZ","","1009.5999999940395","img/food2.png","74","1010","74","0",""
"","html-keyboard-response","278","188720","0.0-278.0","32XVDSJFP0JFDFRW27VU6DP3ZDKM22","A3L0DCUXI7X3A9","3SBNLSTU6UR0TCQ1NJ03LFGS7YQZDZ","","null","<img src=""img/food2.png"" style=""width:200px;border:14px solid red;"">","null","","","",""
"","image-keyboard-response","279","190003","0.0-279.0","32XVDSJFP0JFDFRW27VU6DP3ZDKM22","A3L0DCUXI7X3A9","3SBNLSTU6UR0TCQ1NJ03LFGS7YQZDZ","","1282.7999999970198","img/food5.png","76","1283.5999999940395","76","0",""
"","html-keyboard-response","280","190306","0.0-280.0","32XVDSJFP0JFDFRW27VU6DP3ZDKM22","A3L0DCUXI7X3A9","3SBNLSTU6UR0TCQ1NJ03LFGS7YQZDZ","","null","<img src=""img/food5.png"" style=""width:200px;border:14px solid red;"">","null","","","",""
"","image-keyboard-response","281","191172","0.0-281.0","32XVDSJFP0JFDFRW27VU6DP3ZDKM22","A3L0DCUXI7X3A9","3SBNLSTU6UR0TCQ1NJ03LFGS7YQZDZ","","863.8999999910593","img/food4.png","75","865.1000000089407","75","0",""
"","html-keyboard-response","282","191473","0.0-282.0","32XVDSJFP0JFDFRW27VU6DP3ZDKM22","A3L0DCUXI7X3A9","3SBNLSTU6UR0TCQ1NJ03LFGS7YQZDZ","","null","<img src=""img/food4.png"" style=""width:200px;border:14px solid red;"">","null","","","",""
"","image-keyboard-response","283","192036","0.0-283.0","32XVDSJFP0JFDFRW27VU6DP3ZDKM22","A3L0DCUXI7X3A9","3SBNLSTU6UR0TCQ1NJ03LFGS7YQZDZ","","561.5","img/food4.png","75","562.6000000089407","75","1",""
"","html-keyboard-response","284","192338","0.0-284.0","32XVDSJFP0JFDFRW27VU6DP3ZDKM22","A3L0DCUXI7X3A9","3SBNLSTU6UR0TCQ1NJ03LFGS7YQZDZ","","null","<img src=""img/food4.png"" style=""width:200px; border:14px solid green;"">","null","","","",""
"","image-keyboard-response","285","193060","0.0-285.0","32XVDSJFP0JFDFRW27VU6DP3ZDKM22","A3L0DCUXI7X3A9","3SBNLSTU6UR0TCQ1NJ03LFGS7YQZDZ","","720.2000000029802","img/food5.png","76","721.5","76","1",""
"","html-keyboard-response","286","193362","0.0-286.0","32XVDSJFP0JFDFRW27VU6DP3ZDKM22","A3L0DCUXI7X3A9","3SBNLSTU6UR0TCQ1NJ03LFGS7YQZDZ","","null","<img src=""img/food5.png"" style=""width:200px; border:14px solid green;"">","null","","","",""
"","image-keyboard-response","287","194036","0.0-287.0","32XVDSJFP0JFDFRW27VU6DP3ZDKM22","A3L0DCUXI7X3A9","3SBNLSTU6UR0TCQ1NJ03LFGS7YQZDZ","","673.2000000029802","img/food4.png","75","673.9000000059605","75","0",""
"","html-keyboard-response","288","194337","0.0-288.0","32XVDSJFP0JFDFRW27VU6DP3ZDKM22","A3L0DCUXI7X3A9","3SBNLSTU6UR0TCQ1NJ03LFGS7YQZDZ","","null","<img src=""img/food4.png"" style=""width:200px;border:14px solid red;"">","null","","","",""
"","image-keyboard-response","289","195076","0.0-289.0","32XVDSJFP0JFDFRW27VU6DP3ZDKM22","A3L0DCUXI7X3A9","3SBNLSTU6UR0TCQ1NJ03LFGS7YQZDZ","","737.3999999910593","img/food2.png","74","738.5999999940395","74","1",""
"","html-keyboard-response","290","195378","0.0-290.0","32XVDSJFP0JFDFRW27VU6DP3ZDKM22","A3L0DCUXI7X3A9","3SBNLSTU6UR0TCQ1NJ03LFGS7YQZDZ","","null","<img src=""img/food2.png"" style=""width:200px; border:14px solid green;"">","null","","","",""
"","image-keyboard-response","291","196195","0.0-291.0","32XVDSJFP0JFDFRW27VU6DP3ZDKM22","A3L0DCUXI7X3A9","3SBNLSTU6UR0TCQ1NJ03LFGS7YQZDZ","","815.1000000089407","img/food4.png","75","816","75","0",""
"","html-keyboard-response","292","196496","0.0-292.0","32XVDSJFP0JFDFRW27VU6DP3ZDKM22","A3L0DCUXI7X3A9","3SBNLSTU6UR0TCQ1NJ03LFGS7YQZDZ","","null","<img src=""img/food4.png"" style=""width:200px;border:14px solid red;"">","null","","","",""
"","image-keyboard-response","293","196916","0.0-293.0","32XVDSJFP0JFDFRW27VU6DP3ZDKM22","A3L0DCUXI7X3A9","3SBNLSTU6UR0TCQ1NJ03LFGS7YQZDZ","","418.90000000596046","img/food4.png","75","419.79999999701977","75","0",""
"","html-keyboard-response","294","197219","0.0-294.0","32XVDSJFP0JFDFRW27VU6DP3ZDKM22","A3L0DCUXI7X3A9","3SBNLSTU6UR0TCQ1NJ03LFGS7YQZDZ","","null","<img src=""img/food4.png"" style=""width:200px;border:14px solid red;"">","null","","","",""
"","image-keyboard-response","295","198547","0.0-295.0","32XVDSJFP0JFDFRW27VU6DP3ZDKM22","A3L0DCUXI7X3A9","3SBNLSTU6UR0TCQ1NJ03LFGS7YQZDZ","","1327.7000000029802","img/food2.png","74","1328.3999999910593","74","0",""
"","html-keyboard-response","296","198850","0.0-296.0","32XVDSJFP0JFDFRW27VU6DP3ZDKM22","A3L0DCUXI7X3A9","3SBNLSTU6UR0TCQ1NJ03LFGS7YQZDZ","","null","<img src=""img/food2.png"" style=""width:200px;border:14px solid red;"">","null","","","",""
"","image-keyboard-response","297","199603","0.0-297.0","32XVDSJFP0JFDFRW27VU6DP3ZDKM22","A3L0DCUXI7X3A9","3SBNLSTU6UR0TCQ1NJ03LFGS7YQZDZ","","752","img/food5.png","76","753.2999999970198","76","1",""
"","html-keyboard-response","298","199905","0.0-298.0","32XVDSJFP0JFDFRW27VU6DP3ZDKM22","A3L0DCUXI7X3A9","3SBNLSTU6UR0TCQ1NJ03LFGS7YQZDZ","","null","<img src=""img/food5.png"" style=""width:200px; border:14px solid green;"">","null","","","",""
"","image-keyboard-response","299","200356","0.0-299.0","32XVDSJFP0JFDFRW27VU6DP3ZDKM22","A3L0DCUXI7X3A9","3SBNLSTU6UR0TCQ1NJ03LFGS7YQZDZ","","449.20000000298023","img/food5.png","76","450.5","76","0",""
"","html-keyboard-response","300","200658","0.0-300.0","32XVDSJFP0JFDFRW27VU6DP3ZDKM22","A3L0DCUXI7X3A9","3SBNLSTU6UR0TCQ1NJ03LFGS7YQZDZ","","null","<img src=""img/food5.png"" style=""width:200px;border:14px solid red;"">","null","","","",""
"","image-keyboard-response","301","201058","0.0-301.0","32XVDSJFP0JFDFRW27VU6DP3ZDKM22","A3L0DCUXI7X3A9","3SBNLSTU6UR0TCQ1NJ03LFGS7YQZDZ","","400.5","img/food5.png","76","400.70000000298023","76","0",""
"","html-keyboard-response","302","201361","0.0-302.0","32XVDSJFP0JFDFRW27VU6DP3ZDKM22","A3L0DCUXI7X3A9","3SBNLSTU6UR0TCQ1NJ03LFGS7YQZDZ","","null","<img src=""img/food5.png"" style=""width:200px;border:14px solid red;"">","null","","","",""
"","image-keyboard-response","303","201939","0.0-303.0","32XVDSJFP0JFDFRW27VU6DP3ZDKM22","A3L0DCUXI7X3A9","3SBNLSTU6UR0TCQ1NJ03LFGS7YQZDZ","","576.9000000059605","img/food5.png","76","577.7999999970198","76","0",""
"","html-keyboard-response","304","202240","0.0-304.0","32XVDSJFP0JFDFRW27VU6DP3ZDKM22","A3L0DCUXI7X3A9","3SBNLSTU6UR0TCQ1NJ03LFGS7YQZDZ","","null","<img src=""img/food5.png"" style=""width:200px;border:14px solid red;"">","null","","","",""
"","image-keyboard-response","305","202642","0.0-305.0","32XVDSJFP0JFDFRW27VU6DP3ZDKM22","A3L0DCUXI7X3A9","3SBNLSTU6UR0TCQ1NJ03LFGS7YQZDZ","","401.40000000596046","img/food5.png","76","401.70000000298023","76","1",""
"","html-keyboard-response","306","202943","0.0-306.0","32XVDSJFP0JFDFRW27VU6DP3ZDKM22","A3L0DCUXI7X3A9","3SBNLSTU6UR0TCQ1NJ03LFGS7YQZDZ","","null","<img src=""img/food5.png"" style=""width:200px; border:14px solid green;"">","null","","","",""
"","image-keyboard-response","307","203668","0.0-307.0","32XVDSJFP0JFDFRW27VU6DP3ZDKM22","A3L0DCUXI7X3A9","3SBNLSTU6UR0TCQ1NJ03LFGS7YQZDZ","","723","img/food4.png","75","724.2999999970198","75","0",""
"","html-keyboard-response","308","203970","0.0-308.0","32XVDSJFP0JFDFRW27VU6DP3ZDKM22","A3L0DCUXI7X3A9","3SBNLSTU6UR0TCQ1NJ03LFGS7YQZDZ","","null","<img src=""img/food4.png"" style=""width:200px;border:14px solid red;"">","null","","","",""
"","image-keyboard-response","309","204372","0.0-309.0","32XVDSJFP0JFDFRW27VU6DP3ZDKM22","A3L0DCUXI7X3A9","3SBNLSTU6UR0TCQ1NJ03LFGS7YQZDZ","","400.5","img/food4.png","75","401.69999998807907","75","1",""
"","html-keyboard-response","310","204674","0.0-310.0","32XVDSJFP0JFDFRW27VU6DP3ZDKM22","A3L0DCUXI7X3A9","3SBNLSTU6UR0TCQ1NJ03LFGS7YQZDZ","","null","<img src=""img/food4.png"" style=""width:200px; border:14px solid green;"">","null","","","",""
"","image-keyboard-response","311","205571","0.0-311.0","32XVDSJFP0JFDFRW27VU6DP3ZDKM22","A3L0DCUXI7X3A9","3SBNLSTU6UR0TCQ1NJ03LFGS7YQZDZ","","895.6999999880791","img/food5.png","76","896.7999999970198","76","1",""
"","html-keyboard-response","312","205873","0.0-312.0","32XVDSJFP0JFDFRW27VU6DP3ZDKM22","A3L0DCUXI7X3A9","3SBNLSTU6UR0TCQ1NJ03LFGS7YQZDZ","","null","<img src=""img/food5.png"" style=""width:200px; border:14px solid green;"">","null","","","",""
"","image-keyboard-response","313","206628","0.0-313.0","32XVDSJFP0JFDFRW27VU6DP3ZDKM22","A3L0DCUXI7X3A9","3SBNLSTU6UR0TCQ1NJ03LFGS7YQZDZ","","753","img/food2.png","74","754.2999999970198","74","0",""
"","html-keyboard-response","314","206930","0.0-314.0","32XVDSJFP0JFDFRW27VU6DP3ZDKM22","A3L0DCUXI7X3A9","3SBNLSTU6UR0TCQ1NJ03LFGS7YQZDZ","","null","<img src=""img/food2.png"" style=""width:200px;border:14px solid red;"">","null","","","",""
"","image-keyboard-response","315","207348","0.0-315.0","32XVDSJFP0JFDFRW27VU6DP3ZDKM22","A3L0DCUXI7X3A9","3SBNLSTU6UR0TCQ1NJ03LFGS7YQZDZ","","416.29999999701977","img/food2.png","74","417.5","74","1",""
"","html-keyboard-response","316","207651","0.0-316.0","32XVDSJFP0JFDFRW27VU6DP3ZDKM22","A3L0DCUXI7X3A9","3SBNLSTU6UR0TCQ1NJ03LFGS7YQZDZ","","null","<img src=""img/food2.png"" style=""width:200px; border:14px solid green;"">","null","","","",""
"","image-keyboard-response","317","209956","0.0-317.0","32XVDSJFP0JFDFRW27VU6DP3ZDKM22","A3L0DCUXI7X3A9","3SBNLSTU6UR0TCQ1NJ03LFGS7YQZDZ","","2303.2000000029802","img/food4.png","75","2304.5","75","1",""
"","html-keyboard-response","318","210258","0.0-318.0","32XVDSJFP0JFDFRW27VU6DP3ZDKM22","A3L0DCUXI7X3A9","3SBNLSTU6UR0TCQ1NJ03LFGS7YQZDZ","","null","<img src=""img/food4.png"" style=""width:200px; border:14px solid green;"">","null","","","",""
"","image-keyboard-response","319","211252","0.0-319.0","32XVDSJFP0JFDFRW27VU6DP3ZDKM22","A3L0DCUXI7X3A9","3SBNLSTU6UR0TCQ1NJ03LFGS7YQZDZ","","992","img/food2.png","74","993.1999999880791","74","1",""
"","html-keyboard-response","320","211554","0.0-320.0","32XVDSJFP0JFDFRW27VU6DP3ZDKM22","A3L0DCUXI7X3A9","3SBNLSTU6UR0TCQ1NJ03LFGS7YQZDZ","","null","<img src=""img/food2.png"" style=""width:200px; border:14px solid green;"">","null","","","",""
"","image-keyboard-response","321","212020","0.0-321.0","32XVDSJFP0JFDFRW27VU6DP3ZDKM22","A3L0DCUXI7X3A9","3SBNLSTU6UR0TCQ1NJ03LFGS7YQZDZ","","464.70000000298023","img/food2.png","74","465.8999999910593","74","0",""
"","html-keyboard-response","322","212323","0.0-322.0","32XVDSJFP0JFDFRW27VU6DP3ZDKM22","A3L0DCUXI7X3A9","3SBNLSTU6UR0TCQ1NJ03LFGS7YQZDZ","","null","<img src=""img/food2.png"" style=""width:200px;border:14px solid red;"">","null","","","",""
"","image-keyboard-response","323","212756","0.0-323.0","32XVDSJFP0JFDFRW27VU6DP3ZDKM22","A3L0DCUXI7X3A9","3SBNLSTU6UR0TCQ1NJ03LFGS7YQZDZ","","432.09999999403954","img/food2.png","74","432.90000000596046","74","0",""
"","html-keyboard-response","324","213058","0.0-324.0","32XVDSJFP0JFDFRW27VU6DP3ZDKM22","A3L0DCUXI7X3A9","3SBNLSTU6UR0TCQ1NJ03LFGS7YQZDZ","","null","<img src=""img/food2.png"" style=""width:200px;border:14px solid red;"">","null","","","",""
"","image-keyboard-response","325","213651","0.0-325.0","32XVDSJFP0JFDFRW27VU6DP3ZDKM22","A3L0DCUXI7X3A9","3SBNLSTU6UR0TCQ1NJ03LFGS7YQZDZ","","591.7999999970198","img/food5.png","76","593.0999999940395","76","0",""
"","html-keyboard-response","326","213953","0.0-326.0","32XVDSJFP0JFDFRW27VU6DP3ZDKM22","A3L0DCUXI7X3A9","3SBNLSTU6UR0TCQ1NJ03LFGS7YQZDZ","","null","<img src=""img/food5.png"" style=""width:200px;border:14px solid red;"">","null","","","",""
"","image-keyboard-response","327","214371","0.0-327.0","32XVDSJFP0JFDFRW27VU6DP3ZDKM22","A3L0DCUXI7X3A9","3SBNLSTU6UR0TCQ1NJ03LFGS7YQZDZ","","416.40000000596046","img/food5.png","76","417.59999999403954","76","0",""
"","html-keyboard-response","328","214674","0.0-328.0","32XVDSJFP0JFDFRW27VU6DP3ZDKM22","A3L0DCUXI7X3A9","3SBNLSTU6UR0TCQ1NJ03LFGS7YQZDZ","","null","<img src=""img/food5.png"" style=""width:200px;border:14px solid red;"">","null","","","",""
"","image-keyboard-response","329","215474","0.0-329.0","32XVDSJFP0JFDFRW27VU6DP3ZDKM22","A3L0DCUXI7X3A9","3SBNLSTU6UR0TCQ1NJ03LFGS7YQZDZ","","799.5999999940395","img/food2.png","74","800.3999999910593","74","0",""
"","html-keyboard-response","330","215776","0.0-330.0","32XVDSJFP0JFDFRW27VU6DP3ZDKM22","A3L0DCUXI7X3A9","3SBNLSTU6UR0TCQ1NJ03LFGS7YQZDZ","","null","<img src=""img/food2.png"" style=""width:200px;border:14px solid red;"">","null","","","",""
"","image-keyboard-response","331","216580","0.0-331.0","32XVDSJFP0JFDFRW27VU6DP3ZDKM22","A3L0DCUXI7X3A9","3SBNLSTU6UR0TCQ1NJ03LFGS7YQZDZ","","803.5","img/food5.png","76","804.2000000029802","76","1",""
"","html-keyboard-response","332","216882","0.0-332.0","32XVDSJFP0JFDFRW27VU6DP3ZDKM22","A3L0DCUXI7X3A9","3SBNLSTU6UR0TCQ1NJ03LFGS7YQZDZ","","null","<img src=""img/food5.png"" style=""width:200px; border:14px solid green;"">","null","","","",""
"","image-keyboard-response","333","217747","0.0-333.0","32XVDSJFP0JFDFRW27VU6DP3ZDKM22","A3L0DCUXI7X3A9","3SBNLSTU6UR0TCQ1NJ03LFGS7YQZDZ","","862.9000000059605","img/food2.png","74","864","74","0",""
"","html-keyboard-response","334","218049","0.0-334.0","32XVDSJFP0JFDFRW27VU6DP3ZDKM22","A3L0DCUXI7X3A9","3SBNLSTU6UR0TCQ1NJ03LFGS7YQZDZ","","null","<img src=""img/food2.png"" style=""width:200px;border:14px solid red;"">","null","","","",""
"","image-keyboard-response","335","218788","0.0-335.0","32XVDSJFP0JFDFRW27VU6DP3ZDKM22","A3L0DCUXI7X3A9","3SBNLSTU6UR0TCQ1NJ03LFGS7YQZDZ","","737.7000000029802","img/food4.png","75","738.9000000059605","75","1",""
"","html-keyboard-response","336","219089","0.0-336.0","32XVDSJFP0JFDFRW27VU6DP3ZDKM22","A3L0DCUXI7X3A9","3SBNLSTU6UR0TCQ1NJ03LFGS7YQZDZ","","null","<img src=""img/food4.png"" style=""width:200px; border:14px solid green;"">","null","","","",""
"","image-keyboard-response","337","219476","0.0-337.0","32XVDSJFP0JFDFRW27VU6DP3ZDKM22","A3L0DCUXI7X3A9","3SBNLSTU6UR0TCQ1NJ03LFGS7YQZDZ","","384.70000000298023","img/food4.png","75","386","75","0",""
"","html-keyboard-response","338","219778","0.0-338.0","32XVDSJFP0JFDFRW27VU6DP3ZDKM22","A3L0DCUXI7X3A9","3SBNLSTU6UR0TCQ1NJ03LFGS7YQZDZ","","null","<img src=""img/food4.png"" style=""width:200px;border:14px solid red;"">","null","","","",""
"","image-keyboard-response","339","220724","0.0-339.0","32XVDSJFP0JFDFRW27VU6DP3ZDKM22","A3L0DCUXI7X3A9","3SBNLSTU6UR0TCQ1NJ03LFGS7YQZDZ","","944.7000000029802","img/food2.png","74","945.7000000029802","74","1",""
"","html-keyboard-response","340","221026","0.0-340.0","32XVDSJFP0JFDFRW27VU6DP3ZDKM22","A3L0DCUXI7X3A9","3SBNLSTU6UR0TCQ1NJ03LFGS7YQZDZ","","null","<img src=""img/food2.png"" style=""width:200px; border:14px solid green;"">","null","","","",""
"","image-keyboard-response","341","221428","0.0-341.0","32XVDSJFP0JFDFRW27VU6DP3ZDKM22","A3L0DCUXI7X3A9","3SBNLSTU6UR0TCQ1NJ03LFGS7YQZDZ","","400.20000000298023","img/food2.png","74","401.40000000596046","74","1",""
"","html-keyboard-response","342","221730","0.0-342.0","32XVDSJFP0JFDFRW27VU6DP3ZDKM22","A3L0DCUXI7X3A9","3SBNLSTU6UR0TCQ1NJ03LFGS7YQZDZ","","null","<img src=""img/food2.png"" style=""width:200px; border:14px solid green;"">","null","","","",""
"","image-keyboard-response","343","222115","0.0-343.0","32XVDSJFP0JFDFRW27VU6DP3ZDKM22","A3L0DCUXI7X3A9","3SBNLSTU6UR0TCQ1NJ03LFGS7YQZDZ","","383.59999999403954","img/food2.png","74","384.69999998807907","74","0",""
"","html-keyboard-response","344","222417","0.0-344.0","32XVDSJFP0JFDFRW27VU6DP3ZDKM22","A3L0DCUXI7X3A9","3SBNLSTU6UR0TCQ1NJ03LFGS7YQZDZ","","null","<img src=""img/food2.png"" style=""width:200px;border:14px solid red;"">","null","","","",""
"","image-keyboard-response","345","222820","0.0-345.0","32XVDSJFP0JFDFRW27VU6DP3ZDKM22","A3L0DCUXI7X3A9","3SBNLSTU6UR0TCQ1NJ03LFGS7YQZDZ","","402.70000000298023","img/food2.png","74","403.29999999701977","74","0",""
"","html-keyboard-response","346","223123","0.0-346.0","32XVDSJFP0JFDFRW27VU6DP3ZDKM22","A3L0DCUXI7X3A9","3SBNLSTU6UR0TCQ1NJ03LFGS7YQZDZ","","null","<img src=""img/food2.png"" style=""width:200px;border:14px solid red;"">","null","","","",""
"","image-keyboard-response","347","223828","0.0-347.0","32XVDSJFP0JFDFRW27VU6DP3ZDKM22","A3L0DCUXI7X3A9","3SBNLSTU6UR0TCQ1NJ03LFGS7YQZDZ","","702.7999999970198","img/food4.png","75","704.1000000089407","75","0",""
"","html-keyboard-response","348","224130","0.0-348.0","32XVDSJFP0JFDFRW27VU6DP3ZDKM22","A3L0DCUXI7X3A9","3SBNLSTU6UR0TCQ1NJ03LFGS7YQZDZ","","null","<img src=""img/food4.png"" style=""width:200px;border:14px solid red;"">","null","","","",""
"","image-keyboard-response","349","224740","0.0-349.0","32XVDSJFP0JFDFRW27VU6DP3ZDKM22","A3L0DCUXI7X3A9","3SBNLSTU6UR0TCQ1NJ03LFGS7YQZDZ","","607.8999999910593","img/food5.png","76","609","76","0",""
"","html-keyboard-response","350","225047","0.0-350.0","32XVDSJFP0JFDFRW27VU6DP3ZDKM22","A3L0DCUXI7X3A9","3SBNLSTU6UR0TCQ1NJ03LFGS7YQZDZ","","null","<img src=""img/food5.png"" style=""width:200px;border:14px solid red;"">","null","","","",""
"","image-keyboard-response","351","225444","0.0-351.0","32XVDSJFP0JFDFRW27VU6DP3ZDKM22","A3L0DCUXI7X3A9","3SBNLSTU6UR0TCQ1NJ03LFGS7YQZDZ","","395.1000000089407","img/food5.png","76","396.20000000298023","76","1",""
"","html-keyboard-response","352","225747","0.0-352.0","32XVDSJFP0JFDFRW27VU6DP3ZDKM22","A3L0DCUXI7X3A9","3SBNLSTU6UR0TCQ1NJ03LFGS7YQZDZ","","null","<img src=""img/food5.png"" style=""width:200px; border:14px solid green;"">","null","","","",""
"","image-keyboard-response","353","226435","0.0-353.0","32XVDSJFP0JFDFRW27VU6DP3ZDKM22","A3L0DCUXI7X3A9","3SBNLSTU6UR0TCQ1NJ03LFGS7YQZDZ","","687.0999999940395","img/food4.png","75","688.0999999940395","75","1",""
"","html-keyboard-response","354","226737","0.0-354.0","32XVDSJFP0JFDFRW27VU6DP3ZDKM22","A3L0DCUXI7X3A9","3SBNLSTU6UR0TCQ1NJ03LFGS7YQZDZ","","null","<img src=""img/food4.png"" style=""width:200px; border:14px solid green;"">","null","","","",""
"","image-keyboard-response","355","227379","0.0-355.0","32XVDSJFP0JFDFRW27VU6DP3ZDKM22","A3L0DCUXI7X3A9","3SBNLSTU6UR0TCQ1NJ03LFGS7YQZDZ","","641","img/food2.png","74","642","74","1",""
"","html-keyboard-response","356","227681","0.0-356.0","32XVDSJFP0JFDFRW27VU6DP3ZDKM22","A3L0DCUXI7X3A9","3SBNLSTU6UR0TCQ1NJ03LFGS7YQZDZ","","null","<img src=""img/food2.png"" style=""width:200px; border:14px solid green;"">","null","","","",""
"","image-keyboard-response","357","228341","0.0-357.0","32XVDSJFP0JFDFRW27VU6DP3ZDKM22","A3L0DCUXI7X3A9","3SBNLSTU6UR0TCQ1NJ03LFGS7YQZDZ","","659.2000000029802","img/food4.png","75","659.9000000059605","75","0",""
"","html-keyboard-response","358","228652","0.0-358.0","32XVDSJFP0JFDFRW27VU6DP3ZDKM22","A3L0DCUXI7X3A9","3SBNLSTU6UR0TCQ1NJ03LFGS7YQZDZ","","null","<img src=""img/food4.png"" style=""width:200px;border:14px solid red;"">","null","","","",""
"","image-keyboard-response","359","229301","0.0-359.0","32XVDSJFP0JFDFRW27VU6DP3ZDKM22","A3L0DCUXI7X3A9","3SBNLSTU6UR0TCQ1NJ03LFGS7YQZDZ","","647.7000000029802","img/food2.png","74","649","74","0",""
"","html-keyboard-response","360","229604","0.0-360.0","32XVDSJFP0JFDFRW27VU6DP3ZDKM22","A3L0DCUXI7X3A9","3SBNLSTU6UR0TCQ1NJ03LFGS7YQZDZ","","null","<img src=""img/food2.png"" style=""width:200px;border:14px solid red;"">","null","","","",""
"","image-keyboard-response","361","230308","0.0-361.0","32XVDSJFP0JFDFRW27VU6DP3ZDKM22","A3L0DCUXI7X3A9","3SBNLSTU6UR0TCQ1NJ03LFGS7YQZDZ","","703","img/food5.png","76","704.2000000029802","76","0",""
"","html-keyboard-response","362","230611","0.0-362.0","32XVDSJFP0JFDFRW27VU6DP3ZDKM22","A3L0DCUXI7X3A9","3SBNLSTU6UR0TCQ1NJ03LFGS7YQZDZ","","null","<img src=""img/food5.png"" style=""width:200px;border:14px solid red;"">","null","","","",""
"","instructions","363","234216","0.0-363.0","32XVDSJFP0JFDFRW27VU6DP3ZDKM22","A3L0DCUXI7X3A9","3SBNLSTU6UR0TCQ1NJ03LFGS7YQZDZ","[{""page_index"":0,""viewing_time"":3604.2000000029802}]","3604.300000011921","","","","","",""
"","survey-text","364","238441","0.0-364.0","32XVDSJFP0JFDFRW27VU6DP3ZDKM22","A3L0DCUXI7X3A9","3SBNLSTU6UR0TCQ1NJ03LFGS7YQZDZ","","4223.899999991059","","","","","","{""Q0"":""A3L0DCUXI7X3A9""}"
