"success","trial_type","trial_index","time_elapsed","internal_node_id","assignmentID","mturkID","hitID","view_history","rt","stimulus","key_press","reactionTime","a","r","warning","s","cond","reward_cond","reward_cond_actual","reward_matrix_idx","responses"
"true","fullscreen","0","3363","0.0-0.0","3JWH6J9I9TZFJACSX135KLH72JWNBI","A3L2VS3998R77L","3Z3R5YC0P3915KVY8X6BNRIWYOFFTN","","","","","","","","","","","","","",""
"","instructions","1","53467","0.0-1.0","3JWH6J9I9TZFJACSX135KLH72JWNBI","A3L2VS3998R77L","3Z3R5YC0P3915KVY8X6BNRIWYOFFTN","[{""page_index"":0,""viewing_time"":8388.099999904633},{""page_index"":1,""viewing_time"":3279.7999999523163},{""page_index"":2,""viewing_time"":3796.2000000476837},{""page_index"":3,""viewing_time"":6411.900000095367},{""page_index"":4,""viewing_time"":4910.299999952316},{""page_index"":5,""viewing_time"":18554.599999904633},{""page_index"":6,""viewing_time"":4762.200000047684}]","50103.39999985695","","","","","","","","","","","",""
"","instructions","2","65244","0.0-2.0","3JWH6J9I9TZFJACSX135KLH72JWNBI","A3L2VS3998R77L","3Z3R5YC0P3915KVY8X6BNRIWYOFFTN","[{""page_index"":0,""viewing_time"":10177.700000047684},{""page_index"":1,""viewing_time"":1598.3999998569489}]","11776.299999952316","","","","","","","","","","","",""
"","image-keyboard-response","3","65688","0.0-3.0","3JWH6J9I9TZFJACSX135KLH72JWNBI","A3L2VS3998R77L","3Z3R5YC0P3915KVY8X6BNRIWYOFFTN","","442.2999999523163","img/food6.png","75","443.2000000476837","2","1","false","3","2","1,0.5,0,1,0.5,0,0.5,0,1","0,1,0.5,0,1,0.5,1,0.5,0","3",""
"","html-keyboard-response","4","65991","0.0-4.0","3JWH6J9I9TZFJACSX135KLH72JWNBI","A3L2VS3998R77L","3Z3R5YC0P3915KVY8X6BNRIWYOFFTN","","null","<img src=""img/food6.png"" style=""width:200px; border:14px solid green;"">","null","","","","","","","","","",""
"","image-keyboard-response","5","66558","0.0-6.0","3JWH6J9I9TZFJACSX135KLH72JWNBI","A3L2VS3998R77L","3Z3R5YC0P3915KVY8X6BNRIWYOFFTN","","566.6999998092651","img/food2.png","75","567.3000001907349","2","1","false","2","2","1,0.5,0,1,0.5,0,0.5,0,1","0,1,0.5,0,1,0.5,1,0.5,0","3",""
"","html-keyboard-response","6","66859","0.0-7.0","3JWH6J9I9TZFJACSX135KLH72JWNBI","A3L2VS3998R77L","3Z3R5YC0P3915KVY8X6BNRIWYOFFTN","","null","<img src=""img/food2.png"" style=""width:200px; border:14px solid green;"">","null","","","","","","","","","",""
"","image-keyboard-response","7","67347","0.0-9.0","3JWH6J9I9TZFJACSX135KLH72JWNBI","A3L2VS3998R77L","3Z3R5YC0P3915KVY8X6BNRIWYOFFTN","","487.19999980926514","img/food4.png","75","487.90000009536743","2","1","false","1","2","1,0.5,0,1,0.5,0,0.5,0,1","0,1,0.5,0,1,0.5,1,0.5,0","3",""
"","html-keyboard-response","8","67649","0.0-10.0","3JWH6J9I9TZFJACSX135KLH72JWNBI","A3L2VS3998R77L","3Z3R5YC0P3915KVY8X6BNRIWYOFFTN","","null","<img src=""img/food4.png"" style=""width:200px; border:14px solid green;"">","null","","","","","","","","","",""
"","image-keyboard-response","9","68182","0.0-12.0","3JWH6J9I9TZFJACSX135KLH72JWNBI","A3L2VS3998R77L","3Z3R5YC0P3915KVY8X6BNRIWYOFFTN","","531.5999999046326","img/food6.png","76","532.4000000953674","3","0","false","3","2","1,0.5,0,1,0.5,0,0.5,0,1","0,1,0.5,0,1,0.5,1,0.5,0","3",""
"","html-keyboard-response","10","68483","0.0-13.0","3JWH6J9I9TZFJACSX135KLH72JWNBI","A3L2VS3998R77L","3Z3R5YC0P3915KVY8X6BNRIWYOFFTN","","null","<img src=""img/food6.png"" style=""width:200px;border:14px solid red;"">","null","","","","","","","","","",""
"","image-keyboard-response","11","68902","0.0-15.0","3JWH6J9I9TZFJACSX135KLH72JWNBI","A3L2VS3998R77L","3Z3R5YC0P3915KVY8X6BNRIWYOFFTN","","417.69999980926514","img/food4.png","75","418.40000009536743","2","1","false","1","2","1,0.5,0,1,0.5,0,0.5,0,1","0,1,0.5,0,1,0.5,1,0.5,0","3",""
"","html-keyboard-response","12","69202","0.0-16.0","3JWH6J9I9TZFJACSX135KLH72JWNBI","A3L2VS3998R77L","3Z3R5YC0P3915KVY8X6BNRIWYOFFTN","","null","<img src=""img/food4.png"" style=""width:200px; border:14px solid green;"">","null","","","","","","","","","",""
"","image-keyboard-response","13","69645","0.0-18.0","3JWH6J9I9TZFJACSX135KLH72JWNBI","A3L2VS3998R77L","3Z3R5YC0P3915KVY8X6BNRIWYOFFTN","","441.90000009536743","img/food4.png","75","442.5","2","1","false","1","2","1,0.5,0,1,0.5,0,0.5,0,1","0,1,0.5,0,1,0.5,1,0.5,0","3",""
"","html-keyboard-response","14","69946","0.0-19.0","3JWH6J9I9TZFJACSX135KLH72JWNBI","A3L2VS3998R77L","3Z3R5YC0P3915KVY8X6BNRIWYOFFTN","","null","<img src=""img/food4.png"" style=""width:200px; border:14px solid green;"">","null","","","","","","","","","",""
"","image-keyboard-response","15","70574","0.0-21.0","3JWH6J9I9TZFJACSX135KLH72JWNBI","A3L2VS3998R77L","3Z3R5YC0P3915KVY8X6BNRIWYOFFTN","","628","img/food6.png","75","628.5999999046326","2","1","false","3","2","1,0.5,0,1,0.5,0,0.5,0,1","0,1,0.5,0,1,0.5,1,0.5,0","3",""
"","html-keyboard-response","16","70876","0.0-22.0","3JWH6J9I9TZFJACSX135KLH72JWNBI","A3L2VS3998R77L","3Z3R5YC0P3915KVY8X6BNRIWYOFFTN","","null","<img src=""img/food6.png"" style=""width:200px; border:14px solid green;"">","null","","","","","","","","","",""
"","image-keyboard-response","17","71432","0.0-24.0","3JWH6J9I9TZFJACSX135KLH72JWNBI","A3L2VS3998R77L","3Z3R5YC0P3915KVY8X6BNRIWYOFFTN","","554.6000001430511","img/food2.png","75","555.0999999046326","2","1","false","2","2","1,0.5,0,1,0.5,0,0.5,0,1","0,1,0.5,0,1,0.5,1,0.5,0","3",""
"","html-keyboard-response","18","71732","0.0-25.0","3JWH6J9I9TZFJACSX135KLH72JWNBI","A3L2VS3998R77L","3Z3R5YC0P3915KVY8X6BNRIWYOFFTN","","null","<img src=""img/food2.png"" style=""width:200px; border:14px solid green;"">","null","","","","","","","","","",""
"","image-keyboard-response","19","72207","0.0-27.0","3JWH6J9I9TZFJACSX135KLH72JWNBI","A3L2VS3998R77L","3Z3R5YC0P3915KVY8X6BNRIWYOFFTN","","473.60000014305115","img/food6.png","75","474.09999990463257","2","1","false","3","2","1,0.5,0,1,0.5,0,0.5,0,1","0,1,0.5,0,1,0.5,1,0.5,0","3",""
"","html-keyboard-response","20","72508","0.0-28.0","3JWH6J9I9TZFJACSX135KLH72JWNBI","A3L2VS3998R77L","3Z3R5YC0P3915KVY8X6BNRIWYOFFTN","","null","<img src=""img/food6.png"" style=""width:200px; border:14px solid green;"">","null","","","","","","","","","",""
"","image-keyboard-response","21","72981","0.0-30.0","3JWH6J9I9TZFJACSX135KLH72JWNBI","A3L2VS3998R77L","3Z3R5YC0P3915KVY8X6BNRIWYOFFTN","","472.59999990463257","img/food4.png","75","473.2000000476837","2","1","false","1","2","1,0.5,0,1,0.5,0,0.5,0,1","0,1,0.5,0,1,0.5,1,0.5,0","3",""
"","html-keyboard-response","22","73283","0.0-31.0","3JWH6J9I9TZFJACSX135KLH72JWNBI","A3L2VS3998R77L","3Z3R5YC0P3915KVY8X6BNRIWYOFFTN","","null","<img src=""img/food4.png"" style=""width:200px; border:14px solid green;"">","null","","","","","","","","","",""
"","image-keyboard-response","23","73757","0.0-33.0","3JWH6J9I9TZFJACSX135KLH72JWNBI","A3L2VS3998R77L","3Z3R5YC0P3915KVY8X6BNRIWYOFFTN","","472.7999999523163","img/food6.png","75","473.2999999523163","2","0","false","3","2","1,0.5,0,1,0.5,0,0.5,0,1","0,1,0.5,0,1,0.5,1,0.5,0","3",""
"","html-keyboard-response","24","74058","0.0-34.0","3JWH6J9I9TZFJACSX135KLH72JWNBI","A3L2VS3998R77L","3Z3R5YC0P3915KVY8X6BNRIWYOFFTN","","null","<img src=""img/food6.png"" style=""width:200px;border:14px solid red;"">","null","","","","","","","","","",""
"","image-keyboard-response","25","74528","0.0-36.0","3JWH6J9I9TZFJACSX135KLH72JWNBI","A3L2VS3998R77L","3Z3R5YC0P3915KVY8X6BNRIWYOFFTN","","469.40000009536743","img/food6.png","74","469.89999985694885","1","1","false","3","2","1,0.5,0,1,0.5,0,0.5,0,1","0,1,0.5,0,1,0.5,1,0.5,0","3",""
"","html-keyboard-response","26","74830","0.0-37.0","3JWH6J9I9TZFJACSX135KLH72JWNBI","A3L2VS3998R77L","3Z3R5YC0P3915KVY8X6BNRIWYOFFTN","","null","<img src=""img/food6.png"" style=""width:200px; border:14px solid green;"">","null","","","","","","","","","",""
"","image-keyboard-response","27","75367","0.0-39.0","3JWH6J9I9TZFJACSX135KLH72JWNBI","A3L2VS3998R77L","3Z3R5YC0P3915KVY8X6BNRIWYOFFTN","","536.0999999046326","img/food4.png","75","536.7000000476837","2","1","false","1","2","1,0.5,0,1,0.5,0,0.5,0,1","0,1,0.5,0,1,0.5,1,0.5,0","3",""
"","html-keyboard-response","28","75668","0.0-40.0","3JWH6J9I9TZFJACSX135KLH72JWNBI","A3L2VS3998R77L","3Z3R5YC0P3915KVY8X6BNRIWYOFFTN","","null","<img src=""img/food4.png"" style=""width:200px; border:14px solid green;"">","null","","","","","","","","","",""
"","image-keyboard-response","29","76120","0.0-42.0","3JWH6J9I9TZFJACSX135KLH72JWNBI","A3L2VS3998R77L","3Z3R5YC0P3915KVY8X6BNRIWYOFFTN","","451","img/food6.png","74","451.5","1","1","false","3","2","1,0.5,0,1,0.5,0,0.5,0,1","0,1,0.5,0,1,0.5,1,0.5,0","3",""
"","html-keyboard-response","30","76421","0.0-43.0","3JWH6J9I9TZFJACSX135KLH72JWNBI","A3L2VS3998R77L","3Z3R5YC0P3915KVY8X6BNRIWYOFFTN","","null","<img src=""img/food6.png"" style=""width:200px; border:14px solid green;"">","null","","","","","","","","","",""
"","image-keyboard-response","31","76867","0.0-45.0","3JWH6J9I9TZFJACSX135KLH72JWNBI","A3L2VS3998R77L","3Z3R5YC0P3915KVY8X6BNRIWYOFFTN","","445.7999999523163","img/food4.png","75","446.2999999523163","2","1","false","1","2","1,0.5,0,1,0.5,0,0.5,0,1","0,1,0.5,0,1,0.5,1,0.5,0","3",""
"","html-keyboard-response","32","77175","0.0-46.0","3JWH6J9I9TZFJACSX135KLH72JWNBI","A3L2VS3998R77L","3Z3R5YC0P3915KVY8X6BNRIWYOFFTN","","null","<img src=""img/food4.png"" style=""width:200px; border:14px solid green;"">","null","","","","","","","","","",""
"","image-keyboard-response","33","77616","0.0-48.0","3JWH6J9I9TZFJACSX135KLH72JWNBI","A3L2VS3998R77L","3Z3R5YC0P3915KVY8X6BNRIWYOFFTN","","440.60000014305115","img/food2.png","74","441.2000000476837","1","0","false","2","2","1,0.5,0,1,0.5,0,0.5,0,1","0,1,0.5,0,1,0.5,1,0.5,0","3",""
"","html-keyboard-response","34","77917","0.0-49.0","3JWH6J9I9TZFJACSX135KLH72JWNBI","A3L2VS3998R77L","3Z3R5YC0P3915KVY8X6BNRIWYOFFTN","","null","<img src=""img/food2.png"" style=""width:200px;border:14px solid red;"">","null","","","","","","","","","",""
"","image-keyboard-response","35","78373","0.0-51.0","3JWH6J9I9TZFJACSX135KLH72JWNBI","A3L2VS3998R77L","3Z3R5YC0P3915KVY8X6BNRIWYOFFTN","","455","img/food2.png","75","455.40000009536743","2","1","false","2","2","1,0.5,0,1,0.5,0,0.5,0,1","0,1,0.5,0,1,0.5,1,0.5,0","3",""
"","html-keyboard-response","36","78673","0.0-52.0","3JWH6J9I9TZFJACSX135KLH72JWNBI","A3L2VS3998R77L","3Z3R5YC0P3915KVY8X6BNRIWYOFFTN","","null","<img src=""img/food2.png"" style=""width:200px; border:14px solid green;"">","null","","","","","","","","","",""
"","image-keyboard-response","37","79125","0.0-54.0","3JWH6J9I9TZFJACSX135KLH72JWNBI","A3L2VS3998R77L","3Z3R5YC0P3915KVY8X6BNRIWYOFFTN","","450.60000014305115","img/food2.png","75","451","2","1","false","2","2","1,0.5,0,1,0.5,0,0.5,0,1","0,1,0.5,0,1,0.5,1,0.5,0","3",""
"","html-keyboard-response","38","79426","0.0-55.0","3JWH6J9I9TZFJACSX135KLH72JWNBI","A3L2VS3998R77L","3Z3R5YC0P3915KVY8X6BNRIWYOFFTN","","null","<img src=""img/food2.png"" style=""width:200px; border:14px solid green;"">","null","","","","","","","","","",""
"","image-keyboard-response","39","80097","0.0-57.0","3JWH6J9I9TZFJACSX135KLH72JWNBI","A3L2VS3998R77L","3Z3R5YC0P3915KVY8X6BNRIWYOFFTN","","669.9000000953674","img/food6.png","74","670.4000000953674","1","1","false","3","2","1,0.5,0,1,0.5,0,0.5,0,1","0,1,0.5,0,1,0.5,1,0.5,0","3",""
"","html-keyboard-response","40","80398","0.0-58.0","3JWH6J9I9TZFJACSX135KLH72JWNBI","A3L2VS3998R77L","3Z3R5YC0P3915KVY8X6BNRIWYOFFTN","","null","<img src=""img/food6.png"" style=""width:200px; border:14px solid green;"">","null","","","","","","","","","",""
"","image-keyboard-response","41","80863","0.0-60.0","3JWH6J9I9TZFJACSX135KLH72JWNBI","A3L2VS3998R77L","3Z3R5YC0P3915KVY8X6BNRIWYOFFTN","","463.7999999523163","img/food2.png","75","464.2999999523163","2","1","false","2","2","1,0.5,0,1,0.5,0,0.5,0,1","0,1,0.5,0,1,0.5,1,0.5,0","3",""
"","html-keyboard-response","42","81164","0.0-61.0","3JWH6J9I9TZFJACSX135KLH72JWNBI","A3L2VS3998R77L","3Z3R5YC0P3915KVY8X6BNRIWYOFFTN","","null","<img src=""img/food2.png"" style=""width:200px; border:14px solid green;"">","null","","","","","","","","","",""
"","image-keyboard-response","43","81798","0.0-63.0","3JWH6J9I9TZFJACSX135KLH72JWNBI","A3L2VS3998R77L","3Z3R5YC0P3915KVY8X6BNRIWYOFFTN","","633.3999998569489","img/food6.png","74","633.8999998569489","1","1","false","3","2","1,0.5,0,1,0.5,0,0.5,0,1","0,1,0.5,0,1,0.5,1,0.5,0","3",""
"","html-keyboard-response","44","82100","0.0-64.0","3JWH6J9I9TZFJACSX135KLH72JWNBI","A3L2VS3998R77L","3Z3R5YC0P3915KVY8X6BNRIWYOFFTN","","null","<img src=""img/food6.png"" style=""width:200px; border:14px solid green;"">","null","","","","","","","","","",""
"","image-keyboard-response","45","82596","0.0-66.0","3JWH6J9I9TZFJACSX135KLH72JWNBI","A3L2VS3998R77L","3Z3R5YC0P3915KVY8X6BNRIWYOFFTN","","494.7000000476837","img/food4.png","75","495.2999999523163","2","1","false","1","2","1,0.5,0,1,0.5,0,0.5,0,1","0,1,0.5,0,1,0.5,1,0.5,0","3",""
"","html-keyboard-response","46","82897","0.0-67.0","3JWH6J9I9TZFJACSX135KLH72JWNBI","A3L2VS3998R77L","3Z3R5YC0P3915KVY8X6BNRIWYOFFTN","","null","<img src=""img/food4.png"" style=""width:200px; border:14px solid green;"">","null","","","","","","","","","",""
"","image-keyboard-response","47","83581","0.0-69.0","3JWH6J9I9TZFJACSX135KLH72JWNBI","A3L2VS3998R77L","3Z3R5YC0P3915KVY8X6BNRIWYOFFTN","","682.7000000476837","img/food6.png","74","683.3000001907349","1","1","false","3","2","1,0.5,0,1,0.5,0,0.5,0,1","0,1,0.5,0,1,0.5,1,0.5,0","3",""
"","html-keyboard-response","48","83881","0.0-70.0","3JWH6J9I9TZFJACSX135KLH72JWNBI","A3L2VS3998R77L","3Z3R5YC0P3915KVY8X6BNRIWYOFFTN","","null","<img src=""img/food6.png"" style=""width:200px; border:14px solid green;"">","null","","","","","","","","","",""
"","image-keyboard-response","49","84529","0.0-72.0","3JWH6J9I9TZFJACSX135KLH72JWNBI","A3L2VS3998R77L","3Z3R5YC0P3915KVY8X6BNRIWYOFFTN","","646.9000000953674","img/food2.png","75","647.3999998569489","2","1","false","2","2","1,0.5,0,1,0.5,0,0.5,0,1","0,1,0.5,0,1,0.5,1,0.5,0","3",""
"","html-keyboard-response","50","84831","0.0-73.0","3JWH6J9I9TZFJACSX135KLH72JWNBI","A3L2VS3998R77L","3Z3R5YC0P3915KVY8X6BNRIWYOFFTN","","null","<img src=""img/food2.png"" style=""width:200px; border:14px solid green;"">","null","","","","","","","","","",""
"","image-keyboard-response","51","85382","0.0-75.0","3JWH6J9I9TZFJACSX135KLH72JWNBI","A3L2VS3998R77L","3Z3R5YC0P3915KVY8X6BNRIWYOFFTN","","550.1000001430511","img/food4.png","74","550.5999999046326","1","0","false","1","2","1,0.5,0,1,0.5,0,0.5,0,1","0,1,0.5,0,1,0.5,1,0.5,0","3",""
"","html-keyboard-response","52","85682","0.0-76.0","3JWH6J9I9TZFJACSX135KLH72JWNBI","A3L2VS3998R77L","3Z3R5YC0P3915KVY8X6BNRIWYOFFTN","","null","<img src=""img/food4.png"" style=""width:200px;border:14px solid red;"">","null","","","","","","","","","",""
"","image-keyboard-response","53","86345","0.0-78.0","3JWH6J9I9TZFJACSX135KLH72JWNBI","A3L2VS3998R77L","3Z3R5YC0P3915KVY8X6BNRIWYOFFTN","","661.7000000476837","img/food6.png","75","662.0999999046326","2","0","false","3","2","1,0.5,0,1,0.5,0,0.5,0,1","0,1,0.5,0,1,0.5,1,0.5,0","3",""
"","html-keyboard-response","54","86646","0.0-79.0","3JWH6J9I9TZFJACSX135KLH72JWNBI","A3L2VS3998R77L","3Z3R5YC0P3915KVY8X6BNRIWYOFFTN","","null","<img src=""img/food6.png"" style=""width:200px;border:14px solid red;"">","null","","","","","","","","","",""
"","image-keyboard-response","55","87645","0.0-81.0","3JWH6J9I9TZFJACSX135KLH72JWNBI","A3L2VS3998R77L","3Z3R5YC0P3915KVY8X6BNRIWYOFFTN","","998.5","img/food2.png","75","999","2","1","false","2","2","1,0.5,0,1,0.5,0,0.5,0,1","0,1,0.5,0,1,0.5,1,0.5,0","3",""
"","html-keyboard-response","56","87946","0.0-82.0","3JWH6J9I9TZFJACSX135KLH72JWNBI","A3L2VS3998R77L","3Z3R5YC0P3915KVY8X6BNRIWYOFFTN","","null","<img src=""img/food2.png"" style=""width:200px; border:14px solid green;"">","null","","","","","","","","","",""
"","image-keyboard-response","57","88630","0.0-84.0","3JWH6J9I9TZFJACSX135KLH72JWNBI","A3L2VS3998R77L","3Z3R5YC0P3915KVY8X6BNRIWYOFFTN","","682.6000001430511","img/food4.png","75","683.1999998092651","2","1","false","1","2","1,0.5,0,1,0.5,0,0.5,0,1","0,1,0.5,0,1,0.5,1,0.5,0","3",""
"","html-keyboard-response","58","88931","0.0-85.0","3JWH6J9I9TZFJACSX135KLH72JWNBI","A3L2VS3998R77L","3Z3R5YC0P3915KVY8X6BNRIWYOFFTN","","null","<img src=""img/food4.png"" style=""width:200px; border:14px solid green;"">","null","","","","","","","","","",""
"","image-keyboard-response","59","89524","0.0-87.0","3JWH6J9I9TZFJACSX135KLH72JWNBI","A3L2VS3998R77L","3Z3R5YC0P3915KVY8X6BNRIWYOFFTN","","591.9000000953674","img/food4.png","75","592.4000000953674","2","1","false","1","2","1,0.5,0,1,0.5,0,0.5,0,1","0,1,0.5,0,1,0.5,1,0.5,0","3",""
"","html-keyboard-response","60","89825","0.0-88.0","3JWH6J9I9TZFJACSX135KLH72JWNBI","A3L2VS3998R77L","3Z3R5YC0P3915KVY8X6BNRIWYOFFTN","","null","<img src=""img/food4.png"" style=""width:200px; border:14px solid green;"">","null","","","","","","","","","",""
"","image-keyboard-response","61","90245","0.0-90.0","3JWH6J9I9TZFJACSX135KLH72JWNBI","A3L2VS3998R77L","3Z3R5YC0P3915KVY8X6BNRIWYOFFTN","","419","img/food4.png","75","419.39999985694885","2","1","false","1","2","1,0.5,0,1,0.5,0,0.5,0,1","0,1,0.5,0,1,0.5,1,0.5,0","3",""
"","html-keyboard-response","62","90546","0.0-91.0","3JWH6J9I9TZFJACSX135KLH72JWNBI","A3L2VS3998R77L","3Z3R5YC0P3915KVY8X6BNRIWYOFFTN","","null","<img src=""img/food4.png"" style=""width:200px; border:14px solid green;"">","null","","","","","","","","","",""
"","image-keyboard-response","63","91147","0.0-93.0","3JWH6J9I9TZFJACSX135KLH72JWNBI","A3L2VS3998R77L","3Z3R5YC0P3915KVY8X6BNRIWYOFFTN","","600.8999998569489","img/food2.png","74","601.3999998569489","1","0","false","2","2","1,0.5,0,1,0.5,0,0.5,0,1","0,1,0.5,0,1,0.5,1,0.5,0","3",""
"","html-keyboard-response","64","91448","0.0-94.0","3JWH6J9I9TZFJACSX135KLH72JWNBI","A3L2VS3998R77L","3Z3R5YC0P3915KVY8X6BNRIWYOFFTN","","null","<img src=""img/food2.png"" style=""width:200px;border:14px solid red;"">","null","","","","","","","","","",""
"","image-keyboard-response","65","92033","0.0-96.0","3JWH6J9I9TZFJACSX135KLH72JWNBI","A3L2VS3998R77L","3Z3R5YC0P3915KVY8X6BNRIWYOFFTN","","584","img/food6.png","75","584.5","2","1","false","3","2","1,0.5,0,1,0.5,0,0.5,0,1","0,1,0.5,0,1,0.5,1,0.5,0","3",""
"","html-keyboard-response","66","92334","0.0-97.0","3JWH6J9I9TZFJACSX135KLH72JWNBI","A3L2VS3998R77L","3Z3R5YC0P3915KVY8X6BNRIWYOFFTN","","null","<img src=""img/food6.png"" style=""width:200px; border:14px solid green;"">","null","","","","","","","","","",""
"","image-keyboard-response","67","93008","0.0-99.0","3JWH6J9I9TZFJACSX135KLH72JWNBI","A3L2VS3998R77L","3Z3R5YC0P3915KVY8X6BNRIWYOFFTN","","673.3999998569489","img/food2.png","75","673.8999998569489","2","1","false","2","2","1,0.5,0,1,0.5,0,0.5,0,1","0,1,0.5,0,1,0.5,1,0.5,0","3",""
"","html-keyboard-response","68","93310","0.0-100.0","3JWH6J9I9TZFJACSX135KLH72JWNBI","A3L2VS3998R77L","3Z3R5YC0P3915KVY8X6BNRIWYOFFTN","","null","<img src=""img/food2.png"" style=""width:200px; border:14px solid green;"">","null","","","","","","","","","",""
"","image-keyboard-response","69","93826","0.0-102.0","3JWH6J9I9TZFJACSX135KLH72JWNBI","A3L2VS3998R77L","3Z3R5YC0P3915KVY8X6BNRIWYOFFTN","","515.5","img/food6.png","75","515.9000000953674","2","1","false","3","2","1,0.5,0,1,0.5,0,0.5,0,1","0,1,0.5,0,1,0.5,1,0.5,0","3",""
"","html-keyboard-response","70","94127","0.0-103.0","3JWH6J9I9TZFJACSX135KLH72JWNBI","A3L2VS3998R77L","3Z3R5YC0P3915KVY8X6BNRIWYOFFTN","","null","<img src=""img/food6.png"" style=""width:200px; border:14px solid green;"">","null","","","","","","","","","",""
"","image-keyboard-response","71","94523","0.0-105.0","3JWH6J9I9TZFJACSX135KLH72JWNBI","A3L2VS3998R77L","3Z3R5YC0P3915KVY8X6BNRIWYOFFTN","","395.2000000476837","img/food6.png","75","395.69999980926514","2","0","false","3","2","1,0.5,0,1,0.5,0,0.5,0,1","0,1,0.5,0,1,0.5,1,0.5,0","3",""
"","html-keyboard-response","72","94824","0.0-106.0","3JWH6J9I9TZFJACSX135KLH72JWNBI","A3L2VS3998R77L","3Z3R5YC0P3915KVY8X6BNRIWYOFFTN","","null","<img src=""img/food6.png"" style=""width:200px;border:14px solid red;"">","null","","","","","","","","","",""
"","image-keyboard-response","73","95367","0.0-108.0","3JWH6J9I9TZFJACSX135KLH72JWNBI","A3L2VS3998R77L","3Z3R5YC0P3915KVY8X6BNRIWYOFFTN","","542.7000000476837","img/food2.png","75","543.2000000476837","2","1","false","2","2","1,0.5,0,1,0.5,0,0.5,0,1","0,1,0.5,0,1,0.5,1,0.5,0","3",""
"","html-keyboard-response","74","95668","0.0-109.0","3JWH6J9I9TZFJACSX135KLH72JWNBI","A3L2VS3998R77L","3Z3R5YC0P3915KVY8X6BNRIWYOFFTN","","null","<img src=""img/food2.png"" style=""width:200px; border:14px solid green;"">","null","","","","","","","","","",""
"","image-keyboard-response","75","96160","0.0-111.0","3JWH6J9I9TZFJACSX135KLH72JWNBI","A3L2VS3998R77L","3Z3R5YC0P3915KVY8X6BNRIWYOFFTN","","490.59999990463257","img/food6.png","75","491.10000014305115","2","0","false","3","2","1,0.5,0,1,0.5,0,0.5,0,1","0,1,0.5,0,1,0.5,1,0.5,0","3",""
"","html-keyboard-response","76","96461","0.0-112.0","3JWH6J9I9TZFJACSX135KLH72JWNBI","A3L2VS3998R77L","3Z3R5YC0P3915KVY8X6BNRIWYOFFTN","","null","<img src=""img/food6.png"" style=""width:200px;border:14px solid red;"">","null","","","","","","","","","",""
"","image-keyboard-response","77","97025","0.0-114.0","3JWH6J9I9TZFJACSX135KLH72JWNBI","A3L2VS3998R77L","3Z3R5YC0P3915KVY8X6BNRIWYOFFTN","","564.1999998092651","img/food6.png","74","564.7999999523163","1","1","false","3","2","1,0.5,0,1,0.5,0,0.5,0,1","0,1,0.5,0,1,0.5,1,0.5,0","3",""
"","html-keyboard-response","78","97327","0.0-115.0","3JWH6J9I9TZFJACSX135KLH72JWNBI","A3L2VS3998R77L","3Z3R5YC0P3915KVY8X6BNRIWYOFFTN","","null","<img src=""img/food6.png"" style=""width:200px; border:14px solid green;"">","null","","","","","","","","","",""
"","image-keyboard-response","79","97788","0.0-117.0","3JWH6J9I9TZFJACSX135KLH72JWNBI","A3L2VS3998R77L","3Z3R5YC0P3915KVY8X6BNRIWYOFFTN","","461","img/food2.png","75","461.59999990463257","2","1","false","2","2","1,0.5,0,1,0.5,0,0.5,0,1","0,1,0.5,0,1,0.5,1,0.5,0","3",""
"","html-keyboard-response","80","98089","0.0-118.0","3JWH6J9I9TZFJACSX135KLH72JWNBI","A3L2VS3998R77L","3Z3R5YC0P3915KVY8X6BNRIWYOFFTN","","null","<img src=""img/food2.png"" style=""width:200px; border:14px solid green;"">","null","","","","","","","","","",""
"","image-keyboard-response","81","98558","0.0-120.0","3JWH6J9I9TZFJACSX135KLH72JWNBI","A3L2VS3998R77L","3Z3R5YC0P3915KVY8X6BNRIWYOFFTN","","467.7999999523163","img/food4.png","74","468.40000009536743","1","0","false","1","2","1,0.5,0,1,0.5,0,0.5,0,1","0,1,0.5,0,1,0.5,1,0.5,0","3",""
"","html-keyboard-response","82","98860","0.0-121.0","3JWH6J9I9TZFJACSX135KLH72JWNBI","A3L2VS3998R77L","3Z3R5YC0P3915KVY8X6BNRIWYOFFTN","","null","<img src=""img/food4.png"" style=""width:200px;border:14px solid red;"">","null","","","","","","","","","",""
"","image-keyboard-response","83","99325","0.0-123.0","3JWH6J9I9TZFJACSX135KLH72JWNBI","A3L2VS3998R77L","3Z3R5YC0P3915KVY8X6BNRIWYOFFTN","","464.30000019073486","img/food2.png","75","464.90000009536743","2","1","false","2","2","1,0.5,0,1,0.5,0,0.5,0,1","0,1,0.5,0,1,0.5,1,0.5,0","3",""
"","html-keyboard-response","84","99626","0.0-124.0","3JWH6J9I9TZFJACSX135KLH72JWNBI","A3L2VS3998R77L","3Z3R5YC0P3915KVY8X6BNRIWYOFFTN","","null","<img src=""img/food2.png"" style=""width:200px; border:14px solid green;"">","null","","","","","","","","","",""
"","image-keyboard-response","85","100146","0.0-126.0","3JWH6J9I9TZFJACSX135KLH72JWNBI","A3L2VS3998R77L","3Z3R5YC0P3915KVY8X6BNRIWYOFFTN","","518.7999999523163","img/food4.png","75","519.2999999523163","2","1","false","1","2","1,0.5,0,1,0.5,0,0.5,0,1","0,1,0.5,0,1,0.5,1,0.5,0","3",""
"","html-keyboard-response","86","100448","0.0-127.0","3JWH6J9I9TZFJACSX135KLH72JWNBI","A3L2VS3998R77L","3Z3R5YC0P3915KVY8X6BNRIWYOFFTN","","null","<img src=""img/food4.png"" style=""width:200px; border:14px solid green;"">","null","","","","","","","","","",""
"","image-keyboard-response","87","100871","0.0-129.0","3JWH6J9I9TZFJACSX135KLH72JWNBI","A3L2VS3998R77L","3Z3R5YC0P3915KVY8X6BNRIWYOFFTN","","422.10000014305115","img/food2.png","75","423.7000000476837","2","1","false","2","2","1,0.5,0,1,0.5,0,0.5,0,1","0,1,0.5,0,1,0.5,1,0.5,0","3",""
"","html-keyboard-response","88","101173","0.0-130.0","3JWH6J9I9TZFJACSX135KLH72JWNBI","A3L2VS3998R77L","3Z3R5YC0P3915KVY8X6BNRIWYOFFTN","","null","<img src=""img/food2.png"" style=""width:200px; border:14px solid green;"">","null","","","","","","","","","",""
"","image-keyboard-response","89","101755","0.0-132.0","3JWH6J9I9TZFJACSX135KLH72JWNBI","A3L2VS3998R77L","3Z3R5YC0P3915KVY8X6BNRIWYOFFTN","","581.4000000953674","img/food6.png","74","581.7999999523163","1","1","false","3","2","1,0.5,0,1,0.5,0,0.5,0,1","0,1,0.5,0,1,0.5,1,0.5,0","3",""
"","html-keyboard-response","90","102056","0.0-133.0","3JWH6J9I9TZFJACSX135KLH72JWNBI","A3L2VS3998R77L","3Z3R5YC0P3915KVY8X6BNRIWYOFFTN","","null","<img src=""img/food6.png"" style=""width:200px; border:14px solid green;"">","null","","","","","","","","","",""
"","image-keyboard-response","91","102544","0.0-135.0","3JWH6J9I9TZFJACSX135KLH72JWNBI","A3L2VS3998R77L","3Z3R5YC0P3915KVY8X6BNRIWYOFFTN","","487.10000014305115","img/food4.png","75","487.7000000476837","2","1","false","1","2","1,0.5,0,1,0.5,0,0.5,0,1","0,1,0.5,0,1,0.5,1,0.5,0","3",""
"","html-keyboard-response","92","102846","0.0-136.0","3JWH6J9I9TZFJACSX135KLH72JWNBI","A3L2VS3998R77L","3Z3R5YC0P3915KVY8X6BNRIWYOFFTN","","null","<img src=""img/food4.png"" style=""width:200px; border:14px solid green;"">","null","","","","","","","","","",""
"","image-keyboard-response","93","103228","0.0-138.0","3JWH6J9I9TZFJACSX135KLH72JWNBI","A3L2VS3998R77L","3Z3R5YC0P3915KVY8X6BNRIWYOFFTN","","381.10000014305115","img/food4.png","75","381.7000000476837","2","1","false","1","2","1,0.5,0,1,0.5,0,0.5,0,1","0,1,0.5,0,1,0.5,1,0.5,0","3",""
"","html-keyboard-response","94","103530","0.0-139.0","3JWH6J9I9TZFJACSX135KLH72JWNBI","A3L2VS3998R77L","3Z3R5YC0P3915KVY8X6BNRIWYOFFTN","","null","<img src=""img/food4.png"" style=""width:200px; border:14px solid green;"">","null","","","","","","","","","",""
"","image-keyboard-response","95","104108","0.0-141.0","3JWH6J9I9TZFJACSX135KLH72JWNBI","A3L2VS3998R77L","3Z3R5YC0P3915KVY8X6BNRIWYOFFTN","","577.7000000476837","img/food6.png","74","578.2000000476837","1","1","false","3","2","1,0.5,0,1,0.5,0,0.5,0,1","0,1,0.5,0,1,0.5,1,0.5,0","3",""
"","html-keyboard-response","96","104410","0.0-142.0","3JWH6J9I9TZFJACSX135KLH72JWNBI","A3L2VS3998R77L","3Z3R5YC0P3915KVY8X6BNRIWYOFFTN","","null","<img src=""img/food6.png"" style=""width:200px; border:14px solid green;"">","null","","","","","","","","","",""
"","image-keyboard-response","97","104879","0.0-144.0","3JWH6J9I9TZFJACSX135KLH72JWNBI","A3L2VS3998R77L","3Z3R5YC0P3915KVY8X6BNRIWYOFFTN","","467.60000014305115","img/food6.png","74","468","1","1","false","3","2","1,0.5,0,1,0.5,0,0.5,0,1","0,1,0.5,0,1,0.5,1,0.5,0","3",""
"","html-keyboard-response","98","105180","0.0-145.0","3JWH6J9I9TZFJACSX135KLH72JWNBI","A3L2VS3998R77L","3Z3R5YC0P3915KVY8X6BNRIWYOFFTN","","null","<img src=""img/food6.png"" style=""width:200px; border:14px solid green;"">","null","","","","","","","","","",""
"","image-keyboard-response","99","105709","0.0-147.0","3JWH6J9I9TZFJACSX135KLH72JWNBI","A3L2VS3998R77L","3Z3R5YC0P3915KVY8X6BNRIWYOFFTN","","528.9000000953674","img/food2.png","75","529.5","2","1","false","2","2","1,0.5,0,1,0.5,0,0.5,0,1","0,1,0.5,0,1,0.5,1,0.5,0","3",""
"","html-keyboard-response","100","106010","0.0-148.0","3JWH6J9I9TZFJACSX135KLH72JWNBI","A3L2VS3998R77L","3Z3R5YC0P3915KVY8X6BNRIWYOFFTN","","null","<img src=""img/food2.png"" style=""width:200px; border:14px solid green;"">","null","","","","","","","","","",""
"","image-keyboard-response","101","106470","0.0-150.0","3JWH6J9I9TZFJACSX135KLH72JWNBI","A3L2VS3998R77L","3Z3R5YC0P3915KVY8X6BNRIWYOFFTN","","459.59999990463257","img/food4.png","75","460","2","1","false","1","2","1,0.5,0,1,0.5,0,0.5,0,1","0,1,0.5,0,1,0.5,1,0.5,0","3",""
"","html-keyboard-response","102","106773","0.0-151.0","3JWH6J9I9TZFJACSX135KLH72JWNBI","A3L2VS3998R77L","3Z3R5YC0P3915KVY8X6BNRIWYOFFTN","","null","<img src=""img/food4.png"" style=""width:200px; border:14px solid green;"">","null","","","","","","","","","",""
"","image-keyboard-response","103","107451","0.0-153.0","3JWH6J9I9TZFJACSX135KLH72JWNBI","A3L2VS3998R77L","3Z3R5YC0P3915KVY8X6BNRIWYOFFTN","","677.9000000953674","img/food2.png","76","678.4000000953674","3","0","false","2","2","1,0.5,0,1,0.5,0,0.5,0,1","0,1,0.5,0,1,0.5,1,0.5,0","3",""
"","html-keyboard-response","104","107752","0.0-154.0","3JWH6J9I9TZFJACSX135KLH72JWNBI","A3L2VS3998R77L","3Z3R5YC0P3915KVY8X6BNRIWYOFFTN","","null","<img src=""img/food2.png"" style=""width:200px;border:14px solid red;"">","null","","","","","","","","","",""
"","image-keyboard-response","105","108235","0.0-156.0","3JWH6J9I9TZFJACSX135KLH72JWNBI","A3L2VS3998R77L","3Z3R5YC0P3915KVY8X6BNRIWYOFFTN","","482.2000000476837","img/food4.png","75","482.7000000476837","2","1","false","1","2","1,0.5,0,1,0.5,0,0.5,0,1","0,1,0.5,0,1,0.5,1,0.5,0","3",""
"","html-keyboard-response","106","108537","0.0-157.0","3JWH6J9I9TZFJACSX135KLH72JWNBI","A3L2VS3998R77L","3Z3R5YC0P3915KVY8X6BNRIWYOFFTN","","null","<img src=""img/food4.png"" style=""width:200px; border:14px solid green;"">","null","","","","","","","","","",""
"","image-keyboard-response","107","109393","0.0-159.0","3JWH6J9I9TZFJACSX135KLH72JWNBI","A3L2VS3998R77L","3Z3R5YC0P3915KVY8X6BNRIWYOFFTN","","855.9000000953674","img/food2.png","75","856.2999999523163","2","1","false","2","2","1,0.5,0,1,0.5,0,0.5,0,1","0,1,0.5,0,1,0.5,1,0.5,0","3",""
"","html-keyboard-response","108","109696","0.0-160.0","3JWH6J9I9TZFJACSX135KLH72JWNBI","A3L2VS3998R77L","3Z3R5YC0P3915KVY8X6BNRIWYOFFTN","","null","<img src=""img/food2.png"" style=""width:200px; border:14px solid green;"">","null","","","","","","","","","",""
"","image-keyboard-response","109","110207","0.0-162.0","3JWH6J9I9TZFJACSX135KLH72JWNBI","A3L2VS3998R77L","3Z3R5YC0P3915KVY8X6BNRIWYOFFTN","","510.2999999523163","img/food4.png","75","510.7999999523163","2","1","false","1","2","1,0.5,0,1,0.5,0,0.5,0,1","0,1,0.5,0,1,0.5,1,0.5,0","3",""
"","html-keyboard-response","110","110509","0.0-163.0","3JWH6J9I9TZFJACSX135KLH72JWNBI","A3L2VS3998R77L","3Z3R5YC0P3915KVY8X6BNRIWYOFFTN","","null","<img src=""img/food4.png"" style=""width:200px; border:14px solid green;"">","null","","","","","","","","","",""
"","image-keyboard-response","111","110962","0.0-165.0","3JWH6J9I9TZFJACSX135KLH72JWNBI","A3L2VS3998R77L","3Z3R5YC0P3915KVY8X6BNRIWYOFFTN","","452.39999985694885","img/food2.png","74","453","1","0","false","2","2","1,0.5,0,1,0.5,0,0.5,0,1","0,1,0.5,0,1,0.5,1,0.5,0","3",""
"","html-keyboard-response","112","111263","0.0-166.0","3JWH6J9I9TZFJACSX135KLH72JWNBI","A3L2VS3998R77L","3Z3R5YC0P3915KVY8X6BNRIWYOFFTN","","null","<img src=""img/food2.png"" style=""width:200px;border:14px solid red;"">","null","","","","","","","","","",""
"","image-keyboard-response","113","111665","0.0-168.0","3JWH6J9I9TZFJACSX135KLH72JWNBI","A3L2VS3998R77L","3Z3R5YC0P3915KVY8X6BNRIWYOFFTN","","401.5","img/food4.png","75","402","2","1","false","1","2","1,0.5,0,1,0.5,0,0.5,0,1","0,1,0.5,0,1,0.5,1,0.5,0","3",""
"","html-keyboard-response","114","111967","0.0-169.0","3JWH6J9I9TZFJACSX135KLH72JWNBI","A3L2VS3998R77L","3Z3R5YC0P3915KVY8X6BNRIWYOFFTN","","null","<img src=""img/food4.png"" style=""width:200px; border:14px solid green;"">","null","","","","","","","","","",""
"","image-keyboard-response","115","112472","0.0-171.0","3JWH6J9I9TZFJACSX135KLH72JWNBI","A3L2VS3998R77L","3Z3R5YC0P3915KVY8X6BNRIWYOFFTN","","504.59999990463257","img/food6.png","74","505.2000000476837","1","1","false","3","2","1,0.5,0,1,0.5,0,0.5,0,1","0,1,0.5,0,1,0.5,1,0.5,0","3",""
"","html-keyboard-response","116","112774","0.0-172.0","3JWH6J9I9TZFJACSX135KLH72JWNBI","A3L2VS3998R77L","3Z3R5YC0P3915KVY8X6BNRIWYOFFTN","","null","<img src=""img/food6.png"" style=""width:200px; border:14px solid green;"">","null","","","","","","","","","",""
"","image-keyboard-response","117","113188","0.0-174.0","3JWH6J9I9TZFJACSX135KLH72JWNBI","A3L2VS3998R77L","3Z3R5YC0P3915KVY8X6BNRIWYOFFTN","","413.89999985694885","img/food6.png","74","414.2999999523163","1","1","false","3","2","1,0.5,0,1,0.5,0,0.5,0,1","0,1,0.5,0,1,0.5,1,0.5,0","3",""
"","html-keyboard-response","118","113490","0.0-175.0","3JWH6J9I9TZFJACSX135KLH72JWNBI","A3L2VS3998R77L","3Z3R5YC0P3915KVY8X6BNRIWYOFFTN","","null","<img src=""img/food6.png"" style=""width:200px; border:14px solid green;"">","null","","","","","","","","","",""
"","image-keyboard-response","119","113927","0.0-177.0","3JWH6J9I9TZFJACSX135KLH72JWNBI","A3L2VS3998R77L","3Z3R5YC0P3915KVY8X6BNRIWYOFFTN","","436.2999999523163","img/food4.png","74","436.90000009536743","1","0","false","1","2","1,0.5,0,1,0.5,0,0.5,0,1","0,1,0.5,0,1,0.5,1,0.5,0","3",""
"","html-keyboard-response","120","114228","0.0-178.0","3JWH6J9I9TZFJACSX135KLH72JWNBI","A3L2VS3998R77L","3Z3R5YC0P3915KVY8X6BNRIWYOFFTN","","null","<img src=""img/food4.png"" style=""width:200px;border:14px solid red;"">","null","","","","","","","","","",""
"","image-keyboard-response","121","114620","0.0-180.0","3JWH6J9I9TZFJACSX135KLH72JWNBI","A3L2VS3998R77L","3Z3R5YC0P3915KVY8X6BNRIWYOFFTN","","391.59999990463257","img/food4.png","75","391.89999985694885","2","1","false","1","2","1,0.5,0,1,0.5,0,0.5,0,1","0,1,0.5,0,1,0.5,1,0.5,0","3",""
"","html-keyboard-response","122","114922","0.0-181.0","3JWH6J9I9TZFJACSX135KLH72JWNBI","A3L2VS3998R77L","3Z3R5YC0P3915KVY8X6BNRIWYOFFTN","","null","<img src=""img/food4.png"" style=""width:200px; border:14px solid green;"">","null","","","","","","","","","",""
"","image-keyboard-response","123","115240","0.0-183.0","3JWH6J9I9TZFJACSX135KLH72JWNBI","A3L2VS3998R77L","3Z3R5YC0P3915KVY8X6BNRIWYOFFTN","","318.09999990463257","img/food6.png","74","318.5","1","1","false","3","2","1,0.5,0,1,0.5,0,0.5,0,1","0,1,0.5,0,1,0.5,1,0.5,0","3",""
"","html-keyboard-response","124","115542","0.0-184.0","3JWH6J9I9TZFJACSX135KLH72JWNBI","A3L2VS3998R77L","3Z3R5YC0P3915KVY8X6BNRIWYOFFTN","","null","<img src=""img/food6.png"" style=""width:200px; border:14px solid green;"">","null","","","","","","","","","",""
"","image-keyboard-response","125","116011","0.0-186.0","3JWH6J9I9TZFJACSX135KLH72JWNBI","A3L2VS3998R77L","3Z3R5YC0P3915KVY8X6BNRIWYOFFTN","","468.40000009536743","img/food4.png","75","469","2","1","false","1","2","1,0.5,0,1,0.5,0,0.5,0,1","0,1,0.5,0,1,0.5,1,0.5,0","3",""
"","html-keyboard-response","126","116313","0.0-187.0","3JWH6J9I9TZFJACSX135KLH72JWNBI","A3L2VS3998R77L","3Z3R5YC0P3915KVY8X6BNRIWYOFFTN","","null","<img src=""img/food4.png"" style=""width:200px; border:14px solid green;"">","null","","","","","","","","","",""
"","image-keyboard-response","127","116805","0.0-189.0","3JWH6J9I9TZFJACSX135KLH72JWNBI","A3L2VS3998R77L","3Z3R5YC0P3915KVY8X6BNRIWYOFFTN","","490.89999985694885","img/food6.png","75","491.2999999523163","2","0","false","3","2","1,0.5,0,1,0.5,0,0.5,0,1","0,1,0.5,0,1,0.5,1,0.5,0","3",""
"","html-keyboard-response","128","117105","0.0-190.0","3JWH6J9I9TZFJACSX135KLH72JWNBI","A3L2VS3998R77L","3Z3R5YC0P3915KVY8X6BNRIWYOFFTN","","null","<img src=""img/food6.png"" style=""width:200px;border:14px solid red;"">","null","","","","","","","","","",""
"","image-keyboard-response","129","117461","0.0-192.0","3JWH6J9I9TZFJACSX135KLH72JWNBI","A3L2VS3998R77L","3Z3R5YC0P3915KVY8X6BNRIWYOFFTN","","355.2000000476837","img/food2.png","74","355.60000014305115","1","0","false","2","2","1,0.5,0,1,0.5,0,0.5,0,1","0,1,0.5,0,1,0.5,1,0.5,0","3",""
"","html-keyboard-response","130","117762","0.0-193.0","3JWH6J9I9TZFJACSX135KLH72JWNBI","A3L2VS3998R77L","3Z3R5YC0P3915KVY8X6BNRIWYOFFTN","","null","<img src=""img/food2.png"" style=""width:200px;border:14px solid red;"">","null","","","","","","","","","",""
"","image-keyboard-response","131","118438","0.0-195.0","3JWH6J9I9TZFJACSX135KLH72JWNBI","A3L2VS3998R77L","3Z3R5YC0P3915KVY8X6BNRIWYOFFTN","","674.9000000953674","img/food4.png","75","675.2999999523163","2","1","false","1","2","1,0.5,0,1,0.5,0,0.5,0,1","0,1,0.5,0,1,0.5,1,0.5,0","3",""
"","html-keyboard-response","132","118739","0.0-196.0","3JWH6J9I9TZFJACSX135KLH72JWNBI","A3L2VS3998R77L","3Z3R5YC0P3915KVY8X6BNRIWYOFFTN","","null","<img src=""img/food4.png"" style=""width:200px; border:14px solid green;"">","null","","","","","","","","","",""
"","image-keyboard-response","133","119194","0.0-198.0","3JWH6J9I9TZFJACSX135KLH72JWNBI","A3L2VS3998R77L","3Z3R5YC0P3915KVY8X6BNRIWYOFFTN","","454.7999999523163","img/food4.png","75","455.30000019073486","2","1","false","1","2","1,0.5,0,1,0.5,0,0.5,0,1","0,1,0.5,0,1,0.5,1,0.5,0","3",""
"","html-keyboard-response","134","119495","0.0-199.0","3JWH6J9I9TZFJACSX135KLH72JWNBI","A3L2VS3998R77L","3Z3R5YC0P3915KVY8X6BNRIWYOFFTN","","null","<img src=""img/food4.png"" style=""width:200px; border:14px solid green;"">","null","","","","","","","","","",""
"","image-keyboard-response","135","119870","0.0-201.0","3JWH6J9I9TZFJACSX135KLH72JWNBI","A3L2VS3998R77L","3Z3R5YC0P3915KVY8X6BNRIWYOFFTN","","373.89999985694885","img/food4.png","75","374.39999985694885","2","1","false","1","2","1,0.5,0,1,0.5,0,0.5,0,1","0,1,0.5,0,1,0.5,1,0.5,0","3",""
"","html-keyboard-response","136","120171","0.0-202.0","3JWH6J9I9TZFJACSX135KLH72JWNBI","A3L2VS3998R77L","3Z3R5YC0P3915KVY8X6BNRIWYOFFTN","","null","<img src=""img/food4.png"" style=""width:200px; border:14px solid green;"">","null","","","","","","","","","",""
"","image-keyboard-response","137","120918","0.0-204.0","3JWH6J9I9TZFJACSX135KLH72JWNBI","A3L2VS3998R77L","3Z3R5YC0P3915KVY8X6BNRIWYOFFTN","","746.6000001430511","img/food2.png","75","747.1000001430511","2","1","false","2","2","1,0.5,0,1,0.5,0,0.5,0,1","0,1,0.5,0,1,0.5,1,0.5,0","3",""
"","html-keyboard-response","138","121219","0.0-205.0","3JWH6J9I9TZFJACSX135KLH72JWNBI","A3L2VS3998R77L","3Z3R5YC0P3915KVY8X6BNRIWYOFFTN","","null","<img src=""img/food2.png"" style=""width:200px; border:14px solid green;"">","null","","","","","","","","","",""
"","image-keyboard-response","139","121771","0.0-207.0","3JWH6J9I9TZFJACSX135KLH72JWNBI","A3L2VS3998R77L","3Z3R5YC0P3915KVY8X6BNRIWYOFFTN","","551.2000000476837","img/food6.png","74","551.6000001430511","1","1","false","3","2","1,0.5,0,1,0.5,0,0.5,0,1","0,1,0.5,0,1,0.5,1,0.5,0","3",""
"","html-keyboard-response","140","122073","0.0-208.0","3JWH6J9I9TZFJACSX135KLH72JWNBI","A3L2VS3998R77L","3Z3R5YC0P3915KVY8X6BNRIWYOFFTN","","null","<img src=""img/food6.png"" style=""width:200px; border:14px solid green;"">","null","","","","","","","","","",""
"","image-keyboard-response","141","122611","0.0-210.0","3JWH6J9I9TZFJACSX135KLH72JWNBI","A3L2VS3998R77L","3Z3R5YC0P3915KVY8X6BNRIWYOFFTN","","537.2999999523163","img/food2.png","75","537.7999999523163","2","1","false","2","2","1,0.5,0,1,0.5,0,0.5,0,1","0,1,0.5,0,1,0.5,1,0.5,0","3",""
"","html-keyboard-response","142","122913","0.0-211.0","3JWH6J9I9TZFJACSX135KLH72JWNBI","A3L2VS3998R77L","3Z3R5YC0P3915KVY8X6BNRIWYOFFTN","","null","<img src=""img/food2.png"" style=""width:200px; border:14px solid green;"">","null","","","","","","","","","",""
"","image-keyboard-response","143","123303","0.0-213.0","3JWH6J9I9TZFJACSX135KLH72JWNBI","A3L2VS3998R77L","3Z3R5YC0P3915KVY8X6BNRIWYOFFTN","","389.80000019073486","img/food6.png","75","390.19999980926514","2","1","false","3","2","1,0.5,0,1,0.5,0,0.5,0,1","0,1,0.5,0,1,0.5,1,0.5,0","3",""
"","html-keyboard-response","144","123604","0.0-214.0","3JWH6J9I9TZFJACSX135KLH72JWNBI","A3L2VS3998R77L","3Z3R5YC0P3915KVY8X6BNRIWYOFFTN","","null","<img src=""img/food6.png"" style=""width:200px; border:14px solid green;"">","null","","","","","","","","","",""
"","image-keyboard-response","145","124353","0.0-216.0","3JWH6J9I9TZFJACSX135KLH72JWNBI","A3L2VS3998R77L","3Z3R5YC0P3915KVY8X6BNRIWYOFFTN","","748","img/food4.png","75","748.5","2","1","false","1","2","1,0.5,0,1,0.5,0,0.5,0,1","0,1,0.5,0,1,0.5,1,0.5,0","3",""
"","html-keyboard-response","146","124654","0.0-217.0","3JWH6J9I9TZFJACSX135KLH72JWNBI","A3L2VS3998R77L","3Z3R5YC0P3915KVY8X6BNRIWYOFFTN","","null","<img src=""img/food4.png"" style=""width:200px; border:14px solid green;"">","null","","","","","","","","","",""
"","image-keyboard-response","147","125081","0.0-219.0","3JWH6J9I9TZFJACSX135KLH72JWNBI","A3L2VS3998R77L","3Z3R5YC0P3915KVY8X6BNRIWYOFFTN","","426.5","img/food4.png","75","427","2","1","false","1","2","1,0.5,0,1,0.5,0,0.5,0,1","0,1,0.5,0,1,0.5,1,0.5,0","3",""
"","html-keyboard-response","148","125382","0.0-220.0","3JWH6J9I9TZFJACSX135KLH72JWNBI","A3L2VS3998R77L","3Z3R5YC0P3915KVY8X6BNRIWYOFFTN","","null","<img src=""img/food4.png"" style=""width:200px; border:14px solid green;"">","null","","","","","","","","","",""
"","image-keyboard-response","149","125967","0.0-222.0","3JWH6J9I9TZFJACSX135KLH72JWNBI","A3L2VS3998R77L","3Z3R5YC0P3915KVY8X6BNRIWYOFFTN","","584.0999999046326","img/food6.png","74","584.5999999046326","1","1","false","3","2","1,0.5,0,1,0.5,0,0.5,0,1","0,1,0.5,0,1,0.5,1,0.5,0","3",""
"","html-keyboard-response","150","126268","0.0-223.0","3JWH6J9I9TZFJACSX135KLH72JWNBI","A3L2VS3998R77L","3Z3R5YC0P3915KVY8X6BNRIWYOFFTN","","null","<img src=""img/food6.png"" style=""width:200px; border:14px solid green;"">","null","","","","","","","","","",""
"","image-keyboard-response","151","126779","0.0-225.0","3JWH6J9I9TZFJACSX135KLH72JWNBI","A3L2VS3998R77L","3Z3R5YC0P3915KVY8X6BNRIWYOFFTN","","510.2000000476837","img/food2.png","74","510.7999999523163","1","0","false","2","2","1,0.5,0,1,0.5,0,0.5,0,1","0,1,0.5,0,1,0.5,1,0.5,0","3",""
"","html-keyboard-response","152","127080","0.0-226.0","3JWH6J9I9TZFJACSX135KLH72JWNBI","A3L2VS3998R77L","3Z3R5YC0P3915KVY8X6BNRIWYOFFTN","","null","<img src=""img/food2.png"" style=""width:200px;border:14px solid red;"">","null","","","","","","","","","",""
"","image-keyboard-response","153","127500","0.0-228.0","3JWH6J9I9TZFJACSX135KLH72JWNBI","A3L2VS3998R77L","3Z3R5YC0P3915KVY8X6BNRIWYOFFTN","","419.09999990463257","img/food2.png","75","419.59999990463257","2","1","false","2","2","1,0.5,0,1,0.5,0,0.5,0,1","0,1,0.5,0,1,0.5,1,0.5,0","3",""
"","html-keyboard-response","154","127801","0.0-229.0","3JWH6J9I9TZFJACSX135KLH72JWNBI","A3L2VS3998R77L","3Z3R5YC0P3915KVY8X6BNRIWYOFFTN","","null","<img src=""img/food2.png"" style=""width:200px; border:14px solid green;"">","null","","","","","","","","","",""
"","image-keyboard-response","155","128219","0.0-231.0","3JWH6J9I9TZFJACSX135KLH72JWNBI","A3L2VS3998R77L","3Z3R5YC0P3915KVY8X6BNRIWYOFFTN","","417.10000014305115","img/food2.png","75","417.7000000476837","2","1","false","2","2","1,0.5,0,1,0.5,0,0.5,0,1","0,1,0.5,0,1,0.5,1,0.5,0","3",""
"","html-keyboard-response","156","128520","0.0-232.0","3JWH6J9I9TZFJACSX135KLH72JWNBI","A3L2VS3998R77L","3Z3R5YC0P3915KVY8X6BNRIWYOFFTN","","null","<img src=""img/food2.png"" style=""width:200px; border:14px solid green;"">","null","","","","","","","","","",""
"","image-keyboard-response","157","128958","0.0-234.0","3JWH6J9I9TZFJACSX135KLH72JWNBI","A3L2VS3998R77L","3Z3R5YC0P3915KVY8X6BNRIWYOFFTN","","437.59999990463257","img/food6.png","75","438.2999999523163","2","0","false","3","2","1,0.5,0,1,0.5,0,0.5,0,1","0,1,0.5,0,1,0.5,1,0.5,0","3",""
"","html-keyboard-response","158","129260","0.0-235.0","3JWH6J9I9TZFJACSX135KLH72JWNBI","A3L2VS3998R77L","3Z3R5YC0P3915KVY8X6BNRIWYOFFTN","","null","<img src=""img/food6.png"" style=""width:200px;border:14px solid red;"">","null","","","","","","","","","",""
"","image-keyboard-response","159","129757","0.0-237.0","3JWH6J9I9TZFJACSX135KLH72JWNBI","A3L2VS3998R77L","3Z3R5YC0P3915KVY8X6BNRIWYOFFTN","","496.2000000476837","img/food2.png","74","496.89999985694885","1","0","false","2","2","1,0.5,0,1,0.5,0,0.5,0,1","0,1,0.5,0,1,0.5,1,0.5,0","3",""
"","html-keyboard-response","160","130058","0.0-238.0","3JWH6J9I9TZFJACSX135KLH72JWNBI","A3L2VS3998R77L","3Z3R5YC0P3915KVY8X6BNRIWYOFFTN","","null","<img src=""img/food2.png"" style=""width:200px;border:14px solid red;"">","null","","","","","","","","","",""
"","image-keyboard-response","161","130645","0.0-240.0","3JWH6J9I9TZFJACSX135KLH72JWNBI","A3L2VS3998R77L","3Z3R5YC0P3915KVY8X6BNRIWYOFFTN","","586.1000001430511","img/food6.png","74","586.7000000476837","1","1","false","3","2","1,0.5,0,1,0.5,0,0.5,0,1","0,1,0.5,0,1,0.5,1,0.5,0","3",""
"","html-keyboard-response","162","130946","0.0-241.0","3JWH6J9I9TZFJACSX135KLH72JWNBI","A3L2VS3998R77L","3Z3R5YC0P3915KVY8X6BNRIWYOFFTN","","null","<img src=""img/food6.png"" style=""width:200px; border:14px solid green;"">","null","","","","","","","","","",""
"","image-keyboard-response","163","131504","0.0-243.0","3JWH6J9I9TZFJACSX135KLH72JWNBI","A3L2VS3998R77L","3Z3R5YC0P3915KVY8X6BNRIWYOFFTN","","557","img/food4.png","75","557.5","2","1","false","1","2","1,0.5,0,1,0.5,0,0.5,0,1","0,1,0.5,0,1,0.5,1,0.5,0","3",""
"","html-keyboard-response","164","131805","0.0-244.0","3JWH6J9I9TZFJACSX135KLH72JWNBI","A3L2VS3998R77L","3Z3R5YC0P3915KVY8X6BNRIWYOFFTN","","null","<img src=""img/food4.png"" style=""width:200px; border:14px solid green;"">","null","","","","","","","","","",""
"","image-keyboard-response","165","132320","0.0-246.0","3JWH6J9I9TZFJACSX135KLH72JWNBI","A3L2VS3998R77L","3Z3R5YC0P3915KVY8X6BNRIWYOFFTN","","514.0999999046326","img/food2.png","75","514.5","2","1","false","2","2","1,0.5,0,1,0.5,0,0.5,0,1","0,1,0.5,0,1,0.5,1,0.5,0","3",""
"","html-keyboard-response","166","132621","0.0-247.0","3JWH6J9I9TZFJACSX135KLH72JWNBI","A3L2VS3998R77L","3Z3R5YC0P3915KVY8X6BNRIWYOFFTN","","null","<img src=""img/food2.png"" style=""width:200px; border:14px solid green;"">","null","","","","","","","","","",""
"","image-keyboard-response","167","133112","0.0-249.0","3JWH6J9I9TZFJACSX135KLH72JWNBI","A3L2VS3998R77L","3Z3R5YC0P3915KVY8X6BNRIWYOFFTN","","491.09999990463257","img/food2.png","75","491.7000000476837","2","1","false","2","2","1,0.5,0,1,0.5,0,0.5,0,1","0,1,0.5,0,1,0.5,1,0.5,0","3",""
"","html-keyboard-response","168","133414","0.0-250.0","3JWH6J9I9TZFJACSX135KLH72JWNBI","A3L2VS3998R77L","3Z3R5YC0P3915KVY8X6BNRIWYOFFTN","","null","<img src=""img/food2.png"" style=""width:200px; border:14px solid green;"">","null","","","","","","","","","",""
"","image-keyboard-response","169","134024","0.0-252.0","3JWH6J9I9TZFJACSX135KLH72JWNBI","A3L2VS3998R77L","3Z3R5YC0P3915KVY8X6BNRIWYOFFTN","","609.7000000476837","img/food6.png","74","610.1000001430511","1","1","false","3","2","1,0.5,0,1,0.5,0,0.5,0,1","0,1,0.5,0,1,0.5,1,0.5,0","3",""
"","html-keyboard-response","170","134326","0.0-253.0","3JWH6J9I9TZFJACSX135KLH72JWNBI","A3L2VS3998R77L","3Z3R5YC0P3915KVY8X6BNRIWYOFFTN","","null","<img src=""img/food6.png"" style=""width:200px; border:14px solid green;"">","null","","","","","","","","","",""
"","image-keyboard-response","171","134927","0.0-255.0","3JWH6J9I9TZFJACSX135KLH72JWNBI","A3L2VS3998R77L","3Z3R5YC0P3915KVY8X6BNRIWYOFFTN","","601","img/food2.png","75","601.5","2","1","false","2","2","1,0.5,0,1,0.5,0,0.5,0,1","0,1,0.5,0,1,0.5,1,0.5,0","3",""
"","html-keyboard-response","172","135229","0.0-256.0","3JWH6J9I9TZFJACSX135KLH72JWNBI","A3L2VS3998R77L","3Z3R5YC0P3915KVY8X6BNRIWYOFFTN","","null","<img src=""img/food2.png"" style=""width:200px; border:14px solid green;"">","null","","","","","","","","","",""
"","image-keyboard-response","173","135799","0.0-258.0","3JWH6J9I9TZFJACSX135KLH72JWNBI","A3L2VS3998R77L","3Z3R5YC0P3915KVY8X6BNRIWYOFFTN","","569.5999999046326","img/food6.png","75","570","2","0","false","3","2","1,0.5,0,1,0.5,0,0.5,0,1","0,1,0.5,0,1,0.5,1,0.5,0","3",""
"","html-keyboard-response","174","136100","0.0-259.0","3JWH6J9I9TZFJACSX135KLH72JWNBI","A3L2VS3998R77L","3Z3R5YC0P3915KVY8X6BNRIWYOFFTN","","null","<img src=""img/food6.png"" style=""width:200px;border:14px solid red;"">","null","","","","","","","","","",""
"","image-keyboard-response","175","136536","0.0-261.0","3JWH6J9I9TZFJACSX135KLH72JWNBI","A3L2VS3998R77L","3Z3R5YC0P3915KVY8X6BNRIWYOFFTN","","435.5","img/food2.png","74","436","1","0","false","2","2","1,0.5,0,1,0.5,0,0.5,0,1","0,1,0.5,0,1,0.5,1,0.5,0","3",""
"","html-keyboard-response","176","136838","0.0-262.0","3JWH6J9I9TZFJACSX135KLH72JWNBI","A3L2VS3998R77L","3Z3R5YC0P3915KVY8X6BNRIWYOFFTN","","null","<img src=""img/food2.png"" style=""width:200px;border:14px solid red;"">","null","","","","","","","","","",""
"","image-keyboard-response","177","137605","0.0-264.0","3JWH6J9I9TZFJACSX135KLH72JWNBI","A3L2VS3998R77L","3Z3R5YC0P3915KVY8X6BNRIWYOFFTN","","766.2999999523163","img/food2.png","75","766.8000001907349","2","1","false","2","2","1,0.5,0,1,0.5,0,0.5,0,1","0,1,0.5,0,1,0.5,1,0.5,0","3",""
"","html-keyboard-response","178","137907","0.0-265.0","3JWH6J9I9TZFJACSX135KLH72JWNBI","A3L2VS3998R77L","3Z3R5YC0P3915KVY8X6BNRIWYOFFTN","","null","<img src=""img/food2.png"" style=""width:200px; border:14px solid green;"">","null","","","","","","","","","",""
"","image-keyboard-response","179","138411","0.0-267.0","3JWH6J9I9TZFJACSX135KLH72JWNBI","A3L2VS3998R77L","3Z3R5YC0P3915KVY8X6BNRIWYOFFTN","","503.7999999523163","img/food4.png","75","504.30000019073486","2","1","false","1","2","1,0.5,0,1,0.5,0,0.5,0,1","0,1,0.5,0,1,0.5,1,0.5,0","3",""
"","html-keyboard-response","180","138712","0.0-268.0","3JWH6J9I9TZFJACSX135KLH72JWNBI","A3L2VS3998R77L","3Z3R5YC0P3915KVY8X6BNRIWYOFFTN","","null","<img src=""img/food4.png"" style=""width:200px; border:14px solid green;"">","null","","","","","","","","","",""
"","image-keyboard-response","181","139145","0.0-270.0","3JWH6J9I9TZFJACSX135KLH72JWNBI","A3L2VS3998R77L","3Z3R5YC0P3915KVY8X6BNRIWYOFFTN","","432.19999980926514","img/food4.png","75","432.7000000476837","2","1","false","1","2","1,0.5,0,1,0.5,0,0.5,0,1","0,1,0.5,0,1,0.5,1,0.5,0","3",""
"","html-keyboard-response","182","139446","0.0-271.0","3JWH6J9I9TZFJACSX135KLH72JWNBI","A3L2VS3998R77L","3Z3R5YC0P3915KVY8X6BNRIWYOFFTN","","null","<img src=""img/food4.png"" style=""width:200px; border:14px solid green;"">","null","","","","","","","","","",""
"","instructions","183","149428","0.0-273.0","3JWH6J9I9TZFJACSX135KLH72JWNBI","A3L2VS3998R77L","3Z3R5YC0P3915KVY8X6BNRIWYOFFTN","[{""page_index"":0,""viewing_time"":8763.699999809265},{""page_index"":1,""viewing_time"":1216.4000000953674}]","9980.199999809265","","","","","","","","","","","",""
"","image-keyboard-response","184","150375","0.0-274.0","3JWH6J9I9TZFJACSX135KLH72JWNBI","A3L2VS3998R77L","3Z3R5YC0P3915KVY8X6BNRIWYOFFTN","","947","img/food1.png","76","947.5999999046326","3","0","","3","1","1,0.5,0,1,0.5,0,0.5,0,1","0,1,0.5,0,1,0.5,1,0.5,0","3",""
"","html-keyboard-response","185","150677","0.0-275.0","3JWH6J9I9TZFJACSX135KLH72JWNBI","A3L2VS3998R77L","3Z3R5YC0P3915KVY8X6BNRIWYOFFTN","","null","<img src=""img/food1.png"" style=""width:200px;border:14px solid red;"">","null","","","","","","","","","",""
"","image-keyboard-response","186","151032","0.0-276.0","3JWH6J9I9TZFJACSX135KLH72JWNBI","A3L2VS3998R77L","3Z3R5YC0P3915KVY8X6BNRIWYOFFTN","","354.90000009536743","img/food5.png","75","355.39999985694885","2","1","","1","1","1,0.5,0,1,0.5,0,0.5,0,1","0,1,0.5,0,1,0.5,1,0.5,0","3",""
"","html-keyboard-response","187","151338","0.0-277.0","3JWH6J9I9TZFJACSX135KLH72JWNBI","A3L2VS3998R77L","3Z3R5YC0P3915KVY8X6BNRIWYOFFTN","","null","<img src=""img/food5.png"" style=""width:200px; border:14px solid green;"">","null","","","","","","","","","",""
"","image-keyboard-response","188","151821","0.0-278.0","3JWH6J9I9TZFJACSX135KLH72JWNBI","A3L2VS3998R77L","3Z3R5YC0P3915KVY8X6BNRIWYOFFTN","","482.7999999523163","img/food3.png","75","483.2999999523163","2","1","","2","1","1,0.5,0,1,0.5,0,0.5,0,1","0,1,0.5,0,1,0.5,1,0.5,0","3",""
"","html-keyboard-response","189","152123","0.0-279.0","3JWH6J9I9TZFJACSX135KLH72JWNBI","A3L2VS3998R77L","3Z3R5YC0P3915KVY8X6BNRIWYOFFTN","","null","<img src=""img/food3.png"" style=""width:200px; border:14px solid green;"">","null","","","","","","","","","",""
"","image-keyboard-response","190","152720","0.0-280.0","3JWH6J9I9TZFJACSX135KLH72JWNBI","A3L2VS3998R77L","3Z3R5YC0P3915KVY8X6BNRIWYOFFTN","","595.9000000953674","img/food1.png","75","596.5","2","0","","3","1","1,0.5,0,1,0.5,0,0.5,0,1","0,1,0.5,0,1,0.5,1,0.5,0","3",""
"","html-keyboard-response","191","153022","0.0-281.0","3JWH6J9I9TZFJACSX135KLH72JWNBI","A3L2VS3998R77L","3Z3R5YC0P3915KVY8X6BNRIWYOFFTN","","null","<img src=""img/food1.png"" style=""width:200px;border:14px solid red;"">","null","","","","","","","","","",""
"","image-keyboard-response","192","153514","0.0-282.0","3JWH6J9I9TZFJACSX135KLH72JWNBI","A3L2VS3998R77L","3Z3R5YC0P3915KVY8X6BNRIWYOFFTN","","491.39999985694885","img/food1.png","74","491.90000009536743","1","1","","3","1","1,0.5,0,1,0.5,0,0.5,0,1","0,1,0.5,0,1,0.5,1,0.5,0","3",""
"","html-keyboard-response","193","153816","0.0-283.0","3JWH6J9I9TZFJACSX135KLH72JWNBI","A3L2VS3998R77L","3Z3R5YC0P3915KVY8X6BNRIWYOFFTN","","null","<img src=""img/food1.png"" style=""width:200px; border:14px solid green;"">","null","","","","","","","","","",""
"","image-keyboard-response","194","154417","0.0-284.0","3JWH6J9I9TZFJACSX135KLH72JWNBI","A3L2VS3998R77L","3Z3R5YC0P3915KVY8X6BNRIWYOFFTN","","599.7999999523163","img/food1.png","74","600.3999998569489","1","1","","3","1","1,0.5,0,1,0.5,0,0.5,0,1","0,1,0.5,0,1,0.5,1,0.5,0","3",""
"","html-keyboard-response","195","154718","0.0-285.0","3JWH6J9I9TZFJACSX135KLH72JWNBI","A3L2VS3998R77L","3Z3R5YC0P3915KVY8X6BNRIWYOFFTN","","null","<img src=""img/food1.png"" style=""width:200px; border:14px solid green;"">","null","","","","","","","","","",""
"","image-keyboard-response","196","155393","0.0-286.0","3JWH6J9I9TZFJACSX135KLH72JWNBI","A3L2VS3998R77L","3Z3R5YC0P3915KVY8X6BNRIWYOFFTN","","673.7000000476837","img/food3.png","75","674","2","1","","2","1","1,0.5,0,1,0.5,0,0.5,0,1","0,1,0.5,0,1,0.5,1,0.5,0","3",""
"","html-keyboard-response","197","155694","0.0-287.0","3JWH6J9I9TZFJACSX135KLH72JWNBI","A3L2VS3998R77L","3Z3R5YC0P3915KVY8X6BNRIWYOFFTN","","null","<img src=""img/food3.png"" style=""width:200px; border:14px solid green;"">","null","","","","","","","","","",""
"","image-keyboard-response","198","156249","0.0-288.0","3JWH6J9I9TZFJACSX135KLH72JWNBI","A3L2VS3998R77L","3Z3R5YC0P3915KVY8X6BNRIWYOFFTN","","555","img/food1.png","74","555.6999998092651","1","1","","3","1","1,0.5,0,1,0.5,0,0.5,0,1","0,1,0.5,0,1,0.5,1,0.5,0","3",""
"","html-keyboard-response","199","156551","0.0-289.0","3JWH6J9I9TZFJACSX135KLH72JWNBI","A3L2VS3998R77L","3Z3R5YC0P3915KVY8X6BNRIWYOFFTN","","null","<img src=""img/food1.png"" style=""width:200px; border:14px solid green;"">","null","","","","","","","","","",""
"","image-keyboard-response","200","157217","0.0-290.0","3JWH6J9I9TZFJACSX135KLH72JWNBI","A3L2VS3998R77L","3Z3R5YC0P3915KVY8X6BNRIWYOFFTN","","665.2000000476837","img/food1.png","74","665.8999998569489","1","1","","3","1","1,0.5,0,1,0.5,0,0.5,0,1","0,1,0.5,0,1,0.5,1,0.5,0","3",""
"","html-keyboard-response","201","157518","0.0-291.0","3JWH6J9I9TZFJACSX135KLH72JWNBI","A3L2VS3998R77L","3Z3R5YC0P3915KVY8X6BNRIWYOFFTN","","null","<img src=""img/food1.png"" style=""width:200px; border:14px solid green;"">","null","","","","","","","","","",""
"","image-keyboard-response","202","157878","0.0-292.0","3JWH6J9I9TZFJACSX135KLH72JWNBI","A3L2VS3998R77L","3Z3R5YC0P3915KVY8X6BNRIWYOFFTN","","360","img/food1.png","74","360.5","1","1","","3","1","1,0.5,0,1,0.5,0,0.5,0,1","0,1,0.5,0,1,0.5,1,0.5,0","3",""
"","html-keyboard-response","203","158182","0.0-293.0","3JWH6J9I9TZFJACSX135KLH72JWNBI","A3L2VS3998R77L","3Z3R5YC0P3915KVY8X6BNRIWYOFFTN","","null","<img src=""img/food1.png"" style=""width:200px; border:14px solid green;"">","null","","","","","","","","","",""
"","image-keyboard-response","204","158693","0.0-294.0","3JWH6J9I9TZFJACSX135KLH72JWNBI","A3L2VS3998R77L","3Z3R5YC0P3915KVY8X6BNRIWYOFFTN","","510.89999985694885","img/food5.png","75","511.39999985694885","2","1","","1","1","1,0.5,0,1,0.5,0,0.5,0,1","0,1,0.5,0,1,0.5,1,0.5,0","3",""
"","html-keyboard-response","205","158995","0.0-295.0","3JWH6J9I9TZFJACSX135KLH72JWNBI","A3L2VS3998R77L","3Z3R5YC0P3915KVY8X6BNRIWYOFFTN","","null","<img src=""img/food5.png"" style=""width:200px; border:14px solid green;"">","null","","","","","","","","","",""
"","image-keyboard-response","206","159460","0.0-296.0","3JWH6J9I9TZFJACSX135KLH72JWNBI","A3L2VS3998R77L","3Z3R5YC0P3915KVY8X6BNRIWYOFFTN","","464.09999990463257","img/food5.png","75","464.59999990463257","2","1","","1","1","1,0.5,0,1,0.5,0,0.5,0,1","0,1,0.5,0,1,0.5,1,0.5,0","3",""
"","html-keyboard-response","207","159761","0.0-297.0","3JWH6J9I9TZFJACSX135KLH72JWNBI","A3L2VS3998R77L","3Z3R5YC0P3915KVY8X6BNRIWYOFFTN","","null","<img src=""img/food5.png"" style=""width:200px; border:14px solid green;"">","null","","","","","","","","","",""
"","image-keyboard-response","208","160171","0.0-298.0","3JWH6J9I9TZFJACSX135KLH72JWNBI","A3L2VS3998R77L","3Z3R5YC0P3915KVY8X6BNRIWYOFFTN","","409.5","img/food5.png","75","410","2","1","","1","1","1,0.5,0,1,0.5,0,0.5,0,1","0,1,0.5,0,1,0.5,1,0.5,0","3",""
"","html-keyboard-response","209","160473","0.0-299.0","3JWH6J9I9TZFJACSX135KLH72JWNBI","A3L2VS3998R77L","3Z3R5YC0P3915KVY8X6BNRIWYOFFTN","","null","<img src=""img/food5.png"" style=""width:200px; border:14px solid green;"">","null","","","","","","","","","",""
"","image-keyboard-response","210","160838","0.0-300.0","3JWH6J9I9TZFJACSX135KLH72JWNBI","A3L2VS3998R77L","3Z3R5YC0P3915KVY8X6BNRIWYOFFTN","","364.39999985694885","img/food5.png","75","365","2","1","","1","1","1,0.5,0,1,0.5,0,0.5,0,1","0,1,0.5,0,1,0.5,1,0.5,0","3",""
"","html-keyboard-response","211","161139","0.0-301.0","3JWH6J9I9TZFJACSX135KLH72JWNBI","A3L2VS3998R77L","3Z3R5YC0P3915KVY8X6BNRIWYOFFTN","","null","<img src=""img/food5.png"" style=""width:200px; border:14px solid green;"">","null","","","","","","","","","",""
"","image-keyboard-response","212","161539","0.0-302.0","3JWH6J9I9TZFJACSX135KLH72JWNBI","A3L2VS3998R77L","3Z3R5YC0P3915KVY8X6BNRIWYOFFTN","","400.30000019073486","img/food5.png","75","400.7999999523163","2","1","","1","1","1,0.5,0,1,0.5,0,0.5,0,1","0,1,0.5,0,1,0.5,1,0.5,0","3",""
"","html-keyboard-response","213","161841","0.0-303.0","3JWH6J9I9TZFJACSX135KLH72JWNBI","A3L2VS3998R77L","3Z3R5YC0P3915KVY8X6BNRIWYOFFTN","","null","<img src=""img/food5.png"" style=""width:200px; border:14px solid green;"">","null","","","","","","","","","",""
"","image-keyboard-response","214","162379","0.0-304.0","3JWH6J9I9TZFJACSX135KLH72JWNBI","A3L2VS3998R77L","3Z3R5YC0P3915KVY8X6BNRIWYOFFTN","","537.5","img/food1.png","74","538.1000001430511","1","1","","3","1","1,0.5,0,1,0.5,0,0.5,0,1","0,1,0.5,0,1,0.5,1,0.5,0","3",""
"","html-keyboard-response","215","162680","0.0-305.0","3JWH6J9I9TZFJACSX135KLH72JWNBI","A3L2VS3998R77L","3Z3R5YC0P3915KVY8X6BNRIWYOFFTN","","null","<img src=""img/food1.png"" style=""width:200px; border:14px solid green;"">","null","","","","","","","","","",""
"","image-keyboard-response","216","163116","0.0-306.0","3JWH6J9I9TZFJACSX135KLH72JWNBI","A3L2VS3998R77L","3Z3R5YC0P3915KVY8X6BNRIWYOFFTN","","435.7000000476837","img/food1.png","74","436.30000019073486","1","1","","3","1","1,0.5,0,1,0.5,0,0.5,0,1","0,1,0.5,0,1,0.5,1,0.5,0","3",""
"","html-keyboard-response","217","163417","0.0-307.0","3JWH6J9I9TZFJACSX135KLH72JWNBI","A3L2VS3998R77L","3Z3R5YC0P3915KVY8X6BNRIWYOFFTN","","null","<img src=""img/food1.png"" style=""width:200px; border:14px solid green;"">","null","","","","","","","","","",""
"","image-keyboard-response","218","163759","0.0-308.0","3JWH6J9I9TZFJACSX135KLH72JWNBI","A3L2VS3998R77L","3Z3R5YC0P3915KVY8X6BNRIWYOFFTN","","341.90000009536743","img/food1.png","74","342.39999985694885","1","1","","3","1","1,0.5,0,1,0.5,0,0.5,0,1","0,1,0.5,0,1,0.5,1,0.5,0","3",""
"","html-keyboard-response","219","164069","0.0-309.0","3JWH6J9I9TZFJACSX135KLH72JWNBI","A3L2VS3998R77L","3Z3R5YC0P3915KVY8X6BNRIWYOFFTN","","null","<img src=""img/food1.png"" style=""width:200px; border:14px solid green;"">","null","","","","","","","","","",""
"","image-keyboard-response","220","164580","0.0-310.0","3JWH6J9I9TZFJACSX135KLH72JWNBI","A3L2VS3998R77L","3Z3R5YC0P3915KVY8X6BNRIWYOFFTN","","511","img/food5.png","75","511.60000014305115","2","1","","1","1","1,0.5,0,1,0.5,0,0.5,0,1","0,1,0.5,0,1,0.5,1,0.5,0","3",""
"","html-keyboard-response","221","164881","0.0-311.0","3JWH6J9I9TZFJACSX135KLH72JWNBI","A3L2VS3998R77L","3Z3R5YC0P3915KVY8X6BNRIWYOFFTN","","null","<img src=""img/food5.png"" style=""width:200px; border:14px solid green;"">","null","","","","","","","","","",""
"","image-keyboard-response","222","165583","0.0-312.0","3JWH6J9I9TZFJACSX135KLH72JWNBI","A3L2VS3998R77L","3Z3R5YC0P3915KVY8X6BNRIWYOFFTN","","701.0999999046326","img/food1.png","74","701.7000000476837","1","1","","3","1","1,0.5,0,1,0.5,0,0.5,0,1","0,1,0.5,0,1,0.5,1,0.5,0","3",""
"","html-keyboard-response","223","165885","0.0-313.0","3JWH6J9I9TZFJACSX135KLH72JWNBI","A3L2VS3998R77L","3Z3R5YC0P3915KVY8X6BNRIWYOFFTN","","null","<img src=""img/food1.png"" style=""width:200px; border:14px solid green;"">","null","","","","","","","","","",""
"","image-keyboard-response","224","166368","0.0-314.0","3JWH6J9I9TZFJACSX135KLH72JWNBI","A3L2VS3998R77L","3Z3R5YC0P3915KVY8X6BNRIWYOFFTN","","483.2000000476837","img/food5.png","75","483.69999980926514","2","1","","1","1","1,0.5,0,1,0.5,0,0.5,0,1","0,1,0.5,0,1,0.5,1,0.5,0","3",""
"","html-keyboard-response","225","166670","0.0-315.0","3JWH6J9I9TZFJACSX135KLH72JWNBI","A3L2VS3998R77L","3Z3R5YC0P3915KVY8X6BNRIWYOFFTN","","null","<img src=""img/food5.png"" style=""width:200px; border:14px solid green;"">","null","","","","","","","","","",""
"","image-keyboard-response","226","166992","0.0-316.0","3JWH6J9I9TZFJACSX135KLH72JWNBI","A3L2VS3998R77L","3Z3R5YC0P3915KVY8X6BNRIWYOFFTN","","321.7999999523163","img/food1.png","74","322.40000009536743","1","1","","3","1","1,0.5,0,1,0.5,0,0.5,0,1","0,1,0.5,0,1,0.5,1,0.5,0","3",""
"","html-keyboard-response","227","167294","0.0-317.0","3JWH6J9I9TZFJACSX135KLH72JWNBI","A3L2VS3998R77L","3Z3R5YC0P3915KVY8X6BNRIWYOFFTN","","null","<img src=""img/food1.png"" style=""width:200px; border:14px solid green;"">","null","","","","","","","","","",""
"","image-keyboard-response","228","167649","0.0-318.0","3JWH6J9I9TZFJACSX135KLH72JWNBI","A3L2VS3998R77L","3Z3R5YC0P3915KVY8X6BNRIWYOFFTN","","354.7999999523163","img/food3.png","75","355.2999999523163","2","1","","2","1","1,0.5,0,1,0.5,0,0.5,0,1","0,1,0.5,0,1,0.5,1,0.5,0","3",""
"","html-keyboard-response","229","167951","0.0-319.0","3JWH6J9I9TZFJACSX135KLH72JWNBI","A3L2VS3998R77L","3Z3R5YC0P3915KVY8X6BNRIWYOFFTN","","null","<img src=""img/food3.png"" style=""width:200px; border:14px solid green;"">","null","","","","","","","","","",""
"","image-keyboard-response","230","168958","0.0-320.0","3JWH6J9I9TZFJACSX135KLH72JWNBI","A3L2VS3998R77L","3Z3R5YC0P3915KVY8X6BNRIWYOFFTN","","1007.0999999046326","img/food5.png","75","1007.6000001430511","2","1","","1","1","1,0.5,0,1,0.5,0,0.5,0,1","0,1,0.5,0,1,0.5,1,0.5,0","3",""
"","html-keyboard-response","231","169260","0.0-321.0","3JWH6J9I9TZFJACSX135KLH72JWNBI","A3L2VS3998R77L","3Z3R5YC0P3915KVY8X6BNRIWYOFFTN","","null","<img src=""img/food5.png"" style=""width:200px; border:14px solid green;"">","null","","","","","","","","","",""
"","image-keyboard-response","232","169983","0.0-322.0","3JWH6J9I9TZFJACSX135KLH72JWNBI","A3L2VS3998R77L","3Z3R5YC0P3915KVY8X6BNRIWYOFFTN","","722.4000000953674","img/food3.png","75","723","2","1","","2","1","1,0.5,0,1,0.5,0,0.5,0,1","0,1,0.5,0,1,0.5,1,0.5,0","3",""
"","html-keyboard-response","233","170284","0.0-323.0","3JWH6J9I9TZFJACSX135KLH72JWNBI","A3L2VS3998R77L","3Z3R5YC0P3915KVY8X6BNRIWYOFFTN","","null","<img src=""img/food3.png"" style=""width:200px; border:14px solid green;"">","null","","","","","","","","","",""
"","image-keyboard-response","234","170758","0.0-324.0","3JWH6J9I9TZFJACSX135KLH72JWNBI","A3L2VS3998R77L","3Z3R5YC0P3915KVY8X6BNRIWYOFFTN","","473.2000000476837","img/food3.png","75","473.59999990463257","2","1","","2","1","1,0.5,0,1,0.5,0,0.5,0,1","0,1,0.5,0,1,0.5,1,0.5,0","3",""
"","html-keyboard-response","235","171059","0.0-325.0","3JWH6J9I9TZFJACSX135KLH72JWNBI","A3L2VS3998R77L","3Z3R5YC0P3915KVY8X6BNRIWYOFFTN","","null","<img src=""img/food3.png"" style=""width:200px; border:14px solid green;"">","null","","","","","","","","","",""
"","image-keyboard-response","236","171597","0.0-326.0","3JWH6J9I9TZFJACSX135KLH72JWNBI","A3L2VS3998R77L","3Z3R5YC0P3915KVY8X6BNRIWYOFFTN","","537.3999998569489","img/food5.png","74","538","1","0","","1","1","1,0.5,0,1,0.5,0,0.5,0,1","0,1,0.5,0,1,0.5,1,0.5,0","3",""
"","html-keyboard-response","237","171899","0.0-327.0","3JWH6J9I9TZFJACSX135KLH72JWNBI","A3L2VS3998R77L","3Z3R5YC0P3915KVY8X6BNRIWYOFFTN","","null","<img src=""img/food5.png"" style=""width:200px;border:14px solid red;"">","null","","","","","","","","","",""
"","image-keyboard-response","238","172427","0.0-328.0","3JWH6J9I9TZFJACSX135KLH72JWNBI","A3L2VS3998R77L","3Z3R5YC0P3915KVY8X6BNRIWYOFFTN","","527.5999999046326","img/food1.png","75","528.2000000476837","2","0","","3","1","1,0.5,0,1,0.5,0,0.5,0,1","0,1,0.5,0,1,0.5,1,0.5,0","3",""
"","html-keyboard-response","239","172728","0.0-329.0","3JWH6J9I9TZFJACSX135KLH72JWNBI","A3L2VS3998R77L","3Z3R5YC0P3915KVY8X6BNRIWYOFFTN","","null","<img src=""img/food1.png"" style=""width:200px;border:14px solid red;"">","null","","","","","","","","","",""
"","image-keyboard-response","240","173156","0.0-330.0","3JWH6J9I9TZFJACSX135KLH72JWNBI","A3L2VS3998R77L","3Z3R5YC0P3915KVY8X6BNRIWYOFFTN","","427.10000014305115","img/food1.png","75","427.60000014305115","2","0","","3","1","1,0.5,0,1,0.5,0,0.5,0,1","0,1,0.5,0,1,0.5,1,0.5,0","3",""
"","html-keyboard-response","241","173457","0.0-331.0","3JWH6J9I9TZFJACSX135KLH72JWNBI","A3L2VS3998R77L","3Z3R5YC0P3915KVY8X6BNRIWYOFFTN","","null","<img src=""img/food1.png"" style=""width:200px;border:14px solid red;"">","null","","","","","","","","","",""
"","image-keyboard-response","242","174141","0.0-332.0","3JWH6J9I9TZFJACSX135KLH72JWNBI","A3L2VS3998R77L","3Z3R5YC0P3915KVY8X6BNRIWYOFFTN","","683.6000001430511","img/food5.png","75","684.2999999523163","2","1","","1","1","1,0.5,0,1,0.5,0,0.5,0,1","0,1,0.5,0,1,0.5,1,0.5,0","3",""
"","html-keyboard-response","243","174443","0.0-333.0","3JWH6J9I9TZFJACSX135KLH72JWNBI","A3L2VS3998R77L","3Z3R5YC0P3915KVY8X6BNRIWYOFFTN","","null","<img src=""img/food5.png"" style=""width:200px; border:14px solid green;"">","null","","","","","","","","","",""
"","image-keyboard-response","244","175122","0.0-334.0","3JWH6J9I9TZFJACSX135KLH72JWNBI","A3L2VS3998R77L","3Z3R5YC0P3915KVY8X6BNRIWYOFFTN","","678.2999999523163","img/food3.png","75","679","2","1","","2","1","1,0.5,0,1,0.5,0,0.5,0,1","0,1,0.5,0,1,0.5,1,0.5,0","3",""
"","html-keyboard-response","245","175423","0.0-335.0","3JWH6J9I9TZFJACSX135KLH72JWNBI","A3L2VS3998R77L","3Z3R5YC0P3915KVY8X6BNRIWYOFFTN","","null","<img src=""img/food3.png"" style=""width:200px; border:14px solid green;"">","null","","","","","","","","","",""
"","image-keyboard-response","246","176070","0.0-336.0","3JWH6J9I9TZFJACSX135KLH72JWNBI","A3L2VS3998R77L","3Z3R5YC0P3915KVY8X6BNRIWYOFFTN","","646.0999999046326","img/food5.png","75","646.5","2","1","","1","1","1,0.5,0,1,0.5,0,0.5,0,1","0,1,0.5,0,1,0.5,1,0.5,0","3",""
"","html-keyboard-response","247","176372","0.0-337.0","3JWH6J9I9TZFJACSX135KLH72JWNBI","A3L2VS3998R77L","3Z3R5YC0P3915KVY8X6BNRIWYOFFTN","","null","<img src=""img/food5.png"" style=""width:200px; border:14px solid green;"">","null","","","","","","","","","",""
"","image-keyboard-response","248","176969","0.0-338.0","3JWH6J9I9TZFJACSX135KLH72JWNBI","A3L2VS3998R77L","3Z3R5YC0P3915KVY8X6BNRIWYOFFTN","","596","img/food1.png","74","596.6000001430511","1","1","","3","1","1,0.5,0,1,0.5,0,0.5,0,1","0,1,0.5,0,1,0.5,1,0.5,0","3",""
"","html-keyboard-response","249","177270","0.0-339.0","3JWH6J9I9TZFJACSX135KLH72JWNBI","A3L2VS3998R77L","3Z3R5YC0P3915KVY8X6BNRIWYOFFTN","","null","<img src=""img/food1.png"" style=""width:200px; border:14px solid green;"">","null","","","","","","","","","",""
"","image-keyboard-response","250","177853","0.0-340.0","3JWH6J9I9TZFJACSX135KLH72JWNBI","A3L2VS3998R77L","3Z3R5YC0P3915KVY8X6BNRIWYOFFTN","","582.0999999046326","img/food3.png","75","582.7000000476837","2","1","","2","1","1,0.5,0,1,0.5,0,0.5,0,1","0,1,0.5,0,1,0.5,1,0.5,0","3",""
"","html-keyboard-response","251","178154","0.0-341.0","3JWH6J9I9TZFJACSX135KLH72JWNBI","A3L2VS3998R77L","3Z3R5YC0P3915KVY8X6BNRIWYOFFTN","","null","<img src=""img/food3.png"" style=""width:200px; border:14px solid green;"">","null","","","","","","","","","",""
"","image-keyboard-response","252","178624","0.0-342.0","3JWH6J9I9TZFJACSX135KLH72JWNBI","A3L2VS3998R77L","3Z3R5YC0P3915KVY8X6BNRIWYOFFTN","","468.90000009536743","img/food5.png","75","469.5","2","1","","1","1","1,0.5,0,1,0.5,0,0.5,0,1","0,1,0.5,0,1,0.5,1,0.5,0","3",""
"","html-keyboard-response","253","178925","0.0-343.0","3JWH6J9I9TZFJACSX135KLH72JWNBI","A3L2VS3998R77L","3Z3R5YC0P3915KVY8X6BNRIWYOFFTN","","null","<img src=""img/food5.png"" style=""width:200px; border:14px solid green;"">","null","","","","","","","","","",""
"","image-keyboard-response","254","179376","0.0-344.0","3JWH6J9I9TZFJACSX135KLH72JWNBI","A3L2VS3998R77L","3Z3R5YC0P3915KVY8X6BNRIWYOFFTN","","450","img/food5.png","75","450.5","2","1","","1","1","1,0.5,0,1,0.5,0,0.5,0,1","0,1,0.5,0,1,0.5,1,0.5,0","3",""
"","html-keyboard-response","255","179677","0.0-345.0","3JWH6J9I9TZFJACSX135KLH72JWNBI","A3L2VS3998R77L","3Z3R5YC0P3915KVY8X6BNRIWYOFFTN","","null","<img src=""img/food5.png"" style=""width:200px; border:14px solid green;"">","null","","","","","","","","","",""
"","image-keyboard-response","256","180115","0.0-346.0","3JWH6J9I9TZFJACSX135KLH72JWNBI","A3L2VS3998R77L","3Z3R5YC0P3915KVY8X6BNRIWYOFFTN","","436.89999985694885","img/food5.png","75","437.59999990463257","2","1","","1","1","1,0.5,0,1,0.5,0,0.5,0,1","0,1,0.5,0,1,0.5,1,0.5,0","3",""
"","html-keyboard-response","257","180417","0.0-347.0","3JWH6J9I9TZFJACSX135KLH72JWNBI","A3L2VS3998R77L","3Z3R5YC0P3915KVY8X6BNRIWYOFFTN","","null","<img src=""img/food5.png"" style=""width:200px; border:14px solid green;"">","null","","","","","","","","","",""
"","image-keyboard-response","258","180812","0.0-348.0","3JWH6J9I9TZFJACSX135KLH72JWNBI","A3L2VS3998R77L","3Z3R5YC0P3915KVY8X6BNRIWYOFFTN","","394.2000000476837","img/food5.png","75","394.7999999523163","2","1","","1","1","1,0.5,0,1,0.5,0,0.5,0,1","0,1,0.5,0,1,0.5,1,0.5,0","3",""
"","html-keyboard-response","259","181113","0.0-349.0","3JWH6J9I9TZFJACSX135KLH72JWNBI","A3L2VS3998R77L","3Z3R5YC0P3915KVY8X6BNRIWYOFFTN","","null","<img src=""img/food5.png"" style=""width:200px; border:14px solid green;"">","null","","","","","","","","","",""
"","image-keyboard-response","260","181487","0.0-350.0","3JWH6J9I9TZFJACSX135KLH72JWNBI","A3L2VS3998R77L","3Z3R5YC0P3915KVY8X6BNRIWYOFFTN","","373.09999990463257","img/food5.png","75","373.59999990463257","2","1","","1","1","1,0.5,0,1,0.5,0,0.5,0,1","0,1,0.5,0,1,0.5,1,0.5,0","3",""
"","html-keyboard-response","261","181788","0.0-351.0","3JWH6J9I9TZFJACSX135KLH72JWNBI","A3L2VS3998R77L","3Z3R5YC0P3915KVY8X6BNRIWYOFFTN","","null","<img src=""img/food5.png"" style=""width:200px; border:14px solid green;"">","null","","","","","","","","","",""
"","image-keyboard-response","262","182116","0.0-352.0","3JWH6J9I9TZFJACSX135KLH72JWNBI","A3L2VS3998R77L","3Z3R5YC0P3915KVY8X6BNRIWYOFFTN","","326.90000009536743","img/food5.png","75","327.40000009536743","2","1","","1","1","1,0.5,0,1,0.5,0,0.5,0,1","0,1,0.5,0,1,0.5,1,0.5,0","3",""
"","html-keyboard-response","263","182417","0.0-353.0","3JWH6J9I9TZFJACSX135KLH72JWNBI","A3L2VS3998R77L","3Z3R5YC0P3915KVY8X6BNRIWYOFFTN","","null","<img src=""img/food5.png"" style=""width:200px; border:14px solid green;"">","null","","","","","","","","","",""
"","image-keyboard-response","264","182951","0.0-354.0","3JWH6J9I9TZFJACSX135KLH72JWNBI","A3L2VS3998R77L","3Z3R5YC0P3915KVY8X6BNRIWYOFFTN","","533","img/food1.png","74","533.7000000476837","1","1","","3","1","1,0.5,0,1,0.5,0,0.5,0,1","0,1,0.5,0,1,0.5,1,0.5,0","3",""
"","html-keyboard-response","265","183252","0.0-355.0","3JWH6J9I9TZFJACSX135KLH72JWNBI","A3L2VS3998R77L","3Z3R5YC0P3915KVY8X6BNRIWYOFFTN","","null","<img src=""img/food1.png"" style=""width:200px; border:14px solid green;"">","null","","","","","","","","","",""
"","image-keyboard-response","266","183940","0.0-356.0","3JWH6J9I9TZFJACSX135KLH72JWNBI","A3L2VS3998R77L","3Z3R5YC0P3915KVY8X6BNRIWYOFFTN","","687.5999999046326","img/food3.png","75","688.0999999046326","2","1","","2","1","1,0.5,0,1,0.5,0,0.5,0,1","0,1,0.5,0,1,0.5,1,0.5,0","3",""
"","html-keyboard-response","267","184242","0.0-357.0","3JWH6J9I9TZFJACSX135KLH72JWNBI","A3L2VS3998R77L","3Z3R5YC0P3915KVY8X6BNRIWYOFFTN","","null","<img src=""img/food3.png"" style=""width:200px; border:14px solid green;"">","null","","","","","","","","","",""
"","image-keyboard-response","268","184943","0.0-358.0","3JWH6J9I9TZFJACSX135KLH72JWNBI","A3L2VS3998R77L","3Z3R5YC0P3915KVY8X6BNRIWYOFFTN","","700.2000000476837","img/food1.png","74","700.5999999046326","1","1","","3","1","1,0.5,0,1,0.5,0,0.5,0,1","0,1,0.5,0,1,0.5,1,0.5,0","3",""
"","html-keyboard-response","269","185252","0.0-359.0","3JWH6J9I9TZFJACSX135KLH72JWNBI","A3L2VS3998R77L","3Z3R5YC0P3915KVY8X6BNRIWYOFFTN","","null","<img src=""img/food1.png"" style=""width:200px; border:14px solid green;"">","null","","","","","","","","","",""
"","image-keyboard-response","270","185659","0.0-360.0","3JWH6J9I9TZFJACSX135KLH72JWNBI","A3L2VS3998R77L","3Z3R5YC0P3915KVY8X6BNRIWYOFFTN","","405.7000000476837","img/food3.png","75","406.30000019073486","2","1","","2","1","1,0.5,0,1,0.5,0,0.5,0,1","0,1,0.5,0,1,0.5,1,0.5,0","3",""
"","html-keyboard-response","271","185960","0.0-361.0","3JWH6J9I9TZFJACSX135KLH72JWNBI","A3L2VS3998R77L","3Z3R5YC0P3915KVY8X6BNRIWYOFFTN","","null","<img src=""img/food3.png"" style=""width:200px; border:14px solid green;"">","null","","","","","","","","","",""
"","image-keyboard-response","272","186398","0.0-362.0","3JWH6J9I9TZFJACSX135KLH72JWNBI","A3L2VS3998R77L","3Z3R5YC0P3915KVY8X6BNRIWYOFFTN","","437.40000009536743","img/food5.png","74","437.89999985694885","1","0","","1","1","1,0.5,0,1,0.5,0,0.5,0,1","0,1,0.5,0,1,0.5,1,0.5,0","3",""
"","html-keyboard-response","273","186699","0.0-363.0","3JWH6J9I9TZFJACSX135KLH72JWNBI","A3L2VS3998R77L","3Z3R5YC0P3915KVY8X6BNRIWYOFFTN","","null","<img src=""img/food5.png"" style=""width:200px;border:14px solid red;"">","null","","","","","","","","","",""
"","image-keyboard-response","274","187081","0.0-364.0","3JWH6J9I9TZFJACSX135KLH72JWNBI","A3L2VS3998R77L","3Z3R5YC0P3915KVY8X6BNRIWYOFFTN","","380.69999980926514","img/food1.png","75","381.2000000476837","2","0","","3","1","1,0.5,0,1,0.5,0,0.5,0,1","0,1,0.5,0,1,0.5,1,0.5,0","3",""
"","html-keyboard-response","275","187382","0.0-365.0","3JWH6J9I9TZFJACSX135KLH72JWNBI","A3L2VS3998R77L","3Z3R5YC0P3915KVY8X6BNRIWYOFFTN","","null","<img src=""img/food1.png"" style=""width:200px;border:14px solid red;"">","null","","","","","","","","","",""
"","image-keyboard-response","276","188408","0.0-366.0","3JWH6J9I9TZFJACSX135KLH72JWNBI","A3L2VS3998R77L","3Z3R5YC0P3915KVY8X6BNRIWYOFFTN","","1025.6999998092651","img/food3.png","75","1026.3999998569489","2","1","","2","1","1,0.5,0,1,0.5,0,0.5,0,1","0,1,0.5,0,1,0.5,1,0.5,0","3",""
"","html-keyboard-response","277","188709","0.0-367.0","3JWH6J9I9TZFJACSX135KLH72JWNBI","A3L2VS3998R77L","3Z3R5YC0P3915KVY8X6BNRIWYOFFTN","","null","<img src=""img/food3.png"" style=""width:200px; border:14px solid green;"">","null","","","","","","","","","",""
"","image-keyboard-response","278","189402","0.0-368.0","3JWH6J9I9TZFJACSX135KLH72JWNBI","A3L2VS3998R77L","3Z3R5YC0P3915KVY8X6BNRIWYOFFTN","","692.2999999523163","img/food5.png","75","692.9000000953674","2","1","","1","1","1,0.5,0,1,0.5,0,0.5,0,1","0,1,0.5,0,1,0.5,1,0.5,0","3",""
"","html-keyboard-response","279","189704","0.0-369.0","3JWH6J9I9TZFJACSX135KLH72JWNBI","A3L2VS3998R77L","3Z3R5YC0P3915KVY8X6BNRIWYOFFTN","","null","<img src=""img/food5.png"" style=""width:200px; border:14px solid green;"">","null","","","","","","","","","",""
"","image-keyboard-response","280","190223","0.0-370.0","3JWH6J9I9TZFJACSX135KLH72JWNBI","A3L2VS3998R77L","3Z3R5YC0P3915KVY8X6BNRIWYOFFTN","","518.2999999523163","img/food3.png","75","518.9000000953674","2","1","","2","1","1,0.5,0,1,0.5,0,0.5,0,1","0,1,0.5,0,1,0.5,1,0.5,0","3",""
"","html-keyboard-response","281","190530","0.0-371.0","3JWH6J9I9TZFJACSX135KLH72JWNBI","A3L2VS3998R77L","3Z3R5YC0P3915KVY8X6BNRIWYOFFTN","","null","<img src=""img/food3.png"" style=""width:200px; border:14px solid green;"">","null","","","","","","","","","",""
"","image-keyboard-response","282","191066","0.0-372.0","3JWH6J9I9TZFJACSX135KLH72JWNBI","A3L2VS3998R77L","3Z3R5YC0P3915KVY8X6BNRIWYOFFTN","","534.7999999523163","img/food3.png","75","535.4000000953674","2","1","","2","1","1,0.5,0,1,0.5,0,0.5,0,1","0,1,0.5,0,1,0.5,1,0.5,0","3",""
"","html-keyboard-response","283","191367","0.0-373.0","3JWH6J9I9TZFJACSX135KLH72JWNBI","A3L2VS3998R77L","3Z3R5YC0P3915KVY8X6BNRIWYOFFTN","","null","<img src=""img/food3.png"" style=""width:200px; border:14px solid green;"">","null","","","","","","","","","",""
"","image-keyboard-response","284","192024","0.0-374.0","3JWH6J9I9TZFJACSX135KLH72JWNBI","A3L2VS3998R77L","3Z3R5YC0P3915KVY8X6BNRIWYOFFTN","","656.2999999523163","img/food5.png","75","656.7999999523163","2","1","","1","1","1,0.5,0,1,0.5,0,0.5,0,1","0,1,0.5,0,1,0.5,1,0.5,0","3",""
"","html-keyboard-response","285","192325","0.0-375.0","3JWH6J9I9TZFJACSX135KLH72JWNBI","A3L2VS3998R77L","3Z3R5YC0P3915KVY8X6BNRIWYOFFTN","","null","<img src=""img/food5.png"" style=""width:200px; border:14px solid green;"">","null","","","","","","","","","",""
"","image-keyboard-response","286","192881","0.0-376.0","3JWH6J9I9TZFJACSX135KLH72JWNBI","A3L2VS3998R77L","3Z3R5YC0P3915KVY8X6BNRIWYOFFTN","","555","img/food1.png","74","555.5999999046326","1","1","","3","1","1,0.5,0,1,0.5,0,0.5,0,1","0,1,0.5,0,1,0.5,1,0.5,0","3",""
"","html-keyboard-response","287","193182","0.0-377.0","3JWH6J9I9TZFJACSX135KLH72JWNBI","A3L2VS3998R77L","3Z3R5YC0P3915KVY8X6BNRIWYOFFTN","","null","<img src=""img/food1.png"" style=""width:200px; border:14px solid green;"">","null","","","","","","","","","",""
"","image-keyboard-response","288","193647","0.0-378.0","3JWH6J9I9TZFJACSX135KLH72JWNBI","A3L2VS3998R77L","3Z3R5YC0P3915KVY8X6BNRIWYOFFTN","","464.30000019073486","img/food5.png","75","464.7999999523163","2","1","","1","1","1,0.5,0,1,0.5,0,0.5,0,1","0,1,0.5,0,1,0.5,1,0.5,0","3",""
"","html-keyboard-response","289","193948","0.0-379.0","3JWH6J9I9TZFJACSX135KLH72JWNBI","A3L2VS3998R77L","3Z3R5YC0P3915KVY8X6BNRIWYOFFTN","","null","<img src=""img/food5.png"" style=""width:200px; border:14px solid green;"">","null","","","","","","","","","",""
"","image-keyboard-response","290","194527","0.0-380.0","3JWH6J9I9TZFJACSX135KLH72JWNBI","A3L2VS3998R77L","3Z3R5YC0P3915KVY8X6BNRIWYOFFTN","","577.8999998569489","img/food1.png","74","578.4000000953674","1","1","","3","1","1,0.5,0,1,0.5,0,0.5,0,1","0,1,0.5,0,1,0.5,1,0.5,0","3",""
"","html-keyboard-response","291","194829","0.0-381.0","3JWH6J9I9TZFJACSX135KLH72JWNBI","A3L2VS3998R77L","3Z3R5YC0P3915KVY8X6BNRIWYOFFTN","","null","<img src=""img/food1.png"" style=""width:200px; border:14px solid green;"">","null","","","","","","","","","",""
"","image-keyboard-response","292","195243","0.0-382.0","3JWH6J9I9TZFJACSX135KLH72JWNBI","A3L2VS3998R77L","3Z3R5YC0P3915KVY8X6BNRIWYOFFTN","","413.7000000476837","img/food5.png","75","414.2999999523163","2","1","","1","1","1,0.5,0,1,0.5,0,0.5,0,1","0,1,0.5,0,1,0.5,1,0.5,0","3",""
"","html-keyboard-response","293","195545","0.0-383.0","3JWH6J9I9TZFJACSX135KLH72JWNBI","A3L2VS3998R77L","3Z3R5YC0P3915KVY8X6BNRIWYOFFTN","","null","<img src=""img/food5.png"" style=""width:200px; border:14px solid green;"">","null","","","","","","","","","",""
"","image-keyboard-response","294","196109","0.0-384.0","3JWH6J9I9TZFJACSX135KLH72JWNBI","A3L2VS3998R77L","3Z3R5YC0P3915KVY8X6BNRIWYOFFTN","","562.9000000953674","img/food3.png","75","563.5999999046326","2","1","","2","1","1,0.5,0,1,0.5,0,0.5,0,1","0,1,0.5,0,1,0.5,1,0.5,0","3",""
"","html-keyboard-response","295","196411","0.0-385.0","3JWH6J9I9TZFJACSX135KLH72JWNBI","A3L2VS3998R77L","3Z3R5YC0P3915KVY8X6BNRIWYOFFTN","","null","<img src=""img/food3.png"" style=""width:200px; border:14px solid green;"">","null","","","","","","","","","",""
"","image-keyboard-response","296","196953","0.0-386.0","3JWH6J9I9TZFJACSX135KLH72JWNBI","A3L2VS3998R77L","3Z3R5YC0P3915KVY8X6BNRIWYOFFTN","","541.3999998569489","img/food5.png","75","542","2","1","","1","1","1,0.5,0,1,0.5,0,0.5,0,1","0,1,0.5,0,1,0.5,1,0.5,0","3",""
"","html-keyboard-response","297","197254","0.0-387.0","3JWH6J9I9TZFJACSX135KLH72JWNBI","A3L2VS3998R77L","3Z3R5YC0P3915KVY8X6BNRIWYOFFTN","","null","<img src=""img/food5.png"" style=""width:200px; border:14px solid green;"">","null","","","","","","","","","",""
"","image-keyboard-response","298","197769","0.0-388.0","3JWH6J9I9TZFJACSX135KLH72JWNBI","A3L2VS3998R77L","3Z3R5YC0P3915KVY8X6BNRIWYOFFTN","","513.7000000476837","img/food3.png","75","515.1000001430511","2","1","","2","1","1,0.5,0,1,0.5,0,0.5,0,1","0,1,0.5,0,1,0.5,1,0.5,0","3",""
"","html-keyboard-response","299","198070","0.0-389.0","3JWH6J9I9TZFJACSX135KLH72JWNBI","A3L2VS3998R77L","3Z3R5YC0P3915KVY8X6BNRIWYOFFTN","","null","<img src=""img/food3.png"" style=""width:200px; border:14px solid green;"">","null","","","","","","","","","",""
"","image-keyboard-response","300","198585","0.0-390.0","3JWH6J9I9TZFJACSX135KLH72JWNBI","A3L2VS3998R77L","3Z3R5YC0P3915KVY8X6BNRIWYOFFTN","","514.4000000953674","img/food3.png","75","515","2","1","","2","1","1,0.5,0,1,0.5,0,0.5,0,1","0,1,0.5,0,1,0.5,1,0.5,0","3",""
"","html-keyboard-response","301","198886","0.0-391.0","3JWH6J9I9TZFJACSX135KLH72JWNBI","A3L2VS3998R77L","3Z3R5YC0P3915KVY8X6BNRIWYOFFTN","","null","<img src=""img/food3.png"" style=""width:200px; border:14px solid green;"">","null","","","","","","","","","",""
"","image-keyboard-response","302","199419","0.0-392.0","3JWH6J9I9TZFJACSX135KLH72JWNBI","A3L2VS3998R77L","3Z3R5YC0P3915KVY8X6BNRIWYOFFTN","","531.8999998569489","img/food5.png","74","532.5","1","0","","1","1","1,0.5,0,1,0.5,0,0.5,0,1","0,1,0.5,0,1,0.5,1,0.5,0","3",""
"","html-keyboard-response","303","199720","0.0-393.0","3JWH6J9I9TZFJACSX135KLH72JWNBI","A3L2VS3998R77L","3Z3R5YC0P3915KVY8X6BNRIWYOFFTN","","null","<img src=""img/food5.png"" style=""width:200px;border:14px solid red;"">","null","","","","","","","","","",""
"","image-keyboard-response","304","200262","0.0-394.0","3JWH6J9I9TZFJACSX135KLH72JWNBI","A3L2VS3998R77L","3Z3R5YC0P3915KVY8X6BNRIWYOFFTN","","541.4000000953674","img/food1.png","74","541.9000000953674","1","1","","3","1","1,0.5,0,1,0.5,0,0.5,0,1","0,1,0.5,0,1,0.5,1,0.5,0","3",""
"","html-keyboard-response","305","200563","0.0-395.0","3JWH6J9I9TZFJACSX135KLH72JWNBI","A3L2VS3998R77L","3Z3R5YC0P3915KVY8X6BNRIWYOFFTN","","null","<img src=""img/food1.png"" style=""width:200px; border:14px solid green;"">","null","","","","","","","","","",""
"","image-keyboard-response","306","201256","0.0-396.0","3JWH6J9I9TZFJACSX135KLH72JWNBI","A3L2VS3998R77L","3Z3R5YC0P3915KVY8X6BNRIWYOFFTN","","692.3000001907349","img/food1.png","74","692.8999998569489","1","1","","3","1","1,0.5,0,1,0.5,0,0.5,0,1","0,1,0.5,0,1,0.5,1,0.5,0","3",""
"","html-keyboard-response","307","201558","0.0-397.0","3JWH6J9I9TZFJACSX135KLH72JWNBI","A3L2VS3998R77L","3Z3R5YC0P3915KVY8X6BNRIWYOFFTN","","null","<img src=""img/food1.png"" style=""width:200px; border:14px solid green;"">","null","","","","","","","","","",""
"","image-keyboard-response","308","202081","0.0-398.0","3JWH6J9I9TZFJACSX135KLH72JWNBI","A3L2VS3998R77L","3Z3R5YC0P3915KVY8X6BNRIWYOFFTN","","522.5999999046326","img/food3.png","75","523","2","1","","2","1","1,0.5,0,1,0.5,0,0.5,0,1","0,1,0.5,0,1,0.5,1,0.5,0","3",""
"","html-keyboard-response","309","202382","0.0-399.0","3JWH6J9I9TZFJACSX135KLH72JWNBI","A3L2VS3998R77L","3Z3R5YC0P3915KVY8X6BNRIWYOFFTN","","null","<img src=""img/food3.png"" style=""width:200px; border:14px solid green;"">","null","","","","","","","","","",""
"","image-keyboard-response","310","202861","0.0-400.0","3JWH6J9I9TZFJACSX135KLH72JWNBI","A3L2VS3998R77L","3Z3R5YC0P3915KVY8X6BNRIWYOFFTN","","478.39999985694885","img/food1.png","75","478.90000009536743","2","1","","3","1","1,0.5,0,1,0.5,0,0.5,0,1","0,1,0.5,0,1,0.5,1,0.5,0","3",""
"","html-keyboard-response","311","203162","0.0-401.0","3JWH6J9I9TZFJACSX135KLH72JWNBI","A3L2VS3998R77L","3Z3R5YC0P3915KVY8X6BNRIWYOFFTN","","null","<img src=""img/food1.png"" style=""width:200px; border:14px solid green;"">","null","","","","","","","","","",""
"","image-keyboard-response","312","203590","0.0-402.0","3JWH6J9I9TZFJACSX135KLH72JWNBI","A3L2VS3998R77L","3Z3R5YC0P3915KVY8X6BNRIWYOFFTN","","427.2999999523163","img/food3.png","74","427.7000000476837","1","0","","2","1","1,0.5,0,1,0.5,0,0.5,0,1","0,1,0.5,0,1,0.5,1,0.5,0","3",""
"","html-keyboard-response","313","203891","0.0-403.0","3JWH6J9I9TZFJACSX135KLH72JWNBI","A3L2VS3998R77L","3Z3R5YC0P3915KVY8X6BNRIWYOFFTN","","null","<img src=""img/food3.png"" style=""width:200px;border:14px solid red;"">","null","","","","","","","","","",""
"","image-keyboard-response","314","204515","0.0-404.0","3JWH6J9I9TZFJACSX135KLH72JWNBI","A3L2VS3998R77L","3Z3R5YC0P3915KVY8X6BNRIWYOFFTN","","623.1000001430511","img/food5.png","75","623.7999999523163","2","1","","1","1","1,0.5,0,1,0.5,0,0.5,0,1","0,1,0.5,0,1,0.5,1,0.5,0","3",""
"","html-keyboard-response","315","204816","0.0-405.0","3JWH6J9I9TZFJACSX135KLH72JWNBI","A3L2VS3998R77L","3Z3R5YC0P3915KVY8X6BNRIWYOFFTN","","null","<img src=""img/food5.png"" style=""width:200px; border:14px solid green;"">","null","","","","","","","","","",""
"","image-keyboard-response","316","205677","0.0-406.0","3JWH6J9I9TZFJACSX135KLH72JWNBI","A3L2VS3998R77L","3Z3R5YC0P3915KVY8X6BNRIWYOFFTN","","860.7999999523163","img/food1.png","74","861.2999999523163","1","1","","3","1","1,0.5,0,1,0.5,0,0.5,0,1","0,1,0.5,0,1,0.5,1,0.5,0","3",""
"","html-keyboard-response","317","205978","0.0-407.0","3JWH6J9I9TZFJACSX135KLH72JWNBI","A3L2VS3998R77L","3Z3R5YC0P3915KVY8X6BNRIWYOFFTN","","null","<img src=""img/food1.png"" style=""width:200px; border:14px solid green;"">","null","","","","","","","","","",""
"","image-keyboard-response","318","206416","0.0-408.0","3JWH6J9I9TZFJACSX135KLH72JWNBI","A3L2VS3998R77L","3Z3R5YC0P3915KVY8X6BNRIWYOFFTN","","437.7000000476837","img/food1.png","74","438.30000019073486","1","1","","3","1","1,0.5,0,1,0.5,0,0.5,0,1","0,1,0.5,0,1,0.5,1,0.5,0","3",""
"","html-keyboard-response","319","206718","0.0-409.0","3JWH6J9I9TZFJACSX135KLH72JWNBI","A3L2VS3998R77L","3Z3R5YC0P3915KVY8X6BNRIWYOFFTN","","null","<img src=""img/food1.png"" style=""width:200px; border:14px solid green;"">","null","","","","","","","","","",""
"","image-keyboard-response","320","207378","0.0-410.0","3JWH6J9I9TZFJACSX135KLH72JWNBI","A3L2VS3998R77L","3Z3R5YC0P3915KVY8X6BNRIWYOFFTN","","659.5999999046326","img/food3.png","75","660","2","1","","2","1","1,0.5,0,1,0.5,0,0.5,0,1","0,1,0.5,0,1,0.5,1,0.5,0","3",""
"","html-keyboard-response","321","207679","0.0-411.0","3JWH6J9I9TZFJACSX135KLH72JWNBI","A3L2VS3998R77L","3Z3R5YC0P3915KVY8X6BNRIWYOFFTN","","null","<img src=""img/food3.png"" style=""width:200px; border:14px solid green;"">","null","","","","","","","","","",""
"","image-keyboard-response","322","208299","0.0-412.0","3JWH6J9I9TZFJACSX135KLH72JWNBI","A3L2VS3998R77L","3Z3R5YC0P3915KVY8X6BNRIWYOFFTN","","619.0999999046326","img/food1.png","74","619.5","1","1","","3","1","1,0.5,0,1,0.5,0,0.5,0,1","0,1,0.5,0,1,0.5,1,0.5,0","3",""
"","html-keyboard-response","323","208600","0.0-413.0","3JWH6J9I9TZFJACSX135KLH72JWNBI","A3L2VS3998R77L","3Z3R5YC0P3915KVY8X6BNRIWYOFFTN","","null","<img src=""img/food1.png"" style=""width:200px; border:14px solid green;"">","null","","","","","","","","","",""
"","image-keyboard-response","324","209111","0.0-414.0","3JWH6J9I9TZFJACSX135KLH72JWNBI","A3L2VS3998R77L","3Z3R5YC0P3915KVY8X6BNRIWYOFFTN","","510.40000009536743","img/food3.png","75","510.89999985694885","2","1","","2","1","1,0.5,0,1,0.5,0,0.5,0,1","0,1,0.5,0,1,0.5,1,0.5,0","3",""
"","html-keyboard-response","325","209412","0.0-415.0","3JWH6J9I9TZFJACSX135KLH72JWNBI","A3L2VS3998R77L","3Z3R5YC0P3915KVY8X6BNRIWYOFFTN","","null","<img src=""img/food3.png"" style=""width:200px; border:14px solid green;"">","null","","","","","","","","","",""
"","image-keyboard-response","326","209899","0.0-416.0","3JWH6J9I9TZFJACSX135KLH72JWNBI","A3L2VS3998R77L","3Z3R5YC0P3915KVY8X6BNRIWYOFFTN","","486.69999980926514","img/food1.png","74","487.2999999523163","1","1","","3","1","1,0.5,0,1,0.5,0,0.5,0,1","0,1,0.5,0,1,0.5,1,0.5,0","3",""
"","html-keyboard-response","327","210200","0.0-417.0","3JWH6J9I9TZFJACSX135KLH72JWNBI","A3L2VS3998R77L","3Z3R5YC0P3915KVY8X6BNRIWYOFFTN","","null","<img src=""img/food1.png"" style=""width:200px; border:14px solid green;"">","null","","","","","","","","","",""
"","image-keyboard-response","328","210624","0.0-418.0","3JWH6J9I9TZFJACSX135KLH72JWNBI","A3L2VS3998R77L","3Z3R5YC0P3915KVY8X6BNRIWYOFFTN","","422.7000000476837","img/food3.png","75","423.2999999523163","2","1","","2","1","1,0.5,0,1,0.5,0,0.5,0,1","0,1,0.5,0,1,0.5,1,0.5,0","3",""
"","html-keyboard-response","329","210925","0.0-419.0","3JWH6J9I9TZFJACSX135KLH72JWNBI","A3L2VS3998R77L","3Z3R5YC0P3915KVY8X6BNRIWYOFFTN","","null","<img src=""img/food3.png"" style=""width:200px; border:14px solid green;"">","null","","","","","","","","","",""
"","image-keyboard-response","330","211308","0.0-420.0","3JWH6J9I9TZFJACSX135KLH72JWNBI","A3L2VS3998R77L","3Z3R5YC0P3915KVY8X6BNRIWYOFFTN","","382","img/food3.png","74","382.59999990463257","1","0","","2","1","1,0.5,0,1,0.5,0,0.5,0,1","0,1,0.5,0,1,0.5,1,0.5,0","3",""
"","html-keyboard-response","331","211609","0.0-421.0","3JWH6J9I9TZFJACSX135KLH72JWNBI","A3L2VS3998R77L","3Z3R5YC0P3915KVY8X6BNRIWYOFFTN","","null","<img src=""img/food3.png"" style=""width:200px;border:14px solid red;"">","null","","","","","","","","","",""
"","image-keyboard-response","332","212275","0.0-422.0","3JWH6J9I9TZFJACSX135KLH72JWNBI","A3L2VS3998R77L","3Z3R5YC0P3915KVY8X6BNRIWYOFFTN","","665.4000000953674","img/food1.png","74","666","1","1","","3","1","1,0.5,0,1,0.5,0,0.5,0,1","0,1,0.5,0,1,0.5,1,0.5,0","3",""
"","html-keyboard-response","333","212576","0.0-423.0","3JWH6J9I9TZFJACSX135KLH72JWNBI","A3L2VS3998R77L","3Z3R5YC0P3915KVY8X6BNRIWYOFFTN","","null","<img src=""img/food1.png"" style=""width:200px; border:14px solid green;"">","null","","","","","","","","","",""
"","image-keyboard-response","334","213082","0.0-424.0","3JWH6J9I9TZFJACSX135KLH72JWNBI","A3L2VS3998R77L","3Z3R5YC0P3915KVY8X6BNRIWYOFFTN","","504.7999999523163","img/food5.png","75","505.30000019073486","2","1","","1","1","1,0.5,0,1,0.5,0,0.5,0,1","0,1,0.5,0,1,0.5,1,0.5,0","3",""
"","html-keyboard-response","335","213383","0.0-425.0","3JWH6J9I9TZFJACSX135KLH72JWNBI","A3L2VS3998R77L","3Z3R5YC0P3915KVY8X6BNRIWYOFFTN","","null","<img src=""img/food5.png"" style=""width:200px; border:14px solid green;"">","null","","","","","","","","","",""
"","image-keyboard-response","336","213976","0.0-426.0","3JWH6J9I9TZFJACSX135KLH72JWNBI","A3L2VS3998R77L","3Z3R5YC0P3915KVY8X6BNRIWYOFFTN","","591.6000001430511","img/food3.png","75","592.2000000476837","2","1","","2","1","1,0.5,0,1,0.5,0,0.5,0,1","0,1,0.5,0,1,0.5,1,0.5,0","3",""
"","html-keyboard-response","337","214277","0.0-427.0","3JWH6J9I9TZFJACSX135KLH72JWNBI","A3L2VS3998R77L","3Z3R5YC0P3915KVY8X6BNRIWYOFFTN","","null","<img src=""img/food3.png"" style=""width:200px; border:14px solid green;"">","null","","","","","","","","","",""
"","image-keyboard-response","338","214728","0.0-428.0","3JWH6J9I9TZFJACSX135KLH72JWNBI","A3L2VS3998R77L","3Z3R5YC0P3915KVY8X6BNRIWYOFFTN","","450.10000014305115","img/food3.png","75","450.7000000476837","2","1","","2","1","1,0.5,0,1,0.5,0,0.5,0,1","0,1,0.5,0,1,0.5,1,0.5,0","3",""
"","html-keyboard-response","339","215029","0.0-429.0","3JWH6J9I9TZFJACSX135KLH72JWNBI","A3L2VS3998R77L","3Z3R5YC0P3915KVY8X6BNRIWYOFFTN","","null","<img src=""img/food3.png"" style=""width:200px; border:14px solid green;"">","null","","","","","","","","","",""
"","image-keyboard-response","340","215485","0.0-430.0","3JWH6J9I9TZFJACSX135KLH72JWNBI","A3L2VS3998R77L","3Z3R5YC0P3915KVY8X6BNRIWYOFFTN","","455.09999990463257","img/food3.png","75","455.5","2","1","","2","1","1,0.5,0,1,0.5,0,0.5,0,1","0,1,0.5,0,1,0.5,1,0.5,0","3",""
"","html-keyboard-response","341","215786","0.0-431.0","3JWH6J9I9TZFJACSX135KLH72JWNBI","A3L2VS3998R77L","3Z3R5YC0P3915KVY8X6BNRIWYOFFTN","","null","<img src=""img/food3.png"" style=""width:200px; border:14px solid green;"">","null","","","","","","","","","",""
"","image-keyboard-response","342","216220","0.0-432.0","3JWH6J9I9TZFJACSX135KLH72JWNBI","A3L2VS3998R77L","3Z3R5YC0P3915KVY8X6BNRIWYOFFTN","","432.5","img/food3.png","75","433","2","1","","2","1","1,0.5,0,1,0.5,0,0.5,0,1","0,1,0.5,0,1,0.5,1,0.5,0","3",""
"","html-keyboard-response","343","216520","0.0-433.0","3JWH6J9I9TZFJACSX135KLH72JWNBI","A3L2VS3998R77L","3Z3R5YC0P3915KVY8X6BNRIWYOFFTN","","null","<img src=""img/food3.png"" style=""width:200px; border:14px solid green;"">","null","","","","","","","","","",""
"","image-keyboard-response","344","217044","0.0-434.0","3JWH6J9I9TZFJACSX135KLH72JWNBI","A3L2VS3998R77L","3Z3R5YC0P3915KVY8X6BNRIWYOFFTN","","522.5999999046326","img/food1.png","74","523.2999999523163","1","1","","3","1","1,0.5,0,1,0.5,0,0.5,0,1","0,1,0.5,0,1,0.5,1,0.5,0","3",""
"","html-keyboard-response","345","217345","0.0-435.0","3JWH6J9I9TZFJACSX135KLH72JWNBI","A3L2VS3998R77L","3Z3R5YC0P3915KVY8X6BNRIWYOFFTN","","null","<img src=""img/food1.png"" style=""width:200px; border:14px solid green;"">","null","","","","","","","","","",""
"","image-keyboard-response","346","217828","0.0-436.0","3JWH6J9I9TZFJACSX135KLH72JWNBI","A3L2VS3998R77L","3Z3R5YC0P3915KVY8X6BNRIWYOFFTN","","482.2999999523163","img/food5.png","75","482.7999999523163","2","1","","1","1","1,0.5,0,1,0.5,0,0.5,0,1","0,1,0.5,0,1,0.5,1,0.5,0","3",""
"","html-keyboard-response","347","218129","0.0-437.0","3JWH6J9I9TZFJACSX135KLH72JWNBI","A3L2VS3998R77L","3Z3R5YC0P3915KVY8X6BNRIWYOFFTN","","null","<img src=""img/food5.png"" style=""width:200px; border:14px solid green;"">","null","","","","","","","","","",""
"","image-keyboard-response","348","218635","0.0-438.0","3JWH6J9I9TZFJACSX135KLH72JWNBI","A3L2VS3998R77L","3Z3R5YC0P3915KVY8X6BNRIWYOFFTN","","505.2999999523163","img/food3.png","75","505.7999999523163","2","1","","2","1","1,0.5,0,1,0.5,0,0.5,0,1","0,1,0.5,0,1,0.5,1,0.5,0","3",""
"","html-keyboard-response","349","218936","0.0-439.0","3JWH6J9I9TZFJACSX135KLH72JWNBI","A3L2VS3998R77L","3Z3R5YC0P3915KVY8X6BNRIWYOFFTN","","null","<img src=""img/food3.png"" style=""width:200px; border:14px solid green;"">","null","","","","","","","","","",""
"","image-keyboard-response","350","219396","0.0-440.0","3JWH6J9I9TZFJACSX135KLH72JWNBI","A3L2VS3998R77L","3Z3R5YC0P3915KVY8X6BNRIWYOFFTN","","459.40000009536743","img/food5.png","75","459.90000009536743","2","1","","1","1","1,0.5,0,1,0.5,0,0.5,0,1","0,1,0.5,0,1,0.5,1,0.5,0","3",""
"","html-keyboard-response","351","219697","0.0-441.0","3JWH6J9I9TZFJACSX135KLH72JWNBI","A3L2VS3998R77L","3Z3R5YC0P3915KVY8X6BNRIWYOFFTN","","null","<img src=""img/food5.png"" style=""width:200px; border:14px solid green;"">","null","","","","","","","","","",""
"","image-keyboard-response","352","220344","0.0-442.0","3JWH6J9I9TZFJACSX135KLH72JWNBI","A3L2VS3998R77L","3Z3R5YC0P3915KVY8X6BNRIWYOFFTN","","646","img/food1.png","74","646.5","1","1","","3","1","1,0.5,0,1,0.5,0,0.5,0,1","0,1,0.5,0,1,0.5,1,0.5,0","3",""
"","html-keyboard-response","353","220645","0.0-443.0","3JWH6J9I9TZFJACSX135KLH72JWNBI","A3L2VS3998R77L","3Z3R5YC0P3915KVY8X6BNRIWYOFFTN","","null","<img src=""img/food1.png"" style=""width:200px; border:14px solid green;"">","null","","","","","","","","","",""
"","image-keyboard-response","354","221014","0.0-444.0","3JWH6J9I9TZFJACSX135KLH72JWNBI","A3L2VS3998R77L","3Z3R5YC0P3915KVY8X6BNRIWYOFFTN","","367.7000000476837","img/food3.png","75","368.10000014305115","2","1","","2","1","1,0.5,0,1,0.5,0,0.5,0,1","0,1,0.5,0,1,0.5,1,0.5,0","3",""
"","html-keyboard-response","355","221315","0.0-445.0","3JWH6J9I9TZFJACSX135KLH72JWNBI","A3L2VS3998R77L","3Z3R5YC0P3915KVY8X6BNRIWYOFFTN","","null","<img src=""img/food3.png"" style=""width:200px; border:14px solid green;"">","null","","","","","","","","","",""
"","image-keyboard-response","356","221995","0.0-446.0","3JWH6J9I9TZFJACSX135KLH72JWNBI","A3L2VS3998R77L","3Z3R5YC0P3915KVY8X6BNRIWYOFFTN","","679.1999998092651","img/food5.png","74","679.8000001907349","1","0","","1","1","1,0.5,0,1,0.5,0,0.5,0,1","0,1,0.5,0,1,0.5,1,0.5,0","3",""
"","html-keyboard-response","357","222296","0.0-447.0","3JWH6J9I9TZFJACSX135KLH72JWNBI","A3L2VS3998R77L","3Z3R5YC0P3915KVY8X6BNRIWYOFFTN","","null","<img src=""img/food5.png"" style=""width:200px;border:14px solid red;"">","null","","","","","","","","","",""
"","image-keyboard-response","358","222824","0.0-448.0","3JWH6J9I9TZFJACSX135KLH72JWNBI","A3L2VS3998R77L","3Z3R5YC0P3915KVY8X6BNRIWYOFFTN","","527.0999999046326","img/food3.png","75","527.7000000476837","2","1","","2","1","1,0.5,0,1,0.5,0,0.5,0,1","0,1,0.5,0,1,0.5,1,0.5,0","3",""
"","html-keyboard-response","359","223125","0.0-449.0","3JWH6J9I9TZFJACSX135KLH72JWNBI","A3L2VS3998R77L","3Z3R5YC0P3915KVY8X6BNRIWYOFFTN","","null","<img src=""img/food3.png"" style=""width:200px; border:14px solid green;"">","null","","","","","","","","","",""
"","image-keyboard-response","360","223544","0.0-450.0","3JWH6J9I9TZFJACSX135KLH72JWNBI","A3L2VS3998R77L","3Z3R5YC0P3915KVY8X6BNRIWYOFFTN","","417.7999999523163","img/food3.png","75","418.2000000476837","2","1","","2","1","1,0.5,0,1,0.5,0,0.5,0,1","0,1,0.5,0,1,0.5,1,0.5,0","3",""
"","html-keyboard-response","361","223846","0.0-451.0","3JWH6J9I9TZFJACSX135KLH72JWNBI","A3L2VS3998R77L","3Z3R5YC0P3915KVY8X6BNRIWYOFFTN","","null","<img src=""img/food3.png"" style=""width:200px; border:14px solid green;"">","null","","","","","","","","","",""
"","image-keyboard-response","362","224338","0.0-452.0","3JWH6J9I9TZFJACSX135KLH72JWNBI","A3L2VS3998R77L","3Z3R5YC0P3915KVY8X6BNRIWYOFFTN","","491.40000009536743","img/food3.png","75","492","2","1","","2","1","1,0.5,0,1,0.5,0,0.5,0,1","0,1,0.5,0,1,0.5,1,0.5,0","3",""
"","html-keyboard-response","363","224639","0.0-453.0","3JWH6J9I9TZFJACSX135KLH72JWNBI","A3L2VS3998R77L","3Z3R5YC0P3915KVY8X6BNRIWYOFFTN","","null","<img src=""img/food3.png"" style=""width:200px; border:14px solid green;"">","null","","","","","","","","","",""
"","html-keyboard-response","364","236454","0.0-454.0","3JWH6J9I9TZFJACSX135KLH72JWNBI","A3L2VS3998R77L","3Z3R5YC0P3915KVY8X6BNRIWYOFFTN","","","","","","","","","","","","","",""
"","instructions","365","245930","0.0-455.0","3JWH6J9I9TZFJACSX135KLH72JWNBI","A3L2VS3998R77L","3Z3R5YC0P3915KVY8X6BNRIWYOFFTN","[{""page_index"":0,""viewing_time"":9475.699999809265}]","9475.799999952316","","","","","","","","","","","",""
"","survey-text","366","251791","0.0-456.0","3JWH6J9I9TZFJACSX135KLH72JWNBI","A3L2VS3998R77L","3Z3R5YC0P3915KVY8X6BNRIWYOFFTN","","5858.399999856949","","","","","","","","","","","","{""Q0"":""A3L2VS3998R77L""}"
