"success","trial_type","trial_index","time_elapsed","internal_node_id","assignmentID","mturkID","hitID","view_history","rt","stimulus","key_press","reactionTime","a","r","warning","s","cond","reward_cond","reward_cond_actual","reward_matrix_idx","responses"
"true","fullscreen","0","12741","0.0-0.0","3RYC5T2D74F2225U9D2NOPR6KR9PRG","A3LIRS1WMRIP9P","36U4VBVNQOZD8NFWZXWF9CIHKRIURB","","","","","","","","","","","","","",""
"","instructions","1","21981","0.0-1.0","3RYC5T2D74F2225U9D2NOPR6KR9PRG","A3LIRS1WMRIP9P","36U4VBVNQOZD8NFWZXWF9CIHKRIURB","[{""page_index"":0,""viewing_time"":1267},{""page_index"":1,""viewing_time"":1080},{""page_index"":2,""viewing_time"":1193},{""page_index"":3,""viewing_time"":1487},{""page_index"":4,""viewing_time"":1420},{""page_index"":5,""viewing_time"":1121},{""page_index"":6,""viewing_time"":1670}]","9238","","","","","","","","","","","",""
"","instructions","2","24422","0.0-2.0","3RYC5T2D74F2225U9D2NOPR6KR9PRG","A3LIRS1WMRIP9P","36U4VBVNQOZD8NFWZXWF9CIHKRIURB","[{""page_index"":0,""viewing_time"":1108},{""page_index"":1,""viewing_time"":1331}]","2439","","","","","","","","","","","",""
"","image-keyboard-response","3","25424","0.0-3.0","3RYC5T2D74F2225U9D2NOPR6KR9PRG","A3LIRS1WMRIP9P","36U4VBVNQOZD8NFWZXWF9CIHKRIURB","","","img/food2.png","","1002","-1","0","true","2","2","1,0.5,0,1,0.5,0,0.5,0,1","0,1,0.5,0,1,0.5,1,0.5,0","3",""
"","html-keyboard-response","4","25729","0.0-4.0","3RYC5T2D74F2225U9D2NOPR6KR9PRG","A3LIRS1WMRIP9P","36U4VBVNQOZD8NFWZXWF9CIHKRIURB","","null","<img src=""img/food2.png"" style=""width:200px;border:14px solid red;"">","null","","","","","","","","","",""
"","html-keyboard-response","5","28169","0.0-5.0-0.0","3RYC5T2D74F2225U9D2NOPR6KR9PRG","A3LIRS1WMRIP9P","36U4VBVNQOZD8NFWZXWF9CIHKRIURB","","","","","","","","","","","","","",""
"","image-keyboard-response","6","29051","0.0-6.0","3RYC5T2D74F2225U9D2NOPR6KR9PRG","A3LIRS1WMRIP9P","36U4VBVNQOZD8NFWZXWF9CIHKRIURB","","880","img/food4.png","74","882","1","0","false","1","2","1,0.5,0,1,0.5,0,0.5,0,1","0,1,0.5,0,1,0.5,1,0.5,0","3",""
"","html-keyboard-response","7","29353","0.0-7.0","3RYC5T2D74F2225U9D2NOPR6KR9PRG","A3LIRS1WMRIP9P","36U4VBVNQOZD8NFWZXWF9CIHKRIURB","","null","<img src=""img/food4.png"" style=""width:200px;border:14px solid red;"">","null","","","","","","","","","",""
"","image-keyboard-response","8","29411","0.0-9.0","3RYC5T2D74F2225U9D2NOPR6KR9PRG","A3LIRS1WMRIP9P","36U4VBVNQOZD8NFWZXWF9CIHKRIURB","","57","img/food2.png","74","58","1","0","false","2","2","1,0.5,0,1,0.5,0,0.5,0,1","0,1,0.5,0,1,0.5,1,0.5,0","3",""
"","html-keyboard-response","9","29713","0.0-10.0","3RYC5T2D74F2225U9D2NOPR6KR9PRG","A3LIRS1WMRIP9P","36U4VBVNQOZD8NFWZXWF9CIHKRIURB","","null","<img src=""img/food2.png"" style=""width:200px;border:14px solid red;"">","null","","","","","","","","","",""
"","image-keyboard-response","10","29725","0.0-12.0","3RYC5T2D74F2225U9D2NOPR6KR9PRG","A3LIRS1WMRIP9P","36U4VBVNQOZD8NFWZXWF9CIHKRIURB","","11","img/food4.png","76","12","3","0","false","1","2","1,0.5,0,1,0.5,0,0.5,0,1","0,1,0.5,0,1,0.5,1,0.5,0","3",""
"","html-keyboard-response","11","30027","0.0-13.0","3RYC5T2D74F2225U9D2NOPR6KR9PRG","A3LIRS1WMRIP9P","36U4VBVNQOZD8NFWZXWF9CIHKRIURB","","null","<img src=""img/food4.png"" style=""width:200px;border:14px solid red;"">","null","","","","","","","","","",""
"","image-keyboard-response","12","30110","0.0-15.0","3RYC5T2D74F2225U9D2NOPR6KR9PRG","A3LIRS1WMRIP9P","36U4VBVNQOZD8NFWZXWF9CIHKRIURB","","82","img/food2.png","74","83","1","0","false","2","2","1,0.5,0,1,0.5,0,0.5,0,1","0,1,0.5,0,1,0.5,1,0.5,0","3",""
"","html-keyboard-response","13","30411","0.0-16.0","3RYC5T2D74F2225U9D2NOPR6KR9PRG","A3LIRS1WMRIP9P","36U4VBVNQOZD8NFWZXWF9CIHKRIURB","","null","<img src=""img/food2.png"" style=""width:200px;border:14px solid red;"">","null","","","","","","","","","",""
"","image-keyboard-response","14","30581","0.0-18.0","3RYC5T2D74F2225U9D2NOPR6KR9PRG","A3LIRS1WMRIP9P","36U4VBVNQOZD8NFWZXWF9CIHKRIURB","","169","img/food2.png","74","169","1","0","false","2","2","1,0.5,0,1,0.5,0,0.5,0,1","0,1,0.5,0,1,0.5,1,0.5,0","3",""
"","html-keyboard-response","15","30882","0.0-19.0","3RYC5T2D74F2225U9D2NOPR6KR9PRG","A3LIRS1WMRIP9P","36U4VBVNQOZD8NFWZXWF9CIHKRIURB","","null","<img src=""img/food2.png"" style=""width:200px;border:14px solid red;"">","null","","","","","","","","","",""
"","image-keyboard-response","16","31066","0.0-21.0","3RYC5T2D74F2225U9D2NOPR6KR9PRG","A3LIRS1WMRIP9P","36U4VBVNQOZD8NFWZXWF9CIHKRIURB","","183","img/food4.png","74","184","1","0","false","1","2","1,0.5,0,1,0.5,0,0.5,0,1","0,1,0.5,0,1,0.5,1,0.5,0","3",""
"","html-keyboard-response","17","31368","0.0-22.0","3RYC5T2D74F2225U9D2NOPR6KR9PRG","A3LIRS1WMRIP9P","36U4VBVNQOZD8NFWZXWF9CIHKRIURB","","null","<img src=""img/food4.png"" style=""width:200px;border:14px solid red;"">","null","","","","","","","","","",""
"","image-keyboard-response","18","31405","0.0-24.0","3RYC5T2D74F2225U9D2NOPR6KR9PRG","A3LIRS1WMRIP9P","36U4VBVNQOZD8NFWZXWF9CIHKRIURB","","36","img/food3.png","76","36","3","0","false","3","2","1,0.5,0,1,0.5,0,0.5,0,1","0,1,0.5,0,1,0.5,1,0.5,0","3",""
"","html-keyboard-response","19","31706","0.0-25.0","3RYC5T2D74F2225U9D2NOPR6KR9PRG","A3LIRS1WMRIP9P","36U4VBVNQOZD8NFWZXWF9CIHKRIURB","","null","<img src=""img/food3.png"" style=""width:200px;border:14px solid red;"">","null","","","","","","","","","",""
"","image-keyboard-response","20","31779","0.0-27.0","3RYC5T2D74F2225U9D2NOPR6KR9PRG","A3LIRS1WMRIP9P","36U4VBVNQOZD8NFWZXWF9CIHKRIURB","","72","img/food3.png","74","73","1","1","false","3","2","1,0.5,0,1,0.5,0,0.5,0,1","0,1,0.5,0,1,0.5,1,0.5,0","3",""
"","html-keyboard-response","21","32080","0.0-28.0","3RYC5T2D74F2225U9D2NOPR6KR9PRG","A3LIRS1WMRIP9P","36U4VBVNQOZD8NFWZXWF9CIHKRIURB","","null","<img src=""img/food3.png"" style=""width:200px; border:14px solid green;"">","null","","","","","","","","","",""
"","image-keyboard-response","22","32092","0.0-30.0","3RYC5T2D74F2225U9D2NOPR6KR9PRG","A3LIRS1WMRIP9P","36U4VBVNQOZD8NFWZXWF9CIHKRIURB","","11","img/food4.png","76","11","3","1","false","1","2","1,0.5,0,1,0.5,0,0.5,0,1","0,1,0.5,0,1,0.5,1,0.5,0","3",""
"","html-keyboard-response","23","32394","0.0-31.0","3RYC5T2D74F2225U9D2NOPR6KR9PRG","A3LIRS1WMRIP9P","36U4VBVNQOZD8NFWZXWF9CIHKRIURB","","null","<img src=""img/food4.png"" style=""width:200px; border:14px solid green;"">","null","","","","","","","","","",""
"","image-keyboard-response","24","32461","0.0-33.0","3RYC5T2D74F2225U9D2NOPR6KR9PRG","A3LIRS1WMRIP9P","36U4VBVNQOZD8NFWZXWF9CIHKRIURB","","65","img/food4.png","74","66","1","0","false","1","2","1,0.5,0,1,0.5,0,0.5,0,1","0,1,0.5,0,1,0.5,1,0.5,0","3",""
"","html-keyboard-response","25","32761","0.0-34.0","3RYC5T2D74F2225U9D2NOPR6KR9PRG","A3LIRS1WMRIP9P","36U4VBVNQOZD8NFWZXWF9CIHKRIURB","","null","<img src=""img/food4.png"" style=""width:200px;border:14px solid red;"">","null","","","","","","","","","",""
"","image-keyboard-response","26","32781","0.0-36.0","3RYC5T2D74F2225U9D2NOPR6KR9PRG","A3LIRS1WMRIP9P","36U4VBVNQOZD8NFWZXWF9CIHKRIURB","","19","img/food3.png","75","20","2","1","false","3","2","1,0.5,0,1,0.5,0,0.5,0,1","0,1,0.5,0,1,0.5,1,0.5,0","3",""
"","html-keyboard-response","27","33083","0.0-37.0","3RYC5T2D74F2225U9D2NOPR6KR9PRG","A3LIRS1WMRIP9P","36U4VBVNQOZD8NFWZXWF9CIHKRIURB","","null","<img src=""img/food3.png"" style=""width:200px; border:14px solid green;"">","null","","","","","","","","","",""
"","image-keyboard-response","28","33191","0.0-39.0","3RYC5T2D74F2225U9D2NOPR6KR9PRG","A3LIRS1WMRIP9P","36U4VBVNQOZD8NFWZXWF9CIHKRIURB","","106","img/food4.png","74","108","1","0","false","1","2","1,0.5,0,1,0.5,0,0.5,0,1","0,1,0.5,0,1,0.5,1,0.5,0","3",""
"","html-keyboard-response","29","33491","0.0-40.0","3RYC5T2D74F2225U9D2NOPR6KR9PRG","A3LIRS1WMRIP9P","36U4VBVNQOZD8NFWZXWF9CIHKRIURB","","null","<img src=""img/food4.png"" style=""width:200px;border:14px solid red;"">","null","","","","","","","","","",""
"","image-keyboard-response","30","33505","0.0-42.0","3RYC5T2D74F2225U9D2NOPR6KR9PRG","A3LIRS1WMRIP9P","36U4VBVNQOZD8NFWZXWF9CIHKRIURB","","13","img/food4.png","76","13","3","1","false","1","2","1,0.5,0,1,0.5,0,0.5,0,1","0,1,0.5,0,1,0.5,1,0.5,0","3",""
"","html-keyboard-response","31","33807","0.0-43.0","3RYC5T2D74F2225U9D2NOPR6KR9PRG","A3LIRS1WMRIP9P","36U4VBVNQOZD8NFWZXWF9CIHKRIURB","","null","<img src=""img/food4.png"" style=""width:200px; border:14px solid green;"">","null","","","","","","","","","",""
"","image-keyboard-response","32","33902","0.0-45.0","3RYC5T2D74F2225U9D2NOPR6KR9PRG","A3LIRS1WMRIP9P","36U4VBVNQOZD8NFWZXWF9CIHKRIURB","","94","img/food3.png","74","94","1","1","false","3","2","1,0.5,0,1,0.5,0,0.5,0,1","0,1,0.5,0,1,0.5,1,0.5,0","3",""
"","html-keyboard-response","33","34203","0.0-46.0","3RYC5T2D74F2225U9D2NOPR6KR9PRG","A3LIRS1WMRIP9P","36U4VBVNQOZD8NFWZXWF9CIHKRIURB","","null","<img src=""img/food3.png"" style=""width:200px; border:14px solid green;"">","null","","","","","","","","","",""
"","image-keyboard-response","34","34331","0.0-48.0","3RYC5T2D74F2225U9D2NOPR6KR9PRG","A3LIRS1WMRIP9P","36U4VBVNQOZD8NFWZXWF9CIHKRIURB","","126","img/food3.png","74","127","1","1","false","3","2","1,0.5,0,1,0.5,0,0.5,0,1","0,1,0.5,0,1,0.5,1,0.5,0","3",""
"","html-keyboard-response","35","34633","0.0-49.0","3RYC5T2D74F2225U9D2NOPR6KR9PRG","A3LIRS1WMRIP9P","36U4VBVNQOZD8NFWZXWF9CIHKRIURB","","null","<img src=""img/food3.png"" style=""width:200px; border:14px solid green;"">","null","","","","","","","","","",""
"","image-keyboard-response","36","34751","0.0-51.0","3RYC5T2D74F2225U9D2NOPR6KR9PRG","A3LIRS1WMRIP9P","36U4VBVNQOZD8NFWZXWF9CIHKRIURB","","116","img/food4.png","74","117","1","0","false","1","2","1,0.5,0,1,0.5,0,0.5,0,1","0,1,0.5,0,1,0.5,1,0.5,0","3",""
"","html-keyboard-response","37","35051","0.0-52.0","3RYC5T2D74F2225U9D2NOPR6KR9PRG","A3LIRS1WMRIP9P","36U4VBVNQOZD8NFWZXWF9CIHKRIURB","","null","<img src=""img/food4.png"" style=""width:200px;border:14px solid red;"">","null","","","","","","","","","",""
"","image-keyboard-response","38","35211","0.0-54.0","3RYC5T2D74F2225U9D2NOPR6KR9PRG","A3LIRS1WMRIP9P","36U4VBVNQOZD8NFWZXWF9CIHKRIURB","","159","img/food3.png","74","159","1","1","false","3","2","1,0.5,0,1,0.5,0,0.5,0,1","0,1,0.5,0,1,0.5,1,0.5,0","3",""
"","html-keyboard-response","39","35515","0.0-55.0","3RYC5T2D74F2225U9D2NOPR6KR9PRG","A3LIRS1WMRIP9P","36U4VBVNQOZD8NFWZXWF9CIHKRIURB","","null","<img src=""img/food3.png"" style=""width:200px; border:14px solid green;"">","null","","","","","","","","","",""
"","image-keyboard-response","40","35601","0.0-57.0","3RYC5T2D74F2225U9D2NOPR6KR9PRG","A3LIRS1WMRIP9P","36U4VBVNQOZD8NFWZXWF9CIHKRIURB","","83","img/food2.png","74","85","1","0","false","2","2","1,0.5,0,1,0.5,0,0.5,0,1","0,1,0.5,0,1,0.5,1,0.5,0","3",""
"","html-keyboard-response","41","35903","0.0-58.0","3RYC5T2D74F2225U9D2NOPR6KR9PRG","A3LIRS1WMRIP9P","36U4VBVNQOZD8NFWZXWF9CIHKRIURB","","null","<img src=""img/food2.png"" style=""width:200px;border:14px solid red;"">","null","","","","","","","","","",""
"","image-keyboard-response","42","35999","0.0-60.0","3RYC5T2D74F2225U9D2NOPR6KR9PRG","A3LIRS1WMRIP9P","36U4VBVNQOZD8NFWZXWF9CIHKRIURB","","94","img/food4.png","74","95","1","0","false","1","2","1,0.5,0,1,0.5,0,0.5,0,1","0,1,0.5,0,1,0.5,1,0.5,0","3",""
"","html-keyboard-response","43","36301","0.0-61.0","3RYC5T2D74F2225U9D2NOPR6KR9PRG","A3LIRS1WMRIP9P","36U4VBVNQOZD8NFWZXWF9CIHKRIURB","","null","<img src=""img/food4.png"" style=""width:200px;border:14px solid red;"">","null","","","","","","","","","",""
"","image-keyboard-response","44","36393","0.0-63.0","3RYC5T2D74F2225U9D2NOPR6KR9PRG","A3LIRS1WMRIP9P","36U4VBVNQOZD8NFWZXWF9CIHKRIURB","","90","img/food2.png","74","91","1","0","false","2","2","1,0.5,0,1,0.5,0,0.5,0,1","0,1,0.5,0,1,0.5,1,0.5,0","3",""
"","html-keyboard-response","45","36695","0.0-64.0","3RYC5T2D74F2225U9D2NOPR6KR9PRG","A3LIRS1WMRIP9P","36U4VBVNQOZD8NFWZXWF9CIHKRIURB","","null","<img src=""img/food2.png"" style=""width:200px;border:14px solid red;"">","null","","","","","","","","","",""
"","image-keyboard-response","46","36703","0.0-66.0","3RYC5T2D74F2225U9D2NOPR6KR9PRG","A3LIRS1WMRIP9P","36U4VBVNQOZD8NFWZXWF9CIHKRIURB","","7","img/food3.png","74","8","1","1","false","3","2","1,0.5,0,1,0.5,0,0.5,0,1","0,1,0.5,0,1,0.5,1,0.5,0","3",""
"","html-keyboard-response","47","37005","0.0-67.0","3RYC5T2D74F2225U9D2NOPR6KR9PRG","A3LIRS1WMRIP9P","36U4VBVNQOZD8NFWZXWF9CIHKRIURB","","null","<img src=""img/food3.png"" style=""width:200px; border:14px solid green;"">","null","","","","","","","","","",""
"","image-keyboard-response","48","37110","0.0-69.0","3RYC5T2D74F2225U9D2NOPR6KR9PRG","A3LIRS1WMRIP9P","36U4VBVNQOZD8NFWZXWF9CIHKRIURB","","103","img/food3.png","76","104","3","0","false","3","2","1,0.5,0,1,0.5,0,0.5,0,1","0,1,0.5,0,1,0.5,1,0.5,0","3",""
"","html-keyboard-response","49","37412","0.0-70.0","3RYC5T2D74F2225U9D2NOPR6KR9PRG","A3LIRS1WMRIP9P","36U4VBVNQOZD8NFWZXWF9CIHKRIURB","","null","<img src=""img/food3.png"" style=""width:200px;border:14px solid red;"">","null","","","","","","","","","",""
"","image-keyboard-response","50","37461","0.0-72.0","3RYC5T2D74F2225U9D2NOPR6KR9PRG","A3LIRS1WMRIP9P","36U4VBVNQOZD8NFWZXWF9CIHKRIURB","","48","img/food2.png","76","49","3","0","false","2","2","1,0.5,0,1,0.5,0,0.5,0,1","0,1,0.5,0,1,0.5,1,0.5,0","3",""
"","html-keyboard-response","51","37762","0.0-73.0","3RYC5T2D74F2225U9D2NOPR6KR9PRG","A3LIRS1WMRIP9P","36U4VBVNQOZD8NFWZXWF9CIHKRIURB","","null","<img src=""img/food2.png"" style=""width:200px;border:14px solid red;"">","null","","","","","","","","","",""
"","image-keyboard-response","52","37920","0.0-75.0","3RYC5T2D74F2225U9D2NOPR6KR9PRG","A3LIRS1WMRIP9P","36U4VBVNQOZD8NFWZXWF9CIHKRIURB","","158","img/food4.png","76","158","3","1","false","1","2","1,0.5,0,1,0.5,0,0.5,0,1","0,1,0.5,0,1,0.5,1,0.5,0","3",""
"","html-keyboard-response","53","38221","0.0-76.0","3RYC5T2D74F2225U9D2NOPR6KR9PRG","A3LIRS1WMRIP9P","36U4VBVNQOZD8NFWZXWF9CIHKRIURB","","null","<img src=""img/food4.png"" style=""width:200px; border:14px solid green;"">","null","","","","","","","","","",""
"","image-keyboard-response","54","38280","0.0-78.0","3RYC5T2D74F2225U9D2NOPR6KR9PRG","A3LIRS1WMRIP9P","36U4VBVNQOZD8NFWZXWF9CIHKRIURB","","58","img/food2.png","74","59","1","0","false","2","2","1,0.5,0,1,0.5,0,0.5,0,1","0,1,0.5,0,1,0.5,1,0.5,0","3",""
"","html-keyboard-response","55","38582","0.0-79.0","3RYC5T2D74F2225U9D2NOPR6KR9PRG","A3LIRS1WMRIP9P","36U4VBVNQOZD8NFWZXWF9CIHKRIURB","","null","<img src=""img/food2.png"" style=""width:200px;border:14px solid red;"">","null","","","","","","","","","",""
"","image-keyboard-response","56","38761","0.0-81.0","3RYC5T2D74F2225U9D2NOPR6KR9PRG","A3LIRS1WMRIP9P","36U4VBVNQOZD8NFWZXWF9CIHKRIURB","","177","img/food4.png","76","179","3","1","false","1","2","1,0.5,0,1,0.5,0,0.5,0,1","0,1,0.5,0,1,0.5,1,0.5,0","3",""
"","html-keyboard-response","57","39063","0.0-82.0","3RYC5T2D74F2225U9D2NOPR6KR9PRG","A3LIRS1WMRIP9P","36U4VBVNQOZD8NFWZXWF9CIHKRIURB","","null","<img src=""img/food4.png"" style=""width:200px; border:14px solid green;"">","null","","","","","","","","","",""
"","image-keyboard-response","58","39124","0.0-84.0","3RYC5T2D74F2225U9D2NOPR6KR9PRG","A3LIRS1WMRIP9P","36U4VBVNQOZD8NFWZXWF9CIHKRIURB","","58","img/food4.png","74","61","1","0","false","1","2","1,0.5,0,1,0.5,0,0.5,0,1","0,1,0.5,0,1,0.5,1,0.5,0","3",""
"","html-keyboard-response","59","39424","0.0-85.0","3RYC5T2D74F2225U9D2NOPR6KR9PRG","A3LIRS1WMRIP9P","36U4VBVNQOZD8NFWZXWF9CIHKRIURB","","null","<img src=""img/food4.png"" style=""width:200px;border:14px solid red;"">","null","","","","","","","","","",""
"","image-keyboard-response","60","39437","0.0-87.0","3RYC5T2D74F2225U9D2NOPR6KR9PRG","A3LIRS1WMRIP9P","36U4VBVNQOZD8NFWZXWF9CIHKRIURB","","11","img/food3.png","76","13","3","0","false","3","2","1,0.5,0,1,0.5,0,0.5,0,1","0,1,0.5,0,1,0.5,1,0.5,0","3",""
"","html-keyboard-response","61","39739","0.0-88.0","3RYC5T2D74F2225U9D2NOPR6KR9PRG","A3LIRS1WMRIP9P","36U4VBVNQOZD8NFWZXWF9CIHKRIURB","","null","<img src=""img/food3.png"" style=""width:200px;border:14px solid red;"">","null","","","","","","","","","",""
"","image-keyboard-response","62","39752","0.0-90.0","3RYC5T2D74F2225U9D2NOPR6KR9PRG","A3LIRS1WMRIP9P","36U4VBVNQOZD8NFWZXWF9CIHKRIURB","","13","img/food3.png","74","13","1","1","false","3","2","1,0.5,0,1,0.5,0,0.5,0,1","0,1,0.5,0,1,0.5,1,0.5,0","3",""
"","html-keyboard-response","63","40054","0.0-91.0","3RYC5T2D74F2225U9D2NOPR6KR9PRG","A3LIRS1WMRIP9P","36U4VBVNQOZD8NFWZXWF9CIHKRIURB","","null","<img src=""img/food3.png"" style=""width:200px; border:14px solid green;"">","null","","","","","","","","","",""
"","image-keyboard-response","64","40070","0.0-93.0","3RYC5T2D74F2225U9D2NOPR6KR9PRG","A3LIRS1WMRIP9P","36U4VBVNQOZD8NFWZXWF9CIHKRIURB","","15","img/food3.png","76","17","3","0","false","3","2","1,0.5,0,1,0.5,0,0.5,0,1","0,1,0.5,0,1,0.5,1,0.5,0","3",""
"","html-keyboard-response","65","40371","0.0-94.0","3RYC5T2D74F2225U9D2NOPR6KR9PRG","A3LIRS1WMRIP9P","36U4VBVNQOZD8NFWZXWF9CIHKRIURB","","null","<img src=""img/food3.png"" style=""width:200px;border:14px solid red;"">","null","","","","","","","","","",""
"","image-keyboard-response","66","40470","0.0-96.0","3RYC5T2D74F2225U9D2NOPR6KR9PRG","A3LIRS1WMRIP9P","36U4VBVNQOZD8NFWZXWF9CIHKRIURB","","98","img/food4.png","74","99","1","0","false","1","2","1,0.5,0,1,0.5,0,0.5,0,1","0,1,0.5,0,1,0.5,1,0.5,0","3",""
"","html-keyboard-response","67","40771","0.0-97.0","3RYC5T2D74F2225U9D2NOPR6KR9PRG","A3LIRS1WMRIP9P","36U4VBVNQOZD8NFWZXWF9CIHKRIURB","","null","<img src=""img/food4.png"" style=""width:200px;border:14px solid red;"">","null","","","","","","","","","",""
"","image-keyboard-response","68","40932","0.0-99.0","3RYC5T2D74F2225U9D2NOPR6KR9PRG","A3LIRS1WMRIP9P","36U4VBVNQOZD8NFWZXWF9CIHKRIURB","","160","img/food2.png","74","161","1","0","false","2","2","1,0.5,0,1,0.5,0,0.5,0,1","0,1,0.5,0,1,0.5,1,0.5,0","3",""
"","html-keyboard-response","69","41233","0.0-100.0","3RYC5T2D74F2225U9D2NOPR6KR9PRG","A3LIRS1WMRIP9P","36U4VBVNQOZD8NFWZXWF9CIHKRIURB","","null","<img src=""img/food2.png"" style=""width:200px;border:14px solid red;"">","null","","","","","","","","","",""
"","image-keyboard-response","70","41271","0.0-102.0","3RYC5T2D74F2225U9D2NOPR6KR9PRG","A3LIRS1WMRIP9P","36U4VBVNQOZD8NFWZXWF9CIHKRIURB","","37","img/food4.png","76","38","3","0","false","1","2","1,0.5,0,1,0.5,0,0.5,0,1","0,1,0.5,0,1,0.5,1,0.5,0","3",""
"","html-keyboard-response","71","41572","0.0-103.0","3RYC5T2D74F2225U9D2NOPR6KR9PRG","A3LIRS1WMRIP9P","36U4VBVNQOZD8NFWZXWF9CIHKRIURB","","null","<img src=""img/food4.png"" style=""width:200px;border:14px solid red;"">","null","","","","","","","","","",""
"","image-keyboard-response","72","41737","0.0-105.0","3RYC5T2D74F2225U9D2NOPR6KR9PRG","A3LIRS1WMRIP9P","36U4VBVNQOZD8NFWZXWF9CIHKRIURB","","164","img/food4.png","74","165","1","0","false","1","2","1,0.5,0,1,0.5,0,0.5,0,1","0,1,0.5,0,1,0.5,1,0.5,0","3",""
"","html-keyboard-response","73","42039","0.0-106.0","3RYC5T2D74F2225U9D2NOPR6KR9PRG","A3LIRS1WMRIP9P","36U4VBVNQOZD8NFWZXWF9CIHKRIURB","","null","<img src=""img/food4.png"" style=""width:200px;border:14px solid red;"">","null","","","","","","","","","",""
"","image-keyboard-response","74","42221","0.0-108.0","3RYC5T2D74F2225U9D2NOPR6KR9PRG","A3LIRS1WMRIP9P","36U4VBVNQOZD8NFWZXWF9CIHKRIURB","","180","img/food2.png","76","182","3","0","false","2","2","1,0.5,0,1,0.5,0,0.5,0,1","0,1,0.5,0,1,0.5,1,0.5,0","3",""
"","html-keyboard-response","75","42521","0.0-109.0","3RYC5T2D74F2225U9D2NOPR6KR9PRG","A3LIRS1WMRIP9P","36U4VBVNQOZD8NFWZXWF9CIHKRIURB","","null","<img src=""img/food2.png"" style=""width:200px;border:14px solid red;"">","null","","","","","","","","","",""
"","image-keyboard-response","76","42611","0.0-111.0","3RYC5T2D74F2225U9D2NOPR6KR9PRG","A3LIRS1WMRIP9P","36U4VBVNQOZD8NFWZXWF9CIHKRIURB","","89","img/food2.png","74","90","1","0","false","2","2","1,0.5,0,1,0.5,0,0.5,0,1","0,1,0.5,0,1,0.5,1,0.5,0","3",""
"","html-keyboard-response","77","42912","0.0-112.0","3RYC5T2D74F2225U9D2NOPR6KR9PRG","A3LIRS1WMRIP9P","36U4VBVNQOZD8NFWZXWF9CIHKRIURB","","null","<img src=""img/food2.png"" style=""width:200px;border:14px solid red;"">","null","","","","","","","","","",""
"","image-keyboard-response","78","43071","0.0-114.0","3RYC5T2D74F2225U9D2NOPR6KR9PRG","A3LIRS1WMRIP9P","36U4VBVNQOZD8NFWZXWF9CIHKRIURB","","158","img/food4.png","74","159","1","0","false","1","2","1,0.5,0,1,0.5,0,0.5,0,1","0,1,0.5,0,1,0.5,1,0.5,0","3",""
"","html-keyboard-response","79","43378","0.0-115.0","3RYC5T2D74F2225U9D2NOPR6KR9PRG","A3LIRS1WMRIP9P","36U4VBVNQOZD8NFWZXWF9CIHKRIURB","","null","<img src=""img/food4.png"" style=""width:200px;border:14px solid red;"">","null","","","","","","","","","",""
"","image-keyboard-response","80","43394","0.0-117.0","3RYC5T2D74F2225U9D2NOPR6KR9PRG","A3LIRS1WMRIP9P","36U4VBVNQOZD8NFWZXWF9CIHKRIURB","","14","img/food3.png","76","16","3","0","false","3","2","1,0.5,0,1,0.5,0,0.5,0,1","0,1,0.5,0,1,0.5,1,0.5,0","3",""
"","html-keyboard-response","81","43696","0.0-118.0","3RYC5T2D74F2225U9D2NOPR6KR9PRG","A3LIRS1WMRIP9P","36U4VBVNQOZD8NFWZXWF9CIHKRIURB","","null","<img src=""img/food3.png"" style=""width:200px;border:14px solid red;"">","null","","","","","","","","","",""
"","image-keyboard-response","82","43760","0.0-120.0","3RYC5T2D74F2225U9D2NOPR6KR9PRG","A3LIRS1WMRIP9P","36U4VBVNQOZD8NFWZXWF9CIHKRIURB","","63","img/food2.png","74","63","1","0","false","2","2","1,0.5,0,1,0.5,0,0.5,0,1","0,1,0.5,0,1,0.5,1,0.5,0","3",""
"","html-keyboard-response","83","44062","0.0-121.0","3RYC5T2D74F2225U9D2NOPR6KR9PRG","A3LIRS1WMRIP9P","36U4VBVNQOZD8NFWZXWF9CIHKRIURB","","null","<img src=""img/food2.png"" style=""width:200px;border:14px solid red;"">","null","","","","","","","","","",""
"","image-keyboard-response","84","44278","0.0-123.0","3RYC5T2D74F2225U9D2NOPR6KR9PRG","A3LIRS1WMRIP9P","36U4VBVNQOZD8NFWZXWF9CIHKRIURB","","215","img/food3.png","76","215","3","0","false","3","2","1,0.5,0,1,0.5,0,0.5,0,1","0,1,0.5,0,1,0.5,1,0.5,0","3",""
"","html-keyboard-response","85","44579","0.0-124.0","3RYC5T2D74F2225U9D2NOPR6KR9PRG","A3LIRS1WMRIP9P","36U4VBVNQOZD8NFWZXWF9CIHKRIURB","","null","<img src=""img/food3.png"" style=""width:200px;border:14px solid red;"">","null","","","","","","","","","",""
"","image-keyboard-response","86","44660","0.0-126.0","3RYC5T2D74F2225U9D2NOPR6KR9PRG","A3LIRS1WMRIP9P","36U4VBVNQOZD8NFWZXWF9CIHKRIURB","","79","img/food3.png","74","79","1","1","false","3","2","1,0.5,0,1,0.5,0,0.5,0,1","0,1,0.5,0,1,0.5,1,0.5,0","3",""
"","html-keyboard-response","87","44962","0.0-127.0","3RYC5T2D74F2225U9D2NOPR6KR9PRG","A3LIRS1WMRIP9P","36U4VBVNQOZD8NFWZXWF9CIHKRIURB","","null","<img src=""img/food3.png"" style=""width:200px; border:14px solid green;"">","null","","","","","","","","","",""
"","image-keyboard-response","88","45101","0.0-129.0","3RYC5T2D74F2225U9D2NOPR6KR9PRG","A3LIRS1WMRIP9P","36U4VBVNQOZD8NFWZXWF9CIHKRIURB","","137","img/food3.png","74","139","1","1","false","3","2","1,0.5,0,1,0.5,0,0.5,0,1","0,1,0.5,0,1,0.5,1,0.5,0","3",""
"","html-keyboard-response","89","45401","0.0-130.0","3RYC5T2D74F2225U9D2NOPR6KR9PRG","A3LIRS1WMRIP9P","36U4VBVNQOZD8NFWZXWF9CIHKRIURB","","null","<img src=""img/food3.png"" style=""width:200px; border:14px solid green;"">","null","","","","","","","","","",""
"","image-keyboard-response","90","45629","0.0-132.0","3RYC5T2D74F2225U9D2NOPR6KR9PRG","A3LIRS1WMRIP9P","36U4VBVNQOZD8NFWZXWF9CIHKRIURB","","227","img/food3.png","74","228","1","1","false","3","2","1,0.5,0,1,0.5,0,0.5,0,1","0,1,0.5,0,1,0.5,1,0.5,0","3",""
"","html-keyboard-response","91","45931","0.0-133.0","3RYC5T2D74F2225U9D2NOPR6KR9PRG","A3LIRS1WMRIP9P","36U4VBVNQOZD8NFWZXWF9CIHKRIURB","","null","<img src=""img/food3.png"" style=""width:200px; border:14px solid green;"">","null","","","","","","","","","",""
"","image-keyboard-response","92","46070","0.0-135.0","3RYC5T2D74F2225U9D2NOPR6KR9PRG","A3LIRS1WMRIP9P","36U4VBVNQOZD8NFWZXWF9CIHKRIURB","","138","img/food4.png","74","139","1","0","false","1","2","1,0.5,0,1,0.5,0,0.5,0,1","0,1,0.5,0,1,0.5,1,0.5,0","3",""
"","html-keyboard-response","93","46372","0.0-136.0","3RYC5T2D74F2225U9D2NOPR6KR9PRG","A3LIRS1WMRIP9P","36U4VBVNQOZD8NFWZXWF9CIHKRIURB","","null","<img src=""img/food4.png"" style=""width:200px;border:14px solid red;"">","null","","","","","","","","","",""
"","image-keyboard-response","94","46391","0.0-138.0","3RYC5T2D74F2225U9D2NOPR6KR9PRG","A3LIRS1WMRIP9P","36U4VBVNQOZD8NFWZXWF9CIHKRIURB","","18","img/food2.png","76","18","3","0","false","2","2","1,0.5,0,1,0.5,0,0.5,0,1","0,1,0.5,0,1,0.5,1,0.5,0","3",""
"","html-keyboard-response","95","46697","0.0-139.0","3RYC5T2D74F2225U9D2NOPR6KR9PRG","A3LIRS1WMRIP9P","36U4VBVNQOZD8NFWZXWF9CIHKRIURB","","null","<img src=""img/food2.png"" style=""width:200px;border:14px solid red;"">","null","","","","","","","","","",""
"","image-keyboard-response","96","46781","0.0-141.0","3RYC5T2D74F2225U9D2NOPR6KR9PRG","A3LIRS1WMRIP9P","36U4VBVNQOZD8NFWZXWF9CIHKRIURB","","84","img/food4.png","74","84","1","0","false","1","2","1,0.5,0,1,0.5,0,0.5,0,1","0,1,0.5,0,1,0.5,1,0.5,0","3",""
"","html-keyboard-response","97","47083","0.0-142.0","3RYC5T2D74F2225U9D2NOPR6KR9PRG","A3LIRS1WMRIP9P","36U4VBVNQOZD8NFWZXWF9CIHKRIURB","","null","<img src=""img/food4.png"" style=""width:200px;border:14px solid red;"">","null","","","","","","","","","",""
"","image-keyboard-response","98","47240","0.0-144.0","3RYC5T2D74F2225U9D2NOPR6KR9PRG","A3LIRS1WMRIP9P","36U4VBVNQOZD8NFWZXWF9CIHKRIURB","","156","img/food2.png","74","157","1","0","false","2","2","1,0.5,0,1,0.5,0,0.5,0,1","0,1,0.5,0,1,0.5,1,0.5,0","3",""
"","html-keyboard-response","99","47542","0.0-145.0","3RYC5T2D74F2225U9D2NOPR6KR9PRG","A3LIRS1WMRIP9P","36U4VBVNQOZD8NFWZXWF9CIHKRIURB","","null","<img src=""img/food2.png"" style=""width:200px;border:14px solid red;"">","null","","","","","","","","","",""
"","image-keyboard-response","100","47554","0.0-147.0","3RYC5T2D74F2225U9D2NOPR6KR9PRG","A3LIRS1WMRIP9P","36U4VBVNQOZD8NFWZXWF9CIHKRIURB","","11","img/food3.png","76","13","3","0","false","3","2","1,0.5,0,1,0.5,0,0.5,0,1","0,1,0.5,0,1,0.5,1,0.5,0","3",""
"","html-keyboard-response","101","47855","0.0-148.0","3RYC5T2D74F2225U9D2NOPR6KR9PRG","A3LIRS1WMRIP9P","36U4VBVNQOZD8NFWZXWF9CIHKRIURB","","null","<img src=""img/food3.png"" style=""width:200px;border:14px solid red;"">","null","","","","","","","","","",""
"","image-keyboard-response","102","48001","0.0-150.0","3RYC5T2D74F2225U9D2NOPR6KR9PRG","A3LIRS1WMRIP9P","36U4VBVNQOZD8NFWZXWF9CIHKRIURB","","145","img/food2.png","74","146","1","0","false","2","2","1,0.5,0,1,0.5,0,0.5,0,1","0,1,0.5,0,1,0.5,1,0.5,0","3",""
"","html-keyboard-response","103","48302","0.0-151.0","3RYC5T2D74F2225U9D2NOPR6KR9PRG","A3LIRS1WMRIP9P","36U4VBVNQOZD8NFWZXWF9CIHKRIURB","","null","<img src=""img/food2.png"" style=""width:200px;border:14px solid red;"">","null","","","","","","","","","",""
"","image-keyboard-response","104","48538","0.0-153.0","3RYC5T2D74F2225U9D2NOPR6KR9PRG","A3LIRS1WMRIP9P","36U4VBVNQOZD8NFWZXWF9CIHKRIURB","","235","img/food4.png","74","236","1","0","false","1","2","1,0.5,0,1,0.5,0,0.5,0,1","0,1,0.5,0,1,0.5,1,0.5,0","3",""
"","html-keyboard-response","105","48840","0.0-154.0","3RYC5T2D74F2225U9D2NOPR6KR9PRG","A3LIRS1WMRIP9P","36U4VBVNQOZD8NFWZXWF9CIHKRIURB","","null","<img src=""img/food4.png"" style=""width:200px;border:14px solid red;"">","null","","","","","","","","","",""
"","image-keyboard-response","106","48871","0.0-156.0","3RYC5T2D74F2225U9D2NOPR6KR9PRG","A3LIRS1WMRIP9P","36U4VBVNQOZD8NFWZXWF9CIHKRIURB","","29","img/food3.png","76","31","3","0","false","3","2","1,0.5,0,1,0.5,0,0.5,0,1","0,1,0.5,0,1,0.5,1,0.5,0","3",""
"","html-keyboard-response","107","49173","0.0-157.0","3RYC5T2D74F2225U9D2NOPR6KR9PRG","A3LIRS1WMRIP9P","36U4VBVNQOZD8NFWZXWF9CIHKRIURB","","null","<img src=""img/food3.png"" style=""width:200px;border:14px solid red;"">","null","","","","","","","","","",""
"","image-keyboard-response","108","49230","0.0-159.0","3RYC5T2D74F2225U9D2NOPR6KR9PRG","A3LIRS1WMRIP9P","36U4VBVNQOZD8NFWZXWF9CIHKRIURB","","57","img/food2.png","76","57","3","0","false","2","2","1,0.5,0,1,0.5,0,0.5,0,1","0,1,0.5,0,1,0.5,1,0.5,0","3",""
"","html-keyboard-response","109","49554","0.0-160.0","3RYC5T2D74F2225U9D2NOPR6KR9PRG","A3LIRS1WMRIP9P","36U4VBVNQOZD8NFWZXWF9CIHKRIURB","","null","<img src=""img/food2.png"" style=""width:200px;border:14px solid red;"">","null","","","","","","","","","",""
"","image-keyboard-response","110","49650","0.0-162.0","3RYC5T2D74F2225U9D2NOPR6KR9PRG","A3LIRS1WMRIP9P","36U4VBVNQOZD8NFWZXWF9CIHKRIURB","","94","img/food3.png","74","95","1","1","false","3","2","1,0.5,0,1,0.5,0,0.5,0,1","0,1,0.5,0,1,0.5,1,0.5,0","3",""
"","html-keyboard-response","111","49952","0.0-163.0","3RYC5T2D74F2225U9D2NOPR6KR9PRG","A3LIRS1WMRIP9P","36U4VBVNQOZD8NFWZXWF9CIHKRIURB","","null","<img src=""img/food3.png"" style=""width:200px; border:14px solid green;"">","null","","","","","","","","","",""
"","image-keyboard-response","112","50041","0.0-165.0","3RYC5T2D74F2225U9D2NOPR6KR9PRG","A3LIRS1WMRIP9P","36U4VBVNQOZD8NFWZXWF9CIHKRIURB","","88","img/food4.png","74","90","1","0","false","1","2","1,0.5,0,1,0.5,0,0.5,0,1","0,1,0.5,0,1,0.5,1,0.5,0","3",""
"","html-keyboard-response","113","50348","0.0-166.0","3RYC5T2D74F2225U9D2NOPR6KR9PRG","A3LIRS1WMRIP9P","36U4VBVNQOZD8NFWZXWF9CIHKRIURB","","null","<img src=""img/food4.png"" style=""width:200px;border:14px solid red;"">","null","","","","","","","","","",""
"","image-keyboard-response","114","50361","0.0-168.0","3RYC5T2D74F2225U9D2NOPR6KR9PRG","A3LIRS1WMRIP9P","36U4VBVNQOZD8NFWZXWF9CIHKRIURB","","11","img/food3.png","76","13","3","0","false","3","2","1,0.5,0,1,0.5,0,0.5,0,1","0,1,0.5,0,1,0.5,1,0.5,0","3",""
"","html-keyboard-response","115","50662","0.0-169.0","3RYC5T2D74F2225U9D2NOPR6KR9PRG","A3LIRS1WMRIP9P","36U4VBVNQOZD8NFWZXWF9CIHKRIURB","","null","<img src=""img/food3.png"" style=""width:200px;border:14px solid red;"">","null","","","","","","","","","",""
"","image-keyboard-response","116","50840","0.0-171.0","3RYC5T2D74F2225U9D2NOPR6KR9PRG","A3LIRS1WMRIP9P","36U4VBVNQOZD8NFWZXWF9CIHKRIURB","","177","img/food4.png","74","179","1","0","false","1","2","1,0.5,0,1,0.5,0,0.5,0,1","0,1,0.5,0,1,0.5,1,0.5,0","3",""
"","html-keyboard-response","117","51142","0.0-172.0","3RYC5T2D74F2225U9D2NOPR6KR9PRG","A3LIRS1WMRIP9P","36U4VBVNQOZD8NFWZXWF9CIHKRIURB","","null","<img src=""img/food4.png"" style=""width:200px;border:14px solid red;"">","null","","","","","","","","","",""
"","image-keyboard-response","118","51162","0.0-174.0","3RYC5T2D74F2225U9D2NOPR6KR9PRG","A3LIRS1WMRIP9P","36U4VBVNQOZD8NFWZXWF9CIHKRIURB","","19","img/food4.png","76","19","3","1","false","1","2","1,0.5,0,1,0.5,0,0.5,0,1","0,1,0.5,0,1,0.5,1,0.5,0","3",""
"","html-keyboard-response","119","51463","0.0-175.0","3RYC5T2D74F2225U9D2NOPR6KR9PRG","A3LIRS1WMRIP9P","36U4VBVNQOZD8NFWZXWF9CIHKRIURB","","null","<img src=""img/food4.png"" style=""width:200px; border:14px solid green;"">","null","","","","","","","","","",""
"","image-keyboard-response","120","51631","0.0-177.0","3RYC5T2D74F2225U9D2NOPR6KR9PRG","A3LIRS1WMRIP9P","36U4VBVNQOZD8NFWZXWF9CIHKRIURB","","165","img/food2.png","75","167","2","1","false","2","2","1,0.5,0,1,0.5,0,0.5,0,1","0,1,0.5,0,1,0.5,1,0.5,0","3",""
"","html-keyboard-response","121","51933","0.0-178.0","3RYC5T2D74F2225U9D2NOPR6KR9PRG","A3LIRS1WMRIP9P","36U4VBVNQOZD8NFWZXWF9CIHKRIURB","","null","<img src=""img/food2.png"" style=""width:200px; border:14px solid green;"">","null","","","","","","","","","",""
"","image-keyboard-response","122","52150","0.0-180.0","3RYC5T2D74F2225U9D2NOPR6KR9PRG","A3LIRS1WMRIP9P","36U4VBVNQOZD8NFWZXWF9CIHKRIURB","","216","img/food4.png","76","218","3","1","false","1","2","1,0.5,0,1,0.5,0,0.5,0,1","0,1,0.5,0,1,0.5,1,0.5,0","3",""
"","html-keyboard-response","123","52452","0.0-181.0","3RYC5T2D74F2225U9D2NOPR6KR9PRG","A3LIRS1WMRIP9P","36U4VBVNQOZD8NFWZXWF9CIHKRIURB","","null","<img src=""img/food4.png"" style=""width:200px; border:14px solid green;"">","null","","","","","","","","","",""
"","image-keyboard-response","124","52477","0.0-183.0","3RYC5T2D74F2225U9D2NOPR6KR9PRG","A3LIRS1WMRIP9P","36U4VBVNQOZD8NFWZXWF9CIHKRIURB","","24","img/food2.png","76","25","3","1","false","2","2","1,0.5,0,1,0.5,0,0.5,0,1","0,1,0.5,0,1,0.5,1,0.5,0","3",""
"","html-keyboard-response","125","52779","0.0-184.0","3RYC5T2D74F2225U9D2NOPR6KR9PRG","A3LIRS1WMRIP9P","36U4VBVNQOZD8NFWZXWF9CIHKRIURB","","null","<img src=""img/food2.png"" style=""width:200px; border:14px solid green;"">","null","","","","","","","","","",""
"","image-keyboard-response","126","52961","0.0-186.0","3RYC5T2D74F2225U9D2NOPR6KR9PRG","A3LIRS1WMRIP9P","36U4VBVNQOZD8NFWZXWF9CIHKRIURB","","181","img/food4.png","76","181","3","0","false","1","2","1,0.5,0,1,0.5,0,0.5,0,1","0,1,0.5,0,1,0.5,1,0.5,0","3",""
"","html-keyboard-response","127","53262","0.0-187.0","3RYC5T2D74F2225U9D2NOPR6KR9PRG","A3LIRS1WMRIP9P","36U4VBVNQOZD8NFWZXWF9CIHKRIURB","","null","<img src=""img/food4.png"" style=""width:200px;border:14px solid red;"">","null","","","","","","","","","",""
"","image-keyboard-response","128","53391","0.0-189.0","3RYC5T2D74F2225U9D2NOPR6KR9PRG","A3LIRS1WMRIP9P","36U4VBVNQOZD8NFWZXWF9CIHKRIURB","","128","img/food3.png","75","129","2","1","false","3","2","1,0.5,0,1,0.5,0,0.5,0,1","0,1,0.5,0,1,0.5,1,0.5,0","3",""
"","html-keyboard-response","129","53692","0.0-190.0","3RYC5T2D74F2225U9D2NOPR6KR9PRG","A3LIRS1WMRIP9P","36U4VBVNQOZD8NFWZXWF9CIHKRIURB","","null","<img src=""img/food3.png"" style=""width:200px; border:14px solid green;"">","null","","","","","","","","","",""
"","image-keyboard-response","130","53841","0.0-192.0","3RYC5T2D74F2225U9D2NOPR6KR9PRG","A3LIRS1WMRIP9P","36U4VBVNQOZD8NFWZXWF9CIHKRIURB","","147","img/food2.png","75","149","2","1","false","2","2","1,0.5,0,1,0.5,0,0.5,0,1","0,1,0.5,0,1,0.5,1,0.5,0","3",""
"","html-keyboard-response","131","54141","0.0-193.0","3RYC5T2D74F2225U9D2NOPR6KR9PRG","A3LIRS1WMRIP9P","36U4VBVNQOZD8NFWZXWF9CIHKRIURB","","null","<img src=""img/food2.png"" style=""width:200px; border:14px solid green;"">","null","","","","","","","","","",""
"","image-keyboard-response","132","54311","0.0-195.0","3RYC5T2D74F2225U9D2NOPR6KR9PRG","A3LIRS1WMRIP9P","36U4VBVNQOZD8NFWZXWF9CIHKRIURB","","168","img/food2.png","74","170","1","0","false","2","2","1,0.5,0,1,0.5,0,0.5,0,1","0,1,0.5,0,1,0.5,1,0.5,0","3",""
"","html-keyboard-response","133","54612","0.0-196.0","3RYC5T2D74F2225U9D2NOPR6KR9PRG","A3LIRS1WMRIP9P","36U4VBVNQOZD8NFWZXWF9CIHKRIURB","","null","<img src=""img/food2.png"" style=""width:200px;border:14px solid red;"">","null","","","","","","","","","",""
"","image-keyboard-response","134","54641","0.0-198.0","3RYC5T2D74F2225U9D2NOPR6KR9PRG","A3LIRS1WMRIP9P","36U4VBVNQOZD8NFWZXWF9CIHKRIURB","","28","img/food3.png","76","29","3","0","false","3","2","1,0.5,0,1,0.5,0,0.5,0,1","0,1,0.5,0,1,0.5,1,0.5,0","3",""
"","html-keyboard-response","135","54942","0.0-199.0","3RYC5T2D74F2225U9D2NOPR6KR9PRG","A3LIRS1WMRIP9P","36U4VBVNQOZD8NFWZXWF9CIHKRIURB","","null","<img src=""img/food3.png"" style=""width:200px;border:14px solid red;"">","null","","","","","","","","","",""
"","image-keyboard-response","136","55073","0.0-201.0","3RYC5T2D74F2225U9D2NOPR6KR9PRG","A3LIRS1WMRIP9P","36U4VBVNQOZD8NFWZXWF9CIHKRIURB","","127","img/food2.png","76","127","3","0","false","2","2","1,0.5,0,1,0.5,0,0.5,0,1","0,1,0.5,0,1,0.5,1,0.5,0","3",""
"","html-keyboard-response","137","55374","0.0-202.0","3RYC5T2D74F2225U9D2NOPR6KR9PRG","A3LIRS1WMRIP9P","36U4VBVNQOZD8NFWZXWF9CIHKRIURB","","null","<img src=""img/food2.png"" style=""width:200px;border:14px solid red;"">","null","","","","","","","","","",""
"","image-keyboard-response","138","55560","0.0-204.0","3RYC5T2D74F2225U9D2NOPR6KR9PRG","A3LIRS1WMRIP9P","36U4VBVNQOZD8NFWZXWF9CIHKRIURB","","185","img/food3.png","74","186","1","1","false","3","2","1,0.5,0,1,0.5,0,0.5,0,1","0,1,0.5,0,1,0.5,1,0.5,0","3",""
"","html-keyboard-response","139","55861","0.0-205.0","3RYC5T2D74F2225U9D2NOPR6KR9PRG","A3LIRS1WMRIP9P","36U4VBVNQOZD8NFWZXWF9CIHKRIURB","","null","<img src=""img/food3.png"" style=""width:200px; border:14px solid green;"">","null","","","","","","","","","",""
"","image-keyboard-response","140","55912","0.0-207.0","3RYC5T2D74F2225U9D2NOPR6KR9PRG","A3LIRS1WMRIP9P","36U4VBVNQOZD8NFWZXWF9CIHKRIURB","","50","img/food4.png","76","51","3","0","false","1","2","1,0.5,0,1,0.5,0,0.5,0,1","0,1,0.5,0,1,0.5,1,0.5,0","3",""
"","html-keyboard-response","141","56214","0.0-208.0","3RYC5T2D74F2225U9D2NOPR6KR9PRG","A3LIRS1WMRIP9P","36U4VBVNQOZD8NFWZXWF9CIHKRIURB","","null","<img src=""img/food4.png"" style=""width:200px;border:14px solid red;"">","null","","","","","","","","","",""
"","image-keyboard-response","142","56411","0.0-210.0","3RYC5T2D74F2225U9D2NOPR6KR9PRG","A3LIRS1WMRIP9P","36U4VBVNQOZD8NFWZXWF9CIHKRIURB","","196","img/food3.png","74","197","1","1","false","3","2","1,0.5,0,1,0.5,0,0.5,0,1","0,1,0.5,0,1,0.5,1,0.5,0","3",""
"","html-keyboard-response","143","56712","0.0-211.0","3RYC5T2D74F2225U9D2NOPR6KR9PRG","A3LIRS1WMRIP9P","36U4VBVNQOZD8NFWZXWF9CIHKRIURB","","null","<img src=""img/food3.png"" style=""width:200px; border:14px solid green;"">","null","","","","","","","","","",""
"","image-keyboard-response","144","56733","0.0-213.0","3RYC5T2D74F2225U9D2NOPR6KR9PRG","A3LIRS1WMRIP9P","36U4VBVNQOZD8NFWZXWF9CIHKRIURB","","20","img/food2.png","76","20","3","1","false","2","2","1,0.5,0,1,0.5,0,0.5,0,1","0,1,0.5,0,1,0.5,1,0.5,0","3",""
"","html-keyboard-response","145","57034","0.0-214.0","3RYC5T2D74F2225U9D2NOPR6KR9PRG","A3LIRS1WMRIP9P","36U4VBVNQOZD8NFWZXWF9CIHKRIURB","","null","<img src=""img/food2.png"" style=""width:200px; border:14px solid green;"">","null","","","","","","","","","",""
"","image-keyboard-response","146","57181","0.0-216.0","3RYC5T2D74F2225U9D2NOPR6KR9PRG","A3LIRS1WMRIP9P","36U4VBVNQOZD8NFWZXWF9CIHKRIURB","","146","img/food2.png","74","147","1","0","false","2","2","1,0.5,0,1,0.5,0,0.5,0,1","0,1,0.5,0,1,0.5,1,0.5,0","3",""
"","html-keyboard-response","147","57483","0.0-217.0","3RYC5T2D74F2225U9D2NOPR6KR9PRG","A3LIRS1WMRIP9P","36U4VBVNQOZD8NFWZXWF9CIHKRIURB","","null","<img src=""img/food2.png"" style=""width:200px;border:14px solid red;"">","null","","","","","","","","","",""
"","image-keyboard-response","148","57643","0.0-219.0","3RYC5T2D74F2225U9D2NOPR6KR9PRG","A3LIRS1WMRIP9P","36U4VBVNQOZD8NFWZXWF9CIHKRIURB","","159","img/food3.png","74","160","1","1","false","3","2","1,0.5,0,1,0.5,0,0.5,0,1","0,1,0.5,0,1,0.5,1,0.5,0","3",""
"","html-keyboard-response","149","57945","0.0-220.0","3RYC5T2D74F2225U9D2NOPR6KR9PRG","A3LIRS1WMRIP9P","36U4VBVNQOZD8NFWZXWF9CIHKRIURB","","null","<img src=""img/food3.png"" style=""width:200px; border:14px solid green;"">","null","","","","","","","","","",""
"","image-keyboard-response","150","58082","0.0-222.0","3RYC5T2D74F2225U9D2NOPR6KR9PRG","A3LIRS1WMRIP9P","36U4VBVNQOZD8NFWZXWF9CIHKRIURB","","135","img/food3.png","74","137","1","1","false","3","2","1,0.5,0,1,0.5,0,0.5,0,1","0,1,0.5,0,1,0.5,1,0.5,0","3",""
"","html-keyboard-response","151","58383","0.0-223.0","3RYC5T2D74F2225U9D2NOPR6KR9PRG","A3LIRS1WMRIP9P","36U4VBVNQOZD8NFWZXWF9CIHKRIURB","","null","<img src=""img/food3.png"" style=""width:200px; border:14px solid green;"">","null","","","","","","","","","",""
"","image-keyboard-response","152","58391","0.0-225.0","3RYC5T2D74F2225U9D2NOPR6KR9PRG","A3LIRS1WMRIP9P","36U4VBVNQOZD8NFWZXWF9CIHKRIURB","","7","img/food3.png","76","8","3","0","false","3","2","1,0.5,0,1,0.5,0,0.5,0,1","0,1,0.5,0,1,0.5,1,0.5,0","3",""
"","html-keyboard-response","153","58692","0.0-226.0","3RYC5T2D74F2225U9D2NOPR6KR9PRG","A3LIRS1WMRIP9P","36U4VBVNQOZD8NFWZXWF9CIHKRIURB","","null","<img src=""img/food3.png"" style=""width:200px;border:14px solid red;"">","null","","","","","","","","","",""
"","image-keyboard-response","154","58771","0.0-228.0","3RYC5T2D74F2225U9D2NOPR6KR9PRG","A3LIRS1WMRIP9P","36U4VBVNQOZD8NFWZXWF9CIHKRIURB","","77","img/food2.png","74","79","1","0","false","2","2","1,0.5,0,1,0.5,0,0.5,0,1","0,1,0.5,0,1,0.5,1,0.5,0","3",""
"","html-keyboard-response","155","59072","0.0-229.0","3RYC5T2D74F2225U9D2NOPR6KR9PRG","A3LIRS1WMRIP9P","36U4VBVNQOZD8NFWZXWF9CIHKRIURB","","null","<img src=""img/food2.png"" style=""width:200px;border:14px solid red;"">","null","","","","","","","","","",""
"","image-keyboard-response","156","59241","0.0-231.0","3RYC5T2D74F2225U9D2NOPR6KR9PRG","A3LIRS1WMRIP9P","36U4VBVNQOZD8NFWZXWF9CIHKRIURB","","167","img/food2.png","74","169","1","0","false","2","2","1,0.5,0,1,0.5,0,0.5,0,1","0,1,0.5,0,1,0.5,1,0.5,0","3",""
"","html-keyboard-response","157","59543","0.0-232.0","3RYC5T2D74F2225U9D2NOPR6KR9PRG","A3LIRS1WMRIP9P","36U4VBVNQOZD8NFWZXWF9CIHKRIURB","","null","<img src=""img/food2.png"" style=""width:200px;border:14px solid red;"">","null","","","","","","","","","",""
"","image-keyboard-response","158","59720","0.0-234.0","3RYC5T2D74F2225U9D2NOPR6KR9PRG","A3LIRS1WMRIP9P","36U4VBVNQOZD8NFWZXWF9CIHKRIURB","","176","img/food3.png","74","177","1","1","false","3","2","1,0.5,0,1,0.5,0,0.5,0,1","0,1,0.5,0,1,0.5,1,0.5,0","3",""
"","html-keyboard-response","159","60021","0.0-235.0","3RYC5T2D74F2225U9D2NOPR6KR9PRG","A3LIRS1WMRIP9P","36U4VBVNQOZD8NFWZXWF9CIHKRIURB","","null","<img src=""img/food3.png"" style=""width:200px; border:14px solid green;"">","null","","","","","","","","","",""
"","image-keyboard-response","160","60121","0.0-237.0","3RYC5T2D74F2225U9D2NOPR6KR9PRG","A3LIRS1WMRIP9P","36U4VBVNQOZD8NFWZXWF9CIHKRIURB","","98","img/food3.png","74","99","1","1","false","3","2","1,0.5,0,1,0.5,0,0.5,0,1","0,1,0.5,0,1,0.5,1,0.5,0","3",""
"","html-keyboard-response","161","60423","0.0-238.0","3RYC5T2D74F2225U9D2NOPR6KR9PRG","A3LIRS1WMRIP9P","36U4VBVNQOZD8NFWZXWF9CIHKRIURB","","null","<img src=""img/food3.png"" style=""width:200px; border:14px solid green;"">","null","","","","","","","","","",""
"","image-keyboard-response","162","60651","0.0-240.0","3RYC5T2D74F2225U9D2NOPR6KR9PRG","A3LIRS1WMRIP9P","36U4VBVNQOZD8NFWZXWF9CIHKRIURB","","226","img/food2.png","76","228","3","1","false","2","2","1,0.5,0,1,0.5,0,0.5,0,1","0,1,0.5,0,1,0.5,1,0.5,0","3",""
"","html-keyboard-response","163","60953","0.0-241.0","3RYC5T2D74F2225U9D2NOPR6KR9PRG","A3LIRS1WMRIP9P","36U4VBVNQOZD8NFWZXWF9CIHKRIURB","","null","<img src=""img/food2.png"" style=""width:200px; border:14px solid green;"">","null","","","","","","","","","",""
"","image-keyboard-response","164","61071","0.0-243.0","3RYC5T2D74F2225U9D2NOPR6KR9PRG","A3LIRS1WMRIP9P","36U4VBVNQOZD8NFWZXWF9CIHKRIURB","","116","img/food4.png","74","117","1","0","false","1","2","1,0.5,0,1,0.5,0,0.5,0,1","0,1,0.5,0,1,0.5,1,0.5,0","3",""
"","html-keyboard-response","165","61372","0.0-244.0","3RYC5T2D74F2225U9D2NOPR6KR9PRG","A3LIRS1WMRIP9P","36U4VBVNQOZD8NFWZXWF9CIHKRIURB","","null","<img src=""img/food4.png"" style=""width:200px;border:14px solid red;"">","null","","","","","","","","","",""
"","image-keyboard-response","166","61551","0.0-246.0","3RYC5T2D74F2225U9D2NOPR6KR9PRG","A3LIRS1WMRIP9P","36U4VBVNQOZD8NFWZXWF9CIHKRIURB","","178","img/food3.png","74","178","1","1","false","3","2","1,0.5,0,1,0.5,0,0.5,0,1","0,1,0.5,0,1,0.5,1,0.5,0","3",""
"","html-keyboard-response","167","61852","0.0-247.0","3RYC5T2D74F2225U9D2NOPR6KR9PRG","A3LIRS1WMRIP9P","36U4VBVNQOZD8NFWZXWF9CIHKRIURB","","null","<img src=""img/food3.png"" style=""width:200px; border:14px solid green;"">","null","","","","","","","","","",""
"","image-keyboard-response","168","61882","0.0-249.0","3RYC5T2D74F2225U9D2NOPR6KR9PRG","A3LIRS1WMRIP9P","36U4VBVNQOZD8NFWZXWF9CIHKRIURB","","27","img/food4.png","76","28","3","0","false","1","2","1,0.5,0,1,0.5,0,0.5,0,1","0,1,0.5,0,1,0.5,1,0.5,0","3",""
"","html-keyboard-response","169","62184","0.0-250.0","3RYC5T2D74F2225U9D2NOPR6KR9PRG","A3LIRS1WMRIP9P","36U4VBVNQOZD8NFWZXWF9CIHKRIURB","","null","<img src=""img/food4.png"" style=""width:200px;border:14px solid red;"">","null","","","","","","","","","",""
"","image-keyboard-response","170","62351","0.0-252.0","3RYC5T2D74F2225U9D2NOPR6KR9PRG","A3LIRS1WMRIP9P","36U4VBVNQOZD8NFWZXWF9CIHKRIURB","","164","img/food2.png","76","167","3","0","false","2","2","1,0.5,0,1,0.5,0,0.5,0,1","0,1,0.5,0,1,0.5,1,0.5,0","3",""
"","html-keyboard-response","171","62652","0.0-253.0","3RYC5T2D74F2225U9D2NOPR6KR9PRG","A3LIRS1WMRIP9P","36U4VBVNQOZD8NFWZXWF9CIHKRIURB","","null","<img src=""img/food2.png"" style=""width:200px;border:14px solid red;"">","null","","","","","","","","","",""
"","image-keyboard-response","172","62801","0.0-255.0","3RYC5T2D74F2225U9D2NOPR6KR9PRG","A3LIRS1WMRIP9P","36U4VBVNQOZD8NFWZXWF9CIHKRIURB","","148","img/food4.png","74","149","1","0","false","1","2","1,0.5,0,1,0.5,0,0.5,0,1","0,1,0.5,0,1,0.5,1,0.5,0","3",""
"","html-keyboard-response","173","63103","0.0-256.0","3RYC5T2D74F2225U9D2NOPR6KR9PRG","A3LIRS1WMRIP9P","36U4VBVNQOZD8NFWZXWF9CIHKRIURB","","null","<img src=""img/food4.png"" style=""width:200px;border:14px solid red;"">","null","","","","","","","","","",""
"","image-keyboard-response","174","63140","0.0-258.0","3RYC5T2D74F2225U9D2NOPR6KR9PRG","A3LIRS1WMRIP9P","36U4VBVNQOZD8NFWZXWF9CIHKRIURB","","36","img/food4.png","76","36","3","0","false","1","2","1,0.5,0,1,0.5,0,0.5,0,1","0,1,0.5,0,1,0.5,1,0.5,0","3",""
"","html-keyboard-response","175","63441","0.0-259.0","3RYC5T2D74F2225U9D2NOPR6KR9PRG","A3LIRS1WMRIP9P","36U4VBVNQOZD8NFWZXWF9CIHKRIURB","","null","<img src=""img/food4.png"" style=""width:200px;border:14px solid red;"">","null","","","","","","","","","",""
"","image-keyboard-response","176","63611","0.0-261.0","3RYC5T2D74F2225U9D2NOPR6KR9PRG","A3LIRS1WMRIP9P","36U4VBVNQOZD8NFWZXWF9CIHKRIURB","","169","img/food2.png","76","169","3","0","false","2","2","1,0.5,0,1,0.5,0,0.5,0,1","0,1,0.5,0,1,0.5,1,0.5,0","3",""
"","html-keyboard-response","177","63913","0.0-262.0","3RYC5T2D74F2225U9D2NOPR6KR9PRG","A3LIRS1WMRIP9P","36U4VBVNQOZD8NFWZXWF9CIHKRIURB","","null","<img src=""img/food2.png"" style=""width:200px;border:14px solid red;"">","null","","","","","","","","","",""
"","image-keyboard-response","178","63961","0.0-264.0","3RYC5T2D74F2225U9D2NOPR6KR9PRG","A3LIRS1WMRIP9P","36U4VBVNQOZD8NFWZXWF9CIHKRIURB","","47","img/food2.png","74","48","1","0","false","2","2","1,0.5,0,1,0.5,0,0.5,0,1","0,1,0.5,0,1,0.5,1,0.5,0","3",""
"","html-keyboard-response","179","64262","0.0-265.0","3RYC5T2D74F2225U9D2NOPR6KR9PRG","A3LIRS1WMRIP9P","36U4VBVNQOZD8NFWZXWF9CIHKRIURB","","null","<img src=""img/food2.png"" style=""width:200px;border:14px solid red;"">","null","","","","","","","","","",""
"","image-keyboard-response","180","64372","0.0-267.0","3RYC5T2D74F2225U9D2NOPR6KR9PRG","A3LIRS1WMRIP9P","36U4VBVNQOZD8NFWZXWF9CIHKRIURB","","108","img/food2.png","74","110","1","0","false","2","2","1,0.5,0,1,0.5,0,0.5,0,1","0,1,0.5,0,1,0.5,1,0.5,0","3",""
"","html-keyboard-response","181","64674","0.0-268.0","3RYC5T2D74F2225U9D2NOPR6KR9PRG","A3LIRS1WMRIP9P","36U4VBVNQOZD8NFWZXWF9CIHKRIURB","","null","<img src=""img/food2.png"" style=""width:200px;border:14px solid red;"">","null","","","","","","","","","",""
"","image-keyboard-response","182","65342","0.0-270.0","3RYC5T2D74F2225U9D2NOPR6KR9PRG","A3LIRS1WMRIP9P","36U4VBVNQOZD8NFWZXWF9CIHKRIURB","","666","img/food4.png","74","667","1","0","false","1","2","1,0.5,0,1,0.5,0,0.5,0,1","0,1,0.5,0,1,0.5,1,0.5,0","3",""
"","html-keyboard-response","183","65644","0.0-271.0","3RYC5T2D74F2225U9D2NOPR6KR9PRG","A3LIRS1WMRIP9P","36U4VBVNQOZD8NFWZXWF9CIHKRIURB","","null","<img src=""img/food4.png"" style=""width:200px;border:14px solid red;"">","null","","","","","","","","","",""
"","instructions","184","70501","0.0-273.0","3RYC5T2D74F2225U9D2NOPR6KR9PRG","A3LIRS1WMRIP9P","36U4VBVNQOZD8NFWZXWF9CIHKRIURB","[{""page_index"":0,""viewing_time"":2410},{""page_index"":1,""viewing_time"":2447}]","4857","","","","","","","","","","","",""
"","image-keyboard-response","185","71072","0.0-274.0","3RYC5T2D74F2225U9D2NOPR6KR9PRG","A3LIRS1WMRIP9P","36U4VBVNQOZD8NFWZXWF9CIHKRIURB","","568","img/food1.png","75","570","2","0","","3","1","1,0.5,0,1,0.5,0,0.5,0,1","0,1,0.5,0,1,0.5,1,0.5,0","3",""
"","html-keyboard-response","186","71375","0.0-275.0","3RYC5T2D74F2225U9D2NOPR6KR9PRG","A3LIRS1WMRIP9P","36U4VBVNQOZD8NFWZXWF9CIHKRIURB","","null","<img src=""img/food1.png"" style=""width:200px;border:14px solid red;"">","null","","","","","","","","","",""
"","image-keyboard-response","187","71389","0.0-276.0","3RYC5T2D74F2225U9D2NOPR6KR9PRG","A3LIRS1WMRIP9P","36U4VBVNQOZD8NFWZXWF9CIHKRIURB","","13","img/food6.png","76","14","3","1","","1","1","1,0.5,0,1,0.5,0,0.5,0,1","0,1,0.5,0,1,0.5,1,0.5,0","3",""
"","html-keyboard-response","188","71691","0.0-277.0","3RYC5T2D74F2225U9D2NOPR6KR9PRG","A3LIRS1WMRIP9P","36U4VBVNQOZD8NFWZXWF9CIHKRIURB","","null","<img src=""img/food6.png"" style=""width:200px; border:14px solid green;"">","null","","","","","","","","","",""
"","image-keyboard-response","189","71761","0.0-278.0","3RYC5T2D74F2225U9D2NOPR6KR9PRG","A3LIRS1WMRIP9P","36U4VBVNQOZD8NFWZXWF9CIHKRIURB","","68","img/food5.png","74","70","1","0","","2","1","1,0.5,0,1,0.5,0,0.5,0,1","0,1,0.5,0,1,0.5,1,0.5,0","3",""
"","html-keyboard-response","190","72061","0.0-279.0","3RYC5T2D74F2225U9D2NOPR6KR9PRG","A3LIRS1WMRIP9P","36U4VBVNQOZD8NFWZXWF9CIHKRIURB","","null","<img src=""img/food5.png"" style=""width:200px;border:14px solid red;"">","null","","","","","","","","","",""
"","image-keyboard-response","191","72251","0.0-280.0","3RYC5T2D74F2225U9D2NOPR6KR9PRG","A3LIRS1WMRIP9P","36U4VBVNQOZD8NFWZXWF9CIHKRIURB","","189","img/food6.png","76","190","3","0","","1","1","1,0.5,0,1,0.5,0,0.5,0,1","0,1,0.5,0,1,0.5,1,0.5,0","3",""
"","html-keyboard-response","192","72552","0.0-281.0","3RYC5T2D74F2225U9D2NOPR6KR9PRG","A3LIRS1WMRIP9P","36U4VBVNQOZD8NFWZXWF9CIHKRIURB","","null","<img src=""img/food6.png"" style=""width:200px;border:14px solid red;"">","null","","","","","","","","","",""
"","image-keyboard-response","193","72691","0.0-282.0","3RYC5T2D74F2225U9D2NOPR6KR9PRG","A3LIRS1WMRIP9P","36U4VBVNQOZD8NFWZXWF9CIHKRIURB","","138","img/food5.png","76","139","3","1","","2","1","1,0.5,0,1,0.5,0,0.5,0,1","0,1,0.5,0,1,0.5,1,0.5,0","3",""
"","html-keyboard-response","194","73026","0.0-283.0","3RYC5T2D74F2225U9D2NOPR6KR9PRG","A3LIRS1WMRIP9P","36U4VBVNQOZD8NFWZXWF9CIHKRIURB","","null","<img src=""img/food5.png"" style=""width:200px; border:14px solid green;"">","null","","","","","","","","","",""
"","image-keyboard-response","195","73080","0.0-284.0","3RYC5T2D74F2225U9D2NOPR6KR9PRG","A3LIRS1WMRIP9P","36U4VBVNQOZD8NFWZXWF9CIHKRIURB","","53","img/food1.png","76","54","3","0","","3","1","1,0.5,0,1,0.5,0,0.5,0,1","0,1,0.5,0,1,0.5,1,0.5,0","3",""
"","html-keyboard-response","196","73382","0.0-285.0","3RYC5T2D74F2225U9D2NOPR6KR9PRG","A3LIRS1WMRIP9P","36U4VBVNQOZD8NFWZXWF9CIHKRIURB","","null","<img src=""img/food1.png"" style=""width:200px;border:14px solid red;"">","null","","","","","","","","","",""
"","image-keyboard-response","197","73426","0.0-286.0","3RYC5T2D74F2225U9D2NOPR6KR9PRG","A3LIRS1WMRIP9P","36U4VBVNQOZD8NFWZXWF9CIHKRIURB","","43","img/food6.png","74","43","1","0","","1","1","1,0.5,0,1,0.5,0,0.5,0,1","0,1,0.5,0,1,0.5,1,0.5,0","3",""
"","html-keyboard-response","198","73728","0.0-287.0","3RYC5T2D74F2225U9D2NOPR6KR9PRG","A3LIRS1WMRIP9P","36U4VBVNQOZD8NFWZXWF9CIHKRIURB","","null","<img src=""img/food6.png"" style=""width:200px;border:14px solid red;"">","null","","","","","","","","","",""
"","image-keyboard-response","199","73801","0.0-288.0","3RYC5T2D74F2225U9D2NOPR6KR9PRG","A3LIRS1WMRIP9P","36U4VBVNQOZD8NFWZXWF9CIHKRIURB","","72","img/food1.png","74","73","1","1","","3","1","1,0.5,0,1,0.5,0,0.5,0,1","0,1,0.5,0,1,0.5,1,0.5,0","3",""
"","html-keyboard-response","200","74103","0.0-289.0","3RYC5T2D74F2225U9D2NOPR6KR9PRG","A3LIRS1WMRIP9P","36U4VBVNQOZD8NFWZXWF9CIHKRIURB","","null","<img src=""img/food1.png"" style=""width:200px; border:14px solid green;"">","null","","","","","","","","","",""
"","image-keyboard-response","201","74110","0.0-290.0","3RYC5T2D74F2225U9D2NOPR6KR9PRG","A3LIRS1WMRIP9P","36U4VBVNQOZD8NFWZXWF9CIHKRIURB","","7","img/food5.png","76","7","3","0","","2","1","1,0.5,0,1,0.5,0,0.5,0,1","0,1,0.5,0,1,0.5,1,0.5,0","3",""
"","html-keyboard-response","202","74412","0.0-291.0","3RYC5T2D74F2225U9D2NOPR6KR9PRG","A3LIRS1WMRIP9P","36U4VBVNQOZD8NFWZXWF9CIHKRIURB","","null","<img src=""img/food5.png"" style=""width:200px;border:14px solid red;"">","null","","","","","","","","","",""
"","image-keyboard-response","203","74510","0.0-292.0","3RYC5T2D74F2225U9D2NOPR6KR9PRG","A3LIRS1WMRIP9P","36U4VBVNQOZD8NFWZXWF9CIHKRIURB","","98","img/food1.png","74","98","1","1","","3","1","1,0.5,0,1,0.5,0,0.5,0,1","0,1,0.5,0,1,0.5,1,0.5,0","3",""
"","html-keyboard-response","204","74811","0.0-293.0","3RYC5T2D74F2225U9D2NOPR6KR9PRG","A3LIRS1WMRIP9P","36U4VBVNQOZD8NFWZXWF9CIHKRIURB","","null","<img src=""img/food1.png"" style=""width:200px; border:14px solid green;"">","null","","","","","","","","","",""
"","image-keyboard-response","205","75051","0.0-294.0","3RYC5T2D74F2225U9D2NOPR6KR9PRG","A3LIRS1WMRIP9P","36U4VBVNQOZD8NFWZXWF9CIHKRIURB","","239","img/food5.png","74","240","1","0","","2","1","1,0.5,0,1,0.5,0,0.5,0,1","0,1,0.5,0,1,0.5,1,0.5,0","3",""
"","html-keyboard-response","206","75353","0.0-295.0","3RYC5T2D74F2225U9D2NOPR6KR9PRG","A3LIRS1WMRIP9P","36U4VBVNQOZD8NFWZXWF9CIHKRIURB","","null","<img src=""img/food5.png"" style=""width:200px;border:14px solid red;"">","null","","","","","","","","","",""
"","image-keyboard-response","207","75370","0.0-296.0","3RYC5T2D74F2225U9D2NOPR6KR9PRG","A3LIRS1WMRIP9P","36U4VBVNQOZD8NFWZXWF9CIHKRIURB","","17","img/food6.png","76","17","3","1","","1","1","1,0.5,0,1,0.5,0,0.5,0,1","0,1,0.5,0,1,0.5,1,0.5,0","3",""
"","html-keyboard-response","208","75672","0.0-297.0","3RYC5T2D74F2225U9D2NOPR6KR9PRG","A3LIRS1WMRIP9P","36U4VBVNQOZD8NFWZXWF9CIHKRIURB","","null","<img src=""img/food6.png"" style=""width:200px; border:14px solid green;"">","null","","","","","","","","","",""
"","image-keyboard-response","209","75720","0.0-298.0","3RYC5T2D74F2225U9D2NOPR6KR9PRG","A3LIRS1WMRIP9P","36U4VBVNQOZD8NFWZXWF9CIHKRIURB","","48","img/food6.png","76","48","3","0","","1","1","1,0.5,0,1,0.5,0,0.5,0,1","0,1,0.5,0,1,0.5,1,0.5,0","3",""
"","html-keyboard-response","210","76022","0.0-299.0","3RYC5T2D74F2225U9D2NOPR6KR9PRG","A3LIRS1WMRIP9P","36U4VBVNQOZD8NFWZXWF9CIHKRIURB","","null","<img src=""img/food6.png"" style=""width:200px;border:14px solid red;"">","null","","","","","","","","","",""
"","image-keyboard-response","211","76110","0.0-300.0","3RYC5T2D74F2225U9D2NOPR6KR9PRG","A3LIRS1WMRIP9P","36U4VBVNQOZD8NFWZXWF9CIHKRIURB","","88","img/food5.png","74","89","1","0","","2","1","1,0.5,0,1,0.5,0,0.5,0,1","0,1,0.5,0,1,0.5,1,0.5,0","3",""
"","html-keyboard-response","212","76412","0.0-301.0","3RYC5T2D74F2225U9D2NOPR6KR9PRG","A3LIRS1WMRIP9P","36U4VBVNQOZD8NFWZXWF9CIHKRIURB","","null","<img src=""img/food5.png"" style=""width:200px;border:14px solid red;"">","null","","","","","","","","","",""
"","image-keyboard-response","213","76560","0.0-302.0","3RYC5T2D74F2225U9D2NOPR6KR9PRG","A3LIRS1WMRIP9P","36U4VBVNQOZD8NFWZXWF9CIHKRIURB","","147","img/food6.png","74","148","1","0","","1","1","1,0.5,0,1,0.5,0,0.5,0,1","0,1,0.5,0,1,0.5,1,0.5,0","3",""
"","html-keyboard-response","214","76861","0.0-303.0","3RYC5T2D74F2225U9D2NOPR6KR9PRG","A3LIRS1WMRIP9P","36U4VBVNQOZD8NFWZXWF9CIHKRIURB","","null","<img src=""img/food6.png"" style=""width:200px;border:14px solid red;"">","null","","","","","","","","","",""
"","image-keyboard-response","215","77060","0.0-304.0","3RYC5T2D74F2225U9D2NOPR6KR9PRG","A3LIRS1WMRIP9P","36U4VBVNQOZD8NFWZXWF9CIHKRIURB","","199","img/food5.png","76","199","3","0","","2","1","1,0.5,0,1,0.5,0,0.5,0,1","0,1,0.5,0,1,0.5,1,0.5,0","3",""
"","html-keyboard-response","216","77361","0.0-305.0","3RYC5T2D74F2225U9D2NOPR6KR9PRG","A3LIRS1WMRIP9P","36U4VBVNQOZD8NFWZXWF9CIHKRIURB","","null","<img src=""img/food5.png"" style=""width:200px;border:14px solid red;"">","null","","","","","","","","","",""
"","image-keyboard-response","217","77569","0.0-306.0","3RYC5T2D74F2225U9D2NOPR6KR9PRG","A3LIRS1WMRIP9P","36U4VBVNQOZD8NFWZXWF9CIHKRIURB","","207","img/food5.png","76","208","3","1","","2","1","1,0.5,0,1,0.5,0,0.5,0,1","0,1,0.5,0,1,0.5,1,0.5,0","3",""
"","html-keyboard-response","218","77871","0.0-307.0","3RYC5T2D74F2225U9D2NOPR6KR9PRG","A3LIRS1WMRIP9P","36U4VBVNQOZD8NFWZXWF9CIHKRIURB","","null","<img src=""img/food5.png"" style=""width:200px; border:14px solid green;"">","null","","","","","","","","","",""
"","image-keyboard-response","219","78041","0.0-308.0","3RYC5T2D74F2225U9D2NOPR6KR9PRG","A3LIRS1WMRIP9P","36U4VBVNQOZD8NFWZXWF9CIHKRIURB","","169","img/food1.png","76","170","3","0","","3","1","1,0.5,0,1,0.5,0,0.5,0,1","0,1,0.5,0,1,0.5,1,0.5,0","3",""
"","html-keyboard-response","220","78343","0.0-309.0","3RYC5T2D74F2225U9D2NOPR6KR9PRG","A3LIRS1WMRIP9P","36U4VBVNQOZD8NFWZXWF9CIHKRIURB","","null","<img src=""img/food1.png"" style=""width:200px;border:14px solid red;"">","null","","","","","","","","","",""
"","image-keyboard-response","221","78460","0.0-310.0","3RYC5T2D74F2225U9D2NOPR6KR9PRG","A3LIRS1WMRIP9P","36U4VBVNQOZD8NFWZXWF9CIHKRIURB","","116","img/food1.png","74","118","1","1","","3","1","1,0.5,0,1,0.5,0,0.5,0,1","0,1,0.5,0,1,0.5,1,0.5,0","3",""
"","html-keyboard-response","222","78761","0.0-311.0","3RYC5T2D74F2225U9D2NOPR6KR9PRG","A3LIRS1WMRIP9P","36U4VBVNQOZD8NFWZXWF9CIHKRIURB","","null","<img src=""img/food1.png"" style=""width:200px; border:14px solid green;"">","null","","","","","","","","","",""
"","image-keyboard-response","223","78801","0.0-312.0","3RYC5T2D74F2225U9D2NOPR6KR9PRG","A3LIRS1WMRIP9P","36U4VBVNQOZD8NFWZXWF9CIHKRIURB","","38","img/food6.png","76","40","3","1","","1","1","1,0.5,0,1,0.5,0,0.5,0,1","0,1,0.5,0,1,0.5,1,0.5,0","3",""
"","html-keyboard-response","224","79104","0.0-313.0","3RYC5T2D74F2225U9D2NOPR6KR9PRG","A3LIRS1WMRIP9P","36U4VBVNQOZD8NFWZXWF9CIHKRIURB","","null","<img src=""img/food6.png"" style=""width:200px; border:14px solid green;"">","null","","","","","","","","","",""
"","image-keyboard-response","225","79130","0.0-314.0","3RYC5T2D74F2225U9D2NOPR6KR9PRG","A3LIRS1WMRIP9P","36U4VBVNQOZD8NFWZXWF9CIHKRIURB","","25","img/food5.png","74","26","1","0","","2","1","1,0.5,0,1,0.5,0,0.5,0,1","0,1,0.5,0,1,0.5,1,0.5,0","3",""
"","html-keyboard-response","226","79432","0.0-315.0","3RYC5T2D74F2225U9D2NOPR6KR9PRG","A3LIRS1WMRIP9P","36U4VBVNQOZD8NFWZXWF9CIHKRIURB","","null","<img src=""img/food5.png"" style=""width:200px;border:14px solid red;"">","null","","","","","","","","","",""
"","image-keyboard-response","227","79561","0.0-316.0","3RYC5T2D74F2225U9D2NOPR6KR9PRG","A3LIRS1WMRIP9P","36U4VBVNQOZD8NFWZXWF9CIHKRIURB","","127","img/food1.png","74","129","1","1","","3","1","1,0.5,0,1,0.5,0,0.5,0,1","0,1,0.5,0,1,0.5,1,0.5,0","3",""
"","html-keyboard-response","228","79862","0.0-317.0","3RYC5T2D74F2225U9D2NOPR6KR9PRG","A3LIRS1WMRIP9P","36U4VBVNQOZD8NFWZXWF9CIHKRIURB","","null","<img src=""img/food1.png"" style=""width:200px; border:14px solid green;"">","null","","","","","","","","","",""
"","image-keyboard-response","229","79961","0.0-318.0","3RYC5T2D74F2225U9D2NOPR6KR9PRG","A3LIRS1WMRIP9P","36U4VBVNQOZD8NFWZXWF9CIHKRIURB","","98","img/food6.png","74","98","1","0","","1","1","1,0.5,0,1,0.5,0,0.5,0,1","0,1,0.5,0,1,0.5,1,0.5,0","3",""
"","html-keyboard-response","230","80262","0.0-319.0","3RYC5T2D74F2225U9D2NOPR6KR9PRG","A3LIRS1WMRIP9P","36U4VBVNQOZD8NFWZXWF9CIHKRIURB","","null","<img src=""img/food6.png"" style=""width:200px;border:14px solid red;"">","null","","","","","","","","","",""
"","image-keyboard-response","231","80381","0.0-320.0","3RYC5T2D74F2225U9D2NOPR6KR9PRG","A3LIRS1WMRIP9P","36U4VBVNQOZD8NFWZXWF9CIHKRIURB","","119","img/food6.png","74","120","1","0","","1","1","1,0.5,0,1,0.5,0,0.5,0,1","0,1,0.5,0,1,0.5,1,0.5,0","3",""
"","html-keyboard-response","232","80684","0.0-321.0","3RYC5T2D74F2225U9D2NOPR6KR9PRG","A3LIRS1WMRIP9P","36U4VBVNQOZD8NFWZXWF9CIHKRIURB","","null","<img src=""img/food6.png"" style=""width:200px;border:14px solid red;"">","null","","","","","","","","","",""
"","image-keyboard-response","233","80820","0.0-322.0","3RYC5T2D74F2225U9D2NOPR6KR9PRG","A3LIRS1WMRIP9P","36U4VBVNQOZD8NFWZXWF9CIHKRIURB","","134","img/food1.png","76","135","3","0","","3","1","1,0.5,0,1,0.5,0,0.5,0,1","0,1,0.5,0,1,0.5,1,0.5,0","3",""
"","html-keyboard-response","234","81122","0.0-323.0","3RYC5T2D74F2225U9D2NOPR6KR9PRG","A3LIRS1WMRIP9P","36U4VBVNQOZD8NFWZXWF9CIHKRIURB","","null","<img src=""img/food1.png"" style=""width:200px;border:14px solid red;"">","null","","","","","","","","","",""
"","image-keyboard-response","235","81219","0.0-324.0","3RYC5T2D74F2225U9D2NOPR6KR9PRG","A3LIRS1WMRIP9P","36U4VBVNQOZD8NFWZXWF9CIHKRIURB","","97","img/food1.png","74","98","1","1","","3","1","1,0.5,0,1,0.5,0,0.5,0,1","0,1,0.5,0,1,0.5,1,0.5,0","3",""
"","html-keyboard-response","236","81521","0.0-325.0","3RYC5T2D74F2225U9D2NOPR6KR9PRG","A3LIRS1WMRIP9P","36U4VBVNQOZD8NFWZXWF9CIHKRIURB","","null","<img src=""img/food1.png"" style=""width:200px; border:14px solid green;"">","null","","","","","","","","","",""
"","image-keyboard-response","237","81531","0.0-326.0","3RYC5T2D74F2225U9D2NOPR6KR9PRG","A3LIRS1WMRIP9P","36U4VBVNQOZD8NFWZXWF9CIHKRIURB","","8","img/food5.png","76","10","3","1","","2","1","1,0.5,0,1,0.5,0,0.5,0,1","0,1,0.5,0,1,0.5,1,0.5,0","3",""
"","html-keyboard-response","238","81832","0.0-327.0","3RYC5T2D74F2225U9D2NOPR6KR9PRG","A3LIRS1WMRIP9P","36U4VBVNQOZD8NFWZXWF9CIHKRIURB","","null","<img src=""img/food5.png"" style=""width:200px; border:14px solid green;"">","null","","","","","","","","","",""
"","image-keyboard-response","239","81931","0.0-328.0","3RYC5T2D74F2225U9D2NOPR6KR9PRG","A3LIRS1WMRIP9P","36U4VBVNQOZD8NFWZXWF9CIHKRIURB","","97","img/food5.png","74","99","1","0","","2","1","1,0.5,0,1,0.5,0,0.5,0,1","0,1,0.5,0,1,0.5,1,0.5,0","3",""
"","html-keyboard-response","240","82232","0.0-329.0","3RYC5T2D74F2225U9D2NOPR6KR9PRG","A3LIRS1WMRIP9P","36U4VBVNQOZD8NFWZXWF9CIHKRIURB","","null","<img src=""img/food5.png"" style=""width:200px;border:14px solid red;"">","null","","","","","","","","","",""
"","image-keyboard-response","241","82401","0.0-330.0","3RYC5T2D74F2225U9D2NOPR6KR9PRG","A3LIRS1WMRIP9P","36U4VBVNQOZD8NFWZXWF9CIHKRIURB","","167","img/food5.png","74","169","1","0","","2","1","1,0.5,0,1,0.5,0,0.5,0,1","0,1,0.5,0,1,0.5,1,0.5,0","3",""
"","html-keyboard-response","242","82703","0.0-331.0","3RYC5T2D74F2225U9D2NOPR6KR9PRG","A3LIRS1WMRIP9P","36U4VBVNQOZD8NFWZXWF9CIHKRIURB","","null","<img src=""img/food5.png"" style=""width:200px;border:14px solid red;"">","null","","","","","","","","","",""
"","image-keyboard-response","243","82850","0.0-332.0","3RYC5T2D74F2225U9D2NOPR6KR9PRG","A3LIRS1WMRIP9P","36U4VBVNQOZD8NFWZXWF9CIHKRIURB","","146","img/food6.png","74","146","1","0","","1","1","1,0.5,0,1,0.5,0,0.5,0,1","0,1,0.5,0,1,0.5,1,0.5,0","3",""
"","html-keyboard-response","244","83152","0.0-333.0","3RYC5T2D74F2225U9D2NOPR6KR9PRG","A3LIRS1WMRIP9P","36U4VBVNQOZD8NFWZXWF9CIHKRIURB","","null","<img src=""img/food6.png"" style=""width:200px;border:14px solid red;"">","null","","","","","","","","","",""
"","image-keyboard-response","245","83320","0.0-334.0","3RYC5T2D74F2225U9D2NOPR6KR9PRG","A3LIRS1WMRIP9P","36U4VBVNQOZD8NFWZXWF9CIHKRIURB","","168","img/food1.png","75","168","2","1","","3","1","1,0.5,0,1,0.5,0,0.5,0,1","0,1,0.5,0,1,0.5,1,0.5,0","3",""
"","html-keyboard-response","246","83621","0.0-335.0","3RYC5T2D74F2225U9D2NOPR6KR9PRG","A3LIRS1WMRIP9P","36U4VBVNQOZD8NFWZXWF9CIHKRIURB","","null","<img src=""img/food1.png"" style=""width:200px; border:14px solid green;"">","null","","","","","","","","","",""
"","image-keyboard-response","247","83786","0.0-336.0","3RYC5T2D74F2225U9D2NOPR6KR9PRG","A3LIRS1WMRIP9P","36U4VBVNQOZD8NFWZXWF9CIHKRIURB","","164","img/food6.png","74","166","1","0","","1","1","1,0.5,0,1,0.5,0,0.5,0,1","0,1,0.5,0,1,0.5,1,0.5,0","3",""
"","html-keyboard-response","248","84087","0.0-337.0","3RYC5T2D74F2225U9D2NOPR6KR9PRG","A3LIRS1WMRIP9P","36U4VBVNQOZD8NFWZXWF9CIHKRIURB","","null","<img src=""img/food6.png"" style=""width:200px;border:14px solid red;"">","null","","","","","","","","","",""
"","image-keyboard-response","249","84099","0.0-338.0","3RYC5T2D74F2225U9D2NOPR6KR9PRG","A3LIRS1WMRIP9P","36U4VBVNQOZD8NFWZXWF9CIHKRIURB","","10","img/food1.png","76","12","3","0","","3","1","1,0.5,0,1,0.5,0,0.5,0,1","0,1,0.5,0,1,0.5,1,0.5,0","3",""
"","html-keyboard-response","250","84400","0.0-339.0","3RYC5T2D74F2225U9D2NOPR6KR9PRG","A3LIRS1WMRIP9P","36U4VBVNQOZD8NFWZXWF9CIHKRIURB","","null","<img src=""img/food1.png"" style=""width:200px;border:14px solid red;"">","null","","","","","","","","","",""
"","image-keyboard-response","251","84560","0.0-340.0","3RYC5T2D74F2225U9D2NOPR6KR9PRG","A3LIRS1WMRIP9P","36U4VBVNQOZD8NFWZXWF9CIHKRIURB","","160","img/food5.png","75","160","2","1","","2","1","1,0.5,0,1,0.5,0,0.5,0,1","0,1,0.5,0,1,0.5,1,0.5,0","3",""
"","html-keyboard-response","252","84861","0.0-341.0","3RYC5T2D74F2225U9D2NOPR6KR9PRG","A3LIRS1WMRIP9P","36U4VBVNQOZD8NFWZXWF9CIHKRIURB","","null","<img src=""img/food5.png"" style=""width:200px; border:14px solid green;"">","null","","","","","","","","","",""
"","image-keyboard-response","253","85011","0.0-342.0","3RYC5T2D74F2225U9D2NOPR6KR9PRG","A3LIRS1WMRIP9P","36U4VBVNQOZD8NFWZXWF9CIHKRIURB","","149","img/food5.png","74","150","1","0","","2","1","1,0.5,0,1,0.5,0,0.5,0,1","0,1,0.5,0,1,0.5,1,0.5,0","3",""
"","html-keyboard-response","254","85328","0.0-343.0","3RYC5T2D74F2225U9D2NOPR6KR9PRG","A3LIRS1WMRIP9P","36U4VBVNQOZD8NFWZXWF9CIHKRIURB","","null","<img src=""img/food5.png"" style=""width:200px;border:14px solid red;"">","null","","","","","","","","","",""
"","image-keyboard-response","255","85339","0.0-344.0","3RYC5T2D74F2225U9D2NOPR6KR9PRG","A3LIRS1WMRIP9P","36U4VBVNQOZD8NFWZXWF9CIHKRIURB","","9","img/food1.png","74","10","1","1","","3","1","1,0.5,0,1,0.5,0,0.5,0,1","0,1,0.5,0,1,0.5,1,0.5,0","3",""
"","html-keyboard-response","256","85641","0.0-345.0","3RYC5T2D74F2225U9D2NOPR6KR9PRG","A3LIRS1WMRIP9P","36U4VBVNQOZD8NFWZXWF9CIHKRIURB","","null","<img src=""img/food1.png"" style=""width:200px; border:14px solid green;"">","null","","","","","","","","","",""
"","image-keyboard-response","257","85821","0.0-346.0","3RYC5T2D74F2225U9D2NOPR6KR9PRG","A3LIRS1WMRIP9P","36U4VBVNQOZD8NFWZXWF9CIHKRIURB","","179","img/food6.png","76","180","3","0","","1","1","1,0.5,0,1,0.5,0,0.5,0,1","0,1,0.5,0,1,0.5,1,0.5,0","3",""
"","html-keyboard-response","258","86122","0.0-347.0","3RYC5T2D74F2225U9D2NOPR6KR9PRG","A3LIRS1WMRIP9P","36U4VBVNQOZD8NFWZXWF9CIHKRIURB","","null","<img src=""img/food6.png"" style=""width:200px;border:14px solid red;"">","null","","","","","","","","","",""
"","image-keyboard-response","259","86260","0.0-348.0","3RYC5T2D74F2225U9D2NOPR6KR9PRG","A3LIRS1WMRIP9P","36U4VBVNQOZD8NFWZXWF9CIHKRIURB","","138","img/food1.png","74","139","1","1","","3","1","1,0.5,0,1,0.5,0,0.5,0,1","0,1,0.5,0,1,0.5,1,0.5,0","3",""
"","html-keyboard-response","260","86561","0.0-349.0","3RYC5T2D74F2225U9D2NOPR6KR9PRG","A3LIRS1WMRIP9P","36U4VBVNQOZD8NFWZXWF9CIHKRIURB","","null","<img src=""img/food1.png"" style=""width:200px; border:14px solid green;"">","null","","","","","","","","","",""
"","image-keyboard-response","261","86570","0.0-350.0","3RYC5T2D74F2225U9D2NOPR6KR9PRG","A3LIRS1WMRIP9P","36U4VBVNQOZD8NFWZXWF9CIHKRIURB","","9","img/food5.png","76","9","3","0","","2","1","1,0.5,0,1,0.5,0,0.5,0,1","0,1,0.5,0,1,0.5,1,0.5,0","3",""
"","html-keyboard-response","262","86870","0.0-351.0","3RYC5T2D74F2225U9D2NOPR6KR9PRG","A3LIRS1WMRIP9P","36U4VBVNQOZD8NFWZXWF9CIHKRIURB","","null","<img src=""img/food5.png"" style=""width:200px;border:14px solid red;"">","null","","","","","","","","","",""
"","image-keyboard-response","263","87090","0.0-352.0","3RYC5T2D74F2225U9D2NOPR6KR9PRG","A3LIRS1WMRIP9P","36U4VBVNQOZD8NFWZXWF9CIHKRIURB","","220","img/food1.png","75","220","2","1","","3","1","1,0.5,0,1,0.5,0,0.5,0,1","0,1,0.5,0,1,0.5,1,0.5,0","3",""
"","html-keyboard-response","264","87391","0.0-353.0","3RYC5T2D74F2225U9D2NOPR6KR9PRG","A3LIRS1WMRIP9P","36U4VBVNQOZD8NFWZXWF9CIHKRIURB","","null","<img src=""img/food1.png"" style=""width:200px; border:14px solid green;"">","null","","","","","","","","","",""
"","image-keyboard-response","265","87581","0.0-354.0","3RYC5T2D74F2225U9D2NOPR6KR9PRG","A3LIRS1WMRIP9P","36U4VBVNQOZD8NFWZXWF9CIHKRIURB","","189","img/food6.png","74","190","1","0","","1","1","1,0.5,0,1,0.5,0,0.5,0,1","0,1,0.5,0,1,0.5,1,0.5,0","3",""
"","html-keyboard-response","266","87882","0.0-355.0","3RYC5T2D74F2225U9D2NOPR6KR9PRG","A3LIRS1WMRIP9P","36U4VBVNQOZD8NFWZXWF9CIHKRIURB","","null","<img src=""img/food6.png"" style=""width:200px;border:14px solid red;"">","null","","","","","","","","","",""
"","image-keyboard-response","267","87920","0.0-356.0","3RYC5T2D74F2225U9D2NOPR6KR9PRG","A3LIRS1WMRIP9P","36U4VBVNQOZD8NFWZXWF9CIHKRIURB","","37","img/food1.png","75","39","2","1","","3","1","1,0.5,0,1,0.5,0,0.5,0,1","0,1,0.5,0,1,0.5,1,0.5,0","3",""
"","html-keyboard-response","268","88221","0.0-357.0","3RYC5T2D74F2225U9D2NOPR6KR9PRG","A3LIRS1WMRIP9P","36U4VBVNQOZD8NFWZXWF9CIHKRIURB","","null","<img src=""img/food1.png"" style=""width:200px; border:14px solid green;"">","null","","","","","","","","","",""
"","image-keyboard-response","269","88481","0.0-358.0","3RYC5T2D74F2225U9D2NOPR6KR9PRG","A3LIRS1WMRIP9P","36U4VBVNQOZD8NFWZXWF9CIHKRIURB","","259","img/food1.png","76","260","3","0","","3","1","1,0.5,0,1,0.5,0,0.5,0,1","0,1,0.5,0,1,0.5,1,0.5,0","3",""
"","html-keyboard-response","270","88785","0.0-359.0","3RYC5T2D74F2225U9D2NOPR6KR9PRG","A3LIRS1WMRIP9P","36U4VBVNQOZD8NFWZXWF9CIHKRIURB","","null","<img src=""img/food1.png"" style=""width:200px;border:14px solid red;"">","null","","","","","","","","","",""
"","image-keyboard-response","271","88815","0.0-360.0","3RYC5T2D74F2225U9D2NOPR6KR9PRG","A3LIRS1WMRIP9P","36U4VBVNQOZD8NFWZXWF9CIHKRIURB","","28","img/food5.png","76","29","3","0","","2","1","1,0.5,0,1,0.5,0,0.5,0,1","0,1,0.5,0,1,0.5,1,0.5,0","3",""
"","html-keyboard-response","272","89117","0.0-361.0","3RYC5T2D74F2225U9D2NOPR6KR9PRG","A3LIRS1WMRIP9P","36U4VBVNQOZD8NFWZXWF9CIHKRIURB","","null","<img src=""img/food5.png"" style=""width:200px;border:14px solid red;"">","null","","","","","","","","","",""
"","image-keyboard-response","273","89351","0.0-362.0","3RYC5T2D74F2225U9D2NOPR6KR9PRG","A3LIRS1WMRIP9P","36U4VBVNQOZD8NFWZXWF9CIHKRIURB","","233","img/food6.png","75","234","2","1","","1","1","1,0.5,0,1,0.5,0,0.5,0,1","0,1,0.5,0,1,0.5,1,0.5,0","3",""
"","html-keyboard-response","274","89652","0.0-363.0","3RYC5T2D74F2225U9D2NOPR6KR9PRG","A3LIRS1WMRIP9P","36U4VBVNQOZD8NFWZXWF9CIHKRIURB","","null","<img src=""img/food6.png"" style=""width:200px; border:14px solid green;"">","null","","","","","","","","","",""
"","image-keyboard-response","275","89861","0.0-364.0","3RYC5T2D74F2225U9D2NOPR6KR9PRG","A3LIRS1WMRIP9P","36U4VBVNQOZD8NFWZXWF9CIHKRIURB","","208","img/food5.png","76","209","3","0","","2","1","1,0.5,0,1,0.5,0,0.5,0,1","0,1,0.5,0,1,0.5,1,0.5,0","3",""
"","html-keyboard-response","276","90164","0.0-365.0","3RYC5T2D74F2225U9D2NOPR6KR9PRG","A3LIRS1WMRIP9P","36U4VBVNQOZD8NFWZXWF9CIHKRIURB","","null","<img src=""img/food5.png"" style=""width:200px;border:14px solid red;"">","null","","","","","","","","","",""
"","image-keyboard-response","277","90321","0.0-366.0","3RYC5T2D74F2225U9D2NOPR6KR9PRG","A3LIRS1WMRIP9P","36U4VBVNQOZD8NFWZXWF9CIHKRIURB","","156","img/food6.png","76","157","3","1","","1","1","1,0.5,0,1,0.5,0,0.5,0,1","0,1,0.5,0,1,0.5,1,0.5,0","3",""
"","html-keyboard-response","278","90622","0.0-367.0","3RYC5T2D74F2225U9D2NOPR6KR9PRG","A3LIRS1WMRIP9P","36U4VBVNQOZD8NFWZXWF9CIHKRIURB","","null","<img src=""img/food6.png"" style=""width:200px; border:14px solid green;"">","null","","","","","","","","","",""
"","image-keyboard-response","279","90800","0.0-368.0","3RYC5T2D74F2225U9D2NOPR6KR9PRG","A3LIRS1WMRIP9P","36U4VBVNQOZD8NFWZXWF9CIHKRIURB","","177","img/food5.png","76","178","3","1","","2","1","1,0.5,0,1,0.5,0,0.5,0,1","0,1,0.5,0,1,0.5,1,0.5,0","3",""
"","html-keyboard-response","280","91102","0.0-369.0","3RYC5T2D74F2225U9D2NOPR6KR9PRG","A3LIRS1WMRIP9P","36U4VBVNQOZD8NFWZXWF9CIHKRIURB","","null","<img src=""img/food5.png"" style=""width:200px; border:14px solid green;"">","null","","","","","","","","","",""
"","image-keyboard-response","281","91190","0.0-370.0","3RYC5T2D74F2225U9D2NOPR6KR9PRG","A3LIRS1WMRIP9P","36U4VBVNQOZD8NFWZXWF9CIHKRIURB","","87","img/food6.png","75","88","2","1","","1","1","1,0.5,0,1,0.5,0,0.5,0,1","0,1,0.5,0,1,0.5,1,0.5,0","3",""
"","html-keyboard-response","282","91493","0.0-371.0","3RYC5T2D74F2225U9D2NOPR6KR9PRG","A3LIRS1WMRIP9P","36U4VBVNQOZD8NFWZXWF9CIHKRIURB","","null","<img src=""img/food6.png"" style=""width:200px; border:14px solid green;"">","null","","","","","","","","","",""
"","image-keyboard-response","283","91640","0.0-372.0","3RYC5T2D74F2225U9D2NOPR6KR9PRG","A3LIRS1WMRIP9P","36U4VBVNQOZD8NFWZXWF9CIHKRIURB","","145","img/food1.png","74","146","1","1","","3","1","1,0.5,0,1,0.5,0,0.5,0,1","0,1,0.5,0,1,0.5,1,0.5,0","3",""
"","html-keyboard-response","284","91942","0.0-373.0","3RYC5T2D74F2225U9D2NOPR6KR9PRG","A3LIRS1WMRIP9P","36U4VBVNQOZD8NFWZXWF9CIHKRIURB","","null","<img src=""img/food1.png"" style=""width:200px; border:14px solid green;"">","null","","","","","","","","","",""
"","image-keyboard-response","285","92161","0.0-374.0","3RYC5T2D74F2225U9D2NOPR6KR9PRG","A3LIRS1WMRIP9P","36U4VBVNQOZD8NFWZXWF9CIHKRIURB","","218","img/food6.png","76","219","3","1","","1","1","1,0.5,0,1,0.5,0,0.5,0,1","0,1,0.5,0,1,0.5,1,0.5,0","3",""
"","html-keyboard-response","286","92463","0.0-375.0","3RYC5T2D74F2225U9D2NOPR6KR9PRG","A3LIRS1WMRIP9P","36U4VBVNQOZD8NFWZXWF9CIHKRIURB","","null","<img src=""img/food6.png"" style=""width:200px; border:14px solid green;"">","null","","","","","","","","","",""
"","image-keyboard-response","287","92652","0.0-376.0","3RYC5T2D74F2225U9D2NOPR6KR9PRG","A3LIRS1WMRIP9P","36U4VBVNQOZD8NFWZXWF9CIHKRIURB","","188","img/food5.png","74","189","1","0","","2","1","1,0.5,0,1,0.5,0,0.5,0,1","0,1,0.5,0,1,0.5,1,0.5,0","3",""
"","html-keyboard-response","288","92954","0.0-377.0","3RYC5T2D74F2225U9D2NOPR6KR9PRG","A3LIRS1WMRIP9P","36U4VBVNQOZD8NFWZXWF9CIHKRIURB","","null","<img src=""img/food5.png"" style=""width:200px;border:14px solid red;"">","null","","","","","","","","","",""
"","image-keyboard-response","289","92969","0.0-378.0","3RYC5T2D74F2225U9D2NOPR6KR9PRG","A3LIRS1WMRIP9P","36U4VBVNQOZD8NFWZXWF9CIHKRIURB","","14","img/food5.png","76","16","3","0","","2","1","1,0.5,0,1,0.5,0,0.5,0,1","0,1,0.5,0,1,0.5,1,0.5,0","3",""
"","html-keyboard-response","290","93270","0.0-379.0","3RYC5T2D74F2225U9D2NOPR6KR9PRG","A3LIRS1WMRIP9P","36U4VBVNQOZD8NFWZXWF9CIHKRIURB","","null","<img src=""img/food5.png"" style=""width:200px;border:14px solid red;"">","null","","","","","","","","","",""
"","image-keyboard-response","291","93470","0.0-380.0","3RYC5T2D74F2225U9D2NOPR6KR9PRG","A3LIRS1WMRIP9P","36U4VBVNQOZD8NFWZXWF9CIHKRIURB","","199","img/food6.png","75","200","2","1","","1","1","1,0.5,0,1,0.5,0,0.5,0,1","0,1,0.5,0,1,0.5,1,0.5,0","3",""
"","html-keyboard-response","292","93771","0.0-381.0","3RYC5T2D74F2225U9D2NOPR6KR9PRG","A3LIRS1WMRIP9P","36U4VBVNQOZD8NFWZXWF9CIHKRIURB","","null","<img src=""img/food6.png"" style=""width:200px; border:14px solid green;"">","null","","","","","","","","","",""
"","image-keyboard-response","293","93941","0.0-382.0","3RYC5T2D74F2225U9D2NOPR6KR9PRG","A3LIRS1WMRIP9P","36U4VBVNQOZD8NFWZXWF9CIHKRIURB","","169","img/food1.png","75","170","2","0","","3","1","1,0.5,0,1,0.5,0,0.5,0,1","0,1,0.5,0,1,0.5,1,0.5,0","3",""
"","html-keyboard-response","294","94242","0.0-383.0","3RYC5T2D74F2225U9D2NOPR6KR9PRG","A3LIRS1WMRIP9P","36U4VBVNQOZD8NFWZXWF9CIHKRIURB","","null","<img src=""img/food1.png"" style=""width:200px;border:14px solid red;"">","null","","","","","","","","","",""
"","image-keyboard-response","295","94281","0.0-384.0","3RYC5T2D74F2225U9D2NOPR6KR9PRG","A3LIRS1WMRIP9P","36U4VBVNQOZD8NFWZXWF9CIHKRIURB","","38","img/food6.png","76","39","3","1","","1","1","1,0.5,0,1,0.5,0,0.5,0,1","0,1,0.5,0,1,0.5,1,0.5,0","3",""
"","html-keyboard-response","296","94582","0.0-385.0","3RYC5T2D74F2225U9D2NOPR6KR9PRG","A3LIRS1WMRIP9P","36U4VBVNQOZD8NFWZXWF9CIHKRIURB","","null","<img src=""img/food6.png"" style=""width:200px; border:14px solid green;"">","null","","","","","","","","","",""
"","image-keyboard-response","297","94741","0.0-386.0","3RYC5T2D74F2225U9D2NOPR6KR9PRG","A3LIRS1WMRIP9P","36U4VBVNQOZD8NFWZXWF9CIHKRIURB","","157","img/food6.png","74","159","1","0","","1","1","1,0.5,0,1,0.5,0,0.5,0,1","0,1,0.5,0,1,0.5,1,0.5,0","3",""
"","html-keyboard-response","298","95042","0.0-387.0","3RYC5T2D74F2225U9D2NOPR6KR9PRG","A3LIRS1WMRIP9P","36U4VBVNQOZD8NFWZXWF9CIHKRIURB","","null","<img src=""img/food6.png"" style=""width:200px;border:14px solid red;"">","null","","","","","","","","","",""
"","image-keyboard-response","299","95050","0.0-388.0","3RYC5T2D74F2225U9D2NOPR6KR9PRG","A3LIRS1WMRIP9P","36U4VBVNQOZD8NFWZXWF9CIHKRIURB","","7","img/food6.png","76","9","3","0","","1","1","1,0.5,0,1,0.5,0,0.5,0,1","0,1,0.5,0,1,0.5,1,0.5,0","3",""
"","html-keyboard-response","300","95352","0.0-389.0","3RYC5T2D74F2225U9D2NOPR6KR9PRG","A3LIRS1WMRIP9P","36U4VBVNQOZD8NFWZXWF9CIHKRIURB","","null","<img src=""img/food6.png"" style=""width:200px;border:14px solid red;"">","null","","","","","","","","","",""
"","image-keyboard-response","301","95481","0.0-390.0","3RYC5T2D74F2225U9D2NOPR6KR9PRG","A3LIRS1WMRIP9P","36U4VBVNQOZD8NFWZXWF9CIHKRIURB","","128","img/food6.png","75","128","2","1","","1","1","1,0.5,0,1,0.5,0,0.5,0,1","0,1,0.5,0,1,0.5,1,0.5,0","3",""
"","html-keyboard-response","302","95782","0.0-391.0","3RYC5T2D74F2225U9D2NOPR6KR9PRG","A3LIRS1WMRIP9P","36U4VBVNQOZD8NFWZXWF9CIHKRIURB","","null","<img src=""img/food6.png"" style=""width:200px; border:14px solid green;"">","null","","","","","","","","","",""
"","image-keyboard-response","303","96029","0.0-392.0","3RYC5T2D74F2225U9D2NOPR6KR9PRG","A3LIRS1WMRIP9P","36U4VBVNQOZD8NFWZXWF9CIHKRIURB","","247","img/food1.png","75","247","2","0","","3","1","1,0.5,0,1,0.5,0,0.5,0,1","0,1,0.5,0,1,0.5,1,0.5,0","3",""
"","html-keyboard-response","304","96330","0.0-393.0","3RYC5T2D74F2225U9D2NOPR6KR9PRG","A3LIRS1WMRIP9P","36U4VBVNQOZD8NFWZXWF9CIHKRIURB","","null","<img src=""img/food1.png"" style=""width:200px;border:14px solid red;"">","null","","","","","","","","","",""
"","image-keyboard-response","305","96530","0.0-394.0","3RYC5T2D74F2225U9D2NOPR6KR9PRG","A3LIRS1WMRIP9P","36U4VBVNQOZD8NFWZXWF9CIHKRIURB","","200","img/food6.png","75","200","2","1","","1","1","1,0.5,0,1,0.5,0,0.5,0,1","0,1,0.5,0,1,0.5,1,0.5,0","3",""
"","html-keyboard-response","306","96832","0.0-395.0","3RYC5T2D74F2225U9D2NOPR6KR9PRG","A3LIRS1WMRIP9P","36U4VBVNQOZD8NFWZXWF9CIHKRIURB","","null","<img src=""img/food6.png"" style=""width:200px; border:14px solid green;"">","null","","","","","","","","","",""
"","image-keyboard-response","307","96851","0.0-396.0","3RYC5T2D74F2225U9D2NOPR6KR9PRG","A3LIRS1WMRIP9P","36U4VBVNQOZD8NFWZXWF9CIHKRIURB","","19","img/food5.png","76","19","3","0","","2","1","1,0.5,0,1,0.5,0,0.5,0,1","0,1,0.5,0,1,0.5,1,0.5,0","3",""
"","html-keyboard-response","308","97153","0.0-397.0","3RYC5T2D74F2225U9D2NOPR6KR9PRG","A3LIRS1WMRIP9P","36U4VBVNQOZD8NFWZXWF9CIHKRIURB","","null","<img src=""img/food5.png"" style=""width:200px;border:14px solid red;"">","null","","","","","","","","","",""
"","image-keyboard-response","309","97581","0.0-398.0","3RYC5T2D74F2225U9D2NOPR6KR9PRG","A3LIRS1WMRIP9P","36U4VBVNQOZD8NFWZXWF9CIHKRIURB","","427","img/food6.png","76","428","3","1","","1","1","1,0.5,0,1,0.5,0,0.5,0,1","0,1,0.5,0,1,0.5,1,0.5,0","3",""
"","html-keyboard-response","310","97883","0.0-399.0","3RYC5T2D74F2225U9D2NOPR6KR9PRG","A3LIRS1WMRIP9P","36U4VBVNQOZD8NFWZXWF9CIHKRIURB","","null","<img src=""img/food6.png"" style=""width:200px; border:14px solid green;"">","null","","","","","","","","","",""
"","image-keyboard-response","311","98010","0.0-400.0","3RYC5T2D74F2225U9D2NOPR6KR9PRG","A3LIRS1WMRIP9P","36U4VBVNQOZD8NFWZXWF9CIHKRIURB","","126","img/food6.png","74","128","1","0","","1","1","1,0.5,0,1,0.5,0,0.5,0,1","0,1,0.5,0,1,0.5,1,0.5,0","3",""
"","html-keyboard-response","312","98312","0.0-401.0","3RYC5T2D74F2225U9D2NOPR6KR9PRG","A3LIRS1WMRIP9P","36U4VBVNQOZD8NFWZXWF9CIHKRIURB","","null","<img src=""img/food6.png"" style=""width:200px;border:14px solid red;"">","null","","","","","","","","","",""
"","image-keyboard-response","313","98360","0.0-402.0","3RYC5T2D74F2225U9D2NOPR6KR9PRG","A3LIRS1WMRIP9P","36U4VBVNQOZD8NFWZXWF9CIHKRIURB","","48","img/food5.png","76","48","3","0","","2","1","1,0.5,0,1,0.5,0,0.5,0,1","0,1,0.5,0,1,0.5,1,0.5,0","3",""
"","html-keyboard-response","314","98661","0.0-403.0","3RYC5T2D74F2225U9D2NOPR6KR9PRG","A3LIRS1WMRIP9P","36U4VBVNQOZD8NFWZXWF9CIHKRIURB","","null","<img src=""img/food5.png"" style=""width:200px;border:14px solid red;"">","null","","","","","","","","","",""
"","image-keyboard-response","315","98810","0.0-404.0","3RYC5T2D74F2225U9D2NOPR6KR9PRG","A3LIRS1WMRIP9P","36U4VBVNQOZD8NFWZXWF9CIHKRIURB","","148","img/food1.png","74","148","1","1","","3","1","1,0.5,0,1,0.5,0,0.5,0,1","0,1,0.5,0,1,0.5,1,0.5,0","3",""
"","html-keyboard-response","316","99112","0.0-405.0","3RYC5T2D74F2225U9D2NOPR6KR9PRG","A3LIRS1WMRIP9P","36U4VBVNQOZD8NFWZXWF9CIHKRIURB","","null","<img src=""img/food1.png"" style=""width:200px; border:14px solid green;"">","null","","","","","","","","","",""
"","image-keyboard-response","317","99331","0.0-406.0","3RYC5T2D74F2225U9D2NOPR6KR9PRG","A3LIRS1WMRIP9P","36U4VBVNQOZD8NFWZXWF9CIHKRIURB","","218","img/food5.png","76","219","3","1","","2","1","1,0.5,0,1,0.5,0,0.5,0,1","0,1,0.5,0,1,0.5,1,0.5,0","3",""
"","html-keyboard-response","318","99632","0.0-407.0","3RYC5T2D74F2225U9D2NOPR6KR9PRG","A3LIRS1WMRIP9P","36U4VBVNQOZD8NFWZXWF9CIHKRIURB","","null","<img src=""img/food5.png"" style=""width:200px; border:14px solid green;"">","null","","","","","","","","","",""
"","image-keyboard-response","319","99830","0.0-408.0","3RYC5T2D74F2225U9D2NOPR6KR9PRG","A3LIRS1WMRIP9P","36U4VBVNQOZD8NFWZXWF9CIHKRIURB","","197","img/food1.png","75","198","2","0","","3","1","1,0.5,0,1,0.5,0,0.5,0,1","0,1,0.5,0,1,0.5,1,0.5,0","3",""
"","html-keyboard-response","320","100133","0.0-409.0","3RYC5T2D74F2225U9D2NOPR6KR9PRG","A3LIRS1WMRIP9P","36U4VBVNQOZD8NFWZXWF9CIHKRIURB","","null","<img src=""img/food1.png"" style=""width:200px;border:14px solid red;"">","null","","","","","","","","","",""
"","image-keyboard-response","321","100301","0.0-410.0","3RYC5T2D74F2225U9D2NOPR6KR9PRG","A3LIRS1WMRIP9P","36U4VBVNQOZD8NFWZXWF9CIHKRIURB","","168","img/food1.png","75","168","2","0","","3","1","1,0.5,0,1,0.5,0,0.5,0,1","0,1,0.5,0,1,0.5,1,0.5,0","3",""
"","html-keyboard-response","322","100603","0.0-411.0","3RYC5T2D74F2225U9D2NOPR6KR9PRG","A3LIRS1WMRIP9P","36U4VBVNQOZD8NFWZXWF9CIHKRIURB","","null","<img src=""img/food1.png"" style=""width:200px;border:14px solid red;"">","null","","","","","","","","","",""
"","image-keyboard-response","323","100791","0.0-412.0","3RYC5T2D74F2225U9D2NOPR6KR9PRG","A3LIRS1WMRIP9P","36U4VBVNQOZD8NFWZXWF9CIHKRIURB","","187","img/food1.png","74","188","1","1","","3","1","1,0.5,0,1,0.5,0,0.5,0,1","0,1,0.5,0,1,0.5,1,0.5,0","3",""
"","html-keyboard-response","324","101092","0.0-413.0","3RYC5T2D74F2225U9D2NOPR6KR9PRG","A3LIRS1WMRIP9P","36U4VBVNQOZD8NFWZXWF9CIHKRIURB","","null","<img src=""img/food1.png"" style=""width:200px; border:14px solid green;"">","null","","","","","","","","","",""
"","image-keyboard-response","325","101333","0.0-414.0","3RYC5T2D74F2225U9D2NOPR6KR9PRG","A3LIRS1WMRIP9P","36U4VBVNQOZD8NFWZXWF9CIHKRIURB","","239","img/food1.png","75","241","2","1","","3","1","1,0.5,0,1,0.5,0,0.5,0,1","0,1,0.5,0,1,0.5,1,0.5,0","3",""
"","html-keyboard-response","326","101635","0.0-415.0","3RYC5T2D74F2225U9D2NOPR6KR9PRG","A3LIRS1WMRIP9P","36U4VBVNQOZD8NFWZXWF9CIHKRIURB","","null","<img src=""img/food1.png"" style=""width:200px; border:14px solid green;"">","null","","","","","","","","","",""
"","image-keyboard-response","327","101644","0.0-416.0","3RYC5T2D74F2225U9D2NOPR6KR9PRG","A3LIRS1WMRIP9P","36U4VBVNQOZD8NFWZXWF9CIHKRIURB","","9","img/food5.png","76","9","3","0","","2","1","1,0.5,0,1,0.5,0,0.5,0,1","0,1,0.5,0,1,0.5,1,0.5,0","3",""
"","html-keyboard-response","328","101946","0.0-417.0","3RYC5T2D74F2225U9D2NOPR6KR9PRG","A3LIRS1WMRIP9P","36U4VBVNQOZD8NFWZXWF9CIHKRIURB","","null","<img src=""img/food5.png"" style=""width:200px;border:14px solid red;"">","null","","","","","","","","","",""
"","image-keyboard-response","329","102135","0.0-418.0","3RYC5T2D74F2225U9D2NOPR6KR9PRG","A3LIRS1WMRIP9P","36U4VBVNQOZD8NFWZXWF9CIHKRIURB","","188","img/food1.png","75","189","2","1","","3","1","1,0.5,0,1,0.5,0,0.5,0,1","0,1,0.5,0,1,0.5,1,0.5,0","3",""
"","html-keyboard-response","330","102437","0.0-419.0","3RYC5T2D74F2225U9D2NOPR6KR9PRG","A3LIRS1WMRIP9P","36U4VBVNQOZD8NFWZXWF9CIHKRIURB","","null","<img src=""img/food1.png"" style=""width:200px; border:14px solid green;"">","null","","","","","","","","","",""
"","image-keyboard-response","331","102444","0.0-420.0","3RYC5T2D74F2225U9D2NOPR6KR9PRG","A3LIRS1WMRIP9P","36U4VBVNQOZD8NFWZXWF9CIHKRIURB","","7","img/food1.png","74","7","1","1","","3","1","1,0.5,0,1,0.5,0,0.5,0,1","0,1,0.5,0,1,0.5,1,0.5,0","3",""
"","html-keyboard-response","332","102744","0.0-421.0","3RYC5T2D74F2225U9D2NOPR6KR9PRG","A3LIRS1WMRIP9P","36U4VBVNQOZD8NFWZXWF9CIHKRIURB","","null","<img src=""img/food1.png"" style=""width:200px; border:14px solid green;"">","null","","","","","","","","","",""
"","image-keyboard-response","333","102860","0.0-422.0","3RYC5T2D74F2225U9D2NOPR6KR9PRG","A3LIRS1WMRIP9P","36U4VBVNQOZD8NFWZXWF9CIHKRIURB","","115","img/food6.png","75","116","2","1","","1","1","1,0.5,0,1,0.5,0,0.5,0,1","0,1,0.5,0,1,0.5,1,0.5,0","3",""
"","html-keyboard-response","334","103161","0.0-423.0","3RYC5T2D74F2225U9D2NOPR6KR9PRG","A3LIRS1WMRIP9P","36U4VBVNQOZD8NFWZXWF9CIHKRIURB","","null","<img src=""img/food6.png"" style=""width:200px; border:14px solid green;"">","null","","","","","","","","","",""
"","image-keyboard-response","335","103171","0.0-424.0","3RYC5T2D74F2225U9D2NOPR6KR9PRG","A3LIRS1WMRIP9P","36U4VBVNQOZD8NFWZXWF9CIHKRIURB","","10","img/food5.png","76","10","3","0","","2","1","1,0.5,0,1,0.5,0,0.5,0,1","0,1,0.5,0,1,0.5,1,0.5,0","3",""
"","html-keyboard-response","336","103473","0.0-425.0","3RYC5T2D74F2225U9D2NOPR6KR9PRG","A3LIRS1WMRIP9P","36U4VBVNQOZD8NFWZXWF9CIHKRIURB","","null","<img src=""img/food5.png"" style=""width:200px;border:14px solid red;"">","null","","","","","","","","","",""
"","image-keyboard-response","337","103601","0.0-426.0","3RYC5T2D74F2225U9D2NOPR6KR9PRG","A3LIRS1WMRIP9P","36U4VBVNQOZD8NFWZXWF9CIHKRIURB","","127","img/food1.png","75","128","2","0","","3","1","1,0.5,0,1,0.5,0,0.5,0,1","0,1,0.5,0,1,0.5,1,0.5,0","3",""
"","html-keyboard-response","338","103903","0.0-427.0","3RYC5T2D74F2225U9D2NOPR6KR9PRG","A3LIRS1WMRIP9P","36U4VBVNQOZD8NFWZXWF9CIHKRIURB","","null","<img src=""img/food1.png"" style=""width:200px;border:14px solid red;"">","null","","","","","","","","","",""
"","image-keyboard-response","339","104180","0.0-428.0","3RYC5T2D74F2225U9D2NOPR6KR9PRG","A3LIRS1WMRIP9P","36U4VBVNQOZD8NFWZXWF9CIHKRIURB","","277","img/food5.png","76","277","3","0","","2","1","1,0.5,0,1,0.5,0,0.5,0,1","0,1,0.5,0,1,0.5,1,0.5,0","3",""
"","html-keyboard-response","340","104481","0.0-429.0","3RYC5T2D74F2225U9D2NOPR6KR9PRG","A3LIRS1WMRIP9P","36U4VBVNQOZD8NFWZXWF9CIHKRIURB","","null","<img src=""img/food5.png"" style=""width:200px;border:14px solid red;"">","null","","","","","","","","","",""
"","image-keyboard-response","341","104631","0.0-430.0","3RYC5T2D74F2225U9D2NOPR6KR9PRG","A3LIRS1WMRIP9P","36U4VBVNQOZD8NFWZXWF9CIHKRIURB","","148","img/food5.png","75","150","2","1","","2","1","1,0.5,0,1,0.5,0,0.5,0,1","0,1,0.5,0,1,0.5,1,0.5,0","3",""
"","html-keyboard-response","342","104933","0.0-431.0","3RYC5T2D74F2225U9D2NOPR6KR9PRG","A3LIRS1WMRIP9P","36U4VBVNQOZD8NFWZXWF9CIHKRIURB","","null","<img src=""img/food5.png"" style=""width:200px; border:14px solid green;"">","null","","","","","","","","","",""
"","image-keyboard-response","343","105171","0.0-432.0","3RYC5T2D74F2225U9D2NOPR6KR9PRG","A3LIRS1WMRIP9P","36U4VBVNQOZD8NFWZXWF9CIHKRIURB","","238","img/food6.png","75","238","2","1","","1","1","1,0.5,0,1,0.5,0,0.5,0,1","0,1,0.5,0,1,0.5,1,0.5,0","3",""
"","html-keyboard-response","344","105472","0.0-433.0","3RYC5T2D74F2225U9D2NOPR6KR9PRG","A3LIRS1WMRIP9P","36U4VBVNQOZD8NFWZXWF9CIHKRIURB","","null","<img src=""img/food6.png"" style=""width:200px; border:14px solid green;"">","null","","","","","","","","","",""
"","image-keyboard-response","345","106360","0.0-434.0","3RYC5T2D74F2225U9D2NOPR6KR9PRG","A3LIRS1WMRIP9P","36U4VBVNQOZD8NFWZXWF9CIHKRIURB","","887","img/food1.png","75","888","2","1","","3","1","1,0.5,0,1,0.5,0,0.5,0,1","0,1,0.5,0,1,0.5,1,0.5,0","3",""
"","html-keyboard-response","346","106661","0.0-435.0","3RYC5T2D74F2225U9D2NOPR6KR9PRG","A3LIRS1WMRIP9P","36U4VBVNQOZD8NFWZXWF9CIHKRIURB","","null","<img src=""img/food1.png"" style=""width:200px; border:14px solid green;"">","null","","","","","","","","","",""
"","image-keyboard-response","347","106781","0.0-436.0","3RYC5T2D74F2225U9D2NOPR6KR9PRG","A3LIRS1WMRIP9P","36U4VBVNQOZD8NFWZXWF9CIHKRIURB","","119","img/food5.png","75","119","2","1","","2","1","1,0.5,0,1,0.5,0,0.5,0,1","0,1,0.5,0,1,0.5,1,0.5,0","3",""
"","html-keyboard-response","348","107082","0.0-437.0","3RYC5T2D74F2225U9D2NOPR6KR9PRG","A3LIRS1WMRIP9P","36U4VBVNQOZD8NFWZXWF9CIHKRIURB","","null","<img src=""img/food5.png"" style=""width:200px; border:14px solid green;"">","null","","","","","","","","","",""
"","image-keyboard-response","349","107200","0.0-438.0","3RYC5T2D74F2225U9D2NOPR6KR9PRG","A3LIRS1WMRIP9P","36U4VBVNQOZD8NFWZXWF9CIHKRIURB","","118","img/food6.png","75","118","2","1","","1","1","1,0.5,0,1,0.5,0,0.5,0,1","0,1,0.5,0,1,0.5,1,0.5,0","3",""
"","html-keyboard-response","350","107502","0.0-439.0","3RYC5T2D74F2225U9D2NOPR6KR9PRG","A3LIRS1WMRIP9P","36U4VBVNQOZD8NFWZXWF9CIHKRIURB","","null","<img src=""img/food6.png"" style=""width:200px; border:14px solid green;"">","null","","","","","","","","","",""
"","image-keyboard-response","351","107521","0.0-440.0","3RYC5T2D74F2225U9D2NOPR6KR9PRG","A3LIRS1WMRIP9P","36U4VBVNQOZD8NFWZXWF9CIHKRIURB","","18","img/food1.png","76","19","3","0","","3","1","1,0.5,0,1,0.5,0,0.5,0,1","0,1,0.5,0,1,0.5,1,0.5,0","3",""
"","html-keyboard-response","352","107823","0.0-441.0","3RYC5T2D74F2225U9D2NOPR6KR9PRG","A3LIRS1WMRIP9P","36U4VBVNQOZD8NFWZXWF9CIHKRIURB","","null","<img src=""img/food1.png"" style=""width:200px;border:14px solid red;"">","null","","","","","","","","","",""
"","image-keyboard-response","353","107992","0.0-442.0","3RYC5T2D74F2225U9D2NOPR6KR9PRG","A3LIRS1WMRIP9P","36U4VBVNQOZD8NFWZXWF9CIHKRIURB","","167","img/food5.png","75","169","2","1","","2","1","1,0.5,0,1,0.5,0,0.5,0,1","0,1,0.5,0,1,0.5,1,0.5,0","3",""
"","html-keyboard-response","354","108294","0.0-443.0","3RYC5T2D74F2225U9D2NOPR6KR9PRG","A3LIRS1WMRIP9P","36U4VBVNQOZD8NFWZXWF9CIHKRIURB","","null","<img src=""img/food5.png"" style=""width:200px; border:14px solid green;"">","null","","","","","","","","","",""
"","image-keyboard-response","355","108450","0.0-444.0","3RYC5T2D74F2225U9D2NOPR6KR9PRG","A3LIRS1WMRIP9P","36U4VBVNQOZD8NFWZXWF9CIHKRIURB","","155","img/food1.png","75","156","2","1","","3","1","1,0.5,0,1,0.5,0,0.5,0,1","0,1,0.5,0,1,0.5,1,0.5,0","3",""
"","html-keyboard-response","356","108752","0.0-445.0","3RYC5T2D74F2225U9D2NOPR6KR9PRG","A3LIRS1WMRIP9P","36U4VBVNQOZD8NFWZXWF9CIHKRIURB","","null","<img src=""img/food1.png"" style=""width:200px; border:14px solid green;"">","null","","","","","","","","","",""
"","image-keyboard-response","357","108971","0.0-446.0","3RYC5T2D74F2225U9D2NOPR6KR9PRG","A3LIRS1WMRIP9P","36U4VBVNQOZD8NFWZXWF9CIHKRIURB","","219","img/food5.png","75","219","2","1","","2","1","1,0.5,0,1,0.5,0,0.5,0,1","0,1,0.5,0,1,0.5,1,0.5,0","3",""
"","html-keyboard-response","358","109272","0.0-447.0","3RYC5T2D74F2225U9D2NOPR6KR9PRG","A3LIRS1WMRIP9P","36U4VBVNQOZD8NFWZXWF9CIHKRIURB","","null","<img src=""img/food5.png"" style=""width:200px; border:14px solid green;"">","null","","","","","","","","","",""
"","image-keyboard-response","359","109480","0.0-448.0","3RYC5T2D74F2225U9D2NOPR6KR9PRG","A3LIRS1WMRIP9P","36U4VBVNQOZD8NFWZXWF9CIHKRIURB","","207","img/food5.png","75","207","2","1","","2","1","1,0.5,0,1,0.5,0,0.5,0,1","0,1,0.5,0,1,0.5,1,0.5,0","3",""
"","html-keyboard-response","360","109782","0.0-449.0","3RYC5T2D74F2225U9D2NOPR6KR9PRG","A3LIRS1WMRIP9P","36U4VBVNQOZD8NFWZXWF9CIHKRIURB","","null","<img src=""img/food5.png"" style=""width:200px; border:14px solid green;"">","null","","","","","","","","","",""
"","image-keyboard-response","361","110011","0.0-450.0","3RYC5T2D74F2225U9D2NOPR6KR9PRG","A3LIRS1WMRIP9P","36U4VBVNQOZD8NFWZXWF9CIHKRIURB","","228","img/food6.png","75","229","2","1","","1","1","1,0.5,0,1,0.5,0,0.5,0,1","0,1,0.5,0,1,0.5,1,0.5,0","3",""
"","html-keyboard-response","362","110313","0.0-451.0","3RYC5T2D74F2225U9D2NOPR6KR9PRG","A3LIRS1WMRIP9P","36U4VBVNQOZD8NFWZXWF9CIHKRIURB","","null","<img src=""img/food6.png"" style=""width:200px; border:14px solid green;"">","null","","","","","","","","","",""
"","image-keyboard-response","363","110451","0.0-452.0","3RYC5T2D74F2225U9D2NOPR6KR9PRG","A3LIRS1WMRIP9P","36U4VBVNQOZD8NFWZXWF9CIHKRIURB","","137","img/food6.png","75","138","2","1","","1","1","1,0.5,0,1,0.5,0,0.5,0,1","0,1,0.5,0,1,0.5,1,0.5,0","3",""
"","html-keyboard-response","364","110753","0.0-453.0","3RYC5T2D74F2225U9D2NOPR6KR9PRG","A3LIRS1WMRIP9P","36U4VBVNQOZD8NFWZXWF9CIHKRIURB","","null","<img src=""img/food6.png"" style=""width:200px; border:14px solid green;"">","null","","","","","","","","","",""
"","html-keyboard-response","365","113221","0.0-454.0","3RYC5T2D74F2225U9D2NOPR6KR9PRG","A3LIRS1WMRIP9P","36U4VBVNQOZD8NFWZXWF9CIHKRIURB","","","","","","","","","","","","","",""
"","instructions","366","114901","0.0-455.0","3RYC5T2D74F2225U9D2NOPR6KR9PRG","A3LIRS1WMRIP9P","36U4VBVNQOZD8NFWZXWF9CIHKRIURB","[{""page_index"":0,""viewing_time"":1679}]","1680","","","","","","","","","","","",""
"","survey-text","367","119423","0.0-456.0","3RYC5T2D74F2225U9D2NOPR6KR9PRG","A3LIRS1WMRIP9P","36U4VBVNQOZD8NFWZXWF9CIHKRIURB","","4515","","","","","","","","","","","","{""Q0"":""A3LIRS1WMRIP9P""}"
