"success","trial_type","trial_index","time_elapsed","internal_node_id","assignmentID","mturkID","hitID","view_history","rt","stimulus","key_press","reactionTime","a","r","s","cond","reward_cond","reward_cond_actual","reward_matrix_idx","warning","responses"
"true","fullscreen","0","3250","0.0-0.0","3AMYWKA6YC8RVJV92PMAOUVKE1M6O9","A3NMU6AVMQ0QDB","30UZJB2POHY4464FN6NBJ2NLFWF354","","","","","","","","","","","","","",""
"","instructions","1","16319","0.0-1.0","3AMYWKA6YC8RVJV92PMAOUVKE1M6O9","A3NMU6AVMQ0QDB","30UZJB2POHY4464FN6NBJ2NLFWF354","[{""page_index"":0,""viewing_time"":2424.899999976158},{""page_index"":1,""viewing_time"":1410.2000000476837},{""page_index"":2,""viewing_time"":1767},{""page_index"":3,""viewing_time"":2219.7999999523163},{""page_index"":4,""viewing_time"":2034.1000000238419},{""page_index"":5,""viewing_time"":1370.7000000476837},{""page_index"":6,""viewing_time"":1840.6999999284744}]","13067.700000047684","","","","","","","","","","","",""
"","image-keyboard-response","2","17128","0.0-2.0","3AMYWKA6YC8RVJV92PMAOUVKE1M6O9","A3NMU6AVMQ0QDB","30UZJB2POHY4464FN6NBJ2NLFWF354","","806.6000000238419","img/food3.png","75","807.8000000715256","2","1","1","1","1,0.5,0,1,0.5,0,0.5,0,1","1,0.5,0,1,0.5,0,0.5,0,1","1","",""
"","html-keyboard-response","3","17433","0.0-3.0","3AMYWKA6YC8RVJV92PMAOUVKE1M6O9","A3NMU6AVMQ0QDB","30UZJB2POHY4464FN6NBJ2NLFWF354","","null","<img src=""img/food3.png"" style=""width:200px; border:14px solid green;"">","null","","","","","","","","","",""
"","image-keyboard-response","4","17599","0.0-4.0","3AMYWKA6YC8RVJV92PMAOUVKE1M6O9","A3NMU6AVMQ0QDB","30UZJB2POHY4464FN6NBJ2NLFWF354","","165","img/food5.png","75","165.80000007152557","2","0","2","1","1,0.5,0,1,0.5,0,0.5,0,1","1,0.5,0,1,0.5,0,0.5,0,1","1","",""
"","html-keyboard-response","5","17902","0.0-5.0","3AMYWKA6YC8RVJV92PMAOUVKE1M6O9","A3NMU6AVMQ0QDB","30UZJB2POHY4464FN6NBJ2NLFWF354","","null","<img src=""img/food5.png"" style=""width:200px;border:14px solid red;"">","null","","","","","","","","","",""
"","image-keyboard-response","6","18104","0.0-6.0","3AMYWKA6YC8RVJV92PMAOUVKE1M6O9","A3NMU6AVMQ0QDB","30UZJB2POHY4464FN6NBJ2NLFWF354","","200.60000002384186","img/food6.png","76","201.39999997615814","3","1","3","1","1,0.5,0,1,0.5,0,0.5,0,1","1,0.5,0,1,0.5,0,0.5,0,1","1","",""
"","html-keyboard-response","7","18409","0.0-7.0","3AMYWKA6YC8RVJV92PMAOUVKE1M6O9","A3NMU6AVMQ0QDB","30UZJB2POHY4464FN6NBJ2NLFWF354","","null","<img src=""img/food6.png"" style=""width:200px; border:14px solid green;"">","null","","","","","","","","","",""
"","image-keyboard-response","8","18550","0.0-8.0","3AMYWKA6YC8RVJV92PMAOUVKE1M6O9","A3NMU6AVMQ0QDB","30UZJB2POHY4464FN6NBJ2NLFWF354","","140","img/food3.png","75","141","2","1","1","1","1,0.5,0,1,0.5,0,0.5,0,1","1,0.5,0,1,0.5,0,0.5,0,1","1","",""
"","html-keyboard-response","9","18853","0.0-9.0","3AMYWKA6YC8RVJV92PMAOUVKE1M6O9","A3NMU6AVMQ0QDB","30UZJB2POHY4464FN6NBJ2NLFWF354","","null","<img src=""img/food3.png"" style=""width:200px; border:14px solid green;"">","null","","","","","","","","","",""
"","image-keyboard-response","10","19007","0.0-10.0","3AMYWKA6YC8RVJV92PMAOUVKE1M6O9","A3NMU6AVMQ0QDB","30UZJB2POHY4464FN6NBJ2NLFWF354","","152.5","img/food5.png","74","153.30000007152557","1","1","2","1","1,0.5,0,1,0.5,0,0.5,0,1","1,0.5,0,1,0.5,0,0.5,0,1","1","",""
"","html-keyboard-response","11","19310","0.0-11.0","3AMYWKA6YC8RVJV92PMAOUVKE1M6O9","A3NMU6AVMQ0QDB","30UZJB2POHY4464FN6NBJ2NLFWF354","","null","<img src=""img/food5.png"" style=""width:200px; border:14px solid green;"">","null","","","","","","","","","",""
"","image-keyboard-response","12","19397","0.0-12.0","3AMYWKA6YC8RVJV92PMAOUVKE1M6O9","A3NMU6AVMQ0QDB","30UZJB2POHY4464FN6NBJ2NLFWF354","","85.70000004768372","img/food6.png","75","86.60000002384186","2","0","3","1","1,0.5,0,1,0.5,0,0.5,0,1","1,0.5,0,1,0.5,0,0.5,0,1","1","",""
"","html-keyboard-response","13","19703","0.0-13.0","3AMYWKA6YC8RVJV92PMAOUVKE1M6O9","A3NMU6AVMQ0QDB","30UZJB2POHY4464FN6NBJ2NLFWF354","","null","<img src=""img/food6.png"" style=""width:200px;border:14px solid red;"">","null","","","","","","","","","",""
"","image-keyboard-response","14","19791","0.0-14.0","3AMYWKA6YC8RVJV92PMAOUVKE1M6O9","A3NMU6AVMQ0QDB","30UZJB2POHY4464FN6NBJ2NLFWF354","","87.70000004768372","img/food5.png","75","88.60000002384186","2","0","2","1","1,0.5,0,1,0.5,0,0.5,0,1","1,0.5,0,1,0.5,0,0.5,0,1","1","",""
"","html-keyboard-response","15","20098","0.0-15.0","3AMYWKA6YC8RVJV92PMAOUVKE1M6O9","A3NMU6AVMQ0QDB","30UZJB2POHY4464FN6NBJ2NLFWF354","","null","<img src=""img/food5.png"" style=""width:200px;border:14px solid red;"">","null","","","","","","","","","",""
"","image-keyboard-response","16","20244","0.0-16.0","3AMYWKA6YC8RVJV92PMAOUVKE1M6O9","A3NMU6AVMQ0QDB","30UZJB2POHY4464FN6NBJ2NLFWF354","","145.29999995231628","img/food3.png","76","146","3","0","1","1","1,0.5,0,1,0.5,0,0.5,0,1","1,0.5,0,1,0.5,0,0.5,0,1","1","",""
"","html-keyboard-response","17","20549","0.0-17.0","3AMYWKA6YC8RVJV92PMAOUVKE1M6O9","A3NMU6AVMQ0QDB","30UZJB2POHY4464FN6NBJ2NLFWF354","","null","<img src=""img/food3.png"" style=""width:200px;border:14px solid red;"">","null","","","","","","","","","",""
"","image-keyboard-response","18","20725","0.0-18.0","3AMYWKA6YC8RVJV92PMAOUVKE1M6O9","A3NMU6AVMQ0QDB","30UZJB2POHY4464FN6NBJ2NLFWF354","","174.69999992847443","img/food3.png","74","175.5","1","1","1","1","1,0.5,0,1,0.5,0,0.5,0,1","1,0.5,0,1,0.5,0,0.5,0,1","1","",""
"","html-keyboard-response","19","21027","0.0-19.0","3AMYWKA6YC8RVJV92PMAOUVKE1M6O9","A3NMU6AVMQ0QDB","30UZJB2POHY4464FN6NBJ2NLFWF354","","null","<img src=""img/food3.png"" style=""width:200px; border:14px solid green;"">","null","","","","","","","","","",""
"","image-keyboard-response","20","21199","0.0-20.0","3AMYWKA6YC8RVJV92PMAOUVKE1M6O9","A3NMU6AVMQ0QDB","30UZJB2POHY4464FN6NBJ2NLFWF354","","170.40000009536743","img/food3.png","75","171.29999995231628","2","1","1","1","1,0.5,0,1,0.5,0,0.5,0,1","1,0.5,0,1,0.5,0,0.5,0,1","1","",""
"","html-keyboard-response","21","21502","0.0-21.0","3AMYWKA6YC8RVJV92PMAOUVKE1M6O9","A3NMU6AVMQ0QDB","30UZJB2POHY4464FN6NBJ2NLFWF354","","null","<img src=""img/food3.png"" style=""width:200px; border:14px solid green;"">","null","","","","","","","","","",""
"","image-keyboard-response","22","21515","0.0-22.0","3AMYWKA6YC8RVJV92PMAOUVKE1M6O9","A3NMU6AVMQ0QDB","30UZJB2POHY4464FN6NBJ2NLFWF354","","11.399999976158142","img/food3.png","75","12.199999928474426","2","1","1","1","1,0.5,0,1,0.5,0,0.5,0,1","1,0.5,0,1,0.5,0,0.5,0,1","1","",""
"","html-keyboard-response","23","21820","0.0-23.0","3AMYWKA6YC8RVJV92PMAOUVKE1M6O9","A3NMU6AVMQ0QDB","30UZJB2POHY4464FN6NBJ2NLFWF354","","null","<img src=""img/food3.png"" style=""width:200px; border:14px solid green;"">","null","","","","","","","","","",""
"","image-keyboard-response","24","21968","0.0-24.0","3AMYWKA6YC8RVJV92PMAOUVKE1M6O9","A3NMU6AVMQ0QDB","30UZJB2POHY4464FN6NBJ2NLFWF354","","146.69999992847443","img/food6.png","75","147.20000004768372","2","0","3","1","1,0.5,0,1,0.5,0,0.5,0,1","1,0.5,0,1,0.5,0,0.5,0,1","1","",""
"","html-keyboard-response","25","22270","0.0-25.0","3AMYWKA6YC8RVJV92PMAOUVKE1M6O9","A3NMU6AVMQ0QDB","30UZJB2POHY4464FN6NBJ2NLFWF354","","null","<img src=""img/food6.png"" style=""width:200px;border:14px solid red;"">","null","","","","","","","","","",""
"","image-keyboard-response","26","22341","0.0-26.0","3AMYWKA6YC8RVJV92PMAOUVKE1M6O9","A3NMU6AVMQ0QDB","30UZJB2POHY4464FN6NBJ2NLFWF354","","69.29999995231628","img/food5.png","75","70.20000004768372","2","1","2","1","1,0.5,0,1,0.5,0,0.5,0,1","1,0.5,0,1,0.5,0,0.5,0,1","1","",""
"","html-keyboard-response","27","22644","0.0-27.0","3AMYWKA6YC8RVJV92PMAOUVKE1M6O9","A3NMU6AVMQ0QDB","30UZJB2POHY4464FN6NBJ2NLFWF354","","null","<img src=""img/food5.png"" style=""width:200px; border:14px solid green;"">","null","","","","","","","","","",""
"","image-keyboard-response","28","22781","0.0-28.0","3AMYWKA6YC8RVJV92PMAOUVKE1M6O9","A3NMU6AVMQ0QDB","30UZJB2POHY4464FN6NBJ2NLFWF354","","136.60000002384186","img/food3.png","76","137.39999997615814","3","0","1","1","1,0.5,0,1,0.5,0,0.5,0,1","1,0.5,0,1,0.5,0,0.5,0,1","1","",""
"","html-keyboard-response","29","23083","0.0-29.0","3AMYWKA6YC8RVJV92PMAOUVKE1M6O9","A3NMU6AVMQ0QDB","30UZJB2POHY4464FN6NBJ2NLFWF354","","null","<img src=""img/food3.png"" style=""width:200px;border:14px solid red;"">","null","","","","","","","","","",""
"","image-keyboard-response","30","23358","0.0-30.0","3AMYWKA6YC8RVJV92PMAOUVKE1M6O9","A3NMU6AVMQ0QDB","30UZJB2POHY4464FN6NBJ2NLFWF354","","274","img/food5.png","75","274.89999997615814","2","1","2","1","1,0.5,0,1,0.5,0,0.5,0,1","1,0.5,0,1,0.5,0,0.5,0,1","1","",""
"","html-keyboard-response","31","23662","0.0-31.0","3AMYWKA6YC8RVJV92PMAOUVKE1M6O9","A3NMU6AVMQ0QDB","30UZJB2POHY4464FN6NBJ2NLFWF354","","null","<img src=""img/food5.png"" style=""width:200px; border:14px solid green;"">","null","","","","","","","","","",""
"","image-keyboard-response","32","23829","0.0-32.0","3AMYWKA6YC8RVJV92PMAOUVKE1M6O9","A3NMU6AVMQ0QDB","30UZJB2POHY4464FN6NBJ2NLFWF354","","165.39999997615814","img/food5.png","75","166.29999995231628","2","1","2","1","1,0.5,0,1,0.5,0,0.5,0,1","1,0.5,0,1,0.5,0,0.5,0,1","1","",""
"","html-keyboard-response","33","24133","0.0-33.0","3AMYWKA6YC8RVJV92PMAOUVKE1M6O9","A3NMU6AVMQ0QDB","30UZJB2POHY4464FN6NBJ2NLFWF354","","null","<img src=""img/food5.png"" style=""width:200px; border:14px solid green;"">","null","","","","","","","","","",""
"","image-keyboard-response","34","24261","0.0-34.0","3AMYWKA6YC8RVJV92PMAOUVKE1M6O9","A3NMU6AVMQ0QDB","30UZJB2POHY4464FN6NBJ2NLFWF354","","127.5","img/food5.png","74","128.10000002384186","1","1","2","1","1,0.5,0,1,0.5,0,0.5,0,1","1,0.5,0,1,0.5,0,0.5,0,1","1","",""
"","html-keyboard-response","35","24563","0.0-35.0","3AMYWKA6YC8RVJV92PMAOUVKE1M6O9","A3NMU6AVMQ0QDB","30UZJB2POHY4464FN6NBJ2NLFWF354","","null","<img src=""img/food5.png"" style=""width:200px; border:14px solid green;"">","null","","","","","","","","","",""
"","image-keyboard-response","36","24669","0.0-36.0","3AMYWKA6YC8RVJV92PMAOUVKE1M6O9","A3NMU6AVMQ0QDB","30UZJB2POHY4464FN6NBJ2NLFWF354","","105.30000007152557","img/food3.png","74","106","1","1","1","1","1,0.5,0,1,0.5,0,0.5,0,1","1,0.5,0,1,0.5,0,0.5,0,1","1","",""
"","html-keyboard-response","37","24971","0.0-37.0","3AMYWKA6YC8RVJV92PMAOUVKE1M6O9","A3NMU6AVMQ0QDB","30UZJB2POHY4464FN6NBJ2NLFWF354","","null","<img src=""img/food3.png"" style=""width:200px; border:14px solid green;"">","null","","","","","","","","","",""
"","image-keyboard-response","38","24995","0.0-38.0","3AMYWKA6YC8RVJV92PMAOUVKE1M6O9","A3NMU6AVMQ0QDB","30UZJB2POHY4464FN6NBJ2NLFWF354","","23.300000071525574","img/food6.png","74","24.100000023841858","1","0","3","1","1,0.5,0,1,0.5,0,0.5,0,1","1,0.5,0,1,0.5,0,0.5,0,1","1","",""
"","html-keyboard-response","39","25298","0.0-39.0","3AMYWKA6YC8RVJV92PMAOUVKE1M6O9","A3NMU6AVMQ0QDB","30UZJB2POHY4464FN6NBJ2NLFWF354","","null","<img src=""img/food6.png"" style=""width:200px;border:14px solid red;"">","null","","","","","","","","","",""
"","image-keyboard-response","40","25333","0.0-40.0","3AMYWKA6YC8RVJV92PMAOUVKE1M6O9","A3NMU6AVMQ0QDB","30UZJB2POHY4464FN6NBJ2NLFWF354","","34.5","img/food3.png","75","35.199999928474426","2","1","1","1","1,0.5,0,1,0.5,0,0.5,0,1","1,0.5,0,1,0.5,0,0.5,0,1","1","",""
"","html-keyboard-response","41","25636","0.0-41.0","3AMYWKA6YC8RVJV92PMAOUVKE1M6O9","A3NMU6AVMQ0QDB","30UZJB2POHY4464FN6NBJ2NLFWF354","","null","<img src=""img/food3.png"" style=""width:200px; border:14px solid green;"">","null","","","","","","","","","",""
"","image-keyboard-response","42","25857","0.0-42.0","3AMYWKA6YC8RVJV92PMAOUVKE1M6O9","A3NMU6AVMQ0QDB","30UZJB2POHY4464FN6NBJ2NLFWF354","","220.39999997615814","img/food6.png","74","221.10000002384186","1","1","3","1","1,0.5,0,1,0.5,0,0.5,0,1","1,0.5,0,1,0.5,0,0.5,0,1","1","",""
"","html-keyboard-response","43","26159","0.0-43.0","3AMYWKA6YC8RVJV92PMAOUVKE1M6O9","A3NMU6AVMQ0QDB","30UZJB2POHY4464FN6NBJ2NLFWF354","","null","<img src=""img/food6.png"" style=""width:200px; border:14px solid green;"">","null","","","","","","","","","",""
"","image-keyboard-response","44","26297","0.0-44.0","3AMYWKA6YC8RVJV92PMAOUVKE1M6O9","A3NMU6AVMQ0QDB","30UZJB2POHY4464FN6NBJ2NLFWF354","","137.10000002384186","img/food3.png","75","137.70000004768372","2","1","1","1","1,0.5,0,1,0.5,0,0.5,0,1","1,0.5,0,1,0.5,0,0.5,0,1","1","",""
"","html-keyboard-response","45","26599","0.0-45.0","3AMYWKA6YC8RVJV92PMAOUVKE1M6O9","A3NMU6AVMQ0QDB","30UZJB2POHY4464FN6NBJ2NLFWF354","","null","<img src=""img/food3.png"" style=""width:200px; border:14px solid green;"">","null","","","","","","","","","",""
"","image-keyboard-response","46","26763","0.0-46.0","3AMYWKA6YC8RVJV92PMAOUVKE1M6O9","A3NMU6AVMQ0QDB","30UZJB2POHY4464FN6NBJ2NLFWF354","","162.39999997615814","img/food6.png","74","163.19999992847443","1","1","3","1","1,0.5,0,1,0.5,0,0.5,0,1","1,0.5,0,1,0.5,0,0.5,0,1","1","",""
"","html-keyboard-response","47","27065","0.0-47.0","3AMYWKA6YC8RVJV92PMAOUVKE1M6O9","A3NMU6AVMQ0QDB","30UZJB2POHY4464FN6NBJ2NLFWF354","","null","<img src=""img/food6.png"" style=""width:200px; border:14px solid green;"">","null","","","","","","","","","",""
"","image-keyboard-response","48","27186","0.0-48.0","3AMYWKA6YC8RVJV92PMAOUVKE1M6O9","A3NMU6AVMQ0QDB","30UZJB2POHY4464FN6NBJ2NLFWF354","","120.5","img/food6.png","75","121.19999992847443","2","0","3","1","1,0.5,0,1,0.5,0,0.5,0,1","1,0.5,0,1,0.5,0,0.5,0,1","1","",""
"","html-keyboard-response","49","27493","0.0-49.0","3AMYWKA6YC8RVJV92PMAOUVKE1M6O9","A3NMU6AVMQ0QDB","30UZJB2POHY4464FN6NBJ2NLFWF354","","null","<img src=""img/food6.png"" style=""width:200px;border:14px solid red;"">","null","","","","","","","","","",""
"","image-keyboard-response","50","27598","0.0-50.0","3AMYWKA6YC8RVJV92PMAOUVKE1M6O9","A3NMU6AVMQ0QDB","30UZJB2POHY4464FN6NBJ2NLFWF354","","104.89999997615814","img/food5.png","74","105.70000004768372","1","1","2","1","1,0.5,0,1,0.5,0,0.5,0,1","1,0.5,0,1,0.5,0,0.5,0,1","1","",""
"","html-keyboard-response","51","27903","0.0-51.0","3AMYWKA6YC8RVJV92PMAOUVKE1M6O9","A3NMU6AVMQ0QDB","30UZJB2POHY4464FN6NBJ2NLFWF354","","null","<img src=""img/food5.png"" style=""width:200px; border:14px solid green;"">","null","","","","","","","","","",""
"","image-keyboard-response","52","27986","0.0-52.0","3AMYWKA6YC8RVJV92PMAOUVKE1M6O9","A3NMU6AVMQ0QDB","30UZJB2POHY4464FN6NBJ2NLFWF354","","81.70000004768372","img/food6.png","74","82.5","1","1","3","1","1,0.5,0,1,0.5,0,0.5,0,1","1,0.5,0,1,0.5,0,0.5,0,1","1","",""
"","html-keyboard-response","53","28292","0.0-53.0","3AMYWKA6YC8RVJV92PMAOUVKE1M6O9","A3NMU6AVMQ0QDB","30UZJB2POHY4464FN6NBJ2NLFWF354","","null","<img src=""img/food6.png"" style=""width:200px; border:14px solid green;"">","null","","","","","","","","","",""
"","image-keyboard-response","54","28457","0.0-54.0","3AMYWKA6YC8RVJV92PMAOUVKE1M6O9","A3NMU6AVMQ0QDB","30UZJB2POHY4464FN6NBJ2NLFWF354","","163.69999992847443","img/food3.png","74","164.60000002384186","1","1","1","1","1,0.5,0,1,0.5,0,0.5,0,1","1,0.5,0,1,0.5,0,0.5,0,1","1","",""
"","html-keyboard-response","55","28761","0.0-55.0","3AMYWKA6YC8RVJV92PMAOUVKE1M6O9","A3NMU6AVMQ0QDB","30UZJB2POHY4464FN6NBJ2NLFWF354","","null","<img src=""img/food3.png"" style=""width:200px; border:14px solid green;"">","null","","","","","","","","","",""
"","image-keyboard-response","56","28847","0.0-56.0","3AMYWKA6YC8RVJV92PMAOUVKE1M6O9","A3NMU6AVMQ0QDB","30UZJB2POHY4464FN6NBJ2NLFWF354","","84.39999997615814","img/food5.png","74","85.10000002384186","1","1","2","1","1,0.5,0,1,0.5,0,0.5,0,1","1,0.5,0,1,0.5,0,0.5,0,1","1","",""
"","html-keyboard-response","57","29148","0.0-57.0","3AMYWKA6YC8RVJV92PMAOUVKE1M6O9","A3NMU6AVMQ0QDB","30UZJB2POHY4464FN6NBJ2NLFWF354","","null","<img src=""img/food5.png"" style=""width:200px; border:14px solid green;"">","null","","","","","","","","","",""
"","image-keyboard-response","58","29233","0.0-58.0","3AMYWKA6YC8RVJV92PMAOUVKE1M6O9","A3NMU6AVMQ0QDB","30UZJB2POHY4464FN6NBJ2NLFWF354","","83.5","img/food5.png","74","84.20000004768372","1","1","2","1","1,0.5,0,1,0.5,0,0.5,0,1","1,0.5,0,1,0.5,0,0.5,0,1","1","",""
"","html-keyboard-response","59","29535","0.0-59.0","3AMYWKA6YC8RVJV92PMAOUVKE1M6O9","A3NMU6AVMQ0QDB","30UZJB2POHY4464FN6NBJ2NLFWF354","","null","<img src=""img/food5.png"" style=""width:200px; border:14px solid green;"">","null","","","","","","","","","",""
"","image-keyboard-response","60","29628","0.0-60.0","3AMYWKA6YC8RVJV92PMAOUVKE1M6O9","A3NMU6AVMQ0QDB","30UZJB2POHY4464FN6NBJ2NLFWF354","","92.30000007152557","img/food5.png","74","93.10000002384186","1","1","2","1","1,0.5,0,1,0.5,0,0.5,0,1","1,0.5,0,1,0.5,0,0.5,0,1","1","",""
"","html-keyboard-response","61","29930","0.0-61.0","3AMYWKA6YC8RVJV92PMAOUVKE1M6O9","A3NMU6AVMQ0QDB","30UZJB2POHY4464FN6NBJ2NLFWF354","","null","<img src=""img/food5.png"" style=""width:200px; border:14px solid green;"">","null","","","","","","","","","",""
"","image-keyboard-response","62","30023","0.0-62.0","3AMYWKA6YC8RVJV92PMAOUVKE1M6O9","A3NMU6AVMQ0QDB","30UZJB2POHY4464FN6NBJ2NLFWF354","","91.60000002384186","img/food6.png","74","92.39999997615814","1","1","3","1","1,0.5,0,1,0.5,0,0.5,0,1","1,0.5,0,1,0.5,0,0.5,0,1","1","",""
"","html-keyboard-response","63","30326","0.0-63.0","3AMYWKA6YC8RVJV92PMAOUVKE1M6O9","A3NMU6AVMQ0QDB","30UZJB2POHY4464FN6NBJ2NLFWF354","","null","<img src=""img/food6.png"" style=""width:200px; border:14px solid green;"">","null","","","","","","","","","",""
"","image-keyboard-response","64","30454","0.0-64.0","3AMYWKA6YC8RVJV92PMAOUVKE1M6O9","A3NMU6AVMQ0QDB","30UZJB2POHY4464FN6NBJ2NLFWF354","","126.89999997615814","img/food5.png","74","127.60000002384186","1","1","2","1","1,0.5,0,1,0.5,0,0.5,0,1","1,0.5,0,1,0.5,0,0.5,0,1","1","",""
"","html-keyboard-response","65","30756","0.0-65.0","3AMYWKA6YC8RVJV92PMAOUVKE1M6O9","A3NMU6AVMQ0QDB","30UZJB2POHY4464FN6NBJ2NLFWF354","","null","<img src=""img/food5.png"" style=""width:200px; border:14px solid green;"">","null","","","","","","","","","",""
"","image-keyboard-response","66","30894","0.0-66.0","3AMYWKA6YC8RVJV92PMAOUVKE1M6O9","A3NMU6AVMQ0QDB","30UZJB2POHY4464FN6NBJ2NLFWF354","","136.5","img/food5.png","74","137.29999995231628","1","1","2","1","1,0.5,0,1,0.5,0,0.5,0,1","1,0.5,0,1,0.5,0,0.5,0,1","1","",""
"","html-keyboard-response","67","31198","0.0-67.0","3AMYWKA6YC8RVJV92PMAOUVKE1M6O9","A3NMU6AVMQ0QDB","30UZJB2POHY4464FN6NBJ2NLFWF354","","null","<img src=""img/food5.png"" style=""width:200px; border:14px solid green;"">","null","","","","","","","","","",""
"","image-keyboard-response","68","31343","0.0-68.0","3AMYWKA6YC8RVJV92PMAOUVKE1M6O9","A3NMU6AVMQ0QDB","30UZJB2POHY4464FN6NBJ2NLFWF354","","144.20000004768372","img/food3.png","74","144.89999997615814","1","1","1","1","1,0.5,0,1,0.5,0,0.5,0,1","1,0.5,0,1,0.5,0,0.5,0,1","1","",""
"","html-keyboard-response","69","31649","0.0-69.0","3AMYWKA6YC8RVJV92PMAOUVKE1M6O9","A3NMU6AVMQ0QDB","30UZJB2POHY4464FN6NBJ2NLFWF354","","null","<img src=""img/food3.png"" style=""width:200px; border:14px solid green;"">","null","","","","","","","","","",""
"","image-keyboard-response","70","31826","0.0-70.0","3AMYWKA6YC8RVJV92PMAOUVKE1M6O9","A3NMU6AVMQ0QDB","30UZJB2POHY4464FN6NBJ2NLFWF354","","175.69999992847443","img/food5.png","74","176.5","1","1","2","1","1,0.5,0,1,0.5,0,0.5,0,1","1,0.5,0,1,0.5,0,0.5,0,1","1","",""
"","html-keyboard-response","71","32133","0.0-71.0","3AMYWKA6YC8RVJV92PMAOUVKE1M6O9","A3NMU6AVMQ0QDB","30UZJB2POHY4464FN6NBJ2NLFWF354","","null","<img src=""img/food5.png"" style=""width:200px; border:14px solid green;"">","null","","","","","","","","","",""
"","image-keyboard-response","72","32300","0.0-72.0","3AMYWKA6YC8RVJV92PMAOUVKE1M6O9","A3NMU6AVMQ0QDB","30UZJB2POHY4464FN6NBJ2NLFWF354","","166","img/food6.png","74","166.89999997615814","1","0","3","1","1,0.5,0,1,0.5,0,0.5,0,1","1,0.5,0,1,0.5,0,0.5,0,1","1","",""
"","html-keyboard-response","73","32602","0.0-73.0","3AMYWKA6YC8RVJV92PMAOUVKE1M6O9","A3NMU6AVMQ0QDB","30UZJB2POHY4464FN6NBJ2NLFWF354","","null","<img src=""img/food6.png"" style=""width:200px;border:14px solid red;"">","null","","","","","","","","","",""
"","image-keyboard-response","74","32774","0.0-74.0","3AMYWKA6YC8RVJV92PMAOUVKE1M6O9","A3NMU6AVMQ0QDB","30UZJB2POHY4464FN6NBJ2NLFWF354","","171.69999992847443","img/food3.png","74","172.5","1","1","1","1","1,0.5,0,1,0.5,0,0.5,0,1","1,0.5,0,1,0.5,0,0.5,0,1","1","",""
"","html-keyboard-response","75","33077","0.0-75.0","3AMYWKA6YC8RVJV92PMAOUVKE1M6O9","A3NMU6AVMQ0QDB","30UZJB2POHY4464FN6NBJ2NLFWF354","","null","<img src=""img/food3.png"" style=""width:200px; border:14px solid green;"">","null","","","","","","","","","",""
"","image-keyboard-response","76","33661","0.0-76.0","3AMYWKA6YC8RVJV92PMAOUVKE1M6O9","A3NMU6AVMQ0QDB","30UZJB2POHY4464FN6NBJ2NLFWF354","","582.6999999284744","img/food3.png","75","583.5","2","1","1","1","1,0.5,0,1,0.5,0,0.5,0,1","1,0.5,0,1,0.5,0,0.5,0,1","1","",""
"","html-keyboard-response","77","33966","0.0-77.0","3AMYWKA6YC8RVJV92PMAOUVKE1M6O9","A3NMU6AVMQ0QDB","30UZJB2POHY4464FN6NBJ2NLFWF354","","null","<img src=""img/food3.png"" style=""width:200px; border:14px solid green;"">","null","","","","","","","","","",""
"","image-keyboard-response","78","33973","0.0-78.0","3AMYWKA6YC8RVJV92PMAOUVKE1M6O9","A3NMU6AVMQ0QDB","30UZJB2POHY4464FN6NBJ2NLFWF354","","5.5","img/food5.png","75","6.100000023841858","2","0","2","1","1,0.5,0,1,0.5,0,0.5,0,1","1,0.5,0,1,0.5,0,0.5,0,1","1","",""
"","html-keyboard-response","79","34275","0.0-79.0","3AMYWKA6YC8RVJV92PMAOUVKE1M6O9","A3NMU6AVMQ0QDB","30UZJB2POHY4464FN6NBJ2NLFWF354","","null","<img src=""img/food5.png"" style=""width:200px;border:14px solid red;"">","null","","","","","","","","","",""
"","image-keyboard-response","80","34756","0.0-80.0","3AMYWKA6YC8RVJV92PMAOUVKE1M6O9","A3NMU6AVMQ0QDB","30UZJB2POHY4464FN6NBJ2NLFWF354","","479.7999999523163","img/food6.png","75","480.3000000715256","2","0","3","1","1,0.5,0,1,0.5,0,0.5,0,1","1,0.5,0,1,0.5,0,0.5,0,1","1","",""
"","html-keyboard-response","81","35060","0.0-81.0","3AMYWKA6YC8RVJV92PMAOUVKE1M6O9","A3NMU6AVMQ0QDB","30UZJB2POHY4464FN6NBJ2NLFWF354","","null","<img src=""img/food6.png"" style=""width:200px;border:14px solid red;"">","null","","","","","","","","","",""
"","image-keyboard-response","82","35210","0.0-82.0","3AMYWKA6YC8RVJV92PMAOUVKE1M6O9","A3NMU6AVMQ0QDB","30UZJB2POHY4464FN6NBJ2NLFWF354","","148.19999992847443","img/food3.png","76","148.89999997615814","3","0","1","1","1,0.5,0,1,0.5,0,0.5,0,1","1,0.5,0,1,0.5,0,0.5,0,1","1","",""
"","html-keyboard-response","83","35514","0.0-83.0","3AMYWKA6YC8RVJV92PMAOUVKE1M6O9","A3NMU6AVMQ0QDB","30UZJB2POHY4464FN6NBJ2NLFWF354","","null","<img src=""img/food3.png"" style=""width:200px;border:14px solid red;"">","null","","","","","","","","","",""
"","image-keyboard-response","84","35576","0.0-84.0","3AMYWKA6YC8RVJV92PMAOUVKE1M6O9","A3NMU6AVMQ0QDB","30UZJB2POHY4464FN6NBJ2NLFWF354","","61.299999952316284","img/food5.png","76","61.89999997615814","3","0","2","1","1,0.5,0,1,0.5,0,0.5,0,1","1,0.5,0,1,0.5,0,0.5,0,1","1","",""
"","html-keyboard-response","85","35881","0.0-85.0","3AMYWKA6YC8RVJV92PMAOUVKE1M6O9","A3NMU6AVMQ0QDB","30UZJB2POHY4464FN6NBJ2NLFWF354","","null","<img src=""img/food5.png"" style=""width:200px;border:14px solid red;"">","null","","","","","","","","","",""
"","image-keyboard-response","86","35943","0.0-86.0","3AMYWKA6YC8RVJV92PMAOUVKE1M6O9","A3NMU6AVMQ0QDB","30UZJB2POHY4464FN6NBJ2NLFWF354","","61.10000002384186","img/food6.png","74","62","1","0","3","1","1,0.5,0,1,0.5,0,0.5,0,1","1,0.5,0,1,0.5,0,0.5,0,1","1","",""
"","html-keyboard-response","87","36249","0.0-87.0","3AMYWKA6YC8RVJV92PMAOUVKE1M6O9","A3NMU6AVMQ0QDB","30UZJB2POHY4464FN6NBJ2NLFWF354","","null","<img src=""img/food6.png"" style=""width:200px;border:14px solid red;"">","null","","","","","","","","","",""
"","image-keyboard-response","88","36372","0.0-88.0","3AMYWKA6YC8RVJV92PMAOUVKE1M6O9","A3NMU6AVMQ0QDB","30UZJB2POHY4464FN6NBJ2NLFWF354","","122","img/food6.png","74","122.79999995231628","1","0","3","1","1,0.5,0,1,0.5,0,0.5,0,1","1,0.5,0,1,0.5,0,0.5,0,1","1","",""
"","html-keyboard-response","89","36677","0.0-89.0","3AMYWKA6YC8RVJV92PMAOUVKE1M6O9","A3NMU6AVMQ0QDB","30UZJB2POHY4464FN6NBJ2NLFWF354","","null","<img src=""img/food6.png"" style=""width:200px;border:14px solid red;"">","null","","","","","","","","","",""
"","image-keyboard-response","90","36833","0.0-90.0","3AMYWKA6YC8RVJV92PMAOUVKE1M6O9","A3NMU6AVMQ0QDB","30UZJB2POHY4464FN6NBJ2NLFWF354","","155.60000002384186","img/food5.png","74","156.30000007152557","1","1","2","1","1,0.5,0,1,0.5,0,0.5,0,1","1,0.5,0,1,0.5,0,0.5,0,1","1","",""
"","html-keyboard-response","91","37135","0.0-91.0","3AMYWKA6YC8RVJV92PMAOUVKE1M6O9","A3NMU6AVMQ0QDB","30UZJB2POHY4464FN6NBJ2NLFWF354","","null","<img src=""img/food5.png"" style=""width:200px; border:14px solid green;"">","null","","","","","","","","","",""
"","image-keyboard-response","92","37391","0.0-92.0","3AMYWKA6YC8RVJV92PMAOUVKE1M6O9","A3NMU6AVMQ0QDB","30UZJB2POHY4464FN6NBJ2NLFWF354","","255.29999995231628","img/food5.png","74","256.10000002384186","1","1","2","1","1,0.5,0,1,0.5,0,0.5,0,1","1,0.5,0,1,0.5,0,0.5,0,1","1","",""
"","html-keyboard-response","93","37695","0.0-93.0","3AMYWKA6YC8RVJV92PMAOUVKE1M6O9","A3NMU6AVMQ0QDB","30UZJB2POHY4464FN6NBJ2NLFWF354","","null","<img src=""img/food5.png"" style=""width:200px; border:14px solid green;"">","null","","","","","","","","","",""
"","image-keyboard-response","94","37918","0.0-94.0","3AMYWKA6YC8RVJV92PMAOUVKE1M6O9","A3NMU6AVMQ0QDB","30UZJB2POHY4464FN6NBJ2NLFWF354","","221.39999997615814","img/food5.png","74","222.20000004768372","1","1","2","1","1,0.5,0,1,0.5,0,0.5,0,1","1,0.5,0,1,0.5,0,0.5,0,1","1","",""
"","html-keyboard-response","95","38223","0.0-95.0","3AMYWKA6YC8RVJV92PMAOUVKE1M6O9","A3NMU6AVMQ0QDB","30UZJB2POHY4464FN6NBJ2NLFWF354","","null","<img src=""img/food5.png"" style=""width:200px; border:14px solid green;"">","null","","","","","","","","","",""
"","image-keyboard-response","96","38366","0.0-96.0","3AMYWKA6YC8RVJV92PMAOUVKE1M6O9","A3NMU6AVMQ0QDB","30UZJB2POHY4464FN6NBJ2NLFWF354","","142","img/food3.png","74","142.89999997615814","1","1","1","1","1,0.5,0,1,0.5,0,0.5,0,1","1,0.5,0,1,0.5,0,0.5,0,1","1","",""
"","html-keyboard-response","97","38670","0.0-97.0","3AMYWKA6YC8RVJV92PMAOUVKE1M6O9","A3NMU6AVMQ0QDB","30UZJB2POHY4464FN6NBJ2NLFWF354","","null","<img src=""img/food3.png"" style=""width:200px; border:14px solid green;"">","null","","","","","","","","","",""
"","image-keyboard-response","98","38817","0.0-98.0","3AMYWKA6YC8RVJV92PMAOUVKE1M6O9","A3NMU6AVMQ0QDB","30UZJB2POHY4464FN6NBJ2NLFWF354","","146","img/food5.png","74","146.79999995231628","1","1","2","1","1,0.5,0,1,0.5,0,0.5,0,1","1,0.5,0,1,0.5,0,0.5,0,1","1","",""
"","html-keyboard-response","99","39119","0.0-99.0","3AMYWKA6YC8RVJV92PMAOUVKE1M6O9","A3NMU6AVMQ0QDB","30UZJB2POHY4464FN6NBJ2NLFWF354","","null","<img src=""img/food5.png"" style=""width:200px; border:14px solid green;"">","null","","","","","","","","","",""
"","image-keyboard-response","100","39252","0.0-100.0","3AMYWKA6YC8RVJV92PMAOUVKE1M6O9","A3NMU6AVMQ0QDB","30UZJB2POHY4464FN6NBJ2NLFWF354","","131.89999997615814","img/food3.png","74","132.79999995231628","1","1","1","1","1,0.5,0,1,0.5,0,0.5,0,1","1,0.5,0,1,0.5,0,0.5,0,1","1","",""
"","html-keyboard-response","101","39559","0.0-101.0","3AMYWKA6YC8RVJV92PMAOUVKE1M6O9","A3NMU6AVMQ0QDB","30UZJB2POHY4464FN6NBJ2NLFWF354","","null","<img src=""img/food3.png"" style=""width:200px; border:14px solid green;"">","null","","","","","","","","","",""
"","image-keyboard-response","102","39660","0.0-102.0","3AMYWKA6YC8RVJV92PMAOUVKE1M6O9","A3NMU6AVMQ0QDB","30UZJB2POHY4464FN6NBJ2NLFWF354","","99.89999997615814","img/food3.png","74","100.5","1","1","1","1","1,0.5,0,1,0.5,0,0.5,0,1","1,0.5,0,1,0.5,0,0.5,0,1","1","",""
"","html-keyboard-response","103","39962","0.0-103.0","3AMYWKA6YC8RVJV92PMAOUVKE1M6O9","A3NMU6AVMQ0QDB","30UZJB2POHY4464FN6NBJ2NLFWF354","","null","<img src=""img/food3.png"" style=""width:200px; border:14px solid green;"">","null","","","","","","","","","",""
"","image-keyboard-response","104","40094","0.0-104.0","3AMYWKA6YC8RVJV92PMAOUVKE1M6O9","A3NMU6AVMQ0QDB","30UZJB2POHY4464FN6NBJ2NLFWF354","","131.20000004768372","img/food3.png","74","131.90000009536743","1","1","1","1","1,0.5,0,1,0.5,0,0.5,0,1","1,0.5,0,1,0.5,0,0.5,0,1","1","",""
"","html-keyboard-response","105","40399","0.0-105.0","3AMYWKA6YC8RVJV92PMAOUVKE1M6O9","A3NMU6AVMQ0QDB","30UZJB2POHY4464FN6NBJ2NLFWF354","","null","<img src=""img/food3.png"" style=""width:200px; border:14px solid green;"">","null","","","","","","","","","",""
"","image-keyboard-response","106","40552","0.0-106.0","3AMYWKA6YC8RVJV92PMAOUVKE1M6O9","A3NMU6AVMQ0QDB","30UZJB2POHY4464FN6NBJ2NLFWF354","","152.20000004768372","img/food3.png","74","152.69999992847443","1","1","1","1","1,0.5,0,1,0.5,0,0.5,0,1","1,0.5,0,1,0.5,0,0.5,0,1","1","",""
"","html-keyboard-response","107","40858","0.0-107.0","3AMYWKA6YC8RVJV92PMAOUVKE1M6O9","A3NMU6AVMQ0QDB","30UZJB2POHY4464FN6NBJ2NLFWF354","","null","<img src=""img/food3.png"" style=""width:200px; border:14px solid green;"">","null","","","","","","","","","",""
"","image-keyboard-response","108","41008","0.0-108.0","3AMYWKA6YC8RVJV92PMAOUVKE1M6O9","A3NMU6AVMQ0QDB","30UZJB2POHY4464FN6NBJ2NLFWF354","","149.5","img/food3.png","74","150.19999992847443","1","1","1","1","1,0.5,0,1,0.5,0,0.5,0,1","1,0.5,0,1,0.5,0,0.5,0,1","1","",""
"","html-keyboard-response","109","41314","0.0-109.0","3AMYWKA6YC8RVJV92PMAOUVKE1M6O9","A3NMU6AVMQ0QDB","30UZJB2POHY4464FN6NBJ2NLFWF354","","null","<img src=""img/food3.png"" style=""width:200px; border:14px solid green;"">","null","","","","","","","","","",""
"","image-keyboard-response","110","41458","0.0-110.0","3AMYWKA6YC8RVJV92PMAOUVKE1M6O9","A3NMU6AVMQ0QDB","30UZJB2POHY4464FN6NBJ2NLFWF354","","142.30000007152557","img/food6.png","74","143.10000002384186","1","1","3","1","1,0.5,0,1,0.5,0,0.5,0,1","1,0.5,0,1,0.5,0,0.5,0,1","1","",""
"","html-keyboard-response","111","41759","0.0-111.0","3AMYWKA6YC8RVJV92PMAOUVKE1M6O9","A3NMU6AVMQ0QDB","30UZJB2POHY4464FN6NBJ2NLFWF354","","null","<img src=""img/food6.png"" style=""width:200px; border:14px solid green;"">","null","","","","","","","","","",""
"","image-keyboard-response","112","41910","0.0-112.0","3AMYWKA6YC8RVJV92PMAOUVKE1M6O9","A3NMU6AVMQ0QDB","30UZJB2POHY4464FN6NBJ2NLFWF354","","150.20000004768372","img/food3.png","74","150.89999997615814","1","1","1","1","1,0.5,0,1,0.5,0,0.5,0,1","1,0.5,0,1,0.5,0,0.5,0,1","1","",""
"","html-keyboard-response","113","42214","0.0-113.0","3AMYWKA6YC8RVJV92PMAOUVKE1M6O9","A3NMU6AVMQ0QDB","30UZJB2POHY4464FN6NBJ2NLFWF354","","null","<img src=""img/food3.png"" style=""width:200px; border:14px solid green;"">","null","","","","","","","","","",""
"","image-keyboard-response","114","42373","0.0-114.0","3AMYWKA6YC8RVJV92PMAOUVKE1M6O9","A3NMU6AVMQ0QDB","30UZJB2POHY4464FN6NBJ2NLFWF354","","157.5","img/food6.png","74","158.30000007152557","1","0","3","1","1,0.5,0,1,0.5,0,0.5,0,1","1,0.5,0,1,0.5,0,0.5,0,1","1","",""
"","html-keyboard-response","115","42676","0.0-115.0","3AMYWKA6YC8RVJV92PMAOUVKE1M6O9","A3NMU6AVMQ0QDB","30UZJB2POHY4464FN6NBJ2NLFWF354","","null","<img src=""img/food6.png"" style=""width:200px;border:14px solid red;"">","null","","","","","","","","","",""
"","image-keyboard-response","116","42801","0.0-116.0","3AMYWKA6YC8RVJV92PMAOUVKE1M6O9","A3NMU6AVMQ0QDB","30UZJB2POHY4464FN6NBJ2NLFWF354","","124.30000007152557","img/food6.png","74","125","1","1","3","1","1,0.5,0,1,0.5,0,0.5,0,1","1,0.5,0,1,0.5,0,0.5,0,1","1","",""
"","html-keyboard-response","117","43106","0.0-117.0","3AMYWKA6YC8RVJV92PMAOUVKE1M6O9","A3NMU6AVMQ0QDB","30UZJB2POHY4464FN6NBJ2NLFWF354","","null","<img src=""img/food6.png"" style=""width:200px; border:14px solid green;"">","null","","","","","","","","","",""
"","image-keyboard-response","118","43341","0.0-118.0","3AMYWKA6YC8RVJV92PMAOUVKE1M6O9","A3NMU6AVMQ0QDB","30UZJB2POHY4464FN6NBJ2NLFWF354","","233.69999992847443","img/food5.png","74","234.5","1","1","2","1","1,0.5,0,1,0.5,0,0.5,0,1","1,0.5,0,1,0.5,0,0.5,0,1","1","",""
"","html-keyboard-response","119","43644","0.0-119.0","3AMYWKA6YC8RVJV92PMAOUVKE1M6O9","A3NMU6AVMQ0QDB","30UZJB2POHY4464FN6NBJ2NLFWF354","","null","<img src=""img/food5.png"" style=""width:200px; border:14px solid green;"">","null","","","","","","","","","",""
"","image-keyboard-response","120","43774","0.0-120.0","3AMYWKA6YC8RVJV92PMAOUVKE1M6O9","A3NMU6AVMQ0QDB","30UZJB2POHY4464FN6NBJ2NLFWF354","","128.79999995231628","img/food3.png","74","129.5","1","1","1","1","1,0.5,0,1,0.5,0,0.5,0,1","1,0.5,0,1,0.5,0,0.5,0,1","1","",""
"","html-keyboard-response","121","44079","0.0-121.0","3AMYWKA6YC8RVJV92PMAOUVKE1M6O9","A3NMU6AVMQ0QDB","30UZJB2POHY4464FN6NBJ2NLFWF354","","null","<img src=""img/food3.png"" style=""width:200px; border:14px solid green;"">","null","","","","","","","","","",""
"","image-keyboard-response","122","44180","0.0-122.0","3AMYWKA6YC8RVJV92PMAOUVKE1M6O9","A3NMU6AVMQ0QDB","30UZJB2POHY4464FN6NBJ2NLFWF354","","100.20000004768372","img/food6.png","74","101","1","1","3","1","1,0.5,0,1,0.5,0,0.5,0,1","1,0.5,0,1,0.5,0,0.5,0,1","1","",""
"","html-keyboard-response","123","44484","0.0-123.0","3AMYWKA6YC8RVJV92PMAOUVKE1M6O9","A3NMU6AVMQ0QDB","30UZJB2POHY4464FN6NBJ2NLFWF354","","null","<img src=""img/food6.png"" style=""width:200px; border:14px solid green;"">","null","","","","","","","","","",""
"","image-keyboard-response","124","44607","0.0-124.0","3AMYWKA6YC8RVJV92PMAOUVKE1M6O9","A3NMU6AVMQ0QDB","30UZJB2POHY4464FN6NBJ2NLFWF354","","121.40000009536743","img/food6.png","74","122.19999992847443","1","0","3","1","1,0.5,0,1,0.5,0,0.5,0,1","1,0.5,0,1,0.5,0,0.5,0,1","1","",""
"","html-keyboard-response","125","44910","0.0-125.0","3AMYWKA6YC8RVJV92PMAOUVKE1M6O9","A3NMU6AVMQ0QDB","30UZJB2POHY4464FN6NBJ2NLFWF354","","null","<img src=""img/food6.png"" style=""width:200px;border:14px solid red;"">","null","","","","","","","","","",""
"","image-keyboard-response","126","45016","0.0-126.0","3AMYWKA6YC8RVJV92PMAOUVKE1M6O9","A3NMU6AVMQ0QDB","30UZJB2POHY4464FN6NBJ2NLFWF354","","104.60000002384186","img/food6.png","74","105.60000002384186","1","0","3","1","1,0.5,0,1,0.5,0,0.5,0,1","1,0.5,0,1,0.5,0,0.5,0,1","1","",""
"","html-keyboard-response","127","45319","0.0-127.0","3AMYWKA6YC8RVJV92PMAOUVKE1M6O9","A3NMU6AVMQ0QDB","30UZJB2POHY4464FN6NBJ2NLFWF354","","null","<img src=""img/food6.png"" style=""width:200px;border:14px solid red;"">","null","","","","","","","","","",""
"","image-keyboard-response","128","45460","0.0-128.0","3AMYWKA6YC8RVJV92PMAOUVKE1M6O9","A3NMU6AVMQ0QDB","30UZJB2POHY4464FN6NBJ2NLFWF354","","140.40000009536743","img/food6.png","74","141.10000002384186","1","0","3","1","1,0.5,0,1,0.5,0,0.5,0,1","1,0.5,0,1,0.5,0,0.5,0,1","1","",""
"","html-keyboard-response","129","45764","0.0-129.0","3AMYWKA6YC8RVJV92PMAOUVKE1M6O9","A3NMU6AVMQ0QDB","30UZJB2POHY4464FN6NBJ2NLFWF354","","null","<img src=""img/food6.png"" style=""width:200px;border:14px solid red;"">","null","","","","","","","","","",""
"","image-keyboard-response","130","45951","0.0-130.0","3AMYWKA6YC8RVJV92PMAOUVKE1M6O9","A3NMU6AVMQ0QDB","30UZJB2POHY4464FN6NBJ2NLFWF354","","185.90000009536743","img/food3.png","74","186.79999995231628","1","1","1","1","1,0.5,0,1,0.5,0,0.5,0,1","1,0.5,0,1,0.5,0,0.5,0,1","1","",""
"","html-keyboard-response","131","46255","0.0-131.0","3AMYWKA6YC8RVJV92PMAOUVKE1M6O9","A3NMU6AVMQ0QDB","30UZJB2POHY4464FN6NBJ2NLFWF354","","null","<img src=""img/food3.png"" style=""width:200px; border:14px solid green;"">","null","","","","","","","","","",""
"","image-keyboard-response","132","46444","0.0-132.0","3AMYWKA6YC8RVJV92PMAOUVKE1M6O9","A3NMU6AVMQ0QDB","30UZJB2POHY4464FN6NBJ2NLFWF354","","188.29999995231628","img/food6.png","74","189.10000002384186","1","1","3","1","1,0.5,0,1,0.5,0,0.5,0,1","1,0.5,0,1,0.5,0,0.5,0,1","1","",""
"","html-keyboard-response","133","46746","0.0-133.0","3AMYWKA6YC8RVJV92PMAOUVKE1M6O9","A3NMU6AVMQ0QDB","30UZJB2POHY4464FN6NBJ2NLFWF354","","null","<img src=""img/food6.png"" style=""width:200px; border:14px solid green;"">","null","","","","","","","","","",""
"","image-keyboard-response","134","46881","0.0-134.0","3AMYWKA6YC8RVJV92PMAOUVKE1M6O9","A3NMU6AVMQ0QDB","30UZJB2POHY4464FN6NBJ2NLFWF354","","133.39999997615814","img/food6.png","74","134.19999992847443","1","0","3","1","1,0.5,0,1,0.5,0,0.5,0,1","1,0.5,0,1,0.5,0,0.5,0,1","1","",""
"","html-keyboard-response","135","47183","0.0-135.0","3AMYWKA6YC8RVJV92PMAOUVKE1M6O9","A3NMU6AVMQ0QDB","30UZJB2POHY4464FN6NBJ2NLFWF354","","null","<img src=""img/food6.png"" style=""width:200px;border:14px solid red;"">","null","","","","","","","","","",""
"","image-keyboard-response","136","47319","0.0-136.0","3AMYWKA6YC8RVJV92PMAOUVKE1M6O9","A3NMU6AVMQ0QDB","30UZJB2POHY4464FN6NBJ2NLFWF354","","135.79999995231628","img/food6.png","74","136.5","1","0","3","1","1,0.5,0,1,0.5,0,0.5,0,1","1,0.5,0,1,0.5,0,0.5,0,1","1","",""
"","html-keyboard-response","137","47621","0.0-137.0","3AMYWKA6YC8RVJV92PMAOUVKE1M6O9","A3NMU6AVMQ0QDB","30UZJB2POHY4464FN6NBJ2NLFWF354","","null","<img src=""img/food6.png"" style=""width:200px;border:14px solid red;"">","null","","","","","","","","","",""
"","image-keyboard-response","138","47774","0.0-138.0","3AMYWKA6YC8RVJV92PMAOUVKE1M6O9","A3NMU6AVMQ0QDB","30UZJB2POHY4464FN6NBJ2NLFWF354","","152","img/food5.png","74","152.70000004768372","1","1","2","1","1,0.5,0,1,0.5,0,0.5,0,1","1,0.5,0,1,0.5,0,0.5,0,1","1","",""
"","html-keyboard-response","139","48075","0.0-139.0","3AMYWKA6YC8RVJV92PMAOUVKE1M6O9","A3NMU6AVMQ0QDB","30UZJB2POHY4464FN6NBJ2NLFWF354","","null","<img src=""img/food5.png"" style=""width:200px; border:14px solid green;"">","null","","","","","","","","","",""
"","image-keyboard-response","140","48227","0.0-140.0","3AMYWKA6YC8RVJV92PMAOUVKE1M6O9","A3NMU6AVMQ0QDB","30UZJB2POHY4464FN6NBJ2NLFWF354","","151.39999997615814","img/food6.png","74","152.20000004768372","1","1","3","1","1,0.5,0,1,0.5,0,0.5,0,1","1,0.5,0,1,0.5,0,0.5,0,1","1","",""
"","html-keyboard-response","141","48534","0.0-141.0","3AMYWKA6YC8RVJV92PMAOUVKE1M6O9","A3NMU6AVMQ0QDB","30UZJB2POHY4464FN6NBJ2NLFWF354","","null","<img src=""img/food6.png"" style=""width:200px; border:14px solid green;"">","null","","","","","","","","","",""
"","image-keyboard-response","142","48686","0.0-142.0","3AMYWKA6YC8RVJV92PMAOUVKE1M6O9","A3NMU6AVMQ0QDB","30UZJB2POHY4464FN6NBJ2NLFWF354","","151.30000007152557","img/food3.png","74","152","1","1","1","1","1,0.5,0,1,0.5,0,0.5,0,1","1,0.5,0,1,0.5,0,0.5,0,1","1","",""
"","html-keyboard-response","143","48989","0.0-143.0","3AMYWKA6YC8RVJV92PMAOUVKE1M6O9","A3NMU6AVMQ0QDB","30UZJB2POHY4464FN6NBJ2NLFWF354","","null","<img src=""img/food3.png"" style=""width:200px; border:14px solid green;"">","null","","","","","","","","","",""
"","image-keyboard-response","144","49109","0.0-144.0","3AMYWKA6YC8RVJV92PMAOUVKE1M6O9","A3NMU6AVMQ0QDB","30UZJB2POHY4464FN6NBJ2NLFWF354","","118.60000002384186","img/food6.png","74","119.39999997615814","1","1","3","1","1,0.5,0,1,0.5,0,0.5,0,1","1,0.5,0,1,0.5,0,0.5,0,1","1","",""
"","html-keyboard-response","145","49413","0.0-145.0","3AMYWKA6YC8RVJV92PMAOUVKE1M6O9","A3NMU6AVMQ0QDB","30UZJB2POHY4464FN6NBJ2NLFWF354","","null","<img src=""img/food6.png"" style=""width:200px; border:14px solid green;"">","null","","","","","","","","","",""
"","image-keyboard-response","146","49508","0.0-146.0","3AMYWKA6YC8RVJV92PMAOUVKE1M6O9","A3NMU6AVMQ0QDB","30UZJB2POHY4464FN6NBJ2NLFWF354","","94","img/food6.png","74","94.70000004768372","1","0","3","1","1,0.5,0,1,0.5,0,0.5,0,1","1,0.5,0,1,0.5,0,0.5,0,1","1","",""
"","html-keyboard-response","147","49811","0.0-147.0","3AMYWKA6YC8RVJV92PMAOUVKE1M6O9","A3NMU6AVMQ0QDB","30UZJB2POHY4464FN6NBJ2NLFWF354","","null","<img src=""img/food6.png"" style=""width:200px;border:14px solid red;"">","null","","","","","","","","","",""
"","image-keyboard-response","148","49933","0.0-148.0","3AMYWKA6YC8RVJV92PMAOUVKE1M6O9","A3NMU6AVMQ0QDB","30UZJB2POHY4464FN6NBJ2NLFWF354","","120.60000002384186","img/food5.png","74","121.30000007152557","1","1","2","1","1,0.5,0,1,0.5,0,0.5,0,1","1,0.5,0,1,0.5,0,0.5,0,1","1","",""
"","html-keyboard-response","149","50234","0.0-149.0","3AMYWKA6YC8RVJV92PMAOUVKE1M6O9","A3NMU6AVMQ0QDB","30UZJB2POHY4464FN6NBJ2NLFWF354","","null","<img src=""img/food5.png"" style=""width:200px; border:14px solid green;"">","null","","","","","","","","","",""
"","image-keyboard-response","150","50376","0.0-150.0","3AMYWKA6YC8RVJV92PMAOUVKE1M6O9","A3NMU6AVMQ0QDB","30UZJB2POHY4464FN6NBJ2NLFWF354","","141.69999992847443","img/food5.png","74","142.39999997615814","1","1","2","1","1,0.5,0,1,0.5,0,0.5,0,1","1,0.5,0,1,0.5,0,0.5,0,1","1","",""
"","html-keyboard-response","151","50681","0.0-151.0","3AMYWKA6YC8RVJV92PMAOUVKE1M6O9","A3NMU6AVMQ0QDB","30UZJB2POHY4464FN6NBJ2NLFWF354","","null","<img src=""img/food5.png"" style=""width:200px; border:14px solid green;"">","null","","","","","","","","","",""
"","image-keyboard-response","152","50813","0.0-152.0","3AMYWKA6YC8RVJV92PMAOUVKE1M6O9","A3NMU6AVMQ0QDB","30UZJB2POHY4464FN6NBJ2NLFWF354","","130.5","img/food3.png","74","131.10000002384186","1","1","1","1","1,0.5,0,1,0.5,0,0.5,0,1","1,0.5,0,1,0.5,0,0.5,0,1","1","",""
"","html-keyboard-response","153","51114","0.0-153.0","3AMYWKA6YC8RVJV92PMAOUVKE1M6O9","A3NMU6AVMQ0QDB","30UZJB2POHY4464FN6NBJ2NLFWF354","","null","<img src=""img/food3.png"" style=""width:200px; border:14px solid green;"">","null","","","","","","","","","",""
"","image-keyboard-response","154","51256","0.0-154.0","3AMYWKA6YC8RVJV92PMAOUVKE1M6O9","A3NMU6AVMQ0QDB","30UZJB2POHY4464FN6NBJ2NLFWF354","","141.69999992847443","img/food3.png","74","142.39999997615814","1","1","1","1","1,0.5,0,1,0.5,0,0.5,0,1","1,0.5,0,1,0.5,0,0.5,0,1","1","",""
"","html-keyboard-response","155","51559","0.0-155.0","3AMYWKA6YC8RVJV92PMAOUVKE1M6O9","A3NMU6AVMQ0QDB","30UZJB2POHY4464FN6NBJ2NLFWF354","","null","<img src=""img/food3.png"" style=""width:200px; border:14px solid green;"">","null","","","","","","","","","",""
"","image-keyboard-response","156","51687","0.0-156.0","3AMYWKA6YC8RVJV92PMAOUVKE1M6O9","A3NMU6AVMQ0QDB","30UZJB2POHY4464FN6NBJ2NLFWF354","","126.89999997615814","img/food6.png","74","127.59999990463257","1","1","3","1","1,0.5,0,1,0.5,0,0.5,0,1","1,0.5,0,1,0.5,0,0.5,0,1","1","",""
"","html-keyboard-response","157","51990","0.0-157.0","3AMYWKA6YC8RVJV92PMAOUVKE1M6O9","A3NMU6AVMQ0QDB","30UZJB2POHY4464FN6NBJ2NLFWF354","","null","<img src=""img/food6.png"" style=""width:200px; border:14px solid green;"">","null","","","","","","","","","",""
"","image-keyboard-response","158","52132","0.0-158.0","3AMYWKA6YC8RVJV92PMAOUVKE1M6O9","A3NMU6AVMQ0QDB","30UZJB2POHY4464FN6NBJ2NLFWF354","","141.29999995231628","img/food5.png","74","142","1","1","2","1","1,0.5,0,1,0.5,0,0.5,0,1","1,0.5,0,1,0.5,0,0.5,0,1","1","",""
"","html-keyboard-response","159","52434","0.0-159.0","3AMYWKA6YC8RVJV92PMAOUVKE1M6O9","A3NMU6AVMQ0QDB","30UZJB2POHY4464FN6NBJ2NLFWF354","","null","<img src=""img/food5.png"" style=""width:200px; border:14px solid green;"">","null","","","","","","","","","",""
"","image-keyboard-response","160","52563","0.0-160.0","3AMYWKA6YC8RVJV92PMAOUVKE1M6O9","A3NMU6AVMQ0QDB","30UZJB2POHY4464FN6NBJ2NLFWF354","","128.29999995231628","img/food3.png","74","129.10000002384186","1","1","1","1","1,0.5,0,1,0.5,0,0.5,0,1","1,0.5,0,1,0.5,0,0.5,0,1","1","",""
"","html-keyboard-response","161","52867","0.0-161.0","3AMYWKA6YC8RVJV92PMAOUVKE1M6O9","A3NMU6AVMQ0QDB","30UZJB2POHY4464FN6NBJ2NLFWF354","","null","<img src=""img/food3.png"" style=""width:200px; border:14px solid green;"">","null","","","","","","","","","",""
"","image-keyboard-response","162","53009","0.0-162.0","3AMYWKA6YC8RVJV92PMAOUVKE1M6O9","A3NMU6AVMQ0QDB","30UZJB2POHY4464FN6NBJ2NLFWF354","","140.60000002384186","img/food5.png","74","141.39999997615814","1","1","2","1","1,0.5,0,1,0.5,0,0.5,0,1","1,0.5,0,1,0.5,0,0.5,0,1","1","",""
"","html-keyboard-response","163","53310","0.0-163.0","3AMYWKA6YC8RVJV92PMAOUVKE1M6O9","A3NMU6AVMQ0QDB","30UZJB2POHY4464FN6NBJ2NLFWF354","","null","<img src=""img/food5.png"" style=""width:200px; border:14px solid green;"">","null","","","","","","","","","",""
"","image-keyboard-response","164","53451","0.0-164.0","3AMYWKA6YC8RVJV92PMAOUVKE1M6O9","A3NMU6AVMQ0QDB","30UZJB2POHY4464FN6NBJ2NLFWF354","","140.20000004768372","img/food5.png","74","140.79999995231628","1","1","2","1","1,0.5,0,1,0.5,0,0.5,0,1","1,0.5,0,1,0.5,0,0.5,0,1","1","",""
"","html-keyboard-response","165","53754","0.0-165.0","3AMYWKA6YC8RVJV92PMAOUVKE1M6O9","A3NMU6AVMQ0QDB","30UZJB2POHY4464FN6NBJ2NLFWF354","","null","<img src=""img/food5.png"" style=""width:200px; border:14px solid green;"">","null","","","","","","","","","",""
"","image-keyboard-response","166","53875","0.0-166.0","3AMYWKA6YC8RVJV92PMAOUVKE1M6O9","A3NMU6AVMQ0QDB","30UZJB2POHY4464FN6NBJ2NLFWF354","","120.20000004768372","img/food6.png","74","120.90000009536743","1","1","3","1","1,0.5,0,1,0.5,0,0.5,0,1","1,0.5,0,1,0.5,0,0.5,0,1","1","",""
"","html-keyboard-response","167","54178","0.0-167.0","3AMYWKA6YC8RVJV92PMAOUVKE1M6O9","A3NMU6AVMQ0QDB","30UZJB2POHY4464FN6NBJ2NLFWF354","","null","<img src=""img/food6.png"" style=""width:200px; border:14px solid green;"">","null","","","","","","","","","",""
"","image-keyboard-response","168","54313","0.0-168.0","3AMYWKA6YC8RVJV92PMAOUVKE1M6O9","A3NMU6AVMQ0QDB","30UZJB2POHY4464FN6NBJ2NLFWF354","","133.60000002384186","img/food3.png","74","134.29999995231628","1","1","1","1","1,0.5,0,1,0.5,0,0.5,0,1","1,0.5,0,1,0.5,0,0.5,0,1","1","",""
"","html-keyboard-response","169","54618","0.0-169.0","3AMYWKA6YC8RVJV92PMAOUVKE1M6O9","A3NMU6AVMQ0QDB","30UZJB2POHY4464FN6NBJ2NLFWF354","","null","<img src=""img/food3.png"" style=""width:200px; border:14px solid green;"">","null","","","","","","","","","",""
"","image-keyboard-response","170","54774","0.0-170.0","3AMYWKA6YC8RVJV92PMAOUVKE1M6O9","A3NMU6AVMQ0QDB","30UZJB2POHY4464FN6NBJ2NLFWF354","","154.89999997615814","img/food6.png","74","155.60000002384186","1","1","3","1","1,0.5,0,1,0.5,0,0.5,0,1","1,0.5,0,1,0.5,0,0.5,0,1","1","",""
"","html-keyboard-response","171","55077","0.0-171.0","3AMYWKA6YC8RVJV92PMAOUVKE1M6O9","A3NMU6AVMQ0QDB","30UZJB2POHY4464FN6NBJ2NLFWF354","","null","<img src=""img/food6.png"" style=""width:200px; border:14px solid green;"">","null","","","","","","","","","",""
"","image-keyboard-response","172","55216","0.0-172.0","3AMYWKA6YC8RVJV92PMAOUVKE1M6O9","A3NMU6AVMQ0QDB","30UZJB2POHY4464FN6NBJ2NLFWF354","","138.60000002384186","img/food5.png","74","139.29999995231628","1","1","2","1","1,0.5,0,1,0.5,0,0.5,0,1","1,0.5,0,1,0.5,0,0.5,0,1","1","",""
"","html-keyboard-response","173","55518","0.0-173.0","3AMYWKA6YC8RVJV92PMAOUVKE1M6O9","A3NMU6AVMQ0QDB","30UZJB2POHY4464FN6NBJ2NLFWF354","","null","<img src=""img/food5.png"" style=""width:200px; border:14px solid green;"">","null","","","","","","","","","",""
"","image-keyboard-response","174","55646","0.0-174.0","3AMYWKA6YC8RVJV92PMAOUVKE1M6O9","A3NMU6AVMQ0QDB","30UZJB2POHY4464FN6NBJ2NLFWF354","","126.59999990463257","img/food5.png","74","127.20000004768372","1","1","2","1","1,0.5,0,1,0.5,0,0.5,0,1","1,0.5,0,1,0.5,0,0.5,0,1","1","",""
"","html-keyboard-response","175","55951","0.0-175.0","3AMYWKA6YC8RVJV92PMAOUVKE1M6O9","A3NMU6AVMQ0QDB","30UZJB2POHY4464FN6NBJ2NLFWF354","","null","<img src=""img/food5.png"" style=""width:200px; border:14px solid green;"">","null","","","","","","","","","",""
"","image-keyboard-response","176","56083","0.0-176.0","3AMYWKA6YC8RVJV92PMAOUVKE1M6O9","A3NMU6AVMQ0QDB","30UZJB2POHY4464FN6NBJ2NLFWF354","","130.79999995231628","img/food3.png","74","131.5","1","1","1","1","1,0.5,0,1,0.5,0,0.5,0,1","1,0.5,0,1,0.5,0,0.5,0,1","1","",""
"","html-keyboard-response","177","56388","0.0-177.0","3AMYWKA6YC8RVJV92PMAOUVKE1M6O9","A3NMU6AVMQ0QDB","30UZJB2POHY4464FN6NBJ2NLFWF354","","null","<img src=""img/food3.png"" style=""width:200px; border:14px solid green;"">","null","","","","","","","","","",""
"","image-keyboard-response","178","56533","0.0-178.0","3AMYWKA6YC8RVJV92PMAOUVKE1M6O9","A3NMU6AVMQ0QDB","30UZJB2POHY4464FN6NBJ2NLFWF354","","143","img/food5.png","74","143.80000007152557","1","1","2","1","1,0.5,0,1,0.5,0,0.5,0,1","1,0.5,0,1,0.5,0,0.5,0,1","1","",""
"","html-keyboard-response","179","56836","0.0-179.0","3AMYWKA6YC8RVJV92PMAOUVKE1M6O9","A3NMU6AVMQ0QDB","30UZJB2POHY4464FN6NBJ2NLFWF354","","null","<img src=""img/food5.png"" style=""width:200px; border:14px solid green;"">","null","","","","","","","","","",""
"","image-keyboard-response","180","56962","0.0-180.0","3AMYWKA6YC8RVJV92PMAOUVKE1M6O9","A3NMU6AVMQ0QDB","30UZJB2POHY4464FN6NBJ2NLFWF354","","124.20000004768372","img/food6.png","74","125.10000002384186","1","0","3","1","1,0.5,0,1,0.5,0,0.5,0,1","1,0.5,0,1,0.5,0,0.5,0,1","1","",""
"","html-keyboard-response","181","57265","0.0-181.0","3AMYWKA6YC8RVJV92PMAOUVKE1M6O9","A3NMU6AVMQ0QDB","30UZJB2POHY4464FN6NBJ2NLFWF354","","null","<img src=""img/food6.png"" style=""width:200px;border:14px solid red;"">","null","","","","","","","","","",""
"","html-keyboard-response","182","60321","0.0-182.0","3AMYWKA6YC8RVJV92PMAOUVKE1M6O9","A3NMU6AVMQ0QDB","30UZJB2POHY4464FN6NBJ2NLFWF354","","","","","","","","","","","","","",""
"","instructions","183","69386","0.0-183.0","3AMYWKA6YC8RVJV92PMAOUVKE1M6O9","A3NMU6AVMQ0QDB","30UZJB2POHY4464FN6NBJ2NLFWF354","[{""page_index"":0,""viewing_time"":7001.599999904633},{""page_index"":1,""viewing_time"":2062.9000000953674}]","9064.699999928474","","","","","","","","","","","",""
"","image-keyboard-response","184","69976","0.0-184.0","3AMYWKA6YC8RVJV92PMAOUVKE1M6O9","A3NMU6AVMQ0QDB","30UZJB2POHY4464FN6NBJ2NLFWF354","","588.5","img/food4.png","74","589.3999999761581","1","0","3","2","1,0.5,0,1,0.5,0,0.5,0,1","0.5,0,1,0.5,0,1,0,1,0.5","2","false",""
"","html-keyboard-response","185","70283","0.0-185.0","3AMYWKA6YC8RVJV92PMAOUVKE1M6O9","A3NMU6AVMQ0QDB","30UZJB2POHY4464FN6NBJ2NLFWF354","","null","<img src=""img/food4.png"" style=""width:200px;border:14px solid red;"">","null","","","","","","","","","",""
"","image-keyboard-response","186","70434","0.0-187.0","3AMYWKA6YC8RVJV92PMAOUVKE1M6O9","A3NMU6AVMQ0QDB","30UZJB2POHY4464FN6NBJ2NLFWF354","","149.89999997615814","img/food4.png","74","150.70000004768372","1","0","3","2","1,0.5,0,1,0.5,0,0.5,0,1","0.5,0,1,0.5,0,1,0,1,0.5","2","false",""
"","html-keyboard-response","187","70740","0.0-188.0","3AMYWKA6YC8RVJV92PMAOUVKE1M6O9","A3NMU6AVMQ0QDB","30UZJB2POHY4464FN6NBJ2NLFWF354","","null","<img src=""img/food4.png"" style=""width:200px;border:14px solid red;"">","null","","","","","","","","","",""
"","image-keyboard-response","188","70922","0.0-190.0","3AMYWKA6YC8RVJV92PMAOUVKE1M6O9","A3NMU6AVMQ0QDB","30UZJB2POHY4464FN6NBJ2NLFWF354","","181.20000004768372","img/food1.png","75","181.80000007152557","2","0","2","2","1,0.5,0,1,0.5,0,0.5,0,1","0.5,0,1,0.5,0,1,0,1,0.5","2","false",""
"","html-keyboard-response","189","71225","0.0-191.0","3AMYWKA6YC8RVJV92PMAOUVKE1M6O9","A3NMU6AVMQ0QDB","30UZJB2POHY4464FN6NBJ2NLFWF354","","null","<img src=""img/food1.png"" style=""width:200px;border:14px solid red;"">","null","","","","","","","","","",""
"","image-keyboard-response","190","71515","0.0-193.0","3AMYWKA6YC8RVJV92PMAOUVKE1M6O9","A3NMU6AVMQ0QDB","30UZJB2POHY4464FN6NBJ2NLFWF354","","289.39999997615814","img/food1.png","75","290","2","0","2","2","1,0.5,0,1,0.5,0,0.5,0,1","0.5,0,1,0.5,0,1,0,1,0.5","2","false",""
"","html-keyboard-response","191","71820","0.0-194.0","3AMYWKA6YC8RVJV92PMAOUVKE1M6O9","A3NMU6AVMQ0QDB","30UZJB2POHY4464FN6NBJ2NLFWF354","","null","<img src=""img/food1.png"" style=""width:200px;border:14px solid red;"">","null","","","","","","","","","",""
"","image-keyboard-response","192","71973","0.0-196.0","3AMYWKA6YC8RVJV92PMAOUVKE1M6O9","A3NMU6AVMQ0QDB","30UZJB2POHY4464FN6NBJ2NLFWF354","","151.40000009536743","img/food2.png","76","152.10000002384186","3","1","1","2","1,0.5,0,1,0.5,0,0.5,0,1","0.5,0,1,0.5,0,1,0,1,0.5","2","false",""
"","html-keyboard-response","193","72276","0.0-197.0","3AMYWKA6YC8RVJV92PMAOUVKE1M6O9","A3NMU6AVMQ0QDB","30UZJB2POHY4464FN6NBJ2NLFWF354","","null","<img src=""img/food2.png"" style=""width:200px; border:14px solid green;"">","null","","","","","","","","","",""
"","image-keyboard-response","194","72342","0.0-199.0","3AMYWKA6YC8RVJV92PMAOUVKE1M6O9","A3NMU6AVMQ0QDB","30UZJB2POHY4464FN6NBJ2NLFWF354","","64.10000002384186","img/food2.png","76","64.79999995231628","3","1","1","2","1,0.5,0,1,0.5,0,0.5,0,1","0.5,0,1,0.5,0,1,0,1,0.5","2","false",""
"","html-keyboard-response","195","72647","0.0-200.0","3AMYWKA6YC8RVJV92PMAOUVKE1M6O9","A3NMU6AVMQ0QDB","30UZJB2POHY4464FN6NBJ2NLFWF354","","null","<img src=""img/food2.png"" style=""width:200px; border:14px solid green;"">","null","","","","","","","","","",""
"","image-keyboard-response","196","72750","0.0-202.0","3AMYWKA6YC8RVJV92PMAOUVKE1M6O9","A3NMU6AVMQ0QDB","30UZJB2POHY4464FN6NBJ2NLFWF354","","101.39999997615814","img/food4.png","76","102.10000002384186","3","0","3","2","1,0.5,0,1,0.5,0,0.5,0,1","0.5,0,1,0.5,0,1,0,1,0.5","2","false",""
"","html-keyboard-response","197","73054","0.0-203.0","3AMYWKA6YC8RVJV92PMAOUVKE1M6O9","A3NMU6AVMQ0QDB","30UZJB2POHY4464FN6NBJ2NLFWF354","","null","<img src=""img/food4.png"" style=""width:200px;border:14px solid red;"">","null","","","","","","","","","",""
"","image-keyboard-response","198","73113","0.0-205.0","3AMYWKA6YC8RVJV92PMAOUVKE1M6O9","A3NMU6AVMQ0QDB","30UZJB2POHY4464FN6NBJ2NLFWF354","","57.700000047683716","img/food4.png","76","58.5","3","1","3","2","1,0.5,0,1,0.5,0,0.5,0,1","0.5,0,1,0.5,0,1,0,1,0.5","2","false",""
"","html-keyboard-response","199","73416","0.0-206.0","3AMYWKA6YC8RVJV92PMAOUVKE1M6O9","A3NMU6AVMQ0QDB","30UZJB2POHY4464FN6NBJ2NLFWF354","","null","<img src=""img/food4.png"" style=""width:200px; border:14px solid green;"">","null","","","","","","","","","",""
"","image-keyboard-response","200","73503","0.0-208.0","3AMYWKA6YC8RVJV92PMAOUVKE1M6O9","A3NMU6AVMQ0QDB","30UZJB2POHY4464FN6NBJ2NLFWF354","","85.29999995231628","img/food1.png","76","85.89999997615814","3","1","2","2","1,0.5,0,1,0.5,0,0.5,0,1","0.5,0,1,0.5,0,1,0,1,0.5","2","false",""
"","html-keyboard-response","201","73807","0.0-209.0","3AMYWKA6YC8RVJV92PMAOUVKE1M6O9","A3NMU6AVMQ0QDB","30UZJB2POHY4464FN6NBJ2NLFWF354","","null","<img src=""img/food1.png"" style=""width:200px; border:14px solid green;"">","null","","","","","","","","","",""
"","image-keyboard-response","202","73871","0.0-211.0","3AMYWKA6YC8RVJV92PMAOUVKE1M6O9","A3NMU6AVMQ0QDB","30UZJB2POHY4464FN6NBJ2NLFWF354","","62.89999997615814","img/food4.png","76","63.59999990463257","3","0","3","2","1,0.5,0,1,0.5,0,0.5,0,1","0.5,0,1,0.5,0,1,0,1,0.5","2","false",""
"","html-keyboard-response","203","74173","0.0-212.0","3AMYWKA6YC8RVJV92PMAOUVKE1M6O9","A3NMU6AVMQ0QDB","30UZJB2POHY4464FN6NBJ2NLFWF354","","null","<img src=""img/food4.png"" style=""width:200px;border:14px solid red;"">","null","","","","","","","","","",""
"","image-keyboard-response","204","74255","0.0-214.0","3AMYWKA6YC8RVJV92PMAOUVKE1M6O9","A3NMU6AVMQ0QDB","30UZJB2POHY4464FN6NBJ2NLFWF354","","80.5","img/food2.png","76","81.19999992847443","3","1","1","2","1,0.5,0,1,0.5,0,0.5,0,1","0.5,0,1,0.5,0,1,0,1,0.5","2","false",""
"","html-keyboard-response","205","74560","0.0-215.0","3AMYWKA6YC8RVJV92PMAOUVKE1M6O9","A3NMU6AVMQ0QDB","30UZJB2POHY4464FN6NBJ2NLFWF354","","null","<img src=""img/food2.png"" style=""width:200px; border:14px solid green;"">","null","","","","","","","","","",""
"","image-keyboard-response","206","74633","0.0-217.0","3AMYWKA6YC8RVJV92PMAOUVKE1M6O9","A3NMU6AVMQ0QDB","30UZJB2POHY4464FN6NBJ2NLFWF354","","72.60000002384186","img/food4.png","76","73.10000002384186","3","0","3","2","1,0.5,0,1,0.5,0,0.5,0,1","0.5,0,1,0.5,0,1,0,1,0.5","2","false",""
"","html-keyboard-response","207","74938","0.0-218.0","3AMYWKA6YC8RVJV92PMAOUVKE1M6O9","A3NMU6AVMQ0QDB","30UZJB2POHY4464FN6NBJ2NLFWF354","","null","<img src=""img/food4.png"" style=""width:200px;border:14px solid red;"">","null","","","","","","","","","",""
"","image-keyboard-response","208","75008","0.0-220.0","3AMYWKA6YC8RVJV92PMAOUVKE1M6O9","A3NMU6AVMQ0QDB","30UZJB2POHY4464FN6NBJ2NLFWF354","","69.60000002384186","img/food1.png","76","70.39999997615814","3","1","2","2","1,0.5,0,1,0.5,0,0.5,0,1","0.5,0,1,0.5,0,1,0,1,0.5","2","false",""
"","html-keyboard-response","209","75311","0.0-221.0","3AMYWKA6YC8RVJV92PMAOUVKE1M6O9","A3NMU6AVMQ0QDB","30UZJB2POHY4464FN6NBJ2NLFWF354","","null","<img src=""img/food1.png"" style=""width:200px; border:14px solid green;"">","null","","","","","","","","","",""
"","image-keyboard-response","210","75412","0.0-223.0","3AMYWKA6YC8RVJV92PMAOUVKE1M6O9","A3NMU6AVMQ0QDB","30UZJB2POHY4464FN6NBJ2NLFWF354","","99.89999997615814","img/food1.png","76","100.5","3","1","2","2","1,0.5,0,1,0.5,0,0.5,0,1","0.5,0,1,0.5,0,1,0,1,0.5","2","false",""
"","html-keyboard-response","211","75714","0.0-224.0","3AMYWKA6YC8RVJV92PMAOUVKE1M6O9","A3NMU6AVMQ0QDB","30UZJB2POHY4464FN6NBJ2NLFWF354","","null","<img src=""img/food1.png"" style=""width:200px; border:14px solid green;"">","null","","","","","","","","","",""
"","image-keyboard-response","212","75792","0.0-226.0","3AMYWKA6YC8RVJV92PMAOUVKE1M6O9","A3NMU6AVMQ0QDB","30UZJB2POHY4464FN6NBJ2NLFWF354","","76.5","img/food2.png","76","77.10000002384186","3","1","1","2","1,0.5,0,1,0.5,0,0.5,0,1","0.5,0,1,0.5,0,1,0,1,0.5","2","false",""
"","html-keyboard-response","213","76095","0.0-227.0","3AMYWKA6YC8RVJV92PMAOUVKE1M6O9","A3NMU6AVMQ0QDB","30UZJB2POHY4464FN6NBJ2NLFWF354","","null","<img src=""img/food2.png"" style=""width:200px; border:14px solid green;"">","null","","","","","","","","","",""
"","image-keyboard-response","214","76174","0.0-229.0","3AMYWKA6YC8RVJV92PMAOUVKE1M6O9","A3NMU6AVMQ0QDB","30UZJB2POHY4464FN6NBJ2NLFWF354","","78.29999995231628","img/food4.png","76","79","3","1","3","2","1,0.5,0,1,0.5,0,0.5,0,1","0.5,0,1,0.5,0,1,0,1,0.5","2","false",""
"","html-keyboard-response","215","76478","0.0-230.0","3AMYWKA6YC8RVJV92PMAOUVKE1M6O9","A3NMU6AVMQ0QDB","30UZJB2POHY4464FN6NBJ2NLFWF354","","null","<img src=""img/food4.png"" style=""width:200px; border:14px solid green;"">","null","","","","","","","","","",""
"","image-keyboard-response","216","76572","0.0-232.0","3AMYWKA6YC8RVJV92PMAOUVKE1M6O9","A3NMU6AVMQ0QDB","30UZJB2POHY4464FN6NBJ2NLFWF354","","93.60000002384186","img/food1.png","76","94.30000007152557","3","1","2","2","1,0.5,0,1,0.5,0,0.5,0,1","0.5,0,1,0.5,0,1,0,1,0.5","2","false",""
"","html-keyboard-response","217","76877","0.0-233.0","3AMYWKA6YC8RVJV92PMAOUVKE1M6O9","A3NMU6AVMQ0QDB","30UZJB2POHY4464FN6NBJ2NLFWF354","","null","<img src=""img/food1.png"" style=""width:200px; border:14px solid green;"">","null","","","","","","","","","",""
"","image-keyboard-response","218","76951","0.0-235.0","3AMYWKA6YC8RVJV92PMAOUVKE1M6O9","A3NMU6AVMQ0QDB","30UZJB2POHY4464FN6NBJ2NLFWF354","","72.39999997615814","img/food2.png","76","73.20000004768372","3","1","1","2","1,0.5,0,1,0.5,0,0.5,0,1","0.5,0,1,0.5,0,1,0,1,0.5","2","false",""
"","html-keyboard-response","219","77252","0.0-236.0","3AMYWKA6YC8RVJV92PMAOUVKE1M6O9","A3NMU6AVMQ0QDB","30UZJB2POHY4464FN6NBJ2NLFWF354","","null","<img src=""img/food2.png"" style=""width:200px; border:14px solid green;"">","null","","","","","","","","","",""
"","image-keyboard-response","220","77313","0.0-238.0","3AMYWKA6YC8RVJV92PMAOUVKE1M6O9","A3NMU6AVMQ0QDB","30UZJB2POHY4464FN6NBJ2NLFWF354","","60.10000002384186","img/food2.png","76","60.799999952316284","3","1","1","2","1,0.5,0,1,0.5,0,0.5,0,1","0.5,0,1,0.5,0,1,0,1,0.5","2","false",""
"","html-keyboard-response","221","77618","0.0-239.0","3AMYWKA6YC8RVJV92PMAOUVKE1M6O9","A3NMU6AVMQ0QDB","30UZJB2POHY4464FN6NBJ2NLFWF354","","null","<img src=""img/food2.png"" style=""width:200px; border:14px solid green;"">","null","","","","","","","","","",""
"","image-keyboard-response","222","77708","0.0-241.0","3AMYWKA6YC8RVJV92PMAOUVKE1M6O9","A3NMU6AVMQ0QDB","30UZJB2POHY4464FN6NBJ2NLFWF354","","88.80000007152557","img/food4.png","76","89.5","3","1","3","2","1,0.5,0,1,0.5,0,0.5,0,1","0.5,0,1,0.5,0,1,0,1,0.5","2","false",""
"","html-keyboard-response","223","78010","0.0-242.0","3AMYWKA6YC8RVJV92PMAOUVKE1M6O9","A3NMU6AVMQ0QDB","30UZJB2POHY4464FN6NBJ2NLFWF354","","null","<img src=""img/food4.png"" style=""width:200px; border:14px solid green;"">","null","","","","","","","","","",""
"","image-keyboard-response","224","78106","0.0-244.0","3AMYWKA6YC8RVJV92PMAOUVKE1M6O9","A3NMU6AVMQ0QDB","30UZJB2POHY4464FN6NBJ2NLFWF354","","95.30000007152557","img/food1.png","76","96.10000002384186","3","1","2","2","1,0.5,0,1,0.5,0,0.5,0,1","0.5,0,1,0.5,0,1,0,1,0.5","2","false",""
"","html-keyboard-response","225","78408","0.0-245.0","3AMYWKA6YC8RVJV92PMAOUVKE1M6O9","A3NMU6AVMQ0QDB","30UZJB2POHY4464FN6NBJ2NLFWF354","","null","<img src=""img/food1.png"" style=""width:200px; border:14px solid green;"">","null","","","","","","","","","",""
"","image-keyboard-response","226","78508","0.0-247.0","3AMYWKA6YC8RVJV92PMAOUVKE1M6O9","A3NMU6AVMQ0QDB","30UZJB2POHY4464FN6NBJ2NLFWF354","","98.70000004768372","img/food1.png","76","99.39999997615814","3","1","2","2","1,0.5,0,1,0.5,0,0.5,0,1","0.5,0,1,0.5,0,1,0,1,0.5","2","false",""
"","html-keyboard-response","227","78810","0.0-248.0","3AMYWKA6YC8RVJV92PMAOUVKE1M6O9","A3NMU6AVMQ0QDB","30UZJB2POHY4464FN6NBJ2NLFWF354","","null","<img src=""img/food1.png"" style=""width:200px; border:14px solid green;"">","null","","","","","","","","","",""
"","image-keyboard-response","228","78924","0.0-250.0","3AMYWKA6YC8RVJV92PMAOUVKE1M6O9","A3NMU6AVMQ0QDB","30UZJB2POHY4464FN6NBJ2NLFWF354","","113.5","img/food1.png","76","114.10000002384186","3","1","2","2","1,0.5,0,1,0.5,0,0.5,0,1","0.5,0,1,0.5,0,1,0,1,0.5","2","false",""
"","html-keyboard-response","229","79226","0.0-251.0","3AMYWKA6YC8RVJV92PMAOUVKE1M6O9","A3NMU6AVMQ0QDB","30UZJB2POHY4464FN6NBJ2NLFWF354","","null","<img src=""img/food1.png"" style=""width:200px; border:14px solid green;"">","null","","","","","","","","","",""
"","image-keyboard-response","230","79322","0.0-253.0","3AMYWKA6YC8RVJV92PMAOUVKE1M6O9","A3NMU6AVMQ0QDB","30UZJB2POHY4464FN6NBJ2NLFWF354","","95.60000002384186","img/food2.png","76","96.40000009536743","3","1","1","2","1,0.5,0,1,0.5,0,0.5,0,1","0.5,0,1,0.5,0,1,0,1,0.5","2","false",""
"","html-keyboard-response","231","79626","0.0-254.0","3AMYWKA6YC8RVJV92PMAOUVKE1M6O9","A3NMU6AVMQ0QDB","30UZJB2POHY4464FN6NBJ2NLFWF354","","null","<img src=""img/food2.png"" style=""width:200px; border:14px solid green;"">","null","","","","","","","","","",""
"","image-keyboard-response","232","79720","0.0-256.0","3AMYWKA6YC8RVJV92PMAOUVKE1M6O9","A3NMU6AVMQ0QDB","30UZJB2POHY4464FN6NBJ2NLFWF354","","93.70000004768372","img/food2.png","76","94.40000009536743","3","1","1","2","1,0.5,0,1,0.5,0,0.5,0,1","0.5,0,1,0.5,0,1,0,1,0.5","2","false",""
"","html-keyboard-response","233","80026","0.0-257.0","3AMYWKA6YC8RVJV92PMAOUVKE1M6O9","A3NMU6AVMQ0QDB","30UZJB2POHY4464FN6NBJ2NLFWF354","","null","<img src=""img/food2.png"" style=""width:200px; border:14px solid green;"">","null","","","","","","","","","",""
"","image-keyboard-response","234","80120","0.0-259.0","3AMYWKA6YC8RVJV92PMAOUVKE1M6O9","A3NMU6AVMQ0QDB","30UZJB2POHY4464FN6NBJ2NLFWF354","","93","img/food2.png","76","93.89999997615814","3","1","1","2","1,0.5,0,1,0.5,0,0.5,0,1","0.5,0,1,0.5,0,1,0,1,0.5","2","false",""
"","html-keyboard-response","235","80423","0.0-260.0","3AMYWKA6YC8RVJV92PMAOUVKE1M6O9","A3NMU6AVMQ0QDB","30UZJB2POHY4464FN6NBJ2NLFWF354","","null","<img src=""img/food2.png"" style=""width:200px; border:14px solid green;"">","null","","","","","","","","","",""
"","image-keyboard-response","236","80510","0.0-262.0","3AMYWKA6YC8RVJV92PMAOUVKE1M6O9","A3NMU6AVMQ0QDB","30UZJB2POHY4464FN6NBJ2NLFWF354","","86.39999997615814","img/food4.png","76","87.10000002384186","3","1","3","2","1,0.5,0,1,0.5,0,0.5,0,1","0.5,0,1,0.5,0,1,0,1,0.5","2","false",""
"","html-keyboard-response","237","80812","0.0-263.0","3AMYWKA6YC8RVJV92PMAOUVKE1M6O9","A3NMU6AVMQ0QDB","30UZJB2POHY4464FN6NBJ2NLFWF354","","null","<img src=""img/food4.png"" style=""width:200px; border:14px solid green;"">","null","","","","","","","","","",""
"","image-keyboard-response","238","80897","0.0-265.0","3AMYWKA6YC8RVJV92PMAOUVKE1M6O9","A3NMU6AVMQ0QDB","30UZJB2POHY4464FN6NBJ2NLFWF354","","83.70000004768372","img/food2.png","76","84.39999997615814","3","1","1","2","1,0.5,0,1,0.5,0,0.5,0,1","0.5,0,1,0.5,0,1,0,1,0.5","2","false",""
"","html-keyboard-response","239","81199","0.0-266.0","3AMYWKA6YC8RVJV92PMAOUVKE1M6O9","A3NMU6AVMQ0QDB","30UZJB2POHY4464FN6NBJ2NLFWF354","","null","<img src=""img/food2.png"" style=""width:200px; border:14px solid green;"">","null","","","","","","","","","",""
"","image-keyboard-response","240","81298","0.0-268.0","3AMYWKA6YC8RVJV92PMAOUVKE1M6O9","A3NMU6AVMQ0QDB","30UZJB2POHY4464FN6NBJ2NLFWF354","","97.39999997615814","img/food4.png","76","98","3","0","3","2","1,0.5,0,1,0.5,0,0.5,0,1","0.5,0,1,0.5,0,1,0,1,0.5","2","false",""
"","html-keyboard-response","241","81601","0.0-269.0","3AMYWKA6YC8RVJV92PMAOUVKE1M6O9","A3NMU6AVMQ0QDB","30UZJB2POHY4464FN6NBJ2NLFWF354","","null","<img src=""img/food4.png"" style=""width:200px;border:14px solid red;"">","null","","","","","","","","","",""
"","image-keyboard-response","242","81694","0.0-271.0","3AMYWKA6YC8RVJV92PMAOUVKE1M6O9","A3NMU6AVMQ0QDB","30UZJB2POHY4464FN6NBJ2NLFWF354","","90.89999997615814","img/food4.png","76","91.70000004768372","3","1","3","2","1,0.5,0,1,0.5,0,0.5,0,1","0.5,0,1,0.5,0,1,0,1,0.5","2","false",""
"","html-keyboard-response","243","81999","0.0-272.0","3AMYWKA6YC8RVJV92PMAOUVKE1M6O9","A3NMU6AVMQ0QDB","30UZJB2POHY4464FN6NBJ2NLFWF354","","null","<img src=""img/food4.png"" style=""width:200px; border:14px solid green;"">","null","","","","","","","","","",""
"","image-keyboard-response","244","82073","0.0-274.0","3AMYWKA6YC8RVJV92PMAOUVKE1M6O9","A3NMU6AVMQ0QDB","30UZJB2POHY4464FN6NBJ2NLFWF354","","72.79999995231628","img/food1.png","76","73.59999990463257","3","1","2","2","1,0.5,0,1,0.5,0,0.5,0,1","0.5,0,1,0.5,0,1,0,1,0.5","2","false",""
"","html-keyboard-response","245","82375","0.0-275.0","3AMYWKA6YC8RVJV92PMAOUVKE1M6O9","A3NMU6AVMQ0QDB","30UZJB2POHY4464FN6NBJ2NLFWF354","","null","<img src=""img/food1.png"" style=""width:200px; border:14px solid green;"">","null","","","","","","","","","",""
"","image-keyboard-response","246","82467","0.0-277.0","3AMYWKA6YC8RVJV92PMAOUVKE1M6O9","A3NMU6AVMQ0QDB","30UZJB2POHY4464FN6NBJ2NLFWF354","","91","img/food1.png","76","91.79999995231628","3","1","2","2","1,0.5,0,1,0.5,0,0.5,0,1","0.5,0,1,0.5,0,1,0,1,0.5","2","false",""
"","html-keyboard-response","247","82772","0.0-278.0","3AMYWKA6YC8RVJV92PMAOUVKE1M6O9","A3NMU6AVMQ0QDB","30UZJB2POHY4464FN6NBJ2NLFWF354","","null","<img src=""img/food1.png"" style=""width:200px; border:14px solid green;"">","null","","","","","","","","","",""
"","image-keyboard-response","248","83053","0.0-280.0","3AMYWKA6YC8RVJV92PMAOUVKE1M6O9","A3NMU6AVMQ0QDB","30UZJB2POHY4464FN6NBJ2NLFWF354","","280.10000002384186","img/food4.png","76","280.7999999523163","3","0","3","2","1,0.5,0,1,0.5,0,0.5,0,1","0.5,0,1,0.5,0,1,0,1,0.5","2","false",""
"","html-keyboard-response","249","83359","0.0-281.0","3AMYWKA6YC8RVJV92PMAOUVKE1M6O9","A3NMU6AVMQ0QDB","30UZJB2POHY4464FN6NBJ2NLFWF354","","null","<img src=""img/food4.png"" style=""width:200px;border:14px solid red;"">","null","","","","","","","","","",""
"","image-keyboard-response","250","83458","0.0-283.0","3AMYWKA6YC8RVJV92PMAOUVKE1M6O9","A3NMU6AVMQ0QDB","30UZJB2POHY4464FN6NBJ2NLFWF354","","97.59999990463257","img/food2.png","76","98.29999995231628","3","1","1","2","1,0.5,0,1,0.5,0,0.5,0,1","0.5,0,1,0.5,0,1,0,1,0.5","2","false",""
"","html-keyboard-response","251","83762","0.0-284.0","3AMYWKA6YC8RVJV92PMAOUVKE1M6O9","A3NMU6AVMQ0QDB","30UZJB2POHY4464FN6NBJ2NLFWF354","","null","<img src=""img/food2.png"" style=""width:200px; border:14px solid green;"">","null","","","","","","","","","",""
"","image-keyboard-response","252","83847","0.0-286.0","3AMYWKA6YC8RVJV92PMAOUVKE1M6O9","A3NMU6AVMQ0QDB","30UZJB2POHY4464FN6NBJ2NLFWF354","","84.20000004768372","img/food1.png","76","84.89999997615814","3","1","2","2","1,0.5,0,1,0.5,0,0.5,0,1","0.5,0,1,0.5,0,1,0,1,0.5","2","false",""
"","html-keyboard-response","253","84149","0.0-287.0","3AMYWKA6YC8RVJV92PMAOUVKE1M6O9","A3NMU6AVMQ0QDB","30UZJB2POHY4464FN6NBJ2NLFWF354","","null","<img src=""img/food1.png"" style=""width:200px; border:14px solid green;"">","null","","","","","","","","","",""
"","image-keyboard-response","254","84229","0.0-289.0","3AMYWKA6YC8RVJV92PMAOUVKE1M6O9","A3NMU6AVMQ0QDB","30UZJB2POHY4464FN6NBJ2NLFWF354","","78.60000002384186","img/food2.png","76","79.40000009536743","3","1","1","2","1,0.5,0,1,0.5,0,0.5,0,1","0.5,0,1,0.5,0,1,0,1,0.5","2","false",""
"","html-keyboard-response","255","84532","0.0-290.0","3AMYWKA6YC8RVJV92PMAOUVKE1M6O9","A3NMU6AVMQ0QDB","30UZJB2POHY4464FN6NBJ2NLFWF354","","null","<img src=""img/food2.png"" style=""width:200px; border:14px solid green;"">","null","","","","","","","","","",""
"","image-keyboard-response","256","84625","0.0-292.0","3AMYWKA6YC8RVJV92PMAOUVKE1M6O9","A3NMU6AVMQ0QDB","30UZJB2POHY4464FN6NBJ2NLFWF354","","91.39999997615814","img/food2.png","76","92","3","1","1","2","1,0.5,0,1,0.5,0,0.5,0,1","0.5,0,1,0.5,0,1,0,1,0.5","2","false",""
"","html-keyboard-response","257","84927","0.0-293.0","3AMYWKA6YC8RVJV92PMAOUVKE1M6O9","A3NMU6AVMQ0QDB","30UZJB2POHY4464FN6NBJ2NLFWF354","","null","<img src=""img/food2.png"" style=""width:200px; border:14px solid green;"">","null","","","","","","","","","",""
"","image-keyboard-response","258","85049","0.0-295.0","3AMYWKA6YC8RVJV92PMAOUVKE1M6O9","A3NMU6AVMQ0QDB","30UZJB2POHY4464FN6NBJ2NLFWF354","","121","img/food2.png","76","121.79999995231628","3","1","1","2","1,0.5,0,1,0.5,0,0.5,0,1","0.5,0,1,0.5,0,1,0,1,0.5","2","false",""
"","html-keyboard-response","259","85350","0.0-296.0","3AMYWKA6YC8RVJV92PMAOUVKE1M6O9","A3NMU6AVMQ0QDB","30UZJB2POHY4464FN6NBJ2NLFWF354","","null","<img src=""img/food2.png"" style=""width:200px; border:14px solid green;"">","null","","","","","","","","","",""
"","image-keyboard-response","260","85465","0.0-298.0","3AMYWKA6YC8RVJV92PMAOUVKE1M6O9","A3NMU6AVMQ0QDB","30UZJB2POHY4464FN6NBJ2NLFWF354","","113.89999997615814","img/food1.png","76","114.59999990463257","3","1","2","2","1,0.5,0,1,0.5,0,0.5,0,1","0.5,0,1,0.5,0,1,0,1,0.5","2","false",""
"","html-keyboard-response","261","85770","0.0-299.0","3AMYWKA6YC8RVJV92PMAOUVKE1M6O9","A3NMU6AVMQ0QDB","30UZJB2POHY4464FN6NBJ2NLFWF354","","null","<img src=""img/food1.png"" style=""width:200px; border:14px solid green;"">","null","","","","","","","","","",""
"","image-keyboard-response","262","85864","0.0-301.0","3AMYWKA6YC8RVJV92PMAOUVKE1M6O9","A3NMU6AVMQ0QDB","30UZJB2POHY4464FN6NBJ2NLFWF354","","93.19999992847443","img/food4.png","76","93.89999997615814","3","1","3","2","1,0.5,0,1,0.5,0,0.5,0,1","0.5,0,1,0.5,0,1,0,1,0.5","2","false",""
"","html-keyboard-response","263","86168","0.0-302.0","3AMYWKA6YC8RVJV92PMAOUVKE1M6O9","A3NMU6AVMQ0QDB","30UZJB2POHY4464FN6NBJ2NLFWF354","","null","<img src=""img/food4.png"" style=""width:200px; border:14px solid green;"">","null","","","","","","","","","",""
"","image-keyboard-response","264","86258","0.0-304.0","3AMYWKA6YC8RVJV92PMAOUVKE1M6O9","A3NMU6AVMQ0QDB","30UZJB2POHY4464FN6NBJ2NLFWF354","","88.70000004768372","img/food4.png","76","89.5","3","0","3","2","1,0.5,0,1,0.5,0,0.5,0,1","0.5,0,1,0.5,0,1,0,1,0.5","2","false",""
"","html-keyboard-response","265","86559","0.0-305.0","3AMYWKA6YC8RVJV92PMAOUVKE1M6O9","A3NMU6AVMQ0QDB","30UZJB2POHY4464FN6NBJ2NLFWF354","","null","<img src=""img/food4.png"" style=""width:200px;border:14px solid red;"">","null","","","","","","","","","",""
"","image-keyboard-response","266","86647","0.0-307.0","3AMYWKA6YC8RVJV92PMAOUVKE1M6O9","A3NMU6AVMQ0QDB","30UZJB2POHY4464FN6NBJ2NLFWF354","","86.89999997615814","img/food4.png","76","87.59999990463257","3","0","3","2","1,0.5,0,1,0.5,0,0.5,0,1","0.5,0,1,0.5,0,1,0,1,0.5","2","false",""
"","html-keyboard-response","267","86952","0.0-308.0","3AMYWKA6YC8RVJV92PMAOUVKE1M6O9","A3NMU6AVMQ0QDB","30UZJB2POHY4464FN6NBJ2NLFWF354","","null","<img src=""img/food4.png"" style=""width:200px;border:14px solid red;"">","null","","","","","","","","","",""
"","image-keyboard-response","268","87052","0.0-310.0","3AMYWKA6YC8RVJV92PMAOUVKE1M6O9","A3NMU6AVMQ0QDB","30UZJB2POHY4464FN6NBJ2NLFWF354","","98.60000002384186","img/food4.png","76","99.39999997615814","3","0","3","2","1,0.5,0,1,0.5,0,0.5,0,1","0.5,0,1,0.5,0,1,0,1,0.5","2","false",""
"","html-keyboard-response","269","87354","0.0-311.0","3AMYWKA6YC8RVJV92PMAOUVKE1M6O9","A3NMU6AVMQ0QDB","30UZJB2POHY4464FN6NBJ2NLFWF354","","null","<img src=""img/food4.png"" style=""width:200px;border:14px solid red;"">","null","","","","","","","","","",""
"","image-keyboard-response","270","87448","0.0-313.0","3AMYWKA6YC8RVJV92PMAOUVKE1M6O9","A3NMU6AVMQ0QDB","30UZJB2POHY4464FN6NBJ2NLFWF354","","93.29999995231628","img/food1.png","76","94.10000002384186","3","1","2","2","1,0.5,0,1,0.5,0,0.5,0,1","0.5,0,1,0.5,0,1,0,1,0.5","2","false",""
"","html-keyboard-response","271","87753","0.0-314.0","3AMYWKA6YC8RVJV92PMAOUVKE1M6O9","A3NMU6AVMQ0QDB","30UZJB2POHY4464FN6NBJ2NLFWF354","","null","<img src=""img/food1.png"" style=""width:200px; border:14px solid green;"">","null","","","","","","","","","",""
"","image-keyboard-response","272","87848","0.0-316.0","3AMYWKA6YC8RVJV92PMAOUVKE1M6O9","A3NMU6AVMQ0QDB","30UZJB2POHY4464FN6NBJ2NLFWF354","","94.10000002384186","img/food2.png","76","94.70000004768372","3","1","1","2","1,0.5,0,1,0.5,0,0.5,0,1","0.5,0,1,0.5,0,1,0,1,0.5","2","false",""
"","html-keyboard-response","273","88151","0.0-317.0","3AMYWKA6YC8RVJV92PMAOUVKE1M6O9","A3NMU6AVMQ0QDB","30UZJB2POHY4464FN6NBJ2NLFWF354","","null","<img src=""img/food2.png"" style=""width:200px; border:14px solid green;"">","null","","","","","","","","","",""
"","image-keyboard-response","274","88266","0.0-319.0","3AMYWKA6YC8RVJV92PMAOUVKE1M6O9","A3NMU6AVMQ0QDB","30UZJB2POHY4464FN6NBJ2NLFWF354","","113.70000004768372","img/food4.png","76","114.5","3","0","3","2","1,0.5,0,1,0.5,0,0.5,0,1","0.5,0,1,0.5,0,1,0,1,0.5","2","false",""
"","html-keyboard-response","275","88570","0.0-320.0","3AMYWKA6YC8RVJV92PMAOUVKE1M6O9","A3NMU6AVMQ0QDB","30UZJB2POHY4464FN6NBJ2NLFWF354","","null","<img src=""img/food4.png"" style=""width:200px;border:14px solid red;"">","null","","","","","","","","","",""
"","image-keyboard-response","276","88675","0.0-322.0","3AMYWKA6YC8RVJV92PMAOUVKE1M6O9","A3NMU6AVMQ0QDB","30UZJB2POHY4464FN6NBJ2NLFWF354","","103.70000004768372","img/food2.png","76","104.5","3","1","1","2","1,0.5,0,1,0.5,0,0.5,0,1","0.5,0,1,0.5,0,1,0,1,0.5","2","false",""
"","html-keyboard-response","277","88977","0.0-323.0","3AMYWKA6YC8RVJV92PMAOUVKE1M6O9","A3NMU6AVMQ0QDB","30UZJB2POHY4464FN6NBJ2NLFWF354","","null","<img src=""img/food2.png"" style=""width:200px; border:14px solid green;"">","null","","","","","","","","","",""
"","image-keyboard-response","278","89091","0.0-325.0","3AMYWKA6YC8RVJV92PMAOUVKE1M6O9","A3NMU6AVMQ0QDB","30UZJB2POHY4464FN6NBJ2NLFWF354","","112.10000002384186","img/food2.png","76","112.79999995231628","3","1","1","2","1,0.5,0,1,0.5,0,0.5,0,1","0.5,0,1,0.5,0,1,0,1,0.5","2","false",""
"","html-keyboard-response","279","89396","0.0-326.0","3AMYWKA6YC8RVJV92PMAOUVKE1M6O9","A3NMU6AVMQ0QDB","30UZJB2POHY4464FN6NBJ2NLFWF354","","null","<img src=""img/food2.png"" style=""width:200px; border:14px solid green;"">","null","","","","","","","","","",""
"","image-keyboard-response","280","89500","0.0-328.0","3AMYWKA6YC8RVJV92PMAOUVKE1M6O9","A3NMU6AVMQ0QDB","30UZJB2POHY4464FN6NBJ2NLFWF354","","103.29999995231628","img/food2.png","76","104","3","1","1","2","1,0.5,0,1,0.5,0,0.5,0,1","0.5,0,1,0.5,0,1,0,1,0.5","2","false",""
"","html-keyboard-response","281","89803","0.0-329.0","3AMYWKA6YC8RVJV92PMAOUVKE1M6O9","A3NMU6AVMQ0QDB","30UZJB2POHY4464FN6NBJ2NLFWF354","","null","<img src=""img/food2.png"" style=""width:200px; border:14px solid green;"">","null","","","","","","","","","",""
"","image-keyboard-response","282","89900","0.0-331.0","3AMYWKA6YC8RVJV92PMAOUVKE1M6O9","A3NMU6AVMQ0QDB","30UZJB2POHY4464FN6NBJ2NLFWF354","","95.89999997615814","img/food1.png","76","96.80000007152557","3","1","2","2","1,0.5,0,1,0.5,0,0.5,0,1","0.5,0,1,0.5,0,1,0,1,0.5","2","false",""
"","html-keyboard-response","283","90202","0.0-332.0","3AMYWKA6YC8RVJV92PMAOUVKE1M6O9","A3NMU6AVMQ0QDB","30UZJB2POHY4464FN6NBJ2NLFWF354","","null","<img src=""img/food1.png"" style=""width:200px; border:14px solid green;"">","null","","","","","","","","","",""
"","image-keyboard-response","284","90292","0.0-334.0","3AMYWKA6YC8RVJV92PMAOUVKE1M6O9","A3NMU6AVMQ0QDB","30UZJB2POHY4464FN6NBJ2NLFWF354","","89.5","img/food1.png","76","90.30000007152557","3","1","2","2","1,0.5,0,1,0.5,0,0.5,0,1","0.5,0,1,0.5,0,1,0,1,0.5","2","false",""
"","html-keyboard-response","285","90598","0.0-335.0","3AMYWKA6YC8RVJV92PMAOUVKE1M6O9","A3NMU6AVMQ0QDB","30UZJB2POHY4464FN6NBJ2NLFWF354","","null","<img src=""img/food1.png"" style=""width:200px; border:14px solid green;"">","null","","","","","","","","","",""
"","image-keyboard-response","286","90694","0.0-337.0","3AMYWKA6YC8RVJV92PMAOUVKE1M6O9","A3NMU6AVMQ0QDB","30UZJB2POHY4464FN6NBJ2NLFWF354","","95.10000002384186","img/food4.png","76","95.80000007152557","3","1","3","2","1,0.5,0,1,0.5,0,0.5,0,1","0.5,0,1,0.5,0,1,0,1,0.5","2","false",""
"","html-keyboard-response","287","90996","0.0-338.0","3AMYWKA6YC8RVJV92PMAOUVKE1M6O9","A3NMU6AVMQ0QDB","30UZJB2POHY4464FN6NBJ2NLFWF354","","null","<img src=""img/food4.png"" style=""width:200px; border:14px solid green;"">","null","","","","","","","","","",""
"","image-keyboard-response","288","91118","0.0-340.0","3AMYWKA6YC8RVJV92PMAOUVKE1M6O9","A3NMU6AVMQ0QDB","30UZJB2POHY4464FN6NBJ2NLFWF354","","120.5","img/food1.png","76","121.39999997615814","3","1","2","2","1,0.5,0,1,0.5,0,0.5,0,1","0.5,0,1,0.5,0,1,0,1,0.5","2","false",""
"","html-keyboard-response","289","91422","0.0-341.0","3AMYWKA6YC8RVJV92PMAOUVKE1M6O9","A3NMU6AVMQ0QDB","30UZJB2POHY4464FN6NBJ2NLFWF354","","null","<img src=""img/food1.png"" style=""width:200px; border:14px solid green;"">","null","","","","","","","","","",""
"","image-keyboard-response","290","91534","0.0-343.0","3AMYWKA6YC8RVJV92PMAOUVKE1M6O9","A3NMU6AVMQ0QDB","30UZJB2POHY4464FN6NBJ2NLFWF354","","110.60000002384186","img/food2.png","76","111.5","3","1","1","2","1,0.5,0,1,0.5,0,0.5,0,1","0.5,0,1,0.5,0,1,0,1,0.5","2","false",""
"","html-keyboard-response","291","91836","0.0-344.0","3AMYWKA6YC8RVJV92PMAOUVKE1M6O9","A3NMU6AVMQ0QDB","30UZJB2POHY4464FN6NBJ2NLFWF354","","null","<img src=""img/food2.png"" style=""width:200px; border:14px solid green;"">","null","","","","","","","","","",""
"","image-keyboard-response","292","91926","0.0-346.0","3AMYWKA6YC8RVJV92PMAOUVKE1M6O9","A3NMU6AVMQ0QDB","30UZJB2POHY4464FN6NBJ2NLFWF354","","88","img/food4.png","76","88.80000007152557","3","1","3","2","1,0.5,0,1,0.5,0,0.5,0,1","0.5,0,1,0.5,0,1,0,1,0.5","2","false",""
"","html-keyboard-response","293","92228","0.0-347.0","3AMYWKA6YC8RVJV92PMAOUVKE1M6O9","A3NMU6AVMQ0QDB","30UZJB2POHY4464FN6NBJ2NLFWF354","","null","<img src=""img/food4.png"" style=""width:200px; border:14px solid green;"">","null","","","","","","","","","",""
"","image-keyboard-response","294","92339","0.0-349.0","3AMYWKA6YC8RVJV92PMAOUVKE1M6O9","A3NMU6AVMQ0QDB","30UZJB2POHY4464FN6NBJ2NLFWF354","","109.89999997615814","img/food1.png","76","110.69999992847443","3","1","2","2","1,0.5,0,1,0.5,0,0.5,0,1","0.5,0,1,0.5,0,1,0,1,0.5","2","false",""
"","html-keyboard-response","295","92646","0.0-350.0","3AMYWKA6YC8RVJV92PMAOUVKE1M6O9","A3NMU6AVMQ0QDB","30UZJB2POHY4464FN6NBJ2NLFWF354","","null","<img src=""img/food1.png"" style=""width:200px; border:14px solid green;"">","null","","","","","","","","","",""
"","image-keyboard-response","296","92730","0.0-352.0","3AMYWKA6YC8RVJV92PMAOUVKE1M6O9","A3NMU6AVMQ0QDB","30UZJB2POHY4464FN6NBJ2NLFWF354","","82.20000004768372","img/food4.png","76","83","3","1","3","2","1,0.5,0,1,0.5,0,0.5,0,1","0.5,0,1,0.5,0,1,0,1,0.5","2","false",""
"","html-keyboard-response","297","93032","0.0-353.0","3AMYWKA6YC8RVJV92PMAOUVKE1M6O9","A3NMU6AVMQ0QDB","30UZJB2POHY4464FN6NBJ2NLFWF354","","null","<img src=""img/food4.png"" style=""width:200px; border:14px solid green;"">","null","","","","","","","","","",""
"","image-keyboard-response","298","93116","0.0-355.0","3AMYWKA6YC8RVJV92PMAOUVKE1M6O9","A3NMU6AVMQ0QDB","30UZJB2POHY4464FN6NBJ2NLFWF354","","83.20000004768372","img/food4.png","76","84","3","1","3","2","1,0.5,0,1,0.5,0,0.5,0,1","0.5,0,1,0.5,0,1,0,1,0.5","2","false",""
"","html-keyboard-response","299","93418","0.0-356.0","3AMYWKA6YC8RVJV92PMAOUVKE1M6O9","A3NMU6AVMQ0QDB","30UZJB2POHY4464FN6NBJ2NLFWF354","","null","<img src=""img/food4.png"" style=""width:200px; border:14px solid green;"">","null","","","","","","","","","",""
"","image-keyboard-response","300","93496","0.0-358.0","3AMYWKA6YC8RVJV92PMAOUVKE1M6O9","A3NMU6AVMQ0QDB","30UZJB2POHY4464FN6NBJ2NLFWF354","","77.39999997615814","img/food2.png","76","78.20000004768372","3","1","1","2","1,0.5,0,1,0.5,0,0.5,0,1","0.5,0,1,0.5,0,1,0,1,0.5","2","false",""
"","html-keyboard-response","301","93801","0.0-359.0","3AMYWKA6YC8RVJV92PMAOUVKE1M6O9","A3NMU6AVMQ0QDB","30UZJB2POHY4464FN6NBJ2NLFWF354","","null","<img src=""img/food2.png"" style=""width:200px; border:14px solid green;"">","null","","","","","","","","","",""
"","image-keyboard-response","302","93898","0.0-361.0","3AMYWKA6YC8RVJV92PMAOUVKE1M6O9","A3NMU6AVMQ0QDB","30UZJB2POHY4464FN6NBJ2NLFWF354","","95.5","img/food1.png","76","96.30000007152557","3","1","2","2","1,0.5,0,1,0.5,0,0.5,0,1","0.5,0,1,0.5,0,1,0,1,0.5","2","false",""
"","html-keyboard-response","303","94201","0.0-362.0","3AMYWKA6YC8RVJV92PMAOUVKE1M6O9","A3NMU6AVMQ0QDB","30UZJB2POHY4464FN6NBJ2NLFWF354","","null","<img src=""img/food1.png"" style=""width:200px; border:14px solid green;"">","null","","","","","","","","","",""
"","image-keyboard-response","304","94310","0.0-364.0","3AMYWKA6YC8RVJV92PMAOUVKE1M6O9","A3NMU6AVMQ0QDB","30UZJB2POHY4464FN6NBJ2NLFWF354","","106.30000007152557","img/food4.png","76","107","3","1","3","2","1,0.5,0,1,0.5,0,0.5,0,1","0.5,0,1,0.5,0,1,0,1,0.5","2","false",""
"","html-keyboard-response","305","94612","0.0-365.0","3AMYWKA6YC8RVJV92PMAOUVKE1M6O9","A3NMU6AVMQ0QDB","30UZJB2POHY4464FN6NBJ2NLFWF354","","null","<img src=""img/food4.png"" style=""width:200px; border:14px solid green;"">","null","","","","","","","","","",""
"","image-keyboard-response","306","94711","0.0-367.0","3AMYWKA6YC8RVJV92PMAOUVKE1M6O9","A3NMU6AVMQ0QDB","30UZJB2POHY4464FN6NBJ2NLFWF354","","97.39999997615814","img/food1.png","76","98.10000002384186","3","1","2","2","1,0.5,0,1,0.5,0,0.5,0,1","0.5,0,1,0.5,0,1,0,1,0.5","2","false",""
"","html-keyboard-response","307","95012","0.0-368.0","3AMYWKA6YC8RVJV92PMAOUVKE1M6O9","A3NMU6AVMQ0QDB","30UZJB2POHY4464FN6NBJ2NLFWF354","","null","<img src=""img/food1.png"" style=""width:200px; border:14px solid green;"">","null","","","","","","","","","",""
"","image-keyboard-response","308","95114","0.0-370.0","3AMYWKA6YC8RVJV92PMAOUVKE1M6O9","A3NMU6AVMQ0QDB","30UZJB2POHY4464FN6NBJ2NLFWF354","","100.89999997615814","img/food4.png","76","101.5","3","1","3","2","1,0.5,0,1,0.5,0,0.5,0,1","0.5,0,1,0.5,0,1,0,1,0.5","2","false",""
"","html-keyboard-response","309","95420","0.0-371.0","3AMYWKA6YC8RVJV92PMAOUVKE1M6O9","A3NMU6AVMQ0QDB","30UZJB2POHY4464FN6NBJ2NLFWF354","","null","<img src=""img/food4.png"" style=""width:200px; border:14px solid green;"">","null","","","","","","","","","",""
"","image-keyboard-response","310","95697","0.0-373.0","3AMYWKA6YC8RVJV92PMAOUVKE1M6O9","A3NMU6AVMQ0QDB","30UZJB2POHY4464FN6NBJ2NLFWF354","","276.2000000476837","img/food2.png","76","276.8000000715256","3","1","1","2","1,0.5,0,1,0.5,0,0.5,0,1","0.5,0,1,0.5,0,1,0,1,0.5","2","false",""
"","html-keyboard-response","311","95999","0.0-374.0","3AMYWKA6YC8RVJV92PMAOUVKE1M6O9","A3NMU6AVMQ0QDB","30UZJB2POHY4464FN6NBJ2NLFWF354","","null","<img src=""img/food2.png"" style=""width:200px; border:14px solid green;"">","null","","","","","","","","","",""
"","image-keyboard-response","312","96094","0.0-376.0","3AMYWKA6YC8RVJV92PMAOUVKE1M6O9","A3NMU6AVMQ0QDB","30UZJB2POHY4464FN6NBJ2NLFWF354","","93.70000004768372","img/food2.png","76","94.5","3","1","1","2","1,0.5,0,1,0.5,0,0.5,0,1","0.5,0,1,0.5,0,1,0,1,0.5","2","false",""
"","html-keyboard-response","313","96399","0.0-377.0","3AMYWKA6YC8RVJV92PMAOUVKE1M6O9","A3NMU6AVMQ0QDB","30UZJB2POHY4464FN6NBJ2NLFWF354","","null","<img src=""img/food2.png"" style=""width:200px; border:14px solid green;"">","null","","","","","","","","","",""
"","image-keyboard-response","314","96535","0.0-379.0","3AMYWKA6YC8RVJV92PMAOUVKE1M6O9","A3NMU6AVMQ0QDB","30UZJB2POHY4464FN6NBJ2NLFWF354","","134.30000007152557","img/food4.png","76","135.20000004768372","3","0","3","2","1,0.5,0,1,0.5,0,0.5,0,1","0.5,0,1,0.5,0,1,0,1,0.5","2","false",""
"","html-keyboard-response","315","96836","0.0-380.0","3AMYWKA6YC8RVJV92PMAOUVKE1M6O9","A3NMU6AVMQ0QDB","30UZJB2POHY4464FN6NBJ2NLFWF354","","null","<img src=""img/food4.png"" style=""width:200px;border:14px solid red;"">","null","","","","","","","","","",""
"","image-keyboard-response","316","96951","0.0-382.0","3AMYWKA6YC8RVJV92PMAOUVKE1M6O9","A3NMU6AVMQ0QDB","30UZJB2POHY4464FN6NBJ2NLFWF354","","113.39999997615814","img/food1.png","76","114","3","1","2","2","1,0.5,0,1,0.5,0,0.5,0,1","0.5,0,1,0.5,0,1,0,1,0.5","2","false",""
"","html-keyboard-response","317","97252","0.0-383.0","3AMYWKA6YC8RVJV92PMAOUVKE1M6O9","A3NMU6AVMQ0QDB","30UZJB2POHY4464FN6NBJ2NLFWF354","","null","<img src=""img/food1.png"" style=""width:200px; border:14px solid green;"">","null","","","","","","","","","",""
"","image-keyboard-response","318","97359","0.0-385.0","3AMYWKA6YC8RVJV92PMAOUVKE1M6O9","A3NMU6AVMQ0QDB","30UZJB2POHY4464FN6NBJ2NLFWF354","","106","img/food2.png","76","106.80000007152557","3","1","1","2","1,0.5,0,1,0.5,0,0.5,0,1","0.5,0,1,0.5,0,1,0,1,0.5","2","false",""
"","html-keyboard-response","319","97663","0.0-386.0","3AMYWKA6YC8RVJV92PMAOUVKE1M6O9","A3NMU6AVMQ0QDB","30UZJB2POHY4464FN6NBJ2NLFWF354","","null","<img src=""img/food2.png"" style=""width:200px; border:14px solid green;"">","null","","","","","","","","","",""
"","image-keyboard-response","320","97743","0.0-388.0","3AMYWKA6YC8RVJV92PMAOUVKE1M6O9","A3NMU6AVMQ0QDB","30UZJB2POHY4464FN6NBJ2NLFWF354","","78.80000007152557","img/food4.png","76","79.60000002384186","3","0","3","2","1,0.5,0,1,0.5,0,0.5,0,1","0.5,0,1,0.5,0,1,0,1,0.5","2","false",""
"","html-keyboard-response","321","98047","0.0-389.0","3AMYWKA6YC8RVJV92PMAOUVKE1M6O9","A3NMU6AVMQ0QDB","30UZJB2POHY4464FN6NBJ2NLFWF354","","null","<img src=""img/food4.png"" style=""width:200px;border:14px solid red;"">","null","","","","","","","","","",""
"","image-keyboard-response","322","98117","0.0-391.0","3AMYWKA6YC8RVJV92PMAOUVKE1M6O9","A3NMU6AVMQ0QDB","30UZJB2POHY4464FN6NBJ2NLFWF354","","69","img/food1.png","76","69.90000009536743","3","1","2","2","1,0.5,0,1,0.5,0,0.5,0,1","0.5,0,1,0.5,0,1,0,1,0.5","2","false",""
"","html-keyboard-response","323","98420","0.0-392.0","3AMYWKA6YC8RVJV92PMAOUVKE1M6O9","A3NMU6AVMQ0QDB","30UZJB2POHY4464FN6NBJ2NLFWF354","","null","<img src=""img/food1.png"" style=""width:200px; border:14px solid green;"">","null","","","","","","","","","",""
"","image-keyboard-response","324","98498","0.0-394.0","3AMYWKA6YC8RVJV92PMAOUVKE1M6O9","A3NMU6AVMQ0QDB","30UZJB2POHY4464FN6NBJ2NLFWF354","","76.70000004768372","img/food1.png","76","77.5","3","1","2","2","1,0.5,0,1,0.5,0,0.5,0,1","0.5,0,1,0.5,0,1,0,1,0.5","2","false",""
"","html-keyboard-response","325","98804","0.0-395.0","3AMYWKA6YC8RVJV92PMAOUVKE1M6O9","A3NMU6AVMQ0QDB","30UZJB2POHY4464FN6NBJ2NLFWF354","","null","<img src=""img/food1.png"" style=""width:200px; border:14px solid green;"">","null","","","","","","","","","",""
"","image-keyboard-response","326","98903","0.0-397.0","3AMYWKA6YC8RVJV92PMAOUVKE1M6O9","A3NMU6AVMQ0QDB","30UZJB2POHY4464FN6NBJ2NLFWF354","","97.69999992847443","img/food4.png","76","98.5","3","1","3","2","1,0.5,0,1,0.5,0,0.5,0,1","0.5,0,1,0.5,0,1,0,1,0.5","2","false",""
"","html-keyboard-response","327","99207","0.0-398.0","3AMYWKA6YC8RVJV92PMAOUVKE1M6O9","A3NMU6AVMQ0QDB","30UZJB2POHY4464FN6NBJ2NLFWF354","","null","<img src=""img/food4.png"" style=""width:200px; border:14px solid green;"">","null","","","","","","","","","",""
"","image-keyboard-response","328","99294","0.0-400.0","3AMYWKA6YC8RVJV92PMAOUVKE1M6O9","A3NMU6AVMQ0QDB","30UZJB2POHY4464FN6NBJ2NLFWF354","","85.5","img/food1.png","76","86.20000004768372","3","1","2","2","1,0.5,0,1,0.5,0,0.5,0,1","0.5,0,1,0.5,0,1,0,1,0.5","2","false",""
"","html-keyboard-response","329","99599","0.0-401.0","3AMYWKA6YC8RVJV92PMAOUVKE1M6O9","A3NMU6AVMQ0QDB","30UZJB2POHY4464FN6NBJ2NLFWF354","","null","<img src=""img/food1.png"" style=""width:200px; border:14px solid green;"">","null","","","","","","","","","",""
"","image-keyboard-response","330","99704","0.0-403.0","3AMYWKA6YC8RVJV92PMAOUVKE1M6O9","A3NMU6AVMQ0QDB","30UZJB2POHY4464FN6NBJ2NLFWF354","","104.19999992847443","img/food2.png","76","104.80000007152557","3","1","1","2","1,0.5,0,1,0.5,0,0.5,0,1","0.5,0,1,0.5,0,1,0,1,0.5","2","false",""
"","html-keyboard-response","331","100008","0.0-404.0","3AMYWKA6YC8RVJV92PMAOUVKE1M6O9","A3NMU6AVMQ0QDB","30UZJB2POHY4464FN6NBJ2NLFWF354","","null","<img src=""img/food2.png"" style=""width:200px; border:14px solid green;"">","null","","","","","","","","","",""
"","image-keyboard-response","332","100099","0.0-406.0","3AMYWKA6YC8RVJV92PMAOUVKE1M6O9","A3NMU6AVMQ0QDB","30UZJB2POHY4464FN6NBJ2NLFWF354","","89.60000002384186","img/food2.png","76","90.30000007152557","3","1","1","2","1,0.5,0,1,0.5,0,0.5,0,1","0.5,0,1,0.5,0,1,0,1,0.5","2","false",""
"","html-keyboard-response","333","100404","0.0-407.0","3AMYWKA6YC8RVJV92PMAOUVKE1M6O9","A3NMU6AVMQ0QDB","30UZJB2POHY4464FN6NBJ2NLFWF354","","null","<img src=""img/food2.png"" style=""width:200px; border:14px solid green;"">","null","","","","","","","","","",""
"","image-keyboard-response","334","100513","0.0-409.0","3AMYWKA6YC8RVJV92PMAOUVKE1M6O9","A3NMU6AVMQ0QDB","30UZJB2POHY4464FN6NBJ2NLFWF354","","108.20000004768372","img/food2.png","76","109","3","1","1","2","1,0.5,0,1,0.5,0,0.5,0,1","0.5,0,1,0.5,0,1,0,1,0.5","2","false",""
"","html-keyboard-response","335","100820","0.0-410.0","3AMYWKA6YC8RVJV92PMAOUVKE1M6O9","A3NMU6AVMQ0QDB","30UZJB2POHY4464FN6NBJ2NLFWF354","","null","<img src=""img/food2.png"" style=""width:200px; border:14px solid green;"">","null","","","","","","","","","",""
"","image-keyboard-response","336","100920","0.0-412.0","3AMYWKA6YC8RVJV92PMAOUVKE1M6O9","A3NMU6AVMQ0QDB","30UZJB2POHY4464FN6NBJ2NLFWF354","","98.30000007152557","img/food1.png","76","99","3","1","2","2","1,0.5,0,1,0.5,0,0.5,0,1","0.5,0,1,0.5,0,1,0,1,0.5","2","false",""
"","html-keyboard-response","337","101225","0.0-413.0","3AMYWKA6YC8RVJV92PMAOUVKE1M6O9","A3NMU6AVMQ0QDB","30UZJB2POHY4464FN6NBJ2NLFWF354","","null","<img src=""img/food1.png"" style=""width:200px; border:14px solid green;"">","null","","","","","","","","","",""
"","image-keyboard-response","338","101321","0.0-415.0","3AMYWKA6YC8RVJV92PMAOUVKE1M6O9","A3NMU6AVMQ0QDB","30UZJB2POHY4464FN6NBJ2NLFWF354","","94.39999997615814","img/food1.png","76","95.10000002384186","3","1","2","2","1,0.5,0,1,0.5,0,0.5,0,1","0.5,0,1,0.5,0,1,0,1,0.5","2","false",""
"","html-keyboard-response","339","101623","0.0-416.0","3AMYWKA6YC8RVJV92PMAOUVKE1M6O9","A3NMU6AVMQ0QDB","30UZJB2POHY4464FN6NBJ2NLFWF354","","null","<img src=""img/food1.png"" style=""width:200px; border:14px solid green;"">","null","","","","","","","","","",""
"","image-keyboard-response","340","101735","0.0-418.0","3AMYWKA6YC8RVJV92PMAOUVKE1M6O9","A3NMU6AVMQ0QDB","30UZJB2POHY4464FN6NBJ2NLFWF354","","110.69999992847443","img/food1.png","76","111.40000009536743","3","1","2","2","1,0.5,0,1,0.5,0,0.5,0,1","0.5,0,1,0.5,0,1,0,1,0.5","2","false",""
"","html-keyboard-response","341","102039","0.0-419.0","3AMYWKA6YC8RVJV92PMAOUVKE1M6O9","A3NMU6AVMQ0QDB","30UZJB2POHY4464FN6NBJ2NLFWF354","","null","<img src=""img/food1.png"" style=""width:200px; border:14px solid green;"">","null","","","","","","","","","",""
"","image-keyboard-response","342","102166","0.0-421.0","3AMYWKA6YC8RVJV92PMAOUVKE1M6O9","A3NMU6AVMQ0QDB","30UZJB2POHY4464FN6NBJ2NLFWF354","","126.30000007152557","img/food1.png","76","127.10000002384186","3","1","2","2","1,0.5,0,1,0.5,0,0.5,0,1","0.5,0,1,0.5,0,1,0,1,0.5","2","false",""
"","html-keyboard-response","343","102470","0.0-422.0","3AMYWKA6YC8RVJV92PMAOUVKE1M6O9","A3NMU6AVMQ0QDB","30UZJB2POHY4464FN6NBJ2NLFWF354","","null","<img src=""img/food1.png"" style=""width:200px; border:14px solid green;"">","null","","","","","","","","","",""
"","image-keyboard-response","344","102581","0.0-424.0","3AMYWKA6YC8RVJV92PMAOUVKE1M6O9","A3NMU6AVMQ0QDB","30UZJB2POHY4464FN6NBJ2NLFWF354","","109.70000004768372","img/food4.png","76","110.5","3","1","3","2","1,0.5,0,1,0.5,0,0.5,0,1","0.5,0,1,0.5,0,1,0,1,0.5","2","false",""
"","html-keyboard-response","345","102884","0.0-425.0","3AMYWKA6YC8RVJV92PMAOUVKE1M6O9","A3NMU6AVMQ0QDB","30UZJB2POHY4464FN6NBJ2NLFWF354","","null","<img src=""img/food4.png"" style=""width:200px; border:14px solid green;"">","null","","","","","","","","","",""
"","image-keyboard-response","346","102988","0.0-427.0","3AMYWKA6YC8RVJV92PMAOUVKE1M6O9","A3NMU6AVMQ0QDB","30UZJB2POHY4464FN6NBJ2NLFWF354","","102.79999995231628","img/food1.png","76","103.60000002384186","3","1","2","2","1,0.5,0,1,0.5,0,0.5,0,1","0.5,0,1,0.5,0,1,0,1,0.5","2","false",""
"","html-keyboard-response","347","103290","0.0-428.0","3AMYWKA6YC8RVJV92PMAOUVKE1M6O9","A3NMU6AVMQ0QDB","30UZJB2POHY4464FN6NBJ2NLFWF354","","null","<img src=""img/food1.png"" style=""width:200px; border:14px solid green;"">","null","","","","","","","","","",""
"","image-keyboard-response","348","103396","0.0-430.0","3AMYWKA6YC8RVJV92PMAOUVKE1M6O9","A3NMU6AVMQ0QDB","30UZJB2POHY4464FN6NBJ2NLFWF354","","104.79999995231628","img/food2.png","76","105.60000002384186","3","1","1","2","1,0.5,0,1,0.5,0,0.5,0,1","0.5,0,1,0.5,0,1,0,1,0.5","2","false",""
"","html-keyboard-response","349","103697","0.0-431.0","3AMYWKA6YC8RVJV92PMAOUVKE1M6O9","A3NMU6AVMQ0QDB","30UZJB2POHY4464FN6NBJ2NLFWF354","","null","<img src=""img/food2.png"" style=""width:200px; border:14px solid green;"">","null","","","","","","","","","",""
"","image-keyboard-response","350","103787","0.0-433.0","3AMYWKA6YC8RVJV92PMAOUVKE1M6O9","A3NMU6AVMQ0QDB","30UZJB2POHY4464FN6NBJ2NLFWF354","","88.90000009536743","img/food2.png","76","89.60000002384186","3","1","1","2","1,0.5,0,1,0.5,0,0.5,0,1","0.5,0,1,0.5,0,1,0,1,0.5","2","false",""
"","html-keyboard-response","351","104089","0.0-434.0","3AMYWKA6YC8RVJV92PMAOUVKE1M6O9","A3NMU6AVMQ0QDB","30UZJB2POHY4464FN6NBJ2NLFWF354","","null","<img src=""img/food2.png"" style=""width:200px; border:14px solid green;"">","null","","","","","","","","","",""
"","image-keyboard-response","352","104189","0.0-436.0","3AMYWKA6YC8RVJV92PMAOUVKE1M6O9","A3NMU6AVMQ0QDB","30UZJB2POHY4464FN6NBJ2NLFWF354","","98.80000007152557","img/food1.png","76","99.5","3","1","2","2","1,0.5,0,1,0.5,0,0.5,0,1","0.5,0,1,0.5,0,1,0,1,0.5","2","false",""
"","html-keyboard-response","353","104495","0.0-437.0","3AMYWKA6YC8RVJV92PMAOUVKE1M6O9","A3NMU6AVMQ0QDB","30UZJB2POHY4464FN6NBJ2NLFWF354","","null","<img src=""img/food1.png"" style=""width:200px; border:14px solid green;"">","null","","","","","","","","","",""
"","image-keyboard-response","354","104590","0.0-439.0","3AMYWKA6YC8RVJV92PMAOUVKE1M6O9","A3NMU6AVMQ0QDB","30UZJB2POHY4464FN6NBJ2NLFWF354","","93.79999995231628","img/food2.png","76","94.59999990463257","3","1","1","2","1,0.5,0,1,0.5,0,0.5,0,1","0.5,0,1,0.5,0,1,0,1,0.5","2","false",""
"","html-keyboard-response","355","104893","0.0-440.0","3AMYWKA6YC8RVJV92PMAOUVKE1M6O9","A3NMU6AVMQ0QDB","30UZJB2POHY4464FN6NBJ2NLFWF354","","null","<img src=""img/food2.png"" style=""width:200px; border:14px solid green;"">","null","","","","","","","","","",""
"","image-keyboard-response","356","104986","0.0-442.0","3AMYWKA6YC8RVJV92PMAOUVKE1M6O9","A3NMU6AVMQ0QDB","30UZJB2POHY4464FN6NBJ2NLFWF354","","92.5","img/food4.png","76","93","3","1","3","2","1,0.5,0,1,0.5,0,0.5,0,1","0.5,0,1,0.5,0,1,0,1,0.5","2","false",""
"","html-keyboard-response","357","105289","0.0-443.0","3AMYWKA6YC8RVJV92PMAOUVKE1M6O9","A3NMU6AVMQ0QDB","30UZJB2POHY4464FN6NBJ2NLFWF354","","null","<img src=""img/food4.png"" style=""width:200px; border:14px solid green;"">","null","","","","","","","","","",""
"","image-keyboard-response","358","105408","0.0-445.0","3AMYWKA6YC8RVJV92PMAOUVKE1M6O9","A3NMU6AVMQ0QDB","30UZJB2POHY4464FN6NBJ2NLFWF354","","117.80000007152557","img/food4.png","76","118.59999990463257","3","0","3","2","1,0.5,0,1,0.5,0,0.5,0,1","0.5,0,1,0.5,0,1,0,1,0.5","2","false",""
"","html-keyboard-response","359","105711","0.0-446.0","3AMYWKA6YC8RVJV92PMAOUVKE1M6O9","A3NMU6AVMQ0QDB","30UZJB2POHY4464FN6NBJ2NLFWF354","","null","<img src=""img/food4.png"" style=""width:200px;border:14px solid red;"">","null","","","","","","","","","",""
"","image-keyboard-response","360","105823","0.0-448.0","3AMYWKA6YC8RVJV92PMAOUVKE1M6O9","A3NMU6AVMQ0QDB","30UZJB2POHY4464FN6NBJ2NLFWF354","","111.10000002384186","img/food2.png","76","111.69999992847443","3","1","1","2","1,0.5,0,1,0.5,0,0.5,0,1","0.5,0,1,0.5,0,1,0,1,0.5","2","false",""
"","html-keyboard-response","361","106126","0.0-449.0","3AMYWKA6YC8RVJV92PMAOUVKE1M6O9","A3NMU6AVMQ0QDB","30UZJB2POHY4464FN6NBJ2NLFWF354","","null","<img src=""img/food2.png"" style=""width:200px; border:14px solid green;"">","null","","","","","","","","","",""
"","image-keyboard-response","362","106236","0.0-451.0","3AMYWKA6YC8RVJV92PMAOUVKE1M6O9","A3NMU6AVMQ0QDB","30UZJB2POHY4464FN6NBJ2NLFWF354","","108.70000004768372","img/food4.png","76","109.39999997615814","3","0","3","2","1,0.5,0,1,0.5,0,0.5,0,1","0.5,0,1,0.5,0,1,0,1,0.5","2","false",""
"","html-keyboard-response","363","106538","0.0-452.0","3AMYWKA6YC8RVJV92PMAOUVKE1M6O9","A3NMU6AVMQ0QDB","30UZJB2POHY4464FN6NBJ2NLFWF354","","null","<img src=""img/food4.png"" style=""width:200px;border:14px solid red;"">","null","","","","","","","","","",""
"","instructions","364","108410","0.0-454.0","3AMYWKA6YC8RVJV92PMAOUVKE1M6O9","A3NMU6AVMQ0QDB","30UZJB2POHY4464FN6NBJ2NLFWF354","[{""page_index"":0,""viewing_time"":1870.8999999761581}]","1871.0999999046326","","","","","","","","","","","",""
"","survey-text","365","111848","0.0-455.0","3AMYWKA6YC8RVJV92PMAOUVKE1M6O9","A3NMU6AVMQ0QDB","30UZJB2POHY4464FN6NBJ2NLFWF354","","3434.2999999523163","","","","","","","","","","","","{""Q0"":""A3NMU6AVMQ0QDB""}"
