"success","trial_type","trial_index","time_elapsed","internal_node_id","assignmentID","mturkID","hitID","view_history","rt","stimulus","key_press","reactionTime","a","r","warning","s","cond","reward_cond","reward_cond_actual","reward_matrix_idx","responses"
"true","fullscreen","0","2515","0.0-0.0","33FBRBDW6PLDQ8HU5ZAHD8XUV9CC85","A3NRIEMOJVVX4A","31YWE12TE0YV78PCVO9WO2QLDWO7XY","","","","","","","","","","","","","",""
"","instructions","1","19779","0.0-1.0","33FBRBDW6PLDQ8HU5ZAHD8XUV9CC85","A3NRIEMOJVVX4A","31YWE12TE0YV78PCVO9WO2QLDWO7XY","[{""page_index"":0,""viewing_time"":5651.700000047684},{""page_index"":1,""viewing_time"":1520.4000000953674},{""page_index"":2,""viewing_time"":2119.699999809265},{""page_index"":3,""viewing_time"":2135.7000000476837},{""page_index"":4,""viewing_time"":2760},{""page_index"":5,""viewing_time"":1600},{""page_index"":6,""viewing_time"":1472.2000000476837}]","17260.10000014305","","","","","","","","","","","",""
"","instructions","2","29706","0.0-2.0","33FBRBDW6PLDQ8HU5ZAHD8XUV9CC85","A3NRIEMOJVVX4A","31YWE12TE0YV78PCVO9WO2QLDWO7XY","[{""page_index"":0,""viewing_time"":7910.700000047684},{""page_index"":1,""viewing_time"":2015.7999999523163}]","9926.799999952316","","","","","","","","","","","",""
"","image-keyboard-response","3","30171","0.0-3.0","33FBRBDW6PLDQ8HU5ZAHD8XUV9CC85","A3NRIEMOJVVX4A","31YWE12TE0YV78PCVO9WO2QLDWO7XY","","462.5","img/food5.png","75","463.89999985694885","2","0","false","2","2","1,0.5,0,1,0.5,0,0.5,0,1","0.5,0,1,0.5,0,1,0,1,0.5","2",""
"","html-keyboard-response","4","30474","0.0-4.0","33FBRBDW6PLDQ8HU5ZAHD8XUV9CC85","A3NRIEMOJVVX4A","31YWE12TE0YV78PCVO9WO2QLDWO7XY","","null","<img src=""img/food5.png"" style=""width:200px;border:14px solid red;"">","null","","","","","","","","","",""
"","image-keyboard-response","5","30530","0.0-6.0","33FBRBDW6PLDQ8HU5ZAHD8XUV9CC85","A3NRIEMOJVVX4A","31YWE12TE0YV78PCVO9WO2QLDWO7XY","","53.80000019073486","img/food5.png","74","55.09999990463257","1","0","false","2","2","1,0.5,0,1,0.5,0,0.5,0,1","0.5,0,1,0.5,0,1,0,1,0.5","2",""
"","html-keyboard-response","6","30832","0.0-7.0","33FBRBDW6PLDQ8HU5ZAHD8XUV9CC85","A3NRIEMOJVVX4A","31YWE12TE0YV78PCVO9WO2QLDWO7XY","","null","<img src=""img/food5.png"" style=""width:200px;border:14px solid red;"">","null","","","","","","","","","",""
"","image-keyboard-response","7","31162","0.0-9.0","33FBRBDW6PLDQ8HU5ZAHD8XUV9CC85","A3NRIEMOJVVX4A","31YWE12TE0YV78PCVO9WO2QLDWO7XY","","329.10000014305115","img/food5.png","75","330","2","0","false","2","2","1,0.5,0,1,0.5,0,0.5,0,1","0.5,0,1,0.5,0,1,0,1,0.5","2",""
"","html-keyboard-response","8","31467","0.0-10.0","33FBRBDW6PLDQ8HU5ZAHD8XUV9CC85","A3NRIEMOJVVX4A","31YWE12TE0YV78PCVO9WO2QLDWO7XY","","null","<img src=""img/food5.png"" style=""width:200px;border:14px solid red;"">","null","","","","","","","","","",""
"","image-keyboard-response","9","31714","0.0-12.0","33FBRBDW6PLDQ8HU5ZAHD8XUV9CC85","A3NRIEMOJVVX4A","31YWE12TE0YV78PCVO9WO2QLDWO7XY","","246.5","img/food6.png","75","247.10000014305115","2","0","false","1","2","1,0.5,0,1,0.5,0,0.5,0,1","0.5,0,1,0.5,0,1,0,1,0.5","2",""
"","html-keyboard-response","10","32017","0.0-13.0","33FBRBDW6PLDQ8HU5ZAHD8XUV9CC85","A3NRIEMOJVVX4A","31YWE12TE0YV78PCVO9WO2QLDWO7XY","","null","<img src=""img/food6.png"" style=""width:200px;border:14px solid red;"">","null","","","","","","","","","",""
"","image-keyboard-response","11","32028","0.0-15.0","33FBRBDW6PLDQ8HU5ZAHD8XUV9CC85","A3NRIEMOJVVX4A","31YWE12TE0YV78PCVO9WO2QLDWO7XY","","7.8999998569488525","img/food4.png","75","9.900000095367432","2","1","false","3","2","1,0.5,0,1,0.5,0,0.5,0,1","0.5,0,1,0.5,0,1,0,1,0.5","2",""
"","html-keyboard-response","12","32331","0.0-16.0","33FBRBDW6PLDQ8HU5ZAHD8XUV9CC85","A3NRIEMOJVVX4A","31YWE12TE0YV78PCVO9WO2QLDWO7XY","","null","<img src=""img/food4.png"" style=""width:200px; border:14px solid green;"">","null","","","","","","","","","",""
"","image-keyboard-response","13","32635","0.0-18.0","33FBRBDW6PLDQ8HU5ZAHD8XUV9CC85","A3NRIEMOJVVX4A","31YWE12TE0YV78PCVO9WO2QLDWO7XY","","301.09999990463257","img/food6.png","76","302.59999990463257","3","1","false","1","2","1,0.5,0,1,0.5,0,0.5,0,1","0.5,0,1,0.5,0,1,0,1,0.5","2",""
"","html-keyboard-response","14","32937","0.0-19.0","33FBRBDW6PLDQ8HU5ZAHD8XUV9CC85","A3NRIEMOJVVX4A","31YWE12TE0YV78PCVO9WO2QLDWO7XY","","null","<img src=""img/food6.png"" style=""width:200px; border:14px solid green;"">","null","","","","","","","","","",""
"","image-keyboard-response","15","32986","0.0-21.0","33FBRBDW6PLDQ8HU5ZAHD8XUV9CC85","A3NRIEMOJVVX4A","31YWE12TE0YV78PCVO9WO2QLDWO7XY","","48","img/food5.png","74","48.799999952316284","1","0","false","2","2","1,0.5,0,1,0.5,0,0.5,0,1","0.5,0,1,0.5,0,1,0,1,0.5","2",""
"","html-keyboard-response","16","33288","0.0-22.0","33FBRBDW6PLDQ8HU5ZAHD8XUV9CC85","A3NRIEMOJVVX4A","31YWE12TE0YV78PCVO9WO2QLDWO7XY","","null","<img src=""img/food5.png"" style=""width:200px;border:14px solid red;"">","null","","","","","","","","","",""
"","image-keyboard-response","17","33498","0.0-24.0","33FBRBDW6PLDQ8HU5ZAHD8XUV9CC85","A3NRIEMOJVVX4A","31YWE12TE0YV78PCVO9WO2QLDWO7XY","","209.40000009536743","img/food4.png","75","210.20000004768372","2","1","false","3","2","1,0.5,0,1,0.5,0,0.5,0,1","0.5,0,1,0.5,0,1,0,1,0.5","2",""
"","html-keyboard-response","18","33800","0.0-25.0","33FBRBDW6PLDQ8HU5ZAHD8XUV9CC85","A3NRIEMOJVVX4A","31YWE12TE0YV78PCVO9WO2QLDWO7XY","","null","<img src=""img/food4.png"" style=""width:200px; border:14px solid green;"">","null","","","","","","","","","",""
"","image-keyboard-response","19","34218","0.0-27.0","33FBRBDW6PLDQ8HU5ZAHD8XUV9CC85","A3NRIEMOJVVX4A","31YWE12TE0YV78PCVO9WO2QLDWO7XY","","416.7999999523163","img/food5.png","75","417.59999990463257","2","0","false","2","2","1,0.5,0,1,0.5,0,0.5,0,1","0.5,0,1,0.5,0,1,0,1,0.5","2",""
"","html-keyboard-response","20","34524","0.0-28.0","33FBRBDW6PLDQ8HU5ZAHD8XUV9CC85","A3NRIEMOJVVX4A","31YWE12TE0YV78PCVO9WO2QLDWO7XY","","null","<img src=""img/food5.png"" style=""width:200px;border:14px solid red;"">","null","","","","","","","","","",""
"","image-keyboard-response","21","34706","0.0-30.0","33FBRBDW6PLDQ8HU5ZAHD8XUV9CC85","A3NRIEMOJVVX4A","31YWE12TE0YV78PCVO9WO2QLDWO7XY","","181.39999985694885","img/food4.png","74","182.09999990463257","1","0","false","3","2","1,0.5,0,1,0.5,0,0.5,0,1","0.5,0,1,0.5,0,1,0,1,0.5","2",""
"","html-keyboard-response","22","35008","0.0-31.0","33FBRBDW6PLDQ8HU5ZAHD8XUV9CC85","A3NRIEMOJVVX4A","31YWE12TE0YV78PCVO9WO2QLDWO7XY","","null","<img src=""img/food4.png"" style=""width:200px;border:14px solid red;"">","null","","","","","","","","","",""
"","image-keyboard-response","23","35170","0.0-33.0","33FBRBDW6PLDQ8HU5ZAHD8XUV9CC85","A3NRIEMOJVVX4A","31YWE12TE0YV78PCVO9WO2QLDWO7XY","","160.79999995231628","img/food5.png","75","161.5","2","0","false","2","2","1,0.5,0,1,0.5,0,0.5,0,1","0.5,0,1,0.5,0,1,0,1,0.5","2",""
"","html-keyboard-response","24","35472","0.0-34.0","33FBRBDW6PLDQ8HU5ZAHD8XUV9CC85","A3NRIEMOJVVX4A","31YWE12TE0YV78PCVO9WO2QLDWO7XY","","null","<img src=""img/food5.png"" style=""width:200px;border:14px solid red;"">","null","","","","","","","","","",""
"","image-keyboard-response","25","35594","0.0-36.0","33FBRBDW6PLDQ8HU5ZAHD8XUV9CC85","A3NRIEMOJVVX4A","31YWE12TE0YV78PCVO9WO2QLDWO7XY","","120.79999995231628","img/food5.png","76","121.5","3","1","false","2","2","1,0.5,0,1,0.5,0,0.5,0,1","0.5,0,1,0.5,0,1,0,1,0.5","2",""
"","html-keyboard-response","26","35896","0.0-37.0","33FBRBDW6PLDQ8HU5ZAHD8XUV9CC85","A3NRIEMOJVVX4A","31YWE12TE0YV78PCVO9WO2QLDWO7XY","","null","<img src=""img/food5.png"" style=""width:200px; border:14px solid green;"">","null","","","","","","","","","",""
"","image-keyboard-response","27","36242","0.0-39.0","33FBRBDW6PLDQ8HU5ZAHD8XUV9CC85","A3NRIEMOJVVX4A","31YWE12TE0YV78PCVO9WO2QLDWO7XY","","345","img/food6.png","75","345.89999985694885","2","0","false","1","2","1,0.5,0,1,0.5,0,0.5,0,1","0.5,0,1,0.5,0,1,0,1,0.5","2",""
"","html-keyboard-response","28","36543","0.0-40.0","33FBRBDW6PLDQ8HU5ZAHD8XUV9CC85","A3NRIEMOJVVX4A","31YWE12TE0YV78PCVO9WO2QLDWO7XY","","null","<img src=""img/food6.png"" style=""width:200px;border:14px solid red;"">","null","","","","","","","","","",""
"","image-keyboard-response","29","36770","0.0-42.0","33FBRBDW6PLDQ8HU5ZAHD8XUV9CC85","A3NRIEMOJVVX4A","31YWE12TE0YV78PCVO9WO2QLDWO7XY","","225.60000014305115","img/food6.png","74","226.29999995231628","1","1","false","1","2","1,0.5,0,1,0.5,0,0.5,0,1","0.5,0,1,0.5,0,1,0,1,0.5","2",""
"","html-keyboard-response","30","37081","0.0-43.0","33FBRBDW6PLDQ8HU5ZAHD8XUV9CC85","A3NRIEMOJVVX4A","31YWE12TE0YV78PCVO9WO2QLDWO7XY","","null","<img src=""img/food6.png"" style=""width:200px; border:14px solid green;"">","null","","","","","","","","","",""
"","image-keyboard-response","31","37266","0.0-45.0","33FBRBDW6PLDQ8HU5ZAHD8XUV9CC85","A3NRIEMOJVVX4A","31YWE12TE0YV78PCVO9WO2QLDWO7XY","","183.60000014305115","img/food5.png","75","184.5","2","0","false","2","2","1,0.5,0,1,0.5,0,0.5,0,1","0.5,0,1,0.5,0,1,0,1,0.5","2",""
"","html-keyboard-response","32","37567","0.0-46.0","33FBRBDW6PLDQ8HU5ZAHD8XUV9CC85","A3NRIEMOJVVX4A","31YWE12TE0YV78PCVO9WO2QLDWO7XY","","null","<img src=""img/food5.png"" style=""width:200px;border:14px solid red;"">","null","","","","","","","","","",""
"","image-keyboard-response","33","37754","0.0-48.0","33FBRBDW6PLDQ8HU5ZAHD8XUV9CC85","A3NRIEMOJVVX4A","31YWE12TE0YV78PCVO9WO2QLDWO7XY","","186.09999990463257","img/food5.png","75","186.89999985694885","2","0","false","2","2","1,0.5,0,1,0.5,0,0.5,0,1","0.5,0,1,0.5,0,1,0,1,0.5","2",""
"","html-keyboard-response","34","38056","0.0-49.0","33FBRBDW6PLDQ8HU5ZAHD8XUV9CC85","A3NRIEMOJVVX4A","31YWE12TE0YV78PCVO9WO2QLDWO7XY","","null","<img src=""img/food5.png"" style=""width:200px;border:14px solid red;"">","null","","","","","","","","","",""
"","image-keyboard-response","35","38138","0.0-51.0","33FBRBDW6PLDQ8HU5ZAHD8XUV9CC85","A3NRIEMOJVVX4A","31YWE12TE0YV78PCVO9WO2QLDWO7XY","","81.90000009536743","img/food5.png","74","82.70000004768372","1","0","false","2","2","1,0.5,0,1,0.5,0,0.5,0,1","0.5,0,1,0.5,0,1,0,1,0.5","2",""
"","html-keyboard-response","36","38440","0.0-52.0","33FBRBDW6PLDQ8HU5ZAHD8XUV9CC85","A3NRIEMOJVVX4A","31YWE12TE0YV78PCVO9WO2QLDWO7XY","","null","<img src=""img/food5.png"" style=""width:200px;border:14px solid red;"">","null","","","","","","","","","",""
"","image-keyboard-response","37","38443","0.0-54.0","33FBRBDW6PLDQ8HU5ZAHD8XUV9CC85","A3NRIEMOJVVX4A","31YWE12TE0YV78PCVO9WO2QLDWO7XY","","1.4000000953674316","img/food4.png","75","2.299999952316284","2","1","false","3","2","1,0.5,0,1,0.5,0,0.5,0,1","0.5,0,1,0.5,0,1,0,1,0.5","2",""
"","html-keyboard-response","38","38746","0.0-55.0","33FBRBDW6PLDQ8HU5ZAHD8XUV9CC85","A3NRIEMOJVVX4A","31YWE12TE0YV78PCVO9WO2QLDWO7XY","","null","<img src=""img/food4.png"" style=""width:200px; border:14px solid green;"">","null","","","","","","","","","",""
"","image-keyboard-response","39","39106","0.0-57.0","33FBRBDW6PLDQ8HU5ZAHD8XUV9CC85","A3NRIEMOJVVX4A","31YWE12TE0YV78PCVO9WO2QLDWO7XY","","358.7999999523163","img/food6.png","76","359.89999985694885","3","1","false","1","2","1,0.5,0,1,0.5,0,0.5,0,1","0.5,0,1,0.5,0,1,0,1,0.5","2",""
"","html-keyboard-response","40","39410","0.0-58.0","33FBRBDW6PLDQ8HU5ZAHD8XUV9CC85","A3NRIEMOJVVX4A","31YWE12TE0YV78PCVO9WO2QLDWO7XY","","null","<img src=""img/food6.png"" style=""width:200px; border:14px solid green;"">","null","","","","","","","","","",""
"","image-keyboard-response","41","39426","0.0-60.0","33FBRBDW6PLDQ8HU5ZAHD8XUV9CC85","A3NRIEMOJVVX4A","31YWE12TE0YV78PCVO9WO2QLDWO7XY","","15.299999952316284","img/food6.png","75","16","2","0","false","1","2","1,0.5,0,1,0.5,0,0.5,0,1","0.5,0,1,0.5,0,1,0,1,0.5","2",""
"","html-keyboard-response","42","39727","0.0-61.0","33FBRBDW6PLDQ8HU5ZAHD8XUV9CC85","A3NRIEMOJVVX4A","31YWE12TE0YV78PCVO9WO2QLDWO7XY","","null","<img src=""img/food6.png"" style=""width:200px;border:14px solid red;"">","null","","","","","","","","","",""
"","image-keyboard-response","43","40026","0.0-63.0","33FBRBDW6PLDQ8HU5ZAHD8XUV9CC85","A3NRIEMOJVVX4A","31YWE12TE0YV78PCVO9WO2QLDWO7XY","","297.5","img/food4.png","74","298.39999985694885","1","0","false","3","2","1,0.5,0,1,0.5,0,0.5,0,1","0.5,0,1,0.5,0,1,0,1,0.5","2",""
"","html-keyboard-response","44","40328","0.0-64.0","33FBRBDW6PLDQ8HU5ZAHD8XUV9CC85","A3NRIEMOJVVX4A","31YWE12TE0YV78PCVO9WO2QLDWO7XY","","null","<img src=""img/food4.png"" style=""width:200px;border:14px solid red;"">","null","","","","","","","","","",""
"","image-keyboard-response","45","40546","0.0-66.0","33FBRBDW6PLDQ8HU5ZAHD8XUV9CC85","A3NRIEMOJVVX4A","31YWE12TE0YV78PCVO9WO2QLDWO7XY","","217.20000004768372","img/food6.png","75","217.79999995231628","2","0","false","1","2","1,0.5,0,1,0.5,0,0.5,0,1","0.5,0,1,0.5,0,1,0,1,0.5","2",""
"","html-keyboard-response","46","40849","0.0-67.0","33FBRBDW6PLDQ8HU5ZAHD8XUV9CC85","A3NRIEMOJVVX4A","31YWE12TE0YV78PCVO9WO2QLDWO7XY","","null","<img src=""img/food6.png"" style=""width:200px;border:14px solid red;"">","null","","","","","","","","","",""
"","image-keyboard-response","47","40914","0.0-69.0","33FBRBDW6PLDQ8HU5ZAHD8XUV9CC85","A3NRIEMOJVVX4A","31YWE12TE0YV78PCVO9WO2QLDWO7XY","","64.29999995231628","img/food5.png","76","65.09999990463257","3","1","false","2","2","1,0.5,0,1,0.5,0,0.5,0,1","0.5,0,1,0.5,0,1,0,1,0.5","2",""
"","html-keyboard-response","48","41216","0.0-70.0","33FBRBDW6PLDQ8HU5ZAHD8XUV9CC85","A3NRIEMOJVVX4A","31YWE12TE0YV78PCVO9WO2QLDWO7XY","","null","<img src=""img/food5.png"" style=""width:200px; border:14px solid green;"">","null","","","","","","","","","",""
"","image-keyboard-response","49","41274","0.0-72.0","33FBRBDW6PLDQ8HU5ZAHD8XUV9CC85","A3NRIEMOJVVX4A","31YWE12TE0YV78PCVO9WO2QLDWO7XY","","57.10000014305115","img/food4.png","75","57.799999952316284","2","1","false","3","2","1,0.5,0,1,0.5,0,0.5,0,1","0.5,0,1,0.5,0,1,0,1,0.5","2",""
"","html-keyboard-response","50","41577","0.0-73.0","33FBRBDW6PLDQ8HU5ZAHD8XUV9CC85","A3NRIEMOJVVX4A","31YWE12TE0YV78PCVO9WO2QLDWO7XY","","null","<img src=""img/food4.png"" style=""width:200px; border:14px solid green;"">","null","","","","","","","","","",""
"","image-keyboard-response","51","41674","0.0-75.0","33FBRBDW6PLDQ8HU5ZAHD8XUV9CC85","A3NRIEMOJVVX4A","31YWE12TE0YV78PCVO9WO2QLDWO7XY","","96.5","img/food5.png","75","97.09999990463257","2","0","false","2","2","1,0.5,0,1,0.5,0,0.5,0,1","0.5,0,1,0.5,0,1,0,1,0.5","2",""
"","html-keyboard-response","52","41976","0.0-76.0","33FBRBDW6PLDQ8HU5ZAHD8XUV9CC85","A3NRIEMOJVVX4A","31YWE12TE0YV78PCVO9WO2QLDWO7XY","","null","<img src=""img/food5.png"" style=""width:200px;border:14px solid red;"">","null","","","","","","","","","",""
"","image-keyboard-response","53","42330","0.0-78.0","33FBRBDW6PLDQ8HU5ZAHD8XUV9CC85","A3NRIEMOJVVX4A","31YWE12TE0YV78PCVO9WO2QLDWO7XY","","351.40000009536743","img/food4.png","76","353.2999999523163","3","0","false","3","2","1,0.5,0,1,0.5,0,0.5,0,1","0.5,0,1,0.5,0,1,0,1,0.5","2",""
"","html-keyboard-response","54","42632","0.0-79.0","33FBRBDW6PLDQ8HU5ZAHD8XUV9CC85","A3NRIEMOJVVX4A","31YWE12TE0YV78PCVO9WO2QLDWO7XY","","null","<img src=""img/food4.png"" style=""width:200px;border:14px solid red;"">","null","","","","","","","","","",""
"","image-keyboard-response","55","42748","0.0-81.0","33FBRBDW6PLDQ8HU5ZAHD8XUV9CC85","A3NRIEMOJVVX4A","31YWE12TE0YV78PCVO9WO2QLDWO7XY","","114.20000004768372","img/food6.png","76","115.60000014305115","3","1","false","1","2","1,0.5,0,1,0.5,0,0.5,0,1","0.5,0,1,0.5,0,1,0,1,0.5","2",""
"","html-keyboard-response","56","43051","0.0-82.0","33FBRBDW6PLDQ8HU5ZAHD8XUV9CC85","A3NRIEMOJVVX4A","31YWE12TE0YV78PCVO9WO2QLDWO7XY","","null","<img src=""img/food6.png"" style=""width:200px; border:14px solid green;"">","null","","","","","","","","","",""
"","image-keyboard-response","57","43220","0.0-84.0","33FBRBDW6PLDQ8HU5ZAHD8XUV9CC85","A3NRIEMOJVVX4A","31YWE12TE0YV78PCVO9WO2QLDWO7XY","","167.29999995231628","img/food5.png","74","168.5","1","0","false","2","2","1,0.5,0,1,0.5,0,0.5,0,1","0.5,0,1,0.5,0,1,0,1,0.5","2",""
"","html-keyboard-response","58","43523","0.0-85.0","33FBRBDW6PLDQ8HU5ZAHD8XUV9CC85","A3NRIEMOJVVX4A","31YWE12TE0YV78PCVO9WO2QLDWO7XY","","null","<img src=""img/food5.png"" style=""width:200px;border:14px solid red;"">","null","","","","","","","","","",""
"","image-keyboard-response","59","43658","0.0-87.0","33FBRBDW6PLDQ8HU5ZAHD8XUV9CC85","A3NRIEMOJVVX4A","31YWE12TE0YV78PCVO9WO2QLDWO7XY","","134.59999990463257","img/food6.png","74","135.5","1","1","false","1","2","1,0.5,0,1,0.5,0,0.5,0,1","0.5,0,1,0.5,0,1,0,1,0.5","2",""
"","html-keyboard-response","60","43960","0.0-88.0","33FBRBDW6PLDQ8HU5ZAHD8XUV9CC85","A3NRIEMOJVVX4A","31YWE12TE0YV78PCVO9WO2QLDWO7XY","","null","<img src=""img/food6.png"" style=""width:200px; border:14px solid green;"">","null","","","","","","","","","",""
"","image-keyboard-response","61","44082","0.0-90.0","33FBRBDW6PLDQ8HU5ZAHD8XUV9CC85","A3NRIEMOJVVX4A","31YWE12TE0YV78PCVO9WO2QLDWO7XY","","121.09999990463257","img/food5.png","76","121.80000019073486","3","1","false","2","2","1,0.5,0,1,0.5,0,0.5,0,1","0.5,0,1,0.5,0,1,0,1,0.5","2",""
"","html-keyboard-response","62","44384","0.0-91.0","33FBRBDW6PLDQ8HU5ZAHD8XUV9CC85","A3NRIEMOJVVX4A","31YWE12TE0YV78PCVO9WO2QLDWO7XY","","null","<img src=""img/food5.png"" style=""width:200px; border:14px solid green;"">","null","","","","","","","","","",""
"","image-keyboard-response","63","44426","0.0-93.0","33FBRBDW6PLDQ8HU5ZAHD8XUV9CC85","A3NRIEMOJVVX4A","31YWE12TE0YV78PCVO9WO2QLDWO7XY","","40.700000047683716","img/food6.png","75","41.700000047683716","2","0","false","1","2","1,0.5,0,1,0.5,0,0.5,0,1","0.5,0,1,0.5,0,1,0,1,0.5","2",""
"","html-keyboard-response","64","44729","0.0-94.0","33FBRBDW6PLDQ8HU5ZAHD8XUV9CC85","A3NRIEMOJVVX4A","31YWE12TE0YV78PCVO9WO2QLDWO7XY","","null","<img src=""img/food6.png"" style=""width:200px;border:14px solid red;"">","null","","","","","","","","","",""
"","image-keyboard-response","65","44842","0.0-96.0","33FBRBDW6PLDQ8HU5ZAHD8XUV9CC85","A3NRIEMOJVVX4A","31YWE12TE0YV78PCVO9WO2QLDWO7XY","","112","img/food6.png","74","112.79999995231628","1","1","false","1","2","1,0.5,0,1,0.5,0,0.5,0,1","0.5,0,1,0.5,0,1,0,1,0.5","2",""
"","html-keyboard-response","66","45144","0.0-97.0","33FBRBDW6PLDQ8HU5ZAHD8XUV9CC85","A3NRIEMOJVVX4A","31YWE12TE0YV78PCVO9WO2QLDWO7XY","","null","<img src=""img/food6.png"" style=""width:200px; border:14px solid green;"">","null","","","","","","","","","",""
"","image-keyboard-response","67","45242","0.0-99.0","33FBRBDW6PLDQ8HU5ZAHD8XUV9CC85","A3NRIEMOJVVX4A","31YWE12TE0YV78PCVO9WO2QLDWO7XY","","96.40000009536743","img/food4.png","75","97.29999995231628","2","1","false","3","2","1,0.5,0,1,0.5,0,0.5,0,1","0.5,0,1,0.5,0,1,0,1,0.5","2",""
"","html-keyboard-response","68","45544","0.0-100.0","33FBRBDW6PLDQ8HU5ZAHD8XUV9CC85","A3NRIEMOJVVX4A","31YWE12TE0YV78PCVO9WO2QLDWO7XY","","null","<img src=""img/food4.png"" style=""width:200px; border:14px solid green;"">","null","","","","","","","","","",""
"","image-keyboard-response","69","45634","0.0-102.0","33FBRBDW6PLDQ8HU5ZAHD8XUV9CC85","A3NRIEMOJVVX4A","31YWE12TE0YV78PCVO9WO2QLDWO7XY","","89.09999990463257","img/food6.png","74","89.90000009536743","1","0","false","1","2","1,0.5,0,1,0.5,0,0.5,0,1","0.5,0,1,0.5,0,1,0,1,0.5","2",""
"","html-keyboard-response","70","45936","0.0-103.0","33FBRBDW6PLDQ8HU5ZAHD8XUV9CC85","A3NRIEMOJVVX4A","31YWE12TE0YV78PCVO9WO2QLDWO7XY","","null","<img src=""img/food6.png"" style=""width:200px;border:14px solid red;"">","null","","","","","","","","","",""
"","image-keyboard-response","71","46034","0.0-105.0","33FBRBDW6PLDQ8HU5ZAHD8XUV9CC85","A3NRIEMOJVVX4A","31YWE12TE0YV78PCVO9WO2QLDWO7XY","","97.09999990463257","img/food4.png","75","97.80000019073486","2","1","false","3","2","1,0.5,0,1,0.5,0,0.5,0,1","0.5,0,1,0.5,0,1,0,1,0.5","2",""
"","html-keyboard-response","72","46337","0.0-106.0","33FBRBDW6PLDQ8HU5ZAHD8XUV9CC85","A3NRIEMOJVVX4A","31YWE12TE0YV78PCVO9WO2QLDWO7XY","","null","<img src=""img/food4.png"" style=""width:200px; border:14px solid green;"">","null","","","","","","","","","",""
"","image-keyboard-response","73","46402","0.0-108.0","33FBRBDW6PLDQ8HU5ZAHD8XUV9CC85","A3NRIEMOJVVX4A","31YWE12TE0YV78PCVO9WO2QLDWO7XY","","64.09999990463257","img/food6.png","74","64.80000019073486","1","0","false","1","2","1,0.5,0,1,0.5,0,0.5,0,1","0.5,0,1,0.5,0,1,0,1,0.5","2",""
"","html-keyboard-response","74","46716","0.0-109.0","33FBRBDW6PLDQ8HU5ZAHD8XUV9CC85","A3NRIEMOJVVX4A","31YWE12TE0YV78PCVO9WO2QLDWO7XY","","null","<img src=""img/food6.png"" style=""width:200px;border:14px solid red;"">","null","","","","","","","","","",""
"","image-keyboard-response","75","46754","0.0-111.0","33FBRBDW6PLDQ8HU5ZAHD8XUV9CC85","A3NRIEMOJVVX4A","31YWE12TE0YV78PCVO9WO2QLDWO7XY","","37.40000009536743","img/food6.png","74","38.200000047683716","1","1","false","1","2","1,0.5,0,1,0.5,0,0.5,0,1","0.5,0,1,0.5,0,1,0,1,0.5","2",""
"","html-keyboard-response","76","47056","0.0-112.0","33FBRBDW6PLDQ8HU5ZAHD8XUV9CC85","A3NRIEMOJVVX4A","31YWE12TE0YV78PCVO9WO2QLDWO7XY","","null","<img src=""img/food6.png"" style=""width:200px; border:14px solid green;"">","null","","","","","","","","","",""
"","image-keyboard-response","77","47106","0.0-114.0","33FBRBDW6PLDQ8HU5ZAHD8XUV9CC85","A3NRIEMOJVVX4A","31YWE12TE0YV78PCVO9WO2QLDWO7XY","","49.10000014305115","img/food6.png","75","49.799999952316284","2","0","false","1","2","1,0.5,0,1,0.5,0,0.5,0,1","0.5,0,1,0.5,0,1,0,1,0.5","2",""
"","html-keyboard-response","78","47408","0.0-115.0","33FBRBDW6PLDQ8HU5ZAHD8XUV9CC85","A3NRIEMOJVVX4A","31YWE12TE0YV78PCVO9WO2QLDWO7XY","","null","<img src=""img/food6.png"" style=""width:200px;border:14px solid red;"">","null","","","","","","","","","",""
"","image-keyboard-response","79","47482","0.0-117.0","33FBRBDW6PLDQ8HU5ZAHD8XUV9CC85","A3NRIEMOJVVX4A","31YWE12TE0YV78PCVO9WO2QLDWO7XY","","73.60000014305115","img/food6.png","76","74.39999985694885","3","1","false","1","2","1,0.5,0,1,0.5,0,0.5,0,1","0.5,0,1,0.5,0,1,0,1,0.5","2",""
"","html-keyboard-response","80","47785","0.0-118.0","33FBRBDW6PLDQ8HU5ZAHD8XUV9CC85","A3NRIEMOJVVX4A","31YWE12TE0YV78PCVO9WO2QLDWO7XY","","null","<img src=""img/food6.png"" style=""width:200px; border:14px solid green;"">","null","","","","","","","","","",""
"","image-keyboard-response","81","47930","0.0-120.0","33FBRBDW6PLDQ8HU5ZAHD8XUV9CC85","A3NRIEMOJVVX4A","31YWE12TE0YV78PCVO9WO2QLDWO7XY","","144.19999980926514","img/food4.png","75","144.90000009536743","2","1","false","3","2","1,0.5,0,1,0.5,0,0.5,0,1","0.5,0,1,0.5,0,1,0,1,0.5","2",""
"","html-keyboard-response","82","48233","0.0-121.0","33FBRBDW6PLDQ8HU5ZAHD8XUV9CC85","A3NRIEMOJVVX4A","31YWE12TE0YV78PCVO9WO2QLDWO7XY","","null","<img src=""img/food4.png"" style=""width:200px; border:14px solid green;"">","null","","","","","","","","","",""
"","image-keyboard-response","83","48290","0.0-123.0","33FBRBDW6PLDQ8HU5ZAHD8XUV9CC85","A3NRIEMOJVVX4A","31YWE12TE0YV78PCVO9WO2QLDWO7XY","","55.700000047683716","img/food6.png","76","57","3","1","false","1","2","1,0.5,0,1,0.5,0,0.5,0,1","0.5,0,1,0.5,0,1,0,1,0.5","2",""
"","html-keyboard-response","84","48592","0.0-124.0","33FBRBDW6PLDQ8HU5ZAHD8XUV9CC85","A3NRIEMOJVVX4A","31YWE12TE0YV78PCVO9WO2QLDWO7XY","","null","<img src=""img/food6.png"" style=""width:200px; border:14px solid green;"">","null","","","","","","","","","",""
"","image-keyboard-response","85","48714","0.0-126.0","33FBRBDW6PLDQ8HU5ZAHD8XUV9CC85","A3NRIEMOJVVX4A","31YWE12TE0YV78PCVO9WO2QLDWO7XY","","121.40000009536743","img/food5.png","75","122","2","0","false","2","2","1,0.5,0,1,0.5,0,0.5,0,1","0.5,0,1,0.5,0,1,0,1,0.5","2",""
"","html-keyboard-response","86","49016","0.0-127.0","33FBRBDW6PLDQ8HU5ZAHD8XUV9CC85","A3NRIEMOJVVX4A","31YWE12TE0YV78PCVO9WO2QLDWO7XY","","null","<img src=""img/food5.png"" style=""width:200px;border:14px solid red;"">","null","","","","","","","","","",""
"","image-keyboard-response","87","49026","0.0-129.0","33FBRBDW6PLDQ8HU5ZAHD8XUV9CC85","A3NRIEMOJVVX4A","31YWE12TE0YV78PCVO9WO2QLDWO7XY","","9.099999904632568","img/food4.png","75","9.900000095367432","2","1","false","3","2","1,0.5,0,1,0.5,0,0.5,0,1","0.5,0,1,0.5,0,1,0,1,0.5","2",""
"","html-keyboard-response","88","49328","0.0-130.0","33FBRBDW6PLDQ8HU5ZAHD8XUV9CC85","A3NRIEMOJVVX4A","31YWE12TE0YV78PCVO9WO2QLDWO7XY","","null","<img src=""img/food4.png"" style=""width:200px; border:14px solid green;"">","null","","","","","","","","","",""
"","image-keyboard-response","89","49531","0.0-132.0","33FBRBDW6PLDQ8HU5ZAHD8XUV9CC85","A3NRIEMOJVVX4A","31YWE12TE0YV78PCVO9WO2QLDWO7XY","","201.19999980926514","img/food4.png","74","202.10000014305115","1","0","false","3","2","1,0.5,0,1,0.5,0,0.5,0,1","0.5,0,1,0.5,0,1,0,1,0.5","2",""
"","html-keyboard-response","90","49833","0.0-133.0","33FBRBDW6PLDQ8HU5ZAHD8XUV9CC85","A3NRIEMOJVVX4A","31YWE12TE0YV78PCVO9WO2QLDWO7XY","","null","<img src=""img/food4.png"" style=""width:200px;border:14px solid red;"">","null","","","","","","","","","",""
"","image-keyboard-response","91","49939","0.0-135.0","33FBRBDW6PLDQ8HU5ZAHD8XUV9CC85","A3NRIEMOJVVX4A","31YWE12TE0YV78PCVO9WO2QLDWO7XY","","103.89999985694885","img/food5.png","75","105.70000004768372","2","0","false","2","2","1,0.5,0,1,0.5,0,0.5,0,1","0.5,0,1,0.5,0,1,0,1,0.5","2",""
"","html-keyboard-response","92","50241","0.0-136.0","33FBRBDW6PLDQ8HU5ZAHD8XUV9CC85","A3NRIEMOJVVX4A","31YWE12TE0YV78PCVO9WO2QLDWO7XY","","null","<img src=""img/food5.png"" style=""width:200px;border:14px solid red;"">","null","","","","","","","","","",""
"","image-keyboard-response","93","50290","0.0-138.0","33FBRBDW6PLDQ8HU5ZAHD8XUV9CC85","A3NRIEMOJVVX4A","31YWE12TE0YV78PCVO9WO2QLDWO7XY","","47.5","img/food4.png","74","48.5","1","0","false","3","2","1,0.5,0,1,0.5,0,0.5,0,1","0.5,0,1,0.5,0,1,0,1,0.5","2",""
"","html-keyboard-response","94","50592","0.0-139.0","33FBRBDW6PLDQ8HU5ZAHD8XUV9CC85","A3NRIEMOJVVX4A","31YWE12TE0YV78PCVO9WO2QLDWO7XY","","null","<img src=""img/food4.png"" style=""width:200px;border:14px solid red;"">","null","","","","","","","","","",""
"","image-keyboard-response","95","50730","0.0-141.0","33FBRBDW6PLDQ8HU5ZAHD8XUV9CC85","A3NRIEMOJVVX4A","31YWE12TE0YV78PCVO9WO2QLDWO7XY","","137.19999980926514","img/food6.png","75","138.19999980926514","2","0","false","1","2","1,0.5,0,1,0.5,0,0.5,0,1","0.5,0,1,0.5,0,1,0,1,0.5","2",""
"","html-keyboard-response","96","51031","0.0-142.0","33FBRBDW6PLDQ8HU5ZAHD8XUV9CC85","A3NRIEMOJVVX4A","31YWE12TE0YV78PCVO9WO2QLDWO7XY","","null","<img src=""img/food6.png"" style=""width:200px;border:14px solid red;"">","null","","","","","","","","","",""
"","image-keyboard-response","97","51098","0.0-144.0","33FBRBDW6PLDQ8HU5ZAHD8XUV9CC85","A3NRIEMOJVVX4A","31YWE12TE0YV78PCVO9WO2QLDWO7XY","","65.79999995231628","img/food4.png","75","66.39999985694885","2","1","false","3","2","1,0.5,0,1,0.5,0,0.5,0,1","0.5,0,1,0.5,0,1,0,1,0.5","2",""
"","html-keyboard-response","98","51400","0.0-145.0","33FBRBDW6PLDQ8HU5ZAHD8XUV9CC85","A3NRIEMOJVVX4A","31YWE12TE0YV78PCVO9WO2QLDWO7XY","","null","<img src=""img/food4.png"" style=""width:200px; border:14px solid green;"">","null","","","","","","","","","",""
"","image-keyboard-response","99","51706","0.0-147.0","33FBRBDW6PLDQ8HU5ZAHD8XUV9CC85","A3NRIEMOJVVX4A","31YWE12TE0YV78PCVO9WO2QLDWO7XY","","304.7999999523163","img/food6.png","74","305.5","1","0","false","1","2","1,0.5,0,1,0.5,0,0.5,0,1","0.5,0,1,0.5,0,1,0,1,0.5","2",""
"","html-keyboard-response","100","52008","0.0-148.0","33FBRBDW6PLDQ8HU5ZAHD8XUV9CC85","A3NRIEMOJVVX4A","31YWE12TE0YV78PCVO9WO2QLDWO7XY","","null","<img src=""img/food6.png"" style=""width:200px;border:14px solid red;"">","null","","","","","","","","","",""
"","image-keyboard-response","101","52186","0.0-150.0","33FBRBDW6PLDQ8HU5ZAHD8XUV9CC85","A3NRIEMOJVVX4A","31YWE12TE0YV78PCVO9WO2QLDWO7XY","","176.69999980926514","img/food4.png","74","177.40000009536743","1","0","false","3","2","1,0.5,0,1,0.5,0,0.5,0,1","0.5,0,1,0.5,0,1,0,1,0.5","2",""
"","html-keyboard-response","102","52487","0.0-151.0","33FBRBDW6PLDQ8HU5ZAHD8XUV9CC85","A3NRIEMOJVVX4A","31YWE12TE0YV78PCVO9WO2QLDWO7XY","","null","<img src=""img/food4.png"" style=""width:200px;border:14px solid red;"">","null","","","","","","","","","",""
"","image-keyboard-response","103","52538","0.0-153.0","33FBRBDW6PLDQ8HU5ZAHD8XUV9CC85","A3NRIEMOJVVX4A","31YWE12TE0YV78PCVO9WO2QLDWO7XY","","49.59999990463257","img/food4.png","76","50.299999952316284","3","0","false","3","2","1,0.5,0,1,0.5,0,0.5,0,1","0.5,0,1,0.5,0,1,0,1,0.5","2",""
"","html-keyboard-response","104","52839","0.0-154.0","33FBRBDW6PLDQ8HU5ZAHD8XUV9CC85","A3NRIEMOJVVX4A","31YWE12TE0YV78PCVO9WO2QLDWO7XY","","null","<img src=""img/food4.png"" style=""width:200px;border:14px solid red;"">","null","","","","","","","","","",""
"","image-keyboard-response","105","52978","0.0-156.0","33FBRBDW6PLDQ8HU5ZAHD8XUV9CC85","A3NRIEMOJVVX4A","31YWE12TE0YV78PCVO9WO2QLDWO7XY","","137.59999990463257","img/food4.png","75","138.20000004768372","2","1","false","3","2","1,0.5,0,1,0.5,0,0.5,0,1","0.5,0,1,0.5,0,1,0,1,0.5","2",""
"","html-keyboard-response","106","53279","0.0-157.0","33FBRBDW6PLDQ8HU5ZAHD8XUV9CC85","A3NRIEMOJVVX4A","31YWE12TE0YV78PCVO9WO2QLDWO7XY","","null","<img src=""img/food4.png"" style=""width:200px; border:14px solid green;"">","null","","","","","","","","","",""
"","image-keyboard-response","107","53306","0.0-159.0","33FBRBDW6PLDQ8HU5ZAHD8XUV9CC85","A3NRIEMOJVVX4A","31YWE12TE0YV78PCVO9WO2QLDWO7XY","","25.40000009536743","img/food5.png","75","26.300000190734863","2","0","false","2","2","1,0.5,0,1,0.5,0,0.5,0,1","0.5,0,1,0.5,0,1,0,1,0.5","2",""
"","html-keyboard-response","108","53608","0.0-160.0","33FBRBDW6PLDQ8HU5ZAHD8XUV9CC85","A3NRIEMOJVVX4A","31YWE12TE0YV78PCVO9WO2QLDWO7XY","","null","<img src=""img/food5.png"" style=""width:200px;border:14px solid red;"">","null","","","","","","","","","",""
"","image-keyboard-response","109","53634","0.0-162.0","33FBRBDW6PLDQ8HU5ZAHD8XUV9CC85","A3NRIEMOJVVX4A","31YWE12TE0YV78PCVO9WO2QLDWO7XY","","24.700000047683716","img/food6.png","74","25.300000190734863","1","0","false","1","2","1,0.5,0,1,0.5,0,0.5,0,1","0.5,0,1,0.5,0,1,0,1,0.5","2",""
"","html-keyboard-response","110","53938","0.0-163.0","33FBRBDW6PLDQ8HU5ZAHD8XUV9CC85","A3NRIEMOJVVX4A","31YWE12TE0YV78PCVO9WO2QLDWO7XY","","null","<img src=""img/food6.png"" style=""width:200px;border:14px solid red;"">","null","","","","","","","","","",""
"","image-keyboard-response","111","54002","0.0-165.0","33FBRBDW6PLDQ8HU5ZAHD8XUV9CC85","A3NRIEMOJVVX4A","31YWE12TE0YV78PCVO9WO2QLDWO7XY","","63","img/food5.png","74","63.700000047683716","1","0","false","2","2","1,0.5,0,1,0.5,0,0.5,0,1","0.5,0,1,0.5,0,1,0,1,0.5","2",""
"","html-keyboard-response","112","54304","0.0-166.0","33FBRBDW6PLDQ8HU5ZAHD8XUV9CC85","A3NRIEMOJVVX4A","31YWE12TE0YV78PCVO9WO2QLDWO7XY","","null","<img src=""img/food5.png"" style=""width:200px;border:14px solid red;"">","null","","","","","","","","","",""
"","image-keyboard-response","113","54450","0.0-168.0","33FBRBDW6PLDQ8HU5ZAHD8XUV9CC85","A3NRIEMOJVVX4A","31YWE12TE0YV78PCVO9WO2QLDWO7XY","","145.39999985694885","img/food4.png","75","146.20000004768372","2","1","false","3","2","1,0.5,0,1,0.5,0,0.5,0,1","0.5,0,1,0.5,0,1,0,1,0.5","2",""
"","html-keyboard-response","114","54752","0.0-169.0","33FBRBDW6PLDQ8HU5ZAHD8XUV9CC85","A3NRIEMOJVVX4A","31YWE12TE0YV78PCVO9WO2QLDWO7XY","","null","<img src=""img/food4.png"" style=""width:200px; border:14px solid green;"">","null","","","","","","","","","",""
"","image-keyboard-response","115","54818","0.0-171.0","33FBRBDW6PLDQ8HU5ZAHD8XUV9CC85","A3NRIEMOJVVX4A","31YWE12TE0YV78PCVO9WO2QLDWO7XY","","64.79999995231628","img/food4.png","75","65.59999990463257","2","1","false","3","2","1,0.5,0,1,0.5,0,0.5,0,1","0.5,0,1,0.5,0,1,0,1,0.5","2",""
"","html-keyboard-response","116","55119","0.0-172.0","33FBRBDW6PLDQ8HU5ZAHD8XUV9CC85","A3NRIEMOJVVX4A","31YWE12TE0YV78PCVO9WO2QLDWO7XY","","null","<img src=""img/food4.png"" style=""width:200px; border:14px solid green;"">","null","","","","","","","","","",""
"","image-keyboard-response","117","55234","0.0-174.0","33FBRBDW6PLDQ8HU5ZAHD8XUV9CC85","A3NRIEMOJVVX4A","31YWE12TE0YV78PCVO9WO2QLDWO7XY","","113.5","img/food5.png","74","114.29999995231628","1","0","false","2","2","1,0.5,0,1,0.5,0,0.5,0,1","0.5,0,1,0.5,0,1,0,1,0.5","2",""
"","html-keyboard-response","118","55536","0.0-175.0","33FBRBDW6PLDQ8HU5ZAHD8XUV9CC85","A3NRIEMOJVVX4A","31YWE12TE0YV78PCVO9WO2QLDWO7XY","","null","<img src=""img/food5.png"" style=""width:200px;border:14px solid red;"">","null","","","","","","","","","",""
"","image-keyboard-response","119","55642","0.0-177.0","33FBRBDW6PLDQ8HU5ZAHD8XUV9CC85","A3NRIEMOJVVX4A","31YWE12TE0YV78PCVO9WO2QLDWO7XY","","103.59999990463257","img/food4.png","75","104.40000009536743","2","1","false","3","2","1,0.5,0,1,0.5,0,0.5,0,1","0.5,0,1,0.5,0,1,0,1,0.5","2",""
"","html-keyboard-response","120","55944","0.0-178.0","33FBRBDW6PLDQ8HU5ZAHD8XUV9CC85","A3NRIEMOJVVX4A","31YWE12TE0YV78PCVO9WO2QLDWO7XY","","null","<img src=""img/food4.png"" style=""width:200px; border:14px solid green;"">","null","","","","","","","","","",""
"","image-keyboard-response","121","56034","0.0-180.0","33FBRBDW6PLDQ8HU5ZAHD8XUV9CC85","A3NRIEMOJVVX4A","31YWE12TE0YV78PCVO9WO2QLDWO7XY","","89","img/food5.png","74","89.59999990463257","1","0","false","2","2","1,0.5,0,1,0.5,0,0.5,0,1","0.5,0,1,0.5,0,1,0,1,0.5","2",""
"","html-keyboard-response","122","56350","0.0-181.0","33FBRBDW6PLDQ8HU5ZAHD8XUV9CC85","A3NRIEMOJVVX4A","31YWE12TE0YV78PCVO9WO2QLDWO7XY","","null","<img src=""img/food5.png"" style=""width:200px;border:14px solid red;"">","null","","","","","","","","","",""
"","image-keyboard-response","123","56426","0.0-183.0","33FBRBDW6PLDQ8HU5ZAHD8XUV9CC85","A3NRIEMOJVVX4A","31YWE12TE0YV78PCVO9WO2QLDWO7XY","","74.60000014305115","img/food6.png","75","75.40000009536743","2","0","false","1","2","1,0.5,0,1,0.5,0,0.5,0,1","0.5,0,1,0.5,0,1,0,1,0.5","2",""
"","html-keyboard-response","124","56727","0.0-184.0","33FBRBDW6PLDQ8HU5ZAHD8XUV9CC85","A3NRIEMOJVVX4A","31YWE12TE0YV78PCVO9WO2QLDWO7XY","","null","<img src=""img/food6.png"" style=""width:200px;border:14px solid red;"">","null","","","","","","","","","",""
"","image-keyboard-response","125","56826","0.0-186.0","33FBRBDW6PLDQ8HU5ZAHD8XUV9CC85","A3NRIEMOJVVX4A","31YWE12TE0YV78PCVO9WO2QLDWO7XY","","97.70000004768372","img/food5.png","75","98.5","2","0","false","2","2","1,0.5,0,1,0.5,0,0.5,0,1","0.5,0,1,0.5,0,1,0,1,0.5","2",""
"","html-keyboard-response","126","57129","0.0-187.0","33FBRBDW6PLDQ8HU5ZAHD8XUV9CC85","A3NRIEMOJVVX4A","31YWE12TE0YV78PCVO9WO2QLDWO7XY","","null","<img src=""img/food5.png"" style=""width:200px;border:14px solid red;"">","null","","","","","","","","","",""
"","image-keyboard-response","127","57260","0.0-189.0","33FBRBDW6PLDQ8HU5ZAHD8XUV9CC85","A3NRIEMOJVVX4A","31YWE12TE0YV78PCVO9WO2QLDWO7XY","","125.40000009536743","img/food5.png","76","129.09999990463257","3","1","false","2","2","1,0.5,0,1,0.5,0,0.5,0,1","0.5,0,1,0.5,0,1,0,1,0.5","2",""
"","html-keyboard-response","128","57562","0.0-190.0","33FBRBDW6PLDQ8HU5ZAHD8XUV9CC85","A3NRIEMOJVVX4A","31YWE12TE0YV78PCVO9WO2QLDWO7XY","","null","<img src=""img/food5.png"" style=""width:200px; border:14px solid green;"">","null","","","","","","","","","",""
"","image-keyboard-response","129","57618","0.0-192.0","33FBRBDW6PLDQ8HU5ZAHD8XUV9CC85","A3NRIEMOJVVX4A","31YWE12TE0YV78PCVO9WO2QLDWO7XY","","54.700000047683716","img/food6.png","75","55.80000019073486","2","0","false","1","2","1,0.5,0,1,0.5,0,0.5,0,1","0.5,0,1,0.5,0,1,0,1,0.5","2",""
"","html-keyboard-response","130","57920","0.0-193.0","33FBRBDW6PLDQ8HU5ZAHD8XUV9CC85","A3NRIEMOJVVX4A","31YWE12TE0YV78PCVO9WO2QLDWO7XY","","null","<img src=""img/food6.png"" style=""width:200px;border:14px solid red;"">","null","","","","","","","","","",""
"","image-keyboard-response","131","58052","0.0-195.0","33FBRBDW6PLDQ8HU5ZAHD8XUV9CC85","A3NRIEMOJVVX4A","31YWE12TE0YV78PCVO9WO2QLDWO7XY","","130","img/food4.png","75","131.10000014305115","2","1","false","3","2","1,0.5,0,1,0.5,0,0.5,0,1","0.5,0,1,0.5,0,1,0,1,0.5","2",""
"","html-keyboard-response","132","58356","0.0-196.0","33FBRBDW6PLDQ8HU5ZAHD8XUV9CC85","A3NRIEMOJVVX4A","31YWE12TE0YV78PCVO9WO2QLDWO7XY","","null","<img src=""img/food4.png"" style=""width:200px; border:14px solid green;"">","null","","","","","","","","","",""
"","image-keyboard-response","133","58395","0.0-198.0","33FBRBDW6PLDQ8HU5ZAHD8XUV9CC85","A3NRIEMOJVVX4A","31YWE12TE0YV78PCVO9WO2QLDWO7XY","","37.5","img/food4.png","75","38.60000014305115","2","1","false","3","2","1,0.5,0,1,0.5,0,0.5,0,1","0.5,0,1,0.5,0,1,0,1,0.5","2",""
"","html-keyboard-response","134","58697","0.0-199.0","33FBRBDW6PLDQ8HU5ZAHD8XUV9CC85","A3NRIEMOJVVX4A","31YWE12TE0YV78PCVO9WO2QLDWO7XY","","null","<img src=""img/food4.png"" style=""width:200px; border:14px solid green;"">","null","","","","","","","","","",""
"","image-keyboard-response","135","58779","0.0-201.0","33FBRBDW6PLDQ8HU5ZAHD8XUV9CC85","A3NRIEMOJVVX4A","31YWE12TE0YV78PCVO9WO2QLDWO7XY","","80","img/food5.png","74","81.70000004768372","1","0","false","2","2","1,0.5,0,1,0.5,0,0.5,0,1","0.5,0,1,0.5,0,1,0,1,0.5","2",""
"","html-keyboard-response","136","59083","0.0-202.0","33FBRBDW6PLDQ8HU5ZAHD8XUV9CC85","A3NRIEMOJVVX4A","31YWE12TE0YV78PCVO9WO2QLDWO7XY","","null","<img src=""img/food5.png"" style=""width:200px;border:14px solid red;"">","null","","","","","","","","","",""
"","image-keyboard-response","137","59235","0.0-204.0","33FBRBDW6PLDQ8HU5ZAHD8XUV9CC85","A3NRIEMOJVVX4A","31YWE12TE0YV78PCVO9WO2QLDWO7XY","","149.60000014305115","img/food4.png","75","151.30000019073486","2","1","false","3","2","1,0.5,0,1,0.5,0,0.5,0,1","0.5,0,1,0.5,0,1,0,1,0.5","2",""
"","html-keyboard-response","138","59538","0.0-205.0","33FBRBDW6PLDQ8HU5ZAHD8XUV9CC85","A3NRIEMOJVVX4A","31YWE12TE0YV78PCVO9WO2QLDWO7XY","","null","<img src=""img/food4.png"" style=""width:200px; border:14px solid green;"">","null","","","","","","","","","",""
"","image-keyboard-response","139","59628","0.0-207.0","33FBRBDW6PLDQ8HU5ZAHD8XUV9CC85","A3NRIEMOJVVX4A","31YWE12TE0YV78PCVO9WO2QLDWO7XY","","87.79999995231628","img/food6.png","76","89.5","3","1","false","1","2","1,0.5,0,1,0.5,0,0.5,0,1","0.5,0,1,0.5,0,1,0,1,0.5","2",""
"","html-keyboard-response","140","59931","0.0-208.0","33FBRBDW6PLDQ8HU5ZAHD8XUV9CC85","A3NRIEMOJVVX4A","31YWE12TE0YV78PCVO9WO2QLDWO7XY","","null","<img src=""img/food6.png"" style=""width:200px; border:14px solid green;"">","null","","","","","","","","","",""
"","image-keyboard-response","141","60011","0.0-210.0","33FBRBDW6PLDQ8HU5ZAHD8XUV9CC85","A3NRIEMOJVVX4A","31YWE12TE0YV78PCVO9WO2QLDWO7XY","","78.29999995231628","img/food6.png","75","79.90000009536743","2","0","false","1","2","1,0.5,0,1,0.5,0,0.5,0,1","0.5,0,1,0.5,0,1,0,1,0.5","2",""
"","html-keyboard-response","142","60314","0.0-211.0","33FBRBDW6PLDQ8HU5ZAHD8XUV9CC85","A3NRIEMOJVVX4A","31YWE12TE0YV78PCVO9WO2QLDWO7XY","","null","<img src=""img/food6.png"" style=""width:200px;border:14px solid red;"">","null","","","","","","","","","",""
"","image-keyboard-response","143","60323","0.0-213.0","33FBRBDW6PLDQ8HU5ZAHD8XUV9CC85","A3NRIEMOJVVX4A","31YWE12TE0YV78PCVO9WO2QLDWO7XY","","6.200000047683716","img/food5.png","74","7.200000047683716","1","0","false","2","2","1,0.5,0,1,0.5,0,0.5,0,1","0.5,0,1,0.5,0,1,0,1,0.5","2",""
"","html-keyboard-response","144","60625","0.0-214.0","33FBRBDW6PLDQ8HU5ZAHD8XUV9CC85","A3NRIEMOJVVX4A","31YWE12TE0YV78PCVO9WO2QLDWO7XY","","null","<img src=""img/food5.png"" style=""width:200px;border:14px solid red;"">","null","","","","","","","","","",""
"","image-keyboard-response","145","60764","0.0-216.0","33FBRBDW6PLDQ8HU5ZAHD8XUV9CC85","A3NRIEMOJVVX4A","31YWE12TE0YV78PCVO9WO2QLDWO7XY","","136.29999995231628","img/food4.png","76","138.19999980926514","3","0","false","3","2","1,0.5,0,1,0.5,0,0.5,0,1","0.5,0,1,0.5,0,1,0,1,0.5","2",""
"","html-keyboard-response","146","61067","0.0-217.0","33FBRBDW6PLDQ8HU5ZAHD8XUV9CC85","A3NRIEMOJVVX4A","31YWE12TE0YV78PCVO9WO2QLDWO7XY","","null","<img src=""img/food4.png"" style=""width:200px;border:14px solid red;"">","null","","","","","","","","","",""
"","image-keyboard-response","147","61164","0.0-219.0","33FBRBDW6PLDQ8HU5ZAHD8XUV9CC85","A3NRIEMOJVVX4A","31YWE12TE0YV78PCVO9WO2QLDWO7XY","","95","img/food4.png","74","97","1","0","false","3","2","1,0.5,0,1,0.5,0,0.5,0,1","0.5,0,1,0.5,0,1,0,1,0.5","2",""
"","html-keyboard-response","148","61467","0.0-220.0","33FBRBDW6PLDQ8HU5ZAHD8XUV9CC85","A3NRIEMOJVVX4A","31YWE12TE0YV78PCVO9WO2QLDWO7XY","","null","<img src=""img/food4.png"" style=""width:200px;border:14px solid red;"">","null","","","","","","","","","",""
"","image-keyboard-response","149","61595","0.0-222.0","33FBRBDW6PLDQ8HU5ZAHD8XUV9CC85","A3NRIEMOJVVX4A","31YWE12TE0YV78PCVO9WO2QLDWO7XY","","126.5","img/food5.png","75","127.79999995231628","2","0","false","2","2","1,0.5,0,1,0.5,0,0.5,0,1","0.5,0,1,0.5,0,1,0,1,0.5","2",""
"","html-keyboard-response","150","61898","0.0-223.0","33FBRBDW6PLDQ8HU5ZAHD8XUV9CC85","A3NRIEMOJVVX4A","31YWE12TE0YV78PCVO9WO2QLDWO7XY","","null","<img src=""img/food5.png"" style=""width:200px;border:14px solid red;"">","null","","","","","","","","","",""
"","image-keyboard-response","151","62068","0.0-225.0","33FBRBDW6PLDQ8HU5ZAHD8XUV9CC85","A3NRIEMOJVVX4A","31YWE12TE0YV78PCVO9WO2QLDWO7XY","","166.90000009536743","img/food6.png","75","168.79999995231628","2","0","false","1","2","1,0.5,0,1,0.5,0,0.5,0,1","0.5,0,1,0.5,0,1,0,1,0.5","2",""
"","html-keyboard-response","152","62370","0.0-226.0","33FBRBDW6PLDQ8HU5ZAHD8XUV9CC85","A3NRIEMOJVVX4A","31YWE12TE0YV78PCVO9WO2QLDWO7XY","","null","<img src=""img/food6.png"" style=""width:200px;border:14px solid red;"">","null","","","","","","","","","",""
"","image-keyboard-response","153","62484","0.0-228.0","33FBRBDW6PLDQ8HU5ZAHD8XUV9CC85","A3NRIEMOJVVX4A","31YWE12TE0YV78PCVO9WO2QLDWO7XY","","110.90000009536743","img/food4.png","75","112.69999980926514","2","1","false","3","2","1,0.5,0,1,0.5,0,0.5,0,1","0.5,0,1,0.5,0,1,0,1,0.5","2",""
"","html-keyboard-response","154","62787","0.0-229.0","33FBRBDW6PLDQ8HU5ZAHD8XUV9CC85","A3NRIEMOJVVX4A","31YWE12TE0YV78PCVO9WO2QLDWO7XY","","null","<img src=""img/food4.png"" style=""width:200px; border:14px solid green;"">","null","","","","","","","","","",""
"","image-keyboard-response","155","62892","0.0-231.0","33FBRBDW6PLDQ8HU5ZAHD8XUV9CC85","A3NRIEMOJVVX4A","31YWE12TE0YV78PCVO9WO2QLDWO7XY","","102.5","img/food4.png","75","104.09999990463257","2","1","false","3","2","1,0.5,0,1,0.5,0,0.5,0,1","0.5,0,1,0.5,0,1,0,1,0.5","2",""
"","html-keyboard-response","156","63194","0.0-232.0","33FBRBDW6PLDQ8HU5ZAHD8XUV9CC85","A3NRIEMOJVVX4A","31YWE12TE0YV78PCVO9WO2QLDWO7XY","","null","<img src=""img/food4.png"" style=""width:200px; border:14px solid green;"">","null","","","","","","","","","",""
"","image-keyboard-response","157","63372","0.0-234.0","33FBRBDW6PLDQ8HU5ZAHD8XUV9CC85","A3NRIEMOJVVX4A","31YWE12TE0YV78PCVO9WO2QLDWO7XY","","175.09999990463257","img/food6.png","75","176.79999995231628","2","0","false","1","2","1,0.5,0,1,0.5,0,0.5,0,1","0.5,0,1,0.5,0,1,0,1,0.5","2",""
"","html-keyboard-response","158","63675","0.0-235.0","33FBRBDW6PLDQ8HU5ZAHD8XUV9CC85","A3NRIEMOJVVX4A","31YWE12TE0YV78PCVO9WO2QLDWO7XY","","null","<img src=""img/food6.png"" style=""width:200px;border:14px solid red;"">","null","","","","","","","","","",""
"","image-keyboard-response","159","63804","0.0-237.0","33FBRBDW6PLDQ8HU5ZAHD8XUV9CC85","A3NRIEMOJVVX4A","31YWE12TE0YV78PCVO9WO2QLDWO7XY","","125.70000004768372","img/food5.png","76","127.79999995231628","3","1","false","2","2","1,0.5,0,1,0.5,0,0.5,0,1","0.5,0,1,0.5,0,1,0,1,0.5","2",""
"","html-keyboard-response","160","64107","0.0-238.0","33FBRBDW6PLDQ8HU5ZAHD8XUV9CC85","A3NRIEMOJVVX4A","31YWE12TE0YV78PCVO9WO2QLDWO7XY","","null","<img src=""img/food5.png"" style=""width:200px; border:14px solid green;"">","null","","","","","","","","","",""
"","image-keyboard-response","161","64243","0.0-240.0","33FBRBDW6PLDQ8HU5ZAHD8XUV9CC85","A3NRIEMOJVVX4A","31YWE12TE0YV78PCVO9WO2QLDWO7XY","","133.60000014305115","img/food6.png","74","134.89999985694885","1","0","false","1","2","1,0.5,0,1,0.5,0,0.5,0,1","0.5,0,1,0.5,0,1,0,1,0.5","2",""
"","html-keyboard-response","162","64545","0.0-241.0","33FBRBDW6PLDQ8HU5ZAHD8XUV9CC85","A3NRIEMOJVVX4A","31YWE12TE0YV78PCVO9WO2QLDWO7XY","","null","<img src=""img/food6.png"" style=""width:200px;border:14px solid red;"">","null","","","","","","","","","",""
"","image-keyboard-response","163","64699","0.0-243.0","33FBRBDW6PLDQ8HU5ZAHD8XUV9CC85","A3NRIEMOJVVX4A","31YWE12TE0YV78PCVO9WO2QLDWO7XY","","152.39999985694885","img/food6.png","74","153.20000004768372","1","1","false","1","2","1,0.5,0,1,0.5,0,0.5,0,1","0.5,0,1,0.5,0,1,0,1,0.5","2",""
"","html-keyboard-response","164","65001","0.0-244.0","33FBRBDW6PLDQ8HU5ZAHD8XUV9CC85","A3NRIEMOJVVX4A","31YWE12TE0YV78PCVO9WO2QLDWO7XY","","null","<img src=""img/food6.png"" style=""width:200px; border:14px solid green;"">","null","","","","","","","","","",""
"","image-keyboard-response","165","65124","0.0-246.0","33FBRBDW6PLDQ8HU5ZAHD8XUV9CC85","A3NRIEMOJVVX4A","31YWE12TE0YV78PCVO9WO2QLDWO7XY","","120.5","img/food5.png","76","122.20000004768372","3","1","false","2","2","1,0.5,0,1,0.5,0,0.5,0,1","0.5,0,1,0.5,0,1,0,1,0.5","2",""
"","html-keyboard-response","166","65428","0.0-247.0","33FBRBDW6PLDQ8HU5ZAHD8XUV9CC85","A3NRIEMOJVVX4A","31YWE12TE0YV78PCVO9WO2QLDWO7XY","","null","<img src=""img/food5.png"" style=""width:200px; border:14px solid green;"">","null","","","","","","","","","",""
"","image-keyboard-response","167","65572","0.0-249.0","33FBRBDW6PLDQ8HU5ZAHD8XUV9CC85","A3NRIEMOJVVX4A","31YWE12TE0YV78PCVO9WO2QLDWO7XY","","141.79999995231628","img/food6.png","75","143.79999995231628","2","0","false","1","2","1,0.5,0,1,0.5,0,0.5,0,1","0.5,0,1,0.5,0,1,0,1,0.5","2",""
"","html-keyboard-response","168","65875","0.0-250.0","33FBRBDW6PLDQ8HU5ZAHD8XUV9CC85","A3NRIEMOJVVX4A","31YWE12TE0YV78PCVO9WO2QLDWO7XY","","null","<img src=""img/food6.png"" style=""width:200px;border:14px solid red;"">","null","","","","","","","","","",""
"","image-keyboard-response","169","66012","0.0-252.0","33FBRBDW6PLDQ8HU5ZAHD8XUV9CC85","A3NRIEMOJVVX4A","31YWE12TE0YV78PCVO9WO2QLDWO7XY","","135","img/food6.png","74","136.40000009536743","1","0","false","1","2","1,0.5,0,1,0.5,0,0.5,0,1","0.5,0,1,0.5,0,1,0,1,0.5","2",""
"","html-keyboard-response","170","66315","0.0-253.0","33FBRBDW6PLDQ8HU5ZAHD8XUV9CC85","A3NRIEMOJVVX4A","31YWE12TE0YV78PCVO9WO2QLDWO7XY","","null","<img src=""img/food6.png"" style=""width:200px;border:14px solid red;"">","null","","","","","","","","","",""
"","image-keyboard-response","171","66428","0.0-255.0","33FBRBDW6PLDQ8HU5ZAHD8XUV9CC85","A3NRIEMOJVVX4A","31YWE12TE0YV78PCVO9WO2QLDWO7XY","","110.39999985694885","img/food4.png","74","112.09999990463257","1","0","false","3","2","1,0.5,0,1,0.5,0,0.5,0,1","0.5,0,1,0.5,0,1,0,1,0.5","2",""
"","html-keyboard-response","172","66731","0.0-256.0","33FBRBDW6PLDQ8HU5ZAHD8XUV9CC85","A3NRIEMOJVVX4A","31YWE12TE0YV78PCVO9WO2QLDWO7XY","","null","<img src=""img/food4.png"" style=""width:200px;border:14px solid red;"">","null","","","","","","","","","",""
"","image-keyboard-response","173","67092","0.0-258.0","33FBRBDW6PLDQ8HU5ZAHD8XUV9CC85","A3NRIEMOJVVX4A","31YWE12TE0YV78PCVO9WO2QLDWO7XY","","358.2999999523163","img/food5.png","74","359.90000009536743","1","1","false","2","2","1,0.5,0,1,0.5,0,0.5,0,1","0.5,0,1,0.5,0,1,0,1,0.5","2",""
"","html-keyboard-response","174","67395","0.0-259.0","33FBRBDW6PLDQ8HU5ZAHD8XUV9CC85","A3NRIEMOJVVX4A","31YWE12TE0YV78PCVO9WO2QLDWO7XY","","null","<img src=""img/food5.png"" style=""width:200px; border:14px solid green;"">","null","","","","","","","","","",""
"","image-keyboard-response","175","67540","0.0-261.0","33FBRBDW6PLDQ8HU5ZAHD8XUV9CC85","A3NRIEMOJVVX4A","31YWE12TE0YV78PCVO9WO2QLDWO7XY","","143.39999985694885","img/food4.png","75","144.70000004768372","2","1","false","3","2","1,0.5,0,1,0.5,0,0.5,0,1","0.5,0,1,0.5,0,1,0,1,0.5","2",""
"","html-keyboard-response","176","67843","0.0-262.0","33FBRBDW6PLDQ8HU5ZAHD8XUV9CC85","A3NRIEMOJVVX4A","31YWE12TE0YV78PCVO9WO2QLDWO7XY","","null","<img src=""img/food4.png"" style=""width:200px; border:14px solid green;"">","null","","","","","","","","","",""
"","image-keyboard-response","177","67956","0.0-264.0","33FBRBDW6PLDQ8HU5ZAHD8XUV9CC85","A3NRIEMOJVVX4A","31YWE12TE0YV78PCVO9WO2QLDWO7XY","","110.5","img/food5.png","74","112.20000004768372","1","1","false","2","2","1,0.5,0,1,0.5,0,0.5,0,1","0.5,0,1,0.5,0,1,0,1,0.5","2",""
"","html-keyboard-response","178","68259","0.0-265.0","33FBRBDW6PLDQ8HU5ZAHD8XUV9CC85","A3NRIEMOJVVX4A","31YWE12TE0YV78PCVO9WO2QLDWO7XY","","null","<img src=""img/food5.png"" style=""width:200px; border:14px solid green;"">","null","","","","","","","","","",""
"","image-keyboard-response","179","68395","0.0-267.0","33FBRBDW6PLDQ8HU5ZAHD8XUV9CC85","A3NRIEMOJVVX4A","31YWE12TE0YV78PCVO9WO2QLDWO7XY","","132.40000009536743","img/food5.png","74","133.60000014305115","1","0","false","2","2","1,0.5,0,1,0.5,0,0.5,0,1","0.5,0,1,0.5,0,1,0,1,0.5","2",""
"","html-keyboard-response","180","68697","0.0-268.0","33FBRBDW6PLDQ8HU5ZAHD8XUV9CC85","A3NRIEMOJVVX4A","31YWE12TE0YV78PCVO9WO2QLDWO7XY","","null","<img src=""img/food5.png"" style=""width:200px;border:14px solid red;"">","null","","","","","","","","","",""
"","image-keyboard-response","181","68772","0.0-270.0","33FBRBDW6PLDQ8HU5ZAHD8XUV9CC85","A3NRIEMOJVVX4A","31YWE12TE0YV78PCVO9WO2QLDWO7XY","","73.29999995231628","img/food4.png","74","74.40000009536743","1","0","false","3","2","1,0.5,0,1,0.5,0,0.5,0,1","0.5,0,1,0.5,0,1,0,1,0.5","2",""
"","html-keyboard-response","182","69075","0.0-271.0","33FBRBDW6PLDQ8HU5ZAHD8XUV9CC85","A3NRIEMOJVVX4A","31YWE12TE0YV78PCVO9WO2QLDWO7XY","","null","<img src=""img/food4.png"" style=""width:200px;border:14px solid red;"">","null","","","","","","","","","",""
"","instructions","183","73659","0.0-273.0","33FBRBDW6PLDQ8HU5ZAHD8XUV9CC85","A3NRIEMOJVVX4A","31YWE12TE0YV78PCVO9WO2QLDWO7XY","[{""page_index"":0,""viewing_time"":3606.600000143051},{""page_index"":1,""viewing_time"":975.7999999523163}]","4582.700000047684","","","","","","","","","","","",""
"","image-keyboard-response","184","74012","0.0-274.0","33FBRBDW6PLDQ8HU5ZAHD8XUV9CC85","A3NRIEMOJVVX4A","31YWE12TE0YV78PCVO9WO2QLDWO7XY","","351.90000009536743","img/food2.png","75","353.5","2","0","","1","1","1,0.5,0,1,0.5,0,0.5,0,1","0.5,0,1,0.5,0,1,0,1,0.5","2",""
"","html-keyboard-response","185","74317","0.0-275.0","33FBRBDW6PLDQ8HU5ZAHD8XUV9CC85","A3NRIEMOJVVX4A","31YWE12TE0YV78PCVO9WO2QLDWO7XY","","null","<img src=""img/food2.png"" style=""width:200px;border:14px solid red;"">","null","","","","","","","","","",""
"","image-keyboard-response","186","74468","0.0-276.0","33FBRBDW6PLDQ8HU5ZAHD8XUV9CC85","A3NRIEMOJVVX4A","31YWE12TE0YV78PCVO9WO2QLDWO7XY","","148.59999990463257","img/food1.png","76","150.69999980926514","3","1","","2","1","1,0.5,0,1,0.5,0,0.5,0,1","0.5,0,1,0.5,0,1,0,1,0.5","2",""
"","html-keyboard-response","187","74770","0.0-277.0","33FBRBDW6PLDQ8HU5ZAHD8XUV9CC85","A3NRIEMOJVVX4A","31YWE12TE0YV78PCVO9WO2QLDWO7XY","","null","<img src=""img/food1.png"" style=""width:200px; border:14px solid green;"">","null","","","","","","","","","",""
"","image-keyboard-response","188","74771","0.0-278.0","33FBRBDW6PLDQ8HU5ZAHD8XUV9CC85","A3NRIEMOJVVX4A","31YWE12TE0YV78PCVO9WO2QLDWO7XY","","0.20000004768371582","img/food1.png","76","0.8999998569488525","3","1","","2","1","1,0.5,0,1,0.5,0,0.5,0,1","0.5,0,1,0.5,0,1,0,1,0.5","2",""
"","html-keyboard-response","189","75073","0.0-279.0","33FBRBDW6PLDQ8HU5ZAHD8XUV9CC85","A3NRIEMOJVVX4A","31YWE12TE0YV78PCVO9WO2QLDWO7XY","","null","<img src=""img/food1.png"" style=""width:200px; border:14px solid green;"">","null","","","","","","","","","",""
"","image-keyboard-response","190","75163","0.0-280.0","33FBRBDW6PLDQ8HU5ZAHD8XUV9CC85","A3NRIEMOJVVX4A","31YWE12TE0YV78PCVO9WO2QLDWO7XY","","87.79999995231628","img/food3.png","75","89.20000004768372","2","1","","3","1","1,0.5,0,1,0.5,0,0.5,0,1","0.5,0,1,0.5,0,1,0,1,0.5","2",""
"","html-keyboard-response","191","75465","0.0-281.0","33FBRBDW6PLDQ8HU5ZAHD8XUV9CC85","A3NRIEMOJVVX4A","31YWE12TE0YV78PCVO9WO2QLDWO7XY","","null","<img src=""img/food3.png"" style=""width:200px; border:14px solid green;"">","null","","","","","","","","","",""
"","image-keyboard-response","192","75580","0.0-282.0","33FBRBDW6PLDQ8HU5ZAHD8XUV9CC85","A3NRIEMOJVVX4A","31YWE12TE0YV78PCVO9WO2QLDWO7XY","","112.5","img/food1.png","75","114.90000009536743","2","0","","2","1","1,0.5,0,1,0.5,0,0.5,0,1","0.5,0,1,0.5,0,1,0,1,0.5","2",""
"","html-keyboard-response","193","75884","0.0-283.0","33FBRBDW6PLDQ8HU5ZAHD8XUV9CC85","A3NRIEMOJVVX4A","31YWE12TE0YV78PCVO9WO2QLDWO7XY","","null","<img src=""img/food1.png"" style=""width:200px;border:14px solid red;"">","null","","","","","","","","","",""
"","image-keyboard-response","194","76020","0.0-284.0","33FBRBDW6PLDQ8HU5ZAHD8XUV9CC85","A3NRIEMOJVVX4A","31YWE12TE0YV78PCVO9WO2QLDWO7XY","","133.5","img/food1.png","74","135.19999980926514","1","0","","2","1","1,0.5,0,1,0.5,0,0.5,0,1","0.5,0,1,0.5,0,1,0,1,0.5","2",""
"","html-keyboard-response","195","76323","0.0-285.0","33FBRBDW6PLDQ8HU5ZAHD8XUV9CC85","A3NRIEMOJVVX4A","31YWE12TE0YV78PCVO9WO2QLDWO7XY","","null","<img src=""img/food1.png"" style=""width:200px;border:14px solid red;"">","null","","","","","","","","","",""
"","image-keyboard-response","196","76394","0.0-286.0","33FBRBDW6PLDQ8HU5ZAHD8XUV9CC85","A3NRIEMOJVVX4A","31YWE12TE0YV78PCVO9WO2QLDWO7XY","","69.10000014305115","img/food2.png","75","70.39999985694885","2","0","","1","1","1,0.5,0,1,0.5,0,0.5,0,1","0.5,0,1,0.5,0,1,0,1,0.5","2",""
"","html-keyboard-response","197","76697","0.0-287.0","33FBRBDW6PLDQ8HU5ZAHD8XUV9CC85","A3NRIEMOJVVX4A","31YWE12TE0YV78PCVO9WO2QLDWO7XY","","null","<img src=""img/food2.png"" style=""width:200px;border:14px solid red;"">","null","","","","","","","","","",""
"","image-keyboard-response","198","76755","0.0-288.0","33FBRBDW6PLDQ8HU5ZAHD8XUV9CC85","A3NRIEMOJVVX4A","31YWE12TE0YV78PCVO9WO2QLDWO7XY","","55.5","img/food1.png","74","56.80000019073486","1","1","","2","1","1,0.5,0,1,0.5,0,0.5,0,1","0.5,0,1,0.5,0,1,0,1,0.5","2",""
"","html-keyboard-response","199","77057","0.0-289.0","33FBRBDW6PLDQ8HU5ZAHD8XUV9CC85","A3NRIEMOJVVX4A","31YWE12TE0YV78PCVO9WO2QLDWO7XY","","null","<img src=""img/food1.png"" style=""width:200px; border:14px solid green;"">","null","","","","","","","","","",""
"","image-keyboard-response","200","77188","0.0-290.0","33FBRBDW6PLDQ8HU5ZAHD8XUV9CC85","A3NRIEMOJVVX4A","31YWE12TE0YV78PCVO9WO2QLDWO7XY","","128","img/food1.png","75","130","2","0","","2","1","1,0.5,0,1,0.5,0,0.5,0,1","0.5,0,1,0.5,0,1,0,1,0.5","2",""
"","html-keyboard-response","201","77491","0.0-291.0","33FBRBDW6PLDQ8HU5ZAHD8XUV9CC85","A3NRIEMOJVVX4A","31YWE12TE0YV78PCVO9WO2QLDWO7XY","","null","<img src=""img/food1.png"" style=""width:200px;border:14px solid red;"">","null","","","","","","","","","",""
"","image-keyboard-response","202","77523","0.0-292.0","33FBRBDW6PLDQ8HU5ZAHD8XUV9CC85","A3NRIEMOJVVX4A","31YWE12TE0YV78PCVO9WO2QLDWO7XY","","30.09999990463257","img/food3.png","76","31.299999952316284","3","0","","3","1","1,0.5,0,1,0.5,0,0.5,0,1","0.5,0,1,0.5,0,1,0,1,0.5","2",""
"","html-keyboard-response","203","77824","0.0-293.0","33FBRBDW6PLDQ8HU5ZAHD8XUV9CC85","A3NRIEMOJVVX4A","31YWE12TE0YV78PCVO9WO2QLDWO7XY","","null","<img src=""img/food3.png"" style=""width:200px;border:14px solid red;"">","null","","","","","","","","","",""
"","image-keyboard-response","204","77996","0.0-294.0","33FBRBDW6PLDQ8HU5ZAHD8XUV9CC85","A3NRIEMOJVVX4A","31YWE12TE0YV78PCVO9WO2QLDWO7XY","","169.09999990463257","img/food3.png","74","170.89999985694885","1","0","","3","1","1,0.5,0,1,0.5,0,0.5,0,1","0.5,0,1,0.5,0,1,0,1,0.5","2",""
"","html-keyboard-response","205","78299","0.0-295.0","33FBRBDW6PLDQ8HU5ZAHD8XUV9CC85","A3NRIEMOJVVX4A","31YWE12TE0YV78PCVO9WO2QLDWO7XY","","null","<img src=""img/food3.png"" style=""width:200px;border:14px solid red;"">","null","","","","","","","","","",""
"","image-keyboard-response","206","78412","0.0-296.0","33FBRBDW6PLDQ8HU5ZAHD8XUV9CC85","A3NRIEMOJVVX4A","31YWE12TE0YV78PCVO9WO2QLDWO7XY","","110.59999990463257","img/food2.png","75","112.59999990463257","2","0","","1","1","1,0.5,0,1,0.5,0,0.5,0,1","0.5,0,1,0.5,0,1,0,1,0.5","2",""
"","html-keyboard-response","207","78715","0.0-297.0","33FBRBDW6PLDQ8HU5ZAHD8XUV9CC85","A3NRIEMOJVVX4A","31YWE12TE0YV78PCVO9WO2QLDWO7XY","","null","<img src=""img/food2.png"" style=""width:200px;border:14px solid red;"">","null","","","","","","","","","",""
"","image-keyboard-response","208","78803","0.0-298.0","33FBRBDW6PLDQ8HU5ZAHD8XUV9CC85","A3NRIEMOJVVX4A","31YWE12TE0YV78PCVO9WO2QLDWO7XY","","85.59999990463257","img/food1.png","74","87.09999990463257","1","0","","2","1","1,0.5,0,1,0.5,0,0.5,0,1","0.5,0,1,0.5,0,1,0,1,0.5","2",""
"","html-keyboard-response","209","79105","0.0-299.0","33FBRBDW6PLDQ8HU5ZAHD8XUV9CC85","A3NRIEMOJVVX4A","31YWE12TE0YV78PCVO9WO2QLDWO7XY","","null","<img src=""img/food1.png"" style=""width:200px;border:14px solid red;"">","null","","","","","","","","","",""
"","image-keyboard-response","210","79284","0.0-300.0","33FBRBDW6PLDQ8HU5ZAHD8XUV9CC85","A3NRIEMOJVVX4A","31YWE12TE0YV78PCVO9WO2QLDWO7XY","","176","img/food3.png","76","177.89999985694885","3","1","","3","1","1,0.5,0,1,0.5,0,0.5,0,1","0.5,0,1,0.5,0,1,0,1,0.5","2",""
"","html-keyboard-response","211","79587","0.0-301.0","33FBRBDW6PLDQ8HU5ZAHD8XUV9CC85","A3NRIEMOJVVX4A","31YWE12TE0YV78PCVO9WO2QLDWO7XY","","null","<img src=""img/food3.png"" style=""width:200px; border:14px solid green;"">","null","","","","","","","","","",""
"","image-keyboard-response","212","79620","0.0-302.0","33FBRBDW6PLDQ8HU5ZAHD8XUV9CC85","A3NRIEMOJVVX4A","31YWE12TE0YV78PCVO9WO2QLDWO7XY","","30.799999952316284","img/food1.png","74","32.60000014305115","1","1","","2","1","1,0.5,0,1,0.5,0,0.5,0,1","0.5,0,1,0.5,0,1,0,1,0.5","2",""
"","html-keyboard-response","213","79923","0.0-303.0","33FBRBDW6PLDQ8HU5ZAHD8XUV9CC85","A3NRIEMOJVVX4A","31YWE12TE0YV78PCVO9WO2QLDWO7XY","","null","<img src=""img/food1.png"" style=""width:200px; border:14px solid green;"">","null","","","","","","","","","",""
"","image-keyboard-response","214","80012","0.0-304.0","33FBRBDW6PLDQ8HU5ZAHD8XUV9CC85","A3NRIEMOJVVX4A","31YWE12TE0YV78PCVO9WO2QLDWO7XY","","88","img/food3.png","75","89","2","1","","3","1","1,0.5,0,1,0.5,0,0.5,0,1","0.5,0,1,0.5,0,1,0,1,0.5","2",""
"","html-keyboard-response","215","80314","0.0-305.0","33FBRBDW6PLDQ8HU5ZAHD8XUV9CC85","A3NRIEMOJVVX4A","31YWE12TE0YV78PCVO9WO2QLDWO7XY","","null","<img src=""img/food3.png"" style=""width:200px; border:14px solid green;"">","null","","","","","","","","","",""
"","image-keyboard-response","216","80387","0.0-306.0","33FBRBDW6PLDQ8HU5ZAHD8XUV9CC85","A3NRIEMOJVVX4A","31YWE12TE0YV78PCVO9WO2QLDWO7XY","","70.59999990463257","img/food1.png","75","72.20000004768372","2","0","","2","1","1,0.5,0,1,0.5,0,0.5,0,1","0.5,0,1,0.5,0,1,0,1,0.5","2",""
"","html-keyboard-response","217","80689","0.0-307.0","33FBRBDW6PLDQ8HU5ZAHD8XUV9CC85","A3NRIEMOJVVX4A","31YWE12TE0YV78PCVO9WO2QLDWO7XY","","null","<img src=""img/food1.png"" style=""width:200px;border:14px solid red;"">","null","","","","","","","","","",""
"","image-keyboard-response","218","81042","0.0-308.0","33FBRBDW6PLDQ8HU5ZAHD8XUV9CC85","A3NRIEMOJVVX4A","31YWE12TE0YV78PCVO9WO2QLDWO7XY","","351.7000000476837","img/food3.png","76","352.89999985694885","3","1","","3","1","1,0.5,0,1,0.5,0,0.5,0,1","0.5,0,1,0.5,0,1,0,1,0.5","2",""
"","html-keyboard-response","219","81345","0.0-309.0","33FBRBDW6PLDQ8HU5ZAHD8XUV9CC85","A3NRIEMOJVVX4A","31YWE12TE0YV78PCVO9WO2QLDWO7XY","","null","<img src=""img/food3.png"" style=""width:200px; border:14px solid green;"">","null","","","","","","","","","",""
"","image-keyboard-response","220","81460","0.0-310.0","33FBRBDW6PLDQ8HU5ZAHD8XUV9CC85","A3NRIEMOJVVX4A","31YWE12TE0YV78PCVO9WO2QLDWO7XY","","112.5","img/food2.png","74","114.29999995231628","1","1","","1","1","1,0.5,0,1,0.5,0,0.5,0,1","0.5,0,1,0.5,0,1,0,1,0.5","2",""
"","html-keyboard-response","221","81762","0.0-311.0","33FBRBDW6PLDQ8HU5ZAHD8XUV9CC85","A3NRIEMOJVVX4A","31YWE12TE0YV78PCVO9WO2QLDWO7XY","","null","<img src=""img/food2.png"" style=""width:200px; border:14px solid green;"">","null","","","","","","","","","",""
"","image-keyboard-response","222","81843","0.0-312.0","33FBRBDW6PLDQ8HU5ZAHD8XUV9CC85","A3NRIEMOJVVX4A","31YWE12TE0YV78PCVO9WO2QLDWO7XY","","79","img/food1.png","76","80.29999995231628","3","1","","2","1","1,0.5,0,1,0.5,0,0.5,0,1","0.5,0,1,0.5,0,1,0,1,0.5","2",""
"","html-keyboard-response","223","82146","0.0-313.0","33FBRBDW6PLDQ8HU5ZAHD8XUV9CC85","A3NRIEMOJVVX4A","31YWE12TE0YV78PCVO9WO2QLDWO7XY","","null","<img src=""img/food1.png"" style=""width:200px; border:14px solid green;"">","null","","","","","","","","","",""
"","image-keyboard-response","224","82275","0.0-314.0","33FBRBDW6PLDQ8HU5ZAHD8XUV9CC85","A3NRIEMOJVVX4A","31YWE12TE0YV78PCVO9WO2QLDWO7XY","","128.20000004768372","img/food2.png","76","129.09999990463257","3","1","","1","1","1,0.5,0,1,0.5,0,0.5,0,1","0.5,0,1,0.5,0,1,0,1,0.5","2",""
"","html-keyboard-response","225","82578","0.0-315.0","33FBRBDW6PLDQ8HU5ZAHD8XUV9CC85","A3NRIEMOJVVX4A","31YWE12TE0YV78PCVO9WO2QLDWO7XY","","null","<img src=""img/food2.png"" style=""width:200px; border:14px solid green;"">","null","","","","","","","","","",""
"","image-keyboard-response","226","82676","0.0-316.0","33FBRBDW6PLDQ8HU5ZAHD8XUV9CC85","A3NRIEMOJVVX4A","31YWE12TE0YV78PCVO9WO2QLDWO7XY","","96.60000014305115","img/food2.png","75","98.5","2","0","","1","1","1,0.5,0,1,0.5,0,0.5,0,1","0.5,0,1,0.5,0,1,0,1,0.5","2",""
"","html-keyboard-response","227","82980","0.0-317.0","33FBRBDW6PLDQ8HU5ZAHD8XUV9CC85","A3NRIEMOJVVX4A","31YWE12TE0YV78PCVO9WO2QLDWO7XY","","null","<img src=""img/food2.png"" style=""width:200px;border:14px solid red;"">","null","","","","","","","","","",""
"","image-keyboard-response","228","83092","0.0-318.0","33FBRBDW6PLDQ8HU5ZAHD8XUV9CC85","A3NRIEMOJVVX4A","31YWE12TE0YV78PCVO9WO2QLDWO7XY","","109.10000014305115","img/food3.png","75","111","2","1","","3","1","1,0.5,0,1,0.5,0,0.5,0,1","0.5,0,1,0.5,0,1,0,1,0.5","2",""
"","html-keyboard-response","229","83395","0.0-319.0","33FBRBDW6PLDQ8HU5ZAHD8XUV9CC85","A3NRIEMOJVVX4A","31YWE12TE0YV78PCVO9WO2QLDWO7XY","","null","<img src=""img/food3.png"" style=""width:200px; border:14px solid green;"">","null","","","","","","","","","",""
"","image-keyboard-response","230","83555","0.0-320.0","33FBRBDW6PLDQ8HU5ZAHD8XUV9CC85","A3NRIEMOJVVX4A","31YWE12TE0YV78PCVO9WO2QLDWO7XY","","158.5","img/food3.png","76","159.89999985694885","3","1","","3","1","1,0.5,0,1,0.5,0,0.5,0,1","0.5,0,1,0.5,0,1,0,1,0.5","2",""
"","html-keyboard-response","231","83857","0.0-321.0","33FBRBDW6PLDQ8HU5ZAHD8XUV9CC85","A3NRIEMOJVVX4A","31YWE12TE0YV78PCVO9WO2QLDWO7XY","","null","<img src=""img/food3.png"" style=""width:200px; border:14px solid green;"">","null","","","","","","","","","",""
"","image-keyboard-response","232","83924","0.0-322.0","33FBRBDW6PLDQ8HU5ZAHD8XUV9CC85","A3NRIEMOJVVX4A","31YWE12TE0YV78PCVO9WO2QLDWO7XY","","63.700000047683716","img/food2.png","75","65.60000014305115","2","0","","1","1","1,0.5,0,1,0.5,0,0.5,0,1","0.5,0,1,0.5,0,1,0,1,0.5","2",""
"","html-keyboard-response","233","84227","0.0-323.0","33FBRBDW6PLDQ8HU5ZAHD8XUV9CC85","A3NRIEMOJVVX4A","31YWE12TE0YV78PCVO9WO2QLDWO7XY","","null","<img src=""img/food2.png"" style=""width:200px;border:14px solid red;"">","null","","","","","","","","","",""
"","image-keyboard-response","234","84331","0.0-324.0","33FBRBDW6PLDQ8HU5ZAHD8XUV9CC85","A3NRIEMOJVVX4A","31YWE12TE0YV78PCVO9WO2QLDWO7XY","","102","img/food3.png","74","103.30000019073486","1","0","","3","1","1,0.5,0,1,0.5,0,0.5,0,1","0.5,0,1,0.5,0,1,0,1,0.5","2",""
"","html-keyboard-response","235","84634","0.0-325.0","33FBRBDW6PLDQ8HU5ZAHD8XUV9CC85","A3NRIEMOJVVX4A","31YWE12TE0YV78PCVO9WO2QLDWO7XY","","null","<img src=""img/food3.png"" style=""width:200px;border:14px solid red;"">","null","","","","","","","","","",""
"","image-keyboard-response","236","84820","0.0-326.0","33FBRBDW6PLDQ8HU5ZAHD8XUV9CC85","A3NRIEMOJVVX4A","31YWE12TE0YV78PCVO9WO2QLDWO7XY","","183.39999985694885","img/food3.png","76","185.29999995231628","3","1","","3","1","1,0.5,0,1,0.5,0,0.5,0,1","0.5,0,1,0.5,0,1,0,1,0.5","2",""
"","html-keyboard-response","237","85123","0.0-327.0","33FBRBDW6PLDQ8HU5ZAHD8XUV9CC85","A3NRIEMOJVVX4A","31YWE12TE0YV78PCVO9WO2QLDWO7XY","","null","<img src=""img/food3.png"" style=""width:200px; border:14px solid green;"">","null","","","","","","","","","",""
"","image-keyboard-response","238","85252","0.0-328.0","33FBRBDW6PLDQ8HU5ZAHD8XUV9CC85","A3NRIEMOJVVX4A","31YWE12TE0YV78PCVO9WO2QLDWO7XY","","125.79999995231628","img/food1.png","75","127.69999980926514","2","0","","2","1","1,0.5,0,1,0.5,0,0.5,0,1","0.5,0,1,0.5,0,1,0,1,0.5","2",""
"","html-keyboard-response","239","85554","0.0-329.0","33FBRBDW6PLDQ8HU5ZAHD8XUV9CC85","A3NRIEMOJVVX4A","31YWE12TE0YV78PCVO9WO2QLDWO7XY","","null","<img src=""img/food1.png"" style=""width:200px;border:14px solid red;"">","null","","","","","","","","","",""
"","image-keyboard-response","240","85692","0.0-330.0","33FBRBDW6PLDQ8HU5ZAHD8XUV9CC85","A3NRIEMOJVVX4A","31YWE12TE0YV78PCVO9WO2QLDWO7XY","","136","img/food1.png","74","137.29999995231628","1","1","","2","1","1,0.5,0,1,0.5,0,0.5,0,1","0.5,0,1,0.5,0,1,0,1,0.5","2",""
"","html-keyboard-response","241","85995","0.0-331.0","33FBRBDW6PLDQ8HU5ZAHD8XUV9CC85","A3NRIEMOJVVX4A","31YWE12TE0YV78PCVO9WO2QLDWO7XY","","null","<img src=""img/food1.png"" style=""width:200px; border:14px solid green;"">","null","","","","","","","","","",""
"","image-keyboard-response","242","86068","0.0-332.0","33FBRBDW6PLDQ8HU5ZAHD8XUV9CC85","A3NRIEMOJVVX4A","31YWE12TE0YV78PCVO9WO2QLDWO7XY","","70.5","img/food1.png","76","72.5","3","1","","2","1","1,0.5,0,1,0.5,0,0.5,0,1","0.5,0,1,0.5,0,1,0,1,0.5","2",""
"","html-keyboard-response","243","86372","0.0-333.0","33FBRBDW6PLDQ8HU5ZAHD8XUV9CC85","A3NRIEMOJVVX4A","31YWE12TE0YV78PCVO9WO2QLDWO7XY","","null","<img src=""img/food1.png"" style=""width:200px; border:14px solid green;"">","null","","","","","","","","","",""
"","image-keyboard-response","244","86468","0.0-334.0","33FBRBDW6PLDQ8HU5ZAHD8XUV9CC85","A3NRIEMOJVVX4A","31YWE12TE0YV78PCVO9WO2QLDWO7XY","","93.70000004768372","img/food2.png","75","95.5","2","0","","1","1","1,0.5,0,1,0.5,0,0.5,0,1","0.5,0,1,0.5,0,1,0,1,0.5","2",""
"","html-keyboard-response","245","86771","0.0-335.0","33FBRBDW6PLDQ8HU5ZAHD8XUV9CC85","A3NRIEMOJVVX4A","31YWE12TE0YV78PCVO9WO2QLDWO7XY","","null","<img src=""img/food2.png"" style=""width:200px;border:14px solid red;"">","null","","","","","","","","","",""
"","image-keyboard-response","246","86876","0.0-336.0","33FBRBDW6PLDQ8HU5ZAHD8XUV9CC85","A3NRIEMOJVVX4A","31YWE12TE0YV78PCVO9WO2QLDWO7XY","","102.69999980926514","img/food2.png","75","104.90000009536743","2","0","","1","1","1,0.5,0,1,0.5,0,0.5,0,1","0.5,0,1,0.5,0,1,0,1,0.5","2",""
"","html-keyboard-response","247","87179","0.0-337.0","33FBRBDW6PLDQ8HU5ZAHD8XUV9CC85","A3NRIEMOJVVX4A","31YWE12TE0YV78PCVO9WO2QLDWO7XY","","null","<img src=""img/food2.png"" style=""width:200px;border:14px solid red;"">","null","","","","","","","","","",""
"","image-keyboard-response","248","87340","0.0-338.0","33FBRBDW6PLDQ8HU5ZAHD8XUV9CC85","A3NRIEMOJVVX4A","31YWE12TE0YV78PCVO9WO2QLDWO7XY","","158.79999995231628","img/food1.png","76","160.5","3","1","","2","1","1,0.5,0,1,0.5,0,0.5,0,1","0.5,0,1,0.5,0,1,0,1,0.5","2",""
"","html-keyboard-response","249","87642","0.0-339.0","33FBRBDW6PLDQ8HU5ZAHD8XUV9CC85","A3NRIEMOJVVX4A","31YWE12TE0YV78PCVO9WO2QLDWO7XY","","null","<img src=""img/food1.png"" style=""width:200px; border:14px solid green;"">","null","","","","","","","","","",""
"","image-keyboard-response","250","87795","0.0-340.0","33FBRBDW6PLDQ8HU5ZAHD8XUV9CC85","A3NRIEMOJVVX4A","31YWE12TE0YV78PCVO9WO2QLDWO7XY","","151.59999990463257","img/food2.png","74","153.10000014305115","1","1","","1","1","1,0.5,0,1,0.5,0,0.5,0,1","0.5,0,1,0.5,0,1,0,1,0.5","2",""
"","html-keyboard-response","251","88098","0.0-341.0","33FBRBDW6PLDQ8HU5ZAHD8XUV9CC85","A3NRIEMOJVVX4A","31YWE12TE0YV78PCVO9WO2QLDWO7XY","","null","<img src=""img/food2.png"" style=""width:200px; border:14px solid green;"">","null","","","","","","","","","",""
"","image-keyboard-response","252","88236","0.0-342.0","33FBRBDW6PLDQ8HU5ZAHD8XUV9CC85","A3NRIEMOJVVX4A","31YWE12TE0YV78PCVO9WO2QLDWO7XY","","135.5","img/food2.png","75","137.40000009536743","2","0","","1","1","1,0.5,0,1,0.5,0,0.5,0,1","0.5,0,1,0.5,0,1,0,1,0.5","2",""
"","html-keyboard-response","253","88538","0.0-343.0","33FBRBDW6PLDQ8HU5ZAHD8XUV9CC85","A3NRIEMOJVVX4A","31YWE12TE0YV78PCVO9WO2QLDWO7XY","","null","<img src=""img/food2.png"" style=""width:200px;border:14px solid red;"">","null","","","","","","","","","",""
"","image-keyboard-response","254","88542","0.0-344.0","33FBRBDW6PLDQ8HU5ZAHD8XUV9CC85","A3NRIEMOJVVX4A","31YWE12TE0YV78PCVO9WO2QLDWO7XY","","0.7999999523162842","img/food1.png","75","2.5","2","0","","2","1","1,0.5,0,1,0.5,0,0.5,0,1","0.5,0,1,0.5,0,1,0,1,0.5","2",""
"","html-keyboard-response","255","88845","0.0-345.0","33FBRBDW6PLDQ8HU5ZAHD8XUV9CC85","A3NRIEMOJVVX4A","31YWE12TE0YV78PCVO9WO2QLDWO7XY","","null","<img src=""img/food1.png"" style=""width:200px;border:14px solid red;"">","null","","","","","","","","","",""
"","image-keyboard-response","256","88906","0.0-346.0","33FBRBDW6PLDQ8HU5ZAHD8XUV9CC85","A3NRIEMOJVVX4A","31YWE12TE0YV78PCVO9WO2QLDWO7XY","","59","img/food1.png","75","60.299999952316284","2","0","","2","1","1,0.5,0,1,0.5,0,0.5,0,1","0.5,0,1,0.5,0,1,0,1,0.5","2",""
"","html-keyboard-response","257","89209","0.0-347.0","33FBRBDW6PLDQ8HU5ZAHD8XUV9CC85","A3NRIEMOJVVX4A","31YWE12TE0YV78PCVO9WO2QLDWO7XY","","null","<img src=""img/food1.png"" style=""width:200px;border:14px solid red;"">","null","","","","","","","","","",""
"","image-keyboard-response","258","89292","0.0-348.0","33FBRBDW6PLDQ8HU5ZAHD8XUV9CC85","A3NRIEMOJVVX4A","31YWE12TE0YV78PCVO9WO2QLDWO7XY","","80.19999980926514","img/food2.png","76","82","3","1","","1","1","1,0.5,0,1,0.5,0,0.5,0,1","0.5,0,1,0.5,0,1,0,1,0.5","2",""
"","html-keyboard-response","259","89601","0.0-349.0","33FBRBDW6PLDQ8HU5ZAHD8XUV9CC85","A3NRIEMOJVVX4A","31YWE12TE0YV78PCVO9WO2QLDWO7XY","","null","<img src=""img/food2.png"" style=""width:200px; border:14px solid green;"">","null","","","","","","","","","",""
"","image-keyboard-response","260","89796","0.0-350.0","33FBRBDW6PLDQ8HU5ZAHD8XUV9CC85","A3NRIEMOJVVX4A","31YWE12TE0YV78PCVO9WO2QLDWO7XY","","192.5","img/food2.png","75","194.20000004768372","2","0","","1","1","1,0.5,0,1,0.5,0,0.5,0,1","0.5,0,1,0.5,0,1,0,1,0.5","2",""
"","html-keyboard-response","261","90099","0.0-351.0","33FBRBDW6PLDQ8HU5ZAHD8XUV9CC85","A3NRIEMOJVVX4A","31YWE12TE0YV78PCVO9WO2QLDWO7XY","","null","<img src=""img/food2.png"" style=""width:200px;border:14px solid red;"">","null","","","","","","","","","",""
"","image-keyboard-response","262","90228","0.0-352.0","33FBRBDW6PLDQ8HU5ZAHD8XUV9CC85","A3NRIEMOJVVX4A","31YWE12TE0YV78PCVO9WO2QLDWO7XY","","125.70000004768372","img/food2.png","74","127.5","1","0","","1","1","1,0.5,0,1,0.5,0,0.5,0,1","0.5,0,1,0.5,0,1,0,1,0.5","2",""
"","html-keyboard-response","263","90531","0.0-353.0","33FBRBDW6PLDQ8HU5ZAHD8XUV9CC85","A3NRIEMOJVVX4A","31YWE12TE0YV78PCVO9WO2QLDWO7XY","","null","<img src=""img/food2.png"" style=""width:200px;border:14px solid red;"">","null","","","","","","","","","",""
"","image-keyboard-response","264","90571","0.0-354.0","33FBRBDW6PLDQ8HU5ZAHD8XUV9CC85","A3NRIEMOJVVX4A","31YWE12TE0YV78PCVO9WO2QLDWO7XY","","37.59999990463257","img/food1.png","74","39","1","0","","2","1","1,0.5,0,1,0.5,0,0.5,0,1","0.5,0,1,0.5,0,1,0,1,0.5","2",""
"","html-keyboard-response","265","90873","0.0-355.0","33FBRBDW6PLDQ8HU5ZAHD8XUV9CC85","A3NRIEMOJVVX4A","31YWE12TE0YV78PCVO9WO2QLDWO7XY","","null","<img src=""img/food1.png"" style=""width:200px;border:14px solid red;"">","null","","","","","","","","","",""
"","image-keyboard-response","266","90932","0.0-356.0","33FBRBDW6PLDQ8HU5ZAHD8XUV9CC85","A3NRIEMOJVVX4A","31YWE12TE0YV78PCVO9WO2QLDWO7XY","","56.40000009536743","img/food1.png","75","58","2","0","","2","1","1,0.5,0,1,0.5,0,0.5,0,1","0.5,0,1,0.5,0,1,0,1,0.5","2",""
"","html-keyboard-response","267","91234","0.0-357.0","33FBRBDW6PLDQ8HU5ZAHD8XUV9CC85","A3NRIEMOJVVX4A","31YWE12TE0YV78PCVO9WO2QLDWO7XY","","null","<img src=""img/food1.png"" style=""width:200px;border:14px solid red;"">","null","","","","","","","","","",""
"","image-keyboard-response","268","91372","0.0-358.0","33FBRBDW6PLDQ8HU5ZAHD8XUV9CC85","A3NRIEMOJVVX4A","31YWE12TE0YV78PCVO9WO2QLDWO7XY","","136.20000004768372","img/food3.png","75","137.40000009536743","2","1","","3","1","1,0.5,0,1,0.5,0,0.5,0,1","0.5,0,1,0.5,0,1,0,1,0.5","2",""
"","html-keyboard-response","269","91675","0.0-359.0","33FBRBDW6PLDQ8HU5ZAHD8XUV9CC85","A3NRIEMOJVVX4A","31YWE12TE0YV78PCVO9WO2QLDWO7XY","","null","<img src=""img/food3.png"" style=""width:200px; border:14px solid green;"">","null","","","","","","","","","",""
"","image-keyboard-response","270","91780","0.0-360.0","33FBRBDW6PLDQ8HU5ZAHD8XUV9CC85","A3NRIEMOJVVX4A","31YWE12TE0YV78PCVO9WO2QLDWO7XY","","102.59999990463257","img/food2.png","75","104.30000019073486","2","0","","1","1","1,0.5,0,1,0.5,0,0.5,0,1","0.5,0,1,0.5,0,1,0,1,0.5","2",""
"","html-keyboard-response","271","92083","0.0-361.0","33FBRBDW6PLDQ8HU5ZAHD8XUV9CC85","A3NRIEMOJVVX4A","31YWE12TE0YV78PCVO9WO2QLDWO7XY","","null","<img src=""img/food2.png"" style=""width:200px;border:14px solid red;"">","null","","","","","","","","","",""
"","image-keyboard-response","272","92212","0.0-362.0","33FBRBDW6PLDQ8HU5ZAHD8XUV9CC85","A3NRIEMOJVVX4A","31YWE12TE0YV78PCVO9WO2QLDWO7XY","","126.59999990463257","img/food2.png","75","128.5","2","0","","1","1","1,0.5,0,1,0.5,0,0.5,0,1","0.5,0,1,0.5,0,1,0,1,0.5","2",""
"","html-keyboard-response","273","92514","0.0-363.0","33FBRBDW6PLDQ8HU5ZAHD8XUV9CC85","A3NRIEMOJVVX4A","31YWE12TE0YV78PCVO9WO2QLDWO7XY","","null","<img src=""img/food2.png"" style=""width:200px;border:14px solid red;"">","null","","","","","","","","","",""
"","image-keyboard-response","274","92620","0.0-364.0","33FBRBDW6PLDQ8HU5ZAHD8XUV9CC85","A3NRIEMOJVVX4A","31YWE12TE0YV78PCVO9WO2QLDWO7XY","","103.5","img/food2.png","74","105.10000014305115","1","1","","1","1","1,0.5,0,1,0.5,0,0.5,0,1","0.5,0,1,0.5,0,1,0,1,0.5","2",""
"","html-keyboard-response","275","92922","0.0-365.0","33FBRBDW6PLDQ8HU5ZAHD8XUV9CC85","A3NRIEMOJVVX4A","31YWE12TE0YV78PCVO9WO2QLDWO7XY","","null","<img src=""img/food2.png"" style=""width:200px; border:14px solid green;"">","null","","","","","","","","","",""
"","image-keyboard-response","276","93028","0.0-366.0","33FBRBDW6PLDQ8HU5ZAHD8XUV9CC85","A3NRIEMOJVVX4A","31YWE12TE0YV78PCVO9WO2QLDWO7XY","","104.20000004768372","img/food1.png","75","105.39999985694885","2","0","","2","1","1,0.5,0,1,0.5,0,0.5,0,1","0.5,0,1,0.5,0,1,0,1,0.5","2",""
"","html-keyboard-response","277","93330","0.0-367.0","33FBRBDW6PLDQ8HU5ZAHD8XUV9CC85","A3NRIEMOJVVX4A","31YWE12TE0YV78PCVO9WO2QLDWO7XY","","null","<img src=""img/food1.png"" style=""width:200px;border:14px solid red;"">","null","","","","","","","","","",""
"","image-keyboard-response","278","93468","0.0-368.0","33FBRBDW6PLDQ8HU5ZAHD8XUV9CC85","A3NRIEMOJVVX4A","31YWE12TE0YV78PCVO9WO2QLDWO7XY","","134.90000009536743","img/food2.png","75","136.70000004768372","2","0","","1","1","1,0.5,0,1,0.5,0,0.5,0,1","0.5,0,1,0.5,0,1,0,1,0.5","2",""
"","html-keyboard-response","279","93776","0.0-369.0","33FBRBDW6PLDQ8HU5ZAHD8XUV9CC85","A3NRIEMOJVVX4A","31YWE12TE0YV78PCVO9WO2QLDWO7XY","","null","<img src=""img/food2.png"" style=""width:200px;border:14px solid red;"">","null","","","","","","","","","",""
"","image-keyboard-response","280","93916","0.0-370.0","33FBRBDW6PLDQ8HU5ZAHD8XUV9CC85","A3NRIEMOJVVX4A","31YWE12TE0YV78PCVO9WO2QLDWO7XY","","137.40000009536743","img/food2.png","76","139.20000004768372","3","1","","1","1","1,0.5,0,1,0.5,0,0.5,0,1","0.5,0,1,0.5,0,1,0,1,0.5","2",""
"","html-keyboard-response","281","94218","0.0-371.0","33FBRBDW6PLDQ8HU5ZAHD8XUV9CC85","A3NRIEMOJVVX4A","31YWE12TE0YV78PCVO9WO2QLDWO7XY","","null","<img src=""img/food2.png"" style=""width:200px; border:14px solid green;"">","null","","","","","","","","","",""
"","image-keyboard-response","282","94356","0.0-372.0","33FBRBDW6PLDQ8HU5ZAHD8XUV9CC85","A3NRIEMOJVVX4A","31YWE12TE0YV78PCVO9WO2QLDWO7XY","","136","img/food2.png","75","137.29999995231628","2","0","","1","1","1,0.5,0,1,0.5,0,0.5,0,1","0.5,0,1,0.5,0,1,0,1,0.5","2",""
"","html-keyboard-response","283","94660","0.0-373.0","33FBRBDW6PLDQ8HU5ZAHD8XUV9CC85","A3NRIEMOJVVX4A","31YWE12TE0YV78PCVO9WO2QLDWO7XY","","null","<img src=""img/food2.png"" style=""width:200px;border:14px solid red;"">","null","","","","","","","","","",""
"","image-keyboard-response","284","94772","0.0-374.0","33FBRBDW6PLDQ8HU5ZAHD8XUV9CC85","A3NRIEMOJVVX4A","31YWE12TE0YV78PCVO9WO2QLDWO7XY","","109.60000014305115","img/food3.png","75","111.40000009536743","2","1","","3","1","1,0.5,0,1,0.5,0,0.5,0,1","0.5,0,1,0.5,0,1,0,1,0.5","2",""
"","html-keyboard-response","285","95074","0.0-375.0","33FBRBDW6PLDQ8HU5ZAHD8XUV9CC85","A3NRIEMOJVVX4A","31YWE12TE0YV78PCVO9WO2QLDWO7XY","","null","<img src=""img/food3.png"" style=""width:200px; border:14px solid green;"">","null","","","","","","","","","",""
"","image-keyboard-response","286","95220","0.0-376.0","33FBRBDW6PLDQ8HU5ZAHD8XUV9CC85","A3NRIEMOJVVX4A","31YWE12TE0YV78PCVO9WO2QLDWO7XY","","143.70000004768372","img/food2.png","74","145.59999990463257","1","1","","1","1","1,0.5,0,1,0.5,0,0.5,0,1","0.5,0,1,0.5,0,1,0,1,0.5","2",""
"","html-keyboard-response","287","95523","0.0-377.0","33FBRBDW6PLDQ8HU5ZAHD8XUV9CC85","A3NRIEMOJVVX4A","31YWE12TE0YV78PCVO9WO2QLDWO7XY","","null","<img src=""img/food2.png"" style=""width:200px; border:14px solid green;"">","null","","","","","","","","","",""
"","image-keyboard-response","288","95643","0.0-378.0","33FBRBDW6PLDQ8HU5ZAHD8XUV9CC85","A3NRIEMOJVVX4A","31YWE12TE0YV78PCVO9WO2QLDWO7XY","","118.39999985694885","img/food2.png","75","119.29999995231628","2","0","","1","1","1,0.5,0,1,0.5,0,0.5,0,1","0.5,0,1,0.5,0,1,0,1,0.5","2",""
"","html-keyboard-response","289","95945","0.0-379.0","33FBRBDW6PLDQ8HU5ZAHD8XUV9CC85","A3NRIEMOJVVX4A","31YWE12TE0YV78PCVO9WO2QLDWO7XY","","null","<img src=""img/food2.png"" style=""width:200px;border:14px solid red;"">","null","","","","","","","","","",""
"","image-keyboard-response","290","96068","0.0-380.0","33FBRBDW6PLDQ8HU5ZAHD8XUV9CC85","A3NRIEMOJVVX4A","31YWE12TE0YV78PCVO9WO2QLDWO7XY","","120.20000004768372","img/food1.png","75","122","2","0","","2","1","1,0.5,0,1,0.5,0,0.5,0,1","0.5,0,1,0.5,0,1,0,1,0.5","2",""
"","html-keyboard-response","291","96371","0.0-381.0","33FBRBDW6PLDQ8HU5ZAHD8XUV9CC85","A3NRIEMOJVVX4A","31YWE12TE0YV78PCVO9WO2QLDWO7XY","","null","<img src=""img/food1.png"" style=""width:200px;border:14px solid red;"">","null","","","","","","","","","",""
"","image-keyboard-response","292","96516","0.0-382.0","33FBRBDW6PLDQ8HU5ZAHD8XUV9CC85","A3NRIEMOJVVX4A","31YWE12TE0YV78PCVO9WO2QLDWO7XY","","141.5","img/food3.png","75","143.59999990463257","2","1","","3","1","1,0.5,0,1,0.5,0,0.5,0,1","0.5,0,1,0.5,0,1,0,1,0.5","2",""
"","html-keyboard-response","293","96819","0.0-383.0","33FBRBDW6PLDQ8HU5ZAHD8XUV9CC85","A3NRIEMOJVVX4A","31YWE12TE0YV78PCVO9WO2QLDWO7XY","","null","<img src=""img/food3.png"" style=""width:200px; border:14px solid green;"">","null","","","","","","","","","",""
"","image-keyboard-response","294","96924","0.0-384.0","33FBRBDW6PLDQ8HU5ZAHD8XUV9CC85","A3NRIEMOJVVX4A","31YWE12TE0YV78PCVO9WO2QLDWO7XY","","103","img/food2.png","76","105.09999990463257","3","1","","1","1","1,0.5,0,1,0.5,0,0.5,0,1","0.5,0,1,0.5,0,1,0,1,0.5","2",""
"","html-keyboard-response","295","97228","0.0-385.0","33FBRBDW6PLDQ8HU5ZAHD8XUV9CC85","A3NRIEMOJVVX4A","31YWE12TE0YV78PCVO9WO2QLDWO7XY","","null","<img src=""img/food2.png"" style=""width:200px; border:14px solid green;"">","null","","","","","","","","","",""
"","image-keyboard-response","296","97372","0.0-386.0","33FBRBDW6PLDQ8HU5ZAHD8XUV9CC85","A3NRIEMOJVVX4A","31YWE12TE0YV78PCVO9WO2QLDWO7XY","","141.90000009536743","img/food3.png","76","143.69999980926514","3","1","","3","1","1,0.5,0,1,0.5,0,0.5,0,1","0.5,0,1,0.5,0,1,0,1,0.5","2",""
"","html-keyboard-response","297","97675","0.0-387.0","33FBRBDW6PLDQ8HU5ZAHD8XUV9CC85","A3NRIEMOJVVX4A","31YWE12TE0YV78PCVO9WO2QLDWO7XY","","null","<img src=""img/food3.png"" style=""width:200px; border:14px solid green;"">","null","","","","","","","","","",""
"","image-keyboard-response","298","97811","0.0-388.0","33FBRBDW6PLDQ8HU5ZAHD8XUV9CC85","A3NRIEMOJVVX4A","31YWE12TE0YV78PCVO9WO2QLDWO7XY","","133.69999980926514","img/food2.png","76","134.90000009536743","3","1","","1","1","1,0.5,0,1,0.5,0,0.5,0,1","0.5,0,1,0.5,0,1,0,1,0.5","2",""
"","html-keyboard-response","299","98113","0.0-389.0","33FBRBDW6PLDQ8HU5ZAHD8XUV9CC85","A3NRIEMOJVVX4A","31YWE12TE0YV78PCVO9WO2QLDWO7XY","","null","<img src=""img/food2.png"" style=""width:200px; border:14px solid green;"">","null","","","","","","","","","",""
"","image-keyboard-response","300","98236","0.0-390.0","33FBRBDW6PLDQ8HU5ZAHD8XUV9CC85","A3NRIEMOJVVX4A","31YWE12TE0YV78PCVO9WO2QLDWO7XY","","119.79999995231628","img/food1.png","75","121.79999995231628","2","0","","2","1","1,0.5,0,1,0.5,0,0.5,0,1","0.5,0,1,0.5,0,1,0,1,0.5","2",""
"","html-keyboard-response","301","98539","0.0-391.0","33FBRBDW6PLDQ8HU5ZAHD8XUV9CC85","A3NRIEMOJVVX4A","31YWE12TE0YV78PCVO9WO2QLDWO7XY","","null","<img src=""img/food1.png"" style=""width:200px;border:14px solid red;"">","null","","","","","","","","","",""
"","image-keyboard-response","302","98700","0.0-392.0","33FBRBDW6PLDQ8HU5ZAHD8XUV9CC85","A3NRIEMOJVVX4A","31YWE12TE0YV78PCVO9WO2QLDWO7XY","","158.39999985694885","img/food2.png","75","160.39999985694885","2","0","","1","1","1,0.5,0,1,0.5,0,0.5,0,1","0.5,0,1,0.5,0,1,0,1,0.5","2",""
"","html-keyboard-response","303","99003","0.0-393.0","33FBRBDW6PLDQ8HU5ZAHD8XUV9CC85","A3NRIEMOJVVX4A","31YWE12TE0YV78PCVO9WO2QLDWO7XY","","null","<img src=""img/food2.png"" style=""width:200px;border:14px solid red;"">","null","","","","","","","","","",""
"","image-keyboard-response","304","99035","0.0-394.0","33FBRBDW6PLDQ8HU5ZAHD8XUV9CC85","A3NRIEMOJVVX4A","31YWE12TE0YV78PCVO9WO2QLDWO7XY","","30","img/food3.png","75","31.700000047683716","2","1","","3","1","1,0.5,0,1,0.5,0,0.5,0,1","0.5,0,1,0.5,0,1,0,1,0.5","2",""
"","html-keyboard-response","305","99338","0.0-395.0","33FBRBDW6PLDQ8HU5ZAHD8XUV9CC85","A3NRIEMOJVVX4A","31YWE12TE0YV78PCVO9WO2QLDWO7XY","","null","<img src=""img/food3.png"" style=""width:200px; border:14px solid green;"">","null","","","","","","","","","",""
"","image-keyboard-response","306","99452","0.0-396.0","33FBRBDW6PLDQ8HU5ZAHD8XUV9CC85","A3NRIEMOJVVX4A","31YWE12TE0YV78PCVO9WO2QLDWO7XY","","109.29999995231628","img/food1.png","74","111.20000004768372","1","0","","2","1","1,0.5,0,1,0.5,0,0.5,0,1","0.5,0,1,0.5,0,1,0,1,0.5","2",""
"","html-keyboard-response","307","99754","0.0-397.0","33FBRBDW6PLDQ8HU5ZAHD8XUV9CC85","A3NRIEMOJVVX4A","31YWE12TE0YV78PCVO9WO2QLDWO7XY","","null","<img src=""img/food1.png"" style=""width:200px;border:14px solid red;"">","null","","","","","","","","","",""
"","image-keyboard-response","308","99876","0.0-398.0","33FBRBDW6PLDQ8HU5ZAHD8XUV9CC85","A3NRIEMOJVVX4A","31YWE12TE0YV78PCVO9WO2QLDWO7XY","","119.20000004768372","img/food1.png","76","121","3","1","","2","1","1,0.5,0,1,0.5,0,0.5,0,1","0.5,0,1,0.5,0,1,0,1,0.5","2",""
"","html-keyboard-response","309","100178","0.0-399.0","33FBRBDW6PLDQ8HU5ZAHD8XUV9CC85","A3NRIEMOJVVX4A","31YWE12TE0YV78PCVO9WO2QLDWO7XY","","null","<img src=""img/food1.png"" style=""width:200px; border:14px solid green;"">","null","","","","","","","","","",""
"","image-keyboard-response","310","100404","0.0-400.0","33FBRBDW6PLDQ8HU5ZAHD8XUV9CC85","A3NRIEMOJVVX4A","31YWE12TE0YV78PCVO9WO2QLDWO7XY","","223.10000014305115","img/food2.png","75","224.79999995231628","2","0","","1","1","1,0.5,0,1,0.5,0,0.5,0,1","0.5,0,1,0.5,0,1,0,1,0.5","2",""
"","html-keyboard-response","311","100708","0.0-401.0","33FBRBDW6PLDQ8HU5ZAHD8XUV9CC85","A3NRIEMOJVVX4A","31YWE12TE0YV78PCVO9WO2QLDWO7XY","","null","<img src=""img/food2.png"" style=""width:200px;border:14px solid red;"">","null","","","","","","","","","",""
"","image-keyboard-response","312","100852","0.0-402.0","33FBRBDW6PLDQ8HU5ZAHD8XUV9CC85","A3NRIEMOJVVX4A","31YWE12TE0YV78PCVO9WO2QLDWO7XY","","141.59999990463257","img/food3.png","76","143.30000019073486","3","1","","3","1","1,0.5,0,1,0.5,0,0.5,0,1","0.5,0,1,0.5,0,1,0,1,0.5","2",""
"","html-keyboard-response","313","101154","0.0-403.0","33FBRBDW6PLDQ8HU5ZAHD8XUV9CC85","A3NRIEMOJVVX4A","31YWE12TE0YV78PCVO9WO2QLDWO7XY","","null","<img src=""img/food3.png"" style=""width:200px; border:14px solid green;"">","null","","","","","","","","","",""
"","image-keyboard-response","314","101292","0.0-404.0","33FBRBDW6PLDQ8HU5ZAHD8XUV9CC85","A3NRIEMOJVVX4A","31YWE12TE0YV78PCVO9WO2QLDWO7XY","","134.90000009536743","img/food3.png","74","136.79999995231628","1","0","","3","1","1,0.5,0,1,0.5,0,0.5,0,1","0.5,0,1,0.5,0,1,0,1,0.5","2",""
"","html-keyboard-response","315","101596","0.0-405.0","33FBRBDW6PLDQ8HU5ZAHD8XUV9CC85","A3NRIEMOJVVX4A","31YWE12TE0YV78PCVO9WO2QLDWO7XY","","null","<img src=""img/food3.png"" style=""width:200px;border:14px solid red;"">","null","","","","","","","","","",""
"","image-keyboard-response","316","101756","0.0-406.0","33FBRBDW6PLDQ8HU5ZAHD8XUV9CC85","A3NRIEMOJVVX4A","31YWE12TE0YV78PCVO9WO2QLDWO7XY","","157.90000009536743","img/food3.png","74","159.69999980926514","1","0","","3","1","1,0.5,0,1,0.5,0,0.5,0,1","0.5,0,1,0.5,0,1,0,1,0.5","2",""
"","html-keyboard-response","317","102059","0.0-407.0","33FBRBDW6PLDQ8HU5ZAHD8XUV9CC85","A3NRIEMOJVVX4A","31YWE12TE0YV78PCVO9WO2QLDWO7XY","","null","<img src=""img/food3.png"" style=""width:200px;border:14px solid red;"">","null","","","","","","","","","",""
"","image-keyboard-response","318","102116","0.0-408.0","33FBRBDW6PLDQ8HU5ZAHD8XUV9CC85","A3NRIEMOJVVX4A","31YWE12TE0YV78PCVO9WO2QLDWO7XY","","53.799999952316284","img/food3.png","75","55.799999952316284","2","1","","3","1","1,0.5,0,1,0.5,0,0.5,0,1","0.5,0,1,0.5,0,1,0,1,0.5","2",""
"","html-keyboard-response","319","102418","0.0-409.0","33FBRBDW6PLDQ8HU5ZAHD8XUV9CC85","A3NRIEMOJVVX4A","31YWE12TE0YV78PCVO9WO2QLDWO7XY","","null","<img src=""img/food3.png"" style=""width:200px; border:14px solid green;"">","null","","","","","","","","","",""
"","image-keyboard-response","320","102522","0.0-410.0","33FBRBDW6PLDQ8HU5ZAHD8XUV9CC85","A3NRIEMOJVVX4A","31YWE12TE0YV78PCVO9WO2QLDWO7XY","","102","img/food3.png","75","103.29999995231628","2","1","","3","1","1,0.5,0,1,0.5,0,0.5,0,1","0.5,0,1,0.5,0,1,0,1,0.5","2",""
"","html-keyboard-response","321","102825","0.0-411.0","33FBRBDW6PLDQ8HU5ZAHD8XUV9CC85","A3NRIEMOJVVX4A","31YWE12TE0YV78PCVO9WO2QLDWO7XY","","null","<img src=""img/food3.png"" style=""width:200px; border:14px solid green;"">","null","","","","","","","","","",""
"","image-keyboard-response","322","102980","0.0-412.0","33FBRBDW6PLDQ8HU5ZAHD8XUV9CC85","A3NRIEMOJVVX4A","31YWE12TE0YV78PCVO9WO2QLDWO7XY","","152.79999995231628","img/food3.png","74","154.70000004768372","1","0","","3","1","1,0.5,0,1,0.5,0,0.5,0,1","0.5,0,1,0.5,0,1,0,1,0.5","2",""
"","html-keyboard-response","323","103283","0.0-413.0","33FBRBDW6PLDQ8HU5ZAHD8XUV9CC85","A3NRIEMOJVVX4A","31YWE12TE0YV78PCVO9WO2QLDWO7XY","","null","<img src=""img/food3.png"" style=""width:200px;border:14px solid red;"">","null","","","","","","","","","",""
"","image-keyboard-response","324","103411","0.0-414.0","33FBRBDW6PLDQ8HU5ZAHD8XUV9CC85","A3NRIEMOJVVX4A","31YWE12TE0YV78PCVO9WO2QLDWO7XY","","125.80000019073486","img/food3.png","75","127","2","1","","3","1","1,0.5,0,1,0.5,0,0.5,0,1","0.5,0,1,0.5,0,1,0,1,0.5","2",""
"","html-keyboard-response","325","103713","0.0-415.0","33FBRBDW6PLDQ8HU5ZAHD8XUV9CC85","A3NRIEMOJVVX4A","31YWE12TE0YV78PCVO9WO2QLDWO7XY","","null","<img src=""img/food3.png"" style=""width:200px; border:14px solid green;"">","null","","","","","","","","","",""
"","image-keyboard-response","326","103867","0.0-416.0","33FBRBDW6PLDQ8HU5ZAHD8XUV9CC85","A3NRIEMOJVVX4A","31YWE12TE0YV78PCVO9WO2QLDWO7XY","","153.20000004768372","img/food3.png","75","154","2","1","","3","1","1,0.5,0,1,0.5,0,0.5,0,1","0.5,0,1,0.5,0,1,0,1,0.5","2",""
"","html-keyboard-response","327","104168","0.0-417.0","33FBRBDW6PLDQ8HU5ZAHD8XUV9CC85","A3NRIEMOJVVX4A","31YWE12TE0YV78PCVO9WO2QLDWO7XY","","null","<img src=""img/food3.png"" style=""width:200px; border:14px solid green;"">","null","","","","","","","","","",""
"","image-keyboard-response","328","104292","0.0-418.0","33FBRBDW6PLDQ8HU5ZAHD8XUV9CC85","A3NRIEMOJVVX4A","31YWE12TE0YV78PCVO9WO2QLDWO7XY","","121.09999990463257","img/food1.png","74","122.90000009536743","1","1","","2","1","1,0.5,0,1,0.5,0,0.5,0,1","0.5,0,1,0.5,0,1,0,1,0.5","2",""
"","html-keyboard-response","329","104595","0.0-419.0","33FBRBDW6PLDQ8HU5ZAHD8XUV9CC85","A3NRIEMOJVVX4A","31YWE12TE0YV78PCVO9WO2QLDWO7XY","","null","<img src=""img/food1.png"" style=""width:200px; border:14px solid green;"">","null","","","","","","","","","",""
"","image-keyboard-response","330","104795","0.0-420.0","33FBRBDW6PLDQ8HU5ZAHD8XUV9CC85","A3NRIEMOJVVX4A","31YWE12TE0YV78PCVO9WO2QLDWO7XY","","197.40000009536743","img/food1.png","75","198.70000004768372","2","0","","2","1","1,0.5,0,1,0.5,0,0.5,0,1","0.5,0,1,0.5,0,1,0,1,0.5","2",""
"","html-keyboard-response","331","105098","0.0-421.0","33FBRBDW6PLDQ8HU5ZAHD8XUV9CC85","A3NRIEMOJVVX4A","31YWE12TE0YV78PCVO9WO2QLDWO7XY","","null","<img src=""img/food1.png"" style=""width:200px;border:14px solid red;"">","null","","","","","","","","","",""
"","image-keyboard-response","332","105197","0.0-422.0","33FBRBDW6PLDQ8HU5ZAHD8XUV9CC85","A3NRIEMOJVVX4A","31YWE12TE0YV78PCVO9WO2QLDWO7XY","","98.10000014305115","img/food1.png","74","99.59999990463257","1","1","","2","1","1,0.5,0,1,0.5,0,0.5,0,1","0.5,0,1,0.5,0,1,0,1,0.5","2",""
"","html-keyboard-response","333","105501","0.0-423.0","33FBRBDW6PLDQ8HU5ZAHD8XUV9CC85","A3NRIEMOJVVX4A","31YWE12TE0YV78PCVO9WO2QLDWO7XY","","null","<img src=""img/food1.png"" style=""width:200px; border:14px solid green;"">","null","","","","","","","","","",""
"","image-keyboard-response","334","105588","0.0-424.0","33FBRBDW6PLDQ8HU5ZAHD8XUV9CC85","A3NRIEMOJVVX4A","31YWE12TE0YV78PCVO9WO2QLDWO7XY","","84.29999995231628","img/food2.png","74","86.20000004768372","1","1","","1","1","1,0.5,0,1,0.5,0,0.5,0,1","0.5,0,1,0.5,0,1,0,1,0.5","2",""
"","html-keyboard-response","335","105891","0.0-425.0","33FBRBDW6PLDQ8HU5ZAHD8XUV9CC85","A3NRIEMOJVVX4A","31YWE12TE0YV78PCVO9WO2QLDWO7XY","","null","<img src=""img/food2.png"" style=""width:200px; border:14px solid green;"">","null","","","","","","","","","",""
"","image-keyboard-response","336","105987","0.0-426.0","33FBRBDW6PLDQ8HU5ZAHD8XUV9CC85","A3NRIEMOJVVX4A","31YWE12TE0YV78PCVO9WO2QLDWO7XY","","93.70000004768372","img/food2.png","74","95.40000009536743","1","1","","1","1","1,0.5,0,1,0.5,0,0.5,0,1","0.5,0,1,0.5,0,1,0,1,0.5","2",""
"","html-keyboard-response","337","106291","0.0-427.0","33FBRBDW6PLDQ8HU5ZAHD8XUV9CC85","A3NRIEMOJVVX4A","31YWE12TE0YV78PCVO9WO2QLDWO7XY","","null","<img src=""img/food2.png"" style=""width:200px; border:14px solid green;"">","null","","","","","","","","","",""
"","image-keyboard-response","338","106396","0.0-428.0","33FBRBDW6PLDQ8HU5ZAHD8XUV9CC85","A3NRIEMOJVVX4A","31YWE12TE0YV78PCVO9WO2QLDWO7XY","","102.79999995231628","img/food1.png","74","104.59999990463257","1","0","","2","1","1,0.5,0,1,0.5,0,0.5,0,1","0.5,0,1,0.5,0,1,0,1,0.5","2",""
"","html-keyboard-response","339","106699","0.0-429.0","33FBRBDW6PLDQ8HU5ZAHD8XUV9CC85","A3NRIEMOJVVX4A","31YWE12TE0YV78PCVO9WO2QLDWO7XY","","null","<img src=""img/food1.png"" style=""width:200px;border:14px solid red;"">","null","","","","","","","","","",""
"","image-keyboard-response","340","106812","0.0-430.0","33FBRBDW6PLDQ8HU5ZAHD8XUV9CC85","A3NRIEMOJVVX4A","31YWE12TE0YV78PCVO9WO2QLDWO7XY","","111.29999995231628","img/food2.png","74","112.40000009536743","1","1","","1","1","1,0.5,0,1,0.5,0,0.5,0,1","0.5,0,1,0.5,0,1,0,1,0.5","2",""
"","html-keyboard-response","341","107114","0.0-431.0","33FBRBDW6PLDQ8HU5ZAHD8XUV9CC85","A3NRIEMOJVVX4A","31YWE12TE0YV78PCVO9WO2QLDWO7XY","","null","<img src=""img/food2.png"" style=""width:200px; border:14px solid green;"">","null","","","","","","","","","",""
"","image-keyboard-response","342","107203","0.0-432.0","33FBRBDW6PLDQ8HU5ZAHD8XUV9CC85","A3NRIEMOJVVX4A","31YWE12TE0YV78PCVO9WO2QLDWO7XY","","87.20000004768372","img/food3.png","74","88.10000014305115","1","0","","3","1","1,0.5,0,1,0.5,0,0.5,0,1","0.5,0,1,0.5,0,1,0,1,0.5","2",""
"","html-keyboard-response","343","107506","0.0-433.0","33FBRBDW6PLDQ8HU5ZAHD8XUV9CC85","A3NRIEMOJVVX4A","31YWE12TE0YV78PCVO9WO2QLDWO7XY","","null","<img src=""img/food3.png"" style=""width:200px;border:14px solid red;"">","null","","","","","","","","","",""
"","image-keyboard-response","344","107675","0.0-434.0","33FBRBDW6PLDQ8HU5ZAHD8XUV9CC85","A3NRIEMOJVVX4A","31YWE12TE0YV78PCVO9WO2QLDWO7XY","","167.79999995231628","img/food3.png","75","169.20000004768372","2","1","","3","1","1,0.5,0,1,0.5,0,0.5,0,1","0.5,0,1,0.5,0,1,0,1,0.5","2",""
"","html-keyboard-response","345","107978","0.0-435.0","33FBRBDW6PLDQ8HU5ZAHD8XUV9CC85","A3NRIEMOJVVX4A","31YWE12TE0YV78PCVO9WO2QLDWO7XY","","null","<img src=""img/food3.png"" style=""width:200px; border:14px solid green;"">","null","","","","","","","","","",""
"","image-keyboard-response","346","108116","0.0-436.0","33FBRBDW6PLDQ8HU5ZAHD8XUV9CC85","A3NRIEMOJVVX4A","31YWE12TE0YV78PCVO9WO2QLDWO7XY","","135.29999995231628","img/food1.png","74","137.40000009536743","1","1","","2","1","1,0.5,0,1,0.5,0,0.5,0,1","0.5,0,1,0.5,0,1,0,1,0.5","2",""
"","html-keyboard-response","347","108419","0.0-437.0","33FBRBDW6PLDQ8HU5ZAHD8XUV9CC85","A3NRIEMOJVVX4A","31YWE12TE0YV78PCVO9WO2QLDWO7XY","","null","<img src=""img/food1.png"" style=""width:200px; border:14px solid green;"">","null","","","","","","","","","",""
"","image-keyboard-response","348","108547","0.0-438.0","33FBRBDW6PLDQ8HU5ZAHD8XUV9CC85","A3NRIEMOJVVX4A","31YWE12TE0YV78PCVO9WO2QLDWO7XY","","125.09999990463257","img/food3.png","74","126.5","1","0","","3","1","1,0.5,0,1,0.5,0,0.5,0,1","0.5,0,1,0.5,0,1,0,1,0.5","2",""
"","html-keyboard-response","349","108848","0.0-439.0","33FBRBDW6PLDQ8HU5ZAHD8XUV9CC85","A3NRIEMOJVVX4A","31YWE12TE0YV78PCVO9WO2QLDWO7XY","","null","<img src=""img/food3.png"" style=""width:200px;border:14px solid red;"">","null","","","","","","","","","",""
"","image-keyboard-response","350","109012","0.0-440.0","33FBRBDW6PLDQ8HU5ZAHD8XUV9CC85","A3NRIEMOJVVX4A","31YWE12TE0YV78PCVO9WO2QLDWO7XY","","161.70000004768372","img/food3.png","74","162.90000009536743","1","0","","3","1","1,0.5,0,1,0.5,0,0.5,0,1","0.5,0,1,0.5,0,1,0,1,0.5","2",""
"","html-keyboard-response","351","109315","0.0-441.0","33FBRBDW6PLDQ8HU5ZAHD8XUV9CC85","A3NRIEMOJVVX4A","31YWE12TE0YV78PCVO9WO2QLDWO7XY","","null","<img src=""img/food3.png"" style=""width:200px;border:14px solid red;"">","null","","","","","","","","","",""
"","image-keyboard-response","352","109460","0.0-442.0","33FBRBDW6PLDQ8HU5ZAHD8XUV9CC85","A3NRIEMOJVVX4A","31YWE12TE0YV78PCVO9WO2QLDWO7XY","","142.29999995231628","img/food1.png","74","143.89999985694885","1","1","","2","1","1,0.5,0,1,0.5,0,0.5,0,1","0.5,0,1,0.5,0,1,0,1,0.5","2",""
"","html-keyboard-response","353","109762","0.0-443.0","33FBRBDW6PLDQ8HU5ZAHD8XUV9CC85","A3NRIEMOJVVX4A","31YWE12TE0YV78PCVO9WO2QLDWO7XY","","null","<img src=""img/food1.png"" style=""width:200px; border:14px solid green;"">","null","","","","","","","","","",""
"","image-keyboard-response","354","109924","0.0-444.0","33FBRBDW6PLDQ8HU5ZAHD8XUV9CC85","A3NRIEMOJVVX4A","31YWE12TE0YV78PCVO9WO2QLDWO7XY","","158.90000009536743","img/food1.png","74","160.79999995231628","1","1","","2","1","1,0.5,0,1,0.5,0,0.5,0,1","0.5,0,1,0.5,0,1,0,1,0.5","2",""
"","html-keyboard-response","355","110228","0.0-445.0","33FBRBDW6PLDQ8HU5ZAHD8XUV9CC85","A3NRIEMOJVVX4A","31YWE12TE0YV78PCVO9WO2QLDWO7XY","","null","<img src=""img/food1.png"" style=""width:200px; border:14px solid green;"">","null","","","","","","","","","",""
"","image-keyboard-response","356","110412","0.0-446.0","33FBRBDW6PLDQ8HU5ZAHD8XUV9CC85","A3NRIEMOJVVX4A","31YWE12TE0YV78PCVO9WO2QLDWO7XY","","181.5","img/food3.png","74","183.39999985694885","1","0","","3","1","1,0.5,0,1,0.5,0,0.5,0,1","0.5,0,1,0.5,0,1,0,1,0.5","2",""
"","html-keyboard-response","357","110715","0.0-447.0","33FBRBDW6PLDQ8HU5ZAHD8XUV9CC85","A3NRIEMOJVVX4A","31YWE12TE0YV78PCVO9WO2QLDWO7XY","","null","<img src=""img/food3.png"" style=""width:200px;border:14px solid red;"">","null","","","","","","","","","",""
"","image-keyboard-response","358","110859","0.0-448.0","33FBRBDW6PLDQ8HU5ZAHD8XUV9CC85","A3NRIEMOJVVX4A","31YWE12TE0YV78PCVO9WO2QLDWO7XY","","142.39999985694885","img/food3.png","76","143.70000004768372","3","0","","3","1","1,0.5,0,1,0.5,0,0.5,0,1","0.5,0,1,0.5,0,1,0,1,0.5","2",""
"","html-keyboard-response","359","111164","0.0-449.0","33FBRBDW6PLDQ8HU5ZAHD8XUV9CC85","A3NRIEMOJVVX4A","31YWE12TE0YV78PCVO9WO2QLDWO7XY","","null","<img src=""img/food3.png"" style=""width:200px;border:14px solid red;"">","null","","","","","","","","","",""
"","image-keyboard-response","360","111269","0.0-450.0","33FBRBDW6PLDQ8HU5ZAHD8XUV9CC85","A3NRIEMOJVVX4A","31YWE12TE0YV78PCVO9WO2QLDWO7XY","","102.89999985694885","img/food3.png","76","104.59999990463257","3","0","","3","1","1,0.5,0,1,0.5,0,0.5,0,1","0.5,0,1,0.5,0,1,0,1,0.5","2",""
"","html-keyboard-response","361","111572","0.0-451.0","33FBRBDW6PLDQ8HU5ZAHD8XUV9CC85","A3NRIEMOJVVX4A","31YWE12TE0YV78PCVO9WO2QLDWO7XY","","null","<img src=""img/food3.png"" style=""width:200px;border:14px solid red;"">","null","","","","","","","","","",""
"","image-keyboard-response","362","111660","0.0-452.0","33FBRBDW6PLDQ8HU5ZAHD8XUV9CC85","A3NRIEMOJVVX4A","31YWE12TE0YV78PCVO9WO2QLDWO7XY","","86.79999995231628","img/food2.png","76","88.20000004768372","3","1","","1","1","1,0.5,0,1,0.5,0,0.5,0,1","0.5,0,1,0.5,0,1,0,1,0.5","2",""
"","html-keyboard-response","363","111966","0.0-453.0","33FBRBDW6PLDQ8HU5ZAHD8XUV9CC85","A3NRIEMOJVVX4A","31YWE12TE0YV78PCVO9WO2QLDWO7XY","","null","<img src=""img/food2.png"" style=""width:200px; border:14px solid green;"">","null","","","","","","","","","",""
"","html-keyboard-response","364","114243","0.0-454.0","33FBRBDW6PLDQ8HU5ZAHD8XUV9CC85","A3NRIEMOJVVX4A","31YWE12TE0YV78PCVO9WO2QLDWO7XY","","","","","","","","","","","","","",""
"","instructions","365","144571","0.0-455.0","33FBRBDW6PLDQ8HU5ZAHD8XUV9CC85","A3NRIEMOJVVX4A","31YWE12TE0YV78PCVO9WO2QLDWO7XY","[{""page_index"":0,""viewing_time"":30327.10000014305}]","30327.400000095367","","","","","","","","","","","",""
"","survey-text","366","150068","0.0-456.0","33FBRBDW6PLDQ8HU5ZAHD8XUV9CC85","A3NRIEMOJVVX4A","31YWE12TE0YV78PCVO9WO2QLDWO7XY","","5492.700000047684","","","","","","","","","","","","{""Q0"":""A3NRIEMOJVVX4A""}"
