"success","trial_type","trial_index","time_elapsed","internal_node_id","assignmentID","mturkID","hitID","view_history","rt","stimulus","key_press","reactionTime","a","r","warning","s","cond","reward_cond","reward_cond_actual","reward_matrix_idx","responses"
"true","fullscreen","0","6603","0.0-0.0","39GAF6DQWSMREH39XVW7OQYB2FP1VM","A3OV174HQJIJK8","3HUR21WDDUBEMSLDIXZW1FAIHW8YX3","","","","","","","","","","","","","",""
"","instructions","1","39336","0.0-1.0","39GAF6DQWSMREH39XVW7OQYB2FP1VM","A3OV174HQJIJK8","3HUR21WDDUBEMSLDIXZW1FAIHW8YX3","[{""page_index"":0,""viewing_time"":5875.5},{""page_index"":1,""viewing_time"":3327.7999999970198},{""page_index"":2,""viewing_time"":3344},{""page_index"":3,""viewing_time"":7959.79999999702},{""page_index"":4,""viewing_time"":1903.9000000059605},{""page_index"":5,""viewing_time"":6880.0999999940395},{""page_index"":6,""viewing_time"":3440}]","32731.59999999404","","","","","","","","","","","",""
"","instructions","2","60296","0.0-2.0","39GAF6DQWSMREH39XVW7OQYB2FP1VM","A3OV174HQJIJK8","3HUR21WDDUBEMSLDIXZW1FAIHW8YX3","[{""page_index"":0,""viewing_time"":19886.5},{""page_index"":1,""viewing_time"":1072.1000000089407}]","20958.79999999702","","","","","","","","","","","",""
"","image-keyboard-response","3","60531","0.0-3.0","39GAF6DQWSMREH39XVW7OQYB2FP1VM","A3OV174HQJIJK8","3HUR21WDDUBEMSLDIXZW1FAIHW8YX3","","233.20000000298023","img/food6.png","74","234.70000000298023","1","0","false","2","2","1,0.5,0,1,0.5,0,0.5,0,1","0,1,0.5,0,1,0.5,1,0.5,0","3",""
"","html-keyboard-response","4","60833","0.0-4.0","39GAF6DQWSMREH39XVW7OQYB2FP1VM","A3OV174HQJIJK8","3HUR21WDDUBEMSLDIXZW1FAIHW8YX3","","null","<img src=""img/food6.png"" style=""width:200px;border:14px solid red;"">","null","","","","","","","","","",""
"","image-keyboard-response","5","61036","0.0-6.0","39GAF6DQWSMREH39XVW7OQYB2FP1VM","A3OV174HQJIJK8","3HUR21WDDUBEMSLDIXZW1FAIHW8YX3","","202","img/food6.png","75","202.8999999910593","2","1","false","2","2","1,0.5,0,1,0.5,0,0.5,0,1","0,1,0.5,0,1,0.5,1,0.5,0","3",""
"","html-keyboard-response","6","61350","0.0-7.0","39GAF6DQWSMREH39XVW7OQYB2FP1VM","A3OV174HQJIJK8","3HUR21WDDUBEMSLDIXZW1FAIHW8YX3","","null","<img src=""img/food6.png"" style=""width:200px; border:14px solid green;"">","null","","","","","","","","","",""
"","image-keyboard-response","7","61470","0.0-9.0","39GAF6DQWSMREH39XVW7OQYB2FP1VM","A3OV174HQJIJK8","3HUR21WDDUBEMSLDIXZW1FAIHW8YX3","","119.20000000298023","img/food6.png","76","120","3","0","false","2","2","1,0.5,0,1,0.5,0,0.5,0,1","0,1,0.5,0,1,0.5,1,0.5,0","3",""
"","html-keyboard-response","8","61787","0.0-10.0","39GAF6DQWSMREH39XVW7OQYB2FP1VM","A3OV174HQJIJK8","3HUR21WDDUBEMSLDIXZW1FAIHW8YX3","","null","<img src=""img/food6.png"" style=""width:200px;border:14px solid red;"">","null","","","","","","","","","",""
"","image-keyboard-response","9","61895","0.0-12.0","39GAF6DQWSMREH39XVW7OQYB2FP1VM","A3OV174HQJIJK8","3HUR21WDDUBEMSLDIXZW1FAIHW8YX3","","107.5","img/food2.png","75","108.40000000596046","2","1","false","1","2","1,0.5,0,1,0.5,0,0.5,0,1","0,1,0.5,0,1,0.5,1,0.5,0","3",""
"","html-keyboard-response","10","62197","0.0-13.0","39GAF6DQWSMREH39XVW7OQYB2FP1VM","A3OV174HQJIJK8","3HUR21WDDUBEMSLDIXZW1FAIHW8YX3","","null","<img src=""img/food2.png"" style=""width:200px; border:14px solid green;"">","null","","","","","","","","","",""
"","image-keyboard-response","11","62260","0.0-15.0","39GAF6DQWSMREH39XVW7OQYB2FP1VM","A3OV174HQJIJK8","3HUR21WDDUBEMSLDIXZW1FAIHW8YX3","","62.79999999701977","img/food5.png","75","63.70000000298023","2","0","false","3","2","1,0.5,0,1,0.5,0,0.5,0,1","0,1,0.5,0,1,0.5,1,0.5,0","3",""
"","html-keyboard-response","12","62563","0.0-16.0","39GAF6DQWSMREH39XVW7OQYB2FP1VM","A3OV174HQJIJK8","3HUR21WDDUBEMSLDIXZW1FAIHW8YX3","","null","<img src=""img/food5.png"" style=""width:200px;border:14px solid red;"">","null","","","","","","","","","",""
"","image-keyboard-response","13","62594","0.0-18.0","39GAF6DQWSMREH39XVW7OQYB2FP1VM","A3OV174HQJIJK8","3HUR21WDDUBEMSLDIXZW1FAIHW8YX3","","30.599999994039536","img/food6.png","74","31.400000005960464","1","0","false","2","2","1,0.5,0,1,0.5,0,0.5,0,1","0,1,0.5,0,1,0.5,1,0.5,0","3",""
"","html-keyboard-response","14","62897","0.0-19.0","39GAF6DQWSMREH39XVW7OQYB2FP1VM","A3OV174HQJIJK8","3HUR21WDDUBEMSLDIXZW1FAIHW8YX3","","null","<img src=""img/food6.png"" style=""width:200px;border:14px solid red;"">","null","","","","","","","","","",""
"","image-keyboard-response","15","62915","0.0-21.0","39GAF6DQWSMREH39XVW7OQYB2FP1VM","A3OV174HQJIJK8","3HUR21WDDUBEMSLDIXZW1FAIHW8YX3","","17.599999994039536","img/food6.png","75","18.5","2","1","false","2","2","1,0.5,0,1,0.5,0,0.5,0,1","0,1,0.5,0,1,0.5,1,0.5,0","3",""
"","html-keyboard-response","16","63220","0.0-22.0","39GAF6DQWSMREH39XVW7OQYB2FP1VM","A3OV174HQJIJK8","3HUR21WDDUBEMSLDIXZW1FAIHW8YX3","","null","<img src=""img/food6.png"" style=""width:200px; border:14px solid green;"">","null","","","","","","","","","",""
"","image-keyboard-response","17","63231","0.0-24.0","39GAF6DQWSMREH39XVW7OQYB2FP1VM","A3OV174HQJIJK8","3HUR21WDDUBEMSLDIXZW1FAIHW8YX3","","10.299999997019768","img/food6.png","76","11.199999988079071","3","1","false","2","2","1,0.5,0,1,0.5,0,0.5,0,1","0,1,0.5,0,1,0.5,1,0.5,0","3",""
"","html-keyboard-response","18","63533","0.0-25.0","39GAF6DQWSMREH39XVW7OQYB2FP1VM","A3OV174HQJIJK8","3HUR21WDDUBEMSLDIXZW1FAIHW8YX3","","null","<img src=""img/food6.png"" style=""width:200px; border:14px solid green;"">","null","","","","","","","","","",""
"","image-keyboard-response","19","63813","0.0-27.0","39GAF6DQWSMREH39XVW7OQYB2FP1VM","A3OV174HQJIJK8","3HUR21WDDUBEMSLDIXZW1FAIHW8YX3","","279.70000000298023","img/food5.png","74","280.6000000089407","1","1","false","3","2","1,0.5,0,1,0.5,0,0.5,0,1","0,1,0.5,0,1,0.5,1,0.5,0","3",""
"","html-keyboard-response","20","64115","0.0-28.0","39GAF6DQWSMREH39XVW7OQYB2FP1VM","A3OV174HQJIJK8","3HUR21WDDUBEMSLDIXZW1FAIHW8YX3","","null","<img src=""img/food5.png"" style=""width:200px; border:14px solid green;"">","null","","","","","","","","","",""
"","image-keyboard-response","21","64343","0.0-30.0","39GAF6DQWSMREH39XVW7OQYB2FP1VM","A3OV174HQJIJK8","3HUR21WDDUBEMSLDIXZW1FAIHW8YX3","","226.8999999910593","img/food5.png","75","227.90000000596046","2","0","false","3","2","1,0.5,0,1,0.5,0,0.5,0,1","0,1,0.5,0,1,0.5,1,0.5,0","3",""
"","html-keyboard-response","22","64646","0.0-31.0","39GAF6DQWSMREH39XVW7OQYB2FP1VM","A3OV174HQJIJK8","3HUR21WDDUBEMSLDIXZW1FAIHW8YX3","","null","<img src=""img/food5.png"" style=""width:200px;border:14px solid red;"">","null","","","","","","","","","",""
"","image-keyboard-response","23","64728","0.0-33.0","39GAF6DQWSMREH39XVW7OQYB2FP1VM","A3OV174HQJIJK8","3HUR21WDDUBEMSLDIXZW1FAIHW8YX3","","81.59999999403954","img/food6.png","76","82.29999999701977","3","0","false","2","2","1,0.5,0,1,0.5,0,0.5,0,1","0,1,0.5,0,1,0.5,1,0.5,0","3",""
"","html-keyboard-response","24","65030","0.0-34.0","39GAF6DQWSMREH39XVW7OQYB2FP1VM","A3OV174HQJIJK8","3HUR21WDDUBEMSLDIXZW1FAIHW8YX3","","null","<img src=""img/food6.png"" style=""width:200px;border:14px solid red;"">","null","","","","","","","","","",""
"","image-keyboard-response","25","65095","0.0-36.0","39GAF6DQWSMREH39XVW7OQYB2FP1VM","A3OV174HQJIJK8","3HUR21WDDUBEMSLDIXZW1FAIHW8YX3","","64.59999999403954","img/food2.png","76","65.3999999910593","3","0","false","1","2","1,0.5,0,1,0.5,0,0.5,0,1","0,1,0.5,0,1,0.5,1,0.5,0","3",""
"","html-keyboard-response","26","65396","0.0-37.0","39GAF6DQWSMREH39XVW7OQYB2FP1VM","A3OV174HQJIJK8","3HUR21WDDUBEMSLDIXZW1FAIHW8YX3","","null","<img src=""img/food2.png"" style=""width:200px;border:14px solid red;"">","null","","","","","","","","","",""
"","image-keyboard-response","27","65718","0.0-39.0","39GAF6DQWSMREH39XVW7OQYB2FP1VM","A3OV174HQJIJK8","3HUR21WDDUBEMSLDIXZW1FAIHW8YX3","","320.90000000596046","img/food5.png","75","321.59999999403954","2","1","false","3","2","1,0.5,0,1,0.5,0,0.5,0,1","0,1,0.5,0,1,0.5,1,0.5,0","3",""
"","html-keyboard-response","28","66019","0.0-40.0","39GAF6DQWSMREH39XVW7OQYB2FP1VM","A3OV174HQJIJK8","3HUR21WDDUBEMSLDIXZW1FAIHW8YX3","","null","<img src=""img/food5.png"" style=""width:200px; border:14px solid green;"">","null","","","","","","","","","",""
"","image-keyboard-response","29","66361","0.0-42.0","39GAF6DQWSMREH39XVW7OQYB2FP1VM","A3OV174HQJIJK8","3HUR21WDDUBEMSLDIXZW1FAIHW8YX3","","340.90000000596046","img/food2.png","74","341.79999999701977","1","0","false","1","2","1,0.5,0,1,0.5,0,0.5,0,1","0,1,0.5,0,1,0.5,1,0.5,0","3",""
"","html-keyboard-response","30","66663","0.0-43.0","39GAF6DQWSMREH39XVW7OQYB2FP1VM","A3OV174HQJIJK8","3HUR21WDDUBEMSLDIXZW1FAIHW8YX3","","null","<img src=""img/food2.png"" style=""width:200px;border:14px solid red;"">","null","","","","","","","","","",""
"","image-keyboard-response","31","66701","0.0-45.0","39GAF6DQWSMREH39XVW7OQYB2FP1VM","A3OV174HQJIJK8","3HUR21WDDUBEMSLDIXZW1FAIHW8YX3","","36.8999999910593","img/food2.png","74","37.70000000298023","1","0","false","1","2","1,0.5,0,1,0.5,0,0.5,0,1","0,1,0.5,0,1,0.5,1,0.5,0","3",""
"","html-keyboard-response","32","67003","0.0-46.0","39GAF6DQWSMREH39XVW7OQYB2FP1VM","A3OV174HQJIJK8","3HUR21WDDUBEMSLDIXZW1FAIHW8YX3","","null","<img src=""img/food2.png"" style=""width:200px;border:14px solid red;"">","null","","","","","","","","","",""
"","image-keyboard-response","33","67453","0.0-48.0","39GAF6DQWSMREH39XVW7OQYB2FP1VM","A3OV174HQJIJK8","3HUR21WDDUBEMSLDIXZW1FAIHW8YX3","","449.1000000089407","img/food5.png","75","449.79999999701977","2","1","false","3","2","1,0.5,0,1,0.5,0,0.5,0,1","0,1,0.5,0,1,0.5,1,0.5,0","3",""
"","html-keyboard-response","34","67755","0.0-49.0","39GAF6DQWSMREH39XVW7OQYB2FP1VM","A3OV174HQJIJK8","3HUR21WDDUBEMSLDIXZW1FAIHW8YX3","","null","<img src=""img/food5.png"" style=""width:200px; border:14px solid green;"">","null","","","","","","","","","",""
"","image-keyboard-response","35","67958","0.0-51.0","39GAF6DQWSMREH39XVW7OQYB2FP1VM","A3OV174HQJIJK8","3HUR21WDDUBEMSLDIXZW1FAIHW8YX3","","201.8999999910593","img/food5.png","76","202.69999998807907","3","0","false","3","2","1,0.5,0,1,0.5,0,0.5,0,1","0,1,0.5,0,1,0.5,1,0.5,0","3",""
"","html-keyboard-response","36","68259","0.0-52.0","39GAF6DQWSMREH39XVW7OQYB2FP1VM","A3OV174HQJIJK8","3HUR21WDDUBEMSLDIXZW1FAIHW8YX3","","null","<img src=""img/food5.png"" style=""width:200px;border:14px solid red;"">","null","","","","","","","","","",""
"","image-keyboard-response","37","68291","0.0-54.0","39GAF6DQWSMREH39XVW7OQYB2FP1VM","A3OV174HQJIJK8","3HUR21WDDUBEMSLDIXZW1FAIHW8YX3","","30.899999991059303","img/food5.png","76","31.599999994039536","3","0","false","3","2","1,0.5,0,1,0.5,0,0.5,0,1","0,1,0.5,0,1,0.5,1,0.5,0","3",""
"","html-keyboard-response","38","68592","0.0-55.0","39GAF6DQWSMREH39XVW7OQYB2FP1VM","A3OV174HQJIJK8","3HUR21WDDUBEMSLDIXZW1FAIHW8YX3","","null","<img src=""img/food5.png"" style=""width:200px;border:14px solid red;"">","null","","","","","","","","","",""
"","image-keyboard-response","39","68902","0.0-57.0","39GAF6DQWSMREH39XVW7OQYB2FP1VM","A3OV174HQJIJK8","3HUR21WDDUBEMSLDIXZW1FAIHW8YX3","","308.79999999701977","img/food6.png","75","309.79999999701977","2","1","false","2","2","1,0.5,0,1,0.5,0,0.5,0,1","0,1,0.5,0,1,0.5,1,0.5,0","3",""
"","html-keyboard-response","40","69204","0.0-58.0","39GAF6DQWSMREH39XVW7OQYB2FP1VM","A3OV174HQJIJK8","3HUR21WDDUBEMSLDIXZW1FAIHW8YX3","","null","<img src=""img/food6.png"" style=""width:200px; border:14px solid green;"">","null","","","","","","","","","",""
"","image-keyboard-response","41","69280","0.0-60.0","39GAF6DQWSMREH39XVW7OQYB2FP1VM","A3OV174HQJIJK8","3HUR21WDDUBEMSLDIXZW1FAIHW8YX3","","75.40000000596046","img/food2.png","75","76.20000000298023","2","1","false","1","2","1,0.5,0,1,0.5,0,0.5,0,1","0,1,0.5,0,1,0.5,1,0.5,0","3",""
"","html-keyboard-response","42","69583","0.0-61.0","39GAF6DQWSMREH39XVW7OQYB2FP1VM","A3OV174HQJIJK8","3HUR21WDDUBEMSLDIXZW1FAIHW8YX3","","null","<img src=""img/food2.png"" style=""width:200px; border:14px solid green;"">","null","","","","","","","","","",""
"","image-keyboard-response","43","69690","0.0-63.0","39GAF6DQWSMREH39XVW7OQYB2FP1VM","A3OV174HQJIJK8","3HUR21WDDUBEMSLDIXZW1FAIHW8YX3","","106.70000000298023","img/food2.png","74","107.5","1","0","false","1","2","1,0.5,0,1,0.5,0,0.5,0,1","0,1,0.5,0,1,0.5,1,0.5,0","3",""
"","html-keyboard-response","44","69992","0.0-64.0","39GAF6DQWSMREH39XVW7OQYB2FP1VM","A3OV174HQJIJK8","3HUR21WDDUBEMSLDIXZW1FAIHW8YX3","","null","<img src=""img/food2.png"" style=""width:200px;border:14px solid red;"">","null","","","","","","","","","",""
"","image-keyboard-response","45","70132","0.0-66.0","39GAF6DQWSMREH39XVW7OQYB2FP1VM","A3OV174HQJIJK8","3HUR21WDDUBEMSLDIXZW1FAIHW8YX3","","139.29999999701977","img/food2.png","75","140","2","1","false","1","2","1,0.5,0,1,0.5,0,0.5,0,1","0,1,0.5,0,1,0.5,1,0.5,0","3",""
"","html-keyboard-response","46","70434","0.0-67.0","39GAF6DQWSMREH39XVW7OQYB2FP1VM","A3OV174HQJIJK8","3HUR21WDDUBEMSLDIXZW1FAIHW8YX3","","null","<img src=""img/food2.png"" style=""width:200px; border:14px solid green;"">","null","","","","","","","","","",""
"","image-keyboard-response","47","70502","0.0-69.0","39GAF6DQWSMREH39XVW7OQYB2FP1VM","A3OV174HQJIJK8","3HUR21WDDUBEMSLDIXZW1FAIHW8YX3","","66.90000000596046","img/food6.png","75","67.70000000298023","2","1","false","2","2","1,0.5,0,1,0.5,0,0.5,0,1","0,1,0.5,0,1,0.5,1,0.5,0","3",""
"","html-keyboard-response","48","70804","0.0-70.0","39GAF6DQWSMREH39XVW7OQYB2FP1VM","A3OV174HQJIJK8","3HUR21WDDUBEMSLDIXZW1FAIHW8YX3","","null","<img src=""img/food6.png"" style=""width:200px; border:14px solid green;"">","null","","","","","","","","","",""
"","image-keyboard-response","49","70993","0.0-72.0","39GAF6DQWSMREH39XVW7OQYB2FP1VM","A3OV174HQJIJK8","3HUR21WDDUBEMSLDIXZW1FAIHW8YX3","","188.19999998807907","img/food2.png","74","189.09999999403954","1","0","false","1","2","1,0.5,0,1,0.5,0,0.5,0,1","0,1,0.5,0,1,0.5,1,0.5,0","3",""
"","html-keyboard-response","50","71295","0.0-73.0","39GAF6DQWSMREH39XVW7OQYB2FP1VM","A3OV174HQJIJK8","3HUR21WDDUBEMSLDIXZW1FAIHW8YX3","","null","<img src=""img/food2.png"" style=""width:200px;border:14px solid red;"">","null","","","","","","","","","",""
"","image-keyboard-response","51","71364","0.0-75.0","39GAF6DQWSMREH39XVW7OQYB2FP1VM","A3OV174HQJIJK8","3HUR21WDDUBEMSLDIXZW1FAIHW8YX3","","68.19999998807907","img/food6.png","74","69.20000000298023","1","0","false","2","2","1,0.5,0,1,0.5,0,0.5,0,1","0,1,0.5,0,1,0.5,1,0.5,0","3",""
"","html-keyboard-response","52","71666","0.0-76.0","39GAF6DQWSMREH39XVW7OQYB2FP1VM","A3OV174HQJIJK8","3HUR21WDDUBEMSLDIXZW1FAIHW8YX3","","null","<img src=""img/food6.png"" style=""width:200px;border:14px solid red;"">","null","","","","","","","","","",""
"","image-keyboard-response","53","71704","0.0-78.0","39GAF6DQWSMREH39XVW7OQYB2FP1VM","A3OV174HQJIJK8","3HUR21WDDUBEMSLDIXZW1FAIHW8YX3","","37.29999999701977","img/food2.png","74","38.1000000089407","1","0","false","1","2","1,0.5,0,1,0.5,0,0.5,0,1","0,1,0.5,0,1,0.5,1,0.5,0","3",""
"","html-keyboard-response","54","72006","0.0-79.0","39GAF6DQWSMREH39XVW7OQYB2FP1VM","A3OV174HQJIJK8","3HUR21WDDUBEMSLDIXZW1FAIHW8YX3","","null","<img src=""img/food2.png"" style=""width:200px;border:14px solid red;"">","null","","","","","","","","","",""
"","image-keyboard-response","55","72044","0.0-81.0","39GAF6DQWSMREH39XVW7OQYB2FP1VM","A3OV174HQJIJK8","3HUR21WDDUBEMSLDIXZW1FAIHW8YX3","","37.29999999701977","img/food2.png","75","38.099999994039536","2","1","false","1","2","1,0.5,0,1,0.5,0,0.5,0,1","0,1,0.5,0,1,0.5,1,0.5,0","3",""
"","html-keyboard-response","56","72346","0.0-82.0","39GAF6DQWSMREH39XVW7OQYB2FP1VM","A3OV174HQJIJK8","3HUR21WDDUBEMSLDIXZW1FAIHW8YX3","","null","<img src=""img/food2.png"" style=""width:200px; border:14px solid green;"">","null","","","","","","","","","",""
"","image-keyboard-response","57","72416","0.0-84.0","39GAF6DQWSMREH39XVW7OQYB2FP1VM","A3OV174HQJIJK8","3HUR21WDDUBEMSLDIXZW1FAIHW8YX3","","68.59999999403954","img/food5.png","75","69.29999999701977","2","0","false","3","2","1,0.5,0,1,0.5,0,0.5,0,1","0,1,0.5,0,1,0.5,1,0.5,0","3",""
"","html-keyboard-response","58","72718","0.0-85.0","39GAF6DQWSMREH39XVW7OQYB2FP1VM","A3OV174HQJIJK8","3HUR21WDDUBEMSLDIXZW1FAIHW8YX3","","null","<img src=""img/food5.png"" style=""width:200px;border:14px solid red;"">","null","","","","","","","","","",""
"","image-keyboard-response","59","73024","0.0-87.0","39GAF6DQWSMREH39XVW7OQYB2FP1VM","A3OV174HQJIJK8","3HUR21WDDUBEMSLDIXZW1FAIHW8YX3","","305","img/food5.png","75","305.79999999701977","2","1","false","3","2","1,0.5,0,1,0.5,0,0.5,0,1","0,1,0.5,0,1,0.5,1,0.5,0","3",""
"","html-keyboard-response","60","73326","0.0-88.0","39GAF6DQWSMREH39XVW7OQYB2FP1VM","A3OV174HQJIJK8","3HUR21WDDUBEMSLDIXZW1FAIHW8YX3","","null","<img src=""img/food5.png"" style=""width:200px; border:14px solid green;"">","null","","","","","","","","","",""
"","image-keyboard-response","61","73373","0.0-90.0","39GAF6DQWSMREH39XVW7OQYB2FP1VM","A3OV174HQJIJK8","3HUR21WDDUBEMSLDIXZW1FAIHW8YX3","","45.5","img/food5.png","76","46.5","3","0","false","3","2","1,0.5,0,1,0.5,0,0.5,0,1","0,1,0.5,0,1,0.5,1,0.5,0","3",""
"","html-keyboard-response","62","73674","0.0-91.0","39GAF6DQWSMREH39XVW7OQYB2FP1VM","A3OV174HQJIJK8","3HUR21WDDUBEMSLDIXZW1FAIHW8YX3","","null","<img src=""img/food5.png"" style=""width:200px;border:14px solid red;"">","null","","","","","","","","","",""
"","image-keyboard-response","63","73734","0.0-93.0","39GAF6DQWSMREH39XVW7OQYB2FP1VM","A3OV174HQJIJK8","3HUR21WDDUBEMSLDIXZW1FAIHW8YX3","","58.599999994039536","img/food5.png","76","59.5","3","0","false","3","2","1,0.5,0,1,0.5,0,0.5,0,1","0,1,0.5,0,1,0.5,1,0.5,0","3",""
"","html-keyboard-response","64","74037","0.0-94.0","39GAF6DQWSMREH39XVW7OQYB2FP1VM","A3OV174HQJIJK8","3HUR21WDDUBEMSLDIXZW1FAIHW8YX3","","null","<img src=""img/food5.png"" style=""width:200px;border:14px solid red;"">","null","","","","","","","","","",""
"","image-keyboard-response","65","74039","0.0-96.0","39GAF6DQWSMREH39XVW7OQYB2FP1VM","A3OV174HQJIJK8","3HUR21WDDUBEMSLDIXZW1FAIHW8YX3","","1.5","img/food2.png","75","2.1000000089406967","2","1","false","1","2","1,0.5,0,1,0.5,0,0.5,0,1","0,1,0.5,0,1,0.5,1,0.5,0","3",""
"","html-keyboard-response","66","74342","0.0-97.0","39GAF6DQWSMREH39XVW7OQYB2FP1VM","A3OV174HQJIJK8","3HUR21WDDUBEMSLDIXZW1FAIHW8YX3","","null","<img src=""img/food2.png"" style=""width:200px; border:14px solid green;"">","null","","","","","","","","","",""
"","image-keyboard-response","67","74424","0.0-99.0","39GAF6DQWSMREH39XVW7OQYB2FP1VM","A3OV174HQJIJK8","3HUR21WDDUBEMSLDIXZW1FAIHW8YX3","","81.59999999403954","img/food2.png","75","82.40000000596046","2","1","false","1","2","1,0.5,0,1,0.5,0,0.5,0,1","0,1,0.5,0,1,0.5,1,0.5,0","3",""
"","html-keyboard-response","68","74726","0.0-100.0","39GAF6DQWSMREH39XVW7OQYB2FP1VM","A3OV174HQJIJK8","3HUR21WDDUBEMSLDIXZW1FAIHW8YX3","","null","<img src=""img/food2.png"" style=""width:200px; border:14px solid green;"">","null","","","","","","","","","",""
"","image-keyboard-response","69","74809","0.0-102.0","39GAF6DQWSMREH39XVW7OQYB2FP1VM","A3OV174HQJIJK8","3HUR21WDDUBEMSLDIXZW1FAIHW8YX3","","82.70000000298023","img/food6.png","74","83.5","1","0","false","2","2","1,0.5,0,1,0.5,0,0.5,0,1","0,1,0.5,0,1,0.5,1,0.5,0","3",""
"","html-keyboard-response","70","75111","0.0-103.0","39GAF6DQWSMREH39XVW7OQYB2FP1VM","A3OV174HQJIJK8","3HUR21WDDUBEMSLDIXZW1FAIHW8YX3","","null","<img src=""img/food6.png"" style=""width:200px;border:14px solid red;"">","null","","","","","","","","","",""
"","image-keyboard-response","71","75144","0.0-105.0","39GAF6DQWSMREH39XVW7OQYB2FP1VM","A3OV174HQJIJK8","3HUR21WDDUBEMSLDIXZW1FAIHW8YX3","","31.799999997019768","img/food5.png","75","32.6000000089407","2","0","false","3","2","1,0.5,0,1,0.5,0,0.5,0,1","0,1,0.5,0,1,0.5,1,0.5,0","3",""
"","html-keyboard-response","72","75447","0.0-106.0","39GAF6DQWSMREH39XVW7OQYB2FP1VM","A3OV174HQJIJK8","3HUR21WDDUBEMSLDIXZW1FAIHW8YX3","","null","<img src=""img/food5.png"" style=""width:200px;border:14px solid red;"">","null","","","","","","","","","",""
"","image-keyboard-response","73","75480","0.0-108.0","39GAF6DQWSMREH39XVW7OQYB2FP1VM","A3OV174HQJIJK8","3HUR21WDDUBEMSLDIXZW1FAIHW8YX3","","32.20000000298023","img/food5.png","75","33.1000000089407","2","0","false","3","2","1,0.5,0,1,0.5,0,0.5,0,1","0,1,0.5,0,1,0.5,1,0.5,0","3",""
"","html-keyboard-response","74","75782","0.0-109.0","39GAF6DQWSMREH39XVW7OQYB2FP1VM","A3OV174HQJIJK8","3HUR21WDDUBEMSLDIXZW1FAIHW8YX3","","null","<img src=""img/food5.png"" style=""width:200px;border:14px solid red;"">","null","","","","","","","","","",""
"","image-keyboard-response","75","76032","0.0-111.0","39GAF6DQWSMREH39XVW7OQYB2FP1VM","A3OV174HQJIJK8","3HUR21WDDUBEMSLDIXZW1FAIHW8YX3","","249.5","img/food2.png","74","250.40000000596046","1","0","false","1","2","1,0.5,0,1,0.5,0,0.5,0,1","0,1,0.5,0,1,0.5,1,0.5,0","3",""
"","html-keyboard-response","76","76334","0.0-112.0","39GAF6DQWSMREH39XVW7OQYB2FP1VM","A3OV174HQJIJK8","3HUR21WDDUBEMSLDIXZW1FAIHW8YX3","","null","<img src=""img/food2.png"" style=""width:200px;border:14px solid red;"">","null","","","","","","","","","",""
"","image-keyboard-response","77","76374","0.0-114.0","39GAF6DQWSMREH39XVW7OQYB2FP1VM","A3OV174HQJIJK8","3HUR21WDDUBEMSLDIXZW1FAIHW8YX3","","39.20000000298023","img/food2.png","74","40","1","0","false","1","2","1,0.5,0,1,0.5,0,0.5,0,1","0,1,0.5,0,1,0.5,1,0.5,0","3",""
"","html-keyboard-response","78","76676","0.0-115.0","39GAF6DQWSMREH39XVW7OQYB2FP1VM","A3OV174HQJIJK8","3HUR21WDDUBEMSLDIXZW1FAIHW8YX3","","null","<img src=""img/food2.png"" style=""width:200px;border:14px solid red;"">","null","","","","","","","","","",""
"","image-keyboard-response","79","77033","0.0-117.0","39GAF6DQWSMREH39XVW7OQYB2FP1VM","A3OV174HQJIJK8","3HUR21WDDUBEMSLDIXZW1FAIHW8YX3","","355.79999999701977","img/food6.png","76","356.59999999403954","3","1","false","2","2","1,0.5,0,1,0.5,0,0.5,0,1","0,1,0.5,0,1,0.5,1,0.5,0","3",""
"","html-keyboard-response","80","77334","0.0-118.0","39GAF6DQWSMREH39XVW7OQYB2FP1VM","A3OV174HQJIJK8","3HUR21WDDUBEMSLDIXZW1FAIHW8YX3","","null","<img src=""img/food6.png"" style=""width:200px; border:14px solid green;"">","null","","","","","","","","","",""
"","image-keyboard-response","81","77381","0.0-120.0","39GAF6DQWSMREH39XVW7OQYB2FP1VM","A3OV174HQJIJK8","3HUR21WDDUBEMSLDIXZW1FAIHW8YX3","","46","img/food6.png","76","46.900000005960464","3","0","false","2","2","1,0.5,0,1,0.5,0,0.5,0,1","0,1,0.5,0,1,0.5,1,0.5,0","3",""
"","html-keyboard-response","82","77684","0.0-121.0","39GAF6DQWSMREH39XVW7OQYB2FP1VM","A3OV174HQJIJK8","3HUR21WDDUBEMSLDIXZW1FAIHW8YX3","","null","<img src=""img/food6.png"" style=""width:200px;border:14px solid red;"">","null","","","","","","","","","",""
"","image-keyboard-response","83","77728","0.0-123.0","39GAF6DQWSMREH39XVW7OQYB2FP1VM","A3OV174HQJIJK8","3HUR21WDDUBEMSLDIXZW1FAIHW8YX3","","43.5","img/food6.png","76","44.30000001192093","3","1","false","2","2","1,0.5,0,1,0.5,0,0.5,0,1","0,1,0.5,0,1,0.5,1,0.5,0","3",""
"","html-keyboard-response","84","78029","0.0-124.0","39GAF6DQWSMREH39XVW7OQYB2FP1VM","A3OV174HQJIJK8","3HUR21WDDUBEMSLDIXZW1FAIHW8YX3","","null","<img src=""img/food6.png"" style=""width:200px; border:14px solid green;"">","null","","","","","","","","","",""
"","image-keyboard-response","85","78077","0.0-126.0","39GAF6DQWSMREH39XVW7OQYB2FP1VM","A3OV174HQJIJK8","3HUR21WDDUBEMSLDIXZW1FAIHW8YX3","","46.69999998807907","img/food6.png","76","47.3999999910593","3","0","false","2","2","1,0.5,0,1,0.5,0,0.5,0,1","0,1,0.5,0,1,0.5,1,0.5,0","3",""
"","html-keyboard-response","86","78379","0.0-127.0","39GAF6DQWSMREH39XVW7OQYB2FP1VM","A3OV174HQJIJK8","3HUR21WDDUBEMSLDIXZW1FAIHW8YX3","","null","<img src=""img/food6.png"" style=""width:200px;border:14px solid red;"">","null","","","","","","","","","",""
"","image-keyboard-response","87","78412","0.0-129.0","39GAF6DQWSMREH39XVW7OQYB2FP1VM","A3OV174HQJIJK8","3HUR21WDDUBEMSLDIXZW1FAIHW8YX3","","31.600000008940697","img/food5.png","76","32.5","3","0","false","3","2","1,0.5,0,1,0.5,0,0.5,0,1","0,1,0.5,0,1,0.5,1,0.5,0","3",""
"","html-keyboard-response","88","78714","0.0-130.0","39GAF6DQWSMREH39XVW7OQYB2FP1VM","A3OV174HQJIJK8","3HUR21WDDUBEMSLDIXZW1FAIHW8YX3","","null","<img src=""img/food5.png"" style=""width:200px;border:14px solid red;"">","null","","","","","","","","","",""
"","image-keyboard-response","89","78812","0.0-132.0","39GAF6DQWSMREH39XVW7OQYB2FP1VM","A3OV174HQJIJK8","3HUR21WDDUBEMSLDIXZW1FAIHW8YX3","","97.09999999403954","img/food5.png","75","98","2","1","false","3","2","1,0.5,0,1,0.5,0,0.5,0,1","0,1,0.5,0,1,0.5,1,0.5,0","3",""
"","html-keyboard-response","90","79113","0.0-133.0","39GAF6DQWSMREH39XVW7OQYB2FP1VM","A3OV174HQJIJK8","3HUR21WDDUBEMSLDIXZW1FAIHW8YX3","","null","<img src=""img/food5.png"" style=""width:200px; border:14px solid green;"">","null","","","","","","","","","",""
"","image-keyboard-response","91","79190","0.0-135.0","39GAF6DQWSMREH39XVW7OQYB2FP1VM","A3OV174HQJIJK8","3HUR21WDDUBEMSLDIXZW1FAIHW8YX3","","75.59999999403954","img/food2.png","75","76.5","2","1","false","1","2","1,0.5,0,1,0.5,0,0.5,0,1","0,1,0.5,0,1,0.5,1,0.5,0","3",""
"","html-keyboard-response","92","79491","0.0-136.0","39GAF6DQWSMREH39XVW7OQYB2FP1VM","A3OV174HQJIJK8","3HUR21WDDUBEMSLDIXZW1FAIHW8YX3","","null","<img src=""img/food2.png"" style=""width:200px; border:14px solid green;"">","null","","","","","","","","","",""
"","image-keyboard-response","93","79623","0.0-138.0","39GAF6DQWSMREH39XVW7OQYB2FP1VM","A3OV174HQJIJK8","3HUR21WDDUBEMSLDIXZW1FAIHW8YX3","","130.79999999701977","img/food6.png","75","131.69999998807907","2","1","false","2","2","1,0.5,0,1,0.5,0,0.5,0,1","0,1,0.5,0,1,0.5,1,0.5,0","3",""
"","html-keyboard-response","94","79926","0.0-139.0","39GAF6DQWSMREH39XVW7OQYB2FP1VM","A3OV174HQJIJK8","3HUR21WDDUBEMSLDIXZW1FAIHW8YX3","","null","<img src=""img/food6.png"" style=""width:200px; border:14px solid green;"">","null","","","","","","","","","",""
"","image-keyboard-response","95","80100","0.0-141.0","39GAF6DQWSMREH39XVW7OQYB2FP1VM","A3OV174HQJIJK8","3HUR21WDDUBEMSLDIXZW1FAIHW8YX3","","173.70000000298023","img/food5.png","75","174.5","2","1","false","3","2","1,0.5,0,1,0.5,0,0.5,0,1","0,1,0.5,0,1,0.5,1,0.5,0","3",""
"","html-keyboard-response","96","80402","0.0-142.0","39GAF6DQWSMREH39XVW7OQYB2FP1VM","A3OV174HQJIJK8","3HUR21WDDUBEMSLDIXZW1FAIHW8YX3","","null","<img src=""img/food5.png"" style=""width:200px; border:14px solid green;"">","null","","","","","","","","","",""
"","image-keyboard-response","97","80658","0.0-144.0","39GAF6DQWSMREH39XVW7OQYB2FP1VM","A3OV174HQJIJK8","3HUR21WDDUBEMSLDIXZW1FAIHW8YX3","","255.40000000596046","img/food6.png","74","256.40000000596046","1","0","false","2","2","1,0.5,0,1,0.5,0,0.5,0,1","0,1,0.5,0,1,0.5,1,0.5,0","3",""
"","html-keyboard-response","98","80960","0.0-145.0","39GAF6DQWSMREH39XVW7OQYB2FP1VM","A3OV174HQJIJK8","3HUR21WDDUBEMSLDIXZW1FAIHW8YX3","","null","<img src=""img/food6.png"" style=""width:200px;border:14px solid red;"">","null","","","","","","","","","",""
"","image-keyboard-response","99","81001","0.0-147.0","39GAF6DQWSMREH39XVW7OQYB2FP1VM","A3OV174HQJIJK8","3HUR21WDDUBEMSLDIXZW1FAIHW8YX3","","40.20000000298023","img/food6.png","74","41.1000000089407","1","0","false","2","2","1,0.5,0,1,0.5,0,0.5,0,1","0,1,0.5,0,1,0.5,1,0.5,0","3",""
"","html-keyboard-response","100","81303","0.0-148.0","39GAF6DQWSMREH39XVW7OQYB2FP1VM","A3OV174HQJIJK8","3HUR21WDDUBEMSLDIXZW1FAIHW8YX3","","null","<img src=""img/food6.png"" style=""width:200px;border:14px solid red;"">","null","","","","","","","","","",""
"","image-keyboard-response","101","81646","0.0-150.0","39GAF6DQWSMREH39XVW7OQYB2FP1VM","A3OV174HQJIJK8","3HUR21WDDUBEMSLDIXZW1FAIHW8YX3","","342","img/food2.png","75","342.69999998807907","2","1","false","1","2","1,0.5,0,1,0.5,0,0.5,0,1","0,1,0.5,0,1,0.5,1,0.5,0","3",""
"","html-keyboard-response","102","81947","0.0-151.0","39GAF6DQWSMREH39XVW7OQYB2FP1VM","A3OV174HQJIJK8","3HUR21WDDUBEMSLDIXZW1FAIHW8YX3","","null","<img src=""img/food2.png"" style=""width:200px; border:14px solid green;"">","null","","","","","","","","","",""
"","image-keyboard-response","103","81961","0.0-153.0","39GAF6DQWSMREH39XVW7OQYB2FP1VM","A3OV174HQJIJK8","3HUR21WDDUBEMSLDIXZW1FAIHW8YX3","","13.099999994039536","img/food2.png","75","13.899999991059303","2","1","false","1","2","1,0.5,0,1,0.5,0,0.5,0,1","0,1,0.5,0,1,0.5,1,0.5,0","3",""
"","html-keyboard-response","104","82264","0.0-154.0","39GAF6DQWSMREH39XVW7OQYB2FP1VM","A3OV174HQJIJK8","3HUR21WDDUBEMSLDIXZW1FAIHW8YX3","","null","<img src=""img/food2.png"" style=""width:200px; border:14px solid green;"">","null","","","","","","","","","",""
"","image-keyboard-response","105","82545","0.0-156.0","39GAF6DQWSMREH39XVW7OQYB2FP1VM","A3OV174HQJIJK8","3HUR21WDDUBEMSLDIXZW1FAIHW8YX3","","279.8999999910593","img/food2.png","75","280.90000000596046","2","1","false","1","2","1,0.5,0,1,0.5,0,0.5,0,1","0,1,0.5,0,1,0.5,1,0.5,0","3",""
"","html-keyboard-response","106","82847","0.0-157.0","39GAF6DQWSMREH39XVW7OQYB2FP1VM","A3OV174HQJIJK8","3HUR21WDDUBEMSLDIXZW1FAIHW8YX3","","null","<img src=""img/food2.png"" style=""width:200px; border:14px solid green;"">","null","","","","","","","","","",""
"","image-keyboard-response","107","82915","0.0-159.0","39GAF6DQWSMREH39XVW7OQYB2FP1VM","A3OV174HQJIJK8","3HUR21WDDUBEMSLDIXZW1FAIHW8YX3","","67.5","img/food5.png","75","68.20000000298023","2","0","false","3","2","1,0.5,0,1,0.5,0,0.5,0,1","0,1,0.5,0,1,0.5,1,0.5,0","3",""
"","html-keyboard-response","108","83216","0.0-160.0","39GAF6DQWSMREH39XVW7OQYB2FP1VM","A3OV174HQJIJK8","3HUR21WDDUBEMSLDIXZW1FAIHW8YX3","","null","<img src=""img/food5.png"" style=""width:200px;border:14px solid red;"">","null","","","","","","","","","",""
"","image-keyboard-response","109","83299","0.0-162.0","39GAF6DQWSMREH39XVW7OQYB2FP1VM","A3OV174HQJIJK8","3HUR21WDDUBEMSLDIXZW1FAIHW8YX3","","81.70000000298023","img/food2.png","75","83.3999999910593","2","1","false","1","2","1,0.5,0,1,0.5,0,0.5,0,1","0,1,0.5,0,1,0.5,1,0.5,0","3",""
"","html-keyboard-response","110","83602","0.0-163.0","39GAF6DQWSMREH39XVW7OQYB2FP1VM","A3OV174HQJIJK8","3HUR21WDDUBEMSLDIXZW1FAIHW8YX3","","null","<img src=""img/food2.png"" style=""width:200px; border:14px solid green;"">","null","","","","","","","","","",""
"","image-keyboard-response","111","83695","0.0-165.0","39GAF6DQWSMREH39XVW7OQYB2FP1VM","A3OV174HQJIJK8","3HUR21WDDUBEMSLDIXZW1FAIHW8YX3","","91.90000000596046","img/food2.png","75","92.79999999701977","2","1","false","1","2","1,0.5,0,1,0.5,0,0.5,0,1","0,1,0.5,0,1,0.5,1,0.5,0","3",""
"","html-keyboard-response","112","83996","0.0-166.0","39GAF6DQWSMREH39XVW7OQYB2FP1VM","A3OV174HQJIJK8","3HUR21WDDUBEMSLDIXZW1FAIHW8YX3","","null","<img src=""img/food2.png"" style=""width:200px; border:14px solid green;"">","null","","","","","","","","","",""
"","image-keyboard-response","113","84069","0.0-168.0","39GAF6DQWSMREH39XVW7OQYB2FP1VM","A3OV174HQJIJK8","3HUR21WDDUBEMSLDIXZW1FAIHW8YX3","","71.8999999910593","img/food6.png","75","72.59999999403954","2","1","false","2","2","1,0.5,0,1,0.5,0,0.5,0,1","0,1,0.5,0,1,0.5,1,0.5,0","3",""
"","html-keyboard-response","114","84371","0.0-169.0","39GAF6DQWSMREH39XVW7OQYB2FP1VM","A3OV174HQJIJK8","3HUR21WDDUBEMSLDIXZW1FAIHW8YX3","","null","<img src=""img/food6.png"" style=""width:200px; border:14px solid green;"">","null","","","","","","","","","",""
"","image-keyboard-response","115","84504","0.0-171.0","39GAF6DQWSMREH39XVW7OQYB2FP1VM","A3OV174HQJIJK8","3HUR21WDDUBEMSLDIXZW1FAIHW8YX3","","131.20000000298023","img/food5.png","76","132","3","0","false","3","2","1,0.5,0,1,0.5,0,0.5,0,1","0,1,0.5,0,1,0.5,1,0.5,0","3",""
"","html-keyboard-response","116","84806","0.0-172.0","39GAF6DQWSMREH39XVW7OQYB2FP1VM","A3OV174HQJIJK8","3HUR21WDDUBEMSLDIXZW1FAIHW8YX3","","null","<img src=""img/food5.png"" style=""width:200px;border:14px solid red;"">","null","","","","","","","","","",""
"","image-keyboard-response","117","84930","0.0-174.0","39GAF6DQWSMREH39XVW7OQYB2FP1VM","A3OV174HQJIJK8","3HUR21WDDUBEMSLDIXZW1FAIHW8YX3","","123.29999999701977","img/food6.png","76","124.20000000298023","3","1","false","2","2","1,0.5,0,1,0.5,0,0.5,0,1","0,1,0.5,0,1,0.5,1,0.5,0","3",""
"","html-keyboard-response","118","85232","0.0-175.0","39GAF6DQWSMREH39XVW7OQYB2FP1VM","A3OV174HQJIJK8","3HUR21WDDUBEMSLDIXZW1FAIHW8YX3","","null","<img src=""img/food6.png"" style=""width:200px; border:14px solid green;"">","null","","","","","","","","","",""
"","image-keyboard-response","119","85316","0.0-177.0","39GAF6DQWSMREH39XVW7OQYB2FP1VM","A3OV174HQJIJK8","3HUR21WDDUBEMSLDIXZW1FAIHW8YX3","","83.09999999403954","img/food6.png","75","83.8999999910593","2","1","false","2","2","1,0.5,0,1,0.5,0,0.5,0,1","0,1,0.5,0,1,0.5,1,0.5,0","3",""
"","html-keyboard-response","120","85617","0.0-178.0","39GAF6DQWSMREH39XVW7OQYB2FP1VM","A3OV174HQJIJK8","3HUR21WDDUBEMSLDIXZW1FAIHW8YX3","","null","<img src=""img/food6.png"" style=""width:200px; border:14px solid green;"">","null","","","","","","","","","",""
"","image-keyboard-response","121","85803","0.0-180.0","39GAF6DQWSMREH39XVW7OQYB2FP1VM","A3OV174HQJIJK8","3HUR21WDDUBEMSLDIXZW1FAIHW8YX3","","184.79999999701977","img/food5.png","76","185.40000000596046","3","0","false","3","2","1,0.5,0,1,0.5,0,0.5,0,1","0,1,0.5,0,1,0.5,1,0.5,0","3",""
"","html-keyboard-response","122","86105","0.0-181.0","39GAF6DQWSMREH39XVW7OQYB2FP1VM","A3OV174HQJIJK8","3HUR21WDDUBEMSLDIXZW1FAIHW8YX3","","null","<img src=""img/food5.png"" style=""width:200px;border:14px solid red;"">","null","","","","","","","","","",""
"","image-keyboard-response","123","86192","0.0-183.0","39GAF6DQWSMREH39XVW7OQYB2FP1VM","A3OV174HQJIJK8","3HUR21WDDUBEMSLDIXZW1FAIHW8YX3","","86.29999999701977","img/food6.png","76","87.20000000298023","3","1","false","2","2","1,0.5,0,1,0.5,0,0.5,0,1","0,1,0.5,0,1,0.5,1,0.5,0","3",""
"","html-keyboard-response","124","86494","0.0-184.0","39GAF6DQWSMREH39XVW7OQYB2FP1VM","A3OV174HQJIJK8","3HUR21WDDUBEMSLDIXZW1FAIHW8YX3","","null","<img src=""img/food6.png"" style=""width:200px; border:14px solid green;"">","null","","","","","","","","","",""
"","image-keyboard-response","125","86623","0.0-186.0","39GAF6DQWSMREH39XVW7OQYB2FP1VM","A3OV174HQJIJK8","3HUR21WDDUBEMSLDIXZW1FAIHW8YX3","","128","img/food6.png","76","128.8999999910593","3","0","false","2","2","1,0.5,0,1,0.5,0,0.5,0,1","0,1,0.5,0,1,0.5,1,0.5,0","3",""
"","html-keyboard-response","126","86925","0.0-187.0","39GAF6DQWSMREH39XVW7OQYB2FP1VM","A3OV174HQJIJK8","3HUR21WDDUBEMSLDIXZW1FAIHW8YX3","","null","<img src=""img/food6.png"" style=""width:200px;border:14px solid red;"">","null","","","","","","","","","",""
"","image-keyboard-response","127","87018","0.0-189.0","39GAF6DQWSMREH39XVW7OQYB2FP1VM","A3OV174HQJIJK8","3HUR21WDDUBEMSLDIXZW1FAIHW8YX3","","92.20000000298023","img/food2.png","76","93","3","1","false","1","2","1,0.5,0,1,0.5,0,0.5,0,1","0,1,0.5,0,1,0.5,1,0.5,0","3",""
"","html-keyboard-response","128","87319","0.0-190.0","39GAF6DQWSMREH39XVW7OQYB2FP1VM","A3OV174HQJIJK8","3HUR21WDDUBEMSLDIXZW1FAIHW8YX3","","null","<img src=""img/food2.png"" style=""width:200px; border:14px solid green;"">","null","","","","","","","","","",""
"","image-keyboard-response","129","87690","0.0-192.0","39GAF6DQWSMREH39XVW7OQYB2FP1VM","A3OV174HQJIJK8","3HUR21WDDUBEMSLDIXZW1FAIHW8YX3","","369.90000000596046","img/food2.png","75","370.70000000298023","2","1","false","1","2","1,0.5,0,1,0.5,0,0.5,0,1","0,1,0.5,0,1,0.5,1,0.5,0","3",""
"","html-keyboard-response","130","87992","0.0-193.0","39GAF6DQWSMREH39XVW7OQYB2FP1VM","A3OV174HQJIJK8","3HUR21WDDUBEMSLDIXZW1FAIHW8YX3","","null","<img src=""img/food2.png"" style=""width:200px; border:14px solid green;"">","null","","","","","","","","","",""
"","image-keyboard-response","131","88039","0.0-195.0","39GAF6DQWSMREH39XVW7OQYB2FP1VM","A3OV174HQJIJK8","3HUR21WDDUBEMSLDIXZW1FAIHW8YX3","","45.900000005960464","img/food5.png","75","46.70000000298023","2","0","false","3","2","1,0.5,0,1,0.5,0,0.5,0,1","0,1,0.5,0,1,0.5,1,0.5,0","3",""
"","html-keyboard-response","132","88340","0.0-196.0","39GAF6DQWSMREH39XVW7OQYB2FP1VM","A3OV174HQJIJK8","3HUR21WDDUBEMSLDIXZW1FAIHW8YX3","","null","<img src=""img/food5.png"" style=""width:200px;border:14px solid red;"">","null","","","","","","","","","",""
"","image-keyboard-response","133","88423","0.0-198.0","39GAF6DQWSMREH39XVW7OQYB2FP1VM","A3OV174HQJIJK8","3HUR21WDDUBEMSLDIXZW1FAIHW8YX3","","81.3999999910593","img/food5.png","75","82.29999999701977","2","0","false","3","2","1,0.5,0,1,0.5,0,0.5,0,1","0,1,0.5,0,1,0.5,1,0.5,0","3",""
"","html-keyboard-response","134","88724","0.0-199.0","39GAF6DQWSMREH39XVW7OQYB2FP1VM","A3OV174HQJIJK8","3HUR21WDDUBEMSLDIXZW1FAIHW8YX3","","null","<img src=""img/food5.png"" style=""width:200px;border:14px solid red;"">","null","","","","","","","","","",""
"","image-keyboard-response","135","88752","0.0-201.0","39GAF6DQWSMREH39XVW7OQYB2FP1VM","A3OV174HQJIJK8","3HUR21WDDUBEMSLDIXZW1FAIHW8YX3","","26.600000008940697","img/food5.png","75","27.299999997019768","2","0","false","3","2","1,0.5,0,1,0.5,0,0.5,0,1","0,1,0.5,0,1,0.5,1,0.5,0","3",""
"","html-keyboard-response","136","89054","0.0-202.0","39GAF6DQWSMREH39XVW7OQYB2FP1VM","A3OV174HQJIJK8","3HUR21WDDUBEMSLDIXZW1FAIHW8YX3","","null","<img src=""img/food5.png"" style=""width:200px;border:14px solid red;"">","null","","","","","","","","","",""
"","image-keyboard-response","137","89112","0.0-204.0","39GAF6DQWSMREH39XVW7OQYB2FP1VM","A3OV174HQJIJK8","3HUR21WDDUBEMSLDIXZW1FAIHW8YX3","","57","img/food6.png","74","58","1","0","false","2","2","1,0.5,0,1,0.5,0,0.5,0,1","0,1,0.5,0,1,0.5,1,0.5,0","3",""
"","html-keyboard-response","138","89414","0.0-205.0","39GAF6DQWSMREH39XVW7OQYB2FP1VM","A3OV174HQJIJK8","3HUR21WDDUBEMSLDIXZW1FAIHW8YX3","","null","<img src=""img/food6.png"" style=""width:200px;border:14px solid red;"">","null","","","","","","","","","",""
"","image-keyboard-response","139","89452","0.0-207.0","39GAF6DQWSMREH39XVW7OQYB2FP1VM","A3OV174HQJIJK8","3HUR21WDDUBEMSLDIXZW1FAIHW8YX3","","37.20000000298023","img/food5.png","74","38.099999994039536","1","1","false","3","2","1,0.5,0,1,0.5,0,0.5,0,1","0,1,0.5,0,1,0.5,1,0.5,0","3",""
"","html-keyboard-response","140","89753","0.0-208.0","39GAF6DQWSMREH39XVW7OQYB2FP1VM","A3OV174HQJIJK8","3HUR21WDDUBEMSLDIXZW1FAIHW8YX3","","null","<img src=""img/food5.png"" style=""width:200px; border:14px solid green;"">","null","","","","","","","","","",""
"","image-keyboard-response","141","89784","0.0-210.0","39GAF6DQWSMREH39XVW7OQYB2FP1VM","A3OV174HQJIJK8","3HUR21WDDUBEMSLDIXZW1FAIHW8YX3","","30","img/food2.png","74","30.80000001192093","1","0","false","1","2","1,0.5,0,1,0.5,0,0.5,0,1","0,1,0.5,0,1,0.5,1,0.5,0","3",""
"","html-keyboard-response","142","90085","0.0-211.0","39GAF6DQWSMREH39XVW7OQYB2FP1VM","A3OV174HQJIJK8","3HUR21WDDUBEMSLDIXZW1FAIHW8YX3","","null","<img src=""img/food2.png"" style=""width:200px;border:14px solid red;"">","null","","","","","","","","","",""
"","image-keyboard-response","143","90124","0.0-213.0","39GAF6DQWSMREH39XVW7OQYB2FP1VM","A3OV174HQJIJK8","3HUR21WDDUBEMSLDIXZW1FAIHW8YX3","","37.5","img/food2.png","74","38.5","1","0","false","1","2","1,0.5,0,1,0.5,0,0.5,0,1","0,1,0.5,0,1,0.5,1,0.5,0","3",""
"","html-keyboard-response","144","90426","0.0-214.0","39GAF6DQWSMREH39XVW7OQYB2FP1VM","A3OV174HQJIJK8","3HUR21WDDUBEMSLDIXZW1FAIHW8YX3","","null","<img src=""img/food2.png"" style=""width:200px;border:14px solid red;"">","null","","","","","","","","","",""
"","image-keyboard-response","145","90456","0.0-216.0","39GAF6DQWSMREH39XVW7OQYB2FP1VM","A3OV174HQJIJK8","3HUR21WDDUBEMSLDIXZW1FAIHW8YX3","","29","img/food2.png","74","29.799999997019768","1","0","false","1","2","1,0.5,0,1,0.5,0,0.5,0,1","0,1,0.5,0,1,0.5,1,0.5,0","3",""
"","html-keyboard-response","146","90758","0.0-217.0","39GAF6DQWSMREH39XVW7OQYB2FP1VM","A3OV174HQJIJK8","3HUR21WDDUBEMSLDIXZW1FAIHW8YX3","","null","<img src=""img/food2.png"" style=""width:200px;border:14px solid red;"">","null","","","","","","","","","",""
"","image-keyboard-response","147","91045","0.0-219.0","39GAF6DQWSMREH39XVW7OQYB2FP1VM","A3OV174HQJIJK8","3HUR21WDDUBEMSLDIXZW1FAIHW8YX3","","286.1000000089407","img/food6.png","75","286.8999999910593","2","1","false","2","2","1,0.5,0,1,0.5,0,0.5,0,1","0,1,0.5,0,1,0.5,1,0.5,0","3",""
"","html-keyboard-response","148","91347","0.0-220.0","39GAF6DQWSMREH39XVW7OQYB2FP1VM","A3OV174HQJIJK8","3HUR21WDDUBEMSLDIXZW1FAIHW8YX3","","null","<img src=""img/food6.png"" style=""width:200px; border:14px solid green;"">","null","","","","","","","","","",""
"","image-keyboard-response","149","91601","0.0-222.0","39GAF6DQWSMREH39XVW7OQYB2FP1VM","A3OV174HQJIJK8","3HUR21WDDUBEMSLDIXZW1FAIHW8YX3","","252.90000000596046","img/food2.png","75","253.79999999701977","2","1","false","1","2","1,0.5,0,1,0.5,0,0.5,0,1","0,1,0.5,0,1,0.5,1,0.5,0","3",""
"","html-keyboard-response","150","91903","0.0-223.0","39GAF6DQWSMREH39XVW7OQYB2FP1VM","A3OV174HQJIJK8","3HUR21WDDUBEMSLDIXZW1FAIHW8YX3","","null","<img src=""img/food2.png"" style=""width:200px; border:14px solid green;"">","null","","","","","","","","","",""
"","image-keyboard-response","151","92062","0.0-225.0","39GAF6DQWSMREH39XVW7OQYB2FP1VM","A3OV174HQJIJK8","3HUR21WDDUBEMSLDIXZW1FAIHW8YX3","","158","img/food6.png","75","159","2","1","false","2","2","1,0.5,0,1,0.5,0,0.5,0,1","0,1,0.5,0,1,0.5,1,0.5,0","3",""
"","html-keyboard-response","152","92363","0.0-226.0","39GAF6DQWSMREH39XVW7OQYB2FP1VM","A3OV174HQJIJK8","3HUR21WDDUBEMSLDIXZW1FAIHW8YX3","","null","<img src=""img/food6.png"" style=""width:200px; border:14px solid green;"">","null","","","","","","","","","",""
"","image-keyboard-response","153","92405","0.0-228.0","39GAF6DQWSMREH39XVW7OQYB2FP1VM","A3OV174HQJIJK8","3HUR21WDDUBEMSLDIXZW1FAIHW8YX3","","41","img/food5.png","75","41.70000000298023","2","0","false","3","2","1,0.5,0,1,0.5,0,0.5,0,1","0,1,0.5,0,1,0.5,1,0.5,0","3",""
"","html-keyboard-response","154","92707","0.0-229.0","39GAF6DQWSMREH39XVW7OQYB2FP1VM","A3OV174HQJIJK8","3HUR21WDDUBEMSLDIXZW1FAIHW8YX3","","null","<img src=""img/food5.png"" style=""width:200px;border:14px solid red;"">","null","","","","","","","","","",""
"","image-keyboard-response","155","92761","0.0-231.0","39GAF6DQWSMREH39XVW7OQYB2FP1VM","A3OV174HQJIJK8","3HUR21WDDUBEMSLDIXZW1FAIHW8YX3","","52.599999994039536","img/food5.png","75","53.5","2","1","false","3","2","1,0.5,0,1,0.5,0,0.5,0,1","0,1,0.5,0,1,0.5,1,0.5,0","3",""
"","html-keyboard-response","156","93062","0.0-232.0","39GAF6DQWSMREH39XVW7OQYB2FP1VM","A3OV174HQJIJK8","3HUR21WDDUBEMSLDIXZW1FAIHW8YX3","","null","<img src=""img/food5.png"" style=""width:200px; border:14px solid green;"">","null","","","","","","","","","",""
"","image-keyboard-response","157","93172","0.0-234.0","39GAF6DQWSMREH39XVW7OQYB2FP1VM","A3OV174HQJIJK8","3HUR21WDDUBEMSLDIXZW1FAIHW8YX3","","108.5","img/food5.png","75","109.40000000596046","2","0","false","3","2","1,0.5,0,1,0.5,0,0.5,0,1","0,1,0.5,0,1,0.5,1,0.5,0","3",""
"","html-keyboard-response","158","93474","0.0-235.0","39GAF6DQWSMREH39XVW7OQYB2FP1VM","A3OV174HQJIJK8","3HUR21WDDUBEMSLDIXZW1FAIHW8YX3","","null","<img src=""img/food5.png"" style=""width:200px;border:14px solid red;"">","null","","","","","","","","","",""
"","image-keyboard-response","159","93559","0.0-237.0","39GAF6DQWSMREH39XVW7OQYB2FP1VM","A3OV174HQJIJK8","3HUR21WDDUBEMSLDIXZW1FAIHW8YX3","","84","img/food6.png","75","84.90000000596046","2","1","false","2","2","1,0.5,0,1,0.5,0,0.5,0,1","0,1,0.5,0,1,0.5,1,0.5,0","3",""
"","html-keyboard-response","160","93862","0.0-238.0","39GAF6DQWSMREH39XVW7OQYB2FP1VM","A3OV174HQJIJK8","3HUR21WDDUBEMSLDIXZW1FAIHW8YX3","","null","<img src=""img/food6.png"" style=""width:200px; border:14px solid green;"">","null","","","","","","","","","",""
"","image-keyboard-response","161","93938","0.0-240.0","39GAF6DQWSMREH39XVW7OQYB2FP1VM","A3OV174HQJIJK8","3HUR21WDDUBEMSLDIXZW1FAIHW8YX3","","75.20000000298023","img/food5.png","76","76.20000000298023","3","0","false","3","2","1,0.5,0,1,0.5,0,0.5,0,1","0,1,0.5,0,1,0.5,1,0.5,0","3",""
"","html-keyboard-response","162","94240","0.0-241.0","39GAF6DQWSMREH39XVW7OQYB2FP1VM","A3OV174HQJIJK8","3HUR21WDDUBEMSLDIXZW1FAIHW8YX3","","null","<img src=""img/food5.png"" style=""width:200px;border:14px solid red;"">","null","","","","","","","","","",""
"","image-keyboard-response","163","94364","0.0-243.0","39GAF6DQWSMREH39XVW7OQYB2FP1VM","A3OV174HQJIJK8","3HUR21WDDUBEMSLDIXZW1FAIHW8YX3","","122.6000000089407","img/food2.png","76","123.5","3","1","false","1","2","1,0.5,0,1,0.5,0,0.5,0,1","0,1,0.5,0,1,0.5,1,0.5,0","3",""
"","html-keyboard-response","164","94667","0.0-244.0","39GAF6DQWSMREH39XVW7OQYB2FP1VM","A3OV174HQJIJK8","3HUR21WDDUBEMSLDIXZW1FAIHW8YX3","","null","<img src=""img/food2.png"" style=""width:200px; border:14px solid green;"">","null","","","","","","","","","",""
"","image-keyboard-response","165","94703","0.0-246.0","39GAF6DQWSMREH39XVW7OQYB2FP1VM","A3OV174HQJIJK8","3HUR21WDDUBEMSLDIXZW1FAIHW8YX3","","35.1000000089407","img/food6.png","75","36","2","1","false","2","2","1,0.5,0,1,0.5,0,0.5,0,1","0,1,0.5,0,1,0.5,1,0.5,0","3",""
"","html-keyboard-response","166","95005","0.0-247.0","39GAF6DQWSMREH39XVW7OQYB2FP1VM","A3OV174HQJIJK8","3HUR21WDDUBEMSLDIXZW1FAIHW8YX3","","null","<img src=""img/food6.png"" style=""width:200px; border:14px solid green;"">","null","","","","","","","","","",""
"","image-keyboard-response","167","95070","0.0-249.0","39GAF6DQWSMREH39XVW7OQYB2FP1VM","A3OV174HQJIJK8","3HUR21WDDUBEMSLDIXZW1FAIHW8YX3","","63.900000005960464","img/food5.png","75","64.79999999701977","2","0","false","3","2","1,0.5,0,1,0.5,0,0.5,0,1","0,1,0.5,0,1,0.5,1,0.5,0","3",""
"","html-keyboard-response","168","95372","0.0-250.0","39GAF6DQWSMREH39XVW7OQYB2FP1VM","A3OV174HQJIJK8","3HUR21WDDUBEMSLDIXZW1FAIHW8YX3","","null","<img src=""img/food5.png"" style=""width:200px;border:14px solid red;"">","null","","","","","","","","","",""
"","image-keyboard-response","169","95428","0.0-252.0","39GAF6DQWSMREH39XVW7OQYB2FP1VM","A3OV174HQJIJK8","3HUR21WDDUBEMSLDIXZW1FAIHW8YX3","","54.400000005960464","img/food6.png","75","55.29999999701977","2","1","false","2","2","1,0.5,0,1,0.5,0,0.5,0,1","0,1,0.5,0,1,0.5,1,0.5,0","3",""
"","html-keyboard-response","170","95730","0.0-253.0","39GAF6DQWSMREH39XVW7OQYB2FP1VM","A3OV174HQJIJK8","3HUR21WDDUBEMSLDIXZW1FAIHW8YX3","","null","<img src=""img/food6.png"" style=""width:200px; border:14px solid green;"">","null","","","","","","","","","",""
"","image-keyboard-response","171","95815","0.0-255.0","39GAF6DQWSMREH39XVW7OQYB2FP1VM","A3OV174HQJIJK8","3HUR21WDDUBEMSLDIXZW1FAIHW8YX3","","84.20000000298023","img/food6.png","75","85","2","1","false","2","2","1,0.5,0,1,0.5,0,0.5,0,1","0,1,0.5,0,1,0.5,1,0.5,0","3",""
"","html-keyboard-response","172","96116","0.0-256.0","39GAF6DQWSMREH39XVW7OQYB2FP1VM","A3OV174HQJIJK8","3HUR21WDDUBEMSLDIXZW1FAIHW8YX3","","null","<img src=""img/food6.png"" style=""width:200px; border:14px solid green;"">","null","","","","","","","","","",""
"","image-keyboard-response","173","96215","0.0-258.0","39GAF6DQWSMREH39XVW7OQYB2FP1VM","A3OV174HQJIJK8","3HUR21WDDUBEMSLDIXZW1FAIHW8YX3","","97.80000001192093","img/food2.png","75","98.79999999701977","2","1","false","1","2","1,0.5,0,1,0.5,0,0.5,0,1","0,1,0.5,0,1,0.5,1,0.5,0","3",""
"","html-keyboard-response","174","96517","0.0-259.0","39GAF6DQWSMREH39XVW7OQYB2FP1VM","A3OV174HQJIJK8","3HUR21WDDUBEMSLDIXZW1FAIHW8YX3","","null","<img src=""img/food2.png"" style=""width:200px; border:14px solid green;"">","null","","","","","","","","","",""
"","image-keyboard-response","175","96601","0.0-261.0","39GAF6DQWSMREH39XVW7OQYB2FP1VM","A3OV174HQJIJK8","3HUR21WDDUBEMSLDIXZW1FAIHW8YX3","","83.40000000596046","img/food2.png","75","84.20000000298023","2","1","false","1","2","1,0.5,0,1,0.5,0,0.5,0,1","0,1,0.5,0,1,0.5,1,0.5,0","3",""
"","html-keyboard-response","176","96903","0.0-262.0","39GAF6DQWSMREH39XVW7OQYB2FP1VM","A3OV174HQJIJK8","3HUR21WDDUBEMSLDIXZW1FAIHW8YX3","","null","<img src=""img/food2.png"" style=""width:200px; border:14px solid green;"">","null","","","","","","","","","",""
"","image-keyboard-response","177","96986","0.0-264.0","39GAF6DQWSMREH39XVW7OQYB2FP1VM","A3OV174HQJIJK8","3HUR21WDDUBEMSLDIXZW1FAIHW8YX3","","82.1000000089407","img/food5.png","75","82.90000000596046","2","0","false","3","2","1,0.5,0,1,0.5,0,0.5,0,1","0,1,0.5,0,1,0.5,1,0.5,0","3",""
"","html-keyboard-response","178","97288","0.0-265.0","39GAF6DQWSMREH39XVW7OQYB2FP1VM","A3OV174HQJIJK8","3HUR21WDDUBEMSLDIXZW1FAIHW8YX3","","null","<img src=""img/food5.png"" style=""width:200px;border:14px solid red;"">","null","","","","","","","","","",""
"","image-keyboard-response","179","97377","0.0-267.0","39GAF6DQWSMREH39XVW7OQYB2FP1VM","A3OV174HQJIJK8","3HUR21WDDUBEMSLDIXZW1FAIHW8YX3","","88.1000000089407","img/food5.png","75","89","2","1","false","3","2","1,0.5,0,1,0.5,0,0.5,0,1","0,1,0.5,0,1,0.5,1,0.5,0","3",""
"","html-keyboard-response","180","97680","0.0-268.0","39GAF6DQWSMREH39XVW7OQYB2FP1VM","A3OV174HQJIJK8","3HUR21WDDUBEMSLDIXZW1FAIHW8YX3","","null","<img src=""img/food5.png"" style=""width:200px; border:14px solid green;"">","null","","","","","","","","","",""
"","image-keyboard-response","181","97809","0.0-270.0","39GAF6DQWSMREH39XVW7OQYB2FP1VM","A3OV174HQJIJK8","3HUR21WDDUBEMSLDIXZW1FAIHW8YX3","","128.20000000298023","img/food2.png","75","129.1000000089407","2","1","false","1","2","1,0.5,0,1,0.5,0,0.5,0,1","0,1,0.5,0,1,0.5,1,0.5,0","3",""
"","html-keyboard-response","182","98110","0.0-271.0","39GAF6DQWSMREH39XVW7OQYB2FP1VM","A3OV174HQJIJK8","3HUR21WDDUBEMSLDIXZW1FAIHW8YX3","","null","<img src=""img/food2.png"" style=""width:200px; border:14px solid green;"">","null","","","","","","","","","",""
"","instructions","183","109791","0.0-273.0","39GAF6DQWSMREH39XVW7OQYB2FP1VM","A3OV174HQJIJK8","3HUR21WDDUBEMSLDIXZW1FAIHW8YX3","[{""page_index"":0,""viewing_time"":10607.79999999702},{""page_index"":1,""viewing_time"":1071.8999999910593}]","11680.09999999404","","","","","","","","","","","",""
"","image-keyboard-response","184","110195","0.0-274.0","39GAF6DQWSMREH39XVW7OQYB2FP1VM","A3OV174HQJIJK8","3HUR21WDDUBEMSLDIXZW1FAIHW8YX3","","402.8999999910593","img/food1.png","74","404","1","1","","2","1","1,0.5,0,1,0.5,0,0.5,0,1","1,0.5,0,1,0.5,0,0.5,0,1","1",""
"","html-keyboard-response","185","110497","0.0-275.0","39GAF6DQWSMREH39XVW7OQYB2FP1VM","A3OV174HQJIJK8","3HUR21WDDUBEMSLDIXZW1FAIHW8YX3","","null","<img src=""img/food1.png"" style=""width:200px; border:14px solid green;"">","null","","","","","","","","","",""
"","image-keyboard-response","186","110965","0.0-276.0","39GAF6DQWSMREH39XVW7OQYB2FP1VM","A3OV174HQJIJK8","3HUR21WDDUBEMSLDIXZW1FAIHW8YX3","","467","img/food1.png","74","468","1","1","","2","1","1,0.5,0,1,0.5,0,0.5,0,1","1,0.5,0,1,0.5,0,0.5,0,1","1",""
"","html-keyboard-response","187","111267","0.0-277.0","39GAF6DQWSMREH39XVW7OQYB2FP1VM","A3OV174HQJIJK8","3HUR21WDDUBEMSLDIXZW1FAIHW8YX3","","null","<img src=""img/food1.png"" style=""width:200px; border:14px solid green;"">","null","","","","","","","","","",""
"","image-keyboard-response","188","112083","0.0-278.0","39GAF6DQWSMREH39XVW7OQYB2FP1VM","A3OV174HQJIJK8","3HUR21WDDUBEMSLDIXZW1FAIHW8YX3","","815","img/food3.png","75","815.8999999910593","2","0","","3","1","1,0.5,0,1,0.5,0,0.5,0,1","1,0.5,0,1,0.5,0,0.5,0,1","1",""
"","html-keyboard-response","189","112386","0.0-279.0","39GAF6DQWSMREH39XVW7OQYB2FP1VM","A3OV174HQJIJK8","3HUR21WDDUBEMSLDIXZW1FAIHW8YX3","","null","<img src=""img/food3.png"" style=""width:200px;border:14px solid red;"">","null","","","","","","","","","",""
"","image-keyboard-response","190","112789","0.0-280.0","39GAF6DQWSMREH39XVW7OQYB2FP1VM","A3OV174HQJIJK8","3HUR21WDDUBEMSLDIXZW1FAIHW8YX3","","402","img/food3.png","76","402.79999999701977","3","1","","3","1","1,0.5,0,1,0.5,0,0.5,0,1","1,0.5,0,1,0.5,0,0.5,0,1","1",""
"","html-keyboard-response","191","113090","0.0-281.0","39GAF6DQWSMREH39XVW7OQYB2FP1VM","A3OV174HQJIJK8","3HUR21WDDUBEMSLDIXZW1FAIHW8YX3","","null","<img src=""img/food3.png"" style=""width:200px; border:14px solid green;"">","null","","","","","","","","","",""
"","image-keyboard-response","192","114011","0.0-282.0","39GAF6DQWSMREH39XVW7OQYB2FP1VM","A3OV174HQJIJK8","3HUR21WDDUBEMSLDIXZW1FAIHW8YX3","","919.2999999970198","img/food4.png","75","920.2999999970198","2","1","","1","1","1,0.5,0,1,0.5,0,0.5,0,1","1,0.5,0,1,0.5,0,0.5,0,1","1",""
"","html-keyboard-response","193","114312","0.0-283.0","39GAF6DQWSMREH39XVW7OQYB2FP1VM","A3OV174HQJIJK8","3HUR21WDDUBEMSLDIXZW1FAIHW8YX3","","null","<img src=""img/food4.png"" style=""width:200px; border:14px solid green;"">","null","","","","","","","","","",""
"","image-keyboard-response","194","114739","0.0-284.0","39GAF6DQWSMREH39XVW7OQYB2FP1VM","A3OV174HQJIJK8","3HUR21WDDUBEMSLDIXZW1FAIHW8YX3","","425.29999999701977","img/food4.png","75","426.20000000298023","2","0","","1","1","1,0.5,0,1,0.5,0,0.5,0,1","1,0.5,0,1,0.5,0,0.5,0,1","1",""
"","html-keyboard-response","195","115040","0.0-285.0","39GAF6DQWSMREH39XVW7OQYB2FP1VM","A3OV174HQJIJK8","3HUR21WDDUBEMSLDIXZW1FAIHW8YX3","","null","<img src=""img/food4.png"" style=""width:200px;border:14px solid red;"">","null","","","","","","","","","",""
"","image-keyboard-response","196","115853","0.0-286.0","39GAF6DQWSMREH39XVW7OQYB2FP1VM","A3OV174HQJIJK8","3HUR21WDDUBEMSLDIXZW1FAIHW8YX3","","812.9000000059605","img/food1.png","74","813.7000000029802","1","1","","2","1","1,0.5,0,1,0.5,0,0.5,0,1","1,0.5,0,1,0.5,0,0.5,0,1","1",""
"","html-keyboard-response","197","116156","0.0-287.0","39GAF6DQWSMREH39XVW7OQYB2FP1VM","A3OV174HQJIJK8","3HUR21WDDUBEMSLDIXZW1FAIHW8YX3","","null","<img src=""img/food1.png"" style=""width:200px; border:14px solid green;"">","null","","","","","","","","","",""
"","image-keyboard-response","198","116568","0.0-288.0","39GAF6DQWSMREH39XVW7OQYB2FP1VM","A3OV174HQJIJK8","3HUR21WDDUBEMSLDIXZW1FAIHW8YX3","","411","img/food1.png","74","411.79999999701977","1","1","","2","1","1,0.5,0,1,0.5,0,0.5,0,1","1,0.5,0,1,0.5,0,0.5,0,1","1",""
"","html-keyboard-response","199","116869","0.0-289.0","39GAF6DQWSMREH39XVW7OQYB2FP1VM","A3OV174HQJIJK8","3HUR21WDDUBEMSLDIXZW1FAIHW8YX3","","null","<img src=""img/food1.png"" style=""width:200px; border:14px solid green;"">","null","","","","","","","","","",""
"","image-keyboard-response","200","117223","0.0-290.0","39GAF6DQWSMREH39XVW7OQYB2FP1VM","A3OV174HQJIJK8","3HUR21WDDUBEMSLDIXZW1FAIHW8YX3","","353.09999999403954","img/food1.png","74","353.90000000596046","1","1","","2","1","1,0.5,0,1,0.5,0,0.5,0,1","1,0.5,0,1,0.5,0,0.5,0,1","1",""
"","html-keyboard-response","201","117525","0.0-291.0","39GAF6DQWSMREH39XVW7OQYB2FP1VM","A3OV174HQJIJK8","3HUR21WDDUBEMSLDIXZW1FAIHW8YX3","","null","<img src=""img/food1.png"" style=""width:200px; border:14px solid green;"">","null","","","","","","","","","",""
"","image-keyboard-response","202","117847","0.0-292.0","39GAF6DQWSMREH39XVW7OQYB2FP1VM","A3OV174HQJIJK8","3HUR21WDDUBEMSLDIXZW1FAIHW8YX3","","321","img/food1.png","74","321.80000001192093","1","1","","2","1","1,0.5,0,1,0.5,0,0.5,0,1","1,0.5,0,1,0.5,0,0.5,0,1","1",""
"","html-keyboard-response","203","118149","0.0-293.0","39GAF6DQWSMREH39XVW7OQYB2FP1VM","A3OV174HQJIJK8","3HUR21WDDUBEMSLDIXZW1FAIHW8YX3","","null","<img src=""img/food1.png"" style=""width:200px; border:14px solid green;"">","null","","","","","","","","","",""
"","image-keyboard-response","204","118957","0.0-294.0","39GAF6DQWSMREH39XVW7OQYB2FP1VM","A3OV174HQJIJK8","3HUR21WDDUBEMSLDIXZW1FAIHW8YX3","","806.7000000029802","img/food3.png","76","807.5","3","1","","3","1","1,0.5,0,1,0.5,0,0.5,0,1","1,0.5,0,1,0.5,0,0.5,0,1","1",""
"","html-keyboard-response","205","119258","0.0-295.0","39GAF6DQWSMREH39XVW7OQYB2FP1VM","A3OV174HQJIJK8","3HUR21WDDUBEMSLDIXZW1FAIHW8YX3","","null","<img src=""img/food3.png"" style=""width:200px; border:14px solid green;"">","null","","","","","","","","","",""
"","image-keyboard-response","206","119830","0.0-296.0","39GAF6DQWSMREH39XVW7OQYB2FP1VM","A3OV174HQJIJK8","3HUR21WDDUBEMSLDIXZW1FAIHW8YX3","","571.2999999970198","img/food4.png","75","572.2000000029802","2","0","","1","1","1,0.5,0,1,0.5,0,0.5,0,1","1,0.5,0,1,0.5,0,0.5,0,1","1",""
"","html-keyboard-response","207","120133","0.0-297.0","39GAF6DQWSMREH39XVW7OQYB2FP1VM","A3OV174HQJIJK8","3HUR21WDDUBEMSLDIXZW1FAIHW8YX3","","null","<img src=""img/food4.png"" style=""width:200px;border:14px solid red;"">","null","","","","","","","","","",""
"","image-keyboard-response","208","120600","0.0-298.0","39GAF6DQWSMREH39XVW7OQYB2FP1VM","A3OV174HQJIJK8","3HUR21WDDUBEMSLDIXZW1FAIHW8YX3","","466.29999999701977","img/food4.png","75","467.20000000298023","2","0","","1","1","1,0.5,0,1,0.5,0,0.5,0,1","1,0.5,0,1,0.5,0,0.5,0,1","1",""
"","html-keyboard-response","209","120902","0.0-299.0","39GAF6DQWSMREH39XVW7OQYB2FP1VM","A3OV174HQJIJK8","3HUR21WDDUBEMSLDIXZW1FAIHW8YX3","","null","<img src=""img/food4.png"" style=""width:200px;border:14px solid red;"">","null","","","","","","","","","",""
"","image-keyboard-response","210","121879","0.0-300.0","39GAF6DQWSMREH39XVW7OQYB2FP1VM","A3OV174HQJIJK8","3HUR21WDDUBEMSLDIXZW1FAIHW8YX3","","975.9000000059605","img/food1.png","74","976.7999999970198","1","1","","2","1","1,0.5,0,1,0.5,0,0.5,0,1","1,0.5,0,1,0.5,0,0.5,0,1","1",""
"","html-keyboard-response","211","122181","0.0-301.0","39GAF6DQWSMREH39XVW7OQYB2FP1VM","A3OV174HQJIJK8","3HUR21WDDUBEMSLDIXZW1FAIHW8YX3","","null","<img src=""img/food1.png"" style=""width:200px; border:14px solid green;"">","null","","","","","","","","","",""
"","image-keyboard-response","212","122772","0.0-302.0","39GAF6DQWSMREH39XVW7OQYB2FP1VM","A3OV174HQJIJK8","3HUR21WDDUBEMSLDIXZW1FAIHW8YX3","","590","img/food4.png","75","590.7000000029802","2","0","","1","1","1,0.5,0,1,0.5,0,0.5,0,1","1,0.5,0,1,0.5,0,0.5,0,1","1",""
"","html-keyboard-response","213","123075","0.0-303.0","39GAF6DQWSMREH39XVW7OQYB2FP1VM","A3OV174HQJIJK8","3HUR21WDDUBEMSLDIXZW1FAIHW8YX3","","null","<img src=""img/food4.png"" style=""width:200px;border:14px solid red;"">","null","","","","","","","","","",""
"","image-keyboard-response","214","123547","0.0-304.0","39GAF6DQWSMREH39XVW7OQYB2FP1VM","A3OV174HQJIJK8","3HUR21WDDUBEMSLDIXZW1FAIHW8YX3","","471.29999999701977","img/food4.png","76","472.1000000089407","3","0","","1","1","1,0.5,0,1,0.5,0,0.5,0,1","1,0.5,0,1,0.5,0,0.5,0,1","1",""
"","html-keyboard-response","215","123849","0.0-305.0","39GAF6DQWSMREH39XVW7OQYB2FP1VM","A3OV174HQJIJK8","3HUR21WDDUBEMSLDIXZW1FAIHW8YX3","","null","<img src=""img/food4.png"" style=""width:200px;border:14px solid red;"">","null","","","","","","","","","",""
"","image-keyboard-response","216","124952","0.0-306.0","39GAF6DQWSMREH39XVW7OQYB2FP1VM","A3OV174HQJIJK8","3HUR21WDDUBEMSLDIXZW1FAIHW8YX3","","1102.2000000029802","img/food3.png","76","1103","3","1","","3","1","1,0.5,0,1,0.5,0,0.5,0,1","1,0.5,0,1,0.5,0,0.5,0,1","1",""
"","html-keyboard-response","217","125254","0.0-307.0","39GAF6DQWSMREH39XVW7OQYB2FP1VM","A3OV174HQJIJK8","3HUR21WDDUBEMSLDIXZW1FAIHW8YX3","","null","<img src=""img/food3.png"" style=""width:200px; border:14px solid green;"">","null","","","","","","","","","",""
"","image-keyboard-response","218","125621","0.0-308.0","39GAF6DQWSMREH39XVW7OQYB2FP1VM","A3OV174HQJIJK8","3HUR21WDDUBEMSLDIXZW1FAIHW8YX3","","366","img/food3.png","76","366.70000000298023","3","1","","3","1","1,0.5,0,1,0.5,0,0.5,0,1","1,0.5,0,1,0.5,0,0.5,0,1","1",""
"","html-keyboard-response","219","125923","0.0-309.0","39GAF6DQWSMREH39XVW7OQYB2FP1VM","A3OV174HQJIJK8","3HUR21WDDUBEMSLDIXZW1FAIHW8YX3","","null","<img src=""img/food3.png"" style=""width:200px; border:14px solid green;"">","null","","","","","","","","","",""
"","image-keyboard-response","220","126729","0.0-310.0","39GAF6DQWSMREH39XVW7OQYB2FP1VM","A3OV174HQJIJK8","3HUR21WDDUBEMSLDIXZW1FAIHW8YX3","","805.5999999940395","img/food1.png","74","806.3999999910593","1","1","","2","1","1,0.5,0,1,0.5,0,0.5,0,1","1,0.5,0,1,0.5,0,0.5,0,1","1",""
"","html-keyboard-response","221","127031","0.0-311.0","39GAF6DQWSMREH39XVW7OQYB2FP1VM","A3OV174HQJIJK8","3HUR21WDDUBEMSLDIXZW1FAIHW8YX3","","null","<img src=""img/food1.png"" style=""width:200px; border:14px solid green;"">","null","","","","","","","","","",""
"","image-keyboard-response","222","127587","0.0-312.0","39GAF6DQWSMREH39XVW7OQYB2FP1VM","A3OV174HQJIJK8","3HUR21WDDUBEMSLDIXZW1FAIHW8YX3","","554.5999999940395","img/food4.png","75","555.3999999910593","2","0","","1","1","1,0.5,0,1,0.5,0,0.5,0,1","1,0.5,0,1,0.5,0,0.5,0,1","1",""
"","html-keyboard-response","223","127889","0.0-313.0","39GAF6DQWSMREH39XVW7OQYB2FP1VM","A3OV174HQJIJK8","3HUR21WDDUBEMSLDIXZW1FAIHW8YX3","","null","<img src=""img/food4.png"" style=""width:200px;border:14px solid red;"">","null","","","","","","","","","",""
"","image-keyboard-response","224","128264","0.0-314.0","39GAF6DQWSMREH39XVW7OQYB2FP1VM","A3OV174HQJIJK8","3HUR21WDDUBEMSLDIXZW1FAIHW8YX3","","374.40000000596046","img/food4.png","75","375.20000000298023","2","0","","1","1","1,0.5,0,1,0.5,0,0.5,0,1","1,0.5,0,1,0.5,0,0.5,0,1","1",""
"","html-keyboard-response","225","128567","0.0-315.0","39GAF6DQWSMREH39XVW7OQYB2FP1VM","A3OV174HQJIJK8","3HUR21WDDUBEMSLDIXZW1FAIHW8YX3","","null","<img src=""img/food4.png"" style=""width:200px;border:14px solid red;"">","null","","","","","","","","","",""
"","image-keyboard-response","226","129471","0.0-316.0","39GAF6DQWSMREH39XVW7OQYB2FP1VM","A3OV174HQJIJK8","3HUR21WDDUBEMSLDIXZW1FAIHW8YX3","","903.7999999970198","img/food1.png","74","904.7000000029802","1","1","","2","1","1,0.5,0,1,0.5,0,0.5,0,1","1,0.5,0,1,0.5,0,0.5,0,1","1",""
"","html-keyboard-response","227","129773","0.0-317.0","39GAF6DQWSMREH39XVW7OQYB2FP1VM","A3OV174HQJIJK8","3HUR21WDDUBEMSLDIXZW1FAIHW8YX3","","null","<img src=""img/food1.png"" style=""width:200px; border:14px solid green;"">","null","","","","","","","","","",""
"","image-keyboard-response","228","130159","0.0-318.0","39GAF6DQWSMREH39XVW7OQYB2FP1VM","A3OV174HQJIJK8","3HUR21WDDUBEMSLDIXZW1FAIHW8YX3","","384.70000000298023","img/food1.png","74","385.70000000298023","1","1","","2","1","1,0.5,0,1,0.5,0,0.5,0,1","1,0.5,0,1,0.5,0,0.5,0,1","1",""
"","html-keyboard-response","229","130461","0.0-319.0","39GAF6DQWSMREH39XVW7OQYB2FP1VM","A3OV174HQJIJK8","3HUR21WDDUBEMSLDIXZW1FAIHW8YX3","","null","<img src=""img/food1.png"" style=""width:200px; border:14px solid green;"">","null","","","","","","","","","",""
"","image-keyboard-response","230","130818","0.0-320.0","39GAF6DQWSMREH39XVW7OQYB2FP1VM","A3OV174HQJIJK8","3HUR21WDDUBEMSLDIXZW1FAIHW8YX3","","356.20000000298023","img/food1.png","74","357.09999999403954","1","1","","2","1","1,0.5,0,1,0.5,0,0.5,0,1","1,0.5,0,1,0.5,0,0.5,0,1","1",""
"","html-keyboard-response","231","131120","0.0-321.0","39GAF6DQWSMREH39XVW7OQYB2FP1VM","A3OV174HQJIJK8","3HUR21WDDUBEMSLDIXZW1FAIHW8YX3","","null","<img src=""img/food1.png"" style=""width:200px; border:14px solid green;"">","null","","","","","","","","","",""
"","image-keyboard-response","232","131428","0.0-322.0","39GAF6DQWSMREH39XVW7OQYB2FP1VM","A3OV174HQJIJK8","3HUR21WDDUBEMSLDIXZW1FAIHW8YX3","","307","img/food1.png","74","307.90000000596046","1","1","","2","1","1,0.5,0,1,0.5,0,0.5,0,1","1,0.5,0,1,0.5,0,0.5,0,1","1",""
"","html-keyboard-response","233","131730","0.0-323.0","39GAF6DQWSMREH39XVW7OQYB2FP1VM","A3OV174HQJIJK8","3HUR21WDDUBEMSLDIXZW1FAIHW8YX3","","null","<img src=""img/food1.png"" style=""width:200px; border:14px solid green;"">","null","","","","","","","","","",""
"","image-keyboard-response","234","132556","0.0-324.0","39GAF6DQWSMREH39XVW7OQYB2FP1VM","A3OV174HQJIJK8","3HUR21WDDUBEMSLDIXZW1FAIHW8YX3","","825.3999999910593","img/food4.png","76","826.1000000089407","3","0","","1","1","1,0.5,0,1,0.5,0,0.5,0,1","1,0.5,0,1,0.5,0,0.5,0,1","1",""
"","html-keyboard-response","235","132858","0.0-325.0","39GAF6DQWSMREH39XVW7OQYB2FP1VM","A3OV174HQJIJK8","3HUR21WDDUBEMSLDIXZW1FAIHW8YX3","","null","<img src=""img/food4.png"" style=""width:200px;border:14px solid red;"">","null","","","","","","","","","",""
"","image-keyboard-response","236","133206","0.0-326.0","39GAF6DQWSMREH39XVW7OQYB2FP1VM","A3OV174HQJIJK8","3HUR21WDDUBEMSLDIXZW1FAIHW8YX3","","347.6000000089407","img/food4.png","74","348.29999999701977","1","1","","1","1","1,0.5,0,1,0.5,0,0.5,0,1","1,0.5,0,1,0.5,0,0.5,0,1","1",""
"","html-keyboard-response","237","133509","0.0-327.0","39GAF6DQWSMREH39XVW7OQYB2FP1VM","A3OV174HQJIJK8","3HUR21WDDUBEMSLDIXZW1FAIHW8YX3","","null","<img src=""img/food4.png"" style=""width:200px; border:14px solid green;"">","null","","","","","","","","","",""
"","image-keyboard-response","238","133862","0.0-328.0","39GAF6DQWSMREH39XVW7OQYB2FP1VM","A3OV174HQJIJK8","3HUR21WDDUBEMSLDIXZW1FAIHW8YX3","","351.8999999910593","img/food4.png","74","352.79999999701977","1","1","","1","1","1,0.5,0,1,0.5,0,0.5,0,1","1,0.5,0,1,0.5,0,0.5,0,1","1",""
"","html-keyboard-response","239","134164","0.0-329.0","39GAF6DQWSMREH39XVW7OQYB2FP1VM","A3OV174HQJIJK8","3HUR21WDDUBEMSLDIXZW1FAIHW8YX3","","null","<img src=""img/food4.png"" style=""width:200px; border:14px solid green;"">","null","","","","","","","","","",""
"","image-keyboard-response","240","135533","0.0-330.0","39GAF6DQWSMREH39XVW7OQYB2FP1VM","A3OV174HQJIJK8","3HUR21WDDUBEMSLDIXZW1FAIHW8YX3","","1368.5","img/food1.png","75","1369.4000000059605","2","0","","2","1","1,0.5,0,1,0.5,0,0.5,0,1","1,0.5,0,1,0.5,0,0.5,0,1","1",""
"","html-keyboard-response","241","135835","0.0-331.0","39GAF6DQWSMREH39XVW7OQYB2FP1VM","A3OV174HQJIJK8","3HUR21WDDUBEMSLDIXZW1FAIHW8YX3","","null","<img src=""img/food1.png"" style=""width:200px;border:14px solid red;"">","null","","","","","","","","","",""
"","image-keyboard-response","242","136104","0.0-332.0","39GAF6DQWSMREH39XVW7OQYB2FP1VM","A3OV174HQJIJK8","3HUR21WDDUBEMSLDIXZW1FAIHW8YX3","","268","img/food3.png","74","268.79999999701977","1","0","","3","1","1,0.5,0,1,0.5,0,0.5,0,1","1,0.5,0,1,0.5,0,0.5,0,1","1",""
"","html-keyboard-response","243","136406","0.0-333.0","39GAF6DQWSMREH39XVW7OQYB2FP1VM","A3OV174HQJIJK8","3HUR21WDDUBEMSLDIXZW1FAIHW8YX3","","null","<img src=""img/food3.png"" style=""width:200px;border:14px solid red;"">","null","","","","","","","","","",""
"","image-keyboard-response","244","136976","0.0-334.0","39GAF6DQWSMREH39XVW7OQYB2FP1VM","A3OV174HQJIJK8","3HUR21WDDUBEMSLDIXZW1FAIHW8YX3","","569.2000000029802","img/food1.png","76","570.1000000089407","3","0","","2","1","1,0.5,0,1,0.5,0,0.5,0,1","1,0.5,0,1,0.5,0,0.5,0,1","1",""
"","html-keyboard-response","245","137279","0.0-335.0","39GAF6DQWSMREH39XVW7OQYB2FP1VM","A3OV174HQJIJK8","3HUR21WDDUBEMSLDIXZW1FAIHW8YX3","","null","<img src=""img/food1.png"" style=""width:200px;border:14px solid red;"">","null","","","","","","","","","",""
"","image-keyboard-response","246","137410","0.0-336.0","39GAF6DQWSMREH39XVW7OQYB2FP1VM","A3OV174HQJIJK8","3HUR21WDDUBEMSLDIXZW1FAIHW8YX3","","130.6000000089407","img/food4.png","75","131.40000000596046","2","1","","1","1","1,0.5,0,1,0.5,0,0.5,0,1","1,0.5,0,1,0.5,0,0.5,0,1","1",""
"","html-keyboard-response","247","137712","0.0-337.0","39GAF6DQWSMREH39XVW7OQYB2FP1VM","A3OV174HQJIJK8","3HUR21WDDUBEMSLDIXZW1FAIHW8YX3","","null","<img src=""img/food4.png"" style=""width:200px; border:14px solid green;"">","null","","","","","","","","","",""
"","image-keyboard-response","248","139449","0.0-338.0","39GAF6DQWSMREH39XVW7OQYB2FP1VM","A3OV174HQJIJK8","3HUR21WDDUBEMSLDIXZW1FAIHW8YX3","","1736.0999999940395","img/food1.png","74","1736.7999999970198","1","1","","2","1","1,0.5,0,1,0.5,0,0.5,0,1","1,0.5,0,1,0.5,0,0.5,0,1","1",""
"","html-keyboard-response","249","139751","0.0-339.0","39GAF6DQWSMREH39XVW7OQYB2FP1VM","A3OV174HQJIJK8","3HUR21WDDUBEMSLDIXZW1FAIHW8YX3","","null","<img src=""img/food1.png"" style=""width:200px; border:14px solid green;"">","null","","","","","","","","","",""
"","image-keyboard-response","250","141073","0.0-340.0","39GAF6DQWSMREH39XVW7OQYB2FP1VM","A3OV174HQJIJK8","3HUR21WDDUBEMSLDIXZW1FAIHW8YX3","","1321.0999999940395","img/food3.png","76","1322.2999999970198","3","1","","3","1","1,0.5,0,1,0.5,0,0.5,0,1","1,0.5,0,1,0.5,0,0.5,0,1","1",""
"","html-keyboard-response","251","141376","0.0-341.0","39GAF6DQWSMREH39XVW7OQYB2FP1VM","A3OV174HQJIJK8","3HUR21WDDUBEMSLDIXZW1FAIHW8YX3","","null","<img src=""img/food3.png"" style=""width:200px; border:14px solid green;"">","null","","","","","","","","","",""
"","image-keyboard-response","252","141861","0.0-342.0","39GAF6DQWSMREH39XVW7OQYB2FP1VM","A3OV174HQJIJK8","3HUR21WDDUBEMSLDIXZW1FAIHW8YX3","","484.5","img/food3.png","76","485.29999999701977","3","1","","3","1","1,0.5,0,1,0.5,0,0.5,0,1","1,0.5,0,1,0.5,0,0.5,0,1","1",""
"","html-keyboard-response","253","142162","0.0-343.0","39GAF6DQWSMREH39XVW7OQYB2FP1VM","A3OV174HQJIJK8","3HUR21WDDUBEMSLDIXZW1FAIHW8YX3","","null","<img src=""img/food3.png"" style=""width:200px; border:14px solid green;"">","null","","","","","","","","","",""
"","image-keyboard-response","254","143043","0.0-344.0","39GAF6DQWSMREH39XVW7OQYB2FP1VM","A3OV174HQJIJK8","3HUR21WDDUBEMSLDIXZW1FAIHW8YX3","","879.9000000059605","img/food4.png","74","880.6999999880791","1","1","","1","1","1,0.5,0,1,0.5,0,0.5,0,1","1,0.5,0,1,0.5,0,0.5,0,1","1",""
"","html-keyboard-response","255","143345","0.0-345.0","39GAF6DQWSMREH39XVW7OQYB2FP1VM","A3OV174HQJIJK8","3HUR21WDDUBEMSLDIXZW1FAIHW8YX3","","null","<img src=""img/food4.png"" style=""width:200px; border:14px solid green;"">","null","","","","","","","","","",""
"","image-keyboard-response","256","144286","0.0-346.0","39GAF6DQWSMREH39XVW7OQYB2FP1VM","A3OV174HQJIJK8","3HUR21WDDUBEMSLDIXZW1FAIHW8YX3","","940.3999999910593","img/food1.png","74","941.0999999940395","1","1","","2","1","1,0.5,0,1,0.5,0,0.5,0,1","1,0.5,0,1,0.5,0,0.5,0,1","1",""
"","html-keyboard-response","257","144602","0.0-347.0","39GAF6DQWSMREH39XVW7OQYB2FP1VM","A3OV174HQJIJK8","3HUR21WDDUBEMSLDIXZW1FAIHW8YX3","","null","<img src=""img/food1.png"" style=""width:200px; border:14px solid green;"">","null","","","","","","","","","",""
"","image-keyboard-response","258","145021","0.0-348.0","39GAF6DQWSMREH39XVW7OQYB2FP1VM","A3OV174HQJIJK8","3HUR21WDDUBEMSLDIXZW1FAIHW8YX3","","418.5","img/food1.png","74","419.29999999701977","1","1","","2","1","1,0.5,0,1,0.5,0,0.5,0,1","1,0.5,0,1,0.5,0,0.5,0,1","1",""
"","html-keyboard-response","259","145323","0.0-349.0","39GAF6DQWSMREH39XVW7OQYB2FP1VM","A3OV174HQJIJK8","3HUR21WDDUBEMSLDIXZW1FAIHW8YX3","","null","<img src=""img/food1.png"" style=""width:200px; border:14px solid green;"">","null","","","","","","","","","",""
"","image-keyboard-response","260","145947","0.0-350.0","39GAF6DQWSMREH39XVW7OQYB2FP1VM","A3OV174HQJIJK8","3HUR21WDDUBEMSLDIXZW1FAIHW8YX3","","622.8999999910593","img/food4.png","75","623.6999999880791","2","0","","1","1","1,0.5,0,1,0.5,0,0.5,0,1","1,0.5,0,1,0.5,0,0.5,0,1","1",""
"","html-keyboard-response","261","146249","0.0-351.0","39GAF6DQWSMREH39XVW7OQYB2FP1VM","A3OV174HQJIJK8","3HUR21WDDUBEMSLDIXZW1FAIHW8YX3","","null","<img src=""img/food4.png"" style=""width:200px;border:14px solid red;"">","null","","","","","","","","","",""
"","image-keyboard-response","262","147084","0.0-352.0","39GAF6DQWSMREH39XVW7OQYB2FP1VM","A3OV174HQJIJK8","3HUR21WDDUBEMSLDIXZW1FAIHW8YX3","","834.5","img/food3.png","76","835.4000000059605","3","1","","3","1","1,0.5,0,1,0.5,0,0.5,0,1","1,0.5,0,1,0.5,0,0.5,0,1","1",""
"","html-keyboard-response","263","147386","0.0-353.0","39GAF6DQWSMREH39XVW7OQYB2FP1VM","A3OV174HQJIJK8","3HUR21WDDUBEMSLDIXZW1FAIHW8YX3","","null","<img src=""img/food3.png"" style=""width:200px; border:14px solid green;"">","null","","","","","","","","","",""
"","image-keyboard-response","264","147731","0.0-354.0","39GAF6DQWSMREH39XVW7OQYB2FP1VM","A3OV174HQJIJK8","3HUR21WDDUBEMSLDIXZW1FAIHW8YX3","","344.40000000596046","img/food3.png","76","345.19999998807907","3","1","","3","1","1,0.5,0,1,0.5,0,0.5,0,1","1,0.5,0,1,0.5,0,0.5,0,1","1",""
"","html-keyboard-response","265","148032","0.0-355.0","39GAF6DQWSMREH39XVW7OQYB2FP1VM","A3OV174HQJIJK8","3HUR21WDDUBEMSLDIXZW1FAIHW8YX3","","null","<img src=""img/food3.png"" style=""width:200px; border:14px solid green;"">","null","","","","","","","","","",""
"","image-keyboard-response","266","148399","0.0-356.0","39GAF6DQWSMREH39XVW7OQYB2FP1VM","A3OV174HQJIJK8","3HUR21WDDUBEMSLDIXZW1FAIHW8YX3","","366","img/food3.png","76","366.90000000596046","3","1","","3","1","1,0.5,0,1,0.5,0,0.5,0,1","1,0.5,0,1,0.5,0,0.5,0,1","1",""
"","html-keyboard-response","267","148701","0.0-357.0","39GAF6DQWSMREH39XVW7OQYB2FP1VM","A3OV174HQJIJK8","3HUR21WDDUBEMSLDIXZW1FAIHW8YX3","","null","<img src=""img/food3.png"" style=""width:200px; border:14px solid green;"">","null","","","","","","","","","",""
"","image-keyboard-response","268","149559","0.0-358.0","39GAF6DQWSMREH39XVW7OQYB2FP1VM","A3OV174HQJIJK8","3HUR21WDDUBEMSLDIXZW1FAIHW8YX3","","857.5","img/food4.png","74","858.2000000029802","1","1","","1","1","1,0.5,0,1,0.5,0,0.5,0,1","1,0.5,0,1,0.5,0,0.5,0,1","1",""
"","html-keyboard-response","269","149861","0.0-359.0","39GAF6DQWSMREH39XVW7OQYB2FP1VM","A3OV174HQJIJK8","3HUR21WDDUBEMSLDIXZW1FAIHW8YX3","","null","<img src=""img/food4.png"" style=""width:200px; border:14px solid green;"">","null","","","","","","","","","",""
"","image-keyboard-response","270","150728","0.0-360.0","39GAF6DQWSMREH39XVW7OQYB2FP1VM","A3OV174HQJIJK8","3HUR21WDDUBEMSLDIXZW1FAIHW8YX3","","866.2999999970198","img/food3.png","76","867.2999999970198","3","1","","3","1","1,0.5,0,1,0.5,0,0.5,0,1","1,0.5,0,1,0.5,0,0.5,0,1","1",""
"","html-keyboard-response","271","151030","0.0-361.0","39GAF6DQWSMREH39XVW7OQYB2FP1VM","A3OV174HQJIJK8","3HUR21WDDUBEMSLDIXZW1FAIHW8YX3","","null","<img src=""img/food3.png"" style=""width:200px; border:14px solid green;"">","null","","","","","","","","","",""
"","image-keyboard-response","272","151367","0.0-362.0","39GAF6DQWSMREH39XVW7OQYB2FP1VM","A3OV174HQJIJK8","3HUR21WDDUBEMSLDIXZW1FAIHW8YX3","","335.70000000298023","img/food3.png","76","336.5","3","1","","3","1","1,0.5,0,1,0.5,0,0.5,0,1","1,0.5,0,1,0.5,0,0.5,0,1","1",""
"","html-keyboard-response","273","151669","0.0-363.0","39GAF6DQWSMREH39XVW7OQYB2FP1VM","A3OV174HQJIJK8","3HUR21WDDUBEMSLDIXZW1FAIHW8YX3","","null","<img src=""img/food3.png"" style=""width:200px; border:14px solid green;"">","null","","","","","","","","","",""
"","image-keyboard-response","274","152445","0.0-364.0","39GAF6DQWSMREH39XVW7OQYB2FP1VM","A3OV174HQJIJK8","3HUR21WDDUBEMSLDIXZW1FAIHW8YX3","","775.2000000029802","img/food4.png","74","776","1","1","","1","1","1,0.5,0,1,0.5,0,0.5,0,1","1,0.5,0,1,0.5,0,0.5,0,1","1",""
"","html-keyboard-response","275","152746","0.0-365.0","39GAF6DQWSMREH39XVW7OQYB2FP1VM","A3OV174HQJIJK8","3HUR21WDDUBEMSLDIXZW1FAIHW8YX3","","null","<img src=""img/food4.png"" style=""width:200px; border:14px solid green;"">","null","","","","","","","","","",""
"","image-keyboard-response","276","153479","0.0-366.0","39GAF6DQWSMREH39XVW7OQYB2FP1VM","A3OV174HQJIJK8","3HUR21WDDUBEMSLDIXZW1FAIHW8YX3","","732","img/food3.png","76","732.8999999910593","3","1","","3","1","1,0.5,0,1,0.5,0,0.5,0,1","1,0.5,0,1,0.5,0,0.5,0,1","1",""
"","html-keyboard-response","277","153782","0.0-367.0","39GAF6DQWSMREH39XVW7OQYB2FP1VM","A3OV174HQJIJK8","3HUR21WDDUBEMSLDIXZW1FAIHW8YX3","","null","<img src=""img/food3.png"" style=""width:200px; border:14px solid green;"">","null","","","","","","","","","",""
"","image-keyboard-response","278","154641","0.0-368.0","39GAF6DQWSMREH39XVW7OQYB2FP1VM","A3OV174HQJIJK8","3HUR21WDDUBEMSLDIXZW1FAIHW8YX3","","858.1999999880791","img/food1.png","75","859.0999999940395","2","0","","2","1","1,0.5,0,1,0.5,0,0.5,0,1","1,0.5,0,1,0.5,0,0.5,0,1","1",""
"","html-keyboard-response","279","154942","0.0-369.0","39GAF6DQWSMREH39XVW7OQYB2FP1VM","A3OV174HQJIJK8","3HUR21WDDUBEMSLDIXZW1FAIHW8YX3","","null","<img src=""img/food1.png"" style=""width:200px;border:14px solid red;"">","null","","","","","","","","","",""
"","image-keyboard-response","280","155873","0.0-370.0","39GAF6DQWSMREH39XVW7OQYB2FP1VM","A3OV174HQJIJK8","3HUR21WDDUBEMSLDIXZW1FAIHW8YX3","","929.9000000059605","img/food4.png","74","930.5999999940395","1","1","","1","1","1,0.5,0,1,0.5,0,0.5,0,1","1,0.5,0,1,0.5,0,0.5,0,1","1",""
"","html-keyboard-response","281","156175","0.0-371.0","39GAF6DQWSMREH39XVW7OQYB2FP1VM","A3OV174HQJIJK8","3HUR21WDDUBEMSLDIXZW1FAIHW8YX3","","null","<img src=""img/food4.png"" style=""width:200px; border:14px solid green;"">","null","","","","","","","","","",""
"","image-keyboard-response","282","156528","0.0-372.0","39GAF6DQWSMREH39XVW7OQYB2FP1VM","A3OV174HQJIJK8","3HUR21WDDUBEMSLDIXZW1FAIHW8YX3","","351.79999999701977","img/food4.png","74","352.70000000298023","1","1","","1","1","1,0.5,0,1,0.5,0,0.5,0,1","1,0.5,0,1,0.5,0,0.5,0,1","1",""
"","html-keyboard-response","283","156830","0.0-373.0","39GAF6DQWSMREH39XVW7OQYB2FP1VM","A3OV174HQJIJK8","3HUR21WDDUBEMSLDIXZW1FAIHW8YX3","","null","<img src=""img/food4.png"" style=""width:200px; border:14px solid green;"">","null","","","","","","","","","",""
"","image-keyboard-response","284","157280","0.0-374.0","39GAF6DQWSMREH39XVW7OQYB2FP1VM","A3OV174HQJIJK8","3HUR21WDDUBEMSLDIXZW1FAIHW8YX3","","449.29999999701977","img/food1.png","74","450.09999999403954","1","1","","2","1","1,0.5,0,1,0.5,0,0.5,0,1","1,0.5,0,1,0.5,0,0.5,0,1","1",""
"","html-keyboard-response","285","157581","0.0-375.0","39GAF6DQWSMREH39XVW7OQYB2FP1VM","A3OV174HQJIJK8","3HUR21WDDUBEMSLDIXZW1FAIHW8YX3","","null","<img src=""img/food1.png"" style=""width:200px; border:14px solid green;"">","null","","","","","","","","","",""
"","image-keyboard-response","286","158052","0.0-376.0","39GAF6DQWSMREH39XVW7OQYB2FP1VM","A3OV174HQJIJK8","3HUR21WDDUBEMSLDIXZW1FAIHW8YX3","","469.59999999403954","img/food4.png","74","470.5","1","1","","1","1","1,0.5,0,1,0.5,0,0.5,0,1","1,0.5,0,1,0.5,0,0.5,0,1","1",""
"","html-keyboard-response","287","158354","0.0-377.0","39GAF6DQWSMREH39XVW7OQYB2FP1VM","A3OV174HQJIJK8","3HUR21WDDUBEMSLDIXZW1FAIHW8YX3","","null","<img src=""img/food4.png"" style=""width:200px; border:14px solid green;"">","null","","","","","","","","","",""
"","image-keyboard-response","288","159096","0.0-378.0","39GAF6DQWSMREH39XVW7OQYB2FP1VM","A3OV174HQJIJK8","3HUR21WDDUBEMSLDIXZW1FAIHW8YX3","","741.2999999970198","img/food3.png","76","742.1000000089407","3","1","","3","1","1,0.5,0,1,0.5,0,0.5,0,1","1,0.5,0,1,0.5,0,0.5,0,1","1",""
"","html-keyboard-response","289","159397","0.0-379.0","39GAF6DQWSMREH39XVW7OQYB2FP1VM","A3OV174HQJIJK8","3HUR21WDDUBEMSLDIXZW1FAIHW8YX3","","null","<img src=""img/food3.png"" style=""width:200px; border:14px solid green;"">","null","","","","","","","","","",""
"","image-keyboard-response","290","159968","0.0-380.0","39GAF6DQWSMREH39XVW7OQYB2FP1VM","A3OV174HQJIJK8","3HUR21WDDUBEMSLDIXZW1FAIHW8YX3","","569.7000000029802","img/food3.png","76","570.5999999940395","3","1","","3","1","1,0.5,0,1,0.5,0,0.5,0,1","1,0.5,0,1,0.5,0,0.5,0,1","1",""
"","html-keyboard-response","291","160270","0.0-381.0","39GAF6DQWSMREH39XVW7OQYB2FP1VM","A3OV174HQJIJK8","3HUR21WDDUBEMSLDIXZW1FAIHW8YX3","","null","<img src=""img/food3.png"" style=""width:200px; border:14px solid green;"">","null","","","","","","","","","",""
"","image-keyboard-response","292","160980","0.0-382.0","39GAF6DQWSMREH39XVW7OQYB2FP1VM","A3OV174HQJIJK8","3HUR21WDDUBEMSLDIXZW1FAIHW8YX3","","709","img/food4.png","74","709.7000000029802","1","1","","1","1","1,0.5,0,1,0.5,0,0.5,0,1","1,0.5,0,1,0.5,0,0.5,0,1","1",""
"","html-keyboard-response","293","161282","0.0-383.0","39GAF6DQWSMREH39XVW7OQYB2FP1VM","A3OV174HQJIJK8","3HUR21WDDUBEMSLDIXZW1FAIHW8YX3","","null","<img src=""img/food4.png"" style=""width:200px; border:14px solid green;"">","null","","","","","","","","","",""
"","image-keyboard-response","294","162197","0.0-384.0","39GAF6DQWSMREH39XVW7OQYB2FP1VM","A3OV174HQJIJK8","3HUR21WDDUBEMSLDIXZW1FAIHW8YX3","","914.5","img/food1.png","74","915.1999999880791","1","1","","2","1","1,0.5,0,1,0.5,0,0.5,0,1","1,0.5,0,1,0.5,0,0.5,0,1","1",""
"","html-keyboard-response","295","162499","0.0-385.0","39GAF6DQWSMREH39XVW7OQYB2FP1VM","A3OV174HQJIJK8","3HUR21WDDUBEMSLDIXZW1FAIHW8YX3","","null","<img src=""img/food1.png"" style=""width:200px; border:14px solid green;"">","null","","","","","","","","","",""
"","image-keyboard-response","296","162937","0.0-386.0","39GAF6DQWSMREH39XVW7OQYB2FP1VM","A3OV174HQJIJK8","3HUR21WDDUBEMSLDIXZW1FAIHW8YX3","","437.09999999403954","img/food1.png","74","437.90000000596046","1","1","","2","1","1,0.5,0,1,0.5,0,0.5,0,1","1,0.5,0,1,0.5,0,0.5,0,1","1",""
"","html-keyboard-response","297","163239","0.0-387.0","39GAF6DQWSMREH39XVW7OQYB2FP1VM","A3OV174HQJIJK8","3HUR21WDDUBEMSLDIXZW1FAIHW8YX3","","null","<img src=""img/food1.png"" style=""width:200px; border:14px solid green;"">","null","","","","","","","","","",""
"","image-keyboard-response","298","164094","0.0-388.0","39GAF6DQWSMREH39XVW7OQYB2FP1VM","A3OV174HQJIJK8","3HUR21WDDUBEMSLDIXZW1FAIHW8YX3","","854.0999999940395","img/food3.png","76","855","3","1","","3","1","1,0.5,0,1,0.5,0,0.5,0,1","1,0.5,0,1,0.5,0,0.5,0,1","1",""
"","html-keyboard-response","299","164396","0.0-389.0","39GAF6DQWSMREH39XVW7OQYB2FP1VM","A3OV174HQJIJK8","3HUR21WDDUBEMSLDIXZW1FAIHW8YX3","","null","<img src=""img/food3.png"" style=""width:200px; border:14px solid green;"">","null","","","","","","","","","",""
"","image-keyboard-response","300","165136","0.0-390.0","39GAF6DQWSMREH39XVW7OQYB2FP1VM","A3OV174HQJIJK8","3HUR21WDDUBEMSLDIXZW1FAIHW8YX3","","739","img/food4.png","74","739.7000000029802","1","1","","1","1","1,0.5,0,1,0.5,0,0.5,0,1","1,0.5,0,1,0.5,0,0.5,0,1","1",""
"","html-keyboard-response","301","165438","0.0-391.0","39GAF6DQWSMREH39XVW7OQYB2FP1VM","A3OV174HQJIJK8","3HUR21WDDUBEMSLDIXZW1FAIHW8YX3","","null","<img src=""img/food4.png"" style=""width:200px; border:14px solid green;"">","null","","","","","","","","","",""
"","image-keyboard-response","302","166863","0.0-392.0","39GAF6DQWSMREH39XVW7OQYB2FP1VM","A3OV174HQJIJK8","3HUR21WDDUBEMSLDIXZW1FAIHW8YX3","","1424","img/food1.png","74","1424.9000000059605","1","1","","2","1","1,0.5,0,1,0.5,0,0.5,0,1","1,0.5,0,1,0.5,0,0.5,0,1","1",""
"","html-keyboard-response","303","167165","0.0-393.0","39GAF6DQWSMREH39XVW7OQYB2FP1VM","A3OV174HQJIJK8","3HUR21WDDUBEMSLDIXZW1FAIHW8YX3","","null","<img src=""img/food1.png"" style=""width:200px; border:14px solid green;"">","null","","","","","","","","","",""
"","image-keyboard-response","304","168055","0.0-394.0","39GAF6DQWSMREH39XVW7OQYB2FP1VM","A3OV174HQJIJK8","3HUR21WDDUBEMSLDIXZW1FAIHW8YX3","","888.5999999940395","img/food4.png","74","889.5","1","1","","1","1","1,0.5,0,1,0.5,0,0.5,0,1","1,0.5,0,1,0.5,0,0.5,0,1","1",""
"","html-keyboard-response","305","168356","0.0-395.0","39GAF6DQWSMREH39XVW7OQYB2FP1VM","A3OV174HQJIJK8","3HUR21WDDUBEMSLDIXZW1FAIHW8YX3","","null","<img src=""img/food4.png"" style=""width:200px; border:14px solid green;"">","null","","","","","","","","","",""
"","image-keyboard-response","306","169086","0.0-396.0","39GAF6DQWSMREH39XVW7OQYB2FP1VM","A3OV174HQJIJK8","3HUR21WDDUBEMSLDIXZW1FAIHW8YX3","","729","img/food3.png","76","729.7999999970198","3","1","","3","1","1,0.5,0,1,0.5,0,0.5,0,1","1,0.5,0,1,0.5,0,0.5,0,1","1",""
"","html-keyboard-response","307","169388","0.0-397.0","39GAF6DQWSMREH39XVW7OQYB2FP1VM","A3OV174HQJIJK8","3HUR21WDDUBEMSLDIXZW1FAIHW8YX3","","null","<img src=""img/food3.png"" style=""width:200px; border:14px solid green;"">","null","","","","","","","","","",""
"","image-keyboard-response","308","170070","0.0-398.0","39GAF6DQWSMREH39XVW7OQYB2FP1VM","A3OV174HQJIJK8","3HUR21WDDUBEMSLDIXZW1FAIHW8YX3","","681.0999999940395","img/food1.png","74","682","1","1","","2","1","1,0.5,0,1,0.5,0,0.5,0,1","1,0.5,0,1,0.5,0,0.5,0,1","1",""
"","html-keyboard-response","309","170372","0.0-399.0","39GAF6DQWSMREH39XVW7OQYB2FP1VM","A3OV174HQJIJK8","3HUR21WDDUBEMSLDIXZW1FAIHW8YX3","","null","<img src=""img/food1.png"" style=""width:200px; border:14px solid green;"">","null","","","","","","","","","",""
"","image-keyboard-response","310","170929","0.0-400.0","39GAF6DQWSMREH39XVW7OQYB2FP1VM","A3OV174HQJIJK8","3HUR21WDDUBEMSLDIXZW1FAIHW8YX3","","556","img/food1.png","74","556.9000000059605","1","1","","2","1","1,0.5,0,1,0.5,0,0.5,0,1","1,0.5,0,1,0.5,0,0.5,0,1","1",""
"","html-keyboard-response","311","171231","0.0-401.0","39GAF6DQWSMREH39XVW7OQYB2FP1VM","A3OV174HQJIJK8","3HUR21WDDUBEMSLDIXZW1FAIHW8YX3","","null","<img src=""img/food1.png"" style=""width:200px; border:14px solid green;"">","null","","","","","","","","","",""
"","image-keyboard-response","312","172131","0.0-402.0","39GAF6DQWSMREH39XVW7OQYB2FP1VM","A3OV174HQJIJK8","3HUR21WDDUBEMSLDIXZW1FAIHW8YX3","","899.2999999970198","img/food4.png","74","900.0999999940395","1","1","","1","1","1,0.5,0,1,0.5,0,0.5,0,1","1,0.5,0,1,0.5,0,0.5,0,1","1",""
"","html-keyboard-response","313","172433","0.0-403.0","39GAF6DQWSMREH39XVW7OQYB2FP1VM","A3OV174HQJIJK8","3HUR21WDDUBEMSLDIXZW1FAIHW8YX3","","null","<img src=""img/food4.png"" style=""width:200px; border:14px solid green;"">","null","","","","","","","","","",""
"","image-keyboard-response","314","173142","0.0-404.0","39GAF6DQWSMREH39XVW7OQYB2FP1VM","A3OV174HQJIJK8","3HUR21WDDUBEMSLDIXZW1FAIHW8YX3","","708.7999999970198","img/food3.png","76","709.5999999940395","3","1","","3","1","1,0.5,0,1,0.5,0,0.5,0,1","1,0.5,0,1,0.5,0,0.5,0,1","1",""
"","html-keyboard-response","315","173443","0.0-405.0","39GAF6DQWSMREH39XVW7OQYB2FP1VM","A3OV174HQJIJK8","3HUR21WDDUBEMSLDIXZW1FAIHW8YX3","","null","<img src=""img/food3.png"" style=""width:200px; border:14px solid green;"">","null","","","","","","","","","",""
"","image-keyboard-response","316","174190","0.0-406.0","39GAF6DQWSMREH39XVW7OQYB2FP1VM","A3OV174HQJIJK8","3HUR21WDDUBEMSLDIXZW1FAIHW8YX3","","745.5","img/food4.png","74","746.2000000029802","1","1","","1","1","1,0.5,0,1,0.5,0,0.5,0,1","1,0.5,0,1,0.5,0,0.5,0,1","1",""
"","html-keyboard-response","317","174492","0.0-407.0","39GAF6DQWSMREH39XVW7OQYB2FP1VM","A3OV174HQJIJK8","3HUR21WDDUBEMSLDIXZW1FAIHW8YX3","","null","<img src=""img/food4.png"" style=""width:200px; border:14px solid green;"">","null","","","","","","","","","",""
"","image-keyboard-response","318","175261","0.0-408.0","39GAF6DQWSMREH39XVW7OQYB2FP1VM","A3OV174HQJIJK8","3HUR21WDDUBEMSLDIXZW1FAIHW8YX3","","767.8000000119209","img/food1.png","74","768.7000000029802","1","1","","2","1","1,0.5,0,1,0.5,0,0.5,0,1","1,0.5,0,1,0.5,0,0.5,0,1","1",""
"","html-keyboard-response","319","175562","0.0-409.0","39GAF6DQWSMREH39XVW7OQYB2FP1VM","A3OV174HQJIJK8","3HUR21WDDUBEMSLDIXZW1FAIHW8YX3","","null","<img src=""img/food1.png"" style=""width:200px; border:14px solid green;"">","null","","","","","","","","","",""
"","image-keyboard-response","320","176531","0.0-410.0","39GAF6DQWSMREH39XVW7OQYB2FP1VM","A3OV174HQJIJK8","3HUR21WDDUBEMSLDIXZW1FAIHW8YX3","","968.7000000029802","img/food3.png","76","969.5","3","1","","3","1","1,0.5,0,1,0.5,0,0.5,0,1","1,0.5,0,1,0.5,0,0.5,0,1","1",""
"","html-keyboard-response","321","176833","0.0-411.0","39GAF6DQWSMREH39XVW7OQYB2FP1VM","A3OV174HQJIJK8","3HUR21WDDUBEMSLDIXZW1FAIHW8YX3","","null","<img src=""img/food3.png"" style=""width:200px; border:14px solid green;"">","null","","","","","","","","","",""
"","image-keyboard-response","322","177388","0.0-412.0","39GAF6DQWSMREH39XVW7OQYB2FP1VM","A3OV174HQJIJK8","3HUR21WDDUBEMSLDIXZW1FAIHW8YX3","","554.5999999940395","img/food3.png","76","555.3999999910593","3","1","","3","1","1,0.5,0,1,0.5,0,0.5,0,1","1,0.5,0,1,0.5,0,0.5,0,1","1",""
"","html-keyboard-response","323","177690","0.0-413.0","39GAF6DQWSMREH39XVW7OQYB2FP1VM","A3OV174HQJIJK8","3HUR21WDDUBEMSLDIXZW1FAIHW8YX3","","null","<img src=""img/food3.png"" style=""width:200px; border:14px solid green;"">","null","","","","","","","","","",""
"","image-keyboard-response","324","178318","0.0-414.0","39GAF6DQWSMREH39XVW7OQYB2FP1VM","A3OV174HQJIJK8","3HUR21WDDUBEMSLDIXZW1FAIHW8YX3","","627.5999999940395","img/food1.png","74","628.3999999910593","1","1","","2","1","1,0.5,0,1,0.5,0,0.5,0,1","1,0.5,0,1,0.5,0,0.5,0,1","1",""
"","html-keyboard-response","325","178620","0.0-415.0","39GAF6DQWSMREH39XVW7OQYB2FP1VM","A3OV174HQJIJK8","3HUR21WDDUBEMSLDIXZW1FAIHW8YX3","","null","<img src=""img/food1.png"" style=""width:200px; border:14px solid green;"">","null","","","","","","","","","",""
"","image-keyboard-response","326","179738","0.0-416.0","39GAF6DQWSMREH39XVW7OQYB2FP1VM","A3OV174HQJIJK8","3HUR21WDDUBEMSLDIXZW1FAIHW8YX3","","1117.5999999940395","img/food3.png","76","1118.5","3","1","","3","1","1,0.5,0,1,0.5,0,0.5,0,1","1,0.5,0,1,0.5,0,0.5,0,1","1",""
"","html-keyboard-response","327","180041","0.0-417.0","39GAF6DQWSMREH39XVW7OQYB2FP1VM","A3OV174HQJIJK8","3HUR21WDDUBEMSLDIXZW1FAIHW8YX3","","null","<img src=""img/food3.png"" style=""width:200px; border:14px solid green;"">","null","","","","","","","","","",""
"","image-keyboard-response","328","180524","0.0-418.0","39GAF6DQWSMREH39XVW7OQYB2FP1VM","A3OV174HQJIJK8","3HUR21WDDUBEMSLDIXZW1FAIHW8YX3","","482.59999999403954","img/food3.png","76","483.3999999910593","3","1","","3","1","1,0.5,0,1,0.5,0,0.5,0,1","1,0.5,0,1,0.5,0,0.5,0,1","1",""
"","html-keyboard-response","329","180826","0.0-419.0","39GAF6DQWSMREH39XVW7OQYB2FP1VM","A3OV174HQJIJK8","3HUR21WDDUBEMSLDIXZW1FAIHW8YX3","","null","<img src=""img/food3.png"" style=""width:200px; border:14px solid green;"">","null","","","","","","","","","",""
"","image-keyboard-response","330","181450","0.0-420.0","39GAF6DQWSMREH39XVW7OQYB2FP1VM","A3OV174HQJIJK8","3HUR21WDDUBEMSLDIXZW1FAIHW8YX3","","623.5999999940395","img/food1.png","74","624.5","1","1","","2","1","1,0.5,0,1,0.5,0,0.5,0,1","1,0.5,0,1,0.5,0,0.5,0,1","1",""
"","html-keyboard-response","331","181752","0.0-421.0","39GAF6DQWSMREH39XVW7OQYB2FP1VM","A3OV174HQJIJK8","3HUR21WDDUBEMSLDIXZW1FAIHW8YX3","","null","<img src=""img/food1.png"" style=""width:200px; border:14px solid green;"">","null","","","","","","","","","",""
"","image-keyboard-response","332","182344","0.0-422.0","39GAF6DQWSMREH39XVW7OQYB2FP1VM","A3OV174HQJIJK8","3HUR21WDDUBEMSLDIXZW1FAIHW8YX3","","591.3999999910593","img/food1.png","74","592.2999999970198","1","1","","2","1","1,0.5,0,1,0.5,0,0.5,0,1","1,0.5,0,1,0.5,0,0.5,0,1","1",""
"","html-keyboard-response","333","182655","0.0-423.0","39GAF6DQWSMREH39XVW7OQYB2FP1VM","A3OV174HQJIJK8","3HUR21WDDUBEMSLDIXZW1FAIHW8YX3","","null","<img src=""img/food1.png"" style=""width:200px; border:14px solid green;"">","null","","","","","","","","","",""
"","image-keyboard-response","334","183314","0.0-424.0","39GAF6DQWSMREH39XVW7OQYB2FP1VM","A3OV174HQJIJK8","3HUR21WDDUBEMSLDIXZW1FAIHW8YX3","","657","img/food4.png","74","657.9000000059605","1","1","","1","1","1,0.5,0,1,0.5,0,0.5,0,1","1,0.5,0,1,0.5,0,0.5,0,1","1",""
"","html-keyboard-response","335","183615","0.0-425.0","39GAF6DQWSMREH39XVW7OQYB2FP1VM","A3OV174HQJIJK8","3HUR21WDDUBEMSLDIXZW1FAIHW8YX3","","null","<img src=""img/food4.png"" style=""width:200px; border:14px solid green;"">","null","","","","","","","","","",""
"","image-keyboard-response","336","185111","0.0-426.0","39GAF6DQWSMREH39XVW7OQYB2FP1VM","A3OV174HQJIJK8","3HUR21WDDUBEMSLDIXZW1FAIHW8YX3","","1495","img/food3.png","76","1495.7999999970198","3","1","","3","1","1,0.5,0,1,0.5,0,0.5,0,1","1,0.5,0,1,0.5,0,0.5,0,1","1",""
"","html-keyboard-response","337","185413","0.0-427.0","39GAF6DQWSMREH39XVW7OQYB2FP1VM","A3OV174HQJIJK8","3HUR21WDDUBEMSLDIXZW1FAIHW8YX3","","null","<img src=""img/food3.png"" style=""width:200px; border:14px solid green;"">","null","","","","","","","","","",""
"","image-keyboard-response","338","186056","0.0-428.0","39GAF6DQWSMREH39XVW7OQYB2FP1VM","A3OV174HQJIJK8","3HUR21WDDUBEMSLDIXZW1FAIHW8YX3","","642.3000000119209","img/food4.png","74","643.1000000089407","1","1","","1","1","1,0.5,0,1,0.5,0,0.5,0,1","1,0.5,0,1,0.5,0,0.5,0,1","1",""
"","html-keyboard-response","339","186358","0.0-429.0","39GAF6DQWSMREH39XVW7OQYB2FP1VM","A3OV174HQJIJK8","3HUR21WDDUBEMSLDIXZW1FAIHW8YX3","","null","<img src=""img/food4.png"" style=""width:200px; border:14px solid green;"">","null","","","","","","","","","",""
"","image-keyboard-response","340","186777","0.0-430.0","39GAF6DQWSMREH39XVW7OQYB2FP1VM","A3OV174HQJIJK8","3HUR21WDDUBEMSLDIXZW1FAIHW8YX3","","418.09999999403954","img/food4.png","74","418.8999999910593","1","1","","1","1","1,0.5,0,1,0.5,0,0.5,0,1","1,0.5,0,1,0.5,0,0.5,0,1","1",""
"","html-keyboard-response","341","187080","0.0-431.0","39GAF6DQWSMREH39XVW7OQYB2FP1VM","A3OV174HQJIJK8","3HUR21WDDUBEMSLDIXZW1FAIHW8YX3","","null","<img src=""img/food4.png"" style=""width:200px; border:14px solid green;"">","null","","","","","","","","","",""
"","image-keyboard-response","342","188395","0.0-432.0","39GAF6DQWSMREH39XVW7OQYB2FP1VM","A3OV174HQJIJK8","3HUR21WDDUBEMSLDIXZW1FAIHW8YX3","","1314.0999999940395","img/food3.png","76","1314.8999999910593","3","1","","3","1","1,0.5,0,1,0.5,0,0.5,0,1","1,0.5,0,1,0.5,0,0.5,0,1","1",""
"","html-keyboard-response","343","188697","0.0-433.0","39GAF6DQWSMREH39XVW7OQYB2FP1VM","A3OV174HQJIJK8","3HUR21WDDUBEMSLDIXZW1FAIHW8YX3","","null","<img src=""img/food3.png"" style=""width:200px; border:14px solid green;"">","null","","","","","","","","","",""
"","image-keyboard-response","344","189315","0.0-434.0","39GAF6DQWSMREH39XVW7OQYB2FP1VM","A3OV174HQJIJK8","3HUR21WDDUBEMSLDIXZW1FAIHW8YX3","","617.4000000059605","img/food4.png","74","618.2000000029802","1","1","","1","1","1,0.5,0,1,0.5,0,0.5,0,1","1,0.5,0,1,0.5,0,0.5,0,1","1",""
"","html-keyboard-response","345","189617","0.0-435.0","39GAF6DQWSMREH39XVW7OQYB2FP1VM","A3OV174HQJIJK8","3HUR21WDDUBEMSLDIXZW1FAIHW8YX3","","null","<img src=""img/food4.png"" style=""width:200px; border:14px solid green;"">","null","","","","","","","","","",""
"","image-keyboard-response","346","190367","0.0-436.0","39GAF6DQWSMREH39XVW7OQYB2FP1VM","A3OV174HQJIJK8","3HUR21WDDUBEMSLDIXZW1FAIHW8YX3","","748.7999999970198","img/food1.png","74","749.5999999940395","1","1","","2","1","1,0.5,0,1,0.5,0,0.5,0,1","1,0.5,0,1,0.5,0,0.5,0,1","1",""
"","html-keyboard-response","347","190669","0.0-437.0","39GAF6DQWSMREH39XVW7OQYB2FP1VM","A3OV174HQJIJK8","3HUR21WDDUBEMSLDIXZW1FAIHW8YX3","","null","<img src=""img/food1.png"" style=""width:200px; border:14px solid green;"">","null","","","","","","","","","",""
"","image-keyboard-response","348","191166","0.0-438.0","39GAF6DQWSMREH39XVW7OQYB2FP1VM","A3OV174HQJIJK8","3HUR21WDDUBEMSLDIXZW1FAIHW8YX3","","496.6000000089407","img/food1.png","74","497.40000000596046","1","1","","2","1","1,0.5,0,1,0.5,0,0.5,0,1","1,0.5,0,1,0.5,0,0.5,0,1","1",""
"","html-keyboard-response","349","191467","0.0-439.0","39GAF6DQWSMREH39XVW7OQYB2FP1VM","A3OV174HQJIJK8","3HUR21WDDUBEMSLDIXZW1FAIHW8YX3","","null","<img src=""img/food1.png"" style=""width:200px; border:14px solid green;"">","null","","","","","","","","","",""
"","image-keyboard-response","350","192945","0.0-440.0","39GAF6DQWSMREH39XVW7OQYB2FP1VM","A3OV174HQJIJK8","3HUR21WDDUBEMSLDIXZW1FAIHW8YX3","","1476.7000000029802","img/food3.png","76","1477.5","3","1","","3","1","1,0.5,0,1,0.5,0,0.5,0,1","1,0.5,0,1,0.5,0,0.5,0,1","1",""
"","html-keyboard-response","351","193246","0.0-441.0","39GAF6DQWSMREH39XVW7OQYB2FP1VM","A3OV174HQJIJK8","3HUR21WDDUBEMSLDIXZW1FAIHW8YX3","","null","<img src=""img/food3.png"" style=""width:200px; border:14px solid green;"">","null","","","","","","","","","",""
"","image-keyboard-response","352","194086","0.0-442.0","39GAF6DQWSMREH39XVW7OQYB2FP1VM","A3OV174HQJIJK8","3HUR21WDDUBEMSLDIXZW1FAIHW8YX3","","839.4000000059605","img/food4.png","74","840.0999999940395","1","1","","1","1","1,0.5,0,1,0.5,0,0.5,0,1","1,0.5,0,1,0.5,0,0.5,0,1","1",""
"","html-keyboard-response","353","194389","0.0-443.0","39GAF6DQWSMREH39XVW7OQYB2FP1VM","A3OV174HQJIJK8","3HUR21WDDUBEMSLDIXZW1FAIHW8YX3","","null","<img src=""img/food4.png"" style=""width:200px; border:14px solid green;"">","null","","","","","","","","","",""
"","image-keyboard-response","354","194972","0.0-444.0","39GAF6DQWSMREH39XVW7OQYB2FP1VM","A3OV174HQJIJK8","3HUR21WDDUBEMSLDIXZW1FAIHW8YX3","","582.0999999940395","img/food3.png","76","582.8999999910593","3","1","","3","1","1,0.5,0,1,0.5,0,0.5,0,1","1,0.5,0,1,0.5,0,0.5,0,1","1",""
"","html-keyboard-response","355","195275","0.0-445.0","39GAF6DQWSMREH39XVW7OQYB2FP1VM","A3OV174HQJIJK8","3HUR21WDDUBEMSLDIXZW1FAIHW8YX3","","null","<img src=""img/food3.png"" style=""width:200px; border:14px solid green;"">","null","","","","","","","","","",""
"","image-keyboard-response","356","195761","0.0-446.0","39GAF6DQWSMREH39XVW7OQYB2FP1VM","A3OV174HQJIJK8","3HUR21WDDUBEMSLDIXZW1FAIHW8YX3","","485.29999999701977","img/food4.png","74","486.20000000298023","1","1","","1","1","1,0.5,0,1,0.5,0,0.5,0,1","1,0.5,0,1,0.5,0,0.5,0,1","1",""
"","html-keyboard-response","357","196062","0.0-447.0","39GAF6DQWSMREH39XVW7OQYB2FP1VM","A3OV174HQJIJK8","3HUR21WDDUBEMSLDIXZW1FAIHW8YX3","","null","<img src=""img/food4.png"" style=""width:200px; border:14px solid green;"">","null","","","","","","","","","",""
"","image-keyboard-response","358","196526","0.0-448.0","39GAF6DQWSMREH39XVW7OQYB2FP1VM","A3OV174HQJIJK8","3HUR21WDDUBEMSLDIXZW1FAIHW8YX3","","462.70000000298023","img/food3.png","76","463.70000000298023","3","1","","3","1","1,0.5,0,1,0.5,0,0.5,0,1","1,0.5,0,1,0.5,0,0.5,0,1","1",""
"","html-keyboard-response","359","196828","0.0-449.0","39GAF6DQWSMREH39XVW7OQYB2FP1VM","A3OV174HQJIJK8","3HUR21WDDUBEMSLDIXZW1FAIHW8YX3","","null","<img src=""img/food3.png"" style=""width:200px; border:14px solid green;"">","null","","","","","","","","","",""
"","image-keyboard-response","360","197265","0.0-450.0","39GAF6DQWSMREH39XVW7OQYB2FP1VM","A3OV174HQJIJK8","3HUR21WDDUBEMSLDIXZW1FAIHW8YX3","","435.8999999910593","img/food3.png","76","436.69999998807907","3","1","","3","1","1,0.5,0,1,0.5,0,0.5,0,1","1,0.5,0,1,0.5,0,0.5,0,1","1",""
"","html-keyboard-response","361","197574","0.0-451.0","39GAF6DQWSMREH39XVW7OQYB2FP1VM","A3OV174HQJIJK8","3HUR21WDDUBEMSLDIXZW1FAIHW8YX3","","null","<img src=""img/food3.png"" style=""width:200px; border:14px solid green;"">","null","","","","","","","","","",""
"","image-keyboard-response","362","198136","0.0-452.0","39GAF6DQWSMREH39XVW7OQYB2FP1VM","A3OV174HQJIJK8","3HUR21WDDUBEMSLDIXZW1FAIHW8YX3","","561.3999999910593","img/food3.png","76","562.2999999970198","3","1","","3","1","1,0.5,0,1,0.5,0,0.5,0,1","1,0.5,0,1,0.5,0,0.5,0,1","1",""
"","html-keyboard-response","363","198438","0.0-453.0","39GAF6DQWSMREH39XVW7OQYB2FP1VM","A3OV174HQJIJK8","3HUR21WDDUBEMSLDIXZW1FAIHW8YX3","","null","<img src=""img/food3.png"" style=""width:200px; border:14px solid green;"">","null","","","","","","","","","",""
"","html-keyboard-response","364","210725","0.0-454.0","39GAF6DQWSMREH39XVW7OQYB2FP1VM","A3OV174HQJIJK8","3HUR21WDDUBEMSLDIXZW1FAIHW8YX3","","","","","","","","","","","","","",""
"","instructions","365","212909","0.0-455.0","39GAF6DQWSMREH39XVW7OQYB2FP1VM","A3OV174HQJIJK8","3HUR21WDDUBEMSLDIXZW1FAIHW8YX3","[{""page_index"":0,""viewing_time"":2183}]","2183.4000000059605","","","","","","","","","","","",""
"","survey-text","366","217830","0.0-456.0","39GAF6DQWSMREH39XVW7OQYB2FP1VM","A3OV174HQJIJK8","3HUR21WDDUBEMSLDIXZW1FAIHW8YX3","","4916.70000000298","","","","","","","","","","","","{""Q0"":""A3OV174HQJIJK8""}"
