"success","trial_type","trial_index","time_elapsed","internal_node_id","assignmentID","mturkID","hitID","view_history","rt","stimulus","key_press","reactionTime","a","r","warning","s","cond","reward_cond","reward_cond_actual","reward_matrix_idx","responses"
"true","fullscreen","0","6825","0.0-0.0","3TXD01ZLD538T1BSFN54Q23VZKTU4P","A3PRQ2GSU42718","3JAOYN9IHLO1QRHB9NZI45P11ZM33A","","","","","","","","","","","","","",""
"","instructions","1","35902","0.0-1.0","3TXD01ZLD538T1BSFN54Q23VZKTU4P","A3PRQ2GSU42718","3JAOYN9IHLO1QRHB9NZI45P11ZM33A","[{""page_index"":0,""viewing_time"":7444},{""page_index"":1,""viewing_time"":1241},{""page_index"":2,""viewing_time"":631},{""page_index"":3,""viewing_time"":4801},{""page_index"":4,""viewing_time"":2758},{""page_index"":5,""viewing_time"":2170},{""page_index"":6,""viewing_time"":10030}]","29075","","","","","","","","","","","",""
"","instructions","2","48600","0.0-2.0","3TXD01ZLD538T1BSFN54Q23VZKTU4P","A3PRQ2GSU42718","3JAOYN9IHLO1QRHB9NZI45P11ZM33A","[{""page_index"":0,""viewing_time"":9269},{""page_index"":1,""viewing_time"":3428}]","12697","","","","","","","","","","","",""
"","image-keyboard-response","3","49554","0.0-3.0","3TXD01ZLD538T1BSFN54Q23VZKTU4P","A3PRQ2GSU42718","3JAOYN9IHLO1QRHB9NZI45P11ZM33A","","951","img/food1.png","74","953","1","1","false","1","2","1,0.7,0,1,0.7,0,0.7,0,1","1,0.7,0,1,0.7,0,0.7,0,1","1",""
"","html-keyboard-response","4","49859","0.0-4.0","3TXD01ZLD538T1BSFN54Q23VZKTU4P","A3PRQ2GSU42718","3JAOYN9IHLO1QRHB9NZI45P11ZM33A","","null","<img src=""img/food1.png"" style=""width:200px; border:14px solid green;"">","null","","","","","","","","","",""
"","image-keyboard-response","5","50197","0.0-6.0","3TXD01ZLD538T1BSFN54Q23VZKTU4P","A3PRQ2GSU42718","3JAOYN9IHLO1QRHB9NZI45P11ZM33A","","335","img/food2.png","74","337","1","1","false","2","2","1,0.7,0,1,0.7,0,0.7,0,1","1,0.7,0,1,0.7,0,0.7,0,1","1",""
"","html-keyboard-response","6","50501","0.0-7.0","3TXD01ZLD538T1BSFN54Q23VZKTU4P","A3PRQ2GSU42718","3JAOYN9IHLO1QRHB9NZI45P11ZM33A","","null","<img src=""img/food2.png"" style=""width:200px; border:14px solid green;"">","null","","","","","","","","","",""
"","image-keyboard-response","7","50837","0.0-9.0","3TXD01ZLD538T1BSFN54Q23VZKTU4P","A3PRQ2GSU42718","3JAOYN9IHLO1QRHB9NZI45P11ZM33A","","332","img/food2.png","74","333","1","1","false","2","2","1,0.7,0,1,0.7,0,0.7,0,1","1,0.7,0,1,0.7,0,0.7,0,1","1",""
"","html-keyboard-response","8","51145","0.0-10.0","3TXD01ZLD538T1BSFN54Q23VZKTU4P","A3PRQ2GSU42718","3JAOYN9IHLO1QRHB9NZI45P11ZM33A","","null","<img src=""img/food2.png"" style=""width:200px; border:14px solid green;"">","null","","","","","","","","","",""
"","image-keyboard-response","9","51594","0.0-12.0","3TXD01ZLD538T1BSFN54Q23VZKTU4P","A3PRQ2GSU42718","3JAOYN9IHLO1QRHB9NZI45P11ZM33A","","447","img/food4.png","74","448","1","1","false","3","2","1,0.7,0,1,0.7,0,0.7,0,1","1,0.7,0,1,0.7,0,0.7,0,1","1",""
"","html-keyboard-response","10","51898","0.0-13.0","3TXD01ZLD538T1BSFN54Q23VZKTU4P","A3PRQ2GSU42718","3JAOYN9IHLO1QRHB9NZI45P11ZM33A","","null","<img src=""img/food4.png"" style=""width:200px; border:14px solid green;"">","null","","","","","","","","","",""
"","image-keyboard-response","11","52241","0.0-15.0","3TXD01ZLD538T1BSFN54Q23VZKTU4P","A3PRQ2GSU42718","3JAOYN9IHLO1QRHB9NZI45P11ZM33A","","342","img/food4.png","74","343","1","1","false","3","2","1,0.7,0,1,0.7,0,0.7,0,1","1,0.7,0,1,0.7,0,0.7,0,1","1",""
"","html-keyboard-response","12","52550","0.0-16.0","3TXD01ZLD538T1BSFN54Q23VZKTU4P","A3PRQ2GSU42718","3JAOYN9IHLO1QRHB9NZI45P11ZM33A","","null","<img src=""img/food4.png"" style=""width:200px; border:14px solid green;"">","null","","","","","","","","","",""
"","image-keyboard-response","13","52847","0.0-18.0","3TXD01ZLD538T1BSFN54Q23VZKTU4P","A3PRQ2GSU42718","3JAOYN9IHLO1QRHB9NZI45P11ZM33A","","293","img/food2.png","74","294","1","1","false","2","2","1,0.7,0,1,0.7,0,0.7,0,1","1,0.7,0,1,0.7,0,0.7,0,1","1",""
"","html-keyboard-response","14","53149","0.0-19.0","3TXD01ZLD538T1BSFN54Q23VZKTU4P","A3PRQ2GSU42718","3JAOYN9IHLO1QRHB9NZI45P11ZM33A","","null","<img src=""img/food2.png"" style=""width:200px; border:14px solid green;"">","null","","","","","","","","","",""
"","image-keyboard-response","15","53428","0.0-21.0","3TXD01ZLD538T1BSFN54Q23VZKTU4P","A3PRQ2GSU42718","3JAOYN9IHLO1QRHB9NZI45P11ZM33A","","277","img/food4.png","74","278","1","1","false","3","2","1,0.7,0,1,0.7,0,0.7,0,1","1,0.7,0,1,0.7,0,0.7,0,1","1",""
"","html-keyboard-response","16","53733","0.0-22.0","3TXD01ZLD538T1BSFN54Q23VZKTU4P","A3PRQ2GSU42718","3JAOYN9IHLO1QRHB9NZI45P11ZM33A","","null","<img src=""img/food4.png"" style=""width:200px; border:14px solid green;"">","null","","","","","","","","","",""
"","image-keyboard-response","17","54027","0.0-24.0","3TXD01ZLD538T1BSFN54Q23VZKTU4P","A3PRQ2GSU42718","3JAOYN9IHLO1QRHB9NZI45P11ZM33A","","292","img/food2.png","74","295","1","1","false","2","2","1,0.7,0,1,0.7,0,0.7,0,1","1,0.7,0,1,0.7,0,0.7,0,1","1",""
"","html-keyboard-response","18","54335","0.0-25.0","3TXD01ZLD538T1BSFN54Q23VZKTU4P","A3PRQ2GSU42718","3JAOYN9IHLO1QRHB9NZI45P11ZM33A","","null","<img src=""img/food2.png"" style=""width:200px; border:14px solid green;"">","null","","","","","","","","","",""
"","image-keyboard-response","19","54614","0.0-27.0","3TXD01ZLD538T1BSFN54Q23VZKTU4P","A3PRQ2GSU42718","3JAOYN9IHLO1QRHB9NZI45P11ZM33A","","277","img/food2.png","74","279","1","1","false","2","2","1,0.7,0,1,0.7,0,0.7,0,1","1,0.7,0,1,0.7,0,0.7,0,1","1",""
"","html-keyboard-response","20","54920","0.0-28.0","3TXD01ZLD538T1BSFN54Q23VZKTU4P","A3PRQ2GSU42718","3JAOYN9IHLO1QRHB9NZI45P11ZM33A","","null","<img src=""img/food2.png"" style=""width:200px; border:14px solid green;"">","null","","","","","","","","","",""
"","image-keyboard-response","21","55166","0.0-30.0","3TXD01ZLD538T1BSFN54Q23VZKTU4P","A3PRQ2GSU42718","3JAOYN9IHLO1QRHB9NZI45P11ZM33A","","245","img/food2.png","74","246","1","1","false","2","2","1,0.7,0,1,0.7,0,0.7,0,1","1,0.7,0,1,0.7,0,0.7,0,1","1",""
"","html-keyboard-response","22","55484","0.0-31.0","3TXD01ZLD538T1BSFN54Q23VZKTU4P","A3PRQ2GSU42718","3JAOYN9IHLO1QRHB9NZI45P11ZM33A","","null","<img src=""img/food2.png"" style=""width:200px; border:14px solid green;"">","null","","","","","","","","","",""
"","image-keyboard-response","23","55748","0.0-33.0","3TXD01ZLD538T1BSFN54Q23VZKTU4P","A3PRQ2GSU42718","3JAOYN9IHLO1QRHB9NZI45P11ZM33A","","261","img/food2.png","74","263","1","1","false","2","2","1,0.7,0,1,0.7,0,0.7,0,1","1,0.7,0,1,0.7,0,0.7,0,1","1",""
"","html-keyboard-response","24","56075","0.0-34.0","3TXD01ZLD538T1BSFN54Q23VZKTU4P","A3PRQ2GSU42718","3JAOYN9IHLO1QRHB9NZI45P11ZM33A","","null","<img src=""img/food2.png"" style=""width:200px; border:14px solid green;"">","null","","","","","","","","","",""
"","image-keyboard-response","25","56233","0.0-36.0","3TXD01ZLD538T1BSFN54Q23VZKTU4P","A3PRQ2GSU42718","3JAOYN9IHLO1QRHB9NZI45P11ZM33A","","157","img/food1.png","74","158","1","1","false","1","2","1,0.7,0,1,0.7,0,0.7,0,1","1,0.7,0,1,0.7,0,0.7,0,1","1",""
"","html-keyboard-response","26","56543","0.0-37.0","3TXD01ZLD538T1BSFN54Q23VZKTU4P","A3PRQ2GSU42718","3JAOYN9IHLO1QRHB9NZI45P11ZM33A","","null","<img src=""img/food1.png"" style=""width:200px; border:14px solid green;"">","null","","","","","","","","","",""
"","image-keyboard-response","27","56723","0.0-39.0","3TXD01ZLD538T1BSFN54Q23VZKTU4P","A3PRQ2GSU42718","3JAOYN9IHLO1QRHB9NZI45P11ZM33A","","178","img/food2.png","74","180","1","1","false","2","2","1,0.7,0,1,0.7,0,0.7,0,1","1,0.7,0,1,0.7,0,0.7,0,1","1",""
"","html-keyboard-response","28","57040","0.0-40.0","3TXD01ZLD538T1BSFN54Q23VZKTU4P","A3PRQ2GSU42718","3JAOYN9IHLO1QRHB9NZI45P11ZM33A","","null","<img src=""img/food2.png"" style=""width:200px; border:14px solid green;"">","null","","","","","","","","","",""
"","image-keyboard-response","29","57199","0.0-42.0","3TXD01ZLD538T1BSFN54Q23VZKTU4P","A3PRQ2GSU42718","3JAOYN9IHLO1QRHB9NZI45P11ZM33A","","156","img/food4.png","74","157","1","1","false","3","2","1,0.7,0,1,0.7,0,0.7,0,1","1,0.7,0,1,0.7,0,0.7,0,1","1",""
"","html-keyboard-response","30","57507","0.0-43.0","3TXD01ZLD538T1BSFN54Q23VZKTU4P","A3PRQ2GSU42718","3JAOYN9IHLO1QRHB9NZI45P11ZM33A","","null","<img src=""img/food4.png"" style=""width:200px; border:14px solid green;"">","null","","","","","","","","","",""
"","image-keyboard-response","31","57654","0.0-45.0","3TXD01ZLD538T1BSFN54Q23VZKTU4P","A3PRQ2GSU42718","3JAOYN9IHLO1QRHB9NZI45P11ZM33A","","147","img/food1.png","74","147","1","1","false","1","2","1,0.7,0,1,0.7,0,0.7,0,1","1,0.7,0,1,0.7,0,0.7,0,1","1",""
"","html-keyboard-response","32","57958","0.0-46.0","3TXD01ZLD538T1BSFN54Q23VZKTU4P","A3PRQ2GSU42718","3JAOYN9IHLO1QRHB9NZI45P11ZM33A","","null","<img src=""img/food1.png"" style=""width:200px; border:14px solid green;"">","null","","","","","","","","","",""
"","image-keyboard-response","33","58053","0.0-48.0","3TXD01ZLD538T1BSFN54Q23VZKTU4P","A3PRQ2GSU42718","3JAOYN9IHLO1QRHB9NZI45P11ZM33A","","93","img/food4.png","74","95","1","1","false","3","2","1,0.7,0,1,0.7,0,0.7,0,1","1,0.7,0,1,0.7,0,0.7,0,1","1",""
"","html-keyboard-response","34","58363","0.0-49.0","3TXD01ZLD538T1BSFN54Q23VZKTU4P","A3PRQ2GSU42718","3JAOYN9IHLO1QRHB9NZI45P11ZM33A","","null","<img src=""img/food4.png"" style=""width:200px; border:14px solid green;"">","null","","","","","","","","","",""
"","image-keyboard-response","35","58473","0.0-51.0","3TXD01ZLD538T1BSFN54Q23VZKTU4P","A3PRQ2GSU42718","3JAOYN9IHLO1QRHB9NZI45P11ZM33A","","108","img/food1.png","74","109","1","1","false","1","2","1,0.7,0,1,0.7,0,0.7,0,1","1,0.7,0,1,0.7,0,0.7,0,1","1",""
"","html-keyboard-response","36","58781","0.0-52.0","3TXD01ZLD538T1BSFN54Q23VZKTU4P","A3PRQ2GSU42718","3JAOYN9IHLO1QRHB9NZI45P11ZM33A","","null","<img src=""img/food1.png"" style=""width:200px; border:14px solid green;"">","null","","","","","","","","","",""
"","image-keyboard-response","37","58907","0.0-54.0","3TXD01ZLD538T1BSFN54Q23VZKTU4P","A3PRQ2GSU42718","3JAOYN9IHLO1QRHB9NZI45P11ZM33A","","125","img/food2.png","74","126","1","1","false","2","2","1,0.7,0,1,0.7,0,0.7,0,1","1,0.7,0,1,0.7,0,0.7,0,1","1",""
"","html-keyboard-response","38","59217","0.0-55.0","3TXD01ZLD538T1BSFN54Q23VZKTU4P","A3PRQ2GSU42718","3JAOYN9IHLO1QRHB9NZI45P11ZM33A","","null","<img src=""img/food2.png"" style=""width:200px; border:14px solid green;"">","null","","","","","","","","","",""
"","image-keyboard-response","39","59315","0.0-57.0","3TXD01ZLD538T1BSFN54Q23VZKTU4P","A3PRQ2GSU42718","3JAOYN9IHLO1QRHB9NZI45P11ZM33A","","97","img/food1.png","74","98","1","1","false","1","2","1,0.7,0,1,0.7,0,0.7,0,1","1,0.7,0,1,0.7,0,0.7,0,1","1",""
"","html-keyboard-response","40","59618","0.0-58.0","3TXD01ZLD538T1BSFN54Q23VZKTU4P","A3PRQ2GSU42718","3JAOYN9IHLO1QRHB9NZI45P11ZM33A","","null","<img src=""img/food1.png"" style=""width:200px; border:14px solid green;"">","null","","","","","","","","","",""
"","image-keyboard-response","41","59709","0.0-60.0","3TXD01ZLD538T1BSFN54Q23VZKTU4P","A3PRQ2GSU42718","3JAOYN9IHLO1QRHB9NZI45P11ZM33A","","90","img/food4.png","74","91","1","1","false","3","2","1,0.7,0,1,0.7,0,0.7,0,1","1,0.7,0,1,0.7,0,0.7,0,1","1",""
"","html-keyboard-response","42","60019","0.0-61.0","3TXD01ZLD538T1BSFN54Q23VZKTU4P","A3PRQ2GSU42718","3JAOYN9IHLO1QRHB9NZI45P11ZM33A","","null","<img src=""img/food4.png"" style=""width:200px; border:14px solid green;"">","null","","","","","","","","","",""
"","image-keyboard-response","43","60127","0.0-63.0","3TXD01ZLD538T1BSFN54Q23VZKTU4P","A3PRQ2GSU42718","3JAOYN9IHLO1QRHB9NZI45P11ZM33A","","106","img/food4.png","74","107","1","1","false","3","2","1,0.7,0,1,0.7,0,0.7,0,1","1,0.7,0,1,0.7,0,0.7,0,1","1",""
"","html-keyboard-response","44","60436","0.0-64.0","3TXD01ZLD538T1BSFN54Q23VZKTU4P","A3PRQ2GSU42718","3JAOYN9IHLO1QRHB9NZI45P11ZM33A","","null","<img src=""img/food4.png"" style=""width:200px; border:14px solid green;"">","null","","","","","","","","","",""
"","image-keyboard-response","45","60503","0.0-66.0","3TXD01ZLD538T1BSFN54Q23VZKTU4P","A3PRQ2GSU42718","3JAOYN9IHLO1QRHB9NZI45P11ZM33A","","64","img/food2.png","74","66","1","1","false","2","2","1,0.7,0,1,0.7,0,0.7,0,1","1,0.7,0,1,0.7,0,0.7,0,1","1",""
"","html-keyboard-response","46","60808","0.0-67.0","3TXD01ZLD538T1BSFN54Q23VZKTU4P","A3PRQ2GSU42718","3JAOYN9IHLO1QRHB9NZI45P11ZM33A","","null","<img src=""img/food2.png"" style=""width:200px; border:14px solid green;"">","null","","","","","","","","","",""
"","image-keyboard-response","47","60897","0.0-69.0","3TXD01ZLD538T1BSFN54Q23VZKTU4P","A3PRQ2GSU42718","3JAOYN9IHLO1QRHB9NZI45P11ZM33A","","88","img/food4.png","74","89","1","1","false","3","2","1,0.7,0,1,0.7,0,0.7,0,1","1,0.7,0,1,0.7,0,0.7,0,1","1",""
"","html-keyboard-response","48","61227","0.0-70.0","3TXD01ZLD538T1BSFN54Q23VZKTU4P","A3PRQ2GSU42718","3JAOYN9IHLO1QRHB9NZI45P11ZM33A","","null","<img src=""img/food4.png"" style=""width:200px; border:14px solid green;"">","null","","","","","","","","","",""
"","image-keyboard-response","49","61369","0.0-72.0","3TXD01ZLD538T1BSFN54Q23VZKTU4P","A3PRQ2GSU42718","3JAOYN9IHLO1QRHB9NZI45P11ZM33A","","141","img/food2.png","74","142","1","1","false","2","2","1,0.7,0,1,0.7,0,0.7,0,1","1,0.7,0,1,0.7,0,0.7,0,1","1",""
"","html-keyboard-response","50","61686","0.0-73.0","3TXD01ZLD538T1BSFN54Q23VZKTU4P","A3PRQ2GSU42718","3JAOYN9IHLO1QRHB9NZI45P11ZM33A","","null","<img src=""img/food2.png"" style=""width:200px; border:14px solid green;"">","null","","","","","","","","","",""
"","image-keyboard-response","51","61751","0.0-75.0","3TXD01ZLD538T1BSFN54Q23VZKTU4P","A3PRQ2GSU42718","3JAOYN9IHLO1QRHB9NZI45P11ZM33A","","62","img/food4.png","74","64","1","1","false","3","2","1,0.7,0,1,0.7,0,0.7,0,1","1,0.7,0,1,0.7,0,0.7,0,1","1",""
"","html-keyboard-response","52","62059","0.0-76.0","3TXD01ZLD538T1BSFN54Q23VZKTU4P","A3PRQ2GSU42718","3JAOYN9IHLO1QRHB9NZI45P11ZM33A","","null","<img src=""img/food4.png"" style=""width:200px; border:14px solid green;"">","null","","","","","","","","","",""
"","image-keyboard-response","53","62135","0.0-78.0","3TXD01ZLD538T1BSFN54Q23VZKTU4P","A3PRQ2GSU42718","3JAOYN9IHLO1QRHB9NZI45P11ZM33A","","74","img/food2.png","74","75","1","1","false","2","2","1,0.7,0,1,0.7,0,0.7,0,1","1,0.7,0,1,0.7,0,0.7,0,1","1",""
"","html-keyboard-response","54","62444","0.0-79.0","3TXD01ZLD538T1BSFN54Q23VZKTU4P","A3PRQ2GSU42718","3JAOYN9IHLO1QRHB9NZI45P11ZM33A","","null","<img src=""img/food2.png"" style=""width:200px; border:14px solid green;"">","null","","","","","","","","","",""
"","image-keyboard-response","55","62530","0.0-81.0","3TXD01ZLD538T1BSFN54Q23VZKTU4P","A3PRQ2GSU42718","3JAOYN9IHLO1QRHB9NZI45P11ZM33A","","85","img/food4.png","74","85","1","1","false","3","2","1,0.7,0,1,0.7,0,0.7,0,1","1,0.7,0,1,0.7,0,0.7,0,1","1",""
"","html-keyboard-response","56","62847","0.0-82.0","3TXD01ZLD538T1BSFN54Q23VZKTU4P","A3PRQ2GSU42718","3JAOYN9IHLO1QRHB9NZI45P11ZM33A","","null","<img src=""img/food4.png"" style=""width:200px; border:14px solid green;"">","null","","","","","","","","","",""
"","image-keyboard-response","57","62931","0.0-84.0","3TXD01ZLD538T1BSFN54Q23VZKTU4P","A3PRQ2GSU42718","3JAOYN9IHLO1QRHB9NZI45P11ZM33A","","83","img/food1.png","74","84","1","1","false","1","2","1,0.7,0,1,0.7,0,0.7,0,1","1,0.7,0,1,0.7,0,0.7,0,1","1",""
"","html-keyboard-response","58","63243","0.0-85.0","3TXD01ZLD538T1BSFN54Q23VZKTU4P","A3PRQ2GSU42718","3JAOYN9IHLO1QRHB9NZI45P11ZM33A","","null","<img src=""img/food1.png"" style=""width:200px; border:14px solid green;"">","null","","","","","","","","","",""
"","image-keyboard-response","59","63310","0.0-87.0","3TXD01ZLD538T1BSFN54Q23VZKTU4P","A3PRQ2GSU42718","3JAOYN9IHLO1QRHB9NZI45P11ZM33A","","65","img/food1.png","74","66","1","1","false","1","2","1,0.7,0,1,0.7,0,0.7,0,1","1,0.7,0,1,0.7,0,0.7,0,1","1",""
"","html-keyboard-response","60","63631","0.0-88.0","3TXD01ZLD538T1BSFN54Q23VZKTU4P","A3PRQ2GSU42718","3JAOYN9IHLO1QRHB9NZI45P11ZM33A","","null","<img src=""img/food1.png"" style=""width:200px; border:14px solid green;"">","null","","","","","","","","","",""
"","image-keyboard-response","61","63684","0.0-90.0","3TXD01ZLD538T1BSFN54Q23VZKTU4P","A3PRQ2GSU42718","3JAOYN9IHLO1QRHB9NZI45P11ZM33A","","50","img/food2.png","74","51","1","1","false","2","2","1,0.7,0,1,0.7,0,0.7,0,1","1,0.7,0,1,0.7,0,0.7,0,1","1",""
"","html-keyboard-response","62","63994","0.0-91.0","3TXD01ZLD538T1BSFN54Q23VZKTU4P","A3PRQ2GSU42718","3JAOYN9IHLO1QRHB9NZI45P11ZM33A","","null","<img src=""img/food2.png"" style=""width:200px; border:14px solid green;"">","null","","","","","","","","","",""
"","image-keyboard-response","63","64046","0.0-93.0","3TXD01ZLD538T1BSFN54Q23VZKTU4P","A3PRQ2GSU42718","3JAOYN9IHLO1QRHB9NZI45P11ZM33A","","51","img/food4.png","74","51","1","1","false","3","2","1,0.7,0,1,0.7,0,0.7,0,1","1,0.7,0,1,0.7,0,0.7,0,1","1",""
"","html-keyboard-response","64","64348","0.0-94.0","3TXD01ZLD538T1BSFN54Q23VZKTU4P","A3PRQ2GSU42718","3JAOYN9IHLO1QRHB9NZI45P11ZM33A","","null","<img src=""img/food4.png"" style=""width:200px; border:14px solid green;"">","null","","","","","","","","","",""
"","image-keyboard-response","65","64439","0.0-96.0","3TXD01ZLD538T1BSFN54Q23VZKTU4P","A3PRQ2GSU42718","3JAOYN9IHLO1QRHB9NZI45P11ZM33A","","89","img/food1.png","74","90","1","1","false","1","2","1,0.7,0,1,0.7,0,0.7,0,1","1,0.7,0,1,0.7,0,0.7,0,1","1",""
"","html-keyboard-response","66","64751","0.0-97.0","3TXD01ZLD538T1BSFN54Q23VZKTU4P","A3PRQ2GSU42718","3JAOYN9IHLO1QRHB9NZI45P11ZM33A","","null","<img src=""img/food1.png"" style=""width:200px; border:14px solid green;"">","null","","","","","","","","","",""
"","image-keyboard-response","67","64817","0.0-99.0","3TXD01ZLD538T1BSFN54Q23VZKTU4P","A3PRQ2GSU42718","3JAOYN9IHLO1QRHB9NZI45P11ZM33A","","64","img/food1.png","74","66","1","1","false","1","2","1,0.7,0,1,0.7,0,0.7,0,1","1,0.7,0,1,0.7,0,0.7,0,1","1",""
"","html-keyboard-response","68","65123","0.0-100.0","3TXD01ZLD538T1BSFN54Q23VZKTU4P","A3PRQ2GSU42718","3JAOYN9IHLO1QRHB9NZI45P11ZM33A","","null","<img src=""img/food1.png"" style=""width:200px; border:14px solid green;"">","null","","","","","","","","","",""
"","image-keyboard-response","69","65209","0.0-102.0","3TXD01ZLD538T1BSFN54Q23VZKTU4P","A3PRQ2GSU42718","3JAOYN9IHLO1QRHB9NZI45P11ZM33A","","84","img/food4.png","74","85","1","1","false","3","2","1,0.7,0,1,0.7,0,0.7,0,1","1,0.7,0,1,0.7,0,0.7,0,1","1",""
"","html-keyboard-response","70","65517","0.0-103.0","3TXD01ZLD538T1BSFN54Q23VZKTU4P","A3PRQ2GSU42718","3JAOYN9IHLO1QRHB9NZI45P11ZM33A","","null","<img src=""img/food4.png"" style=""width:200px; border:14px solid green;"">","null","","","","","","","","","",""
"","image-keyboard-response","71","65571","0.0-105.0","3TXD01ZLD538T1BSFN54Q23VZKTU4P","A3PRQ2GSU42718","3JAOYN9IHLO1QRHB9NZI45P11ZM33A","","53","img/food2.png","74","54","1","1","false","2","2","1,0.7,0,1,0.7,0,0.7,0,1","1,0.7,0,1,0.7,0,0.7,0,1","1",""
"","html-keyboard-response","72","65887","0.0-106.0","3TXD01ZLD538T1BSFN54Q23VZKTU4P","A3PRQ2GSU42718","3JAOYN9IHLO1QRHB9NZI45P11ZM33A","","null","<img src=""img/food2.png"" style=""width:200px; border:14px solid green;"">","null","","","","","","","","","",""
"","image-keyboard-response","73","65966","0.0-108.0","3TXD01ZLD538T1BSFN54Q23VZKTU4P","A3PRQ2GSU42718","3JAOYN9IHLO1QRHB9NZI45P11ZM33A","","77","img/food2.png","74","78","1","1","false","2","2","1,0.7,0,1,0.7,0,0.7,0,1","1,0.7,0,1,0.7,0,0.7,0,1","1",""
"","html-keyboard-response","74","66276","0.0-109.0","3TXD01ZLD538T1BSFN54Q23VZKTU4P","A3PRQ2GSU42718","3JAOYN9IHLO1QRHB9NZI45P11ZM33A","","null","<img src=""img/food2.png"" style=""width:200px; border:14px solid green;"">","null","","","","","","","","","",""
"","image-keyboard-response","75","66349","0.0-111.0","3TXD01ZLD538T1BSFN54Q23VZKTU4P","A3PRQ2GSU42718","3JAOYN9IHLO1QRHB9NZI45P11ZM33A","","71","img/food2.png","74","72","1","1","false","2","2","1,0.7,0,1,0.7,0,0.7,0,1","1,0.7,0,1,0.7,0,0.7,0,1","1",""
"","html-keyboard-response","76","66654","0.0-112.0","3TXD01ZLD538T1BSFN54Q23VZKTU4P","A3PRQ2GSU42718","3JAOYN9IHLO1QRHB9NZI45P11ZM33A","","null","<img src=""img/food2.png"" style=""width:200px; border:14px solid green;"">","null","","","","","","","","","",""
"","image-keyboard-response","77","66701","0.0-114.0","3TXD01ZLD538T1BSFN54Q23VZKTU4P","A3PRQ2GSU42718","3JAOYN9IHLO1QRHB9NZI45P11ZM33A","","45","img/food4.png","74","47","1","0","false","3","2","1,0.7,0,1,0.7,0,0.7,0,1","1,0.7,0,1,0.7,0,0.7,0,1","1",""
"","html-keyboard-response","78","67006","0.0-115.0","3TXD01ZLD538T1BSFN54Q23VZKTU4P","A3PRQ2GSU42718","3JAOYN9IHLO1QRHB9NZI45P11ZM33A","","null","<img src=""img/food4.png"" style=""width:200px;border:14px solid red;"">","null","","","","","","","","","",""
"","image-keyboard-response","79","67195","0.0-117.0","3TXD01ZLD538T1BSFN54Q23VZKTU4P","A3PRQ2GSU42718","3JAOYN9IHLO1QRHB9NZI45P11ZM33A","","187","img/food1.png","74","188","1","1","false","1","2","1,0.7,0,1,0.7,0,0.7,0,1","1,0.7,0,1,0.7,0,0.7,0,1","1",""
"","html-keyboard-response","80","67501","0.0-118.0","3TXD01ZLD538T1BSFN54Q23VZKTU4P","A3PRQ2GSU42718","3JAOYN9IHLO1QRHB9NZI45P11ZM33A","","null","<img src=""img/food1.png"" style=""width:200px; border:14px solid green;"">","null","","","","","","","","","",""
"","image-keyboard-response","81","67540","0.0-120.0","3TXD01ZLD538T1BSFN54Q23VZKTU4P","A3PRQ2GSU42718","3JAOYN9IHLO1QRHB9NZI45P11ZM33A","","38","img/food4.png","74","38","1","0","false","3","2","1,0.7,0,1,0.7,0,0.7,0,1","1,0.7,0,1,0.7,0,0.7,0,1","1",""
"","html-keyboard-response","82","67842","0.0-121.0","3TXD01ZLD538T1BSFN54Q23VZKTU4P","A3PRQ2GSU42718","3JAOYN9IHLO1QRHB9NZI45P11ZM33A","","null","<img src=""img/food4.png"" style=""width:200px;border:14px solid red;"">","null","","","","","","","","","",""
"","image-keyboard-response","83","67887","0.0-123.0","3TXD01ZLD538T1BSFN54Q23VZKTU4P","A3PRQ2GSU42718","3JAOYN9IHLO1QRHB9NZI45P11ZM33A","","44","img/food1.png","74","44","1","1","false","1","2","1,0.7,0,1,0.7,0,0.7,0,1","1,0.7,0,1,0.7,0,0.7,0,1","1",""
"","html-keyboard-response","84","68189","0.0-124.0","3TXD01ZLD538T1BSFN54Q23VZKTU4P","A3PRQ2GSU42718","3JAOYN9IHLO1QRHB9NZI45P11ZM33A","","null","<img src=""img/food1.png"" style=""width:200px; border:14px solid green;"">","null","","","","","","","","","",""
"","image-keyboard-response","85","68243","0.0-126.0","3TXD01ZLD538T1BSFN54Q23VZKTU4P","A3PRQ2GSU42718","3JAOYN9IHLO1QRHB9NZI45P11ZM33A","","51","img/food2.png","74","53","1","1","false","2","2","1,0.7,0,1,0.7,0,0.7,0,1","1,0.7,0,1,0.7,0,0.7,0,1","1",""
"","html-keyboard-response","86","68544","0.0-127.0","3TXD01ZLD538T1BSFN54Q23VZKTU4P","A3PRQ2GSU42718","3JAOYN9IHLO1QRHB9NZI45P11ZM33A","","null","<img src=""img/food2.png"" style=""width:200px; border:14px solid green;"">","null","","","","","","","","","",""
"","image-keyboard-response","87","68587","0.0-129.0","3TXD01ZLD538T1BSFN54Q23VZKTU4P","A3PRQ2GSU42718","3JAOYN9IHLO1QRHB9NZI45P11ZM33A","","41","img/food4.png","74","42","1","0","false","3","2","1,0.7,0,1,0.7,0,0.7,0,1","1,0.7,0,1,0.7,0,0.7,0,1","1",""
"","html-keyboard-response","88","68903","0.0-130.0","3TXD01ZLD538T1BSFN54Q23VZKTU4P","A3PRQ2GSU42718","3JAOYN9IHLO1QRHB9NZI45P11ZM33A","","null","<img src=""img/food4.png"" style=""width:200px;border:14px solid red;"">","null","","","","","","","","","",""
"","image-keyboard-response","89","68939","0.0-132.0","3TXD01ZLD538T1BSFN54Q23VZKTU4P","A3PRQ2GSU42718","3JAOYN9IHLO1QRHB9NZI45P11ZM33A","","34","img/food4.png","74","35","1","0","false","3","2","1,0.7,0,1,0.7,0,0.7,0,1","1,0.7,0,1,0.7,0,0.7,0,1","1",""
"","html-keyboard-response","90","69255","0.0-133.0","3TXD01ZLD538T1BSFN54Q23VZKTU4P","A3PRQ2GSU42718","3JAOYN9IHLO1QRHB9NZI45P11ZM33A","","null","<img src=""img/food4.png"" style=""width:200px;border:14px solid red;"">","null","","","","","","","","","",""
"","image-keyboard-response","91","69338","0.0-135.0","3TXD01ZLD538T1BSFN54Q23VZKTU4P","A3PRQ2GSU42718","3JAOYN9IHLO1QRHB9NZI45P11ZM33A","","82","img/food4.png","74","83","1","1","false","3","2","1,0.7,0,1,0.7,0,0.7,0,1","1,0.7,0,1,0.7,0,0.7,0,1","1",""
"","html-keyboard-response","92","69655","0.0-136.0","3TXD01ZLD538T1BSFN54Q23VZKTU4P","A3PRQ2GSU42718","3JAOYN9IHLO1QRHB9NZI45P11ZM33A","","null","<img src=""img/food4.png"" style=""width:200px; border:14px solid green;"">","null","","","","","","","","","",""
"","image-keyboard-response","93","69657","0.0-138.0","3TXD01ZLD538T1BSFN54Q23VZKTU4P","A3PRQ2GSU42718","3JAOYN9IHLO1QRHB9NZI45P11ZM33A","","0","img/food4.png","74","1","1","1","false","3","2","1,0.7,0,1,0.7,0,0.7,0,1","1,0.7,0,1,0.7,0,0.7,0,1","1",""
"","html-keyboard-response","94","69965","0.0-139.0","3TXD01ZLD538T1BSFN54Q23VZKTU4P","A3PRQ2GSU42718","3JAOYN9IHLO1QRHB9NZI45P11ZM33A","","null","<img src=""img/food4.png"" style=""width:200px; border:14px solid green;"">","null","","","","","","","","","",""
"","image-keyboard-response","95","70000","0.0-141.0","3TXD01ZLD538T1BSFN54Q23VZKTU4P","A3PRQ2GSU42718","3JAOYN9IHLO1QRHB9NZI45P11ZM33A","","34","img/food2.png","75","35","2","0","false","2","2","1,0.7,0,1,0.7,0,0.7,0,1","1,0.7,0,1,0.7,0,0.7,0,1","1",""
"","html-keyboard-response","96","70322","0.0-142.0","3TXD01ZLD538T1BSFN54Q23VZKTU4P","A3PRQ2GSU42718","3JAOYN9IHLO1QRHB9NZI45P11ZM33A","","null","<img src=""img/food2.png"" style=""width:200px;border:14px solid red;"">","null","","","","","","","","","",""
"","image-keyboard-response","97","70683","0.0-144.0","3TXD01ZLD538T1BSFN54Q23VZKTU4P","A3PRQ2GSU42718","3JAOYN9IHLO1QRHB9NZI45P11ZM33A","","360","img/food2.png","75","360","2","1","false","2","2","1,0.7,0,1,0.7,0,0.7,0,1","1,0.7,0,1,0.7,0,0.7,0,1","1",""
"","html-keyboard-response","98","70985","0.0-145.0","3TXD01ZLD538T1BSFN54Q23VZKTU4P","A3PRQ2GSU42718","3JAOYN9IHLO1QRHB9NZI45P11ZM33A","","null","<img src=""img/food2.png"" style=""width:200px; border:14px solid green;"">","null","","","","","","","","","",""
"","image-keyboard-response","99","71052","0.0-147.0","3TXD01ZLD538T1BSFN54Q23VZKTU4P","A3PRQ2GSU42718","3JAOYN9IHLO1QRHB9NZI45P11ZM33A","","65","img/food1.png","74","66","1","1","false","1","2","1,0.7,0,1,0.7,0,0.7,0,1","1,0.7,0,1,0.7,0,0.7,0,1","1",""
"","html-keyboard-response","100","71366","0.0-148.0","3TXD01ZLD538T1BSFN54Q23VZKTU4P","A3PRQ2GSU42718","3JAOYN9IHLO1QRHB9NZI45P11ZM33A","","null","<img src=""img/food1.png"" style=""width:200px; border:14px solid green;"">","null","","","","","","","","","",""
"","image-keyboard-response","101","71419","0.0-150.0","3TXD01ZLD538T1BSFN54Q23VZKTU4P","A3PRQ2GSU42718","3JAOYN9IHLO1QRHB9NZI45P11ZM33A","","52","img/food4.png","74","53","1","0","false","3","2","1,0.7,0,1,0.7,0,0.7,0,1","1,0.7,0,1,0.7,0,0.7,0,1","1",""
"","html-keyboard-response","102","71730","0.0-151.0","3TXD01ZLD538T1BSFN54Q23VZKTU4P","A3PRQ2GSU42718","3JAOYN9IHLO1QRHB9NZI45P11ZM33A","","null","<img src=""img/food4.png"" style=""width:200px;border:14px solid red;"">","null","","","","","","","","","",""
"","image-keyboard-response","103","71775","0.0-153.0","3TXD01ZLD538T1BSFN54Q23VZKTU4P","A3PRQ2GSU42718","3JAOYN9IHLO1QRHB9NZI45P11ZM33A","","42","img/food2.png","74","43","1","1","false","2","2","1,0.7,0,1,0.7,0,0.7,0,1","1,0.7,0,1,0.7,0,0.7,0,1","1",""
"","html-keyboard-response","104","72084","0.0-154.0","3TXD01ZLD538T1BSFN54Q23VZKTU4P","A3PRQ2GSU42718","3JAOYN9IHLO1QRHB9NZI45P11ZM33A","","null","<img src=""img/food2.png"" style=""width:200px; border:14px solid green;"">","null","","","","","","","","","",""
"","image-keyboard-response","105","72132","0.0-156.0","3TXD01ZLD538T1BSFN54Q23VZKTU4P","A3PRQ2GSU42718","3JAOYN9IHLO1QRHB9NZI45P11ZM33A","","47","img/food2.png","74","48","1","1","false","2","2","1,0.7,0,1,0.7,0,0.7,0,1","1,0.7,0,1,0.7,0,0.7,0,1","1",""
"","html-keyboard-response","106","72453","0.0-157.0","3TXD01ZLD538T1BSFN54Q23VZKTU4P","A3PRQ2GSU42718","3JAOYN9IHLO1QRHB9NZI45P11ZM33A","","null","<img src=""img/food2.png"" style=""width:200px; border:14px solid green;"">","null","","","","","","","","","",""
"","image-keyboard-response","107","72778","0.0-159.0","3TXD01ZLD538T1BSFN54Q23VZKTU4P","A3PRQ2GSU42718","3JAOYN9IHLO1QRHB9NZI45P11ZM33A","","323","img/food1.png","74","323","1","1","false","1","2","1,0.7,0,1,0.7,0,0.7,0,1","1,0.7,0,1,0.7,0,0.7,0,1","1",""
"","html-keyboard-response","108","73087","0.0-160.0","3TXD01ZLD538T1BSFN54Q23VZKTU4P","A3PRQ2GSU42718","3JAOYN9IHLO1QRHB9NZI45P11ZM33A","","null","<img src=""img/food1.png"" style=""width:200px; border:14px solid green;"">","null","","","","","","","","","",""
"","image-keyboard-response","109","73094","0.0-162.0","3TXD01ZLD538T1BSFN54Q23VZKTU4P","A3PRQ2GSU42718","3JAOYN9IHLO1QRHB9NZI45P11ZM33A","","6","img/food1.png","75","6","2","0","false","1","2","1,0.7,0,1,0.7,0,0.7,0,1","1,0.7,0,1,0.7,0,0.7,0,1","1",""
"","html-keyboard-response","110","73409","0.0-163.0","3TXD01ZLD538T1BSFN54Q23VZKTU4P","A3PRQ2GSU42718","3JAOYN9IHLO1QRHB9NZI45P11ZM33A","","null","<img src=""img/food1.png"" style=""width:200px;border:14px solid red;"">","null","","","","","","","","","",""
"","image-keyboard-response","111","73440","0.0-165.0","3TXD01ZLD538T1BSFN54Q23VZKTU4P","A3PRQ2GSU42718","3JAOYN9IHLO1QRHB9NZI45P11ZM33A","","30","img/food2.png","75","31","2","0","false","2","2","1,0.7,0,1,0.7,0,0.7,0,1","1,0.7,0,1,0.7,0,0.7,0,1","1",""
"","html-keyboard-response","112","73747","0.0-166.0","3TXD01ZLD538T1BSFN54Q23VZKTU4P","A3PRQ2GSU42718","3JAOYN9IHLO1QRHB9NZI45P11ZM33A","","null","<img src=""img/food2.png"" style=""width:200px;border:14px solid red;"">","null","","","","","","","","","",""
"","image-keyboard-response","113","73804","0.0-168.0","3TXD01ZLD538T1BSFN54Q23VZKTU4P","A3PRQ2GSU42718","3JAOYN9IHLO1QRHB9NZI45P11ZM33A","","55","img/food2.png","75","56","2","0","false","2","2","1,0.7,0,1,0.7,0,0.7,0,1","1,0.7,0,1,0.7,0,0.7,0,1","1",""
"","html-keyboard-response","114","74118","0.0-169.0","3TXD01ZLD538T1BSFN54Q23VZKTU4P","A3PRQ2GSU42718","3JAOYN9IHLO1QRHB9NZI45P11ZM33A","","null","<img src=""img/food2.png"" style=""width:200px;border:14px solid red;"">","null","","","","","","","","","",""
"","image-keyboard-response","115","74448","0.0-171.0","3TXD01ZLD538T1BSFN54Q23VZKTU4P","A3PRQ2GSU42718","3JAOYN9IHLO1QRHB9NZI45P11ZM33A","","328","img/food1.png","74","330","1","1","false","1","2","1,0.7,0,1,0.7,0,0.7,0,1","1,0.7,0,1,0.7,0,0.7,0,1","1",""
"","html-keyboard-response","116","74773","0.0-172.0","3TXD01ZLD538T1BSFN54Q23VZKTU4P","A3PRQ2GSU42718","3JAOYN9IHLO1QRHB9NZI45P11ZM33A","","null","<img src=""img/food1.png"" style=""width:200px; border:14px solid green;"">","null","","","","","","","","","",""
"","image-keyboard-response","117","74813","0.0-174.0","3TXD01ZLD538T1BSFN54Q23VZKTU4P","A3PRQ2GSU42718","3JAOYN9IHLO1QRHB9NZI45P11ZM33A","","37","img/food4.png","74","38","1","0","false","3","2","1,0.7,0,1,0.7,0,0.7,0,1","1,0.7,0,1,0.7,0,0.7,0,1","1",""
"","html-keyboard-response","118","75122","0.0-175.0","3TXD01ZLD538T1BSFN54Q23VZKTU4P","A3PRQ2GSU42718","3JAOYN9IHLO1QRHB9NZI45P11ZM33A","","null","<img src=""img/food4.png"" style=""width:200px;border:14px solid red;"">","null","","","","","","","","","",""
"","image-keyboard-response","119","75131","0.0-177.0","3TXD01ZLD538T1BSFN54Q23VZKTU4P","A3PRQ2GSU42718","3JAOYN9IHLO1QRHB9NZI45P11ZM33A","","8","img/food4.png","74","9","1","0","false","3","2","1,0.7,0,1,0.7,0,0.7,0,1","1,0.7,0,1,0.7,0,0.7,0,1","1",""
"","html-keyboard-response","120","75433","0.0-178.0","3TXD01ZLD538T1BSFN54Q23VZKTU4P","A3PRQ2GSU42718","3JAOYN9IHLO1QRHB9NZI45P11ZM33A","","null","<img src=""img/food4.png"" style=""width:200px;border:14px solid red;"">","null","","","","","","","","","",""
"","image-keyboard-response","121","75499","0.0-180.0","3TXD01ZLD538T1BSFN54Q23VZKTU4P","A3PRQ2GSU42718","3JAOYN9IHLO1QRHB9NZI45P11ZM33A","","64","img/food1.png","74","66","1","1","false","1","2","1,0.7,0,1,0.7,0,0.7,0,1","1,0.7,0,1,0.7,0,0.7,0,1","1",""
"","html-keyboard-response","122","75817","0.0-181.0","3TXD01ZLD538T1BSFN54Q23VZKTU4P","A3PRQ2GSU42718","3JAOYN9IHLO1QRHB9NZI45P11ZM33A","","null","<img src=""img/food1.png"" style=""width:200px; border:14px solid green;"">","null","","","","","","","","","",""
"","image-keyboard-response","123","75840","0.0-183.0","3TXD01ZLD538T1BSFN54Q23VZKTU4P","A3PRQ2GSU42718","3JAOYN9IHLO1QRHB9NZI45P11ZM33A","","22","img/food1.png","74","23","1","1","false","1","2","1,0.7,0,1,0.7,0,0.7,0,1","1,0.7,0,1,0.7,0,0.7,0,1","1",""
"","html-keyboard-response","124","76155","0.0-184.0","3TXD01ZLD538T1BSFN54Q23VZKTU4P","A3PRQ2GSU42718","3JAOYN9IHLO1QRHB9NZI45P11ZM33A","","null","<img src=""img/food1.png"" style=""width:200px; border:14px solid green;"">","null","","","","","","","","","",""
"","image-keyboard-response","125","76159","0.0-186.0","3TXD01ZLD538T1BSFN54Q23VZKTU4P","A3PRQ2GSU42718","3JAOYN9IHLO1QRHB9NZI45P11ZM33A","","3","img/food2.png","74","4","1","1","false","2","2","1,0.7,0,1,0.7,0,0.7,0,1","1,0.7,0,1,0.7,0,0.7,0,1","1",""
"","html-keyboard-response","126","76477","0.0-187.0","3TXD01ZLD538T1BSFN54Q23VZKTU4P","A3PRQ2GSU42718","3JAOYN9IHLO1QRHB9NZI45P11ZM33A","","null","<img src=""img/food2.png"" style=""width:200px; border:14px solid green;"">","null","","","","","","","","","",""
"","image-keyboard-response","127","76484","0.0-189.0","3TXD01ZLD538T1BSFN54Q23VZKTU4P","A3PRQ2GSU42718","3JAOYN9IHLO1QRHB9NZI45P11ZM33A","","5","img/food4.png","74","5","1","1","false","3","2","1,0.7,0,1,0.7,0,0.7,0,1","1,0.7,0,1,0.7,0,0.7,0,1","1",""
"","html-keyboard-response","128","76807","0.0-190.0","3TXD01ZLD538T1BSFN54Q23VZKTU4P","A3PRQ2GSU42718","3JAOYN9IHLO1QRHB9NZI45P11ZM33A","","null","<img src=""img/food4.png"" style=""width:200px; border:14px solid green;"">","null","","","","","","","","","",""
"","image-keyboard-response","129","77156","0.0-192.0","3TXD01ZLD538T1BSFN54Q23VZKTU4P","A3PRQ2GSU42718","3JAOYN9IHLO1QRHB9NZI45P11ZM33A","","347","img/food2.png","74","348","1","1","false","2","2","1,0.7,0,1,0.7,0,0.7,0,1","1,0.7,0,1,0.7,0,0.7,0,1","1",""
"","html-keyboard-response","130","77469","0.0-193.0","3TXD01ZLD538T1BSFN54Q23VZKTU4P","A3PRQ2GSU42718","3JAOYN9IHLO1QRHB9NZI45P11ZM33A","","null","<img src=""img/food2.png"" style=""width:200px; border:14px solid green;"">","null","","","","","","","","","",""
"","image-keyboard-response","131","77502","0.0-195.0","3TXD01ZLD538T1BSFN54Q23VZKTU4P","A3PRQ2GSU42718","3JAOYN9IHLO1QRHB9NZI45P11ZM33A","","31","img/food2.png","74","32","1","1","false","2","2","1,0.7,0,1,0.7,0,0.7,0,1","1,0.7,0,1,0.7,0,0.7,0,1","1",""
"","html-keyboard-response","132","77815","0.0-196.0","3TXD01ZLD538T1BSFN54Q23VZKTU4P","A3PRQ2GSU42718","3JAOYN9IHLO1QRHB9NZI45P11ZM33A","","null","<img src=""img/food2.png"" style=""width:200px; border:14px solid green;"">","null","","","","","","","","","",""
"","image-keyboard-response","133","78202","0.0-198.0","3TXD01ZLD538T1BSFN54Q23VZKTU4P","A3PRQ2GSU42718","3JAOYN9IHLO1QRHB9NZI45P11ZM33A","","385","img/food1.png","74","385","1","1","false","1","2","1,0.7,0,1,0.7,0,0.7,0,1","1,0.7,0,1,0.7,0,0.7,0,1","1",""
"","html-keyboard-response","134","78516","0.0-199.0","3TXD01ZLD538T1BSFN54Q23VZKTU4P","A3PRQ2GSU42718","3JAOYN9IHLO1QRHB9NZI45P11ZM33A","","null","<img src=""img/food1.png"" style=""width:200px; border:14px solid green;"">","null","","","","","","","","","",""
"","image-keyboard-response","135","78540","0.0-201.0","3TXD01ZLD538T1BSFN54Q23VZKTU4P","A3PRQ2GSU42718","3JAOYN9IHLO1QRHB9NZI45P11ZM33A","","22","img/food1.png","75","23","2","1","false","1","2","1,0.7,0,1,0.7,0,0.7,0,1","1,0.7,0,1,0.7,0,0.7,0,1","1",""
"","html-keyboard-response","136","78854","0.0-202.0","3TXD01ZLD538T1BSFN54Q23VZKTU4P","A3PRQ2GSU42718","3JAOYN9IHLO1QRHB9NZI45P11ZM33A","","null","<img src=""img/food1.png"" style=""width:200px; border:14px solid green;"">","null","","","","","","","","","",""
"","image-keyboard-response","137","79464","0.0-204.0","3TXD01ZLD538T1BSFN54Q23VZKTU4P","A3PRQ2GSU42718","3JAOYN9IHLO1QRHB9NZI45P11ZM33A","","608","img/food2.png","75","609","2","1","false","2","2","1,0.7,0,1,0.7,0,0.7,0,1","1,0.7,0,1,0.7,0,0.7,0,1","1",""
"","html-keyboard-response","138","79779","0.0-205.0","3TXD01ZLD538T1BSFN54Q23VZKTU4P","A3PRQ2GSU42718","3JAOYN9IHLO1QRHB9NZI45P11ZM33A","","null","<img src=""img/food2.png"" style=""width:200px; border:14px solid green;"">","null","","","","","","","","","",""
"","image-keyboard-response","139","79801","0.0-207.0","3TXD01ZLD538T1BSFN54Q23VZKTU4P","A3PRQ2GSU42718","3JAOYN9IHLO1QRHB9NZI45P11ZM33A","","21","img/food1.png","75","22","2","1","false","1","2","1,0.7,0,1,0.7,0,0.7,0,1","1,0.7,0,1,0.7,0,0.7,0,1","1",""
"","html-keyboard-response","140","80104","0.0-208.0","3TXD01ZLD538T1BSFN54Q23VZKTU4P","A3PRQ2GSU42718","3JAOYN9IHLO1QRHB9NZI45P11ZM33A","","null","<img src=""img/food1.png"" style=""width:200px; border:14px solid green;"">","null","","","","","","","","","",""
"","image-keyboard-response","141","80118","0.0-210.0","3TXD01ZLD538T1BSFN54Q23VZKTU4P","A3PRQ2GSU42718","3JAOYN9IHLO1QRHB9NZI45P11ZM33A","","12","img/food4.png","75","13","2","0","false","3","2","1,0.7,0,1,0.7,0,0.7,0,1","1,0.7,0,1,0.7,0,0.7,0,1","1",""
"","html-keyboard-response","142","80421","0.0-211.0","3TXD01ZLD538T1BSFN54Q23VZKTU4P","A3PRQ2GSU42718","3JAOYN9IHLO1QRHB9NZI45P11ZM33A","","null","<img src=""img/food4.png"" style=""width:200px;border:14px solid red;"">","null","","","","","","","","","",""
"","image-keyboard-response","143","80467","0.0-213.0","3TXD01ZLD538T1BSFN54Q23VZKTU4P","A3PRQ2GSU42718","3JAOYN9IHLO1QRHB9NZI45P11ZM33A","","45","img/food4.png","75","45","2","0","false","3","2","1,0.7,0,1,0.7,0,0.7,0,1","1,0.7,0,1,0.7,0,0.7,0,1","1",""
"","html-keyboard-response","144","80774","0.0-214.0","3TXD01ZLD538T1BSFN54Q23VZKTU4P","A3PRQ2GSU42718","3JAOYN9IHLO1QRHB9NZI45P11ZM33A","","null","<img src=""img/food4.png"" style=""width:200px;border:14px solid red;"">","null","","","","","","","","","",""
"","image-keyboard-response","145","81101","0.0-216.0","3TXD01ZLD538T1BSFN54Q23VZKTU4P","A3PRQ2GSU42718","3JAOYN9IHLO1QRHB9NZI45P11ZM33A","","324","img/food4.png","74","325","1","0","false","3","2","1,0.7,0,1,0.7,0,0.7,0,1","1,0.7,0,1,0.7,0,0.7,0,1","1",""
"","html-keyboard-response","146","81411","0.0-217.0","3TXD01ZLD538T1BSFN54Q23VZKTU4P","A3PRQ2GSU42718","3JAOYN9IHLO1QRHB9NZI45P11ZM33A","","null","<img src=""img/food4.png"" style=""width:200px;border:14px solid red;"">","null","","","","","","","","","",""
"","image-keyboard-response","147","81438","0.0-219.0","3TXD01ZLD538T1BSFN54Q23VZKTU4P","A3PRQ2GSU42718","3JAOYN9IHLO1QRHB9NZI45P11ZM33A","","26","img/food2.png","74","27","1","1","false","2","2","1,0.7,0,1,0.7,0,0.7,0,1","1,0.7,0,1,0.7,0,0.7,0,1","1",""
"","html-keyboard-response","148","81760","0.0-220.0","3TXD01ZLD538T1BSFN54Q23VZKTU4P","A3PRQ2GSU42718","3JAOYN9IHLO1QRHB9NZI45P11ZM33A","","null","<img src=""img/food2.png"" style=""width:200px; border:14px solid green;"">","null","","","","","","","","","",""
"","image-keyboard-response","149","82104","0.0-222.0","3TXD01ZLD538T1BSFN54Q23VZKTU4P","A3PRQ2GSU42718","3JAOYN9IHLO1QRHB9NZI45P11ZM33A","","343","img/food4.png","74","343","1","1","false","3","2","1,0.7,0,1,0.7,0,0.7,0,1","1,0.7,0,1,0.7,0,0.7,0,1","1",""
"","html-keyboard-response","150","82410","0.0-223.0","3TXD01ZLD538T1BSFN54Q23VZKTU4P","A3PRQ2GSU42718","3JAOYN9IHLO1QRHB9NZI45P11ZM33A","","null","<img src=""img/food4.png"" style=""width:200px; border:14px solid green;"">","null","","","","","","","","","",""
"","image-keyboard-response","151","82436","0.0-225.0","3TXD01ZLD538T1BSFN54Q23VZKTU4P","A3PRQ2GSU42718","3JAOYN9IHLO1QRHB9NZI45P11ZM33A","","25","img/food1.png","74","25","1","1","false","1","2","1,0.7,0,1,0.7,0,0.7,0,1","1,0.7,0,1,0.7,0,0.7,0,1","1",""
"","html-keyboard-response","152","82743","0.0-226.0","3TXD01ZLD538T1BSFN54Q23VZKTU4P","A3PRQ2GSU42718","3JAOYN9IHLO1QRHB9NZI45P11ZM33A","","null","<img src=""img/food1.png"" style=""width:200px; border:14px solid green;"">","null","","","","","","","","","",""
"","image-keyboard-response","153","82763","0.0-228.0","3TXD01ZLD538T1BSFN54Q23VZKTU4P","A3PRQ2GSU42718","3JAOYN9IHLO1QRHB9NZI45P11ZM33A","","18","img/food1.png","74","19","1","1","false","1","2","1,0.7,0,1,0.7,0,0.7,0,1","1,0.7,0,1,0.7,0,0.7,0,1","1",""
"","html-keyboard-response","154","83071","0.0-229.0","3TXD01ZLD538T1BSFN54Q23VZKTU4P","A3PRQ2GSU42718","3JAOYN9IHLO1QRHB9NZI45P11ZM33A","","null","<img src=""img/food1.png"" style=""width:200px; border:14px solid green;"">","null","","","","","","","","","",""
"","image-keyboard-response","155","83585","0.0-231.0","3TXD01ZLD538T1BSFN54Q23VZKTU4P","A3PRQ2GSU42718","3JAOYN9IHLO1QRHB9NZI45P11ZM33A","","512","img/food1.png","74","513","1","1","false","1","2","1,0.7,0,1,0.7,0,0.7,0,1","1,0.7,0,1,0.7,0,0.7,0,1","1",""
"","html-keyboard-response","156","83893","0.0-232.0","3TXD01ZLD538T1BSFN54Q23VZKTU4P","A3PRQ2GSU42718","3JAOYN9IHLO1QRHB9NZI45P11ZM33A","","null","<img src=""img/food1.png"" style=""width:200px; border:14px solid green;"">","null","","","","","","","","","",""
"","image-keyboard-response","157","83941","0.0-234.0","3TXD01ZLD538T1BSFN54Q23VZKTU4P","A3PRQ2GSU42718","3JAOYN9IHLO1QRHB9NZI45P11ZM33A","","46","img/food1.png","74","46","1","1","false","1","2","1,0.7,0,1,0.7,0,0.7,0,1","1,0.7,0,1,0.7,0,0.7,0,1","1",""
"","html-keyboard-response","158","84247","0.0-235.0","3TXD01ZLD538T1BSFN54Q23VZKTU4P","A3PRQ2GSU42718","3JAOYN9IHLO1QRHB9NZI45P11ZM33A","","null","<img src=""img/food1.png"" style=""width:200px; border:14px solid green;"">","null","","","","","","","","","",""
"","image-keyboard-response","159","84288","0.0-237.0","3TXD01ZLD538T1BSFN54Q23VZKTU4P","A3PRQ2GSU42718","3JAOYN9IHLO1QRHB9NZI45P11ZM33A","","41","img/food1.png","74","42","1","1","false","1","2","1,0.7,0,1,0.7,0,0.7,0,1","1,0.7,0,1,0.7,0,0.7,0,1","1",""
"","html-keyboard-response","160","84594","0.0-238.0","3TXD01ZLD538T1BSFN54Q23VZKTU4P","A3PRQ2GSU42718","3JAOYN9IHLO1QRHB9NZI45P11ZM33A","","null","<img src=""img/food1.png"" style=""width:200px; border:14px solid green;"">","null","","","","","","","","","",""
"","image-keyboard-response","161","84616","0.0-240.0","3TXD01ZLD538T1BSFN54Q23VZKTU4P","A3PRQ2GSU42718","3JAOYN9IHLO1QRHB9NZI45P11ZM33A","","20","img/food1.png","74","21","1","1","false","1","2","1,0.7,0,1,0.7,0,0.7,0,1","1,0.7,0,1,0.7,0,0.7,0,1","1",""
"","html-keyboard-response","162","84933","0.0-241.0","3TXD01ZLD538T1BSFN54Q23VZKTU4P","A3PRQ2GSU42718","3JAOYN9IHLO1QRHB9NZI45P11ZM33A","","null","<img src=""img/food1.png"" style=""width:200px; border:14px solid green;"">","null","","","","","","","","","",""
"","image-keyboard-response","163","85253","0.0-243.0","3TXD01ZLD538T1BSFN54Q23VZKTU4P","A3PRQ2GSU42718","3JAOYN9IHLO1QRHB9NZI45P11ZM33A","","318","img/food1.png","74","318","1","1","false","1","2","1,0.7,0,1,0.7,0,0.7,0,1","1,0.7,0,1,0.7,0,0.7,0,1","1",""
"","html-keyboard-response","164","85555","0.0-244.0","3TXD01ZLD538T1BSFN54Q23VZKTU4P","A3PRQ2GSU42718","3JAOYN9IHLO1QRHB9NZI45P11ZM33A","","null","<img src=""img/food1.png"" style=""width:200px; border:14px solid green;"">","null","","","","","","","","","",""
"","image-keyboard-response","165","85589","0.0-246.0","3TXD01ZLD538T1BSFN54Q23VZKTU4P","A3PRQ2GSU42718","3JAOYN9IHLO1QRHB9NZI45P11ZM33A","","33","img/food4.png","74","35","1","0","false","3","2","1,0.7,0,1,0.7,0,0.7,0,1","1,0.7,0,1,0.7,0,0.7,0,1","1",""
"","html-keyboard-response","166","85904","0.0-247.0","3TXD01ZLD538T1BSFN54Q23VZKTU4P","A3PRQ2GSU42718","3JAOYN9IHLO1QRHB9NZI45P11ZM33A","","null","<img src=""img/food4.png"" style=""width:200px;border:14px solid red;"">","null","","","","","","","","","",""
"","image-keyboard-response","167","86212","0.0-249.0","3TXD01ZLD538T1BSFN54Q23VZKTU4P","A3PRQ2GSU42718","3JAOYN9IHLO1QRHB9NZI45P11ZM33A","","307","img/food1.png","74","308","1","1","false","1","2","1,0.7,0,1,0.7,0,0.7,0,1","1,0.7,0,1,0.7,0,0.7,0,1","1",""
"","html-keyboard-response","168","86520","0.0-250.0","3TXD01ZLD538T1BSFN54Q23VZKTU4P","A3PRQ2GSU42718","3JAOYN9IHLO1QRHB9NZI45P11ZM33A","","null","<img src=""img/food1.png"" style=""width:200px; border:14px solid green;"">","null","","","","","","","","","",""
"","image-keyboard-response","169","86529","0.0-252.0","3TXD01ZLD538T1BSFN54Q23VZKTU4P","A3PRQ2GSU42718","3JAOYN9IHLO1QRHB9NZI45P11ZM33A","","8","img/food4.png","74","8","1","1","false","3","2","1,0.7,0,1,0.7,0,0.7,0,1","1,0.7,0,1,0.7,0,0.7,0,1","1",""
"","html-keyboard-response","170","86836","0.0-253.0","3TXD01ZLD538T1BSFN54Q23VZKTU4P","A3PRQ2GSU42718","3JAOYN9IHLO1QRHB9NZI45P11ZM33A","","null","<img src=""img/food4.png"" style=""width:200px; border:14px solid green;"">","null","","","","","","","","","",""
"","image-keyboard-response","171","86857","0.0-255.0","3TXD01ZLD538T1BSFN54Q23VZKTU4P","A3PRQ2GSU42718","3JAOYN9IHLO1QRHB9NZI45P11ZM33A","","19","img/food2.png","74","20","1","1","false","2","2","1,0.7,0,1,0.7,0,0.7,0,1","1,0.7,0,1,0.7,0,0.7,0,1","1",""
"","html-keyboard-response","172","87180","0.0-256.0","3TXD01ZLD538T1BSFN54Q23VZKTU4P","A3PRQ2GSU42718","3JAOYN9IHLO1QRHB9NZI45P11ZM33A","","null","<img src=""img/food2.png"" style=""width:200px; border:14px solid green;"">","null","","","","","","","","","",""
"","image-keyboard-response","173","87476","0.0-258.0","3TXD01ZLD538T1BSFN54Q23VZKTU4P","A3PRQ2GSU42718","3JAOYN9IHLO1QRHB9NZI45P11ZM33A","","295","img/food1.png","74","297","1","1","false","1","2","1,0.7,0,1,0.7,0,0.7,0,1","1,0.7,0,1,0.7,0,0.7,0,1","1",""
"","html-keyboard-response","174","87795","0.0-259.0","3TXD01ZLD538T1BSFN54Q23VZKTU4P","A3PRQ2GSU42718","3JAOYN9IHLO1QRHB9NZI45P11ZM33A","","null","<img src=""img/food1.png"" style=""width:200px; border:14px solid green;"">","null","","","","","","","","","",""
"","image-keyboard-response","175","88129","0.0-261.0","3TXD01ZLD538T1BSFN54Q23VZKTU4P","A3PRQ2GSU42718","3JAOYN9IHLO1QRHB9NZI45P11ZM33A","","331","img/food2.png","74","333","1","1","false","2","2","1,0.7,0,1,0.7,0,0.7,0,1","1,0.7,0,1,0.7,0,0.7,0,1","1",""
"","html-keyboard-response","176","88443","0.0-262.0","3TXD01ZLD538T1BSFN54Q23VZKTU4P","A3PRQ2GSU42718","3JAOYN9IHLO1QRHB9NZI45P11ZM33A","","null","<img src=""img/food2.png"" style=""width:200px; border:14px solid green;"">","null","","","","","","","","","",""
"","image-keyboard-response","177","88472","0.0-264.0","3TXD01ZLD538T1BSFN54Q23VZKTU4P","A3PRQ2GSU42718","3JAOYN9IHLO1QRHB9NZI45P11ZM33A","","28","img/food4.png","74","29","1","1","false","3","2","1,0.7,0,1,0.7,0,0.7,0,1","1,0.7,0,1,0.7,0,0.7,0,1","1",""
"","html-keyboard-response","178","88785","0.0-265.0","3TXD01ZLD538T1BSFN54Q23VZKTU4P","A3PRQ2GSU42718","3JAOYN9IHLO1QRHB9NZI45P11ZM33A","","null","<img src=""img/food4.png"" style=""width:200px; border:14px solid green;"">","null","","","","","","","","","",""
"","image-keyboard-response","179","88792","0.0-267.0","3TXD01ZLD538T1BSFN54Q23VZKTU4P","A3PRQ2GSU42718","3JAOYN9IHLO1QRHB9NZI45P11ZM33A","","4","img/food4.png","74","5","1","1","false","3","2","1,0.7,0,1,0.7,0,0.7,0,1","1,0.7,0,1,0.7,0,0.7,0,1","1",""
"","html-keyboard-response","180","89098","0.0-268.0","3TXD01ZLD538T1BSFN54Q23VZKTU4P","A3PRQ2GSU42718","3JAOYN9IHLO1QRHB9NZI45P11ZM33A","","null","<img src=""img/food4.png"" style=""width:200px; border:14px solid green;"">","null","","","","","","","","","",""
"","image-keyboard-response","181","89114","0.0-270.0","3TXD01ZLD538T1BSFN54Q23VZKTU4P","A3PRQ2GSU42718","3JAOYN9IHLO1QRHB9NZI45P11ZM33A","","14","img/food1.png","74","15","1","1","false","1","2","1,0.7,0,1,0.7,0,0.7,0,1","1,0.7,0,1,0.7,0,0.7,0,1","1",""
"","html-keyboard-response","182","89423","0.0-271.0","3TXD01ZLD538T1BSFN54Q23VZKTU4P","A3PRQ2GSU42718","3JAOYN9IHLO1QRHB9NZI45P11ZM33A","","null","<img src=""img/food1.png"" style=""width:200px; border:14px solid green;"">","null","","","","","","","","","",""
"","instructions","183","97180","0.0-273.0","3TXD01ZLD538T1BSFN54Q23VZKTU4P","A3PRQ2GSU42718","3JAOYN9IHLO1QRHB9NZI45P11ZM33A","[{""page_index"":0,""viewing_time"":4871},{""page_index"":1,""viewing_time"":2886}]","7757","","","","","","","","","","","",""
"","image-keyboard-response","184","98195","0.0-274.0","3TXD01ZLD538T1BSFN54Q23VZKTU4P","A3PRQ2GSU42718","3JAOYN9IHLO1QRHB9NZI45P11ZM33A","","1013","img/food5.png","74","1014","1","1","","3","1","1,0.7,0,1,0.7,0,0.7,0,1","1,0.7,0,1,0.7,0,0.7,0,1","1",""
"","html-keyboard-response","185","98498","0.0-275.0","3TXD01ZLD538T1BSFN54Q23VZKTU4P","A3PRQ2GSU42718","3JAOYN9IHLO1QRHB9NZI45P11ZM33A","","null","<img src=""img/food5.png"" style=""width:200px; border:14px solid green;"">","null","","","","","","","","","",""
"","image-keyboard-response","186","98551","0.0-276.0","3TXD01ZLD538T1BSFN54Q23VZKTU4P","A3PRQ2GSU42718","3JAOYN9IHLO1QRHB9NZI45P11ZM33A","","52","img/food5.png","74","53","1","0","","3","1","1,0.7,0,1,0.7,0,0.7,0,1","1,0.7,0,1,0.7,0,0.7,0,1","1",""
"","html-keyboard-response","187","98858","0.0-277.0","3TXD01ZLD538T1BSFN54Q23VZKTU4P","A3PRQ2GSU42718","3JAOYN9IHLO1QRHB9NZI45P11ZM33A","","null","<img src=""img/food5.png"" style=""width:200px;border:14px solid red;"">","null","","","","","","","","","",""
"","image-keyboard-response","188","98896","0.0-278.0","3TXD01ZLD538T1BSFN54Q23VZKTU4P","A3PRQ2GSU42718","3JAOYN9IHLO1QRHB9NZI45P11ZM33A","","35","img/food6.png","74","37","1","1","","1","1","1,0.7,0,1,0.7,0,0.7,0,1","1,0.7,0,1,0.7,0,0.7,0,1","1",""
"","html-keyboard-response","189","99199","0.0-279.0","3TXD01ZLD538T1BSFN54Q23VZKTU4P","A3PRQ2GSU42718","3JAOYN9IHLO1QRHB9NZI45P11ZM33A","","null","<img src=""img/food6.png"" style=""width:200px; border:14px solid green;"">","null","","","","","","","","","",""
"","image-keyboard-response","190","99237","0.0-280.0","3TXD01ZLD538T1BSFN54Q23VZKTU4P","A3PRQ2GSU42718","3JAOYN9IHLO1QRHB9NZI45P11ZM33A","","35","img/food5.png","74","36","1","0","","3","1","1,0.7,0,1,0.7,0,0.7,0,1","1,0.7,0,1,0.7,0,0.7,0,1","1",""
"","html-keyboard-response","191","99547","0.0-281.0","3TXD01ZLD538T1BSFN54Q23VZKTU4P","A3PRQ2GSU42718","3JAOYN9IHLO1QRHB9NZI45P11ZM33A","","null","<img src=""img/food5.png"" style=""width:200px;border:14px solid red;"">","null","","","","","","","","","",""
"","image-keyboard-response","192","99586","0.0-282.0","3TXD01ZLD538T1BSFN54Q23VZKTU4P","A3PRQ2GSU42718","3JAOYN9IHLO1QRHB9NZI45P11ZM33A","","38","img/food3.png","74","38","1","1","","2","1","1,0.7,0,1,0.7,0,0.7,0,1","1,0.7,0,1,0.7,0,0.7,0,1","1",""
"","html-keyboard-response","193","99898","0.0-283.0","3TXD01ZLD538T1BSFN54Q23VZKTU4P","A3PRQ2GSU42718","3JAOYN9IHLO1QRHB9NZI45P11ZM33A","","null","<img src=""img/food3.png"" style=""width:200px; border:14px solid green;"">","null","","","","","","","","","",""
"","image-keyboard-response","194","99941","0.0-284.0","3TXD01ZLD538T1BSFN54Q23VZKTU4P","A3PRQ2GSU42718","3JAOYN9IHLO1QRHB9NZI45P11ZM33A","","41","img/food6.png","74","43","1","1","","1","1","1,0.7,0,1,0.7,0,0.7,0,1","1,0.7,0,1,0.7,0,0.7,0,1","1",""
"","html-keyboard-response","195","100247","0.0-285.0","3TXD01ZLD538T1BSFN54Q23VZKTU4P","A3PRQ2GSU42718","3JAOYN9IHLO1QRHB9NZI45P11ZM33A","","null","<img src=""img/food6.png"" style=""width:200px; border:14px solid green;"">","null","","","","","","","","","",""
"","image-keyboard-response","196","100285","0.0-286.0","3TXD01ZLD538T1BSFN54Q23VZKTU4P","A3PRQ2GSU42718","3JAOYN9IHLO1QRHB9NZI45P11ZM33A","","35","img/food6.png","74","36","1","1","","1","1","1,0.7,0,1,0.7,0,0.7,0,1","1,0.7,0,1,0.7,0,0.7,0,1","1",""
"","html-keyboard-response","197","100599","0.0-287.0","3TXD01ZLD538T1BSFN54Q23VZKTU4P","A3PRQ2GSU42718","3JAOYN9IHLO1QRHB9NZI45P11ZM33A","","null","<img src=""img/food6.png"" style=""width:200px; border:14px solid green;"">","null","","","","","","","","","",""
"","image-keyboard-response","198","100672","0.0-288.0","3TXD01ZLD538T1BSFN54Q23VZKTU4P","A3PRQ2GSU42718","3JAOYN9IHLO1QRHB9NZI45P11ZM33A","","72","img/food5.png","74","74","1","0","","3","1","1,0.7,0,1,0.7,0,0.7,0,1","1,0.7,0,1,0.7,0,0.7,0,1","1",""
"","html-keyboard-response","199","100978","0.0-289.0","3TXD01ZLD538T1BSFN54Q23VZKTU4P","A3PRQ2GSU42718","3JAOYN9IHLO1QRHB9NZI45P11ZM33A","","null","<img src=""img/food5.png"" style=""width:200px;border:14px solid red;"">","null","","","","","","","","","",""
"","image-keyboard-response","200","101053","0.0-290.0","3TXD01ZLD538T1BSFN54Q23VZKTU4P","A3PRQ2GSU42718","3JAOYN9IHLO1QRHB9NZI45P11ZM33A","","73","img/food3.png","74","74","1","1","","2","1","1,0.7,0,1,0.7,0,0.7,0,1","1,0.7,0,1,0.7,0,0.7,0,1","1",""
"","html-keyboard-response","201","101369","0.0-291.0","3TXD01ZLD538T1BSFN54Q23VZKTU4P","A3PRQ2GSU42718","3JAOYN9IHLO1QRHB9NZI45P11ZM33A","","null","<img src=""img/food3.png"" style=""width:200px; border:14px solid green;"">","null","","","","","","","","","",""
"","image-keyboard-response","202","101401","0.0-292.0","3TXD01ZLD538T1BSFN54Q23VZKTU4P","A3PRQ2GSU42718","3JAOYN9IHLO1QRHB9NZI45P11ZM33A","","31","img/food3.png","74","32","1","1","","2","1","1,0.7,0,1,0.7,0,0.7,0,1","1,0.7,0,1,0.7,0,0.7,0,1","1",""
"","html-keyboard-response","203","101718","0.0-293.0","3TXD01ZLD538T1BSFN54Q23VZKTU4P","A3PRQ2GSU42718","3JAOYN9IHLO1QRHB9NZI45P11ZM33A","","null","<img src=""img/food3.png"" style=""width:200px; border:14px solid green;"">","null","","","","","","","","","",""
"","image-keyboard-response","204","101798","0.0-294.0","3TXD01ZLD538T1BSFN54Q23VZKTU4P","A3PRQ2GSU42718","3JAOYN9IHLO1QRHB9NZI45P11ZM33A","","79","img/food5.png","74","81","1","1","","3","1","1,0.7,0,1,0.7,0,0.7,0,1","1,0.7,0,1,0.7,0,0.7,0,1","1",""
"","html-keyboard-response","205","102102","0.0-295.0","3TXD01ZLD538T1BSFN54Q23VZKTU4P","A3PRQ2GSU42718","3JAOYN9IHLO1QRHB9NZI45P11ZM33A","","null","<img src=""img/food5.png"" style=""width:200px; border:14px solid green;"">","null","","","","","","","","","",""
"","image-keyboard-response","206","102178","0.0-296.0","3TXD01ZLD538T1BSFN54Q23VZKTU4P","A3PRQ2GSU42718","3JAOYN9IHLO1QRHB9NZI45P11ZM33A","","74","img/food3.png","74","75","1","1","","2","1","1,0.7,0,1,0.7,0,0.7,0,1","1,0.7,0,1,0.7,0,0.7,0,1","1",""
"","html-keyboard-response","207","102493","0.0-297.0","3TXD01ZLD538T1BSFN54Q23VZKTU4P","A3PRQ2GSU42718","3JAOYN9IHLO1QRHB9NZI45P11ZM33A","","null","<img src=""img/food3.png"" style=""width:200px; border:14px solid green;"">","null","","","","","","","","","",""
"","image-keyboard-response","208","102519","0.0-298.0","3TXD01ZLD538T1BSFN54Q23VZKTU4P","A3PRQ2GSU42718","3JAOYN9IHLO1QRHB9NZI45P11ZM33A","","25","img/food3.png","74","26","1","1","","2","1","1,0.7,0,1,0.7,0,0.7,0,1","1,0.7,0,1,0.7,0,0.7,0,1","1",""
"","html-keyboard-response","209","102834","0.0-299.0","3TXD01ZLD538T1BSFN54Q23VZKTU4P","A3PRQ2GSU42718","3JAOYN9IHLO1QRHB9NZI45P11ZM33A","","null","<img src=""img/food3.png"" style=""width:200px; border:14px solid green;"">","null","","","","","","","","","",""
"","image-keyboard-response","210","102871","0.0-300.0","3TXD01ZLD538T1BSFN54Q23VZKTU4P","A3PRQ2GSU42718","3JAOYN9IHLO1QRHB9NZI45P11ZM33A","","36","img/food3.png","74","37","1","1","","2","1","1,0.7,0,1,0.7,0,0.7,0,1","1,0.7,0,1,0.7,0,0.7,0,1","1",""
"","html-keyboard-response","211","103173","0.0-301.0","3TXD01ZLD538T1BSFN54Q23VZKTU4P","A3PRQ2GSU42718","3JAOYN9IHLO1QRHB9NZI45P11ZM33A","","null","<img src=""img/food3.png"" style=""width:200px; border:14px solid green;"">","null","","","","","","","","","",""
"","image-keyboard-response","212","103217","0.0-302.0","3TXD01ZLD538T1BSFN54Q23VZKTU4P","A3PRQ2GSU42718","3JAOYN9IHLO1QRHB9NZI45P11ZM33A","","42","img/food6.png","74","44","1","1","","1","1","1,0.7,0,1,0.7,0,0.7,0,1","1,0.7,0,1,0.7,0,0.7,0,1","1",""
"","html-keyboard-response","213","103520","0.0-303.0","3TXD01ZLD538T1BSFN54Q23VZKTU4P","A3PRQ2GSU42718","3JAOYN9IHLO1QRHB9NZI45P11ZM33A","","null","<img src=""img/food6.png"" style=""width:200px; border:14px solid green;"">","null","","","","","","","","","",""
"","image-keyboard-response","214","103584","0.0-304.0","3TXD01ZLD538T1BSFN54Q23VZKTU4P","A3PRQ2GSU42718","3JAOYN9IHLO1QRHB9NZI45P11ZM33A","","62","img/food5.png","74","64","1","1","","3","1","1,0.7,0,1,0.7,0,0.7,0,1","1,0.7,0,1,0.7,0,0.7,0,1","1",""
"","html-keyboard-response","215","103890","0.0-305.0","3TXD01ZLD538T1BSFN54Q23VZKTU4P","A3PRQ2GSU42718","3JAOYN9IHLO1QRHB9NZI45P11ZM33A","","null","<img src=""img/food5.png"" style=""width:200px; border:14px solid green;"">","null","","","","","","","","","",""
"","image-keyboard-response","216","103914","0.0-306.0","3TXD01ZLD538T1BSFN54Q23VZKTU4P","A3PRQ2GSU42718","3JAOYN9IHLO1QRHB9NZI45P11ZM33A","","23","img/food5.png","74","24","1","1","","3","1","1,0.7,0,1,0.7,0,0.7,0,1","1,0.7,0,1,0.7,0,0.7,0,1","1",""
"","html-keyboard-response","217","104223","0.0-307.0","3TXD01ZLD538T1BSFN54Q23VZKTU4P","A3PRQ2GSU42718","3JAOYN9IHLO1QRHB9NZI45P11ZM33A","","null","<img src=""img/food5.png"" style=""width:200px; border:14px solid green;"">","null","","","","","","","","","",""
"","image-keyboard-response","218","104243","0.0-308.0","3TXD01ZLD538T1BSFN54Q23VZKTU4P","A3PRQ2GSU42718","3JAOYN9IHLO1QRHB9NZI45P11ZM33A","","18","img/food3.png","74","20","1","1","","2","1","1,0.7,0,1,0.7,0,0.7,0,1","1,0.7,0,1,0.7,0,0.7,0,1","1",""
"","html-keyboard-response","219","104553","0.0-309.0","3TXD01ZLD538T1BSFN54Q23VZKTU4P","A3PRQ2GSU42718","3JAOYN9IHLO1QRHB9NZI45P11ZM33A","","null","<img src=""img/food3.png"" style=""width:200px; border:14px solid green;"">","null","","","","","","","","","",""
"","image-keyboard-response","220","104570","0.0-310.0","3TXD01ZLD538T1BSFN54Q23VZKTU4P","A3PRQ2GSU42718","3JAOYN9IHLO1QRHB9NZI45P11ZM33A","","16","img/food6.png","74","16","1","1","","1","1","1,0.7,0,1,0.7,0,0.7,0,1","1,0.7,0,1,0.7,0,0.7,0,1","1",""
"","html-keyboard-response","221","104877","0.0-311.0","3TXD01ZLD538T1BSFN54Q23VZKTU4P","A3PRQ2GSU42718","3JAOYN9IHLO1QRHB9NZI45P11ZM33A","","null","<img src=""img/food6.png"" style=""width:200px; border:14px solid green;"">","null","","","","","","","","","",""
"","image-keyboard-response","222","104896","0.0-312.0","3TXD01ZLD538T1BSFN54Q23VZKTU4P","A3PRQ2GSU42718","3JAOYN9IHLO1QRHB9NZI45P11ZM33A","","19","img/food6.png","74","19","1","1","","1","1","1,0.7,0,1,0.7,0,0.7,0,1","1,0.7,0,1,0.7,0,0.7,0,1","1",""
"","html-keyboard-response","223","105206","0.0-313.0","3TXD01ZLD538T1BSFN54Q23VZKTU4P","A3PRQ2GSU42718","3JAOYN9IHLO1QRHB9NZI45P11ZM33A","","null","<img src=""img/food6.png"" style=""width:200px; border:14px solid green;"">","null","","","","","","","","","",""
"","image-keyboard-response","224","105219","0.0-314.0","3TXD01ZLD538T1BSFN54Q23VZKTU4P","A3PRQ2GSU42718","3JAOYN9IHLO1QRHB9NZI45P11ZM33A","","12","img/food6.png","74","13","1","1","","1","1","1,0.7,0,1,0.7,0,0.7,0,1","1,0.7,0,1,0.7,0,0.7,0,1","1",""
"","html-keyboard-response","225","105527","0.0-315.0","3TXD01ZLD538T1BSFN54Q23VZKTU4P","A3PRQ2GSU42718","3JAOYN9IHLO1QRHB9NZI45P11ZM33A","","null","<img src=""img/food6.png"" style=""width:200px; border:14px solid green;"">","null","","","","","","","","","",""
"","image-keyboard-response","226","105558","0.0-316.0","3TXD01ZLD538T1BSFN54Q23VZKTU4P","A3PRQ2GSU42718","3JAOYN9IHLO1QRHB9NZI45P11ZM33A","","30","img/food6.png","74","31","1","1","","1","1","1,0.7,0,1,0.7,0,0.7,0,1","1,0.7,0,1,0.7,0,0.7,0,1","1",""
"","html-keyboard-response","227","105878","0.0-317.0","3TXD01ZLD538T1BSFN54Q23VZKTU4P","A3PRQ2GSU42718","3JAOYN9IHLO1QRHB9NZI45P11ZM33A","","null","<img src=""img/food6.png"" style=""width:200px; border:14px solid green;"">","null","","","","","","","","","",""
"","image-keyboard-response","228","105904","0.0-318.0","3TXD01ZLD538T1BSFN54Q23VZKTU4P","A3PRQ2GSU42718","3JAOYN9IHLO1QRHB9NZI45P11ZM33A","","25","img/food3.png","74","26","1","1","","2","1","1,0.7,0,1,0.7,0,0.7,0,1","1,0.7,0,1,0.7,0,0.7,0,1","1",""
"","html-keyboard-response","229","106212","0.0-319.0","3TXD01ZLD538T1BSFN54Q23VZKTU4P","A3PRQ2GSU42718","3JAOYN9IHLO1QRHB9NZI45P11ZM33A","","null","<img src=""img/food3.png"" style=""width:200px; border:14px solid green;"">","null","","","","","","","","","",""
"","image-keyboard-response","230","106223","0.0-320.0","3TXD01ZLD538T1BSFN54Q23VZKTU4P","A3PRQ2GSU42718","3JAOYN9IHLO1QRHB9NZI45P11ZM33A","","11","img/food6.png","74","12","1","1","","1","1","1,0.7,0,1,0.7,0,0.7,0,1","1,0.7,0,1,0.7,0,0.7,0,1","1",""
"","html-keyboard-response","231","106527","0.0-321.0","3TXD01ZLD538T1BSFN54Q23VZKTU4P","A3PRQ2GSU42718","3JAOYN9IHLO1QRHB9NZI45P11ZM33A","","null","<img src=""img/food6.png"" style=""width:200px; border:14px solid green;"">","null","","","","","","","","","",""
"","image-keyboard-response","232","106538","0.0-322.0","3TXD01ZLD538T1BSFN54Q23VZKTU4P","A3PRQ2GSU42718","3JAOYN9IHLO1QRHB9NZI45P11ZM33A","","10","img/food6.png","74","11","1","1","","1","1","1,0.7,0,1,0.7,0,0.7,0,1","1,0.7,0,1,0.7,0,0.7,0,1","1",""
"","html-keyboard-response","233","106848","0.0-323.0","3TXD01ZLD538T1BSFN54Q23VZKTU4P","A3PRQ2GSU42718","3JAOYN9IHLO1QRHB9NZI45P11ZM33A","","null","<img src=""img/food6.png"" style=""width:200px; border:14px solid green;"">","null","","","","","","","","","",""
"","image-keyboard-response","234","106903","0.0-324.0","3TXD01ZLD538T1BSFN54Q23VZKTU4P","A3PRQ2GSU42718","3JAOYN9IHLO1QRHB9NZI45P11ZM33A","","53","img/food6.png","74","55","1","1","","1","1","1,0.7,0,1,0.7,0,0.7,0,1","1,0.7,0,1,0.7,0,0.7,0,1","1",""
"","html-keyboard-response","235","107213","0.0-325.0","3TXD01ZLD538T1BSFN54Q23VZKTU4P","A3PRQ2GSU42718","3JAOYN9IHLO1QRHB9NZI45P11ZM33A","","null","<img src=""img/food6.png"" style=""width:200px; border:14px solid green;"">","null","","","","","","","","","",""
"","image-keyboard-response","236","107230","0.0-326.0","3TXD01ZLD538T1BSFN54Q23VZKTU4P","A3PRQ2GSU42718","3JAOYN9IHLO1QRHB9NZI45P11ZM33A","","15","img/food3.png","74","15","1","1","","2","1","1,0.7,0,1,0.7,0,0.7,0,1","1,0.7,0,1,0.7,0,0.7,0,1","1",""
"","html-keyboard-response","237","107546","0.0-327.0","3TXD01ZLD538T1BSFN54Q23VZKTU4P","A3PRQ2GSU42718","3JAOYN9IHLO1QRHB9NZI45P11ZM33A","","null","<img src=""img/food3.png"" style=""width:200px; border:14px solid green;"">","null","","","","","","","","","",""
"","image-keyboard-response","238","107569","0.0-328.0","3TXD01ZLD538T1BSFN54Q23VZKTU4P","A3PRQ2GSU42718","3JAOYN9IHLO1QRHB9NZI45P11ZM33A","","22","img/food3.png","74","22","1","1","","2","1","1,0.7,0,1,0.7,0,0.7,0,1","1,0.7,0,1,0.7,0,0.7,0,1","1",""
"","html-keyboard-response","239","107882","0.0-329.0","3TXD01ZLD538T1BSFN54Q23VZKTU4P","A3PRQ2GSU42718","3JAOYN9IHLO1QRHB9NZI45P11ZM33A","","null","<img src=""img/food3.png"" style=""width:200px; border:14px solid green;"">","null","","","","","","","","","",""
"","image-keyboard-response","240","107933","0.0-330.0","3TXD01ZLD538T1BSFN54Q23VZKTU4P","A3PRQ2GSU42718","3JAOYN9IHLO1QRHB9NZI45P11ZM33A","","49","img/food3.png","74","50","1","1","","2","1","1,0.7,0,1,0.7,0,0.7,0,1","1,0.7,0,1,0.7,0,0.7,0,1","1",""
"","html-keyboard-response","241","108243","0.0-331.0","3TXD01ZLD538T1BSFN54Q23VZKTU4P","A3PRQ2GSU42718","3JAOYN9IHLO1QRHB9NZI45P11ZM33A","","null","<img src=""img/food3.png"" style=""width:200px; border:14px solid green;"">","null","","","","","","","","","",""
"","image-keyboard-response","242","108546","0.0-332.0","3TXD01ZLD538T1BSFN54Q23VZKTU4P","A3PRQ2GSU42718","3JAOYN9IHLO1QRHB9NZI45P11ZM33A","","301","img/food3.png","74","303","1","1","","2","1","1,0.7,0,1,0.7,0,0.7,0,1","1,0.7,0,1,0.7,0,0.7,0,1","1",""
"","html-keyboard-response","243","108851","0.0-333.0","3TXD01ZLD538T1BSFN54Q23VZKTU4P","A3PRQ2GSU42718","3JAOYN9IHLO1QRHB9NZI45P11ZM33A","","null","<img src=""img/food3.png"" style=""width:200px; border:14px solid green;"">","null","","","","","","","","","",""
"","image-keyboard-response","244","108856","0.0-334.0","3TXD01ZLD538T1BSFN54Q23VZKTU4P","A3PRQ2GSU42718","3JAOYN9IHLO1QRHB9NZI45P11ZM33A","","3","img/food5.png","74","4","1","1","","3","1","1,0.7,0,1,0.7,0,0.7,0,1","1,0.7,0,1,0.7,0,0.7,0,1","1",""
"","html-keyboard-response","245","109163","0.0-335.0","3TXD01ZLD538T1BSFN54Q23VZKTU4P","A3PRQ2GSU42718","3JAOYN9IHLO1QRHB9NZI45P11ZM33A","","null","<img src=""img/food5.png"" style=""width:200px; border:14px solid green;"">","null","","","","","","","","","",""
"","image-keyboard-response","246","109171","0.0-336.0","3TXD01ZLD538T1BSFN54Q23VZKTU4P","A3PRQ2GSU42718","3JAOYN9IHLO1QRHB9NZI45P11ZM33A","","8","img/food6.png","74","8","1","1","","1","1","1,0.7,0,1,0.7,0,0.7,0,1","1,0.7,0,1,0.7,0,0.7,0,1","1",""
"","html-keyboard-response","247","109486","0.0-337.0","3TXD01ZLD538T1BSFN54Q23VZKTU4P","A3PRQ2GSU42718","3JAOYN9IHLO1QRHB9NZI45P11ZM33A","","null","<img src=""img/food6.png"" style=""width:200px; border:14px solid green;"">","null","","","","","","","","","",""
"","image-keyboard-response","248","109490","0.0-338.0","3TXD01ZLD538T1BSFN54Q23VZKTU4P","A3PRQ2GSU42718","3JAOYN9IHLO1QRHB9NZI45P11ZM33A","","2","img/food5.png","74","3","1","0","","3","1","1,0.7,0,1,0.7,0,0.7,0,1","1,0.7,0,1,0.7,0,0.7,0,1","1",""
"","html-keyboard-response","249","109795","0.0-339.0","3TXD01ZLD538T1BSFN54Q23VZKTU4P","A3PRQ2GSU42718","3JAOYN9IHLO1QRHB9NZI45P11ZM33A","","null","<img src=""img/food5.png"" style=""width:200px;border:14px solid red;"">","null","","","","","","","","","",""
"","image-keyboard-response","250","109827","0.0-340.0","3TXD01ZLD538T1BSFN54Q23VZKTU4P","A3PRQ2GSU42718","3JAOYN9IHLO1QRHB9NZI45P11ZM33A","","30","img/food3.png","74","30","1","1","","2","1","1,0.7,0,1,0.7,0,0.7,0,1","1,0.7,0,1,0.7,0,0.7,0,1","1",""
"","html-keyboard-response","251","110133","0.0-341.0","3TXD01ZLD538T1BSFN54Q23VZKTU4P","A3PRQ2GSU42718","3JAOYN9IHLO1QRHB9NZI45P11ZM33A","","null","<img src=""img/food3.png"" style=""width:200px; border:14px solid green;"">","null","","","","","","","","","",""
"","image-keyboard-response","252","110169","0.0-342.0","3TXD01ZLD538T1BSFN54Q23VZKTU4P","A3PRQ2GSU42718","3JAOYN9IHLO1QRHB9NZI45P11ZM33A","","34","img/food3.png","74","35","1","1","","2","1","1,0.7,0,1,0.7,0,0.7,0,1","1,0.7,0,1,0.7,0,0.7,0,1","1",""
"","html-keyboard-response","253","110473","0.0-343.0","3TXD01ZLD538T1BSFN54Q23VZKTU4P","A3PRQ2GSU42718","3JAOYN9IHLO1QRHB9NZI45P11ZM33A","","null","<img src=""img/food3.png"" style=""width:200px; border:14px solid green;"">","null","","","","","","","","","",""
"","image-keyboard-response","254","110500","0.0-344.0","3TXD01ZLD538T1BSFN54Q23VZKTU4P","A3PRQ2GSU42718","3JAOYN9IHLO1QRHB9NZI45P11ZM33A","","25","img/food6.png","74","27","1","1","","1","1","1,0.7,0,1,0.7,0,0.7,0,1","1,0.7,0,1,0.7,0,0.7,0,1","1",""
"","html-keyboard-response","255","110807","0.0-345.0","3TXD01ZLD538T1BSFN54Q23VZKTU4P","A3PRQ2GSU42718","3JAOYN9IHLO1QRHB9NZI45P11ZM33A","","null","<img src=""img/food6.png"" style=""width:200px; border:14px solid green;"">","null","","","","","","","","","",""
"","image-keyboard-response","256","110830","0.0-346.0","3TXD01ZLD538T1BSFN54Q23VZKTU4P","A3PRQ2GSU42718","3JAOYN9IHLO1QRHB9NZI45P11ZM33A","","21","img/food6.png","74","22","1","1","","1","1","1,0.7,0,1,0.7,0,0.7,0,1","1,0.7,0,1,0.7,0,0.7,0,1","1",""
"","html-keyboard-response","257","111136","0.0-347.0","3TXD01ZLD538T1BSFN54Q23VZKTU4P","A3PRQ2GSU42718","3JAOYN9IHLO1QRHB9NZI45P11ZM33A","","null","<img src=""img/food6.png"" style=""width:200px; border:14px solid green;"">","null","","","","","","","","","",""
"","image-keyboard-response","258","111162","0.0-348.0","3TXD01ZLD538T1BSFN54Q23VZKTU4P","A3PRQ2GSU42718","3JAOYN9IHLO1QRHB9NZI45P11ZM33A","","24","img/food5.png","74","25","1","1","","3","1","1,0.7,0,1,0.7,0,0.7,0,1","1,0.7,0,1,0.7,0,0.7,0,1","1",""
"","html-keyboard-response","259","111471","0.0-349.0","3TXD01ZLD538T1BSFN54Q23VZKTU4P","A3PRQ2GSU42718","3JAOYN9IHLO1QRHB9NZI45P11ZM33A","","null","<img src=""img/food5.png"" style=""width:200px; border:14px solid green;"">","null","","","","","","","","","",""
"","image-keyboard-response","260","111481","0.0-350.0","3TXD01ZLD538T1BSFN54Q23VZKTU4P","A3PRQ2GSU42718","3JAOYN9IHLO1QRHB9NZI45P11ZM33A","","9","img/food6.png","74","10","1","1","","1","1","1,0.7,0,1,0.7,0,0.7,0,1","1,0.7,0,1,0.7,0,0.7,0,1","1",""
"","html-keyboard-response","261","111793","0.0-351.0","3TXD01ZLD538T1BSFN54Q23VZKTU4P","A3PRQ2GSU42718","3JAOYN9IHLO1QRHB9NZI45P11ZM33A","","null","<img src=""img/food6.png"" style=""width:200px; border:14px solid green;"">","null","","","","","","","","","",""
"","image-keyboard-response","262","111814","0.0-352.0","3TXD01ZLD538T1BSFN54Q23VZKTU4P","A3PRQ2GSU42718","3JAOYN9IHLO1QRHB9NZI45P11ZM33A","","19","img/food5.png","74","21","1","0","","3","1","1,0.7,0,1,0.7,0,0.7,0,1","1,0.7,0,1,0.7,0,0.7,0,1","1",""
"","html-keyboard-response","263","112123","0.0-353.0","3TXD01ZLD538T1BSFN54Q23VZKTU4P","A3PRQ2GSU42718","3JAOYN9IHLO1QRHB9NZI45P11ZM33A","","null","<img src=""img/food5.png"" style=""width:200px;border:14px solid red;"">","null","","","","","","","","","",""
"","image-keyboard-response","264","112176","0.0-354.0","3TXD01ZLD538T1BSFN54Q23VZKTU4P","A3PRQ2GSU42718","3JAOYN9IHLO1QRHB9NZI45P11ZM33A","","51","img/food6.png","74","54","1","1","","1","1","1,0.7,0,1,0.7,0,0.7,0,1","1,0.7,0,1,0.7,0,0.7,0,1","1",""
"","html-keyboard-response","265","112493","0.0-355.0","3TXD01ZLD538T1BSFN54Q23VZKTU4P","A3PRQ2GSU42718","3JAOYN9IHLO1QRHB9NZI45P11ZM33A","","null","<img src=""img/food6.png"" style=""width:200px; border:14px solid green;"">","null","","","","","","","","","",""
"","image-keyboard-response","266","112497","0.0-356.0","3TXD01ZLD538T1BSFN54Q23VZKTU4P","A3PRQ2GSU42718","3JAOYN9IHLO1QRHB9NZI45P11ZM33A","","2","img/food5.png","74","3","1","1","","3","1","1,0.7,0,1,0.7,0,0.7,0,1","1,0.7,0,1,0.7,0,0.7,0,1","1",""
"","html-keyboard-response","267","112824","0.0-357.0","3TXD01ZLD538T1BSFN54Q23VZKTU4P","A3PRQ2GSU42718","3JAOYN9IHLO1QRHB9NZI45P11ZM33A","","null","<img src=""img/food5.png"" style=""width:200px; border:14px solid green;"">","null","","","","","","","","","",""
"","image-keyboard-response","268","112861","0.0-358.0","3TXD01ZLD538T1BSFN54Q23VZKTU4P","A3PRQ2GSU42718","3JAOYN9IHLO1QRHB9NZI45P11ZM33A","","34","img/food3.png","74","36","1","1","","2","1","1,0.7,0,1,0.7,0,0.7,0,1","1,0.7,0,1,0.7,0,0.7,0,1","1",""
"","html-keyboard-response","269","113167","0.0-359.0","3TXD01ZLD538T1BSFN54Q23VZKTU4P","A3PRQ2GSU42718","3JAOYN9IHLO1QRHB9NZI45P11ZM33A","","null","<img src=""img/food3.png"" style=""width:200px; border:14px solid green;"">","null","","","","","","","","","",""
"","image-keyboard-response","270","113207","0.0-360.0","3TXD01ZLD538T1BSFN54Q23VZKTU4P","A3PRQ2GSU42718","3JAOYN9IHLO1QRHB9NZI45P11ZM33A","","39","img/food5.png","74","40","1","1","","3","1","1,0.7,0,1,0.7,0,0.7,0,1","1,0.7,0,1,0.7,0,0.7,0,1","1",""
"","html-keyboard-response","271","113512","0.0-361.0","3TXD01ZLD538T1BSFN54Q23VZKTU4P","A3PRQ2GSU42718","3JAOYN9IHLO1QRHB9NZI45P11ZM33A","","null","<img src=""img/food5.png"" style=""width:200px; border:14px solid green;"">","null","","","","","","","","","",""
"","image-keyboard-response","272","113548","0.0-362.0","3TXD01ZLD538T1BSFN54Q23VZKTU4P","A3PRQ2GSU42718","3JAOYN9IHLO1QRHB9NZI45P11ZM33A","","34","img/food5.png","74","35","1","0","","3","1","1,0.7,0,1,0.7,0,0.7,0,1","1,0.7,0,1,0.7,0,0.7,0,1","1",""
"","html-keyboard-response","273","113852","0.0-363.0","3TXD01ZLD538T1BSFN54Q23VZKTU4P","A3PRQ2GSU42718","3JAOYN9IHLO1QRHB9NZI45P11ZM33A","","null","<img src=""img/food5.png"" style=""width:200px;border:14px solid red;"">","null","","","","","","","","","",""
"","image-keyboard-response","274","113863","0.0-364.0","3TXD01ZLD538T1BSFN54Q23VZKTU4P","A3PRQ2GSU42718","3JAOYN9IHLO1QRHB9NZI45P11ZM33A","","11","img/food6.png","74","12","1","1","","1","1","1,0.7,0,1,0.7,0,0.7,0,1","1,0.7,0,1,0.7,0,0.7,0,1","1",""
"","html-keyboard-response","275","114171","0.0-365.0","3TXD01ZLD538T1BSFN54Q23VZKTU4P","A3PRQ2GSU42718","3JAOYN9IHLO1QRHB9NZI45P11ZM33A","","null","<img src=""img/food6.png"" style=""width:200px; border:14px solid green;"">","null","","","","","","","","","",""
"","image-keyboard-response","276","114201","0.0-366.0","3TXD01ZLD538T1BSFN54Q23VZKTU4P","A3PRQ2GSU42718","3JAOYN9IHLO1QRHB9NZI45P11ZM33A","","29","img/food6.png","74","30","1","1","","1","1","1,0.7,0,1,0.7,0,0.7,0,1","1,0.7,0,1,0.7,0,0.7,0,1","1",""
"","html-keyboard-response","277","114513","0.0-367.0","3TXD01ZLD538T1BSFN54Q23VZKTU4P","A3PRQ2GSU42718","3JAOYN9IHLO1QRHB9NZI45P11ZM33A","","null","<img src=""img/food6.png"" style=""width:200px; border:14px solid green;"">","null","","","","","","","","","",""
"","image-keyboard-response","278","114536","0.0-368.0","3TXD01ZLD538T1BSFN54Q23VZKTU4P","A3PRQ2GSU42718","3JAOYN9IHLO1QRHB9NZI45P11ZM33A","","22","img/food3.png","74","24","1","1","","2","1","1,0.7,0,1,0.7,0,0.7,0,1","1,0.7,0,1,0.7,0,0.7,0,1","1",""
"","html-keyboard-response","279","114855","0.0-369.0","3TXD01ZLD538T1BSFN54Q23VZKTU4P","A3PRQ2GSU42718","3JAOYN9IHLO1QRHB9NZI45P11ZM33A","","null","<img src=""img/food3.png"" style=""width:200px; border:14px solid green;"">","null","","","","","","","","","",""
"","image-keyboard-response","280","115178","0.0-370.0","3TXD01ZLD538T1BSFN54Q23VZKTU4P","A3PRQ2GSU42718","3JAOYN9IHLO1QRHB9NZI45P11ZM33A","","320","img/food5.png","74","322","1","1","","3","1","1,0.7,0,1,0.7,0,0.7,0,1","1,0.7,0,1,0.7,0,0.7,0,1","1",""
"","html-keyboard-response","281","115499","0.0-371.0","3TXD01ZLD538T1BSFN54Q23VZKTU4P","A3PRQ2GSU42718","3JAOYN9IHLO1QRHB9NZI45P11ZM33A","","null","<img src=""img/food5.png"" style=""width:200px; border:14px solid green;"">","null","","","","","","","","","",""
"","image-keyboard-response","282","115538","0.0-372.0","3TXD01ZLD538T1BSFN54Q23VZKTU4P","A3PRQ2GSU42718","3JAOYN9IHLO1QRHB9NZI45P11ZM33A","","38","img/food6.png","75","40","2","1","","1","1","1,0.7,0,1,0.7,0,0.7,0,1","1,0.7,0,1,0.7,0,0.7,0,1","1",""
"","html-keyboard-response","283","115861","0.0-373.0","3TXD01ZLD538T1BSFN54Q23VZKTU4P","A3PRQ2GSU42718","3JAOYN9IHLO1QRHB9NZI45P11ZM33A","","null","<img src=""img/food6.png"" style=""width:200px; border:14px solid green;"">","null","","","","","","","","","",""
"","image-keyboard-response","284","116201","0.0-374.0","3TXD01ZLD538T1BSFN54Q23VZKTU4P","A3PRQ2GSU42718","3JAOYN9IHLO1QRHB9NZI45P11ZM33A","","339","img/food5.png","74","340","1","0","","3","1","1,0.7,0,1,0.7,0,0.7,0,1","1,0.7,0,1,0.7,0,0.7,0,1","1",""
"","html-keyboard-response","285","116517","0.0-375.0","3TXD01ZLD538T1BSFN54Q23VZKTU4P","A3PRQ2GSU42718","3JAOYN9IHLO1QRHB9NZI45P11ZM33A","","null","<img src=""img/food5.png"" style=""width:200px;border:14px solid red;"">","null","","","","","","","","","",""
"","image-keyboard-response","286","116854","0.0-376.0","3TXD01ZLD538T1BSFN54Q23VZKTU4P","A3PRQ2GSU42718","3JAOYN9IHLO1QRHB9NZI45P11ZM33A","","336","img/food5.png","74","338","1","1","","3","1","1,0.7,0,1,0.7,0,0.7,0,1","1,0.7,0,1,0.7,0,0.7,0,1","1",""
"","html-keyboard-response","287","117167","0.0-377.0","3TXD01ZLD538T1BSFN54Q23VZKTU4P","A3PRQ2GSU42718","3JAOYN9IHLO1QRHB9NZI45P11ZM33A","","null","<img src=""img/food5.png"" style=""width:200px; border:14px solid green;"">","null","","","","","","","","","",""
"","image-keyboard-response","288","117171","0.0-378.0","3TXD01ZLD538T1BSFN54Q23VZKTU4P","A3PRQ2GSU42718","3JAOYN9IHLO1QRHB9NZI45P11ZM33A","","2","img/food5.png","75","4","2","0","","3","1","1,0.7,0,1,0.7,0,0.7,0,1","1,0.7,0,1,0.7,0,0.7,0,1","1",""
"","html-keyboard-response","289","117505","0.0-379.0","3TXD01ZLD538T1BSFN54Q23VZKTU4P","A3PRQ2GSU42718","3JAOYN9IHLO1QRHB9NZI45P11ZM33A","","null","<img src=""img/food5.png"" style=""width:200px;border:14px solid red;"">","null","","","","","","","","","",""
"","image-keyboard-response","290","117822","0.0-380.0","3TXD01ZLD538T1BSFN54Q23VZKTU4P","A3PRQ2GSU42718","3JAOYN9IHLO1QRHB9NZI45P11ZM33A","","317","img/food5.png","75","318","2","0","","3","1","1,0.7,0,1,0.7,0,0.7,0,1","1,0.7,0,1,0.7,0,0.7,0,1","1",""
"","html-keyboard-response","291","118133","0.0-381.0","3TXD01ZLD538T1BSFN54Q23VZKTU4P","A3PRQ2GSU42718","3JAOYN9IHLO1QRHB9NZI45P11ZM33A","","null","<img src=""img/food5.png"" style=""width:200px;border:14px solid red;"">","null","","","","","","","","","",""
"","image-keyboard-response","292","118429","0.0-382.0","3TXD01ZLD538T1BSFN54Q23VZKTU4P","A3PRQ2GSU42718","3JAOYN9IHLO1QRHB9NZI45P11ZM33A","","296","img/food6.png","74","296","1","1","","1","1","1,0.7,0,1,0.7,0,0.7,0,1","1,0.7,0,1,0.7,0,0.7,0,1","1",""
"","html-keyboard-response","293","118739","0.0-383.0","3TXD01ZLD538T1BSFN54Q23VZKTU4P","A3PRQ2GSU42718","3JAOYN9IHLO1QRHB9NZI45P11ZM33A","","null","<img src=""img/food6.png"" style=""width:200px; border:14px solid green;"">","null","","","","","","","","","",""
"","image-keyboard-response","294","118799","0.0-384.0","3TXD01ZLD538T1BSFN54Q23VZKTU4P","A3PRQ2GSU42718","3JAOYN9IHLO1QRHB9NZI45P11ZM33A","","57","img/food3.png","74","58","1","1","","2","1","1,0.7,0,1,0.7,0,0.7,0,1","1,0.7,0,1,0.7,0,0.7,0,1","1",""
"","html-keyboard-response","295","119102","0.0-385.0","3TXD01ZLD538T1BSFN54Q23VZKTU4P","A3PRQ2GSU42718","3JAOYN9IHLO1QRHB9NZI45P11ZM33A","","null","<img src=""img/food3.png"" style=""width:200px; border:14px solid green;"">","null","","","","","","","","","",""
"","image-keyboard-response","296","119420","0.0-386.0","3TXD01ZLD538T1BSFN54Q23VZKTU4P","A3PRQ2GSU42718","3JAOYN9IHLO1QRHB9NZI45P11ZM33A","","317","img/food3.png","74","318","1","1","","2","1","1,0.7,0,1,0.7,0,0.7,0,1","1,0.7,0,1,0.7,0,0.7,0,1","1",""
"","html-keyboard-response","297","119725","0.0-387.0","3TXD01ZLD538T1BSFN54Q23VZKTU4P","A3PRQ2GSU42718","3JAOYN9IHLO1QRHB9NZI45P11ZM33A","","null","<img src=""img/food3.png"" style=""width:200px; border:14px solid green;"">","null","","","","","","","","","",""
"","image-keyboard-response","298","119745","0.0-388.0","3TXD01ZLD538T1BSFN54Q23VZKTU4P","A3PRQ2GSU42718","3JAOYN9IHLO1QRHB9NZI45P11ZM33A","","19","img/food6.png","74","20","1","1","","1","1","1,0.7,0,1,0.7,0,0.7,0,1","1,0.7,0,1,0.7,0,0.7,0,1","1",""
"","html-keyboard-response","299","120062","0.0-389.0","3TXD01ZLD538T1BSFN54Q23VZKTU4P","A3PRQ2GSU42718","3JAOYN9IHLO1QRHB9NZI45P11ZM33A","","null","<img src=""img/food6.png"" style=""width:200px; border:14px solid green;"">","null","","","","","","","","","",""
"","image-keyboard-response","300","120095","0.0-390.0","3TXD01ZLD538T1BSFN54Q23VZKTU4P","A3PRQ2GSU42718","3JAOYN9IHLO1QRHB9NZI45P11ZM33A","","31","img/food5.png","74","32","1","0","","3","1","1,0.7,0,1,0.7,0,0.7,0,1","1,0.7,0,1,0.7,0,0.7,0,1","1",""
"","html-keyboard-response","301","120408","0.0-391.0","3TXD01ZLD538T1BSFN54Q23VZKTU4P","A3PRQ2GSU42718","3JAOYN9IHLO1QRHB9NZI45P11ZM33A","","null","<img src=""img/food5.png"" style=""width:200px;border:14px solid red;"">","null","","","","","","","","","",""
"","image-keyboard-response","302","120421","0.0-392.0","3TXD01ZLD538T1BSFN54Q23VZKTU4P","A3PRQ2GSU42718","3JAOYN9IHLO1QRHB9NZI45P11ZM33A","","12","img/food3.png","74","13","1","1","","2","1","1,0.7,0,1,0.7,0,0.7,0,1","1,0.7,0,1,0.7,0,0.7,0,1","1",""
"","html-keyboard-response","303","120722","0.0-393.0","3TXD01ZLD538T1BSFN54Q23VZKTU4P","A3PRQ2GSU42718","3JAOYN9IHLO1QRHB9NZI45P11ZM33A","","null","<img src=""img/food3.png"" style=""width:200px; border:14px solid green;"">","null","","","","","","","","","",""
"","image-keyboard-response","304","121028","0.0-394.0","3TXD01ZLD538T1BSFN54Q23VZKTU4P","A3PRQ2GSU42718","3JAOYN9IHLO1QRHB9NZI45P11ZM33A","","304","img/food3.png","74","305","1","1","","2","1","1,0.7,0,1,0.7,0,0.7,0,1","1,0.7,0,1,0.7,0,0.7,0,1","1",""
"","html-keyboard-response","305","121338","0.0-395.0","3TXD01ZLD538T1BSFN54Q23VZKTU4P","A3PRQ2GSU42718","3JAOYN9IHLO1QRHB9NZI45P11ZM33A","","null","<img src=""img/food3.png"" style=""width:200px; border:14px solid green;"">","null","","","","","","","","","",""
"","image-keyboard-response","306","121663","0.0-396.0","3TXD01ZLD538T1BSFN54Q23VZKTU4P","A3PRQ2GSU42718","3JAOYN9IHLO1QRHB9NZI45P11ZM33A","","323","img/food6.png","74","324","1","1","","1","1","1,0.7,0,1,0.7,0,0.7,0,1","1,0.7,0,1,0.7,0,0.7,0,1","1",""
"","html-keyboard-response","307","121970","0.0-397.0","3TXD01ZLD538T1BSFN54Q23VZKTU4P","A3PRQ2GSU42718","3JAOYN9IHLO1QRHB9NZI45P11ZM33A","","null","<img src=""img/food6.png"" style=""width:200px; border:14px solid green;"">","null","","","","","","","","","",""
"","image-keyboard-response","308","121983","0.0-398.0","3TXD01ZLD538T1BSFN54Q23VZKTU4P","A3PRQ2GSU42718","3JAOYN9IHLO1QRHB9NZI45P11ZM33A","","12","img/food6.png","74","13","1","1","","1","1","1,0.7,0,1,0.7,0,0.7,0,1","1,0.7,0,1,0.7,0,0.7,0,1","1",""
"","html-keyboard-response","309","122300","0.0-399.0","3TXD01ZLD538T1BSFN54Q23VZKTU4P","A3PRQ2GSU42718","3JAOYN9IHLO1QRHB9NZI45P11ZM33A","","null","<img src=""img/food6.png"" style=""width:200px; border:14px solid green;"">","null","","","","","","","","","",""
"","image-keyboard-response","310","122303","0.0-400.0","3TXD01ZLD538T1BSFN54Q23VZKTU4P","A3PRQ2GSU42718","3JAOYN9IHLO1QRHB9NZI45P11ZM33A","","2","img/food5.png","74","3","1","0","","3","1","1,0.7,0,1,0.7,0,0.7,0,1","1,0.7,0,1,0.7,0,0.7,0,1","1",""
"","html-keyboard-response","311","122620","0.0-401.0","3TXD01ZLD538T1BSFN54Q23VZKTU4P","A3PRQ2GSU42718","3JAOYN9IHLO1QRHB9NZI45P11ZM33A","","null","<img src=""img/food5.png"" style=""width:200px;border:14px solid red;"">","null","","","","","","","","","",""
"","image-keyboard-response","312","122653","0.0-402.0","3TXD01ZLD538T1BSFN54Q23VZKTU4P","A3PRQ2GSU42718","3JAOYN9IHLO1QRHB9NZI45P11ZM33A","","31","img/food3.png","74","33","1","1","","2","1","1,0.7,0,1,0.7,0,0.7,0,1","1,0.7,0,1,0.7,0,0.7,0,1","1",""
"","html-keyboard-response","313","122964","0.0-403.0","3TXD01ZLD538T1BSFN54Q23VZKTU4P","A3PRQ2GSU42718","3JAOYN9IHLO1QRHB9NZI45P11ZM33A","","null","<img src=""img/food3.png"" style=""width:200px; border:14px solid green;"">","null","","","","","","","","","",""
"","image-keyboard-response","314","122994","0.0-404.0","3TXD01ZLD538T1BSFN54Q23VZKTU4P","A3PRQ2GSU42718","3JAOYN9IHLO1QRHB9NZI45P11ZM33A","","28","img/food3.png","74","29","1","1","","2","1","1,0.7,0,1,0.7,0,0.7,0,1","1,0.7,0,1,0.7,0,0.7,0,1","1",""
"","html-keyboard-response","315","123303","0.0-405.0","3TXD01ZLD538T1BSFN54Q23VZKTU4P","A3PRQ2GSU42718","3JAOYN9IHLO1QRHB9NZI45P11ZM33A","","null","<img src=""img/food3.png"" style=""width:200px; border:14px solid green;"">","null","","","","","","","","","",""
"","image-keyboard-response","316","123604","0.0-406.0","3TXD01ZLD538T1BSFN54Q23VZKTU4P","A3PRQ2GSU42718","3JAOYN9IHLO1QRHB9NZI45P11ZM33A","","300","img/food3.png","74","301","1","1","","2","1","1,0.7,0,1,0.7,0,0.7,0,1","1,0.7,0,1,0.7,0,0.7,0,1","1",""
"","html-keyboard-response","317","123920","0.0-407.0","3TXD01ZLD538T1BSFN54Q23VZKTU4P","A3PRQ2GSU42718","3JAOYN9IHLO1QRHB9NZI45P11ZM33A","","null","<img src=""img/food3.png"" style=""width:200px; border:14px solid green;"">","null","","","","","","","","","",""
"","image-keyboard-response","318","123924","0.0-408.0","3TXD01ZLD538T1BSFN54Q23VZKTU4P","A3PRQ2GSU42718","3JAOYN9IHLO1QRHB9NZI45P11ZM33A","","3","img/food5.png","74","4","1","0","","3","1","1,0.7,0,1,0.7,0,0.7,0,1","1,0.7,0,1,0.7,0,0.7,0,1","1",""
"","html-keyboard-response","319","124240","0.0-409.0","3TXD01ZLD538T1BSFN54Q23VZKTU4P","A3PRQ2GSU42718","3JAOYN9IHLO1QRHB9NZI45P11ZM33A","","null","<img src=""img/food5.png"" style=""width:200px;border:14px solid red;"">","null","","","","","","","","","",""
"","image-keyboard-response","320","124535","0.0-410.0","3TXD01ZLD538T1BSFN54Q23VZKTU4P","A3PRQ2GSU42718","3JAOYN9IHLO1QRHB9NZI45P11ZM33A","","293","img/food5.png","74","295","1","1","","3","1","1,0.7,0,1,0.7,0,0.7,0,1","1,0.7,0,1,0.7,0,0.7,0,1","1",""
"","html-keyboard-response","321","124843","0.0-411.0","3TXD01ZLD538T1BSFN54Q23VZKTU4P","A3PRQ2GSU42718","3JAOYN9IHLO1QRHB9NZI45P11ZM33A","","null","<img src=""img/food5.png"" style=""width:200px; border:14px solid green;"">","null","","","","","","","","","",""
"","image-keyboard-response","322","124845","0.0-412.0","3TXD01ZLD538T1BSFN54Q23VZKTU4P","A3PRQ2GSU42718","3JAOYN9IHLO1QRHB9NZI45P11ZM33A","","2","img/food6.png","74","2","1","1","","1","1","1,0.7,0,1,0.7,0,0.7,0,1","1,0.7,0,1,0.7,0,0.7,0,1","1",""
"","html-keyboard-response","323","125150","0.0-413.0","3TXD01ZLD538T1BSFN54Q23VZKTU4P","A3PRQ2GSU42718","3JAOYN9IHLO1QRHB9NZI45P11ZM33A","","null","<img src=""img/food6.png"" style=""width:200px; border:14px solid green;"">","null","","","","","","","","","",""
"","image-keyboard-response","324","125435","0.0-414.0","3TXD01ZLD538T1BSFN54Q23VZKTU4P","A3PRQ2GSU42718","3JAOYN9IHLO1QRHB9NZI45P11ZM33A","","283","img/food3.png","74","284","1","1","","2","1","1,0.7,0,1,0.7,0,0.7,0,1","1,0.7,0,1,0.7,0,0.7,0,1","1",""
"","html-keyboard-response","325","125740","0.0-415.0","3TXD01ZLD538T1BSFN54Q23VZKTU4P","A3PRQ2GSU42718","3JAOYN9IHLO1QRHB9NZI45P11ZM33A","","null","<img src=""img/food3.png"" style=""width:200px; border:14px solid green;"">","null","","","","","","","","","",""
"","image-keyboard-response","326","126039","0.0-416.0","3TXD01ZLD538T1BSFN54Q23VZKTU4P","A3PRQ2GSU42718","3JAOYN9IHLO1QRHB9NZI45P11ZM33A","","298","img/food5.png","74","300","1","1","","3","1","1,0.7,0,1,0.7,0,0.7,0,1","1,0.7,0,1,0.7,0,0.7,0,1","1",""
"","html-keyboard-response","327","126348","0.0-417.0","3TXD01ZLD538T1BSFN54Q23VZKTU4P","A3PRQ2GSU42718","3JAOYN9IHLO1QRHB9NZI45P11ZM33A","","null","<img src=""img/food5.png"" style=""width:200px; border:14px solid green;"">","null","","","","","","","","","",""
"","image-keyboard-response","328","126631","0.0-418.0","3TXD01ZLD538T1BSFN54Q23VZKTU4P","A3PRQ2GSU42718","3JAOYN9IHLO1QRHB9NZI45P11ZM33A","","282","img/food3.png","74","283","1","1","","2","1","1,0.7,0,1,0.7,0,0.7,0,1","1,0.7,0,1,0.7,0,0.7,0,1","1",""
"","html-keyboard-response","329","126949","0.0-419.0","3TXD01ZLD538T1BSFN54Q23VZKTU4P","A3PRQ2GSU42718","3JAOYN9IHLO1QRHB9NZI45P11ZM33A","","null","<img src=""img/food3.png"" style=""width:200px; border:14px solid green;"">","null","","","","","","","","","",""
"","image-keyboard-response","330","127237","0.0-420.0","3TXD01ZLD538T1BSFN54Q23VZKTU4P","A3PRQ2GSU42718","3JAOYN9IHLO1QRHB9NZI45P11ZM33A","","287","img/food6.png","74","288","1","1","","1","1","1,0.7,0,1,0.7,0,0.7,0,1","1,0.7,0,1,0.7,0,0.7,0,1","1",""
"","html-keyboard-response","331","127550","0.0-421.0","3TXD01ZLD538T1BSFN54Q23VZKTU4P","A3PRQ2GSU42718","3JAOYN9IHLO1QRHB9NZI45P11ZM33A","","null","<img src=""img/food6.png"" style=""width:200px; border:14px solid green;"">","null","","","","","","","","","",""
"","image-keyboard-response","332","127559","0.0-422.0","3TXD01ZLD538T1BSFN54Q23VZKTU4P","A3PRQ2GSU42718","3JAOYN9IHLO1QRHB9NZI45P11ZM33A","","8","img/food5.png","74","8","1","1","","3","1","1,0.7,0,1,0.7,0,0.7,0,1","1,0.7,0,1,0.7,0,0.7,0,1","1",""
"","html-keyboard-response","333","127868","0.0-423.0","3TXD01ZLD538T1BSFN54Q23VZKTU4P","A3PRQ2GSU42718","3JAOYN9IHLO1QRHB9NZI45P11ZM33A","","null","<img src=""img/food5.png"" style=""width:200px; border:14px solid green;"">","null","","","","","","","","","",""
"","image-keyboard-response","334","127869","0.0-424.0","3TXD01ZLD538T1BSFN54Q23VZKTU4P","A3PRQ2GSU42718","3JAOYN9IHLO1QRHB9NZI45P11ZM33A","","0","img/food6.png","74","1","1","1","","1","1","1,0.7,0,1,0.7,0,0.7,0,1","1,0.7,0,1,0.7,0,0.7,0,1","1",""
"","html-keyboard-response","335","128184","0.0-425.0","3TXD01ZLD538T1BSFN54Q23VZKTU4P","A3PRQ2GSU42718","3JAOYN9IHLO1QRHB9NZI45P11ZM33A","","null","<img src=""img/food6.png"" style=""width:200px; border:14px solid green;"">","null","","","","","","","","","",""
"","image-keyboard-response","336","128495","0.0-426.0","3TXD01ZLD538T1BSFN54Q23VZKTU4P","A3PRQ2GSU42718","3JAOYN9IHLO1QRHB9NZI45P11ZM33A","","308","img/food5.png","74","310","1","0","","3","1","1,0.7,0,1,0.7,0,0.7,0,1","1,0.7,0,1,0.7,0,0.7,0,1","1",""
"","html-keyboard-response","337","128815","0.0-427.0","3TXD01ZLD538T1BSFN54Q23VZKTU4P","A3PRQ2GSU42718","3JAOYN9IHLO1QRHB9NZI45P11ZM33A","","null","<img src=""img/food5.png"" style=""width:200px;border:14px solid red;"">","null","","","","","","","","","",""
"","image-keyboard-response","338","128822","0.0-428.0","3TXD01ZLD538T1BSFN54Q23VZKTU4P","A3PRQ2GSU42718","3JAOYN9IHLO1QRHB9NZI45P11ZM33A","","5","img/food6.png","74","6","1","1","","1","1","1,0.7,0,1,0.7,0,0.7,0,1","1,0.7,0,1,0.7,0,0.7,0,1","1",""
"","html-keyboard-response","339","129138","0.0-429.0","3TXD01ZLD538T1BSFN54Q23VZKTU4P","A3PRQ2GSU42718","3JAOYN9IHLO1QRHB9NZI45P11ZM33A","","null","<img src=""img/food6.png"" style=""width:200px; border:14px solid green;"">","null","","","","","","","","","",""
"","image-keyboard-response","340","129441","0.0-430.0","3TXD01ZLD538T1BSFN54Q23VZKTU4P","A3PRQ2GSU42718","3JAOYN9IHLO1QRHB9NZI45P11ZM33A","","301","img/food6.png","74","302","1","1","","1","1","1,0.7,0,1,0.7,0,0.7,0,1","1,0.7,0,1,0.7,0,0.7,0,1","1",""
"","html-keyboard-response","341","129754","0.0-431.0","3TXD01ZLD538T1BSFN54Q23VZKTU4P","A3PRQ2GSU42718","3JAOYN9IHLO1QRHB9NZI45P11ZM33A","","null","<img src=""img/food6.png"" style=""width:200px; border:14px solid green;"">","null","","","","","","","","","",""
"","image-keyboard-response","342","130028","0.0-432.0","3TXD01ZLD538T1BSFN54Q23VZKTU4P","A3PRQ2GSU42718","3JAOYN9IHLO1QRHB9NZI45P11ZM33A","","271","img/food3.png","74","273","1","1","","2","1","1,0.7,0,1,0.7,0,0.7,0,1","1,0.7,0,1,0.7,0,0.7,0,1","1",""
"","html-keyboard-response","343","130330","0.0-433.0","3TXD01ZLD538T1BSFN54Q23VZKTU4P","A3PRQ2GSU42718","3JAOYN9IHLO1QRHB9NZI45P11ZM33A","","null","<img src=""img/food3.png"" style=""width:200px; border:14px solid green;"">","null","","","","","","","","","",""
"","image-keyboard-response","344","130355","0.0-434.0","3TXD01ZLD538T1BSFN54Q23VZKTU4P","A3PRQ2GSU42718","3JAOYN9IHLO1QRHB9NZI45P11ZM33A","","24","img/food3.png","74","25","1","1","","2","1","1,0.7,0,1,0.7,0,0.7,0,1","1,0.7,0,1,0.7,0,0.7,0,1","1",""
"","html-keyboard-response","345","130678","0.0-435.0","3TXD01ZLD538T1BSFN54Q23VZKTU4P","A3PRQ2GSU42718","3JAOYN9IHLO1QRHB9NZI45P11ZM33A","","null","<img src=""img/food3.png"" style=""width:200px; border:14px solid green;"">","null","","","","","","","","","",""
"","image-keyboard-response","346","130979","0.0-436.0","3TXD01ZLD538T1BSFN54Q23VZKTU4P","A3PRQ2GSU42718","3JAOYN9IHLO1QRHB9NZI45P11ZM33A","","299","img/food3.png","74","300","1","1","","2","1","1,0.7,0,1,0.7,0,0.7,0,1","1,0.7,0,1,0.7,0,0.7,0,1","1",""
"","html-keyboard-response","347","131288","0.0-437.0","3TXD01ZLD538T1BSFN54Q23VZKTU4P","A3PRQ2GSU42718","3JAOYN9IHLO1QRHB9NZI45P11ZM33A","","null","<img src=""img/food3.png"" style=""width:200px; border:14px solid green;"">","null","","","","","","","","","",""
"","image-keyboard-response","348","131583","0.0-438.0","3TXD01ZLD538T1BSFN54Q23VZKTU4P","A3PRQ2GSU42718","3JAOYN9IHLO1QRHB9NZI45P11ZM33A","","293","img/food6.png","74","295","1","1","","1","1","1,0.7,0,1,0.7,0,0.7,0,1","1,0.7,0,1,0.7,0,0.7,0,1","1",""
"","html-keyboard-response","349","131890","0.0-439.0","3TXD01ZLD538T1BSFN54Q23VZKTU4P","A3PRQ2GSU42718","3JAOYN9IHLO1QRHB9NZI45P11ZM33A","","null","<img src=""img/food6.png"" style=""width:200px; border:14px solid green;"">","null","","","","","","","","","",""
"","image-keyboard-response","350","131892","0.0-440.0","3TXD01ZLD538T1BSFN54Q23VZKTU4P","A3PRQ2GSU42718","3JAOYN9IHLO1QRHB9NZI45P11ZM33A","","1","img/food5.png","74","2","1","1","","3","1","1,0.7,0,1,0.7,0,0.7,0,1","1,0.7,0,1,0.7,0,0.7,0,1","1",""
"","html-keyboard-response","351","132213","0.0-441.0","3TXD01ZLD538T1BSFN54Q23VZKTU4P","A3PRQ2GSU42718","3JAOYN9IHLO1QRHB9NZI45P11ZM33A","","null","<img src=""img/food5.png"" style=""width:200px; border:14px solid green;"">","null","","","","","","","","","",""
"","image-keyboard-response","352","132511","0.0-442.0","3TXD01ZLD538T1BSFN54Q23VZKTU4P","A3PRQ2GSU42718","3JAOYN9IHLO1QRHB9NZI45P11ZM33A","","295","img/food5.png","74","296","1","1","","3","1","1,0.7,0,1,0.7,0,0.7,0,1","1,0.7,0,1,0.7,0,0.7,0,1","1",""
"","html-keyboard-response","353","132839","0.0-443.0","3TXD01ZLD538T1BSFN54Q23VZKTU4P","A3PRQ2GSU42718","3JAOYN9IHLO1QRHB9NZI45P11ZM33A","","null","<img src=""img/food5.png"" style=""width:200px; border:14px solid green;"">","null","","","","","","","","","",""
"","image-keyboard-response","354","133104","0.0-444.0","3TXD01ZLD538T1BSFN54Q23VZKTU4P","A3PRQ2GSU42718","3JAOYN9IHLO1QRHB9NZI45P11ZM33A","","264","img/food3.png","74","265","1","1","","2","1","1,0.7,0,1,0.7,0,0.7,0,1","1,0.7,0,1,0.7,0,0.7,0,1","1",""
"","html-keyboard-response","355","133411","0.0-445.0","3TXD01ZLD538T1BSFN54Q23VZKTU4P","A3PRQ2GSU42718","3JAOYN9IHLO1QRHB9NZI45P11ZM33A","","null","<img src=""img/food3.png"" style=""width:200px; border:14px solid green;"">","null","","","","","","","","","",""
"","image-keyboard-response","356","133697","0.0-446.0","3TXD01ZLD538T1BSFN54Q23VZKTU4P","A3PRQ2GSU42718","3JAOYN9IHLO1QRHB9NZI45P11ZM33A","","284","img/food5.png","74","285","1","1","","3","1","1,0.7,0,1,0.7,0,0.7,0,1","1,0.7,0,1,0.7,0,0.7,0,1","1",""
"","html-keyboard-response","357","134012","0.0-447.0","3TXD01ZLD538T1BSFN54Q23VZKTU4P","A3PRQ2GSU42718","3JAOYN9IHLO1QRHB9NZI45P11ZM33A","","null","<img src=""img/food5.png"" style=""width:200px; border:14px solid green;"">","null","","","","","","","","","",""
"","image-keyboard-response","358","134291","0.0-448.0","3TXD01ZLD538T1BSFN54Q23VZKTU4P","A3PRQ2GSU42718","3JAOYN9IHLO1QRHB9NZI45P11ZM33A","","278","img/food3.png","74","279","1","1","","2","1","1,0.7,0,1,0.7,0,0.7,0,1","1,0.7,0,1,0.7,0,0.7,0,1","1",""
"","html-keyboard-response","359","134601","0.0-449.0","3TXD01ZLD538T1BSFN54Q23VZKTU4P","A3PRQ2GSU42718","3JAOYN9IHLO1QRHB9NZI45P11ZM33A","","null","<img src=""img/food3.png"" style=""width:200px; border:14px solid green;"">","null","","","","","","","","","",""
"","image-keyboard-response","360","134606","0.0-450.0","3TXD01ZLD538T1BSFN54Q23VZKTU4P","A3PRQ2GSU42718","3JAOYN9IHLO1QRHB9NZI45P11ZM33A","","3","img/food6.png","74","5","1","1","","1","1","1,0.7,0,1,0.7,0,0.7,0,1","1,0.7,0,1,0.7,0,0.7,0,1","1",""
"","html-keyboard-response","361","134918","0.0-451.0","3TXD01ZLD538T1BSFN54Q23VZKTU4P","A3PRQ2GSU42718","3JAOYN9IHLO1QRHB9NZI45P11ZM33A","","null","<img src=""img/food6.png"" style=""width:200px; border:14px solid green;"">","null","","","","","","","","","",""
"","image-keyboard-response","362","134929","0.0-452.0","3TXD01ZLD538T1BSFN54Q23VZKTU4P","A3PRQ2GSU42718","3JAOYN9IHLO1QRHB9NZI45P11ZM33A","","9","img/food5.png","74","11","1","0","","3","1","1,0.7,0,1,0.7,0,0.7,0,1","1,0.7,0,1,0.7,0,0.7,0,1","1",""
"","html-keyboard-response","363","135234","0.0-453.0","3TXD01ZLD538T1BSFN54Q23VZKTU4P","A3PRQ2GSU42718","3JAOYN9IHLO1QRHB9NZI45P11ZM33A","","null","<img src=""img/food5.png"" style=""width:200px;border:14px solid red;"">","null","","","","","","","","","",""
"","html-keyboard-response","364","191400","0.0-454.0","3TXD01ZLD538T1BSFN54Q23VZKTU4P","A3PRQ2GSU42718","3JAOYN9IHLO1QRHB9NZI45P11ZM33A","","","","","","","","","","","","","",""
"","instructions","365","195098","0.0-455.0","3TXD01ZLD538T1BSFN54Q23VZKTU4P","A3PRQ2GSU42718","3JAOYN9IHLO1QRHB9NZI45P11ZM33A","[{""page_index"":0,""viewing_time"":3696}]","3696","","","","","","","","","","","",""
"","survey-text","366","202545","0.0-456.0","3TXD01ZLD538T1BSFN54Q23VZKTU4P","A3PRQ2GSU42718","3JAOYN9IHLO1QRHB9NZI45P11ZM33A","","7444","","","","","","","","","","","","{""Q0"":""A3PRQ2GSU42718""}"
