"success","trial_type","trial_index","time_elapsed","internal_node_id","assignmentID","mturkID","hitID","view_history","rt","stimulus","key_press","reactionTime","a","r","warning","s","cond","reward_cond","reward_cond_actual","reward_matrix_idx","responses"
"true","fullscreen","0","3040","0.0-0.0","","","","","","","","","","","","","","","","",""
"","instructions","1","16283","0.0-1.0","","","","[{""page_index"":0,""viewing_time"":2093},{""page_index"":1,""viewing_time"":1169.5},{""page_index"":2,""viewing_time"":652.6999999284744},{""page_index"":3,""viewing_time"":2894.9000000953674},{""page_index"":4,""viewing_time"":3270.6999999284744},{""page_index"":5,""viewing_time"":2227},{""page_index"":6,""viewing_time"":933.3999999761581}]","13241.600000023842","","","","","","","","","","","",""
"","instructions","2","29065","0.0-2.0","","","","[{""page_index"":0,""viewing_time"":10664.699999928474},{""page_index"":1,""viewing_time"":2115.2000000476837}]","12780.5","","","","","","","","","","","",""
"","image-keyboard-response","3","29650","0.0-3.0","","","","","582.3000000715256","img/food3.png","74","584.2999999523163","1","0","false","2","2","1,0.7,0,1,0.7,0,0.7,0,1","0,1,0.7,0,1,0.7,1,0.7,0","3",""
"","html-keyboard-response","4","29953","0.0-4.0","","","","","null","<img src=""img/food3.png"" style=""width:200px;border:14px solid red;"">","null","","","","","","","","","",""
"","image-keyboard-response","5","30212","0.0-6.0","","","","","256.10000002384186","img/food6.png","75","257.3000000715256","2","1","false","3","2","1,0.7,0,1,0.7,0,0.7,0,1","0,1,0.7,0,1,0.7,1,0.7,0","3",""
"","html-keyboard-response","6","30514","0.0-7.0","","","","","null","<img src=""img/food6.png"" style=""width:200px; border:14px solid green;"">","null","","","","","","","","","",""
"","image-keyboard-response","7","30797","0.0-9.0","","","","","282","img/food3.png","75","283.10000002384186","2","1","false","2","2","1,0.7,0,1,0.7,0,0.7,0,1","0,1,0.7,0,1,0.7,1,0.7,0","3",""
"","html-keyboard-response","8","31100","0.0-10.0","","","","","null","<img src=""img/food3.png"" style=""width:200px; border:14px solid green;"">","null","","","","","","","","","",""
"","image-keyboard-response","9","31220","0.0-12.0","","","","","118.89999997615814","img/food5.png","75","120.29999995231628","2","1","false","1","2","1,0.7,0,1,0.7,0,0.7,0,1","0,1,0.7,0,1,0.7,1,0.7,0","3",""
"","html-keyboard-response","10","31523","0.0-13.0","","","","","null","<img src=""img/food5.png"" style=""width:200px; border:14px solid green;"">","null","","","","","","","","","",""
"","image-keyboard-response","11","31604","0.0-15.0","","","","","79","img/food3.png","75","80.19999992847443","2","1","false","2","2","1,0.7,0,1,0.7,0,0.7,0,1","0,1,0.7,0,1,0.7,1,0.7,0","3",""
"","html-keyboard-response","12","31906","0.0-16.0","","","","","null","<img src=""img/food3.png"" style=""width:200px; border:14px solid green;"">","null","","","","","","","","","",""
"","image-keyboard-response","13","32253","0.0-18.0","","","","","344.7999999523163","img/food5.png","75","346","2","1","false","1","2","1,0.7,0,1,0.7,0,0.7,0,1","0,1,0.7,0,1,0.7,1,0.7,0","3",""
"","html-keyboard-response","14","32555","0.0-19.0","","","","","null","<img src=""img/food5.png"" style=""width:200px; border:14px solid green;"">","null","","","","","","","","","",""
"","image-keyboard-response","15","32568","0.0-21.0","","","","","11.700000047683716","img/food3.png","75","13","2","1","false","2","2","1,0.7,0,1,0.7,0,0.7,0,1","0,1,0.7,0,1,0.7,1,0.7,0","3",""
"","html-keyboard-response","16","32870","0.0-22.0","","","","","null","<img src=""img/food3.png"" style=""width:200px; border:14px solid green;"">","null","","","","","","","","","",""
"","image-keyboard-response","17","32897","0.0-24.0","","","","","25.100000023841858","img/food5.png","75","26.40000009536743","2","1","false","1","2","1,0.7,0,1,0.7,0,0.7,0,1","0,1,0.7,0,1,0.7,1,0.7,0","3",""
"","html-keyboard-response","18","33199","0.0-25.0","","","","","null","<img src=""img/food5.png"" style=""width:200px; border:14px solid green;"">","null","","","","","","","","","",""
"","image-keyboard-response","19","33244","0.0-27.0","","","","","43.299999952316284","img/food5.png","75","44.5","2","1","false","1","2","1,0.7,0,1,0.7,0,0.7,0,1","0,1,0.7,0,1,0.7,1,0.7,0","3",""
"","html-keyboard-response","20","33546","0.0-28.0","","","","","null","<img src=""img/food5.png"" style=""width:200px; border:14px solid green;"">","null","","","","","","","","","",""
"","image-keyboard-response","21","33599","0.0-30.0","","","","","50.89999997615814","img/food3.png","75","52.300000071525574","2","1","false","2","2","1,0.7,0,1,0.7,0,0.7,0,1","0,1,0.7,0,1,0.7,1,0.7,0","3",""
"","html-keyboard-response","22","33901","0.0-31.0","","","","","null","<img src=""img/food3.png"" style=""width:200px; border:14px solid green;"">","null","","","","","","","","","",""
"","image-keyboard-response","23","34251","0.0-33.0","","","","","348.10000002384186","img/food3.png","75","349.1999999284744","2","1","false","2","2","1,0.7,0,1,0.7,0,0.7,0,1","0,1,0.7,0,1,0.7,1,0.7,0","3",""
"","html-keyboard-response","24","34553","0.0-34.0","","","","","null","<img src=""img/food3.png"" style=""width:200px; border:14px solid green;"">","null","","","","","","","","","",""
"","image-keyboard-response","25","34589","0.0-36.0","","","","","34.799999952316284","img/food5.png","75","35.90000009536743","2","1","false","1","2","1,0.7,0,1,0.7,0,0.7,0,1","0,1,0.7,0,1,0.7,1,0.7,0","3",""
"","html-keyboard-response","26","34891","0.0-37.0","","","","","null","<img src=""img/food5.png"" style=""width:200px; border:14px solid green;"">","null","","","","","","","","","",""
"","image-keyboard-response","27","35010","0.0-39.0","","","","","116.5","img/food6.png","75","117.70000004768372","2","0","false","3","2","1,0.7,0,1,0.7,0,0.7,0,1","0,1,0.7,0,1,0.7,1,0.7,0","3",""
"","html-keyboard-response","28","35312","0.0-40.0","","","","","null","<img src=""img/food6.png"" style=""width:200px;border:14px solid red;"">","null","","","","","","","","","",""
"","image-keyboard-response","29","35754","0.0-42.0","","","","","440.39999997615814","img/food3.png","75","441.39999997615814","2","1","false","2","2","1,0.7,0,1,0.7,0,0.7,0,1","0,1,0.7,0,1,0.7,1,0.7,0","3",""
"","html-keyboard-response","30","36056","0.0-43.0","","","","","null","<img src=""img/food3.png"" style=""width:200px; border:14px solid green;"">","null","","","","","","","","","",""
"","image-keyboard-response","31","36453","0.0-45.0","","","","","395","img/food6.png","75","396.10000002384186","2","1","false","3","2","1,0.7,0,1,0.7,0,0.7,0,1","0,1,0.7,0,1,0.7,1,0.7,0","3",""
"","html-keyboard-response","32","36755","0.0-46.0","","","","","null","<img src=""img/food6.png"" style=""width:200px; border:14px solid green;"">","null","","","","","","","","","",""
"","image-keyboard-response","33","36784","0.0-48.0","","","","","27.300000071525574","img/food5.png","75","28.600000023841858","2","1","false","1","2","1,0.7,0,1,0.7,0,0.7,0,1","0,1,0.7,0,1,0.7,1,0.7,0","3",""
"","html-keyboard-response","34","37086","0.0-49.0","","","","","null","<img src=""img/food5.png"" style=""width:200px; border:14px solid green;"">","null","","","","","","","","","",""
"","image-keyboard-response","35","37265","0.0-51.0","","","","","177.29999995231628","img/food3.png","75","178.60000002384186","2","1","false","2","2","1,0.7,0,1,0.7,0,0.7,0,1","0,1,0.7,0,1,0.7,1,0.7,0","3",""
"","html-keyboard-response","36","37567","0.0-52.0","","","","","null","<img src=""img/food3.png"" style=""width:200px; border:14px solid green;"">","null","","","","","","","","","",""
"","image-keyboard-response","37","37880","0.0-54.0","","","","","311.7999999523163","img/food5.png","75","313.09999990463257","2","1","false","1","2","1,0.7,0,1,0.7,0,0.7,0,1","0,1,0.7,0,1,0.7,1,0.7,0","3",""
"","html-keyboard-response","38","38183","0.0-55.0","","","","","null","<img src=""img/food5.png"" style=""width:200px; border:14px solid green;"">","null","","","","","","","","","",""
"","image-keyboard-response","39","38232","0.0-57.0","","","","","47.699999928474426","img/food3.png","75","48.60000002384186","2","1","false","2","2","1,0.7,0,1,0.7,0,0.7,0,1","0,1,0.7,0,1,0.7,1,0.7,0","3",""
"","html-keyboard-response","40","38534","0.0-58.0","","","","","null","<img src=""img/food3.png"" style=""width:200px; border:14px solid green;"">","null","","","","","","","","","",""
"","image-keyboard-response","41","38822","0.0-60.0","","","","","286.5","img/food3.png","75","287.8000000715256","2","1","false","2","2","1,0.7,0,1,0.7,0,0.7,0,1","0,1,0.7,0,1,0.7,1,0.7,0","3",""
"","html-keyboard-response","42","39124","0.0-61.0","","","","","null","<img src=""img/food3.png"" style=""width:200px; border:14px solid green;"">","null","","","","","","","","","",""
"","image-keyboard-response","43","39223","0.0-63.0","","","","","97.80000007152557","img/food5.png","75","99","2","1","false","1","2","1,0.7,0,1,0.7,0,0.7,0,1","0,1,0.7,0,1,0.7,1,0.7,0","3",""
"","html-keyboard-response","44","39526","0.0-64.0","","","","","null","<img src=""img/food5.png"" style=""width:200px; border:14px solid green;"">","null","","","","","","","","","",""
"","image-keyboard-response","45","39654","0.0-66.0","","","","","126.39999997615814","img/food3.png","75","127.39999997615814","2","1","false","2","2","1,0.7,0,1,0.7,0,0.7,0,1","0,1,0.7,0,1,0.7,1,0.7,0","3",""
"","html-keyboard-response","46","39956","0.0-67.0","","","","","null","<img src=""img/food3.png"" style=""width:200px; border:14px solid green;"">","null","","","","","","","","","",""
"","image-keyboard-response","47","40172","0.0-69.0","","","","","213.89999997615814","img/food6.png","75","215","2","0","false","3","2","1,0.7,0,1,0.7,0,0.7,0,1","0,1,0.7,0,1,0.7,1,0.7,0","3",""
"","html-keyboard-response","48","40474","0.0-70.0","","","","","null","<img src=""img/food6.png"" style=""width:200px;border:14px solid red;"">","null","","","","","","","","","",""
"","image-keyboard-response","49","40722","0.0-72.0","","","","","246.10000002384186","img/food6.png","75","247.19999992847443","2","1","false","3","2","1,0.7,0,1,0.7,0,0.7,0,1","0,1,0.7,0,1,0.7,1,0.7,0","3",""
"","html-keyboard-response","50","41024","0.0-73.0","","","","","null","<img src=""img/food6.png"" style=""width:200px; border:14px solid green;"">","null","","","","","","","","","",""
"","image-keyboard-response","51","41045","0.0-75.0","","","","","19","img/food5.png","75","20.300000071525574","2","1","false","1","2","1,0.7,0,1,0.7,0,0.7,0,1","0,1,0.7,0,1,0.7,1,0.7,0","3",""
"","html-keyboard-response","52","41347","0.0-76.0","","","","","null","<img src=""img/food5.png"" style=""width:200px; border:14px solid green;"">","null","","","","","","","","","",""
"","image-keyboard-response","53","41440","0.0-78.0","","","","","91.79999995231628","img/food3.png","75","92.79999995231628","2","1","false","2","2","1,0.7,0,1,0.7,0,0.7,0,1","0,1,0.7,0,1,0.7,1,0.7,0","3",""
"","html-keyboard-response","54","41743","0.0-79.0","","","","","null","<img src=""img/food3.png"" style=""width:200px; border:14px solid green;"">","null","","","","","","","","","",""
"","image-keyboard-response","55","41849","0.0-81.0","","","","","103.80000007152557","img/food5.png","75","105.10000002384186","2","1","false","1","2","1,0.7,0,1,0.7,0,0.7,0,1","0,1,0.7,0,1,0.7,1,0.7,0","3",""
"","html-keyboard-response","56","42150","0.0-82.0","","","","","null","<img src=""img/food5.png"" style=""width:200px; border:14px solid green;"">","null","","","","","","","","","",""
"","image-keyboard-response","57","42467","0.0-84.0","","","","","315.7999999523163","img/food5.png","75","316.89999997615814","2","1","false","1","2","1,0.7,0,1,0.7,0,0.7,0,1","0,1,0.7,0,1,0.7,1,0.7,0","3",""
"","html-keyboard-response","58","42772","0.0-85.0","","","","","null","<img src=""img/food5.png"" style=""width:200px; border:14px solid green;"">","null","","","","","","","","","",""
"","image-keyboard-response","59","42793","0.0-87.0","","","","","19.600000023841858","img/food6.png","75","20.699999928474426","2","0","false","3","2","1,0.7,0,1,0.7,0,0.7,0,1","0,1,0.7,0,1,0.7,1,0.7,0","3",""
"","html-keyboard-response","60","43095","0.0-88.0","","","","","null","<img src=""img/food6.png"" style=""width:200px;border:14px solid red;"">","null","","","","","","","","","",""
"","image-keyboard-response","61","43275","0.0-90.0","","","","","178.70000004768372","img/food6.png","75","180","2","1","false","3","2","1,0.7,0,1,0.7,0,0.7,0,1","0,1,0.7,0,1,0.7,1,0.7,0","3",""
"","html-keyboard-response","62","43577","0.0-91.0","","","","","null","<img src=""img/food6.png"" style=""width:200px; border:14px solid green;"">","null","","","","","","","","","",""
"","image-keyboard-response","63","43870","0.0-93.0","","","","","290.7999999523163","img/food6.png","75","291.8000000715256","2","0","false","3","2","1,0.7,0,1,0.7,0,0.7,0,1","0,1,0.7,0,1,0.7,1,0.7,0","3",""
"","html-keyboard-response","64","44172","0.0-94.0","","","","","null","<img src=""img/food6.png"" style=""width:200px;border:14px solid red;"">","null","","","","","","","","","",""
"","image-keyboard-response","65","44447","0.0-96.0","","","","","272.90000009536743","img/food3.png","75","273.89999997615814","2","1","false","2","2","1,0.7,0,1,0.7,0,0.7,0,1","0,1,0.7,0,1,0.7,1,0.7,0","3",""
"","html-keyboard-response","66","44749","0.0-97.0","","","","","null","<img src=""img/food3.png"" style=""width:200px; border:14px solid green;"">","null","","","","","","","","","",""
"","image-keyboard-response","67","44806","0.0-99.0","","","","","55.700000047683716","img/food3.png","75","56.799999952316284","2","1","false","2","2","1,0.7,0,1,0.7,0,0.7,0,1","0,1,0.7,0,1,0.7,1,0.7,0","3",""
"","html-keyboard-response","68","45109","0.0-100.0","","","","","null","<img src=""img/food3.png"" style=""width:200px; border:14px solid green;"">","null","","","","","","","","","",""
"","image-keyboard-response","69","45393","0.0-102.0","","","","","283.39999997615814","img/food5.png","75","284.3000000715256","2","1","false","1","2","1,0.7,0,1,0.7,0,0.7,0,1","0,1,0.7,0,1,0.7,1,0.7,0","3",""
"","html-keyboard-response","70","45695","0.0-103.0","","","","","null","<img src=""img/food5.png"" style=""width:200px; border:14px solid green;"">","null","","","","","","","","","",""
"","image-keyboard-response","71","45952","0.0-105.0","","","","","255.19999992847443","img/food6.png","75","256.2000000476837","2","1","false","3","2","1,0.7,0,1,0.7,0,0.7,0,1","0,1,0.7,0,1,0.7,1,0.7,0","3",""
"","html-keyboard-response","72","46264","0.0-106.0","","","","","null","<img src=""img/food6.png"" style=""width:200px; border:14px solid green;"">","null","","","","","","","","","",""
"","image-keyboard-response","73","46288","0.0-108.0","","","","","22.5","img/food5.png","75","23.699999928474426","2","1","false","1","2","1,0.7,0,1,0.7,0,0.7,0,1","0,1,0.7,0,1,0.7,1,0.7,0","3",""
"","html-keyboard-response","74","46591","0.0-109.0","","","","","null","<img src=""img/food5.png"" style=""width:200px; border:14px solid green;"">","null","","","","","","","","","",""
"","image-keyboard-response","75","46653","0.0-111.0","","","","","60.799999952316284","img/food6.png","75","61.700000047683716","2","0","false","3","2","1,0.7,0,1,0.7,0,0.7,0,1","0,1,0.7,0,1,0.7,1,0.7,0","3",""
"","html-keyboard-response","76","46954","0.0-112.0","","","","","null","<img src=""img/food6.png"" style=""width:200px;border:14px solid red;"">","null","","","","","","","","","",""
"","image-keyboard-response","77","47196","0.0-114.0","","","","","239.89999997615814","img/food6.png","75","241.10000002384186","2","1","false","3","2","1,0.7,0,1,0.7,0,0.7,0,1","0,1,0.7,0,1,0.7,1,0.7,0","3",""
"","html-keyboard-response","78","47498","0.0-115.0","","","","","null","<img src=""img/food6.png"" style=""width:200px; border:14px solid green;"">","null","","","","","","","","","",""
"","image-keyboard-response","79","47643","0.0-117.0","","","","","143.30000007152557","img/food3.png","75","144.5","2","1","false","2","2","1,0.7,0,1,0.7,0,0.7,0,1","0,1,0.7,0,1,0.7,1,0.7,0","3",""
"","html-keyboard-response","80","47945","0.0-118.0","","","","","null","<img src=""img/food3.png"" style=""width:200px; border:14px solid green;"">","null","","","","","","","","","",""
"","image-keyboard-response","81","47996","0.0-120.0","","","","","48.700000047683716","img/food3.png","75","49.800000071525574","2","1","false","2","2","1,0.7,0,1,0.7,0,0.7,0,1","0,1,0.7,0,1,0.7,1,0.7,0","3",""
"","html-keyboard-response","82","48298","0.0-121.0","","","","","null","<img src=""img/food3.png"" style=""width:200px; border:14px solid green;"">","null","","","","","","","","","",""
"","image-keyboard-response","83","48474","0.0-123.0","","","","","174.5","img/food5.png","75","175.59999990463257","2","1","false","1","2","1,0.7,0,1,0.7,0,0.7,0,1","0,1,0.7,0,1,0.7,1,0.7,0","3",""
"","html-keyboard-response","84","48776","0.0-124.0","","","","","null","<img src=""img/food5.png"" style=""width:200px; border:14px solid green;"">","null","","","","","","","","","",""
"","image-keyboard-response","85","48812","0.0-126.0","","","","","34.800000071525574","img/food3.png","75","35.89999997615814","2","1","false","2","2","1,0.7,0,1,0.7,0,0.7,0,1","0,1,0.7,0,1,0.7,1,0.7,0","3",""
"","html-keyboard-response","86","49114","0.0-127.0","","","","","null","<img src=""img/food3.png"" style=""width:200px; border:14px solid green;"">","null","","","","","","","","","",""
"","image-keyboard-response","87","49367","0.0-129.0","","","","","251.80000007152557","img/food5.png","75","252.79999995231628","2","1","false","1","2","1,0.7,0,1,0.7,0,0.7,0,1","0,1,0.7,0,1,0.7,1,0.7,0","3",""
"","html-keyboard-response","88","49669","0.0-130.0","","","","","null","<img src=""img/food5.png"" style=""width:200px; border:14px solid green;"">","null","","","","","","","","","",""
"","image-keyboard-response","89","49764","0.0-132.0","","","","","93.5","img/food5.png","75","94.70000004768372","2","1","false","1","2","1,0.7,0,1,0.7,0,0.7,0,1","0,1,0.7,0,1,0.7,1,0.7,0","3",""
"","html-keyboard-response","90","50067","0.0-133.0","","","","","null","<img src=""img/food5.png"" style=""width:200px; border:14px solid green;"">","null","","","","","","","","","",""
"","image-keyboard-response","91","50130","0.0-135.0","","","","","62.10000002384186","img/food6.png","75","63.299999952316284","2","1","false","3","2","1,0.7,0,1,0.7,0,0.7,0,1","0,1,0.7,0,1,0.7,1,0.7,0","3",""
"","html-keyboard-response","92","50433","0.0-136.0","","","","","null","<img src=""img/food6.png"" style=""width:200px; border:14px solid green;"">","null","","","","","","","","","",""
"","image-keyboard-response","93","50538","0.0-138.0","","","","","103.89999997615814","img/food5.png","74","104.80000007152557","1","0","false","1","2","1,0.7,0,1,0.7,0,0.7,0,1","0,1,0.7,0,1,0.7,1,0.7,0","3",""
"","html-keyboard-response","94","50841","0.0-139.0","","","","","null","<img src=""img/food5.png"" style=""width:200px;border:14px solid red;"">","null","","","","","","","","","",""
"","image-keyboard-response","95","51034","0.0-141.0","","","","","192","img/food6.png","75","193.19999992847443","2","1","false","3","2","1,0.7,0,1,0.7,0,0.7,0,1","0,1,0.7,0,1,0.7,1,0.7,0","3",""
"","html-keyboard-response","96","51339","0.0-142.0","","","","","null","<img src=""img/food6.png"" style=""width:200px; border:14px solid green;"">","null","","","","","","","","","",""
"","image-keyboard-response","97","51625","0.0-144.0","","","","","284.89999997615814","img/food5.png","76","285.89999997615814","3","1","false","1","2","1,0.7,0,1,0.7,0,0.7,0,1","0,1,0.7,0,1,0.7,1,0.7,0","3",""
"","html-keyboard-response","98","51928","0.0-145.0","","","","","null","<img src=""img/food5.png"" style=""width:200px; border:14px solid green;"">","null","","","","","","","","","",""
"","image-keyboard-response","99","52171","0.0-147.0","","","","","241.5","img/food5.png","76","242.59999990463257","3","0","false","1","2","1,0.7,0,1,0.7,0,0.7,0,1","0,1,0.7,0,1,0.7,1,0.7,0","3",""
"","html-keyboard-response","100","52472","0.0-148.0","","","","","null","<img src=""img/food5.png"" style=""width:200px;border:14px solid red;"">","null","","","","","","","","","",""
"","image-keyboard-response","101","52606","0.0-150.0","","","","","132.60000002384186","img/food6.png","74","133.79999995231628","1","1","false","3","2","1,0.7,0,1,0.7,0,0.7,0,1","0,1,0.7,0,1,0.7,1,0.7,0","3",""
"","html-keyboard-response","102","52909","0.0-151.0","","","","","null","<img src=""img/food6.png"" style=""width:200px; border:14px solid green;"">","null","","","","","","","","","",""
"","image-keyboard-response","103","53070","0.0-153.0","","","","","160.10000002384186","img/food3.png","75","161","2","1","false","2","2","1,0.7,0,1,0.7,0,0.7,0,1","0,1,0.7,0,1,0.7,1,0.7,0","3",""
"","html-keyboard-response","104","53373","0.0-154.0","","","","","null","<img src=""img/food3.png"" style=""width:200px; border:14px solid green;"">","null","","","","","","","","","",""
"","image-keyboard-response","105","53553","0.0-156.0","","","","","178.89999997615814","img/food3.png","75","179.79999995231628","2","1","false","2","2","1,0.7,0,1,0.7,0,0.7,0,1","0,1,0.7,0,1,0.7,1,0.7,0","3",""
"","html-keyboard-response","106","53855","0.0-157.0","","","","","null","<img src=""img/food3.png"" style=""width:200px; border:14px solid green;"">","null","","","","","","","","","",""
"","image-keyboard-response","107","54037","0.0-159.0","","","","","180.29999995231628","img/food5.png","75","181.20000004768372","2","1","false","1","2","1,0.7,0,1,0.7,0,0.7,0,1","0,1,0.7,0,1,0.7,1,0.7,0","3",""
"","html-keyboard-response","108","54339","0.0-160.0","","","","","null","<img src=""img/food5.png"" style=""width:200px; border:14px solid green;"">","null","","","","","","","","","",""
"","image-keyboard-response","109","54490","0.0-162.0","","","","","148.39999997615814","img/food3.png","75","149.70000004768372","2","1","false","2","2","1,0.7,0,1,0.7,0,0.7,0,1","0,1,0.7,0,1,0.7,1,0.7,0","3",""
"","html-keyboard-response","110","54792","0.0-163.0","","","","","null","<img src=""img/food3.png"" style=""width:200px; border:14px solid green;"">","null","","","","","","","","","",""
"","image-keyboard-response","111","54910","0.0-165.0","","","","","116.70000004768372","img/food3.png","75","118","2","1","false","2","2","1,0.7,0,1,0.7,0,0.7,0,1","0,1,0.7,0,1,0.7,1,0.7,0","3",""
"","html-keyboard-response","112","55212","0.0-166.0","","","","","null","<img src=""img/food3.png"" style=""width:200px; border:14px solid green;"">","null","","","","","","","","","",""
"","image-keyboard-response","113","55260","0.0-168.0","","","","","46.700000047683716","img/food3.png","75","47.89999997615814","2","1","false","2","2","1,0.7,0,1,0.7,0,0.7,0,1","0,1,0.7,0,1,0.7,1,0.7,0","3",""
"","html-keyboard-response","114","55562","0.0-169.0","","","","","null","<img src=""img/food3.png"" style=""width:200px; border:14px solid green;"">","null","","","","","","","","","",""
"","image-keyboard-response","115","55699","0.0-171.0","","","","","134.89999997615814","img/food6.png","75","137.5","2","1","false","3","2","1,0.7,0,1,0.7,0,0.7,0,1","0,1,0.7,0,1,0.7,1,0.7,0","3",""
"","html-keyboard-response","116","56003","0.0-172.0","","","","","null","<img src=""img/food6.png"" style=""width:200px; border:14px solid green;"">","null","","","","","","","","","",""
"","image-keyboard-response","117","56070","0.0-174.0","","","","","66","img/food6.png","75","66.79999995231628","2","1","false","3","2","1,0.7,0,1,0.7,0,0.7,0,1","0,1,0.7,0,1,0.7,1,0.7,0","3",""
"","html-keyboard-response","118","56373","0.0-175.0","","","","","null","<img src=""img/food6.png"" style=""width:200px; border:14px solid green;"">","null","","","","","","","","","",""
"","image-keyboard-response","119","56522","0.0-177.0","","","","","147.89999997615814","img/food5.png","75","149.19999992847443","2","1","false","1","2","1,0.7,0,1,0.7,0,0.7,0,1","0,1,0.7,0,1,0.7,1,0.7,0","3",""
"","html-keyboard-response","120","56824","0.0-178.0","","","","","null","<img src=""img/food5.png"" style=""width:200px; border:14px solid green;"">","null","","","","","","","","","",""
"","image-keyboard-response","121","56927","0.0-180.0","","","","","101.10000002384186","img/food3.png","75","102.20000004768372","2","1","false","2","2","1,0.7,0,1,0.7,0,0.7,0,1","0,1,0.7,0,1,0.7,1,0.7,0","3",""
"","html-keyboard-response","122","57229","0.0-181.0","","","","","null","<img src=""img/food3.png"" style=""width:200px; border:14px solid green;"">","null","","","","","","","","","",""
"","image-keyboard-response","123","57338","0.0-183.0","","","","","106.89999997615814","img/food6.png","75","107.89999997615814","2","1","false","3","2","1,0.7,0,1,0.7,0,0.7,0,1","0,1,0.7,0,1,0.7,1,0.7,0","3",""
"","html-keyboard-response","124","57640","0.0-184.0","","","","","null","<img src=""img/food6.png"" style=""width:200px; border:14px solid green;"">","null","","","","","","","","","",""
"","image-keyboard-response","125","57874","0.0-186.0","","","","","232","img/food5.png","75","233.10000002384186","2","1","false","1","2","1,0.7,0,1,0.7,0,0.7,0,1","0,1,0.7,0,1,0.7,1,0.7,0","3",""
"","html-keyboard-response","126","58176","0.0-187.0","","","","","null","<img src=""img/food5.png"" style=""width:200px; border:14px solid green;"">","null","","","","","","","","","",""
"","image-keyboard-response","127","58251","0.0-189.0","","","","","72.60000002384186","img/food6.png","75","74","2","1","false","3","2","1,0.7,0,1,0.7,0,0.7,0,1","0,1,0.7,0,1,0.7,1,0.7,0","3",""
"","html-keyboard-response","128","58552","0.0-190.0","","","","","null","<img src=""img/food6.png"" style=""width:200px; border:14px solid green;"">","null","","","","","","","","","",""
"","image-keyboard-response","129","58780","0.0-192.0","","","","","226.29999995231628","img/food5.png","75","227.39999997615814","2","1","false","1","2","1,0.7,0,1,0.7,0,0.7,0,1","0,1,0.7,0,1,0.7,1,0.7,0","3",""
"","html-keyboard-response","130","59083","0.0-193.0","","","","","null","<img src=""img/food5.png"" style=""width:200px; border:14px solid green;"">","null","","","","","","","","","",""
"","image-keyboard-response","131","59131","0.0-195.0","","","","","46.5","img/food5.png","75","47.60000002384186","2","1","false","1","2","1,0.7,0,1,0.7,0,0.7,0,1","0,1,0.7,0,1,0.7,1,0.7,0","3",""
"","html-keyboard-response","132","59434","0.0-196.0","","","","","null","<img src=""img/food5.png"" style=""width:200px; border:14px solid green;"">","null","","","","","","","","","",""
"","image-keyboard-response","133","59467","0.0-198.0","","","","","30.90000009536743","img/food6.png","75","32","2","1","false","3","2","1,0.7,0,1,0.7,0,0.7,0,1","0,1,0.7,0,1,0.7,1,0.7,0","3",""
"","html-keyboard-response","134","59769","0.0-199.0","","","","","null","<img src=""img/food6.png"" style=""width:200px; border:14px solid green;"">","null","","","","","","","","","",""
"","image-keyboard-response","135","59809","0.0-201.0","","","","","38.5","img/food6.png","75","39.5","2","1","false","3","2","1,0.7,0,1,0.7,0,0.7,0,1","0,1,0.7,0,1,0.7,1,0.7,0","3",""
"","html-keyboard-response","136","60111","0.0-202.0","","","","","null","<img src=""img/food6.png"" style=""width:200px; border:14px solid green;"">","null","","","","","","","","","",""
"","image-keyboard-response","137","60131","0.0-204.0","","","","","18.600000023841858","img/food5.png","75","19.90000009536743","2","1","false","1","2","1,0.7,0,1,0.7,0,0.7,0,1","0,1,0.7,0,1,0.7,1,0.7,0","3",""
"","html-keyboard-response","138","60433","0.0-205.0","","","","","null","<img src=""img/food5.png"" style=""width:200px; border:14px solid green;"">","null","","","","","","","","","",""
"","image-keyboard-response","139","60712","0.0-207.0","","","","","277.5","img/food6.png","75","278.5","2","1","false","3","2","1,0.7,0,1,0.7,0,0.7,0,1","0,1,0.7,0,1,0.7,1,0.7,0","3",""
"","html-keyboard-response","140","61014","0.0-208.0","","","","","null","<img src=""img/food6.png"" style=""width:200px; border:14px solid green;"">","null","","","","","","","","","",""
"","image-keyboard-response","141","61020","0.0-210.0","","","","","4.399999976158142","img/food6.png","75","5.5","2","0","false","3","2","1,0.7,0,1,0.7,0,0.7,0,1","0,1,0.7,0,1,0.7,1,0.7,0","3",""
"","html-keyboard-response","142","61322","0.0-211.0","","","","","null","<img src=""img/food6.png"" style=""width:200px;border:14px solid red;"">","null","","","","","","","","","",""
"","image-keyboard-response","143","61336","0.0-213.0","","","","","12.600000023841858","img/food6.png","75","13.699999928474426","2","0","false","3","2","1,0.7,0,1,0.7,0,0.7,0,1","0,1,0.7,0,1,0.7,1,0.7,0","3",""
"","html-keyboard-response","144","61638","0.0-214.0","","","","","null","<img src=""img/food6.png"" style=""width:200px;border:14px solid red;"">","null","","","","","","","","","",""
"","image-keyboard-response","145","61784","0.0-216.0","","","","","143.89999997615814","img/food3.png","75","145.39999997615814","2","1","false","2","2","1,0.7,0,1,0.7,0,0.7,0,1","0,1,0.7,0,1,0.7,1,0.7,0","3",""
"","html-keyboard-response","146","62085","0.0-217.0","","","","","null","<img src=""img/food3.png"" style=""width:200px; border:14px solid green;"">","null","","","","","","","","","",""
"","image-keyboard-response","147","62147","0.0-219.0","","","","","59.700000047683716","img/food3.png","75","60.799999952316284","2","1","false","2","2","1,0.7,0,1,0.7,0,0.7,0,1","0,1,0.7,0,1,0.7,1,0.7,0","3",""
"","html-keyboard-response","148","62448","0.0-220.0","","","","","null","<img src=""img/food3.png"" style=""width:200px; border:14px solid green;"">","null","","","","","","","","","",""
"","image-keyboard-response","149","62491","0.0-222.0","","","","","40.299999952316284","img/food6.png","75","41.40000009536743","2","0","false","3","2","1,0.7,0,1,0.7,0,0.7,0,1","0,1,0.7,0,1,0.7,1,0.7,0","3",""
"","html-keyboard-response","150","62793","0.0-223.0","","","","","null","<img src=""img/food6.png"" style=""width:200px;border:14px solid red;"">","null","","","","","","","","","",""
"","image-keyboard-response","151","62872","0.0-225.0","","","","","77.60000002384186","img/food5.png","75","78.69999992847443","2","1","false","1","2","1,0.7,0,1,0.7,0,0.7,0,1","0,1,0.7,0,1,0.7,1,0.7,0","3",""
"","html-keyboard-response","152","63174","0.0-226.0","","","","","null","<img src=""img/food5.png"" style=""width:200px; border:14px solid green;"">","null","","","","","","","","","",""
"","image-keyboard-response","153","63299","0.0-228.0","","","","","122.89999997615814","img/food3.png","75","124.10000002384186","2","1","false","2","2","1,0.7,0,1,0.7,0,0.7,0,1","0,1,0.7,0,1,0.7,1,0.7,0","3",""
"","html-keyboard-response","154","63601","0.0-229.0","","","","","null","<img src=""img/food3.png"" style=""width:200px; border:14px solid green;"">","null","","","","","","","","","",""
"","image-keyboard-response","155","63813","0.0-231.0","","","","","209.69999992847443","img/food6.png","75","211","2","0","false","3","2","1,0.7,0,1,0.7,0,0.7,0,1","0,1,0.7,0,1,0.7,1,0.7,0","3",""
"","html-keyboard-response","156","64115","0.0-232.0","","","","","null","<img src=""img/food6.png"" style=""width:200px;border:14px solid red;"">","null","","","","","","","","","",""
"","image-keyboard-response","157","64285","0.0-234.0","","","","","168.79999995231628","img/food5.png","75","169.89999997615814","2","1","false","1","2","1,0.7,0,1,0.7,0,0.7,0,1","0,1,0.7,0,1,0.7,1,0.7,0","3",""
"","html-keyboard-response","158","64587","0.0-235.0","","","","","null","<img src=""img/food5.png"" style=""width:200px; border:14px solid green;"">","null","","","","","","","","","",""
"","image-keyboard-response","159","64703","0.0-237.0","","","","","114.29999995231628","img/food6.png","75","115.39999997615814","2","1","false","3","2","1,0.7,0,1,0.7,0,0.7,0,1","0,1,0.7,0,1,0.7,1,0.7,0","3",""
"","html-keyboard-response","160","65005","0.0-238.0","","","","","null","<img src=""img/food6.png"" style=""width:200px; border:14px solid green;"">","null","","","","","","","","","",""
"","image-keyboard-response","161","65084","0.0-240.0","","","","","77.5","img/food3.png","75","78.60000002384186","2","1","false","2","2","1,0.7,0,1,0.7,0,0.7,0,1","0,1,0.7,0,1,0.7,1,0.7,0","3",""
"","html-keyboard-response","162","65386","0.0-241.0","","","","","null","<img src=""img/food3.png"" style=""width:200px; border:14px solid green;"">","null","","","","","","","","","",""
"","image-keyboard-response","163","65511","0.0-243.0","","","","","123.40000009536743","img/food6.png","75","124.80000007152557","2","0","false","3","2","1,0.7,0,1,0.7,0,0.7,0,1","0,1,0.7,0,1,0.7,1,0.7,0","3",""
"","html-keyboard-response","164","65813","0.0-244.0","","","","","null","<img src=""img/food6.png"" style=""width:200px;border:14px solid red;"">","null","","","","","","","","","",""
"","image-keyboard-response","165","66060","0.0-246.0","","","","","245.20000004768372","img/food6.png","75","246.39999997615814","2","1","false","3","2","1,0.7,0,1,0.7,0,0.7,0,1","0,1,0.7,0,1,0.7,1,0.7,0","3",""
"","html-keyboard-response","166","66362","0.0-247.0","","","","","null","<img src=""img/food6.png"" style=""width:200px; border:14px solid green;"">","null","","","","","","","","","",""
"","image-keyboard-response","167","66602","0.0-249.0","","","","","238.39999997615814","img/food3.png","75","239.39999997615814","2","1","false","2","2","1,0.7,0,1,0.7,0,0.7,0,1","0,1,0.7,0,1,0.7,1,0.7,0","3",""
"","html-keyboard-response","168","66913","0.0-250.0","","","","","null","<img src=""img/food3.png"" style=""width:200px; border:14px solid green;"">","null","","","","","","","","","",""
"","image-keyboard-response","169","67152","0.0-252.0","","","","","237.39999997615814","img/food5.png","75","238.39999997615814","2","1","false","1","2","1,0.7,0,1,0.7,0,0.7,0,1","0,1,0.7,0,1,0.7,1,0.7,0","3",""
"","html-keyboard-response","170","67454","0.0-253.0","","","","","null","<img src=""img/food5.png"" style=""width:200px; border:14px solid green;"">","null","","","","","","","","","",""
"","image-keyboard-response","171","67494","0.0-255.0","","","","","38.5","img/food6.png","75","39.800000071525574","2","0","false","3","2","1,0.7,0,1,0.7,0,0.7,0,1","0,1,0.7,0,1,0.7,1,0.7,0","3",""
"","html-keyboard-response","172","67796","0.0-256.0","","","","","null","<img src=""img/food6.png"" style=""width:200px;border:14px solid red;"">","null","","","","","","","","","",""
"","image-keyboard-response","173","67823","0.0-258.0","","","","","25.700000047683716","img/food3.png","75","26.899999976158142","2","1","false","2","2","1,0.7,0,1,0.7,0,0.7,0,1","0,1,0.7,0,1,0.7,1,0.7,0","3",""
"","html-keyboard-response","174","68125","0.0-259.0","","","","","null","<img src=""img/food3.png"" style=""width:200px; border:14px solid green;"">","null","","","","","","","","","",""
"","image-keyboard-response","175","68161","0.0-261.0","","","","","34.10000002384186","img/food6.png","75","35","2","1","false","3","2","1,0.7,0,1,0.7,0,0.7,0,1","0,1,0.7,0,1,0.7,1,0.7,0","3",""
"","html-keyboard-response","176","68463","0.0-262.0","","","","","null","<img src=""img/food6.png"" style=""width:200px; border:14px solid green;"">","null","","","","","","","","","",""
"","image-keyboard-response","177","68513","0.0-264.0","","","","","48.700000047683716","img/food5.png","75","49.59999990463257","2","1","false","1","2","1,0.7,0,1,0.7,0,0.7,0,1","0,1,0.7,0,1,0.7,1,0.7,0","3",""
"","html-keyboard-response","178","68815","0.0-265.0","","","","","null","<img src=""img/food5.png"" style=""width:200px; border:14px solid green;"">","null","","","","","","","","","",""
"","image-keyboard-response","179","68876","0.0-267.0","","","","","59.39999997615814","img/food3.png","75","60.39999997615814","2","1","false","2","2","1,0.7,0,1,0.7,0,0.7,0,1","0,1,0.7,0,1,0.7,1,0.7,0","3",""
"","html-keyboard-response","180","69178","0.0-268.0","","","","","null","<img src=""img/food3.png"" style=""width:200px; border:14px solid green;"">","null","","","","","","","","","",""
"","image-keyboard-response","181","69491","0.0-270.0","","","","","311.10000002384186","img/food5.png","75","312.5","2","1","false","1","2","1,0.7,0,1,0.7,0,0.7,0,1","0,1,0.7,0,1,0.7,1,0.7,0","3",""
"","html-keyboard-response","182","69793","0.0-271.0","","","","","null","<img src=""img/food5.png"" style=""width:200px; border:14px solid green;"">","null","","","","","","","","","",""
"","instructions","183","75260","0.0-273.0","","","","[{""page_index"":0,""viewing_time"":3582.5},{""page_index"":1,""viewing_time"":1882.8999999761581}]","5465.899999976158","","","","","","","","","","","",""
"","image-keyboard-response","184","75924","0.0-274.0","","","","","662.8000000715256","img/food4.png","76","664.3999999761581","3","1","","3","1","1,0.7,0,1,0.7,0,0.7,0,1","0.7,0,1,0.7,0,1,0,1,0.7","2",""
"","html-keyboard-response","185","76226","0.0-275.0","","","","","null","<img src=""img/food4.png"" style=""width:200px; border:14px solid green;"">","null","","","","","","","","","",""
"","image-keyboard-response","186","76275","0.0-276.0","","","","","47.200000047683716","img/food2.png","76","48.39999997615814","3","1","","1","1","1,0.7,0,1,0.7,0,0.7,0,1","0.7,0,1,0.7,0,1,0,1,0.7","2",""
"","html-keyboard-response","187","76577","0.0-277.0","","","","","null","<img src=""img/food2.png"" style=""width:200px; border:14px solid green;"">","null","","","","","","","","","",""
"","image-keyboard-response","188","76715","0.0-278.0","","","","","135.89999997615814","img/food1.png","76","137","3","1","","2","1","1,0.7,0,1,0.7,0,0.7,0,1","0.7,0,1,0.7,0,1,0,1,0.7","2",""
"","html-keyboard-response","189","77017","0.0-279.0","","","","","null","<img src=""img/food1.png"" style=""width:200px; border:14px solid green;"">","null","","","","","","","","","",""
"","image-keyboard-response","190","77111","0.0-280.0","","","","","92.39999997615814","img/food2.png","76","93.69999992847443","3","1","","1","1","1,0.7,0,1,0.7,0,0.7,0,1","0.7,0,1,0.7,0,1,0,1,0.7","2",""
"","html-keyboard-response","191","77414","0.0-281.0","","","","","null","<img src=""img/food2.png"" style=""width:200px; border:14px solid green;"">","null","","","","","","","","","",""
"","image-keyboard-response","192","77505","0.0-282.0","","","","","89.79999995231628","img/food1.png","76","91","3","1","","2","1","1,0.7,0,1,0.7,0,0.7,0,1","0.7,0,1,0.7,0,1,0,1,0.7","2",""
"","html-keyboard-response","193","77808","0.0-283.0","","","","","null","<img src=""img/food1.png"" style=""width:200px; border:14px solid green;"">","null","","","","","","","","","",""
"","image-keyboard-response","194","77914","0.0-284.0","","","","","104.29999995231628","img/food1.png","76","105.29999995231628","3","1","","2","1","1,0.7,0,1,0.7,0,0.7,0,1","0.7,0,1,0.7,0,1,0,1,0.7","2",""
"","html-keyboard-response","195","78216","0.0-285.0","","","","","null","<img src=""img/food1.png"" style=""width:200px; border:14px solid green;"">","null","","","","","","","","","",""
"","image-keyboard-response","196","78400","0.0-286.0","","","","","183.20000004768372","img/food1.png","76","184.39999997615814","3","1","","2","1","1,0.7,0,1,0.7,0,0.7,0,1","0.7,0,1,0.7,0,1,0,1,0.7","2",""
"","html-keyboard-response","197","78703","0.0-287.0","","","","","null","<img src=""img/food1.png"" style=""width:200px; border:14px solid green;"">","null","","","","","","","","","",""
"","image-keyboard-response","198","78764","0.0-288.0","","","","","59.200000047683716","img/food1.png","76","60.10000002384186","3","1","","2","1","1,0.7,0,1,0.7,0,0.7,0,1","0.7,0,1,0.7,0,1,0,1,0.7","2",""
"","html-keyboard-response","199","79066","0.0-289.0","","","","","null","<img src=""img/food1.png"" style=""width:200px; border:14px solid green;"">","null","","","","","","","","","",""
"","image-keyboard-response","200","79157","0.0-290.0","","","","","89.5","img/food2.png","76","90.69999992847443","3","1","","1","1","1,0.7,0,1,0.7,0,0.7,0,1","0.7,0,1,0.7,0,1,0,1,0.7","2",""
"","html-keyboard-response","201","79459","0.0-291.0","","","","","null","<img src=""img/food2.png"" style=""width:200px; border:14px solid green;"">","null","","","","","","","","","",""
"","image-keyboard-response","202","79657","0.0-292.0","","","","","196.90000009536743","img/food4.png","76","198","3","1","","3","1","1,0.7,0,1,0.7,0,0.7,0,1","0.7,0,1,0.7,0,1,0,1,0.7","2",""
"","html-keyboard-response","203","79960","0.0-293.0","","","","","null","<img src=""img/food4.png"" style=""width:200px; border:14px solid green;"">","null","","","","","","","","","",""
"","image-keyboard-response","204","80007","0.0-294.0","","","","","44.89999997615814","img/food4.png","76","46.299999952316284","3","1","","3","1","1,0.7,0,1,0.7,0,0.7,0,1","0.7,0,1,0.7,0,1,0,1,0.7","2",""
"","html-keyboard-response","205","80309","0.0-295.0","","","","","null","<img src=""img/food4.png"" style=""width:200px; border:14px solid green;"">","null","","","","","","","","","",""
"","image-keyboard-response","206","80572","0.0-296.0","","","","","261.89999997615814","img/food1.png","76","262.89999997615814","3","1","","2","1","1,0.7,0,1,0.7,0,0.7,0,1","0.7,0,1,0.7,0,1,0,1,0.7","2",""
"","html-keyboard-response","207","80874","0.0-297.0","","","","","null","<img src=""img/food1.png"" style=""width:200px; border:14px solid green;"">","null","","","","","","","","","",""
"","image-keyboard-response","208","81124","0.0-298.0","","","","","248.30000007152557","img/food2.png","76","249.60000002384186","3","1","","1","1","1,0.7,0,1,0.7,0,0.7,0,1","0.7,0,1,0.7,0,1,0,1,0.7","2",""
"","html-keyboard-response","209","81426","0.0-299.0","","","","","null","<img src=""img/food2.png"" style=""width:200px; border:14px solid green;"">","null","","","","","","","","","",""
"","image-keyboard-response","210","81723","0.0-300.0","","","","","295.39999997615814","img/food1.png","76","296.7999999523163","3","1","","2","1","1,0.7,0,1,0.7,0,0.7,0,1","0.7,0,1,0.7,0,1,0,1,0.7","2",""
"","html-keyboard-response","211","82025","0.0-301.0","","","","","null","<img src=""img/food1.png"" style=""width:200px; border:14px solid green;"">","null","","","","","","","","","",""
"","image-keyboard-response","212","82201","0.0-302.0","","","","","174.40000009536743","img/food2.png","76","175.5","3","1","","1","1","1,0.7,0,1,0.7,0,0.7,0,1","0.7,0,1,0.7,0,1,0,1,0.7","2",""
"","html-keyboard-response","213","82503","0.0-303.0","","","","","null","<img src=""img/food2.png"" style=""width:200px; border:14px solid green;"">","null","","","","","","","","","",""
"","image-keyboard-response","214","82584","0.0-304.0","","","","","79.40000009536743","img/food4.png","76","80.70000004768372","3","0","","3","1","1,0.7,0,1,0.7,0,0.7,0,1","0.7,0,1,0.7,0,1,0,1,0.7","2",""
"","html-keyboard-response","215","82887","0.0-305.0","","","","","null","<img src=""img/food4.png"" style=""width:200px;border:14px solid red;"">","null","","","","","","","","","",""
"","image-keyboard-response","216","82909","0.0-306.0","","","","","20.799999952316284","img/food1.png","76","22.100000023841858","3","1","","2","1","1,0.7,0,1,0.7,0,0.7,0,1","0.7,0,1,0.7,0,1,0,1,0.7","2",""
"","html-keyboard-response","217","83218","0.0-307.0","","","","","null","<img src=""img/food1.png"" style=""width:200px; border:14px solid green;"">","null","","","","","","","","","",""
"","image-keyboard-response","218","83409","0.0-308.0","","","","","189.5","img/food4.png","76","190.60000002384186","3","1","","3","1","1,0.7,0,1,0.7,0,0.7,0,1","0.7,0,1,0.7,0,1,0,1,0.7","2",""
"","html-keyboard-response","219","83711","0.0-309.0","","","","","null","<img src=""img/food4.png"" style=""width:200px; border:14px solid green;"">","null","","","","","","","","","",""
"","image-keyboard-response","220","83890","0.0-310.0","","","","","178","img/food2.png","76","179.09999990463257","3","1","","1","1","1,0.7,0,1,0.7,0,0.7,0,1","0.7,0,1,0.7,0,1,0,1,0.7","2",""
"","html-keyboard-response","221","84193","0.0-311.0","","","","","null","<img src=""img/food2.png"" style=""width:200px; border:14px solid green;"">","null","","","","","","","","","",""
"","image-keyboard-response","222","84418","0.0-312.0","","","","","223.5","img/food1.png","76","224.70000004768372","3","1","","2","1","1,0.7,0,1,0.7,0,0.7,0,1","0.7,0,1,0.7,0,1,0,1,0.7","2",""
"","html-keyboard-response","223","84720","0.0-313.0","","","","","null","<img src=""img/food1.png"" style=""width:200px; border:14px solid green;"">","null","","","","","","","","","",""
"","image-keyboard-response","224","85069","0.0-314.0","","","","","347.1999999284744","img/food2.png","76","348.5","3","1","","1","1","1,0.7,0,1,0.7,0,0.7,0,1","0.7,0,1,0.7,0,1,0,1,0.7","2",""
"","html-keyboard-response","225","85371","0.0-315.0","","","","","null","<img src=""img/food2.png"" style=""width:200px; border:14px solid green;"">","null","","","","","","","","","",""
"","image-keyboard-response","226","85571","0.0-316.0","","","","","198.89999997615814","img/food4.png","76","200.10000002384186","3","1","","3","1","1,0.7,0,1,0.7,0,0.7,0,1","0.7,0,1,0.7,0,1,0,1,0.7","2",""
"","html-keyboard-response","227","85872","0.0-317.0","","","","","null","<img src=""img/food4.png"" style=""width:200px; border:14px solid green;"">","null","","","","","","","","","",""
"","image-keyboard-response","228","86063","0.0-318.0","","","","","189.20000004768372","img/food2.png","76","190.29999995231628","3","1","","1","1","1,0.7,0,1,0.7,0,0.7,0,1","0.7,0,1,0.7,0,1,0,1,0.7","2",""
"","html-keyboard-response","229","86365","0.0-319.0","","","","","null","<img src=""img/food2.png"" style=""width:200px; border:14px solid green;"">","null","","","","","","","","","",""
"","image-keyboard-response","230","86604","0.0-320.0","","","","","237.39999997615814","img/food4.png","76","238.5","3","1","","3","1","1,0.7,0,1,0.7,0,0.7,0,1","0.7,0,1,0.7,0,1,0,1,0.7","2",""
"","html-keyboard-response","231","86906","0.0-321.0","","","","","null","<img src=""img/food4.png"" style=""width:200px; border:14px solid green;"">","null","","","","","","","","","",""
"","image-keyboard-response","232","86950","0.0-322.0","","","","","42.60000002384186","img/food4.png","76","43.699999928474426","3","0","","3","1","1,0.7,0,1,0.7,0,0.7,0,1","0.7,0,1,0.7,0,1,0,1,0.7","2",""
"","html-keyboard-response","233","87253","0.0-323.0","","","","","null","<img src=""img/food4.png"" style=""width:200px;border:14px solid red;"">","null","","","","","","","","","",""
"","image-keyboard-response","234","87342","0.0-324.0","","","","","87.29999995231628","img/food4.png","76","88.39999997615814","3","0","","3","1","1,0.7,0,1,0.7,0,0.7,0,1","0.7,0,1,0.7,0,1,0,1,0.7","2",""
"","html-keyboard-response","235","87644","0.0-325.0","","","","","null","<img src=""img/food4.png"" style=""width:200px;border:14px solid red;"">","null","","","","","","","","","",""
"","image-keyboard-response","236","87731","0.0-326.0","","","","","85.69999992847443","img/food4.png","76","86.89999997615814","3","1","","3","1","1,0.7,0,1,0.7,0,0.7,0,1","0.7,0,1,0.7,0,1,0,1,0.7","2",""
"","html-keyboard-response","237","88034","0.0-327.0","","","","","null","<img src=""img/food4.png"" style=""width:200px; border:14px solid green;"">","null","","","","","","","","","",""
"","image-keyboard-response","238","88137","0.0-328.0","","","","","101.30000007152557","img/food1.png","76","102.60000002384186","3","1","","2","1","1,0.7,0,1,0.7,0,0.7,0,1","0.7,0,1,0.7,0,1,0,1,0.7","2",""
"","html-keyboard-response","239","88439","0.0-329.0","","","","","null","<img src=""img/food1.png"" style=""width:200px; border:14px solid green;"">","null","","","","","","","","","",""
"","image-keyboard-response","240","88642","0.0-330.0","","","","","202.10000002384186","img/food2.png","76","203.10000002384186","3","1","","1","1","1,0.7,0,1,0.7,0,0.7,0,1","0.7,0,1,0.7,0,1,0,1,0.7","2",""
"","html-keyboard-response","241","88944","0.0-331.0","","","","","null","<img src=""img/food2.png"" style=""width:200px; border:14px solid green;"">","null","","","","","","","","","",""
"","image-keyboard-response","242","88954","0.0-332.0","","","","","8.299999952316284","img/food4.png","74","9.399999976158142","1","0","","3","1","1,0.7,0,1,0.7,0,0.7,0,1","0.7,0,1,0.7,0,1,0,1,0.7","2",""
"","html-keyboard-response","243","89256","0.0-333.0","","","","","null","<img src=""img/food4.png"" style=""width:200px;border:14px solid red;"">","null","","","","","","","","","",""
"","image-keyboard-response","244","89304","0.0-334.0","","","","","47","img/food1.png","74","48.10000002384186","1","1","","2","1","1,0.7,0,1,0.7,0,0.7,0,1","0.7,0,1,0.7,0,1,0,1,0.7","2",""
"","html-keyboard-response","245","89607","0.0-335.0","","","","","null","<img src=""img/food1.png"" style=""width:200px; border:14px solid green;"">","null","","","","","","","","","",""
"","image-keyboard-response","246","89925","0.0-336.0","","","","","316.5","img/food2.png","76","317.6999999284744","3","1","","1","1","1,0.7,0,1,0.7,0,0.7,0,1","0.7,0,1,0.7,0,1,0,1,0.7","2",""
"","html-keyboard-response","247","90226","0.0-337.0","","","","","null","<img src=""img/food2.png"" style=""width:200px; border:14px solid green;"">","null","","","","","","","","","",""
"","image-keyboard-response","248","90325","0.0-338.0","","","","","97.5","img/food4.png","76","98.70000004768372","3","0","","3","1","1,0.7,0,1,0.7,0,0.7,0,1","0.7,0,1,0.7,0,1,0,1,0.7","2",""
"","html-keyboard-response","249","90628","0.0-339.0","","","","","null","<img src=""img/food4.png"" style=""width:200px;border:14px solid red;"">","null","","","","","","","","","",""
"","image-keyboard-response","250","90720","0.0-340.0","","","","","91","img/food1.png","76","92.10000002384186","3","1","","2","1","1,0.7,0,1,0.7,0,0.7,0,1","0.7,0,1,0.7,0,1,0,1,0.7","2",""
"","html-keyboard-response","251","91023","0.0-341.0","","","","","null","<img src=""img/food1.png"" style=""width:200px; border:14px solid green;"">","null","","","","","","","","","",""
"","image-keyboard-response","252","91053","0.0-342.0","","","","","29.199999928474426","img/food2.png","76","30.300000071525574","3","1","","1","1","1,0.7,0,1,0.7,0,0.7,0,1","0.7,0,1,0.7,0,1,0,1,0.7","2",""
"","html-keyboard-response","253","91356","0.0-343.0","","","","","null","<img src=""img/food2.png"" style=""width:200px; border:14px solid green;"">","null","","","","","","","","","",""
"","image-keyboard-response","254","91387","0.0-344.0","","","","","29.600000023841858","img/food2.png","76","30.899999976158142","3","1","","1","1","1,0.7,0,1,0.7,0,0.7,0,1","0.7,0,1,0.7,0,1,0,1,0.7","2",""
"","html-keyboard-response","255","91689","0.0-345.0","","","","","null","<img src=""img/food2.png"" style=""width:200px; border:14px solid green;"">","null","","","","","","","","","",""
"","image-keyboard-response","256","91839","0.0-346.0","","","","","149","img/food4.png","76","150","3","0","","3","1","1,0.7,0,1,0.7,0,0.7,0,1","0.7,0,1,0.7,0,1,0,1,0.7","2",""
"","html-keyboard-response","257","92141","0.0-347.0","","","","","null","<img src=""img/food4.png"" style=""width:200px;border:14px solid red;"">","null","","","","","","","","","",""
"","image-keyboard-response","258","92273","0.0-348.0","","","","","130.20000004768372","img/food1.png","76","131.39999997615814","3","1","","2","1","1,0.7,0,1,0.7,0,0.7,0,1","0.7,0,1,0.7,0,1,0,1,0.7","2",""
"","html-keyboard-response","259","92575","0.0-349.0","","","","","null","<img src=""img/food1.png"" style=""width:200px; border:14px solid green;"">","null","","","","","","","","","",""
"","image-keyboard-response","260","92706","0.0-350.0","","","","","129.5","img/food1.png","76","130.79999995231628","3","1","","2","1","1,0.7,0,1,0.7,0,0.7,0,1","0.7,0,1,0.7,0,1,0,1,0.7","2",""
"","html-keyboard-response","261","93007","0.0-351.0","","","","","null","<img src=""img/food1.png"" style=""width:200px; border:14px solid green;"">","null","","","","","","","","","",""
"","image-keyboard-response","262","93129","0.0-352.0","","","","","119.90000009536743","img/food1.png","76","121.10000002384186","3","1","","2","1","1,0.7,0,1,0.7,0,0.7,0,1","0.7,0,1,0.7,0,1,0,1,0.7","2",""
"","html-keyboard-response","263","93431","0.0-353.0","","","","","null","<img src=""img/food1.png"" style=""width:200px; border:14px solid green;"">","null","","","","","","","","","",""
"","image-keyboard-response","264","93649","0.0-354.0","","","","","216.5","img/food2.png","76","217.89999997615814","3","1","","1","1","1,0.7,0,1,0.7,0,0.7,0,1","0.7,0,1,0.7,0,1,0,1,0.7","2",""
"","html-keyboard-response","265","93951","0.0-355.0","","","","","null","<img src=""img/food2.png"" style=""width:200px; border:14px solid green;"">","null","","","","","","","","","",""
"","image-keyboard-response","266","94162","0.0-356.0","","","","","210","img/food4.png","76","211.10000002384186","3","1","","3","1","1,0.7,0,1,0.7,0,0.7,0,1","0.7,0,1,0.7,0,1,0,1,0.7","2",""
"","html-keyboard-response","267","94465","0.0-357.0","","","","","null","<img src=""img/food4.png"" style=""width:200px; border:14px solid green;"">","null","","","","","","","","","",""
"","image-keyboard-response","268","94651","0.0-358.0","","","","","184.79999995231628","img/food4.png","76","186.20000004768372","3","1","","3","1","1,0.7,0,1,0.7,0,0.7,0,1","0.7,0,1,0.7,0,1,0,1,0.7","2",""
"","html-keyboard-response","269","94954","0.0-359.0","","","","","null","<img src=""img/food4.png"" style=""width:200px; border:14px solid green;"">","null","","","","","","","","","",""
"","image-keyboard-response","270","95115","0.0-360.0","","","","","159.89999997615814","img/food4.png","76","160.79999995231628","3","0","","3","1","1,0.7,0,1,0.7,0,0.7,0,1","0.7,0,1,0.7,0,1,0,1,0.7","2",""
"","html-keyboard-response","271","95417","0.0-361.0","","","","","null","<img src=""img/food4.png"" style=""width:200px;border:14px solid red;"">","null","","","","","","","","","",""
"","image-keyboard-response","272","96207","0.0-362.0","","","","","788.3999999761581","img/food1.png","76","789.5999999046326","3","1","","2","1","1,0.7,0,1,0.7,0,0.7,0,1","0.7,0,1,0.7,0,1,0,1,0.7","2",""
"","html-keyboard-response","273","96509","0.0-363.0","","","","","null","<img src=""img/food1.png"" style=""width:200px; border:14px solid green;"">","null","","","","","","","","","",""
"","image-keyboard-response","274","96554","0.0-364.0","","","","","43.199999928474426","img/food4.png","76","44.299999952316284","3","1","","3","1","1,0.7,0,1,0.7,0,0.7,0,1","0.7,0,1,0.7,0,1,0,1,0.7","2",""
"","html-keyboard-response","275","96855","0.0-365.0","","","","","null","<img src=""img/food4.png"" style=""width:200px; border:14px solid green;"">","null","","","","","","","","","",""
"","image-keyboard-response","276","96867","0.0-366.0","","","","","10.100000023841858","img/food4.png","76","11.299999952316284","3","1","","3","1","1,0.7,0,1,0.7,0,0.7,0,1","0.7,0,1,0.7,0,1,0,1,0.7","2",""
"","html-keyboard-response","277","97169","0.0-367.0","","","","","null","<img src=""img/food4.png"" style=""width:200px; border:14px solid green;"">","null","","","","","","","","","",""
"","image-keyboard-response","278","97489","0.0-368.0","","","","","317.90000009536743","img/food4.png","76","319.10000002384186","3","0","","3","1","1,0.7,0,1,0.7,0,0.7,0,1","0.7,0,1,0.7,0,1,0,1,0.7","2",""
"","html-keyboard-response","279","97791","0.0-369.0","","","","","null","<img src=""img/food4.png"" style=""width:200px;border:14px solid red;"">","null","","","","","","","","","",""
"","image-keyboard-response","280","97904","0.0-370.0","","","","","111.60000002384186","img/food1.png","76","112.69999992847443","3","1","","2","1","1,0.7,0,1,0.7,0,0.7,0,1","0.7,0,1,0.7,0,1,0,1,0.7","2",""
"","html-keyboard-response","281","98207","0.0-371.0","","","","","null","<img src=""img/food1.png"" style=""width:200px; border:14px solid green;"">","null","","","","","","","","","",""
"","image-keyboard-response","282","98258","0.0-372.0","","","","","50.199999928474426","img/food2.png","76","51.59999990463257","3","1","","1","1","1,0.7,0,1,0.7,0,0.7,0,1","0.7,0,1,0.7,0,1,0,1,0.7","2",""
"","html-keyboard-response","283","98560","0.0-373.0","","","","","null","<img src=""img/food2.png"" style=""width:200px; border:14px solid green;"">","null","","","","","","","","","",""
"","image-keyboard-response","284","98602","0.0-374.0","","","","","40.5","img/food2.png","76","41.700000047683716","3","1","","1","1","1,0.7,0,1,0.7,0,0.7,0,1","0.7,0,1,0.7,0,1,0,1,0.7","2",""
"","html-keyboard-response","285","98904","0.0-375.0","","","","","null","<img src=""img/food2.png"" style=""width:200px; border:14px solid green;"">","null","","","","","","","","","",""
"","image-keyboard-response","286","99132","0.0-376.0","","","","","225.5","img/food2.png","74","227.20000004768372","1","1","","1","1","1,0.7,0,1,0.7,0,0.7,0,1","0.7,0,1,0.7,0,1,0,1,0.7","2",""
"","html-keyboard-response","287","99435","0.0-377.0","","","","","null","<img src=""img/food2.png"" style=""width:200px; border:14px solid green;"">","null","","","","","","","","","",""
"","image-keyboard-response","288","99472","0.0-378.0","","","","","35.300000071525574","img/food2.png","75","36.39999997615814","2","0","","1","1","1,0.7,0,1,0.7,0,0.7,0,1","0.7,0,1,0.7,0,1,0,1,0.7","2",""
"","html-keyboard-response","289","99774","0.0-379.0","","","","","null","<img src=""img/food2.png"" style=""width:200px;border:14px solid red;"">","null","","","","","","","","","",""
"","image-keyboard-response","290","100072","0.0-380.0","","","","","296.3000000715256","img/food2.png","74","297.2999999523163","1","1","","1","1","1,0.7,0,1,0.7,0,0.7,0,1","0.7,0,1,0.7,0,1,0,1,0.7","2",""
"","html-keyboard-response","291","100374","0.0-381.0","","","","","null","<img src=""img/food2.png"" style=""width:200px; border:14px solid green;"">","null","","","","","","","","","",""
"","image-keyboard-response","292","100564","0.0-382.0","","","","","188.60000002384186","img/food4.png","75","189.79999995231628","2","1","","3","1","1,0.7,0,1,0.7,0,0.7,0,1","0.7,0,1,0.7,0,1,0,1,0.7","2",""
"","html-keyboard-response","293","100867","0.0-383.0","","","","","null","<img src=""img/food4.png"" style=""width:200px; border:14px solid green;"">","null","","","","","","","","","",""
"","image-keyboard-response","294","101105","0.0-384.0","","","","","236.29999995231628","img/food4.png","76","237.70000004768372","3","0","","3","1","1,0.7,0,1,0.7,0,0.7,0,1","0.7,0,1,0.7,0,1,0,1,0.7","2",""
"","html-keyboard-response","295","101407","0.0-385.0","","","","","null","<img src=""img/food4.png"" style=""width:200px;border:14px solid red;"">","null","","","","","","","","","",""
"","image-keyboard-response","296","102099","0.0-386.0","","","","","689.6999999284744","img/food2.png","74","691.2000000476837","1","0","","1","1","1,0.7,0,1,0.7,0,0.7,0,1","0.7,0,1,0.7,0,1,0,1,0.7","2",""
"","html-keyboard-response","297","102401","0.0-387.0","","","","","null","<img src=""img/food2.png"" style=""width:200px;border:14px solid red;"">","null","","","","","","","","","",""
"","image-keyboard-response","298","102523","0.0-388.0","","","","","119.79999995231628","img/food1.png","74","121.09999990463257","1","1","","2","1","1,0.7,0,1,0.7,0,0.7,0,1","0.7,0,1,0.7,0,1,0,1,0.7","2",""
"","html-keyboard-response","299","102824","0.0-389.0","","","","","null","<img src=""img/food1.png"" style=""width:200px; border:14px solid green;"">","null","","","","","","","","","",""
"","image-keyboard-response","300","103133","0.0-390.0","","","","","307.6999999284744","img/food4.png","76","308.7000000476837","3","1","","3","1","1,0.7,0,1,0.7,0,0.7,0,1","0.7,0,1,0.7,0,1,0,1,0.7","2",""
"","html-keyboard-response","301","103436","0.0-391.0","","","","","null","<img src=""img/food4.png"" style=""width:200px; border:14px solid green;"">","null","","","","","","","","","",""
"","image-keyboard-response","302","103496","0.0-392.0","","","","","59.10000002384186","img/food4.png","74","60.10000002384186","1","0","","3","1","1,0.7,0,1,0.7,0,0.7,0,1","0.7,0,1,0.7,0,1,0,1,0.7","2",""
"","html-keyboard-response","303","103798","0.0-393.0","","","","","null","<img src=""img/food4.png"" style=""width:200px;border:14px solid red;"">","null","","","","","","","","","",""
"","image-keyboard-response","304","104131","0.0-394.0","","","","","332.1999999284744","img/food1.png","76","333.39999997615814","3","1","","2","1","1,0.7,0,1,0.7,0,0.7,0,1","0.7,0,1,0.7,0,1,0,1,0.7","2",""
"","html-keyboard-response","305","104434","0.0-395.0","","","","","null","<img src=""img/food1.png"" style=""width:200px; border:14px solid green;"">","null","","","","","","","","","",""
"","image-keyboard-response","306","104439","0.0-396.0","","","","","3.899999976158142","img/food1.png","76","5.200000047683716","3","1","","2","1","1,0.7,0,1,0.7,0,0.7,0,1","0.7,0,1,0.7,0,1,0,1,0.7","2",""
"","html-keyboard-response","307","104741","0.0-397.0","","","","","null","<img src=""img/food1.png"" style=""width:200px; border:14px solid green;"">","null","","","","","","","","","",""
"","image-keyboard-response","308","104859","0.0-398.0","","","","","115.19999992847443","img/food1.png","76","117.10000002384186","3","1","","2","1","1,0.7,0,1,0.7,0,0.7,0,1","0.7,0,1,0.7,0,1,0,1,0.7","2",""
"","html-keyboard-response","309","105161","0.0-399.0","","","","","null","<img src=""img/food1.png"" style=""width:200px; border:14px solid green;"">","null","","","","","","","","","",""
"","image-keyboard-response","310","105490","0.0-400.0","","","","","327.1999999284744","img/food2.png","75","328.39999997615814","2","0","","1","1","1,0.7,0,1,0.7,0,0.7,0,1","0.7,0,1,0.7,0,1,0,1,0.7","2",""
"","html-keyboard-response","311","105793","0.0-401.0","","","","","null","<img src=""img/food2.png"" style=""width:200px;border:14px solid red;"">","null","","","","","","","","","",""
"","image-keyboard-response","312","105795","0.0-402.0","","","","","0.5999999046325684","img/food2.png","76","1.5","3","1","","1","1","1,0.7,0,1,0.7,0,0.7,0,1","0.7,0,1,0.7,0,1,0,1,0.7","2",""
"","html-keyboard-response","313","106096","0.0-403.0","","","","","null","<img src=""img/food2.png"" style=""width:200px; border:14px solid green;"">","null","","","","","","","","","",""
"","image-keyboard-response","314","106104","0.0-404.0","","","","","6.299999952316284","img/food2.png","76","7.399999976158142","3","1","","1","1","1,0.7,0,1,0.7,0,0.7,0,1","0.7,0,1,0.7,0,1,0,1,0.7","2",""
"","html-keyboard-response","315","106406","0.0-405.0","","","","","null","<img src=""img/food2.png"" style=""width:200px; border:14px solid green;"">","null","","","","","","","","","",""
"","image-keyboard-response","316","106559","0.0-406.0","","","","","151.39999997615814","img/food4.png","76","152.60000002384186","3","1","","3","1","1,0.7,0,1,0.7,0,0.7,0,1","0.7,0,1,0.7,0,1,0,1,0.7","2",""
"","html-keyboard-response","317","106860","0.0-407.0","","","","","null","<img src=""img/food4.png"" style=""width:200px; border:14px solid green;"">","null","","","","","","","","","",""
"","image-keyboard-response","318","106939","0.0-408.0","","","","","77.39999997615814","img/food1.png","76","78.40000009536743","3","1","","2","1","1,0.7,0,1,0.7,0,0.7,0,1","0.7,0,1,0.7,0,1,0,1,0.7","2",""
"","html-keyboard-response","319","107241","0.0-409.0","","","","","null","<img src=""img/food1.png"" style=""width:200px; border:14px solid green;"">","null","","","","","","","","","",""
"","image-keyboard-response","320","107327","0.0-410.0","","","","","84.60000002384186","img/food4.png","76","85.70000004768372","3","0","","3","1","1,0.7,0,1,0.7,0,0.7,0,1","0.7,0,1,0.7,0,1,0,1,0.7","2",""
"","html-keyboard-response","321","107629","0.0-411.0","","","","","null","<img src=""img/food4.png"" style=""width:200px;border:14px solid red;"">","null","","","","","","","","","",""
"","image-keyboard-response","322","107635","0.0-412.0","","","","","4.699999928474426","img/food2.png","76","5.600000023841858","3","1","","1","1","1,0.7,0,1,0.7,0,0.7,0,1","0.7,0,1,0.7,0,1,0,1,0.7","2",""
"","html-keyboard-response","323","107937","0.0-413.0","","","","","null","<img src=""img/food2.png"" style=""width:200px; border:14px solid green;"">","null","","","","","","","","","",""
"","image-keyboard-response","324","107969","0.0-414.0","","","","","30.600000023841858","img/food1.png","76","32","3","1","","2","1","1,0.7,0,1,0.7,0,0.7,0,1","0.7,0,1,0.7,0,1,0,1,0.7","2",""
"","html-keyboard-response","325","108271","0.0-415.0","","","","","null","<img src=""img/food1.png"" style=""width:200px; border:14px solid green;"">","null","","","","","","","","","",""
"","image-keyboard-response","326","108284","0.0-416.0","","","","","11","img/food4.png","76","12.099999904632568","3","0","","3","1","1,0.7,0,1,0.7,0,0.7,0,1","0.7,0,1,0.7,0,1,0,1,0.7","2",""
"","html-keyboard-response","327","108586","0.0-417.0","","","","","null","<img src=""img/food4.png"" style=""width:200px;border:14px solid red;"">","null","","","","","","","","","",""
"","image-keyboard-response","328","108737","0.0-418.0","","","","","149.5","img/food4.png","76","150.60000002384186","3","1","","3","1","1,0.7,0,1,0.7,0,0.7,0,1","0.7,0,1,0.7,0,1,0,1,0.7","2",""
"","html-keyboard-response","329","109040","0.0-419.0","","","","","null","<img src=""img/food4.png"" style=""width:200px; border:14px solid green;"">","null","","","","","","","","","",""
"","image-keyboard-response","330","109307","0.0-420.0","","","","","265.2999999523163","img/food2.png","76","266.60000002384186","3","1","","1","1","1,0.7,0,1,0.7,0,0.7,0,1","0.7,0,1,0.7,0,1,0,1,0.7","2",""
"","html-keyboard-response","331","109609","0.0-421.0","","","","","null","<img src=""img/food2.png"" style=""width:200px; border:14px solid green;"">","null","","","","","","","","","",""
"","image-keyboard-response","332","109827","0.0-422.0","","","","","216.39999997615814","img/food2.png","76","217.5","3","1","","1","1","1,0.7,0,1,0.7,0,0.7,0,1","0.7,0,1,0.7,0,1,0,1,0.7","2",""
"","html-keyboard-response","333","110129","0.0-423.0","","","","","null","<img src=""img/food2.png"" style=""width:200px; border:14px solid green;"">","null","","","","","","","","","",""
"","image-keyboard-response","334","110545","0.0-424.0","","","","","413.89999997615814","img/food2.png","76","415.10000002384186","3","1","","1","1","1,0.7,0,1,0.7,0,0.7,0,1","0.7,0,1,0.7,0,1,0,1,0.7","2",""
"","html-keyboard-response","335","110847","0.0-425.0","","","","","null","<img src=""img/food2.png"" style=""width:200px; border:14px solid green;"">","null","","","","","","","","","",""
"","image-keyboard-response","336","110970","0.0-426.0","","","","","121.29999995231628","img/food1.png","76","122.5","3","1","","2","1","1,0.7,0,1,0.7,0,0.7,0,1","0.7,0,1,0.7,0,1,0,1,0.7","2",""
"","html-keyboard-response","337","111272","0.0-427.0","","","","","null","<img src=""img/food1.png"" style=""width:200px; border:14px solid green;"">","null","","","","","","","","","",""
"","image-keyboard-response","338","111517","0.0-428.0","","","","","243.5","img/food1.png","76","244.79999995231628","3","1","","2","1","1,0.7,0,1,0.7,0,0.7,0,1","0.7,0,1,0.7,0,1,0,1,0.7","2",""
"","html-keyboard-response","339","111820","0.0-429.0","","","","","null","<img src=""img/food1.png"" style=""width:200px; border:14px solid green;"">","null","","","","","","","","","",""
"","image-keyboard-response","340","111863","0.0-430.0","","","","","41.39999997615814","img/food2.png","76","42.60000002384186","3","1","","1","1","1,0.7,0,1,0.7,0,0.7,0,1","0.7,0,1,0.7,0,1,0,1,0.7","2",""
"","html-keyboard-response","341","112164","0.0-431.0","","","","","null","<img src=""img/food2.png"" style=""width:200px; border:14px solid green;"">","null","","","","","","","","","",""
"","image-keyboard-response","342","112429","0.0-432.0","","","","","263.10000002384186","img/food4.png","76","264.2000000476837","3","1","","3","1","1,0.7,0,1,0.7,0,0.7,0,1","0.7,0,1,0.7,0,1,0,1,0.7","2",""
"","html-keyboard-response","343","112731","0.0-433.0","","","","","null","<img src=""img/food4.png"" style=""width:200px; border:14px solid green;"">","null","","","","","","","","","",""
"","image-keyboard-response","344","112970","0.0-434.0","","","","","237.70000004768372","img/food2.png","76","238.89999997615814","3","1","","1","1","1,0.7,0,1,0.7,0,0.7,0,1","0.7,0,1,0.7,0,1,0,1,0.7","2",""
"","html-keyboard-response","345","113273","0.0-435.0","","","","","null","<img src=""img/food2.png"" style=""width:200px; border:14px solid green;"">","null","","","","","","","","","",""
"","image-keyboard-response","346","113394","0.0-436.0","","","","","119.5","img/food1.png","74","120.60000002384186","1","1","","2","1","1,0.7,0,1,0.7,0,0.7,0,1","0.7,0,1,0.7,0,1,0,1,0.7","2",""
"","html-keyboard-response","347","113696","0.0-437.0","","","","","null","<img src=""img/food1.png"" style=""width:200px; border:14px solid green;"">","null","","","","","","","","","",""
"","image-keyboard-response","348","113759","0.0-438.0","","","","","62.09999990463257","img/food4.png","75","62.90000009536743","2","1","","3","1","1,0.7,0,1,0.7,0,0.7,0,1","0.7,0,1,0.7,0,1,0,1,0.7","2",""
"","html-keyboard-response","349","114062","0.0-439.0","","","","","null","<img src=""img/food4.png"" style=""width:200px; border:14px solid green;"">","null","","","","","","","","","",""
"","image-keyboard-response","350","114413","0.0-440.0","","","","","349.5","img/food2.png","76","351","3","1","","1","1","1,0.7,0,1,0.7,0,0.7,0,1","0.7,0,1,0.7,0,1,0,1,0.7","2",""
"","html-keyboard-response","351","114715","0.0-441.0","","","","","null","<img src=""img/food2.png"" style=""width:200px; border:14px solid green;"">","null","","","","","","","","","",""
"","image-keyboard-response","352","115033","0.0-442.0","","","","","316.5","img/food1.png","76","317.2999999523163","3","1","","2","1","1,0.7,0,1,0.7,0,0.7,0,1","0.7,0,1,0.7,0,1,0,1,0.7","2",""
"","html-keyboard-response","353","115336","0.0-443.0","","","","","null","<img src=""img/food1.png"" style=""width:200px; border:14px solid green;"">","null","","","","","","","","","",""
"","image-keyboard-response","354","115409","0.0-444.0","","","","","71.80000007152557","img/food1.png","76","73","3","1","","2","1","1,0.7,0,1,0.7,0,0.7,0,1","0.7,0,1,0.7,0,1,0,1,0.7","2",""
"","html-keyboard-response","355","115711","0.0-445.0","","","","","null","<img src=""img/food1.png"" style=""width:200px; border:14px solid green;"">","null","","","","","","","","","",""
"","image-keyboard-response","356","115949","0.0-446.0","","","","","236.20000004768372","img/food4.png","76","237.40000009536743","3","0","","3","1","1,0.7,0,1,0.7,0,0.7,0,1","0.7,0,1,0.7,0,1,0,1,0.7","2",""
"","html-keyboard-response","357","116251","0.0-447.0","","","","","null","<img src=""img/food4.png"" style=""width:200px;border:14px solid red;"">","null","","","","","","","","","",""
"","image-keyboard-response","358","116441","0.0-448.0","","","","","188.20000004768372","img/food2.png","76","189.70000004768372","3","1","","1","1","1,0.7,0,1,0.7,0,0.7,0,1","0.7,0,1,0.7,0,1,0,1,0.7","2",""
"","html-keyboard-response","359","116744","0.0-449.0","","","","","null","<img src=""img/food2.png"" style=""width:200px; border:14px solid green;"">","null","","","","","","","","","",""
"","image-keyboard-response","360","117005","0.0-450.0","","","","","258.89999997615814","img/food1.png","76","260.5","3","1","","2","1","1,0.7,0,1,0.7,0,0.7,0,1","0.7,0,1,0.7,0,1,0,1,0.7","2",""
"","html-keyboard-response","361","117307","0.0-451.0","","","","","null","<img src=""img/food1.png"" style=""width:200px; border:14px solid green;"">","null","","","","","","","","","",""
"","image-keyboard-response","362","117479","0.0-452.0","","","","","170.69999992847443","img/food1.png","76","171.89999997615814","3","1","","2","1","1,0.7,0,1,0.7,0,0.7,0,1","0.7,0,1,0.7,0,1,0,1,0.7","2",""
"","html-keyboard-response","363","117781","0.0-453.0","","","","","null","<img src=""img/food1.png"" style=""width:200px; border:14px solid green;"">","null","","","","","","","","","",""
"","html-keyboard-response","364","120610","0.0-454.0","","","","","","","","","","","","","","","","",""
"","instructions","365","123872","0.0-455.0","","","","[{""page_index"":0,""viewing_time"":3260.7999999523163}]","3261.2999999523163","","","","","","","","","","","",""
"","survey-text","366","130427","0.0-456.0","","","","","6549.200000047684","","","","","","","","","","","","{""Q0"":""A3QS96739O5M6F""}"
