"success","trial_type","trial_index","time_elapsed","internal_node_id","assignmentID","mturkID","hitID","view_history","rt","stimulus","key_press","reactionTime","a","r","warning","s","cond","reward_cond","reward_cond_actual","reward_matrix_idx","responses"
"true","fullscreen","0","2178","0.0-0.0","3ZAK8W07I50RUDTRWMI2EZDIJB7U0A","A3R5OJR60C6004","3HUR21WDDUBEMSLDIXZW1FAIHVWXYO","","","","","","","","","","","","","",""
"","instructions","1","17553","0.0-1.0","3ZAK8W07I50RUDTRWMI2EZDIJB7U0A","A3R5OJR60C6004","3HUR21WDDUBEMSLDIXZW1FAIHVWXYO","[{""page_index"":0,""viewing_time"":10659},{""page_index"":1,""viewing_time"":650},{""page_index"":2,""viewing_time"":370},{""page_index"":3,""viewing_time"":1036},{""page_index"":4,""viewing_time"":896},{""page_index"":5,""viewing_time"":833},{""page_index"":6,""viewing_time"":927}]","15371","","","","","","","","","","","",""
"","instructions","2","34698","0.0-2.0","3ZAK8W07I50RUDTRWMI2EZDIJB7U0A","A3R5OJR60C6004","3HUR21WDDUBEMSLDIXZW1FAIHVWXYO","[{""page_index"":0,""viewing_time"":16141},{""page_index"":1,""viewing_time"":1004}]","17145","","","","","","","","","","","",""
"","image-keyboard-response","3","35052","0.0-3.0","3ZAK8W07I50RUDTRWMI2EZDIJB7U0A","A3R5OJR60C6004","3HUR21WDDUBEMSLDIXZW1FAIHVWXYO","","353","img/food2.png","74","354","1","1","false","1","2","1,0.5,0,1,0.5,0,0.5,0,1","1,0.5,0,1,0.5,0,0.5,0,1","1",""
"","html-keyboard-response","4","35356","0.0-4.0","3ZAK8W07I50RUDTRWMI2EZDIJB7U0A","A3R5OJR60C6004","3HUR21WDDUBEMSLDIXZW1FAIHVWXYO","","null","<img src=""img/food2.png"" style=""width:200px; border:14px solid green;"">","null","","","","","","","","","",""
"","image-keyboard-response","5","35912","0.0-6.0","3ZAK8W07I50RUDTRWMI2EZDIJB7U0A","A3R5OJR60C6004","3HUR21WDDUBEMSLDIXZW1FAIHVWXYO","","554","img/food3.png","75","556","2","0","false","3","2","1,0.5,0,1,0.5,0,0.5,0,1","1,0.5,0,1,0.5,0,0.5,0,1","1",""
"","html-keyboard-response","6","36222","0.0-7.0","3ZAK8W07I50RUDTRWMI2EZDIJB7U0A","A3R5OJR60C6004","3HUR21WDDUBEMSLDIXZW1FAIHVWXYO","","null","<img src=""img/food3.png"" style=""width:200px;border:14px solid red;"">","null","","","","","","","","","",""
"","image-keyboard-response","7","36712","0.0-9.0","3ZAK8W07I50RUDTRWMI2EZDIJB7U0A","A3R5OJR60C6004","3HUR21WDDUBEMSLDIXZW1FAIHVWXYO","","488","img/food6.png","76","490","3","0","false","2","2","1,0.5,0,1,0.5,0,0.5,0,1","1,0.5,0,1,0.5,0,0.5,0,1","1",""
"","html-keyboard-response","8","37028","0.0-10.0","3ZAK8W07I50RUDTRWMI2EZDIJB7U0A","A3R5OJR60C6004","3HUR21WDDUBEMSLDIXZW1FAIHVWXYO","","null","<img src=""img/food6.png"" style=""width:200px;border:14px solid red;"">","null","","","","","","","","","",""
"","image-keyboard-response","9","37470","0.0-12.0","3ZAK8W07I50RUDTRWMI2EZDIJB7U0A","A3R5OJR60C6004","3HUR21WDDUBEMSLDIXZW1FAIHVWXYO","","441","img/food6.png","76","441","3","0","false","2","2","1,0.5,0,1,0.5,0,0.5,0,1","1,0.5,0,1,0.5,0,0.5,0,1","1",""
"","html-keyboard-response","10","37776","0.0-13.0","3ZAK8W07I50RUDTRWMI2EZDIJB7U0A","A3R5OJR60C6004","3HUR21WDDUBEMSLDIXZW1FAIHVWXYO","","null","<img src=""img/food6.png"" style=""width:200px;border:14px solid red;"">","null","","","","","","","","","",""
"","image-keyboard-response","11","38408","0.0-15.0","3ZAK8W07I50RUDTRWMI2EZDIJB7U0A","A3R5OJR60C6004","3HUR21WDDUBEMSLDIXZW1FAIHVWXYO","","629","img/food2.png","75","631","2","0","false","1","2","1,0.5,0,1,0.5,0,0.5,0,1","1,0.5,0,1,0.5,0,0.5,0,1","1",""
"","html-keyboard-response","12","38712","0.0-16.0","3ZAK8W07I50RUDTRWMI2EZDIJB7U0A","A3R5OJR60C6004","3HUR21WDDUBEMSLDIXZW1FAIHVWXYO","","null","<img src=""img/food2.png"" style=""width:200px;border:14px solid red;"">","null","","","","","","","","","",""
"","image-keyboard-response","13","39207","0.0-18.0","3ZAK8W07I50RUDTRWMI2EZDIJB7U0A","A3R5OJR60C6004","3HUR21WDDUBEMSLDIXZW1FAIHVWXYO","","494","img/food3.png","74","494","1","1","false","3","2","1,0.5,0,1,0.5,0,0.5,0,1","1,0.5,0,1,0.5,0,0.5,0,1","1",""
"","html-keyboard-response","14","39511","0.0-19.0","3ZAK8W07I50RUDTRWMI2EZDIJB7U0A","A3R5OJR60C6004","3HUR21WDDUBEMSLDIXZW1FAIHVWXYO","","null","<img src=""img/food3.png"" style=""width:200px; border:14px solid green;"">","null","","","","","","","","","",""
"","image-keyboard-response","15","40160","0.0-21.0","3ZAK8W07I50RUDTRWMI2EZDIJB7U0A","A3R5OJR60C6004","3HUR21WDDUBEMSLDIXZW1FAIHVWXYO","","647","img/food2.png","74","648","1","1","false","1","2","1,0.5,0,1,0.5,0,0.5,0,1","1,0.5,0,1,0.5,0,0.5,0,1","1",""
"","html-keyboard-response","16","40472","0.0-22.0","3ZAK8W07I50RUDTRWMI2EZDIJB7U0A","A3R5OJR60C6004","3HUR21WDDUBEMSLDIXZW1FAIHVWXYO","","null","<img src=""img/food2.png"" style=""width:200px; border:14px solid green;"">","null","","","","","","","","","",""
"","image-keyboard-response","17","40976","0.0-24.0","3ZAK8W07I50RUDTRWMI2EZDIJB7U0A","A3R5OJR60C6004","3HUR21WDDUBEMSLDIXZW1FAIHVWXYO","","502","img/food2.png","74","504","1","1","false","1","2","1,0.5,0,1,0.5,0,0.5,0,1","1,0.5,0,1,0.5,0,0.5,0,1","1",""
"","html-keyboard-response","18","41278","0.0-25.0","3ZAK8W07I50RUDTRWMI2EZDIJB7U0A","A3R5OJR60C6004","3HUR21WDDUBEMSLDIXZW1FAIHVWXYO","","null","<img src=""img/food2.png"" style=""width:200px; border:14px solid green;"">","null","","","","","","","","","",""
"","image-keyboard-response","19","41701","0.0-27.0","3ZAK8W07I50RUDTRWMI2EZDIJB7U0A","A3R5OJR60C6004","3HUR21WDDUBEMSLDIXZW1FAIHVWXYO","","422","img/food3.png","74","423","1","0","false","3","2","1,0.5,0,1,0.5,0,0.5,0,1","1,0.5,0,1,0.5,0,0.5,0,1","1",""
"","html-keyboard-response","20","42013","0.0-28.0","3ZAK8W07I50RUDTRWMI2EZDIJB7U0A","A3R5OJR60C6004","3HUR21WDDUBEMSLDIXZW1FAIHVWXYO","","null","<img src=""img/food3.png"" style=""width:200px;border:14px solid red;"">","null","","","","","","","","","",""
"","image-keyboard-response","21","42464","0.0-30.0","3ZAK8W07I50RUDTRWMI2EZDIJB7U0A","A3R5OJR60C6004","3HUR21WDDUBEMSLDIXZW1FAIHVWXYO","","450","img/food3.png","74","450","1","1","false","3","2","1,0.5,0,1,0.5,0,0.5,0,1","1,0.5,0,1,0.5,0,0.5,0,1","1",""
"","html-keyboard-response","22","42779","0.0-31.0","3ZAK8W07I50RUDTRWMI2EZDIJB7U0A","A3R5OJR60C6004","3HUR21WDDUBEMSLDIXZW1FAIHVWXYO","","null","<img src=""img/food3.png"" style=""width:200px; border:14px solid green;"">","null","","","","","","","","","",""
"","image-keyboard-response","23","43296","0.0-33.0","3ZAK8W07I50RUDTRWMI2EZDIJB7U0A","A3R5OJR60C6004","3HUR21WDDUBEMSLDIXZW1FAIHVWXYO","","516","img/food2.png","74","516","1","1","false","1","2","1,0.5,0,1,0.5,0,0.5,0,1","1,0.5,0,1,0.5,0,0.5,0,1","1",""
"","html-keyboard-response","24","43599","0.0-34.0","3ZAK8W07I50RUDTRWMI2EZDIJB7U0A","A3R5OJR60C6004","3HUR21WDDUBEMSLDIXZW1FAIHVWXYO","","null","<img src=""img/food2.png"" style=""width:200px; border:14px solid green;"">","null","","","","","","","","","",""
"","image-keyboard-response","25","44008","0.0-36.0","3ZAK8W07I50RUDTRWMI2EZDIJB7U0A","A3R5OJR60C6004","3HUR21WDDUBEMSLDIXZW1FAIHVWXYO","","408","img/food2.png","74","409","1","1","false","1","2","1,0.5,0,1,0.5,0,0.5,0,1","1,0.5,0,1,0.5,0,0.5,0,1","1",""
"","html-keyboard-response","26","44309","0.0-37.0","3ZAK8W07I50RUDTRWMI2EZDIJB7U0A","A3R5OJR60C6004","3HUR21WDDUBEMSLDIXZW1FAIHVWXYO","","null","<img src=""img/food2.png"" style=""width:200px; border:14px solid green;"">","null","","","","","","","","","",""
"","image-keyboard-response","27","44815","0.0-39.0","3ZAK8W07I50RUDTRWMI2EZDIJB7U0A","A3R5OJR60C6004","3HUR21WDDUBEMSLDIXZW1FAIHVWXYO","","505","img/food6.png","74","506","1","1","false","2","2","1,0.5,0,1,0.5,0,0.5,0,1","1,0.5,0,1,0.5,0,0.5,0,1","1",""
"","html-keyboard-response","28","45128","0.0-40.0","3ZAK8W07I50RUDTRWMI2EZDIJB7U0A","A3R5OJR60C6004","3HUR21WDDUBEMSLDIXZW1FAIHVWXYO","","null","<img src=""img/food6.png"" style=""width:200px; border:14px solid green;"">","null","","","","","","","","","",""
"","image-keyboard-response","29","45584","0.0-42.0","3ZAK8W07I50RUDTRWMI2EZDIJB7U0A","A3R5OJR60C6004","3HUR21WDDUBEMSLDIXZW1FAIHVWXYO","","454","img/food2.png","74","455","1","1","false","1","2","1,0.5,0,1,0.5,0,0.5,0,1","1,0.5,0,1,0.5,0,0.5,0,1","1",""
"","html-keyboard-response","30","45895","0.0-43.0","3ZAK8W07I50RUDTRWMI2EZDIJB7U0A","A3R5OJR60C6004","3HUR21WDDUBEMSLDIXZW1FAIHVWXYO","","null","<img src=""img/food2.png"" style=""width:200px; border:14px solid green;"">","null","","","","","","","","","",""
"","image-keyboard-response","31","46287","0.0-45.0","3ZAK8W07I50RUDTRWMI2EZDIJB7U0A","A3R5OJR60C6004","3HUR21WDDUBEMSLDIXZW1FAIHVWXYO","","390","img/food3.png","74","392","1","1","false","3","2","1,0.5,0,1,0.5,0,0.5,0,1","1,0.5,0,1,0.5,0,0.5,0,1","1",""
"","html-keyboard-response","32","46598","0.0-46.0","3ZAK8W07I50RUDTRWMI2EZDIJB7U0A","A3R5OJR60C6004","3HUR21WDDUBEMSLDIXZW1FAIHVWXYO","","null","<img src=""img/food3.png"" style=""width:200px; border:14px solid green;"">","null","","","","","","","","","",""
"","image-keyboard-response","33","46991","0.0-48.0","3ZAK8W07I50RUDTRWMI2EZDIJB7U0A","A3R5OJR60C6004","3HUR21WDDUBEMSLDIXZW1FAIHVWXYO","","392","img/food3.png","74","393","1","0","false","3","2","1,0.5,0,1,0.5,0,0.5,0,1","1,0.5,0,1,0.5,0,0.5,0,1","1",""
"","html-keyboard-response","34","47296","0.0-49.0","3ZAK8W07I50RUDTRWMI2EZDIJB7U0A","A3R5OJR60C6004","3HUR21WDDUBEMSLDIXZW1FAIHVWXYO","","null","<img src=""img/food3.png"" style=""width:200px;border:14px solid red;"">","null","","","","","","","","","",""
"","image-keyboard-response","35","47807","0.0-51.0","3ZAK8W07I50RUDTRWMI2EZDIJB7U0A","A3R5OJR60C6004","3HUR21WDDUBEMSLDIXZW1FAIHVWXYO","","510","img/food2.png","76","510","3","0","false","1","2","1,0.5,0,1,0.5,0,0.5,0,1","1,0.5,0,1,0.5,0,0.5,0,1","1",""
"","html-keyboard-response","36","48123","0.0-52.0","3ZAK8W07I50RUDTRWMI2EZDIJB7U0A","A3R5OJR60C6004","3HUR21WDDUBEMSLDIXZW1FAIHVWXYO","","null","<img src=""img/food2.png"" style=""width:200px;border:14px solid red;"">","null","","","","","","","","","",""
"","image-keyboard-response","37","48407","0.0-54.0","3ZAK8W07I50RUDTRWMI2EZDIJB7U0A","A3R5OJR60C6004","3HUR21WDDUBEMSLDIXZW1FAIHVWXYO","","284","img/food3.png","74","285","1","1","false","3","2","1,0.5,0,1,0.5,0,0.5,0,1","1,0.5,0,1,0.5,0,0.5,0,1","1",""
"","html-keyboard-response","38","48710","0.0-55.0","3ZAK8W07I50RUDTRWMI2EZDIJB7U0A","A3R5OJR60C6004","3HUR21WDDUBEMSLDIXZW1FAIHVWXYO","","null","<img src=""img/food3.png"" style=""width:200px; border:14px solid green;"">","null","","","","","","","","","",""
"","image-keyboard-response","39","49072","0.0-57.0","3ZAK8W07I50RUDTRWMI2EZDIJB7U0A","A3R5OJR60C6004","3HUR21WDDUBEMSLDIXZW1FAIHVWXYO","","361","img/food3.png","74","362","1","1","false","3","2","1,0.5,0,1,0.5,0,0.5,0,1","1,0.5,0,1,0.5,0,0.5,0,1","1",""
"","html-keyboard-response","40","49380","0.0-58.0","3ZAK8W07I50RUDTRWMI2EZDIJB7U0A","A3R5OJR60C6004","3HUR21WDDUBEMSLDIXZW1FAIHVWXYO","","null","<img src=""img/food3.png"" style=""width:200px; border:14px solid green;"">","null","","","","","","","","","",""
"","image-keyboard-response","41","49728","0.0-60.0","3ZAK8W07I50RUDTRWMI2EZDIJB7U0A","A3R5OJR60C6004","3HUR21WDDUBEMSLDIXZW1FAIHVWXYO","","347","img/food3.png","74","347","1","0","false","3","2","1,0.5,0,1,0.5,0,0.5,0,1","1,0.5,0,1,0.5,0,0.5,0,1","1",""
"","html-keyboard-response","42","50029","0.0-61.0","3ZAK8W07I50RUDTRWMI2EZDIJB7U0A","A3R5OJR60C6004","3HUR21WDDUBEMSLDIXZW1FAIHVWXYO","","null","<img src=""img/food3.png"" style=""width:200px;border:14px solid red;"">","null","","","","","","","","","",""
"","image-keyboard-response","43","50542","0.0-63.0","3ZAK8W07I50RUDTRWMI2EZDIJB7U0A","A3R5OJR60C6004","3HUR21WDDUBEMSLDIXZW1FAIHVWXYO","","512","img/food6.png","74","513","1","1","false","2","2","1,0.5,0,1,0.5,0,0.5,0,1","1,0.5,0,1,0.5,0,0.5,0,1","1",""
"","html-keyboard-response","44","50845","0.0-64.0","3ZAK8W07I50RUDTRWMI2EZDIJB7U0A","A3R5OJR60C6004","3HUR21WDDUBEMSLDIXZW1FAIHVWXYO","","null","<img src=""img/food6.png"" style=""width:200px; border:14px solid green;"">","null","","","","","","","","","",""
"","image-keyboard-response","45","51112","0.0-66.0","3ZAK8W07I50RUDTRWMI2EZDIJB7U0A","A3R5OJR60C6004","3HUR21WDDUBEMSLDIXZW1FAIHVWXYO","","265","img/food3.png","74","266","1","0","false","3","2","1,0.5,0,1,0.5,0,0.5,0,1","1,0.5,0,1,0.5,0,0.5,0,1","1",""
"","html-keyboard-response","46","51419","0.0-67.0","3ZAK8W07I50RUDTRWMI2EZDIJB7U0A","A3R5OJR60C6004","3HUR21WDDUBEMSLDIXZW1FAIHVWXYO","","null","<img src=""img/food3.png"" style=""width:200px;border:14px solid red;"">","null","","","","","","","","","",""
"","image-keyboard-response","47","52054","0.0-69.0","3ZAK8W07I50RUDTRWMI2EZDIJB7U0A","A3R5OJR60C6004","3HUR21WDDUBEMSLDIXZW1FAIHVWXYO","","633","img/food2.png","76","634","3","0","false","1","2","1,0.5,0,1,0.5,0,0.5,0,1","1,0.5,0,1,0.5,0,0.5,0,1","1",""
"","html-keyboard-response","48","52370","0.0-70.0","3ZAK8W07I50RUDTRWMI2EZDIJB7U0A","A3R5OJR60C6004","3HUR21WDDUBEMSLDIXZW1FAIHVWXYO","","null","<img src=""img/food2.png"" style=""width:200px;border:14px solid red;"">","null","","","","","","","","","",""
"","image-keyboard-response","49","52718","0.0-72.0","3ZAK8W07I50RUDTRWMI2EZDIJB7U0A","A3R5OJR60C6004","3HUR21WDDUBEMSLDIXZW1FAIHVWXYO","","348","img/food2.png","74","349","1","1","false","1","2","1,0.5,0,1,0.5,0,0.5,0,1","1,0.5,0,1,0.5,0,0.5,0,1","1",""
"","html-keyboard-response","50","53034","0.0-73.0","3ZAK8W07I50RUDTRWMI2EZDIJB7U0A","A3R5OJR60C6004","3HUR21WDDUBEMSLDIXZW1FAIHVWXYO","","null","<img src=""img/food2.png"" style=""width:200px; border:14px solid green;"">","null","","","","","","","","","",""
"","image-keyboard-response","51","53670","0.0-75.0","3ZAK8W07I50RUDTRWMI2EZDIJB7U0A","A3R5OJR60C6004","3HUR21WDDUBEMSLDIXZW1FAIHVWXYO","","635","img/food6.png","74","635","1","1","false","2","2","1,0.5,0,1,0.5,0,0.5,0,1","1,0.5,0,1,0.5,0,0.5,0,1","1",""
"","html-keyboard-response","52","53970","0.0-76.0","3ZAK8W07I50RUDTRWMI2EZDIJB7U0A","A3R5OJR60C6004","3HUR21WDDUBEMSLDIXZW1FAIHVWXYO","","null","<img src=""img/food6.png"" style=""width:200px; border:14px solid green;"">","null","","","","","","","","","",""
"","image-keyboard-response","53","54438","0.0-78.0","3ZAK8W07I50RUDTRWMI2EZDIJB7U0A","A3R5OJR60C6004","3HUR21WDDUBEMSLDIXZW1FAIHVWXYO","","467","img/food6.png","74","467","1","1","false","2","2","1,0.5,0,1,0.5,0,0.5,0,1","1,0.5,0,1,0.5,0,0.5,0,1","1",""
"","html-keyboard-response","54","54752","0.0-79.0","3ZAK8W07I50RUDTRWMI2EZDIJB7U0A","A3R5OJR60C6004","3HUR21WDDUBEMSLDIXZW1FAIHVWXYO","","null","<img src=""img/food6.png"" style=""width:200px; border:14px solid green;"">","null","","","","","","","","","",""
"","image-keyboard-response","55","55094","0.0-81.0","3ZAK8W07I50RUDTRWMI2EZDIJB7U0A","A3R5OJR60C6004","3HUR21WDDUBEMSLDIXZW1FAIHVWXYO","","340","img/food6.png","74","343","1","1","false","2","2","1,0.5,0,1,0.5,0,0.5,0,1","1,0.5,0,1,0.5,0,0.5,0,1","1",""
"","html-keyboard-response","56","55397","0.0-82.0","3ZAK8W07I50RUDTRWMI2EZDIJB7U0A","A3R5OJR60C6004","3HUR21WDDUBEMSLDIXZW1FAIHVWXYO","","null","<img src=""img/food6.png"" style=""width:200px; border:14px solid green;"">","null","","","","","","","","","",""
"","image-keyboard-response","57","55792","0.0-84.0","3ZAK8W07I50RUDTRWMI2EZDIJB7U0A","A3R5OJR60C6004","3HUR21WDDUBEMSLDIXZW1FAIHVWXYO","","394","img/food2.png","75","394","2","0","false","1","2","1,0.5,0,1,0.5,0,0.5,0,1","1,0.5,0,1,0.5,0,0.5,0,1","1",""
"","html-keyboard-response","58","56102","0.0-85.0","3ZAK8W07I50RUDTRWMI2EZDIJB7U0A","A3R5OJR60C6004","3HUR21WDDUBEMSLDIXZW1FAIHVWXYO","","null","<img src=""img/food2.png"" style=""width:200px;border:14px solid red;"">","null","","","","","","","","","",""
"","image-keyboard-response","59","56413","0.0-87.0","3ZAK8W07I50RUDTRWMI2EZDIJB7U0A","A3R5OJR60C6004","3HUR21WDDUBEMSLDIXZW1FAIHVWXYO","","310","img/food2.png","74","310","1","1","false","1","2","1,0.5,0,1,0.5,0,0.5,0,1","1,0.5,0,1,0.5,0,0.5,0,1","1",""
"","html-keyboard-response","60","56722","0.0-88.0","3ZAK8W07I50RUDTRWMI2EZDIJB7U0A","A3R5OJR60C6004","3HUR21WDDUBEMSLDIXZW1FAIHVWXYO","","null","<img src=""img/food2.png"" style=""width:200px; border:14px solid green;"">","null","","","","","","","","","",""
"","image-keyboard-response","61","57095","0.0-90.0","3ZAK8W07I50RUDTRWMI2EZDIJB7U0A","A3R5OJR60C6004","3HUR21WDDUBEMSLDIXZW1FAIHVWXYO","","371","img/food3.png","74","372","1","0","false","3","2","1,0.5,0,1,0.5,0,0.5,0,1","1,0.5,0,1,0.5,0,0.5,0,1","1",""
"","html-keyboard-response","62","57403","0.0-91.0","3ZAK8W07I50RUDTRWMI2EZDIJB7U0A","A3R5OJR60C6004","3HUR21WDDUBEMSLDIXZW1FAIHVWXYO","","null","<img src=""img/food3.png"" style=""width:200px;border:14px solid red;"">","null","","","","","","","","","",""
"","image-keyboard-response","63","57896","0.0-93.0","3ZAK8W07I50RUDTRWMI2EZDIJB7U0A","A3R5OJR60C6004","3HUR21WDDUBEMSLDIXZW1FAIHVWXYO","","491","img/food6.png","74","492","1","1","false","2","2","1,0.5,0,1,0.5,0,0.5,0,1","1,0.5,0,1,0.5,0,0.5,0,1","1",""
"","html-keyboard-response","64","58202","0.0-94.0","3ZAK8W07I50RUDTRWMI2EZDIJB7U0A","A3R5OJR60C6004","3HUR21WDDUBEMSLDIXZW1FAIHVWXYO","","null","<img src=""img/food6.png"" style=""width:200px; border:14px solid green;"">","null","","","","","","","","","",""
"","image-keyboard-response","65","58616","0.0-96.0","3ZAK8W07I50RUDTRWMI2EZDIJB7U0A","A3R5OJR60C6004","3HUR21WDDUBEMSLDIXZW1FAIHVWXYO","","411","img/food3.png","74","412","1","0","false","3","2","1,0.5,0,1,0.5,0,0.5,0,1","1,0.5,0,1,0.5,0,0.5,0,1","1",""
"","html-keyboard-response","66","58925","0.0-97.0","3ZAK8W07I50RUDTRWMI2EZDIJB7U0A","A3R5OJR60C6004","3HUR21WDDUBEMSLDIXZW1FAIHVWXYO","","null","<img src=""img/food3.png"" style=""width:200px;border:14px solid red;"">","null","","","","","","","","","",""
"","image-keyboard-response","67","59320","0.0-99.0","3ZAK8W07I50RUDTRWMI2EZDIJB7U0A","A3R5OJR60C6004","3HUR21WDDUBEMSLDIXZW1FAIHVWXYO","","395","img/food6.png","74","396","1","1","false","2","2","1,0.5,0,1,0.5,0,0.5,0,1","1,0.5,0,1,0.5,0,0.5,0,1","1",""
"","html-keyboard-response","68","59636","0.0-100.0","3ZAK8W07I50RUDTRWMI2EZDIJB7U0A","A3R5OJR60C6004","3HUR21WDDUBEMSLDIXZW1FAIHVWXYO","","null","<img src=""img/food6.png"" style=""width:200px; border:14px solid green;"">","null","","","","","","","","","",""
"","image-keyboard-response","69","60207","0.0-102.0","3ZAK8W07I50RUDTRWMI2EZDIJB7U0A","A3R5OJR60C6004","3HUR21WDDUBEMSLDIXZW1FAIHVWXYO","","570","img/food3.png","74","570","1","0","false","3","2","1,0.5,0,1,0.5,0,0.5,0,1","1,0.5,0,1,0.5,0,0.5,0,1","1",""
"","html-keyboard-response","70","60521","0.0-103.0","3ZAK8W07I50RUDTRWMI2EZDIJB7U0A","A3R5OJR60C6004","3HUR21WDDUBEMSLDIXZW1FAIHVWXYO","","null","<img src=""img/food3.png"" style=""width:200px;border:14px solid red;"">","null","","","","","","","","","",""
"","image-keyboard-response","71","60718","0.0-105.0","3ZAK8W07I50RUDTRWMI2EZDIJB7U0A","A3R5OJR60C6004","3HUR21WDDUBEMSLDIXZW1FAIHVWXYO","","196","img/food3.png","75","196","2","0","false","3","2","1,0.5,0,1,0.5,0,0.5,0,1","1,0.5,0,1,0.5,0,0.5,0,1","1",""
"","html-keyboard-response","72","61027","0.0-106.0","3ZAK8W07I50RUDTRWMI2EZDIJB7U0A","A3R5OJR60C6004","3HUR21WDDUBEMSLDIXZW1FAIHVWXYO","","null","<img src=""img/food3.png"" style=""width:200px;border:14px solid red;"">","null","","","","","","","","","",""
"","image-keyboard-response","73","61312","0.0-108.0","3ZAK8W07I50RUDTRWMI2EZDIJB7U0A","A3R5OJR60C6004","3HUR21WDDUBEMSLDIXZW1FAIHVWXYO","","284","img/food2.png","76","285","3","0","false","1","2","1,0.5,0,1,0.5,0,0.5,0,1","1,0.5,0,1,0.5,0,0.5,0,1","1",""
"","html-keyboard-response","74","61616","0.0-109.0","3ZAK8W07I50RUDTRWMI2EZDIJB7U0A","A3R5OJR60C6004","3HUR21WDDUBEMSLDIXZW1FAIHVWXYO","","null","<img src=""img/food2.png"" style=""width:200px;border:14px solid red;"">","null","","","","","","","","","",""
"","image-keyboard-response","75","61920","0.0-111.0","3ZAK8W07I50RUDTRWMI2EZDIJB7U0A","A3R5OJR60C6004","3HUR21WDDUBEMSLDIXZW1FAIHVWXYO","","302","img/food2.png","76","303","3","0","false","1","2","1,0.5,0,1,0.5,0,0.5,0,1","1,0.5,0,1,0.5,0,0.5,0,1","1",""
"","html-keyboard-response","76","62224","0.0-112.0","3ZAK8W07I50RUDTRWMI2EZDIJB7U0A","A3R5OJR60C6004","3HUR21WDDUBEMSLDIXZW1FAIHVWXYO","","null","<img src=""img/food2.png"" style=""width:200px;border:14px solid red;"">","null","","","","","","","","","",""
"","image-keyboard-response","77","62520","0.0-114.0","3ZAK8W07I50RUDTRWMI2EZDIJB7U0A","A3R5OJR60C6004","3HUR21WDDUBEMSLDIXZW1FAIHVWXYO","","293","img/food2.png","76","295","3","0","false","1","2","1,0.5,0,1,0.5,0,0.5,0,1","1,0.5,0,1,0.5,0,0.5,0,1","1",""
"","html-keyboard-response","78","62830","0.0-115.0","3ZAK8W07I50RUDTRWMI2EZDIJB7U0A","A3R5OJR60C6004","3HUR21WDDUBEMSLDIXZW1FAIHVWXYO","","null","<img src=""img/food2.png"" style=""width:200px;border:14px solid red;"">","null","","","","","","","","","",""
"","image-keyboard-response","79","63376","0.0-117.0","3ZAK8W07I50RUDTRWMI2EZDIJB7U0A","A3R5OJR60C6004","3HUR21WDDUBEMSLDIXZW1FAIHVWXYO","","546","img/food6.png","74","546","1","1","false","2","2","1,0.5,0,1,0.5,0,0.5,0,1","1,0.5,0,1,0.5,0,0.5,0,1","1",""
"","html-keyboard-response","80","63690","0.0-118.0","3ZAK8W07I50RUDTRWMI2EZDIJB7U0A","A3R5OJR60C6004","3HUR21WDDUBEMSLDIXZW1FAIHVWXYO","","null","<img src=""img/food6.png"" style=""width:200px; border:14px solid green;"">","null","","","","","","","","","",""
"","image-keyboard-response","81","64016","0.0-120.0","3ZAK8W07I50RUDTRWMI2EZDIJB7U0A","A3R5OJR60C6004","3HUR21WDDUBEMSLDIXZW1FAIHVWXYO","","325","img/food3.png","74","326","1","1","false","3","2","1,0.5,0,1,0.5,0,0.5,0,1","1,0.5,0,1,0.5,0,0.5,0,1","1",""
"","html-keyboard-response","82","64327","0.0-121.0","3ZAK8W07I50RUDTRWMI2EZDIJB7U0A","A3R5OJR60C6004","3HUR21WDDUBEMSLDIXZW1FAIHVWXYO","","null","<img src=""img/food3.png"" style=""width:200px; border:14px solid green;"">","null","","","","","","","","","",""
"","image-keyboard-response","83","64624","0.0-123.0","3ZAK8W07I50RUDTRWMI2EZDIJB7U0A","A3R5OJR60C6004","3HUR21WDDUBEMSLDIXZW1FAIHVWXYO","","296","img/food6.png","74","296","1","1","false","2","2","1,0.5,0,1,0.5,0,0.5,0,1","1,0.5,0,1,0.5,0,0.5,0,1","1",""
"","html-keyboard-response","84","64936","0.0-124.0","3ZAK8W07I50RUDTRWMI2EZDIJB7U0A","A3R5OJR60C6004","3HUR21WDDUBEMSLDIXZW1FAIHVWXYO","","null","<img src=""img/food6.png"" style=""width:200px; border:14px solid green;"">","null","","","","","","","","","",""
"","image-keyboard-response","85","65248","0.0-126.0","3ZAK8W07I50RUDTRWMI2EZDIJB7U0A","A3R5OJR60C6004","3HUR21WDDUBEMSLDIXZW1FAIHVWXYO","","311","img/food6.png","74","312","1","1","false","2","2","1,0.5,0,1,0.5,0,0.5,0,1","1,0.5,0,1,0.5,0,0.5,0,1","1",""
"","html-keyboard-response","86","65554","0.0-127.0","3ZAK8W07I50RUDTRWMI2EZDIJB7U0A","A3R5OJR60C6004","3HUR21WDDUBEMSLDIXZW1FAIHVWXYO","","null","<img src=""img/food6.png"" style=""width:200px; border:14px solid green;"">","null","","","","","","","","","",""
"","image-keyboard-response","87","65992","0.0-129.0","3ZAK8W07I50RUDTRWMI2EZDIJB7U0A","A3R5OJR60C6004","3HUR21WDDUBEMSLDIXZW1FAIHVWXYO","","436","img/food3.png","74","437","1","0","false","3","2","1,0.5,0,1,0.5,0,0.5,0,1","1,0.5,0,1,0.5,0,0.5,0,1","1",""
"","html-keyboard-response","88","66343","0.0-130.0","3ZAK8W07I50RUDTRWMI2EZDIJB7U0A","A3R5OJR60C6004","3HUR21WDDUBEMSLDIXZW1FAIHVWXYO","","null","<img src=""img/food3.png"" style=""width:200px;border:14px solid red;"">","null","","","","","","","","","",""
"","image-keyboard-response","89","66854","0.0-132.0","3ZAK8W07I50RUDTRWMI2EZDIJB7U0A","A3R5OJR60C6004","3HUR21WDDUBEMSLDIXZW1FAIHVWXYO","","510","img/food6.png","74","510","1","1","false","2","2","1,0.5,0,1,0.5,0,0.5,0,1","1,0.5,0,1,0.5,0,0.5,0,1","1",""
"","html-keyboard-response","90","67166","0.0-133.0","3ZAK8W07I50RUDTRWMI2EZDIJB7U0A","A3R5OJR60C6004","3HUR21WDDUBEMSLDIXZW1FAIHVWXYO","","null","<img src=""img/food6.png"" style=""width:200px; border:14px solid green;"">","null","","","","","","","","","",""
"","image-keyboard-response","91","67600","0.0-135.0","3ZAK8W07I50RUDTRWMI2EZDIJB7U0A","A3R5OJR60C6004","3HUR21WDDUBEMSLDIXZW1FAIHVWXYO","","433","img/food2.png","75","433","2","0","false","1","2","1,0.5,0,1,0.5,0,0.5,0,1","1,0.5,0,1,0.5,0,0.5,0,1","1",""
"","html-keyboard-response","92","67913","0.0-136.0","3ZAK8W07I50RUDTRWMI2EZDIJB7U0A","A3R5OJR60C6004","3HUR21WDDUBEMSLDIXZW1FAIHVWXYO","","null","<img src=""img/food2.png"" style=""width:200px;border:14px solid red;"">","null","","","","","","","","","",""
"","image-keyboard-response","93","68136","0.0-138.0","3ZAK8W07I50RUDTRWMI2EZDIJB7U0A","A3R5OJR60C6004","3HUR21WDDUBEMSLDIXZW1FAIHVWXYO","","222","img/food3.png","75","223","2","0","false","3","2","1,0.5,0,1,0.5,0,0.5,0,1","1,0.5,0,1,0.5,0,0.5,0,1","1",""
"","html-keyboard-response","94","68444","0.0-139.0","3ZAK8W07I50RUDTRWMI2EZDIJB7U0A","A3R5OJR60C6004","3HUR21WDDUBEMSLDIXZW1FAIHVWXYO","","null","<img src=""img/food3.png"" style=""width:200px;border:14px solid red;"">","null","","","","","","","","","",""
"","image-keyboard-response","95","68879","0.0-141.0","3ZAK8W07I50RUDTRWMI2EZDIJB7U0A","A3R5OJR60C6004","3HUR21WDDUBEMSLDIXZW1FAIHVWXYO","","435","img/food6.png","74","436","1","1","false","2","2","1,0.5,0,1,0.5,0,0.5,0,1","1,0.5,0,1,0.5,0,0.5,0,1","1",""
"","html-keyboard-response","96","69193","0.0-142.0","3ZAK8W07I50RUDTRWMI2EZDIJB7U0A","A3R5OJR60C6004","3HUR21WDDUBEMSLDIXZW1FAIHVWXYO","","null","<img src=""img/food6.png"" style=""width:200px; border:14px solid green;"">","null","","","","","","","","","",""
"","image-keyboard-response","97","69455","0.0-144.0","3ZAK8W07I50RUDTRWMI2EZDIJB7U0A","A3R5OJR60C6004","3HUR21WDDUBEMSLDIXZW1FAIHVWXYO","","262","img/food3.png","74","264","1","0","false","3","2","1,0.5,0,1,0.5,0,0.5,0,1","1,0.5,0,1,0.5,0,0.5,0,1","1",""
"","html-keyboard-response","98","69763","0.0-145.0","3ZAK8W07I50RUDTRWMI2EZDIJB7U0A","A3R5OJR60C6004","3HUR21WDDUBEMSLDIXZW1FAIHVWXYO","","null","<img src=""img/food3.png"" style=""width:200px;border:14px solid red;"">","null","","","","","","","","","",""
"","image-keyboard-response","99","70126","0.0-147.0","3ZAK8W07I50RUDTRWMI2EZDIJB7U0A","A3R5OJR60C6004","3HUR21WDDUBEMSLDIXZW1FAIHVWXYO","","363","img/food3.png","74","363","1","0","false","3","2","1,0.5,0,1,0.5,0,0.5,0,1","1,0.5,0,1,0.5,0,0.5,0,1","1",""
"","html-keyboard-response","100","70432","0.0-148.0","3ZAK8W07I50RUDTRWMI2EZDIJB7U0A","A3R5OJR60C6004","3HUR21WDDUBEMSLDIXZW1FAIHVWXYO","","null","<img src=""img/food3.png"" style=""width:200px;border:14px solid red;"">","null","","","","","","","","","",""
"","image-keyboard-response","101","70814","0.0-150.0","3ZAK8W07I50RUDTRWMI2EZDIJB7U0A","A3R5OJR60C6004","3HUR21WDDUBEMSLDIXZW1FAIHVWXYO","","382","img/food6.png","74","382","1","1","false","2","2","1,0.5,0,1,0.5,0,0.5,0,1","1,0.5,0,1,0.5,0,0.5,0,1","1",""
"","html-keyboard-response","102","71128","0.0-151.0","3ZAK8W07I50RUDTRWMI2EZDIJB7U0A","A3R5OJR60C6004","3HUR21WDDUBEMSLDIXZW1FAIHVWXYO","","null","<img src=""img/food6.png"" style=""width:200px; border:14px solid green;"">","null","","","","","","","","","",""
"","image-keyboard-response","103","71432","0.0-153.0","3ZAK8W07I50RUDTRWMI2EZDIJB7U0A","A3R5OJR60C6004","3HUR21WDDUBEMSLDIXZW1FAIHVWXYO","","302","img/food6.png","74","303","1","1","false","2","2","1,0.5,0,1,0.5,0,0.5,0,1","1,0.5,0,1,0.5,0,0.5,0,1","1",""
"","html-keyboard-response","104","71743","0.0-154.0","3ZAK8W07I50RUDTRWMI2EZDIJB7U0A","A3R5OJR60C6004","3HUR21WDDUBEMSLDIXZW1FAIHVWXYO","","null","<img src=""img/food6.png"" style=""width:200px; border:14px solid green;"">","null","","","","","","","","","",""
"","image-keyboard-response","105","72222","0.0-156.0","3ZAK8W07I50RUDTRWMI2EZDIJB7U0A","A3R5OJR60C6004","3HUR21WDDUBEMSLDIXZW1FAIHVWXYO","","479","img/food2.png","75","479","2","0","false","1","2","1,0.5,0,1,0.5,0,0.5,0,1","1,0.5,0,1,0.5,0,0.5,0,1","1",""
"","html-keyboard-response","106","72532","0.0-157.0","3ZAK8W07I50RUDTRWMI2EZDIJB7U0A","A3R5OJR60C6004","3HUR21WDDUBEMSLDIXZW1FAIHVWXYO","","null","<img src=""img/food2.png"" style=""width:200px;border:14px solid red;"">","null","","","","","","","","","",""
"","image-keyboard-response","107","72761","0.0-159.0","3ZAK8W07I50RUDTRWMI2EZDIJB7U0A","A3R5OJR60C6004","3HUR21WDDUBEMSLDIXZW1FAIHVWXYO","","226","img/food3.png","74","227","1","1","false","3","2","1,0.5,0,1,0.5,0,0.5,0,1","1,0.5,0,1,0.5,0,0.5,0,1","1",""
"","html-keyboard-response","108","73064","0.0-160.0","3ZAK8W07I50RUDTRWMI2EZDIJB7U0A","A3R5OJR60C6004","3HUR21WDDUBEMSLDIXZW1FAIHVWXYO","","null","<img src=""img/food3.png"" style=""width:200px; border:14px solid green;"">","null","","","","","","","","","",""
"","image-keyboard-response","109","73304","0.0-162.0","3ZAK8W07I50RUDTRWMI2EZDIJB7U0A","A3R5OJR60C6004","3HUR21WDDUBEMSLDIXZW1FAIHVWXYO","","239","img/food6.png","74","239","1","1","false","2","2","1,0.5,0,1,0.5,0,0.5,0,1","1,0.5,0,1,0.5,0,0.5,0,1","1",""
"","html-keyboard-response","110","73619","0.0-163.0","3ZAK8W07I50RUDTRWMI2EZDIJB7U0A","A3R5OJR60C6004","3HUR21WDDUBEMSLDIXZW1FAIHVWXYO","","null","<img src=""img/food6.png"" style=""width:200px; border:14px solid green;"">","null","","","","","","","","","",""
"","image-keyboard-response","111","73920","0.0-165.0","3ZAK8W07I50RUDTRWMI2EZDIJB7U0A","A3R5OJR60C6004","3HUR21WDDUBEMSLDIXZW1FAIHVWXYO","","299","img/food6.png","74","300","1","1","false","2","2","1,0.5,0,1,0.5,0,0.5,0,1","1,0.5,0,1,0.5,0,0.5,0,1","1",""
"","html-keyboard-response","112","74229","0.0-166.0","3ZAK8W07I50RUDTRWMI2EZDIJB7U0A","A3R5OJR60C6004","3HUR21WDDUBEMSLDIXZW1FAIHVWXYO","","null","<img src=""img/food6.png"" style=""width:200px; border:14px solid green;"">","null","","","","","","","","","",""
"","image-keyboard-response","113","74720","0.0-168.0","3ZAK8W07I50RUDTRWMI2EZDIJB7U0A","A3R5OJR60C6004","3HUR21WDDUBEMSLDIXZW1FAIHVWXYO","","490","img/food3.png","74","490","1","1","false","3","2","1,0.5,0,1,0.5,0,0.5,0,1","1,0.5,0,1,0.5,0,0.5,0,1","1",""
"","html-keyboard-response","114","75028","0.0-169.0","3ZAK8W07I50RUDTRWMI2EZDIJB7U0A","A3R5OJR60C6004","3HUR21WDDUBEMSLDIXZW1FAIHVWXYO","","null","<img src=""img/food3.png"" style=""width:200px; border:14px solid green;"">","null","","","","","","","","","",""
"","image-keyboard-response","115","75320","0.0-171.0","3ZAK8W07I50RUDTRWMI2EZDIJB7U0A","A3R5OJR60C6004","3HUR21WDDUBEMSLDIXZW1FAIHVWXYO","","290","img/food3.png","74","292","1","1","false","3","2","1,0.5,0,1,0.5,0,0.5,0,1","1,0.5,0,1,0.5,0,0.5,0,1","1",""
"","html-keyboard-response","116","75628","0.0-172.0","3ZAK8W07I50RUDTRWMI2EZDIJB7U0A","A3R5OJR60C6004","3HUR21WDDUBEMSLDIXZW1FAIHVWXYO","","null","<img src=""img/food3.png"" style=""width:200px; border:14px solid green;"">","null","","","","","","","","","",""
"","image-keyboard-response","117","76254","0.0-174.0","3ZAK8W07I50RUDTRWMI2EZDIJB7U0A","A3R5OJR60C6004","3HUR21WDDUBEMSLDIXZW1FAIHVWXYO","","625","img/food2.png","74","625","1","1","false","1","2","1,0.5,0,1,0.5,0,0.5,0,1","1,0.5,0,1,0.5,0,0.5,0,1","1",""
"","html-keyboard-response","118","76561","0.0-175.0","3ZAK8W07I50RUDTRWMI2EZDIJB7U0A","A3R5OJR60C6004","3HUR21WDDUBEMSLDIXZW1FAIHVWXYO","","null","<img src=""img/food2.png"" style=""width:200px; border:14px solid green;"">","null","","","","","","","","","",""
"","image-keyboard-response","119","76863","0.0-177.0","3ZAK8W07I50RUDTRWMI2EZDIJB7U0A","A3R5OJR60C6004","3HUR21WDDUBEMSLDIXZW1FAIHVWXYO","","300","img/food2.png","74","301","1","1","false","1","2","1,0.5,0,1,0.5,0,0.5,0,1","1,0.5,0,1,0.5,0,0.5,0,1","1",""
"","html-keyboard-response","120","77167","0.0-178.0","3ZAK8W07I50RUDTRWMI2EZDIJB7U0A","A3R5OJR60C6004","3HUR21WDDUBEMSLDIXZW1FAIHVWXYO","","null","<img src=""img/food2.png"" style=""width:200px; border:14px solid green;"">","null","","","","","","","","","",""
"","image-keyboard-response","121","77487","0.0-180.0","3ZAK8W07I50RUDTRWMI2EZDIJB7U0A","A3R5OJR60C6004","3HUR21WDDUBEMSLDIXZW1FAIHVWXYO","","320","img/food3.png","74","320","1","0","false","3","2","1,0.5,0,1,0.5,0,0.5,0,1","1,0.5,0,1,0.5,0,0.5,0,1","1",""
"","html-keyboard-response","122","77788","0.0-181.0","3ZAK8W07I50RUDTRWMI2EZDIJB7U0A","A3R5OJR60C6004","3HUR21WDDUBEMSLDIXZW1FAIHVWXYO","","null","<img src=""img/food3.png"" style=""width:200px;border:14px solid red;"">","null","","","","","","","","","",""
"","image-keyboard-response","123","78232","0.0-183.0","3ZAK8W07I50RUDTRWMI2EZDIJB7U0A","A3R5OJR60C6004","3HUR21WDDUBEMSLDIXZW1FAIHVWXYO","","443","img/food3.png","74","443","1","0","false","3","2","1,0.5,0,1,0.5,0,0.5,0,1","1,0.5,0,1,0.5,0,0.5,0,1","1",""
"","html-keyboard-response","124","78546","0.0-184.0","3ZAK8W07I50RUDTRWMI2EZDIJB7U0A","A3R5OJR60C6004","3HUR21WDDUBEMSLDIXZW1FAIHVWXYO","","null","<img src=""img/food3.png"" style=""width:200px;border:14px solid red;"">","null","","","","","","","","","",""
"","image-keyboard-response","125","78984","0.0-186.0","3ZAK8W07I50RUDTRWMI2EZDIJB7U0A","A3R5OJR60C6004","3HUR21WDDUBEMSLDIXZW1FAIHVWXYO","","437","img/food6.png","74","438","1","1","false","2","2","1,0.5,0,1,0.5,0,0.5,0,1","1,0.5,0,1,0.5,0,0.5,0,1","1",""
"","html-keyboard-response","126","79295","0.0-187.0","3ZAK8W07I50RUDTRWMI2EZDIJB7U0A","A3R5OJR60C6004","3HUR21WDDUBEMSLDIXZW1FAIHVWXYO","","null","<img src=""img/food6.png"" style=""width:200px; border:14px solid green;"">","null","","","","","","","","","",""
"","image-keyboard-response","127","79632","0.0-189.0","3ZAK8W07I50RUDTRWMI2EZDIJB7U0A","A3R5OJR60C6004","3HUR21WDDUBEMSLDIXZW1FAIHVWXYO","","336","img/food2.png","74","336","1","1","false","1","2","1,0.5,0,1,0.5,0,0.5,0,1","1,0.5,0,1,0.5,0,0.5,0,1","1",""
"","html-keyboard-response","128","79944","0.0-190.0","3ZAK8W07I50RUDTRWMI2EZDIJB7U0A","A3R5OJR60C6004","3HUR21WDDUBEMSLDIXZW1FAIHVWXYO","","null","<img src=""img/food2.png"" style=""width:200px; border:14px solid green;"">","null","","","","","","","","","",""
"","image-keyboard-response","129","80112","0.0-192.0","3ZAK8W07I50RUDTRWMI2EZDIJB7U0A","A3R5OJR60C6004","3HUR21WDDUBEMSLDIXZW1FAIHVWXYO","","167","img/food3.png","74","168","1","1","false","3","2","1,0.5,0,1,0.5,0,0.5,0,1","1,0.5,0,1,0.5,0,0.5,0,1","1",""
"","html-keyboard-response","130","80424","0.0-193.0","3ZAK8W07I50RUDTRWMI2EZDIJB7U0A","A3R5OJR60C6004","3HUR21WDDUBEMSLDIXZW1FAIHVWXYO","","null","<img src=""img/food3.png"" style=""width:200px; border:14px solid green;"">","null","","","","","","","","","",""
"","image-keyboard-response","131","80870","0.0-195.0","3ZAK8W07I50RUDTRWMI2EZDIJB7U0A","A3R5OJR60C6004","3HUR21WDDUBEMSLDIXZW1FAIHVWXYO","","445","img/food6.png","74","445","1","1","false","2","2","1,0.5,0,1,0.5,0,0.5,0,1","1,0.5,0,1,0.5,0,0.5,0,1","1",""
"","html-keyboard-response","132","81174","0.0-196.0","3ZAK8W07I50RUDTRWMI2EZDIJB7U0A","A3R5OJR60C6004","3HUR21WDDUBEMSLDIXZW1FAIHVWXYO","","null","<img src=""img/food6.png"" style=""width:200px; border:14px solid green;"">","null","","","","","","","","","",""
"","image-keyboard-response","133","81432","0.0-198.0","3ZAK8W07I50RUDTRWMI2EZDIJB7U0A","A3R5OJR60C6004","3HUR21WDDUBEMSLDIXZW1FAIHVWXYO","","257","img/food6.png","74","258","1","1","false","2","2","1,0.5,0,1,0.5,0,0.5,0,1","1,0.5,0,1,0.5,0,0.5,0,1","1",""
"","html-keyboard-response","134","81742","0.0-199.0","3ZAK8W07I50RUDTRWMI2EZDIJB7U0A","A3R5OJR60C6004","3HUR21WDDUBEMSLDIXZW1FAIHVWXYO","","null","<img src=""img/food6.png"" style=""width:200px; border:14px solid green;"">","null","","","","","","","","","",""
"","image-keyboard-response","135","82150","0.0-201.0","3ZAK8W07I50RUDTRWMI2EZDIJB7U0A","A3R5OJR60C6004","3HUR21WDDUBEMSLDIXZW1FAIHVWXYO","","408","img/food2.png","74","408","1","1","false","1","2","1,0.5,0,1,0.5,0,0.5,0,1","1,0.5,0,1,0.5,0,0.5,0,1","1",""
"","html-keyboard-response","136","82461","0.0-202.0","3ZAK8W07I50RUDTRWMI2EZDIJB7U0A","A3R5OJR60C6004","3HUR21WDDUBEMSLDIXZW1FAIHVWXYO","","null","<img src=""img/food2.png"" style=""width:200px; border:14px solid green;"">","null","","","","","","","","","",""
"","image-keyboard-response","137","82750","0.0-204.0","3ZAK8W07I50RUDTRWMI2EZDIJB7U0A","A3R5OJR60C6004","3HUR21WDDUBEMSLDIXZW1FAIHVWXYO","","288","img/food3.png","74","289","1","1","false","3","2","1,0.5,0,1,0.5,0,0.5,0,1","1,0.5,0,1,0.5,0,0.5,0,1","1",""
"","html-keyboard-response","138","83065","0.0-205.0","3ZAK8W07I50RUDTRWMI2EZDIJB7U0A","A3R5OJR60C6004","3HUR21WDDUBEMSLDIXZW1FAIHVWXYO","","null","<img src=""img/food3.png"" style=""width:200px; border:14px solid green;"">","null","","","","","","","","","",""
"","image-keyboard-response","139","83584","0.0-207.0","3ZAK8W07I50RUDTRWMI2EZDIJB7U0A","A3R5OJR60C6004","3HUR21WDDUBEMSLDIXZW1FAIHVWXYO","","518","img/food6.png","75","519","2","1","false","2","2","1,0.5,0,1,0.5,0,0.5,0,1","1,0.5,0,1,0.5,0,0.5,0,1","1",""
"","html-keyboard-response","140","83898","0.0-208.0","3ZAK8W07I50RUDTRWMI2EZDIJB7U0A","A3R5OJR60C6004","3HUR21WDDUBEMSLDIXZW1FAIHVWXYO","","null","<img src=""img/food6.png"" style=""width:200px; border:14px solid green;"">","null","","","","","","","","","",""
"","image-keyboard-response","141","84160","0.0-210.0","3ZAK8W07I50RUDTRWMI2EZDIJB7U0A","A3R5OJR60C6004","3HUR21WDDUBEMSLDIXZW1FAIHVWXYO","","262","img/food6.png","75","262","2","0","false","2","2","1,0.5,0,1,0.5,0,0.5,0,1","1,0.5,0,1,0.5,0,0.5,0,1","1",""
"","html-keyboard-response","142","84466","0.0-211.0","3ZAK8W07I50RUDTRWMI2EZDIJB7U0A","A3R5OJR60C6004","3HUR21WDDUBEMSLDIXZW1FAIHVWXYO","","null","<img src=""img/food6.png"" style=""width:200px;border:14px solid red;"">","null","","","","","","","","","",""
"","image-keyboard-response","143","84838","0.0-213.0","3ZAK8W07I50RUDTRWMI2EZDIJB7U0A","A3R5OJR60C6004","3HUR21WDDUBEMSLDIXZW1FAIHVWXYO","","371","img/food2.png","74","371","1","1","false","1","2","1,0.5,0,1,0.5,0,0.5,0,1","1,0.5,0,1,0.5,0,0.5,0,1","1",""
"","html-keyboard-response","144","85154","0.0-214.0","3ZAK8W07I50RUDTRWMI2EZDIJB7U0A","A3R5OJR60C6004","3HUR21WDDUBEMSLDIXZW1FAIHVWXYO","","null","<img src=""img/food2.png"" style=""width:200px; border:14px solid green;"">","null","","","","","","","","","",""
"","image-keyboard-response","145","85416","0.0-216.0","3ZAK8W07I50RUDTRWMI2EZDIJB7U0A","A3R5OJR60C6004","3HUR21WDDUBEMSLDIXZW1FAIHVWXYO","","259","img/food2.png","74","261","1","1","false","1","2","1,0.5,0,1,0.5,0,0.5,0,1","1,0.5,0,1,0.5,0,0.5,0,1","1",""
"","html-keyboard-response","146","85727","0.0-217.0","3ZAK8W07I50RUDTRWMI2EZDIJB7U0A","A3R5OJR60C6004","3HUR21WDDUBEMSLDIXZW1FAIHVWXYO","","null","<img src=""img/food2.png"" style=""width:200px; border:14px solid green;"">","null","","","","","","","","","",""
"","image-keyboard-response","147","86039","0.0-219.0","3ZAK8W07I50RUDTRWMI2EZDIJB7U0A","A3R5OJR60C6004","3HUR21WDDUBEMSLDIXZW1FAIHVWXYO","","311","img/food3.png","74","312","1","0","false","3","2","1,0.5,0,1,0.5,0,0.5,0,1","1,0.5,0,1,0.5,0,0.5,0,1","1",""
"","html-keyboard-response","148","86340","0.0-220.0","3ZAK8W07I50RUDTRWMI2EZDIJB7U0A","A3R5OJR60C6004","3HUR21WDDUBEMSLDIXZW1FAIHVWXYO","","null","<img src=""img/food3.png"" style=""width:200px;border:14px solid red;"">","null","","","","","","","","","",""
"","image-keyboard-response","149","86760","0.0-222.0","3ZAK8W07I50RUDTRWMI2EZDIJB7U0A","A3R5OJR60C6004","3HUR21WDDUBEMSLDIXZW1FAIHVWXYO","","419","img/food2.png","74","419","1","1","false","1","2","1,0.5,0,1,0.5,0,0.5,0,1","1,0.5,0,1,0.5,0,0.5,0,1","1",""
"","html-keyboard-response","150","87069","0.0-223.0","3ZAK8W07I50RUDTRWMI2EZDIJB7U0A","A3R5OJR60C6004","3HUR21WDDUBEMSLDIXZW1FAIHVWXYO","","null","<img src=""img/food2.png"" style=""width:200px; border:14px solid green;"">","null","","","","","","","","","",""
"","image-keyboard-response","151","87312","0.0-225.0","3ZAK8W07I50RUDTRWMI2EZDIJB7U0A","A3R5OJR60C6004","3HUR21WDDUBEMSLDIXZW1FAIHVWXYO","","241","img/food3.png","74","242","1","0","false","3","2","1,0.5,0,1,0.5,0,0.5,0,1","1,0.5,0,1,0.5,0,0.5,0,1","1",""
"","html-keyboard-response","152","87633","0.0-226.0","3ZAK8W07I50RUDTRWMI2EZDIJB7U0A","A3R5OJR60C6004","3HUR21WDDUBEMSLDIXZW1FAIHVWXYO","","null","<img src=""img/food3.png"" style=""width:200px;border:14px solid red;"">","null","","","","","","","","","",""
"","image-keyboard-response","153","87920","0.0-228.0","3ZAK8W07I50RUDTRWMI2EZDIJB7U0A","A3R5OJR60C6004","3HUR21WDDUBEMSLDIXZW1FAIHVWXYO","","284","img/food6.png","74","285","1","1","false","2","2","1,0.5,0,1,0.5,0,0.5,0,1","1,0.5,0,1,0.5,0,0.5,0,1","1",""
"","html-keyboard-response","154","88232","0.0-229.0","3ZAK8W07I50RUDTRWMI2EZDIJB7U0A","A3R5OJR60C6004","3HUR21WDDUBEMSLDIXZW1FAIHVWXYO","","null","<img src=""img/food6.png"" style=""width:200px; border:14px solid green;"">","null","","","","","","","","","",""
"","image-keyboard-response","155","88462","0.0-231.0","3ZAK8W07I50RUDTRWMI2EZDIJB7U0A","A3R5OJR60C6004","3HUR21WDDUBEMSLDIXZW1FAIHVWXYO","","228","img/food6.png","74","229","1","1","false","2","2","1,0.5,0,1,0.5,0,0.5,0,1","1,0.5,0,1,0.5,0,0.5,0,1","1",""
"","html-keyboard-response","156","88767","0.0-232.0","3ZAK8W07I50RUDTRWMI2EZDIJB7U0A","A3R5OJR60C6004","3HUR21WDDUBEMSLDIXZW1FAIHVWXYO","","null","<img src=""img/food6.png"" style=""width:200px; border:14px solid green;"">","null","","","","","","","","","",""
"","image-keyboard-response","157","89016","0.0-234.0","3ZAK8W07I50RUDTRWMI2EZDIJB7U0A","A3R5OJR60C6004","3HUR21WDDUBEMSLDIXZW1FAIHVWXYO","","248","img/food2.png","74","249","1","1","false","1","2","1,0.5,0,1,0.5,0,0.5,0,1","1,0.5,0,1,0.5,0,0.5,0,1","1",""
"","html-keyboard-response","158","89323","0.0-235.0","3ZAK8W07I50RUDTRWMI2EZDIJB7U0A","A3R5OJR60C6004","3HUR21WDDUBEMSLDIXZW1FAIHVWXYO","","null","<img src=""img/food2.png"" style=""width:200px; border:14px solid green;"">","null","","","","","","","","","",""
"","image-keyboard-response","159","89536","0.0-237.0","3ZAK8W07I50RUDTRWMI2EZDIJB7U0A","A3R5OJR60C6004","3HUR21WDDUBEMSLDIXZW1FAIHVWXYO","","209","img/food6.png","74","210","1","1","false","2","2","1,0.5,0,1,0.5,0,0.5,0,1","1,0.5,0,1,0.5,0,0.5,0,1","1",""
"","html-keyboard-response","160","89837","0.0-238.0","3ZAK8W07I50RUDTRWMI2EZDIJB7U0A","A3R5OJR60C6004","3HUR21WDDUBEMSLDIXZW1FAIHVWXYO","","null","<img src=""img/food6.png"" style=""width:200px; border:14px solid green;"">","null","","","","","","","","","",""
"","image-keyboard-response","161","90128","0.0-240.0","3ZAK8W07I50RUDTRWMI2EZDIJB7U0A","A3R5OJR60C6004","3HUR21WDDUBEMSLDIXZW1FAIHVWXYO","","290","img/food6.png","74","290","1","1","false","2","2","1,0.5,0,1,0.5,0,0.5,0,1","1,0.5,0,1,0.5,0,0.5,0,1","1",""
"","html-keyboard-response","162","90432","0.0-241.0","3ZAK8W07I50RUDTRWMI2EZDIJB7U0A","A3R5OJR60C6004","3HUR21WDDUBEMSLDIXZW1FAIHVWXYO","","null","<img src=""img/food6.png"" style=""width:200px; border:14px solid green;"">","null","","","","","","","","","",""
"","image-keyboard-response","163","90702","0.0-243.0","3ZAK8W07I50RUDTRWMI2EZDIJB7U0A","A3R5OJR60C6004","3HUR21WDDUBEMSLDIXZW1FAIHVWXYO","","268","img/food6.png","74","269","1","1","false","2","2","1,0.5,0,1,0.5,0,0.5,0,1","1,0.5,0,1,0.5,0,0.5,0,1","1",""
"","html-keyboard-response","164","91010","0.0-244.0","3ZAK8W07I50RUDTRWMI2EZDIJB7U0A","A3R5OJR60C6004","3HUR21WDDUBEMSLDIXZW1FAIHVWXYO","","null","<img src=""img/food6.png"" style=""width:200px; border:14px solid green;"">","null","","","","","","","","","",""
"","image-keyboard-response","165","91248","0.0-246.0","3ZAK8W07I50RUDTRWMI2EZDIJB7U0A","A3R5OJR60C6004","3HUR21WDDUBEMSLDIXZW1FAIHVWXYO","","236","img/food2.png","74","237","1","1","false","1","2","1,0.5,0,1,0.5,0,0.5,0,1","1,0.5,0,1,0.5,0,0.5,0,1","1",""
"","html-keyboard-response","166","91555","0.0-247.0","3ZAK8W07I50RUDTRWMI2EZDIJB7U0A","A3R5OJR60C6004","3HUR21WDDUBEMSLDIXZW1FAIHVWXYO","","null","<img src=""img/food2.png"" style=""width:200px; border:14px solid green;"">","null","","","","","","","","","",""
"","image-keyboard-response","167","91784","0.0-249.0","3ZAK8W07I50RUDTRWMI2EZDIJB7U0A","A3R5OJR60C6004","3HUR21WDDUBEMSLDIXZW1FAIHVWXYO","","227","img/food2.png","74","229","1","1","false","1","2","1,0.5,0,1,0.5,0,0.5,0,1","1,0.5,0,1,0.5,0,0.5,0,1","1",""
"","html-keyboard-response","168","92093","0.0-250.0","3ZAK8W07I50RUDTRWMI2EZDIJB7U0A","A3R5OJR60C6004","3HUR21WDDUBEMSLDIXZW1FAIHVWXYO","","null","<img src=""img/food2.png"" style=""width:200px; border:14px solid green;"">","null","","","","","","","","","",""
"","image-keyboard-response","169","92301","0.0-252.0","3ZAK8W07I50RUDTRWMI2EZDIJB7U0A","A3R5OJR60C6004","3HUR21WDDUBEMSLDIXZW1FAIHVWXYO","","206","img/food3.png","74","207","1","1","false","3","2","1,0.5,0,1,0.5,0,0.5,0,1","1,0.5,0,1,0.5,0,0.5,0,1","1",""
"","html-keyboard-response","170","92612","0.0-253.0","3ZAK8W07I50RUDTRWMI2EZDIJB7U0A","A3R5OJR60C6004","3HUR21WDDUBEMSLDIXZW1FAIHVWXYO","","null","<img src=""img/food3.png"" style=""width:200px; border:14px solid green;"">","null","","","","","","","","","",""
"","image-keyboard-response","171","92816","0.0-255.0","3ZAK8W07I50RUDTRWMI2EZDIJB7U0A","A3R5OJR60C6004","3HUR21WDDUBEMSLDIXZW1FAIHVWXYO","","202","img/food2.png","74","203","1","1","false","1","2","1,0.5,0,1,0.5,0,0.5,0,1","1,0.5,0,1,0.5,0,0.5,0,1","1",""
"","html-keyboard-response","172","93123","0.0-256.0","3ZAK8W07I50RUDTRWMI2EZDIJB7U0A","A3R5OJR60C6004","3HUR21WDDUBEMSLDIXZW1FAIHVWXYO","","null","<img src=""img/food2.png"" style=""width:200px; border:14px solid green;"">","null","","","","","","","","","",""
"","image-keyboard-response","173","93337","0.0-258.0","3ZAK8W07I50RUDTRWMI2EZDIJB7U0A","A3R5OJR60C6004","3HUR21WDDUBEMSLDIXZW1FAIHVWXYO","","212","img/food2.png","74","213","1","1","false","1","2","1,0.5,0,1,0.5,0,0.5,0,1","1,0.5,0,1,0.5,0,0.5,0,1","1",""
"","html-keyboard-response","174","93647","0.0-259.0","3ZAK8W07I50RUDTRWMI2EZDIJB7U0A","A3R5OJR60C6004","3HUR21WDDUBEMSLDIXZW1FAIHVWXYO","","null","<img src=""img/food2.png"" style=""width:200px; border:14px solid green;"">","null","","","","","","","","","",""
"","image-keyboard-response","175","93848","0.0-261.0","3ZAK8W07I50RUDTRWMI2EZDIJB7U0A","A3R5OJR60C6004","3HUR21WDDUBEMSLDIXZW1FAIHVWXYO","","199","img/food6.png","74","200","1","1","false","2","2","1,0.5,0,1,0.5,0,0.5,0,1","1,0.5,0,1,0.5,0,0.5,0,1","1",""
"","html-keyboard-response","176","94161","0.0-262.0","3ZAK8W07I50RUDTRWMI2EZDIJB7U0A","A3R5OJR60C6004","3HUR21WDDUBEMSLDIXZW1FAIHVWXYO","","null","<img src=""img/food6.png"" style=""width:200px; border:14px solid green;"">","null","","","","","","","","","",""
"","image-keyboard-response","177","94344","0.0-264.0","3ZAK8W07I50RUDTRWMI2EZDIJB7U0A","A3R5OJR60C6004","3HUR21WDDUBEMSLDIXZW1FAIHVWXYO","","181","img/food3.png","74","182","1","0","false","3","2","1,0.5,0,1,0.5,0,0.5,0,1","1,0.5,0,1,0.5,0,0.5,0,1","1",""
"","html-keyboard-response","178","94647","0.0-265.0","3ZAK8W07I50RUDTRWMI2EZDIJB7U0A","A3R5OJR60C6004","3HUR21WDDUBEMSLDIXZW1FAIHVWXYO","","null","<img src=""img/food3.png"" style=""width:200px;border:14px solid red;"">","null","","","","","","","","","",""
"","image-keyboard-response","179","95062","0.0-267.0","3ZAK8W07I50RUDTRWMI2EZDIJB7U0A","A3R5OJR60C6004","3HUR21WDDUBEMSLDIXZW1FAIHVWXYO","","414","img/food6.png","75","414","2","0","false","2","2","1,0.5,0,1,0.5,0,0.5,0,1","1,0.5,0,1,0.5,0,0.5,0,1","1",""
"","html-keyboard-response","180","95366","0.0-268.0","3ZAK8W07I50RUDTRWMI2EZDIJB7U0A","A3R5OJR60C6004","3HUR21WDDUBEMSLDIXZW1FAIHVWXYO","","null","<img src=""img/food6.png"" style=""width:200px;border:14px solid red;"">","null","","","","","","","","","",""
"","image-keyboard-response","181","95824","0.0-270.0","3ZAK8W07I50RUDTRWMI2EZDIJB7U0A","A3R5OJR60C6004","3HUR21WDDUBEMSLDIXZW1FAIHVWXYO","","456","img/food2.png","74","457","1","1","false","1","2","1,0.5,0,1,0.5,0,0.5,0,1","1,0.5,0,1,0.5,0,0.5,0,1","1",""
"","html-keyboard-response","182","96140","0.0-271.0","3ZAK8W07I50RUDTRWMI2EZDIJB7U0A","A3R5OJR60C6004","3HUR21WDDUBEMSLDIXZW1FAIHVWXYO","","null","<img src=""img/food2.png"" style=""width:200px; border:14px solid green;"">","null","","","","","","","","","",""
"","instructions","183","101610","0.0-273.0","3ZAK8W07I50RUDTRWMI2EZDIJB7U0A","A3R5OJR60C6004","3HUR21WDDUBEMSLDIXZW1FAIHVWXYO","[{""page_index"":0,""viewing_time"":4420},{""page_index"":1,""viewing_time"":1050}]","5470","","","","","","","","","","","",""
"","image-keyboard-response","184","101992","0.0-274.0","3ZAK8W07I50RUDTRWMI2EZDIJB7U0A","A3R5OJR60C6004","3HUR21WDDUBEMSLDIXZW1FAIHVWXYO","","381","img/food5.png","74","382","1","1","","2","1","1,0.5,0,1,0.5,0,0.5,0,1","0.5,0,1,0.5,0,1,0,1,0.5","2",""
"","html-keyboard-response","185","102333","0.0-275.0","3ZAK8W07I50RUDTRWMI2EZDIJB7U0A","A3R5OJR60C6004","3HUR21WDDUBEMSLDIXZW1FAIHVWXYO","","null","<img src=""img/food5.png"" style=""width:200px; border:14px solid green;"">","null","","","","","","","","","",""
"","image-keyboard-response","186","102600","0.0-276.0","3ZAK8W07I50RUDTRWMI2EZDIJB7U0A","A3R5OJR60C6004","3HUR21WDDUBEMSLDIXZW1FAIHVWXYO","","266","img/food5.png","74","267","1","0","","2","1","1,0.5,0,1,0.5,0,0.5,0,1","0.5,0,1,0.5,0,1,0,1,0.5","2",""
"","html-keyboard-response","187","102913","0.0-277.0","3ZAK8W07I50RUDTRWMI2EZDIJB7U0A","A3R5OJR60C6004","3HUR21WDDUBEMSLDIXZW1FAIHVWXYO","","null","<img src=""img/food5.png"" style=""width:200px;border:14px solid red;"">","null","","","","","","","","","",""
"","image-keyboard-response","188","103568","0.0-278.0","3ZAK8W07I50RUDTRWMI2EZDIJB7U0A","A3R5OJR60C6004","3HUR21WDDUBEMSLDIXZW1FAIHVWXYO","","655","img/food1.png","75","655","2","1","","3","1","1,0.5,0,1,0.5,0,0.5,0,1","0.5,0,1,0.5,0,1,0,1,0.5","2",""
"","html-keyboard-response","189","103883","0.0-279.0","3ZAK8W07I50RUDTRWMI2EZDIJB7U0A","A3R5OJR60C6004","3HUR21WDDUBEMSLDIXZW1FAIHVWXYO","","null","<img src=""img/food1.png"" style=""width:200px; border:14px solid green;"">","null","","","","","","","","","",""
"","image-keyboard-response","190","104534","0.0-280.0","3ZAK8W07I50RUDTRWMI2EZDIJB7U0A","A3R5OJR60C6004","3HUR21WDDUBEMSLDIXZW1FAIHVWXYO","","651","img/food5.png","75","652","2","0","","2","1","1,0.5,0,1,0.5,0,0.5,0,1","0.5,0,1,0.5,0,1,0,1,0.5","2",""
"","html-keyboard-response","191","104847","0.0-281.0","3ZAK8W07I50RUDTRWMI2EZDIJB7U0A","A3R5OJR60C6004","3HUR21WDDUBEMSLDIXZW1FAIHVWXYO","","null","<img src=""img/food5.png"" style=""width:200px;border:14px solid red;"">","null","","","","","","","","","",""
"","image-keyboard-response","192","105096","0.0-282.0","3ZAK8W07I50RUDTRWMI2EZDIJB7U0A","A3R5OJR60C6004","3HUR21WDDUBEMSLDIXZW1FAIHVWXYO","","248","img/food4.png","74","248","1","0","","1","1","1,0.5,0,1,0.5,0,0.5,0,1","0.5,0,1,0.5,0,1,0,1,0.5","2",""
"","html-keyboard-response","193","105411","0.0-283.0","3ZAK8W07I50RUDTRWMI2EZDIJB7U0A","A3R5OJR60C6004","3HUR21WDDUBEMSLDIXZW1FAIHVWXYO","","null","<img src=""img/food4.png"" style=""width:200px;border:14px solid red;"">","null","","","","","","","","","",""
"","image-keyboard-response","194","106070","0.0-284.0","3ZAK8W07I50RUDTRWMI2EZDIJB7U0A","A3R5OJR60C6004","3HUR21WDDUBEMSLDIXZW1FAIHVWXYO","","657","img/food4.png","76","658","3","1","","1","1","1,0.5,0,1,0.5,0,0.5,0,1","0.5,0,1,0.5,0,1,0,1,0.5","2",""
"","html-keyboard-response","195","106371","0.0-285.0","3ZAK8W07I50RUDTRWMI2EZDIJB7U0A","A3R5OJR60C6004","3HUR21WDDUBEMSLDIXZW1FAIHVWXYO","","null","<img src=""img/food4.png"" style=""width:200px; border:14px solid green;"">","null","","","","","","","","","",""
"","image-keyboard-response","196","107018","0.0-286.0","3ZAK8W07I50RUDTRWMI2EZDIJB7U0A","A3R5OJR60C6004","3HUR21WDDUBEMSLDIXZW1FAIHVWXYO","","645","img/food5.png","75","647","2","0","","2","1","1,0.5,0,1,0.5,0,0.5,0,1","0.5,0,1,0.5,0,1,0,1,0.5","2",""
"","html-keyboard-response","197","107327","0.0-287.0","3ZAK8W07I50RUDTRWMI2EZDIJB7U0A","A3R5OJR60C6004","3HUR21WDDUBEMSLDIXZW1FAIHVWXYO","","null","<img src=""img/food5.png"" style=""width:200px;border:14px solid red;"">","null","","","","","","","","","",""
"","image-keyboard-response","198","107950","0.0-288.0","3ZAK8W07I50RUDTRWMI2EZDIJB7U0A","A3R5OJR60C6004","3HUR21WDDUBEMSLDIXZW1FAIHVWXYO","","622","img/food5.png","74","624","1","0","","2","1","1,0.5,0,1,0.5,0,0.5,0,1","0.5,0,1,0.5,0,1,0,1,0.5","2",""
"","html-keyboard-response","199","108253","0.0-289.0","3ZAK8W07I50RUDTRWMI2EZDIJB7U0A","A3R5OJR60C6004","3HUR21WDDUBEMSLDIXZW1FAIHVWXYO","","null","<img src=""img/food5.png"" style=""width:200px;border:14px solid red;"">","null","","","","","","","","","",""
"","image-keyboard-response","200","108720","0.0-290.0","3ZAK8W07I50RUDTRWMI2EZDIJB7U0A","A3R5OJR60C6004","3HUR21WDDUBEMSLDIXZW1FAIHVWXYO","","466","img/food4.png","74","467","1","0","","1","1","1,0.5,0,1,0.5,0,0.5,0,1","0.5,0,1,0.5,0,1,0,1,0.5","2",""
"","html-keyboard-response","201","109024","0.0-291.0","3ZAK8W07I50RUDTRWMI2EZDIJB7U0A","A3R5OJR60C6004","3HUR21WDDUBEMSLDIXZW1FAIHVWXYO","","null","<img src=""img/food4.png"" style=""width:200px;border:14px solid red;"">","null","","","","","","","","","",""
"","image-keyboard-response","202","109464","0.0-292.0","3ZAK8W07I50RUDTRWMI2EZDIJB7U0A","A3R5OJR60C6004","3HUR21WDDUBEMSLDIXZW1FAIHVWXYO","","438","img/food5.png","75","439","2","0","","2","1","1,0.5,0,1,0.5,0,0.5,0,1","0.5,0,1,0.5,0,1,0,1,0.5","2",""
"","html-keyboard-response","203","109778","0.0-293.0","3ZAK8W07I50RUDTRWMI2EZDIJB7U0A","A3R5OJR60C6004","3HUR21WDDUBEMSLDIXZW1FAIHVWXYO","","null","<img src=""img/food5.png"" style=""width:200px;border:14px solid red;"">","null","","","","","","","","","",""
"","image-keyboard-response","204","109991","0.0-294.0","3ZAK8W07I50RUDTRWMI2EZDIJB7U0A","A3R5OJR60C6004","3HUR21WDDUBEMSLDIXZW1FAIHVWXYO","","212","img/food5.png","75","212","2","0","","2","1","1,0.5,0,1,0.5,0,0.5,0,1","0.5,0,1,0.5,0,1,0,1,0.5","2",""
"","html-keyboard-response","205","110295","0.0-295.0","3ZAK8W07I50RUDTRWMI2EZDIJB7U0A","A3R5OJR60C6004","3HUR21WDDUBEMSLDIXZW1FAIHVWXYO","","null","<img src=""img/food5.png"" style=""width:200px;border:14px solid red;"">","null","","","","","","","","","",""
"","image-keyboard-response","206","110768","0.0-296.0","3ZAK8W07I50RUDTRWMI2EZDIJB7U0A","A3R5OJR60C6004","3HUR21WDDUBEMSLDIXZW1FAIHVWXYO","","472","img/food4.png","76","474","3","1","","1","1","1,0.5,0,1,0.5,0,0.5,0,1","0.5,0,1,0.5,0,1,0,1,0.5","2",""
"","html-keyboard-response","207","111080","0.0-297.0","3ZAK8W07I50RUDTRWMI2EZDIJB7U0A","A3R5OJR60C6004","3HUR21WDDUBEMSLDIXZW1FAIHVWXYO","","null","<img src=""img/food4.png"" style=""width:200px; border:14px solid green;"">","null","","","","","","","","","",""
"","image-keyboard-response","208","111334","0.0-298.0","3ZAK8W07I50RUDTRWMI2EZDIJB7U0A","A3R5OJR60C6004","3HUR21WDDUBEMSLDIXZW1FAIHVWXYO","","254","img/food5.png","76","254","3","1","","2","1","1,0.5,0,1,0.5,0,0.5,0,1","0.5,0,1,0.5,0,1,0,1,0.5","2",""
"","html-keyboard-response","209","111639","0.0-299.0","3ZAK8W07I50RUDTRWMI2EZDIJB7U0A","A3R5OJR60C6004","3HUR21WDDUBEMSLDIXZW1FAIHVWXYO","","null","<img src=""img/food5.png"" style=""width:200px; border:14px solid green;"">","null","","","","","","","","","",""
"","image-keyboard-response","210","111927","0.0-300.0","3ZAK8W07I50RUDTRWMI2EZDIJB7U0A","A3R5OJR60C6004","3HUR21WDDUBEMSLDIXZW1FAIHVWXYO","","286","img/food1.png","76","286","3","1","","3","1","1,0.5,0,1,0.5,0,0.5,0,1","0.5,0,1,0.5,0,1,0,1,0.5","2",""
"","html-keyboard-response","211","112234","0.0-301.0","3ZAK8W07I50RUDTRWMI2EZDIJB7U0A","A3R5OJR60C6004","3HUR21WDDUBEMSLDIXZW1FAIHVWXYO","","null","<img src=""img/food1.png"" style=""width:200px; border:14px solid green;"">","null","","","","","","","","","",""
"","image-keyboard-response","212","112488","0.0-302.0","3ZAK8W07I50RUDTRWMI2EZDIJB7U0A","A3R5OJR60C6004","3HUR21WDDUBEMSLDIXZW1FAIHVWXYO","","253","img/food1.png","76","253","3","0","","3","1","1,0.5,0,1,0.5,0,0.5,0,1","0.5,0,1,0.5,0,1,0,1,0.5","2",""
"","html-keyboard-response","213","112791","0.0-303.0","3ZAK8W07I50RUDTRWMI2EZDIJB7U0A","A3R5OJR60C6004","3HUR21WDDUBEMSLDIXZW1FAIHVWXYO","","null","<img src=""img/food1.png"" style=""width:200px;border:14px solid red;"">","null","","","","","","","","","",""
"","image-keyboard-response","214","113192","0.0-304.0","3ZAK8W07I50RUDTRWMI2EZDIJB7U0A","A3R5OJR60C6004","3HUR21WDDUBEMSLDIXZW1FAIHVWXYO","","399","img/food5.png","75","400","2","0","","2","1","1,0.5,0,1,0.5,0,0.5,0,1","0.5,0,1,0.5,0,1,0,1,0.5","2",""
"","html-keyboard-response","215","113506","0.0-305.0","3ZAK8W07I50RUDTRWMI2EZDIJB7U0A","A3R5OJR60C6004","3HUR21WDDUBEMSLDIXZW1FAIHVWXYO","","null","<img src=""img/food5.png"" style=""width:200px;border:14px solid red;"">","null","","","","","","","","","",""
"","image-keyboard-response","216","113735","0.0-306.0","3ZAK8W07I50RUDTRWMI2EZDIJB7U0A","A3R5OJR60C6004","3HUR21WDDUBEMSLDIXZW1FAIHVWXYO","","229","img/food1.png","76","230","3","1","","3","1","1,0.5,0,1,0.5,0,0.5,0,1","0.5,0,1,0.5,0,1,0,1,0.5","2",""
"","html-keyboard-response","217","114037","0.0-307.0","3ZAK8W07I50RUDTRWMI2EZDIJB7U0A","A3R5OJR60C6004","3HUR21WDDUBEMSLDIXZW1FAIHVWXYO","","null","<img src=""img/food1.png"" style=""width:200px; border:14px solid green;"">","null","","","","","","","","","",""
"","image-keyboard-response","218","114296","0.0-308.0","3ZAK8W07I50RUDTRWMI2EZDIJB7U0A","A3R5OJR60C6004","3HUR21WDDUBEMSLDIXZW1FAIHVWXYO","","257","img/food1.png","74","258","1","0","","3","1","1,0.5,0,1,0.5,0,0.5,0,1","0.5,0,1,0.5,0,1,0,1,0.5","2",""
"","html-keyboard-response","219","114610","0.0-309.0","3ZAK8W07I50RUDTRWMI2EZDIJB7U0A","A3R5OJR60C6004","3HUR21WDDUBEMSLDIXZW1FAIHVWXYO","","null","<img src=""img/food1.png"" style=""width:200px;border:14px solid red;"">","null","","","","","","","","","",""
"","image-keyboard-response","220","115096","0.0-310.0","3ZAK8W07I50RUDTRWMI2EZDIJB7U0A","A3R5OJR60C6004","3HUR21WDDUBEMSLDIXZW1FAIHVWXYO","","484","img/food1.png","74","486","1","0","","3","1","1,0.5,0,1,0.5,0,0.5,0,1","0.5,0,1,0.5,0,1,0,1,0.5","2",""
"","html-keyboard-response","221","115412","0.0-311.0","3ZAK8W07I50RUDTRWMI2EZDIJB7U0A","A3R5OJR60C6004","3HUR21WDDUBEMSLDIXZW1FAIHVWXYO","","null","<img src=""img/food1.png"" style=""width:200px;border:14px solid red;"">","null","","","","","","","","","",""
"","image-keyboard-response","222","115710","0.0-312.0","3ZAK8W07I50RUDTRWMI2EZDIJB7U0A","A3R5OJR60C6004","3HUR21WDDUBEMSLDIXZW1FAIHVWXYO","","298","img/food4.png","76","298","3","1","","1","1","1,0.5,0,1,0.5,0,0.5,0,1","0.5,0,1,0.5,0,1,0,1,0.5","2",""
"","html-keyboard-response","223","116019","0.0-313.0","3ZAK8W07I50RUDTRWMI2EZDIJB7U0A","A3R5OJR60C6004","3HUR21WDDUBEMSLDIXZW1FAIHVWXYO","","null","<img src=""img/food4.png"" style=""width:200px; border:14px solid green;"">","null","","","","","","","","","",""
"","image-keyboard-response","224","116230","0.0-314.0","3ZAK8W07I50RUDTRWMI2EZDIJB7U0A","A3R5OJR60C6004","3HUR21WDDUBEMSLDIXZW1FAIHVWXYO","","209","img/food1.png","76","210","3","0","","3","1","1,0.5,0,1,0.5,0,0.5,0,1","0.5,0,1,0.5,0,1,0,1,0.5","2",""
"","html-keyboard-response","225","116534","0.0-315.0","3ZAK8W07I50RUDTRWMI2EZDIJB7U0A","A3R5OJR60C6004","3HUR21WDDUBEMSLDIXZW1FAIHVWXYO","","null","<img src=""img/food1.png"" style=""width:200px;border:14px solid red;"">","null","","","","","","","","","",""
"","image-keyboard-response","226","116813","0.0-316.0","3ZAK8W07I50RUDTRWMI2EZDIJB7U0A","A3R5OJR60C6004","3HUR21WDDUBEMSLDIXZW1FAIHVWXYO","","277","img/food4.png","76","280","3","1","","1","1","1,0.5,0,1,0.5,0,0.5,0,1","0.5,0,1,0.5,0,1,0,1,0.5","2",""
"","html-keyboard-response","227","117128","0.0-317.0","3ZAK8W07I50RUDTRWMI2EZDIJB7U0A","A3R5OJR60C6004","3HUR21WDDUBEMSLDIXZW1FAIHVWXYO","","null","<img src=""img/food4.png"" style=""width:200px; border:14px solid green;"">","null","","","","","","","","","",""
"","image-keyboard-response","228","117400","0.0-318.0","3ZAK8W07I50RUDTRWMI2EZDIJB7U0A","A3R5OJR60C6004","3HUR21WDDUBEMSLDIXZW1FAIHVWXYO","","271","img/food5.png","76","272","3","1","","2","1","1,0.5,0,1,0.5,0,0.5,0,1","0.5,0,1,0.5,0,1,0,1,0.5","2",""
"","html-keyboard-response","229","117715","0.0-319.0","3ZAK8W07I50RUDTRWMI2EZDIJB7U0A","A3R5OJR60C6004","3HUR21WDDUBEMSLDIXZW1FAIHVWXYO","","null","<img src=""img/food5.png"" style=""width:200px; border:14px solid green;"">","null","","","","","","","","","",""
"","image-keyboard-response","230","118006","0.0-320.0","3ZAK8W07I50RUDTRWMI2EZDIJB7U0A","A3R5OJR60C6004","3HUR21WDDUBEMSLDIXZW1FAIHVWXYO","","289","img/food4.png","76","289","3","1","","1","1","1,0.5,0,1,0.5,0,0.5,0,1","0.5,0,1,0.5,0,1,0,1,0.5","2",""
"","html-keyboard-response","231","118313","0.0-321.0","3ZAK8W07I50RUDTRWMI2EZDIJB7U0A","A3R5OJR60C6004","3HUR21WDDUBEMSLDIXZW1FAIHVWXYO","","null","<img src=""img/food4.png"" style=""width:200px; border:14px solid green;"">","null","","","","","","","","","",""
"","image-keyboard-response","232","118647","0.0-322.0","3ZAK8W07I50RUDTRWMI2EZDIJB7U0A","A3R5OJR60C6004","3HUR21WDDUBEMSLDIXZW1FAIHVWXYO","","332","img/food4.png","76","333","3","1","","1","1","1,0.5,0,1,0.5,0,0.5,0,1","0.5,0,1,0.5,0,1,0,1,0.5","2",""
"","html-keyboard-response","233","118961","0.0-323.0","3ZAK8W07I50RUDTRWMI2EZDIJB7U0A","A3R5OJR60C6004","3HUR21WDDUBEMSLDIXZW1FAIHVWXYO","","null","<img src=""img/food4.png"" style=""width:200px; border:14px solid green;"">","null","","","","","","","","","",""
"","image-keyboard-response","234","119229","0.0-324.0","3ZAK8W07I50RUDTRWMI2EZDIJB7U0A","A3R5OJR60C6004","3HUR21WDDUBEMSLDIXZW1FAIHVWXYO","","267","img/food4.png","76","268","3","1","","1","1","1,0.5,0,1,0.5,0,0.5,0,1","0.5,0,1,0.5,0,1,0,1,0.5","2",""
"","html-keyboard-response","235","119536","0.0-325.0","3ZAK8W07I50RUDTRWMI2EZDIJB7U0A","A3R5OJR60C6004","3HUR21WDDUBEMSLDIXZW1FAIHVWXYO","","null","<img src=""img/food4.png"" style=""width:200px; border:14px solid green;"">","null","","","","","","","","","",""
"","image-keyboard-response","236","119798","0.0-326.0","3ZAK8W07I50RUDTRWMI2EZDIJB7U0A","A3R5OJR60C6004","3HUR21WDDUBEMSLDIXZW1FAIHVWXYO","","261","img/food1.png","76","262","3","0","","3","1","1,0.5,0,1,0.5,0,0.5,0,1","0.5,0,1,0.5,0,1,0,1,0.5","2",""
"","html-keyboard-response","237","120113","0.0-327.0","3ZAK8W07I50RUDTRWMI2EZDIJB7U0A","A3R5OJR60C6004","3HUR21WDDUBEMSLDIXZW1FAIHVWXYO","","null","<img src=""img/food1.png"" style=""width:200px;border:14px solid red;"">","null","","","","","","","","","",""
"","image-keyboard-response","238","120871","0.0-328.0","3ZAK8W07I50RUDTRWMI2EZDIJB7U0A","A3R5OJR60C6004","3HUR21WDDUBEMSLDIXZW1FAIHVWXYO","","756","img/food5.png","74","757","1","0","","2","1","1,0.5,0,1,0.5,0,0.5,0,1","0.5,0,1,0.5,0,1,0,1,0.5","2",""
"","html-keyboard-response","239","121177","0.0-329.0","3ZAK8W07I50RUDTRWMI2EZDIJB7U0A","A3R5OJR60C6004","3HUR21WDDUBEMSLDIXZW1FAIHVWXYO","","null","<img src=""img/food5.png"" style=""width:200px;border:14px solid red;"">","null","","","","","","","","","",""
"","image-keyboard-response","240","121448","0.0-330.0","3ZAK8W07I50RUDTRWMI2EZDIJB7U0A","A3R5OJR60C6004","3HUR21WDDUBEMSLDIXZW1FAIHVWXYO","","270","img/food1.png","76","271","3","0","","3","1","1,0.5,0,1,0.5,0,0.5,0,1","0.5,0,1,0.5,0,1,0,1,0.5","2",""
"","html-keyboard-response","241","121763","0.0-331.0","3ZAK8W07I50RUDTRWMI2EZDIJB7U0A","A3R5OJR60C6004","3HUR21WDDUBEMSLDIXZW1FAIHVWXYO","","null","<img src=""img/food1.png"" style=""width:200px;border:14px solid red;"">","null","","","","","","","","","",""
"","image-keyboard-response","242","122038","0.0-332.0","3ZAK8W07I50RUDTRWMI2EZDIJB7U0A","A3R5OJR60C6004","3HUR21WDDUBEMSLDIXZW1FAIHVWXYO","","273","img/food4.png","76","274","3","1","","1","1","1,0.5,0,1,0.5,0,0.5,0,1","0.5,0,1,0.5,0,1,0,1,0.5","2",""
"","html-keyboard-response","243","122344","0.0-333.0","3ZAK8W07I50RUDTRWMI2EZDIJB7U0A","A3R5OJR60C6004","3HUR21WDDUBEMSLDIXZW1FAIHVWXYO","","null","<img src=""img/food4.png"" style=""width:200px; border:14px solid green;"">","null","","","","","","","","","",""
"","image-keyboard-response","244","122592","0.0-334.0","3ZAK8W07I50RUDTRWMI2EZDIJB7U0A","A3R5OJR60C6004","3HUR21WDDUBEMSLDIXZW1FAIHVWXYO","","247","img/food4.png","76","248","3","1","","1","1","1,0.5,0,1,0.5,0,0.5,0,1","0.5,0,1,0.5,0,1,0,1,0.5","2",""
"","html-keyboard-response","245","122902","0.0-335.0","3ZAK8W07I50RUDTRWMI2EZDIJB7U0A","A3R5OJR60C6004","3HUR21WDDUBEMSLDIXZW1FAIHVWXYO","","null","<img src=""img/food4.png"" style=""width:200px; border:14px solid green;"">","null","","","","","","","","","",""
"","image-keyboard-response","246","123198","0.0-336.0","3ZAK8W07I50RUDTRWMI2EZDIJB7U0A","A3R5OJR60C6004","3HUR21WDDUBEMSLDIXZW1FAIHVWXYO","","295","img/food4.png","76","295","3","1","","1","1","1,0.5,0,1,0.5,0,0.5,0,1","0.5,0,1,0.5,0,1,0,1,0.5","2",""
"","html-keyboard-response","247","123511","0.0-337.0","3ZAK8W07I50RUDTRWMI2EZDIJB7U0A","A3R5OJR60C6004","3HUR21WDDUBEMSLDIXZW1FAIHVWXYO","","null","<img src=""img/food4.png"" style=""width:200px; border:14px solid green;"">","null","","","","","","","","","",""
"","image-keyboard-response","248","123776","0.0-338.0","3ZAK8W07I50RUDTRWMI2EZDIJB7U0A","A3R5OJR60C6004","3HUR21WDDUBEMSLDIXZW1FAIHVWXYO","","263","img/food4.png","76","264","3","1","","1","1","1,0.5,0,1,0.5,0,0.5,0,1","0.5,0,1,0.5,0,1,0,1,0.5","2",""
"","html-keyboard-response","249","124080","0.0-339.0","3ZAK8W07I50RUDTRWMI2EZDIJB7U0A","A3R5OJR60C6004","3HUR21WDDUBEMSLDIXZW1FAIHVWXYO","","null","<img src=""img/food4.png"" style=""width:200px; border:14px solid green;"">","null","","","","","","","","","",""
"","image-keyboard-response","250","124335","0.0-340.0","3ZAK8W07I50RUDTRWMI2EZDIJB7U0A","A3R5OJR60C6004","3HUR21WDDUBEMSLDIXZW1FAIHVWXYO","","253","img/food4.png","76","255","3","1","","1","1","1,0.5,0,1,0.5,0,0.5,0,1","0.5,0,1,0.5,0,1,0,1,0.5","2",""
"","html-keyboard-response","251","124644","0.0-341.0","3ZAK8W07I50RUDTRWMI2EZDIJB7U0A","A3R5OJR60C6004","3HUR21WDDUBEMSLDIXZW1FAIHVWXYO","","null","<img src=""img/food4.png"" style=""width:200px; border:14px solid green;"">","null","","","","","","","","","",""
"","image-keyboard-response","252","124871","0.0-342.0","3ZAK8W07I50RUDTRWMI2EZDIJB7U0A","A3R5OJR60C6004","3HUR21WDDUBEMSLDIXZW1FAIHVWXYO","","226","img/food1.png","76","226","3","1","","3","1","1,0.5,0,1,0.5,0,0.5,0,1","0.5,0,1,0.5,0,1,0,1,0.5","2",""
"","html-keyboard-response","253","125184","0.0-343.0","3ZAK8W07I50RUDTRWMI2EZDIJB7U0A","A3R5OJR60C6004","3HUR21WDDUBEMSLDIXZW1FAIHVWXYO","","null","<img src=""img/food1.png"" style=""width:200px; border:14px solid green;"">","null","","","","","","","","","",""
"","image-keyboard-response","254","125439","0.0-344.0","3ZAK8W07I50RUDTRWMI2EZDIJB7U0A","A3R5OJR60C6004","3HUR21WDDUBEMSLDIXZW1FAIHVWXYO","","255","img/food5.png","76","255","3","1","","2","1","1,0.5,0,1,0.5,0,0.5,0,1","0.5,0,1,0.5,0,1,0,1,0.5","2",""
"","html-keyboard-response","255","125755","0.0-345.0","3ZAK8W07I50RUDTRWMI2EZDIJB7U0A","A3R5OJR60C6004","3HUR21WDDUBEMSLDIXZW1FAIHVWXYO","","null","<img src=""img/food5.png"" style=""width:200px; border:14px solid green;"">","null","","","","","","","","","",""
"","image-keyboard-response","256","126016","0.0-346.0","3ZAK8W07I50RUDTRWMI2EZDIJB7U0A","A3R5OJR60C6004","3HUR21WDDUBEMSLDIXZW1FAIHVWXYO","","259","img/food4.png","76","261","3","1","","1","1","1,0.5,0,1,0.5,0,0.5,0,1","0.5,0,1,0.5,0,1,0,1,0.5","2",""
"","html-keyboard-response","257","126331","0.0-347.0","3ZAK8W07I50RUDTRWMI2EZDIJB7U0A","A3R5OJR60C6004","3HUR21WDDUBEMSLDIXZW1FAIHVWXYO","","null","<img src=""img/food4.png"" style=""width:200px; border:14px solid green;"">","null","","","","","","","","","",""
"","image-keyboard-response","258","126600","0.0-348.0","3ZAK8W07I50RUDTRWMI2EZDIJB7U0A","A3R5OJR60C6004","3HUR21WDDUBEMSLDIXZW1FAIHVWXYO","","267","img/food5.png","76","269","3","1","","2","1","1,0.5,0,1,0.5,0,0.5,0,1","0.5,0,1,0.5,0,1,0,1,0.5","2",""
"","html-keyboard-response","259","126903","0.0-349.0","3ZAK8W07I50RUDTRWMI2EZDIJB7U0A","A3R5OJR60C6004","3HUR21WDDUBEMSLDIXZW1FAIHVWXYO","","null","<img src=""img/food5.png"" style=""width:200px; border:14px solid green;"">","null","","","","","","","","","",""
"","image-keyboard-response","260","127160","0.0-350.0","3ZAK8W07I50RUDTRWMI2EZDIJB7U0A","A3R5OJR60C6004","3HUR21WDDUBEMSLDIXZW1FAIHVWXYO","","256","img/food1.png","76","256","3","1","","3","1","1,0.5,0,1,0.5,0,0.5,0,1","0.5,0,1,0.5,0,1,0,1,0.5","2",""
"","html-keyboard-response","261","127475","0.0-351.0","3ZAK8W07I50RUDTRWMI2EZDIJB7U0A","A3R5OJR60C6004","3HUR21WDDUBEMSLDIXZW1FAIHVWXYO","","null","<img src=""img/food1.png"" style=""width:200px; border:14px solid green;"">","null","","","","","","","","","",""
"","image-keyboard-response","262","127774","0.0-352.0","3ZAK8W07I50RUDTRWMI2EZDIJB7U0A","A3R5OJR60C6004","3HUR21WDDUBEMSLDIXZW1FAIHVWXYO","","297","img/food1.png","76","298","3","1","","3","1","1,0.5,0,1,0.5,0,0.5,0,1","0.5,0,1,0.5,0,1,0,1,0.5","2",""
"","html-keyboard-response","263","128087","0.0-353.0","3ZAK8W07I50RUDTRWMI2EZDIJB7U0A","A3R5OJR60C6004","3HUR21WDDUBEMSLDIXZW1FAIHVWXYO","","null","<img src=""img/food1.png"" style=""width:200px; border:14px solid green;"">","null","","","","","","","","","",""
"","image-keyboard-response","264","128399","0.0-354.0","3ZAK8W07I50RUDTRWMI2EZDIJB7U0A","A3R5OJR60C6004","3HUR21WDDUBEMSLDIXZW1FAIHVWXYO","","312","img/food5.png","76","313","3","1","","2","1","1,0.5,0,1,0.5,0,0.5,0,1","0.5,0,1,0.5,0,1,0,1,0.5","2",""
"","html-keyboard-response","265","128713","0.0-355.0","3ZAK8W07I50RUDTRWMI2EZDIJB7U0A","A3R5OJR60C6004","3HUR21WDDUBEMSLDIXZW1FAIHVWXYO","","null","<img src=""img/food5.png"" style=""width:200px; border:14px solid green;"">","null","","","","","","","","","",""
"","image-keyboard-response","266","128967","0.0-356.0","3ZAK8W07I50RUDTRWMI2EZDIJB7U0A","A3R5OJR60C6004","3HUR21WDDUBEMSLDIXZW1FAIHVWXYO","","254","img/food5.png","76","254","3","1","","2","1","1,0.5,0,1,0.5,0,0.5,0,1","0.5,0,1,0.5,0,1,0,1,0.5","2",""
"","html-keyboard-response","267","129277","0.0-357.0","3ZAK8W07I50RUDTRWMI2EZDIJB7U0A","A3R5OJR60C6004","3HUR21WDDUBEMSLDIXZW1FAIHVWXYO","","null","<img src=""img/food5.png"" style=""width:200px; border:14px solid green;"">","null","","","","","","","","","",""
"","image-keyboard-response","268","129494","0.0-358.0","3ZAK8W07I50RUDTRWMI2EZDIJB7U0A","A3R5OJR60C6004","3HUR21WDDUBEMSLDIXZW1FAIHVWXYO","","218","img/food5.png","76","218","3","1","","2","1","1,0.5,0,1,0.5,0,0.5,0,1","0.5,0,1,0.5,0,1,0,1,0.5","2",""
"","html-keyboard-response","269","129802","0.0-359.0","3ZAK8W07I50RUDTRWMI2EZDIJB7U0A","A3R5OJR60C6004","3HUR21WDDUBEMSLDIXZW1FAIHVWXYO","","null","<img src=""img/food5.png"" style=""width:200px; border:14px solid green;"">","null","","","","","","","","","",""
"","image-keyboard-response","270","130072","0.0-360.0","3ZAK8W07I50RUDTRWMI2EZDIJB7U0A","A3R5OJR60C6004","3HUR21WDDUBEMSLDIXZW1FAIHVWXYO","","268","img/food1.png","76","269","3","0","","3","1","1,0.5,0,1,0.5,0,0.5,0,1","0.5,0,1,0.5,0,1,0,1,0.5","2",""
"","html-keyboard-response","271","130387","0.0-361.0","3ZAK8W07I50RUDTRWMI2EZDIJB7U0A","A3R5OJR60C6004","3HUR21WDDUBEMSLDIXZW1FAIHVWXYO","","null","<img src=""img/food1.png"" style=""width:200px;border:14px solid red;"">","null","","","","","","","","","",""
"","image-keyboard-response","272","131032","0.0-362.0","3ZAK8W07I50RUDTRWMI2EZDIJB7U0A","A3R5OJR60C6004","3HUR21WDDUBEMSLDIXZW1FAIHVWXYO","","643","img/food1.png","74","644","1","0","","3","1","1,0.5,0,1,0.5,0,0.5,0,1","0.5,0,1,0.5,0,1,0,1,0.5","2",""
"","html-keyboard-response","273","131333","0.0-363.0","3ZAK8W07I50RUDTRWMI2EZDIJB7U0A","A3R5OJR60C6004","3HUR21WDDUBEMSLDIXZW1FAIHVWXYO","","null","<img src=""img/food1.png"" style=""width:200px;border:14px solid red;"">","null","","","","","","","","","",""
"","image-keyboard-response","274","131582","0.0-364.0","3ZAK8W07I50RUDTRWMI2EZDIJB7U0A","A3R5OJR60C6004","3HUR21WDDUBEMSLDIXZW1FAIHVWXYO","","249","img/food1.png","74","249","1","0","","3","1","1,0.5,0,1,0.5,0,0.5,0,1","0.5,0,1,0.5,0,1,0,1,0.5","2",""
"","html-keyboard-response","275","131891","0.0-365.0","3ZAK8W07I50RUDTRWMI2EZDIJB7U0A","A3R5OJR60C6004","3HUR21WDDUBEMSLDIXZW1FAIHVWXYO","","null","<img src=""img/food1.png"" style=""width:200px;border:14px solid red;"">","null","","","","","","","","","",""
"","image-keyboard-response","276","132128","0.0-366.0","3ZAK8W07I50RUDTRWMI2EZDIJB7U0A","A3R5OJR60C6004","3HUR21WDDUBEMSLDIXZW1FAIHVWXYO","","235","img/food1.png","74","237","1","0","","3","1","1,0.5,0,1,0.5,0,0.5,0,1","0.5,0,1,0.5,0,1,0,1,0.5","2",""
"","html-keyboard-response","277","132431","0.0-367.0","3ZAK8W07I50RUDTRWMI2EZDIJB7U0A","A3R5OJR60C6004","3HUR21WDDUBEMSLDIXZW1FAIHVWXYO","","null","<img src=""img/food1.png"" style=""width:200px;border:14px solid red;"">","null","","","","","","","","","",""
"","image-keyboard-response","278","132752","0.0-368.0","3ZAK8W07I50RUDTRWMI2EZDIJB7U0A","A3R5OJR60C6004","3HUR21WDDUBEMSLDIXZW1FAIHVWXYO","","320","img/food4.png","75","320","2","0","","1","1","1,0.5,0,1,0.5,0,0.5,0,1","0.5,0,1,0.5,0,1,0,1,0.5","2",""
"","html-keyboard-response","279","133067","0.0-369.0","3ZAK8W07I50RUDTRWMI2EZDIJB7U0A","A3R5OJR60C6004","3HUR21WDDUBEMSLDIXZW1FAIHVWXYO","","null","<img src=""img/food4.png"" style=""width:200px;border:14px solid red;"">","null","","","","","","","","","",""
"","image-keyboard-response","280","133736","0.0-370.0","3ZAK8W07I50RUDTRWMI2EZDIJB7U0A","A3R5OJR60C6004","3HUR21WDDUBEMSLDIXZW1FAIHVWXYO","","667","img/food1.png","76","668","3","0","","3","1","1,0.5,0,1,0.5,0,0.5,0,1","0.5,0,1,0.5,0,1,0,1,0.5","2",""
"","html-keyboard-response","281","134041","0.0-371.0","3ZAK8W07I50RUDTRWMI2EZDIJB7U0A","A3R5OJR60C6004","3HUR21WDDUBEMSLDIXZW1FAIHVWXYO","","null","<img src=""img/food1.png"" style=""width:200px;border:14px solid red;"">","null","","","","","","","","","",""
"","image-keyboard-response","282","134400","0.0-372.0","3ZAK8W07I50RUDTRWMI2EZDIJB7U0A","A3R5OJR60C6004","3HUR21WDDUBEMSLDIXZW1FAIHVWXYO","","358","img/food5.png","75","359","2","0","","2","1","1,0.5,0,1,0.5,0,0.5,0,1","0.5,0,1,0.5,0,1,0,1,0.5","2",""
"","html-keyboard-response","283","134703","0.0-373.0","3ZAK8W07I50RUDTRWMI2EZDIJB7U0A","A3R5OJR60C6004","3HUR21WDDUBEMSLDIXZW1FAIHVWXYO","","null","<img src=""img/food5.png"" style=""width:200px;border:14px solid red;"">","null","","","","","","","","","",""
"","image-keyboard-response","284","134936","0.0-374.0","3ZAK8W07I50RUDTRWMI2EZDIJB7U0A","A3R5OJR60C6004","3HUR21WDDUBEMSLDIXZW1FAIHVWXYO","","232","img/food1.png","76","233","3","0","","3","1","1,0.5,0,1,0.5,0,0.5,0,1","0.5,0,1,0.5,0,1,0,1,0.5","2",""
"","html-keyboard-response","285","135248","0.0-375.0","3ZAK8W07I50RUDTRWMI2EZDIJB7U0A","A3R5OJR60C6004","3HUR21WDDUBEMSLDIXZW1FAIHVWXYO","","null","<img src=""img/food1.png"" style=""width:200px;border:14px solid red;"">","null","","","","","","","","","",""
"","image-keyboard-response","286","135464","0.0-376.0","3ZAK8W07I50RUDTRWMI2EZDIJB7U0A","A3R5OJR60C6004","3HUR21WDDUBEMSLDIXZW1FAIHVWXYO","","215","img/food5.png","76","216","3","1","","2","1","1,0.5,0,1,0.5,0,0.5,0,1","0.5,0,1,0.5,0,1,0,1,0.5","2",""
"","html-keyboard-response","287","135766","0.0-377.0","3ZAK8W07I50RUDTRWMI2EZDIJB7U0A","A3R5OJR60C6004","3HUR21WDDUBEMSLDIXZW1FAIHVWXYO","","null","<img src=""img/food5.png"" style=""width:200px; border:14px solid green;"">","null","","","","","","","","","",""
"","image-keyboard-response","288","136001","0.0-378.0","3ZAK8W07I50RUDTRWMI2EZDIJB7U0A","A3R5OJR60C6004","3HUR21WDDUBEMSLDIXZW1FAIHVWXYO","","233","img/food5.png","76","233","3","1","","2","1","1,0.5,0,1,0.5,0,0.5,0,1","0.5,0,1,0.5,0,1,0,1,0.5","2",""
"","html-keyboard-response","289","136304","0.0-379.0","3ZAK8W07I50RUDTRWMI2EZDIJB7U0A","A3R5OJR60C6004","3HUR21WDDUBEMSLDIXZW1FAIHVWXYO","","null","<img src=""img/food5.png"" style=""width:200px; border:14px solid green;"">","null","","","","","","","","","",""
"","image-keyboard-response","290","136576","0.0-380.0","3ZAK8W07I50RUDTRWMI2EZDIJB7U0A","A3R5OJR60C6004","3HUR21WDDUBEMSLDIXZW1FAIHVWXYO","","271","img/food4.png","76","271","3","1","","1","1","1,0.5,0,1,0.5,0,0.5,0,1","0.5,0,1,0.5,0,1,0,1,0.5","2",""
"","html-keyboard-response","291","136881","0.0-381.0","3ZAK8W07I50RUDTRWMI2EZDIJB7U0A","A3R5OJR60C6004","3HUR21WDDUBEMSLDIXZW1FAIHVWXYO","","null","<img src=""img/food4.png"" style=""width:200px; border:14px solid green;"">","null","","","","","","","","","",""
"","image-keyboard-response","292","137063","0.0-382.0","3ZAK8W07I50RUDTRWMI2EZDIJB7U0A","A3R5OJR60C6004","3HUR21WDDUBEMSLDIXZW1FAIHVWXYO","","180","img/food1.png","76","181","3","0","","3","1","1,0.5,0,1,0.5,0,0.5,0,1","0.5,0,1,0.5,0,1,0,1,0.5","2",""
"","html-keyboard-response","293","137365","0.0-383.0","3ZAK8W07I50RUDTRWMI2EZDIJB7U0A","A3R5OJR60C6004","3HUR21WDDUBEMSLDIXZW1FAIHVWXYO","","null","<img src=""img/food1.png"" style=""width:200px;border:14px solid red;"">","null","","","","","","","","","",""
"","image-keyboard-response","294","137560","0.0-384.0","3ZAK8W07I50RUDTRWMI2EZDIJB7U0A","A3R5OJR60C6004","3HUR21WDDUBEMSLDIXZW1FAIHVWXYO","","193","img/food1.png","76","194","3","0","","3","1","1,0.5,0,1,0.5,0,0.5,0,1","0.5,0,1,0.5,0,1,0,1,0.5","2",""
"","html-keyboard-response","295","137865","0.0-385.0","3ZAK8W07I50RUDTRWMI2EZDIJB7U0A","A3R5OJR60C6004","3HUR21WDDUBEMSLDIXZW1FAIHVWXYO","","null","<img src=""img/food1.png"" style=""width:200px;border:14px solid red;"">","null","","","","","","","","","",""
"","image-keyboard-response","296","138158","0.0-386.0","3ZAK8W07I50RUDTRWMI2EZDIJB7U0A","A3R5OJR60C6004","3HUR21WDDUBEMSLDIXZW1FAIHVWXYO","","292","img/food4.png","76","292","3","1","","1","1","1,0.5,0,1,0.5,0,0.5,0,1","0.5,0,1,0.5,0,1,0,1,0.5","2",""
"","html-keyboard-response","297","138463","0.0-387.0","3ZAK8W07I50RUDTRWMI2EZDIJB7U0A","A3R5OJR60C6004","3HUR21WDDUBEMSLDIXZW1FAIHVWXYO","","null","<img src=""img/food4.png"" style=""width:200px; border:14px solid green;"">","null","","","","","","","","","",""
"","image-keyboard-response","298","138751","0.0-388.0","3ZAK8W07I50RUDTRWMI2EZDIJB7U0A","A3R5OJR60C6004","3HUR21WDDUBEMSLDIXZW1FAIHVWXYO","","288","img/food4.png","76","288","3","1","","1","1","1,0.5,0,1,0.5,0,0.5,0,1","0.5,0,1,0.5,0,1,0,1,0.5","2",""
"","html-keyboard-response","299","139067","0.0-389.0","3ZAK8W07I50RUDTRWMI2EZDIJB7U0A","A3R5OJR60C6004","3HUR21WDDUBEMSLDIXZW1FAIHVWXYO","","null","<img src=""img/food4.png"" style=""width:200px; border:14px solid green;"">","null","","","","","","","","","",""
"","image-keyboard-response","300","139309","0.0-390.0","3ZAK8W07I50RUDTRWMI2EZDIJB7U0A","A3R5OJR60C6004","3HUR21WDDUBEMSLDIXZW1FAIHVWXYO","","241","img/food1.png","76","241","3","0","","3","1","1,0.5,0,1,0.5,0,0.5,0,1","0.5,0,1,0.5,0,1,0,1,0.5","2",""
"","html-keyboard-response","301","139619","0.0-391.0","3ZAK8W07I50RUDTRWMI2EZDIJB7U0A","A3R5OJR60C6004","3HUR21WDDUBEMSLDIXZW1FAIHVWXYO","","null","<img src=""img/food1.png"" style=""width:200px;border:14px solid red;"">","null","","","","","","","","","",""
"","image-keyboard-response","302","139910","0.0-392.0","3ZAK8W07I50RUDTRWMI2EZDIJB7U0A","A3R5OJR60C6004","3HUR21WDDUBEMSLDIXZW1FAIHVWXYO","","291","img/food5.png","76","291","3","1","","2","1","1,0.5,0,1,0.5,0,0.5,0,1","0.5,0,1,0.5,0,1,0,1,0.5","2",""
"","html-keyboard-response","303","140219","0.0-393.0","3ZAK8W07I50RUDTRWMI2EZDIJB7U0A","A3R5OJR60C6004","3HUR21WDDUBEMSLDIXZW1FAIHVWXYO","","null","<img src=""img/food5.png"" style=""width:200px; border:14px solid green;"">","null","","","","","","","","","",""
"","image-keyboard-response","304","140512","0.0-394.0","3ZAK8W07I50RUDTRWMI2EZDIJB7U0A","A3R5OJR60C6004","3HUR21WDDUBEMSLDIXZW1FAIHVWXYO","","292","img/food5.png","76","292","3","1","","2","1","1,0.5,0,1,0.5,0,0.5,0,1","0.5,0,1,0.5,0,1,0,1,0.5","2",""
"","html-keyboard-response","305","140827","0.0-395.0","3ZAK8W07I50RUDTRWMI2EZDIJB7U0A","A3R5OJR60C6004","3HUR21WDDUBEMSLDIXZW1FAIHVWXYO","","null","<img src=""img/food5.png"" style=""width:200px; border:14px solid green;"">","null","","","","","","","","","",""
"","image-keyboard-response","306","141112","0.0-396.0","3ZAK8W07I50RUDTRWMI2EZDIJB7U0A","A3R5OJR60C6004","3HUR21WDDUBEMSLDIXZW1FAIHVWXYO","","283","img/food5.png","76","284","3","1","","2","1","1,0.5,0,1,0.5,0,0.5,0,1","0.5,0,1,0.5,0,1,0,1,0.5","2",""
"","html-keyboard-response","307","141428","0.0-397.0","3ZAK8W07I50RUDTRWMI2EZDIJB7U0A","A3R5OJR60C6004","3HUR21WDDUBEMSLDIXZW1FAIHVWXYO","","null","<img src=""img/food5.png"" style=""width:200px; border:14px solid green;"">","null","","","","","","","","","",""
"","image-keyboard-response","308","141736","0.0-398.0","3ZAK8W07I50RUDTRWMI2EZDIJB7U0A","A3R5OJR60C6004","3HUR21WDDUBEMSLDIXZW1FAIHVWXYO","","307","img/food4.png","76","308","3","1","","1","1","1,0.5,0,1,0.5,0,0.5,0,1","0.5,0,1,0.5,0,1,0,1,0.5","2",""
"","html-keyboard-response","309","142041","0.0-399.0","3ZAK8W07I50RUDTRWMI2EZDIJB7U0A","A3R5OJR60C6004","3HUR21WDDUBEMSLDIXZW1FAIHVWXYO","","null","<img src=""img/food4.png"" style=""width:200px; border:14px solid green;"">","null","","","","","","","","","",""
"","image-keyboard-response","310","142328","0.0-400.0","3ZAK8W07I50RUDTRWMI2EZDIJB7U0A","A3R5OJR60C6004","3HUR21WDDUBEMSLDIXZW1FAIHVWXYO","","286","img/food4.png","76","286","3","1","","1","1","1,0.5,0,1,0.5,0,0.5,0,1","0.5,0,1,0.5,0,1,0,1,0.5","2",""
"","html-keyboard-response","311","142631","0.0-401.0","3ZAK8W07I50RUDTRWMI2EZDIJB7U0A","A3R5OJR60C6004","3HUR21WDDUBEMSLDIXZW1FAIHVWXYO","","null","<img src=""img/food4.png"" style=""width:200px; border:14px solid green;"">","null","","","","","","","","","",""
"","image-keyboard-response","312","142904","0.0-402.0","3ZAK8W07I50RUDTRWMI2EZDIJB7U0A","A3R5OJR60C6004","3HUR21WDDUBEMSLDIXZW1FAIHVWXYO","","273","img/food1.png","76","273","3","0","","3","1","1,0.5,0,1,0.5,0,0.5,0,1","0.5,0,1,0.5,0,1,0,1,0.5","2",""
"","html-keyboard-response","313","143217","0.0-403.0","3ZAK8W07I50RUDTRWMI2EZDIJB7U0A","A3R5OJR60C6004","3HUR21WDDUBEMSLDIXZW1FAIHVWXYO","","null","<img src=""img/food1.png"" style=""width:200px;border:14px solid red;"">","null","","","","","","","","","",""
"","image-keyboard-response","314","143432","0.0-404.0","3ZAK8W07I50RUDTRWMI2EZDIJB7U0A","A3R5OJR60C6004","3HUR21WDDUBEMSLDIXZW1FAIHVWXYO","","213","img/food4.png","76","214","3","1","","1","1","1,0.5,0,1,0.5,0,0.5,0,1","0.5,0,1,0.5,0,1,0,1,0.5","2",""
"","html-keyboard-response","315","143747","0.0-405.0","3ZAK8W07I50RUDTRWMI2EZDIJB7U0A","A3R5OJR60C6004","3HUR21WDDUBEMSLDIXZW1FAIHVWXYO","","null","<img src=""img/food4.png"" style=""width:200px; border:14px solid green;"">","null","","","","","","","","","",""
"","image-keyboard-response","316","144001","0.0-406.0","3ZAK8W07I50RUDTRWMI2EZDIJB7U0A","A3R5OJR60C6004","3HUR21WDDUBEMSLDIXZW1FAIHVWXYO","","252","img/food5.png","76","254","3","1","","2","1","1,0.5,0,1,0.5,0,0.5,0,1","0.5,0,1,0.5,0,1,0,1,0.5","2",""
"","html-keyboard-response","317","144331","0.0-407.0","3ZAK8W07I50RUDTRWMI2EZDIJB7U0A","A3R5OJR60C6004","3HUR21WDDUBEMSLDIXZW1FAIHVWXYO","","null","<img src=""img/food5.png"" style=""width:200px; border:14px solid green;"">","null","","","","","","","","","",""
"","image-keyboard-response","318","144544","0.0-408.0","3ZAK8W07I50RUDTRWMI2EZDIJB7U0A","A3R5OJR60C6004","3HUR21WDDUBEMSLDIXZW1FAIHVWXYO","","211","img/food4.png","76","213","3","1","","1","1","1,0.5,0,1,0.5,0,0.5,0,1","0.5,0,1,0.5,0,1,0,1,0.5","2",""
"","html-keyboard-response","319","144854","0.0-409.0","3ZAK8W07I50RUDTRWMI2EZDIJB7U0A","A3R5OJR60C6004","3HUR21WDDUBEMSLDIXZW1FAIHVWXYO","","null","<img src=""img/food4.png"" style=""width:200px; border:14px solid green;"">","null","","","","","","","","","",""
"","image-keyboard-response","320","145032","0.0-410.0","3ZAK8W07I50RUDTRWMI2EZDIJB7U0A","A3R5OJR60C6004","3HUR21WDDUBEMSLDIXZW1FAIHVWXYO","","176","img/food4.png","76","177","3","1","","1","1","1,0.5,0,1,0.5,0,0.5,0,1","0.5,0,1,0.5,0,1,0,1,0.5","2",""
"","html-keyboard-response","321","145349","0.0-411.0","3ZAK8W07I50RUDTRWMI2EZDIJB7U0A","A3R5OJR60C6004","3HUR21WDDUBEMSLDIXZW1FAIHVWXYO","","null","<img src=""img/food4.png"" style=""width:200px; border:14px solid green;"">","null","","","","","","","","","",""
"","image-keyboard-response","322","145567","0.0-412.0","3ZAK8W07I50RUDTRWMI2EZDIJB7U0A","A3R5OJR60C6004","3HUR21WDDUBEMSLDIXZW1FAIHVWXYO","","218","img/food4.png","76","219","3","1","","1","1","1,0.5,0,1,0.5,0,0.5,0,1","0.5,0,1,0.5,0,1,0,1,0.5","2",""
"","html-keyboard-response","323","145879","0.0-413.0","3ZAK8W07I50RUDTRWMI2EZDIJB7U0A","A3R5OJR60C6004","3HUR21WDDUBEMSLDIXZW1FAIHVWXYO","","null","<img src=""img/food4.png"" style=""width:200px; border:14px solid green;"">","null","","","","","","","","","",""
"","image-keyboard-response","324","146086","0.0-414.0","3ZAK8W07I50RUDTRWMI2EZDIJB7U0A","A3R5OJR60C6004","3HUR21WDDUBEMSLDIXZW1FAIHVWXYO","","207","img/food4.png","76","207","3","1","","1","1","1,0.5,0,1,0.5,0,0.5,0,1","0.5,0,1,0.5,0,1,0,1,0.5","2",""
"","html-keyboard-response","325","146395","0.0-415.0","3ZAK8W07I50RUDTRWMI2EZDIJB7U0A","A3R5OJR60C6004","3HUR21WDDUBEMSLDIXZW1FAIHVWXYO","","null","<img src=""img/food4.png"" style=""width:200px; border:14px solid green;"">","null","","","","","","","","","",""
"","image-keyboard-response","326","146600","0.0-416.0","3ZAK8W07I50RUDTRWMI2EZDIJB7U0A","A3R5OJR60C6004","3HUR21WDDUBEMSLDIXZW1FAIHVWXYO","","204","img/food4.png","76","204","3","1","","1","1","1,0.5,0,1,0.5,0,0.5,0,1","0.5,0,1,0.5,0,1,0,1,0.5","2",""
"","html-keyboard-response","327","146914","0.0-417.0","3ZAK8W07I50RUDTRWMI2EZDIJB7U0A","A3R5OJR60C6004","3HUR21WDDUBEMSLDIXZW1FAIHVWXYO","","null","<img src=""img/food4.png"" style=""width:200px; border:14px solid green;"">","null","","","","","","","","","",""
"","image-keyboard-response","328","147136","0.0-418.0","3ZAK8W07I50RUDTRWMI2EZDIJB7U0A","A3R5OJR60C6004","3HUR21WDDUBEMSLDIXZW1FAIHVWXYO","","220","img/food1.png","76","221","3","1","","3","1","1,0.5,0,1,0.5,0,0.5,0,1","0.5,0,1,0.5,0,1,0,1,0.5","2",""
"","html-keyboard-response","329","147442","0.0-419.0","3ZAK8W07I50RUDTRWMI2EZDIJB7U0A","A3R5OJR60C6004","3HUR21WDDUBEMSLDIXZW1FAIHVWXYO","","null","<img src=""img/food1.png"" style=""width:200px; border:14px solid green;"">","null","","","","","","","","","",""
"","image-keyboard-response","330","147672","0.0-420.0","3ZAK8W07I50RUDTRWMI2EZDIJB7U0A","A3R5OJR60C6004","3HUR21WDDUBEMSLDIXZW1FAIHVWXYO","","228","img/food1.png","76","230","3","1","","3","1","1,0.5,0,1,0.5,0,0.5,0,1","0.5,0,1,0.5,0,1,0,1,0.5","2",""
"","html-keyboard-response","331","147982","0.0-421.0","3ZAK8W07I50RUDTRWMI2EZDIJB7U0A","A3R5OJR60C6004","3HUR21WDDUBEMSLDIXZW1FAIHVWXYO","","null","<img src=""img/food1.png"" style=""width:200px; border:14px solid green;"">","null","","","","","","","","","",""
"","image-keyboard-response","332","148136","0.0-422.0","3ZAK8W07I50RUDTRWMI2EZDIJB7U0A","A3R5OJR60C6004","3HUR21WDDUBEMSLDIXZW1FAIHVWXYO","","152","img/food4.png","76","153","3","1","","1","1","1,0.5,0,1,0.5,0,0.5,0,1","0.5,0,1,0.5,0,1,0,1,0.5","2",""
"","html-keyboard-response","333","148443","0.0-423.0","3ZAK8W07I50RUDTRWMI2EZDIJB7U0A","A3R5OJR60C6004","3HUR21WDDUBEMSLDIXZW1FAIHVWXYO","","null","<img src=""img/food4.png"" style=""width:200px; border:14px solid green;"">","null","","","","","","","","","",""
"","image-keyboard-response","334","148640","0.0-424.0","3ZAK8W07I50RUDTRWMI2EZDIJB7U0A","A3R5OJR60C6004","3HUR21WDDUBEMSLDIXZW1FAIHVWXYO","","195","img/food1.png","76","195","3","0","","3","1","1,0.5,0,1,0.5,0,0.5,0,1","0.5,0,1,0.5,0,1,0,1,0.5","2",""
"","html-keyboard-response","335","148944","0.0-425.0","3ZAK8W07I50RUDTRWMI2EZDIJB7U0A","A3R5OJR60C6004","3HUR21WDDUBEMSLDIXZW1FAIHVWXYO","","null","<img src=""img/food1.png"" style=""width:200px;border:14px solid red;"">","null","","","","","","","","","",""
"","image-keyboard-response","336","149152","0.0-426.0","3ZAK8W07I50RUDTRWMI2EZDIJB7U0A","A3R5OJR60C6004","3HUR21WDDUBEMSLDIXZW1FAIHVWXYO","","205","img/food5.png","76","207","3","1","","2","1","1,0.5,0,1,0.5,0,0.5,0,1","0.5,0,1,0.5,0,1,0,1,0.5","2",""
"","html-keyboard-response","337","149459","0.0-427.0","3ZAK8W07I50RUDTRWMI2EZDIJB7U0A","A3R5OJR60C6004","3HUR21WDDUBEMSLDIXZW1FAIHVWXYO","","null","<img src=""img/food5.png"" style=""width:200px; border:14px solid green;"">","null","","","","","","","","","",""
"","image-keyboard-response","338","149712","0.0-428.0","3ZAK8W07I50RUDTRWMI2EZDIJB7U0A","A3R5OJR60C6004","3HUR21WDDUBEMSLDIXZW1FAIHVWXYO","","250","img/food5.png","76","252","3","1","","2","1","1,0.5,0,1,0.5,0,0.5,0,1","0.5,0,1,0.5,0,1,0,1,0.5","2",""
"","html-keyboard-response","339","150014","0.0-429.0","3ZAK8W07I50RUDTRWMI2EZDIJB7U0A","A3R5OJR60C6004","3HUR21WDDUBEMSLDIXZW1FAIHVWXYO","","null","<img src=""img/food5.png"" style=""width:200px; border:14px solid green;"">","null","","","","","","","","","",""
"","image-keyboard-response","340","150224","0.0-430.0","3ZAK8W07I50RUDTRWMI2EZDIJB7U0A","A3R5OJR60C6004","3HUR21WDDUBEMSLDIXZW1FAIHVWXYO","","210","img/food4.png","76","210","3","1","","1","1","1,0.5,0,1,0.5,0,0.5,0,1","0.5,0,1,0.5,0,1,0,1,0.5","2",""
"","html-keyboard-response","341","150530","0.0-431.0","3ZAK8W07I50RUDTRWMI2EZDIJB7U0A","A3R5OJR60C6004","3HUR21WDDUBEMSLDIXZW1FAIHVWXYO","","null","<img src=""img/food4.png"" style=""width:200px; border:14px solid green;"">","null","","","","","","","","","",""
"","image-keyboard-response","342","150742","0.0-432.0","3ZAK8W07I50RUDTRWMI2EZDIJB7U0A","A3R5OJR60C6004","3HUR21WDDUBEMSLDIXZW1FAIHVWXYO","","210","img/food1.png","76","210","3","1","","3","1","1,0.5,0,1,0.5,0,0.5,0,1","0.5,0,1,0.5,0,1,0,1,0.5","2",""
"","html-keyboard-response","343","151050","0.0-433.0","3ZAK8W07I50RUDTRWMI2EZDIJB7U0A","A3R5OJR60C6004","3HUR21WDDUBEMSLDIXZW1FAIHVWXYO","","null","<img src=""img/food1.png"" style=""width:200px; border:14px solid green;"">","null","","","","","","","","","",""
"","image-keyboard-response","344","151285","0.0-434.0","3ZAK8W07I50RUDTRWMI2EZDIJB7U0A","A3R5OJR60C6004","3HUR21WDDUBEMSLDIXZW1FAIHVWXYO","","233","img/food1.png","76","234","3","1","","3","1","1,0.5,0,1,0.5,0,0.5,0,1","0.5,0,1,0.5,0,1,0,1,0.5","2",""
"","html-keyboard-response","345","151599","0.0-435.0","3ZAK8W07I50RUDTRWMI2EZDIJB7U0A","A3R5OJR60C6004","3HUR21WDDUBEMSLDIXZW1FAIHVWXYO","","null","<img src=""img/food1.png"" style=""width:200px; border:14px solid green;"">","null","","","","","","","","","",""
"","image-keyboard-response","346","151822","0.0-436.0","3ZAK8W07I50RUDTRWMI2EZDIJB7U0A","A3R5OJR60C6004","3HUR21WDDUBEMSLDIXZW1FAIHVWXYO","","221","img/food5.png","76","222","3","1","","2","1","1,0.5,0,1,0.5,0,0.5,0,1","0.5,0,1,0.5,0,1,0,1,0.5","2",""
"","html-keyboard-response","347","152124","0.0-437.0","3ZAK8W07I50RUDTRWMI2EZDIJB7U0A","A3R5OJR60C6004","3HUR21WDDUBEMSLDIXZW1FAIHVWXYO","","null","<img src=""img/food5.png"" style=""width:200px; border:14px solid green;"">","null","","","","","","","","","",""
"","image-keyboard-response","348","152312","0.0-438.0","3ZAK8W07I50RUDTRWMI2EZDIJB7U0A","A3R5OJR60C6004","3HUR21WDDUBEMSLDIXZW1FAIHVWXYO","","187","img/food1.png","76","187","3","0","","3","1","1,0.5,0,1,0.5,0,0.5,0,1","0.5,0,1,0.5,0,1,0,1,0.5","2",""
"","html-keyboard-response","349","152626","0.0-439.0","3ZAK8W07I50RUDTRWMI2EZDIJB7U0A","A3R5OJR60C6004","3HUR21WDDUBEMSLDIXZW1FAIHVWXYO","","null","<img src=""img/food1.png"" style=""width:200px;border:14px solid red;"">","null","","","","","","","","","",""
"","image-keyboard-response","350","152998","0.0-440.0","3ZAK8W07I50RUDTRWMI2EZDIJB7U0A","A3R5OJR60C6004","3HUR21WDDUBEMSLDIXZW1FAIHVWXYO","","373","img/food5.png","74","373","1","0","","2","1","1,0.5,0,1,0.5,0,0.5,0,1","0.5,0,1,0.5,0,1,0,1,0.5","2",""
"","html-keyboard-response","351","153314","0.0-441.0","3ZAK8W07I50RUDTRWMI2EZDIJB7U0A","A3R5OJR60C6004","3HUR21WDDUBEMSLDIXZW1FAIHVWXYO","","null","<img src=""img/food5.png"" style=""width:200px;border:14px solid red;"">","null","","","","","","","","","",""
"","image-keyboard-response","352","153567","0.0-442.0","3ZAK8W07I50RUDTRWMI2EZDIJB7U0A","A3R5OJR60C6004","3HUR21WDDUBEMSLDIXZW1FAIHVWXYO","","253","img/food5.png","76","253","3","1","","2","1","1,0.5,0,1,0.5,0,0.5,0,1","0.5,0,1,0.5,0,1,0,1,0.5","2",""
"","html-keyboard-response","353","153883","0.0-443.0","3ZAK8W07I50RUDTRWMI2EZDIJB7U0A","A3R5OJR60C6004","3HUR21WDDUBEMSLDIXZW1FAIHVWXYO","","null","<img src=""img/food5.png"" style=""width:200px; border:14px solid green;"">","null","","","","","","","","","",""
"","image-keyboard-response","354","154022","0.0-444.0","3ZAK8W07I50RUDTRWMI2EZDIJB7U0A","A3R5OJR60C6004","3HUR21WDDUBEMSLDIXZW1FAIHVWXYO","","139","img/food5.png","76","139","3","1","","2","1","1,0.5,0,1,0.5,0,0.5,0,1","0.5,0,1,0.5,0,1,0,1,0.5","2",""
"","html-keyboard-response","355","154338","0.0-445.0","3ZAK8W07I50RUDTRWMI2EZDIJB7U0A","A3R5OJR60C6004","3HUR21WDDUBEMSLDIXZW1FAIHVWXYO","","null","<img src=""img/food5.png"" style=""width:200px; border:14px solid green;"">","null","","","","","","","","","",""
"","image-keyboard-response","356","154520","0.0-446.0","3ZAK8W07I50RUDTRWMI2EZDIJB7U0A","A3R5OJR60C6004","3HUR21WDDUBEMSLDIXZW1FAIHVWXYO","","181","img/food1.png","76","181","3","1","","3","1","1,0.5,0,1,0.5,0,0.5,0,1","0.5,0,1,0.5,0,1,0,1,0.5","2",""
"","html-keyboard-response","357","154832","0.0-447.0","3ZAK8W07I50RUDTRWMI2EZDIJB7U0A","A3R5OJR60C6004","3HUR21WDDUBEMSLDIXZW1FAIHVWXYO","","null","<img src=""img/food1.png"" style=""width:200px; border:14px solid green;"">","null","","","","","","","","","",""
"","image-keyboard-response","358","155144","0.0-448.0","3ZAK8W07I50RUDTRWMI2EZDIJB7U0A","A3R5OJR60C6004","3HUR21WDDUBEMSLDIXZW1FAIHVWXYO","","309","img/food1.png","76","311","3","0","","3","1","1,0.5,0,1,0.5,0,0.5,0,1","0.5,0,1,0.5,0,1,0,1,0.5","2",""
"","html-keyboard-response","359","155460","0.0-449.0","3ZAK8W07I50RUDTRWMI2EZDIJB7U0A","A3R5OJR60C6004","3HUR21WDDUBEMSLDIXZW1FAIHVWXYO","","null","<img src=""img/food1.png"" style=""width:200px;border:14px solid red;"">","null","","","","","","","","","",""
"","image-keyboard-response","360","155792","0.0-450.0","3ZAK8W07I50RUDTRWMI2EZDIJB7U0A","A3R5OJR60C6004","3HUR21WDDUBEMSLDIXZW1FAIHVWXYO","","330","img/food5.png","75","332","2","0","","2","1","1,0.5,0,1,0.5,0,0.5,0,1","0.5,0,1,0.5,0,1,0,1,0.5","2",""
"","html-keyboard-response","361","156099","0.0-451.0","3ZAK8W07I50RUDTRWMI2EZDIJB7U0A","A3R5OJR60C6004","3HUR21WDDUBEMSLDIXZW1FAIHVWXYO","","null","<img src=""img/food5.png"" style=""width:200px;border:14px solid red;"">","null","","","","","","","","","",""
"","image-keyboard-response","362","156448","0.0-452.0","3ZAK8W07I50RUDTRWMI2EZDIJB7U0A","A3R5OJR60C6004","3HUR21WDDUBEMSLDIXZW1FAIHVWXYO","","349","img/food4.png","74","349","1","0","","1","1","1,0.5,0,1,0.5,0,0.5,0,1","0.5,0,1,0.5,0,1,0,1,0.5","2",""
"","html-keyboard-response","363","156762","0.0-453.0","3ZAK8W07I50RUDTRWMI2EZDIJB7U0A","A3R5OJR60C6004","3HUR21WDDUBEMSLDIXZW1FAIHVWXYO","","null","<img src=""img/food4.png"" style=""width:200px;border:14px solid red;"">","null","","","","","","","","","",""
"","html-keyboard-response","364","159738","0.0-454.0","3ZAK8W07I50RUDTRWMI2EZDIJB7U0A","A3R5OJR60C6004","3HUR21WDDUBEMSLDIXZW1FAIHVWXYO","","","","","","","","","","","","","",""
"","instructions","365","163189","0.0-455.0","3ZAK8W07I50RUDTRWMI2EZDIJB7U0A","A3R5OJR60C6004","3HUR21WDDUBEMSLDIXZW1FAIHVWXYO","[{""page_index"":0,""viewing_time"":3450}]","3450","","","","","","","","","","","",""
"","survey-text","366","169129","0.0-456.0","3ZAK8W07I50RUDTRWMI2EZDIJB7U0A","A3R5OJR60C6004","3HUR21WDDUBEMSLDIXZW1FAIHVWXYO","","5938","","","","","","","","","","","","{""Q0"":""A3R5OJR60C6004""}"
