"success","trial_type","trial_index","time_elapsed","internal_node_id","assignmentID","mturkID","hitID","view_history","rt","stimulus","key_press","reactionTime","a","r","warning","s","cond","reward_cond","reward_cond_actual","reward_matrix_idx","responses"
"true","fullscreen","0","2777","0.0-0.0","30H4UDGLT34B5MS245662QXWE6JMP2","A3R97T5D3RR9JX","3RBI0I35XEP26UEZY8S8UZLEA1IY3E","","","","","","","","","","","","","",""
"","instructions","1","131834","0.0-1.0","30H4UDGLT34B5MS245662QXWE6JMP2","A3R97T5D3RR9JX","3RBI0I35XEP26UEZY8S8UZLEA1IY3E","[{""page_index"":0,""viewing_time"":14319},{""page_index"":1,""viewing_time"":14598.799999999814},{""page_index"":2,""viewing_time"":64400.799999999814},{""page_index"":3,""viewing_time"":6499.9000000003725},{""page_index"":4,""viewing_time"":2221.9000000003725},{""page_index"":5,""viewing_time"":11506},{""page_index"":6,""viewing_time"":15506}]","129053.09999999963","","","","","","","","","","","",""
"","instructions","2","151250","0.0-2.0","30H4UDGLT34B5MS245662QXWE6JMP2","A3R97T5D3RR9JX","3RBI0I35XEP26UEZY8S8UZLEA1IY3E","[{""page_index"":0,""viewing_time"":17318.10000000056},{""page_index"":1,""viewing_time"":2097.2999999998137}]","19415.60000000056","","","","","","","","","","","",""
"","image-keyboard-response","3","151776","0.0-3.0","30H4UDGLT34B5MS245662QXWE6JMP2","A3R97T5D3RR9JX","3RBI0I35XEP26UEZY8S8UZLEA1IY3E","","523.5","img/food4.png","76","526","3","1","false","2","2","1,0.5,0,1,0.5,0,0.5,0,1","0.5,0,1,0.5,0,1,0,1,0.5","2",""
"","html-keyboard-response","4","152087","0.0-4.0","30H4UDGLT34B5MS245662QXWE6JMP2","A3R97T5D3RR9JX","3RBI0I35XEP26UEZY8S8UZLEA1IY3E","","null","<img src=""img/food4.png"" style=""width:200px; border:14px solid green;"">","null","","","","","","","","","",""
"","image-keyboard-response","5","152341","0.0-6.0","30H4UDGLT34B5MS245662QXWE6JMP2","A3R97T5D3RR9JX","3RBI0I35XEP26UEZY8S8UZLEA1IY3E","","249.5","img/food3.png","75","252.20000000018626","2","0","false","1","2","1,0.5,0,1,0.5,0,0.5,0,1","0.5,0,1,0.5,0,1,0,1,0.5","2",""
"","html-keyboard-response","6","152645","0.0-7.0","30H4UDGLT34B5MS245662QXWE6JMP2","A3R97T5D3RR9JX","3RBI0I35XEP26UEZY8S8UZLEA1IY3E","","null","<img src=""img/food3.png"" style=""width:200px;border:14px solid red;"">","null","","","","","","","","","",""
"","image-keyboard-response","7","152662","0.0-9.0","30H4UDGLT34B5MS245662QXWE6JMP2","A3R97T5D3RR9JX","3RBI0I35XEP26UEZY8S8UZLEA1IY3E","","14.100000000558794","img/food3.png","75","16.100000000558794","2","0","false","1","2","1,0.5,0,1,0.5,0,0.5,0,1","0.5,0,1,0.5,0,1,0,1,0.5","2",""
"","html-keyboard-response","8","152966","0.0-10.0","30H4UDGLT34B5MS245662QXWE6JMP2","A3R97T5D3RR9JX","3RBI0I35XEP26UEZY8S8UZLEA1IY3E","","null","<img src=""img/food3.png"" style=""width:200px;border:14px solid red;"">","null","","","","","","","","","",""
"","image-keyboard-response","9","153038","0.0-12.0","30H4UDGLT34B5MS245662QXWE6JMP2","A3R97T5D3RR9JX","3RBI0I35XEP26UEZY8S8UZLEA1IY3E","","70.09999999962747","img/food3.png","75","72","2","0","false","1","2","1,0.5,0,1,0.5,0,0.5,0,1","0.5,0,1,0.5,0,1,0,1,0.5","2",""
"","html-keyboard-response","10","153342","0.0-13.0","30H4UDGLT34B5MS245662QXWE6JMP2","A3R97T5D3RR9JX","3RBI0I35XEP26UEZY8S8UZLEA1IY3E","","null","<img src=""img/food3.png"" style=""width:200px;border:14px solid red;"">","null","","","","","","","","","",""
"","image-keyboard-response","11","153621","0.0-15.0","30H4UDGLT34B5MS245662QXWE6JMP2","A3R97T5D3RR9JX","3RBI0I35XEP26UEZY8S8UZLEA1IY3E","","276.29999999981374","img/food2.png","74","278.59999999962747","1","0","false","3","2","1,0.5,0,1,0.5,0,0.5,0,1","0.5,0,1,0.5,0,1,0,1,0.5","2",""
"","html-keyboard-response","12","153925","0.0-16.0","30H4UDGLT34B5MS245662QXWE6JMP2","A3R97T5D3RR9JX","3RBI0I35XEP26UEZY8S8UZLEA1IY3E","","null","<img src=""img/food2.png"" style=""width:200px;border:14px solid red;"">","null","","","","","","","","","",""
"","image-keyboard-response","13","153992","0.0-18.0","30H4UDGLT34B5MS245662QXWE6JMP2","A3R97T5D3RR9JX","3RBI0I35XEP26UEZY8S8UZLEA1IY3E","","65","img/food3.png","74","66.79999999981374","1","0","false","1","2","1,0.5,0,1,0.5,0,0.5,0,1","0.5,0,1,0.5,0,1,0,1,0.5","2",""
"","html-keyboard-response","14","154296","0.0-19.0","30H4UDGLT34B5MS245662QXWE6JMP2","A3R97T5D3RR9JX","3RBI0I35XEP26UEZY8S8UZLEA1IY3E","","null","<img src=""img/food3.png"" style=""width:200px;border:14px solid red;"">","null","","","","","","","","","",""
"","image-keyboard-response","15","154411","0.0-21.0","30H4UDGLT34B5MS245662QXWE6JMP2","A3R97T5D3RR9JX","3RBI0I35XEP26UEZY8S8UZLEA1IY3E","","112.09999999962747","img/food4.png","74","114.19999999925494","1","0","false","2","2","1,0.5,0,1,0.5,0,0.5,0,1","0.5,0,1,0.5,0,1,0,1,0.5","2",""
"","html-keyboard-response","16","154714","0.0-22.0","30H4UDGLT34B5MS245662QXWE6JMP2","A3R97T5D3RR9JX","3RBI0I35XEP26UEZY8S8UZLEA1IY3E","","null","<img src=""img/food4.png"" style=""width:200px;border:14px solid red;"">","null","","","","","","","","","",""
"","image-keyboard-response","17","154726","0.0-24.0","30H4UDGLT34B5MS245662QXWE6JMP2","A3R97T5D3RR9JX","3RBI0I35XEP26UEZY8S8UZLEA1IY3E","","8.700000000186265","img/food4.png","74","11.099999999627471","1","0","false","2","2","1,0.5,0,1,0.5,0,0.5,0,1","0.5,0,1,0.5,0,1,0,1,0.5","2",""
"","html-keyboard-response","18","155031","0.0-25.0","30H4UDGLT34B5MS245662QXWE6JMP2","A3R97T5D3RR9JX","3RBI0I35XEP26UEZY8S8UZLEA1IY3E","","null","<img src=""img/food4.png"" style=""width:200px;border:14px solid red;"">","null","","","","","","","","","",""
"","image-keyboard-response","19","155196","0.0-27.0","30H4UDGLT34B5MS245662QXWE6JMP2","A3R97T5D3RR9JX","3RBI0I35XEP26UEZY8S8UZLEA1IY3E","","162.29999999981374","img/food3.png","76","164.40000000037253","3","1","false","1","2","1,0.5,0,1,0.5,0,0.5,0,1","0.5,0,1,0.5,0,1,0,1,0.5","2",""
"","html-keyboard-response","20","155499","0.0-28.0","30H4UDGLT34B5MS245662QXWE6JMP2","A3R97T5D3RR9JX","3RBI0I35XEP26UEZY8S8UZLEA1IY3E","","null","<img src=""img/food3.png"" style=""width:200px; border:14px solid green;"">","null","","","","","","","","","",""
"","image-keyboard-response","21","155590","0.0-30.0","30H4UDGLT34B5MS245662QXWE6JMP2","A3R97T5D3RR9JX","3RBI0I35XEP26UEZY8S8UZLEA1IY3E","","87.6000000005588","img/food2.png","74","89.59999999962747","1","0","false","3","2","1,0.5,0,1,0.5,0,0.5,0,1","0.5,0,1,0.5,0,1,0,1,0.5","2",""
"","html-keyboard-response","22","155893","0.0-31.0","30H4UDGLT34B5MS245662QXWE6JMP2","A3R97T5D3RR9JX","3RBI0I35XEP26UEZY8S8UZLEA1IY3E","","null","<img src=""img/food2.png"" style=""width:200px;border:14px solid red;"">","null","","","","","","","","","",""
"","image-keyboard-response","23","156010","0.0-33.0","30H4UDGLT34B5MS245662QXWE6JMP2","A3R97T5D3RR9JX","3RBI0I35XEP26UEZY8S8UZLEA1IY3E","","114.80000000074506","img/food4.png","76","116.80000000074506","3","1","false","2","2","1,0.5,0,1,0.5,0,0.5,0,1","0.5,0,1,0.5,0,1,0,1,0.5","2",""
"","html-keyboard-response","24","156313","0.0-34.0","30H4UDGLT34B5MS245662QXWE6JMP2","A3R97T5D3RR9JX","3RBI0I35XEP26UEZY8S8UZLEA1IY3E","","null","<img src=""img/food4.png"" style=""width:200px; border:14px solid green;"">","null","","","","","","","","","",""
"","image-keyboard-response","25","156435","0.0-36.0","30H4UDGLT34B5MS245662QXWE6JMP2","A3R97T5D3RR9JX","3RBI0I35XEP26UEZY8S8UZLEA1IY3E","","119.20000000018626","img/food3.png","74","121.09999999962747","1","0","false","1","2","1,0.5,0,1,0.5,0,0.5,0,1","0.5,0,1,0.5,0,1,0,1,0.5","2",""
"","html-keyboard-response","26","156738","0.0-37.0","30H4UDGLT34B5MS245662QXWE6JMP2","A3R97T5D3RR9JX","3RBI0I35XEP26UEZY8S8UZLEA1IY3E","","null","<img src=""img/food3.png"" style=""width:200px;border:14px solid red;"">","null","","","","","","","","","",""
"","image-keyboard-response","27","156795","0.0-39.0","30H4UDGLT34B5MS245662QXWE6JMP2","A3R97T5D3RR9JX","3RBI0I35XEP26UEZY8S8UZLEA1IY3E","","54.200000000186265","img/food2.png","76","56.200000000186265","3","1","false","3","2","1,0.5,0,1,0.5,0,0.5,0,1","0.5,0,1,0.5,0,1,0,1,0.5","2",""
"","html-keyboard-response","28","157099","0.0-40.0","30H4UDGLT34B5MS245662QXWE6JMP2","A3R97T5D3RR9JX","3RBI0I35XEP26UEZY8S8UZLEA1IY3E","","null","<img src=""img/food2.png"" style=""width:200px; border:14px solid green;"">","null","","","","","","","","","",""
"","image-keyboard-response","29","157135","0.0-42.0","30H4UDGLT34B5MS245662QXWE6JMP2","A3R97T5D3RR9JX","3RBI0I35XEP26UEZY8S8UZLEA1IY3E","","33.90000000037253","img/food3.png","76","35.59999999962747","3","1","false","1","2","1,0.5,0,1,0.5,0,0.5,0,1","0.5,0,1,0.5,0,1,0,1,0.5","2",""
"","html-keyboard-response","30","157437","0.0-43.0","30H4UDGLT34B5MS245662QXWE6JMP2","A3R97T5D3RR9JX","3RBI0I35XEP26UEZY8S8UZLEA1IY3E","","null","<img src=""img/food3.png"" style=""width:200px; border:14px solid green;"">","null","","","","","","","","","",""
"","image-keyboard-response","31","157574","0.0-45.0","30H4UDGLT34B5MS245662QXWE6JMP2","A3R97T5D3RR9JX","3RBI0I35XEP26UEZY8S8UZLEA1IY3E","","133.8999999994412","img/food3.png","76","135.8999999994412","3","1","false","1","2","1,0.5,0,1,0.5,0,0.5,0,1","0.5,0,1,0.5,0,1,0,1,0.5","2",""
"","html-keyboard-response","32","157878","0.0-46.0","30H4UDGLT34B5MS245662QXWE6JMP2","A3R97T5D3RR9JX","3RBI0I35XEP26UEZY8S8UZLEA1IY3E","","null","<img src=""img/food3.png"" style=""width:200px; border:14px solid green;"">","null","","","","","","","","","",""
"","image-keyboard-response","33","157917","0.0-48.0","30H4UDGLT34B5MS245662QXWE6JMP2","A3R97T5D3RR9JX","3RBI0I35XEP26UEZY8S8UZLEA1IY3E","","36.59999999962747","img/food2.png","76","38.09999999962747","3","0","false","3","2","1,0.5,0,1,0.5,0,0.5,0,1","0.5,0,1,0.5,0,1,0,1,0.5","2",""
"","html-keyboard-response","34","158219","0.0-49.0","30H4UDGLT34B5MS245662QXWE6JMP2","A3R97T5D3RR9JX","3RBI0I35XEP26UEZY8S8UZLEA1IY3E","","null","<img src=""img/food2.png"" style=""width:200px;border:14px solid red;"">","null","","","","","","","","","",""
"","image-keyboard-response","35","158315","0.0-51.0","30H4UDGLT34B5MS245662QXWE6JMP2","A3R97T5D3RR9JX","3RBI0I35XEP26UEZY8S8UZLEA1IY3E","","93.6000000005588","img/food4.png","76","95.40000000037253","3","1","false","2","2","1,0.5,0,1,0.5,0,0.5,0,1","0.5,0,1,0.5,0,1,0,1,0.5","2",""
"","html-keyboard-response","36","158618","0.0-52.0","30H4UDGLT34B5MS245662QXWE6JMP2","A3R97T5D3RR9JX","3RBI0I35XEP26UEZY8S8UZLEA1IY3E","","null","<img src=""img/food4.png"" style=""width:200px; border:14px solid green;"">","null","","","","","","","","","",""
"","image-keyboard-response","37","158691","0.0-54.0","30H4UDGLT34B5MS245662QXWE6JMP2","A3R97T5D3RR9JX","3RBI0I35XEP26UEZY8S8UZLEA1IY3E","","70.29999999981374","img/food3.png","74","72.90000000037253","1","0","false","1","2","1,0.5,0,1,0.5,0,0.5,0,1","0.5,0,1,0.5,0,1,0,1,0.5","2",""
"","html-keyboard-response","38","158994","0.0-55.0","30H4UDGLT34B5MS245662QXWE6JMP2","A3R97T5D3RR9JX","3RBI0I35XEP26UEZY8S8UZLEA1IY3E","","null","<img src=""img/food3.png"" style=""width:200px;border:14px solid red;"">","null","","","","","","","","","",""
"","image-keyboard-response","39","159207","0.0-57.0","30H4UDGLT34B5MS245662QXWE6JMP2","A3R97T5D3RR9JX","3RBI0I35XEP26UEZY8S8UZLEA1IY3E","","210.70000000018626","img/food4.png","76","212.5","3","1","false","2","2","1,0.5,0,1,0.5,0,0.5,0,1","0.5,0,1,0.5,0,1,0,1,0.5","2",""
"","html-keyboard-response","40","159510","0.0-58.0","30H4UDGLT34B5MS245662QXWE6JMP2","A3R97T5D3RR9JX","3RBI0I35XEP26UEZY8S8UZLEA1IY3E","","null","<img src=""img/food4.png"" style=""width:200px; border:14px solid green;"">","null","","","","","","","","","",""
"","image-keyboard-response","41","159561","0.0-60.0","30H4UDGLT34B5MS245662QXWE6JMP2","A3R97T5D3RR9JX","3RBI0I35XEP26UEZY8S8UZLEA1IY3E","","48.299999999813735","img/food4.png","75","49.799999999813735","2","0","false","2","2","1,0.5,0,1,0.5,0,0.5,0,1","0.5,0,1,0.5,0,1,0,1,0.5","2",""
"","html-keyboard-response","42","159863","0.0-61.0","30H4UDGLT34B5MS245662QXWE6JMP2","A3R97T5D3RR9JX","3RBI0I35XEP26UEZY8S8UZLEA1IY3E","","null","<img src=""img/food4.png"" style=""width:200px;border:14px solid red;"">","null","","","","","","","","","",""
"","image-keyboard-response","43","159915","0.0-63.0","30H4UDGLT34B5MS245662QXWE6JMP2","A3R97T5D3RR9JX","3RBI0I35XEP26UEZY8S8UZLEA1IY3E","","50.200000000186265","img/food2.png","75","51.700000000186265","2","1","false","3","2","1,0.5,0,1,0.5,0,0.5,0,1","0.5,0,1,0.5,0,1,0,1,0.5","2",""
"","html-keyboard-response","44","160217","0.0-64.0","30H4UDGLT34B5MS245662QXWE6JMP2","A3R97T5D3RR9JX","3RBI0I35XEP26UEZY8S8UZLEA1IY3E","","null","<img src=""img/food2.png"" style=""width:200px; border:14px solid green;"">","null","","","","","","","","","",""
"","image-keyboard-response","45","160256","0.0-66.0","30H4UDGLT34B5MS245662QXWE6JMP2","A3R97T5D3RR9JX","3RBI0I35XEP26UEZY8S8UZLEA1IY3E","","36.700000000186265","img/food3.png","76","38.10000000055879","3","1","false","1","2","1,0.5,0,1,0.5,0,0.5,0,1","0.5,0,1,0.5,0,1,0,1,0.5","2",""
"","html-keyboard-response","46","160558","0.0-67.0","30H4UDGLT34B5MS245662QXWE6JMP2","A3R97T5D3RR9JX","3RBI0I35XEP26UEZY8S8UZLEA1IY3E","","null","<img src=""img/food3.png"" style=""width:200px; border:14px solid green;"">","null","","","","","","","","","",""
"","image-keyboard-response","47","160617","0.0-69.0","30H4UDGLT34B5MS245662QXWE6JMP2","A3R97T5D3RR9JX","3RBI0I35XEP26UEZY8S8UZLEA1IY3E","","57.299999999813735","img/food2.png","76","58.80000000074506","3","0","false","3","2","1,0.5,0,1,0.5,0,0.5,0,1","0.5,0,1,0.5,0,1,0,1,0.5","2",""
"","html-keyboard-response","48","160919","0.0-70.0","30H4UDGLT34B5MS245662QXWE6JMP2","A3R97T5D3RR9JX","3RBI0I35XEP26UEZY8S8UZLEA1IY3E","","null","<img src=""img/food2.png"" style=""width:200px;border:14px solid red;"">","null","","","","","","","","","",""
"","image-keyboard-response","49","160943","0.0-72.0","30H4UDGLT34B5MS245662QXWE6JMP2","A3R97T5D3RR9JX","3RBI0I35XEP26UEZY8S8UZLEA1IY3E","","21","img/food2.png","75","22.799999999813735","2","1","false","3","2","1,0.5,0,1,0.5,0,0.5,0,1","0.5,0,1,0.5,0,1,0,1,0.5","2",""
"","html-keyboard-response","50","161247","0.0-73.0","30H4UDGLT34B5MS245662QXWE6JMP2","A3R97T5D3RR9JX","3RBI0I35XEP26UEZY8S8UZLEA1IY3E","","null","<img src=""img/food2.png"" style=""width:200px; border:14px solid green;"">","null","","","","","","","","","",""
"","image-keyboard-response","51","161299","0.0-75.0","30H4UDGLT34B5MS245662QXWE6JMP2","A3R97T5D3RR9JX","3RBI0I35XEP26UEZY8S8UZLEA1IY3E","","50.299999999813735","img/food4.png","76","51.700000000186265","3","1","false","2","2","1,0.5,0,1,0.5,0,0.5,0,1","0.5,0,1,0.5,0,1,0,1,0.5","2",""
"","html-keyboard-response","52","161602","0.0-76.0","30H4UDGLT34B5MS245662QXWE6JMP2","A3R97T5D3RR9JX","3RBI0I35XEP26UEZY8S8UZLEA1IY3E","","null","<img src=""img/food4.png"" style=""width:200px; border:14px solid green;"">","null","","","","","","","","","",""
"","image-keyboard-response","53","161738","0.0-78.0","30H4UDGLT34B5MS245662QXWE6JMP2","A3R97T5D3RR9JX","3RBI0I35XEP26UEZY8S8UZLEA1IY3E","","133.09999999962747","img/food3.png","76","135.29999999981374","3","1","false","1","2","1,0.5,0,1,0.5,0,0.5,0,1","0.5,0,1,0.5,0,1,0,1,0.5","2",""
"","html-keyboard-response","54","162042","0.0-79.0","30H4UDGLT34B5MS245662QXWE6JMP2","A3R97T5D3RR9JX","3RBI0I35XEP26UEZY8S8UZLEA1IY3E","","null","<img src=""img/food3.png"" style=""width:200px; border:14px solid green;"">","null","","","","","","","","","",""
"","image-keyboard-response","55","162109","0.0-81.0","30H4UDGLT34B5MS245662QXWE6JMP2","A3R97T5D3RR9JX","3RBI0I35XEP26UEZY8S8UZLEA1IY3E","","65.19999999925494","img/food4.png","76","67.09999999962747","3","1","false","2","2","1,0.5,0,1,0.5,0,0.5,0,1","0.5,0,1,0.5,0,1,0,1,0.5","2",""
"","html-keyboard-response","56","162413","0.0-82.0","30H4UDGLT34B5MS245662QXWE6JMP2","A3R97T5D3RR9JX","3RBI0I35XEP26UEZY8S8UZLEA1IY3E","","null","<img src=""img/food4.png"" style=""width:200px; border:14px solid green;"">","null","","","","","","","","","",""
"","image-keyboard-response","57","162473","0.0-84.0","30H4UDGLT34B5MS245662QXWE6JMP2","A3R97T5D3RR9JX","3RBI0I35XEP26UEZY8S8UZLEA1IY3E","","57.90000000037253","img/food4.png","76","59.5","3","1","false","2","2","1,0.5,0,1,0.5,0,0.5,0,1","0.5,0,1,0.5,0,1,0,1,0.5","2",""
"","html-keyboard-response","58","162776","0.0-85.0","30H4UDGLT34B5MS245662QXWE6JMP2","A3R97T5D3RR9JX","3RBI0I35XEP26UEZY8S8UZLEA1IY3E","","null","<img src=""img/food4.png"" style=""width:200px; border:14px solid green;"">","null","","","","","","","","","",""
"","image-keyboard-response","59","162817","0.0-87.0","30H4UDGLT34B5MS245662QXWE6JMP2","A3R97T5D3RR9JX","3RBI0I35XEP26UEZY8S8UZLEA1IY3E","","38.90000000037253","img/food3.png","75","40.40000000037253","2","0","false","1","2","1,0.5,0,1,0.5,0,0.5,0,1","0.5,0,1,0.5,0,1,0,1,0.5","2",""
"","html-keyboard-response","60","163119","0.0-88.0","30H4UDGLT34B5MS245662QXWE6JMP2","A3R97T5D3RR9JX","3RBI0I35XEP26UEZY8S8UZLEA1IY3E","","null","<img src=""img/food3.png"" style=""width:200px;border:14px solid red;"">","null","","","","","","","","","",""
"","image-keyboard-response","61","163170","0.0-90.0","30H4UDGLT34B5MS245662QXWE6JMP2","A3R97T5D3RR9JX","3RBI0I35XEP26UEZY8S8UZLEA1IY3E","","48.09999999962747","img/food3.png","76","49.90000000037253","3","1","false","1","2","1,0.5,0,1,0.5,0,0.5,0,1","0.5,0,1,0.5,0,1,0,1,0.5","2",""
"","html-keyboard-response","62","163473","0.0-91.0","30H4UDGLT34B5MS245662QXWE6JMP2","A3R97T5D3RR9JX","3RBI0I35XEP26UEZY8S8UZLEA1IY3E","","null","<img src=""img/food3.png"" style=""width:200px; border:14px solid green;"">","null","","","","","","","","","",""
"","image-keyboard-response","63","163519","0.0-93.0","30H4UDGLT34B5MS245662QXWE6JMP2","A3R97T5D3RR9JX","3RBI0I35XEP26UEZY8S8UZLEA1IY3E","","43.59999999962747","img/food3.png","76","45.200000000186265","3","1","false","1","2","1,0.5,0,1,0.5,0,0.5,0,1","0.5,0,1,0.5,0,1,0,1,0.5","2",""
"","html-keyboard-response","64","163822","0.0-94.0","30H4UDGLT34B5MS245662QXWE6JMP2","A3R97T5D3RR9JX","3RBI0I35XEP26UEZY8S8UZLEA1IY3E","","null","<img src=""img/food3.png"" style=""width:200px; border:14px solid green;"">","null","","","","","","","","","",""
"","image-keyboard-response","65","163931","0.0-96.0","30H4UDGLT34B5MS245662QXWE6JMP2","A3R97T5D3RR9JX","3RBI0I35XEP26UEZY8S8UZLEA1IY3E","","107","img/food2.png","76","109","3","0","false","3","2","1,0.5,0,1,0.5,0,0.5,0,1","0.5,0,1,0.5,0,1,0,1,0.5","2",""
"","html-keyboard-response","66","164235","0.0-97.0","30H4UDGLT34B5MS245662QXWE6JMP2","A3R97T5D3RR9JX","3RBI0I35XEP26UEZY8S8UZLEA1IY3E","","null","<img src=""img/food2.png"" style=""width:200px;border:14px solid red;"">","null","","","","","","","","","",""
"","image-keyboard-response","67","164343","0.0-99.0","30H4UDGLT34B5MS245662QXWE6JMP2","A3R97T5D3RR9JX","3RBI0I35XEP26UEZY8S8UZLEA1IY3E","","104.70000000018626","img/food3.png","76","106.79999999981374","3","1","false","1","2","1,0.5,0,1,0.5,0,0.5,0,1","0.5,0,1,0.5,0,1,0,1,0.5","2",""
"","html-keyboard-response","68","164653","0.0-100.0","30H4UDGLT34B5MS245662QXWE6JMP2","A3R97T5D3RR9JX","3RBI0I35XEP26UEZY8S8UZLEA1IY3E","","null","<img src=""img/food3.png"" style=""width:200px; border:14px solid green;"">","null","","","","","","","","","",""
"","image-keyboard-response","69","164926","0.0-102.0","30H4UDGLT34B5MS245662QXWE6JMP2","A3R97T5D3RR9JX","3RBI0I35XEP26UEZY8S8UZLEA1IY3E","","270.1000000005588","img/food4.png","76","271.90000000037253","3","1","false","2","2","1,0.5,0,1,0.5,0,0.5,0,1","0.5,0,1,0.5,0,1,0,1,0.5","2",""
"","html-keyboard-response","70","165230","0.0-103.0","30H4UDGLT34B5MS245662QXWE6JMP2","A3R97T5D3RR9JX","3RBI0I35XEP26UEZY8S8UZLEA1IY3E","","null","<img src=""img/food4.png"" style=""width:200px; border:14px solid green;"">","null","","","","","","","","","",""
"","image-keyboard-response","71","165267","0.0-105.0","30H4UDGLT34B5MS245662QXWE6JMP2","A3R97T5D3RR9JX","3RBI0I35XEP26UEZY8S8UZLEA1IY3E","","35.10000000055879","img/food3.png","74","36.799999999813735","1","1","false","1","2","1,0.5,0,1,0.5,0,0.5,0,1","0.5,0,1,0.5,0,1,0,1,0.5","2",""
"","html-keyboard-response","72","165569","0.0-106.0","30H4UDGLT34B5MS245662QXWE6JMP2","A3R97T5D3RR9JX","3RBI0I35XEP26UEZY8S8UZLEA1IY3E","","null","<img src=""img/food3.png"" style=""width:200px; border:14px solid green;"">","null","","","","","","","","","",""
"","image-keyboard-response","73","165801","0.0-108.0","30H4UDGLT34B5MS245662QXWE6JMP2","A3R97T5D3RR9JX","3RBI0I35XEP26UEZY8S8UZLEA1IY3E","","228.59999999962747","img/food4.png","76","230.40000000037253","3","1","false","2","2","1,0.5,0,1,0.5,0,0.5,0,1","0.5,0,1,0.5,0,1,0,1,0.5","2",""
"","html-keyboard-response","74","166103","0.0-109.0","30H4UDGLT34B5MS245662QXWE6JMP2","A3R97T5D3RR9JX","3RBI0I35XEP26UEZY8S8UZLEA1IY3E","","null","<img src=""img/food4.png"" style=""width:200px; border:14px solid green;"">","null","","","","","","","","","",""
"","image-keyboard-response","75","166176","0.0-111.0","30H4UDGLT34B5MS245662QXWE6JMP2","A3R97T5D3RR9JX","3RBI0I35XEP26UEZY8S8UZLEA1IY3E","","69.79999999981374","img/food2.png","75","71.79999999981374","2","1","false","3","2","1,0.5,0,1,0.5,0,0.5,0,1","0.5,0,1,0.5,0,1,0,1,0.5","2",""
"","html-keyboard-response","76","166479","0.0-112.0","30H4UDGLT34B5MS245662QXWE6JMP2","A3R97T5D3RR9JX","3RBI0I35XEP26UEZY8S8UZLEA1IY3E","","null","<img src=""img/food2.png"" style=""width:200px; border:14px solid green;"">","null","","","","","","","","","",""
"","image-keyboard-response","77","166678","0.0-114.0","30H4UDGLT34B5MS245662QXWE6JMP2","A3R97T5D3RR9JX","3RBI0I35XEP26UEZY8S8UZLEA1IY3E","","197.20000000018626","img/food4.png","76","199","3","1","false","2","2","1,0.5,0,1,0.5,0,0.5,0,1","0.5,0,1,0.5,0,1,0,1,0.5","2",""
"","html-keyboard-response","78","166981","0.0-115.0","30H4UDGLT34B5MS245662QXWE6JMP2","A3R97T5D3RR9JX","3RBI0I35XEP26UEZY8S8UZLEA1IY3E","","null","<img src=""img/food4.png"" style=""width:200px; border:14px solid green;"">","null","","","","","","","","","",""
"","image-keyboard-response","79","167068","0.0-117.0","30H4UDGLT34B5MS245662QXWE6JMP2","A3R97T5D3RR9JX","3RBI0I35XEP26UEZY8S8UZLEA1IY3E","","84.80000000074506","img/food4.png","74","86.70000000018626","1","1","false","2","2","1,0.5,0,1,0.5,0,0.5,0,1","0.5,0,1,0.5,0,1,0,1,0.5","2",""
"","html-keyboard-response","80","167371","0.0-118.0","30H4UDGLT34B5MS245662QXWE6JMP2","A3R97T5D3RR9JX","3RBI0I35XEP26UEZY8S8UZLEA1IY3E","","null","<img src=""img/food4.png"" style=""width:200px; border:14px solid green;"">","null","","","","","","","","","",""
"","image-keyboard-response","81","167511","0.0-120.0","30H4UDGLT34B5MS245662QXWE6JMP2","A3R97T5D3RR9JX","3RBI0I35XEP26UEZY8S8UZLEA1IY3E","","137.40000000037253","img/food2.png","76","139.20000000018626","3","0","false","3","2","1,0.5,0,1,0.5,0,0.5,0,1","0.5,0,1,0.5,0,1,0,1,0.5","2",""
"","html-keyboard-response","82","167815","0.0-121.0","30H4UDGLT34B5MS245662QXWE6JMP2","A3R97T5D3RR9JX","3RBI0I35XEP26UEZY8S8UZLEA1IY3E","","null","<img src=""img/food2.png"" style=""width:200px;border:14px solid red;"">","null","","","","","","","","","",""
"","image-keyboard-response","83","167977","0.0-123.0","30H4UDGLT34B5MS245662QXWE6JMP2","A3R97T5D3RR9JX","3RBI0I35XEP26UEZY8S8UZLEA1IY3E","","159.5","img/food3.png","76","161.90000000037253","3","1","false","1","2","1,0.5,0,1,0.5,0,0.5,0,1","0.5,0,1,0.5,0,1,0,1,0.5","2",""
"","html-keyboard-response","84","168281","0.0-124.0","30H4UDGLT34B5MS245662QXWE6JMP2","A3R97T5D3RR9JX","3RBI0I35XEP26UEZY8S8UZLEA1IY3E","","null","<img src=""img/food3.png"" style=""width:200px; border:14px solid green;"">","null","","","","","","","","","",""
"","image-keyboard-response","85","168430","0.0-126.0","30H4UDGLT34B5MS245662QXWE6JMP2","A3R97T5D3RR9JX","3RBI0I35XEP26UEZY8S8UZLEA1IY3E","","146.29999999981374","img/food4.png","74","148.40000000037253","1","0","false","2","2","1,0.5,0,1,0.5,0,0.5,0,1","0.5,0,1,0.5,0,1,0,1,0.5","2",""
"","html-keyboard-response","86","168733","0.0-127.0","30H4UDGLT34B5MS245662QXWE6JMP2","A3R97T5D3RR9JX","3RBI0I35XEP26UEZY8S8UZLEA1IY3E","","null","<img src=""img/food4.png"" style=""width:200px;border:14px solid red;"">","null","","","","","","","","","",""
"","image-keyboard-response","87","168903","0.0-129.0","30H4UDGLT34B5MS245662QXWE6JMP2","A3R97T5D3RR9JX","3RBI0I35XEP26UEZY8S8UZLEA1IY3E","","167.90000000037253","img/food3.png","74","169.80000000074506","1","0","false","1","2","1,0.5,0,1,0.5,0,0.5,0,1","0.5,0,1,0.5,0,1,0,1,0.5","2",""
"","html-keyboard-response","88","169206","0.0-130.0","30H4UDGLT34B5MS245662QXWE6JMP2","A3R97T5D3RR9JX","3RBI0I35XEP26UEZY8S8UZLEA1IY3E","","null","<img src=""img/food3.png"" style=""width:200px;border:14px solid red;"">","null","","","","","","","","","",""
"","image-keyboard-response","89","169337","0.0-132.0","30H4UDGLT34B5MS245662QXWE6JMP2","A3R97T5D3RR9JX","3RBI0I35XEP26UEZY8S8UZLEA1IY3E","","129.59999999962747","img/food4.png","75","130.80000000074506","2","0","false","2","2","1,0.5,0,1,0.5,0,0.5,0,1","0.5,0,1,0.5,0,1,0,1,0.5","2",""
"","html-keyboard-response","90","169639","0.0-133.0","30H4UDGLT34B5MS245662QXWE6JMP2","A3R97T5D3RR9JX","3RBI0I35XEP26UEZY8S8UZLEA1IY3E","","null","<img src=""img/food4.png"" style=""width:200px;border:14px solid red;"">","null","","","","","","","","","",""
"","image-keyboard-response","91","169718","0.0-135.0","30H4UDGLT34B5MS245662QXWE6JMP2","A3R97T5D3RR9JX","3RBI0I35XEP26UEZY8S8UZLEA1IY3E","","77.69999999925494","img/food2.png","75","78.8999999994412","2","1","false","3","2","1,0.5,0,1,0.5,0,0.5,0,1","0.5,0,1,0.5,0,1,0,1,0.5","2",""
"","html-keyboard-response","92","170021","0.0-136.0","30H4UDGLT34B5MS245662QXWE6JMP2","A3R97T5D3RR9JX","3RBI0I35XEP26UEZY8S8UZLEA1IY3E","","null","<img src=""img/food2.png"" style=""width:200px; border:14px solid green;"">","null","","","","","","","","","",""
"","image-keyboard-response","93","170141","0.0-138.0","30H4UDGLT34B5MS245662QXWE6JMP2","A3R97T5D3RR9JX","3RBI0I35XEP26UEZY8S8UZLEA1IY3E","","117.59999999962747","img/food3.png","74","119.6000000005588","1","0","false","1","2","1,0.5,0,1,0.5,0,0.5,0,1","0.5,0,1,0.5,0,1,0,1,0.5","2",""
"","html-keyboard-response","94","170444","0.0-139.0","30H4UDGLT34B5MS245662QXWE6JMP2","A3R97T5D3RR9JX","3RBI0I35XEP26UEZY8S8UZLEA1IY3E","","null","<img src=""img/food3.png"" style=""width:200px;border:14px solid red;"">","null","","","","","","","","","",""
"","image-keyboard-response","95","170579","0.0-141.0","30H4UDGLT34B5MS245662QXWE6JMP2","A3R97T5D3RR9JX","3RBI0I35XEP26UEZY8S8UZLEA1IY3E","","132.5","img/food2.png","76","134.5","3","1","false","3","2","1,0.5,0,1,0.5,0,0.5,0,1","0.5,0,1,0.5,0,1,0,1,0.5","2",""
"","html-keyboard-response","96","170883","0.0-142.0","30H4UDGLT34B5MS245662QXWE6JMP2","A3R97T5D3RR9JX","3RBI0I35XEP26UEZY8S8UZLEA1IY3E","","null","<img src=""img/food2.png"" style=""width:200px; border:14px solid green;"">","null","","","","","","","","","",""
"","image-keyboard-response","97","170895","0.0-144.0","30H4UDGLT34B5MS245662QXWE6JMP2","A3R97T5D3RR9JX","3RBI0I35XEP26UEZY8S8UZLEA1IY3E","","10","img/food2.png","75","12.100000000558794","2","1","false","3","2","1,0.5,0,1,0.5,0,0.5,0,1","0.5,0,1,0.5,0,1,0,1,0.5","2",""
"","html-keyboard-response","98","171199","0.0-145.0","30H4UDGLT34B5MS245662QXWE6JMP2","A3R97T5D3RR9JX","3RBI0I35XEP26UEZY8S8UZLEA1IY3E","","null","<img src=""img/food2.png"" style=""width:200px; border:14px solid green;"">","null","","","","","","","","","",""
"","image-keyboard-response","99","171278","0.0-147.0","30H4UDGLT34B5MS245662QXWE6JMP2","A3R97T5D3RR9JX","3RBI0I35XEP26UEZY8S8UZLEA1IY3E","","76.40000000037253","img/food2.png","75","78.29999999981374","2","1","false","3","2","1,0.5,0,1,0.5,0,0.5,0,1","0.5,0,1,0.5,0,1,0,1,0.5","2",""
"","html-keyboard-response","100","171581","0.0-148.0","30H4UDGLT34B5MS245662QXWE6JMP2","A3R97T5D3RR9JX","3RBI0I35XEP26UEZY8S8UZLEA1IY3E","","null","<img src=""img/food2.png"" style=""width:200px; border:14px solid green;"">","null","","","","","","","","","",""
"","image-keyboard-response","101","171591","0.0-150.0","30H4UDGLT34B5MS245662QXWE6JMP2","A3R97T5D3RR9JX","3RBI0I35XEP26UEZY8S8UZLEA1IY3E","","6.5","img/food4.png","74","9.100000000558794","1","0","false","2","2","1,0.5,0,1,0.5,0,0.5,0,1","0.5,0,1,0.5,0,1,0,1,0.5","2",""
"","html-keyboard-response","102","171895","0.0-151.0","30H4UDGLT34B5MS245662QXWE6JMP2","A3R97T5D3RR9JX","3RBI0I35XEP26UEZY8S8UZLEA1IY3E","","null","<img src=""img/food4.png"" style=""width:200px;border:14px solid red;"">","null","","","","","","","","","",""
"","image-keyboard-response","103","171959","0.0-153.0","30H4UDGLT34B5MS245662QXWE6JMP2","A3R97T5D3RR9JX","3RBI0I35XEP26UEZY8S8UZLEA1IY3E","","62.700000000186265","img/food2.png","74","64.29999999981374","1","0","false","3","2","1,0.5,0,1,0.5,0,0.5,0,1","0.5,0,1,0.5,0,1,0,1,0.5","2",""
"","html-keyboard-response","104","172262","0.0-154.0","30H4UDGLT34B5MS245662QXWE6JMP2","A3R97T5D3RR9JX","3RBI0I35XEP26UEZY8S8UZLEA1IY3E","","null","<img src=""img/food2.png"" style=""width:200px;border:14px solid red;"">","null","","","","","","","","","",""
"","image-keyboard-response","105","172354","0.0-156.0","30H4UDGLT34B5MS245662QXWE6JMP2","A3R97T5D3RR9JX","3RBI0I35XEP26UEZY8S8UZLEA1IY3E","","89.70000000018626","img/food2.png","74","91.59999999962747","1","0","false","3","2","1,0.5,0,1,0.5,0,0.5,0,1","0.5,0,1,0.5,0,1,0,1,0.5","2",""
"","html-keyboard-response","106","172658","0.0-157.0","30H4UDGLT34B5MS245662QXWE6JMP2","A3R97T5D3RR9JX","3RBI0I35XEP26UEZY8S8UZLEA1IY3E","","null","<img src=""img/food2.png"" style=""width:200px;border:14px solid red;"">","null","","","","","","","","","",""
"","image-keyboard-response","107","172999","0.0-159.0","30H4UDGLT34B5MS245662QXWE6JMP2","A3R97T5D3RR9JX","3RBI0I35XEP26UEZY8S8UZLEA1IY3E","","338.5","img/food2.png","76","340.40000000037253","3","0","false","3","2","1,0.5,0,1,0.5,0,0.5,0,1","0.5,0,1,0.5,0,1,0,1,0.5","2",""
"","html-keyboard-response","108","173302","0.0-160.0","30H4UDGLT34B5MS245662QXWE6JMP2","A3R97T5D3RR9JX","3RBI0I35XEP26UEZY8S8UZLEA1IY3E","","null","<img src=""img/food2.png"" style=""width:200px;border:14px solid red;"">","null","","","","","","","","","",""
"","image-keyboard-response","109","173337","0.0-162.0","30H4UDGLT34B5MS245662QXWE6JMP2","A3R97T5D3RR9JX","3RBI0I35XEP26UEZY8S8UZLEA1IY3E","","32.59999999962747","img/food2.png","75","34.09999999962747","2","1","false","3","2","1,0.5,0,1,0.5,0,0.5,0,1","0.5,0,1,0.5,0,1,0,1,0.5","2",""
"","html-keyboard-response","110","173639","0.0-163.0","30H4UDGLT34B5MS245662QXWE6JMP2","A3R97T5D3RR9JX","3RBI0I35XEP26UEZY8S8UZLEA1IY3E","","null","<img src=""img/food2.png"" style=""width:200px; border:14px solid green;"">","null","","","","","","","","","",""
"","image-keyboard-response","111","173703","0.0-165.0","30H4UDGLT34B5MS245662QXWE6JMP2","A3R97T5D3RR9JX","3RBI0I35XEP26UEZY8S8UZLEA1IY3E","","62.200000000186265","img/food4.png","75","63.700000000186265","2","0","false","2","2","1,0.5,0,1,0.5,0,0.5,0,1","0.5,0,1,0.5,0,1,0,1,0.5","2",""
"","html-keyboard-response","112","174006","0.0-166.0","30H4UDGLT34B5MS245662QXWE6JMP2","A3R97T5D3RR9JX","3RBI0I35XEP26UEZY8S8UZLEA1IY3E","","null","<img src=""img/food4.png"" style=""width:200px;border:14px solid red;"">","null","","","","","","","","","",""
"","image-keyboard-response","113","174133","0.0-168.0","30H4UDGLT34B5MS245662QXWE6JMP2","A3R97T5D3RR9JX","3RBI0I35XEP26UEZY8S8UZLEA1IY3E","","124.09999999962747","img/food3.png","75","126","2","0","false","1","2","1,0.5,0,1,0.5,0,0.5,0,1","0.5,0,1,0.5,0,1,0,1,0.5","2",""
"","html-keyboard-response","114","174436","0.0-169.0","30H4UDGLT34B5MS245662QXWE6JMP2","A3R97T5D3RR9JX","3RBI0I35XEP26UEZY8S8UZLEA1IY3E","","null","<img src=""img/food3.png"" style=""width:200px;border:14px solid red;"">","null","","","","","","","","","",""
"","image-keyboard-response","115","174515","0.0-171.0","30H4UDGLT34B5MS245662QXWE6JMP2","A3R97T5D3RR9JX","3RBI0I35XEP26UEZY8S8UZLEA1IY3E","","77.6000000005588","img/food4.png","76","78.90000000037253","3","1","false","2","2","1,0.5,0,1,0.5,0,0.5,0,1","0.5,0,1,0.5,0,1,0,1,0.5","2",""
"","html-keyboard-response","116","174817","0.0-172.0","30H4UDGLT34B5MS245662QXWE6JMP2","A3R97T5D3RR9JX","3RBI0I35XEP26UEZY8S8UZLEA1IY3E","","null","<img src=""img/food4.png"" style=""width:200px; border:14px solid green;"">","null","","","","","","","","","",""
"","image-keyboard-response","117","174870","0.0-174.0","30H4UDGLT34B5MS245662QXWE6JMP2","A3R97T5D3RR9JX","3RBI0I35XEP26UEZY8S8UZLEA1IY3E","","50.90000000037253","img/food3.png","75","52.59999999962747","2","0","false","1","2","1,0.5,0,1,0.5,0,0.5,0,1","0.5,0,1,0.5,0,1,0,1,0.5","2",""
"","html-keyboard-response","118","175173","0.0-175.0","30H4UDGLT34B5MS245662QXWE6JMP2","A3R97T5D3RR9JX","3RBI0I35XEP26UEZY8S8UZLEA1IY3E","","null","<img src=""img/food3.png"" style=""width:200px;border:14px solid red;"">","null","","","","","","","","","",""
"","image-keyboard-response","119","175228","0.0-177.0","30H4UDGLT34B5MS245662QXWE6JMP2","A3R97T5D3RR9JX","3RBI0I35XEP26UEZY8S8UZLEA1IY3E","","52.59999999962747","img/food2.png","76","55.200000000186265","3","0","false","3","2","1,0.5,0,1,0.5,0,0.5,0,1","0.5,0,1,0.5,0,1,0,1,0.5","2",""
"","html-keyboard-response","120","175531","0.0-178.0","30H4UDGLT34B5MS245662QXWE6JMP2","A3R97T5D3RR9JX","3RBI0I35XEP26UEZY8S8UZLEA1IY3E","","null","<img src=""img/food2.png"" style=""width:200px;border:14px solid red;"">","null","","","","","","","","","",""
"","image-keyboard-response","121","175625","0.0-180.0","30H4UDGLT34B5MS245662QXWE6JMP2","A3R97T5D3RR9JX","3RBI0I35XEP26UEZY8S8UZLEA1IY3E","","91.1000000005588","img/food3.png","75","93.20000000018626","2","0","false","1","2","1,0.5,0,1,0.5,0,0.5,0,1","0.5,0,1,0.5,0,1,0,1,0.5","2",""
"","html-keyboard-response","122","175928","0.0-181.0","30H4UDGLT34B5MS245662QXWE6JMP2","A3R97T5D3RR9JX","3RBI0I35XEP26UEZY8S8UZLEA1IY3E","","null","<img src=""img/food3.png"" style=""width:200px;border:14px solid red;"">","null","","","","","","","","","",""
"","image-keyboard-response","123","175939","0.0-183.0","30H4UDGLT34B5MS245662QXWE6JMP2","A3R97T5D3RR9JX","3RBI0I35XEP26UEZY8S8UZLEA1IY3E","","7.900000000372529","img/food4.png","74","9.899999999441206","1","1","false","2","2","1,0.5,0,1,0.5,0,0.5,0,1","0.5,0,1,0.5,0,1,0,1,0.5","2",""
"","html-keyboard-response","124","176243","0.0-184.0","30H4UDGLT34B5MS245662QXWE6JMP2","A3R97T5D3RR9JX","3RBI0I35XEP26UEZY8S8UZLEA1IY3E","","null","<img src=""img/food4.png"" style=""width:200px; border:14px solid green;"">","null","","","","","","","","","",""
"","image-keyboard-response","125","176402","0.0-186.0","30H4UDGLT34B5MS245662QXWE6JMP2","A3R97T5D3RR9JX","3RBI0I35XEP26UEZY8S8UZLEA1IY3E","","156.3999999994412","img/food3.png","75","158.20000000018626","2","0","false","1","2","1,0.5,0,1,0.5,0,0.5,0,1","0.5,0,1,0.5,0,1,0,1,0.5","2",""
"","html-keyboard-response","126","176705","0.0-187.0","30H4UDGLT34B5MS245662QXWE6JMP2","A3R97T5D3RR9JX","3RBI0I35XEP26UEZY8S8UZLEA1IY3E","","null","<img src=""img/food3.png"" style=""width:200px;border:14px solid red;"">","null","","","","","","","","","",""
"","image-keyboard-response","127","176780","0.0-189.0","30H4UDGLT34B5MS245662QXWE6JMP2","A3R97T5D3RR9JX","3RBI0I35XEP26UEZY8S8UZLEA1IY3E","","71.1000000005588","img/food2.png","75","73.1000000005588","2","1","false","3","2","1,0.5,0,1,0.5,0,0.5,0,1","0.5,0,1,0.5,0,1,0,1,0.5","2",""
"","html-keyboard-response","128","177082","0.0-190.0","30H4UDGLT34B5MS245662QXWE6JMP2","A3R97T5D3RR9JX","3RBI0I35XEP26UEZY8S8UZLEA1IY3E","","null","<img src=""img/food2.png"" style=""width:200px; border:14px solid green;"">","null","","","","","","","","","",""
"","image-keyboard-response","129","177136","0.0-192.0","30H4UDGLT34B5MS245662QXWE6JMP2","A3R97T5D3RR9JX","3RBI0I35XEP26UEZY8S8UZLEA1IY3E","","51.299999999813735","img/food2.png","76","52.799999999813735","3","1","false","3","2","1,0.5,0,1,0.5,0,0.5,0,1","0.5,0,1,0.5,0,1,0,1,0.5","2",""
"","html-keyboard-response","130","177439","0.0-193.0","30H4UDGLT34B5MS245662QXWE6JMP2","A3R97T5D3RR9JX","3RBI0I35XEP26UEZY8S8UZLEA1IY3E","","null","<img src=""img/food2.png"" style=""width:200px; border:14px solid green;"">","null","","","","","","","","","",""
"","image-keyboard-response","131","177507","0.0-195.0","30H4UDGLT34B5MS245662QXWE6JMP2","A3R97T5D3RR9JX","3RBI0I35XEP26UEZY8S8UZLEA1IY3E","","64.20000000018626","img/food4.png","75","66.59999999962747","2","0","false","2","2","1,0.5,0,1,0.5,0,0.5,0,1","0.5,0,1,0.5,0,1,0,1,0.5","2",""
"","html-keyboard-response","132","177809","0.0-196.0","30H4UDGLT34B5MS245662QXWE6JMP2","A3R97T5D3RR9JX","3RBI0I35XEP26UEZY8S8UZLEA1IY3E","","null","<img src=""img/food4.png"" style=""width:200px;border:14px solid red;"">","null","","","","","","","","","",""
"","image-keyboard-response","133","177858","0.0-198.0","30H4UDGLT34B5MS245662QXWE6JMP2","A3R97T5D3RR9JX","3RBI0I35XEP26UEZY8S8UZLEA1IY3E","","46.60000000055879","img/food3.png","76","48.09999999962747","3","1","false","1","2","1,0.5,0,1,0.5,0,0.5,0,1","0.5,0,1,0.5,0,1,0,1,0.5","2",""
"","html-keyboard-response","134","178161","0.0-199.0","30H4UDGLT34B5MS245662QXWE6JMP2","A3R97T5D3RR9JX","3RBI0I35XEP26UEZY8S8UZLEA1IY3E","","null","<img src=""img/food3.png"" style=""width:200px; border:14px solid green;"">","null","","","","","","","","","",""
"","image-keyboard-response","135","178271","0.0-201.0","30H4UDGLT34B5MS245662QXWE6JMP2","A3R97T5D3RR9JX","3RBI0I35XEP26UEZY8S8UZLEA1IY3E","","106.70000000018626","img/food2.png","76","108.59999999962747","3","1","false","3","2","1,0.5,0,1,0.5,0,0.5,0,1","0.5,0,1,0.5,0,1,0,1,0.5","2",""
"","html-keyboard-response","136","178574","0.0-202.0","30H4UDGLT34B5MS245662QXWE6JMP2","A3R97T5D3RR9JX","3RBI0I35XEP26UEZY8S8UZLEA1IY3E","","null","<img src=""img/food2.png"" style=""width:200px; border:14px solid green;"">","null","","","","","","","","","",""
"","image-keyboard-response","137","178630","0.0-204.0","30H4UDGLT34B5MS245662QXWE6JMP2","A3R97T5D3RR9JX","3RBI0I35XEP26UEZY8S8UZLEA1IY3E","","53.39999999944121","img/food2.png","75","55.200000000186265","2","1","false","3","2","1,0.5,0,1,0.5,0,0.5,0,1","0.5,0,1,0.5,0,1,0,1,0.5","2",""
"","html-keyboard-response","138","178932","0.0-205.0","30H4UDGLT34B5MS245662QXWE6JMP2","A3R97T5D3RR9JX","3RBI0I35XEP26UEZY8S8UZLEA1IY3E","","null","<img src=""img/food2.png"" style=""width:200px; border:14px solid green;"">","null","","","","","","","","","",""
"","image-keyboard-response","139","179057","0.0-207.0","30H4UDGLT34B5MS245662QXWE6JMP2","A3R97T5D3RR9JX","3RBI0I35XEP26UEZY8S8UZLEA1IY3E","","122.70000000018626","img/food4.png","76","124.70000000018626","3","1","false","2","2","1,0.5,0,1,0.5,0,0.5,0,1","0.5,0,1,0.5,0,1,0,1,0.5","2",""
"","html-keyboard-response","140","179360","0.0-208.0","30H4UDGLT34B5MS245662QXWE6JMP2","A3R97T5D3RR9JX","3RBI0I35XEP26UEZY8S8UZLEA1IY3E","","null","<img src=""img/food4.png"" style=""width:200px; border:14px solid green;"">","null","","","","","","","","","",""
"","image-keyboard-response","141","179385","0.0-210.0","30H4UDGLT34B5MS245662QXWE6JMP2","A3R97T5D3RR9JX","3RBI0I35XEP26UEZY8S8UZLEA1IY3E","","23","img/food4.png","76","24.600000000558794","3","1","false","2","2","1,0.5,0,1,0.5,0,0.5,0,1","0.5,0,1,0.5,0,1,0,1,0.5","2",""
"","html-keyboard-response","142","179688","0.0-211.0","30H4UDGLT34B5MS245662QXWE6JMP2","A3R97T5D3RR9JX","3RBI0I35XEP26UEZY8S8UZLEA1IY3E","","null","<img src=""img/food4.png"" style=""width:200px; border:14px solid green;"">","null","","","","","","","","","",""
"","image-keyboard-response","143","179782","0.0-213.0","30H4UDGLT34B5MS245662QXWE6JMP2","A3R97T5D3RR9JX","3RBI0I35XEP26UEZY8S8UZLEA1IY3E","","91.80000000074506","img/food2.png","74","93.70000000018626","1","0","false","3","2","1,0.5,0,1,0.5,0,0.5,0,1","0.5,0,1,0.5,0,1,0,1,0.5","2",""
"","html-keyboard-response","144","180086","0.0-214.0","30H4UDGLT34B5MS245662QXWE6JMP2","A3R97T5D3RR9JX","3RBI0I35XEP26UEZY8S8UZLEA1IY3E","","null","<img src=""img/food2.png"" style=""width:200px;border:14px solid red;"">","null","","","","","","","","","",""
"","image-keyboard-response","145","180101","0.0-216.0","30H4UDGLT34B5MS245662QXWE6JMP2","A3R97T5D3RR9JX","3RBI0I35XEP26UEZY8S8UZLEA1IY3E","","11.099999999627471","img/food2.png","74","14.900000000372529","1","0","false","3","2","1,0.5,0,1,0.5,0,0.5,0,1","0.5,0,1,0.5,0,1,0,1,0.5","2",""
"","html-keyboard-response","146","180405","0.0-217.0","30H4UDGLT34B5MS245662QXWE6JMP2","A3R97T5D3RR9JX","3RBI0I35XEP26UEZY8S8UZLEA1IY3E","","null","<img src=""img/food2.png"" style=""width:200px;border:14px solid red;"">","null","","","","","","","","","",""
"","image-keyboard-response","147","180453","0.0-219.0","30H4UDGLT34B5MS245662QXWE6JMP2","A3R97T5D3RR9JX","3RBI0I35XEP26UEZY8S8UZLEA1IY3E","","46","img/food4.png","74","47.90000000037253","1","1","false","2","2","1,0.5,0,1,0.5,0,0.5,0,1","0.5,0,1,0.5,0,1,0,1,0.5","2",""
"","html-keyboard-response","148","180756","0.0-220.0","30H4UDGLT34B5MS245662QXWE6JMP2","A3R97T5D3RR9JX","3RBI0I35XEP26UEZY8S8UZLEA1IY3E","","null","<img src=""img/food4.png"" style=""width:200px; border:14px solid green;"">","null","","","","","","","","","",""
"","image-keyboard-response","149","180867","0.0-222.0","30H4UDGLT34B5MS245662QXWE6JMP2","A3R97T5D3RR9JX","3RBI0I35XEP26UEZY8S8UZLEA1IY3E","","108.79999999981374","img/food2.png","74","111","1","0","false","3","2","1,0.5,0,1,0.5,0,0.5,0,1","0.5,0,1,0.5,0,1,0,1,0.5","2",""
"","html-keyboard-response","150","181171","0.0-223.0","30H4UDGLT34B5MS245662QXWE6JMP2","A3R97T5D3RR9JX","3RBI0I35XEP26UEZY8S8UZLEA1IY3E","","null","<img src=""img/food2.png"" style=""width:200px;border:14px solid red;"">","null","","","","","","","","","",""
"","image-keyboard-response","151","181243","0.0-225.0","30H4UDGLT34B5MS245662QXWE6JMP2","A3R97T5D3RR9JX","3RBI0I35XEP26UEZY8S8UZLEA1IY3E","","69.59999999962747","img/food2.png","74","71.20000000018626","1","0","false","3","2","1,0.5,0,1,0.5,0,0.5,0,1","0.5,0,1,0.5,0,1,0,1,0.5","2",""
"","html-keyboard-response","152","181545","0.0-226.0","30H4UDGLT34B5MS245662QXWE6JMP2","A3R97T5D3RR9JX","3RBI0I35XEP26UEZY8S8UZLEA1IY3E","","null","<img src=""img/food2.png"" style=""width:200px;border:14px solid red;"">","null","","","","","","","","","",""
"","image-keyboard-response","153","181659","0.0-228.0","30H4UDGLT34B5MS245662QXWE6JMP2","A3R97T5D3RR9JX","3RBI0I35XEP26UEZY8S8UZLEA1IY3E","","111","img/food3.png","74","113","1","1","false","1","2","1,0.5,0,1,0.5,0,0.5,0,1","0.5,0,1,0.5,0,1,0,1,0.5","2",""
"","html-keyboard-response","154","181962","0.0-229.0","30H4UDGLT34B5MS245662QXWE6JMP2","A3R97T5D3RR9JX","3RBI0I35XEP26UEZY8S8UZLEA1IY3E","","null","<img src=""img/food3.png"" style=""width:200px; border:14px solid green;"">","null","","","","","","","","","",""
"","image-keyboard-response","155","181994","0.0-231.0","30H4UDGLT34B5MS245662QXWE6JMP2","A3R97T5D3RR9JX","3RBI0I35XEP26UEZY8S8UZLEA1IY3E","","29.90000000037253","img/food3.png","74","31.90000000037253","1","1","false","1","2","1,0.5,0,1,0.5,0,0.5,0,1","0.5,0,1,0.5,0,1,0,1,0.5","2",""
"","html-keyboard-response","156","182297","0.0-232.0","30H4UDGLT34B5MS245662QXWE6JMP2","A3R97T5D3RR9JX","3RBI0I35XEP26UEZY8S8UZLEA1IY3E","","null","<img src=""img/food3.png"" style=""width:200px; border:14px solid green;"">","null","","","","","","","","","",""
"","image-keyboard-response","157","182467","0.0-234.0","30H4UDGLT34B5MS245662QXWE6JMP2","A3R97T5D3RR9JX","3RBI0I35XEP26UEZY8S8UZLEA1IY3E","","167.30000000074506","img/food4.png","74","169.1000000005588","1","0","false","2","2","1,0.5,0,1,0.5,0,0.5,0,1","0.5,0,1,0.5,0,1,0,1,0.5","2",""
"","html-keyboard-response","158","182770","0.0-235.0","30H4UDGLT34B5MS245662QXWE6JMP2","A3R97T5D3RR9JX","3RBI0I35XEP26UEZY8S8UZLEA1IY3E","","null","<img src=""img/food4.png"" style=""width:200px;border:14px solid red;"">","null","","","","","","","","","",""
"","image-keyboard-response","159","182789","0.0-237.0","30H4UDGLT34B5MS245662QXWE6JMP2","A3R97T5D3RR9JX","3RBI0I35XEP26UEZY8S8UZLEA1IY3E","","16.299999999813735","img/food4.png","74","18.09999999962747","1","1","false","2","2","1,0.5,0,1,0.5,0,0.5,0,1","0.5,0,1,0.5,0,1,0,1,0.5","2",""
"","html-keyboard-response","160","183093","0.0-238.0","30H4UDGLT34B5MS245662QXWE6JMP2","A3R97T5D3RR9JX","3RBI0I35XEP26UEZY8S8UZLEA1IY3E","","null","<img src=""img/food4.png"" style=""width:200px; border:14px solid green;"">","null","","","","","","","","","",""
"","image-keyboard-response","161","183249","0.0-240.0","30H4UDGLT34B5MS245662QXWE6JMP2","A3R97T5D3RR9JX","3RBI0I35XEP26UEZY8S8UZLEA1IY3E","","153.90000000037253","img/food3.png","74","155.70000000018626","1","1","false","1","2","1,0.5,0,1,0.5,0,0.5,0,1","0.5,0,1,0.5,0,1,0,1,0.5","2",""
"","html-keyboard-response","162","183552","0.0-241.0","30H4UDGLT34B5MS245662QXWE6JMP2","A3R97T5D3RR9JX","3RBI0I35XEP26UEZY8S8UZLEA1IY3E","","null","<img src=""img/food3.png"" style=""width:200px; border:14px solid green;"">","null","","","","","","","","","",""
"","image-keyboard-response","163","183628","0.0-243.0","30H4UDGLT34B5MS245662QXWE6JMP2","A3R97T5D3RR9JX","3RBI0I35XEP26UEZY8S8UZLEA1IY3E","","73.69999999925494","img/food2.png","74","75.5","1","0","false","3","2","1,0.5,0,1,0.5,0,0.5,0,1","0.5,0,1,0.5,0,1,0,1,0.5","2",""
"","html-keyboard-response","164","183931","0.0-244.0","30H4UDGLT34B5MS245662QXWE6JMP2","A3R97T5D3RR9JX","3RBI0I35XEP26UEZY8S8UZLEA1IY3E","","null","<img src=""img/food2.png"" style=""width:200px;border:14px solid red;"">","null","","","","","","","","","",""
"","image-keyboard-response","165","184037","0.0-246.0","30H4UDGLT34B5MS245662QXWE6JMP2","A3R97T5D3RR9JX","3RBI0I35XEP26UEZY8S8UZLEA1IY3E","","102.69999999925494","img/food2.png","74","104.59999999962747","1","0","false","3","2","1,0.5,0,1,0.5,0,0.5,0,1","0.5,0,1,0.5,0,1,0,1,0.5","2",""
"","html-keyboard-response","166","184351","0.0-247.0","30H4UDGLT34B5MS245662QXWE6JMP2","A3R97T5D3RR9JX","3RBI0I35XEP26UEZY8S8UZLEA1IY3E","","null","<img src=""img/food2.png"" style=""width:200px;border:14px solid red;"">","null","","","","","","","","","",""
"","image-keyboard-response","167","184481","0.0-249.0","30H4UDGLT34B5MS245662QXWE6JMP2","A3R97T5D3RR9JX","3RBI0I35XEP26UEZY8S8UZLEA1IY3E","","126.70000000018626","img/food4.png","74","128.90000000037253","1","0","false","2","2","1,0.5,0,1,0.5,0,0.5,0,1","0.5,0,1,0.5,0,1,0,1,0.5","2",""
"","html-keyboard-response","168","184783","0.0-250.0","30H4UDGLT34B5MS245662QXWE6JMP2","A3R97T5D3RR9JX","3RBI0I35XEP26UEZY8S8UZLEA1IY3E","","null","<img src=""img/food4.png"" style=""width:200px;border:14px solid red;"">","null","","","","","","","","","",""
"","image-keyboard-response","169","184854","0.0-252.0","30H4UDGLT34B5MS245662QXWE6JMP2","A3R97T5D3RR9JX","3RBI0I35XEP26UEZY8S8UZLEA1IY3E","","68.29999999981374","img/food3.png","74","70.20000000018626","1","0","false","1","2","1,0.5,0,1,0.5,0,0.5,0,1","0.5,0,1,0.5,0,1,0,1,0.5","2",""
"","html-keyboard-response","170","185157","0.0-253.0","30H4UDGLT34B5MS245662QXWE6JMP2","A3R97T5D3RR9JX","3RBI0I35XEP26UEZY8S8UZLEA1IY3E","","null","<img src=""img/food3.png"" style=""width:200px;border:14px solid red;"">","null","","","","","","","","","",""
"","image-keyboard-response","171","185245","0.0-255.0","30H4UDGLT34B5MS245662QXWE6JMP2","A3R97T5D3RR9JX","3RBI0I35XEP26UEZY8S8UZLEA1IY3E","","85.29999999981374","img/food3.png","74","86.79999999981374","1","0","false","1","2","1,0.5,0,1,0.5,0,0.5,0,1","0.5,0,1,0.5,0,1,0,1,0.5","2",""
"","html-keyboard-response","172","185547","0.0-256.0","30H4UDGLT34B5MS245662QXWE6JMP2","A3R97T5D3RR9JX","3RBI0I35XEP26UEZY8S8UZLEA1IY3E","","null","<img src=""img/food3.png"" style=""width:200px;border:14px solid red;"">","null","","","","","","","","","",""
"","image-keyboard-response","173","185567","0.0-258.0","30H4UDGLT34B5MS245662QXWE6JMP2","A3R97T5D3RR9JX","3RBI0I35XEP26UEZY8S8UZLEA1IY3E","","17.200000000186265","img/food4.png","75","18.90000000037253","2","0","false","2","2","1,0.5,0,1,0.5,0,0.5,0,1","0.5,0,1,0.5,0,1,0,1,0.5","2",""
"","html-keyboard-response","174","185871","0.0-259.0","30H4UDGLT34B5MS245662QXWE6JMP2","A3R97T5D3RR9JX","3RBI0I35XEP26UEZY8S8UZLEA1IY3E","","null","<img src=""img/food4.png"" style=""width:200px;border:14px solid red;"">","null","","","","","","","","","",""
"","image-keyboard-response","175","186194","0.0-261.0","30H4UDGLT34B5MS245662QXWE6JMP2","A3R97T5D3RR9JX","3RBI0I35XEP26UEZY8S8UZLEA1IY3E","","320.3999999994412","img/food4.png","76","322.5","3","1","false","2","2","1,0.5,0,1,0.5,0,0.5,0,1","0.5,0,1,0.5,0,1,0,1,0.5","2",""
"","html-keyboard-response","176","186497","0.0-262.0","30H4UDGLT34B5MS245662QXWE6JMP2","A3R97T5D3RR9JX","3RBI0I35XEP26UEZY8S8UZLEA1IY3E","","null","<img src=""img/food4.png"" style=""width:200px; border:14px solid green;"">","null","","","","","","","","","",""
"","image-keyboard-response","177","186665","0.0-264.0","30H4UDGLT34B5MS245662QXWE6JMP2","A3R97T5D3RR9JX","3RBI0I35XEP26UEZY8S8UZLEA1IY3E","","165.40000000037253","img/food4.png","76","167.5","3","1","false","2","2","1,0.5,0,1,0.5,0,0.5,0,1","0.5,0,1,0.5,0,1,0,1,0.5","2",""
"","html-keyboard-response","178","186968","0.0-265.0","30H4UDGLT34B5MS245662QXWE6JMP2","A3R97T5D3RR9JX","3RBI0I35XEP26UEZY8S8UZLEA1IY3E","","null","<img src=""img/food4.png"" style=""width:200px; border:14px solid green;"">","null","","","","","","","","","",""
"","image-keyboard-response","179","187079","0.0-267.0","30H4UDGLT34B5MS245662QXWE6JMP2","A3R97T5D3RR9JX","3RBI0I35XEP26UEZY8S8UZLEA1IY3E","","108.70000000018626","img/food3.png","76","110.59999999962747","3","1","false","1","2","1,0.5,0,1,0.5,0,0.5,0,1","0.5,0,1,0.5,0,1,0,1,0.5","2",""
"","html-keyboard-response","180","187383","0.0-268.0","30H4UDGLT34B5MS245662QXWE6JMP2","A3R97T5D3RR9JX","3RBI0I35XEP26UEZY8S8UZLEA1IY3E","","null","<img src=""img/food3.png"" style=""width:200px; border:14px solid green;"">","null","","","","","","","","","",""
"","image-keyboard-response","181","187420","0.0-270.0","30H4UDGLT34B5MS245662QXWE6JMP2","A3R97T5D3RR9JX","3RBI0I35XEP26UEZY8S8UZLEA1IY3E","","34.299999999813735","img/food2.png","75","35.90000000037253","2","1","false","3","2","1,0.5,0,1,0.5,0,0.5,0,1","0.5,0,1,0.5,0,1,0,1,0.5","2",""
"","html-keyboard-response","182","187722","0.0-271.0","30H4UDGLT34B5MS245662QXWE6JMP2","A3R97T5D3RR9JX","3RBI0I35XEP26UEZY8S8UZLEA1IY3E","","null","<img src=""img/food2.png"" style=""width:200px; border:14px solid green;"">","null","","","","","","","","","",""
"","instructions","183","193947","0.0-273.0","30H4UDGLT34B5MS245662QXWE6JMP2","A3R97T5D3RR9JX","3RBI0I35XEP26UEZY8S8UZLEA1IY3E","[{""page_index"":0,""viewing_time"":4904},{""page_index"":1,""viewing_time"":1318.8999999994412}]","6223.299999999814","","","","","","","","","","","",""
"","image-keyboard-response","184","194699","0.0-274.0","30H4UDGLT34B5MS245662QXWE6JMP2","A3R97T5D3RR9JX","3RBI0I35XEP26UEZY8S8UZLEA1IY3E","","750.5999999996275","img/food6.png","76","752.4000000003725","3","1","","1","1","1,0.5,0,1,0.5,0,0.5,0,1","0,1,0.5,0,1,0.5,1,0.5,0","3",""
"","html-keyboard-response","185","195003","0.0-275.0","30H4UDGLT34B5MS245662QXWE6JMP2","A3R97T5D3RR9JX","3RBI0I35XEP26UEZY8S8UZLEA1IY3E","","null","<img src=""img/food6.png"" style=""width:200px; border:14px solid green;"">","null","","","","","","","","","",""
"","image-keyboard-response","186","195426","0.0-276.0","30H4UDGLT34B5MS245662QXWE6JMP2","A3R97T5D3RR9JX","3RBI0I35XEP26UEZY8S8UZLEA1IY3E","","420.40000000037253","img/food5.png","76","422.40000000037253","3","0","","3","1","1,0.5,0,1,0.5,0,0.5,0,1","0,1,0.5,0,1,0.5,1,0.5,0","3",""
"","html-keyboard-response","187","195730","0.0-277.0","30H4UDGLT34B5MS245662QXWE6JMP2","A3R97T5D3RR9JX","3RBI0I35XEP26UEZY8S8UZLEA1IY3E","","null","<img src=""img/food5.png"" style=""width:200px;border:14px solid red;"">","null","","","","","","","","","",""
"","image-keyboard-response","188","195963","0.0-278.0","30H4UDGLT34B5MS245662QXWE6JMP2","A3R97T5D3RR9JX","3RBI0I35XEP26UEZY8S8UZLEA1IY3E","","231","img/food5.png","75","233.09999999962747","2","1","","3","1","1,0.5,0,1,0.5,0,0.5,0,1","0,1,0.5,0,1,0.5,1,0.5,0","3",""
"","html-keyboard-response","189","196273","0.0-279.0","30H4UDGLT34B5MS245662QXWE6JMP2","A3R97T5D3RR9JX","3RBI0I35XEP26UEZY8S8UZLEA1IY3E","","null","<img src=""img/food5.png"" style=""width:200px; border:14px solid green;"">","null","","","","","","","","","",""
"","image-keyboard-response","190","196520","0.0-280.0","30H4UDGLT34B5MS245662QXWE6JMP2","A3R97T5D3RR9JX","3RBI0I35XEP26UEZY8S8UZLEA1IY3E","","245.09999999962747","img/food5.png","74","246.69999999925494","1","1","","3","1","1,0.5,0,1,0.5,0,0.5,0,1","0,1,0.5,0,1,0.5,1,0.5,0","3",""
"","html-keyboard-response","191","196824","0.0-281.0","30H4UDGLT34B5MS245662QXWE6JMP2","A3R97T5D3RR9JX","3RBI0I35XEP26UEZY8S8UZLEA1IY3E","","null","<img src=""img/food5.png"" style=""width:200px; border:14px solid green;"">","null","","","","","","","","","",""
"","image-keyboard-response","192","197324","0.0-282.0","30H4UDGLT34B5MS245662QXWE6JMP2","A3R97T5D3RR9JX","3RBI0I35XEP26UEZY8S8UZLEA1IY3E","","497.90000000037253","img/food1.png","74","499.6000000005588","1","0","","2","1","1,0.5,0,1,0.5,0,0.5,0,1","0,1,0.5,0,1,0.5,1,0.5,0","3",""
"","html-keyboard-response","193","197627","0.0-283.0","30H4UDGLT34B5MS245662QXWE6JMP2","A3R97T5D3RR9JX","3RBI0I35XEP26UEZY8S8UZLEA1IY3E","","null","<img src=""img/food1.png"" style=""width:200px;border:14px solid red;"">","null","","","","","","","","","",""
"","image-keyboard-response","194","198211","0.0-284.0","30H4UDGLT34B5MS245662QXWE6JMP2","A3R97T5D3RR9JX","3RBI0I35XEP26UEZY8S8UZLEA1IY3E","","581.8000000007451","img/food1.png","74","583.7999999998137","1","0","","2","1","1,0.5,0,1,0.5,0,0.5,0,1","0,1,0.5,0,1,0.5,1,0.5,0","3",""
"","html-keyboard-response","195","198515","0.0-285.0","30H4UDGLT34B5MS245662QXWE6JMP2","A3R97T5D3RR9JX","3RBI0I35XEP26UEZY8S8UZLEA1IY3E","","null","<img src=""img/food1.png"" style=""width:200px;border:14px solid red;"">","null","","","","","","","","","",""
"","image-keyboard-response","196","198524","0.0-286.0","30H4UDGLT34B5MS245662QXWE6JMP2","A3R97T5D3RR9JX","3RBI0I35XEP26UEZY8S8UZLEA1IY3E","","6.5","img/food5.png","75","9","2","1","","3","1","1,0.5,0,1,0.5,0,0.5,0,1","0,1,0.5,0,1,0.5,1,0.5,0","3",""
"","html-keyboard-response","197","198828","0.0-287.0","30H4UDGLT34B5MS245662QXWE6JMP2","A3R97T5D3RR9JX","3RBI0I35XEP26UEZY8S8UZLEA1IY3E","","null","<img src=""img/food5.png"" style=""width:200px; border:14px solid green;"">","null","","","","","","","","","",""
"","image-keyboard-response","198","198923","0.0-288.0","30H4UDGLT34B5MS245662QXWE6JMP2","A3R97T5D3RR9JX","3RBI0I35XEP26UEZY8S8UZLEA1IY3E","","91.69999999925494","img/food1.png","75","93.6000000005588","2","1","","2","1","1,0.5,0,1,0.5,0,0.5,0,1","0,1,0.5,0,1,0.5,1,0.5,0","3",""
"","html-keyboard-response","199","199225","0.0-289.0","30H4UDGLT34B5MS245662QXWE6JMP2","A3R97T5D3RR9JX","3RBI0I35XEP26UEZY8S8UZLEA1IY3E","","null","<img src=""img/food1.png"" style=""width:200px; border:14px solid green;"">","null","","","","","","","","","",""
"","image-keyboard-response","200","199349","0.0-290.0","30H4UDGLT34B5MS245662QXWE6JMP2","A3R97T5D3RR9JX","3RBI0I35XEP26UEZY8S8UZLEA1IY3E","","121.29999999981374","img/food6.png","75","123.29999999981374","2","1","","1","1","1,0.5,0,1,0.5,0,0.5,0,1","0,1,0.5,0,1,0.5,1,0.5,0","3",""
"","html-keyboard-response","201","199652","0.0-291.0","30H4UDGLT34B5MS245662QXWE6JMP2","A3R97T5D3RR9JX","3RBI0I35XEP26UEZY8S8UZLEA1IY3E","","null","<img src=""img/food6.png"" style=""width:200px; border:14px solid green;"">","null","","","","","","","","","",""
"","image-keyboard-response","202","199719","0.0-292.0","30H4UDGLT34B5MS245662QXWE6JMP2","A3R97T5D3RR9JX","3RBI0I35XEP26UEZY8S8UZLEA1IY3E","","64.59999999962747","img/food1.png","76","66.6000000005588","3","1","","2","1","1,0.5,0,1,0.5,0,0.5,0,1","0,1,0.5,0,1,0.5,1,0.5,0","3",""
"","html-keyboard-response","203","200023","0.0-293.0","30H4UDGLT34B5MS245662QXWE6JMP2","A3R97T5D3RR9JX","3RBI0I35XEP26UEZY8S8UZLEA1IY3E","","null","<img src=""img/food1.png"" style=""width:200px; border:14px solid green;"">","null","","","","","","","","","",""
"","image-keyboard-response","204","200130","0.0-294.0","30H4UDGLT34B5MS245662QXWE6JMP2","A3R97T5D3RR9JX","3RBI0I35XEP26UEZY8S8UZLEA1IY3E","","104.69999999925494","img/food1.png","76","106.5","3","1","","2","1","1,0.5,0,1,0.5,0,0.5,0,1","0,1,0.5,0,1,0.5,1,0.5,0","3",""
"","html-keyboard-response","205","200433","0.0-295.0","30H4UDGLT34B5MS245662QXWE6JMP2","A3R97T5D3RR9JX","3RBI0I35XEP26UEZY8S8UZLEA1IY3E","","null","<img src=""img/food1.png"" style=""width:200px; border:14px solid green;"">","null","","","","","","","","","",""
"","image-keyboard-response","206","200579","0.0-296.0","30H4UDGLT34B5MS245662QXWE6JMP2","A3R97T5D3RR9JX","3RBI0I35XEP26UEZY8S8UZLEA1IY3E","","143.90000000037253","img/food5.png","76","146","3","0","","3","1","1,0.5,0,1,0.5,0,0.5,0,1","0,1,0.5,0,1,0.5,1,0.5,0","3",""
"","html-keyboard-response","207","200883","0.0-297.0","30H4UDGLT34B5MS245662QXWE6JMP2","A3R97T5D3RR9JX","3RBI0I35XEP26UEZY8S8UZLEA1IY3E","","null","<img src=""img/food5.png"" style=""width:200px;border:14px solid red;"">","null","","","","","","","","","",""
"","image-keyboard-response","208","200931","0.0-298.0","30H4UDGLT34B5MS245662QXWE6JMP2","A3R97T5D3RR9JX","3RBI0I35XEP26UEZY8S8UZLEA1IY3E","","45.700000000186265","img/food1.png","75","47.200000000186265","2","1","","2","1","1,0.5,0,1,0.5,0,0.5,0,1","0,1,0.5,0,1,0.5,1,0.5,0","3",""
"","html-keyboard-response","209","201233","0.0-299.0","30H4UDGLT34B5MS245662QXWE6JMP2","A3R97T5D3RR9JX","3RBI0I35XEP26UEZY8S8UZLEA1IY3E","","null","<img src=""img/food1.png"" style=""width:200px; border:14px solid green;"">","null","","","","","","","","","",""
"","image-keyboard-response","210","201372","0.0-300.0","30H4UDGLT34B5MS245662QXWE6JMP2","A3R97T5D3RR9JX","3RBI0I35XEP26UEZY8S8UZLEA1IY3E","","137.40000000037253","img/food5.png","75","139.40000000037253","2","0","","3","1","1,0.5,0,1,0.5,0,0.5,0,1","0,1,0.5,0,1,0.5,1,0.5,0","3",""
"","html-keyboard-response","211","201676","0.0-301.0","30H4UDGLT34B5MS245662QXWE6JMP2","A3R97T5D3RR9JX","3RBI0I35XEP26UEZY8S8UZLEA1IY3E","","null","<img src=""img/food5.png"" style=""width:200px;border:14px solid red;"">","null","","","","","","","","","",""
"","image-keyboard-response","212","201839","0.0-302.0","30H4UDGLT34B5MS245662QXWE6JMP2","A3R97T5D3RR9JX","3RBI0I35XEP26UEZY8S8UZLEA1IY3E","","160","img/food1.png","74","162.70000000018626","1","0","","2","1","1,0.5,0,1,0.5,0,0.5,0,1","0,1,0.5,0,1,0.5,1,0.5,0","3",""
"","html-keyboard-response","213","202142","0.0-303.0","30H4UDGLT34B5MS245662QXWE6JMP2","A3R97T5D3RR9JX","3RBI0I35XEP26UEZY8S8UZLEA1IY3E","","null","<img src=""img/food1.png"" style=""width:200px;border:14px solid red;"">","null","","","","","","","","","",""
"","image-keyboard-response","214","202231","0.0-304.0","30H4UDGLT34B5MS245662QXWE6JMP2","A3R97T5D3RR9JX","3RBI0I35XEP26UEZY8S8UZLEA1IY3E","","86.80000000074506","img/food1.png","74","88.30000000074506","1","0","","2","1","1,0.5,0,1,0.5,0,0.5,0,1","0,1,0.5,0,1,0.5,1,0.5,0","3",""
"","html-keyboard-response","215","202533","0.0-305.0","30H4UDGLT34B5MS245662QXWE6JMP2","A3R97T5D3RR9JX","3RBI0I35XEP26UEZY8S8UZLEA1IY3E","","null","<img src=""img/food1.png"" style=""width:200px;border:14px solid red;"">","null","","","","","","","","","",""
"","image-keyboard-response","216","202653","0.0-306.0","30H4UDGLT34B5MS245662QXWE6JMP2","A3R97T5D3RR9JX","3RBI0I35XEP26UEZY8S8UZLEA1IY3E","","117.59999999962747","img/food5.png","74","119.3999999994412","1","1","","3","1","1,0.5,0,1,0.5,0,0.5,0,1","0,1,0.5,0,1,0.5,1,0.5,0","3",""
"","html-keyboard-response","217","202956","0.0-307.0","30H4UDGLT34B5MS245662QXWE6JMP2","A3R97T5D3RR9JX","3RBI0I35XEP26UEZY8S8UZLEA1IY3E","","null","<img src=""img/food5.png"" style=""width:200px; border:14px solid green;"">","null","","","","","","","","","",""
"","image-keyboard-response","218","203172","0.0-308.0","30H4UDGLT34B5MS245662QXWE6JMP2","A3R97T5D3RR9JX","3RBI0I35XEP26UEZY8S8UZLEA1IY3E","","213.80000000074506","img/food6.png","74","215.79999999981374","1","0","","1","1","1,0.5,0,1,0.5,0,0.5,0,1","0,1,0.5,0,1,0.5,1,0.5,0","3",""
"","html-keyboard-response","219","203475","0.0-309.0","30H4UDGLT34B5MS245662QXWE6JMP2","A3R97T5D3RR9JX","3RBI0I35XEP26UEZY8S8UZLEA1IY3E","","null","<img src=""img/food6.png"" style=""width:200px;border:14px solid red;"">","null","","","","","","","","","",""
"","image-keyboard-response","220","203539","0.0-310.0","30H4UDGLT34B5MS245662QXWE6JMP2","A3R97T5D3RR9JX","3RBI0I35XEP26UEZY8S8UZLEA1IY3E","","61.799999999813735","img/food1.png","76","63.799999999813735","3","1","","2","1","1,0.5,0,1,0.5,0,0.5,0,1","0,1,0.5,0,1,0.5,1,0.5,0","3",""
"","html-keyboard-response","221","203842","0.0-311.0","30H4UDGLT34B5MS245662QXWE6JMP2","A3R97T5D3RR9JX","3RBI0I35XEP26UEZY8S8UZLEA1IY3E","","null","<img src=""img/food1.png"" style=""width:200px; border:14px solid green;"">","null","","","","","","","","","",""
"","image-keyboard-response","222","204227","0.0-312.0","30H4UDGLT34B5MS245662QXWE6JMP2","A3R97T5D3RR9JX","3RBI0I35XEP26UEZY8S8UZLEA1IY3E","","382.3999999994412","img/food6.png","76","384.29999999981374","3","0","","1","1","1,0.5,0,1,0.5,0,0.5,0,1","0,1,0.5,0,1,0.5,1,0.5,0","3",""
"","html-keyboard-response","223","204529","0.0-313.0","30H4UDGLT34B5MS245662QXWE6JMP2","A3R97T5D3RR9JX","3RBI0I35XEP26UEZY8S8UZLEA1IY3E","","null","<img src=""img/food6.png"" style=""width:200px;border:14px solid red;"">","null","","","","","","","","","",""
"","image-keyboard-response","224","204655","0.0-314.0","30H4UDGLT34B5MS245662QXWE6JMP2","A3R97T5D3RR9JX","3RBI0I35XEP26UEZY8S8UZLEA1IY3E","","123","img/food5.png","75","124.79999999981374","2","0","","3","1","1,0.5,0,1,0.5,0,0.5,0,1","0,1,0.5,0,1,0.5,1,0.5,0","3",""
"","html-keyboard-response","225","204958","0.0-315.0","30H4UDGLT34B5MS245662QXWE6JMP2","A3R97T5D3RR9JX","3RBI0I35XEP26UEZY8S8UZLEA1IY3E","","null","<img src=""img/food5.png"" style=""width:200px;border:14px solid red;"">","null","","","","","","","","","",""
"","image-keyboard-response","226","205074","0.0-316.0","30H4UDGLT34B5MS245662QXWE6JMP2","A3R97T5D3RR9JX","3RBI0I35XEP26UEZY8S8UZLEA1IY3E","","113.90000000037253","img/food5.png","75","115.80000000074506","2","0","","3","1","1,0.5,0,1,0.5,0,0.5,0,1","0,1,0.5,0,1,0.5,1,0.5,0","3",""
"","html-keyboard-response","227","205377","0.0-317.0","30H4UDGLT34B5MS245662QXWE6JMP2","A3R97T5D3RR9JX","3RBI0I35XEP26UEZY8S8UZLEA1IY3E","","null","<img src=""img/food5.png"" style=""width:200px;border:14px solid red;"">","null","","","","","","","","","",""
"","image-keyboard-response","228","205415","0.0-318.0","30H4UDGLT34B5MS245662QXWE6JMP2","A3R97T5D3RR9JX","3RBI0I35XEP26UEZY8S8UZLEA1IY3E","","35.299999999813735","img/food6.png","75","37.19999999925494","2","1","","1","1","1,0.5,0,1,0.5,0,0.5,0,1","0,1,0.5,0,1,0.5,1,0.5,0","3",""
"","html-keyboard-response","229","205718","0.0-319.0","30H4UDGLT34B5MS245662QXWE6JMP2","A3R97T5D3RR9JX","3RBI0I35XEP26UEZY8S8UZLEA1IY3E","","null","<img src=""img/food6.png"" style=""width:200px; border:14px solid green;"">","null","","","","","","","","","",""
"","image-keyboard-response","230","205871","0.0-320.0","30H4UDGLT34B5MS245662QXWE6JMP2","A3R97T5D3RR9JX","3RBI0I35XEP26UEZY8S8UZLEA1IY3E","","150.79999999981374","img/food6.png","74","152.79999999981374","1","0","","1","1","1,0.5,0,1,0.5,0,0.5,0,1","0,1,0.5,0,1,0.5,1,0.5,0","3",""
"","html-keyboard-response","231","206174","0.0-321.0","30H4UDGLT34B5MS245662QXWE6JMP2","A3R97T5D3RR9JX","3RBI0I35XEP26UEZY8S8UZLEA1IY3E","","null","<img src=""img/food6.png"" style=""width:200px;border:14px solid red;"">","null","","","","","","","","","",""
"","image-keyboard-response","232","206272","0.0-322.0","30H4UDGLT34B5MS245662QXWE6JMP2","A3R97T5D3RR9JX","3RBI0I35XEP26UEZY8S8UZLEA1IY3E","","94.90000000037253","img/food1.png","74","97.09999999962747","1","0","","2","1","1,0.5,0,1,0.5,0,0.5,0,1","0,1,0.5,0,1,0.5,1,0.5,0","3",""
"","html-keyboard-response","233","206575","0.0-323.0","30H4UDGLT34B5MS245662QXWE6JMP2","A3R97T5D3RR9JX","3RBI0I35XEP26UEZY8S8UZLEA1IY3E","","null","<img src=""img/food1.png"" style=""width:200px;border:14px solid red;"">","null","","","","","","","","","",""
"","image-keyboard-response","234","206933","0.0-324.0","30H4UDGLT34B5MS245662QXWE6JMP2","A3R97T5D3RR9JX","3RBI0I35XEP26UEZY8S8UZLEA1IY3E","","355.20000000018626","img/food5.png","75","357.29999999981374","2","0","","3","1","1,0.5,0,1,0.5,0,0.5,0,1","0,1,0.5,0,1,0.5,1,0.5,0","3",""
"","html-keyboard-response","235","207236","0.0-325.0","30H4UDGLT34B5MS245662QXWE6JMP2","A3R97T5D3RR9JX","3RBI0I35XEP26UEZY8S8UZLEA1IY3E","","null","<img src=""img/food5.png"" style=""width:200px;border:14px solid red;"">","null","","","","","","","","","",""
"","image-keyboard-response","236","207344","0.0-326.0","30H4UDGLT34B5MS245662QXWE6JMP2","A3R97T5D3RR9JX","3RBI0I35XEP26UEZY8S8UZLEA1IY3E","","105.6000000005588","img/food1.png","75","107.5","2","1","","2","1","1,0.5,0,1,0.5,0,0.5,0,1","0,1,0.5,0,1,0.5,1,0.5,0","3",""
"","html-keyboard-response","237","207648","0.0-327.0","30H4UDGLT34B5MS245662QXWE6JMP2","A3R97T5D3RR9JX","3RBI0I35XEP26UEZY8S8UZLEA1IY3E","","null","<img src=""img/food1.png"" style=""width:200px; border:14px solid green;"">","null","","","","","","","","","",""
"","image-keyboard-response","238","207676","0.0-328.0","30H4UDGLT34B5MS245662QXWE6JMP2","A3R97T5D3RR9JX","3RBI0I35XEP26UEZY8S8UZLEA1IY3E","","26.09999999962747","img/food6.png","76","28","3","0","","1","1","1,0.5,0,1,0.5,0,0.5,0,1","0,1,0.5,0,1,0.5,1,0.5,0","3",""
"","html-keyboard-response","239","207980","0.0-329.0","30H4UDGLT34B5MS245662QXWE6JMP2","A3R97T5D3RR9JX","3RBI0I35XEP26UEZY8S8UZLEA1IY3E","","null","<img src=""img/food6.png"" style=""width:200px;border:14px solid red;"">","null","","","","","","","","","",""
"","image-keyboard-response","240","208017","0.0-330.0","30H4UDGLT34B5MS245662QXWE6JMP2","A3R97T5D3RR9JX","3RBI0I35XEP26UEZY8S8UZLEA1IY3E","","35.799999999813735","img/food6.png","76","37.5","3","1","","1","1","1,0.5,0,1,0.5,0,0.5,0,1","0,1,0.5,0,1,0.5,1,0.5,0","3",""
"","html-keyboard-response","241","208320","0.0-331.0","30H4UDGLT34B5MS245662QXWE6JMP2","A3R97T5D3RR9JX","3RBI0I35XEP26UEZY8S8UZLEA1IY3E","","null","<img src=""img/food6.png"" style=""width:200px; border:14px solid green;"">","null","","","","","","","","","",""
"","image-keyboard-response","242","208417","0.0-332.0","30H4UDGLT34B5MS245662QXWE6JMP2","A3R97T5D3RR9JX","3RBI0I35XEP26UEZY8S8UZLEA1IY3E","","94.29999999981374","img/food5.png","75","96.29999999981374","2","1","","3","1","1,0.5,0,1,0.5,0,0.5,0,1","0,1,0.5,0,1,0.5,1,0.5,0","3",""
"","html-keyboard-response","243","208721","0.0-333.0","30H4UDGLT34B5MS245662QXWE6JMP2","A3R97T5D3RR9JX","3RBI0I35XEP26UEZY8S8UZLEA1IY3E","","null","<img src=""img/food5.png"" style=""width:200px; border:14px solid green;"">","null","","","","","","","","","",""
"","image-keyboard-response","244","208755","0.0-334.0","30H4UDGLT34B5MS245662QXWE6JMP2","A3R97T5D3RR9JX","3RBI0I35XEP26UEZY8S8UZLEA1IY3E","","32.200000000186265","img/food5.png","76","33.60000000055879","3","0","","3","1","1,0.5,0,1,0.5,0,0.5,0,1","0,1,0.5,0,1,0.5,1,0.5,0","3",""
"","html-keyboard-response","245","209057","0.0-335.0","30H4UDGLT34B5MS245662QXWE6JMP2","A3R97T5D3RR9JX","3RBI0I35XEP26UEZY8S8UZLEA1IY3E","","null","<img src=""img/food5.png"" style=""width:200px;border:14px solid red;"">","null","","","","","","","","","",""
"","image-keyboard-response","246","209254","0.0-336.0","30H4UDGLT34B5MS245662QXWE6JMP2","A3R97T5D3RR9JX","3RBI0I35XEP26UEZY8S8UZLEA1IY3E","","194.5","img/food1.png","74","196.40000000037253","1","0","","2","1","1,0.5,0,1,0.5,0,0.5,0,1","0,1,0.5,0,1,0.5,1,0.5,0","3",""
"","html-keyboard-response","247","209556","0.0-337.0","30H4UDGLT34B5MS245662QXWE6JMP2","A3R97T5D3RR9JX","3RBI0I35XEP26UEZY8S8UZLEA1IY3E","","null","<img src=""img/food1.png"" style=""width:200px;border:14px solid red;"">","null","","","","","","","","","",""
"","image-keyboard-response","248","209615","0.0-338.0","30H4UDGLT34B5MS245662QXWE6JMP2","A3R97T5D3RR9JX","3RBI0I35XEP26UEZY8S8UZLEA1IY3E","","56.40000000037253","img/food1.png","74","58.40000000037253","1","0","","2","1","1,0.5,0,1,0.5,0,0.5,0,1","0,1,0.5,0,1,0.5,1,0.5,0","3",""
"","html-keyboard-response","249","209918","0.0-339.0","30H4UDGLT34B5MS245662QXWE6JMP2","A3R97T5D3RR9JX","3RBI0I35XEP26UEZY8S8UZLEA1IY3E","","null","<img src=""img/food1.png"" style=""width:200px;border:14px solid red;"">","null","","","","","","","","","",""
"","image-keyboard-response","250","210089","0.0-340.0","30H4UDGLT34B5MS245662QXWE6JMP2","A3R97T5D3RR9JX","3RBI0I35XEP26UEZY8S8UZLEA1IY3E","","168.30000000074506","img/food6.png","74","170.20000000018626","1","0","","1","1","1,0.5,0,1,0.5,0,0.5,0,1","0,1,0.5,0,1,0.5,1,0.5,0","3",""
"","html-keyboard-response","251","210392","0.0-341.0","30H4UDGLT34B5MS245662QXWE6JMP2","A3R97T5D3RR9JX","3RBI0I35XEP26UEZY8S8UZLEA1IY3E","","null","<img src=""img/food6.png"" style=""width:200px;border:14px solid red;"">","null","","","","","","","","","",""
"","image-keyboard-response","252","210618","0.0-342.0","30H4UDGLT34B5MS245662QXWE6JMP2","A3R97T5D3RR9JX","3RBI0I35XEP26UEZY8S8UZLEA1IY3E","","223.09999999962747","img/food5.png","75","225.09999999962747","2","0","","3","1","1,0.5,0,1,0.5,0,0.5,0,1","0,1,0.5,0,1,0.5,1,0.5,0","3",""
"","html-keyboard-response","253","210920","0.0-343.0","30H4UDGLT34B5MS245662QXWE6JMP2","A3R97T5D3RR9JX","3RBI0I35XEP26UEZY8S8UZLEA1IY3E","","null","<img src=""img/food5.png"" style=""width:200px;border:14px solid red;"">","null","","","","","","","","","",""
"","image-keyboard-response","254","211004","0.0-344.0","30H4UDGLT34B5MS245662QXWE6JMP2","A3R97T5D3RR9JX","3RBI0I35XEP26UEZY8S8UZLEA1IY3E","","81.20000000018626","img/food5.png","75","83.29999999981374","2","1","","3","1","1,0.5,0,1,0.5,0,0.5,0,1","0,1,0.5,0,1,0.5,1,0.5,0","3",""
"","html-keyboard-response","255","211307","0.0-345.0","30H4UDGLT34B5MS245662QXWE6JMP2","A3R97T5D3RR9JX","3RBI0I35XEP26UEZY8S8UZLEA1IY3E","","null","<img src=""img/food5.png"" style=""width:200px; border:14px solid green;"">","null","","","","","","","","","",""
"","image-keyboard-response","256","211561","0.0-346.0","30H4UDGLT34B5MS245662QXWE6JMP2","A3R97T5D3RR9JX","3RBI0I35XEP26UEZY8S8UZLEA1IY3E","","251.20000000018626","img/food6.png","76","253.20000000018626","3","0","","1","1","1,0.5,0,1,0.5,0,0.5,0,1","0,1,0.5,0,1,0.5,1,0.5,0","3",""
"","html-keyboard-response","257","211865","0.0-347.0","30H4UDGLT34B5MS245662QXWE6JMP2","A3R97T5D3RR9JX","3RBI0I35XEP26UEZY8S8UZLEA1IY3E","","null","<img src=""img/food6.png"" style=""width:200px;border:14px solid red;"">","null","","","","","","","","","",""
"","image-keyboard-response","258","211887","0.0-348.0","30H4UDGLT34B5MS245662QXWE6JMP2","A3R97T5D3RR9JX","3RBI0I35XEP26UEZY8S8UZLEA1IY3E","","19.199999999254942","img/food5.png","75","21.09999999962747","2","1","","3","1","1,0.5,0,1,0.5,0,0.5,0,1","0,1,0.5,0,1,0.5,1,0.5,0","3",""
"","html-keyboard-response","259","212190","0.0-349.0","30H4UDGLT34B5MS245662QXWE6JMP2","A3R97T5D3RR9JX","3RBI0I35XEP26UEZY8S8UZLEA1IY3E","","null","<img src=""img/food5.png"" style=""width:200px; border:14px solid green;"">","null","","","","","","","","","",""
"","image-keyboard-response","260","212416","0.0-350.0","30H4UDGLT34B5MS245662QXWE6JMP2","A3R97T5D3RR9JX","3RBI0I35XEP26UEZY8S8UZLEA1IY3E","","223.19999999925494","img/food6.png","75","225.09999999962747","2","1","","1","1","1,0.5,0,1,0.5,0,0.5,0,1","0,1,0.5,0,1,0.5,1,0.5,0","3",""
"","html-keyboard-response","261","212720","0.0-351.0","30H4UDGLT34B5MS245662QXWE6JMP2","A3R97T5D3RR9JX","3RBI0I35XEP26UEZY8S8UZLEA1IY3E","","null","<img src=""img/food6.png"" style=""width:200px; border:14px solid green;"">","null","","","","","","","","","",""
"","image-keyboard-response","262","212754","0.0-352.0","30H4UDGLT34B5MS245662QXWE6JMP2","A3R97T5D3RR9JX","3RBI0I35XEP26UEZY8S8UZLEA1IY3E","","31.100000000558794","img/food1.png","76","33","3","0","","2","1","1,0.5,0,1,0.5,0,0.5,0,1","0,1,0.5,0,1,0.5,1,0.5,0","3",""
"","html-keyboard-response","263","213057","0.0-353.0","30H4UDGLT34B5MS245662QXWE6JMP2","A3R97T5D3RR9JX","3RBI0I35XEP26UEZY8S8UZLEA1IY3E","","null","<img src=""img/food1.png"" style=""width:200px;border:14px solid red;"">","null","","","","","","","","","",""
"","image-keyboard-response","264","213196","0.0-354.0","30H4UDGLT34B5MS245662QXWE6JMP2","A3R97T5D3RR9JX","3RBI0I35XEP26UEZY8S8UZLEA1IY3E","","135.79999999981374","img/food6.png","74","137.3999999994412","1","0","","1","1","1,0.5,0,1,0.5,0,0.5,0,1","0,1,0.5,0,1,0.5,1,0.5,0","3",""
"","html-keyboard-response","265","213499","0.0-355.0","30H4UDGLT34B5MS245662QXWE6JMP2","A3R97T5D3RR9JX","3RBI0I35XEP26UEZY8S8UZLEA1IY3E","","null","<img src=""img/food6.png"" style=""width:200px;border:14px solid red;"">","null","","","","","","","","","",""
"","image-keyboard-response","266","213550","0.0-356.0","30H4UDGLT34B5MS245662QXWE6JMP2","A3R97T5D3RR9JX","3RBI0I35XEP26UEZY8S8UZLEA1IY3E","","49","img/food5.png","74","51","1","1","","3","1","1,0.5,0,1,0.5,0,0.5,0,1","0,1,0.5,0,1,0.5,1,0.5,0","3",""
"","html-keyboard-response","267","213853","0.0-357.0","30H4UDGLT34B5MS245662QXWE6JMP2","A3R97T5D3RR9JX","3RBI0I35XEP26UEZY8S8UZLEA1IY3E","","null","<img src=""img/food5.png"" style=""width:200px; border:14px solid green;"">","null","","","","","","","","","",""
"","image-keyboard-response","268","213956","0.0-358.0","30H4UDGLT34B5MS245662QXWE6JMP2","A3R97T5D3RR9JX","3RBI0I35XEP26UEZY8S8UZLEA1IY3E","","101.20000000018626","img/food6.png","75","103.20000000018626","2","1","","1","1","1,0.5,0,1,0.5,0,0.5,0,1","0,1,0.5,0,1,0.5,1,0.5,0","3",""
"","html-keyboard-response","269","214259","0.0-359.0","30H4UDGLT34B5MS245662QXWE6JMP2","A3R97T5D3RR9JX","3RBI0I35XEP26UEZY8S8UZLEA1IY3E","","null","<img src=""img/food6.png"" style=""width:200px; border:14px solid green;"">","null","","","","","","","","","",""
"","image-keyboard-response","270","214413","0.0-360.0","30H4UDGLT34B5MS245662QXWE6JMP2","A3R97T5D3RR9JX","3RBI0I35XEP26UEZY8S8UZLEA1IY3E","","153","img/food6.png","75","154.29999999981374","2","1","","1","1","1,0.5,0,1,0.5,0,0.5,0,1","0,1,0.5,0,1,0.5,1,0.5,0","3",""
"","html-keyboard-response","271","214716","0.0-361.0","30H4UDGLT34B5MS245662QXWE6JMP2","A3R97T5D3RR9JX","3RBI0I35XEP26UEZY8S8UZLEA1IY3E","","null","<img src=""img/food6.png"" style=""width:200px; border:14px solid green;"">","null","","","","","","","","","",""
"","image-keyboard-response","272","214990","0.0-362.0","30H4UDGLT34B5MS245662QXWE6JMP2","A3R97T5D3RR9JX","3RBI0I35XEP26UEZY8S8UZLEA1IY3E","","272","img/food6.png","76","274.19999999925494","3","1","","1","1","1,0.5,0,1,0.5,0,0.5,0,1","0,1,0.5,0,1,0.5,1,0.5,0","3",""
"","html-keyboard-response","273","215301","0.0-363.0","30H4UDGLT34B5MS245662QXWE6JMP2","A3R97T5D3RR9JX","3RBI0I35XEP26UEZY8S8UZLEA1IY3E","","null","<img src=""img/food6.png"" style=""width:200px; border:14px solid green;"">","null","","","","","","","","","",""
"","image-keyboard-response","274","215303","0.0-364.0","30H4UDGLT34B5MS245662QXWE6JMP2","A3R97T5D3RR9JX","3RBI0I35XEP26UEZY8S8UZLEA1IY3E","","0.09999999962747097","img/food1.png","76","1.599999999627471","3","0","","2","1","1,0.5,0,1,0.5,0,0.5,0,1","0,1,0.5,0,1,0.5,1,0.5,0","3",""
"","html-keyboard-response","275","215606","0.0-365.0","30H4UDGLT34B5MS245662QXWE6JMP2","A3R97T5D3RR9JX","3RBI0I35XEP26UEZY8S8UZLEA1IY3E","","null","<img src=""img/food1.png"" style=""width:200px;border:14px solid red;"">","null","","","","","","","","","",""
"","image-keyboard-response","276","215880","0.0-366.0","30H4UDGLT34B5MS245662QXWE6JMP2","A3R97T5D3RR9JX","3RBI0I35XEP26UEZY8S8UZLEA1IY3E","","271.5","img/food5.png","74","273.59999999962747","1","1","","3","1","1,0.5,0,1,0.5,0,0.5,0,1","0,1,0.5,0,1,0.5,1,0.5,0","3",""
"","html-keyboard-response","277","216183","0.0-367.0","30H4UDGLT34B5MS245662QXWE6JMP2","A3R97T5D3RR9JX","3RBI0I35XEP26UEZY8S8UZLEA1IY3E","","null","<img src=""img/food5.png"" style=""width:200px; border:14px solid green;"">","null","","","","","","","","","",""
"","image-keyboard-response","278","216303","0.0-368.0","30H4UDGLT34B5MS245662QXWE6JMP2","A3R97T5D3RR9JX","3RBI0I35XEP26UEZY8S8UZLEA1IY3E","","117.69999999925494","img/food6.png","74","119.79999999981374","1","0","","1","1","1,0.5,0,1,0.5,0,0.5,0,1","0,1,0.5,0,1,0.5,1,0.5,0","3",""
"","html-keyboard-response","279","216609","0.0-369.0","30H4UDGLT34B5MS245662QXWE6JMP2","A3R97T5D3RR9JX","3RBI0I35XEP26UEZY8S8UZLEA1IY3E","","null","<img src=""img/food6.png"" style=""width:200px;border:14px solid red;"">","null","","","","","","","","","",""
"","image-keyboard-response","280","216896","0.0-370.0","30H4UDGLT34B5MS245662QXWE6JMP2","A3R97T5D3RR9JX","3RBI0I35XEP26UEZY8S8UZLEA1IY3E","","285","img/food6.png","76","286.90000000037253","3","1","","1","1","1,0.5,0,1,0.5,0,0.5,0,1","0,1,0.5,0,1,0.5,1,0.5,0","3",""
"","html-keyboard-response","281","217199","0.0-371.0","30H4UDGLT34B5MS245662QXWE6JMP2","A3R97T5D3RR9JX","3RBI0I35XEP26UEZY8S8UZLEA1IY3E","","null","<img src=""img/food6.png"" style=""width:200px; border:14px solid green;"">","null","","","","","","","","","",""
"","image-keyboard-response","282","217207","0.0-372.0","30H4UDGLT34B5MS245662QXWE6JMP2","A3R97T5D3RR9JX","3RBI0I35XEP26UEZY8S8UZLEA1IY3E","","5.400000000372529","img/food6.png","75","7.7999999998137355","2","1","","1","1","1,0.5,0,1,0.5,0,0.5,0,1","0,1,0.5,0,1,0.5,1,0.5,0","3",""
"","html-keyboard-response","283","217512","0.0-373.0","30H4UDGLT34B5MS245662QXWE6JMP2","A3R97T5D3RR9JX","3RBI0I35XEP26UEZY8S8UZLEA1IY3E","","null","<img src=""img/food6.png"" style=""width:200px; border:14px solid green;"">","null","","","","","","","","","",""
"","image-keyboard-response","284","217545","0.0-374.0","30H4UDGLT34B5MS245662QXWE6JMP2","A3R97T5D3RR9JX","3RBI0I35XEP26UEZY8S8UZLEA1IY3E","","31","img/food5.png","75","33","2","1","","3","1","1,0.5,0,1,0.5,0,0.5,0,1","0,1,0.5,0,1,0.5,1,0.5,0","3",""
"","html-keyboard-response","285","217849","0.0-375.0","30H4UDGLT34B5MS245662QXWE6JMP2","A3R97T5D3RR9JX","3RBI0I35XEP26UEZY8S8UZLEA1IY3E","","null","<img src=""img/food5.png"" style=""width:200px; border:14px solid green;"">","null","","","","","","","","","",""
"","image-keyboard-response","286","217965","0.0-376.0","30H4UDGLT34B5MS245662QXWE6JMP2","A3R97T5D3RR9JX","3RBI0I35XEP26UEZY8S8UZLEA1IY3E","","112.6000000005588","img/food1.png","76","114.70000000018626","3","0","","2","1","1,0.5,0,1,0.5,0,0.5,0,1","0,1,0.5,0,1,0.5,1,0.5,0","3",""
"","html-keyboard-response","287","218267","0.0-377.0","30H4UDGLT34B5MS245662QXWE6JMP2","A3R97T5D3RR9JX","3RBI0I35XEP26UEZY8S8UZLEA1IY3E","","null","<img src=""img/food1.png"" style=""width:200px;border:14px solid red;"">","null","","","","","","","","","",""
"","image-keyboard-response","288","218302","0.0-378.0","30H4UDGLT34B5MS245662QXWE6JMP2","A3R97T5D3RR9JX","3RBI0I35XEP26UEZY8S8UZLEA1IY3E","","32.200000000186265","img/food5.png","74","34.299999999813735","1","1","","3","1","1,0.5,0,1,0.5,0,0.5,0,1","0,1,0.5,0,1,0.5,1,0.5,0","3",""
"","html-keyboard-response","289","218606","0.0-379.0","30H4UDGLT34B5MS245662QXWE6JMP2","A3R97T5D3RR9JX","3RBI0I35XEP26UEZY8S8UZLEA1IY3E","","null","<img src=""img/food5.png"" style=""width:200px; border:14px solid green;"">","null","","","","","","","","","",""
"","image-keyboard-response","290","218667","0.0-380.0","30H4UDGLT34B5MS245662QXWE6JMP2","A3R97T5D3RR9JX","3RBI0I35XEP26UEZY8S8UZLEA1IY3E","","58.799999999813735","img/food1.png","74","60.5","1","0","","2","1","1,0.5,0,1,0.5,0,0.5,0,1","0,1,0.5,0,1,0.5,1,0.5,0","3",""
"","html-keyboard-response","291","218970","0.0-381.0","30H4UDGLT34B5MS245662QXWE6JMP2","A3R97T5D3RR9JX","3RBI0I35XEP26UEZY8S8UZLEA1IY3E","","null","<img src=""img/food1.png"" style=""width:200px;border:14px solid red;"">","null","","","","","","","","","",""
"","image-keyboard-response","292","219039","0.0-382.0","30H4UDGLT34B5MS245662QXWE6JMP2","A3R97T5D3RR9JX","3RBI0I35XEP26UEZY8S8UZLEA1IY3E","","66.5","img/food6.png","74","67.90000000037253","1","0","","1","1","1,0.5,0,1,0.5,0,0.5,0,1","0,1,0.5,0,1,0.5,1,0.5,0","3",""
"","html-keyboard-response","293","219341","0.0-383.0","30H4UDGLT34B5MS245662QXWE6JMP2","A3R97T5D3RR9JX","3RBI0I35XEP26UEZY8S8UZLEA1IY3E","","null","<img src=""img/food6.png"" style=""width:200px;border:14px solid red;"">","null","","","","","","","","","",""
"","image-keyboard-response","294","219540","0.0-384.0","30H4UDGLT34B5MS245662QXWE6JMP2","A3R97T5D3RR9JX","3RBI0I35XEP26UEZY8S8UZLEA1IY3E","","196.3999999994412","img/food6.png","74","198.6000000005588","1","0","","1","1","1,0.5,0,1,0.5,0,0.5,0,1","0,1,0.5,0,1,0.5,1,0.5,0","3",""
"","html-keyboard-response","295","219843","0.0-385.0","30H4UDGLT34B5MS245662QXWE6JMP2","A3R97T5D3RR9JX","3RBI0I35XEP26UEZY8S8UZLEA1IY3E","","null","<img src=""img/food6.png"" style=""width:200px;border:14px solid red;"">","null","","","","","","","","","",""
"","image-keyboard-response","296","220185","0.0-386.0","30H4UDGLT34B5MS245662QXWE6JMP2","A3R97T5D3RR9JX","3RBI0I35XEP26UEZY8S8UZLEA1IY3E","","339","img/food5.png","75","341","2","1","","3","1","1,0.5,0,1,0.5,0,0.5,0,1","0,1,0.5,0,1,0.5,1,0.5,0","3",""
"","html-keyboard-response","297","220487","0.0-387.0","30H4UDGLT34B5MS245662QXWE6JMP2","A3R97T5D3RR9JX","3RBI0I35XEP26UEZY8S8UZLEA1IY3E","","null","<img src=""img/food5.png"" style=""width:200px; border:14px solid green;"">","null","","","","","","","","","",""
"","image-keyboard-response","298","220516","0.0-388.0","30H4UDGLT34B5MS245662QXWE6JMP2","A3R97T5D3RR9JX","3RBI0I35XEP26UEZY8S8UZLEA1IY3E","","26.200000000186265","img/food6.png","76","28.300000000745058","3","1","","1","1","1,0.5,0,1,0.5,0,0.5,0,1","0,1,0.5,0,1,0.5,1,0.5,0","3",""
"","html-keyboard-response","299","220820","0.0-389.0","30H4UDGLT34B5MS245662QXWE6JMP2","A3R97T5D3RR9JX","3RBI0I35XEP26UEZY8S8UZLEA1IY3E","","null","<img src=""img/food6.png"" style=""width:200px; border:14px solid green;"">","null","","","","","","","","","",""
"","image-keyboard-response","300","220992","0.0-390.0","30H4UDGLT34B5MS245662QXWE6JMP2","A3R97T5D3RR9JX","3RBI0I35XEP26UEZY8S8UZLEA1IY3E","","169.5","img/food5.png","75","171.3999999994412","2","0","","3","1","1,0.5,0,1,0.5,0,0.5,0,1","0,1,0.5,0,1,0.5,1,0.5,0","3",""
"","html-keyboard-response","301","221296","0.0-391.0","30H4UDGLT34B5MS245662QXWE6JMP2","A3R97T5D3RR9JX","3RBI0I35XEP26UEZY8S8UZLEA1IY3E","","null","<img src=""img/food5.png"" style=""width:200px;border:14px solid red;"">","null","","","","","","","","","",""
"","image-keyboard-response","302","221411","0.0-392.0","30H4UDGLT34B5MS245662QXWE6JMP2","A3R97T5D3RR9JX","3RBI0I35XEP26UEZY8S8UZLEA1IY3E","","112.20000000018626","img/food5.png","74","114.3999999994412","1","1","","3","1","1,0.5,0,1,0.5,0,0.5,0,1","0,1,0.5,0,1,0.5,1,0.5,0","3",""
"","html-keyboard-response","303","221713","0.0-393.0","30H4UDGLT34B5MS245662QXWE6JMP2","A3R97T5D3RR9JX","3RBI0I35XEP26UEZY8S8UZLEA1IY3E","","null","<img src=""img/food5.png"" style=""width:200px; border:14px solid green;"">","null","","","","","","","","","",""
"","image-keyboard-response","304","221889","0.0-394.0","30H4UDGLT34B5MS245662QXWE6JMP2","A3R97T5D3RR9JX","3RBI0I35XEP26UEZY8S8UZLEA1IY3E","","173.90000000037253","img/food5.png","74","175.90000000037253","1","1","","3","1","1,0.5,0,1,0.5,0,0.5,0,1","0,1,0.5,0,1,0.5,1,0.5,0","3",""
"","html-keyboard-response","305","222193","0.0-395.0","30H4UDGLT34B5MS245662QXWE6JMP2","A3R97T5D3RR9JX","3RBI0I35XEP26UEZY8S8UZLEA1IY3E","","null","<img src=""img/food5.png"" style=""width:200px; border:14px solid green;"">","null","","","","","","","","","",""
"","image-keyboard-response","306","222390","0.0-396.0","30H4UDGLT34B5MS245662QXWE6JMP2","A3R97T5D3RR9JX","3RBI0I35XEP26UEZY8S8UZLEA1IY3E","","195.3999999994412","img/food6.png","74","197.40000000037253","1","0","","1","1","1,0.5,0,1,0.5,0,0.5,0,1","0,1,0.5,0,1,0.5,1,0.5,0","3",""
"","html-keyboard-response","307","222695","0.0-397.0","30H4UDGLT34B5MS245662QXWE6JMP2","A3R97T5D3RR9JX","3RBI0I35XEP26UEZY8S8UZLEA1IY3E","","null","<img src=""img/food6.png"" style=""width:200px;border:14px solid red;"">","null","","","","","","","","","",""
"","image-keyboard-response","308","222842","0.0-398.0","30H4UDGLT34B5MS245662QXWE6JMP2","A3R97T5D3RR9JX","3RBI0I35XEP26UEZY8S8UZLEA1IY3E","","144.20000000018626","img/food1.png","75","146.79999999981374","2","1","","2","1","1,0.5,0,1,0.5,0,0.5,0,1","0,1,0.5,0,1,0.5,1,0.5,0","3",""
"","html-keyboard-response","309","223145","0.0-399.0","30H4UDGLT34B5MS245662QXWE6JMP2","A3R97T5D3RR9JX","3RBI0I35XEP26UEZY8S8UZLEA1IY3E","","null","<img src=""img/food1.png"" style=""width:200px; border:14px solid green;"">","null","","","","","","","","","",""
"","image-keyboard-response","310","223263","0.0-400.0","30H4UDGLT34B5MS245662QXWE6JMP2","A3R97T5D3RR9JX","3RBI0I35XEP26UEZY8S8UZLEA1IY3E","","115.40000000037253","img/food1.png","76","117.29999999981374","3","0","","2","1","1,0.5,0,1,0.5,0,0.5,0,1","0,1,0.5,0,1,0.5,1,0.5,0","3",""
"","html-keyboard-response","311","223566","0.0-401.0","30H4UDGLT34B5MS245662QXWE6JMP2","A3R97T5D3RR9JX","3RBI0I35XEP26UEZY8S8UZLEA1IY3E","","null","<img src=""img/food1.png"" style=""width:200px;border:14px solid red;"">","null","","","","","","","","","",""
"","image-keyboard-response","312","223581","0.0-402.0","30H4UDGLT34B5MS245662QXWE6JMP2","A3R97T5D3RR9JX","3RBI0I35XEP26UEZY8S8UZLEA1IY3E","","12.599999999627471","img/food6.png","76","14.599999999627471","3","1","","1","1","1,0.5,0,1,0.5,0,0.5,0,1","0,1,0.5,0,1,0.5,1,0.5,0","3",""
"","html-keyboard-response","313","223885","0.0-403.0","30H4UDGLT34B5MS245662QXWE6JMP2","A3R97T5D3RR9JX","3RBI0I35XEP26UEZY8S8UZLEA1IY3E","","null","<img src=""img/food6.png"" style=""width:200px; border:14px solid green;"">","null","","","","","","","","","",""
"","image-keyboard-response","314","223909","0.0-404.0","30H4UDGLT34B5MS245662QXWE6JMP2","A3R97T5D3RR9JX","3RBI0I35XEP26UEZY8S8UZLEA1IY3E","","21.59999999962747","img/food1.png","74","23.299999999813735","1","0","","2","1","1,0.5,0,1,0.5,0,0.5,0,1","0,1,0.5,0,1,0.5,1,0.5,0","3",""
"","html-keyboard-response","315","224212","0.0-405.0","30H4UDGLT34B5MS245662QXWE6JMP2","A3R97T5D3RR9JX","3RBI0I35XEP26UEZY8S8UZLEA1IY3E","","null","<img src=""img/food1.png"" style=""width:200px;border:14px solid red;"">","null","","","","","","","","","",""
"","image-keyboard-response","316","224392","0.0-406.0","30H4UDGLT34B5MS245662QXWE6JMP2","A3R97T5D3RR9JX","3RBI0I35XEP26UEZY8S8UZLEA1IY3E","","177.8999999994412","img/food1.png","74","179.5","1","0","","2","1","1,0.5,0,1,0.5,0,0.5,0,1","0,1,0.5,0,1,0.5,1,0.5,0","3",""
"","html-keyboard-response","317","224695","0.0-407.0","30H4UDGLT34B5MS245662QXWE6JMP2","A3R97T5D3RR9JX","3RBI0I35XEP26UEZY8S8UZLEA1IY3E","","null","<img src=""img/food1.png"" style=""width:200px;border:14px solid red;"">","null","","","","","","","","","",""
"","image-keyboard-response","318","224708","0.0-408.0","30H4UDGLT34B5MS245662QXWE6JMP2","A3R97T5D3RR9JX","3RBI0I35XEP26UEZY8S8UZLEA1IY3E","","10.400000000372529","img/food6.png","74","13.099999999627471","1","0","","1","1","1,0.5,0,1,0.5,0,0.5,0,1","0,1,0.5,0,1,0.5,1,0.5,0","3",""
"","html-keyboard-response","319","225012","0.0-409.0","30H4UDGLT34B5MS245662QXWE6JMP2","A3R97T5D3RR9JX","3RBI0I35XEP26UEZY8S8UZLEA1IY3E","","null","<img src=""img/food6.png"" style=""width:200px;border:14px solid red;"">","null","","","","","","","","","",""
"","image-keyboard-response","320","225025","0.0-410.0","30H4UDGLT34B5MS245662QXWE6JMP2","A3R97T5D3RR9JX","3RBI0I35XEP26UEZY8S8UZLEA1IY3E","","11.400000000372529","img/food5.png","75","13.299999999813735","2","0","","3","1","1,0.5,0,1,0.5,0,0.5,0,1","0,1,0.5,0,1,0.5,1,0.5,0","3",""
"","html-keyboard-response","321","225329","0.0-411.0","30H4UDGLT34B5MS245662QXWE6JMP2","A3R97T5D3RR9JX","3RBI0I35XEP26UEZY8S8UZLEA1IY3E","","null","<img src=""img/food5.png"" style=""width:200px;border:14px solid red;"">","null","","","","","","","","","",""
"","image-keyboard-response","322","225604","0.0-412.0","30H4UDGLT34B5MS245662QXWE6JMP2","A3R97T5D3RR9JX","3RBI0I35XEP26UEZY8S8UZLEA1IY3E","","273.09999999962747","img/food6.png","76","275.09999999962747","3","1","","1","1","1,0.5,0,1,0.5,0,0.5,0,1","0,1,0.5,0,1,0.5,1,0.5,0","3",""
"","html-keyboard-response","323","225908","0.0-413.0","30H4UDGLT34B5MS245662QXWE6JMP2","A3R97T5D3RR9JX","3RBI0I35XEP26UEZY8S8UZLEA1IY3E","","null","<img src=""img/food6.png"" style=""width:200px; border:14px solid green;"">","null","","","","","","","","","",""
"","image-keyboard-response","324","225928","0.0-414.0","30H4UDGLT34B5MS245662QXWE6JMP2","A3R97T5D3RR9JX","3RBI0I35XEP26UEZY8S8UZLEA1IY3E","","17.200000000186265","img/food1.png","76","19.40000000037253","3","0","","2","1","1,0.5,0,1,0.5,0,0.5,0,1","0,1,0.5,0,1,0.5,1,0.5,0","3",""
"","html-keyboard-response","325","226235","0.0-415.0","30H4UDGLT34B5MS245662QXWE6JMP2","A3R97T5D3RR9JX","3RBI0I35XEP26UEZY8S8UZLEA1IY3E","","null","<img src=""img/food1.png"" style=""width:200px;border:14px solid red;"">","null","","","","","","","","","",""
"","image-keyboard-response","326","226310","0.0-416.0","30H4UDGLT34B5MS245662QXWE6JMP2","A3R97T5D3RR9JX","3RBI0I35XEP26UEZY8S8UZLEA1IY3E","","72.79999999981374","img/food1.png","76","74.5","3","1","","2","1","1,0.5,0,1,0.5,0,0.5,0,1","0,1,0.5,0,1,0.5,1,0.5,0","3",""
"","html-keyboard-response","327","226626","0.0-417.0","30H4UDGLT34B5MS245662QXWE6JMP2","A3R97T5D3RR9JX","3RBI0I35XEP26UEZY8S8UZLEA1IY3E","","null","<img src=""img/food1.png"" style=""width:200px; border:14px solid green;"">","null","","","","","","","","","",""
"","image-keyboard-response","328","226778","0.0-418.0","30H4UDGLT34B5MS245662QXWE6JMP2","A3R97T5D3RR9JX","3RBI0I35XEP26UEZY8S8UZLEA1IY3E","","149.29999999981374","img/food6.png","75","151.29999999981374","2","1","","1","1","1,0.5,0,1,0.5,0,0.5,0,1","0,1,0.5,0,1,0.5,1,0.5,0","3",""
"","html-keyboard-response","329","227081","0.0-419.0","30H4UDGLT34B5MS245662QXWE6JMP2","A3R97T5D3RR9JX","3RBI0I35XEP26UEZY8S8UZLEA1IY3E","","null","<img src=""img/food6.png"" style=""width:200px; border:14px solid green;"">","null","","","","","","","","","",""
"","image-keyboard-response","330","227416","0.0-420.0","30H4UDGLT34B5MS245662QXWE6JMP2","A3R97T5D3RR9JX","3RBI0I35XEP26UEZY8S8UZLEA1IY3E","","332","img/food6.png","75","334.20000000018626","2","1","","1","1","1,0.5,0,1,0.5,0,0.5,0,1","0,1,0.5,0,1,0.5,1,0.5,0","3",""
"","html-keyboard-response","331","227719","0.0-421.0","30H4UDGLT34B5MS245662QXWE6JMP2","A3R97T5D3RR9JX","3RBI0I35XEP26UEZY8S8UZLEA1IY3E","","null","<img src=""img/food6.png"" style=""width:200px; border:14px solid green;"">","null","","","","","","","","","",""
"","image-keyboard-response","332","227736","0.0-422.0","30H4UDGLT34B5MS245662QXWE6JMP2","A3R97T5D3RR9JX","3RBI0I35XEP26UEZY8S8UZLEA1IY3E","","14.599999999627471","img/food1.png","74","16.5","1","0","","2","1","1,0.5,0,1,0.5,0,0.5,0,1","0,1,0.5,0,1,0.5,1,0.5,0","3",""
"","html-keyboard-response","333","228040","0.0-423.0","30H4UDGLT34B5MS245662QXWE6JMP2","A3R97T5D3RR9JX","3RBI0I35XEP26UEZY8S8UZLEA1IY3E","","null","<img src=""img/food1.png"" style=""width:200px;border:14px solid red;"">","null","","","","","","","","","",""
"","image-keyboard-response","334","228187","0.0-424.0","30H4UDGLT34B5MS245662QXWE6JMP2","A3R97T5D3RR9JX","3RBI0I35XEP26UEZY8S8UZLEA1IY3E","","145.40000000037253","img/food6.png","74","147.30000000074506","1","0","","1","1","1,0.5,0,1,0.5,0,0.5,0,1","0,1,0.5,0,1,0.5,1,0.5,0","3",""
"","html-keyboard-response","335","228494","0.0-425.0","30H4UDGLT34B5MS245662QXWE6JMP2","A3R97T5D3RR9JX","3RBI0I35XEP26UEZY8S8UZLEA1IY3E","","null","<img src=""img/food6.png"" style=""width:200px;border:14px solid red;"">","null","","","","","","","","","",""
"","image-keyboard-response","336","228589","0.0-426.0","30H4UDGLT34B5MS245662QXWE6JMP2","A3R97T5D3RR9JX","3RBI0I35XEP26UEZY8S8UZLEA1IY3E","","92.09999999962747","img/food5.png","74","94.29999999981374","1","1","","3","1","1,0.5,0,1,0.5,0,0.5,0,1","0,1,0.5,0,1,0.5,1,0.5,0","3",""
"","html-keyboard-response","337","228892","0.0-427.0","30H4UDGLT34B5MS245662QXWE6JMP2","A3R97T5D3RR9JX","3RBI0I35XEP26UEZY8S8UZLEA1IY3E","","null","<img src=""img/food5.png"" style=""width:200px; border:14px solid green;"">","null","","","","","","","","","",""
"","image-keyboard-response","338","229019","0.0-428.0","30H4UDGLT34B5MS245662QXWE6JMP2","A3R97T5D3RR9JX","3RBI0I35XEP26UEZY8S8UZLEA1IY3E","","124.3999999994412","img/food1.png","74","126.20000000018626","1","0","","2","1","1,0.5,0,1,0.5,0,0.5,0,1","0,1,0.5,0,1,0.5,1,0.5,0","3",""
"","html-keyboard-response","339","229322","0.0-429.0","30H4UDGLT34B5MS245662QXWE6JMP2","A3R97T5D3RR9JX","3RBI0I35XEP26UEZY8S8UZLEA1IY3E","","null","<img src=""img/food1.png"" style=""width:200px;border:14px solid red;"">","null","","","","","","","","","",""
"","image-keyboard-response","340","229444","0.0-430.0","30H4UDGLT34B5MS245662QXWE6JMP2","A3R97T5D3RR9JX","3RBI0I35XEP26UEZY8S8UZLEA1IY3E","","119.20000000018626","img/food6.png","74","121.5","1","0","","1","1","1,0.5,0,1,0.5,0,0.5,0,1","0,1,0.5,0,1,0.5,1,0.5,0","3",""
"","html-keyboard-response","341","229748","0.0-431.0","30H4UDGLT34B5MS245662QXWE6JMP2","A3R97T5D3RR9JX","3RBI0I35XEP26UEZY8S8UZLEA1IY3E","","null","<img src=""img/food6.png"" style=""width:200px;border:14px solid red;"">","null","","","","","","","","","",""
"","image-keyboard-response","342","229805","0.0-432.0","30H4UDGLT34B5MS245662QXWE6JMP2","A3R97T5D3RR9JX","3RBI0I35XEP26UEZY8S8UZLEA1IY3E","","55","img/food5.png","74","57","1","1","","3","1","1,0.5,0,1,0.5,0,0.5,0,1","0,1,0.5,0,1,0.5,1,0.5,0","3",""
"","html-keyboard-response","343","230109","0.0-433.0","30H4UDGLT34B5MS245662QXWE6JMP2","A3R97T5D3RR9JX","3RBI0I35XEP26UEZY8S8UZLEA1IY3E","","null","<img src=""img/food5.png"" style=""width:200px; border:14px solid green;"">","null","","","","","","","","","",""
"","image-keyboard-response","344","230208","0.0-434.0","30H4UDGLT34B5MS245662QXWE6JMP2","A3R97T5D3RR9JX","3RBI0I35XEP26UEZY8S8UZLEA1IY3E","","96.6000000005588","img/food5.png","74","98.79999999981374","1","1","","3","1","1,0.5,0,1,0.5,0,0.5,0,1","0,1,0.5,0,1,0.5,1,0.5,0","3",""
"","html-keyboard-response","345","230511","0.0-435.0","30H4UDGLT34B5MS245662QXWE6JMP2","A3R97T5D3RR9JX","3RBI0I35XEP26UEZY8S8UZLEA1IY3E","","null","<img src=""img/food5.png"" style=""width:200px; border:14px solid green;"">","null","","","","","","","","","",""
"","image-keyboard-response","346","230752","0.0-436.0","30H4UDGLT34B5MS245662QXWE6JMP2","A3R97T5D3RR9JX","3RBI0I35XEP26UEZY8S8UZLEA1IY3E","","238.29999999981374","img/food1.png","74","240.40000000037253","1","0","","2","1","1,0.5,0,1,0.5,0,0.5,0,1","0,1,0.5,0,1,0.5,1,0.5,0","3",""
"","html-keyboard-response","347","231056","0.0-437.0","30H4UDGLT34B5MS245662QXWE6JMP2","A3R97T5D3RR9JX","3RBI0I35XEP26UEZY8S8UZLEA1IY3E","","null","<img src=""img/food1.png"" style=""width:200px;border:14px solid red;"">","null","","","","","","","","","",""
"","image-keyboard-response","348","231109","0.0-438.0","30H4UDGLT34B5MS245662QXWE6JMP2","A3R97T5D3RR9JX","3RBI0I35XEP26UEZY8S8UZLEA1IY3E","","51.19999999925494","img/food1.png","74","52.90000000037253","1","0","","2","1","1,0.5,0,1,0.5,0,0.5,0,1","0,1,0.5,0,1,0.5,1,0.5,0","3",""
"","html-keyboard-response","349","231412","0.0-439.0","30H4UDGLT34B5MS245662QXWE6JMP2","A3R97T5D3RR9JX","3RBI0I35XEP26UEZY8S8UZLEA1IY3E","","null","<img src=""img/food1.png"" style=""width:200px;border:14px solid red;"">","null","","","","","","","","","",""
"","image-keyboard-response","350","231468","0.0-440.0","30H4UDGLT34B5MS245662QXWE6JMP2","A3R97T5D3RR9JX","3RBI0I35XEP26UEZY8S8UZLEA1IY3E","","53.700000000186265","img/food1.png","74","55.40000000037253","1","0","","2","1","1,0.5,0,1,0.5,0,0.5,0,1","0,1,0.5,0,1,0.5,1,0.5,0","3",""
"","html-keyboard-response","351","231769","0.0-441.0","30H4UDGLT34B5MS245662QXWE6JMP2","A3R97T5D3RR9JX","3RBI0I35XEP26UEZY8S8UZLEA1IY3E","","null","<img src=""img/food1.png"" style=""width:200px;border:14px solid red;"">","null","","","","","","","","","",""
"","image-keyboard-response","352","232008","0.0-442.0","30H4UDGLT34B5MS245662QXWE6JMP2","A3R97T5D3RR9JX","3RBI0I35XEP26UEZY8S8UZLEA1IY3E","","235.90000000037253","img/food5.png","76","237.8999999994412","3","0","","3","1","1,0.5,0,1,0.5,0,0.5,0,1","0,1,0.5,0,1,0.5,1,0.5,0","3",""
"","html-keyboard-response","353","232312","0.0-443.0","30H4UDGLT34B5MS245662QXWE6JMP2","A3R97T5D3RR9JX","3RBI0I35XEP26UEZY8S8UZLEA1IY3E","","null","<img src=""img/food5.png"" style=""width:200px;border:14px solid red;"">","null","","","","","","","","","",""
"","image-keyboard-response","354","232606","0.0-444.0","30H4UDGLT34B5MS245662QXWE6JMP2","A3R97T5D3RR9JX","3RBI0I35XEP26UEZY8S8UZLEA1IY3E","","292.09999999962747","img/food6.png","74","294.09999999962747","1","0","","1","1","1,0.5,0,1,0.5,0,0.5,0,1","0,1,0.5,0,1,0.5,1,0.5,0","3",""
"","html-keyboard-response","355","232909","0.0-445.0","30H4UDGLT34B5MS245662QXWE6JMP2","A3R97T5D3RR9JX","3RBI0I35XEP26UEZY8S8UZLEA1IY3E","","null","<img src=""img/food6.png"" style=""width:200px;border:14px solid red;"">","null","","","","","","","","","",""
"","image-keyboard-response","356","232976","0.0-446.0","30H4UDGLT34B5MS245662QXWE6JMP2","A3R97T5D3RR9JX","3RBI0I35XEP26UEZY8S8UZLEA1IY3E","","64.70000000018626","img/food1.png","74","66.70000000018626","1","0","","2","1","1,0.5,0,1,0.5,0,0.5,0,1","0,1,0.5,0,1,0.5,1,0.5,0","3",""
"","html-keyboard-response","357","233279","0.0-447.0","30H4UDGLT34B5MS245662QXWE6JMP2","A3R97T5D3RR9JX","3RBI0I35XEP26UEZY8S8UZLEA1IY3E","","null","<img src=""img/food1.png"" style=""width:200px;border:14px solid red;"">","null","","","","","","","","","",""
"","image-keyboard-response","358","233327","0.0-448.0","30H4UDGLT34B5MS245662QXWE6JMP2","A3R97T5D3RR9JX","3RBI0I35XEP26UEZY8S8UZLEA1IY3E","","45.200000000186265","img/food1.png","74","47.200000000186265","1","0","","2","1","1,0.5,0,1,0.5,0,0.5,0,1","0,1,0.5,0,1,0.5,1,0.5,0","3",""
"","html-keyboard-response","359","233629","0.0-449.0","30H4UDGLT34B5MS245662QXWE6JMP2","A3R97T5D3RR9JX","3RBI0I35XEP26UEZY8S8UZLEA1IY3E","","null","<img src=""img/food1.png"" style=""width:200px;border:14px solid red;"">","null","","","","","","","","","",""
"","image-keyboard-response","360","233708","0.0-450.0","30H4UDGLT34B5MS245662QXWE6JMP2","A3R97T5D3RR9JX","3RBI0I35XEP26UEZY8S8UZLEA1IY3E","","75.90000000037253","img/food5.png","76","78","3","0","","3","1","1,0.5,0,1,0.5,0,0.5,0,1","0,1,0.5,0,1,0.5,1,0.5,0","3",""
"","html-keyboard-response","361","234011","0.0-451.0","30H4UDGLT34B5MS245662QXWE6JMP2","A3R97T5D3RR9JX","3RBI0I35XEP26UEZY8S8UZLEA1IY3E","","null","<img src=""img/food5.png"" style=""width:200px;border:14px solid red;"">","null","","","","","","","","","",""
"","image-keyboard-response","362","234025","0.0-452.0","30H4UDGLT34B5MS245662QXWE6JMP2","A3R97T5D3RR9JX","3RBI0I35XEP26UEZY8S8UZLEA1IY3E","","12","img/food5.png","76","13.799999999813735","3","0","","3","1","1,0.5,0,1,0.5,0,0.5,0,1","0,1,0.5,0,1,0.5,1,0.5,0","3",""
"","html-keyboard-response","363","234328","0.0-453.0","30H4UDGLT34B5MS245662QXWE6JMP2","A3R97T5D3RR9JX","3RBI0I35XEP26UEZY8S8UZLEA1IY3E","","null","<img src=""img/food5.png"" style=""width:200px;border:14px solid red;"">","null","","","","","","","","","",""
"","html-keyboard-response","364","239259","0.0-454.0","30H4UDGLT34B5MS245662QXWE6JMP2","A3R97T5D3RR9JX","3RBI0I35XEP26UEZY8S8UZLEA1IY3E","","","","","","","","","","","","","",""
"","instructions","365","242230","0.0-455.0","30H4UDGLT34B5MS245662QXWE6JMP2","A3R97T5D3RR9JX","3RBI0I35XEP26UEZY8S8UZLEA1IY3E","[{""page_index"":0,""viewing_time"":2970.0999999996275}]","2970.2999999998137","","","","","","","","","","","",""
"","survey-text","366","246244","0.0-456.0","30H4UDGLT34B5MS245662QXWE6JMP2","A3R97T5D3RR9JX","3RBI0I35XEP26UEZY8S8UZLEA1IY3E","","4010.0999999996275","","","","","","","","","","","","{""Q0"":""A3R97T5D3RR9JX""}"
