"success","trial_type","trial_index","time_elapsed","internal_node_id","assignmentID","mturkID","hitID","view_history","rt","stimulus","key_press","reactionTime","a","r","s","cond","reward_cond","reward_cond_actual","reward_matrix_idx","warning","responses"
"true","fullscreen","0","3251","0.0-0.0","3HOSI13XH0AZCVJZM3G8J6TDRCYDDD","A3RTW9UWYKSNWX","335VBRURDJMQFRMOFGHOE9WKSHX9E1","","","","","","","","","","","","","",""
"","instructions","1","36268","0.0-1.0","3HOSI13XH0AZCVJZM3G8J6TDRCYDDD","A3RTW9UWYKSNWX","335VBRURDJMQFRMOFGHOE9WKSHX9E1","[{""page_index"":0,""viewing_time"":4223},{""page_index"":1,""viewing_time"":3190},{""page_index"":2,""viewing_time"":6063},{""page_index"":3,""viewing_time"":6038},{""page_index"":4,""viewing_time"":1686},{""page_index"":5,""viewing_time"":8487},{""page_index"":6,""viewing_time"":3328}]","33015","","","","","","","","","","","",""
"","image-keyboard-response","2","37274","0.0-2.0","3HOSI13XH0AZCVJZM3G8J6TDRCYDDD","A3RTW9UWYKSNWX","335VBRURDJMQFRMOFGHOE9WKSHX9E1","","1005","img/food5.png","74","1006","1","1","1","1","1,0.5,0,1,0.5,0,0.5,0,1","1,0.5,0,1,0.5,0,0.5,0,1","1","",""
"","html-keyboard-response","3","37586","0.0-3.0","3HOSI13XH0AZCVJZM3G8J6TDRCYDDD","A3RTW9UWYKSNWX","335VBRURDJMQFRMOFGHOE9WKSHX9E1","","null","<img src=""img/food5.png"" style=""width:200px; border:14px solid green;"">","null","","","","","","","","","",""
"","image-keyboard-response","4","38222","0.0-4.0","3HOSI13XH0AZCVJZM3G8J6TDRCYDDD","A3RTW9UWYKSNWX","335VBRURDJMQFRMOFGHOE9WKSHX9E1","","636","img/food3.png","75","637","2","0","2","1","1,0.5,0,1,0.5,0,0.5,0,1","1,0.5,0,1,0.5,0,0.5,0,1","1","",""
"","html-keyboard-response","5","38526","0.0-5.0","3HOSI13XH0AZCVJZM3G8J6TDRCYDDD","A3RTW9UWYKSNWX","335VBRURDJMQFRMOFGHOE9WKSHX9E1","","null","<img src=""img/food3.png"" style=""width:200px;border:14px solid red;"">","null","","","","","","","","","",""
"","image-keyboard-response","6","38983","0.0-6.0","3HOSI13XH0AZCVJZM3G8J6TDRCYDDD","A3RTW9UWYKSNWX","335VBRURDJMQFRMOFGHOE9WKSHX9E1","","456","img/food5.png","74","456","1","1","1","1","1,0.5,0,1,0.5,0,0.5,0,1","1,0.5,0,1,0.5,0,0.5,0,1","1","",""
"","html-keyboard-response","7","39292","0.0-7.0","3HOSI13XH0AZCVJZM3G8J6TDRCYDDD","A3RTW9UWYKSNWX","335VBRURDJMQFRMOFGHOE9WKSHX9E1","","null","<img src=""img/food5.png"" style=""width:200px; border:14px solid green;"">","null","","","","","","","","","",""
"","image-keyboard-response","8","40570","0.0-8.0","3HOSI13XH0AZCVJZM3G8J6TDRCYDDD","A3RTW9UWYKSNWX","335VBRURDJMQFRMOFGHOE9WKSHX9E1","","1279","img/food3.png","76","1279","3","0","2","1","1,0.5,0,1,0.5,0,0.5,0,1","1,0.5,0,1,0.5,0,0.5,0,1","1","",""
"","html-keyboard-response","9","40884","0.0-9.0","3HOSI13XH0AZCVJZM3G8J6TDRCYDDD","A3RTW9UWYKSNWX","335VBRURDJMQFRMOFGHOE9WKSHX9E1","","null","<img src=""img/food3.png"" style=""width:200px;border:14px solid red;"">","null","","","","","","","","","",""
"","image-keyboard-response","10","41195","0.0-10.0","3HOSI13XH0AZCVJZM3G8J6TDRCYDDD","A3RTW9UWYKSNWX","335VBRURDJMQFRMOFGHOE9WKSHX9E1","","310","img/food3.png","76","311","3","0","2","1","1,0.5,0,1,0.5,0,0.5,0,1","1,0.5,0,1,0.5,0,0.5,0,1","1","",""
"","html-keyboard-response","11","41507","0.0-11.0","3HOSI13XH0AZCVJZM3G8J6TDRCYDDD","A3RTW9UWYKSNWX","335VBRURDJMQFRMOFGHOE9WKSHX9E1","","null","<img src=""img/food3.png"" style=""width:200px;border:14px solid red;"">","null","","","","","","","","","",""
"","image-keyboard-response","12","42561","0.0-12.0","3HOSI13XH0AZCVJZM3G8J6TDRCYDDD","A3RTW9UWYKSNWX","335VBRURDJMQFRMOFGHOE9WKSHX9E1","","1053","img/food2.png","74","1053","1","0","3","1","1,0.5,0,1,0.5,0,0.5,0,1","1,0.5,0,1,0.5,0,0.5,0,1","1","",""
"","html-keyboard-response","13","42864","0.0-13.0","3HOSI13XH0AZCVJZM3G8J6TDRCYDDD","A3RTW9UWYKSNWX","335VBRURDJMQFRMOFGHOE9WKSHX9E1","","null","<img src=""img/food2.png"" style=""width:200px;border:14px solid red;"">","null","","","","","","","","","",""
"","image-keyboard-response","14","43370","0.0-14.0","3HOSI13XH0AZCVJZM3G8J6TDRCYDDD","A3RTW9UWYKSNWX","335VBRURDJMQFRMOFGHOE9WKSHX9E1","","505","img/food3.png","74","505","1","1","2","1","1,0.5,0,1,0.5,0,0.5,0,1","1,0.5,0,1,0.5,0,0.5,0,1","1","",""
"","html-keyboard-response","15","43676","0.0-15.0","3HOSI13XH0AZCVJZM3G8J6TDRCYDDD","A3RTW9UWYKSNWX","335VBRURDJMQFRMOFGHOE9WKSHX9E1","","null","<img src=""img/food3.png"" style=""width:200px; border:14px solid green;"">","null","","","","","","","","","",""
"","image-keyboard-response","16","43964","0.0-16.0","3HOSI13XH0AZCVJZM3G8J6TDRCYDDD","A3RTW9UWYKSNWX","335VBRURDJMQFRMOFGHOE9WKSHX9E1","","287","img/food3.png","74","287","1","1","2","1","1,0.5,0,1,0.5,0,0.5,0,1","1,0.5,0,1,0.5,0,0.5,0,1","1","",""
"","html-keyboard-response","17","44266","0.0-17.0","3HOSI13XH0AZCVJZM3G8J6TDRCYDDD","A3RTW9UWYKSNWX","335VBRURDJMQFRMOFGHOE9WKSHX9E1","","null","<img src=""img/food3.png"" style=""width:200px; border:14px solid green;"">","null","","","","","","","","","",""
"","image-keyboard-response","18","44693","0.0-18.0","3HOSI13XH0AZCVJZM3G8J6TDRCYDDD","A3RTW9UWYKSNWX","335VBRURDJMQFRMOFGHOE9WKSHX9E1","","427","img/food5.png","75","428","2","1","1","1","1,0.5,0,1,0.5,0,0.5,0,1","1,0.5,0,1,0.5,0,0.5,0,1","1","",""
"","html-keyboard-response","19","45002","0.0-19.0","3HOSI13XH0AZCVJZM3G8J6TDRCYDDD","A3RTW9UWYKSNWX","335VBRURDJMQFRMOFGHOE9WKSHX9E1","","null","<img src=""img/food5.png"" style=""width:200px; border:14px solid green;"">","null","","","","","","","","","",""
"","image-keyboard-response","20","45248","0.0-20.0","3HOSI13XH0AZCVJZM3G8J6TDRCYDDD","A3RTW9UWYKSNWX","335VBRURDJMQFRMOFGHOE9WKSHX9E1","","246","img/food5.png","75","246","2","1","1","1","1,0.5,0,1,0.5,0,0.5,0,1","1,0.5,0,1,0.5,0,0.5,0,1","1","",""
"","html-keyboard-response","21","45563","0.0-21.0","3HOSI13XH0AZCVJZM3G8J6TDRCYDDD","A3RTW9UWYKSNWX","335VBRURDJMQFRMOFGHOE9WKSHX9E1","","null","<img src=""img/food5.png"" style=""width:200px; border:14px solid green;"">","null","","","","","","","","","",""
"","image-keyboard-response","22","45850","0.0-22.0","3HOSI13XH0AZCVJZM3G8J6TDRCYDDD","A3RTW9UWYKSNWX","335VBRURDJMQFRMOFGHOE9WKSHX9E1","","287","img/food5.png","75","287","2","1","1","1","1,0.5,0,1,0.5,0,0.5,0,1","1,0.5,0,1,0.5,0,0.5,0,1","1","",""
"","html-keyboard-response","23","46158","0.0-23.0","3HOSI13XH0AZCVJZM3G8J6TDRCYDDD","A3RTW9UWYKSNWX","335VBRURDJMQFRMOFGHOE9WKSHX9E1","","null","<img src=""img/food5.png"" style=""width:200px; border:14px solid green;"">","null","","","","","","","","","",""
"","image-keyboard-response","24","46543","0.0-24.0","3HOSI13XH0AZCVJZM3G8J6TDRCYDDD","A3RTW9UWYKSNWX","335VBRURDJMQFRMOFGHOE9WKSHX9E1","","386","img/food5.png","75","386","2","0","1","1","1,0.5,0,1,0.5,0,0.5,0,1","1,0.5,0,1,0.5,0,0.5,0,1","1","",""
"","html-keyboard-response","25","46844","0.0-25.0","3HOSI13XH0AZCVJZM3G8J6TDRCYDDD","A3RTW9UWYKSNWX","335VBRURDJMQFRMOFGHOE9WKSHX9E1","","null","<img src=""img/food5.png"" style=""width:200px;border:14px solid red;"">","null","","","","","","","","","",""
"","image-keyboard-response","26","47141","0.0-26.0","3HOSI13XH0AZCVJZM3G8J6TDRCYDDD","A3RTW9UWYKSNWX","335VBRURDJMQFRMOFGHOE9WKSHX9E1","","297","img/food5.png","75","297","2","1","1","1","1,0.5,0,1,0.5,0,0.5,0,1","1,0.5,0,1,0.5,0,0.5,0,1","1","",""
"","html-keyboard-response","27","47454","0.0-27.0","3HOSI13XH0AZCVJZM3G8J6TDRCYDDD","A3RTW9UWYKSNWX","335VBRURDJMQFRMOFGHOE9WKSHX9E1","","null","<img src=""img/food5.png"" style=""width:200px; border:14px solid green;"">","null","","","","","","","","","",""
"","image-keyboard-response","28","48959","0.0-28.0","3HOSI13XH0AZCVJZM3G8J6TDRCYDDD","A3RTW9UWYKSNWX","335VBRURDJMQFRMOFGHOE9WKSHX9E1","","1503","img/food3.png","74","1504","1","1","2","1","1,0.5,0,1,0.5,0,0.5,0,1","1,0.5,0,1,0.5,0,0.5,0,1","1","",""
"","html-keyboard-response","29","49266","0.0-29.0","3HOSI13XH0AZCVJZM3G8J6TDRCYDDD","A3RTW9UWYKSNWX","335VBRURDJMQFRMOFGHOE9WKSHX9E1","","null","<img src=""img/food3.png"" style=""width:200px; border:14px solid green;"">","null","","","","","","","","","",""
"","image-keyboard-response","30","49486","0.0-30.0","3HOSI13XH0AZCVJZM3G8J6TDRCYDDD","A3RTW9UWYKSNWX","335VBRURDJMQFRMOFGHOE9WKSHX9E1","","220","img/food3.png","74","220","1","1","2","1","1,0.5,0,1,0.5,0,0.5,0,1","1,0.5,0,1,0.5,0,0.5,0,1","1","",""
"","html-keyboard-response","31","49796","0.0-31.0","3HOSI13XH0AZCVJZM3G8J6TDRCYDDD","A3RTW9UWYKSNWX","335VBRURDJMQFRMOFGHOE9WKSHX9E1","","null","<img src=""img/food3.png"" style=""width:200px; border:14px solid green;"">","null","","","","","","","","","",""
"","image-keyboard-response","32","52092","0.0-32.0","3HOSI13XH0AZCVJZM3G8J6TDRCYDDD","A3RTW9UWYKSNWX","335VBRURDJMQFRMOFGHOE9WKSHX9E1","","2294","img/food2.png","76","2294","3","1","3","1","1,0.5,0,1,0.5,0,0.5,0,1","1,0.5,0,1,0.5,0,0.5,0,1","1","",""
"","html-keyboard-response","33","52404","0.0-33.0","3HOSI13XH0AZCVJZM3G8J6TDRCYDDD","A3RTW9UWYKSNWX","335VBRURDJMQFRMOFGHOE9WKSHX9E1","","null","<img src=""img/food2.png"" style=""width:200px; border:14px solid green;"">","null","","","","","","","","","",""
"","image-keyboard-response","34","52710","0.0-34.0","3HOSI13XH0AZCVJZM3G8J6TDRCYDDD","A3RTW9UWYKSNWX","335VBRURDJMQFRMOFGHOE9WKSHX9E1","","305","img/food2.png","76","306","3","1","3","1","1,0.5,0,1,0.5,0,0.5,0,1","1,0.5,0,1,0.5,0,0.5,0,1","1","",""
"","html-keyboard-response","35","53012","0.0-35.0","3HOSI13XH0AZCVJZM3G8J6TDRCYDDD","A3RTW9UWYKSNWX","335VBRURDJMQFRMOFGHOE9WKSHX9E1","","null","<img src=""img/food2.png"" style=""width:200px; border:14px solid green;"">","null","","","","","","","","","",""
"","image-keyboard-response","36","53631","0.0-36.0","3HOSI13XH0AZCVJZM3G8J6TDRCYDDD","A3RTW9UWYKSNWX","335VBRURDJMQFRMOFGHOE9WKSHX9E1","","619","img/food5.png","75","620","2","0","1","1","1,0.5,0,1,0.5,0,0.5,0,1","1,0.5,0,1,0.5,0,0.5,0,1","1","",""
"","html-keyboard-response","37","53937","0.0-37.0","3HOSI13XH0AZCVJZM3G8J6TDRCYDDD","A3RTW9UWYKSNWX","335VBRURDJMQFRMOFGHOE9WKSHX9E1","","null","<img src=""img/food5.png"" style=""width:200px;border:14px solid red;"">","null","","","","","","","","","",""
"","image-keyboard-response","38","54696","0.0-38.0","3HOSI13XH0AZCVJZM3G8J6TDRCYDDD","A3RTW9UWYKSNWX","335VBRURDJMQFRMOFGHOE9WKSHX9E1","","759","img/food3.png","74","761","1","1","2","1","1,0.5,0,1,0.5,0,0.5,0,1","1,0.5,0,1,0.5,0,0.5,0,1","1","",""
"","html-keyboard-response","39","55002","0.0-39.0","3HOSI13XH0AZCVJZM3G8J6TDRCYDDD","A3RTW9UWYKSNWX","335VBRURDJMQFRMOFGHOE9WKSHX9E1","","null","<img src=""img/food3.png"" style=""width:200px; border:14px solid green;"">","null","","","","","","","","","",""
"","image-keyboard-response","40","55800","0.0-40.0","3HOSI13XH0AZCVJZM3G8J6TDRCYDDD","A3RTW9UWYKSNWX","335VBRURDJMQFRMOFGHOE9WKSHX9E1","","797","img/food3.png","74","797","1","1","2","1","1,0.5,0,1,0.5,0,0.5,0,1","1,0.5,0,1,0.5,0,0.5,0,1","1","",""
"","html-keyboard-response","41","56112","0.0-41.0","3HOSI13XH0AZCVJZM3G8J6TDRCYDDD","A3RTW9UWYKSNWX","335VBRURDJMQFRMOFGHOE9WKSHX9E1","","null","<img src=""img/food3.png"" style=""width:200px; border:14px solid green;"">","null","","","","","","","","","",""
"","image-keyboard-response","42","56547","0.0-42.0","3HOSI13XH0AZCVJZM3G8J6TDRCYDDD","A3RTW9UWYKSNWX","335VBRURDJMQFRMOFGHOE9WKSHX9E1","","434","img/food3.png","74","435","1","1","2","1","1,0.5,0,1,0.5,0,0.5,0,1","1,0.5,0,1,0.5,0,0.5,0,1","1","",""
"","html-keyboard-response","43","56861","0.0-43.0","3HOSI13XH0AZCVJZM3G8J6TDRCYDDD","A3RTW9UWYKSNWX","335VBRURDJMQFRMOFGHOE9WKSHX9E1","","null","<img src=""img/food3.png"" style=""width:200px; border:14px solid green;"">","null","","","","","","","","","",""
"","image-keyboard-response","44","57671","0.0-44.0","3HOSI13XH0AZCVJZM3G8J6TDRCYDDD","A3RTW9UWYKSNWX","335VBRURDJMQFRMOFGHOE9WKSHX9E1","","810","img/food2.png","76","811","3","1","3","1","1,0.5,0,1,0.5,0,0.5,0,1","1,0.5,0,1,0.5,0,0.5,0,1","1","",""
"","html-keyboard-response","45","57982","0.0-45.0","3HOSI13XH0AZCVJZM3G8J6TDRCYDDD","A3RTW9UWYKSNWX","335VBRURDJMQFRMOFGHOE9WKSHX9E1","","null","<img src=""img/food2.png"" style=""width:200px; border:14px solid green;"">","null","","","","","","","","","",""
"","image-keyboard-response","46","58631","0.0-46.0","3HOSI13XH0AZCVJZM3G8J6TDRCYDDD","A3RTW9UWYKSNWX","335VBRURDJMQFRMOFGHOE9WKSHX9E1","","647","img/food5.png","75","647","2","0","1","1","1,0.5,0,1,0.5,0,0.5,0,1","1,0.5,0,1,0.5,0,0.5,0,1","1","",""
"","html-keyboard-response","47","58936","0.0-47.0","3HOSI13XH0AZCVJZM3G8J6TDRCYDDD","A3RTW9UWYKSNWX","335VBRURDJMQFRMOFGHOE9WKSHX9E1","","null","<img src=""img/food5.png"" style=""width:200px;border:14px solid red;"">","null","","","","","","","","","",""
"","image-keyboard-response","48","59638","0.0-48.0","3HOSI13XH0AZCVJZM3G8J6TDRCYDDD","A3RTW9UWYKSNWX","335VBRURDJMQFRMOFGHOE9WKSHX9E1","","701","img/food3.png","74","701","1","1","2","1","1,0.5,0,1,0.5,0,0.5,0,1","1,0.5,0,1,0.5,0,0.5,0,1","1","",""
"","html-keyboard-response","49","59950","0.0-49.0","3HOSI13XH0AZCVJZM3G8J6TDRCYDDD","A3RTW9UWYKSNWX","335VBRURDJMQFRMOFGHOE9WKSHX9E1","","null","<img src=""img/food3.png"" style=""width:200px; border:14px solid green;"">","null","","","","","","","","","",""
"","image-keyboard-response","50","60753","0.0-50.0","3HOSI13XH0AZCVJZM3G8J6TDRCYDDD","A3RTW9UWYKSNWX","335VBRURDJMQFRMOFGHOE9WKSHX9E1","","802","img/food2.png","76","802","3","1","3","1","1,0.5,0,1,0.5,0,0.5,0,1","1,0.5,0,1,0.5,0,0.5,0,1","1","",""
"","html-keyboard-response","51","61061","0.0-51.0","3HOSI13XH0AZCVJZM3G8J6TDRCYDDD","A3RTW9UWYKSNWX","335VBRURDJMQFRMOFGHOE9WKSHX9E1","","null","<img src=""img/food2.png"" style=""width:200px; border:14px solid green;"">","null","","","","","","","","","",""
"","image-keyboard-response","52","62166","0.0-52.0","3HOSI13XH0AZCVJZM3G8J6TDRCYDDD","A3RTW9UWYKSNWX","335VBRURDJMQFRMOFGHOE9WKSHX9E1","","1105","img/food3.png","74","1105","1","1","2","1","1,0.5,0,1,0.5,0,0.5,0,1","1,0.5,0,1,0.5,0,0.5,0,1","1","",""
"","html-keyboard-response","53","62475","0.0-53.0","3HOSI13XH0AZCVJZM3G8J6TDRCYDDD","A3RTW9UWYKSNWX","335VBRURDJMQFRMOFGHOE9WKSHX9E1","","null","<img src=""img/food3.png"" style=""width:200px; border:14px solid green;"">","null","","","","","","","","","",""
"","image-keyboard-response","54","62996","0.0-54.0","3HOSI13XH0AZCVJZM3G8J6TDRCYDDD","A3RTW9UWYKSNWX","335VBRURDJMQFRMOFGHOE9WKSHX9E1","","519","img/food5.png","75","520","2","0","1","1","1,0.5,0,1,0.5,0,0.5,0,1","1,0.5,0,1,0.5,0,0.5,0,1","1","",""
"","html-keyboard-response","55","63307","0.0-55.0","3HOSI13XH0AZCVJZM3G8J6TDRCYDDD","A3RTW9UWYKSNWX","335VBRURDJMQFRMOFGHOE9WKSHX9E1","","null","<img src=""img/food5.png"" style=""width:200px;border:14px solid red;"">","null","","","","","","","","","",""
"","image-keyboard-response","56","63573","0.0-56.0","3HOSI13XH0AZCVJZM3G8J6TDRCYDDD","A3RTW9UWYKSNWX","335VBRURDJMQFRMOFGHOE9WKSHX9E1","","265","img/food5.png","75","265","2","1","1","1","1,0.5,0,1,0.5,0,0.5,0,1","1,0.5,0,1,0.5,0,0.5,0,1","1","",""
"","html-keyboard-response","57","63882","0.0-57.0","3HOSI13XH0AZCVJZM3G8J6TDRCYDDD","A3RTW9UWYKSNWX","335VBRURDJMQFRMOFGHOE9WKSHX9E1","","null","<img src=""img/food5.png"" style=""width:200px; border:14px solid green;"">","null","","","","","","","","","",""
"","image-keyboard-response","58","64522","0.0-58.0","3HOSI13XH0AZCVJZM3G8J6TDRCYDDD","A3RTW9UWYKSNWX","335VBRURDJMQFRMOFGHOE9WKSHX9E1","","640","img/food2.png","76","640","3","1","3","1","1,0.5,0,1,0.5,0,0.5,0,1","1,0.5,0,1,0.5,0,0.5,0,1","1","",""
"","html-keyboard-response","59","64822","0.0-59.0","3HOSI13XH0AZCVJZM3G8J6TDRCYDDD","A3RTW9UWYKSNWX","335VBRURDJMQFRMOFGHOE9WKSHX9E1","","null","<img src=""img/food2.png"" style=""width:200px; border:14px solid green;"">","null","","","","","","","","","",""
"","image-keyboard-response","60","65392","0.0-60.0","3HOSI13XH0AZCVJZM3G8J6TDRCYDDD","A3RTW9UWYKSNWX","335VBRURDJMQFRMOFGHOE9WKSHX9E1","","569","img/food5.png","75","569","2","1","1","1","1,0.5,0,1,0.5,0,0.5,0,1","1,0.5,0,1,0.5,0,0.5,0,1","1","",""
"","html-keyboard-response","61","65706","0.0-61.0","3HOSI13XH0AZCVJZM3G8J6TDRCYDDD","A3RTW9UWYKSNWX","335VBRURDJMQFRMOFGHOE9WKSHX9E1","","null","<img src=""img/food5.png"" style=""width:200px; border:14px solid green;"">","null","","","","","","","","","",""
"","image-keyboard-response","62","66209","0.0-62.0","3HOSI13XH0AZCVJZM3G8J6TDRCYDDD","A3RTW9UWYKSNWX","335VBRURDJMQFRMOFGHOE9WKSHX9E1","","502","img/food2.png","74","502","1","0","3","1","1,0.5,0,1,0.5,0,0.5,0,1","1,0.5,0,1,0.5,0,0.5,0,1","1","",""
"","html-keyboard-response","63","66522","0.0-63.0","3HOSI13XH0AZCVJZM3G8J6TDRCYDDD","A3RTW9UWYKSNWX","335VBRURDJMQFRMOFGHOE9WKSHX9E1","","null","<img src=""img/food2.png"" style=""width:200px;border:14px solid red;"">","null","","","","","","","","","",""
"","image-keyboard-response","64","66961","0.0-64.0","3HOSI13XH0AZCVJZM3G8J6TDRCYDDD","A3RTW9UWYKSNWX","335VBRURDJMQFRMOFGHOE9WKSHX9E1","","439","img/food3.png","74","439","1","1","2","1","1,0.5,0,1,0.5,0,0.5,0,1","1,0.5,0,1,0.5,0,0.5,0,1","1","",""
"","html-keyboard-response","65","67273","0.0-65.0","3HOSI13XH0AZCVJZM3G8J6TDRCYDDD","A3RTW9UWYKSNWX","335VBRURDJMQFRMOFGHOE9WKSHX9E1","","null","<img src=""img/food3.png"" style=""width:200px; border:14px solid green;"">","null","","","","","","","","","",""
"","image-keyboard-response","66","67898","0.0-66.0","3HOSI13XH0AZCVJZM3G8J6TDRCYDDD","A3RTW9UWYKSNWX","335VBRURDJMQFRMOFGHOE9WKSHX9E1","","625","img/food5.png","75","626","2","0","1","1","1,0.5,0,1,0.5,0,0.5,0,1","1,0.5,0,1,0.5,0,0.5,0,1","1","",""
"","html-keyboard-response","67","68212","0.0-67.0","3HOSI13XH0AZCVJZM3G8J6TDRCYDDD","A3RTW9UWYKSNWX","335VBRURDJMQFRMOFGHOE9WKSHX9E1","","null","<img src=""img/food5.png"" style=""width:200px;border:14px solid red;"">","null","","","","","","","","","",""
"","image-keyboard-response","68","68768","0.0-68.0","3HOSI13XH0AZCVJZM3G8J6TDRCYDDD","A3RTW9UWYKSNWX","335VBRURDJMQFRMOFGHOE9WKSHX9E1","","555","img/food2.png","76","555","3","1","3","1","1,0.5,0,1,0.5,0,0.5,0,1","1,0.5,0,1,0.5,0,0.5,0,1","1","",""
"","html-keyboard-response","69","69075","0.0-69.0","3HOSI13XH0AZCVJZM3G8J6TDRCYDDD","A3RTW9UWYKSNWX","335VBRURDJMQFRMOFGHOE9WKSHX9E1","","null","<img src=""img/food2.png"" style=""width:200px; border:14px solid green;"">","null","","","","","","","","","",""
"","image-keyboard-response","70","69635","0.0-70.0","3HOSI13XH0AZCVJZM3G8J6TDRCYDDD","A3RTW9UWYKSNWX","335VBRURDJMQFRMOFGHOE9WKSHX9E1","","559","img/food2.png","76","560","3","1","3","1","1,0.5,0,1,0.5,0,0.5,0,1","1,0.5,0,1,0.5,0,0.5,0,1","1","",""
"","html-keyboard-response","71","69941","0.0-71.0","3HOSI13XH0AZCVJZM3G8J6TDRCYDDD","A3RTW9UWYKSNWX","335VBRURDJMQFRMOFGHOE9WKSHX9E1","","null","<img src=""img/food2.png"" style=""width:200px; border:14px solid green;"">","null","","","","","","","","","",""
"","image-keyboard-response","72","70532","0.0-72.0","3HOSI13XH0AZCVJZM3G8J6TDRCYDDD","A3RTW9UWYKSNWX","335VBRURDJMQFRMOFGHOE9WKSHX9E1","","590","img/food3.png","74","591","1","1","2","1","1,0.5,0,1,0.5,0,0.5,0,1","1,0.5,0,1,0.5,0,0.5,0,1","1","",""
"","html-keyboard-response","73","70846","0.0-73.0","3HOSI13XH0AZCVJZM3G8J6TDRCYDDD","A3RTW9UWYKSNWX","335VBRURDJMQFRMOFGHOE9WKSHX9E1","","null","<img src=""img/food3.png"" style=""width:200px; border:14px solid green;"">","null","","","","","","","","","",""
"","image-keyboard-response","74","71499","0.0-74.0","3HOSI13XH0AZCVJZM3G8J6TDRCYDDD","A3RTW9UWYKSNWX","335VBRURDJMQFRMOFGHOE9WKSHX9E1","","654","img/food2.png","75","654","2","0","3","1","1,0.5,0,1,0.5,0,0.5,0,1","1,0.5,0,1,0.5,0,0.5,0,1","1","",""
"","html-keyboard-response","75","71802","0.0-75.0","3HOSI13XH0AZCVJZM3G8J6TDRCYDDD","A3RTW9UWYKSNWX","335VBRURDJMQFRMOFGHOE9WKSHX9E1","","null","<img src=""img/food2.png"" style=""width:200px;border:14px solid red;"">","null","","","","","","","","","",""
"","image-keyboard-response","76","72443","0.0-76.0","3HOSI13XH0AZCVJZM3G8J6TDRCYDDD","A3RTW9UWYKSNWX","335VBRURDJMQFRMOFGHOE9WKSHX9E1","","640","img/food5.png","75","640","2","1","1","1","1,0.5,0,1,0.5,0,0.5,0,1","1,0.5,0,1,0.5,0,0.5,0,1","1","",""
"","html-keyboard-response","77","72752","0.0-77.0","3HOSI13XH0AZCVJZM3G8J6TDRCYDDD","A3RTW9UWYKSNWX","335VBRURDJMQFRMOFGHOE9WKSHX9E1","","null","<img src=""img/food5.png"" style=""width:200px; border:14px solid green;"">","null","","","","","","","","","",""
"","image-keyboard-response","78","73603","0.0-78.0","3HOSI13XH0AZCVJZM3G8J6TDRCYDDD","A3RTW9UWYKSNWX","335VBRURDJMQFRMOFGHOE9WKSHX9E1","","850","img/food3.png","74","850","1","1","2","1","1,0.5,0,1,0.5,0,0.5,0,1","1,0.5,0,1,0.5,0,0.5,0,1","1","",""
"","html-keyboard-response","79","73909","0.0-79.0","3HOSI13XH0AZCVJZM3G8J6TDRCYDDD","A3RTW9UWYKSNWX","335VBRURDJMQFRMOFGHOE9WKSHX9E1","","null","<img src=""img/food3.png"" style=""width:200px; border:14px solid green;"">","null","","","","","","","","","",""
"","image-keyboard-response","80","74672","0.0-80.0","3HOSI13XH0AZCVJZM3G8J6TDRCYDDD","A3RTW9UWYKSNWX","335VBRURDJMQFRMOFGHOE9WKSHX9E1","","763","img/food2.png","76","764","3","1","3","1","1,0.5,0,1,0.5,0,0.5,0,1","1,0.5,0,1,0.5,0,0.5,0,1","1","",""
"","html-keyboard-response","81","74983","0.0-81.0","3HOSI13XH0AZCVJZM3G8J6TDRCYDDD","A3RTW9UWYKSNWX","335VBRURDJMQFRMOFGHOE9WKSHX9E1","","null","<img src=""img/food2.png"" style=""width:200px; border:14px solid green;"">","null","","","","","","","","","",""
"","image-keyboard-response","82","75437","0.0-82.0","3HOSI13XH0AZCVJZM3G8J6TDRCYDDD","A3RTW9UWYKSNWX","335VBRURDJMQFRMOFGHOE9WKSHX9E1","","453","img/food2.png","76","453","3","1","3","1","1,0.5,0,1,0.5,0,0.5,0,1","1,0.5,0,1,0.5,0,0.5,0,1","1","",""
"","html-keyboard-response","83","75747","0.0-83.0","3HOSI13XH0AZCVJZM3G8J6TDRCYDDD","A3RTW9UWYKSNWX","335VBRURDJMQFRMOFGHOE9WKSHX9E1","","null","<img src=""img/food2.png"" style=""width:200px; border:14px solid green;"">","null","","","","","","","","","",""
"","image-keyboard-response","84","76319","0.0-84.0","3HOSI13XH0AZCVJZM3G8J6TDRCYDDD","A3RTW9UWYKSNWX","335VBRURDJMQFRMOFGHOE9WKSHX9E1","","572","img/food5.png","75","572","2","1","1","1","1,0.5,0,1,0.5,0,0.5,0,1","1,0.5,0,1,0.5,0,0.5,0,1","1","",""
"","html-keyboard-response","85","76626","0.0-85.0","3HOSI13XH0AZCVJZM3G8J6TDRCYDDD","A3RTW9UWYKSNWX","335VBRURDJMQFRMOFGHOE9WKSHX9E1","","null","<img src=""img/food5.png"" style=""width:200px; border:14px solid green;"">","null","","","","","","","","","",""
"","image-keyboard-response","86","76949","0.0-86.0","3HOSI13XH0AZCVJZM3G8J6TDRCYDDD","A3RTW9UWYKSNWX","335VBRURDJMQFRMOFGHOE9WKSHX9E1","","322","img/food5.png","75","322","2","1","1","1","1,0.5,0,1,0.5,0,0.5,0,1","1,0.5,0,1,0.5,0,0.5,0,1","1","",""
"","html-keyboard-response","87","77261","0.0-87.0","3HOSI13XH0AZCVJZM3G8J6TDRCYDDD","A3RTW9UWYKSNWX","335VBRURDJMQFRMOFGHOE9WKSHX9E1","","null","<img src=""img/food5.png"" style=""width:200px; border:14px solid green;"">","null","","","","","","","","","",""
"","image-keyboard-response","88","77804","0.0-88.0","3HOSI13XH0AZCVJZM3G8J6TDRCYDDD","A3RTW9UWYKSNWX","335VBRURDJMQFRMOFGHOE9WKSHX9E1","","543","img/food3.png","74","544","1","1","2","1","1,0.5,0,1,0.5,0,0.5,0,1","1,0.5,0,1,0.5,0,0.5,0,1","1","",""
"","html-keyboard-response","89","78106","0.0-89.0","3HOSI13XH0AZCVJZM3G8J6TDRCYDDD","A3RTW9UWYKSNWX","335VBRURDJMQFRMOFGHOE9WKSHX9E1","","null","<img src=""img/food3.png"" style=""width:200px; border:14px solid green;"">","null","","","","","","","","","",""
"","image-keyboard-response","90","78662","0.0-90.0","3HOSI13XH0AZCVJZM3G8J6TDRCYDDD","A3RTW9UWYKSNWX","335VBRURDJMQFRMOFGHOE9WKSHX9E1","","556","img/food2.png","76","556","3","1","3","1","1,0.5,0,1,0.5,0,0.5,0,1","1,0.5,0,1,0.5,0,0.5,0,1","1","",""
"","html-keyboard-response","91","78964","0.0-91.0","3HOSI13XH0AZCVJZM3G8J6TDRCYDDD","A3RTW9UWYKSNWX","335VBRURDJMQFRMOFGHOE9WKSHX9E1","","null","<img src=""img/food2.png"" style=""width:200px; border:14px solid green;"">","null","","","","","","","","","",""
"","image-keyboard-response","92","79442","0.0-92.0","3HOSI13XH0AZCVJZM3G8J6TDRCYDDD","A3RTW9UWYKSNWX","335VBRURDJMQFRMOFGHOE9WKSHX9E1","","478","img/food5.png","75","478","2","0","1","1","1,0.5,0,1,0.5,0,0.5,0,1","1,0.5,0,1,0.5,0,0.5,0,1","1","",""
"","html-keyboard-response","93","79742","0.0-93.0","3HOSI13XH0AZCVJZM3G8J6TDRCYDDD","A3RTW9UWYKSNWX","335VBRURDJMQFRMOFGHOE9WKSHX9E1","","null","<img src=""img/food5.png"" style=""width:200px;border:14px solid red;"">","null","","","","","","","","","",""
"","image-keyboard-response","94","80300","0.0-94.0","3HOSI13XH0AZCVJZM3G8J6TDRCYDDD","A3RTW9UWYKSNWX","335VBRURDJMQFRMOFGHOE9WKSHX9E1","","556","img/food3.png","74","556","1","1","2","1","1,0.5,0,1,0.5,0,0.5,0,1","1,0.5,0,1,0.5,0,0.5,0,1","1","",""
"","html-keyboard-response","95","80612","0.0-95.0","3HOSI13XH0AZCVJZM3G8J6TDRCYDDD","A3RTW9UWYKSNWX","335VBRURDJMQFRMOFGHOE9WKSHX9E1","","null","<img src=""img/food3.png"" style=""width:200px; border:14px solid green;"">","null","","","","","","","","","",""
"","image-keyboard-response","96","81195","0.0-96.0","3HOSI13XH0AZCVJZM3G8J6TDRCYDDD","A3RTW9UWYKSNWX","335VBRURDJMQFRMOFGHOE9WKSHX9E1","","583","img/food2.png","76","583","3","1","3","1","1,0.5,0,1,0.5,0,0.5,0,1","1,0.5,0,1,0.5,0,0.5,0,1","1","",""
"","html-keyboard-response","97","81507","0.0-97.0","3HOSI13XH0AZCVJZM3G8J6TDRCYDDD","A3RTW9UWYKSNWX","335VBRURDJMQFRMOFGHOE9WKSHX9E1","","null","<img src=""img/food2.png"" style=""width:200px; border:14px solid green;"">","null","","","","","","","","","",""
"","image-keyboard-response","98","82018","0.0-98.0","3HOSI13XH0AZCVJZM3G8J6TDRCYDDD","A3RTW9UWYKSNWX","335VBRURDJMQFRMOFGHOE9WKSHX9E1","","510","img/food5.png","75","511","2","0","1","1","1,0.5,0,1,0.5,0,0.5,0,1","1,0.5,0,1,0.5,0,0.5,0,1","1","",""
"","html-keyboard-response","99","82333","0.0-99.0","3HOSI13XH0AZCVJZM3G8J6TDRCYDDD","A3RTW9UWYKSNWX","335VBRURDJMQFRMOFGHOE9WKSHX9E1","","null","<img src=""img/food5.png"" style=""width:200px;border:14px solid red;"">","null","","","","","","","","","",""
"","image-keyboard-response","100","82692","0.0-100.0","3HOSI13XH0AZCVJZM3G8J6TDRCYDDD","A3RTW9UWYKSNWX","335VBRURDJMQFRMOFGHOE9WKSHX9E1","","360","img/food5.png","75","360","2","1","1","1","1,0.5,0,1,0.5,0,0.5,0,1","1,0.5,0,1,0.5,0,0.5,0,1","1","",""
"","html-keyboard-response","101","83008","0.0-101.0","3HOSI13XH0AZCVJZM3G8J6TDRCYDDD","A3RTW9UWYKSNWX","335VBRURDJMQFRMOFGHOE9WKSHX9E1","","null","<img src=""img/food5.png"" style=""width:200px; border:14px solid green;"">","null","","","","","","","","","",""
"","image-keyboard-response","102","83294","0.0-102.0","3HOSI13XH0AZCVJZM3G8J6TDRCYDDD","A3RTW9UWYKSNWX","335VBRURDJMQFRMOFGHOE9WKSHX9E1","","285","img/food5.png","75","286","2","0","1","1","1,0.5,0,1,0.5,0,0.5,0,1","1,0.5,0,1,0.5,0,0.5,0,1","1","",""
"","html-keyboard-response","103","83601","0.0-103.0","3HOSI13XH0AZCVJZM3G8J6TDRCYDDD","A3RTW9UWYKSNWX","335VBRURDJMQFRMOFGHOE9WKSHX9E1","","null","<img src=""img/food5.png"" style=""width:200px;border:14px solid red;"">","null","","","","","","","","","",""
"","image-keyboard-response","104","84036","0.0-104.0","3HOSI13XH0AZCVJZM3G8J6TDRCYDDD","A3RTW9UWYKSNWX","335VBRURDJMQFRMOFGHOE9WKSHX9E1","","433","img/food5.png","75","434","2","1","1","1","1,0.5,0,1,0.5,0,0.5,0,1","1,0.5,0,1,0.5,0,0.5,0,1","1","",""
"","html-keyboard-response","105","84347","0.0-105.0","3HOSI13XH0AZCVJZM3G8J6TDRCYDDD","A3RTW9UWYKSNWX","335VBRURDJMQFRMOFGHOE9WKSHX9E1","","null","<img src=""img/food5.png"" style=""width:200px; border:14px solid green;"">","null","","","","","","","","","",""
"","image-keyboard-response","106","84976","0.0-106.0","3HOSI13XH0AZCVJZM3G8J6TDRCYDDD","A3RTW9UWYKSNWX","335VBRURDJMQFRMOFGHOE9WKSHX9E1","","629","img/food3.png","74","629","1","1","2","1","1,0.5,0,1,0.5,0,0.5,0,1","1,0.5,0,1,0.5,0,0.5,0,1","1","",""
"","html-keyboard-response","107","85290","0.0-107.0","3HOSI13XH0AZCVJZM3G8J6TDRCYDDD","A3RTW9UWYKSNWX","335VBRURDJMQFRMOFGHOE9WKSHX9E1","","null","<img src=""img/food3.png"" style=""width:200px; border:14px solid green;"">","null","","","","","","","","","",""
"","image-keyboard-response","108","85598","0.0-108.0","3HOSI13XH0AZCVJZM3G8J6TDRCYDDD","A3RTW9UWYKSNWX","335VBRURDJMQFRMOFGHOE9WKSHX9E1","","308","img/food3.png","74","309","1","1","2","1","1,0.5,0,1,0.5,0,0.5,0,1","1,0.5,0,1,0.5,0,0.5,0,1","1","",""
"","html-keyboard-response","109","85914","0.0-109.0","3HOSI13XH0AZCVJZM3G8J6TDRCYDDD","A3RTW9UWYKSNWX","335VBRURDJMQFRMOFGHOE9WKSHX9E1","","null","<img src=""img/food3.png"" style=""width:200px; border:14px solid green;"">","null","","","","","","","","","",""
"","image-keyboard-response","110","86513","0.0-110.0","3HOSI13XH0AZCVJZM3G8J6TDRCYDDD","A3RTW9UWYKSNWX","335VBRURDJMQFRMOFGHOE9WKSHX9E1","","598","img/food2.png","76","599","3","1","3","1","1,0.5,0,1,0.5,0,0.5,0,1","1,0.5,0,1,0.5,0,0.5,0,1","1","",""
"","html-keyboard-response","111","86818","0.0-111.0","3HOSI13XH0AZCVJZM3G8J6TDRCYDDD","A3RTW9UWYKSNWX","335VBRURDJMQFRMOFGHOE9WKSHX9E1","","null","<img src=""img/food2.png"" style=""width:200px; border:14px solid green;"">","null","","","","","","","","","",""
"","image-keyboard-response","112","87314","0.0-112.0","3HOSI13XH0AZCVJZM3G8J6TDRCYDDD","A3RTW9UWYKSNWX","335VBRURDJMQFRMOFGHOE9WKSHX9E1","","495","img/food5.png","75","495","2","1","1","1","1,0.5,0,1,0.5,0,0.5,0,1","1,0.5,0,1,0.5,0,0.5,0,1","1","",""
"","html-keyboard-response","113","87616","0.0-113.0","3HOSI13XH0AZCVJZM3G8J6TDRCYDDD","A3RTW9UWYKSNWX","335VBRURDJMQFRMOFGHOE9WKSHX9E1","","null","<img src=""img/food5.png"" style=""width:200px; border:14px solid green;"">","null","","","","","","","","","",""
"","image-keyboard-response","114","88230","0.0-114.0","3HOSI13XH0AZCVJZM3G8J6TDRCYDDD","A3RTW9UWYKSNWX","335VBRURDJMQFRMOFGHOE9WKSHX9E1","","614","img/food3.png","74","615","1","1","2","1","1,0.5,0,1,0.5,0,0.5,0,1","1,0.5,0,1,0.5,0,0.5,0,1","1","",""
"","html-keyboard-response","115","88538","0.0-115.0","3HOSI13XH0AZCVJZM3G8J6TDRCYDDD","A3RTW9UWYKSNWX","335VBRURDJMQFRMOFGHOE9WKSHX9E1","","null","<img src=""img/food3.png"" style=""width:200px; border:14px solid green;"">","null","","","","","","","","","",""
"","image-keyboard-response","116","89138","0.0-116.0","3HOSI13XH0AZCVJZM3G8J6TDRCYDDD","A3RTW9UWYKSNWX","335VBRURDJMQFRMOFGHOE9WKSHX9E1","","601","img/food5.png","75","601","2","1","1","1","1,0.5,0,1,0.5,0,0.5,0,1","1,0.5,0,1,0.5,0,0.5,0,1","1","",""
"","html-keyboard-response","117","89446","0.0-117.0","3HOSI13XH0AZCVJZM3G8J6TDRCYDDD","A3RTW9UWYKSNWX","335VBRURDJMQFRMOFGHOE9WKSHX9E1","","null","<img src=""img/food5.png"" style=""width:200px; border:14px solid green;"">","null","","","","","","","","","",""
"","image-keyboard-response","118","90001","0.0-118.0","3HOSI13XH0AZCVJZM3G8J6TDRCYDDD","A3RTW9UWYKSNWX","335VBRURDJMQFRMOFGHOE9WKSHX9E1","","554","img/food2.png","76","554","3","1","3","1","1,0.5,0,1,0.5,0,0.5,0,1","1,0.5,0,1,0.5,0,0.5,0,1","1","",""
"","html-keyboard-response","119","90303","0.0-119.0","3HOSI13XH0AZCVJZM3G8J6TDRCYDDD","A3RTW9UWYKSNWX","335VBRURDJMQFRMOFGHOE9WKSHX9E1","","null","<img src=""img/food2.png"" style=""width:200px; border:14px solid green;"">","null","","","","","","","","","",""
"","image-keyboard-response","120","90879","0.0-120.0","3HOSI13XH0AZCVJZM3G8J6TDRCYDDD","A3RTW9UWYKSNWX","335VBRURDJMQFRMOFGHOE9WKSHX9E1","","575","img/food3.png","75","575","2","0","2","1","1,0.5,0,1,0.5,0,0.5,0,1","1,0.5,0,1,0.5,0,0.5,0,1","1","",""
"","html-keyboard-response","121","91192","0.0-121.0","3HOSI13XH0AZCVJZM3G8J6TDRCYDDD","A3RTW9UWYKSNWX","335VBRURDJMQFRMOFGHOE9WKSHX9E1","","null","<img src=""img/food3.png"" style=""width:200px;border:14px solid red;"">","null","","","","","","","","","",""
"","image-keyboard-response","122","92083","0.0-122.0","3HOSI13XH0AZCVJZM3G8J6TDRCYDDD","A3RTW9UWYKSNWX","335VBRURDJMQFRMOFGHOE9WKSHX9E1","","891","img/food2.png","76","891","3","1","3","1","1,0.5,0,1,0.5,0,0.5,0,1","1,0.5,0,1,0.5,0,0.5,0,1","1","",""
"","html-keyboard-response","123","92397","0.0-123.0","3HOSI13XH0AZCVJZM3G8J6TDRCYDDD","A3RTW9UWYKSNWX","335VBRURDJMQFRMOFGHOE9WKSHX9E1","","null","<img src=""img/food2.png"" style=""width:200px; border:14px solid green;"">","null","","","","","","","","","",""
"","image-keyboard-response","124","92807","0.0-124.0","3HOSI13XH0AZCVJZM3G8J6TDRCYDDD","A3RTW9UWYKSNWX","335VBRURDJMQFRMOFGHOE9WKSHX9E1","","410","img/food2.png","76","410","3","1","3","1","1,0.5,0,1,0.5,0,0.5,0,1","1,0.5,0,1,0.5,0,0.5,0,1","1","",""
"","html-keyboard-response","125","93113","0.0-125.0","3HOSI13XH0AZCVJZM3G8J6TDRCYDDD","A3RTW9UWYKSNWX","335VBRURDJMQFRMOFGHOE9WKSHX9E1","","null","<img src=""img/food2.png"" style=""width:200px; border:14px solid green;"">","null","","","","","","","","","",""
"","image-keyboard-response","126","93633","0.0-126.0","3HOSI13XH0AZCVJZM3G8J6TDRCYDDD","A3RTW9UWYKSNWX","335VBRURDJMQFRMOFGHOE9WKSHX9E1","","520","img/food2.png","76","520","3","1","3","1","1,0.5,0,1,0.5,0,0.5,0,1","1,0.5,0,1,0.5,0,0.5,0,1","1","",""
"","html-keyboard-response","127","93940","0.0-127.0","3HOSI13XH0AZCVJZM3G8J6TDRCYDDD","A3RTW9UWYKSNWX","335VBRURDJMQFRMOFGHOE9WKSHX9E1","","null","<img src=""img/food2.png"" style=""width:200px; border:14px solid green;"">","null","","","","","","","","","",""
"","image-keyboard-response","128","94418","0.0-128.0","3HOSI13XH0AZCVJZM3G8J6TDRCYDDD","A3RTW9UWYKSNWX","335VBRURDJMQFRMOFGHOE9WKSHX9E1","","477","img/food3.png","74","477","1","1","2","1","1,0.5,0,1,0.5,0,0.5,0,1","1,0.5,0,1,0.5,0,0.5,0,1","1","",""
"","html-keyboard-response","129","94719","0.0-129.0","3HOSI13XH0AZCVJZM3G8J6TDRCYDDD","A3RTW9UWYKSNWX","335VBRURDJMQFRMOFGHOE9WKSHX9E1","","null","<img src=""img/food3.png"" style=""width:200px; border:14px solid green;"">","null","","","","","","","","","",""
"","image-keyboard-response","130","95207","0.0-130.0","3HOSI13XH0AZCVJZM3G8J6TDRCYDDD","A3RTW9UWYKSNWX","335VBRURDJMQFRMOFGHOE9WKSHX9E1","","488","img/food2.png","75","488","2","0","3","1","1,0.5,0,1,0.5,0,0.5,0,1","1,0.5,0,1,0.5,0,0.5,0,1","1","",""
"","html-keyboard-response","131","95517","0.0-131.0","3HOSI13XH0AZCVJZM3G8J6TDRCYDDD","A3RTW9UWYKSNWX","335VBRURDJMQFRMOFGHOE9WKSHX9E1","","null","<img src=""img/food2.png"" style=""width:200px;border:14px solid red;"">","null","","","","","","","","","",""
"","image-keyboard-response","132","96121","0.0-132.0","3HOSI13XH0AZCVJZM3G8J6TDRCYDDD","A3RTW9UWYKSNWX","335VBRURDJMQFRMOFGHOE9WKSHX9E1","","602","img/food3.png","74","603","1","1","2","1","1,0.5,0,1,0.5,0,0.5,0,1","1,0.5,0,1,0.5,0,0.5,0,1","1","",""
"","html-keyboard-response","133","96425","0.0-133.0","3HOSI13XH0AZCVJZM3G8J6TDRCYDDD","A3RTW9UWYKSNWX","335VBRURDJMQFRMOFGHOE9WKSHX9E1","","null","<img src=""img/food3.png"" style=""width:200px; border:14px solid green;"">","null","","","","","","","","","",""
"","image-keyboard-response","134","96951","0.0-134.0","3HOSI13XH0AZCVJZM3G8J6TDRCYDDD","A3RTW9UWYKSNWX","335VBRURDJMQFRMOFGHOE9WKSHX9E1","","526","img/food2.png","76","526","3","1","3","1","1,0.5,0,1,0.5,0,0.5,0,1","1,0.5,0,1,0.5,0,0.5,0,1","1","",""
"","html-keyboard-response","135","97254","0.0-135.0","3HOSI13XH0AZCVJZM3G8J6TDRCYDDD","A3RTW9UWYKSNWX","335VBRURDJMQFRMOFGHOE9WKSHX9E1","","null","<img src=""img/food2.png"" style=""width:200px; border:14px solid green;"">","null","","","","","","","","","",""
"","image-keyboard-response","136","97761","0.0-136.0","3HOSI13XH0AZCVJZM3G8J6TDRCYDDD","A3RTW9UWYKSNWX","335VBRURDJMQFRMOFGHOE9WKSHX9E1","","507","img/food5.png","75","507","2","1","1","1","1,0.5,0,1,0.5,0,0.5,0,1","1,0.5,0,1,0.5,0,0.5,0,1","1","",""
"","html-keyboard-response","137","98076","0.0-137.0","3HOSI13XH0AZCVJZM3G8J6TDRCYDDD","A3RTW9UWYKSNWX","335VBRURDJMQFRMOFGHOE9WKSHX9E1","","null","<img src=""img/food5.png"" style=""width:200px; border:14px solid green;"">","null","","","","","","","","","",""
"","image-keyboard-response","138","98674","0.0-138.0","3HOSI13XH0AZCVJZM3G8J6TDRCYDDD","A3RTW9UWYKSNWX","335VBRURDJMQFRMOFGHOE9WKSHX9E1","","597","img/food3.png","74","599","1","1","2","1","1,0.5,0,1,0.5,0,0.5,0,1","1,0.5,0,1,0.5,0,0.5,0,1","1","",""
"","html-keyboard-response","139","98981","0.0-139.0","3HOSI13XH0AZCVJZM3G8J6TDRCYDDD","A3RTW9UWYKSNWX","335VBRURDJMQFRMOFGHOE9WKSHX9E1","","null","<img src=""img/food3.png"" style=""width:200px; border:14px solid green;"">","null","","","","","","","","","",""
"","image-keyboard-response","140","100605","0.0-140.0","3HOSI13XH0AZCVJZM3G8J6TDRCYDDD","A3RTW9UWYKSNWX","335VBRURDJMQFRMOFGHOE9WKSHX9E1","","1623","img/food2.png","76","1624","3","1","3","1","1,0.5,0,1,0.5,0,0.5,0,1","1,0.5,0,1,0.5,0,0.5,0,1","1","",""
"","html-keyboard-response","141","100920","0.0-141.0","3HOSI13XH0AZCVJZM3G8J6TDRCYDDD","A3RTW9UWYKSNWX","335VBRURDJMQFRMOFGHOE9WKSHX9E1","","null","<img src=""img/food2.png"" style=""width:200px; border:14px solid green;"">","null","","","","","","","","","",""
"","image-keyboard-response","142","101507","0.0-142.0","3HOSI13XH0AZCVJZM3G8J6TDRCYDDD","A3RTW9UWYKSNWX","335VBRURDJMQFRMOFGHOE9WKSHX9E1","","587","img/food3.png","74","587","1","1","2","1","1,0.5,0,1,0.5,0,0.5,0,1","1,0.5,0,1,0.5,0,0.5,0,1","1","",""
"","html-keyboard-response","143","101822","0.0-143.0","3HOSI13XH0AZCVJZM3G8J6TDRCYDDD","A3RTW9UWYKSNWX","335VBRURDJMQFRMOFGHOE9WKSHX9E1","","null","<img src=""img/food3.png"" style=""width:200px; border:14px solid green;"">","null","","","","","","","","","",""
"","image-keyboard-response","144","102390","0.0-144.0","3HOSI13XH0AZCVJZM3G8J6TDRCYDDD","A3RTW9UWYKSNWX","335VBRURDJMQFRMOFGHOE9WKSHX9E1","","568","img/food5.png","75","568","2","0","1","1","1,0.5,0,1,0.5,0,0.5,0,1","1,0.5,0,1,0.5,0,0.5,0,1","1","",""
"","html-keyboard-response","145","102698","0.0-145.0","3HOSI13XH0AZCVJZM3G8J6TDRCYDDD","A3RTW9UWYKSNWX","335VBRURDJMQFRMOFGHOE9WKSHX9E1","","null","<img src=""img/food5.png"" style=""width:200px;border:14px solid red;"">","null","","","","","","","","","",""
"","image-keyboard-response","146","103315","0.0-146.0","3HOSI13XH0AZCVJZM3G8J6TDRCYDDD","A3RTW9UWYKSNWX","335VBRURDJMQFRMOFGHOE9WKSHX9E1","","616","img/food2.png","76","616","3","1","3","1","1,0.5,0,1,0.5,0,0.5,0,1","1,0.5,0,1,0.5,0,0.5,0,1","1","",""
"","html-keyboard-response","147","103617","0.0-147.0","3HOSI13XH0AZCVJZM3G8J6TDRCYDDD","A3RTW9UWYKSNWX","335VBRURDJMQFRMOFGHOE9WKSHX9E1","","null","<img src=""img/food2.png"" style=""width:200px; border:14px solid green;"">","null","","","","","","","","","",""
"","image-keyboard-response","148","104233","0.0-148.0","3HOSI13XH0AZCVJZM3G8J6TDRCYDDD","A3RTW9UWYKSNWX","335VBRURDJMQFRMOFGHOE9WKSHX9E1","","614","img/food3.png","74","615","1","1","2","1","1,0.5,0,1,0.5,0,0.5,0,1","1,0.5,0,1,0.5,0,0.5,0,1","1","",""
"","html-keyboard-response","149","104538","0.0-149.0","3HOSI13XH0AZCVJZM3G8J6TDRCYDDD","A3RTW9UWYKSNWX","335VBRURDJMQFRMOFGHOE9WKSHX9E1","","null","<img src=""img/food3.png"" style=""width:200px; border:14px solid green;"">","null","","","","","","","","","",""
"","image-keyboard-response","150","105173","0.0-150.0","3HOSI13XH0AZCVJZM3G8J6TDRCYDDD","A3RTW9UWYKSNWX","335VBRURDJMQFRMOFGHOE9WKSHX9E1","","636","img/food2.png","76","636","3","1","3","1","1,0.5,0,1,0.5,0,0.5,0,1","1,0.5,0,1,0.5,0,0.5,0,1","1","",""
"","html-keyboard-response","151","105480","0.0-151.0","3HOSI13XH0AZCVJZM3G8J6TDRCYDDD","A3RTW9UWYKSNWX","335VBRURDJMQFRMOFGHOE9WKSHX9E1","","null","<img src=""img/food2.png"" style=""width:200px; border:14px solid green;"">","null","","","","","","","","","",""
"","image-keyboard-response","152","105983","0.0-152.0","3HOSI13XH0AZCVJZM3G8J6TDRCYDDD","A3RTW9UWYKSNWX","335VBRURDJMQFRMOFGHOE9WKSHX9E1","","503","img/food2.png","76","503","3","1","3","1","1,0.5,0,1,0.5,0,0.5,0,1","1,0.5,0,1,0.5,0,0.5,0,1","1","",""
"","html-keyboard-response","153","106288","0.0-153.0","3HOSI13XH0AZCVJZM3G8J6TDRCYDDD","A3RTW9UWYKSNWX","335VBRURDJMQFRMOFGHOE9WKSHX9E1","","null","<img src=""img/food2.png"" style=""width:200px; border:14px solid green;"">","null","","","","","","","","","",""
"","image-keyboard-response","154","106816","0.0-154.0","3HOSI13XH0AZCVJZM3G8J6TDRCYDDD","A3RTW9UWYKSNWX","335VBRURDJMQFRMOFGHOE9WKSHX9E1","","527","img/food5.png","75","527","2","0","1","1","1,0.5,0,1,0.5,0,0.5,0,1","1,0.5,0,1,0.5,0,0.5,0,1","1","",""
"","html-keyboard-response","155","107119","0.0-155.0","3HOSI13XH0AZCVJZM3G8J6TDRCYDDD","A3RTW9UWYKSNWX","335VBRURDJMQFRMOFGHOE9WKSHX9E1","","null","<img src=""img/food5.png"" style=""width:200px;border:14px solid red;"">","null","","","","","","","","","",""
"","image-keyboard-response","156","107795","0.0-156.0","3HOSI13XH0AZCVJZM3G8J6TDRCYDDD","A3RTW9UWYKSNWX","335VBRURDJMQFRMOFGHOE9WKSHX9E1","","675","img/food2.png","76","676","3","1","3","1","1,0.5,0,1,0.5,0,0.5,0,1","1,0.5,0,1,0.5,0,0.5,0,1","1","",""
"","html-keyboard-response","157","108106","0.0-157.0","3HOSI13XH0AZCVJZM3G8J6TDRCYDDD","A3RTW9UWYKSNWX","335VBRURDJMQFRMOFGHOE9WKSHX9E1","","null","<img src=""img/food2.png"" style=""width:200px; border:14px solid green;"">","null","","","","","","","","","",""
"","image-keyboard-response","158","108547","0.0-158.0","3HOSI13XH0AZCVJZM3G8J6TDRCYDDD","A3RTW9UWYKSNWX","335VBRURDJMQFRMOFGHOE9WKSHX9E1","","441","img/food2.png","76","443","3","1","3","1","1,0.5,0,1,0.5,0,0.5,0,1","1,0.5,0,1,0.5,0,0.5,0,1","1","",""
"","html-keyboard-response","159","108851","0.0-159.0","3HOSI13XH0AZCVJZM3G8J6TDRCYDDD","A3RTW9UWYKSNWX","335VBRURDJMQFRMOFGHOE9WKSHX9E1","","null","<img src=""img/food2.png"" style=""width:200px; border:14px solid green;"">","null","","","","","","","","","",""
"","image-keyboard-response","160","109328","0.0-160.0","3HOSI13XH0AZCVJZM3G8J6TDRCYDDD","A3RTW9UWYKSNWX","335VBRURDJMQFRMOFGHOE9WKSHX9E1","","477","img/food2.png","76","477","3","1","3","1","1,0.5,0,1,0.5,0,0.5,0,1","1,0.5,0,1,0.5,0,0.5,0,1","1","",""
"","html-keyboard-response","161","109635","0.0-161.0","3HOSI13XH0AZCVJZM3G8J6TDRCYDDD","A3RTW9UWYKSNWX","335VBRURDJMQFRMOFGHOE9WKSHX9E1","","null","<img src=""img/food2.png"" style=""width:200px; border:14px solid green;"">","null","","","","","","","","","",""
"","image-keyboard-response","162","110225","0.0-162.0","3HOSI13XH0AZCVJZM3G8J6TDRCYDDD","A3RTW9UWYKSNWX","335VBRURDJMQFRMOFGHOE9WKSHX9E1","","589","img/food3.png","74","590","1","1","2","1","1,0.5,0,1,0.5,0,0.5,0,1","1,0.5,0,1,0.5,0,0.5,0,1","1","",""
"","html-keyboard-response","163","110541","0.0-163.0","3HOSI13XH0AZCVJZM3G8J6TDRCYDDD","A3RTW9UWYKSNWX","335VBRURDJMQFRMOFGHOE9WKSHX9E1","","null","<img src=""img/food3.png"" style=""width:200px; border:14px solid green;"">","null","","","","","","","","","",""
"","image-keyboard-response","164","110958","0.0-164.0","3HOSI13XH0AZCVJZM3G8J6TDRCYDDD","A3RTW9UWYKSNWX","335VBRURDJMQFRMOFGHOE9WKSHX9E1","","418","img/food3.png","74","418","1","1","2","1","1,0.5,0,1,0.5,0,0.5,0,1","1,0.5,0,1,0.5,0,0.5,0,1","1","",""
"","html-keyboard-response","165","111268","0.0-165.0","3HOSI13XH0AZCVJZM3G8J6TDRCYDDD","A3RTW9UWYKSNWX","335VBRURDJMQFRMOFGHOE9WKSHX9E1","","null","<img src=""img/food3.png"" style=""width:200px; border:14px solid green;"">","null","","","","","","","","","",""
"","image-keyboard-response","166","111905","0.0-166.0","3HOSI13XH0AZCVJZM3G8J6TDRCYDDD","A3RTW9UWYKSNWX","335VBRURDJMQFRMOFGHOE9WKSHX9E1","","636","img/food2.png","76","636","3","1","3","1","1,0.5,0,1,0.5,0,0.5,0,1","1,0.5,0,1,0.5,0,0.5,0,1","1","",""
"","html-keyboard-response","167","112221","0.0-167.0","3HOSI13XH0AZCVJZM3G8J6TDRCYDDD","A3RTW9UWYKSNWX","335VBRURDJMQFRMOFGHOE9WKSHX9E1","","null","<img src=""img/food2.png"" style=""width:200px; border:14px solid green;"">","null","","","","","","","","","",""
"","image-keyboard-response","168","112691","0.0-168.0","3HOSI13XH0AZCVJZM3G8J6TDRCYDDD","A3RTW9UWYKSNWX","335VBRURDJMQFRMOFGHOE9WKSHX9E1","","470","img/food5.png","75","470","2","1","1","1","1,0.5,0,1,0.5,0,0.5,0,1","1,0.5,0,1,0.5,0,0.5,0,1","1","",""
"","html-keyboard-response","169","113000","0.0-169.0","3HOSI13XH0AZCVJZM3G8J6TDRCYDDD","A3RTW9UWYKSNWX","335VBRURDJMQFRMOFGHOE9WKSHX9E1","","null","<img src=""img/food5.png"" style=""width:200px; border:14px solid green;"">","null","","","","","","","","","",""
"","image-keyboard-response","170","113364","0.0-170.0","3HOSI13XH0AZCVJZM3G8J6TDRCYDDD","A3RTW9UWYKSNWX","335VBRURDJMQFRMOFGHOE9WKSHX9E1","","364","img/food5.png","75","365","2","0","1","1","1,0.5,0,1,0.5,0,0.5,0,1","1,0.5,0,1,0.5,0,0.5,0,1","1","",""
"","html-keyboard-response","171","113671","0.0-171.0","3HOSI13XH0AZCVJZM3G8J6TDRCYDDD","A3RTW9UWYKSNWX","335VBRURDJMQFRMOFGHOE9WKSHX9E1","","null","<img src=""img/food5.png"" style=""width:200px;border:14px solid red;"">","null","","","","","","","","","",""
"","image-keyboard-response","172","114241","0.0-172.0","3HOSI13XH0AZCVJZM3G8J6TDRCYDDD","A3RTW9UWYKSNWX","335VBRURDJMQFRMOFGHOE9WKSHX9E1","","569","img/food3.png","74","570","1","1","2","1","1,0.5,0,1,0.5,0,0.5,0,1","1,0.5,0,1,0.5,0,0.5,0,1","1","",""
"","html-keyboard-response","173","114547","0.0-173.0","3HOSI13XH0AZCVJZM3G8J6TDRCYDDD","A3RTW9UWYKSNWX","335VBRURDJMQFRMOFGHOE9WKSHX9E1","","null","<img src=""img/food3.png"" style=""width:200px; border:14px solid green;"">","null","","","","","","","","","",""
"","image-keyboard-response","174","115399","0.0-174.0","3HOSI13XH0AZCVJZM3G8J6TDRCYDDD","A3RTW9UWYKSNWX","335VBRURDJMQFRMOFGHOE9WKSHX9E1","","852","img/food2.png","76","853","3","1","3","1","1,0.5,0,1,0.5,0,0.5,0,1","1,0.5,0,1,0.5,0,0.5,0,1","1","",""
"","html-keyboard-response","175","115703","0.0-175.0","3HOSI13XH0AZCVJZM3G8J6TDRCYDDD","A3RTW9UWYKSNWX","335VBRURDJMQFRMOFGHOE9WKSHX9E1","","null","<img src=""img/food2.png"" style=""width:200px; border:14px solid green;"">","null","","","","","","","","","",""
"","image-keyboard-response","176","116316","0.0-176.0","3HOSI13XH0AZCVJZM3G8J6TDRCYDDD","A3RTW9UWYKSNWX","335VBRURDJMQFRMOFGHOE9WKSHX9E1","","612","img/food3.png","74","613","1","1","2","1","1,0.5,0,1,0.5,0,0.5,0,1","1,0.5,0,1,0.5,0,0.5,0,1","1","",""
"","html-keyboard-response","177","116624","0.0-177.0","3HOSI13XH0AZCVJZM3G8J6TDRCYDDD","A3RTW9UWYKSNWX","335VBRURDJMQFRMOFGHOE9WKSHX9E1","","null","<img src=""img/food3.png"" style=""width:200px; border:14px solid green;"">","null","","","","","","","","","",""
"","image-keyboard-response","178","117195","0.0-178.0","3HOSI13XH0AZCVJZM3G8J6TDRCYDDD","A3RTW9UWYKSNWX","335VBRURDJMQFRMOFGHOE9WKSHX9E1","","570","img/food5.png","75","570","2","1","1","1","1,0.5,0,1,0.5,0,0.5,0,1","1,0.5,0,1,0.5,0,0.5,0,1","1","",""
"","html-keyboard-response","179","117508","0.0-179.0","3HOSI13XH0AZCVJZM3G8J6TDRCYDDD","A3RTW9UWYKSNWX","335VBRURDJMQFRMOFGHOE9WKSHX9E1","","null","<img src=""img/food5.png"" style=""width:200px; border:14px solid green;"">","null","","","","","","","","","",""
"","image-keyboard-response","180","117877","0.0-180.0","3HOSI13XH0AZCVJZM3G8J6TDRCYDDD","A3RTW9UWYKSNWX","335VBRURDJMQFRMOFGHOE9WKSHX9E1","","367","img/food5.png","75","368","2","0","1","1","1,0.5,0,1,0.5,0,0.5,0,1","1,0.5,0,1,0.5,0,0.5,0,1","1","",""
"","html-keyboard-response","181","118186","0.0-181.0","3HOSI13XH0AZCVJZM3G8J6TDRCYDDD","A3RTW9UWYKSNWX","335VBRURDJMQFRMOFGHOE9WKSHX9E1","","null","<img src=""img/food5.png"" style=""width:200px;border:14px solid red;"">","null","","","","","","","","","",""
"","html-keyboard-response","182","120468","0.0-182.0","3HOSI13XH0AZCVJZM3G8J6TDRCYDDD","A3RTW9UWYKSNWX","335VBRURDJMQFRMOFGHOE9WKSHX9E1","","","","","","","","","","","","","",""
"","instructions","183","130355","0.0-183.0","3HOSI13XH0AZCVJZM3G8J6TDRCYDDD","A3RTW9UWYKSNWX","335VBRURDJMQFRMOFGHOE9WKSHX9E1","[{""page_index"":0,""viewing_time"":8426},{""page_index"":1,""viewing_time"":1460}]","9886","","","","","","","","","","","",""
"","image-keyboard-response","184","131215","0.0-184.0","3HOSI13XH0AZCVJZM3G8J6TDRCYDDD","A3RTW9UWYKSNWX","335VBRURDJMQFRMOFGHOE9WKSHX9E1","","859","img/food1.png","76","860","3","0","3","2","1,0.5,0,1,0.5,0,0.5,0,1","0,1,0.5,0,1,0.5,1,0.5,0","3","false",""
"","html-keyboard-response","185","131517","0.0-185.0","3HOSI13XH0AZCVJZM3G8J6TDRCYDDD","A3RTW9UWYKSNWX","335VBRURDJMQFRMOFGHOE9WKSHX9E1","","null","<img src=""img/food1.png"" style=""width:200px;border:14px solid red;"">","null","","","","","","","","","",""
"","image-keyboard-response","186","132002","0.0-187.0","3HOSI13XH0AZCVJZM3G8J6TDRCYDDD","A3RTW9UWYKSNWX","335VBRURDJMQFRMOFGHOE9WKSHX9E1","","484","img/food6.png","75","484","2","1","2","2","1,0.5,0,1,0.5,0,0.5,0,1","0,1,0.5,0,1,0.5,1,0.5,0","3","false",""
"","html-keyboard-response","187","132304","0.0-188.0","3HOSI13XH0AZCVJZM3G8J6TDRCYDDD","A3RTW9UWYKSNWX","335VBRURDJMQFRMOFGHOE9WKSHX9E1","","null","<img src=""img/food6.png"" style=""width:200px; border:14px solid green;"">","null","","","","","","","","","",""
"","image-keyboard-response","188","132980","0.0-190.0","3HOSI13XH0AZCVJZM3G8J6TDRCYDDD","A3RTW9UWYKSNWX","335VBRURDJMQFRMOFGHOE9WKSHX9E1","","676","img/food1.png","76","676","3","0","3","2","1,0.5,0,1,0.5,0,0.5,0,1","0,1,0.5,0,1,0.5,1,0.5,0","3","false",""
"","html-keyboard-response","189","133280","0.0-191.0","3HOSI13XH0AZCVJZM3G8J6TDRCYDDD","A3RTW9UWYKSNWX","335VBRURDJMQFRMOFGHOE9WKSHX9E1","","null","<img src=""img/food1.png"" style=""width:200px;border:14px solid red;"">","null","","","","","","","","","",""
"","image-keyboard-response","190","133871","0.0-193.0","3HOSI13XH0AZCVJZM3G8J6TDRCYDDD","A3RTW9UWYKSNWX","335VBRURDJMQFRMOFGHOE9WKSHX9E1","","591","img/food4.png","74","591","1","0","1","2","1,0.5,0,1,0.5,0,0.5,0,1","0,1,0.5,0,1,0.5,1,0.5,0","3","false",""
"","html-keyboard-response","191","134180","0.0-194.0","3HOSI13XH0AZCVJZM3G8J6TDRCYDDD","A3RTW9UWYKSNWX","335VBRURDJMQFRMOFGHOE9WKSHX9E1","","null","<img src=""img/food4.png"" style=""width:200px;border:14px solid red;"">","null","","","","","","","","","",""
"","image-keyboard-response","192","134541","0.0-196.0","3HOSI13XH0AZCVJZM3G8J6TDRCYDDD","A3RTW9UWYKSNWX","335VBRURDJMQFRMOFGHOE9WKSHX9E1","","360","img/food4.png","74","360","1","0","1","2","1,0.5,0,1,0.5,0,0.5,0,1","0,1,0.5,0,1,0.5,1,0.5,0","3","false",""
"","html-keyboard-response","193","134854","0.0-197.0","3HOSI13XH0AZCVJZM3G8J6TDRCYDDD","A3RTW9UWYKSNWX","335VBRURDJMQFRMOFGHOE9WKSHX9E1","","null","<img src=""img/food4.png"" style=""width:200px;border:14px solid red;"">","null","","","","","","","","","",""
"","image-keyboard-response","194","135159","0.0-199.0","3HOSI13XH0AZCVJZM3G8J6TDRCYDDD","A3RTW9UWYKSNWX","335VBRURDJMQFRMOFGHOE9WKSHX9E1","","303","img/food4.png","76","304","3","1","1","2","1,0.5,0,1,0.5,0,0.5,0,1","0,1,0.5,0,1,0.5,1,0.5,0","3","false",""
"","html-keyboard-response","195","135471","0.0-200.0","3HOSI13XH0AZCVJZM3G8J6TDRCYDDD","A3RTW9UWYKSNWX","335VBRURDJMQFRMOFGHOE9WKSHX9E1","","null","<img src=""img/food4.png"" style=""width:200px; border:14px solid green;"">","null","","","","","","","","","",""
"","image-keyboard-response","196","136036","0.0-202.0","3HOSI13XH0AZCVJZM3G8J6TDRCYDDD","A3RTW9UWYKSNWX","335VBRURDJMQFRMOFGHOE9WKSHX9E1","","565","img/food1.png","75","566","2","1","3","2","1,0.5,0,1,0.5,0,0.5,0,1","0,1,0.5,0,1,0.5,1,0.5,0","3","false",""
"","html-keyboard-response","197","136350","0.0-203.0","3HOSI13XH0AZCVJZM3G8J6TDRCYDDD","A3RTW9UWYKSNWX","335VBRURDJMQFRMOFGHOE9WKSHX9E1","","null","<img src=""img/food1.png"" style=""width:200px; border:14px solid green;"">","null","","","","","","","","","",""
"","image-keyboard-response","198","136675","0.0-205.0","3HOSI13XH0AZCVJZM3G8J6TDRCYDDD","A3RTW9UWYKSNWX","335VBRURDJMQFRMOFGHOE9WKSHX9E1","","324","img/food1.png","75","324","2","0","3","2","1,0.5,0,1,0.5,0,0.5,0,1","0,1,0.5,0,1,0.5,1,0.5,0","3","false",""
"","html-keyboard-response","199","136977","0.0-206.0","3HOSI13XH0AZCVJZM3G8J6TDRCYDDD","A3RTW9UWYKSNWX","335VBRURDJMQFRMOFGHOE9WKSHX9E1","","null","<img src=""img/food1.png"" style=""width:200px;border:14px solid red;"">","null","","","","","","","","","",""
"","image-keyboard-response","200","137366","0.0-208.0","3HOSI13XH0AZCVJZM3G8J6TDRCYDDD","A3RTW9UWYKSNWX","335VBRURDJMQFRMOFGHOE9WKSHX9E1","","388","img/food4.png","76","388","3","0","1","2","1,0.5,0,1,0.5,0,0.5,0,1","0,1,0.5,0,1,0.5,1,0.5,0","3","false",""
"","html-keyboard-response","201","137676","0.0-209.0","3HOSI13XH0AZCVJZM3G8J6TDRCYDDD","A3RTW9UWYKSNWX","335VBRURDJMQFRMOFGHOE9WKSHX9E1","","null","<img src=""img/food4.png"" style=""width:200px;border:14px solid red;"">","null","","","","","","","","","",""
"","image-keyboard-response","202","138340","0.0-211.0","3HOSI13XH0AZCVJZM3G8J6TDRCYDDD","A3RTW9UWYKSNWX","335VBRURDJMQFRMOFGHOE9WKSHX9E1","","664","img/food6.png","74","665","1","0","2","2","1,0.5,0,1,0.5,0,0.5,0,1","0,1,0.5,0,1,0.5,1,0.5,0","3","false",""
"","html-keyboard-response","203","138650","0.0-212.0","3HOSI13XH0AZCVJZM3G8J6TDRCYDDD","A3RTW9UWYKSNWX","335VBRURDJMQFRMOFGHOE9WKSHX9E1","","null","<img src=""img/food6.png"" style=""width:200px;border:14px solid red;"">","null","","","","","","","","","",""
"","image-keyboard-response","204","138944","0.0-214.0","3HOSI13XH0AZCVJZM3G8J6TDRCYDDD","A3RTW9UWYKSNWX","335VBRURDJMQFRMOFGHOE9WKSHX9E1","","292","img/food1.png","74","293","1","1","3","2","1,0.5,0,1,0.5,0,0.5,0,1","0,1,0.5,0,1,0.5,1,0.5,0","3","false",""
"","html-keyboard-response","205","139247","0.0-215.0","3HOSI13XH0AZCVJZM3G8J6TDRCYDDD","A3RTW9UWYKSNWX","335VBRURDJMQFRMOFGHOE9WKSHX9E1","","null","<img src=""img/food1.png"" style=""width:200px; border:14px solid green;"">","null","","","","","","","","","",""
"","image-keyboard-response","206","139775","0.0-217.0","3HOSI13XH0AZCVJZM3G8J6TDRCYDDD","A3RTW9UWYKSNWX","335VBRURDJMQFRMOFGHOE9WKSHX9E1","","527","img/food4.png","74","527","1","0","1","2","1,0.5,0,1,0.5,0,0.5,0,1","0,1,0.5,0,1,0.5,1,0.5,0","3","false",""
"","html-keyboard-response","207","140078","0.0-218.0","3HOSI13XH0AZCVJZM3G8J6TDRCYDDD","A3RTW9UWYKSNWX","335VBRURDJMQFRMOFGHOE9WKSHX9E1","","null","<img src=""img/food4.png"" style=""width:200px;border:14px solid red;"">","null","","","","","","","","","",""
"","image-keyboard-response","208","140289","0.0-220.0","3HOSI13XH0AZCVJZM3G8J6TDRCYDDD","A3RTW9UWYKSNWX","335VBRURDJMQFRMOFGHOE9WKSHX9E1","","212","img/food1.png","75","212","2","0","3","2","1,0.5,0,1,0.5,0,0.5,0,1","0,1,0.5,0,1,0.5,1,0.5,0","3","false",""
"","html-keyboard-response","209","140597","0.0-221.0","3HOSI13XH0AZCVJZM3G8J6TDRCYDDD","A3RTW9UWYKSNWX","335VBRURDJMQFRMOFGHOE9WKSHX9E1","","null","<img src=""img/food1.png"" style=""width:200px;border:14px solid red;"">","null","","","","","","","","","",""
"","image-keyboard-response","210","140883","0.0-223.0","3HOSI13XH0AZCVJZM3G8J6TDRCYDDD","A3RTW9UWYKSNWX","335VBRURDJMQFRMOFGHOE9WKSHX9E1","","286","img/food1.png","76","286","3","0","3","2","1,0.5,0,1,0.5,0,0.5,0,1","0,1,0.5,0,1,0.5,1,0.5,0","3","false",""
"","html-keyboard-response","211","141189","0.0-224.0","3HOSI13XH0AZCVJZM3G8J6TDRCYDDD","A3RTW9UWYKSNWX","335VBRURDJMQFRMOFGHOE9WKSHX9E1","","null","<img src=""img/food1.png"" style=""width:200px;border:14px solid red;"">","null","","","","","","","","","",""
"","image-keyboard-response","212","141602","0.0-226.0","3HOSI13XH0AZCVJZM3G8J6TDRCYDDD","A3RTW9UWYKSNWX","335VBRURDJMQFRMOFGHOE9WKSHX9E1","","413","img/food1.png","75","413","2","1","3","2","1,0.5,0,1,0.5,0,0.5,0,1","0,1,0.5,0,1,0.5,1,0.5,0","3","false",""
"","html-keyboard-response","213","141902","0.0-227.0","3HOSI13XH0AZCVJZM3G8J6TDRCYDDD","A3RTW9UWYKSNWX","335VBRURDJMQFRMOFGHOE9WKSHX9E1","","null","<img src=""img/food1.png"" style=""width:200px; border:14px solid green;"">","null","","","","","","","","","",""
"","image-keyboard-response","214","142189","0.0-229.0","3HOSI13XH0AZCVJZM3G8J6TDRCYDDD","A3RTW9UWYKSNWX","335VBRURDJMQFRMOFGHOE9WKSHX9E1","","286","img/food1.png","75","287","2","0","3","2","1,0.5,0,1,0.5,0,0.5,0,1","0,1,0.5,0,1,0.5,1,0.5,0","3","false",""
"","html-keyboard-response","215","142500","0.0-230.0","3HOSI13XH0AZCVJZM3G8J6TDRCYDDD","A3RTW9UWYKSNWX","335VBRURDJMQFRMOFGHOE9WKSHX9E1","","null","<img src=""img/food1.png"" style=""width:200px;border:14px solid red;"">","null","","","","","","","","","",""
"","image-keyboard-response","216","143070","0.0-232.0","3HOSI13XH0AZCVJZM3G8J6TDRCYDDD","A3RTW9UWYKSNWX","335VBRURDJMQFRMOFGHOE9WKSHX9E1","","568","img/food6.png","76","569","3","1","2","2","1,0.5,0,1,0.5,0,0.5,0,1","0,1,0.5,0,1,0.5,1,0.5,0","3","false",""
"","html-keyboard-response","217","143372","0.0-233.0","3HOSI13XH0AZCVJZM3G8J6TDRCYDDD","A3RTW9UWYKSNWX","335VBRURDJMQFRMOFGHOE9WKSHX9E1","","null","<img src=""img/food6.png"" style=""width:200px; border:14px solid green;"">","null","","","","","","","","","",""
"","image-keyboard-response","218","143624","0.0-235.0","3HOSI13XH0AZCVJZM3G8J6TDRCYDDD","A3RTW9UWYKSNWX","335VBRURDJMQFRMOFGHOE9WKSHX9E1","","251","img/food6.png","76","253","3","1","2","2","1,0.5,0,1,0.5,0,0.5,0,1","0,1,0.5,0,1,0.5,1,0.5,0","3","false",""
"","html-keyboard-response","219","143937","0.0-236.0","3HOSI13XH0AZCVJZM3G8J6TDRCYDDD","A3RTW9UWYKSNWX","335VBRURDJMQFRMOFGHOE9WKSHX9E1","","null","<img src=""img/food6.png"" style=""width:200px; border:14px solid green;"">","null","","","","","","","","","",""
"","image-keyboard-response","220","144573","0.0-238.0","3HOSI13XH0AZCVJZM3G8J6TDRCYDDD","A3RTW9UWYKSNWX","335VBRURDJMQFRMOFGHOE9WKSHX9E1","","635","img/food1.png","75","636","2","1","3","2","1,0.5,0,1,0.5,0,0.5,0,1","0,1,0.5,0,1,0.5,1,0.5,0","3","false",""
"","html-keyboard-response","221","144875","0.0-239.0","3HOSI13XH0AZCVJZM3G8J6TDRCYDDD","A3RTW9UWYKSNWX","335VBRURDJMQFRMOFGHOE9WKSHX9E1","","null","<img src=""img/food1.png"" style=""width:200px; border:14px solid green;"">","null","","","","","","","","","",""
"","image-keyboard-response","222","145133","0.0-241.0","3HOSI13XH0AZCVJZM3G8J6TDRCYDDD","A3RTW9UWYKSNWX","335VBRURDJMQFRMOFGHOE9WKSHX9E1","","258","img/food1.png","75","258","2","1","3","2","1,0.5,0,1,0.5,0,0.5,0,1","0,1,0.5,0,1,0.5,1,0.5,0","3","false",""
"","html-keyboard-response","223","145435","0.0-242.0","3HOSI13XH0AZCVJZM3G8J6TDRCYDDD","A3RTW9UWYKSNWX","335VBRURDJMQFRMOFGHOE9WKSHX9E1","","null","<img src=""img/food1.png"" style=""width:200px; border:14px solid green;"">","null","","","","","","","","","",""
"","image-keyboard-response","224","146029","0.0-244.0","3HOSI13XH0AZCVJZM3G8J6TDRCYDDD","A3RTW9UWYKSNWX","335VBRURDJMQFRMOFGHOE9WKSHX9E1","","593","img/food4.png","74","594","1","0","1","2","1,0.5,0,1,0.5,0,0.5,0,1","0,1,0.5,0,1,0.5,1,0.5,0","3","false",""
"","html-keyboard-response","225","146338","0.0-245.0","3HOSI13XH0AZCVJZM3G8J6TDRCYDDD","A3RTW9UWYKSNWX","335VBRURDJMQFRMOFGHOE9WKSHX9E1","","null","<img src=""img/food4.png"" style=""width:200px;border:14px solid red;"">","null","","","","","","","","","",""
"","image-keyboard-response","226","146524","0.0-247.0","3HOSI13XH0AZCVJZM3G8J6TDRCYDDD","A3RTW9UWYKSNWX","335VBRURDJMQFRMOFGHOE9WKSHX9E1","","185","img/food4.png","74","185","1","0","1","2","1,0.5,0,1,0.5,0,0.5,0,1","0,1,0.5,0,1,0.5,1,0.5,0","3","false",""
"","html-keyboard-response","227","146829","0.0-248.0","3HOSI13XH0AZCVJZM3G8J6TDRCYDDD","A3RTW9UWYKSNWX","335VBRURDJMQFRMOFGHOE9WKSHX9E1","","null","<img src=""img/food4.png"" style=""width:200px;border:14px solid red;"">","null","","","","","","","","","",""
"","image-keyboard-response","228","147058","0.0-250.0","3HOSI13XH0AZCVJZM3G8J6TDRCYDDD","A3RTW9UWYKSNWX","335VBRURDJMQFRMOFGHOE9WKSHX9E1","","228","img/food4.png","75","228","2","1","1","2","1,0.5,0,1,0.5,0,0.5,0,1","0,1,0.5,0,1,0.5,1,0.5,0","3","false",""
"","html-keyboard-response","229","147365","0.0-251.0","3HOSI13XH0AZCVJZM3G8J6TDRCYDDD","A3RTW9UWYKSNWX","335VBRURDJMQFRMOFGHOE9WKSHX9E1","","null","<img src=""img/food4.png"" style=""width:200px; border:14px solid green;"">","null","","","","","","","","","",""
"","image-keyboard-response","230","148063","0.0-253.0","3HOSI13XH0AZCVJZM3G8J6TDRCYDDD","A3RTW9UWYKSNWX","335VBRURDJMQFRMOFGHOE9WKSHX9E1","","696","img/food6.png","76","697","3","1","2","2","1,0.5,0,1,0.5,0,0.5,0,1","0,1,0.5,0,1,0.5,1,0.5,0","3","false",""
"","html-keyboard-response","231","148371","0.0-254.0","3HOSI13XH0AZCVJZM3G8J6TDRCYDDD","A3RTW9UWYKSNWX","335VBRURDJMQFRMOFGHOE9WKSHX9E1","","null","<img src=""img/food6.png"" style=""width:200px; border:14px solid green;"">","null","","","","","","","","","",""
"","image-keyboard-response","232","149058","0.0-256.0","3HOSI13XH0AZCVJZM3G8J6TDRCYDDD","A3RTW9UWYKSNWX","335VBRURDJMQFRMOFGHOE9WKSHX9E1","","686","img/food4.png","75","687","2","1","1","2","1,0.5,0,1,0.5,0,0.5,0,1","0,1,0.5,0,1,0.5,1,0.5,0","3","false",""
"","html-keyboard-response","233","149365","0.0-257.0","3HOSI13XH0AZCVJZM3G8J6TDRCYDDD","A3RTW9UWYKSNWX","335VBRURDJMQFRMOFGHOE9WKSHX9E1","","null","<img src=""img/food4.png"" style=""width:200px; border:14px solid green;"">","null","","","","","","","","","",""
"","image-keyboard-response","234","149779","0.0-259.0","3HOSI13XH0AZCVJZM3G8J6TDRCYDDD","A3RTW9UWYKSNWX","335VBRURDJMQFRMOFGHOE9WKSHX9E1","","414","img/food6.png","75","414","2","1","2","2","1,0.5,0,1,0.5,0,0.5,0,1","0,1,0.5,0,1,0.5,1,0.5,0","3","false",""
"","html-keyboard-response","235","150082","0.0-260.0","3HOSI13XH0AZCVJZM3G8J6TDRCYDDD","A3RTW9UWYKSNWX","335VBRURDJMQFRMOFGHOE9WKSHX9E1","","null","<img src=""img/food6.png"" style=""width:200px; border:14px solid green;"">","null","","","","","","","","","",""
"","image-keyboard-response","236","150280","0.0-262.0","3HOSI13XH0AZCVJZM3G8J6TDRCYDDD","A3RTW9UWYKSNWX","335VBRURDJMQFRMOFGHOE9WKSHX9E1","","199","img/food1.png","76","199","3","0","3","2","1,0.5,0,1,0.5,0,0.5,0,1","0,1,0.5,0,1,0.5,1,0.5,0","3","false",""
"","html-keyboard-response","237","150583","0.0-263.0","3HOSI13XH0AZCVJZM3G8J6TDRCYDDD","A3RTW9UWYKSNWX","335VBRURDJMQFRMOFGHOE9WKSHX9E1","","null","<img src=""img/food1.png"" style=""width:200px;border:14px solid red;"">","null","","","","","","","","","",""
"","image-keyboard-response","238","151097","0.0-265.0","3HOSI13XH0AZCVJZM3G8J6TDRCYDDD","A3RTW9UWYKSNWX","335VBRURDJMQFRMOFGHOE9WKSHX9E1","","513","img/food4.png","75","514","2","1","1","2","1,0.5,0,1,0.5,0,0.5,0,1","0,1,0.5,0,1,0.5,1,0.5,0","3","false",""
"","html-keyboard-response","239","151397","0.0-266.0","3HOSI13XH0AZCVJZM3G8J6TDRCYDDD","A3RTW9UWYKSNWX","335VBRURDJMQFRMOFGHOE9WKSHX9E1","","null","<img src=""img/food4.png"" style=""width:200px; border:14px solid green;"">","null","","","","","","","","","",""
"","image-keyboard-response","240","151722","0.0-268.0","3HOSI13XH0AZCVJZM3G8J6TDRCYDDD","A3RTW9UWYKSNWX","335VBRURDJMQFRMOFGHOE9WKSHX9E1","","325","img/food4.png","75","325","2","1","1","2","1,0.5,0,1,0.5,0,0.5,0,1","0,1,0.5,0,1,0.5,1,0.5,0","3","false",""
"","html-keyboard-response","241","152023","0.0-269.0","3HOSI13XH0AZCVJZM3G8J6TDRCYDDD","A3RTW9UWYKSNWX","335VBRURDJMQFRMOFGHOE9WKSHX9E1","","null","<img src=""img/food4.png"" style=""width:200px; border:14px solid green;"">","null","","","","","","","","","",""
"","image-keyboard-response","242","152604","0.0-271.0","3HOSI13XH0AZCVJZM3G8J6TDRCYDDD","A3RTW9UWYKSNWX","335VBRURDJMQFRMOFGHOE9WKSHX9E1","","580","img/food6.png","76","581","3","1","2","2","1,0.5,0,1,0.5,0,0.5,0,1","0,1,0.5,0,1,0.5,1,0.5,0","3","false",""
"","html-keyboard-response","243","152910","0.0-272.0","3HOSI13XH0AZCVJZM3G8J6TDRCYDDD","A3RTW9UWYKSNWX","335VBRURDJMQFRMOFGHOE9WKSHX9E1","","null","<img src=""img/food6.png"" style=""width:200px; border:14px solid green;"">","null","","","","","","","","","",""
"","image-keyboard-response","244","153188","0.0-274.0","3HOSI13XH0AZCVJZM3G8J6TDRCYDDD","A3RTW9UWYKSNWX","335VBRURDJMQFRMOFGHOE9WKSHX9E1","","278","img/food6.png","76","278","3","1","2","2","1,0.5,0,1,0.5,0,0.5,0,1","0,1,0.5,0,1,0.5,1,0.5,0","3","false",""
"","html-keyboard-response","245","153492","0.0-275.0","3HOSI13XH0AZCVJZM3G8J6TDRCYDDD","A3RTW9UWYKSNWX","335VBRURDJMQFRMOFGHOE9WKSHX9E1","","null","<img src=""img/food6.png"" style=""width:200px; border:14px solid green;"">","null","","","","","","","","","",""
"","image-keyboard-response","246","153932","0.0-277.0","3HOSI13XH0AZCVJZM3G8J6TDRCYDDD","A3RTW9UWYKSNWX","335VBRURDJMQFRMOFGHOE9WKSHX9E1","","440","img/food4.png","75","440","2","1","1","2","1,0.5,0,1,0.5,0,0.5,0,1","0,1,0.5,0,1,0.5,1,0.5,0","3","false",""
"","html-keyboard-response","247","154241","0.0-278.0","3HOSI13XH0AZCVJZM3G8J6TDRCYDDD","A3RTW9UWYKSNWX","335VBRURDJMQFRMOFGHOE9WKSHX9E1","","null","<img src=""img/food4.png"" style=""width:200px; border:14px solid green;"">","null","","","","","","","","","",""
"","image-keyboard-response","248","154510","0.0-280.0","3HOSI13XH0AZCVJZM3G8J6TDRCYDDD","A3RTW9UWYKSNWX","335VBRURDJMQFRMOFGHOE9WKSHX9E1","","270","img/food4.png","75","270","2","1","1","2","1,0.5,0,1,0.5,0,0.5,0,1","0,1,0.5,0,1,0.5,1,0.5,0","3","false",""
"","html-keyboard-response","249","154817","0.0-281.0","3HOSI13XH0AZCVJZM3G8J6TDRCYDDD","A3RTW9UWYKSNWX","335VBRURDJMQFRMOFGHOE9WKSHX9E1","","null","<img src=""img/food4.png"" style=""width:200px; border:14px solid green;"">","null","","","","","","","","","",""
"","image-keyboard-response","250","155526","0.0-283.0","3HOSI13XH0AZCVJZM3G8J6TDRCYDDD","A3RTW9UWYKSNWX","335VBRURDJMQFRMOFGHOE9WKSHX9E1","","709","img/food6.png","76","709","3","0","2","2","1,0.5,0,1,0.5,0,0.5,0,1","0,1,0.5,0,1,0.5,1,0.5,0","3","false",""
"","html-keyboard-response","251","155833","0.0-284.0","3HOSI13XH0AZCVJZM3G8J6TDRCYDDD","A3RTW9UWYKSNWX","335VBRURDJMQFRMOFGHOE9WKSHX9E1","","null","<img src=""img/food6.png"" style=""width:200px;border:14px solid red;"">","null","","","","","","","","","",""
"","image-keyboard-response","252","156085","0.0-286.0","3HOSI13XH0AZCVJZM3G8J6TDRCYDDD","A3RTW9UWYKSNWX","335VBRURDJMQFRMOFGHOE9WKSHX9E1","","250","img/food6.png","76","250","3","0","2","2","1,0.5,0,1,0.5,0,0.5,0,1","0,1,0.5,0,1,0.5,1,0.5,0","3","false",""
"","html-keyboard-response","253","156395","0.0-287.0","3HOSI13XH0AZCVJZM3G8J6TDRCYDDD","A3RTW9UWYKSNWX","335VBRURDJMQFRMOFGHOE9WKSHX9E1","","null","<img src=""img/food6.png"" style=""width:200px;border:14px solid red;"">","null","","","","","","","","","",""
"","image-keyboard-response","254","156578","0.0-289.0","3HOSI13XH0AZCVJZM3G8J6TDRCYDDD","A3RTW9UWYKSNWX","335VBRURDJMQFRMOFGHOE9WKSHX9E1","","182","img/food1.png","75","182","2","0","3","2","1,0.5,0,1,0.5,0,0.5,0,1","0,1,0.5,0,1,0.5,1,0.5,0","3","false",""
"","html-keyboard-response","255","156894","0.0-290.0","3HOSI13XH0AZCVJZM3G8J6TDRCYDDD","A3RTW9UWYKSNWX","335VBRURDJMQFRMOFGHOE9WKSHX9E1","","null","<img src=""img/food1.png"" style=""width:200px;border:14px solid red;"">","null","","","","","","","","","",""
"","image-keyboard-response","256","157252","0.0-292.0","3HOSI13XH0AZCVJZM3G8J6TDRCYDDD","A3RTW9UWYKSNWX","335VBRURDJMQFRMOFGHOE9WKSHX9E1","","358","img/food6.png","75","358","2","1","2","2","1,0.5,0,1,0.5,0,0.5,0,1","0,1,0.5,0,1,0.5,1,0.5,0","3","false",""
"","html-keyboard-response","257","157567","0.0-293.0","3HOSI13XH0AZCVJZM3G8J6TDRCYDDD","A3RTW9UWYKSNWX","335VBRURDJMQFRMOFGHOE9WKSHX9E1","","null","<img src=""img/food6.png"" style=""width:200px; border:14px solid green;"">","null","","","","","","","","","",""
"","image-keyboard-response","258","157832","0.0-295.0","3HOSI13XH0AZCVJZM3G8J6TDRCYDDD","A3RTW9UWYKSNWX","335VBRURDJMQFRMOFGHOE9WKSHX9E1","","265","img/food6.png","75","266","2","1","2","2","1,0.5,0,1,0.5,0,0.5,0,1","0,1,0.5,0,1,0.5,1,0.5,0","3","false",""
"","html-keyboard-response","259","158134","0.0-296.0","3HOSI13XH0AZCVJZM3G8J6TDRCYDDD","A3RTW9UWYKSNWX","335VBRURDJMQFRMOFGHOE9WKSHX9E1","","null","<img src=""img/food6.png"" style=""width:200px; border:14px solid green;"">","null","","","","","","","","","",""
"","image-keyboard-response","260","158343","0.0-298.0","3HOSI13XH0AZCVJZM3G8J6TDRCYDDD","A3RTW9UWYKSNWX","335VBRURDJMQFRMOFGHOE9WKSHX9E1","","209","img/food6.png","75","209","2","1","2","2","1,0.5,0,1,0.5,0,0.5,0,1","0,1,0.5,0,1,0.5,1,0.5,0","3","false",""
"","html-keyboard-response","261","158652","0.0-299.0","3HOSI13XH0AZCVJZM3G8J6TDRCYDDD","A3RTW9UWYKSNWX","335VBRURDJMQFRMOFGHOE9WKSHX9E1","","null","<img src=""img/food6.png"" style=""width:200px; border:14px solid green;"">","null","","","","","","","","","",""
"","image-keyboard-response","262","158919","0.0-301.0","3HOSI13XH0AZCVJZM3G8J6TDRCYDDD","A3RTW9UWYKSNWX","335VBRURDJMQFRMOFGHOE9WKSHX9E1","","266","img/food6.png","75","268","2","1","2","2","1,0.5,0,1,0.5,0,0.5,0,1","0,1,0.5,0,1,0.5,1,0.5,0","3","false",""
"","html-keyboard-response","263","159229","0.0-302.0","3HOSI13XH0AZCVJZM3G8J6TDRCYDDD","A3RTW9UWYKSNWX","335VBRURDJMQFRMOFGHOE9WKSHX9E1","","null","<img src=""img/food6.png"" style=""width:200px; border:14px solid green;"">","null","","","","","","","","","",""
"","image-keyboard-response","264","159495","0.0-304.0","3HOSI13XH0AZCVJZM3G8J6TDRCYDDD","A3RTW9UWYKSNWX","335VBRURDJMQFRMOFGHOE9WKSHX9E1","","265","img/food1.png","75","265","2","1","3","2","1,0.5,0,1,0.5,0,0.5,0,1","0,1,0.5,0,1,0.5,1,0.5,0","3","false",""
"","html-keyboard-response","265","159808","0.0-305.0","3HOSI13XH0AZCVJZM3G8J6TDRCYDDD","A3RTW9UWYKSNWX","335VBRURDJMQFRMOFGHOE9WKSHX9E1","","null","<img src=""img/food1.png"" style=""width:200px; border:14px solid green;"">","null","","","","","","","","","",""
"","image-keyboard-response","266","160043","0.0-307.0","3HOSI13XH0AZCVJZM3G8J6TDRCYDDD","A3RTW9UWYKSNWX","335VBRURDJMQFRMOFGHOE9WKSHX9E1","","236","img/food4.png","75","236","2","1","1","2","1,0.5,0,1,0.5,0,0.5,0,1","0,1,0.5,0,1,0.5,1,0.5,0","3","false",""
"","html-keyboard-response","267","160355","0.0-308.0","3HOSI13XH0AZCVJZM3G8J6TDRCYDDD","A3RTW9UWYKSNWX","335VBRURDJMQFRMOFGHOE9WKSHX9E1","","null","<img src=""img/food4.png"" style=""width:200px; border:14px solid green;"">","null","","","","","","","","","",""
"","image-keyboard-response","268","160584","0.0-310.0","3HOSI13XH0AZCVJZM3G8J6TDRCYDDD","A3RTW9UWYKSNWX","335VBRURDJMQFRMOFGHOE9WKSHX9E1","","228","img/food1.png","75","228","2","1","3","2","1,0.5,0,1,0.5,0,0.5,0,1","0,1,0.5,0,1,0.5,1,0.5,0","3","false",""
"","html-keyboard-response","269","160899","0.0-311.0","3HOSI13XH0AZCVJZM3G8J6TDRCYDDD","A3RTW9UWYKSNWX","335VBRURDJMQFRMOFGHOE9WKSHX9E1","","null","<img src=""img/food1.png"" style=""width:200px; border:14px solid green;"">","null","","","","","","","","","",""
"","image-keyboard-response","270","161102","0.0-313.0","3HOSI13XH0AZCVJZM3G8J6TDRCYDDD","A3RTW9UWYKSNWX","335VBRURDJMQFRMOFGHOE9WKSHX9E1","","202","img/food1.png","75","203","2","0","3","2","1,0.5,0,1,0.5,0,0.5,0,1","0,1,0.5,0,1,0.5,1,0.5,0","3","false",""
"","html-keyboard-response","271","161413","0.0-314.0","3HOSI13XH0AZCVJZM3G8J6TDRCYDDD","A3RTW9UWYKSNWX","335VBRURDJMQFRMOFGHOE9WKSHX9E1","","null","<img src=""img/food1.png"" style=""width:200px;border:14px solid red;"">","null","","","","","","","","","",""
"","image-keyboard-response","272","161657","0.0-316.0","3HOSI13XH0AZCVJZM3G8J6TDRCYDDD","A3RTW9UWYKSNWX","335VBRURDJMQFRMOFGHOE9WKSHX9E1","","243","img/food4.png","75","243","2","1","1","2","1,0.5,0,1,0.5,0,0.5,0,1","0,1,0.5,0,1,0.5,1,0.5,0","3","false",""
"","html-keyboard-response","273","161959","0.0-317.0","3HOSI13XH0AZCVJZM3G8J6TDRCYDDD","A3RTW9UWYKSNWX","335VBRURDJMQFRMOFGHOE9WKSHX9E1","","null","<img src=""img/food4.png"" style=""width:200px; border:14px solid green;"">","null","","","","","","","","","",""
"","image-keyboard-response","274","162179","0.0-319.0","3HOSI13XH0AZCVJZM3G8J6TDRCYDDD","A3RTW9UWYKSNWX","335VBRURDJMQFRMOFGHOE9WKSHX9E1","","220","img/food4.png","75","220","2","1","1","2","1,0.5,0,1,0.5,0,0.5,0,1","0,1,0.5,0,1,0.5,1,0.5,0","3","false",""
"","html-keyboard-response","275","162492","0.0-320.0","3HOSI13XH0AZCVJZM3G8J6TDRCYDDD","A3RTW9UWYKSNWX","335VBRURDJMQFRMOFGHOE9WKSHX9E1","","null","<img src=""img/food4.png"" style=""width:200px; border:14px solid green;"">","null","","","","","","","","","",""
"","image-keyboard-response","276","162689","0.0-322.0","3HOSI13XH0AZCVJZM3G8J6TDRCYDDD","A3RTW9UWYKSNWX","335VBRURDJMQFRMOFGHOE9WKSHX9E1","","197","img/food6.png","75","197","2","1","2","2","1,0.5,0,1,0.5,0,0.5,0,1","0,1,0.5,0,1,0.5,1,0.5,0","3","false",""
"","html-keyboard-response","277","163005","0.0-323.0","3HOSI13XH0AZCVJZM3G8J6TDRCYDDD","A3RTW9UWYKSNWX","335VBRURDJMQFRMOFGHOE9WKSHX9E1","","null","<img src=""img/food6.png"" style=""width:200px; border:14px solid green;"">","null","","","","","","","","","",""
"","image-keyboard-response","278","163264","0.0-325.0","3HOSI13XH0AZCVJZM3G8J6TDRCYDDD","A3RTW9UWYKSNWX","335VBRURDJMQFRMOFGHOE9WKSHX9E1","","258","img/food1.png","75","259","2","0","3","2","1,0.5,0,1,0.5,0,0.5,0,1","0,1,0.5,0,1,0.5,1,0.5,0","3","false",""
"","html-keyboard-response","279","163567","0.0-326.0","3HOSI13XH0AZCVJZM3G8J6TDRCYDDD","A3RTW9UWYKSNWX","335VBRURDJMQFRMOFGHOE9WKSHX9E1","","null","<img src=""img/food1.png"" style=""width:200px;border:14px solid red;"">","null","","","","","","","","","",""
"","image-keyboard-response","280","163746","0.0-328.0","3HOSI13XH0AZCVJZM3G8J6TDRCYDDD","A3RTW9UWYKSNWX","335VBRURDJMQFRMOFGHOE9WKSHX9E1","","178","img/food4.png","75","178","2","1","1","2","1,0.5,0,1,0.5,0,0.5,0,1","0,1,0.5,0,1,0.5,1,0.5,0","3","false",""
"","html-keyboard-response","281","164049","0.0-329.0","3HOSI13XH0AZCVJZM3G8J6TDRCYDDD","A3RTW9UWYKSNWX","335VBRURDJMQFRMOFGHOE9WKSHX9E1","","null","<img src=""img/food4.png"" style=""width:200px; border:14px solid green;"">","null","","","","","","","","","",""
"","image-keyboard-response","282","164297","0.0-331.0","3HOSI13XH0AZCVJZM3G8J6TDRCYDDD","A3RTW9UWYKSNWX","335VBRURDJMQFRMOFGHOE9WKSHX9E1","","248","img/food1.png","75","249","2","1","3","2","1,0.5,0,1,0.5,0,0.5,0,1","0,1,0.5,0,1,0.5,1,0.5,0","3","false",""
"","html-keyboard-response","283","164599","0.0-332.0","3HOSI13XH0AZCVJZM3G8J6TDRCYDDD","A3RTW9UWYKSNWX","335VBRURDJMQFRMOFGHOE9WKSHX9E1","","null","<img src=""img/food1.png"" style=""width:200px; border:14px solid green;"">","null","","","","","","","","","",""
"","image-keyboard-response","284","164793","0.0-334.0","3HOSI13XH0AZCVJZM3G8J6TDRCYDDD","A3RTW9UWYKSNWX","335VBRURDJMQFRMOFGHOE9WKSHX9E1","","194","img/food4.png","75","194","2","1","1","2","1,0.5,0,1,0.5,0,0.5,0,1","0,1,0.5,0,1,0.5,1,0.5,0","3","false",""
"","html-keyboard-response","285","165099","0.0-335.0","3HOSI13XH0AZCVJZM3G8J6TDRCYDDD","A3RTW9UWYKSNWX","335VBRURDJMQFRMOFGHOE9WKSHX9E1","","null","<img src=""img/food4.png"" style=""width:200px; border:14px solid green;"">","null","","","","","","","","","",""
"","image-keyboard-response","286","165328","0.0-337.0","3HOSI13XH0AZCVJZM3G8J6TDRCYDDD","A3RTW9UWYKSNWX","335VBRURDJMQFRMOFGHOE9WKSHX9E1","","228","img/food6.png","75","229","2","1","2","2","1,0.5,0,1,0.5,0,0.5,0,1","0,1,0.5,0,1,0.5,1,0.5,0","3","false",""
"","html-keyboard-response","287","165630","0.0-338.0","3HOSI13XH0AZCVJZM3G8J6TDRCYDDD","A3RTW9UWYKSNWX","335VBRURDJMQFRMOFGHOE9WKSHX9E1","","null","<img src=""img/food6.png"" style=""width:200px; border:14px solid green;"">","null","","","","","","","","","",""
"","image-keyboard-response","288","165804","0.0-340.0","3HOSI13XH0AZCVJZM3G8J6TDRCYDDD","A3RTW9UWYKSNWX","335VBRURDJMQFRMOFGHOE9WKSHX9E1","","174","img/food6.png","75","174","2","1","2","2","1,0.5,0,1,0.5,0,0.5,0,1","0,1,0.5,0,1,0.5,1,0.5,0","3","false",""
"","html-keyboard-response","289","166113","0.0-341.0","3HOSI13XH0AZCVJZM3G8J6TDRCYDDD","A3RTW9UWYKSNWX","335VBRURDJMQFRMOFGHOE9WKSHX9E1","","null","<img src=""img/food6.png"" style=""width:200px; border:14px solid green;"">","null","","","","","","","","","",""
"","image-keyboard-response","290","166341","0.0-343.0","3HOSI13XH0AZCVJZM3G8J6TDRCYDDD","A3RTW9UWYKSNWX","335VBRURDJMQFRMOFGHOE9WKSHX9E1","","227","img/food6.png","75","228","2","1","2","2","1,0.5,0,1,0.5,0,0.5,0,1","0,1,0.5,0,1,0.5,1,0.5,0","3","false",""
"","html-keyboard-response","291","166646","0.0-344.0","3HOSI13XH0AZCVJZM3G8J6TDRCYDDD","A3RTW9UWYKSNWX","335VBRURDJMQFRMOFGHOE9WKSHX9E1","","null","<img src=""img/food6.png"" style=""width:200px; border:14px solid green;"">","null","","","","","","","","","",""
"","image-keyboard-response","292","166848","0.0-346.0","3HOSI13XH0AZCVJZM3G8J6TDRCYDDD","A3RTW9UWYKSNWX","335VBRURDJMQFRMOFGHOE9WKSHX9E1","","202","img/food4.png","75","202","2","1","1","2","1,0.5,0,1,0.5,0,0.5,0,1","0,1,0.5,0,1,0.5,1,0.5,0","3","false",""
"","html-keyboard-response","293","167161","0.0-347.0","3HOSI13XH0AZCVJZM3G8J6TDRCYDDD","A3RTW9UWYKSNWX","335VBRURDJMQFRMOFGHOE9WKSHX9E1","","null","<img src=""img/food4.png"" style=""width:200px; border:14px solid green;"">","null","","","","","","","","","",""
"","image-keyboard-response","294","167354","0.0-349.0","3HOSI13XH0AZCVJZM3G8J6TDRCYDDD","A3RTW9UWYKSNWX","335VBRURDJMQFRMOFGHOE9WKSHX9E1","","193","img/food1.png","75","193","2","0","3","2","1,0.5,0,1,0.5,0,0.5,0,1","0,1,0.5,0,1,0.5,1,0.5,0","3","false",""
"","html-keyboard-response","295","167660","0.0-350.0","3HOSI13XH0AZCVJZM3G8J6TDRCYDDD","A3RTW9UWYKSNWX","335VBRURDJMQFRMOFGHOE9WKSHX9E1","","null","<img src=""img/food1.png"" style=""width:200px;border:14px solid red;"">","null","","","","","","","","","",""
"","image-keyboard-response","296","167858","0.0-352.0","3HOSI13XH0AZCVJZM3G8J6TDRCYDDD","A3RTW9UWYKSNWX","335VBRURDJMQFRMOFGHOE9WKSHX9E1","","197","img/food1.png","75","198","2","0","3","2","1,0.5,0,1,0.5,0,0.5,0,1","0,1,0.5,0,1,0.5,1,0.5,0","3","false",""
"","html-keyboard-response","297","168161","0.0-353.0","3HOSI13XH0AZCVJZM3G8J6TDRCYDDD","A3RTW9UWYKSNWX","335VBRURDJMQFRMOFGHOE9WKSHX9E1","","null","<img src=""img/food1.png"" style=""width:200px;border:14px solid red;"">","null","","","","","","","","","",""
"","image-keyboard-response","298","168367","0.0-355.0","3HOSI13XH0AZCVJZM3G8J6TDRCYDDD","A3RTW9UWYKSNWX","335VBRURDJMQFRMOFGHOE9WKSHX9E1","","205","img/food4.png","75","206","2","1","1","2","1,0.5,0,1,0.5,0,0.5,0,1","0,1,0.5,0,1,0.5,1,0.5,0","3","false",""
"","html-keyboard-response","299","168673","0.0-356.0","3HOSI13XH0AZCVJZM3G8J6TDRCYDDD","A3RTW9UWYKSNWX","335VBRURDJMQFRMOFGHOE9WKSHX9E1","","null","<img src=""img/food4.png"" style=""width:200px; border:14px solid green;"">","null","","","","","","","","","",""
"","image-keyboard-response","300","168873","0.0-358.0","3HOSI13XH0AZCVJZM3G8J6TDRCYDDD","A3RTW9UWYKSNWX","335VBRURDJMQFRMOFGHOE9WKSHX9E1","","198","img/food1.png","75","198","2","1","3","2","1,0.5,0,1,0.5,0,0.5,0,1","0,1,0.5,0,1,0.5,1,0.5,0","3","false",""
"","html-keyboard-response","301","169178","0.0-359.0","3HOSI13XH0AZCVJZM3G8J6TDRCYDDD","A3RTW9UWYKSNWX","335VBRURDJMQFRMOFGHOE9WKSHX9E1","","null","<img src=""img/food1.png"" style=""width:200px; border:14px solid green;"">","null","","","","","","","","","",""
"","image-keyboard-response","302","169350","0.0-361.0","3HOSI13XH0AZCVJZM3G8J6TDRCYDDD","A3RTW9UWYKSNWX","335VBRURDJMQFRMOFGHOE9WKSHX9E1","","172","img/food6.png","75","173","2","1","2","2","1,0.5,0,1,0.5,0,0.5,0,1","0,1,0.5,0,1,0.5,1,0.5,0","3","false",""
"","html-keyboard-response","303","169652","0.0-362.0","3HOSI13XH0AZCVJZM3G8J6TDRCYDDD","A3RTW9UWYKSNWX","335VBRURDJMQFRMOFGHOE9WKSHX9E1","","null","<img src=""img/food6.png"" style=""width:200px; border:14px solid green;"">","null","","","","","","","","","",""
"","image-keyboard-response","304","169872","0.0-364.0","3HOSI13XH0AZCVJZM3G8J6TDRCYDDD","A3RTW9UWYKSNWX","335VBRURDJMQFRMOFGHOE9WKSHX9E1","","218","img/food1.png","75","220","2","0","3","2","1,0.5,0,1,0.5,0,0.5,0,1","0,1,0.5,0,1,0.5,1,0.5,0","3","false",""
"","html-keyboard-response","305","170184","0.0-365.0","3HOSI13XH0AZCVJZM3G8J6TDRCYDDD","A3RTW9UWYKSNWX","335VBRURDJMQFRMOFGHOE9WKSHX9E1","","null","<img src=""img/food1.png"" style=""width:200px;border:14px solid red;"">","null","","","","","","","","","",""
"","image-keyboard-response","306","170380","0.0-367.0","3HOSI13XH0AZCVJZM3G8J6TDRCYDDD","A3RTW9UWYKSNWX","335VBRURDJMQFRMOFGHOE9WKSHX9E1","","196","img/food1.png","75","197","2","1","3","2","1,0.5,0,1,0.5,0,0.5,0,1","0,1,0.5,0,1,0.5,1,0.5,0","3","false",""
"","html-keyboard-response","307","170683","0.0-368.0","3HOSI13XH0AZCVJZM3G8J6TDRCYDDD","A3RTW9UWYKSNWX","335VBRURDJMQFRMOFGHOE9WKSHX9E1","","null","<img src=""img/food1.png"" style=""width:200px; border:14px solid green;"">","null","","","","","","","","","",""
"","image-keyboard-response","308","170874","0.0-370.0","3HOSI13XH0AZCVJZM3G8J6TDRCYDDD","A3RTW9UWYKSNWX","335VBRURDJMQFRMOFGHOE9WKSHX9E1","","191","img/food4.png","75","191","2","1","1","2","1,0.5,0,1,0.5,0,0.5,0,1","0,1,0.5,0,1,0.5,1,0.5,0","3","false",""
"","html-keyboard-response","309","171184","0.0-371.0","3HOSI13XH0AZCVJZM3G8J6TDRCYDDD","A3RTW9UWYKSNWX","335VBRURDJMQFRMOFGHOE9WKSHX9E1","","null","<img src=""img/food4.png"" style=""width:200px; border:14px solid green;"">","null","","","","","","","","","",""
"","image-keyboard-response","310","171362","0.0-373.0","3HOSI13XH0AZCVJZM3G8J6TDRCYDDD","A3RTW9UWYKSNWX","335VBRURDJMQFRMOFGHOE9WKSHX9E1","","177","img/food4.png","75","178","2","1","1","2","1,0.5,0,1,0.5,0,0.5,0,1","0,1,0.5,0,1,0.5,1,0.5,0","3","false",""
"","html-keyboard-response","311","171669","0.0-374.0","3HOSI13XH0AZCVJZM3G8J6TDRCYDDD","A3RTW9UWYKSNWX","335VBRURDJMQFRMOFGHOE9WKSHX9E1","","null","<img src=""img/food4.png"" style=""width:200px; border:14px solid green;"">","null","","","","","","","","","",""
"","image-keyboard-response","312","171848","0.0-376.0","3HOSI13XH0AZCVJZM3G8J6TDRCYDDD","A3RTW9UWYKSNWX","335VBRURDJMQFRMOFGHOE9WKSHX9E1","","178","img/food6.png","75","179","2","1","2","2","1,0.5,0,1,0.5,0,0.5,0,1","0,1,0.5,0,1,0.5,1,0.5,0","3","false",""
"","html-keyboard-response","313","172156","0.0-377.0","3HOSI13XH0AZCVJZM3G8J6TDRCYDDD","A3RTW9UWYKSNWX","335VBRURDJMQFRMOFGHOE9WKSHX9E1","","null","<img src=""img/food6.png"" style=""width:200px; border:14px solid green;"">","null","","","","","","","","","",""
"","image-keyboard-response","314","172344","0.0-379.0","3HOSI13XH0AZCVJZM3G8J6TDRCYDDD","A3RTW9UWYKSNWX","335VBRURDJMQFRMOFGHOE9WKSHX9E1","","189","img/food6.png","75","189","2","1","2","2","1,0.5,0,1,0.5,0,0.5,0,1","0,1,0.5,0,1,0.5,1,0.5,0","3","false",""
"","html-keyboard-response","315","172649","0.0-380.0","3HOSI13XH0AZCVJZM3G8J6TDRCYDDD","A3RTW9UWYKSNWX","335VBRURDJMQFRMOFGHOE9WKSHX9E1","","null","<img src=""img/food6.png"" style=""width:200px; border:14px solid green;"">","null","","","","","","","","","",""
"","image-keyboard-response","316","172843","0.0-382.0","3HOSI13XH0AZCVJZM3G8J6TDRCYDDD","A3RTW9UWYKSNWX","335VBRURDJMQFRMOFGHOE9WKSHX9E1","","194","img/food6.png","75","194","2","1","2","2","1,0.5,0,1,0.5,0,0.5,0,1","0,1,0.5,0,1,0.5,1,0.5,0","3","false",""
"","html-keyboard-response","317","173148","0.0-383.0","3HOSI13XH0AZCVJZM3G8J6TDRCYDDD","A3RTW9UWYKSNWX","335VBRURDJMQFRMOFGHOE9WKSHX9E1","","null","<img src=""img/food6.png"" style=""width:200px; border:14px solid green;"">","null","","","","","","","","","",""
"","image-keyboard-response","318","173286","0.0-385.0","3HOSI13XH0AZCVJZM3G8J6TDRCYDDD","A3RTW9UWYKSNWX","335VBRURDJMQFRMOFGHOE9WKSHX9E1","","136","img/food6.png","75","138","2","1","2","2","1,0.5,0,1,0.5,0,0.5,0,1","0,1,0.5,0,1,0.5,1,0.5,0","3","false",""
"","html-keyboard-response","319","173600","0.0-386.0","3HOSI13XH0AZCVJZM3G8J6TDRCYDDD","A3RTW9UWYKSNWX","335VBRURDJMQFRMOFGHOE9WKSHX9E1","","null","<img src=""img/food6.png"" style=""width:200px; border:14px solid green;"">","null","","","","","","","","","",""
"","image-keyboard-response","320","173735","0.0-388.0","3HOSI13XH0AZCVJZM3G8J6TDRCYDDD","A3RTW9UWYKSNWX","335VBRURDJMQFRMOFGHOE9WKSHX9E1","","136","img/food6.png","75","136","2","1","2","2","1,0.5,0,1,0.5,0,0.5,0,1","0,1,0.5,0,1,0.5,1,0.5,0","3","false",""
"","html-keyboard-response","321","174037","0.0-389.0","3HOSI13XH0AZCVJZM3G8J6TDRCYDDD","A3RTW9UWYKSNWX","335VBRURDJMQFRMOFGHOE9WKSHX9E1","","null","<img src=""img/food6.png"" style=""width:200px; border:14px solid green;"">","null","","","","","","","","","",""
"","image-keyboard-response","322","174277","0.0-391.0","3HOSI13XH0AZCVJZM3G8J6TDRCYDDD","A3RTW9UWYKSNWX","335VBRURDJMQFRMOFGHOE9WKSHX9E1","","238","img/food6.png","75","239","2","1","2","2","1,0.5,0,1,0.5,0,0.5,0,1","0,1,0.5,0,1,0.5,1,0.5,0","3","false",""
"","html-keyboard-response","323","174586","0.0-392.0","3HOSI13XH0AZCVJZM3G8J6TDRCYDDD","A3RTW9UWYKSNWX","335VBRURDJMQFRMOFGHOE9WKSHX9E1","","null","<img src=""img/food6.png"" style=""width:200px; border:14px solid green;"">","null","","","","","","","","","",""
"","image-keyboard-response","324","174797","0.0-394.0","3HOSI13XH0AZCVJZM3G8J6TDRCYDDD","A3RTW9UWYKSNWX","335VBRURDJMQFRMOFGHOE9WKSHX9E1","","210","img/food4.png","75","210","2","1","1","2","1,0.5,0,1,0.5,0,0.5,0,1","0,1,0.5,0,1,0.5,1,0.5,0","3","false",""
"","html-keyboard-response","325","175100","0.0-395.0","3HOSI13XH0AZCVJZM3G8J6TDRCYDDD","A3RTW9UWYKSNWX","335VBRURDJMQFRMOFGHOE9WKSHX9E1","","null","<img src=""img/food4.png"" style=""width:200px; border:14px solid green;"">","null","","","","","","","","","",""
"","image-keyboard-response","326","175301","0.0-397.0","3HOSI13XH0AZCVJZM3G8J6TDRCYDDD","A3RTW9UWYKSNWX","335VBRURDJMQFRMOFGHOE9WKSHX9E1","","201","img/food4.png","75","201","2","1","1","2","1,0.5,0,1,0.5,0,0.5,0,1","0,1,0.5,0,1,0.5,1,0.5,0","3","false",""
"","html-keyboard-response","327","175614","0.0-398.0","3HOSI13XH0AZCVJZM3G8J6TDRCYDDD","A3RTW9UWYKSNWX","335VBRURDJMQFRMOFGHOE9WKSHX9E1","","null","<img src=""img/food4.png"" style=""width:200px; border:14px solid green;"">","null","","","","","","","","","",""
"","image-keyboard-response","328","175809","0.0-400.0","3HOSI13XH0AZCVJZM3G8J6TDRCYDDD","A3RTW9UWYKSNWX","335VBRURDJMQFRMOFGHOE9WKSHX9E1","","195","img/food4.png","75","195","2","1","1","2","1,0.5,0,1,0.5,0,0.5,0,1","0,1,0.5,0,1,0.5,1,0.5,0","3","false",""
"","html-keyboard-response","329","176114","0.0-401.0","3HOSI13XH0AZCVJZM3G8J6TDRCYDDD","A3RTW9UWYKSNWX","335VBRURDJMQFRMOFGHOE9WKSHX9E1","","null","<img src=""img/food4.png"" style=""width:200px; border:14px solid green;"">","null","","","","","","","","","",""
"","image-keyboard-response","330","176266","0.0-403.0","3HOSI13XH0AZCVJZM3G8J6TDRCYDDD","A3RTW9UWYKSNWX","335VBRURDJMQFRMOFGHOE9WKSHX9E1","","152","img/food1.png","75","152","2","1","3","2","1,0.5,0,1,0.5,0,0.5,0,1","0,1,0.5,0,1,0.5,1,0.5,0","3","false",""
"","html-keyboard-response","331","176581","0.0-404.0","3HOSI13XH0AZCVJZM3G8J6TDRCYDDD","A3RTW9UWYKSNWX","335VBRURDJMQFRMOFGHOE9WKSHX9E1","","null","<img src=""img/food1.png"" style=""width:200px; border:14px solid green;"">","null","","","","","","","","","",""
"","image-keyboard-response","332","176760","0.0-406.0","3HOSI13XH0AZCVJZM3G8J6TDRCYDDD","A3RTW9UWYKSNWX","335VBRURDJMQFRMOFGHOE9WKSHX9E1","","180","img/food1.png","75","180","2","1","3","2","1,0.5,0,1,0.5,0,0.5,0,1","0,1,0.5,0,1,0.5,1,0.5,0","3","false",""
"","html-keyboard-response","333","177065","0.0-407.0","3HOSI13XH0AZCVJZM3G8J6TDRCYDDD","A3RTW9UWYKSNWX","335VBRURDJMQFRMOFGHOE9WKSHX9E1","","null","<img src=""img/food1.png"" style=""width:200px; border:14px solid green;"">","null","","","","","","","","","",""
"","image-keyboard-response","334","177177","0.0-409.0","3HOSI13XH0AZCVJZM3G8J6TDRCYDDD","A3RTW9UWYKSNWX","335VBRURDJMQFRMOFGHOE9WKSHX9E1","","112","img/food1.png","75","112","2","0","3","2","1,0.5,0,1,0.5,0,0.5,0,1","0,1,0.5,0,1,0.5,1,0.5,0","3","false",""
"","html-keyboard-response","335","177490","0.0-410.0","3HOSI13XH0AZCVJZM3G8J6TDRCYDDD","A3RTW9UWYKSNWX","335VBRURDJMQFRMOFGHOE9WKSHX9E1","","null","<img src=""img/food1.png"" style=""width:200px;border:14px solid red;"">","null","","","","","","","","","",""
"","image-keyboard-response","336","177676","0.0-412.0","3HOSI13XH0AZCVJZM3G8J6TDRCYDDD","A3RTW9UWYKSNWX","335VBRURDJMQFRMOFGHOE9WKSHX9E1","","186","img/food6.png","75","186","2","1","2","2","1,0.5,0,1,0.5,0,0.5,0,1","0,1,0.5,0,1,0.5,1,0.5,0","3","false",""
"","html-keyboard-response","337","177993","0.0-413.0","3HOSI13XH0AZCVJZM3G8J6TDRCYDDD","A3RTW9UWYKSNWX","335VBRURDJMQFRMOFGHOE9WKSHX9E1","","null","<img src=""img/food6.png"" style=""width:200px; border:14px solid green;"">","null","","","","","","","","","",""
"","image-keyboard-response","338","178129","0.0-415.0","3HOSI13XH0AZCVJZM3G8J6TDRCYDDD","A3RTW9UWYKSNWX","335VBRURDJMQFRMOFGHOE9WKSHX9E1","","134","img/food4.png","75","134","2","1","1","2","1,0.5,0,1,0.5,0,0.5,0,1","0,1,0.5,0,1,0.5,1,0.5,0","3","false",""
"","html-keyboard-response","339","178431","0.0-416.0","3HOSI13XH0AZCVJZM3G8J6TDRCYDDD","A3RTW9UWYKSNWX","335VBRURDJMQFRMOFGHOE9WKSHX9E1","","null","<img src=""img/food4.png"" style=""width:200px; border:14px solid green;"">","null","","","","","","","","","",""
"","image-keyboard-response","340","178652","0.0-418.0","3HOSI13XH0AZCVJZM3G8J6TDRCYDDD","A3RTW9UWYKSNWX","335VBRURDJMQFRMOFGHOE9WKSHX9E1","","220","img/food4.png","75","221","2","1","1","2","1,0.5,0,1,0.5,0,0.5,0,1","0,1,0.5,0,1,0.5,1,0.5,0","3","false",""
"","html-keyboard-response","341","178964","0.0-419.0","3HOSI13XH0AZCVJZM3G8J6TDRCYDDD","A3RTW9UWYKSNWX","335VBRURDJMQFRMOFGHOE9WKSHX9E1","","null","<img src=""img/food4.png"" style=""width:200px; border:14px solid green;"">","null","","","","","","","","","",""
"","image-keyboard-response","342","179103","0.0-421.0","3HOSI13XH0AZCVJZM3G8J6TDRCYDDD","A3RTW9UWYKSNWX","335VBRURDJMQFRMOFGHOE9WKSHX9E1","","138","img/food6.png","75","138","2","1","2","2","1,0.5,0,1,0.5,0,0.5,0,1","0,1,0.5,0,1,0.5,1,0.5,0","3","false",""
"","html-keyboard-response","343","179416","0.0-422.0","3HOSI13XH0AZCVJZM3G8J6TDRCYDDD","A3RTW9UWYKSNWX","335VBRURDJMQFRMOFGHOE9WKSHX9E1","","null","<img src=""img/food6.png"" style=""width:200px; border:14px solid green;"">","null","","","","","","","","","",""
"","image-keyboard-response","344","179624","0.0-424.0","3HOSI13XH0AZCVJZM3G8J6TDRCYDDD","A3RTW9UWYKSNWX","335VBRURDJMQFRMOFGHOE9WKSHX9E1","","208","img/food6.png","75","208","2","1","2","2","1,0.5,0,1,0.5,0,0.5,0,1","0,1,0.5,0,1,0.5,1,0.5,0","3","false",""
"","html-keyboard-response","345","179933","0.0-425.0","3HOSI13XH0AZCVJZM3G8J6TDRCYDDD","A3RTW9UWYKSNWX","335VBRURDJMQFRMOFGHOE9WKSHX9E1","","null","<img src=""img/food6.png"" style=""width:200px; border:14px solid green;"">","null","","","","","","","","","",""
"","image-keyboard-response","346","180059","0.0-427.0","3HOSI13XH0AZCVJZM3G8J6TDRCYDDD","A3RTW9UWYKSNWX","335VBRURDJMQFRMOFGHOE9WKSHX9E1","","127","img/food4.png","75","127","2","1","1","2","1,0.5,0,1,0.5,0,0.5,0,1","0,1,0.5,0,1,0.5,1,0.5,0","3","false",""
"","html-keyboard-response","347","180367","0.0-428.0","3HOSI13XH0AZCVJZM3G8J6TDRCYDDD","A3RTW9UWYKSNWX","335VBRURDJMQFRMOFGHOE9WKSHX9E1","","null","<img src=""img/food4.png"" style=""width:200px; border:14px solid green;"">","null","","","","","","","","","",""
"","image-keyboard-response","348","180566","0.0-430.0","3HOSI13XH0AZCVJZM3G8J6TDRCYDDD","A3RTW9UWYKSNWX","335VBRURDJMQFRMOFGHOE9WKSHX9E1","","198","img/food6.png","75","198","2","1","2","2","1,0.5,0,1,0.5,0,0.5,0,1","0,1,0.5,0,1,0.5,1,0.5,0","3","false",""
"","html-keyboard-response","349","180867","0.0-431.0","3HOSI13XH0AZCVJZM3G8J6TDRCYDDD","A3RTW9UWYKSNWX","335VBRURDJMQFRMOFGHOE9WKSHX9E1","","null","<img src=""img/food6.png"" style=""width:200px; border:14px solid green;"">","null","","","","","","","","","",""
"","image-keyboard-response","350","181052","0.0-433.0","3HOSI13XH0AZCVJZM3G8J6TDRCYDDD","A3RTW9UWYKSNWX","335VBRURDJMQFRMOFGHOE9WKSHX9E1","","183","img/food1.png","75","183","2","1","3","2","1,0.5,0,1,0.5,0,0.5,0,1","0,1,0.5,0,1,0.5,1,0.5,0","3","false",""
"","html-keyboard-response","351","181362","0.0-434.0","3HOSI13XH0AZCVJZM3G8J6TDRCYDDD","A3RTW9UWYKSNWX","335VBRURDJMQFRMOFGHOE9WKSHX9E1","","null","<img src=""img/food1.png"" style=""width:200px; border:14px solid green;"">","null","","","","","","","","","",""
"","image-keyboard-response","352","181527","0.0-436.0","3HOSI13XH0AZCVJZM3G8J6TDRCYDDD","A3RTW9UWYKSNWX","335VBRURDJMQFRMOFGHOE9WKSHX9E1","","164","img/food1.png","75","164","2","1","3","2","1,0.5,0,1,0.5,0,0.5,0,1","0,1,0.5,0,1,0.5,1,0.5,0","3","false",""
"","html-keyboard-response","353","181831","0.0-437.0","3HOSI13XH0AZCVJZM3G8J6TDRCYDDD","A3RTW9UWYKSNWX","335VBRURDJMQFRMOFGHOE9WKSHX9E1","","null","<img src=""img/food1.png"" style=""width:200px; border:14px solid green;"">","null","","","","","","","","","",""
"","image-keyboard-response","354","182032","0.0-439.0","3HOSI13XH0AZCVJZM3G8J6TDRCYDDD","A3RTW9UWYKSNWX","335VBRURDJMQFRMOFGHOE9WKSHX9E1","","201","img/food1.png","75","201","2","1","3","2","1,0.5,0,1,0.5,0,0.5,0,1","0,1,0.5,0,1,0.5,1,0.5,0","3","false",""
"","html-keyboard-response","355","182334","0.0-440.0","3HOSI13XH0AZCVJZM3G8J6TDRCYDDD","A3RTW9UWYKSNWX","335VBRURDJMQFRMOFGHOE9WKSHX9E1","","null","<img src=""img/food1.png"" style=""width:200px; border:14px solid green;"">","null","","","","","","","","","",""
"","image-keyboard-response","356","182451","0.0-442.0","3HOSI13XH0AZCVJZM3G8J6TDRCYDDD","A3RTW9UWYKSNWX","335VBRURDJMQFRMOFGHOE9WKSHX9E1","","116","img/food4.png","75","116","2","1","1","2","1,0.5,0,1,0.5,0,0.5,0,1","0,1,0.5,0,1,0.5,1,0.5,0","3","false",""
"","html-keyboard-response","357","182755","0.0-443.0","3HOSI13XH0AZCVJZM3G8J6TDRCYDDD","A3RTW9UWYKSNWX","335VBRURDJMQFRMOFGHOE9WKSHX9E1","","null","<img src=""img/food4.png"" style=""width:200px; border:14px solid green;"">","null","","","","","","","","","",""
"","image-keyboard-response","358","182931","0.0-445.0","3HOSI13XH0AZCVJZM3G8J6TDRCYDDD","A3RTW9UWYKSNWX","335VBRURDJMQFRMOFGHOE9WKSHX9E1","","175","img/food4.png","75","177","2","1","1","2","1,0.5,0,1,0.5,0,0.5,0,1","0,1,0.5,0,1,0.5,1,0.5,0","3","false",""
"","html-keyboard-response","359","183239","0.0-446.0","3HOSI13XH0AZCVJZM3G8J6TDRCYDDD","A3RTW9UWYKSNWX","335VBRURDJMQFRMOFGHOE9WKSHX9E1","","null","<img src=""img/food4.png"" style=""width:200px; border:14px solid green;"">","null","","","","","","","","","",""
"","image-keyboard-response","360","183356","0.0-448.0","3HOSI13XH0AZCVJZM3G8J6TDRCYDDD","A3RTW9UWYKSNWX","335VBRURDJMQFRMOFGHOE9WKSHX9E1","","116","img/food6.png","75","116","2","1","2","2","1,0.5,0,1,0.5,0,0.5,0,1","0,1,0.5,0,1,0.5,1,0.5,0","3","false",""
"","html-keyboard-response","361","183658","0.0-449.0","3HOSI13XH0AZCVJZM3G8J6TDRCYDDD","A3RTW9UWYKSNWX","335VBRURDJMQFRMOFGHOE9WKSHX9E1","","null","<img src=""img/food6.png"" style=""width:200px; border:14px solid green;"">","null","","","","","","","","","",""
"","image-keyboard-response","362","183825","0.0-451.0","3HOSI13XH0AZCVJZM3G8J6TDRCYDDD","A3RTW9UWYKSNWX","335VBRURDJMQFRMOFGHOE9WKSHX9E1","","166","img/food1.png","75","166","2","0","3","2","1,0.5,0,1,0.5,0,0.5,0,1","0,1,0.5,0,1,0.5,1,0.5,0","3","false",""
"","html-keyboard-response","363","184126","0.0-452.0","3HOSI13XH0AZCVJZM3G8J6TDRCYDDD","A3RTW9UWYKSNWX","335VBRURDJMQFRMOFGHOE9WKSHX9E1","","null","<img src=""img/food1.png"" style=""width:200px;border:14px solid red;"">","null","","","","","","","","","",""
"","instructions","364","186688","0.0-454.0","3HOSI13XH0AZCVJZM3G8J6TDRCYDDD","A3RTW9UWYKSNWX","335VBRURDJMQFRMOFGHOE9WKSHX9E1","[{""page_index"":0,""viewing_time"":2561}]","2561","","","","","","","","","","","",""
"","survey-text","365","188854","0.0-455.0","3HOSI13XH0AZCVJZM3G8J6TDRCYDDD","A3RTW9UWYKSNWX","335VBRURDJMQFRMOFGHOE9WKSHX9E1","","2164","","","","","","","","","","","","{""Q0"":""A3RTW9UWYKSNWX""}"
