"success","trial_type","trial_index","time_elapsed","internal_node_id","assignmentID","mturkID","hitID","view_history","rt","stimulus","key_press","reactionTime","a","r","s","cond","reward_cond","reward_cond_actual","reward_matrix_idx","warning","responses"
"true","fullscreen","0","4288","0.0-0.0","3YMTUJH0DT2TTOW3FIFUL6HTH9M4TF","A3RUL1OC4CAINK","356TQKY9XFJ5S7O4NGX4839SMNB87N","","","","","","","","","","","","","",""
"","instructions","1","17646","0.0-1.0","3YMTUJH0DT2TTOW3FIFUL6HTH9M4TF","A3RUL1OC4CAINK","356TQKY9XFJ5S7O4NGX4839SMNB87N","[{""page_index"":0,""viewing_time"":1120.4000000357628},{""page_index"":1,""viewing_time"":1221.8999999761581},{""page_index"":2,""viewing_time"":1193},{""page_index"":3,""viewing_time"":2812.600000023842},{""page_index"":4,""viewing_time"":2785.899999976158},{""page_index"":5,""viewing_time"":2102.199999988079},{""page_index"":6,""viewing_time"":2119.600000023842}]","13355.800000011921","","","","","","","","","","","",""
"","image-keyboard-response","2","19662","0.0-2.0","3YMTUJH0DT2TTOW3FIFUL6HTH9M4TF","A3RUL1OC4CAINK","356TQKY9XFJ5S7O4NGX4839SMNB87N","","","img/food5.png","","2015.699999988079","-1","0","3","1","1,0.5,0,1,0.5,0,0.5,0,1","1,0.5,0,1,0.5,0,0.5,0,1","1","",""
"","html-keyboard-response","3","19973","0.0-3.0","3YMTUJH0DT2TTOW3FIFUL6HTH9M4TF","A3RUL1OC4CAINK","356TQKY9XFJ5S7O4NGX4839SMNB87N","","null","<img src=""img/food5.png"" style=""width:200px;border:14px solid red;"">","null","","","","","","","","","",""
"","image-keyboard-response","4","20764","0.0-4.0","3YMTUJH0DT2TTOW3FIFUL6HTH9M4TF","A3RUL1OC4CAINK","356TQKY9XFJ5S7O4NGX4839SMNB87N","","788.8000000119209","img/food2.png","74","790.3999999761581","1","1","2","1","1,0.5,0,1,0.5,0,0.5,0,1","1,0.5,0,1,0.5,0,0.5,0,1","1","",""
"","html-keyboard-response","5","21073","0.0-5.0","3YMTUJH0DT2TTOW3FIFUL6HTH9M4TF","A3RUL1OC4CAINK","356TQKY9XFJ5S7O4NGX4839SMNB87N","","null","<img src=""img/food2.png"" style=""width:200px; border:14px solid green;"">","null","","","","","","","","","",""
"","image-keyboard-response","6","21822","0.0-6.0","3YMTUJH0DT2TTOW3FIFUL6HTH9M4TF","A3RUL1OC4CAINK","356TQKY9XFJ5S7O4NGX4839SMNB87N","","746.5","img/food5.png","75","747.9000000357628","2","0","3","1","1,0.5,0,1,0.5,0,0.5,0,1","1,0.5,0,1,0.5,0,0.5,0,1","1","",""
"","html-keyboard-response","7","22136","0.0-7.0","3YMTUJH0DT2TTOW3FIFUL6HTH9M4TF","A3RUL1OC4CAINK","356TQKY9XFJ5S7O4NGX4839SMNB87N","","null","<img src=""img/food5.png"" style=""width:200px;border:14px solid red;"">","null","","","","","","","","","",""
"","image-keyboard-response","8","23150","0.0-8.0","3YMTUJH0DT2TTOW3FIFUL6HTH9M4TF","A3RUL1OC4CAINK","356TQKY9XFJ5S7O4NGX4839SMNB87N","","1012.0999999642372","img/food4.png","76","1013.5999999642372","3","0","1","1","1,0.5,0,1,0.5,0,0.5,0,1","1,0.5,0,1,0.5,0,0.5,0,1","1","",""
"","html-keyboard-response","9","23455","0.0-9.0","3YMTUJH0DT2TTOW3FIFUL6HTH9M4TF","A3RUL1OC4CAINK","356TQKY9XFJ5S7O4NGX4839SMNB87N","","null","<img src=""img/food4.png"" style=""width:200px;border:14px solid red;"">","null","","","","","","","","","",""
"","image-keyboard-response","10","24535","0.0-10.0","3YMTUJH0DT2TTOW3FIFUL6HTH9M4TF","A3RUL1OC4CAINK","356TQKY9XFJ5S7O4NGX4839SMNB87N","","1079.1000000238419","img/food2.png","74","1079.8999999761581","1","1","2","1","1,0.5,0,1,0.5,0,0.5,0,1","1,0.5,0,1,0.5,0,0.5,0,1","1","",""
"","html-keyboard-response","11","24836","0.0-11.0","3YMTUJH0DT2TTOW3FIFUL6HTH9M4TF","A3RUL1OC4CAINK","356TQKY9XFJ5S7O4NGX4839SMNB87N","","null","<img src=""img/food2.png"" style=""width:200px; border:14px solid green;"">","null","","","","","","","","","",""
"","image-keyboard-response","12","25261","0.0-12.0","3YMTUJH0DT2TTOW3FIFUL6HTH9M4TF","A3RUL1OC4CAINK","356TQKY9XFJ5S7O4NGX4839SMNB87N","","422.5","img/food2.png","74","424","1","1","2","1","1,0.5,0,1,0.5,0,0.5,0,1","1,0.5,0,1,0.5,0,0.5,0,1","1","",""
"","html-keyboard-response","13","25570","0.0-13.0","3YMTUJH0DT2TTOW3FIFUL6HTH9M4TF","A3RUL1OC4CAINK","356TQKY9XFJ5S7O4NGX4839SMNB87N","","null","<img src=""img/food2.png"" style=""width:200px; border:14px solid green;"">","null","","","","","","","","","",""
"","image-keyboard-response","14","25973","0.0-14.0","3YMTUJH0DT2TTOW3FIFUL6HTH9M4TF","A3RUL1OC4CAINK","356TQKY9XFJ5S7O4NGX4839SMNB87N","","402","img/food2.png","74","402.69999998807907","1","1","2","1","1,0.5,0,1,0.5,0,0.5,0,1","1,0.5,0,1,0.5,0,0.5,0,1","1","",""
"","html-keyboard-response","15","26289","0.0-15.0","3YMTUJH0DT2TTOW3FIFUL6HTH9M4TF","A3RUL1OC4CAINK","356TQKY9XFJ5S7O4NGX4839SMNB87N","","null","<img src=""img/food2.png"" style=""width:200px; border:14px solid green;"">","null","","","","","","","","","",""
"","image-keyboard-response","16","27057","0.0-16.0","3YMTUJH0DT2TTOW3FIFUL6HTH9M4TF","A3RUL1OC4CAINK","356TQKY9XFJ5S7O4NGX4839SMNB87N","","766.0999999642372","img/food4.png","75","767.5","2","1","1","1","1,0.5,0,1,0.5,0,0.5,0,1","1,0.5,0,1,0.5,0,0.5,0,1","1","",""
"","html-keyboard-response","17","27368","0.0-17.0","3YMTUJH0DT2TTOW3FIFUL6HTH9M4TF","A3RUL1OC4CAINK","356TQKY9XFJ5S7O4NGX4839SMNB87N","","null","<img src=""img/food4.png"" style=""width:200px; border:14px solid green;"">","null","","","","","","","","","",""
"","image-keyboard-response","18","27784","0.0-18.0","3YMTUJH0DT2TTOW3FIFUL6HTH9M4TF","A3RUL1OC4CAINK","356TQKY9XFJ5S7O4NGX4839SMNB87N","","414.7000000476837","img/food4.png","75","415.5","2","1","1","1","1,0.5,0,1,0.5,0,0.5,0,1","1,0.5,0,1,0.5,0,0.5,0,1","1","",""
"","html-keyboard-response","19","28086","0.0-19.0","3YMTUJH0DT2TTOW3FIFUL6HTH9M4TF","A3RUL1OC4CAINK","356TQKY9XFJ5S7O4NGX4839SMNB87N","","null","<img src=""img/food4.png"" style=""width:200px; border:14px solid green;"">","null","","","","","","","","","",""
"","image-keyboard-response","20","28648","0.0-20.0","3YMTUJH0DT2TTOW3FIFUL6HTH9M4TF","A3RUL1OC4CAINK","356TQKY9XFJ5S7O4NGX4839SMNB87N","","560.8999999761581","img/food4.png","75","562.1999999880791","2","0","1","1","1,0.5,0,1,0.5,0,0.5,0,1","1,0.5,0,1,0.5,0,0.5,0,1","1","",""
"","html-keyboard-response","21","28950","0.0-21.0","3YMTUJH0DT2TTOW3FIFUL6HTH9M4TF","A3RUL1OC4CAINK","356TQKY9XFJ5S7O4NGX4839SMNB87N","","null","<img src=""img/food4.png"" style=""width:200px;border:14px solid red;"">","null","","","","","","","","","",""
"","image-keyboard-response","22","30010","0.0-22.0","3YMTUJH0DT2TTOW3FIFUL6HTH9M4TF","A3RUL1OC4CAINK","356TQKY9XFJ5S7O4NGX4839SMNB87N","","1059.199999988079","img/food5.png","76","1060.1000000238419","3","1","3","1","1,0.5,0,1,0.5,0,0.5,0,1","1,0.5,0,1,0.5,0,0.5,0,1","1","",""
"","html-keyboard-response","23","30313","0.0-23.0","3YMTUJH0DT2TTOW3FIFUL6HTH9M4TF","A3RUL1OC4CAINK","356TQKY9XFJ5S7O4NGX4839SMNB87N","","null","<img src=""img/food5.png"" style=""width:200px; border:14px solid green;"">","null","","","","","","","","","",""
"","image-keyboard-response","24","30677","0.0-24.0","3YMTUJH0DT2TTOW3FIFUL6HTH9M4TF","A3RUL1OC4CAINK","356TQKY9XFJ5S7O4NGX4839SMNB87N","","361.80000001192093","img/food5.png","76","363.2000000476837","3","1","3","1","1,0.5,0,1,0.5,0,0.5,0,1","1,0.5,0,1,0.5,0,0.5,0,1","1","",""
"","html-keyboard-response","25","30979","0.0-25.0","3YMTUJH0DT2TTOW3FIFUL6HTH9M4TF","A3RUL1OC4CAINK","356TQKY9XFJ5S7O4NGX4839SMNB87N","","null","<img src=""img/food5.png"" style=""width:200px; border:14px solid green;"">","null","","","","","","","","","",""
"","image-keyboard-response","26","31707","0.0-26.0","3YMTUJH0DT2TTOW3FIFUL6HTH9M4TF","A3RUL1OC4CAINK","356TQKY9XFJ5S7O4NGX4839SMNB87N","","725.5","img/food2.png","74","727","1","1","2","1","1,0.5,0,1,0.5,0,0.5,0,1","1,0.5,0,1,0.5,0,0.5,0,1","1","",""
"","html-keyboard-response","27","32009","0.0-27.0","3YMTUJH0DT2TTOW3FIFUL6HTH9M4TF","A3RUL1OC4CAINK","356TQKY9XFJ5S7O4NGX4839SMNB87N","","null","<img src=""img/food2.png"" style=""width:200px; border:14px solid green;"">","null","","","","","","","","","",""
"","image-keyboard-response","28","32541","0.0-28.0","3YMTUJH0DT2TTOW3FIFUL6HTH9M4TF","A3RUL1OC4CAINK","356TQKY9XFJ5S7O4NGX4839SMNB87N","","531.5","img/food5.png","76","531.9000000357628","3","1","3","1","1,0.5,0,1,0.5,0,0.5,0,1","1,0.5,0,1,0.5,0,0.5,0,1","1","",""
"","html-keyboard-response","29","32843","0.0-29.0","3YMTUJH0DT2TTOW3FIFUL6HTH9M4TF","A3RUL1OC4CAINK","356TQKY9XFJ5S7O4NGX4839SMNB87N","","null","<img src=""img/food5.png"" style=""width:200px; border:14px solid green;"">","null","","","","","","","","","",""
"","image-keyboard-response","30","33368","0.0-30.0","3YMTUJH0DT2TTOW3FIFUL6HTH9M4TF","A3RUL1OC4CAINK","356TQKY9XFJ5S7O4NGX4839SMNB87N","","524.3999999761581","img/food5.png","76","524.8999999761581","3","1","3","1","1,0.5,0,1,0.5,0,0.5,0,1","1,0.5,0,1,0.5,0,0.5,0,1","1","",""
"","html-keyboard-response","31","33670","0.0-31.0","3YMTUJH0DT2TTOW3FIFUL6HTH9M4TF","A3RUL1OC4CAINK","356TQKY9XFJ5S7O4NGX4839SMNB87N","","null","<img src=""img/food5.png"" style=""width:200px; border:14px solid green;"">","null","","","","","","","","","",""
"","image-keyboard-response","32","34026","0.0-32.0","3YMTUJH0DT2TTOW3FIFUL6HTH9M4TF","A3RUL1OC4CAINK","356TQKY9XFJ5S7O4NGX4839SMNB87N","","354.5","img/food5.png","76","355.60000002384186","3","1","3","1","1,0.5,0,1,0.5,0,0.5,0,1","1,0.5,0,1,0.5,0,0.5,0,1","1","",""
"","html-keyboard-response","33","34328","0.0-33.0","3YMTUJH0DT2TTOW3FIFUL6HTH9M4TF","A3RUL1OC4CAINK","356TQKY9XFJ5S7O4NGX4839SMNB87N","","null","<img src=""img/food5.png"" style=""width:200px; border:14px solid green;"">","null","","","","","","","","","",""
"","image-keyboard-response","34","34690","0.0-34.0","3YMTUJH0DT2TTOW3FIFUL6HTH9M4TF","A3RUL1OC4CAINK","356TQKY9XFJ5S7O4NGX4839SMNB87N","","360.0999999642372","img/food5.png","76","361.5999999642372","3","1","3","1","1,0.5,0,1,0.5,0,0.5,0,1","1,0.5,0,1,0.5,0,0.5,0,1","1","",""
"","html-keyboard-response","35","34993","0.0-35.0","3YMTUJH0DT2TTOW3FIFUL6HTH9M4TF","A3RUL1OC4CAINK","356TQKY9XFJ5S7O4NGX4839SMNB87N","","null","<img src=""img/food5.png"" style=""width:200px; border:14px solid green;"">","null","","","","","","","","","",""
"","image-keyboard-response","36","35325","0.0-36.0","3YMTUJH0DT2TTOW3FIFUL6HTH9M4TF","A3RUL1OC4CAINK","356TQKY9XFJ5S7O4NGX4839SMNB87N","","331","img/food5.png","76","332","3","1","3","1","1,0.5,0,1,0.5,0,0.5,0,1","1,0.5,0,1,0.5,0,0.5,0,1","1","",""
"","html-keyboard-response","37","35626","0.0-37.0","3YMTUJH0DT2TTOW3FIFUL6HTH9M4TF","A3RUL1OC4CAINK","356TQKY9XFJ5S7O4NGX4839SMNB87N","","null","<img src=""img/food5.png"" style=""width:200px; border:14px solid green;"">","null","","","","","","","","","",""
"","image-keyboard-response","38","35947","0.0-38.0","3YMTUJH0DT2TTOW3FIFUL6HTH9M4TF","A3RUL1OC4CAINK","356TQKY9XFJ5S7O4NGX4839SMNB87N","","318.5","img/food5.png","76","319.9000000357628","3","1","3","1","1,0.5,0,1,0.5,0,0.5,0,1","1,0.5,0,1,0.5,0,0.5,0,1","1","",""
"","html-keyboard-response","39","36250","0.0-39.0","3YMTUJH0DT2TTOW3FIFUL6HTH9M4TF","A3RUL1OC4CAINK","356TQKY9XFJ5S7O4NGX4839SMNB87N","","null","<img src=""img/food5.png"" style=""width:200px; border:14px solid green;"">","null","","","","","","","","","",""
"","image-keyboard-response","40","36947","0.0-40.0","3YMTUJH0DT2TTOW3FIFUL6HTH9M4TF","A3RUL1OC4CAINK","356TQKY9XFJ5S7O4NGX4839SMNB87N","","695.3000000119209","img/food4.png","75","696.3999999761581","2","0","1","1","1,0.5,0,1,0.5,0,0.5,0,1","1,0.5,0,1,0.5,0,0.5,0,1","1","",""
"","html-keyboard-response","41","37248","0.0-41.0","3YMTUJH0DT2TTOW3FIFUL6HTH9M4TF","A3RUL1OC4CAINK","356TQKY9XFJ5S7O4NGX4839SMNB87N","","null","<img src=""img/food4.png"" style=""width:200px;border:14px solid red;"">","null","","","","","","","","","",""
"","image-keyboard-response","42","37784","0.0-42.0","3YMTUJH0DT2TTOW3FIFUL6HTH9M4TF","A3RUL1OC4CAINK","356TQKY9XFJ5S7O4NGX4839SMNB87N","","534.5999999642372","img/food5.png","76","535.9000000357628","3","1","3","1","1,0.5,0,1,0.5,0,0.5,0,1","1,0.5,0,1,0.5,0,0.5,0,1","1","",""
"","html-keyboard-response","43","38086","0.0-43.0","3YMTUJH0DT2TTOW3FIFUL6HTH9M4TF","A3RUL1OC4CAINK","356TQKY9XFJ5S7O4NGX4839SMNB87N","","null","<img src=""img/food5.png"" style=""width:200px; border:14px solid green;"">","null","","","","","","","","","",""
"","image-keyboard-response","44","38642","0.0-44.0","3YMTUJH0DT2TTOW3FIFUL6HTH9M4TF","A3RUL1OC4CAINK","356TQKY9XFJ5S7O4NGX4839SMNB87N","","554.3000000119209","img/food4.png","75","555.3999999761581","2","0","1","1","1,0.5,0,1,0.5,0,0.5,0,1","1,0.5,0,1,0.5,0,0.5,0,1","1","",""
"","html-keyboard-response","45","38943","0.0-45.0","3YMTUJH0DT2TTOW3FIFUL6HTH9M4TF","A3RUL1OC4CAINK","356TQKY9XFJ5S7O4NGX4839SMNB87N","","null","<img src=""img/food4.png"" style=""width:200px;border:14px solid red;"">","null","","","","","","","","","",""
"","image-keyboard-response","46","39391","0.0-46.0","3YMTUJH0DT2TTOW3FIFUL6HTH9M4TF","A3RUL1OC4CAINK","356TQKY9XFJ5S7O4NGX4839SMNB87N","","445.9000000357628","img/food5.png","76","447.0999999642372","3","1","3","1","1,0.5,0,1,0.5,0,0.5,0,1","1,0.5,0,1,0.5,0,0.5,0,1","1","",""
"","html-keyboard-response","47","39693","0.0-47.0","3YMTUJH0DT2TTOW3FIFUL6HTH9M4TF","A3RUL1OC4CAINK","356TQKY9XFJ5S7O4NGX4839SMNB87N","","null","<img src=""img/food5.png"" style=""width:200px; border:14px solid green;"">","null","","","","","","","","","",""
"","image-keyboard-response","48","40540","0.0-48.0","3YMTUJH0DT2TTOW3FIFUL6HTH9M4TF","A3RUL1OC4CAINK","356TQKY9XFJ5S7O4NGX4839SMNB87N","","846.2000000476837","img/food4.png","75","847","2","1","1","1","1,0.5,0,1,0.5,0,0.5,0,1","1,0.5,0,1,0.5,0,0.5,0,1","1","",""
"","html-keyboard-response","49","40843","0.0-49.0","3YMTUJH0DT2TTOW3FIFUL6HTH9M4TF","A3RUL1OC4CAINK","356TQKY9XFJ5S7O4NGX4839SMNB87N","","null","<img src=""img/food4.png"" style=""width:200px; border:14px solid green;"">","null","","","","","","","","","",""
"","image-keyboard-response","50","41450","0.0-50.0","3YMTUJH0DT2TTOW3FIFUL6HTH9M4TF","A3RUL1OC4CAINK","356TQKY9XFJ5S7O4NGX4839SMNB87N","","605","img/food2.png","74","606.1999999880791","1","1","2","1","1,0.5,0,1,0.5,0,0.5,0,1","1,0.5,0,1,0.5,0,0.5,0,1","1","",""
"","html-keyboard-response","51","41751","0.0-51.0","3YMTUJH0DT2TTOW3FIFUL6HTH9M4TF","A3RUL1OC4CAINK","356TQKY9XFJ5S7O4NGX4839SMNB87N","","null","<img src=""img/food2.png"" style=""width:200px; border:14px solid green;"">","null","","","","","","","","","",""
"","image-keyboard-response","52","42160","0.0-52.0","3YMTUJH0DT2TTOW3FIFUL6HTH9M4TF","A3RUL1OC4CAINK","356TQKY9XFJ5S7O4NGX4839SMNB87N","","407","img/food2.png","74","408","1","1","2","1","1,0.5,0,1,0.5,0,0.5,0,1","1,0.5,0,1,0.5,0,0.5,0,1","1","",""
"","html-keyboard-response","53","42461","0.0-53.0","3YMTUJH0DT2TTOW3FIFUL6HTH9M4TF","A3RUL1OC4CAINK","356TQKY9XFJ5S7O4NGX4839SMNB87N","","null","<img src=""img/food2.png"" style=""width:200px; border:14px solid green;"">","null","","","","","","","","","",""
"","image-keyboard-response","54","43075","0.0-54.0","3YMTUJH0DT2TTOW3FIFUL6HTH9M4TF","A3RUL1OC4CAINK","356TQKY9XFJ5S7O4NGX4839SMNB87N","","611.6000000238419","img/food4.png","75","613","2","1","1","1","1,0.5,0,1,0.5,0,0.5,0,1","1,0.5,0,1,0.5,0,0.5,0,1","1","",""
"","html-keyboard-response","55","43377","0.0-55.0","3YMTUJH0DT2TTOW3FIFUL6HTH9M4TF","A3RUL1OC4CAINK","356TQKY9XFJ5S7O4NGX4839SMNB87N","","null","<img src=""img/food4.png"" style=""width:200px; border:14px solid green;"">","null","","","","","","","","","",""
"","image-keyboard-response","56","44045","0.0-56.0","3YMTUJH0DT2TTOW3FIFUL6HTH9M4TF","A3RUL1OC4CAINK","356TQKY9XFJ5S7O4NGX4839SMNB87N","","665.9000000357628","img/food2.png","74","667.3000000119209","1","1","2","1","1,0.5,0,1,0.5,0,0.5,0,1","1,0.5,0,1,0.5,0,0.5,0,1","1","",""
"","html-keyboard-response","57","44346","0.0-57.0","3YMTUJH0DT2TTOW3FIFUL6HTH9M4TF","A3RUL1OC4CAINK","356TQKY9XFJ5S7O4NGX4839SMNB87N","","null","<img src=""img/food2.png"" style=""width:200px; border:14px solid green;"">","null","","","","","","","","","",""
"","image-keyboard-response","58","44740","0.0-58.0","3YMTUJH0DT2TTOW3FIFUL6HTH9M4TF","A3RUL1OC4CAINK","356TQKY9XFJ5S7O4NGX4839SMNB87N","","391.89999997615814","img/food2.png","74","393.0999999642372","1","1","2","1","1,0.5,0,1,0.5,0,0.5,0,1","1,0.5,0,1,0.5,0,0.5,0,1","1","",""
"","html-keyboard-response","59","45042","0.0-59.0","3YMTUJH0DT2TTOW3FIFUL6HTH9M4TF","A3RUL1OC4CAINK","356TQKY9XFJ5S7O4NGX4839SMNB87N","","null","<img src=""img/food2.png"" style=""width:200px; border:14px solid green;"">","null","","","","","","","","","",""
"","image-keyboard-response","60","45664","0.0-60.0","3YMTUJH0DT2TTOW3FIFUL6HTH9M4TF","A3RUL1OC4CAINK","356TQKY9XFJ5S7O4NGX4839SMNB87N","","620.7000000476837","img/food5.png","76","621.8000000119209","3","1","3","1","1,0.5,0,1,0.5,0,0.5,0,1","1,0.5,0,1,0.5,0,0.5,0,1","1","",""
"","html-keyboard-response","61","45970","0.0-61.0","3YMTUJH0DT2TTOW3FIFUL6HTH9M4TF","A3RUL1OC4CAINK","356TQKY9XFJ5S7O4NGX4839SMNB87N","","null","<img src=""img/food5.png"" style=""width:200px; border:14px solid green;"">","null","","","","","","","","","",""
"","image-keyboard-response","62","46634","0.0-62.0","3YMTUJH0DT2TTOW3FIFUL6HTH9M4TF","A3RUL1OC4CAINK","356TQKY9XFJ5S7O4NGX4839SMNB87N","","662.3000000119209","img/food4.png","75","663.6000000238419","2","1","1","1","1,0.5,0,1,0.5,0,0.5,0,1","1,0.5,0,1,0.5,0,0.5,0,1","1","",""
"","html-keyboard-response","63","46937","0.0-63.0","3YMTUJH0DT2TTOW3FIFUL6HTH9M4TF","A3RUL1OC4CAINK","356TQKY9XFJ5S7O4NGX4839SMNB87N","","null","<img src=""img/food4.png"" style=""width:200px; border:14px solid green;"">","null","","","","","","","","","",""
"","image-keyboard-response","64","47464","0.0-64.0","3YMTUJH0DT2TTOW3FIFUL6HTH9M4TF","A3RUL1OC4CAINK","356TQKY9XFJ5S7O4NGX4839SMNB87N","","525.3999999761581","img/food5.png","76","526.6000000238419","3","1","3","1","1,0.5,0,1,0.5,0,0.5,0,1","1,0.5,0,1,0.5,0,0.5,0,1","1","",""
"","html-keyboard-response","65","47767","0.0-65.0","3YMTUJH0DT2TTOW3FIFUL6HTH9M4TF","A3RUL1OC4CAINK","356TQKY9XFJ5S7O4NGX4839SMNB87N","","null","<img src=""img/food5.png"" style=""width:200px; border:14px solid green;"">","null","","","","","","","","","",""
"","image-keyboard-response","66","48175","0.0-66.0","3YMTUJH0DT2TTOW3FIFUL6HTH9M4TF","A3RUL1OC4CAINK","356TQKY9XFJ5S7O4NGX4839SMNB87N","","406.80000001192093","img/food5.png","76","408","3","1","3","1","1,0.5,0,1,0.5,0,0.5,0,1","1,0.5,0,1,0.5,0,0.5,0,1","1","",""
"","html-keyboard-response","67","48477","0.0-67.0","3YMTUJH0DT2TTOW3FIFUL6HTH9M4TF","A3RUL1OC4CAINK","356TQKY9XFJ5S7O4NGX4839SMNB87N","","null","<img src=""img/food5.png"" style=""width:200px; border:14px solid green;"">","null","","","","","","","","","",""
"","image-keyboard-response","68","48910","0.0-68.0","3YMTUJH0DT2TTOW3FIFUL6HTH9M4TF","A3RUL1OC4CAINK","356TQKY9XFJ5S7O4NGX4839SMNB87N","","431.89999997615814","img/food5.png","76","432.60000002384186","3","1","3","1","1,0.5,0,1,0.5,0,0.5,0,1","1,0.5,0,1,0.5,0,0.5,0,1","1","",""
"","html-keyboard-response","69","49213","0.0-69.0","3YMTUJH0DT2TTOW3FIFUL6HTH9M4TF","A3RUL1OC4CAINK","356TQKY9XFJ5S7O4NGX4839SMNB87N","","null","<img src=""img/food5.png"" style=""width:200px; border:14px solid green;"">","null","","","","","","","","","",""
"","image-keyboard-response","70","49802","0.0-70.0","3YMTUJH0DT2TTOW3FIFUL6HTH9M4TF","A3RUL1OC4CAINK","356TQKY9XFJ5S7O4NGX4839SMNB87N","","586.8000000119209","img/food2.png","74","588.3000000119209","1","1","2","1","1,0.5,0,1,0.5,0,0.5,0,1","1,0.5,0,1,0.5,0,0.5,0,1","1","",""
"","html-keyboard-response","71","50105","0.0-71.0","3YMTUJH0DT2TTOW3FIFUL6HTH9M4TF","A3RUL1OC4CAINK","356TQKY9XFJ5S7O4NGX4839SMNB87N","","null","<img src=""img/food2.png"" style=""width:200px; border:14px solid green;"">","null","","","","","","","","","",""
"","image-keyboard-response","72","50681","0.0-72.0","3YMTUJH0DT2TTOW3FIFUL6HTH9M4TF","A3RUL1OC4CAINK","356TQKY9XFJ5S7O4NGX4839SMNB87N","","575.0999999642372","img/food5.png","76","576.5999999642372","3","1","3","1","1,0.5,0,1,0.5,0,0.5,0,1","1,0.5,0,1,0.5,0,0.5,0,1","1","",""
"","html-keyboard-response","73","50984","0.0-73.0","3YMTUJH0DT2TTOW3FIFUL6HTH9M4TF","A3RUL1OC4CAINK","356TQKY9XFJ5S7O4NGX4839SMNB87N","","null","<img src=""img/food5.png"" style=""width:200px; border:14px solid green;"">","null","","","","","","","","","",""
"","image-keyboard-response","74","51369","0.0-74.0","3YMTUJH0DT2TTOW3FIFUL6HTH9M4TF","A3RUL1OC4CAINK","356TQKY9XFJ5S7O4NGX4839SMNB87N","","383.10000002384186","img/food5.png","76","384.5","3","1","3","1","1,0.5,0,1,0.5,0,0.5,0,1","1,0.5,0,1,0.5,0,0.5,0,1","1","",""
"","html-keyboard-response","75","51671","0.0-75.0","3YMTUJH0DT2TTOW3FIFUL6HTH9M4TF","A3RUL1OC4CAINK","356TQKY9XFJ5S7O4NGX4839SMNB87N","","null","<img src=""img/food5.png"" style=""width:200px; border:14px solid green;"">","null","","","","","","","","","",""
"","image-keyboard-response","76","52352","0.0-76.0","3YMTUJH0DT2TTOW3FIFUL6HTH9M4TF","A3RUL1OC4CAINK","356TQKY9XFJ5S7O4NGX4839SMNB87N","","679.5","img/food2.png","74","680.1999999880791","1","1","2","1","1,0.5,0,1,0.5,0,0.5,0,1","1,0.5,0,1,0.5,0,0.5,0,1","1","",""
"","html-keyboard-response","77","52654","0.0-77.0","3YMTUJH0DT2TTOW3FIFUL6HTH9M4TF","A3RUL1OC4CAINK","356TQKY9XFJ5S7O4NGX4839SMNB87N","","null","<img src=""img/food2.png"" style=""width:200px; border:14px solid green;"">","null","","","","","","","","","",""
"","image-keyboard-response","78","53284","0.0-78.0","3YMTUJH0DT2TTOW3FIFUL6HTH9M4TF","A3RUL1OC4CAINK","356TQKY9XFJ5S7O4NGX4839SMNB87N","","628.3000000119209","img/food4.png","75","629.6999999880791","2","1","1","1","1,0.5,0,1,0.5,0,0.5,0,1","1,0.5,0,1,0.5,0,0.5,0,1","1","",""
"","html-keyboard-response","79","53586","0.0-79.0","3YMTUJH0DT2TTOW3FIFUL6HTH9M4TF","A3RUL1OC4CAINK","356TQKY9XFJ5S7O4NGX4839SMNB87N","","null","<img src=""img/food4.png"" style=""width:200px; border:14px solid green;"">","null","","","","","","","","","",""
"","image-keyboard-response","80","54272","0.0-80.0","3YMTUJH0DT2TTOW3FIFUL6HTH9M4TF","A3RUL1OC4CAINK","356TQKY9XFJ5S7O4NGX4839SMNB87N","","684.5","img/food2.png","74","685.6000000238419","1","1","2","1","1,0.5,0,1,0.5,0,0.5,0,1","1,0.5,0,1,0.5,0,0.5,0,1","1","",""
"","html-keyboard-response","81","54574","0.0-81.0","3YMTUJH0DT2TTOW3FIFUL6HTH9M4TF","A3RUL1OC4CAINK","356TQKY9XFJ5S7O4NGX4839SMNB87N","","null","<img src=""img/food2.png"" style=""width:200px; border:14px solid green;"">","null","","","","","","","","","",""
"","image-keyboard-response","82","54984","0.0-82.0","3YMTUJH0DT2TTOW3FIFUL6HTH9M4TF","A3RUL1OC4CAINK","356TQKY9XFJ5S7O4NGX4839SMNB87N","","409","img/food2.png","74","409.9000000357628","1","1","2","1","1,0.5,0,1,0.5,0,0.5,0,1","1,0.5,0,1,0.5,0,0.5,0,1","1","",""
"","html-keyboard-response","83","55286","0.0-83.0","3YMTUJH0DT2TTOW3FIFUL6HTH9M4TF","A3RUL1OC4CAINK","356TQKY9XFJ5S7O4NGX4839SMNB87N","","null","<img src=""img/food2.png"" style=""width:200px; border:14px solid green;"">","null","","","","","","","","","",""
"","image-keyboard-response","84","56149","0.0-84.0","3YMTUJH0DT2TTOW3FIFUL6HTH9M4TF","A3RUL1OC4CAINK","356TQKY9XFJ5S7O4NGX4839SMNB87N","","861.4000000357628","img/food4.png","75","862.6000000238419","2","0","1","1","1,0.5,0,1,0.5,0,0.5,0,1","1,0.5,0,1,0.5,0,0.5,0,1","1","",""
"","html-keyboard-response","85","56451","0.0-85.0","3YMTUJH0DT2TTOW3FIFUL6HTH9M4TF","A3RUL1OC4CAINK","356TQKY9XFJ5S7O4NGX4839SMNB87N","","null","<img src=""img/food4.png"" style=""width:200px;border:14px solid red;"">","null","","","","","","","","","",""
"","image-keyboard-response","86","56730","0.0-86.0","3YMTUJH0DT2TTOW3FIFUL6HTH9M4TF","A3RUL1OC4CAINK","356TQKY9XFJ5S7O4NGX4839SMNB87N","","277.19999998807907","img/food4.png","75","278.7000000476837","2","0","1","1","1,0.5,0,1,0.5,0,0.5,0,1","1,0.5,0,1,0.5,0,0.5,0,1","1","",""
"","html-keyboard-response","87","57033","0.0-87.0","3YMTUJH0DT2TTOW3FIFUL6HTH9M4TF","A3RUL1OC4CAINK","356TQKY9XFJ5S7O4NGX4839SMNB87N","","null","<img src=""img/food4.png"" style=""width:200px;border:14px solid red;"">","null","","","","","","","","","",""
"","image-keyboard-response","88","57576","0.0-88.0","3YMTUJH0DT2TTOW3FIFUL6HTH9M4TF","A3RUL1OC4CAINK","356TQKY9XFJ5S7O4NGX4839SMNB87N","","535.2999999523163","img/food5.png","76","536.6999999880791","3","1","3","1","1,0.5,0,1,0.5,0,0.5,0,1","1,0.5,0,1,0.5,0,0.5,0,1","1","",""
"","html-keyboard-response","89","57878","0.0-89.0","3YMTUJH0DT2TTOW3FIFUL6HTH9M4TF","A3RUL1OC4CAINK","356TQKY9XFJ5S7O4NGX4839SMNB87N","","null","<img src=""img/food5.png"" style=""width:200px; border:14px solid green;"">","null","","","","","","","","","",""
"","image-keyboard-response","90","58321","0.0-90.0","3YMTUJH0DT2TTOW3FIFUL6HTH9M4TF","A3RUL1OC4CAINK","356TQKY9XFJ5S7O4NGX4839SMNB87N","","440.9000000357628","img/food5.png","76","442.39999997615814","3","1","3","1","1,0.5,0,1,0.5,0,0.5,0,1","1,0.5,0,1,0.5,0,0.5,0,1","1","",""
"","html-keyboard-response","91","58623","0.0-91.0","3YMTUJH0DT2TTOW3FIFUL6HTH9M4TF","A3RUL1OC4CAINK","356TQKY9XFJ5S7O4NGX4839SMNB87N","","null","<img src=""img/food5.png"" style=""width:200px; border:14px solid green;"">","null","","","","","","","","","",""
"","image-keyboard-response","92","59181","0.0-92.0","3YMTUJH0DT2TTOW3FIFUL6HTH9M4TF","A3RUL1OC4CAINK","356TQKY9XFJ5S7O4NGX4839SMNB87N","","556.6999999880791","img/food4.png","74","557.2999999523163","1","1","1","1","1,0.5,0,1,0.5,0,0.5,0,1","1,0.5,0,1,0.5,0,0.5,0,1","1","",""
"","html-keyboard-response","93","59483","0.0-93.0","3YMTUJH0DT2TTOW3FIFUL6HTH9M4TF","A3RUL1OC4CAINK","356TQKY9XFJ5S7O4NGX4839SMNB87N","","null","<img src=""img/food4.png"" style=""width:200px; border:14px solid green;"">","null","","","","","","","","","",""
"","image-keyboard-response","94","59806","0.0-94.0","3YMTUJH0DT2TTOW3FIFUL6HTH9M4TF","A3RUL1OC4CAINK","356TQKY9XFJ5S7O4NGX4839SMNB87N","","322.19999998807907","img/food4.png","74","322.80000001192093","1","1","1","1","1,0.5,0,1,0.5,0,0.5,0,1","1,0.5,0,1,0.5,0,0.5,0,1","1","",""
"","html-keyboard-response","95","60109","0.0-95.0","3YMTUJH0DT2TTOW3FIFUL6HTH9M4TF","A3RUL1OC4CAINK","356TQKY9XFJ5S7O4NGX4839SMNB87N","","null","<img src=""img/food4.png"" style=""width:200px; border:14px solid green;"">","null","","","","","","","","","",""
"","image-keyboard-response","96","60854","0.0-96.0","3YMTUJH0DT2TTOW3FIFUL6HTH9M4TF","A3RUL1OC4CAINK","356TQKY9XFJ5S7O4NGX4839SMNB87N","","743.1999999880791","img/food2.png","74","744.1999999880791","1","1","2","1","1,0.5,0,1,0.5,0,0.5,0,1","1,0.5,0,1,0.5,0,0.5,0,1","1","",""
"","html-keyboard-response","97","61156","0.0-97.0","3YMTUJH0DT2TTOW3FIFUL6HTH9M4TF","A3RUL1OC4CAINK","356TQKY9XFJ5S7O4NGX4839SMNB87N","","null","<img src=""img/food2.png"" style=""width:200px; border:14px solid green;"">","null","","","","","","","","","",""
"","image-keyboard-response","98","61749","0.0-98.0","3YMTUJH0DT2TTOW3FIFUL6HTH9M4TF","A3RUL1OC4CAINK","356TQKY9XFJ5S7O4NGX4839SMNB87N","","591.3000000119209","img/food4.png","74","592.4000000357628","1","1","1","1","1,0.5,0,1,0.5,0,0.5,0,1","1,0.5,0,1,0.5,0,0.5,0,1","1","",""
"","html-keyboard-response","99","62051","0.0-99.0","3YMTUJH0DT2TTOW3FIFUL6HTH9M4TF","A3RUL1OC4CAINK","356TQKY9XFJ5S7O4NGX4839SMNB87N","","null","<img src=""img/food4.png"" style=""width:200px; border:14px solid green;"">","null","","","","","","","","","",""
"","image-keyboard-response","100","62547","0.0-100.0","3YMTUJH0DT2TTOW3FIFUL6HTH9M4TF","A3RUL1OC4CAINK","356TQKY9XFJ5S7O4NGX4839SMNB87N","","494.7999999523163","img/food2.png","74","495.9000000357628","1","1","2","1","1,0.5,0,1,0.5,0,0.5,0,1","1,0.5,0,1,0.5,0,0.5,0,1","1","",""
"","html-keyboard-response","101","62849","0.0-101.0","3YMTUJH0DT2TTOW3FIFUL6HTH9M4TF","A3RUL1OC4CAINK","356TQKY9XFJ5S7O4NGX4839SMNB87N","","null","<img src=""img/food2.png"" style=""width:200px; border:14px solid green;"">","null","","","","","","","","","",""
"","image-keyboard-response","102","63200","0.0-102.0","3YMTUJH0DT2TTOW3FIFUL6HTH9M4TF","A3RUL1OC4CAINK","356TQKY9XFJ5S7O4NGX4839SMNB87N","","350","img/food2.png","74","351.39999997615814","1","1","2","1","1,0.5,0,1,0.5,0,0.5,0,1","1,0.5,0,1,0.5,0,0.5,0,1","1","",""
"","html-keyboard-response","103","63504","0.0-103.0","3YMTUJH0DT2TTOW3FIFUL6HTH9M4TF","A3RUL1OC4CAINK","356TQKY9XFJ5S7O4NGX4839SMNB87N","","null","<img src=""img/food2.png"" style=""width:200px; border:14px solid green;"">","null","","","","","","","","","",""
"","image-keyboard-response","104","63854","0.0-104.0","3YMTUJH0DT2TTOW3FIFUL6HTH9M4TF","A3RUL1OC4CAINK","356TQKY9XFJ5S7O4NGX4839SMNB87N","","348.5","img/food2.png","74","349.5","1","1","2","1","1,0.5,0,1,0.5,0,0.5,0,1","1,0.5,0,1,0.5,0,0.5,0,1","1","",""
"","html-keyboard-response","105","64156","0.0-105.0","3YMTUJH0DT2TTOW3FIFUL6HTH9M4TF","A3RUL1OC4CAINK","356TQKY9XFJ5S7O4NGX4839SMNB87N","","null","<img src=""img/food2.png"" style=""width:200px; border:14px solid green;"">","null","","","","","","","","","",""
"","image-keyboard-response","106","64767","0.0-106.0","3YMTUJH0DT2TTOW3FIFUL6HTH9M4TF","A3RUL1OC4CAINK","356TQKY9XFJ5S7O4NGX4839SMNB87N","","609.1000000238419","img/food5.png","76","610.4000000357628","3","1","3","1","1,0.5,0,1,0.5,0,0.5,0,1","1,0.5,0,1,0.5,0,0.5,0,1","1","",""
"","html-keyboard-response","107","65070","0.0-107.0","3YMTUJH0DT2TTOW3FIFUL6HTH9M4TF","A3RUL1OC4CAINK","356TQKY9XFJ5S7O4NGX4839SMNB87N","","null","<img src=""img/food5.png"" style=""width:200px; border:14px solid green;"">","null","","","","","","","","","",""
"","image-keyboard-response","108","65554","0.0-108.0","3YMTUJH0DT2TTOW3FIFUL6HTH9M4TF","A3RUL1OC4CAINK","356TQKY9XFJ5S7O4NGX4839SMNB87N","","482.89999997615814","img/food2.png","74","484.2000000476837","1","1","2","1","1,0.5,0,1,0.5,0,0.5,0,1","1,0.5,0,1,0.5,0,0.5,0,1","1","",""
"","html-keyboard-response","109","65857","0.0-109.0","3YMTUJH0DT2TTOW3FIFUL6HTH9M4TF","A3RUL1OC4CAINK","356TQKY9XFJ5S7O4NGX4839SMNB87N","","null","<img src=""img/food2.png"" style=""width:200px; border:14px solid green;"">","null","","","","","","","","","",""
"","image-keyboard-response","110","66212","0.0-110.0","3YMTUJH0DT2TTOW3FIFUL6HTH9M4TF","A3RUL1OC4CAINK","356TQKY9XFJ5S7O4NGX4839SMNB87N","","354.19999998807907","img/food2.png","74","355","1","1","2","1","1,0.5,0,1,0.5,0,0.5,0,1","1,0.5,0,1,0.5,0,0.5,0,1","1","",""
"","html-keyboard-response","111","66515","0.0-111.0","3YMTUJH0DT2TTOW3FIFUL6HTH9M4TF","A3RUL1OC4CAINK","356TQKY9XFJ5S7O4NGX4839SMNB87N","","null","<img src=""img/food2.png"" style=""width:200px; border:14px solid green;"">","null","","","","","","","","","",""
"","image-keyboard-response","112","67070","0.0-112.0","3YMTUJH0DT2TTOW3FIFUL6HTH9M4TF","A3RUL1OC4CAINK","356TQKY9XFJ5S7O4NGX4839SMNB87N","","553.3000000119209","img/food5.png","74","554.9000000357628","1","0","3","1","1,0.5,0,1,0.5,0,0.5,0,1","1,0.5,0,1,0.5,0,0.5,0,1","1","",""
"","html-keyboard-response","113","67373","0.0-113.0","3YMTUJH0DT2TTOW3FIFUL6HTH9M4TF","A3RUL1OC4CAINK","356TQKY9XFJ5S7O4NGX4839SMNB87N","","null","<img src=""img/food5.png"" style=""width:200px;border:14px solid red;"">","null","","","","","","","","","",""
"","image-keyboard-response","114","67451","0.0-114.0","3YMTUJH0DT2TTOW3FIFUL6HTH9M4TF","A3RUL1OC4CAINK","356TQKY9XFJ5S7O4NGX4839SMNB87N","","76.29999995231628","img/food5.png","76","77.40000003576279","3","1","3","1","1,0.5,0,1,0.5,0,0.5,0,1","1,0.5,0,1,0.5,0,0.5,0,1","1","",""
"","html-keyboard-response","115","67752","0.0-115.0","3YMTUJH0DT2TTOW3FIFUL6HTH9M4TF","A3RUL1OC4CAINK","356TQKY9XFJ5S7O4NGX4839SMNB87N","","null","<img src=""img/food5.png"" style=""width:200px; border:14px solid green;"">","null","","","","","","","","","",""
"","image-keyboard-response","116","68100","0.0-116.0","3YMTUJH0DT2TTOW3FIFUL6HTH9M4TF","A3RUL1OC4CAINK","356TQKY9XFJ5S7O4NGX4839SMNB87N","","346.69999998807907","img/food5.png","76","347.69999998807907","3","1","3","1","1,0.5,0,1,0.5,0,0.5,0,1","1,0.5,0,1,0.5,0,0.5,0,1","1","",""
"","html-keyboard-response","117","68403","0.0-117.0","3YMTUJH0DT2TTOW3FIFUL6HTH9M4TF","A3RUL1OC4CAINK","356TQKY9XFJ5S7O4NGX4839SMNB87N","","null","<img src=""img/food5.png"" style=""width:200px; border:14px solid green;"">","null","","","","","","","","","",""
"","image-keyboard-response","118","69104","0.0-118.0","3YMTUJH0DT2TTOW3FIFUL6HTH9M4TF","A3RUL1OC4CAINK","356TQKY9XFJ5S7O4NGX4839SMNB87N","","698.8999999761581","img/food4.png","75","700.2999999523163","2","1","1","1","1,0.5,0,1,0.5,0,0.5,0,1","1,0.5,0,1,0.5,0,0.5,0,1","1","",""
"","html-keyboard-response","119","69407","0.0-119.0","3YMTUJH0DT2TTOW3FIFUL6HTH9M4TF","A3RUL1OC4CAINK","356TQKY9XFJ5S7O4NGX4839SMNB87N","","null","<img src=""img/food4.png"" style=""width:200px; border:14px solid green;"">","null","","","","","","","","","",""
"","image-keyboard-response","120","70410","0.0-120.0","3YMTUJH0DT2TTOW3FIFUL6HTH9M4TF","A3RUL1OC4CAINK","356TQKY9XFJ5S7O4NGX4839SMNB87N","","1002.6000000238419","img/food2.png","74","1003.3000000119209","1","1","2","1","1,0.5,0,1,0.5,0,0.5,0,1","1,0.5,0,1,0.5,0,0.5,0,1","1","",""
"","html-keyboard-response","121","70717","0.0-121.0","3YMTUJH0DT2TTOW3FIFUL6HTH9M4TF","A3RUL1OC4CAINK","356TQKY9XFJ5S7O4NGX4839SMNB87N","","null","<img src=""img/food2.png"" style=""width:200px; border:14px solid green;"">","null","","","","","","","","","",""
"","image-keyboard-response","122","71270","0.0-122.0","3YMTUJH0DT2TTOW3FIFUL6HTH9M4TF","A3RUL1OC4CAINK","356TQKY9XFJ5S7O4NGX4839SMNB87N","","551.7000000476837","img/food4.png","74","553","1","1","1","1","1,0.5,0,1,0.5,0,0.5,0,1","1,0.5,0,1,0.5,0,0.5,0,1","1","",""
"","html-keyboard-response","123","71573","0.0-123.0","3YMTUJH0DT2TTOW3FIFUL6HTH9M4TF","A3RUL1OC4CAINK","356TQKY9XFJ5S7O4NGX4839SMNB87N","","null","<img src=""img/food4.png"" style=""width:200px; border:14px solid green;"">","null","","","","","","","","","",""
"","image-keyboard-response","124","72297","0.0-124.0","3YMTUJH0DT2TTOW3FIFUL6HTH9M4TF","A3RUL1OC4CAINK","356TQKY9XFJ5S7O4NGX4839SMNB87N","","722.8999999761581","img/food5.png","76","723.7999999523163","3","1","3","1","1,0.5,0,1,0.5,0,0.5,0,1","1,0.5,0,1,0.5,0,0.5,0,1","1","",""
"","html-keyboard-response","125","72599","0.0-125.0","3YMTUJH0DT2TTOW3FIFUL6HTH9M4TF","A3RUL1OC4CAINK","356TQKY9XFJ5S7O4NGX4839SMNB87N","","null","<img src=""img/food5.png"" style=""width:200px; border:14px solid green;"">","null","","","","","","","","","",""
"","image-keyboard-response","126","72955","0.0-126.0","3YMTUJH0DT2TTOW3FIFUL6HTH9M4TF","A3RUL1OC4CAINK","356TQKY9XFJ5S7O4NGX4839SMNB87N","","354.19999998807907","img/food5.png","76","355.30000001192093","3","1","3","1","1,0.5,0,1,0.5,0,0.5,0,1","1,0.5,0,1,0.5,0,0.5,0,1","1","",""
"","html-keyboard-response","127","73257","0.0-127.0","3YMTUJH0DT2TTOW3FIFUL6HTH9M4TF","A3RUL1OC4CAINK","356TQKY9XFJ5S7O4NGX4839SMNB87N","","null","<img src=""img/food5.png"" style=""width:200px; border:14px solid green;"">","null","","","","","","","","","",""
"","image-keyboard-response","128","73790","0.0-128.0","3YMTUJH0DT2TTOW3FIFUL6HTH9M4TF","A3RUL1OC4CAINK","356TQKY9XFJ5S7O4NGX4839SMNB87N","","531","img/food2.png","74","532.1000000238419","1","1","2","1","1,0.5,0,1,0.5,0,0.5,0,1","1,0.5,0,1,0.5,0,0.5,0,1","1","",""
"","html-keyboard-response","129","74090","0.0-129.0","3YMTUJH0DT2TTOW3FIFUL6HTH9M4TF","A3RUL1OC4CAINK","356TQKY9XFJ5S7O4NGX4839SMNB87N","","null","<img src=""img/food2.png"" style=""width:200px; border:14px solid green;"">","null","","","","","","","","","",""
"","image-keyboard-response","130","74564","0.0-130.0","3YMTUJH0DT2TTOW3FIFUL6HTH9M4TF","A3RUL1OC4CAINK","356TQKY9XFJ5S7O4NGX4839SMNB87N","","472.89999997615814","img/food5.png","74","473.60000002384186","1","0","3","1","1,0.5,0,1,0.5,0,0.5,0,1","1,0.5,0,1,0.5,0,0.5,0,1","1","",""
"","html-keyboard-response","131","74867","0.0-131.0","3YMTUJH0DT2TTOW3FIFUL6HTH9M4TF","A3RUL1OC4CAINK","356TQKY9XFJ5S7O4NGX4839SMNB87N","","null","<img src=""img/food5.png"" style=""width:200px;border:14px solid red;"">","null","","","","","","","","","",""
"","image-keyboard-response","132","76702","0.0-132.0","3YMTUJH0DT2TTOW3FIFUL6HTH9M4TF","A3RUL1OC4CAINK","356TQKY9XFJ5S7O4NGX4839SMNB87N","","1834.300000011921","img/food4.png","74","1835.3999999761581","1","1","1","1","1,0.5,0,1,0.5,0,0.5,0,1","1,0.5,0,1,0.5,0,0.5,0,1","1","",""
"","html-keyboard-response","133","77004","0.0-133.0","3YMTUJH0DT2TTOW3FIFUL6HTH9M4TF","A3RUL1OC4CAINK","356TQKY9XFJ5S7O4NGX4839SMNB87N","","null","<img src=""img/food4.png"" style=""width:200px; border:14px solid green;"">","null","","","","","","","","","",""
"","image-keyboard-response","134","77394","0.0-134.0","3YMTUJH0DT2TTOW3FIFUL6HTH9M4TF","A3RUL1OC4CAINK","356TQKY9XFJ5S7O4NGX4839SMNB87N","","387.80000001192093","img/food4.png","74","389.2000000476837","1","1","1","1","1,0.5,0,1,0.5,0,0.5,0,1","1,0.5,0,1,0.5,0,0.5,0,1","1","",""
"","html-keyboard-response","135","77697","0.0-135.0","3YMTUJH0DT2TTOW3FIFUL6HTH9M4TF","A3RUL1OC4CAINK","356TQKY9XFJ5S7O4NGX4839SMNB87N","","null","<img src=""img/food4.png"" style=""width:200px; border:14px solid green;"">","null","","","","","","","","","",""
"","image-keyboard-response","136","78156","0.0-136.0","3YMTUJH0DT2TTOW3FIFUL6HTH9M4TF","A3RUL1OC4CAINK","356TQKY9XFJ5S7O4NGX4839SMNB87N","","458.69999998807907","img/food5.png","76","459.5","3","1","3","1","1,0.5,0,1,0.5,0,0.5,0,1","1,0.5,0,1,0.5,0,0.5,0,1","1","",""
"","html-keyboard-response","137","78459","0.0-137.0","3YMTUJH0DT2TTOW3FIFUL6HTH9M4TF","A3RUL1OC4CAINK","356TQKY9XFJ5S7O4NGX4839SMNB87N","","null","<img src=""img/food5.png"" style=""width:200px; border:14px solid green;"">","null","","","","","","","","","",""
"","image-keyboard-response","138","78975","0.0-138.0","3YMTUJH0DT2TTOW3FIFUL6HTH9M4TF","A3RUL1OC4CAINK","356TQKY9XFJ5S7O4NGX4839SMNB87N","","514.8000000119209","img/food4.png","74","516.1999999880791","1","1","1","1","1,0.5,0,1,0.5,0,0.5,0,1","1,0.5,0,1,0.5,0,0.5,0,1","1","",""
"","html-keyboard-response","139","79279","0.0-139.0","3YMTUJH0DT2TTOW3FIFUL6HTH9M4TF","A3RUL1OC4CAINK","356TQKY9XFJ5S7O4NGX4839SMNB87N","","null","<img src=""img/food4.png"" style=""width:200px; border:14px solid green;"">","null","","","","","","","","","",""
"","image-keyboard-response","140","79922","0.0-140.0","3YMTUJH0DT2TTOW3FIFUL6HTH9M4TF","A3RUL1OC4CAINK","356TQKY9XFJ5S7O4NGX4839SMNB87N","","642","img/food2.png","74","643.3999999761581","1","1","2","1","1,0.5,0,1,0.5,0,0.5,0,1","1,0.5,0,1,0.5,0,0.5,0,1","1","",""
"","html-keyboard-response","141","80226","0.0-141.0","3YMTUJH0DT2TTOW3FIFUL6HTH9M4TF","A3RUL1OC4CAINK","356TQKY9XFJ5S7O4NGX4839SMNB87N","","null","<img src=""img/food2.png"" style=""width:200px; border:14px solid green;"">","null","","","","","","","","","",""
"","image-keyboard-response","142","80624","0.0-142.0","3YMTUJH0DT2TTOW3FIFUL6HTH9M4TF","A3RUL1OC4CAINK","356TQKY9XFJ5S7O4NGX4839SMNB87N","","397.10000002384186","img/food2.png","74","398.5","1","1","2","1","1,0.5,0,1,0.5,0,0.5,0,1","1,0.5,0,1,0.5,0,0.5,0,1","1","",""
"","html-keyboard-response","143","80927","0.0-143.0","3YMTUJH0DT2TTOW3FIFUL6HTH9M4TF","A3RUL1OC4CAINK","356TQKY9XFJ5S7O4NGX4839SMNB87N","","null","<img src=""img/food2.png"" style=""width:200px; border:14px solid green;"">","null","","","","","","","","","",""
"","image-keyboard-response","144","81344","0.0-144.0","3YMTUJH0DT2TTOW3FIFUL6HTH9M4TF","A3RUL1OC4CAINK","356TQKY9XFJ5S7O4NGX4839SMNB87N","","414.69999998807907","img/food2.png","74","415.89999997615814","1","1","2","1","1,0.5,0,1,0.5,0,0.5,0,1","1,0.5,0,1,0.5,0,0.5,0,1","1","",""
"","html-keyboard-response","145","81646","0.0-145.0","3YMTUJH0DT2TTOW3FIFUL6HTH9M4TF","A3RUL1OC4CAINK","356TQKY9XFJ5S7O4NGX4839SMNB87N","","null","<img src=""img/food2.png"" style=""width:200px; border:14px solid green;"">","null","","","","","","","","","",""
"","image-keyboard-response","146","82104","0.0-146.0","3YMTUJH0DT2TTOW3FIFUL6HTH9M4TF","A3RUL1OC4CAINK","356TQKY9XFJ5S7O4NGX4839SMNB87N","","456.30000001192093","img/food4.png","76","457.0999999642372","3","0","1","1","1,0.5,0,1,0.5,0,0.5,0,1","1,0.5,0,1,0.5,0,0.5,0,1","1","",""
"","html-keyboard-response","147","82406","0.0-147.0","3YMTUJH0DT2TTOW3FIFUL6HTH9M4TF","A3RUL1OC4CAINK","356TQKY9XFJ5S7O4NGX4839SMNB87N","","null","<img src=""img/food4.png"" style=""width:200px;border:14px solid red;"">","null","","","","","","","","","",""
"","image-keyboard-response","148","82983","0.0-148.0","3YMTUJH0DT2TTOW3FIFUL6HTH9M4TF","A3RUL1OC4CAINK","356TQKY9XFJ5S7O4NGX4839SMNB87N","","576.8000000119209","img/food4.png","75","577.1999999880791","2","1","1","1","1,0.5,0,1,0.5,0,0.5,0,1","1,0.5,0,1,0.5,0,0.5,0,1","1","",""
"","html-keyboard-response","149","83285","0.0-149.0","3YMTUJH0DT2TTOW3FIFUL6HTH9M4TF","A3RUL1OC4CAINK","356TQKY9XFJ5S7O4NGX4839SMNB87N","","null","<img src=""img/food4.png"" style=""width:200px; border:14px solid green;"">","null","","","","","","","","","",""
"","image-keyboard-response","150","83679","0.0-150.0","3YMTUJH0DT2TTOW3FIFUL6HTH9M4TF","A3RUL1OC4CAINK","356TQKY9XFJ5S7O4NGX4839SMNB87N","","393.0999999642372","img/food4.png","75","394.4000000357628","2","1","1","1","1,0.5,0,1,0.5,0,0.5,0,1","1,0.5,0,1,0.5,0,0.5,0,1","1","",""
"","html-keyboard-response","151","83982","0.0-151.0","3YMTUJH0DT2TTOW3FIFUL6HTH9M4TF","A3RUL1OC4CAINK","356TQKY9XFJ5S7O4NGX4839SMNB87N","","null","<img src=""img/food4.png"" style=""width:200px; border:14px solid green;"">","null","","","","","","","","","",""
"","image-keyboard-response","152","84374","0.0-152.0","3YMTUJH0DT2TTOW3FIFUL6HTH9M4TF","A3RUL1OC4CAINK","356TQKY9XFJ5S7O4NGX4839SMNB87N","","389.89999997615814","img/food4.png","75","391.19999998807907","2","1","1","1","1,0.5,0,1,0.5,0,0.5,0,1","1,0.5,0,1,0.5,0,0.5,0,1","1","",""
"","html-keyboard-response","153","84676","0.0-153.0","3YMTUJH0DT2TTOW3FIFUL6HTH9M4TF","A3RUL1OC4CAINK","356TQKY9XFJ5S7O4NGX4839SMNB87N","","null","<img src=""img/food4.png"" style=""width:200px; border:14px solid green;"">","null","","","","","","","","","",""
"","image-keyboard-response","154","85110","0.0-154.0","3YMTUJH0DT2TTOW3FIFUL6HTH9M4TF","A3RUL1OC4CAINK","356TQKY9XFJ5S7O4NGX4839SMNB87N","","431.9000000357628","img/food4.png","75","433.4000000357628","2","1","1","1","1,0.5,0,1,0.5,0,0.5,0,1","1,0.5,0,1,0.5,0,0.5,0,1","1","",""
"","html-keyboard-response","155","85411","0.0-155.0","3YMTUJH0DT2TTOW3FIFUL6HTH9M4TF","A3RUL1OC4CAINK","356TQKY9XFJ5S7O4NGX4839SMNB87N","","null","<img src=""img/food4.png"" style=""width:200px; border:14px solid green;"">","null","","","","","","","","","",""
"","image-keyboard-response","156","85971","0.0-156.0","3YMTUJH0DT2TTOW3FIFUL6HTH9M4TF","A3RUL1OC4CAINK","356TQKY9XFJ5S7O4NGX4839SMNB87N","","558.6999999880791","img/food2.png","74","559.5","1","1","2","1","1,0.5,0,1,0.5,0,0.5,0,1","1,0.5,0,1,0.5,0,0.5,0,1","1","",""
"","html-keyboard-response","157","86274","0.0-157.0","3YMTUJH0DT2TTOW3FIFUL6HTH9M4TF","A3RUL1OC4CAINK","356TQKY9XFJ5S7O4NGX4839SMNB87N","","null","<img src=""img/food2.png"" style=""width:200px; border:14px solid green;"">","null","","","","","","","","","",""
"","image-keyboard-response","158","86771","0.0-158.0","3YMTUJH0DT2TTOW3FIFUL6HTH9M4TF","A3RUL1OC4CAINK","356TQKY9XFJ5S7O4NGX4839SMNB87N","","495.10000002384186","img/food4.png","75","496.39999997615814","2","1","1","1","1,0.5,0,1,0.5,0,0.5,0,1","1,0.5,0,1,0.5,0,0.5,0,1","1","",""
"","html-keyboard-response","159","87073","0.0-159.0","3YMTUJH0DT2TTOW3FIFUL6HTH9M4TF","A3RUL1OC4CAINK","356TQKY9XFJ5S7O4NGX4839SMNB87N","","null","<img src=""img/food4.png"" style=""width:200px; border:14px solid green;"">","null","","","","","","","","","",""
"","image-keyboard-response","160","87695","0.0-160.0","3YMTUJH0DT2TTOW3FIFUL6HTH9M4TF","A3RUL1OC4CAINK","356TQKY9XFJ5S7O4NGX4839SMNB87N","","620.8000000119209","img/food5.png","76","622","3","1","3","1","1,0.5,0,1,0.5,0,0.5,0,1","1,0.5,0,1,0.5,0,0.5,0,1","1","",""
"","html-keyboard-response","161","87997","0.0-161.0","3YMTUJH0DT2TTOW3FIFUL6HTH9M4TF","A3RUL1OC4CAINK","356TQKY9XFJ5S7O4NGX4839SMNB87N","","null","<img src=""img/food5.png"" style=""width:200px; border:14px solid green;"">","null","","","","","","","","","",""
"","image-keyboard-response","162","88604","0.0-162.0","3YMTUJH0DT2TTOW3FIFUL6HTH9M4TF","A3RUL1OC4CAINK","356TQKY9XFJ5S7O4NGX4839SMNB87N","","605","img/food2.png","74","606.6000000238419","1","1","2","1","1,0.5,0,1,0.5,0,0.5,0,1","1,0.5,0,1,0.5,0,0.5,0,1","1","",""
"","html-keyboard-response","163","88906","0.0-163.0","3YMTUJH0DT2TTOW3FIFUL6HTH9M4TF","A3RUL1OC4CAINK","356TQKY9XFJ5S7O4NGX4839SMNB87N","","null","<img src=""img/food2.png"" style=""width:200px; border:14px solid green;"">","null","","","","","","","","","",""
"","image-keyboard-response","164","89532","0.0-164.0","3YMTUJH0DT2TTOW3FIFUL6HTH9M4TF","A3RUL1OC4CAINK","356TQKY9XFJ5S7O4NGX4839SMNB87N","","624.6999999880791","img/food4.png","75","625.4000000357628","2","0","1","1","1,0.5,0,1,0.5,0,0.5,0,1","1,0.5,0,1,0.5,0,0.5,0,1","1","",""
"","html-keyboard-response","165","89835","0.0-165.0","3YMTUJH0DT2TTOW3FIFUL6HTH9M4TF","A3RUL1OC4CAINK","356TQKY9XFJ5S7O4NGX4839SMNB87N","","null","<img src=""img/food4.png"" style=""width:200px;border:14px solid red;"">","null","","","","","","","","","",""
"","image-keyboard-response","166","90176","0.0-166.0","3YMTUJH0DT2TTOW3FIFUL6HTH9M4TF","A3RUL1OC4CAINK","356TQKY9XFJ5S7O4NGX4839SMNB87N","","339.5","img/food4.png","75","341.0999999642372","2","0","1","1","1,0.5,0,1,0.5,0,0.5,0,1","1,0.5,0,1,0.5,0,0.5,0,1","1","",""
"","html-keyboard-response","167","90479","0.0-167.0","3YMTUJH0DT2TTOW3FIFUL6HTH9M4TF","A3RUL1OC4CAINK","356TQKY9XFJ5S7O4NGX4839SMNB87N","","null","<img src=""img/food4.png"" style=""width:200px;border:14px solid red;"">","null","","","","","","","","","",""
"","image-keyboard-response","168","91044","0.0-168.0","3YMTUJH0DT2TTOW3FIFUL6HTH9M4TF","A3RUL1OC4CAINK","356TQKY9XFJ5S7O4NGX4839SMNB87N","","563.9000000357628","img/food2.png","74","565.1999999880791","1","1","2","1","1,0.5,0,1,0.5,0,0.5,0,1","1,0.5,0,1,0.5,0,0.5,0,1","1","",""
"","html-keyboard-response","169","91347","0.0-169.0","3YMTUJH0DT2TTOW3FIFUL6HTH9M4TF","A3RUL1OC4CAINK","356TQKY9XFJ5S7O4NGX4839SMNB87N","","null","<img src=""img/food2.png"" style=""width:200px; border:14px solid green;"">","null","","","","","","","","","",""
"","image-keyboard-response","170","91795","0.0-170.0","3YMTUJH0DT2TTOW3FIFUL6HTH9M4TF","A3RUL1OC4CAINK","356TQKY9XFJ5S7O4NGX4839SMNB87N","","446.30000001192093","img/food2.png","74","447.4000000357628","1","1","2","1","1,0.5,0,1,0.5,0,0.5,0,1","1,0.5,0,1,0.5,0,0.5,0,1","1","",""
"","html-keyboard-response","171","92096","0.0-171.0","3YMTUJH0DT2TTOW3FIFUL6HTH9M4TF","A3RUL1OC4CAINK","356TQKY9XFJ5S7O4NGX4839SMNB87N","","null","<img src=""img/food2.png"" style=""width:200px; border:14px solid green;"">","null","","","","","","","","","",""
"","image-keyboard-response","172","92512","0.0-172.0","3YMTUJH0DT2TTOW3FIFUL6HTH9M4TF","A3RUL1OC4CAINK","356TQKY9XFJ5S7O4NGX4839SMNB87N","","413.60000002384186","img/food2.png","74","414.80000001192093","1","1","2","1","1,0.5,0,1,0.5,0,0.5,0,1","1,0.5,0,1,0.5,0,0.5,0,1","1","",""
"","html-keyboard-response","173","92814","0.0-173.0","3YMTUJH0DT2TTOW3FIFUL6HTH9M4TF","A3RUL1OC4CAINK","356TQKY9XFJ5S7O4NGX4839SMNB87N","","null","<img src=""img/food2.png"" style=""width:200px; border:14px solid green;"">","null","","","","","","","","","",""
"","image-keyboard-response","174","93231","0.0-174.0","3YMTUJH0DT2TTOW3FIFUL6HTH9M4TF","A3RUL1OC4CAINK","356TQKY9XFJ5S7O4NGX4839SMNB87N","","415.0999999642372","img/food2.png","74","416.89999997615814","1","1","2","1","1,0.5,0,1,0.5,0,0.5,0,1","1,0.5,0,1,0.5,0,0.5,0,1","1","",""
"","html-keyboard-response","175","93535","0.0-175.0","3YMTUJH0DT2TTOW3FIFUL6HTH9M4TF","A3RUL1OC4CAINK","356TQKY9XFJ5S7O4NGX4839SMNB87N","","null","<img src=""img/food2.png"" style=""width:200px; border:14px solid green;"">","null","","","","","","","","","",""
"","image-keyboard-response","176","94152","0.0-176.0","3YMTUJH0DT2TTOW3FIFUL6HTH9M4TF","A3RUL1OC4CAINK","356TQKY9XFJ5S7O4NGX4839SMNB87N","","615.6000000238419","img/food5.png","76","616.6999999880791","3","1","3","1","1,0.5,0,1,0.5,0,0.5,0,1","1,0.5,0,1,0.5,0,0.5,0,1","1","",""
"","html-keyboard-response","177","94454","0.0-177.0","3YMTUJH0DT2TTOW3FIFUL6HTH9M4TF","A3RUL1OC4CAINK","356TQKY9XFJ5S7O4NGX4839SMNB87N","","null","<img src=""img/food5.png"" style=""width:200px; border:14px solid green;"">","null","","","","","","","","","",""
"","image-keyboard-response","178","94968","0.0-178.0","3YMTUJH0DT2TTOW3FIFUL6HTH9M4TF","A3RUL1OC4CAINK","356TQKY9XFJ5S7O4NGX4839SMNB87N","","512.5999999642372","img/food4.png","74","513.8999999761581","1","1","1","1","1,0.5,0,1,0.5,0,0.5,0,1","1,0.5,0,1,0.5,0,0.5,0,1","1","",""
"","html-keyboard-response","179","95271","0.0-179.0","3YMTUJH0DT2TTOW3FIFUL6HTH9M4TF","A3RUL1OC4CAINK","356TQKY9XFJ5S7O4NGX4839SMNB87N","","null","<img src=""img/food4.png"" style=""width:200px; border:14px solid green;"">","null","","","","","","","","","",""
"","image-keyboard-response","180","95668","0.0-180.0","3YMTUJH0DT2TTOW3FIFUL6HTH9M4TF","A3RUL1OC4CAINK","356TQKY9XFJ5S7O4NGX4839SMNB87N","","395.69999998807907","img/food4.png","74","396.9000000357628","1","1","1","1","1,0.5,0,1,0.5,0,0.5,0,1","1,0.5,0,1,0.5,0,0.5,0,1","1","",""
"","html-keyboard-response","181","95973","0.0-181.0","3YMTUJH0DT2TTOW3FIFUL6HTH9M4TF","A3RUL1OC4CAINK","356TQKY9XFJ5S7O4NGX4839SMNB87N","","null","<img src=""img/food4.png"" style=""width:200px; border:14px solid green;"">","null","","","","","","","","","",""
"","html-keyboard-response","182","100466","0.0-182.0","3YMTUJH0DT2TTOW3FIFUL6HTH9M4TF","A3RUL1OC4CAINK","356TQKY9XFJ5S7O4NGX4839SMNB87N","","","","","","","","","","","","","",""
"","instructions","183","121030","0.0-183.0","3YMTUJH0DT2TTOW3FIFUL6HTH9M4TF","A3RUL1OC4CAINK","356TQKY9XFJ5S7O4NGX4839SMNB87N","[{""page_index"":0,""viewing_time"":14958.699999988079},{""page_index"":1,""viewing_time"":5605.600000023842}]","20564.5","","","","","","","","","","","",""
"","image-keyboard-response","184","122032","0.0-184.0","3YMTUJH0DT2TTOW3FIFUL6HTH9M4TF","A3RUL1OC4CAINK","356TQKY9XFJ5S7O4NGX4839SMNB87N","","1000.4000000357628","img/food1.png","74","1001.6999999880791","1","1","3","2","1,0.5,0,1,0.5,0,0.5,0,1","0,1,0.5,0,1,0.5,1,0.5,0","3","false",""
"","html-keyboard-response","185","122334","0.0-185.0","3YMTUJH0DT2TTOW3FIFUL6HTH9M4TF","A3RUL1OC4CAINK","356TQKY9XFJ5S7O4NGX4839SMNB87N","","null","<img src=""img/food1.png"" style=""width:200px; border:14px solid green;"">","null","","","","","","","","","",""
"","image-keyboard-response","186","123160","0.0-187.0","3YMTUJH0DT2TTOW3FIFUL6HTH9M4TF","A3RUL1OC4CAINK","356TQKY9XFJ5S7O4NGX4839SMNB87N","","823.3999999761581","img/food3.png","74","824.8999999761581","1","0","2","2","1,0.5,0,1,0.5,0,0.5,0,1","0,1,0.5,0,1,0.5,1,0.5,0","3","false",""
"","html-keyboard-response","187","123463","0.0-188.0","3YMTUJH0DT2TTOW3FIFUL6HTH9M4TF","A3RUL1OC4CAINK","356TQKY9XFJ5S7O4NGX4839SMNB87N","","null","<img src=""img/food3.png"" style=""width:200px;border:14px solid red;"">","null","","","","","","","","","",""
"","image-keyboard-response","188","123862","0.0-190.0","3YMTUJH0DT2TTOW3FIFUL6HTH9M4TF","A3RUL1OC4CAINK","356TQKY9XFJ5S7O4NGX4839SMNB87N","","397.69999998807907","img/food3.png","74","398.9000000357628","1","0","2","2","1,0.5,0,1,0.5,0,0.5,0,1","0,1,0.5,0,1,0.5,1,0.5,0","3","false",""
"","html-keyboard-response","189","124166","0.0-191.0","3YMTUJH0DT2TTOW3FIFUL6HTH9M4TF","A3RUL1OC4CAINK","356TQKY9XFJ5S7O4NGX4839SMNB87N","","null","<img src=""img/food3.png"" style=""width:200px;border:14px solid red;"">","null","","","","","","","","","",""
"","image-keyboard-response","190","124547","0.0-193.0","3YMTUJH0DT2TTOW3FIFUL6HTH9M4TF","A3RUL1OC4CAINK","356TQKY9XFJ5S7O4NGX4839SMNB87N","","379.10000002384186","img/food3.png","75","380.60000002384186","2","1","2","2","1,0.5,0,1,0.5,0,0.5,0,1","0,1,0.5,0,1,0.5,1,0.5,0","3","false",""
"","html-keyboard-response","191","124850","0.0-194.0","3YMTUJH0DT2TTOW3FIFUL6HTH9M4TF","A3RUL1OC4CAINK","356TQKY9XFJ5S7O4NGX4839SMNB87N","","null","<img src=""img/food3.png"" style=""width:200px; border:14px solid green;"">","null","","","","","","","","","",""
"","image-keyboard-response","192","125283","0.0-196.0","3YMTUJH0DT2TTOW3FIFUL6HTH9M4TF","A3RUL1OC4CAINK","356TQKY9XFJ5S7O4NGX4839SMNB87N","","430.5","img/food3.png","75","431.80000001192093","2","1","2","2","1,0.5,0,1,0.5,0,0.5,0,1","0,1,0.5,0,1,0.5,1,0.5,0","3","false",""
"","html-keyboard-response","193","125599","0.0-197.0","3YMTUJH0DT2TTOW3FIFUL6HTH9M4TF","A3RUL1OC4CAINK","356TQKY9XFJ5S7O4NGX4839SMNB87N","","null","<img src=""img/food3.png"" style=""width:200px; border:14px solid green;"">","null","","","","","","","","","",""
"","image-keyboard-response","194","125980","0.0-199.0","3YMTUJH0DT2TTOW3FIFUL6HTH9M4TF","A3RUL1OC4CAINK","356TQKY9XFJ5S7O4NGX4839SMNB87N","","379.5999999642372","img/food3.png","75","380.80000001192093","2","1","2","2","1,0.5,0,1,0.5,0,0.5,0,1","0,1,0.5,0,1,0.5,1,0.5,0","3","false",""
"","html-keyboard-response","195","126282","0.0-200.0","3YMTUJH0DT2TTOW3FIFUL6HTH9M4TF","A3RUL1OC4CAINK","356TQKY9XFJ5S7O4NGX4839SMNB87N","","null","<img src=""img/food3.png"" style=""width:200px; border:14px solid green;"">","null","","","","","","","","","",""
"","image-keyboard-response","196","126856","0.0-202.0","3YMTUJH0DT2TTOW3FIFUL6HTH9M4TF","A3RUL1OC4CAINK","356TQKY9XFJ5S7O4NGX4839SMNB87N","","572.6999999880791","img/food6.png","76","574","3","0","1","2","1,0.5,0,1,0.5,0,0.5,0,1","0,1,0.5,0,1,0.5,1,0.5,0","3","false",""
"","html-keyboard-response","197","127172","0.0-203.0","3YMTUJH0DT2TTOW3FIFUL6HTH9M4TF","A3RUL1OC4CAINK","356TQKY9XFJ5S7O4NGX4839SMNB87N","","null","<img src=""img/food6.png"" style=""width:200px;border:14px solid red;"">","null","","","","","","","","","",""
"","image-keyboard-response","198","127770","0.0-205.0","3YMTUJH0DT2TTOW3FIFUL6HTH9M4TF","A3RUL1OC4CAINK","356TQKY9XFJ5S7O4NGX4839SMNB87N","","596.8000000119209","img/food3.png","75","597.3999999761581","2","1","2","2","1,0.5,0,1,0.5,0,0.5,0,1","0,1,0.5,0,1,0.5,1,0.5,0","3","false",""
"","html-keyboard-response","199","128072","0.0-206.0","3YMTUJH0DT2TTOW3FIFUL6HTH9M4TF","A3RUL1OC4CAINK","356TQKY9XFJ5S7O4NGX4839SMNB87N","","null","<img src=""img/food3.png"" style=""width:200px; border:14px solid green;"">","null","","","","","","","","","",""
"","image-keyboard-response","200","128641","0.0-208.0","3YMTUJH0DT2TTOW3FIFUL6HTH9M4TF","A3RUL1OC4CAINK","356TQKY9XFJ5S7O4NGX4839SMNB87N","","568.0999999642372","img/food6.png","76","568.8000000119209","3","1","1","2","1,0.5,0,1,0.5,0,0.5,0,1","0,1,0.5,0,1,0.5,1,0.5,0","3","false",""
"","html-keyboard-response","201","128942","0.0-209.0","3YMTUJH0DT2TTOW3FIFUL6HTH9M4TF","A3RUL1OC4CAINK","356TQKY9XFJ5S7O4NGX4839SMNB87N","","null","<img src=""img/food6.png"" style=""width:200px; border:14px solid green;"">","null","","","","","","","","","",""
"","image-keyboard-response","202","129317","0.0-211.0","3YMTUJH0DT2TTOW3FIFUL6HTH9M4TF","A3RUL1OC4CAINK","356TQKY9XFJ5S7O4NGX4839SMNB87N","","374.30000001192093","img/food6.png","76","374.89999997615814","3","0","1","2","1,0.5,0,1,0.5,0,0.5,0,1","0,1,0.5,0,1,0.5,1,0.5,0","3","false",""
"","html-keyboard-response","203","129620","0.0-212.0","3YMTUJH0DT2TTOW3FIFUL6HTH9M4TF","A3RUL1OC4CAINK","356TQKY9XFJ5S7O4NGX4839SMNB87N","","null","<img src=""img/food6.png"" style=""width:200px;border:14px solid red;"">","null","","","","","","","","","",""
"","image-keyboard-response","204","130022","0.0-214.0","3YMTUJH0DT2TTOW3FIFUL6HTH9M4TF","A3RUL1OC4CAINK","356TQKY9XFJ5S7O4NGX4839SMNB87N","","400.19999998807907","img/food3.png","75","401.39999997615814","2","1","2","2","1,0.5,0,1,0.5,0,0.5,0,1","0,1,0.5,0,1,0.5,1,0.5,0","3","false",""
"","html-keyboard-response","205","130324","0.0-215.0","3YMTUJH0DT2TTOW3FIFUL6HTH9M4TF","A3RUL1OC4CAINK","356TQKY9XFJ5S7O4NGX4839SMNB87N","","null","<img src=""img/food3.png"" style=""width:200px; border:14px solid green;"">","null","","","","","","","","","",""
"","image-keyboard-response","206","130792","0.0-217.0","3YMTUJH0DT2TTOW3FIFUL6HTH9M4TF","A3RUL1OC4CAINK","356TQKY9XFJ5S7O4NGX4839SMNB87N","","465.69999998807907","img/food6.png","76","467","3","1","1","2","1,0.5,0,1,0.5,0,0.5,0,1","0,1,0.5,0,1,0.5,1,0.5,0","3","false",""
"","html-keyboard-response","207","131094","0.0-218.0","3YMTUJH0DT2TTOW3FIFUL6HTH9M4TF","A3RUL1OC4CAINK","356TQKY9XFJ5S7O4NGX4839SMNB87N","","null","<img src=""img/food6.png"" style=""width:200px; border:14px solid green;"">","null","","","","","","","","","",""
"","image-keyboard-response","208","131532","0.0-220.0","3YMTUJH0DT2TTOW3FIFUL6HTH9M4TF","A3RUL1OC4CAINK","356TQKY9XFJ5S7O4NGX4839SMNB87N","","435","img/food1.png","75","436.30000001192093","2","1","3","2","1,0.5,0,1,0.5,0,0.5,0,1","0,1,0.5,0,1,0.5,1,0.5,0","3","false",""
"","html-keyboard-response","209","131833","0.0-221.0","3YMTUJH0DT2TTOW3FIFUL6HTH9M4TF","A3RUL1OC4CAINK","356TQKY9XFJ5S7O4NGX4839SMNB87N","","null","<img src=""img/food1.png"" style=""width:200px; border:14px solid green;"">","null","","","","","","","","","",""
"","image-keyboard-response","210","132775","0.0-223.0","3YMTUJH0DT2TTOW3FIFUL6HTH9M4TF","A3RUL1OC4CAINK","356TQKY9XFJ5S7O4NGX4839SMNB87N","","939.5","img/food6.png","74","940.8000000119209","1","0","1","2","1,0.5,0,1,0.5,0,0.5,0,1","0,1,0.5,0,1,0.5,1,0.5,0","3","false",""
"","html-keyboard-response","211","133078","0.0-224.0","3YMTUJH0DT2TTOW3FIFUL6HTH9M4TF","A3RUL1OC4CAINK","356TQKY9XFJ5S7O4NGX4839SMNB87N","","null","<img src=""img/food6.png"" style=""width:200px;border:14px solid red;"">","null","","","","","","","","","",""
"","image-keyboard-response","212","133182","0.0-226.0","3YMTUJH0DT2TTOW3FIFUL6HTH9M4TF","A3RUL1OC4CAINK","356TQKY9XFJ5S7O4NGX4839SMNB87N","","102.5","img/food1.png","75","103.5","2","0","3","2","1,0.5,0,1,0.5,0,0.5,0,1","0,1,0.5,0,1,0.5,1,0.5,0","3","false",""
"","html-keyboard-response","213","133484","0.0-227.0","3YMTUJH0DT2TTOW3FIFUL6HTH9M4TF","A3RUL1OC4CAINK","356TQKY9XFJ5S7O4NGX4839SMNB87N","","null","<img src=""img/food1.png"" style=""width:200px;border:14px solid red;"">","null","","","","","","","","","",""
"","image-keyboard-response","214","133929","0.0-229.0","3YMTUJH0DT2TTOW3FIFUL6HTH9M4TF","A3RUL1OC4CAINK","356TQKY9XFJ5S7O4NGX4839SMNB87N","","442.39999997615814","img/food6.png","76","443.9000000357628","3","1","1","2","1,0.5,0,1,0.5,0,0.5,0,1","0,1,0.5,0,1,0.5,1,0.5,0","3","false",""
"","html-keyboard-response","215","134232","0.0-230.0","3YMTUJH0DT2TTOW3FIFUL6HTH9M4TF","A3RUL1OC4CAINK","356TQKY9XFJ5S7O4NGX4839SMNB87N","","null","<img src=""img/food6.png"" style=""width:200px; border:14px solid green;"">","null","","","","","","","","","",""
"","image-keyboard-response","216","134677","0.0-232.0","3YMTUJH0DT2TTOW3FIFUL6HTH9M4TF","A3RUL1OC4CAINK","356TQKY9XFJ5S7O4NGX4839SMNB87N","","443.19999998807907","img/food1.png","76","445","3","0","3","2","1,0.5,0,1,0.5,0,0.5,0,1","0,1,0.5,0,1,0.5,1,0.5,0","3","false",""
"","html-keyboard-response","217","134981","0.0-233.0","3YMTUJH0DT2TTOW3FIFUL6HTH9M4TF","A3RUL1OC4CAINK","356TQKY9XFJ5S7O4NGX4839SMNB87N","","null","<img src=""img/food1.png"" style=""width:200px;border:14px solid red;"">","null","","","","","","","","","",""
"","image-keyboard-response","218","135412","0.0-235.0","3YMTUJH0DT2TTOW3FIFUL6HTH9M4TF","A3RUL1OC4CAINK","356TQKY9XFJ5S7O4NGX4839SMNB87N","","429.19999998807907","img/food6.png","76","430.5999999642372","3","0","1","2","1,0.5,0,1,0.5,0,0.5,0,1","0,1,0.5,0,1,0.5,1,0.5,0","3","false",""
"","html-keyboard-response","219","135714","0.0-236.0","3YMTUJH0DT2TTOW3FIFUL6HTH9M4TF","A3RUL1OC4CAINK","356TQKY9XFJ5S7O4NGX4839SMNB87N","","null","<img src=""img/food6.png"" style=""width:200px;border:14px solid red;"">","null","","","","","","","","","",""
"","image-keyboard-response","220","136128","0.0-238.0","3YMTUJH0DT2TTOW3FIFUL6HTH9M4TF","A3RUL1OC4CAINK","356TQKY9XFJ5S7O4NGX4839SMNB87N","","411.80000001192093","img/food3.png","75","413","2","1","2","2","1,0.5,0,1,0.5,0,0.5,0,1","0,1,0.5,0,1,0.5,1,0.5,0","3","false",""
"","html-keyboard-response","221","136430","0.0-239.0","3YMTUJH0DT2TTOW3FIFUL6HTH9M4TF","A3RUL1OC4CAINK","356TQKY9XFJ5S7O4NGX4839SMNB87N","","null","<img src=""img/food3.png"" style=""width:200px; border:14px solid green;"">","null","","","","","","","","","",""
"","image-keyboard-response","222","136904","0.0-241.0","3YMTUJH0DT2TTOW3FIFUL6HTH9M4TF","A3RUL1OC4CAINK","356TQKY9XFJ5S7O4NGX4839SMNB87N","","472.7999999523163","img/food1.png","75","474.19999998807907","2","1","3","2","1,0.5,0,1,0.5,0,0.5,0,1","0,1,0.5,0,1,0.5,1,0.5,0","3","false",""
"","html-keyboard-response","223","137208","0.0-242.0","3YMTUJH0DT2TTOW3FIFUL6HTH9M4TF","A3RUL1OC4CAINK","356TQKY9XFJ5S7O4NGX4839SMNB87N","","null","<img src=""img/food1.png"" style=""width:200px; border:14px solid green;"">","null","","","","","","","","","",""
"","image-keyboard-response","224","137692","0.0-244.0","3YMTUJH0DT2TTOW3FIFUL6HTH9M4TF","A3RUL1OC4CAINK","356TQKY9XFJ5S7O4NGX4839SMNB87N","","482.69999998807907","img/food6.png","75","484.60000002384186","2","1","1","2","1,0.5,0,1,0.5,0,0.5,0,1","0,1,0.5,0,1,0.5,1,0.5,0","3","false",""
"","html-keyboard-response","225","137995","0.0-245.0","3YMTUJH0DT2TTOW3FIFUL6HTH9M4TF","A3RUL1OC4CAINK","356TQKY9XFJ5S7O4NGX4839SMNB87N","","null","<img src=""img/food6.png"" style=""width:200px; border:14px solid green;"">","null","","","","","","","","","",""
"","image-keyboard-response","226","138492","0.0-247.0","3YMTUJH0DT2TTOW3FIFUL6HTH9M4TF","A3RUL1OC4CAINK","356TQKY9XFJ5S7O4NGX4839SMNB87N","","495.30000001192093","img/food1.png","75","496.69999998807907","2","0","3","2","1,0.5,0,1,0.5,0,0.5,0,1","0,1,0.5,0,1,0.5,1,0.5,0","3","false",""
"","html-keyboard-response","227","138795","0.0-248.0","3YMTUJH0DT2TTOW3FIFUL6HTH9M4TF","A3RUL1OC4CAINK","356TQKY9XFJ5S7O4NGX4839SMNB87N","","null","<img src=""img/food1.png"" style=""width:200px;border:14px solid red;"">","null","","","","","","","","","",""
"","image-keyboard-response","228","139316","0.0-250.0","3YMTUJH0DT2TTOW3FIFUL6HTH9M4TF","A3RUL1OC4CAINK","356TQKY9XFJ5S7O4NGX4839SMNB87N","","518.9000000357628","img/food6.png","75","520.5","2","1","1","2","1,0.5,0,1,0.5,0,0.5,0,1","0,1,0.5,0,1,0.5,1,0.5,0","3","false",""
"","html-keyboard-response","229","139618","0.0-251.0","3YMTUJH0DT2TTOW3FIFUL6HTH9M4TF","A3RUL1OC4CAINK","356TQKY9XFJ5S7O4NGX4839SMNB87N","","null","<img src=""img/food6.png"" style=""width:200px; border:14px solid green;"">","null","","","","","","","","","",""
"","image-keyboard-response","230","140007","0.0-253.0","3YMTUJH0DT2TTOW3FIFUL6HTH9M4TF","A3RUL1OC4CAINK","356TQKY9XFJ5S7O4NGX4839SMNB87N","","386.5999999642372","img/food6.png","75","388","2","1","1","2","1,0.5,0,1,0.5,0,0.5,0,1","0,1,0.5,0,1,0.5,1,0.5,0","3","false",""
"","html-keyboard-response","231","140310","0.0-254.0","3YMTUJH0DT2TTOW3FIFUL6HTH9M4TF","A3RUL1OC4CAINK","356TQKY9XFJ5S7O4NGX4839SMNB87N","","null","<img src=""img/food6.png"" style=""width:200px; border:14px solid green;"">","null","","","","","","","","","",""
"","image-keyboard-response","232","140775","0.0-256.0","3YMTUJH0DT2TTOW3FIFUL6HTH9M4TF","A3RUL1OC4CAINK","356TQKY9XFJ5S7O4NGX4839SMNB87N","","463","img/food1.png","74","464.69999998807907","1","1","3","2","1,0.5,0,1,0.5,0,0.5,0,1","0,1,0.5,0,1,0.5,1,0.5,0","3","false",""
"","html-keyboard-response","233","141077","0.0-257.0","3YMTUJH0DT2TTOW3FIFUL6HTH9M4TF","A3RUL1OC4CAINK","356TQKY9XFJ5S7O4NGX4839SMNB87N","","null","<img src=""img/food1.png"" style=""width:200px; border:14px solid green;"">","null","","","","","","","","","",""
"","image-keyboard-response","234","141476","0.0-259.0","3YMTUJH0DT2TTOW3FIFUL6HTH9M4TF","A3RUL1OC4CAINK","356TQKY9XFJ5S7O4NGX4839SMNB87N","","397.19999998807907","img/food1.png","74","398.5999999642372","1","1","3","2","1,0.5,0,1,0.5,0,0.5,0,1","0,1,0.5,0,1,0.5,1,0.5,0","3","false",""
"","html-keyboard-response","235","141779","0.0-260.0","3YMTUJH0DT2TTOW3FIFUL6HTH9M4TF","A3RUL1OC4CAINK","356TQKY9XFJ5S7O4NGX4839SMNB87N","","null","<img src=""img/food1.png"" style=""width:200px; border:14px solid green;"">","null","","","","","","","","","",""
"","image-keyboard-response","236","142211","0.0-262.0","3YMTUJH0DT2TTOW3FIFUL6HTH9M4TF","A3RUL1OC4CAINK","356TQKY9XFJ5S7O4NGX4839SMNB87N","","430.5999999642372","img/food3.png","75","431.60000002384186","2","1","2","2","1,0.5,0,1,0.5,0,0.5,0,1","0,1,0.5,0,1,0.5,1,0.5,0","3","false",""
"","html-keyboard-response","237","142518","0.0-263.0","3YMTUJH0DT2TTOW3FIFUL6HTH9M4TF","A3RUL1OC4CAINK","356TQKY9XFJ5S7O4NGX4839SMNB87N","","null","<img src=""img/food3.png"" style=""width:200px; border:14px solid green;"">","null","","","","","","","","","",""
"","image-keyboard-response","238","142990","0.0-265.0","3YMTUJH0DT2TTOW3FIFUL6HTH9M4TF","A3RUL1OC4CAINK","356TQKY9XFJ5S7O4NGX4839SMNB87N","","471.69999998807907","img/food6.png","74","472.5","1","0","1","2","1,0.5,0,1,0.5,0,0.5,0,1","0,1,0.5,0,1,0.5,1,0.5,0","3","false",""
"","html-keyboard-response","239","143293","0.0-266.0","3YMTUJH0DT2TTOW3FIFUL6HTH9M4TF","A3RUL1OC4CAINK","356TQKY9XFJ5S7O4NGX4839SMNB87N","","null","<img src=""img/food6.png"" style=""width:200px;border:14px solid red;"">","null","","","","","","","","","",""
"","image-keyboard-response","240","143681","0.0-268.0","3YMTUJH0DT2TTOW3FIFUL6HTH9M4TF","A3RUL1OC4CAINK","356TQKY9XFJ5S7O4NGX4839SMNB87N","","385.5","img/food6.png","74","386.89999997615814","1","0","1","2","1,0.5,0,1,0.5,0,0.5,0,1","0,1,0.5,0,1,0.5,1,0.5,0","3","false",""
"","html-keyboard-response","241","143985","0.0-269.0","3YMTUJH0DT2TTOW3FIFUL6HTH9M4TF","A3RUL1OC4CAINK","356TQKY9XFJ5S7O4NGX4839SMNB87N","","null","<img src=""img/food6.png"" style=""width:200px;border:14px solid red;"">","null","","","","","","","","","",""
"","image-keyboard-response","242","144568","0.0-271.0","3YMTUJH0DT2TTOW3FIFUL6HTH9M4TF","A3RUL1OC4CAINK","356TQKY9XFJ5S7O4NGX4839SMNB87N","","581","img/food3.png","75","582.3999999761581","2","1","2","2","1,0.5,0,1,0.5,0,0.5,0,1","0,1,0.5,0,1,0.5,1,0.5,0","3","false",""
"","html-keyboard-response","243","144871","0.0-272.0","3YMTUJH0DT2TTOW3FIFUL6HTH9M4TF","A3RUL1OC4CAINK","356TQKY9XFJ5S7O4NGX4839SMNB87N","","null","<img src=""img/food3.png"" style=""width:200px; border:14px solid green;"">","null","","","","","","","","","",""
"","image-keyboard-response","244","145429","0.0-274.0","3YMTUJH0DT2TTOW3FIFUL6HTH9M4TF","A3RUL1OC4CAINK","356TQKY9XFJ5S7O4NGX4839SMNB87N","","557","img/food6.png","76","558","3","0","1","2","1,0.5,0,1,0.5,0,0.5,0,1","0,1,0.5,0,1,0.5,1,0.5,0","3","false",""
"","html-keyboard-response","245","145730","0.0-275.0","3YMTUJH0DT2TTOW3FIFUL6HTH9M4TF","A3RUL1OC4CAINK","356TQKY9XFJ5S7O4NGX4839SMNB87N","","null","<img src=""img/food6.png"" style=""width:200px;border:14px solid red;"">","null","","","","","","","","","",""
"","image-keyboard-response","246","146088","0.0-277.0","3YMTUJH0DT2TTOW3FIFUL6HTH9M4TF","A3RUL1OC4CAINK","356TQKY9XFJ5S7O4NGX4839SMNB87N","","355.7999999523163","img/food6.png","76","357.2999999523163","3","0","1","2","1,0.5,0,1,0.5,0,0.5,0,1","0,1,0.5,0,1,0.5,1,0.5,0","3","false",""
"","html-keyboard-response","247","146391","0.0-278.0","3YMTUJH0DT2TTOW3FIFUL6HTH9M4TF","A3RUL1OC4CAINK","356TQKY9XFJ5S7O4NGX4839SMNB87N","","null","<img src=""img/food6.png"" style=""width:200px;border:14px solid red;"">","null","","","","","","","","","",""
"","image-keyboard-response","248","146890","0.0-280.0","3YMTUJH0DT2TTOW3FIFUL6HTH9M4TF","A3RUL1OC4CAINK","356TQKY9XFJ5S7O4NGX4839SMNB87N","","496.89999997615814","img/food3.png","76","498.19999998807907","3","1","2","2","1,0.5,0,1,0.5,0,0.5,0,1","0,1,0.5,0,1,0.5,1,0.5,0","3","false",""
"","html-keyboard-response","249","147191","0.0-281.0","3YMTUJH0DT2TTOW3FIFUL6HTH9M4TF","A3RUL1OC4CAINK","356TQKY9XFJ5S7O4NGX4839SMNB87N","","null","<img src=""img/food3.png"" style=""width:200px; border:14px solid green;"">","null","","","","","","","","","",""
"","image-keyboard-response","250","147665","0.0-283.0","3YMTUJH0DT2TTOW3FIFUL6HTH9M4TF","A3RUL1OC4CAINK","356TQKY9XFJ5S7O4NGX4839SMNB87N","","472.30000001192093","img/food3.png","76","473.5","3","1","2","2","1,0.5,0,1,0.5,0,0.5,0,1","0,1,0.5,0,1,0.5,1,0.5,0","3","false",""
"","html-keyboard-response","251","147968","0.0-284.0","3YMTUJH0DT2TTOW3FIFUL6HTH9M4TF","A3RUL1OC4CAINK","356TQKY9XFJ5S7O4NGX4839SMNB87N","","null","<img src=""img/food3.png"" style=""width:200px; border:14px solid green;"">","null","","","","","","","","","",""
"","image-keyboard-response","252","148449","0.0-286.0","3YMTUJH0DT2TTOW3FIFUL6HTH9M4TF","A3RUL1OC4CAINK","356TQKY9XFJ5S7O4NGX4839SMNB87N","","478.7999999523163","img/food6.png","75","480.30000001192093","2","1","1","2","1,0.5,0,1,0.5,0,0.5,0,1","0,1,0.5,0,1,0.5,1,0.5,0","3","false",""
"","html-keyboard-response","253","148751","0.0-287.0","3YMTUJH0DT2TTOW3FIFUL6HTH9M4TF","A3RUL1OC4CAINK","356TQKY9XFJ5S7O4NGX4839SMNB87N","","null","<img src=""img/food6.png"" style=""width:200px; border:14px solid green;"">","null","","","","","","","","","",""
"","image-keyboard-response","254","149165","0.0-289.0","3YMTUJH0DT2TTOW3FIFUL6HTH9M4TF","A3RUL1OC4CAINK","356TQKY9XFJ5S7O4NGX4839SMNB87N","","412.9000000357628","img/food1.png","75","413.60000002384186","2","1","3","2","1,0.5,0,1,0.5,0,0.5,0,1","0,1,0.5,0,1,0.5,1,0.5,0","3","false",""
"","html-keyboard-response","255","149468","0.0-290.0","3YMTUJH0DT2TTOW3FIFUL6HTH9M4TF","A3RUL1OC4CAINK","356TQKY9XFJ5S7O4NGX4839SMNB87N","","null","<img src=""img/food1.png"" style=""width:200px; border:14px solid green;"">","null","","","","","","","","","",""
"","image-keyboard-response","256","150018","0.0-292.0","3YMTUJH0DT2TTOW3FIFUL6HTH9M4TF","A3RUL1OC4CAINK","356TQKY9XFJ5S7O4NGX4839SMNB87N","","547.8999999761581","img/food3.png","75","549.3000000119209","2","1","2","2","1,0.5,0,1,0.5,0,0.5,0,1","0,1,0.5,0,1,0.5,1,0.5,0","3","false",""
"","html-keyboard-response","257","150321","0.0-293.0","3YMTUJH0DT2TTOW3FIFUL6HTH9M4TF","A3RUL1OC4CAINK","356TQKY9XFJ5S7O4NGX4839SMNB87N","","null","<img src=""img/food3.png"" style=""width:200px; border:14px solid green;"">","null","","","","","","","","","",""
"","image-keyboard-response","258","150858","0.0-295.0","3YMTUJH0DT2TTOW3FIFUL6HTH9M4TF","A3RUL1OC4CAINK","356TQKY9XFJ5S7O4NGX4839SMNB87N","","535.6000000238419","img/food1.png","76","537.0999999642372","3","0","3","2","1,0.5,0,1,0.5,0,0.5,0,1","0,1,0.5,0,1,0.5,1,0.5,0","3","false",""
"","html-keyboard-response","259","151161","0.0-296.0","3YMTUJH0DT2TTOW3FIFUL6HTH9M4TF","A3RUL1OC4CAINK","356TQKY9XFJ5S7O4NGX4839SMNB87N","","null","<img src=""img/food1.png"" style=""width:200px;border:14px solid red;"">","null","","","","","","","","","",""
"","image-keyboard-response","260","151705","0.0-298.0","3YMTUJH0DT2TTOW3FIFUL6HTH9M4TF","A3RUL1OC4CAINK","356TQKY9XFJ5S7O4NGX4839SMNB87N","","542.1000000238419","img/food3.png","74","543.3999999761581","1","0","2","2","1,0.5,0,1,0.5,0,0.5,0,1","0,1,0.5,0,1,0.5,1,0.5,0","3","false",""
"","html-keyboard-response","261","152008","0.0-299.0","3YMTUJH0DT2TTOW3FIFUL6HTH9M4TF","A3RUL1OC4CAINK","356TQKY9XFJ5S7O4NGX4839SMNB87N","","null","<img src=""img/food3.png"" style=""width:200px;border:14px solid red;"">","null","","","","","","","","","",""
"","image-keyboard-response","262","152348","0.0-301.0","3YMTUJH0DT2TTOW3FIFUL6HTH9M4TF","A3RUL1OC4CAINK","356TQKY9XFJ5S7O4NGX4839SMNB87N","","337","img/food1.png","75","338.69999998807907","2","1","3","2","1,0.5,0,1,0.5,0,0.5,0,1","0,1,0.5,0,1,0.5,1,0.5,0","3","false",""
"","html-keyboard-response","263","152651","0.0-302.0","3YMTUJH0DT2TTOW3FIFUL6HTH9M4TF","A3RUL1OC4CAINK","356TQKY9XFJ5S7O4NGX4839SMNB87N","","null","<img src=""img/food1.png"" style=""width:200px; border:14px solid green;"">","null","","","","","","","","","",""
"","image-keyboard-response","264","153148","0.0-304.0","3YMTUJH0DT2TTOW3FIFUL6HTH9M4TF","A3RUL1OC4CAINK","356TQKY9XFJ5S7O4NGX4839SMNB87N","","495.69999998807907","img/food6.png","75","496.9000000357628","2","1","1","2","1,0.5,0,1,0.5,0,0.5,0,1","0,1,0.5,0,1,0.5,1,0.5,0","3","false",""
"","html-keyboard-response","265","153451","0.0-305.0","3YMTUJH0DT2TTOW3FIFUL6HTH9M4TF","A3RUL1OC4CAINK","356TQKY9XFJ5S7O4NGX4839SMNB87N","","null","<img src=""img/food6.png"" style=""width:200px; border:14px solid green;"">","null","","","","","","","","","",""
"","image-keyboard-response","266","154007","0.0-307.0","3YMTUJH0DT2TTOW3FIFUL6HTH9M4TF","A3RUL1OC4CAINK","356TQKY9XFJ5S7O4NGX4839SMNB87N","","555","img/food3.png","75","556.1999999880791","2","1","2","2","1,0.5,0,1,0.5,0,0.5,0,1","0,1,0.5,0,1,0.5,1,0.5,0","3","false",""
"","html-keyboard-response","267","154309","0.0-308.0","3YMTUJH0DT2TTOW3FIFUL6HTH9M4TF","A3RUL1OC4CAINK","356TQKY9XFJ5S7O4NGX4839SMNB87N","","null","<img src=""img/food3.png"" style=""width:200px; border:14px solid green;"">","null","","","","","","","","","",""
"","image-keyboard-response","268","154672","0.0-310.0","3YMTUJH0DT2TTOW3FIFUL6HTH9M4TF","A3RUL1OC4CAINK","356TQKY9XFJ5S7O4NGX4839SMNB87N","","360.19999998807907","img/food3.png","75","361.5","2","1","2","2","1,0.5,0,1,0.5,0,0.5,0,1","0,1,0.5,0,1,0.5,1,0.5,0","3","false",""
"","html-keyboard-response","269","154974","0.0-311.0","3YMTUJH0DT2TTOW3FIFUL6HTH9M4TF","A3RUL1OC4CAINK","356TQKY9XFJ5S7O4NGX4839SMNB87N","","null","<img src=""img/food3.png"" style=""width:200px; border:14px solid green;"">","null","","","","","","","","","",""
"","image-keyboard-response","270","155515","0.0-313.0","3YMTUJH0DT2TTOW3FIFUL6HTH9M4TF","A3RUL1OC4CAINK","356TQKY9XFJ5S7O4NGX4839SMNB87N","","538.1999999880791","img/food6.png","75","539.8000000119209","2","1","1","2","1,0.5,0,1,0.5,0,0.5,0,1","0,1,0.5,0,1,0.5,1,0.5,0","3","false",""
"","html-keyboard-response","271","155818","0.0-314.0","3YMTUJH0DT2TTOW3FIFUL6HTH9M4TF","A3RUL1OC4CAINK","356TQKY9XFJ5S7O4NGX4839SMNB87N","","null","<img src=""img/food6.png"" style=""width:200px; border:14px solid green;"">","null","","","","","","","","","",""
"","image-keyboard-response","272","156134","0.0-316.0","3YMTUJH0DT2TTOW3FIFUL6HTH9M4TF","A3RUL1OC4CAINK","356TQKY9XFJ5S7O4NGX4839SMNB87N","","313.5","img/food3.png","75","314.60000002384186","2","1","2","2","1,0.5,0,1,0.5,0,0.5,0,1","0,1,0.5,0,1,0.5,1,0.5,0","3","false",""
"","html-keyboard-response","273","156435","0.0-317.0","3YMTUJH0DT2TTOW3FIFUL6HTH9M4TF","A3RUL1OC4CAINK","356TQKY9XFJ5S7O4NGX4839SMNB87N","","null","<img src=""img/food3.png"" style=""width:200px; border:14px solid green;"">","null","","","","","","","","","",""
"","image-keyboard-response","274","157022","0.0-319.0","3YMTUJH0DT2TTOW3FIFUL6HTH9M4TF","A3RUL1OC4CAINK","356TQKY9XFJ5S7O4NGX4839SMNB87N","","584.7999999523163","img/food1.png","75","585.9000000357628","2","1","3","2","1,0.5,0,1,0.5,0,0.5,0,1","0,1,0.5,0,1,0.5,1,0.5,0","3","false",""
"","html-keyboard-response","275","157324","0.0-320.0","3YMTUJH0DT2TTOW3FIFUL6HTH9M4TF","A3RUL1OC4CAINK","356TQKY9XFJ5S7O4NGX4839SMNB87N","","null","<img src=""img/food1.png"" style=""width:200px; border:14px solid green;"">","null","","","","","","","","","",""
"","image-keyboard-response","276","157715","0.0-322.0","3YMTUJH0DT2TTOW3FIFUL6HTH9M4TF","A3RUL1OC4CAINK","356TQKY9XFJ5S7O4NGX4839SMNB87N","","389.30000001192093","img/food6.png","75","390.80000001192093","2","1","1","2","1,0.5,0,1,0.5,0,0.5,0,1","0,1,0.5,0,1,0.5,1,0.5,0","3","false",""
"","html-keyboard-response","277","158018","0.0-323.0","3YMTUJH0DT2TTOW3FIFUL6HTH9M4TF","A3RUL1OC4CAINK","356TQKY9XFJ5S7O4NGX4839SMNB87N","","null","<img src=""img/food6.png"" style=""width:200px; border:14px solid green;"">","null","","","","","","","","","",""
"","image-keyboard-response","278","158343","0.0-325.0","3YMTUJH0DT2TTOW3FIFUL6HTH9M4TF","A3RUL1OC4CAINK","356TQKY9XFJ5S7O4NGX4839SMNB87N","","323.30000001192093","img/food6.png","75","324.69999998807907","2","1","1","2","1,0.5,0,1,0.5,0,0.5,0,1","0,1,0.5,0,1,0.5,1,0.5,0","3","false",""
"","html-keyboard-response","279","158646","0.0-326.0","3YMTUJH0DT2TTOW3FIFUL6HTH9M4TF","A3RUL1OC4CAINK","356TQKY9XFJ5S7O4NGX4839SMNB87N","","null","<img src=""img/food6.png"" style=""width:200px; border:14px solid green;"">","null","","","","","","","","","",""
"","image-keyboard-response","280","158970","0.0-328.0","3YMTUJH0DT2TTOW3FIFUL6HTH9M4TF","A3RUL1OC4CAINK","356TQKY9XFJ5S7O4NGX4839SMNB87N","","322.5999999642372","img/food6.png","75","324","2","1","1","2","1,0.5,0,1,0.5,0,0.5,0,1","0,1,0.5,0,1,0.5,1,0.5,0","3","false",""
"","html-keyboard-response","281","159273","0.0-329.0","3YMTUJH0DT2TTOW3FIFUL6HTH9M4TF","A3RUL1OC4CAINK","356TQKY9XFJ5S7O4NGX4839SMNB87N","","null","<img src=""img/food6.png"" style=""width:200px; border:14px solid green;"">","null","","","","","","","","","",""
"","image-keyboard-response","282","159696","0.0-331.0","3YMTUJH0DT2TTOW3FIFUL6HTH9M4TF","A3RUL1OC4CAINK","356TQKY9XFJ5S7O4NGX4839SMNB87N","","421.89999997615814","img/food3.png","75","422.69999998807907","2","1","2","2","1,0.5,0,1,0.5,0,0.5,0,1","0,1,0.5,0,1,0.5,1,0.5,0","3","false",""
"","html-keyboard-response","283","159997","0.0-332.0","3YMTUJH0DT2TTOW3FIFUL6HTH9M4TF","A3RUL1OC4CAINK","356TQKY9XFJ5S7O4NGX4839SMNB87N","","null","<img src=""img/food3.png"" style=""width:200px; border:14px solid green;"">","null","","","","","","","","","",""
"","image-keyboard-response","284","160349","0.0-334.0","3YMTUJH0DT2TTOW3FIFUL6HTH9M4TF","A3RUL1OC4CAINK","356TQKY9XFJ5S7O4NGX4839SMNB87N","","350.19999998807907","img/food1.png","75","351.60000002384186","2","1","3","2","1,0.5,0,1,0.5,0,0.5,0,1","0,1,0.5,0,1,0.5,1,0.5,0","3","false",""
"","html-keyboard-response","285","160651","0.0-335.0","3YMTUJH0DT2TTOW3FIFUL6HTH9M4TF","A3RUL1OC4CAINK","356TQKY9XFJ5S7O4NGX4839SMNB87N","","null","<img src=""img/food1.png"" style=""width:200px; border:14px solid green;"">","null","","","","","","","","","",""
"","image-keyboard-response","286","160959","0.0-337.0","3YMTUJH0DT2TTOW3FIFUL6HTH9M4TF","A3RUL1OC4CAINK","356TQKY9XFJ5S7O4NGX4839SMNB87N","","305.30000001192093","img/food3.png","75","306.9000000357628","2","1","2","2","1,0.5,0,1,0.5,0,0.5,0,1","0,1,0.5,0,1,0.5,1,0.5,0","3","false",""
"","html-keyboard-response","287","161261","0.0-338.0","3YMTUJH0DT2TTOW3FIFUL6HTH9M4TF","A3RUL1OC4CAINK","356TQKY9XFJ5S7O4NGX4839SMNB87N","","null","<img src=""img/food3.png"" style=""width:200px; border:14px solid green;"">","null","","","","","","","","","",""
"","image-keyboard-response","288","161586","0.0-340.0","3YMTUJH0DT2TTOW3FIFUL6HTH9M4TF","A3RUL1OC4CAINK","356TQKY9XFJ5S7O4NGX4839SMNB87N","","320.89999997615814","img/food6.png","75","321.9000000357628","2","1","1","2","1,0.5,0,1,0.5,0,0.5,0,1","0,1,0.5,0,1,0.5,1,0.5,0","3","false",""
"","html-keyboard-response","289","161888","0.0-341.0","3YMTUJH0DT2TTOW3FIFUL6HTH9M4TF","A3RUL1OC4CAINK","356TQKY9XFJ5S7O4NGX4839SMNB87N","","null","<img src=""img/food6.png"" style=""width:200px; border:14px solid green;"">","null","","","","","","","","","",""
"","image-keyboard-response","290","162191","0.0-343.0","3YMTUJH0DT2TTOW3FIFUL6HTH9M4TF","A3RUL1OC4CAINK","356TQKY9XFJ5S7O4NGX4839SMNB87N","","301.5","img/food6.png","75","302.39999997615814","2","1","1","2","1,0.5,0,1,0.5,0,0.5,0,1","0,1,0.5,0,1,0.5,1,0.5,0","3","false",""
"","html-keyboard-response","291","162493","0.0-344.0","3YMTUJH0DT2TTOW3FIFUL6HTH9M4TF","A3RUL1OC4CAINK","356TQKY9XFJ5S7O4NGX4839SMNB87N","","null","<img src=""img/food6.png"" style=""width:200px; border:14px solid green;"">","null","","","","","","","","","",""
"","image-keyboard-response","292","162819","0.0-346.0","3YMTUJH0DT2TTOW3FIFUL6HTH9M4TF","A3RUL1OC4CAINK","356TQKY9XFJ5S7O4NGX4839SMNB87N","","323.5","img/food6.png","75","324.5","2","1","1","2","1,0.5,0,1,0.5,0,0.5,0,1","0,1,0.5,0,1,0.5,1,0.5,0","3","false",""
"","html-keyboard-response","293","163120","0.0-347.0","3YMTUJH0DT2TTOW3FIFUL6HTH9M4TF","A3RUL1OC4CAINK","356TQKY9XFJ5S7O4NGX4839SMNB87N","","null","<img src=""img/food6.png"" style=""width:200px; border:14px solid green;"">","null","","","","","","","","","",""
"","image-keyboard-response","294","163450","0.0-349.0","3YMTUJH0DT2TTOW3FIFUL6HTH9M4TF","A3RUL1OC4CAINK","356TQKY9XFJ5S7O4NGX4839SMNB87N","","328.30000001192093","img/food1.png","75","329.5","2","1","3","2","1,0.5,0,1,0.5,0,0.5,0,1","0,1,0.5,0,1,0.5,1,0.5,0","3","false",""
"","html-keyboard-response","295","163752","0.0-350.0","3YMTUJH0DT2TTOW3FIFUL6HTH9M4TF","A3RUL1OC4CAINK","356TQKY9XFJ5S7O4NGX4839SMNB87N","","null","<img src=""img/food1.png"" style=""width:200px; border:14px solid green;"">","null","","","","","","","","","",""
"","image-keyboard-response","296","164075","0.0-352.0","3YMTUJH0DT2TTOW3FIFUL6HTH9M4TF","A3RUL1OC4CAINK","356TQKY9XFJ5S7O4NGX4839SMNB87N","","321.5","img/food6.png","75","323","2","1","1","2","1,0.5,0,1,0.5,0,0.5,0,1","0,1,0.5,0,1,0.5,1,0.5,0","3","false",""
"","html-keyboard-response","297","164378","0.0-353.0","3YMTUJH0DT2TTOW3FIFUL6HTH9M4TF","A3RUL1OC4CAINK","356TQKY9XFJ5S7O4NGX4839SMNB87N","","null","<img src=""img/food6.png"" style=""width:200px; border:14px solid green;"">","null","","","","","","","","","",""
"","image-keyboard-response","298","164690","0.0-355.0","3YMTUJH0DT2TTOW3FIFUL6HTH9M4TF","A3RUL1OC4CAINK","356TQKY9XFJ5S7O4NGX4839SMNB87N","","311.60000002384186","img/food1.png","75","312.30000001192093","2","1","3","2","1,0.5,0,1,0.5,0,0.5,0,1","0,1,0.5,0,1,0.5,1,0.5,0","3","false",""
"","html-keyboard-response","299","164992","0.0-356.0","3YMTUJH0DT2TTOW3FIFUL6HTH9M4TF","A3RUL1OC4CAINK","356TQKY9XFJ5S7O4NGX4839SMNB87N","","null","<img src=""img/food1.png"" style=""width:200px; border:14px solid green;"">","null","","","","","","","","","",""
"","image-keyboard-response","300","165324","0.0-358.0","3YMTUJH0DT2TTOW3FIFUL6HTH9M4TF","A3RUL1OC4CAINK","356TQKY9XFJ5S7O4NGX4839SMNB87N","","329.69999998807907","img/food1.png","75","331.2000000476837","2","1","3","2","1,0.5,0,1,0.5,0,0.5,0,1","0,1,0.5,0,1,0.5,1,0.5,0","3","false",""
"","html-keyboard-response","301","165627","0.0-359.0","3YMTUJH0DT2TTOW3FIFUL6HTH9M4TF","A3RUL1OC4CAINK","356TQKY9XFJ5S7O4NGX4839SMNB87N","","null","<img src=""img/food1.png"" style=""width:200px; border:14px solid green;"">","null","","","","","","","","","",""
"","image-keyboard-response","302","165931","0.0-361.0","3YMTUJH0DT2TTOW3FIFUL6HTH9M4TF","A3RUL1OC4CAINK","356TQKY9XFJ5S7O4NGX4839SMNB87N","","303.30000001192093","img/food1.png","75","304.10000002384186","2","1","3","2","1,0.5,0,1,0.5,0,0.5,0,1","0,1,0.5,0,1,0.5,1,0.5,0","3","false",""
"","html-keyboard-response","303","166233","0.0-362.0","3YMTUJH0DT2TTOW3FIFUL6HTH9M4TF","A3RUL1OC4CAINK","356TQKY9XFJ5S7O4NGX4839SMNB87N","","null","<img src=""img/food1.png"" style=""width:200px; border:14px solid green;"">","null","","","","","","","","","",""
"","image-keyboard-response","304","166603","0.0-364.0","3YMTUJH0DT2TTOW3FIFUL6HTH9M4TF","A3RUL1OC4CAINK","356TQKY9XFJ5S7O4NGX4839SMNB87N","","367.5","img/food6.png","75","369","2","1","1","2","1,0.5,0,1,0.5,0,0.5,0,1","0,1,0.5,0,1,0.5,1,0.5,0","3","false",""
"","html-keyboard-response","305","166906","0.0-365.0","3YMTUJH0DT2TTOW3FIFUL6HTH9M4TF","A3RUL1OC4CAINK","356TQKY9XFJ5S7O4NGX4839SMNB87N","","null","<img src=""img/food6.png"" style=""width:200px; border:14px solid green;"">","null","","","","","","","","","",""
"","image-keyboard-response","306","167225","0.0-367.0","3YMTUJH0DT2TTOW3FIFUL6HTH9M4TF","A3RUL1OC4CAINK","356TQKY9XFJ5S7O4NGX4839SMNB87N","","317.2000000476837","img/food1.png","75","318.4000000357628","2","1","3","2","1,0.5,0,1,0.5,0,0.5,0,1","0,1,0.5,0,1,0.5,1,0.5,0","3","false",""
"","html-keyboard-response","307","167526","0.0-368.0","3YMTUJH0DT2TTOW3FIFUL6HTH9M4TF","A3RUL1OC4CAINK","356TQKY9XFJ5S7O4NGX4839SMNB87N","","null","<img src=""img/food1.png"" style=""width:200px; border:14px solid green;"">","null","","","","","","","","","",""
"","image-keyboard-response","308","167848","0.0-370.0","3YMTUJH0DT2TTOW3FIFUL6HTH9M4TF","A3RUL1OC4CAINK","356TQKY9XFJ5S7O4NGX4839SMNB87N","","319.89999997615814","img/food6.png","75","321.2999999523163","2","1","1","2","1,0.5,0,1,0.5,0,0.5,0,1","0,1,0.5,0,1,0.5,1,0.5,0","3","false",""
"","html-keyboard-response","309","168151","0.0-371.0","3YMTUJH0DT2TTOW3FIFUL6HTH9M4TF","A3RUL1OC4CAINK","356TQKY9XFJ5S7O4NGX4839SMNB87N","","null","<img src=""img/food6.png"" style=""width:200px; border:14px solid green;"">","null","","","","","","","","","",""
"","image-keyboard-response","310","168470","0.0-373.0","3YMTUJH0DT2TTOW3FIFUL6HTH9M4TF","A3RUL1OC4CAINK","356TQKY9XFJ5S7O4NGX4839SMNB87N","","317.30000001192093","img/food1.png","75","318.80000001192093","2","0","3","2","1,0.5,0,1,0.5,0,0.5,0,1","0,1,0.5,0,1,0.5,1,0.5,0","3","false",""
"","html-keyboard-response","311","168772","0.0-374.0","3YMTUJH0DT2TTOW3FIFUL6HTH9M4TF","A3RUL1OC4CAINK","356TQKY9XFJ5S7O4NGX4839SMNB87N","","null","<img src=""img/food1.png"" style=""width:200px;border:14px solid red;"">","null","","","","","","","","","",""
"","image-keyboard-response","312","169304","0.0-376.0","3YMTUJH0DT2TTOW3FIFUL6HTH9M4TF","A3RUL1OC4CAINK","356TQKY9XFJ5S7O4NGX4839SMNB87N","","530.1999999880791","img/food3.png","75","531.2000000476837","2","1","2","2","1,0.5,0,1,0.5,0,0.5,0,1","0,1,0.5,0,1,0.5,1,0.5,0","3","false",""
"","html-keyboard-response","313","169611","0.0-377.0","3YMTUJH0DT2TTOW3FIFUL6HTH9M4TF","A3RUL1OC4CAINK","356TQKY9XFJ5S7O4NGX4839SMNB87N","","null","<img src=""img/food3.png"" style=""width:200px; border:14px solid green;"">","null","","","","","","","","","",""
"","image-keyboard-response","314","169929","0.0-379.0","3YMTUJH0DT2TTOW3FIFUL6HTH9M4TF","A3RUL1OC4CAINK","356TQKY9XFJ5S7O4NGX4839SMNB87N","","316.80000001192093","img/food6.png","75","317.5999999642372","2","1","1","2","1,0.5,0,1,0.5,0,0.5,0,1","0,1,0.5,0,1,0.5,1,0.5,0","3","false",""
"","html-keyboard-response","315","170231","0.0-380.0","3YMTUJH0DT2TTOW3FIFUL6HTH9M4TF","A3RUL1OC4CAINK","356TQKY9XFJ5S7O4NGX4839SMNB87N","","null","<img src=""img/food6.png"" style=""width:200px; border:14px solid green;"">","null","","","","","","","","","",""
"","image-keyboard-response","316","170552","0.0-382.0","3YMTUJH0DT2TTOW3FIFUL6HTH9M4TF","A3RUL1OC4CAINK","356TQKY9XFJ5S7O4NGX4839SMNB87N","","318.10000002384186","img/food1.png","75","319.7000000476837","2","0","3","2","1,0.5,0,1,0.5,0,0.5,0,1","0,1,0.5,0,1,0.5,1,0.5,0","3","false",""
"","html-keyboard-response","317","170854","0.0-383.0","3YMTUJH0DT2TTOW3FIFUL6HTH9M4TF","A3RUL1OC4CAINK","356TQKY9XFJ5S7O4NGX4839SMNB87N","","null","<img src=""img/food1.png"" style=""width:200px;border:14px solid red;"">","null","","","","","","","","","",""
"","image-keyboard-response","318","171323","0.0-385.0","3YMTUJH0DT2TTOW3FIFUL6HTH9M4TF","A3RUL1OC4CAINK","356TQKY9XFJ5S7O4NGX4839SMNB87N","","466.39999997615814","img/food3.png","75","467.9000000357628","2","1","2","2","1,0.5,0,1,0.5,0,0.5,0,1","0,1,0.5,0,1,0.5,1,0.5,0","3","false",""
"","html-keyboard-response","319","171625","0.0-386.0","3YMTUJH0DT2TTOW3FIFUL6HTH9M4TF","A3RUL1OC4CAINK","356TQKY9XFJ5S7O4NGX4839SMNB87N","","null","<img src=""img/food3.png"" style=""width:200px; border:14px solid green;"">","null","","","","","","","","","",""
"","image-keyboard-response","320","171921","0.0-388.0","3YMTUJH0DT2TTOW3FIFUL6HTH9M4TF","A3RUL1OC4CAINK","356TQKY9XFJ5S7O4NGX4839SMNB87N","","293.4000000357628","img/food1.png","75","295","2","0","3","2","1,0.5,0,1,0.5,0,0.5,0,1","0,1,0.5,0,1,0.5,1,0.5,0","3","false",""
"","html-keyboard-response","321","172224","0.0-389.0","3YMTUJH0DT2TTOW3FIFUL6HTH9M4TF","A3RUL1OC4CAINK","356TQKY9XFJ5S7O4NGX4839SMNB87N","","null","<img src=""img/food1.png"" style=""width:200px;border:14px solid red;"">","null","","","","","","","","","",""
"","image-keyboard-response","322","172603","0.0-391.0","3YMTUJH0DT2TTOW3FIFUL6HTH9M4TF","A3RUL1OC4CAINK","356TQKY9XFJ5S7O4NGX4839SMNB87N","","377.10000002384186","img/food3.png","75","378.5999999642372","2","1","2","2","1,0.5,0,1,0.5,0,0.5,0,1","0,1,0.5,0,1,0.5,1,0.5,0","3","false",""
"","html-keyboard-response","323","172906","0.0-392.0","3YMTUJH0DT2TTOW3FIFUL6HTH9M4TF","A3RUL1OC4CAINK","356TQKY9XFJ5S7O4NGX4839SMNB87N","","null","<img src=""img/food3.png"" style=""width:200px; border:14px solid green;"">","null","","","","","","","","","",""
"","image-keyboard-response","324","173267","0.0-394.0","3YMTUJH0DT2TTOW3FIFUL6HTH9M4TF","A3RUL1OC4CAINK","356TQKY9XFJ5S7O4NGX4839SMNB87N","","359.30000001192093","img/food3.png","75","360.4000000357628","2","1","2","2","1,0.5,0,1,0.5,0,0.5,0,1","0,1,0.5,0,1,0.5,1,0.5,0","3","false",""
"","html-keyboard-response","325","173568","0.0-395.0","3YMTUJH0DT2TTOW3FIFUL6HTH9M4TF","A3RUL1OC4CAINK","356TQKY9XFJ5S7O4NGX4839SMNB87N","","null","<img src=""img/food3.png"" style=""width:200px; border:14px solid green;"">","null","","","","","","","","","",""
"","image-keyboard-response","326","174038","0.0-397.0","3YMTUJH0DT2TTOW3FIFUL6HTH9M4TF","A3RUL1OC4CAINK","356TQKY9XFJ5S7O4NGX4839SMNB87N","","468.0999999642372","img/food1.png","75","469","2","1","3","2","1,0.5,0,1,0.5,0,0.5,0,1","0,1,0.5,0,1,0.5,1,0.5,0","3","false",""
"","html-keyboard-response","327","174340","0.0-398.0","3YMTUJH0DT2TTOW3FIFUL6HTH9M4TF","A3RUL1OC4CAINK","356TQKY9XFJ5S7O4NGX4839SMNB87N","","null","<img src=""img/food1.png"" style=""width:200px; border:14px solid green;"">","null","","","","","","","","","",""
"","image-keyboard-response","328","174629","0.0-400.0","3YMTUJH0DT2TTOW3FIFUL6HTH9M4TF","A3RUL1OC4CAINK","356TQKY9XFJ5S7O4NGX4839SMNB87N","","286.69999998807907","img/food1.png","75","288.30000001192093","2","1","3","2","1,0.5,0,1,0.5,0,0.5,0,1","0,1,0.5,0,1,0.5,1,0.5,0","3","false",""
"","html-keyboard-response","329","174932","0.0-401.0","3YMTUJH0DT2TTOW3FIFUL6HTH9M4TF","A3RUL1OC4CAINK","356TQKY9XFJ5S7O4NGX4839SMNB87N","","null","<img src=""img/food1.png"" style=""width:200px; border:14px solid green;"">","null","","","","","","","","","",""
"","image-keyboard-response","330","175408","0.0-403.0","3YMTUJH0DT2TTOW3FIFUL6HTH9M4TF","A3RUL1OC4CAINK","356TQKY9XFJ5S7O4NGX4839SMNB87N","","473.2000000476837","img/food6.png","75","474.69999998807907","2","1","1","2","1,0.5,0,1,0.5,0,0.5,0,1","0,1,0.5,0,1,0.5,1,0.5,0","3","false",""
"","html-keyboard-response","331","175711","0.0-404.0","3YMTUJH0DT2TTOW3FIFUL6HTH9M4TF","A3RUL1OC4CAINK","356TQKY9XFJ5S7O4NGX4839SMNB87N","","null","<img src=""img/food6.png"" style=""width:200px; border:14px solid green;"">","null","","","","","","","","","",""
"","image-keyboard-response","332","176054","0.0-406.0","3YMTUJH0DT2TTOW3FIFUL6HTH9M4TF","A3RUL1OC4CAINK","356TQKY9XFJ5S7O4NGX4839SMNB87N","","341.0999999642372","img/food6.png","75","342.19999998807907","2","1","1","2","1,0.5,0,1,0.5,0,0.5,0,1","0,1,0.5,0,1,0.5,1,0.5,0","3","false",""
"","html-keyboard-response","333","176357","0.0-407.0","3YMTUJH0DT2TTOW3FIFUL6HTH9M4TF","A3RUL1OC4CAINK","356TQKY9XFJ5S7O4NGX4839SMNB87N","","null","<img src=""img/food6.png"" style=""width:200px; border:14px solid green;"">","null","","","","","","","","","",""
"","image-keyboard-response","334","176884","0.0-409.0","3YMTUJH0DT2TTOW3FIFUL6HTH9M4TF","A3RUL1OC4CAINK","356TQKY9XFJ5S7O4NGX4839SMNB87N","","525.5","img/food1.png","74","527","1","1","3","2","1,0.5,0,1,0.5,0,0.5,0,1","0,1,0.5,0,1,0.5,1,0.5,0","3","false",""
"","html-keyboard-response","335","177186","0.0-410.0","3YMTUJH0DT2TTOW3FIFUL6HTH9M4TF","A3RUL1OC4CAINK","356TQKY9XFJ5S7O4NGX4839SMNB87N","","null","<img src=""img/food1.png"" style=""width:200px; border:14px solid green;"">","null","","","","","","","","","",""
"","image-keyboard-response","336","177429","0.0-412.0","3YMTUJH0DT2TTOW3FIFUL6HTH9M4TF","A3RUL1OC4CAINK","356TQKY9XFJ5S7O4NGX4839SMNB87N","","240.69999998807907","img/food1.png","75","241.79999995231628","2","1","3","2","1,0.5,0,1,0.5,0,0.5,0,1","0,1,0.5,0,1,0.5,1,0.5,0","3","false",""
"","html-keyboard-response","337","177731","0.0-413.0","3YMTUJH0DT2TTOW3FIFUL6HTH9M4TF","A3RUL1OC4CAINK","356TQKY9XFJ5S7O4NGX4839SMNB87N","","null","<img src=""img/food1.png"" style=""width:200px; border:14px solid green;"">","null","","","","","","","","","",""
"","image-keyboard-response","338","178065","0.0-415.0","3YMTUJH0DT2TTOW3FIFUL6HTH9M4TF","A3RUL1OC4CAINK","356TQKY9XFJ5S7O4NGX4839SMNB87N","","333.39999997615814","img/food3.png","75","334.39999997615814","2","1","2","2","1,0.5,0,1,0.5,0,0.5,0,1","0,1,0.5,0,1,0.5,1,0.5,0","3","false",""
"","html-keyboard-response","339","178368","0.0-416.0","3YMTUJH0DT2TTOW3FIFUL6HTH9M4TF","A3RUL1OC4CAINK","356TQKY9XFJ5S7O4NGX4839SMNB87N","","null","<img src=""img/food3.png"" style=""width:200px; border:14px solid green;"">","null","","","","","","","","","",""
"","image-keyboard-response","340","178730","0.0-418.0","3YMTUJH0DT2TTOW3FIFUL6HTH9M4TF","A3RUL1OC4CAINK","356TQKY9XFJ5S7O4NGX4839SMNB87N","","359.39999997615814","img/food3.png","75","360.7999999523163","2","1","2","2","1,0.5,0,1,0.5,0,0.5,0,1","0,1,0.5,0,1,0.5,1,0.5,0","3","false",""
"","html-keyboard-response","341","179032","0.0-419.0","3YMTUJH0DT2TTOW3FIFUL6HTH9M4TF","A3RUL1OC4CAINK","356TQKY9XFJ5S7O4NGX4839SMNB87N","","null","<img src=""img/food3.png"" style=""width:200px; border:14px solid green;"">","null","","","","","","","","","",""
"","image-keyboard-response","342","179685","0.0-421.0","3YMTUJH0DT2TTOW3FIFUL6HTH9M4TF","A3RUL1OC4CAINK","356TQKY9XFJ5S7O4NGX4839SMNB87N","","650","img/food6.png","75","651.4000000357628","2","1","1","2","1,0.5,0,1,0.5,0,0.5,0,1","0,1,0.5,0,1,0.5,1,0.5,0","3","false",""
"","html-keyboard-response","343","179989","0.0-422.0","3YMTUJH0DT2TTOW3FIFUL6HTH9M4TF","A3RUL1OC4CAINK","356TQKY9XFJ5S7O4NGX4839SMNB87N","","null","<img src=""img/food6.png"" style=""width:200px; border:14px solid green;"">","null","","","","","","","","","",""
"","image-keyboard-response","344","180209","0.0-424.0","3YMTUJH0DT2TTOW3FIFUL6HTH9M4TF","A3RUL1OC4CAINK","356TQKY9XFJ5S7O4NGX4839SMNB87N","","218.10000002384186","img/food1.png","74","219.39999997615814","1","1","3","2","1,0.5,0,1,0.5,0,0.5,0,1","0,1,0.5,0,1,0.5,1,0.5,0","3","false",""
"","html-keyboard-response","345","180512","0.0-425.0","3YMTUJH0DT2TTOW3FIFUL6HTH9M4TF","A3RUL1OC4CAINK","356TQKY9XFJ5S7O4NGX4839SMNB87N","","null","<img src=""img/food1.png"" style=""width:200px; border:14px solid green;"">","null","","","","","","","","","",""
"","image-keyboard-response","346","180739","0.0-427.0","3YMTUJH0DT2TTOW3FIFUL6HTH9M4TF","A3RUL1OC4CAINK","356TQKY9XFJ5S7O4NGX4839SMNB87N","","225.39999997615814","img/food1.png","75","226.5","2","0","3","2","1,0.5,0,1,0.5,0,0.5,0,1","0,1,0.5,0,1,0.5,1,0.5,0","3","false",""
"","html-keyboard-response","347","181041","0.0-428.0","3YMTUJH0DT2TTOW3FIFUL6HTH9M4TF","A3RUL1OC4CAINK","356TQKY9XFJ5S7O4NGX4839SMNB87N","","null","<img src=""img/food1.png"" style=""width:200px;border:14px solid red;"">","null","","","","","","","","","",""
"","image-keyboard-response","348","181452","0.0-430.0","3YMTUJH0DT2TTOW3FIFUL6HTH9M4TF","A3RUL1OC4CAINK","356TQKY9XFJ5S7O4NGX4839SMNB87N","","410.10000002384186","img/food3.png","75","410.69999998807907","2","1","2","2","1,0.5,0,1,0.5,0,0.5,0,1","0,1,0.5,0,1,0.5,1,0.5,0","3","false",""
"","html-keyboard-response","349","181753","0.0-431.0","3YMTUJH0DT2TTOW3FIFUL6HTH9M4TF","A3RUL1OC4CAINK","356TQKY9XFJ5S7O4NGX4839SMNB87N","","null","<img src=""img/food3.png"" style=""width:200px; border:14px solid green;"">","null","","","","","","","","","",""
"","image-keyboard-response","350","182092","0.0-433.0","3YMTUJH0DT2TTOW3FIFUL6HTH9M4TF","A3RUL1OC4CAINK","356TQKY9XFJ5S7O4NGX4839SMNB87N","","337.89999997615814","img/food3.png","75","338.80000001192093","2","1","2","2","1,0.5,0,1,0.5,0,0.5,0,1","0,1,0.5,0,1,0.5,1,0.5,0","3","false",""
"","html-keyboard-response","351","182396","0.0-434.0","3YMTUJH0DT2TTOW3FIFUL6HTH9M4TF","A3RUL1OC4CAINK","356TQKY9XFJ5S7O4NGX4839SMNB87N","","null","<img src=""img/food3.png"" style=""width:200px; border:14px solid green;"">","null","","","","","","","","","",""
"","image-keyboard-response","352","182739","0.0-436.0","3YMTUJH0DT2TTOW3FIFUL6HTH9M4TF","A3RUL1OC4CAINK","356TQKY9XFJ5S7O4NGX4839SMNB87N","","341.7999999523163","img/food3.png","75","342.9000000357628","2","1","2","2","1,0.5,0,1,0.5,0,0.5,0,1","0,1,0.5,0,1,0.5,1,0.5,0","3","false",""
"","html-keyboard-response","353","183041","0.0-437.0","3YMTUJH0DT2TTOW3FIFUL6HTH9M4TF","A3RUL1OC4CAINK","356TQKY9XFJ5S7O4NGX4839SMNB87N","","null","<img src=""img/food3.png"" style=""width:200px; border:14px solid green;"">","null","","","","","","","","","",""
"","image-keyboard-response","354","183547","0.0-439.0","3YMTUJH0DT2TTOW3FIFUL6HTH9M4TF","A3RUL1OC4CAINK","356TQKY9XFJ5S7O4NGX4839SMNB87N","","504.10000002384186","img/food1.png","74","505.9000000357628","1","1","3","2","1,0.5,0,1,0.5,0,0.5,0,1","0,1,0.5,0,1,0.5,1,0.5,0","3","false",""
"","html-keyboard-response","355","183850","0.0-440.0","3YMTUJH0DT2TTOW3FIFUL6HTH9M4TF","A3RUL1OC4CAINK","356TQKY9XFJ5S7O4NGX4839SMNB87N","","null","<img src=""img/food1.png"" style=""width:200px; border:14px solid green;"">","null","","","","","","","","","",""
"","image-keyboard-response","356","184173","0.0-442.0","3YMTUJH0DT2TTOW3FIFUL6HTH9M4TF","A3RUL1OC4CAINK","356TQKY9XFJ5S7O4NGX4839SMNB87N","","320.60000002384186","img/food3.png","75","322","2","1","2","2","1,0.5,0,1,0.5,0,0.5,0,1","0,1,0.5,0,1,0.5,1,0.5,0","3","false",""
"","html-keyboard-response","357","184475","0.0-443.0","3YMTUJH0DT2TTOW3FIFUL6HTH9M4TF","A3RUL1OC4CAINK","356TQKY9XFJ5S7O4NGX4839SMNB87N","","null","<img src=""img/food3.png"" style=""width:200px; border:14px solid green;"">","null","","","","","","","","","",""
"","image-keyboard-response","358","184808","0.0-445.0","3YMTUJH0DT2TTOW3FIFUL6HTH9M4TF","A3RUL1OC4CAINK","356TQKY9XFJ5S7O4NGX4839SMNB87N","","330.5","img/food3.png","75","331.60000002384186","2","1","2","2","1,0.5,0,1,0.5,0,0.5,0,1","0,1,0.5,0,1,0.5,1,0.5,0","3","false",""
"","html-keyboard-response","359","185110","0.0-446.0","3YMTUJH0DT2TTOW3FIFUL6HTH9M4TF","A3RUL1OC4CAINK","356TQKY9XFJ5S7O4NGX4839SMNB87N","","null","<img src=""img/food3.png"" style=""width:200px; border:14px solid green;"">","null","","","","","","","","","",""
"","image-keyboard-response","360","185546","0.0-448.0","3YMTUJH0DT2TTOW3FIFUL6HTH9M4TF","A3RUL1OC4CAINK","356TQKY9XFJ5S7O4NGX4839SMNB87N","","434.4000000357628","img/food1.png","74","435.89999997615814","1","1","3","2","1,0.5,0,1,0.5,0,0.5,0,1","0,1,0.5,0,1,0.5,1,0.5,0","3","false",""
"","html-keyboard-response","361","185848","0.0-449.0","3YMTUJH0DT2TTOW3FIFUL6HTH9M4TF","A3RUL1OC4CAINK","356TQKY9XFJ5S7O4NGX4839SMNB87N","","null","<img src=""img/food1.png"" style=""width:200px; border:14px solid green;"">","null","","","","","","","","","",""
"","image-keyboard-response","362","186135","0.0-451.0","3YMTUJH0DT2TTOW3FIFUL6HTH9M4TF","A3RUL1OC4CAINK","356TQKY9XFJ5S7O4NGX4839SMNB87N","","284.80000001192093","img/food1.png","75","286.19999998807907","2","1","3","2","1,0.5,0,1,0.5,0,0.5,0,1","0,1,0.5,0,1,0.5,1,0.5,0","3","false",""
"","html-keyboard-response","363","186438","0.0-452.0","3YMTUJH0DT2TTOW3FIFUL6HTH9M4TF","A3RUL1OC4CAINK","356TQKY9XFJ5S7O4NGX4839SMNB87N","","null","<img src=""img/food1.png"" style=""width:200px; border:14px solid green;"">","null","","","","","","","","","",""
"","instructions","364","190061","0.0-454.0","3YMTUJH0DT2TTOW3FIFUL6HTH9M4TF","A3RUL1OC4CAINK","356TQKY9XFJ5S7O4NGX4839SMNB87N","[{""page_index"":0,""viewing_time"":3622}]","3622.199999988079","","","","","","","","","","","",""
"","survey-text","365","193985","0.0-455.0","3YMTUJH0DT2TTOW3FIFUL6HTH9M4TF","A3RUL1OC4CAINK","356TQKY9XFJ5S7O4NGX4839SMNB87N","","3921.600000023842","","","","","","","","","","","","{""Q0"":""A3RUL1OC4CAINK""}"
