"success","trial_type","trial_index","time_elapsed","internal_node_id","assignmentID","mturkID","hitID","view_history","rt","stimulus","key_press","reactionTime","a","r","warning","s","cond","reward_cond","reward_cond_actual","reward_matrix_idx","responses"
"true","fullscreen","0","92670","0.0-0.0","37WLF8U1WQC85SAU4XUHHDEBUZ9K66","A3S5AA4R3RIEEP","3XT3KXP24ZKFDDMCDS43FE3AU9W6IW","","","","","","","","","","","","","",""
"","instructions","1","116733","0.0-1.0","37WLF8U1WQC85SAU4XUHHDEBUZ9K66","A3S5AA4R3RIEEP","3XT3KXP24ZKFDDMCDS43FE3AU9W6IW","[{""page_index"":0,""viewing_time"":3052.7000000476837},{""page_index"":1,""viewing_time"":1967.7000000476837},{""page_index"":2,""viewing_time"":1352.2000000476837},{""page_index"":3,""viewing_time"":6855.799999952316},{""page_index"":4,""viewing_time"":5272.5},{""page_index"":5,""viewing_time"":2881.7000000476837},{""page_index"":6,""viewing_time"":2678}]","24061.200000047684","","","","","","","","","","","",""
"","instructions","2","138940","0.0-2.0","37WLF8U1WQC85SAU4XUHHDEBUZ9K66","A3S5AA4R3RIEEP","3XT3KXP24ZKFDDMCDS43FE3AU9W6IW","[{""page_index"":0,""viewing_time"":15550.700000047684},{""page_index"":1,""viewing_time"":6656}]","22207","","","","","","","","","","","",""
"","image-keyboard-response","3","139677","0.0-3.0","37WLF8U1WQC85SAU4XUHHDEBUZ9K66","A3S5AA4R3RIEEP","3XT3KXP24ZKFDDMCDS43FE3AU9W6IW","","734.9000000953674","img/food5.png","76","736","3","0","false","2","2","1,0.5,0,1,0.5,0,0.5,0,1","1,0.5,0,1,0.5,0,0.5,0,1","1",""
"","html-keyboard-response","4","139978","0.0-4.0","37WLF8U1WQC85SAU4XUHHDEBUZ9K66","A3S5AA4R3RIEEP","3XT3KXP24ZKFDDMCDS43FE3AU9W6IW","","null","<img src=""img/food5.png"" style=""width:200px;border:14px solid red;"">","null","","","","","","","","","",""
"","image-keyboard-response","5","140780","0.0-6.0","37WLF8U1WQC85SAU4XUHHDEBUZ9K66","A3S5AA4R3RIEEP","3XT3KXP24ZKFDDMCDS43FE3AU9W6IW","","800.4000000953674","img/food2.png","75","801.0999999046326","2","0","false","3","2","1,0.5,0,1,0.5,0,0.5,0,1","1,0.5,0,1,0.5,0,0.5,0,1","1",""
"","html-keyboard-response","6","141082","0.0-7.0","37WLF8U1WQC85SAU4XUHHDEBUZ9K66","A3S5AA4R3RIEEP","3XT3KXP24ZKFDDMCDS43FE3AU9W6IW","","null","<img src=""img/food2.png"" style=""width:200px;border:14px solid red;"">","null","","","","","","","","","",""
"","image-keyboard-response","7","141893","0.0-9.0","37WLF8U1WQC85SAU4XUHHDEBUZ9K66","A3S5AA4R3RIEEP","3XT3KXP24ZKFDDMCDS43FE3AU9W6IW","","809.5","img/food5.png","75","810.4000000953674","2","0","false","2","2","1,0.5,0,1,0.5,0,0.5,0,1","1,0.5,0,1,0.5,0,0.5,0,1","1",""
"","html-keyboard-response","8","142194","0.0-10.0","37WLF8U1WQC85SAU4XUHHDEBUZ9K66","A3S5AA4R3RIEEP","3XT3KXP24ZKFDDMCDS43FE3AU9W6IW","","null","<img src=""img/food5.png"" style=""width:200px;border:14px solid red;"">","null","","","","","","","","","",""
"","image-keyboard-response","9","143195","0.0-12.0","37WLF8U1WQC85SAU4XUHHDEBUZ9K66","A3S5AA4R3RIEEP","3XT3KXP24ZKFDDMCDS43FE3AU9W6IW","","","img/food2.png","","1001.1999998092651","-1","0","true","3","2","1,0.5,0,1,0.5,0,0.5,0,1","1,0.5,0,1,0.5,0,0.5,0,1","1",""
"","html-keyboard-response","10","143497","0.0-13.0","37WLF8U1WQC85SAU4XUHHDEBUZ9K66","A3S5AA4R3RIEEP","3XT3KXP24ZKFDDMCDS43FE3AU9W6IW","","null","<img src=""img/food2.png"" style=""width:200px;border:14px solid red;"">","null","","","","","","","","","",""
"","html-keyboard-response","11","159460","0.0-14.0-0.0","37WLF8U1WQC85SAU4XUHHDEBUZ9K66","A3S5AA4R3RIEEP","3XT3KXP24ZKFDDMCDS43FE3AU9W6IW","","","","","","","","","","","","","",""
"","image-keyboard-response","12","160292","0.0-15.0","37WLF8U1WQC85SAU4XUHHDEBUZ9K66","A3S5AA4R3RIEEP","3XT3KXP24ZKFDDMCDS43FE3AU9W6IW","","830.7999999523163","img/food1.png","74","831.7999999523163","1","1","false","1","2","1,0.5,0,1,0.5,0,0.5,0,1","1,0.5,0,1,0.5,0,0.5,0,1","1",""
"","html-keyboard-response","13","160594","0.0-16.0","37WLF8U1WQC85SAU4XUHHDEBUZ9K66","A3S5AA4R3RIEEP","3XT3KXP24ZKFDDMCDS43FE3AU9W6IW","","null","<img src=""img/food1.png"" style=""width:200px; border:14px solid green;"">","null","","","","","","","","","",""
"","image-keyboard-response","14","160916","0.0-18.0","37WLF8U1WQC85SAU4XUHHDEBUZ9K66","A3S5AA4R3RIEEP","3XT3KXP24ZKFDDMCDS43FE3AU9W6IW","","320.90000009536743","img/food2.png","75","321.89999985694885","2","0","false","3","2","1,0.5,0,1,0.5,0,0.5,0,1","1,0.5,0,1,0.5,0,0.5,0,1","1",""
"","html-keyboard-response","15","161218","0.0-19.0","37WLF8U1WQC85SAU4XUHHDEBUZ9K66","A3S5AA4R3RIEEP","3XT3KXP24ZKFDDMCDS43FE3AU9W6IW","","null","<img src=""img/food2.png"" style=""width:200px;border:14px solid red;"">","null","","","","","","","","","",""
"","image-keyboard-response","16","161484","0.0-21.0","37WLF8U1WQC85SAU4XUHHDEBUZ9K66","A3S5AA4R3RIEEP","3XT3KXP24ZKFDDMCDS43FE3AU9W6IW","","264.90000009536743","img/food1.png","76","265.7000000476837","3","0","false","1","2","1,0.5,0,1,0.5,0,0.5,0,1","1,0.5,0,1,0.5,0,0.5,0,1","1",""
"","html-keyboard-response","17","161786","0.0-22.0","37WLF8U1WQC85SAU4XUHHDEBUZ9K66","A3S5AA4R3RIEEP","3XT3KXP24ZKFDDMCDS43FE3AU9W6IW","","null","<img src=""img/food1.png"" style=""width:200px;border:14px solid red;"">","null","","","","","","","","","",""
"","image-keyboard-response","18","162100","0.0-24.0","37WLF8U1WQC85SAU4XUHHDEBUZ9K66","A3S5AA4R3RIEEP","3XT3KXP24ZKFDDMCDS43FE3AU9W6IW","","313.10000014305115","img/food1.png","74","313.90000009536743","1","1","false","1","2","1,0.5,0,1,0.5,0,0.5,0,1","1,0.5,0,1,0.5,0,0.5,0,1","1",""
"","html-keyboard-response","19","162402","0.0-25.0","37WLF8U1WQC85SAU4XUHHDEBUZ9K66","A3S5AA4R3RIEEP","3XT3KXP24ZKFDDMCDS43FE3AU9W6IW","","null","<img src=""img/food1.png"" style=""width:200px; border:14px solid green;"">","null","","","","","","","","","",""
"","image-keyboard-response","20","162862","0.0-27.0","37WLF8U1WQC85SAU4XUHHDEBUZ9K66","A3S5AA4R3RIEEP","3XT3KXP24ZKFDDMCDS43FE3AU9W6IW","","459.60000014305115","img/food1.png","74","460.5","1","1","false","1","2","1,0.5,0,1,0.5,0,0.5,0,1","1,0.5,0,1,0.5,0,0.5,0,1","1",""
"","html-keyboard-response","21","163164","0.0-28.0","37WLF8U1WQC85SAU4XUHHDEBUZ9K66","A3S5AA4R3RIEEP","3XT3KXP24ZKFDDMCDS43FE3AU9W6IW","","null","<img src=""img/food1.png"" style=""width:200px; border:14px solid green;"">","null","","","","","","","","","",""
"","image-keyboard-response","22","163436","0.0-30.0","37WLF8U1WQC85SAU4XUHHDEBUZ9K66","A3S5AA4R3RIEEP","3XT3KXP24ZKFDDMCDS43FE3AU9W6IW","","271","img/food1.png","74","271.69999980926514","1","1","false","1","2","1,0.5,0,1,0.5,0,0.5,0,1","1,0.5,0,1,0.5,0,0.5,0,1","1",""
"","html-keyboard-response","23","163738","0.0-31.0","37WLF8U1WQC85SAU4XUHHDEBUZ9K66","A3S5AA4R3RIEEP","3XT3KXP24ZKFDDMCDS43FE3AU9W6IW","","null","<img src=""img/food1.png"" style=""width:200px; border:14px solid green;"">","null","","","","","","","","","",""
"","image-keyboard-response","24","164356","0.0-33.0","37WLF8U1WQC85SAU4XUHHDEBUZ9K66","A3S5AA4R3RIEEP","3XT3KXP24ZKFDDMCDS43FE3AU9W6IW","","617.4000000953674","img/food2.png","75","618.2000000476837","2","0","false","3","2","1,0.5,0,1,0.5,0,0.5,0,1","1,0.5,0,1,0.5,0,0.5,0,1","1",""
"","html-keyboard-response","25","164657","0.0-34.0","37WLF8U1WQC85SAU4XUHHDEBUZ9K66","A3S5AA4R3RIEEP","3XT3KXP24ZKFDDMCDS43FE3AU9W6IW","","null","<img src=""img/food2.png"" style=""width:200px;border:14px solid red;"">","null","","","","","","","","","",""
"","image-keyboard-response","26","164764","0.0-36.0","37WLF8U1WQC85SAU4XUHHDEBUZ9K66","A3S5AA4R3RIEEP","3XT3KXP24ZKFDDMCDS43FE3AU9W6IW","","106.09999990463257","img/food2.png","76","106.70000004768372","3","1","false","3","2","1,0.5,0,1,0.5,0,0.5,0,1","1,0.5,0,1,0.5,0,0.5,0,1","1",""
"","html-keyboard-response","27","165066","0.0-37.0","37WLF8U1WQC85SAU4XUHHDEBUZ9K66","A3S5AA4R3RIEEP","3XT3KXP24ZKFDDMCDS43FE3AU9W6IW","","null","<img src=""img/food2.png"" style=""width:200px; border:14px solid green;"">","null","","","","","","","","","",""
"","image-keyboard-response","28","165396","0.0-39.0","37WLF8U1WQC85SAU4XUHHDEBUZ9K66","A3S5AA4R3RIEEP","3XT3KXP24ZKFDDMCDS43FE3AU9W6IW","","329.2999999523163","img/food5.png","76","329.7999999523163","3","0","false","2","2","1,0.5,0,1,0.5,0,0.5,0,1","1,0.5,0,1,0.5,0,0.5,0,1","1",""
"","html-keyboard-response","29","165697","0.0-40.0","37WLF8U1WQC85SAU4XUHHDEBUZ9K66","A3S5AA4R3RIEEP","3XT3KXP24ZKFDDMCDS43FE3AU9W6IW","","null","<img src=""img/food5.png"" style=""width:200px;border:14px solid red;"">","null","","","","","","","","","",""
"","image-keyboard-response","30","166052","0.0-42.0","37WLF8U1WQC85SAU4XUHHDEBUZ9K66","A3S5AA4R3RIEEP","3XT3KXP24ZKFDDMCDS43FE3AU9W6IW","","354.2000000476837","img/food1.png","75","354.90000009536743","2","1","false","1","2","1,0.5,0,1,0.5,0,0.5,0,1","1,0.5,0,1,0.5,0,0.5,0,1","1",""
"","html-keyboard-response","31","166355","0.0-43.0","37WLF8U1WQC85SAU4XUHHDEBUZ9K66","A3S5AA4R3RIEEP","3XT3KXP24ZKFDDMCDS43FE3AU9W6IW","","null","<img src=""img/food1.png"" style=""width:200px; border:14px solid green;"">","null","","","","","","","","","",""
"","image-keyboard-response","32","166604","0.0-45.0","37WLF8U1WQC85SAU4XUHHDEBUZ9K66","A3S5AA4R3RIEEP","3XT3KXP24ZKFDDMCDS43FE3AU9W6IW","","248.29999995231628","img/food2.png","74","248.90000009536743","1","1","false","3","2","1,0.5,0,1,0.5,0,0.5,0,1","1,0.5,0,1,0.5,0,0.5,0,1","1",""
"","html-keyboard-response","33","166906","0.0-46.0","37WLF8U1WQC85SAU4XUHHDEBUZ9K66","A3S5AA4R3RIEEP","3XT3KXP24ZKFDDMCDS43FE3AU9W6IW","","null","<img src=""img/food2.png"" style=""width:200px; border:14px solid green;"">","null","","","","","","","","","",""
"","image-keyboard-response","34","167087","0.0-48.0","37WLF8U1WQC85SAU4XUHHDEBUZ9K66","A3S5AA4R3RIEEP","3XT3KXP24ZKFDDMCDS43FE3AU9W6IW","","179.90000009536743","img/food2.png","75","180.70000004768372","2","0","false","3","2","1,0.5,0,1,0.5,0,0.5,0,1","1,0.5,0,1,0.5,0,0.5,0,1","1",""
"","html-keyboard-response","35","167389","0.0-49.0","37WLF8U1WQC85SAU4XUHHDEBUZ9K66","A3S5AA4R3RIEEP","3XT3KXP24ZKFDDMCDS43FE3AU9W6IW","","null","<img src=""img/food2.png"" style=""width:200px;border:14px solid red;"">","null","","","","","","","","","",""
"","image-keyboard-response","36","167532","0.0-51.0","37WLF8U1WQC85SAU4XUHHDEBUZ9K66","A3S5AA4R3RIEEP","3XT3KXP24ZKFDDMCDS43FE3AU9W6IW","","141.80000019073486","img/food2.png","76","142.5","3","1","false","3","2","1,0.5,0,1,0.5,0,0.5,0,1","1,0.5,0,1,0.5,0,0.5,0,1","1",""
"","html-keyboard-response","37","167834","0.0-52.0","37WLF8U1WQC85SAU4XUHHDEBUZ9K66","A3S5AA4R3RIEEP","3XT3KXP24ZKFDDMCDS43FE3AU9W6IW","","null","<img src=""img/food2.png"" style=""width:200px; border:14px solid green;"">","null","","","","","","","","","",""
"","image-keyboard-response","38","168172","0.0-54.0","37WLF8U1WQC85SAU4XUHHDEBUZ9K66","A3S5AA4R3RIEEP","3XT3KXP24ZKFDDMCDS43FE3AU9W6IW","","336.5","img/food2.png","76","337.5","3","1","false","3","2","1,0.5,0,1,0.5,0,0.5,0,1","1,0.5,0,1,0.5,0,0.5,0,1","1",""
"","html-keyboard-response","39","168474","0.0-55.0","37WLF8U1WQC85SAU4XUHHDEBUZ9K66","A3S5AA4R3RIEEP","3XT3KXP24ZKFDDMCDS43FE3AU9W6IW","","null","<img src=""img/food2.png"" style=""width:200px; border:14px solid green;"">","null","","","","","","","","","",""
"","image-keyboard-response","40","168788","0.0-57.0","37WLF8U1WQC85SAU4XUHHDEBUZ9K66","A3S5AA4R3RIEEP","3XT3KXP24ZKFDDMCDS43FE3AU9W6IW","","312.80000019073486","img/food1.png","76","313.5","3","0","false","1","2","1,0.5,0,1,0.5,0,0.5,0,1","1,0.5,0,1,0.5,0,0.5,0,1","1",""
"","html-keyboard-response","41","169096","0.0-58.0","37WLF8U1WQC85SAU4XUHHDEBUZ9K66","A3S5AA4R3RIEEP","3XT3KXP24ZKFDDMCDS43FE3AU9W6IW","","null","<img src=""img/food1.png"" style=""width:200px;border:14px solid red;"">","null","","","","","","","","","",""
"","image-keyboard-response","42","169372","0.0-60.0","37WLF8U1WQC85SAU4XUHHDEBUZ9K66","A3S5AA4R3RIEEP","3XT3KXP24ZKFDDMCDS43FE3AU9W6IW","","275","img/food2.png","74","275.90000009536743","1","1","false","3","2","1,0.5,0,1,0.5,0,0.5,0,1","1,0.5,0,1,0.5,0,0.5,0,1","1",""
"","html-keyboard-response","43","169674","0.0-61.0","37WLF8U1WQC85SAU4XUHHDEBUZ9K66","A3S5AA4R3RIEEP","3XT3KXP24ZKFDDMCDS43FE3AU9W6IW","","null","<img src=""img/food2.png"" style=""width:200px; border:14px solid green;"">","null","","","","","","","","","",""
"","image-keyboard-response","44","169893","0.0-63.0","37WLF8U1WQC85SAU4XUHHDEBUZ9K66","A3S5AA4R3RIEEP","3XT3KXP24ZKFDDMCDS43FE3AU9W6IW","","218","img/food1.png","76","218.60000014305115","3","0","false","1","2","1,0.5,0,1,0.5,0,0.5,0,1","1,0.5,0,1,0.5,0,0.5,0,1","1",""
"","html-keyboard-response","45","170197","0.0-64.0","37WLF8U1WQC85SAU4XUHHDEBUZ9K66","A3S5AA4R3RIEEP","3XT3KXP24ZKFDDMCDS43FE3AU9W6IW","","null","<img src=""img/food1.png"" style=""width:200px;border:14px solid red;"">","null","","","","","","","","","",""
"","image-keyboard-response","46","170308","0.0-66.0","37WLF8U1WQC85SAU4XUHHDEBUZ9K66","A3S5AA4R3RIEEP","3XT3KXP24ZKFDDMCDS43FE3AU9W6IW","","109.5","img/food1.png","74","110.09999990463257","1","1","false","1","2","1,0.5,0,1,0.5,0,0.5,0,1","1,0.5,0,1,0.5,0,0.5,0,1","1",""
"","html-keyboard-response","47","170609","0.0-67.0","37WLF8U1WQC85SAU4XUHHDEBUZ9K66","A3S5AA4R3RIEEP","3XT3KXP24ZKFDDMCDS43FE3AU9W6IW","","null","<img src=""img/food1.png"" style=""width:200px; border:14px solid green;"">","null","","","","","","","","","",""
"","image-keyboard-response","48","170740","0.0-69.0","37WLF8U1WQC85SAU4XUHHDEBUZ9K66","A3S5AA4R3RIEEP","3XT3KXP24ZKFDDMCDS43FE3AU9W6IW","","129.70000004768372","img/food1.png","74","130.29999995231628","1","1","false","1","2","1,0.5,0,1,0.5,0,0.5,0,1","1,0.5,0,1,0.5,0,0.5,0,1","1",""
"","html-keyboard-response","49","171041","0.0-70.0","37WLF8U1WQC85SAU4XUHHDEBUZ9K66","A3S5AA4R3RIEEP","3XT3KXP24ZKFDDMCDS43FE3AU9W6IW","","null","<img src=""img/food1.png"" style=""width:200px; border:14px solid green;"">","null","","","","","","","","","",""
"","image-keyboard-response","50","171300","0.0-72.0","37WLF8U1WQC85SAU4XUHHDEBUZ9K66","A3S5AA4R3RIEEP","3XT3KXP24ZKFDDMCDS43FE3AU9W6IW","","257.89999985694885","img/food1.png","74","258.5","1","1","false","1","2","1,0.5,0,1,0.5,0,0.5,0,1","1,0.5,0,1,0.5,0,0.5,0,1","1",""
"","html-keyboard-response","51","171602","0.0-73.0","37WLF8U1WQC85SAU4XUHHDEBUZ9K66","A3S5AA4R3RIEEP","3XT3KXP24ZKFDDMCDS43FE3AU9W6IW","","null","<img src=""img/food1.png"" style=""width:200px; border:14px solid green;"">","null","","","","","","","","","",""
"","image-keyboard-response","52","171844","0.0-75.0","37WLF8U1WQC85SAU4XUHHDEBUZ9K66","A3S5AA4R3RIEEP","3XT3KXP24ZKFDDMCDS43FE3AU9W6IW","","241.40000009536743","img/food1.png","74","242.10000014305115","1","1","false","1","2","1,0.5,0,1,0.5,0,0.5,0,1","1,0.5,0,1,0.5,0,0.5,0,1","1",""
"","html-keyboard-response","53","172145","0.0-76.0","37WLF8U1WQC85SAU4XUHHDEBUZ9K66","A3S5AA4R3RIEEP","3XT3KXP24ZKFDDMCDS43FE3AU9W6IW","","null","<img src=""img/food1.png"" style=""width:200px; border:14px solid green;"">","null","","","","","","","","","",""
"","image-keyboard-response","54","172692","0.0-78.0","37WLF8U1WQC85SAU4XUHHDEBUZ9K66","A3S5AA4R3RIEEP","3XT3KXP24ZKFDDMCDS43FE3AU9W6IW","","546.2000000476837","img/food5.png","75","546.9000000953674","2","0","false","2","2","1,0.5,0,1,0.5,0,0.5,0,1","1,0.5,0,1,0.5,0,0.5,0,1","1",""
"","html-keyboard-response","55","172993","0.0-79.0","37WLF8U1WQC85SAU4XUHHDEBUZ9K66","A3S5AA4R3RIEEP","3XT3KXP24ZKFDDMCDS43FE3AU9W6IW","","null","<img src=""img/food5.png"" style=""width:200px;border:14px solid red;"">","null","","","","","","","","","",""
"","image-keyboard-response","56","173404","0.0-81.0","37WLF8U1WQC85SAU4XUHHDEBUZ9K66","A3S5AA4R3RIEEP","3XT3KXP24ZKFDDMCDS43FE3AU9W6IW","","410.10000014305115","img/food5.png","75","410.7000000476837","2","1","false","2","2","1,0.5,0,1,0.5,0,0.5,0,1","1,0.5,0,1,0.5,0,0.5,0,1","1",""
"","html-keyboard-response","57","173705","0.0-82.0","37WLF8U1WQC85SAU4XUHHDEBUZ9K66","A3S5AA4R3RIEEP","3XT3KXP24ZKFDDMCDS43FE3AU9W6IW","","null","<img src=""img/food5.png"" style=""width:200px; border:14px solid green;"">","null","","","","","","","","","",""
"","image-keyboard-response","58","173732","0.0-84.0","37WLF8U1WQC85SAU4XUHHDEBUZ9K66","A3S5AA4R3RIEEP","3XT3KXP24ZKFDDMCDS43FE3AU9W6IW","","25.5","img/food1.png","75","26.09999990463257","2","0","false","1","2","1,0.5,0,1,0.5,0,0.5,0,1","1,0.5,0,1,0.5,0,0.5,0,1","1",""
"","html-keyboard-response","59","174033","0.0-85.0","37WLF8U1WQC85SAU4XUHHDEBUZ9K66","A3S5AA4R3RIEEP","3XT3KXP24ZKFDDMCDS43FE3AU9W6IW","","null","<img src=""img/food1.png"" style=""width:200px;border:14px solid red;"">","null","","","","","","","","","",""
"","image-keyboard-response","60","174444","0.0-87.0","37WLF8U1WQC85SAU4XUHHDEBUZ9K66","A3S5AA4R3RIEEP","3XT3KXP24ZKFDDMCDS43FE3AU9W6IW","","409.7999999523163","img/food5.png","74","410.30000019073486","1","1","false","2","2","1,0.5,0,1,0.5,0,0.5,0,1","1,0.5,0,1,0.5,0,0.5,0,1","1",""
"","html-keyboard-response","61","174745","0.0-88.0","37WLF8U1WQC85SAU4XUHHDEBUZ9K66","A3S5AA4R3RIEEP","3XT3KXP24ZKFDDMCDS43FE3AU9W6IW","","null","<img src=""img/food5.png"" style=""width:200px; border:14px solid green;"">","null","","","","","","","","","",""
"","image-keyboard-response","62","174764","0.0-90.0","37WLF8U1WQC85SAU4XUHHDEBUZ9K66","A3S5AA4R3RIEEP","3XT3KXP24ZKFDDMCDS43FE3AU9W6IW","","17.399999856948853","img/food5.png","75","18.200000047683716","2","1","false","2","2","1,0.5,0,1,0.5,0,0.5,0,1","1,0.5,0,1,0.5,0,0.5,0,1","1",""
"","html-keyboard-response","63","175066","0.0-91.0","37WLF8U1WQC85SAU4XUHHDEBUZ9K66","A3S5AA4R3RIEEP","3XT3KXP24ZKFDDMCDS43FE3AU9W6IW","","null","<img src=""img/food5.png"" style=""width:200px; border:14px solid green;"">","null","","","","","","","","","",""
"","image-keyboard-response","64","175364","0.0-93.0","37WLF8U1WQC85SAU4XUHHDEBUZ9K66","A3S5AA4R3RIEEP","3XT3KXP24ZKFDDMCDS43FE3AU9W6IW","","296.7000000476837","img/food5.png","75","297.40000009536743","2","0","false","2","2","1,0.5,0,1,0.5,0,0.5,0,1","1,0.5,0,1,0.5,0,0.5,0,1","1",""
"","html-keyboard-response","65","175665","0.0-94.0","37WLF8U1WQC85SAU4XUHHDEBUZ9K66","A3S5AA4R3RIEEP","3XT3KXP24ZKFDDMCDS43FE3AU9W6IW","","null","<img src=""img/food5.png"" style=""width:200px;border:14px solid red;"">","null","","","","","","","","","",""
"","image-keyboard-response","66","175724","0.0-96.0","37WLF8U1WQC85SAU4XUHHDEBUZ9K66","A3S5AA4R3RIEEP","3XT3KXP24ZKFDDMCDS43FE3AU9W6IW","","57.19999980926514","img/food2.png","75","58","2","0","false","3","2","1,0.5,0,1,0.5,0,0.5,0,1","1,0.5,0,1,0.5,0,0.5,0,1","1",""
"","html-keyboard-response","67","176028","0.0-97.0","37WLF8U1WQC85SAU4XUHHDEBUZ9K66","A3S5AA4R3RIEEP","3XT3KXP24ZKFDDMCDS43FE3AU9W6IW","","null","<img src=""img/food2.png"" style=""width:200px;border:14px solid red;"">","null","","","","","","","","","",""
"","image-keyboard-response","68","176612","0.0-99.0","37WLF8U1WQC85SAU4XUHHDEBUZ9K66","A3S5AA4R3RIEEP","3XT3KXP24ZKFDDMCDS43FE3AU9W6IW","","583","img/food5.png","76","583.7000000476837","3","0","false","2","2","1,0.5,0,1,0.5,0,0.5,0,1","1,0.5,0,1,0.5,0,0.5,0,1","1",""
"","html-keyboard-response","69","176930","0.0-100.0","37WLF8U1WQC85SAU4XUHHDEBUZ9K66","A3S5AA4R3RIEEP","3XT3KXP24ZKFDDMCDS43FE3AU9W6IW","","null","<img src=""img/food5.png"" style=""width:200px;border:14px solid red;"">","null","","","","","","","","","",""
"","image-keyboard-response","70","177060","0.0-102.0","37WLF8U1WQC85SAU4XUHHDEBUZ9K66","A3S5AA4R3RIEEP","3XT3KXP24ZKFDDMCDS43FE3AU9W6IW","","128.90000009536743","img/food2.png","75","129.90000009536743","2","0","false","3","2","1,0.5,0,1,0.5,0,0.5,0,1","1,0.5,0,1,0.5,0,0.5,0,1","1",""
"","html-keyboard-response","71","177361","0.0-103.0","37WLF8U1WQC85SAU4XUHHDEBUZ9K66","A3S5AA4R3RIEEP","3XT3KXP24ZKFDDMCDS43FE3AU9W6IW","","null","<img src=""img/food2.png"" style=""width:200px;border:14px solid red;"">","null","","","","","","","","","",""
"","image-keyboard-response","72","177412","0.0-105.0","37WLF8U1WQC85SAU4XUHHDEBUZ9K66","A3S5AA4R3RIEEP","3XT3KXP24ZKFDDMCDS43FE3AU9W6IW","","49.700000047683716","img/food1.png","75","50.299999952316284","2","0","false","1","2","1,0.5,0,1,0.5,0,0.5,0,1","1,0.5,0,1,0.5,0,0.5,0,1","1",""
"","html-keyboard-response","73","177714","0.0-106.0","37WLF8U1WQC85SAU4XUHHDEBUZ9K66","A3S5AA4R3RIEEP","3XT3KXP24ZKFDDMCDS43FE3AU9W6IW","","null","<img src=""img/food1.png"" style=""width:200px;border:14px solid red;"">","null","","","","","","","","","",""
"","image-keyboard-response","74","177797","0.0-108.0","37WLF8U1WQC85SAU4XUHHDEBUZ9K66","A3S5AA4R3RIEEP","3XT3KXP24ZKFDDMCDS43FE3AU9W6IW","","82.09999990463257","img/food1.png","76","82.90000009536743","3","0","false","1","2","1,0.5,0,1,0.5,0,0.5,0,1","1,0.5,0,1,0.5,0,0.5,0,1","1",""
"","html-keyboard-response","75","178098","0.0-109.0","37WLF8U1WQC85SAU4XUHHDEBUZ9K66","A3S5AA4R3RIEEP","3XT3KXP24ZKFDDMCDS43FE3AU9W6IW","","null","<img src=""img/food1.png"" style=""width:200px;border:14px solid red;"">","null","","","","","","","","","",""
"","image-keyboard-response","76","178420","0.0-111.0","37WLF8U1WQC85SAU4XUHHDEBUZ9K66","A3S5AA4R3RIEEP","3XT3KXP24ZKFDDMCDS43FE3AU9W6IW","","320.60000014305115","img/food5.png","74","321.2000000476837","1","1","false","2","2","1,0.5,0,1,0.5,0,0.5,0,1","1,0.5,0,1,0.5,0,0.5,0,1","1",""
"","html-keyboard-response","77","178722","0.0-112.0","37WLF8U1WQC85SAU4XUHHDEBUZ9K66","A3S5AA4R3RIEEP","3XT3KXP24ZKFDDMCDS43FE3AU9W6IW","","null","<img src=""img/food5.png"" style=""width:200px; border:14px solid green;"">","null","","","","","","","","","",""
"","image-keyboard-response","78","179204","0.0-114.0","37WLF8U1WQC85SAU4XUHHDEBUZ9K66","A3S5AA4R3RIEEP","3XT3KXP24ZKFDDMCDS43FE3AU9W6IW","","481.40000009536743","img/food1.png","74","482.10000014305115","1","1","false","1","2","1,0.5,0,1,0.5,0,0.5,0,1","1,0.5,0,1,0.5,0,0.5,0,1","1",""
"","html-keyboard-response","79","179506","0.0-115.0","37WLF8U1WQC85SAU4XUHHDEBUZ9K66","A3S5AA4R3RIEEP","3XT3KXP24ZKFDDMCDS43FE3AU9W6IW","","null","<img src=""img/food1.png"" style=""width:200px; border:14px solid green;"">","null","","","","","","","","","",""
"","image-keyboard-response","80","179820","0.0-117.0","37WLF8U1WQC85SAU4XUHHDEBUZ9K66","A3S5AA4R3RIEEP","3XT3KXP24ZKFDDMCDS43FE3AU9W6IW","","312.7999999523163","img/food1.png","75","313.5","2","1","false","1","2","1,0.5,0,1,0.5,0,0.5,0,1","1,0.5,0,1,0.5,0,0.5,0,1","1",""
"","html-keyboard-response","81","180121","0.0-118.0","37WLF8U1WQC85SAU4XUHHDEBUZ9K66","A3S5AA4R3RIEEP","3XT3KXP24ZKFDDMCDS43FE3AU9W6IW","","null","<img src=""img/food1.png"" style=""width:200px; border:14px solid green;"">","null","","","","","","","","","",""
"","image-keyboard-response","82","180620","0.0-120.0","37WLF8U1WQC85SAU4XUHHDEBUZ9K66","A3S5AA4R3RIEEP","3XT3KXP24ZKFDDMCDS43FE3AU9W6IW","","498.2000000476837","img/food2.png","74","498.90000009536743","1","1","false","3","2","1,0.5,0,1,0.5,0,0.5,0,1","1,0.5,0,1,0.5,0,0.5,0,1","1",""
"","html-keyboard-response","83","180921","0.0-121.0","37WLF8U1WQC85SAU4XUHHDEBUZ9K66","A3S5AA4R3RIEEP","3XT3KXP24ZKFDDMCDS43FE3AU9W6IW","","null","<img src=""img/food2.png"" style=""width:200px; border:14px solid green;"">","null","","","","","","","","","",""
"","image-keyboard-response","84","180988","0.0-123.0","37WLF8U1WQC85SAU4XUHHDEBUZ9K66","A3S5AA4R3RIEEP","3XT3KXP24ZKFDDMCDS43FE3AU9W6IW","","65.5","img/food5.png","76","66.09999990463257","3","0","false","2","2","1,0.5,0,1,0.5,0,0.5,0,1","1,0.5,0,1,0.5,0,0.5,0,1","1",""
"","html-keyboard-response","85","181289","0.0-124.0","37WLF8U1WQC85SAU4XUHHDEBUZ9K66","A3S5AA4R3RIEEP","3XT3KXP24ZKFDDMCDS43FE3AU9W6IW","","null","<img src=""img/food5.png"" style=""width:200px;border:14px solid red;"">","null","","","","","","","","","",""
"","image-keyboard-response","86","181564","0.0-126.0","37WLF8U1WQC85SAU4XUHHDEBUZ9K66","A3S5AA4R3RIEEP","3XT3KXP24ZKFDDMCDS43FE3AU9W6IW","","274.2999999523163","img/food2.png","76","274.7999999523163","3","1","false","3","2","1,0.5,0,1,0.5,0,0.5,0,1","1,0.5,0,1,0.5,0,0.5,0,1","1",""
"","html-keyboard-response","87","181866","0.0-127.0","37WLF8U1WQC85SAU4XUHHDEBUZ9K66","A3S5AA4R3RIEEP","3XT3KXP24ZKFDDMCDS43FE3AU9W6IW","","null","<img src=""img/food2.png"" style=""width:200px; border:14px solid green;"">","null","","","","","","","","","",""
"","image-keyboard-response","88","181908","0.0-129.0","37WLF8U1WQC85SAU4XUHHDEBUZ9K66","A3S5AA4R3RIEEP","3XT3KXP24ZKFDDMCDS43FE3AU9W6IW","","40.799999952316284","img/food2.png","75","41.40000009536743","2","0","false","3","2","1,0.5,0,1,0.5,0,0.5,0,1","1,0.5,0,1,0.5,0,0.5,0,1","1",""
"","html-keyboard-response","89","182209","0.0-130.0","37WLF8U1WQC85SAU4XUHHDEBUZ9K66","A3S5AA4R3RIEEP","3XT3KXP24ZKFDDMCDS43FE3AU9W6IW","","null","<img src=""img/food2.png"" style=""width:200px;border:14px solid red;"">","null","","","","","","","","","",""
"","image-keyboard-response","90","182252","0.0-132.0","37WLF8U1WQC85SAU4XUHHDEBUZ9K66","A3S5AA4R3RIEEP","3XT3KXP24ZKFDDMCDS43FE3AU9W6IW","","42.200000047683716","img/food2.png","74","42.799999952316284","1","0","false","3","2","1,0.5,0,1,0.5,0,0.5,0,1","1,0.5,0,1,0.5,0,0.5,0,1","1",""
"","html-keyboard-response","91","182553","0.0-133.0","37WLF8U1WQC85SAU4XUHHDEBUZ9K66","A3S5AA4R3RIEEP","3XT3KXP24ZKFDDMCDS43FE3AU9W6IW","","null","<img src=""img/food2.png"" style=""width:200px;border:14px solid red;"">","null","","","","","","","","","",""
"","image-keyboard-response","92","182556","0.0-135.0","37WLF8U1WQC85SAU4XUHHDEBUZ9K66","A3S5AA4R3RIEEP","3XT3KXP24ZKFDDMCDS43FE3AU9W6IW","","1.8999998569488525","img/food1.png","76","2.5","3","0","false","1","2","1,0.5,0,1,0.5,0,0.5,0,1","1,0.5,0,1,0.5,0,0.5,0,1","1",""
"","html-keyboard-response","93","182857","0.0-136.0","37WLF8U1WQC85SAU4XUHHDEBUZ9K66","A3S5AA4R3RIEEP","3XT3KXP24ZKFDDMCDS43FE3AU9W6IW","","null","<img src=""img/food1.png"" style=""width:200px;border:14px solid red;"">","null","","","","","","","","","",""
"","image-keyboard-response","94","182876","0.0-138.0","37WLF8U1WQC85SAU4XUHHDEBUZ9K66","A3S5AA4R3RIEEP","3XT3KXP24ZKFDDMCDS43FE3AU9W6IW","","18.200000047683716","img/food2.png","76","18.899999856948853","3","1","false","3","2","1,0.5,0,1,0.5,0,0.5,0,1","1,0.5,0,1,0.5,0,0.5,0,1","1",""
"","html-keyboard-response","95","183177","0.0-139.0","37WLF8U1WQC85SAU4XUHHDEBUZ9K66","A3S5AA4R3RIEEP","3XT3KXP24ZKFDDMCDS43FE3AU9W6IW","","null","<img src=""img/food2.png"" style=""width:200px; border:14px solid green;"">","null","","","","","","","","","",""
"","image-keyboard-response","96","183196","0.0-141.0","37WLF8U1WQC85SAU4XUHHDEBUZ9K66","A3S5AA4R3RIEEP","3XT3KXP24ZKFDDMCDS43FE3AU9W6IW","","17.90000009536743","img/food5.png","75","18.5","2","0","false","2","2","1,0.5,0,1,0.5,0,0.5,0,1","1,0.5,0,1,0.5,0,0.5,0,1","1",""
"","html-keyboard-response","97","183498","0.0-142.0","37WLF8U1WQC85SAU4XUHHDEBUZ9K66","A3S5AA4R3RIEEP","3XT3KXP24ZKFDDMCDS43FE3AU9W6IW","","null","<img src=""img/food5.png"" style=""width:200px;border:14px solid red;"">","null","","","","","","","","","",""
"","image-keyboard-response","98","183660","0.0-144.0","37WLF8U1WQC85SAU4XUHHDEBUZ9K66","A3S5AA4R3RIEEP","3XT3KXP24ZKFDDMCDS43FE3AU9W6IW","","161.10000014305115","img/food5.png","76","161.89999985694885","3","0","false","2","2","1,0.5,0,1,0.5,0,0.5,0,1","1,0.5,0,1,0.5,0,0.5,0,1","1",""
"","html-keyboard-response","99","183961","0.0-145.0","37WLF8U1WQC85SAU4XUHHDEBUZ9K66","A3S5AA4R3RIEEP","3XT3KXP24ZKFDDMCDS43FE3AU9W6IW","","null","<img src=""img/food5.png"" style=""width:200px;border:14px solid red;"">","null","","","","","","","","","",""
"","image-keyboard-response","100","183996","0.0-147.0","37WLF8U1WQC85SAU4XUHHDEBUZ9K66","A3S5AA4R3RIEEP","3XT3KXP24ZKFDDMCDS43FE3AU9W6IW","","33.90000009536743","img/food2.png","75","34.700000047683716","2","0","false","3","2","1,0.5,0,1,0.5,0,0.5,0,1","1,0.5,0,1,0.5,0,0.5,0,1","1",""
"","html-keyboard-response","101","184298","0.0-148.0","37WLF8U1WQC85SAU4XUHHDEBUZ9K66","A3S5AA4R3RIEEP","3XT3KXP24ZKFDDMCDS43FE3AU9W6IW","","null","<img src=""img/food2.png"" style=""width:200px;border:14px solid red;"">","null","","","","","","","","","",""
"","image-keyboard-response","102","184436","0.0-150.0","37WLF8U1WQC85SAU4XUHHDEBUZ9K66","A3S5AA4R3RIEEP","3XT3KXP24ZKFDDMCDS43FE3AU9W6IW","","137","img/food2.png","76","137.79999995231628","3","1","false","3","2","1,0.5,0,1,0.5,0,0.5,0,1","1,0.5,0,1,0.5,0,0.5,0,1","1",""
"","html-keyboard-response","103","184738","0.0-151.0","37WLF8U1WQC85SAU4XUHHDEBUZ9K66","A3S5AA4R3RIEEP","3XT3KXP24ZKFDDMCDS43FE3AU9W6IW","","null","<img src=""img/food2.png"" style=""width:200px; border:14px solid green;"">","null","","","","","","","","","",""
"","image-keyboard-response","104","184804","0.0-153.0","37WLF8U1WQC85SAU4XUHHDEBUZ9K66","A3S5AA4R3RIEEP","3XT3KXP24ZKFDDMCDS43FE3AU9W6IW","","62.10000014305115","img/food1.png","74","63","1","1","false","1","2","1,0.5,0,1,0.5,0,0.5,0,1","1,0.5,0,1,0.5,0,0.5,0,1","1",""
"","html-keyboard-response","105","185105","0.0-154.0","37WLF8U1WQC85SAU4XUHHDEBUZ9K66","A3S5AA4R3RIEEP","3XT3KXP24ZKFDDMCDS43FE3AU9W6IW","","null","<img src=""img/food1.png"" style=""width:200px; border:14px solid green;"">","null","","","","","","","","","",""
"","image-keyboard-response","106","185196","0.0-156.0","37WLF8U1WQC85SAU4XUHHDEBUZ9K66","A3S5AA4R3RIEEP","3XT3KXP24ZKFDDMCDS43FE3AU9W6IW","","89.70000004768372","img/food2.png","74","90.39999985694885","1","0","false","3","2","1,0.5,0,1,0.5,0,0.5,0,1","1,0.5,0,1,0.5,0,0.5,0,1","1",""
"","html-keyboard-response","107","185499","0.0-157.0","37WLF8U1WQC85SAU4XUHHDEBUZ9K66","A3S5AA4R3RIEEP","3XT3KXP24ZKFDDMCDS43FE3AU9W6IW","","null","<img src=""img/food2.png"" style=""width:200px;border:14px solid red;"">","null","","","","","","","","","",""
"","image-keyboard-response","108","185542","0.0-159.0","37WLF8U1WQC85SAU4XUHHDEBUZ9K66","A3S5AA4R3RIEEP","3XT3KXP24ZKFDDMCDS43FE3AU9W6IW","","42.59999990463257","img/food5.png","74","43.200000047683716","1","1","false","2","2","1,0.5,0,1,0.5,0,0.5,0,1","1,0.5,0,1,0.5,0,0.5,0,1","1",""
"","html-keyboard-response","109","185843","0.0-160.0","37WLF8U1WQC85SAU4XUHHDEBUZ9K66","A3S5AA4R3RIEEP","3XT3KXP24ZKFDDMCDS43FE3AU9W6IW","","null","<img src=""img/food5.png"" style=""width:200px; border:14px solid green;"">","null","","","","","","","","","",""
"","image-keyboard-response","110","185996","0.0-162.0","37WLF8U1WQC85SAU4XUHHDEBUZ9K66","A3S5AA4R3RIEEP","3XT3KXP24ZKFDDMCDS43FE3AU9W6IW","","151.90000009536743","img/food5.png","74","152.5","1","1","false","2","2","1,0.5,0,1,0.5,0,0.5,0,1","1,0.5,0,1,0.5,0,0.5,0,1","1",""
"","html-keyboard-response","111","186297","0.0-163.0","37WLF8U1WQC85SAU4XUHHDEBUZ9K66","A3S5AA4R3RIEEP","3XT3KXP24ZKFDDMCDS43FE3AU9W6IW","","null","<img src=""img/food5.png"" style=""width:200px; border:14px solid green;"">","null","","","","","","","","","",""
"","image-keyboard-response","112","186324","0.0-165.0","37WLF8U1WQC85SAU4XUHHDEBUZ9K66","A3S5AA4R3RIEEP","3XT3KXP24ZKFDDMCDS43FE3AU9W6IW","","25.600000143051147","img/food1.png","75","26.300000190734863","2","1","false","1","2","1,0.5,0,1,0.5,0,0.5,0,1","1,0.5,0,1,0.5,0,0.5,0,1","1",""
"","html-keyboard-response","113","186625","0.0-166.0","37WLF8U1WQC85SAU4XUHHDEBUZ9K66","A3S5AA4R3RIEEP","3XT3KXP24ZKFDDMCDS43FE3AU9W6IW","","null","<img src=""img/food1.png"" style=""width:200px; border:14px solid green;"">","null","","","","","","","","","",""
"","image-keyboard-response","114","186686","0.0-168.0","37WLF8U1WQC85SAU4XUHHDEBUZ9K66","A3S5AA4R3RIEEP","3XT3KXP24ZKFDDMCDS43FE3AU9W6IW","","59.60000014305115","img/food2.png","75","60.299999952316284","2","0","false","3","2","1,0.5,0,1,0.5,0,0.5,0,1","1,0.5,0,1,0.5,0,0.5,0,1","1",""
"","html-keyboard-response","115","186987","0.0-169.0","37WLF8U1WQC85SAU4XUHHDEBUZ9K66","A3S5AA4R3RIEEP","3XT3KXP24ZKFDDMCDS43FE3AU9W6IW","","null","<img src=""img/food2.png"" style=""width:200px;border:14px solid red;"">","null","","","","","","","","","",""
"","image-keyboard-response","116","187012","0.0-171.0","37WLF8U1WQC85SAU4XUHHDEBUZ9K66","A3S5AA4R3RIEEP","3XT3KXP24ZKFDDMCDS43FE3AU9W6IW","","23.600000143051147","img/food5.png","74","24.200000047683716","1","1","false","2","2","1,0.5,0,1,0.5,0,0.5,0,1","1,0.5,0,1,0.5,0,0.5,0,1","1",""
"","html-keyboard-response","117","187313","0.0-172.0","37WLF8U1WQC85SAU4XUHHDEBUZ9K66","A3S5AA4R3RIEEP","3XT3KXP24ZKFDDMCDS43FE3AU9W6IW","","null","<img src=""img/food5.png"" style=""width:200px; border:14px solid green;"">","null","","","","","","","","","",""
"","image-keyboard-response","118","187332","0.0-174.0","37WLF8U1WQC85SAU4XUHHDEBUZ9K66","A3S5AA4R3RIEEP","3XT3KXP24ZKFDDMCDS43FE3AU9W6IW","","17.600000143051147","img/food5.png","75","18.200000047683716","2","1","false","2","2","1,0.5,0,1,0.5,0,0.5,0,1","1,0.5,0,1,0.5,0,0.5,0,1","1",""
"","html-keyboard-response","119","187633","0.0-175.0","37WLF8U1WQC85SAU4XUHHDEBUZ9K66","A3S5AA4R3RIEEP","3XT3KXP24ZKFDDMCDS43FE3AU9W6IW","","null","<img src=""img/food5.png"" style=""width:200px; border:14px solid green;"">","null","","","","","","","","","",""
"","image-keyboard-response","120","187700","0.0-177.0","37WLF8U1WQC85SAU4XUHHDEBUZ9K66","A3S5AA4R3RIEEP","3XT3KXP24ZKFDDMCDS43FE3AU9W6IW","","65.10000014305115","img/food5.png","74","66.20000004768372","1","1","false","2","2","1,0.5,0,1,0.5,0,0.5,0,1","1,0.5,0,1,0.5,0,0.5,0,1","1",""
"","html-keyboard-response","121","188002","0.0-178.0","37WLF8U1WQC85SAU4XUHHDEBUZ9K66","A3S5AA4R3RIEEP","3XT3KXP24ZKFDDMCDS43FE3AU9W6IW","","null","<img src=""img/food5.png"" style=""width:200px; border:14px solid green;"">","null","","","","","","","","","",""
"","image-keyboard-response","122","188068","0.0-180.0","37WLF8U1WQC85SAU4XUHHDEBUZ9K66","A3S5AA4R3RIEEP","3XT3KXP24ZKFDDMCDS43FE3AU9W6IW","","64.60000014305115","img/food1.png","74","65.5","1","1","false","1","2","1,0.5,0,1,0.5,0,0.5,0,1","1,0.5,0,1,0.5,0,0.5,0,1","1",""
"","html-keyboard-response","123","188370","0.0-181.0","37WLF8U1WQC85SAU4XUHHDEBUZ9K66","A3S5AA4R3RIEEP","3XT3KXP24ZKFDDMCDS43FE3AU9W6IW","","null","<img src=""img/food1.png"" style=""width:200px; border:14px solid green;"">","null","","","","","","","","","",""
"","image-keyboard-response","124","188500","0.0-183.0","37WLF8U1WQC85SAU4XUHHDEBUZ9K66","A3S5AA4R3RIEEP","3XT3KXP24ZKFDDMCDS43FE3AU9W6IW","","128.29999995231628","img/food2.png","75","129","2","0","false","3","2","1,0.5,0,1,0.5,0,0.5,0,1","1,0.5,0,1,0.5,0,0.5,0,1","1",""
"","html-keyboard-response","125","188802","0.0-184.0","37WLF8U1WQC85SAU4XUHHDEBUZ9K66","A3S5AA4R3RIEEP","3XT3KXP24ZKFDDMCDS43FE3AU9W6IW","","null","<img src=""img/food2.png"" style=""width:200px;border:14px solid red;"">","null","","","","","","","","","",""
"","image-keyboard-response","126","188932","0.0-186.0","37WLF8U1WQC85SAU4XUHHDEBUZ9K66","A3S5AA4R3RIEEP","3XT3KXP24ZKFDDMCDS43FE3AU9W6IW","","128.90000009536743","img/food2.png","74","129.59999990463257","1","1","false","3","2","1,0.5,0,1,0.5,0,0.5,0,1","1,0.5,0,1,0.5,0,0.5,0,1","1",""
"","html-keyboard-response","127","189234","0.0-187.0","37WLF8U1WQC85SAU4XUHHDEBUZ9K66","A3S5AA4R3RIEEP","3XT3KXP24ZKFDDMCDS43FE3AU9W6IW","","null","<img src=""img/food2.png"" style=""width:200px; border:14px solid green;"">","null","","","","","","","","","",""
"","image-keyboard-response","128","189284","0.0-189.0","37WLF8U1WQC85SAU4XUHHDEBUZ9K66","A3S5AA4R3RIEEP","3XT3KXP24ZKFDDMCDS43FE3AU9W6IW","","49.59999990463257","img/food1.png","74","50.09999990463257","1","1","false","1","2","1,0.5,0,1,0.5,0,0.5,0,1","1,0.5,0,1,0.5,0,0.5,0,1","1",""
"","html-keyboard-response","129","189586","0.0-190.0","37WLF8U1WQC85SAU4XUHHDEBUZ9K66","A3S5AA4R3RIEEP","3XT3KXP24ZKFDDMCDS43FE3AU9W6IW","","null","<img src=""img/food1.png"" style=""width:200px; border:14px solid green;"">","null","","","","","","","","","",""
"","image-keyboard-response","130","189604","0.0-192.0","37WLF8U1WQC85SAU4XUHHDEBUZ9K66","A3S5AA4R3RIEEP","3XT3KXP24ZKFDDMCDS43FE3AU9W6IW","","16.799999952316284","img/food1.png","74","17.399999856948853","1","1","false","1","2","1,0.5,0,1,0.5,0,0.5,0,1","1,0.5,0,1,0.5,0,0.5,0,1","1",""
"","html-keyboard-response","131","189905","0.0-193.0","37WLF8U1WQC85SAU4XUHHDEBUZ9K66","A3S5AA4R3RIEEP","3XT3KXP24ZKFDDMCDS43FE3AU9W6IW","","null","<img src=""img/food1.png"" style=""width:200px; border:14px solid green;"">","null","","","","","","","","","",""
"","image-keyboard-response","132","189950","0.0-195.0","37WLF8U1WQC85SAU4XUHHDEBUZ9K66","A3S5AA4R3RIEEP","3XT3KXP24ZKFDDMCDS43FE3AU9W6IW","","43.700000047683716","img/food2.png","74","44.200000047683716","1","0","false","3","2","1,0.5,0,1,0.5,0,0.5,0,1","1,0.5,0,1,0.5,0,0.5,0,1","1",""
"","html-keyboard-response","133","190251","0.0-196.0","37WLF8U1WQC85SAU4XUHHDEBUZ9K66","A3S5AA4R3RIEEP","3XT3KXP24ZKFDDMCDS43FE3AU9W6IW","","null","<img src=""img/food2.png"" style=""width:200px;border:14px solid red;"">","null","","","","","","","","","",""
"","image-keyboard-response","134","190268","0.0-198.0","37WLF8U1WQC85SAU4XUHHDEBUZ9K66","A3S5AA4R3RIEEP","3XT3KXP24ZKFDDMCDS43FE3AU9W6IW","","16.200000047683716","img/food1.png","75","16.899999856948853","2","1","false","1","2","1,0.5,0,1,0.5,0,0.5,0,1","1,0.5,0,1,0.5,0,0.5,0,1","1",""
"","html-keyboard-response","135","190569","0.0-199.0","37WLF8U1WQC85SAU4XUHHDEBUZ9K66","A3S5AA4R3RIEEP","3XT3KXP24ZKFDDMCDS43FE3AU9W6IW","","null","<img src=""img/food1.png"" style=""width:200px; border:14px solid green;"">","null","","","","","","","","","",""
"","image-keyboard-response","136","190572","0.0-201.0","37WLF8U1WQC85SAU4XUHHDEBUZ9K66","A3S5AA4R3RIEEP","3XT3KXP24ZKFDDMCDS43FE3AU9W6IW","","1.7000000476837158","img/food5.png","75","2.200000047683716","2","0","false","2","2","1,0.5,0,1,0.5,0,0.5,0,1","1,0.5,0,1,0.5,0,0.5,0,1","1",""
"","html-keyboard-response","137","190873","0.0-202.0","37WLF8U1WQC85SAU4XUHHDEBUZ9K66","A3S5AA4R3RIEEP","3XT3KXP24ZKFDDMCDS43FE3AU9W6IW","","null","<img src=""img/food5.png"" style=""width:200px;border:14px solid red;"">","null","","","","","","","","","",""
"","image-keyboard-response","138","190908","0.0-204.0","37WLF8U1WQC85SAU4XUHHDEBUZ9K66","A3S5AA4R3RIEEP","3XT3KXP24ZKFDDMCDS43FE3AU9W6IW","","34.10000014305115","img/food2.png","75","34.700000047683716","2","0","false","3","2","1,0.5,0,1,0.5,0,0.5,0,1","1,0.5,0,1,0.5,0,0.5,0,1","1",""
"","html-keyboard-response","139","191210","0.0-205.0","37WLF8U1WQC85SAU4XUHHDEBUZ9K66","A3S5AA4R3RIEEP","3XT3KXP24ZKFDDMCDS43FE3AU9W6IW","","null","<img src=""img/food2.png"" style=""width:200px;border:14px solid red;"">","null","","","","","","","","","",""
"","image-keyboard-response","140","191300","0.0-207.0","37WLF8U1WQC85SAU4XUHHDEBUZ9K66","A3S5AA4R3RIEEP","3XT3KXP24ZKFDDMCDS43FE3AU9W6IW","","88.39999985694885","img/food2.png","74","89.09999990463257","1","0","false","3","2","1,0.5,0,1,0.5,0,0.5,0,1","1,0.5,0,1,0.5,0,0.5,0,1","1",""
"","html-keyboard-response","141","191602","0.0-208.0","37WLF8U1WQC85SAU4XUHHDEBUZ9K66","A3S5AA4R3RIEEP","3XT3KXP24ZKFDDMCDS43FE3AU9W6IW","","null","<img src=""img/food2.png"" style=""width:200px;border:14px solid red;"">","null","","","","","","","","","",""
"","image-keyboard-response","142","191764","0.0-210.0","37WLF8U1WQC85SAU4XUHHDEBUZ9K66","A3S5AA4R3RIEEP","3XT3KXP24ZKFDDMCDS43FE3AU9W6IW","","161","img/food5.png","74","161.90000009536743","1","1","false","2","2","1,0.5,0,1,0.5,0,0.5,0,1","1,0.5,0,1,0.5,0,0.5,0,1","1",""
"","html-keyboard-response","143","192065","0.0-211.0","37WLF8U1WQC85SAU4XUHHDEBUZ9K66","A3S5AA4R3RIEEP","3XT3KXP24ZKFDDMCDS43FE3AU9W6IW","","null","<img src=""img/food5.png"" style=""width:200px; border:14px solid green;"">","null","","","","","","","","","",""
"","image-keyboard-response","144","192068","0.0-213.0","37WLF8U1WQC85SAU4XUHHDEBUZ9K66","A3S5AA4R3RIEEP","3XT3KXP24ZKFDDMCDS43FE3AU9W6IW","","1.8000001907348633","img/food5.png","74","2.200000047683716","1","1","false","2","2","1,0.5,0,1,0.5,0,0.5,0,1","1,0.5,0,1,0.5,0,0.5,0,1","1",""
"","html-keyboard-response","145","192370","0.0-214.0","37WLF8U1WQC85SAU4XUHHDEBUZ9K66","A3S5AA4R3RIEEP","3XT3KXP24ZKFDDMCDS43FE3AU9W6IW","","null","<img src=""img/food5.png"" style=""width:200px; border:14px solid green;"">","null","","","","","","","","","",""
"","image-keyboard-response","146","192412","0.0-216.0","37WLF8U1WQC85SAU4XUHHDEBUZ9K66","A3S5AA4R3RIEEP","3XT3KXP24ZKFDDMCDS43FE3AU9W6IW","","40.799999952316284","img/food1.png","75","41.40000009536743","2","0","false","1","2","1,0.5,0,1,0.5,0,0.5,0,1","1,0.5,0,1,0.5,0,0.5,0,1","1",""
"","html-keyboard-response","147","192714","0.0-217.0","37WLF8U1WQC85SAU4XUHHDEBUZ9K66","A3S5AA4R3RIEEP","3XT3KXP24ZKFDDMCDS43FE3AU9W6IW","","null","<img src=""img/food1.png"" style=""width:200px;border:14px solid red;"">","null","","","","","","","","","",""
"","image-keyboard-response","148","192716","0.0-219.0","37WLF8U1WQC85SAU4XUHHDEBUZ9K66","A3S5AA4R3RIEEP","3XT3KXP24ZKFDDMCDS43FE3AU9W6IW","","1.1000001430511475","img/food5.png","75","1.8999998569488525","2","1","false","2","2","1,0.5,0,1,0.5,0,0.5,0,1","1,0.5,0,1,0.5,0,0.5,0,1","1",""
"","html-keyboard-response","149","193017","0.0-220.0","37WLF8U1WQC85SAU4XUHHDEBUZ9K66","A3S5AA4R3RIEEP","3XT3KXP24ZKFDDMCDS43FE3AU9W6IW","","null","<img src=""img/food5.png"" style=""width:200px; border:14px solid green;"">","null","","","","","","","","","",""
"","image-keyboard-response","150","193020","0.0-222.0","37WLF8U1WQC85SAU4XUHHDEBUZ9K66","A3S5AA4R3RIEEP","3XT3KXP24ZKFDDMCDS43FE3AU9W6IW","","2.200000047683716","img/food1.png","75","3","2","1","false","1","2","1,0.5,0,1,0.5,0,0.5,0,1","1,0.5,0,1,0.5,0,0.5,0,1","1",""
"","html-keyboard-response","151","193322","0.0-223.0","37WLF8U1WQC85SAU4XUHHDEBUZ9K66","A3S5AA4R3RIEEP","3XT3KXP24ZKFDDMCDS43FE3AU9W6IW","","null","<img src=""img/food1.png"" style=""width:200px; border:14px solid green;"">","null","","","","","","","","","",""
"","image-keyboard-response","152","193420","0.0-225.0","37WLF8U1WQC85SAU4XUHHDEBUZ9K66","A3S5AA4R3RIEEP","3XT3KXP24ZKFDDMCDS43FE3AU9W6IW","","96.79999995231628","img/food5.png","76","97.60000014305115","3","0","false","2","2","1,0.5,0,1,0.5,0,0.5,0,1","1,0.5,0,1,0.5,0,0.5,0,1","1",""
"","html-keyboard-response","153","193722","0.0-226.0","37WLF8U1WQC85SAU4XUHHDEBUZ9K66","A3S5AA4R3RIEEP","3XT3KXP24ZKFDDMCDS43FE3AU9W6IW","","null","<img src=""img/food5.png"" style=""width:200px;border:14px solid red;"">","null","","","","","","","","","",""
"","image-keyboard-response","154","193852","0.0-228.0","37WLF8U1WQC85SAU4XUHHDEBUZ9K66","A3S5AA4R3RIEEP","3XT3KXP24ZKFDDMCDS43FE3AU9W6IW","","129","img/food1.png","75","129.79999995231628","2","1","false","1","2","1,0.5,0,1,0.5,0,0.5,0,1","1,0.5,0,1,0.5,0,0.5,0,1","1",""
"","html-keyboard-response","155","194153","0.0-229.0","37WLF8U1WQC85SAU4XUHHDEBUZ9K66","A3S5AA4R3RIEEP","3XT3KXP24ZKFDDMCDS43FE3AU9W6IW","","null","<img src=""img/food1.png"" style=""width:200px; border:14px solid green;"">","null","","","","","","","","","",""
"","image-keyboard-response","156","194180","0.0-231.0","37WLF8U1WQC85SAU4XUHHDEBUZ9K66","A3S5AA4R3RIEEP","3XT3KXP24ZKFDDMCDS43FE3AU9W6IW","","25.5","img/food5.png","76","26.40000009536743","3","0","false","2","2","1,0.5,0,1,0.5,0,0.5,0,1","1,0.5,0,1,0.5,0,0.5,0,1","1",""
"","html-keyboard-response","157","194481","0.0-232.0","37WLF8U1WQC85SAU4XUHHDEBUZ9K66","A3S5AA4R3RIEEP","3XT3KXP24ZKFDDMCDS43FE3AU9W6IW","","null","<img src=""img/food5.png"" style=""width:200px;border:14px solid red;"">","null","","","","","","","","","",""
"","image-keyboard-response","158","194684","0.0-234.0","37WLF8U1WQC85SAU4XUHHDEBUZ9K66","A3S5AA4R3RIEEP","3XT3KXP24ZKFDDMCDS43FE3AU9W6IW","","201.39999985694885","img/food2.png","75","202.20000004768372","2","0","false","3","2","1,0.5,0,1,0.5,0,0.5,0,1","1,0.5,0,1,0.5,0,0.5,0,1","1",""
"","html-keyboard-response","159","194986","0.0-235.0","37WLF8U1WQC85SAU4XUHHDEBUZ9K66","A3S5AA4R3RIEEP","3XT3KXP24ZKFDDMCDS43FE3AU9W6IW","","null","<img src=""img/food2.png"" style=""width:200px;border:14px solid red;"">","null","","","","","","","","","",""
"","image-keyboard-response","160","195004","0.0-237.0","37WLF8U1WQC85SAU4XUHHDEBUZ9K66","A3S5AA4R3RIEEP","3XT3KXP24ZKFDDMCDS43FE3AU9W6IW","","17.09999990463257","img/food5.png","76","17.90000009536743","3","0","false","2","2","1,0.5,0,1,0.5,0,0.5,0,1","1,0.5,0,1,0.5,0,0.5,0,1","1",""
"","html-keyboard-response","161","195308","0.0-238.0","37WLF8U1WQC85SAU4XUHHDEBUZ9K66","A3S5AA4R3RIEEP","3XT3KXP24ZKFDDMCDS43FE3AU9W6IW","","null","<img src=""img/food5.png"" style=""width:200px;border:14px solid red;"">","null","","","","","","","","","",""
"","image-keyboard-response","162","195524","0.0-240.0","37WLF8U1WQC85SAU4XUHHDEBUZ9K66","A3S5AA4R3RIEEP","3XT3KXP24ZKFDDMCDS43FE3AU9W6IW","","213.79999995231628","img/food1.png","76","214.59999990463257","3","0","false","1","2","1,0.5,0,1,0.5,0,0.5,0,1","1,0.5,0,1,0.5,0,0.5,0,1","1",""
"","html-keyboard-response","163","195826","0.0-241.0","37WLF8U1WQC85SAU4XUHHDEBUZ9K66","A3S5AA4R3RIEEP","3XT3KXP24ZKFDDMCDS43FE3AU9W6IW","","null","<img src=""img/food1.png"" style=""width:200px;border:14px solid red;"">","null","","","","","","","","","",""
"","image-keyboard-response","164","195964","0.0-243.0","37WLF8U1WQC85SAU4XUHHDEBUZ9K66","A3S5AA4R3RIEEP","3XT3KXP24ZKFDDMCDS43FE3AU9W6IW","","137","img/food1.png","76","137.79999995231628","3","0","false","1","2","1,0.5,0,1,0.5,0,0.5,0,1","1,0.5,0,1,0.5,0,0.5,0,1","1",""
"","html-keyboard-response","165","196265","0.0-244.0","37WLF8U1WQC85SAU4XUHHDEBUZ9K66","A3S5AA4R3RIEEP","3XT3KXP24ZKFDDMCDS43FE3AU9W6IW","","null","<img src=""img/food1.png"" style=""width:200px;border:14px solid red;"">","null","","","","","","","","","",""
"","image-keyboard-response","166","196396","0.0-246.0","37WLF8U1WQC85SAU4XUHHDEBUZ9K66","A3S5AA4R3RIEEP","3XT3KXP24ZKFDDMCDS43FE3AU9W6IW","","129.70000004768372","img/food5.png","74","130.39999985694885","1","1","false","2","2","1,0.5,0,1,0.5,0,0.5,0,1","1,0.5,0,1,0.5,0,0.5,0,1","1",""
"","html-keyboard-response","167","196697","0.0-247.0","37WLF8U1WQC85SAU4XUHHDEBUZ9K66","A3S5AA4R3RIEEP","3XT3KXP24ZKFDDMCDS43FE3AU9W6IW","","null","<img src=""img/food5.png"" style=""width:200px; border:14px solid green;"">","null","","","","","","","","","",""
"","image-keyboard-response","168","196764","0.0-249.0","37WLF8U1WQC85SAU4XUHHDEBUZ9K66","A3S5AA4R3RIEEP","3XT3KXP24ZKFDDMCDS43FE3AU9W6IW","","66","img/food5.png","74","66.59999990463257","1","1","false","2","2","1,0.5,0,1,0.5,0,0.5,0,1","1,0.5,0,1,0.5,0,0.5,0,1","1",""
"","html-keyboard-response","169","197072","0.0-250.0","37WLF8U1WQC85SAU4XUHHDEBUZ9K66","A3S5AA4R3RIEEP","3XT3KXP24ZKFDDMCDS43FE3AU9W6IW","","null","<img src=""img/food5.png"" style=""width:200px; border:14px solid green;"">","null","","","","","","","","","",""
"","image-keyboard-response","170","197228","0.0-252.0","37WLF8U1WQC85SAU4XUHHDEBUZ9K66","A3S5AA4R3RIEEP","3XT3KXP24ZKFDDMCDS43FE3AU9W6IW","","154.70000004768372","img/food5.png","74","155.60000014305115","1","1","false","2","2","1,0.5,0,1,0.5,0,0.5,0,1","1,0.5,0,1,0.5,0,0.5,0,1","1",""
"","html-keyboard-response","171","197531","0.0-253.0","37WLF8U1WQC85SAU4XUHHDEBUZ9K66","A3S5AA4R3RIEEP","3XT3KXP24ZKFDDMCDS43FE3AU9W6IW","","null","<img src=""img/food5.png"" style=""width:200px; border:14px solid green;"">","null","","","","","","","","","",""
"","image-keyboard-response","172","197533","0.0-255.0","37WLF8U1WQC85SAU4XUHHDEBUZ9K66","A3S5AA4R3RIEEP","3XT3KXP24ZKFDDMCDS43FE3AU9W6IW","","0.40000009536743164","img/food2.png","76","1.3999998569488525","3","1","false","3","2","1,0.5,0,1,0.5,0,0.5,0,1","1,0.5,0,1,0.5,0,0.5,0,1","1",""
"","html-keyboard-response","173","197834","0.0-256.0","37WLF8U1WQC85SAU4XUHHDEBUZ9K66","A3S5AA4R3RIEEP","3XT3KXP24ZKFDDMCDS43FE3AU9W6IW","","null","<img src=""img/food2.png"" style=""width:200px; border:14px solid green;"">","null","","","","","","","","","",""
"","image-keyboard-response","174","197900","0.0-258.0","37WLF8U1WQC85SAU4XUHHDEBUZ9K66","A3S5AA4R3RIEEP","3XT3KXP24ZKFDDMCDS43FE3AU9W6IW","","64.79999995231628","img/food5.png","76","65.39999985694885","3","0","false","2","2","1,0.5,0,1,0.5,0,0.5,0,1","1,0.5,0,1,0.5,0,0.5,0,1","1",""
"","html-keyboard-response","175","198201","0.0-259.0","37WLF8U1WQC85SAU4XUHHDEBUZ9K66","A3S5AA4R3RIEEP","3XT3KXP24ZKFDDMCDS43FE3AU9W6IW","","null","<img src=""img/food5.png"" style=""width:200px;border:14px solid red;"">","null","","","","","","","","","",""
"","image-keyboard-response","176","198372","0.0-261.0","37WLF8U1WQC85SAU4XUHHDEBUZ9K66","A3S5AA4R3RIEEP","3XT3KXP24ZKFDDMCDS43FE3AU9W6IW","","169.5","img/food1.png","76","170.29999995231628","3","0","false","1","2","1,0.5,0,1,0.5,0,0.5,0,1","1,0.5,0,1,0.5,0,0.5,0,1","1",""
"","html-keyboard-response","177","198674","0.0-262.0","37WLF8U1WQC85SAU4XUHHDEBUZ9K66","A3S5AA4R3RIEEP","3XT3KXP24ZKFDDMCDS43FE3AU9W6IW","","null","<img src=""img/food1.png"" style=""width:200px;border:14px solid red;"">","null","","","","","","","","","",""
"","image-keyboard-response","178","198861","0.0-264.0","37WLF8U1WQC85SAU4XUHHDEBUZ9K66","A3S5AA4R3RIEEP","3XT3KXP24ZKFDDMCDS43FE3AU9W6IW","","185.40000009536743","img/food5.png","76","186.29999995231628","3","0","false","2","2","1,0.5,0,1,0.5,0,0.5,0,1","1,0.5,0,1,0.5,0,0.5,0,1","1",""
"","html-keyboard-response","179","199162","0.0-265.0","37WLF8U1WQC85SAU4XUHHDEBUZ9K66","A3S5AA4R3RIEEP","3XT3KXP24ZKFDDMCDS43FE3AU9W6IW","","null","<img src=""img/food5.png"" style=""width:200px;border:14px solid red;"">","null","","","","","","","","","",""
"","image-keyboard-response","180","199556","0.0-267.0","37WLF8U1WQC85SAU4XUHHDEBUZ9K66","A3S5AA4R3RIEEP","3XT3KXP24ZKFDDMCDS43FE3AU9W6IW","","393.2999999523163","img/food2.png","75","393.89999985694885","2","0","false","3","2","1,0.5,0,1,0.5,0,0.5,0,1","1,0.5,0,1,0.5,0,0.5,0,1","1",""
"","html-keyboard-response","181","199857","0.0-268.0","37WLF8U1WQC85SAU4XUHHDEBUZ9K66","A3S5AA4R3RIEEP","3XT3KXP24ZKFDDMCDS43FE3AU9W6IW","","null","<img src=""img/food2.png"" style=""width:200px;border:14px solid red;"">","null","","","","","","","","","",""
"","image-keyboard-response","182","199892","0.0-270.0","37WLF8U1WQC85SAU4XUHHDEBUZ9K66","A3S5AA4R3RIEEP","3XT3KXP24ZKFDDMCDS43FE3AU9W6IW","","33.299999952316284","img/food2.png","75","34.09999990463257","2","0","false","3","2","1,0.5,0,1,0.5,0,0.5,0,1","1,0.5,0,1,0.5,0,0.5,0,1","1",""
"","html-keyboard-response","183","200194","0.0-271.0","37WLF8U1WQC85SAU4XUHHDEBUZ9K66","A3S5AA4R3RIEEP","3XT3KXP24ZKFDDMCDS43FE3AU9W6IW","","null","<img src=""img/food2.png"" style=""width:200px;border:14px solid red;"">","null","","","","","","","","","",""
"","instructions","184","207581","0.0-273.0","37WLF8U1WQC85SAU4XUHHDEBUZ9K66","A3S5AA4R3RIEEP","3XT3KXP24ZKFDDMCDS43FE3AU9W6IW","[{""page_index"":0,""viewing_time"":5785.5},{""page_index"":1,""viewing_time"":1600.8999998569489}]","7386.700000047684","","","","","","","","","","","",""
"","image-keyboard-response","185","210412","0.0-274.0","37WLF8U1WQC85SAU4XUHHDEBUZ9K66","A3S5AA4R3RIEEP","3XT3KXP24ZKFDDMCDS43FE3AU9W6IW","","2829.600000143051","img/food6.png","74","2830.7000000476837","1","0","","3","1","1,0.5,0,1,0.5,0,0.5,0,1","0.5,0,1,0.5,0,1,0,1,0.5","2",""
"","html-keyboard-response","186","210715","0.0-275.0","37WLF8U1WQC85SAU4XUHHDEBUZ9K66","A3S5AA4R3RIEEP","3XT3KXP24ZKFDDMCDS43FE3AU9W6IW","","null","<img src=""img/food6.png"" style=""width:200px;border:14px solid red;"">","null","","","","","","","","","",""
"","image-keyboard-response","187","211540","0.0-276.0","37WLF8U1WQC85SAU4XUHHDEBUZ9K66","A3S5AA4R3RIEEP","3XT3KXP24ZKFDDMCDS43FE3AU9W6IW","","824","img/food4.png","74","825","1","0","","1","1","1,0.5,0,1,0.5,0,0.5,0,1","0.5,0,1,0.5,0,1,0,1,0.5","2",""
"","html-keyboard-response","188","211841","0.0-277.0","37WLF8U1WQC85SAU4XUHHDEBUZ9K66","A3S5AA4R3RIEEP","3XT3KXP24ZKFDDMCDS43FE3AU9W6IW","","null","<img src=""img/food4.png"" style=""width:200px;border:14px solid red;"">","null","","","","","","","","","",""
"","image-keyboard-response","189","212669","0.0-278.0","37WLF8U1WQC85SAU4XUHHDEBUZ9K66","A3S5AA4R3RIEEP","3XT3KXP24ZKFDDMCDS43FE3AU9W6IW","","827.7999999523163","img/food3.png","74","828.4000000953674","1","1","","2","1","1,0.5,0,1,0.5,0,0.5,0,1","0.5,0,1,0.5,0,1,0,1,0.5","2",""
"","html-keyboard-response","190","212971","0.0-279.0","37WLF8U1WQC85SAU4XUHHDEBUZ9K66","A3S5AA4R3RIEEP","3XT3KXP24ZKFDDMCDS43FE3AU9W6IW","","null","<img src=""img/food3.png"" style=""width:200px; border:14px solid green;"">","null","","","","","","","","","",""
"","image-keyboard-response","191","213733","0.0-280.0","37WLF8U1WQC85SAU4XUHHDEBUZ9K66","A3S5AA4R3RIEEP","3XT3KXP24ZKFDDMCDS43FE3AU9W6IW","","761","img/food6.png","76","761.7999999523163","3","1","","3","1","1,0.5,0,1,0.5,0,0.5,0,1","0.5,0,1,0.5,0,1,0,1,0.5","2",""
"","html-keyboard-response","192","214035","0.0-281.0","37WLF8U1WQC85SAU4XUHHDEBUZ9K66","A3S5AA4R3RIEEP","3XT3KXP24ZKFDDMCDS43FE3AU9W6IW","","null","<img src=""img/food6.png"" style=""width:200px; border:14px solid green;"">","null","","","","","","","","","",""
"","image-keyboard-response","193","214789","0.0-282.0","37WLF8U1WQC85SAU4XUHHDEBUZ9K66","A3S5AA4R3RIEEP","3XT3KXP24ZKFDDMCDS43FE3AU9W6IW","","753.1000001430511","img/food3.png","75","753.6999998092651","2","0","","2","1","1,0.5,0,1,0.5,0,0.5,0,1","0.5,0,1,0.5,0,1,0,1,0.5","2",""
"","html-keyboard-response","194","215091","0.0-283.0","37WLF8U1WQC85SAU4XUHHDEBUZ9K66","A3S5AA4R3RIEEP","3XT3KXP24ZKFDDMCDS43FE3AU9W6IW","","null","<img src=""img/food3.png"" style=""width:200px;border:14px solid red;"">","null","","","","","","","","","",""
"","image-keyboard-response","195","215892","0.0-284.0","37WLF8U1WQC85SAU4XUHHDEBUZ9K66","A3S5AA4R3RIEEP","3XT3KXP24ZKFDDMCDS43FE3AU9W6IW","","800.5999999046326","img/food4.png","75","801.2999999523163","2","0","","1","1","1,0.5,0,1,0.5,0,0.5,0,1","0.5,0,1,0.5,0,1,0,1,0.5","2",""
"","html-keyboard-response","196","216193","0.0-285.0","37WLF8U1WQC85SAU4XUHHDEBUZ9K66","A3S5AA4R3RIEEP","3XT3KXP24ZKFDDMCDS43FE3AU9W6IW","","null","<img src=""img/food4.png"" style=""width:200px;border:14px solid red;"">","null","","","","","","","","","",""
"","image-keyboard-response","197","216796","0.0-286.0","37WLF8U1WQC85SAU4XUHHDEBUZ9K66","A3S5AA4R3RIEEP","3XT3KXP24ZKFDDMCDS43FE3AU9W6IW","","602.0999999046326","img/food3.png","74","602.7999999523163","1","0","","2","1","1,0.5,0,1,0.5,0,0.5,0,1","0.5,0,1,0.5,0,1,0,1,0.5","2",""
"","html-keyboard-response","198","217097","0.0-287.0","37WLF8U1WQC85SAU4XUHHDEBUZ9K66","A3S5AA4R3RIEEP","3XT3KXP24ZKFDDMCDS43FE3AU9W6IW","","null","<img src=""img/food3.png"" style=""width:200px;border:14px solid red;"">","null","","","","","","","","","",""
"","image-keyboard-response","199","217892","0.0-288.0","37WLF8U1WQC85SAU4XUHHDEBUZ9K66","A3S5AA4R3RIEEP","3XT3KXP24ZKFDDMCDS43FE3AU9W6IW","","793.7999999523163","img/food6.png","76","794.5","3","1","","3","1","1,0.5,0,1,0.5,0,0.5,0,1","0.5,0,1,0.5,0,1,0,1,0.5","2",""
"","html-keyboard-response","200","218193","0.0-289.0","37WLF8U1WQC85SAU4XUHHDEBUZ9K66","A3S5AA4R3RIEEP","3XT3KXP24ZKFDDMCDS43FE3AU9W6IW","","null","<img src=""img/food6.png"" style=""width:200px; border:14px solid green;"">","null","","","","","","","","","",""
"","image-keyboard-response","201","220436","0.0-290.0","37WLF8U1WQC85SAU4XUHHDEBUZ9K66","A3S5AA4R3RIEEP","3XT3KXP24ZKFDDMCDS43FE3AU9W6IW","","2242.7000000476837","img/food3.png","74","2243.2999999523163","1","1","","2","1","1,0.5,0,1,0.5,0,0.5,0,1","0.5,0,1,0.5,0,1,0,1,0.5","2",""
"","html-keyboard-response","202","220737","0.0-291.0","37WLF8U1WQC85SAU4XUHHDEBUZ9K66","A3S5AA4R3RIEEP","3XT3KXP24ZKFDDMCDS43FE3AU9W6IW","","null","<img src=""img/food3.png"" style=""width:200px; border:14px solid green;"">","null","","","","","","","","","",""
"","image-keyboard-response","203","221620","0.0-292.0","37WLF8U1WQC85SAU4XUHHDEBUZ9K66","A3S5AA4R3RIEEP","3XT3KXP24ZKFDDMCDS43FE3AU9W6IW","","881.3999998569489","img/food6.png","76","882.2000000476837","3","1","","3","1","1,0.5,0,1,0.5,0,0.5,0,1","0.5,0,1,0.5,0,1,0,1,0.5","2",""
"","html-keyboard-response","204","221924","0.0-293.0","37WLF8U1WQC85SAU4XUHHDEBUZ9K66","A3S5AA4R3RIEEP","3XT3KXP24ZKFDDMCDS43FE3AU9W6IW","","null","<img src=""img/food6.png"" style=""width:200px; border:14px solid green;"">","null","","","","","","","","","",""
"","image-keyboard-response","205","222996","0.0-294.0","37WLF8U1WQC85SAU4XUHHDEBUZ9K66","A3S5AA4R3RIEEP","3XT3KXP24ZKFDDMCDS43FE3AU9W6IW","","1071.1999998092651","img/food6.png","76","1072","3","0","","3","1","1,0.5,0,1,0.5,0,0.5,0,1","0.5,0,1,0.5,0,1,0,1,0.5","2",""
"","html-keyboard-response","206","223298","0.0-295.0","37WLF8U1WQC85SAU4XUHHDEBUZ9K66","A3S5AA4R3RIEEP","3XT3KXP24ZKFDDMCDS43FE3AU9W6IW","","null","<img src=""img/food6.png"" style=""width:200px;border:14px solid red;"">","null","","","","","","","","","",""
"","image-keyboard-response","207","224164","0.0-296.0","37WLF8U1WQC85SAU4XUHHDEBUZ9K66","A3S5AA4R3RIEEP","3XT3KXP24ZKFDDMCDS43FE3AU9W6IW","","865.5","img/food4.png","75","866.0999999046326","2","0","","1","1","1,0.5,0,1,0.5,0,0.5,0,1","0.5,0,1,0.5,0,1,0,1,0.5","2",""
"","html-keyboard-response","208","224465","0.0-297.0","37WLF8U1WQC85SAU4XUHHDEBUZ9K66","A3S5AA4R3RIEEP","3XT3KXP24ZKFDDMCDS43FE3AU9W6IW","","null","<img src=""img/food4.png"" style=""width:200px;border:14px solid red;"">","null","","","","","","","","","",""
"","image-keyboard-response","209","225229","0.0-298.0","37WLF8U1WQC85SAU4XUHHDEBUZ9K66","A3S5AA4R3RIEEP","3XT3KXP24ZKFDDMCDS43FE3AU9W6IW","","762.5999999046326","img/food3.png","74","763.2999999523163","1","0","","2","1","1,0.5,0,1,0.5,0,0.5,0,1","0.5,0,1,0.5,0,1,0,1,0.5","2",""
"","html-keyboard-response","210","225532","0.0-299.0","37WLF8U1WQC85SAU4XUHHDEBUZ9K66","A3S5AA4R3RIEEP","3XT3KXP24ZKFDDMCDS43FE3AU9W6IW","","null","<img src=""img/food3.png"" style=""width:200px;border:14px solid red;"">","null","","","","","","","","","",""
"","image-keyboard-response","211","226348","0.0-300.0","37WLF8U1WQC85SAU4XUHHDEBUZ9K66","A3S5AA4R3RIEEP","3XT3KXP24ZKFDDMCDS43FE3AU9W6IW","","815.2999999523163","img/food3.png","74","816.1000001430511","1","0","","2","1","1,0.5,0,1,0.5,0,0.5,0,1","0.5,0,1,0.5,0,1,0,1,0.5","2",""
"","html-keyboard-response","212","226649","0.0-301.0","37WLF8U1WQC85SAU4XUHHDEBUZ9K66","A3S5AA4R3RIEEP","3XT3KXP24ZKFDDMCDS43FE3AU9W6IW","","null","<img src=""img/food3.png"" style=""width:200px;border:14px solid red;"">","null","","","","","","","","","",""
"","image-keyboard-response","213","227460","0.0-302.0","37WLF8U1WQC85SAU4XUHHDEBUZ9K66","A3S5AA4R3RIEEP","3XT3KXP24ZKFDDMCDS43FE3AU9W6IW","","810.2999999523163","img/food4.png","75","811","2","0","","1","1","1,0.5,0,1,0.5,0,0.5,0,1","0.5,0,1,0.5,0,1,0,1,0.5","2",""
"","html-keyboard-response","214","227761","0.0-303.0","37WLF8U1WQC85SAU4XUHHDEBUZ9K66","A3S5AA4R3RIEEP","3XT3KXP24ZKFDDMCDS43FE3AU9W6IW","","null","<img src=""img/food4.png"" style=""width:200px;border:14px solid red;"">","null","","","","","","","","","",""
"","image-keyboard-response","215","229500","0.0-304.0","37WLF8U1WQC85SAU4XUHHDEBUZ9K66","A3S5AA4R3RIEEP","3XT3KXP24ZKFDDMCDS43FE3AU9W6IW","","1737.6999998092651","img/food4.png","76","1738.3999998569489","3","1","","1","1","1,0.5,0,1,0.5,0,0.5,0,1","0.5,0,1,0.5,0,1,0,1,0.5","2",""
"","html-keyboard-response","216","229815","0.0-305.0","37WLF8U1WQC85SAU4XUHHDEBUZ9K66","A3S5AA4R3RIEEP","3XT3KXP24ZKFDDMCDS43FE3AU9W6IW","","null","<img src=""img/food4.png"" style=""width:200px; border:14px solid green;"">","null","","","","","","","","","",""
"","image-keyboard-response","217","230564","0.0-306.0","37WLF8U1WQC85SAU4XUHHDEBUZ9K66","A3S5AA4R3RIEEP","3XT3KXP24ZKFDDMCDS43FE3AU9W6IW","","747.7999999523163","img/food6.png","76","748.7000000476837","3","0","","3","1","1,0.5,0,1,0.5,0,0.5,0,1","0.5,0,1,0.5,0,1,0,1,0.5","2",""
"","html-keyboard-response","218","230866","0.0-307.0","37WLF8U1WQC85SAU4XUHHDEBUZ9K66","A3S5AA4R3RIEEP","3XT3KXP24ZKFDDMCDS43FE3AU9W6IW","","null","<img src=""img/food6.png"" style=""width:200px;border:14px solid red;"">","null","","","","","","","","","",""
"","image-keyboard-response","219","231876","0.0-308.0","37WLF8U1WQC85SAU4XUHHDEBUZ9K66","A3S5AA4R3RIEEP","3XT3KXP24ZKFDDMCDS43FE3AU9W6IW","","1009.0999999046326","img/food4.png","76","1009.7000000476837","3","1","","1","1","1,0.5,0,1,0.5,0,0.5,0,1","0.5,0,1,0.5,0,1,0,1,0.5","2",""
"","html-keyboard-response","220","232177","0.0-309.0","37WLF8U1WQC85SAU4XUHHDEBUZ9K66","A3S5AA4R3RIEEP","3XT3KXP24ZKFDDMCDS43FE3AU9W6IW","","null","<img src=""img/food4.png"" style=""width:200px; border:14px solid green;"">","null","","","","","","","","","",""
"","image-keyboard-response","221","233214","0.0-310.0","37WLF8U1WQC85SAU4XUHHDEBUZ9K66","A3S5AA4R3RIEEP","3XT3KXP24ZKFDDMCDS43FE3AU9W6IW","","1035.5","img/food3.png","74","1036","1","0","","2","1","1,0.5,0,1,0.5,0,0.5,0,1","0.5,0,1,0.5,0,1,0,1,0.5","2",""
"","html-keyboard-response","222","233515","0.0-311.0","37WLF8U1WQC85SAU4XUHHDEBUZ9K66","A3S5AA4R3RIEEP","3XT3KXP24ZKFDDMCDS43FE3AU9W6IW","","null","<img src=""img/food3.png"" style=""width:200px;border:14px solid red;"">","null","","","","","","","","","",""
"","image-keyboard-response","223","234340","0.0-312.0","37WLF8U1WQC85SAU4XUHHDEBUZ9K66","A3S5AA4R3RIEEP","3XT3KXP24ZKFDDMCDS43FE3AU9W6IW","","824","img/food6.png","76","824.5999999046326","3","1","","3","1","1,0.5,0,1,0.5,0,0.5,0,1","0.5,0,1,0.5,0,1,0,1,0.5","2",""
"","html-keyboard-response","224","234641","0.0-313.0","37WLF8U1WQC85SAU4XUHHDEBUZ9K66","A3S5AA4R3RIEEP","3XT3KXP24ZKFDDMCDS43FE3AU9W6IW","","null","<img src=""img/food6.png"" style=""width:200px; border:14px solid green;"">","null","","","","","","","","","",""
"","image-keyboard-response","225","235396","0.0-314.0","37WLF8U1WQC85SAU4XUHHDEBUZ9K66","A3S5AA4R3RIEEP","3XT3KXP24ZKFDDMCDS43FE3AU9W6IW","","753.7000000476837","img/food3.png","75","754.3000001907349","2","0","","2","1","1,0.5,0,1,0.5,0,0.5,0,1","0.5,0,1,0.5,0,1,0,1,0.5","2",""
"","html-keyboard-response","226","235697","0.0-315.0","37WLF8U1WQC85SAU4XUHHDEBUZ9K66","A3S5AA4R3RIEEP","3XT3KXP24ZKFDDMCDS43FE3AU9W6IW","","null","<img src=""img/food3.png"" style=""width:200px;border:14px solid red;"">","null","","","","","","","","","",""
"","image-keyboard-response","227","236460","0.0-316.0","37WLF8U1WQC85SAU4XUHHDEBUZ9K66","A3S5AA4R3RIEEP","3XT3KXP24ZKFDDMCDS43FE3AU9W6IW","","762.5999999046326","img/food6.png","76","763.2000000476837","3","0","","3","1","1,0.5,0,1,0.5,0,0.5,0,1","0.5,0,1,0.5,0,1,0,1,0.5","2",""
"","html-keyboard-response","228","236762","0.0-317.0","37WLF8U1WQC85SAU4XUHHDEBUZ9K66","A3S5AA4R3RIEEP","3XT3KXP24ZKFDDMCDS43FE3AU9W6IW","","null","<img src=""img/food6.png"" style=""width:200px;border:14px solid red;"">","null","","","","","","","","","",""
"","image-keyboard-response","229","237740","0.0-318.0","37WLF8U1WQC85SAU4XUHHDEBUZ9K66","A3S5AA4R3RIEEP","3XT3KXP24ZKFDDMCDS43FE3AU9W6IW","","977","img/food6.png","76","977.7000000476837","3","0","","3","1","1,0.5,0,1,0.5,0,0.5,0,1","0.5,0,1,0.5,0,1,0,1,0.5","2",""
"","html-keyboard-response","230","238041","0.0-319.0","37WLF8U1WQC85SAU4XUHHDEBUZ9K66","A3S5AA4R3RIEEP","3XT3KXP24ZKFDDMCDS43FE3AU9W6IW","","null","<img src=""img/food6.png"" style=""width:200px;border:14px solid red;"">","null","","","","","","","","","",""
"","image-keyboard-response","231","239220","0.0-320.0","37WLF8U1WQC85SAU4XUHHDEBUZ9K66","A3S5AA4R3RIEEP","3XT3KXP24ZKFDDMCDS43FE3AU9W6IW","","1177.7000000476837","img/food4.png","76","1178.2999999523163","3","1","","1","1","1,0.5,0,1,0.5,0,0.5,0,1","0.5,0,1,0.5,0,1,0,1,0.5","2",""
"","html-keyboard-response","232","239523","0.0-321.0","37WLF8U1WQC85SAU4XUHHDEBUZ9K66","A3S5AA4R3RIEEP","3XT3KXP24ZKFDDMCDS43FE3AU9W6IW","","null","<img src=""img/food4.png"" style=""width:200px; border:14px solid green;"">","null","","","","","","","","","",""
"","image-keyboard-response","233","240044","0.0-322.0","37WLF8U1WQC85SAU4XUHHDEBUZ9K66","A3S5AA4R3RIEEP","3XT3KXP24ZKFDDMCDS43FE3AU9W6IW","","520.2000000476837","img/food4.png","76","520.9000000953674","3","1","","1","1","1,0.5,0,1,0.5,0,0.5,0,1","0.5,0,1,0.5,0,1,0,1,0.5","2",""
"","html-keyboard-response","234","240345","0.0-323.0","37WLF8U1WQC85SAU4XUHHDEBUZ9K66","A3S5AA4R3RIEEP","3XT3KXP24ZKFDDMCDS43FE3AU9W6IW","","null","<img src=""img/food4.png"" style=""width:200px; border:14px solid green;"">","null","","","","","","","","","",""
"","image-keyboard-response","235","241180","0.0-324.0","37WLF8U1WQC85SAU4XUHHDEBUZ9K66","A3S5AA4R3RIEEP","3XT3KXP24ZKFDDMCDS43FE3AU9W6IW","","833.9000000953674","img/food6.png","76","834.5999999046326","3","1","","3","1","1,0.5,0,1,0.5,0,0.5,0,1","0.5,0,1,0.5,0,1,0,1,0.5","2",""
"","html-keyboard-response","236","241482","0.0-325.0","37WLF8U1WQC85SAU4XUHHDEBUZ9K66","A3S5AA4R3RIEEP","3XT3KXP24ZKFDDMCDS43FE3AU9W6IW","","null","<img src=""img/food6.png"" style=""width:200px; border:14px solid green;"">","null","","","","","","","","","",""
"","image-keyboard-response","237","242068","0.0-326.0","37WLF8U1WQC85SAU4XUHHDEBUZ9K66","A3S5AA4R3RIEEP","3XT3KXP24ZKFDDMCDS43FE3AU9W6IW","","584.6999998092651","img/food4.png","76","585.2000000476837","3","1","","1","1","1,0.5,0,1,0.5,0,0.5,0,1","0.5,0,1,0.5,0,1,0,1,0.5","2",""
"","html-keyboard-response","238","242369","0.0-327.0","37WLF8U1WQC85SAU4XUHHDEBUZ9K66","A3S5AA4R3RIEEP","3XT3KXP24ZKFDDMCDS43FE3AU9W6IW","","null","<img src=""img/food4.png"" style=""width:200px; border:14px solid green;"">","null","","","","","","","","","",""
"","image-keyboard-response","239","242878","0.0-328.0","37WLF8U1WQC85SAU4XUHHDEBUZ9K66","A3S5AA4R3RIEEP","3XT3KXP24ZKFDDMCDS43FE3AU9W6IW","","508.2000000476837","img/food6.png","76","509.10000014305115","3","1","","3","1","1,0.5,0,1,0.5,0,0.5,0,1","0.5,0,1,0.5,0,1,0,1,0.5","2",""
"","html-keyboard-response","240","243180","0.0-329.0","37WLF8U1WQC85SAU4XUHHDEBUZ9K66","A3S5AA4R3RIEEP","3XT3KXP24ZKFDDMCDS43FE3AU9W6IW","","null","<img src=""img/food6.png"" style=""width:200px; border:14px solid green;"">","null","","","","","","","","","",""
"","image-keyboard-response","241","243684","0.0-330.0","37WLF8U1WQC85SAU4XUHHDEBUZ9K66","A3S5AA4R3RIEEP","3XT3KXP24ZKFDDMCDS43FE3AU9W6IW","","503.19999980926514","img/food6.png","76","504","3","0","","3","1","1,0.5,0,1,0.5,0,0.5,0,1","0.5,0,1,0.5,0,1,0,1,0.5","2",""
"","html-keyboard-response","242","243985","0.0-331.0","37WLF8U1WQC85SAU4XUHHDEBUZ9K66","A3S5AA4R3RIEEP","3XT3KXP24ZKFDDMCDS43FE3AU9W6IW","","null","<img src=""img/food6.png"" style=""width:200px;border:14px solid red;"">","null","","","","","","","","","",""
"","image-keyboard-response","243","245212","0.0-332.0","37WLF8U1WQC85SAU4XUHHDEBUZ9K66","A3S5AA4R3RIEEP","3XT3KXP24ZKFDDMCDS43FE3AU9W6IW","","1225.7000000476837","img/food3.png","75","1226.2000000476837","2","0","","2","1","1,0.5,0,1,0.5,0,0.5,0,1","0.5,0,1,0.5,0,1,0,1,0.5","2",""
"","html-keyboard-response","244","245513","0.0-333.0","37WLF8U1WQC85SAU4XUHHDEBUZ9K66","A3S5AA4R3RIEEP","3XT3KXP24ZKFDDMCDS43FE3AU9W6IW","","null","<img src=""img/food3.png"" style=""width:200px;border:14px solid red;"">","null","","","","","","","","","",""
"","image-keyboard-response","245","246892","0.0-334.0","37WLF8U1WQC85SAU4XUHHDEBUZ9K66","A3S5AA4R3RIEEP","3XT3KXP24ZKFDDMCDS43FE3AU9W6IW","","1377.5","img/food4.png","75","1378.1000001430511","2","0","","1","1","1,0.5,0,1,0.5,0,0.5,0,1","0.5,0,1,0.5,0,1,0,1,0.5","2",""
"","html-keyboard-response","246","247194","0.0-335.0","37WLF8U1WQC85SAU4XUHHDEBUZ9K66","A3S5AA4R3RIEEP","3XT3KXP24ZKFDDMCDS43FE3AU9W6IW","","null","<img src=""img/food4.png"" style=""width:200px;border:14px solid red;"">","null","","","","","","","","","",""
"","image-keyboard-response","247","247412","0.0-336.0","37WLF8U1WQC85SAU4XUHHDEBUZ9K66","A3S5AA4R3RIEEP","3XT3KXP24ZKFDDMCDS43FE3AU9W6IW","","217.29999995231628","img/food3.png","76","218","3","1","","2","1","1,0.5,0,1,0.5,0,0.5,0,1","0.5,0,1,0.5,0,1,0,1,0.5","2",""
"","html-keyboard-response","248","247714","0.0-337.0","37WLF8U1WQC85SAU4XUHHDEBUZ9K66","A3S5AA4R3RIEEP","3XT3KXP24ZKFDDMCDS43FE3AU9W6IW","","null","<img src=""img/food3.png"" style=""width:200px; border:14px solid green;"">","null","","","","","","","","","",""
"","image-keyboard-response","249","248684","0.0-338.0","37WLF8U1WQC85SAU4XUHHDEBUZ9K66","A3S5AA4R3RIEEP","3XT3KXP24ZKFDDMCDS43FE3AU9W6IW","","969.3999998569489","img/food3.png","76","970.1000001430511","3","1","","2","1","1,0.5,0,1,0.5,0,0.5,0,1","0.5,0,1,0.5,0,1,0,1,0.5","2",""
"","html-keyboard-response","250","248985","0.0-339.0","37WLF8U1WQC85SAU4XUHHDEBUZ9K66","A3S5AA4R3RIEEP","3XT3KXP24ZKFDDMCDS43FE3AU9W6IW","","null","<img src=""img/food3.png"" style=""width:200px; border:14px solid green;"">","null","","","","","","","","","",""
"","image-keyboard-response","251","249492","0.0-340.0","37WLF8U1WQC85SAU4XUHHDEBUZ9K66","A3S5AA4R3RIEEP","3XT3KXP24ZKFDDMCDS43FE3AU9W6IW","","505.59999990463257","img/food3.png","76","506.2999999523163","3","1","","2","1","1,0.5,0,1,0.5,0,0.5,0,1","0.5,0,1,0.5,0,1,0,1,0.5","2",""
"","html-keyboard-response","252","249795","0.0-341.0","37WLF8U1WQC85SAU4XUHHDEBUZ9K66","A3S5AA4R3RIEEP","3XT3KXP24ZKFDDMCDS43FE3AU9W6IW","","null","<img src=""img/food3.png"" style=""width:200px; border:14px solid green;"">","null","","","","","","","","","",""
"","image-keyboard-response","253","250540","0.0-342.0","37WLF8U1WQC85SAU4XUHHDEBUZ9K66","A3S5AA4R3RIEEP","3XT3KXP24ZKFDDMCDS43FE3AU9W6IW","","744.3999998569489","img/food4.png","76","745","3","1","","1","1","1,0.5,0,1,0.5,0,0.5,0,1","0.5,0,1,0.5,0,1,0,1,0.5","2",""
"","html-keyboard-response","254","250842","0.0-343.0","37WLF8U1WQC85SAU4XUHHDEBUZ9K66","A3S5AA4R3RIEEP","3XT3KXP24ZKFDDMCDS43FE3AU9W6IW","","null","<img src=""img/food4.png"" style=""width:200px; border:14px solid green;"">","null","","","","","","","","","",""
"","image-keyboard-response","255","251260","0.0-344.0","37WLF8U1WQC85SAU4XUHHDEBUZ9K66","A3S5AA4R3RIEEP","3XT3KXP24ZKFDDMCDS43FE3AU9W6IW","","417.5","img/food3.png","76","418.2999999523163","3","1","","2","1","1,0.5,0,1,0.5,0,0.5,0,1","0.5,0,1,0.5,0,1,0,1,0.5","2",""
"","html-keyboard-response","256","251562","0.0-345.0","37WLF8U1WQC85SAU4XUHHDEBUZ9K66","A3S5AA4R3RIEEP","3XT3KXP24ZKFDDMCDS43FE3AU9W6IW","","null","<img src=""img/food3.png"" style=""width:200px; border:14px solid green;"">","null","","","","","","","","","",""
"","image-keyboard-response","257","251860","0.0-346.0","37WLF8U1WQC85SAU4XUHHDEBUZ9K66","A3S5AA4R3RIEEP","3XT3KXP24ZKFDDMCDS43FE3AU9W6IW","","297.2999999523163","img/food3.png","76","297.90000009536743","3","1","","2","1","1,0.5,0,1,0.5,0,0.5,0,1","0.5,0,1,0.5,0,1,0,1,0.5","2",""
"","html-keyboard-response","258","252161","0.0-347.0","37WLF8U1WQC85SAU4XUHHDEBUZ9K66","A3S5AA4R3RIEEP","3XT3KXP24ZKFDDMCDS43FE3AU9W6IW","","null","<img src=""img/food3.png"" style=""width:200px; border:14px solid green;"">","null","","","","","","","","","",""
"","image-keyboard-response","259","252452","0.0-348.0","37WLF8U1WQC85SAU4XUHHDEBUZ9K66","A3S5AA4R3RIEEP","3XT3KXP24ZKFDDMCDS43FE3AU9W6IW","","289.60000014305115","img/food3.png","76","290.2999999523163","3","1","","2","1","1,0.5,0,1,0.5,0,0.5,0,1","0.5,0,1,0.5,0,1,0,1,0.5","2",""
"","html-keyboard-response","260","252754","0.0-349.0","37WLF8U1WQC85SAU4XUHHDEBUZ9K66","A3S5AA4R3RIEEP","3XT3KXP24ZKFDDMCDS43FE3AU9W6IW","","null","<img src=""img/food3.png"" style=""width:200px; border:14px solid green;"">","null","","","","","","","","","",""
"","image-keyboard-response","261","252932","0.0-350.0","37WLF8U1WQC85SAU4XUHHDEBUZ9K66","A3S5AA4R3RIEEP","3XT3KXP24ZKFDDMCDS43FE3AU9W6IW","","176.79999995231628","img/food6.png","76","177.80000019073486","3","1","","3","1","1,0.5,0,1,0.5,0,0.5,0,1","0.5,0,1,0.5,0,1,0,1,0.5","2",""
"","html-keyboard-response","262","253233","0.0-351.0","37WLF8U1WQC85SAU4XUHHDEBUZ9K66","A3S5AA4R3RIEEP","3XT3KXP24ZKFDDMCDS43FE3AU9W6IW","","null","<img src=""img/food6.png"" style=""width:200px; border:14px solid green;"">","null","","","","","","","","","",""
"","image-keyboard-response","263","253604","0.0-352.0","37WLF8U1WQC85SAU4XUHHDEBUZ9K66","A3S5AA4R3RIEEP","3XT3KXP24ZKFDDMCDS43FE3AU9W6IW","","369.59999990463257","img/food4.png","76","370.2000000476837","3","1","","1","1","1,0.5,0,1,0.5,0,0.5,0,1","0.5,0,1,0.5,0,1,0,1,0.5","2",""
"","html-keyboard-response","264","253907","0.0-353.0","37WLF8U1WQC85SAU4XUHHDEBUZ9K66","A3S5AA4R3RIEEP","3XT3KXP24ZKFDDMCDS43FE3AU9W6IW","","null","<img src=""img/food4.png"" style=""width:200px; border:14px solid green;"">","null","","","","","","","","","",""
"","image-keyboard-response","265","254020","0.0-354.0","37WLF8U1WQC85SAU4XUHHDEBUZ9K66","A3S5AA4R3RIEEP","3XT3KXP24ZKFDDMCDS43FE3AU9W6IW","","112.19999980926514","img/food4.png","76","112.90000009536743","3","1","","1","1","1,0.5,0,1,0.5,0,0.5,0,1","0.5,0,1,0.5,0,1,0,1,0.5","2",""
"","html-keyboard-response","266","254322","0.0-355.0","37WLF8U1WQC85SAU4XUHHDEBUZ9K66","A3S5AA4R3RIEEP","3XT3KXP24ZKFDDMCDS43FE3AU9W6IW","","null","<img src=""img/food4.png"" style=""width:200px; border:14px solid green;"">","null","","","","","","","","","",""
"","image-keyboard-response","267","254388","0.0-356.0","37WLF8U1WQC85SAU4XUHHDEBUZ9K66","A3S5AA4R3RIEEP","3XT3KXP24ZKFDDMCDS43FE3AU9W6IW","","65.20000004768372","img/food4.png","76","65.89999985694885","3","1","","1","1","1,0.5,0,1,0.5,0,0.5,0,1","0.5,0,1,0.5,0,1,0,1,0.5","2",""
"","html-keyboard-response","268","254690","0.0-357.0","37WLF8U1WQC85SAU4XUHHDEBUZ9K66","A3S5AA4R3RIEEP","3XT3KXP24ZKFDDMCDS43FE3AU9W6IW","","null","<img src=""img/food4.png"" style=""width:200px; border:14px solid green;"">","null","","","","","","","","","",""
"","image-keyboard-response","269","254708","0.0-358.0","37WLF8U1WQC85SAU4XUHHDEBUZ9K66","A3S5AA4R3RIEEP","3XT3KXP24ZKFDDMCDS43FE3AU9W6IW","","16.40000009536743","img/food3.png","76","17.200000047683716","3","1","","2","1","1,0.5,0,1,0.5,0,0.5,0,1","0.5,0,1,0.5,0,1,0,1,0.5","2",""
"","html-keyboard-response","270","255010","0.0-359.0","37WLF8U1WQC85SAU4XUHHDEBUZ9K66","A3S5AA4R3RIEEP","3XT3KXP24ZKFDDMCDS43FE3AU9W6IW","","null","<img src=""img/food3.png"" style=""width:200px; border:14px solid green;"">","null","","","","","","","","","",""
"","image-keyboard-response","271","255076","0.0-360.0","37WLF8U1WQC85SAU4XUHHDEBUZ9K66","A3S5AA4R3RIEEP","3XT3KXP24ZKFDDMCDS43FE3AU9W6IW","","64.5","img/food6.png","76","65.29999995231628","3","0","","3","1","1,0.5,0,1,0.5,0,0.5,0,1","0.5,0,1,0.5,0,1,0,1,0.5","2",""
"","html-keyboard-response","272","255378","0.0-361.0","37WLF8U1WQC85SAU4XUHHDEBUZ9K66","A3S5AA4R3RIEEP","3XT3KXP24ZKFDDMCDS43FE3AU9W6IW","","null","<img src=""img/food6.png"" style=""width:200px;border:14px solid red;"">","null","","","","","","","","","",""
"","image-keyboard-response","273","256060","0.0-362.0","37WLF8U1WQC85SAU4XUHHDEBUZ9K66","A3S5AA4R3RIEEP","3XT3KXP24ZKFDDMCDS43FE3AU9W6IW","","681.2999999523163","img/food6.png","76","682.2000000476837","3","1","","3","1","1,0.5,0,1,0.5,0,0.5,0,1","0.5,0,1,0.5,0,1,0,1,0.5","2",""
"","html-keyboard-response","274","256361","0.0-363.0","37WLF8U1WQC85SAU4XUHHDEBUZ9K66","A3S5AA4R3RIEEP","3XT3KXP24ZKFDDMCDS43FE3AU9W6IW","","null","<img src=""img/food6.png"" style=""width:200px; border:14px solid green;"">","null","","","","","","","","","",""
"","image-keyboard-response","275","256396","0.0-364.0","37WLF8U1WQC85SAU4XUHHDEBUZ9K66","A3S5AA4R3RIEEP","3XT3KXP24ZKFDDMCDS43FE3AU9W6IW","","33.700000047683716","img/food6.png","76","34.59999990463257","3","1","","3","1","1,0.5,0,1,0.5,0,0.5,0,1","0.5,0,1,0.5,0,1,0,1,0.5","2",""
"","html-keyboard-response","276","256698","0.0-365.0","37WLF8U1WQC85SAU4XUHHDEBUZ9K66","A3S5AA4R3RIEEP","3XT3KXP24ZKFDDMCDS43FE3AU9W6IW","","null","<img src=""img/food6.png"" style=""width:200px; border:14px solid green;"">","null","","","","","","","","","",""
"","image-keyboard-response","277","256757","0.0-366.0","37WLF8U1WQC85SAU4XUHHDEBUZ9K66","A3S5AA4R3RIEEP","3XT3KXP24ZKFDDMCDS43FE3AU9W6IW","","57.700000047683716","img/food6.png","76","58.39999985694885","3","1","","3","1","1,0.5,0,1,0.5,0,0.5,0,1","0.5,0,1,0.5,0,1,0,1,0.5","2",""
"","html-keyboard-response","278","257059","0.0-367.0","37WLF8U1WQC85SAU4XUHHDEBUZ9K66","A3S5AA4R3RIEEP","3XT3KXP24ZKFDDMCDS43FE3AU9W6IW","","null","<img src=""img/food6.png"" style=""width:200px; border:14px solid green;"">","null","","","","","","","","","",""
"","image-keyboard-response","279","257060","0.0-368.0","37WLF8U1WQC85SAU4XUHHDEBUZ9K66","A3S5AA4R3RIEEP","3XT3KXP24ZKFDDMCDS43FE3AU9W6IW","","0.39999985694885254","img/food3.png","76","1.2000000476837158","3","1","","2","1","1,0.5,0,1,0.5,0,0.5,0,1","0.5,0,1,0.5,0,1,0,1,0.5","2",""
"","html-keyboard-response","280","257362","0.0-369.0","37WLF8U1WQC85SAU4XUHHDEBUZ9K66","A3S5AA4R3RIEEP","3XT3KXP24ZKFDDMCDS43FE3AU9W6IW","","null","<img src=""img/food3.png"" style=""width:200px; border:14px solid green;"">","null","","","","","","","","","",""
"","image-keyboard-response","281","257444","0.0-370.0","37WLF8U1WQC85SAU4XUHHDEBUZ9K66","A3S5AA4R3RIEEP","3XT3KXP24ZKFDDMCDS43FE3AU9W6IW","","81.59999990463257","img/food4.png","76","82.09999990463257","3","1","","1","1","1,0.5,0,1,0.5,0,0.5,0,1","0.5,0,1,0.5,0,1,0,1,0.5","2",""
"","html-keyboard-response","282","257745","0.0-371.0","37WLF8U1WQC85SAU4XUHHDEBUZ9K66","A3S5AA4R3RIEEP","3XT3KXP24ZKFDDMCDS43FE3AU9W6IW","","null","<img src=""img/food4.png"" style=""width:200px; border:14px solid green;"">","null","","","","","","","","","",""
"","image-keyboard-response","283","258092","0.0-372.0","37WLF8U1WQC85SAU4XUHHDEBUZ9K66","A3S5AA4R3RIEEP","3XT3KXP24ZKFDDMCDS43FE3AU9W6IW","","345.69999980926514","img/food6.png","76","346.2999999523163","3","1","","3","1","1,0.5,0,1,0.5,0,0.5,0,1","0.5,0,1,0.5,0,1,0,1,0.5","2",""
"","html-keyboard-response","284","258394","0.0-373.0","37WLF8U1WQC85SAU4XUHHDEBUZ9K66","A3S5AA4R3RIEEP","3XT3KXP24ZKFDDMCDS43FE3AU9W6IW","","null","<img src=""img/food6.png"" style=""width:200px; border:14px solid green;"">","null","","","","","","","","","",""
"","image-keyboard-response","285","258604","0.0-374.0","37WLF8U1WQC85SAU4XUHHDEBUZ9K66","A3S5AA4R3RIEEP","3XT3KXP24ZKFDDMCDS43FE3AU9W6IW","","208.5","img/food4.png","76","209.29999995231628","3","1","","1","1","1,0.5,0,1,0.5,0,0.5,0,1","0.5,0,1,0.5,0,1,0,1,0.5","2",""
"","html-keyboard-response","286","258905","0.0-375.0","37WLF8U1WQC85SAU4XUHHDEBUZ9K66","A3S5AA4R3RIEEP","3XT3KXP24ZKFDDMCDS43FE3AU9W6IW","","null","<img src=""img/food4.png"" style=""width:200px; border:14px solid green;"">","null","","","","","","","","","",""
"","image-keyboard-response","287","259004","0.0-376.0","37WLF8U1WQC85SAU4XUHHDEBUZ9K66","A3S5AA4R3RIEEP","3XT3KXP24ZKFDDMCDS43FE3AU9W6IW","","96.90000009536743","img/food6.png","76","97.5","3","0","","3","1","1,0.5,0,1,0.5,0,0.5,0,1","0.5,0,1,0.5,0,1,0,1,0.5","2",""
"","html-keyboard-response","288","259316","0.0-377.0","37WLF8U1WQC85SAU4XUHHDEBUZ9K66","A3S5AA4R3RIEEP","3XT3KXP24ZKFDDMCDS43FE3AU9W6IW","","null","<img src=""img/food6.png"" style=""width:200px;border:14px solid red;"">","null","","","","","","","","","",""
"","image-keyboard-response","289","259420","0.0-378.0","37WLF8U1WQC85SAU4XUHHDEBUZ9K66","A3S5AA4R3RIEEP","3XT3KXP24ZKFDDMCDS43FE3AU9W6IW","","102.80000019073486","img/food4.png","76","103.90000009536743","3","1","","1","1","1,0.5,0,1,0.5,0,0.5,0,1","0.5,0,1,0.5,0,1,0,1,0.5","2",""
"","html-keyboard-response","290","259721","0.0-379.0","37WLF8U1WQC85SAU4XUHHDEBUZ9K66","A3S5AA4R3RIEEP","3XT3KXP24ZKFDDMCDS43FE3AU9W6IW","","null","<img src=""img/food4.png"" style=""width:200px; border:14px solid green;"">","null","","","","","","","","","",""
"","image-keyboard-response","291","259796","0.0-380.0","37WLF8U1WQC85SAU4XUHHDEBUZ9K66","A3S5AA4R3RIEEP","3XT3KXP24ZKFDDMCDS43FE3AU9W6IW","","73.70000004768372","img/food3.png","76","74.39999985694885","3","1","","2","1","1,0.5,0,1,0.5,0,0.5,0,1","0.5,0,1,0.5,0,1,0,1,0.5","2",""
"","html-keyboard-response","292","260097","0.0-381.0","37WLF8U1WQC85SAU4XUHHDEBUZ9K66","A3S5AA4R3RIEEP","3XT3KXP24ZKFDDMCDS43FE3AU9W6IW","","null","<img src=""img/food3.png"" style=""width:200px; border:14px solid green;"">","null","","","","","","","","","",""
"","image-keyboard-response","293","260124","0.0-382.0","37WLF8U1WQC85SAU4XUHHDEBUZ9K66","A3S5AA4R3RIEEP","3XT3KXP24ZKFDDMCDS43FE3AU9W6IW","","25.799999952316284","img/food6.png","76","26.59999990463257","3","1","","3","1","1,0.5,0,1,0.5,0,0.5,0,1","0.5,0,1,0.5,0,1,0,1,0.5","2",""
"","html-keyboard-response","294","260426","0.0-383.0","37WLF8U1WQC85SAU4XUHHDEBUZ9K66","A3S5AA4R3RIEEP","3XT3KXP24ZKFDDMCDS43FE3AU9W6IW","","null","<img src=""img/food6.png"" style=""width:200px; border:14px solid green;"">","null","","","","","","","","","",""
"","image-keyboard-response","295","260525","0.0-384.0","37WLF8U1WQC85SAU4XUHHDEBUZ9K66","A3S5AA4R3RIEEP","3XT3KXP24ZKFDDMCDS43FE3AU9W6IW","","98.09999990463257","img/food4.png","76","99","3","1","","1","1","1,0.5,0,1,0.5,0,0.5,0,1","0.5,0,1,0.5,0,1,0,1,0.5","2",""
"","html-keyboard-response","296","260827","0.0-385.0","37WLF8U1WQC85SAU4XUHHDEBUZ9K66","A3S5AA4R3RIEEP","3XT3KXP24ZKFDDMCDS43FE3AU9W6IW","","null","<img src=""img/food4.png"" style=""width:200px; border:14px solid green;"">","null","","","","","","","","","",""
"","image-keyboard-response","297","260924","0.0-386.0","37WLF8U1WQC85SAU4XUHHDEBUZ9K66","A3S5AA4R3RIEEP","3XT3KXP24ZKFDDMCDS43FE3AU9W6IW","","95","img/food3.png","76","95.90000009536743","3","1","","2","1","1,0.5,0,1,0.5,0,0.5,0,1","0.5,0,1,0.5,0,1,0,1,0.5","2",""
"","html-keyboard-response","298","261225","0.0-387.0","37WLF8U1WQC85SAU4XUHHDEBUZ9K66","A3S5AA4R3RIEEP","3XT3KXP24ZKFDDMCDS43FE3AU9W6IW","","null","<img src=""img/food3.png"" style=""width:200px; border:14px solid green;"">","null","","","","","","","","","",""
"","image-keyboard-response","299","261572","0.0-388.0","37WLF8U1WQC85SAU4XUHHDEBUZ9K66","A3S5AA4R3RIEEP","3XT3KXP24ZKFDDMCDS43FE3AU9W6IW","","346","img/food6.png","76","346.89999985694885","3","1","","3","1","1,0.5,0,1,0.5,0,0.5,0,1","0.5,0,1,0.5,0,1,0,1,0.5","2",""
"","html-keyboard-response","300","261874","0.0-389.0","37WLF8U1WQC85SAU4XUHHDEBUZ9K66","A3S5AA4R3RIEEP","3XT3KXP24ZKFDDMCDS43FE3AU9W6IW","","null","<img src=""img/food6.png"" style=""width:200px; border:14px solid green;"">","null","","","","","","","","","",""
"","image-keyboard-response","301","261908","0.0-390.0","37WLF8U1WQC85SAU4XUHHDEBUZ9K66","A3S5AA4R3RIEEP","3XT3KXP24ZKFDDMCDS43FE3AU9W6IW","","32.89999985694885","img/food4.png","76","33.5","3","1","","1","1","1,0.5,0,1,0.5,0,0.5,0,1","0.5,0,1,0.5,0,1,0,1,0.5","2",""
"","html-keyboard-response","302","262208","0.0-391.0","37WLF8U1WQC85SAU4XUHHDEBUZ9K66","A3S5AA4R3RIEEP","3XT3KXP24ZKFDDMCDS43FE3AU9W6IW","","null","<img src=""img/food4.png"" style=""width:200px; border:14px solid green;"">","null","","","","","","","","","",""
"","image-keyboard-response","303","262284","0.0-392.0","37WLF8U1WQC85SAU4XUHHDEBUZ9K66","A3S5AA4R3RIEEP","3XT3KXP24ZKFDDMCDS43FE3AU9W6IW","","74.5","img/food4.png","76","75.29999995231628","3","1","","1","1","1,0.5,0,1,0.5,0,0.5,0,1","0.5,0,1,0.5,0,1,0,1,0.5","2",""
"","html-keyboard-response","304","262586","0.0-393.0","37WLF8U1WQC85SAU4XUHHDEBUZ9K66","A3S5AA4R3RIEEP","3XT3KXP24ZKFDDMCDS43FE3AU9W6IW","","null","<img src=""img/food4.png"" style=""width:200px; border:14px solid green;"">","null","","","","","","","","","",""
"","image-keyboard-response","305","262604","0.0-394.0","37WLF8U1WQC85SAU4XUHHDEBUZ9K66","A3S5AA4R3RIEEP","3XT3KXP24ZKFDDMCDS43FE3AU9W6IW","","16.90000009536743","img/food4.png","76","18","3","1","","1","1","1,0.5,0,1,0.5,0,0.5,0,1","0.5,0,1,0.5,0,1,0,1,0.5","2",""
"","html-keyboard-response","306","262906","0.0-395.0","37WLF8U1WQC85SAU4XUHHDEBUZ9K66","A3S5AA4R3RIEEP","3XT3KXP24ZKFDDMCDS43FE3AU9W6IW","","null","<img src=""img/food4.png"" style=""width:200px; border:14px solid green;"">","null","","","","","","","","","",""
"","image-keyboard-response","307","262916","0.0-396.0","37WLF8U1WQC85SAU4XUHHDEBUZ9K66","A3S5AA4R3RIEEP","3XT3KXP24ZKFDDMCDS43FE3AU9W6IW","","9.100000143051147","img/food6.png","76","9.799999952316284","3","0","","3","1","1,0.5,0,1,0.5,0,0.5,0,1","0.5,0,1,0.5,0,1,0,1,0.5","2",""
"","html-keyboard-response","308","263217","0.0-397.0","37WLF8U1WQC85SAU4XUHHDEBUZ9K66","A3S5AA4R3RIEEP","3XT3KXP24ZKFDDMCDS43FE3AU9W6IW","","null","<img src=""img/food6.png"" style=""width:200px;border:14px solid red;"">","null","","","","","","","","","",""
"","image-keyboard-response","309","263243","0.0-398.0","37WLF8U1WQC85SAU4XUHHDEBUZ9K66","A3S5AA4R3RIEEP","3XT3KXP24ZKFDDMCDS43FE3AU9W6IW","","25.90000009536743","img/food4.png","76","26.40000009536743","3","1","","1","1","1,0.5,0,1,0.5,0,0.5,0,1","0.5,0,1,0.5,0,1,0,1,0.5","2",""
"","html-keyboard-response","310","263546","0.0-399.0","37WLF8U1WQC85SAU4XUHHDEBUZ9K66","A3S5AA4R3RIEEP","3XT3KXP24ZKFDDMCDS43FE3AU9W6IW","","null","<img src=""img/food4.png"" style=""width:200px; border:14px solid green;"">","null","","","","","","","","","",""
"","image-keyboard-response","311","263628","0.0-400.0","37WLF8U1WQC85SAU4XUHHDEBUZ9K66","A3S5AA4R3RIEEP","3XT3KXP24ZKFDDMCDS43FE3AU9W6IW","","81.29999995231628","img/food6.png","76","82.10000014305115","3","1","","3","1","1,0.5,0,1,0.5,0,0.5,0,1","0.5,0,1,0.5,0,1,0,1,0.5","2",""
"","html-keyboard-response","312","263930","0.0-401.0","37WLF8U1WQC85SAU4XUHHDEBUZ9K66","A3S5AA4R3RIEEP","3XT3KXP24ZKFDDMCDS43FE3AU9W6IW","","null","<img src=""img/food6.png"" style=""width:200px; border:14px solid green;"">","null","","","","","","","","","",""
"","image-keyboard-response","313","264190","0.0-402.0","37WLF8U1WQC85SAU4XUHHDEBUZ9K66","A3S5AA4R3RIEEP","3XT3KXP24ZKFDDMCDS43FE3AU9W6IW","","259.10000014305115","img/food4.png","76","260","3","1","","1","1","1,0.5,0,1,0.5,0,0.5,0,1","0.5,0,1,0.5,0,1,0,1,0.5","2",""
"","html-keyboard-response","314","264491","0.0-403.0","37WLF8U1WQC85SAU4XUHHDEBUZ9K66","A3S5AA4R3RIEEP","3XT3KXP24ZKFDDMCDS43FE3AU9W6IW","","null","<img src=""img/food4.png"" style=""width:200px; border:14px solid green;"">","null","","","","","","","","","",""
"","image-keyboard-response","315","264742","0.0-404.0","37WLF8U1WQC85SAU4XUHHDEBUZ9K66","A3S5AA4R3RIEEP","3XT3KXP24ZKFDDMCDS43FE3AU9W6IW","","249.70000004768372","img/food6.png","76","250.29999995231628","3","0","","3","1","1,0.5,0,1,0.5,0,0.5,0,1","0.5,0,1,0.5,0,1,0,1,0.5","2",""
"","html-keyboard-response","316","265043","0.0-405.0","37WLF8U1WQC85SAU4XUHHDEBUZ9K66","A3S5AA4R3RIEEP","3XT3KXP24ZKFDDMCDS43FE3AU9W6IW","","null","<img src=""img/food6.png"" style=""width:200px;border:14px solid red;"">","null","","","","","","","","","",""
"","image-keyboard-response","317","265308","0.0-406.0","37WLF8U1WQC85SAU4XUHHDEBUZ9K66","A3S5AA4R3RIEEP","3XT3KXP24ZKFDDMCDS43FE3AU9W6IW","","263.89999985694885","img/food3.png","76","264.60000014305115","3","1","","2","1","1,0.5,0,1,0.5,0,0.5,0,1","0.5,0,1,0.5,0,1,0,1,0.5","2",""
"","html-keyboard-response","318","265609","0.0-407.0","37WLF8U1WQC85SAU4XUHHDEBUZ9K66","A3S5AA4R3RIEEP","3XT3KXP24ZKFDDMCDS43FE3AU9W6IW","","null","<img src=""img/food3.png"" style=""width:200px; border:14px solid green;"">","null","","","","","","","","","",""
"","image-keyboard-response","319","265860","0.0-408.0","37WLF8U1WQC85SAU4XUHHDEBUZ9K66","A3S5AA4R3RIEEP","3XT3KXP24ZKFDDMCDS43FE3AU9W6IW","","250.39999985694885","img/food6.png","76","251.19999980926514","3","1","","3","1","1,0.5,0,1,0.5,0,0.5,0,1","0.5,0,1,0.5,0,1,0,1,0.5","2",""
"","html-keyboard-response","320","266162","0.0-409.0","37WLF8U1WQC85SAU4XUHHDEBUZ9K66","A3S5AA4R3RIEEP","3XT3KXP24ZKFDDMCDS43FE3AU9W6IW","","null","<img src=""img/food6.png"" style=""width:200px; border:14px solid green;"">","null","","","","","","","","","",""
"","image-keyboard-response","321","266228","0.0-410.0","37WLF8U1WQC85SAU4XUHHDEBUZ9K66","A3S5AA4R3RIEEP","3XT3KXP24ZKFDDMCDS43FE3AU9W6IW","","64.5","img/food6.png","76","65.29999995231628","3","0","","3","1","1,0.5,0,1,0.5,0,0.5,0,1","0.5,0,1,0.5,0,1,0,1,0.5","2",""
"","html-keyboard-response","322","266530","0.0-411.0","37WLF8U1WQC85SAU4XUHHDEBUZ9K66","A3S5AA4R3RIEEP","3XT3KXP24ZKFDDMCDS43FE3AU9W6IW","","null","<img src=""img/food6.png"" style=""width:200px;border:14px solid red;"">","null","","","","","","","","","",""
"","image-keyboard-response","323","266764","0.0-412.0","37WLF8U1WQC85SAU4XUHHDEBUZ9K66","A3S5AA4R3RIEEP","3XT3KXP24ZKFDDMCDS43FE3AU9W6IW","","232.70000004768372","img/food3.png","76","233.39999985694885","3","1","","2","1","1,0.5,0,1,0.5,0,0.5,0,1","0.5,0,1,0.5,0,1,0,1,0.5","2",""
"","html-keyboard-response","324","267066","0.0-413.0","37WLF8U1WQC85SAU4XUHHDEBUZ9K66","A3S5AA4R3RIEEP","3XT3KXP24ZKFDDMCDS43FE3AU9W6IW","","null","<img src=""img/food3.png"" style=""width:200px; border:14px solid green;"">","null","","","","","","","","","",""
"","image-keyboard-response","325","267308","0.0-414.0","37WLF8U1WQC85SAU4XUHHDEBUZ9K66","A3S5AA4R3RIEEP","3XT3KXP24ZKFDDMCDS43FE3AU9W6IW","","242.10000014305115","img/food3.png","76","242.60000014305115","3","1","","2","1","1,0.5,0,1,0.5,0,0.5,0,1","0.5,0,1,0.5,0,1,0,1,0.5","2",""
"","html-keyboard-response","326","267612","0.0-415.0","37WLF8U1WQC85SAU4XUHHDEBUZ9K66","A3S5AA4R3RIEEP","3XT3KXP24ZKFDDMCDS43FE3AU9W6IW","","null","<img src=""img/food3.png"" style=""width:200px; border:14px solid green;"">","null","","","","","","","","","",""
"","image-keyboard-response","327","267772","0.0-416.0","37WLF8U1WQC85SAU4XUHHDEBUZ9K66","A3S5AA4R3RIEEP","3XT3KXP24ZKFDDMCDS43FE3AU9W6IW","","158.79999995231628","img/food6.png","76","159.80000019073486","3","1","","3","1","1,0.5,0,1,0.5,0,0.5,0,1","0.5,0,1,0.5,0,1,0,1,0.5","2",""
"","html-keyboard-response","328","268073","0.0-417.0","37WLF8U1WQC85SAU4XUHHDEBUZ9K66","A3S5AA4R3RIEEP","3XT3KXP24ZKFDDMCDS43FE3AU9W6IW","","null","<img src=""img/food6.png"" style=""width:200px; border:14px solid green;"">","null","","","","","","","","","",""
"","image-keyboard-response","329","268276","0.0-418.0","37WLF8U1WQC85SAU4XUHHDEBUZ9K66","A3S5AA4R3RIEEP","3XT3KXP24ZKFDDMCDS43FE3AU9W6IW","","202.09999990463257","img/food3.png","76","202.90000009536743","3","1","","2","1","1,0.5,0,1,0.5,0,0.5,0,1","0.5,0,1,0.5,0,1,0,1,0.5","2",""
"","html-keyboard-response","330","268577","0.0-419.0","37WLF8U1WQC85SAU4XUHHDEBUZ9K66","A3S5AA4R3RIEEP","3XT3KXP24ZKFDDMCDS43FE3AU9W6IW","","null","<img src=""img/food3.png"" style=""width:200px; border:14px solid green;"">","null","","","","","","","","","",""
"","image-keyboard-response","331","268812","0.0-420.0","37WLF8U1WQC85SAU4XUHHDEBUZ9K66","A3S5AA4R3RIEEP","3XT3KXP24ZKFDDMCDS43FE3AU9W6IW","","233.60000014305115","img/food6.png","76","234.29999995231628","3","0","","3","1","1,0.5,0,1,0.5,0,0.5,0,1","0.5,0,1,0.5,0,1,0,1,0.5","2",""
"","html-keyboard-response","332","269113","0.0-421.0","37WLF8U1WQC85SAU4XUHHDEBUZ9K66","A3S5AA4R3RIEEP","3XT3KXP24ZKFDDMCDS43FE3AU9W6IW","","null","<img src=""img/food6.png"" style=""width:200px;border:14px solid red;"">","null","","","","","","","","","",""
"","image-keyboard-response","333","269341","0.0-422.0","37WLF8U1WQC85SAU4XUHHDEBUZ9K66","A3S5AA4R3RIEEP","3XT3KXP24ZKFDDMCDS43FE3AU9W6IW","","226.89999985694885","img/food3.png","76","227.60000014305115","3","1","","2","1","1,0.5,0,1,0.5,0,0.5,0,1","0.5,0,1,0.5,0,1,0,1,0.5","2",""
"","html-keyboard-response","334","269642","0.0-423.0","37WLF8U1WQC85SAU4XUHHDEBUZ9K66","A3S5AA4R3RIEEP","3XT3KXP24ZKFDDMCDS43FE3AU9W6IW","","null","<img src=""img/food3.png"" style=""width:200px; border:14px solid green;"">","null","","","","","","","","","",""
"","image-keyboard-response","335","269892","0.0-424.0","37WLF8U1WQC85SAU4XUHHDEBUZ9K66","A3S5AA4R3RIEEP","3XT3KXP24ZKFDDMCDS43FE3AU9W6IW","","248.40000009536743","img/food6.png","76","249.09999990463257","3","0","","3","1","1,0.5,0,1,0.5,0,0.5,0,1","0.5,0,1,0.5,0,1,0,1,0.5","2",""
"","html-keyboard-response","336","270194","0.0-425.0","37WLF8U1WQC85SAU4XUHHDEBUZ9K66","A3S5AA4R3RIEEP","3XT3KXP24ZKFDDMCDS43FE3AU9W6IW","","null","<img src=""img/food6.png"" style=""width:200px;border:14px solid red;"">","null","","","","","","","","","",""
"","image-keyboard-response","337","270395","0.0-426.0","37WLF8U1WQC85SAU4XUHHDEBUZ9K66","A3S5AA4R3RIEEP","3XT3KXP24ZKFDDMCDS43FE3AU9W6IW","","200.29999995231628","img/food4.png","76","201.10000014305115","3","1","","1","1","1,0.5,0,1,0.5,0,0.5,0,1","0.5,0,1,0.5,0,1,0,1,0.5","2",""
"","html-keyboard-response","338","270696","0.0-427.0","37WLF8U1WQC85SAU4XUHHDEBUZ9K66","A3S5AA4R3RIEEP","3XT3KXP24ZKFDDMCDS43FE3AU9W6IW","","null","<img src=""img/food4.png"" style=""width:200px; border:14px solid green;"">","null","","","","","","","","","",""
"","image-keyboard-response","339","270939","0.0-428.0","37WLF8U1WQC85SAU4XUHHDEBUZ9K66","A3S5AA4R3RIEEP","3XT3KXP24ZKFDDMCDS43FE3AU9W6IW","","241.90000009536743","img/food3.png","76","242.79999995231628","3","1","","2","1","1,0.5,0,1,0.5,0,0.5,0,1","0.5,0,1,0.5,0,1,0,1,0.5","2",""
"","html-keyboard-response","340","271241","0.0-429.0","37WLF8U1WQC85SAU4XUHHDEBUZ9K66","A3S5AA4R3RIEEP","3XT3KXP24ZKFDDMCDS43FE3AU9W6IW","","null","<img src=""img/food3.png"" style=""width:200px; border:14px solid green;"">","null","","","","","","","","","",""
"","image-keyboard-response","341","271435","0.0-430.0","37WLF8U1WQC85SAU4XUHHDEBUZ9K66","A3S5AA4R3RIEEP","3XT3KXP24ZKFDDMCDS43FE3AU9W6IW","","193.79999995231628","img/food4.png","76","194.60000014305115","3","1","","1","1","1,0.5,0,1,0.5,0,0.5,0,1","0.5,0,1,0.5,0,1,0,1,0.5","2",""
"","html-keyboard-response","342","271736","0.0-431.0","37WLF8U1WQC85SAU4XUHHDEBUZ9K66","A3S5AA4R3RIEEP","3XT3KXP24ZKFDDMCDS43FE3AU9W6IW","","null","<img src=""img/food4.png"" style=""width:200px; border:14px solid green;"">","null","","","","","","","","","",""
"","image-keyboard-response","343","271955","0.0-432.0","37WLF8U1WQC85SAU4XUHHDEBUZ9K66","A3S5AA4R3RIEEP","3XT3KXP24ZKFDDMCDS43FE3AU9W6IW","","218","img/food4.png","76","218.70000004768372","3","1","","1","1","1,0.5,0,1,0.5,0,0.5,0,1","0.5,0,1,0.5,0,1,0,1,0.5","2",""
"","html-keyboard-response","344","272257","0.0-433.0","37WLF8U1WQC85SAU4XUHHDEBUZ9K66","A3S5AA4R3RIEEP","3XT3KXP24ZKFDDMCDS43FE3AU9W6IW","","null","<img src=""img/food4.png"" style=""width:200px; border:14px solid green;"">","null","","","","","","","","","",""
"","image-keyboard-response","345","272467","0.0-434.0","37WLF8U1WQC85SAU4XUHHDEBUZ9K66","A3S5AA4R3RIEEP","3XT3KXP24ZKFDDMCDS43FE3AU9W6IW","","209.09999990463257","img/food4.png","76","209.90000009536743","3","1","","1","1","1,0.5,0,1,0.5,0,0.5,0,1","0.5,0,1,0.5,0,1,0,1,0.5","2",""
"","html-keyboard-response","346","272769","0.0-435.0","37WLF8U1WQC85SAU4XUHHDEBUZ9K66","A3S5AA4R3RIEEP","3XT3KXP24ZKFDDMCDS43FE3AU9W6IW","","null","<img src=""img/food4.png"" style=""width:200px; border:14px solid green;"">","null","","","","","","","","","",""
"","image-keyboard-response","347","272963","0.0-436.0","37WLF8U1WQC85SAU4XUHHDEBUZ9K66","A3S5AA4R3RIEEP","3XT3KXP24ZKFDDMCDS43FE3AU9W6IW","","192.80000019073486","img/food3.png","76","193.70000004768372","3","1","","2","1","1,0.5,0,1,0.5,0,0.5,0,1","0.5,0,1,0.5,0,1,0,1,0.5","2",""
"","html-keyboard-response","348","273267","0.0-437.0","37WLF8U1WQC85SAU4XUHHDEBUZ9K66","A3S5AA4R3RIEEP","3XT3KXP24ZKFDDMCDS43FE3AU9W6IW","","null","<img src=""img/food3.png"" style=""width:200px; border:14px solid green;"">","null","","","","","","","","","",""
"","image-keyboard-response","349","273411","0.0-438.0","37WLF8U1WQC85SAU4XUHHDEBUZ9K66","A3S5AA4R3RIEEP","3XT3KXP24ZKFDDMCDS43FE3AU9W6IW","","143.20000004768372","img/food6.png","76","143.90000009536743","3","0","","3","1","1,0.5,0,1,0.5,0,0.5,0,1","0.5,0,1,0.5,0,1,0,1,0.5","2",""
"","html-keyboard-response","350","273712","0.0-439.0","37WLF8U1WQC85SAU4XUHHDEBUZ9K66","A3S5AA4R3RIEEP","3XT3KXP24ZKFDDMCDS43FE3AU9W6IW","","null","<img src=""img/food6.png"" style=""width:200px;border:14px solid red;"">","null","","","","","","","","","",""
"","image-keyboard-response","351","273931","0.0-440.0","37WLF8U1WQC85SAU4XUHHDEBUZ9K66","A3S5AA4R3RIEEP","3XT3KXP24ZKFDDMCDS43FE3AU9W6IW","","218.09999990463257","img/food3.png","76","218.59999990463257","3","1","","2","1","1,0.5,0,1,0.5,0,0.5,0,1","0.5,0,1,0.5,0,1,0,1,0.5","2",""
"","html-keyboard-response","352","274233","0.0-441.0","37WLF8U1WQC85SAU4XUHHDEBUZ9K66","A3S5AA4R3RIEEP","3XT3KXP24ZKFDDMCDS43FE3AU9W6IW","","null","<img src=""img/food3.png"" style=""width:200px; border:14px solid green;"">","null","","","","","","","","","",""
"","image-keyboard-response","353","274468","0.0-442.0","37WLF8U1WQC85SAU4XUHHDEBUZ9K66","A3S5AA4R3RIEEP","3XT3KXP24ZKFDDMCDS43FE3AU9W6IW","","234.60000014305115","img/food3.png","76","235.19999980926514","3","1","","2","1","1,0.5,0,1,0.5,0,0.5,0,1","0.5,0,1,0.5,0,1,0,1,0.5","2",""
"","html-keyboard-response","354","274769","0.0-443.0","37WLF8U1WQC85SAU4XUHHDEBUZ9K66","A3S5AA4R3RIEEP","3XT3KXP24ZKFDDMCDS43FE3AU9W6IW","","null","<img src=""img/food3.png"" style=""width:200px; border:14px solid green;"">","null","","","","","","","","","",""
"","image-keyboard-response","355","274971","0.0-444.0","37WLF8U1WQC85SAU4XUHHDEBUZ9K66","A3S5AA4R3RIEEP","3XT3KXP24ZKFDDMCDS43FE3AU9W6IW","","200.70000004768372","img/food3.png","76","201.5","3","1","","2","1","1,0.5,0,1,0.5,0,0.5,0,1","0.5,0,1,0.5,0,1,0,1,0.5","2",""
"","html-keyboard-response","356","275273","0.0-445.0","37WLF8U1WQC85SAU4XUHHDEBUZ9K66","A3S5AA4R3RIEEP","3XT3KXP24ZKFDDMCDS43FE3AU9W6IW","","null","<img src=""img/food3.png"" style=""width:200px; border:14px solid green;"">","null","","","","","","","","","",""
"","image-keyboard-response","357","275363","0.0-446.0","37WLF8U1WQC85SAU4XUHHDEBUZ9K66","A3S5AA4R3RIEEP","3XT3KXP24ZKFDDMCDS43FE3AU9W6IW","","89.5","img/food4.png","76","90.09999990463257","3","1","","1","1","1,0.5,0,1,0.5,0,0.5,0,1","0.5,0,1,0.5,0,1,0,1,0.5","2",""
"","html-keyboard-response","358","275683","0.0-447.0","37WLF8U1WQC85SAU4XUHHDEBUZ9K66","A3S5AA4R3RIEEP","3XT3KXP24ZKFDDMCDS43FE3AU9W6IW","","null","<img src=""img/food4.png"" style=""width:200px; border:14px solid green;"">","null","","","","","","","","","",""
"","image-keyboard-response","359","275915","0.0-448.0","37WLF8U1WQC85SAU4XUHHDEBUZ9K66","A3S5AA4R3RIEEP","3XT3KXP24ZKFDDMCDS43FE3AU9W6IW","","231.59999990463257","img/food4.png","76","232.59999990463257","3","1","","1","1","1,0.5,0,1,0.5,0,0.5,0,1","0.5,0,1,0.5,0,1,0,1,0.5","2",""
"","html-keyboard-response","360","276231","0.0-449.0","37WLF8U1WQC85SAU4XUHHDEBUZ9K66","A3S5AA4R3RIEEP","3XT3KXP24ZKFDDMCDS43FE3AU9W6IW","","null","<img src=""img/food4.png"" style=""width:200px; border:14px solid green;"">","null","","","","","","","","","",""
"","image-keyboard-response","361","276435","0.0-450.0","37WLF8U1WQC85SAU4XUHHDEBUZ9K66","A3S5AA4R3RIEEP","3XT3KXP24ZKFDDMCDS43FE3AU9W6IW","","203.59999990463257","img/food3.png","76","204.70000004768372","3","1","","2","1","1,0.5,0,1,0.5,0,0.5,0,1","0.5,0,1,0.5,0,1,0,1,0.5","2",""
"","html-keyboard-response","362","276737","0.0-451.0","37WLF8U1WQC85SAU4XUHHDEBUZ9K66","A3S5AA4R3RIEEP","3XT3KXP24ZKFDDMCDS43FE3AU9W6IW","","null","<img src=""img/food3.png"" style=""width:200px; border:14px solid green;"">","null","","","","","","","","","",""
"","image-keyboard-response","363","276748","0.0-452.0","37WLF8U1WQC85SAU4XUHHDEBUZ9K66","A3S5AA4R3RIEEP","3XT3KXP24ZKFDDMCDS43FE3AU9W6IW","","10.599999904632568","img/food4.png","76","11.299999952316284","3","1","","1","1","1,0.5,0,1,0.5,0,0.5,0,1","0.5,0,1,0.5,0,1,0,1,0.5","2",""
"","html-keyboard-response","364","277050","0.0-453.0","37WLF8U1WQC85SAU4XUHHDEBUZ9K66","A3S5AA4R3RIEEP","3XT3KXP24ZKFDDMCDS43FE3AU9W6IW","","null","<img src=""img/food4.png"" style=""width:200px; border:14px solid green;"">","null","","","","","","","","","",""
"","html-keyboard-response","365","280843","0.0-454.0","37WLF8U1WQC85SAU4XUHHDEBUZ9K66","A3S5AA4R3RIEEP","3XT3KXP24ZKFDDMCDS43FE3AU9W6IW","","","","","","","","","","","","","",""
"","instructions","366","282467","0.0-455.0","37WLF8U1WQC85SAU4XUHHDEBUZ9K66","A3S5AA4R3RIEEP","3XT3KXP24ZKFDDMCDS43FE3AU9W6IW","[{""page_index"":0,""viewing_time"":1623.2999999523163}]","1623.5","","","","","","","","","","","",""
"","survey-text","367","286996","0.0-456.0","37WLF8U1WQC85SAU4XUHHDEBUZ9K66","A3S5AA4R3RIEEP","3XT3KXP24ZKFDDMCDS43FE3AU9W6IW","","4525.400000095367","","","","","","","","","","","","{""Q0"":""A3S5AA4R3RIEEP""}"
