"success","trial_type","trial_index","time_elapsed","internal_node_id","assignmentID","mturkID","hitID","view_history","rt","stimulus","key_press","reactionTime","a","r","s","cond","reward_cond","reward_cond_actual","reward_matrix_idx","warning","responses"
"true","fullscreen","0","6316","0.0-0.0","339ANSOTR6OOYC5V6Y36EG4G3MHIK3","A3TH6B3RUD1MUQ","3ECKRY5B1QIH1N6NFX1ECCW5ZDKIZQ","","","","","","","","","","","","","",""
"","instructions","1","25735","0.0-1.0","339ANSOTR6OOYC5V6Y36EG4G3MHIK3","A3TH6B3RUD1MUQ","3ECKRY5B1QIH1N6NFX1ECCW5ZDKIZQ","[{""page_index"":0,""viewing_time"":2669.899999976158},{""page_index"":1,""viewing_time"":1595.5},{""page_index"":2,""viewing_time"":1820.2000000476837},{""page_index"":3,""viewing_time"":9178.599999904633},{""page_index"":4,""viewing_time"":1820.5},{""page_index"":5,""viewing_time"":1179.8000000715256},{""page_index"":6,""viewing_time"":1149.6000000238419}]","19414.799999952316","","","","","","","","","","","",""
"","image-keyboard-response","2","27545","0.0-2.0","339ANSOTR6OOYC5V6Y36EG4G3MHIK3","A3TH6B3RUD1MUQ","3ECKRY5B1QIH1N6NFX1ECCW5ZDKIZQ","","1807.8000000715256","img/food2.png","76","1809.6999999284744","3","0","2","1","1,0.5,0,1,0.5,0,0.5,0,1","1,0.5,0,1,0.5,0,0.5,0,1","1","",""
"","html-keyboard-response","3","27848","0.0-3.0","339ANSOTR6OOYC5V6Y36EG4G3MHIK3","A3TH6B3RUD1MUQ","3ECKRY5B1QIH1N6NFX1ECCW5ZDKIZQ","","null","<img src=""img/food2.png"" style=""width:200px;border:14px solid red;"">","null","","","","","","","","","",""
"","image-keyboard-response","4","28134","0.0-4.0","339ANSOTR6OOYC5V6Y36EG4G3MHIK3","A3TH6B3RUD1MUQ","3ECKRY5B1QIH1N6NFX1ECCW5ZDKIZQ","","284.89999997615814","img/food2.png","75","286","2","1","2","1","1,0.5,0,1,0.5,0,0.5,0,1","1,0.5,0,1,0.5,0,0.5,0,1","1","",""
"","html-keyboard-response","5","28436","0.0-5.0","339ANSOTR6OOYC5V6Y36EG4G3MHIK3","A3TH6B3RUD1MUQ","3ECKRY5B1QIH1N6NFX1ECCW5ZDKIZQ","","null","<img src=""img/food2.png"" style=""width:200px; border:14px solid green;"">","null","","","","","","","","","",""
"","image-keyboard-response","6","28624","0.0-6.0","339ANSOTR6OOYC5V6Y36EG4G3MHIK3","A3TH6B3RUD1MUQ","3ECKRY5B1QIH1N6NFX1ECCW5ZDKIZQ","","187.39999997615814","img/food6.png","76","188.29999995231628","3","0","1","1","1,0.5,0,1,0.5,0,0.5,0,1","1,0.5,0,1,0.5,0,0.5,0,1","1","",""
"","html-keyboard-response","7","28927","0.0-7.0","339ANSOTR6OOYC5V6Y36EG4G3MHIK3","A3TH6B3RUD1MUQ","3ECKRY5B1QIH1N6NFX1ECCW5ZDKIZQ","","null","<img src=""img/food6.png"" style=""width:200px;border:14px solid red;"">","null","","","","","","","","","",""
"","image-keyboard-response","8","28959","0.0-8.0","339ANSOTR6OOYC5V6Y36EG4G3MHIK3","A3TH6B3RUD1MUQ","3ECKRY5B1QIH1N6NFX1ECCW5ZDKIZQ","","30.399999976158142","img/food2.png","75","31.5","2","1","2","1","1,0.5,0,1,0.5,0,0.5,0,1","1,0.5,0,1,0.5,0,0.5,0,1","1","",""
"","html-keyboard-response","9","29262","0.0-9.0","339ANSOTR6OOYC5V6Y36EG4G3MHIK3","A3TH6B3RUD1MUQ","3ECKRY5B1QIH1N6NFX1ECCW5ZDKIZQ","","null","<img src=""img/food2.png"" style=""width:200px; border:14px solid green;"">","null","","","","","","","","","",""
"","image-keyboard-response","10","29595","0.0-10.0","339ANSOTR6OOYC5V6Y36EG4G3MHIK3","A3TH6B3RUD1MUQ","3ECKRY5B1QIH1N6NFX1ECCW5ZDKIZQ","","331.90000009536743","img/food5.png","75","333.2000000476837","2","0","3","1","1,0.5,0,1,0.5,0,0.5,0,1","1,0.5,0,1,0.5,0,0.5,0,1","1","",""
"","html-keyboard-response","11","29898","0.0-11.0","339ANSOTR6OOYC5V6Y36EG4G3MHIK3","A3TH6B3RUD1MUQ","3ECKRY5B1QIH1N6NFX1ECCW5ZDKIZQ","","null","<img src=""img/food5.png"" style=""width:200px;border:14px solid red;"">","null","","","","","","","","","",""
"","image-keyboard-response","12","29929","0.0-12.0","339ANSOTR6OOYC5V6Y36EG4G3MHIK3","A3TH6B3RUD1MUQ","3ECKRY5B1QIH1N6NFX1ECCW5ZDKIZQ","","29.399999976158142","img/food5.png","76","30.59999990463257","3","1","3","1","1,0.5,0,1,0.5,0,0.5,0,1","1,0.5,0,1,0.5,0,0.5,0,1","1","",""
"","html-keyboard-response","13","30232","0.0-13.0","339ANSOTR6OOYC5V6Y36EG4G3MHIK3","A3TH6B3RUD1MUQ","3ECKRY5B1QIH1N6NFX1ECCW5ZDKIZQ","","null","<img src=""img/food5.png"" style=""width:200px; border:14px solid green;"">","null","","","","","","","","","",""
"","image-keyboard-response","14","30293","0.0-14.0","339ANSOTR6OOYC5V6Y36EG4G3MHIK3","A3TH6B3RUD1MUQ","3ECKRY5B1QIH1N6NFX1ECCW5ZDKIZQ","","60.5","img/food6.png","76","61.299999952316284","3","0","1","1","1,0.5,0,1,0.5,0,0.5,0,1","1,0.5,0,1,0.5,0,0.5,0,1","1","",""
"","html-keyboard-response","15","30596","0.0-15.0","339ANSOTR6OOYC5V6Y36EG4G3MHIK3","A3TH6B3RUD1MUQ","3ECKRY5B1QIH1N6NFX1ECCW5ZDKIZQ","","null","<img src=""img/food6.png"" style=""width:200px;border:14px solid red;"">","null","","","","","","","","","",""
"","image-keyboard-response","16","30954","0.0-16.0","339ANSOTR6OOYC5V6Y36EG4G3MHIK3","A3TH6B3RUD1MUQ","3ECKRY5B1QIH1N6NFX1ECCW5ZDKIZQ","","357.09999990463257","img/food5.png","74","358.2000000476837","1","1","3","1","1,0.5,0,1,0.5,0,0.5,0,1","1,0.5,0,1,0.5,0,0.5,0,1","1","",""
"","html-keyboard-response","17","31257","0.0-17.0","339ANSOTR6OOYC5V6Y36EG4G3MHIK3","A3TH6B3RUD1MUQ","3ECKRY5B1QIH1N6NFX1ECCW5ZDKIZQ","","null","<img src=""img/food5.png"" style=""width:200px; border:14px solid green;"">","null","","","","","","","","","",""
"","image-keyboard-response","18","31374","0.0-18.0","339ANSOTR6OOYC5V6Y36EG4G3MHIK3","A3TH6B3RUD1MUQ","3ECKRY5B1QIH1N6NFX1ECCW5ZDKIZQ","","115.79999995231628","img/food6.png","75","116.80000007152557","2","1","1","1","1,0.5,0,1,0.5,0,0.5,0,1","1,0.5,0,1,0.5,0,0.5,0,1","1","",""
"","html-keyboard-response","19","31677","0.0-19.0","339ANSOTR6OOYC5V6Y36EG4G3MHIK3","A3TH6B3RUD1MUQ","3ECKRY5B1QIH1N6NFX1ECCW5ZDKIZQ","","null","<img src=""img/food6.png"" style=""width:200px; border:14px solid green;"">","null","","","","","","","","","",""
"","image-keyboard-response","20","31718","0.0-20.0","339ANSOTR6OOYC5V6Y36EG4G3MHIK3","A3TH6B3RUD1MUQ","3ECKRY5B1QIH1N6NFX1ECCW5ZDKIZQ","","40.5","img/food5.png","74","41.5","1","1","3","1","1,0.5,0,1,0.5,0,0.5,0,1","1,0.5,0,1,0.5,0,0.5,0,1","1","",""
"","html-keyboard-response","21","32021","0.0-21.0","339ANSOTR6OOYC5V6Y36EG4G3MHIK3","A3TH6B3RUD1MUQ","3ECKRY5B1QIH1N6NFX1ECCW5ZDKIZQ","","null","<img src=""img/food5.png"" style=""width:200px; border:14px solid green;"">","null","","","","","","","","","",""
"","image-keyboard-response","22","32044","0.0-22.0","339ANSOTR6OOYC5V6Y36EG4G3MHIK3","A3TH6B3RUD1MUQ","3ECKRY5B1QIH1N6NFX1ECCW5ZDKIZQ","","21.800000071525574","img/food6.png","76","22.799999952316284","3","0","1","1","1,0.5,0,1,0.5,0,0.5,0,1","1,0.5,0,1,0.5,0,0.5,0,1","1","",""
"","html-keyboard-response","23","32346","0.0-23.0","339ANSOTR6OOYC5V6Y36EG4G3MHIK3","A3TH6B3RUD1MUQ","3ECKRY5B1QIH1N6NFX1ECCW5ZDKIZQ","","null","<img src=""img/food6.png"" style=""width:200px;border:14px solid red;"">","null","","","","","","","","","",""
"","image-keyboard-response","24","32358","0.0-24.0","339ANSOTR6OOYC5V6Y36EG4G3MHIK3","A3TH6B3RUD1MUQ","3ECKRY5B1QIH1N6NFX1ECCW5ZDKIZQ","","10.699999928474426","img/food2.png","75","11.600000023841858","2","0","2","1","1,0.5,0,1,0.5,0,0.5,0,1","1,0.5,0,1,0.5,0,0.5,0,1","1","",""
"","html-keyboard-response","25","32660","0.0-25.0","339ANSOTR6OOYC5V6Y36EG4G3MHIK3","A3TH6B3RUD1MUQ","3ECKRY5B1QIH1N6NFX1ECCW5ZDKIZQ","","null","<img src=""img/food2.png"" style=""width:200px;border:14px solid red;"">","null","","","","","","","","","",""
"","image-keyboard-response","26","32764","0.0-26.0","339ANSOTR6OOYC5V6Y36EG4G3MHIK3","A3TH6B3RUD1MUQ","3ECKRY5B1QIH1N6NFX1ECCW5ZDKIZQ","","102.70000004768372","img/food6.png","74","103.70000004768372","1","1","1","1","1,0.5,0,1,0.5,0,0.5,0,1","1,0.5,0,1,0.5,0,0.5,0,1","1","",""
"","html-keyboard-response","27","33067","0.0-27.0","339ANSOTR6OOYC5V6Y36EG4G3MHIK3","A3TH6B3RUD1MUQ","3ECKRY5B1QIH1N6NFX1ECCW5ZDKIZQ","","null","<img src=""img/food6.png"" style=""width:200px; border:14px solid green;"">","null","","","","","","","","","",""
"","image-keyboard-response","28","33134","0.0-28.0","339ANSOTR6OOYC5V6Y36EG4G3MHIK3","A3TH6B3RUD1MUQ","3ECKRY5B1QIH1N6NFX1ECCW5ZDKIZQ","","65.39999997615814","img/food6.png","75","66.80000007152557","2","1","1","1","1,0.5,0,1,0.5,0,0.5,0,1","1,0.5,0,1,0.5,0,0.5,0,1","1","",""
"","html-keyboard-response","29","33436","0.0-29.0","339ANSOTR6OOYC5V6Y36EG4G3MHIK3","A3TH6B3RUD1MUQ","3ECKRY5B1QIH1N6NFX1ECCW5ZDKIZQ","","null","<img src=""img/food6.png"" style=""width:200px; border:14px solid green;"">","null","","","","","","","","","",""
"","image-keyboard-response","30","34124","0.0-30.0","339ANSOTR6OOYC5V6Y36EG4G3MHIK3","A3TH6B3RUD1MUQ","3ECKRY5B1QIH1N6NFX1ECCW5ZDKIZQ","","686.6999999284744","img/food5.png","75","687.6999999284744","2","0","3","1","1,0.5,0,1,0.5,0,0.5,0,1","1,0.5,0,1,0.5,0,0.5,0,1","1","",""
"","html-keyboard-response","31","34427","0.0-31.0","339ANSOTR6OOYC5V6Y36EG4G3MHIK3","A3TH6B3RUD1MUQ","3ECKRY5B1QIH1N6NFX1ECCW5ZDKIZQ","","null","<img src=""img/food5.png"" style=""width:200px;border:14px solid red;"">","null","","","","","","","","","",""
"","image-keyboard-response","32","34445","0.0-32.0","339ANSOTR6OOYC5V6Y36EG4G3MHIK3","A3TH6B3RUD1MUQ","3ECKRY5B1QIH1N6NFX1ECCW5ZDKIZQ","","17.59999990463257","img/food5.png","74","18.5","1","0","3","1","1,0.5,0,1,0.5,0,0.5,0,1","1,0.5,0,1,0.5,0,0.5,0,1","1","",""
"","html-keyboard-response","33","34748","0.0-33.0","339ANSOTR6OOYC5V6Y36EG4G3MHIK3","A3TH6B3RUD1MUQ","3ECKRY5B1QIH1N6NFX1ECCW5ZDKIZQ","","null","<img src=""img/food5.png"" style=""width:200px;border:14px solid red;"">","null","","","","","","","","","",""
"","image-keyboard-response","34","34874","0.0-34.0","339ANSOTR6OOYC5V6Y36EG4G3MHIK3","A3TH6B3RUD1MUQ","3ECKRY5B1QIH1N6NFX1ECCW5ZDKIZQ","","124.5","img/food5.png","76","125.39999997615814","3","1","3","1","1,0.5,0,1,0.5,0,0.5,0,1","1,0.5,0,1,0.5,0,0.5,0,1","1","",""
"","html-keyboard-response","35","35177","0.0-35.0","339ANSOTR6OOYC5V6Y36EG4G3MHIK3","A3TH6B3RUD1MUQ","3ECKRY5B1QIH1N6NFX1ECCW5ZDKIZQ","","null","<img src=""img/food5.png"" style=""width:200px; border:14px solid green;"">","null","","","","","","","","","",""
"","image-keyboard-response","36","35224","0.0-36.0","339ANSOTR6OOYC5V6Y36EG4G3MHIK3","A3TH6B3RUD1MUQ","3ECKRY5B1QIH1N6NFX1ECCW5ZDKIZQ","","45.5","img/food2.png","76","46.5","3","0","2","1","1,0.5,0,1,0.5,0,0.5,0,1","1,0.5,0,1,0.5,0,0.5,0,1","1","",""
"","html-keyboard-response","37","35527","0.0-37.0","339ANSOTR6OOYC5V6Y36EG4G3MHIK3","A3TH6B3RUD1MUQ","3ECKRY5B1QIH1N6NFX1ECCW5ZDKIZQ","","null","<img src=""img/food2.png"" style=""width:200px;border:14px solid red;"">","null","","","","","","","","","",""
"","image-keyboard-response","38","35844","0.0-38.0","339ANSOTR6OOYC5V6Y36EG4G3MHIK3","A3TH6B3RUD1MUQ","3ECKRY5B1QIH1N6NFX1ECCW5ZDKIZQ","","316.10000002384186","img/food5.png","76","317","3","1","3","1","1,0.5,0,1,0.5,0,0.5,0,1","1,0.5,0,1,0.5,0,0.5,0,1","1","",""
"","html-keyboard-response","39","36147","0.0-39.0","339ANSOTR6OOYC5V6Y36EG4G3MHIK3","A3TH6B3RUD1MUQ","3ECKRY5B1QIH1N6NFX1ECCW5ZDKIZQ","","null","<img src=""img/food5.png"" style=""width:200px; border:14px solid green;"">","null","","","","","","","","","",""
"","image-keyboard-response","40","36309","0.0-40.0","339ANSOTR6OOYC5V6Y36EG4G3MHIK3","A3TH6B3RUD1MUQ","3ECKRY5B1QIH1N6NFX1ECCW5ZDKIZQ","","161.19999992847443","img/food6.png","75","162.20000004768372","2","0","1","1","1,0.5,0,1,0.5,0,0.5,0,1","1,0.5,0,1,0.5,0,0.5,0,1","1","",""
"","html-keyboard-response","41","36612","0.0-41.0","339ANSOTR6OOYC5V6Y36EG4G3MHIK3","A3TH6B3RUD1MUQ","3ECKRY5B1QIH1N6NFX1ECCW5ZDKIZQ","","null","<img src=""img/food6.png"" style=""width:200px;border:14px solid red;"">","null","","","","","","","","","",""
"","image-keyboard-response","42","36643","0.0-42.0","339ANSOTR6OOYC5V6Y36EG4G3MHIK3","A3TH6B3RUD1MUQ","3ECKRY5B1QIH1N6NFX1ECCW5ZDKIZQ","","29.700000047683716","img/food6.png","74","30.699999928474426","1","1","1","1","1,0.5,0,1,0.5,0,0.5,0,1","1,0.5,0,1,0.5,0,0.5,0,1","1","",""
"","html-keyboard-response","43","36946","0.0-43.0","339ANSOTR6OOYC5V6Y36EG4G3MHIK3","A3TH6B3RUD1MUQ","3ECKRY5B1QIH1N6NFX1ECCW5ZDKIZQ","","null","<img src=""img/food6.png"" style=""width:200px; border:14px solid green;"">","null","","","","","","","","","",""
"","image-keyboard-response","44","36983","0.0-44.0","339ANSOTR6OOYC5V6Y36EG4G3MHIK3","A3TH6B3RUD1MUQ","3ECKRY5B1QIH1N6NFX1ECCW5ZDKIZQ","","36.39999997615814","img/food6.png","76","37","3","0","1","1","1,0.5,0,1,0.5,0,0.5,0,1","1,0.5,0,1,0.5,0,0.5,0,1","1","",""
"","html-keyboard-response","45","37286","0.0-45.0","339ANSOTR6OOYC5V6Y36EG4G3MHIK3","A3TH6B3RUD1MUQ","3ECKRY5B1QIH1N6NFX1ECCW5ZDKIZQ","","null","<img src=""img/food6.png"" style=""width:200px;border:14px solid red;"">","null","","","","","","","","","",""
"","image-keyboard-response","46","37314","0.0-46.0","339ANSOTR6OOYC5V6Y36EG4G3MHIK3","A3TH6B3RUD1MUQ","3ECKRY5B1QIH1N6NFX1ECCW5ZDKIZQ","","26.299999952316284","img/food2.png","76","27.199999928474426","3","0","2","1","1,0.5,0,1,0.5,0,0.5,0,1","1,0.5,0,1,0.5,0,0.5,0,1","1","",""
"","html-keyboard-response","47","37617","0.0-47.0","339ANSOTR6OOYC5V6Y36EG4G3MHIK3","A3TH6B3RUD1MUQ","3ECKRY5B1QIH1N6NFX1ECCW5ZDKIZQ","","null","<img src=""img/food2.png"" style=""width:200px;border:14px solid red;"">","null","","","","","","","","","",""
"","image-keyboard-response","48","37764","0.0-48.0","339ANSOTR6OOYC5V6Y36EG4G3MHIK3","A3TH6B3RUD1MUQ","3ECKRY5B1QIH1N6NFX1ECCW5ZDKIZQ","","145.19999992847443","img/food5.png","74","146.20000004768372","1","0","3","1","1,0.5,0,1,0.5,0,0.5,0,1","1,0.5,0,1,0.5,0,0.5,0,1","1","",""
"","html-keyboard-response","49","38066","0.0-49.0","339ANSOTR6OOYC5V6Y36EG4G3MHIK3","A3TH6B3RUD1MUQ","3ECKRY5B1QIH1N6NFX1ECCW5ZDKIZQ","","null","<img src=""img/food5.png"" style=""width:200px;border:14px solid red;"">","null","","","","","","","","","",""
"","image-keyboard-response","50","38364","0.0-50.0","339ANSOTR6OOYC5V6Y36EG4G3MHIK3","A3TH6B3RUD1MUQ","3ECKRY5B1QIH1N6NFX1ECCW5ZDKIZQ","","296.8000000715256","img/food5.png","74","297.7000000476837","1","0","3","1","1,0.5,0,1,0.5,0,0.5,0,1","1,0.5,0,1,0.5,0,0.5,0,1","1","",""
"","html-keyboard-response","51","38667","0.0-51.0","339ANSOTR6OOYC5V6Y36EG4G3MHIK3","A3TH6B3RUD1MUQ","3ECKRY5B1QIH1N6NFX1ECCW5ZDKIZQ","","null","<img src=""img/food5.png"" style=""width:200px;border:14px solid red;"">","null","","","","","","","","","",""
"","image-keyboard-response","52","38706","0.0-52.0","339ANSOTR6OOYC5V6Y36EG4G3MHIK3","A3TH6B3RUD1MUQ","3ECKRY5B1QIH1N6NFX1ECCW5ZDKIZQ","","38.10000002384186","img/food6.png","76","39.09999990463257","3","0","1","1","1,0.5,0,1,0.5,0,0.5,0,1","1,0.5,0,1,0.5,0,0.5,0,1","1","",""
"","html-keyboard-response","53","39009","0.0-53.0","339ANSOTR6OOYC5V6Y36EG4G3MHIK3","A3TH6B3RUD1MUQ","3ECKRY5B1QIH1N6NFX1ECCW5ZDKIZQ","","null","<img src=""img/food6.png"" style=""width:200px;border:14px solid red;"">","null","","","","","","","","","",""
"","image-keyboard-response","54","39119","0.0-54.0","339ANSOTR6OOYC5V6Y36EG4G3MHIK3","A3TH6B3RUD1MUQ","3ECKRY5B1QIH1N6NFX1ECCW5ZDKIZQ","","109.20000004768372","img/food5.png","74","110.20000004768372","1","0","3","1","1,0.5,0,1,0.5,0,0.5,0,1","1,0.5,0,1,0.5,0,0.5,0,1","1","",""
"","html-keyboard-response","55","39422","0.0-55.0","339ANSOTR6OOYC5V6Y36EG4G3MHIK3","A3TH6B3RUD1MUQ","3ECKRY5B1QIH1N6NFX1ECCW5ZDKIZQ","","null","<img src=""img/food5.png"" style=""width:200px;border:14px solid red;"">","null","","","","","","","","","",""
"","image-keyboard-response","56","39493","0.0-56.0","339ANSOTR6OOYC5V6Y36EG4G3MHIK3","A3TH6B3RUD1MUQ","3ECKRY5B1QIH1N6NFX1ECCW5ZDKIZQ","","70.29999995231628","img/food6.png","76","71.20000004768372","3","0","1","1","1,0.5,0,1,0.5,0,0.5,0,1","1,0.5,0,1,0.5,0,0.5,0,1","1","",""
"","html-keyboard-response","57","39795","0.0-57.0","339ANSOTR6OOYC5V6Y36EG4G3MHIK3","A3TH6B3RUD1MUQ","3ECKRY5B1QIH1N6NFX1ECCW5ZDKIZQ","","null","<img src=""img/food6.png"" style=""width:200px;border:14px solid red;"">","null","","","","","","","","","",""
"","image-keyboard-response","58","39933","0.0-58.0","339ANSOTR6OOYC5V6Y36EG4G3MHIK3","A3TH6B3RUD1MUQ","3ECKRY5B1QIH1N6NFX1ECCW5ZDKIZQ","","137.30000007152557","img/food2.png","76","138.20000004768372","3","0","2","1","1,0.5,0,1,0.5,0,0.5,0,1","1,0.5,0,1,0.5,0,0.5,0,1","1","",""
"","html-keyboard-response","59","40236","0.0-59.0","339ANSOTR6OOYC5V6Y36EG4G3MHIK3","A3TH6B3RUD1MUQ","3ECKRY5B1QIH1N6NFX1ECCW5ZDKIZQ","","null","<img src=""img/food2.png"" style=""width:200px;border:14px solid red;"">","null","","","","","","","","","",""
"","image-keyboard-response","60","40274","0.0-60.0","339ANSOTR6OOYC5V6Y36EG4G3MHIK3","A3TH6B3RUD1MUQ","3ECKRY5B1QIH1N6NFX1ECCW5ZDKIZQ","","36","img/food6.png","74","37.199999928474426","1","1","1","1","1,0.5,0,1,0.5,0,0.5,0,1","1,0.5,0,1,0.5,0,0.5,0,1","1","",""
"","html-keyboard-response","61","40577","0.0-61.0","339ANSOTR6OOYC5V6Y36EG4G3MHIK3","A3TH6B3RUD1MUQ","3ECKRY5B1QIH1N6NFX1ECCW5ZDKIZQ","","null","<img src=""img/food6.png"" style=""width:200px; border:14px solid green;"">","null","","","","","","","","","",""
"","image-keyboard-response","62","40923","0.0-62.0","339ANSOTR6OOYC5V6Y36EG4G3MHIK3","A3TH6B3RUD1MUQ","3ECKRY5B1QIH1N6NFX1ECCW5ZDKIZQ","","345.2000000476837","img/food6.png","75","346.2999999523163","2","1","1","1","1,0.5,0,1,0.5,0,0.5,0,1","1,0.5,0,1,0.5,0,0.5,0,1","1","",""
"","html-keyboard-response","63","41227","0.0-63.0","339ANSOTR6OOYC5V6Y36EG4G3MHIK3","A3TH6B3RUD1MUQ","3ECKRY5B1QIH1N6NFX1ECCW5ZDKIZQ","","null","<img src=""img/food6.png"" style=""width:200px; border:14px solid green;"">","null","","","","","","","","","",""
"","image-keyboard-response","64","41393","0.0-64.0","339ANSOTR6OOYC5V6Y36EG4G3MHIK3","A3TH6B3RUD1MUQ","3ECKRY5B1QIH1N6NFX1ECCW5ZDKIZQ","","165.5","img/food2.png","75","166.60000002384186","2","0","2","1","1,0.5,0,1,0.5,0,0.5,0,1","1,0.5,0,1,0.5,0,0.5,0,1","1","",""
"","html-keyboard-response","65","41696","0.0-65.0","339ANSOTR6OOYC5V6Y36EG4G3MHIK3","A3TH6B3RUD1MUQ","3ECKRY5B1QIH1N6NFX1ECCW5ZDKIZQ","","null","<img src=""img/food2.png"" style=""width:200px;border:14px solid red;"">","null","","","","","","","","","",""
"","image-keyboard-response","66","41784","0.0-66.0","339ANSOTR6OOYC5V6Y36EG4G3MHIK3","A3TH6B3RUD1MUQ","3ECKRY5B1QIH1N6NFX1ECCW5ZDKIZQ","","86.39999997615814","img/food5.png","76","87.30000007152557","3","1","3","1","1,0.5,0,1,0.5,0,0.5,0,1","1,0.5,0,1,0.5,0,0.5,0,1","1","",""
"","html-keyboard-response","67","42086","0.0-67.0","339ANSOTR6OOYC5V6Y36EG4G3MHIK3","A3TH6B3RUD1MUQ","3ECKRY5B1QIH1N6NFX1ECCW5ZDKIZQ","","null","<img src=""img/food5.png"" style=""width:200px; border:14px solid green;"">","null","","","","","","","","","",""
"","image-keyboard-response","68","42314","0.0-68.0","339ANSOTR6OOYC5V6Y36EG4G3MHIK3","A3TH6B3RUD1MUQ","3ECKRY5B1QIH1N6NFX1ECCW5ZDKIZQ","","225.89999997615814","img/food5.png","76","226.80000007152557","3","1","3","1","1,0.5,0,1,0.5,0,0.5,0,1","1,0.5,0,1,0.5,0,0.5,0,1","1","",""
"","html-keyboard-response","69","42616","0.0-69.0","339ANSOTR6OOYC5V6Y36EG4G3MHIK3","A3TH6B3RUD1MUQ","3ECKRY5B1QIH1N6NFX1ECCW5ZDKIZQ","","null","<img src=""img/food5.png"" style=""width:200px; border:14px solid green;"">","null","","","","","","","","","",""
"","image-keyboard-response","70","42723","0.0-70.0","339ANSOTR6OOYC5V6Y36EG4G3MHIK3","A3TH6B3RUD1MUQ","3ECKRY5B1QIH1N6NFX1ECCW5ZDKIZQ","","106.39999997615814","img/food2.png","74","107.5","1","1","2","1","1,0.5,0,1,0.5,0,0.5,0,1","1,0.5,0,1,0.5,0,0.5,0,1","1","",""
"","html-keyboard-response","71","43025","0.0-71.0","339ANSOTR6OOYC5V6Y36EG4G3MHIK3","A3TH6B3RUD1MUQ","3ECKRY5B1QIH1N6NFX1ECCW5ZDKIZQ","","null","<img src=""img/food2.png"" style=""width:200px; border:14px solid green;"">","null","","","","","","","","","",""
"","image-keyboard-response","72","43133","0.0-72.0","339ANSOTR6OOYC5V6Y36EG4G3MHIK3","A3TH6B3RUD1MUQ","3ECKRY5B1QIH1N6NFX1ECCW5ZDKIZQ","","106.60000002384186","img/food5.png","76","107.59999990463257","3","1","3","1","1,0.5,0,1,0.5,0,0.5,0,1","1,0.5,0,1,0.5,0,0.5,0,1","1","",""
"","html-keyboard-response","73","43435","0.0-73.0","339ANSOTR6OOYC5V6Y36EG4G3MHIK3","A3TH6B3RUD1MUQ","3ECKRY5B1QIH1N6NFX1ECCW5ZDKIZQ","","null","<img src=""img/food5.png"" style=""width:200px; border:14px solid green;"">","null","","","","","","","","","",""
"","image-keyboard-response","74","43554","0.0-74.0","339ANSOTR6OOYC5V6Y36EG4G3MHIK3","A3TH6B3RUD1MUQ","3ECKRY5B1QIH1N6NFX1ECCW5ZDKIZQ","","117.39999997615814","img/food6.png","74","118.30000007152557","1","1","1","1","1,0.5,0,1,0.5,0,0.5,0,1","1,0.5,0,1,0.5,0,0.5,0,1","1","",""
"","html-keyboard-response","75","43856","0.0-75.0","339ANSOTR6OOYC5V6Y36EG4G3MHIK3","A3TH6B3RUD1MUQ","3ECKRY5B1QIH1N6NFX1ECCW5ZDKIZQ","","null","<img src=""img/food6.png"" style=""width:200px; border:14px solid green;"">","null","","","","","","","","","",""
"","image-keyboard-response","76","43994","0.0-76.0","339ANSOTR6OOYC5V6Y36EG4G3MHIK3","A3TH6B3RUD1MUQ","3ECKRY5B1QIH1N6NFX1ECCW5ZDKIZQ","","135.89999997615814","img/food5.png","75","136.90000009536743","2","0","3","1","1,0.5,0,1,0.5,0,0.5,0,1","1,0.5,0,1,0.5,0,0.5,0,1","1","",""
"","html-keyboard-response","77","44296","0.0-77.0","339ANSOTR6OOYC5V6Y36EG4G3MHIK3","A3TH6B3RUD1MUQ","3ECKRY5B1QIH1N6NFX1ECCW5ZDKIZQ","","null","<img src=""img/food5.png"" style=""width:200px;border:14px solid red;"">","null","","","","","","","","","",""
"","image-keyboard-response","78","44393","0.0-78.0","339ANSOTR6OOYC5V6Y36EG4G3MHIK3","A3TH6B3RUD1MUQ","3ECKRY5B1QIH1N6NFX1ECCW5ZDKIZQ","","96.39999997615814","img/food6.png","74","97.29999995231628","1","1","1","1","1,0.5,0,1,0.5,0,0.5,0,1","1,0.5,0,1,0.5,0,0.5,0,1","1","",""
"","html-keyboard-response","79","44695","0.0-79.0","339ANSOTR6OOYC5V6Y36EG4G3MHIK3","A3TH6B3RUD1MUQ","3ECKRY5B1QIH1N6NFX1ECCW5ZDKIZQ","","null","<img src=""img/food6.png"" style=""width:200px; border:14px solid green;"">","null","","","","","","","","","",""
"","image-keyboard-response","80","44843","0.0-80.0","339ANSOTR6OOYC5V6Y36EG4G3MHIK3","A3TH6B3RUD1MUQ","3ECKRY5B1QIH1N6NFX1ECCW5ZDKIZQ","","147.60000002384186","img/food6.png","76","148.5","3","0","1","1","1,0.5,0,1,0.5,0,0.5,0,1","1,0.5,0,1,0.5,0,0.5,0,1","1","",""
"","html-keyboard-response","81","45146","0.0-81.0","339ANSOTR6OOYC5V6Y36EG4G3MHIK3","A3TH6B3RUD1MUQ","3ECKRY5B1QIH1N6NFX1ECCW5ZDKIZQ","","null","<img src=""img/food6.png"" style=""width:200px;border:14px solid red;"">","null","","","","","","","","","",""
"","image-keyboard-response","82","45253","0.0-82.0","339ANSOTR6OOYC5V6Y36EG4G3MHIK3","A3TH6B3RUD1MUQ","3ECKRY5B1QIH1N6NFX1ECCW5ZDKIZQ","","106","img/food2.png","74","106.79999995231628","1","1","2","1","1,0.5,0,1,0.5,0,0.5,0,1","1,0.5,0,1,0.5,0,0.5,0,1","1","",""
"","html-keyboard-response","83","45557","0.0-83.0","339ANSOTR6OOYC5V6Y36EG4G3MHIK3","A3TH6B3RUD1MUQ","3ECKRY5B1QIH1N6NFX1ECCW5ZDKIZQ","","null","<img src=""img/food2.png"" style=""width:200px; border:14px solid green;"">","null","","","","","","","","","",""
"","image-keyboard-response","84","45643","0.0-84.0","339ANSOTR6OOYC5V6Y36EG4G3MHIK3","A3TH6B3RUD1MUQ","3ECKRY5B1QIH1N6NFX1ECCW5ZDKIZQ","","85.5","img/food5.png","76","86.60000002384186","3","1","3","1","1,0.5,0,1,0.5,0,0.5,0,1","1,0.5,0,1,0.5,0,0.5,0,1","1","",""
"","html-keyboard-response","85","45945","0.0-85.0","339ANSOTR6OOYC5V6Y36EG4G3MHIK3","A3TH6B3RUD1MUQ","3ECKRY5B1QIH1N6NFX1ECCW5ZDKIZQ","","null","<img src=""img/food5.png"" style=""width:200px; border:14px solid green;"">","null","","","","","","","","","",""
"","image-keyboard-response","86","46034","0.0-86.0","339ANSOTR6OOYC5V6Y36EG4G3MHIK3","A3TH6B3RUD1MUQ","3ECKRY5B1QIH1N6NFX1ECCW5ZDKIZQ","","86.80000007152557","img/food6.png","74","88","1","1","1","1","1,0.5,0,1,0.5,0,0.5,0,1","1,0.5,0,1,0.5,0,0.5,0,1","1","",""
"","html-keyboard-response","87","46337","0.0-87.0","339ANSOTR6OOYC5V6Y36EG4G3MHIK3","A3TH6B3RUD1MUQ","3ECKRY5B1QIH1N6NFX1ECCW5ZDKIZQ","","null","<img src=""img/food6.png"" style=""width:200px; border:14px solid green;"">","null","","","","","","","","","",""
"","image-keyboard-response","88","46435","0.0-88.0","339ANSOTR6OOYC5V6Y36EG4G3MHIK3","A3TH6B3RUD1MUQ","3ECKRY5B1QIH1N6NFX1ECCW5ZDKIZQ","","96.69999992847443","img/food2.png","76","97.5","3","0","2","1","1,0.5,0,1,0.5,0,0.5,0,1","1,0.5,0,1,0.5,0,0.5,0,1","1","",""
"","html-keyboard-response","89","46737","0.0-89.0","339ANSOTR6OOYC5V6Y36EG4G3MHIK3","A3TH6B3RUD1MUQ","3ECKRY5B1QIH1N6NFX1ECCW5ZDKIZQ","","null","<img src=""img/food2.png"" style=""width:200px;border:14px solid red;"">","null","","","","","","","","","",""
"","image-keyboard-response","90","46855","0.0-90.0","339ANSOTR6OOYC5V6Y36EG4G3MHIK3","A3TH6B3RUD1MUQ","3ECKRY5B1QIH1N6NFX1ECCW5ZDKIZQ","","117.39999997615814","img/food2.png","74","118.29999995231628","1","1","2","1","1,0.5,0,1,0.5,0,0.5,0,1","1,0.5,0,1,0.5,0,0.5,0,1","1","",""
"","html-keyboard-response","91","47158","0.0-91.0","339ANSOTR6OOYC5V6Y36EG4G3MHIK3","A3TH6B3RUD1MUQ","3ECKRY5B1QIH1N6NFX1ECCW5ZDKIZQ","","null","<img src=""img/food2.png"" style=""width:200px; border:14px solid green;"">","null","","","","","","","","","",""
"","image-keyboard-response","92","47266","0.0-92.0","339ANSOTR6OOYC5V6Y36EG4G3MHIK3","A3TH6B3RUD1MUQ","3ECKRY5B1QIH1N6NFX1ECCW5ZDKIZQ","","106.70000004768372","img/food2.png","75","107.70000004768372","2","1","2","1","1,0.5,0,1,0.5,0,0.5,0,1","1,0.5,0,1,0.5,0,0.5,0,1","1","",""
"","html-keyboard-response","93","47568","0.0-93.0","339ANSOTR6OOYC5V6Y36EG4G3MHIK3","A3TH6B3RUD1MUQ","3ECKRY5B1QIH1N6NFX1ECCW5ZDKIZQ","","null","<img src=""img/food2.png"" style=""width:200px; border:14px solid green;"">","null","","","","","","","","","",""
"","image-keyboard-response","94","47685","0.0-94.0","339ANSOTR6OOYC5V6Y36EG4G3MHIK3","A3TH6B3RUD1MUQ","3ECKRY5B1QIH1N6NFX1ECCW5ZDKIZQ","","116.69999992847443","img/food2.png","74","117.60000002384186","1","1","2","1","1,0.5,0,1,0.5,0,0.5,0,1","1,0.5,0,1,0.5,0,0.5,0,1","1","",""
"","html-keyboard-response","95","47989","0.0-95.0","339ANSOTR6OOYC5V6Y36EG4G3MHIK3","A3TH6B3RUD1MUQ","3ECKRY5B1QIH1N6NFX1ECCW5ZDKIZQ","","null","<img src=""img/food2.png"" style=""width:200px; border:14px solid green;"">","null","","","","","","","","","",""
"","image-keyboard-response","96","48135","0.0-96.0","339ANSOTR6OOYC5V6Y36EG4G3MHIK3","A3TH6B3RUD1MUQ","3ECKRY5B1QIH1N6NFX1ECCW5ZDKIZQ","","144.89999997615814","img/food2.png","76","146","3","0","2","1","1,0.5,0,1,0.5,0,0.5,0,1","1,0.5,0,1,0.5,0,0.5,0,1","1","",""
"","html-keyboard-response","97","48438","0.0-97.0","339ANSOTR6OOYC5V6Y36EG4G3MHIK3","A3TH6B3RUD1MUQ","3ECKRY5B1QIH1N6NFX1ECCW5ZDKIZQ","","null","<img src=""img/food2.png"" style=""width:200px;border:14px solid red;"">","null","","","","","","","","","",""
"","image-keyboard-response","98","48535","0.0-98.0","339ANSOTR6OOYC5V6Y36EG4G3MHIK3","A3TH6B3RUD1MUQ","3ECKRY5B1QIH1N6NFX1ECCW5ZDKIZQ","","95.60000002384186","img/food5.png","74","96.80000007152557","1","0","3","1","1,0.5,0,1,0.5,0,0.5,0,1","1,0.5,0,1,0.5,0,0.5,0,1","1","",""
"","html-keyboard-response","99","48838","0.0-99.0","339ANSOTR6OOYC5V6Y36EG4G3MHIK3","A3TH6B3RUD1MUQ","3ECKRY5B1QIH1N6NFX1ECCW5ZDKIZQ","","null","<img src=""img/food5.png"" style=""width:200px;border:14px solid red;"">","null","","","","","","","","","",""
"","image-keyboard-response","100","48945","0.0-100.0","339ANSOTR6OOYC5V6Y36EG4G3MHIK3","A3TH6B3RUD1MUQ","3ECKRY5B1QIH1N6NFX1ECCW5ZDKIZQ","","105.5","img/food6.png","76","106.69999992847443","3","0","1","1","1,0.5,0,1,0.5,0,0.5,0,1","1,0.5,0,1,0.5,0,0.5,0,1","1","",""
"","html-keyboard-response","101","49248","0.0-101.0","339ANSOTR6OOYC5V6Y36EG4G3MHIK3","A3TH6B3RUD1MUQ","3ECKRY5B1QIH1N6NFX1ECCW5ZDKIZQ","","null","<img src=""img/food6.png"" style=""width:200px;border:14px solid red;"">","null","","","","","","","","","",""
"","image-keyboard-response","102","49365","0.0-102.0","339ANSOTR6OOYC5V6Y36EG4G3MHIK3","A3TH6B3RUD1MUQ","3ECKRY5B1QIH1N6NFX1ECCW5ZDKIZQ","","116.30000007152557","img/food2.png","74","117.30000007152557","1","1","2","1","1,0.5,0,1,0.5,0,0.5,0,1","1,0.5,0,1,0.5,0,0.5,0,1","1","",""
"","html-keyboard-response","103","49667","0.0-103.0","339ANSOTR6OOYC5V6Y36EG4G3MHIK3","A3TH6B3RUD1MUQ","3ECKRY5B1QIH1N6NFX1ECCW5ZDKIZQ","","null","<img src=""img/food2.png"" style=""width:200px; border:14px solid green;"">","null","","","","","","","","","",""
"","image-keyboard-response","104","49785","0.0-104.0","339ANSOTR6OOYC5V6Y36EG4G3MHIK3","A3TH6B3RUD1MUQ","3ECKRY5B1QIH1N6NFX1ECCW5ZDKIZQ","","116.39999997615814","img/food2.png","76","117.5","3","0","2","1","1,0.5,0,1,0.5,0,0.5,0,1","1,0.5,0,1,0.5,0,0.5,0,1","1","",""
"","html-keyboard-response","105","50087","0.0-105.0","339ANSOTR6OOYC5V6Y36EG4G3MHIK3","A3TH6B3RUD1MUQ","3ECKRY5B1QIH1N6NFX1ECCW5ZDKIZQ","","null","<img src=""img/food2.png"" style=""width:200px;border:14px solid red;"">","null","","","","","","","","","",""
"","image-keyboard-response","106","50175","0.0-106.0","339ANSOTR6OOYC5V6Y36EG4G3MHIK3","A3TH6B3RUD1MUQ","3ECKRY5B1QIH1N6NFX1ECCW5ZDKIZQ","","86.79999995231628","img/food6.png","74","87.60000002384186","1","1","1","1","1,0.5,0,1,0.5,0,0.5,0,1","1,0.5,0,1,0.5,0,0.5,0,1","1","",""
"","html-keyboard-response","107","50477","0.0-107.0","339ANSOTR6OOYC5V6Y36EG4G3MHIK3","A3TH6B3RUD1MUQ","3ECKRY5B1QIH1N6NFX1ECCW5ZDKIZQ","","null","<img src=""img/food6.png"" style=""width:200px; border:14px solid green;"">","null","","","","","","","","","",""
"","image-keyboard-response","108","50488","0.0-108.0","339ANSOTR6OOYC5V6Y36EG4G3MHIK3","A3TH6B3RUD1MUQ","3ECKRY5B1QIH1N6NFX1ECCW5ZDKIZQ","","9.399999976158142","img/food2.png","74","10.399999976158142","1","1","2","1","1,0.5,0,1,0.5,0,0.5,0,1","1,0.5,0,1,0.5,0,0.5,0,1","1","",""
"","html-keyboard-response","109","50791","0.0-109.0","339ANSOTR6OOYC5V6Y36EG4G3MHIK3","A3TH6B3RUD1MUQ","3ECKRY5B1QIH1N6NFX1ECCW5ZDKIZQ","","null","<img src=""img/food2.png"" style=""width:200px; border:14px solid green;"">","null","","","","","","","","","",""
"","image-keyboard-response","110","50875","0.0-110.0","339ANSOTR6OOYC5V6Y36EG4G3MHIK3","A3TH6B3RUD1MUQ","3ECKRY5B1QIH1N6NFX1ECCW5ZDKIZQ","","82.89999997615814","img/food5.png","76","83.69999992847443","3","1","3","1","1,0.5,0,1,0.5,0,0.5,0,1","1,0.5,0,1,0.5,0,0.5,0,1","1","",""
"","html-keyboard-response","111","51177","0.0-111.0","339ANSOTR6OOYC5V6Y36EG4G3MHIK3","A3TH6B3RUD1MUQ","3ECKRY5B1QIH1N6NFX1ECCW5ZDKIZQ","","null","<img src=""img/food5.png"" style=""width:200px; border:14px solid green;"">","null","","","","","","","","","",""
"","image-keyboard-response","112","51185","0.0-112.0","339ANSOTR6OOYC5V6Y36EG4G3MHIK3","A3TH6B3RUD1MUQ","3ECKRY5B1QIH1N6NFX1ECCW5ZDKIZQ","","6.600000023841858","img/food6.png","76","7.400000095367432","3","0","1","1","1,0.5,0,1,0.5,0,0.5,0,1","1,0.5,0,1,0.5,0,0.5,0,1","1","",""
"","html-keyboard-response","113","51488","0.0-113.0","339ANSOTR6OOYC5V6Y36EG4G3MHIK3","A3TH6B3RUD1MUQ","3ECKRY5B1QIH1N6NFX1ECCW5ZDKIZQ","","null","<img src=""img/food6.png"" style=""width:200px;border:14px solid red;"">","null","","","","","","","","","",""
"","image-keyboard-response","114","51619","0.0-114.0","339ANSOTR6OOYC5V6Y36EG4G3MHIK3","A3TH6B3RUD1MUQ","3ECKRY5B1QIH1N6NFX1ECCW5ZDKIZQ","","130.69999992847443","img/food6.png","76","131.79999995231628","3","0","1","1","1,0.5,0,1,0.5,0,0.5,0,1","1,0.5,0,1,0.5,0,0.5,0,1","1","",""
"","html-keyboard-response","115","51922","0.0-115.0","339ANSOTR6OOYC5V6Y36EG4G3MHIK3","A3TH6B3RUD1MUQ","3ECKRY5B1QIH1N6NFX1ECCW5ZDKIZQ","","null","<img src=""img/food6.png"" style=""width:200px;border:14px solid red;"">","null","","","","","","","","","",""
"","image-keyboard-response","116","52010","0.0-116.0","339ANSOTR6OOYC5V6Y36EG4G3MHIK3","A3TH6B3RUD1MUQ","3ECKRY5B1QIH1N6NFX1ECCW5ZDKIZQ","","86.80000007152557","img/food6.png","74","87.89999997615814","1","1","1","1","1,0.5,0,1,0.5,0,0.5,0,1","1,0.5,0,1,0.5,0,0.5,0,1","1","",""
"","html-keyboard-response","117","52313","0.0-117.0","339ANSOTR6OOYC5V6Y36EG4G3MHIK3","A3TH6B3RUD1MUQ","3ECKRY5B1QIH1N6NFX1ECCW5ZDKIZQ","","null","<img src=""img/food6.png"" style=""width:200px; border:14px solid green;"">","null","","","","","","","","","",""
"","image-keyboard-response","118","52425","0.0-118.0","339ANSOTR6OOYC5V6Y36EG4G3MHIK3","A3TH6B3RUD1MUQ","3ECKRY5B1QIH1N6NFX1ECCW5ZDKIZQ","","110.69999992847443","img/food2.png","75","111.80000007152557","2","1","2","1","1,0.5,0,1,0.5,0,0.5,0,1","1,0.5,0,1,0.5,0,0.5,0,1","1","",""
"","html-keyboard-response","119","52728","0.0-119.0","339ANSOTR6OOYC5V6Y36EG4G3MHIK3","A3TH6B3RUD1MUQ","3ECKRY5B1QIH1N6NFX1ECCW5ZDKIZQ","","null","<img src=""img/food2.png"" style=""width:200px; border:14px solid green;"">","null","","","","","","","","","",""
"","image-keyboard-response","120","52825","0.0-120.0","339ANSOTR6OOYC5V6Y36EG4G3MHIK3","A3TH6B3RUD1MUQ","3ECKRY5B1QIH1N6NFX1ECCW5ZDKIZQ","","95.20000004768372","img/food6.png","74","96.20000004768372","1","1","1","1","1,0.5,0,1,0.5,0,0.5,0,1","1,0.5,0,1,0.5,0,0.5,0,1","1","",""
"","html-keyboard-response","121","53127","0.0-121.0","339ANSOTR6OOYC5V6Y36EG4G3MHIK3","A3TH6B3RUD1MUQ","3ECKRY5B1QIH1N6NFX1ECCW5ZDKIZQ","","null","<img src=""img/food6.png"" style=""width:200px; border:14px solid green;"">","null","","","","","","","","","",""
"","image-keyboard-response","122","53186","0.0-122.0","339ANSOTR6OOYC5V6Y36EG4G3MHIK3","A3TH6B3RUD1MUQ","3ECKRY5B1QIH1N6NFX1ECCW5ZDKIZQ","","57.699999928474426","img/food5.png","75","58.89999997615814","2","0","3","1","1,0.5,0,1,0.5,0,0.5,0,1","1,0.5,0,1,0.5,0,0.5,0,1","1","",""
"","html-keyboard-response","123","53488","0.0-123.0","339ANSOTR6OOYC5V6Y36EG4G3MHIK3","A3TH6B3RUD1MUQ","3ECKRY5B1QIH1N6NFX1ECCW5ZDKIZQ","","null","<img src=""img/food5.png"" style=""width:200px;border:14px solid red;"">","null","","","","","","","","","",""
"","image-keyboard-response","124","53655","0.0-124.0","339ANSOTR6OOYC5V6Y36EG4G3MHIK3","A3TH6B3RUD1MUQ","3ECKRY5B1QIH1N6NFX1ECCW5ZDKIZQ","","166.5","img/food2.png","74","167.5","1","1","2","1","1,0.5,0,1,0.5,0,0.5,0,1","1,0.5,0,1,0.5,0,0.5,0,1","1","",""
"","html-keyboard-response","125","53958","0.0-125.0","339ANSOTR6OOYC5V6Y36EG4G3MHIK3","A3TH6B3RUD1MUQ","3ECKRY5B1QIH1N6NFX1ECCW5ZDKIZQ","","null","<img src=""img/food2.png"" style=""width:200px; border:14px solid green;"">","null","","","","","","","","","",""
"","image-keyboard-response","126","53995","0.0-126.0","339ANSOTR6OOYC5V6Y36EG4G3MHIK3","A3TH6B3RUD1MUQ","3ECKRY5B1QIH1N6NFX1ECCW5ZDKIZQ","","34.89999997615814","img/food5.png","75","35.89999997615814","2","0","3","1","1,0.5,0,1,0.5,0,0.5,0,1","1,0.5,0,1,0.5,0,0.5,0,1","1","",""
"","html-keyboard-response","127","54297","0.0-127.0","339ANSOTR6OOYC5V6Y36EG4G3MHIK3","A3TH6B3RUD1MUQ","3ECKRY5B1QIH1N6NFX1ECCW5ZDKIZQ","","null","<img src=""img/food5.png"" style=""width:200px;border:14px solid red;"">","null","","","","","","","","","",""
"","image-keyboard-response","128","54470","0.0-128.0","339ANSOTR6OOYC5V6Y36EG4G3MHIK3","A3TH6B3RUD1MUQ","3ECKRY5B1QIH1N6NFX1ECCW5ZDKIZQ","","171.29999995231628","img/food5.png","75","172.30000007152557","2","0","3","1","1,0.5,0,1,0.5,0,0.5,0,1","1,0.5,0,1,0.5,0,0.5,0,1","1","",""
"","html-keyboard-response","129","54772","0.0-129.0","339ANSOTR6OOYC5V6Y36EG4G3MHIK3","A3TH6B3RUD1MUQ","3ECKRY5B1QIH1N6NFX1ECCW5ZDKIZQ","","null","<img src=""img/food5.png"" style=""width:200px;border:14px solid red;"">","null","","","","","","","","","",""
"","image-keyboard-response","130","54945","0.0-130.0","339ANSOTR6OOYC5V6Y36EG4G3MHIK3","A3TH6B3RUD1MUQ","3ECKRY5B1QIH1N6NFX1ECCW5ZDKIZQ","","172.30000007152557","img/food2.png","74","173.19999992847443","1","1","2","1","1,0.5,0,1,0.5,0,0.5,0,1","1,0.5,0,1,0.5,0,0.5,0,1","1","",""
"","html-keyboard-response","131","55247","0.0-131.0","339ANSOTR6OOYC5V6Y36EG4G3MHIK3","A3TH6B3RUD1MUQ","3ECKRY5B1QIH1N6NFX1ECCW5ZDKIZQ","","null","<img src=""img/food2.png"" style=""width:200px; border:14px solid green;"">","null","","","","","","","","","",""
"","image-keyboard-response","132","55405","0.0-132.0","339ANSOTR6OOYC5V6Y36EG4G3MHIK3","A3TH6B3RUD1MUQ","3ECKRY5B1QIH1N6NFX1ECCW5ZDKIZQ","","156.29999995231628","img/food6.png","76","157.5","3","0","1","1","1,0.5,0,1,0.5,0,0.5,0,1","1,0.5,0,1,0.5,0,0.5,0,1","1","",""
"","html-keyboard-response","133","55707","0.0-133.0","339ANSOTR6OOYC5V6Y36EG4G3MHIK3","A3TH6B3RUD1MUQ","3ECKRY5B1QIH1N6NFX1ECCW5ZDKIZQ","","null","<img src=""img/food6.png"" style=""width:200px;border:14px solid red;"">","null","","","","","","","","","",""
"","image-keyboard-response","134","55760","0.0-134.0","339ANSOTR6OOYC5V6Y36EG4G3MHIK3","A3TH6B3RUD1MUQ","3ECKRY5B1QIH1N6NFX1ECCW5ZDKIZQ","","51.39999997615814","img/food6.png","74","52.5","1","1","1","1","1,0.5,0,1,0.5,0,0.5,0,1","1,0.5,0,1,0.5,0,0.5,0,1","1","",""
"","html-keyboard-response","135","56063","0.0-135.0","339ANSOTR6OOYC5V6Y36EG4G3MHIK3","A3TH6B3RUD1MUQ","3ECKRY5B1QIH1N6NFX1ECCW5ZDKIZQ","","null","<img src=""img/food6.png"" style=""width:200px; border:14px solid green;"">","null","","","","","","","","","",""
"","image-keyboard-response","136","56127","0.0-136.0","339ANSOTR6OOYC5V6Y36EG4G3MHIK3","A3TH6B3RUD1MUQ","3ECKRY5B1QIH1N6NFX1ECCW5ZDKIZQ","","63.200000047683716","img/food2.png","74","64.20000004768372","1","1","2","1","1,0.5,0,1,0.5,0,0.5,0,1","1,0.5,0,1,0.5,0,0.5,0,1","1","",""
"","html-keyboard-response","137","56431","0.0-137.0","339ANSOTR6OOYC5V6Y36EG4G3MHIK3","A3TH6B3RUD1MUQ","3ECKRY5B1QIH1N6NFX1ECCW5ZDKIZQ","","null","<img src=""img/food2.png"" style=""width:200px; border:14px solid green;"">","null","","","","","","","","","",""
"","image-keyboard-response","138","56529","0.0-138.0","339ANSOTR6OOYC5V6Y36EG4G3MHIK3","A3TH6B3RUD1MUQ","3ECKRY5B1QIH1N6NFX1ECCW5ZDKIZQ","","97.5","img/food2.png","75","98.59999990463257","2","1","2","1","1,0.5,0,1,0.5,0,0.5,0,1","1,0.5,0,1,0.5,0,0.5,0,1","1","",""
"","html-keyboard-response","139","56832","0.0-139.0","339ANSOTR6OOYC5V6Y36EG4G3MHIK3","A3TH6B3RUD1MUQ","3ECKRY5B1QIH1N6NFX1ECCW5ZDKIZQ","","null","<img src=""img/food2.png"" style=""width:200px; border:14px solid green;"">","null","","","","","","","","","",""
"","image-keyboard-response","140","56985","0.0-140.0","339ANSOTR6OOYC5V6Y36EG4G3MHIK3","A3TH6B3RUD1MUQ","3ECKRY5B1QIH1N6NFX1ECCW5ZDKIZQ","","151.89999997615814","img/food6.png","76","152.89999997615814","3","0","1","1","1,0.5,0,1,0.5,0,0.5,0,1","1,0.5,0,1,0.5,0,0.5,0,1","1","",""
"","html-keyboard-response","141","57287","0.0-141.0","339ANSOTR6OOYC5V6Y36EG4G3MHIK3","A3TH6B3RUD1MUQ","3ECKRY5B1QIH1N6NFX1ECCW5ZDKIZQ","","null","<img src=""img/food6.png"" style=""width:200px;border:14px solid red;"">","null","","","","","","","","","",""
"","image-keyboard-response","142","57345","0.0-142.0","339ANSOTR6OOYC5V6Y36EG4G3MHIK3","A3TH6B3RUD1MUQ","3ECKRY5B1QIH1N6NFX1ECCW5ZDKIZQ","","56.10000002384186","img/food6.png","74","57.200000047683716","1","1","1","1","1,0.5,0,1,0.5,0,0.5,0,1","1,0.5,0,1,0.5,0,0.5,0,1","1","",""
"","html-keyboard-response","143","57647","0.0-143.0","339ANSOTR6OOYC5V6Y36EG4G3MHIK3","A3TH6B3RUD1MUQ","3ECKRY5B1QIH1N6NFX1ECCW5ZDKIZQ","","null","<img src=""img/food6.png"" style=""width:200px; border:14px solid green;"">","null","","","","","","","","","",""
"","image-keyboard-response","144","57658","0.0-144.0","339ANSOTR6OOYC5V6Y36EG4G3MHIK3","A3TH6B3RUD1MUQ","3ECKRY5B1QIH1N6NFX1ECCW5ZDKIZQ","","10.200000047683716","img/food2.png","74","11.200000047683716","1","1","2","1","1,0.5,0,1,0.5,0,0.5,0,1","1,0.5,0,1,0.5,0,0.5,0,1","1","",""
"","html-keyboard-response","145","57960","0.0-145.0","339ANSOTR6OOYC5V6Y36EG4G3MHIK3","A3TH6B3RUD1MUQ","3ECKRY5B1QIH1N6NFX1ECCW5ZDKIZQ","","null","<img src=""img/food2.png"" style=""width:200px; border:14px solid green;"">","null","","","","","","","","","",""
"","image-keyboard-response","146","57975","0.0-146.0","339ANSOTR6OOYC5V6Y36EG4G3MHIK3","A3TH6B3RUD1MUQ","3ECKRY5B1QIH1N6NFX1ECCW5ZDKIZQ","","12.900000095367432","img/food5.png","76","14","3","1","3","1","1,0.5,0,1,0.5,0,0.5,0,1","1,0.5,0,1,0.5,0,0.5,0,1","1","",""
"","html-keyboard-response","147","58276","0.0-147.0","339ANSOTR6OOYC5V6Y36EG4G3MHIK3","A3TH6B3RUD1MUQ","3ECKRY5B1QIH1N6NFX1ECCW5ZDKIZQ","","null","<img src=""img/food5.png"" style=""width:200px; border:14px solid green;"">","null","","","","","","","","","",""
"","image-keyboard-response","148","58300","0.0-148.0","339ANSOTR6OOYC5V6Y36EG4G3MHIK3","A3TH6B3RUD1MUQ","3ECKRY5B1QIH1N6NFX1ECCW5ZDKIZQ","","22.199999928474426","img/food2.png","74","23.200000047683716","1","1","2","1","1,0.5,0,1,0.5,0,0.5,0,1","1,0.5,0,1,0.5,0,0.5,0,1","1","",""
"","html-keyboard-response","149","58603","0.0-149.0","339ANSOTR6OOYC5V6Y36EG4G3MHIK3","A3TH6B3RUD1MUQ","3ECKRY5B1QIH1N6NFX1ECCW5ZDKIZQ","","null","<img src=""img/food2.png"" style=""width:200px; border:14px solid green;"">","null","","","","","","","","","",""
"","image-keyboard-response","150","58615","0.0-150.0","339ANSOTR6OOYC5V6Y36EG4G3MHIK3","A3TH6B3RUD1MUQ","3ECKRY5B1QIH1N6NFX1ECCW5ZDKIZQ","","10.799999952316284","img/food5.png","74","11.599999904632568","1","0","3","1","1,0.5,0,1,0.5,0,0.5,0,1","1,0.5,0,1,0.5,0,0.5,0,1","1","",""
"","html-keyboard-response","151","58917","0.0-151.0","339ANSOTR6OOYC5V6Y36EG4G3MHIK3","A3TH6B3RUD1MUQ","3ECKRY5B1QIH1N6NFX1ECCW5ZDKIZQ","","null","<img src=""img/food5.png"" style=""width:200px;border:14px solid red;"">","null","","","","","","","","","",""
"","image-keyboard-response","152","58945","0.0-152.0","339ANSOTR6OOYC5V6Y36EG4G3MHIK3","A3TH6B3RUD1MUQ","3ECKRY5B1QIH1N6NFX1ECCW5ZDKIZQ","","26.600000023841858","img/food2.png","75","27.399999976158142","2","1","2","1","1,0.5,0,1,0.5,0,0.5,0,1","1,0.5,0,1,0.5,0,0.5,0,1","1","",""
"","html-keyboard-response","153","59246","0.0-153.0","339ANSOTR6OOYC5V6Y36EG4G3MHIK3","A3TH6B3RUD1MUQ","3ECKRY5B1QIH1N6NFX1ECCW5ZDKIZQ","","null","<img src=""img/food2.png"" style=""width:200px; border:14px solid green;"">","null","","","","","","","","","",""
"","image-keyboard-response","154","59285","0.0-154.0","339ANSOTR6OOYC5V6Y36EG4G3MHIK3","A3TH6B3RUD1MUQ","3ECKRY5B1QIH1N6NFX1ECCW5ZDKIZQ","","38.200000047683716","img/food5.png","74","39.10000002384186","1","0","3","1","1,0.5,0,1,0.5,0,0.5,0,1","1,0.5,0,1,0.5,0,0.5,0,1","1","",""
"","html-keyboard-response","155","59588","0.0-155.0","339ANSOTR6OOYC5V6Y36EG4G3MHIK3","A3TH6B3RUD1MUQ","3ECKRY5B1QIH1N6NFX1ECCW5ZDKIZQ","","null","<img src=""img/food5.png"" style=""width:200px;border:14px solid red;"">","null","","","","","","","","","",""
"","image-keyboard-response","156","59675","0.0-156.0","339ANSOTR6OOYC5V6Y36EG4G3MHIK3","A3TH6B3RUD1MUQ","3ECKRY5B1QIH1N6NFX1ECCW5ZDKIZQ","","85.89999997615814","img/food6.png","75","87","2","1","1","1","1,0.5,0,1,0.5,0,0.5,0,1","1,0.5,0,1,0.5,0,0.5,0,1","1","",""
"","html-keyboard-response","157","59978","0.0-157.0","339ANSOTR6OOYC5V6Y36EG4G3MHIK3","A3TH6B3RUD1MUQ","3ECKRY5B1QIH1N6NFX1ECCW5ZDKIZQ","","null","<img src=""img/food6.png"" style=""width:200px; border:14px solid green;"">","null","","","","","","","","","",""
"","image-keyboard-response","158","60155","0.0-158.0","339ANSOTR6OOYC5V6Y36EG4G3MHIK3","A3TH6B3RUD1MUQ","3ECKRY5B1QIH1N6NFX1ECCW5ZDKIZQ","","175.70000004768372","img/food2.png","74","176.80000007152557","1","1","2","1","1,0.5,0,1,0.5,0,0.5,0,1","1,0.5,0,1,0.5,0,0.5,0,1","1","",""
"","html-keyboard-response","159","60457","0.0-159.0","339ANSOTR6OOYC5V6Y36EG4G3MHIK3","A3TH6B3RUD1MUQ","3ECKRY5B1QIH1N6NFX1ECCW5ZDKIZQ","","null","<img src=""img/food2.png"" style=""width:200px; border:14px solid green;"">","null","","","","","","","","","",""
"","image-keyboard-response","160","60485","0.0-160.0","339ANSOTR6OOYC5V6Y36EG4G3MHIK3","A3TH6B3RUD1MUQ","3ECKRY5B1QIH1N6NFX1ECCW5ZDKIZQ","","26.699999928474426","img/food5.png","76","27.700000047683716","3","1","3","1","1,0.5,0,1,0.5,0,0.5,0,1","1,0.5,0,1,0.5,0,0.5,0,1","1","",""
"","html-keyboard-response","161","60787","0.0-161.0","339ANSOTR6OOYC5V6Y36EG4G3MHIK3","A3TH6B3RUD1MUQ","3ECKRY5B1QIH1N6NFX1ECCW5ZDKIZQ","","null","<img src=""img/food5.png"" style=""width:200px; border:14px solid green;"">","null","","","","","","","","","",""
"","image-keyboard-response","162","60945","0.0-162.0","339ANSOTR6OOYC5V6Y36EG4G3MHIK3","A3TH6B3RUD1MUQ","3ECKRY5B1QIH1N6NFX1ECCW5ZDKIZQ","","156.59999990463257","img/food6.png","75","157.5","2","0","1","1","1,0.5,0,1,0.5,0,0.5,0,1","1,0.5,0,1,0.5,0,0.5,0,1","1","",""
"","html-keyboard-response","163","61248","0.0-163.0","339ANSOTR6OOYC5V6Y36EG4G3MHIK3","A3TH6B3RUD1MUQ","3ECKRY5B1QIH1N6NFX1ECCW5ZDKIZQ","","null","<img src=""img/food6.png"" style=""width:200px;border:14px solid red;"">","null","","","","","","","","","",""
"","image-keyboard-response","164","61385","0.0-164.0","339ANSOTR6OOYC5V6Y36EG4G3MHIK3","A3TH6B3RUD1MUQ","3ECKRY5B1QIH1N6NFX1ECCW5ZDKIZQ","","135.29999995231628","img/food5.png","74","136.19999992847443","1","0","3","1","1,0.5,0,1,0.5,0,0.5,0,1","1,0.5,0,1,0.5,0,0.5,0,1","1","",""
"","html-keyboard-response","165","61686","0.0-165.0","339ANSOTR6OOYC5V6Y36EG4G3MHIK3","A3TH6B3RUD1MUQ","3ECKRY5B1QIH1N6NFX1ECCW5ZDKIZQ","","null","<img src=""img/food5.png"" style=""width:200px;border:14px solid red;"">","null","","","","","","","","","",""
"","image-keyboard-response","166","61734","0.0-166.0","339ANSOTR6OOYC5V6Y36EG4G3MHIK3","A3TH6B3RUD1MUQ","3ECKRY5B1QIH1N6NFX1ECCW5ZDKIZQ","","46.700000047683716","img/food2.png","76","47.60000002384186","3","0","2","1","1,0.5,0,1,0.5,0,0.5,0,1","1,0.5,0,1,0.5,0,0.5,0,1","1","",""
"","html-keyboard-response","167","62036","0.0-167.0","339ANSOTR6OOYC5V6Y36EG4G3MHIK3","A3TH6B3RUD1MUQ","3ECKRY5B1QIH1N6NFX1ECCW5ZDKIZQ","","null","<img src=""img/food2.png"" style=""width:200px;border:14px solid red;"">","null","","","","","","","","","",""
"","image-keyboard-response","168","62245","0.0-168.0","339ANSOTR6OOYC5V6Y36EG4G3MHIK3","A3TH6B3RUD1MUQ","3ECKRY5B1QIH1N6NFX1ECCW5ZDKIZQ","","207.60000002384186","img/food2.png","74","208.29999995231628","1","1","2","1","1,0.5,0,1,0.5,0,0.5,0,1","1,0.5,0,1,0.5,0,0.5,0,1","1","",""
"","html-keyboard-response","169","62547","0.0-169.0","339ANSOTR6OOYC5V6Y36EG4G3MHIK3","A3TH6B3RUD1MUQ","3ECKRY5B1QIH1N6NFX1ECCW5ZDKIZQ","","null","<img src=""img/food2.png"" style=""width:200px; border:14px solid green;"">","null","","","","","","","","","",""
"","image-keyboard-response","170","62635","0.0-170.0","339ANSOTR6OOYC5V6Y36EG4G3MHIK3","A3TH6B3RUD1MUQ","3ECKRY5B1QIH1N6NFX1ECCW5ZDKIZQ","","86.40000009536743","img/food6.png","75","87.20000004768372","2","1","1","1","1,0.5,0,1,0.5,0,0.5,0,1","1,0.5,0,1,0.5,0,0.5,0,1","1","",""
"","html-keyboard-response","171","62937","0.0-171.0","339ANSOTR6OOYC5V6Y36EG4G3MHIK3","A3TH6B3RUD1MUQ","3ECKRY5B1QIH1N6NFX1ECCW5ZDKIZQ","","null","<img src=""img/food6.png"" style=""width:200px; border:14px solid green;"">","null","","","","","","","","","",""
"","image-keyboard-response","172","63065","0.0-172.0","339ANSOTR6OOYC5V6Y36EG4G3MHIK3","A3TH6B3RUD1MUQ","3ECKRY5B1QIH1N6NFX1ECCW5ZDKIZQ","","126","img/food5.png","74","127.20000004768372","1","1","3","1","1,0.5,0,1,0.5,0,0.5,0,1","1,0.5,0,1,0.5,0,0.5,0,1","1","",""
"","html-keyboard-response","173","63367","0.0-173.0","339ANSOTR6OOYC5V6Y36EG4G3MHIK3","A3TH6B3RUD1MUQ","3ECKRY5B1QIH1N6NFX1ECCW5ZDKIZQ","","null","<img src=""img/food5.png"" style=""width:200px; border:14px solid green;"">","null","","","","","","","","","",""
"","image-keyboard-response","174","63465","0.0-174.0","339ANSOTR6OOYC5V6Y36EG4G3MHIK3","A3TH6B3RUD1MUQ","3ECKRY5B1QIH1N6NFX1ECCW5ZDKIZQ","","96.60000002384186","img/food2.png","75","98.10000002384186","2","0","2","1","1,0.5,0,1,0.5,0,0.5,0,1","1,0.5,0,1,0.5,0,0.5,0,1","1","",""
"","html-keyboard-response","175","63766","0.0-175.0","339ANSOTR6OOYC5V6Y36EG4G3MHIK3","A3TH6B3RUD1MUQ","3ECKRY5B1QIH1N6NFX1ECCW5ZDKIZQ","","null","<img src=""img/food2.png"" style=""width:200px;border:14px solid red;"">","null","","","","","","","","","",""
"","image-keyboard-response","176","63815","0.0-176.0","339ANSOTR6OOYC5V6Y36EG4G3MHIK3","A3TH6B3RUD1MUQ","3ECKRY5B1QIH1N6NFX1ECCW5ZDKIZQ","","46.90000009536743","img/food5.png","74","48","1","0","3","1","1,0.5,0,1,0.5,0,0.5,0,1","1,0.5,0,1,0.5,0,0.5,0,1","1","",""
"","html-keyboard-response","177","64117","0.0-177.0","339ANSOTR6OOYC5V6Y36EG4G3MHIK3","A3TH6B3RUD1MUQ","3ECKRY5B1QIH1N6NFX1ECCW5ZDKIZQ","","null","<img src=""img/food5.png"" style=""width:200px;border:14px solid red;"">","null","","","","","","","","","",""
"","image-keyboard-response","178","64140","0.0-178.0","339ANSOTR6OOYC5V6Y36EG4G3MHIK3","A3TH6B3RUD1MUQ","3ECKRY5B1QIH1N6NFX1ECCW5ZDKIZQ","","21.200000047683716","img/food5.png","74","22.100000023841858","1","1","3","1","1,0.5,0,1,0.5,0,0.5,0,1","1,0.5,0,1,0.5,0,0.5,0,1","1","",""
"","html-keyboard-response","179","64443","0.0-179.0","339ANSOTR6OOYC5V6Y36EG4G3MHIK3","A3TH6B3RUD1MUQ","3ECKRY5B1QIH1N6NFX1ECCW5ZDKIZQ","","null","<img src=""img/food5.png"" style=""width:200px; border:14px solid green;"">","null","","","","","","","","","",""
"","image-keyboard-response","180","64495","0.0-180.0","339ANSOTR6OOYC5V6Y36EG4G3MHIK3","A3TH6B3RUD1MUQ","3ECKRY5B1QIH1N6NFX1ECCW5ZDKIZQ","","50.90000009536743","img/food5.png","74","52.299999952316284","1","1","3","1","1,0.5,0,1,0.5,0,0.5,0,1","1,0.5,0,1,0.5,0,0.5,0,1","1","",""
"","html-keyboard-response","181","64798","0.0-181.0","339ANSOTR6OOYC5V6Y36EG4G3MHIK3","A3TH6B3RUD1MUQ","3ECKRY5B1QIH1N6NFX1ECCW5ZDKIZQ","","null","<img src=""img/food5.png"" style=""width:200px; border:14px solid green;"">","null","","","","","","","","","",""
"","html-keyboard-response","182","67725","0.0-182.0","339ANSOTR6OOYC5V6Y36EG4G3MHIK3","A3TH6B3RUD1MUQ","3ECKRY5B1QIH1N6NFX1ECCW5ZDKIZQ","","","","","","","","","","","","","",""
"","instructions","183","74795","0.0-183.0","339ANSOTR6OOYC5V6Y36EG4G3MHIK3","A3TH6B3RUD1MUQ","3ECKRY5B1QIH1N6NFX1ECCW5ZDKIZQ","[{""page_index"":0,""viewing_time"":4707.899999976158},{""page_index"":1,""viewing_time"":2359.899999976158}]","7068.5","","","","","","","","","","","",""
"","image-keyboard-response","184","75785","0.0-184.0","339ANSOTR6OOYC5V6Y36EG4G3MHIK3","A3TH6B3RUD1MUQ","3ECKRY5B1QIH1N6NFX1ECCW5ZDKIZQ","","987","img/food1.png","74","989.3999999761581","1","1","2","2","1,0.5,0,1,0.5,0,0.5,0,1","1,0.5,0,1,0.5,0,0.5,0,1","1","false",""
"","html-keyboard-response","185","76088","0.0-185.0","339ANSOTR6OOYC5V6Y36EG4G3MHIK3","A3TH6B3RUD1MUQ","3ECKRY5B1QIH1N6NFX1ECCW5ZDKIZQ","","null","<img src=""img/food1.png"" style=""width:200px; border:14px solid green;"">","null","","","","","","","","","",""
"","image-keyboard-response","186","76205","0.0-187.0","339ANSOTR6OOYC5V6Y36EG4G3MHIK3","A3TH6B3RUD1MUQ","3ECKRY5B1QIH1N6NFX1ECCW5ZDKIZQ","","115.20000004768372","img/food4.png","75","116.20000004768372","2","1","1","2","1,0.5,0,1,0.5,0,0.5,0,1","1,0.5,0,1,0.5,0,0.5,0,1","1","false",""
"","html-keyboard-response","187","76508","0.0-188.0","339ANSOTR6OOYC5V6Y36EG4G3MHIK3","A3TH6B3RUD1MUQ","3ECKRY5B1QIH1N6NFX1ECCW5ZDKIZQ","","null","<img src=""img/food4.png"" style=""width:200px; border:14px solid green;"">","null","","","","","","","","","",""
"","image-keyboard-response","188","76604","0.0-190.0","339ANSOTR6OOYC5V6Y36EG4G3MHIK3","A3TH6B3RUD1MUQ","3ECKRY5B1QIH1N6NFX1ECCW5ZDKIZQ","","94.5","img/food1.png","74","95.40000009536743","1","1","2","2","1,0.5,0,1,0.5,0,0.5,0,1","1,0.5,0,1,0.5,0,0.5,0,1","1","false",""
"","html-keyboard-response","189","76907","0.0-191.0","339ANSOTR6OOYC5V6Y36EG4G3MHIK3","A3TH6B3RUD1MUQ","3ECKRY5B1QIH1N6NFX1ECCW5ZDKIZQ","","null","<img src=""img/food1.png"" style=""width:200px; border:14px solid green;"">","null","","","","","","","","","",""
"","image-keyboard-response","190","76994","0.0-193.0","339ANSOTR6OOYC5V6Y36EG4G3MHIK3","A3TH6B3RUD1MUQ","3ECKRY5B1QIH1N6NFX1ECCW5ZDKIZQ","","84.89999997615814","img/food1.png","76","86","3","0","2","2","1,0.5,0,1,0.5,0,0.5,0,1","1,0.5,0,1,0.5,0,0.5,0,1","1","false",""
"","html-keyboard-response","191","77295","0.0-194.0","339ANSOTR6OOYC5V6Y36EG4G3MHIK3","A3TH6B3RUD1MUQ","3ECKRY5B1QIH1N6NFX1ECCW5ZDKIZQ","","null","<img src=""img/food1.png"" style=""width:200px;border:14px solid red;"">","null","","","","","","","","","",""
"","image-keyboard-response","192","77424","0.0-196.0","339ANSOTR6OOYC5V6Y36EG4G3MHIK3","A3TH6B3RUD1MUQ","3ECKRY5B1QIH1N6NFX1ECCW5ZDKIZQ","","127.5","img/food4.png","74","128.60000002384186","1","1","1","2","1,0.5,0,1,0.5,0,0.5,0,1","1,0.5,0,1,0.5,0,0.5,0,1","1","false",""
"","html-keyboard-response","193","77727","0.0-197.0","339ANSOTR6OOYC5V6Y36EG4G3MHIK3","A3TH6B3RUD1MUQ","3ECKRY5B1QIH1N6NFX1ECCW5ZDKIZQ","","null","<img src=""img/food4.png"" style=""width:200px; border:14px solid green;"">","null","","","","","","","","","",""
"","image-keyboard-response","194","77885","0.0-199.0","339ANSOTR6OOYC5V6Y36EG4G3MHIK3","A3TH6B3RUD1MUQ","3ECKRY5B1QIH1N6NFX1ECCW5ZDKIZQ","","155.5","img/food1.png","74","156.60000002384186","1","1","2","2","1,0.5,0,1,0.5,0,0.5,0,1","1,0.5,0,1,0.5,0,0.5,0,1","1","false",""
"","html-keyboard-response","195","78188","0.0-200.0","339ANSOTR6OOYC5V6Y36EG4G3MHIK3","A3TH6B3RUD1MUQ","3ECKRY5B1QIH1N6NFX1ECCW5ZDKIZQ","","null","<img src=""img/food1.png"" style=""width:200px; border:14px solid green;"">","null","","","","","","","","","",""
"","image-keyboard-response","196","78304","0.0-202.0","339ANSOTR6OOYC5V6Y36EG4G3MHIK3","A3TH6B3RUD1MUQ","3ECKRY5B1QIH1N6NFX1ECCW5ZDKIZQ","","114.5","img/food1.png","74","115.5","1","1","2","2","1,0.5,0,1,0.5,0,0.5,0,1","1,0.5,0,1,0.5,0,0.5,0,1","1","false",""
"","html-keyboard-response","197","78606","0.0-203.0","339ANSOTR6OOYC5V6Y36EG4G3MHIK3","A3TH6B3RUD1MUQ","3ECKRY5B1QIH1N6NFX1ECCW5ZDKIZQ","","null","<img src=""img/food1.png"" style=""width:200px; border:14px solid green;"">","null","","","","","","","","","",""
"","image-keyboard-response","198","78739","0.0-205.0","339ANSOTR6OOYC5V6Y36EG4G3MHIK3","A3TH6B3RUD1MUQ","3ECKRY5B1QIH1N6NFX1ECCW5ZDKIZQ","","131.69999992847443","img/food1.png","76","132.89999997615814","3","0","2","2","1,0.5,0,1,0.5,0,0.5,0,1","1,0.5,0,1,0.5,0,0.5,0,1","1","false",""
"","html-keyboard-response","199","79043","0.0-206.0","339ANSOTR6OOYC5V6Y36EG4G3MHIK3","A3TH6B3RUD1MUQ","3ECKRY5B1QIH1N6NFX1ECCW5ZDKIZQ","","null","<img src=""img/food1.png"" style=""width:200px;border:14px solid red;"">","null","","","","","","","","","",""
"","image-keyboard-response","200","79205","0.0-208.0","339ANSOTR6OOYC5V6Y36EG4G3MHIK3","A3TH6B3RUD1MUQ","3ECKRY5B1QIH1N6NFX1ECCW5ZDKIZQ","","160.69999992847443","img/food4.png","74","161.70000004768372","1","1","1","2","1,0.5,0,1,0.5,0,0.5,0,1","1,0.5,0,1,0.5,0,0.5,0,1","1","false",""
"","html-keyboard-response","201","79509","0.0-209.0","339ANSOTR6OOYC5V6Y36EG4G3MHIK3","A3TH6B3RUD1MUQ","3ECKRY5B1QIH1N6NFX1ECCW5ZDKIZQ","","null","<img src=""img/food4.png"" style=""width:200px; border:14px solid green;"">","null","","","","","","","","","",""
"","image-keyboard-response","202","79554","0.0-211.0","339ANSOTR6OOYC5V6Y36EG4G3MHIK3","A3TH6B3RUD1MUQ","3ECKRY5B1QIH1N6NFX1ECCW5ZDKIZQ","","43.60000002384186","img/food1.png","76","44.700000047683716","3","0","2","2","1,0.5,0,1,0.5,0,0.5,0,1","1,0.5,0,1,0.5,0,0.5,0,1","1","false",""
"","html-keyboard-response","203","79857","0.0-212.0","339ANSOTR6OOYC5V6Y36EG4G3MHIK3","A3TH6B3RUD1MUQ","3ECKRY5B1QIH1N6NFX1ECCW5ZDKIZQ","","null","<img src=""img/food1.png"" style=""width:200px;border:14px solid red;"">","null","","","","","","","","","",""
"","image-keyboard-response","204","79975","0.0-214.0","339ANSOTR6OOYC5V6Y36EG4G3MHIK3","A3TH6B3RUD1MUQ","3ECKRY5B1QIH1N6NFX1ECCW5ZDKIZQ","","115.70000004768372","img/food3.png","75","116.69999992847443","2","0","3","2","1,0.5,0,1,0.5,0,0.5,0,1","1,0.5,0,1,0.5,0,0.5,0,1","1","false",""
"","html-keyboard-response","205","80278","0.0-215.0","339ANSOTR6OOYC5V6Y36EG4G3MHIK3","A3TH6B3RUD1MUQ","3ECKRY5B1QIH1N6NFX1ECCW5ZDKIZQ","","null","<img src=""img/food3.png"" style=""width:200px;border:14px solid red;"">","null","","","","","","","","","",""
"","image-keyboard-response","206","80374","0.0-217.0","339ANSOTR6OOYC5V6Y36EG4G3MHIK3","A3TH6B3RUD1MUQ","3ECKRY5B1QIH1N6NFX1ECCW5ZDKIZQ","","93","img/food4.png","74","94.5","1","1","1","2","1,0.5,0,1,0.5,0,0.5,0,1","1,0.5,0,1,0.5,0,0.5,0,1","1","false",""
"","html-keyboard-response","207","80678","0.0-218.0","339ANSOTR6OOYC5V6Y36EG4G3MHIK3","A3TH6B3RUD1MUQ","3ECKRY5B1QIH1N6NFX1ECCW5ZDKIZQ","","null","<img src=""img/food4.png"" style=""width:200px; border:14px solid green;"">","null","","","","","","","","","",""
"","image-keyboard-response","208","80685","0.0-220.0","339ANSOTR6OOYC5V6Y36EG4G3MHIK3","A3TH6B3RUD1MUQ","3ECKRY5B1QIH1N6NFX1ECCW5ZDKIZQ","","6.199999928474426","img/food4.png","74","7.299999952316284","1","1","1","2","1,0.5,0,1,0.5,0,0.5,0,1","1,0.5,0,1,0.5,0,0.5,0,1","1","false",""
"","html-keyboard-response","209","80988","0.0-221.0","339ANSOTR6OOYC5V6Y36EG4G3MHIK3","A3TH6B3RUD1MUQ","3ECKRY5B1QIH1N6NFX1ECCW5ZDKIZQ","","null","<img src=""img/food4.png"" style=""width:200px; border:14px solid green;"">","null","","","","","","","","","",""
"","image-keyboard-response","210","80996","0.0-223.0","339ANSOTR6OOYC5V6Y36EG4G3MHIK3","A3TH6B3RUD1MUQ","3ECKRY5B1QIH1N6NFX1ECCW5ZDKIZQ","","6.5","img/food1.png","75","7.300000071525574","2","1","2","2","1,0.5,0,1,0.5,0,0.5,0,1","1,0.5,0,1,0.5,0,0.5,0,1","1","false",""
"","html-keyboard-response","211","81297","0.0-224.0","339ANSOTR6OOYC5V6Y36EG4G3MHIK3","A3TH6B3RUD1MUQ","3ECKRY5B1QIH1N6NFX1ECCW5ZDKIZQ","","null","<img src=""img/food1.png"" style=""width:200px; border:14px solid green;"">","null","","","","","","","","","",""
"","image-keyboard-response","212","81354","0.0-226.0","339ANSOTR6OOYC5V6Y36EG4G3MHIK3","A3TH6B3RUD1MUQ","3ECKRY5B1QIH1N6NFX1ECCW5ZDKIZQ","","55","img/food4.png","75","56.10000002384186","2","0","1","2","1,0.5,0,1,0.5,0,0.5,0,1","1,0.5,0,1,0.5,0,0.5,0,1","1","false",""
"","html-keyboard-response","213","81657","0.0-227.0","339ANSOTR6OOYC5V6Y36EG4G3MHIK3","A3TH6B3RUD1MUQ","3ECKRY5B1QIH1N6NFX1ECCW5ZDKIZQ","","null","<img src=""img/food4.png"" style=""width:200px;border:14px solid red;"">","null","","","","","","","","","",""
"","image-keyboard-response","214","81666","0.0-229.0","339ANSOTR6OOYC5V6Y36EG4G3MHIK3","A3TH6B3RUD1MUQ","3ECKRY5B1QIH1N6NFX1ECCW5ZDKIZQ","","6.800000071525574","img/food1.png","76","7.699999928474426","3","0","2","2","1,0.5,0,1,0.5,0,0.5,0,1","1,0.5,0,1,0.5,0,0.5,0,1","1","false",""
"","html-keyboard-response","215","81968","0.0-230.0","339ANSOTR6OOYC5V6Y36EG4G3MHIK3","A3TH6B3RUD1MUQ","3ECKRY5B1QIH1N6NFX1ECCW5ZDKIZQ","","null","<img src=""img/food1.png"" style=""width:200px;border:14px solid red;"">","null","","","","","","","","","",""
"","image-keyboard-response","216","82044","0.0-232.0","339ANSOTR6OOYC5V6Y36EG4G3MHIK3","A3TH6B3RUD1MUQ","3ECKRY5B1QIH1N6NFX1ECCW5ZDKIZQ","","74.10000002384186","img/food3.png","76","74.90000009536743","3","1","3","2","1,0.5,0,1,0.5,0,0.5,0,1","1,0.5,0,1,0.5,0,0.5,0,1","1","false",""
"","html-keyboard-response","217","82346","0.0-233.0","339ANSOTR6OOYC5V6Y36EG4G3MHIK3","A3TH6B3RUD1MUQ","3ECKRY5B1QIH1N6NFX1ECCW5ZDKIZQ","","null","<img src=""img/food3.png"" style=""width:200px; border:14px solid green;"">","null","","","","","","","","","",""
"","image-keyboard-response","218","82489","0.0-235.0","339ANSOTR6OOYC5V6Y36EG4G3MHIK3","A3TH6B3RUD1MUQ","3ECKRY5B1QIH1N6NFX1ECCW5ZDKIZQ","","141.60000002384186","img/food4.png","76","142.5","3","0","1","2","1,0.5,0,1,0.5,0,0.5,0,1","1,0.5,0,1,0.5,0,0.5,0,1","1","false",""
"","html-keyboard-response","219","82792","0.0-236.0","339ANSOTR6OOYC5V6Y36EG4G3MHIK3","A3TH6B3RUD1MUQ","3ECKRY5B1QIH1N6NFX1ECCW5ZDKIZQ","","null","<img src=""img/food4.png"" style=""width:200px;border:14px solid red;"">","null","","","","","","","","","",""
"","image-keyboard-response","220","82844","0.0-238.0","339ANSOTR6OOYC5V6Y36EG4G3MHIK3","A3TH6B3RUD1MUQ","3ECKRY5B1QIH1N6NFX1ECCW5ZDKIZQ","","50.5","img/food3.png","74","51.60000002384186","1","0","3","2","1,0.5,0,1,0.5,0,0.5,0,1","1,0.5,0,1,0.5,0,0.5,0,1","1","false",""
"","html-keyboard-response","221","83145","0.0-239.0","339ANSOTR6OOYC5V6Y36EG4G3MHIK3","A3TH6B3RUD1MUQ","3ECKRY5B1QIH1N6NFX1ECCW5ZDKIZQ","","null","<img src=""img/food3.png"" style=""width:200px;border:14px solid red;"">","null","","","","","","","","","",""
"","image-keyboard-response","222","83254","0.0-241.0","339ANSOTR6OOYC5V6Y36EG4G3MHIK3","A3TH6B3RUD1MUQ","3ECKRY5B1QIH1N6NFX1ECCW5ZDKIZQ","","107.10000002384186","img/food1.png","76","108.10000002384186","3","0","2","2","1,0.5,0,1,0.5,0,0.5,0,1","1,0.5,0,1,0.5,0,0.5,0,1","1","false",""
"","html-keyboard-response","223","83556","0.0-242.0","339ANSOTR6OOYC5V6Y36EG4G3MHIK3","A3TH6B3RUD1MUQ","3ECKRY5B1QIH1N6NFX1ECCW5ZDKIZQ","","null","<img src=""img/food1.png"" style=""width:200px;border:14px solid red;"">","null","","","","","","","","","",""
"","image-keyboard-response","224","83584","0.0-244.0","339ANSOTR6OOYC5V6Y36EG4G3MHIK3","A3TH6B3RUD1MUQ","3ECKRY5B1QIH1N6NFX1ECCW5ZDKIZQ","","26","img/food1.png","74","27","1","1","2","2","1,0.5,0,1,0.5,0,0.5,0,1","1,0.5,0,1,0.5,0,0.5,0,1","1","false",""
"","html-keyboard-response","225","83886","0.0-245.0","339ANSOTR6OOYC5V6Y36EG4G3MHIK3","A3TH6B3RUD1MUQ","3ECKRY5B1QIH1N6NFX1ECCW5ZDKIZQ","","null","<img src=""img/food1.png"" style=""width:200px; border:14px solid green;"">","null","","","","","","","","","",""
"","image-keyboard-response","226","83909","0.0-247.0","339ANSOTR6OOYC5V6Y36EG4G3MHIK3","A3TH6B3RUD1MUQ","3ECKRY5B1QIH1N6NFX1ECCW5ZDKIZQ","","21.399999976158142","img/food4.png","75","22.5","2","1","1","2","1,0.5,0,1,0.5,0,0.5,0,1","1,0.5,0,1,0.5,0,0.5,0,1","1","false",""
"","html-keyboard-response","227","84213","0.0-248.0","339ANSOTR6OOYC5V6Y36EG4G3MHIK3","A3TH6B3RUD1MUQ","3ECKRY5B1QIH1N6NFX1ECCW5ZDKIZQ","","null","<img src=""img/food4.png"" style=""width:200px; border:14px solid green;"">","null","","","","","","","","","",""
"","image-keyboard-response","228","84264","0.0-250.0","339ANSOTR6OOYC5V6Y36EG4G3MHIK3","A3TH6B3RUD1MUQ","3ECKRY5B1QIH1N6NFX1ECCW5ZDKIZQ","","50","img/food1.png","74","51.09999990463257","1","1","2","2","1,0.5,0,1,0.5,0,0.5,0,1","1,0.5,0,1,0.5,0,0.5,0,1","1","false",""
"","html-keyboard-response","229","84566","0.0-251.0","339ANSOTR6OOYC5V6Y36EG4G3MHIK3","A3TH6B3RUD1MUQ","3ECKRY5B1QIH1N6NFX1ECCW5ZDKIZQ","","null","<img src=""img/food1.png"" style=""width:200px; border:14px solid green;"">","null","","","","","","","","","",""
"","image-keyboard-response","230","84675","0.0-253.0","339ANSOTR6OOYC5V6Y36EG4G3MHIK3","A3TH6B3RUD1MUQ","3ECKRY5B1QIH1N6NFX1ECCW5ZDKIZQ","","107","img/food3.png","75","108.10000002384186","2","0","3","2","1,0.5,0,1,0.5,0,0.5,0,1","1,0.5,0,1,0.5,0,0.5,0,1","1","false",""
"","html-keyboard-response","231","84977","0.0-254.0","339ANSOTR6OOYC5V6Y36EG4G3MHIK3","A3TH6B3RUD1MUQ","3ECKRY5B1QIH1N6NFX1ECCW5ZDKIZQ","","null","<img src=""img/food3.png"" style=""width:200px;border:14px solid red;"">","null","","","","","","","","","",""
"","image-keyboard-response","232","84989","0.0-256.0","339ANSOTR6OOYC5V6Y36EG4G3MHIK3","A3TH6B3RUD1MUQ","3ECKRY5B1QIH1N6NFX1ECCW5ZDKIZQ","","10.299999952316284","img/food1.png","76","11.199999928474426","3","0","2","2","1,0.5,0,1,0.5,0,0.5,0,1","1,0.5,0,1,0.5,0,0.5,0,1","1","false",""
"","html-keyboard-response","233","85290","0.0-257.0","339ANSOTR6OOYC5V6Y36EG4G3MHIK3","A3TH6B3RUD1MUQ","3ECKRY5B1QIH1N6NFX1ECCW5ZDKIZQ","","null","<img src=""img/food1.png"" style=""width:200px;border:14px solid red;"">","null","","","","","","","","","",""
"","image-keyboard-response","234","85314","0.0-259.0","339ANSOTR6OOYC5V6Y36EG4G3MHIK3","A3TH6B3RUD1MUQ","3ECKRY5B1QIH1N6NFX1ECCW5ZDKIZQ","","22.200000047683716","img/food4.png","74","23.299999952316284","1","1","1","2","1,0.5,0,1,0.5,0,0.5,0,1","1,0.5,0,1,0.5,0,0.5,0,1","1","false",""
"","html-keyboard-response","235","85617","0.0-260.0","339ANSOTR6OOYC5V6Y36EG4G3MHIK3","A3TH6B3RUD1MUQ","3ECKRY5B1QIH1N6NFX1ECCW5ZDKIZQ","","null","<img src=""img/food4.png"" style=""width:200px; border:14px solid green;"">","null","","","","","","","","","",""
"","image-keyboard-response","236","85634","0.0-262.0","339ANSOTR6OOYC5V6Y36EG4G3MHIK3","A3TH6B3RUD1MUQ","3ECKRY5B1QIH1N6NFX1ECCW5ZDKIZQ","","15.700000047683716","img/food4.png","75","16.699999928474426","2","1","1","2","1,0.5,0,1,0.5,0,0.5,0,1","1,0.5,0,1,0.5,0,0.5,0,1","1","false",""
"","html-keyboard-response","237","85937","0.0-263.0","339ANSOTR6OOYC5V6Y36EG4G3MHIK3","A3TH6B3RUD1MUQ","3ECKRY5B1QIH1N6NFX1ECCW5ZDKIZQ","","null","<img src=""img/food4.png"" style=""width:200px; border:14px solid green;"">","null","","","","","","","","","",""
"","image-keyboard-response","238","85948","0.0-265.0","339ANSOTR6OOYC5V6Y36EG4G3MHIK3","A3TH6B3RUD1MUQ","3ECKRY5B1QIH1N6NFX1ECCW5ZDKIZQ","","9.799999952316284","img/food3.png","76","10.700000047683716","3","1","3","2","1,0.5,0,1,0.5,0,0.5,0,1","1,0.5,0,1,0.5,0,0.5,0,1","1","false",""
"","html-keyboard-response","239","86250","0.0-266.0","339ANSOTR6OOYC5V6Y36EG4G3MHIK3","A3TH6B3RUD1MUQ","3ECKRY5B1QIH1N6NFX1ECCW5ZDKIZQ","","null","<img src=""img/food3.png"" style=""width:200px; border:14px solid green;"">","null","","","","","","","","","",""
"","image-keyboard-response","240","86424","0.0-268.0","339ANSOTR6OOYC5V6Y36EG4G3MHIK3","A3TH6B3RUD1MUQ","3ECKRY5B1QIH1N6NFX1ECCW5ZDKIZQ","","172.29999995231628","img/food3.png","75","173.10000002384186","2","0","3","2","1,0.5,0,1,0.5,0,0.5,0,1","1,0.5,0,1,0.5,0,0.5,0,1","1","false",""
"","html-keyboard-response","241","86727","0.0-269.0","339ANSOTR6OOYC5V6Y36EG4G3MHIK3","A3TH6B3RUD1MUQ","3ECKRY5B1QIH1N6NFX1ECCW5ZDKIZQ","","null","<img src=""img/food3.png"" style=""width:200px;border:14px solid red;"">","null","","","","","","","","","",""
"","image-keyboard-response","242","86754","0.0-271.0","339ANSOTR6OOYC5V6Y36EG4G3MHIK3","A3TH6B3RUD1MUQ","3ECKRY5B1QIH1N6NFX1ECCW5ZDKIZQ","","25.100000023841858","img/food3.png","76","26.299999952316284","3","1","3","2","1,0.5,0,1,0.5,0,0.5,0,1","1,0.5,0,1,0.5,0,0.5,0,1","1","false",""
"","html-keyboard-response","243","87057","0.0-272.0","339ANSOTR6OOYC5V6Y36EG4G3MHIK3","A3TH6B3RUD1MUQ","3ECKRY5B1QIH1N6NFX1ECCW5ZDKIZQ","","null","<img src=""img/food3.png"" style=""width:200px; border:14px solid green;"">","null","","","","","","","","","",""
"","image-keyboard-response","244","87204","0.0-274.0","339ANSOTR6OOYC5V6Y36EG4G3MHIK3","A3TH6B3RUD1MUQ","3ECKRY5B1QIH1N6NFX1ECCW5ZDKIZQ","","144.79999995231628","img/food1.png","76","145.70000004768372","3","0","2","2","1,0.5,0,1,0.5,0,0.5,0,1","1,0.5,0,1,0.5,0,0.5,0,1","1","false",""
"","html-keyboard-response","245","87507","0.0-275.0","339ANSOTR6OOYC5V6Y36EG4G3MHIK3","A3TH6B3RUD1MUQ","3ECKRY5B1QIH1N6NFX1ECCW5ZDKIZQ","","null","<img src=""img/food1.png"" style=""width:200px;border:14px solid red;"">","null","","","","","","","","","",""
"","image-keyboard-response","246","87544","0.0-277.0","339ANSOTR6OOYC5V6Y36EG4G3MHIK3","A3TH6B3RUD1MUQ","3ECKRY5B1QIH1N6NFX1ECCW5ZDKIZQ","","35.10000002384186","img/food4.png","76","36","3","0","1","2","1,0.5,0,1,0.5,0,0.5,0,1","1,0.5,0,1,0.5,0,0.5,0,1","1","false",""
"","html-keyboard-response","247","87847","0.0-278.0","339ANSOTR6OOYC5V6Y36EG4G3MHIK3","A3TH6B3RUD1MUQ","3ECKRY5B1QIH1N6NFX1ECCW5ZDKIZQ","","null","<img src=""img/food4.png"" style=""width:200px;border:14px solid red;"">","null","","","","","","","","","",""
"","image-keyboard-response","248","87939","0.0-280.0","339ANSOTR6OOYC5V6Y36EG4G3MHIK3","A3TH6B3RUD1MUQ","3ECKRY5B1QIH1N6NFX1ECCW5ZDKIZQ","","90.60000002384186","img/food4.png","76","91.29999995231628","3","0","1","2","1,0.5,0,1,0.5,0,0.5,0,1","1,0.5,0,1,0.5,0,0.5,0,1","1","false",""
"","html-keyboard-response","249","88241","0.0-281.0","339ANSOTR6OOYC5V6Y36EG4G3MHIK3","A3TH6B3RUD1MUQ","3ECKRY5B1QIH1N6NFX1ECCW5ZDKIZQ","","null","<img src=""img/food4.png"" style=""width:200px;border:14px solid red;"">","null","","","","","","","","","",""
"","image-keyboard-response","250","88274","0.0-283.0","339ANSOTR6OOYC5V6Y36EG4G3MHIK3","A3TH6B3RUD1MUQ","3ECKRY5B1QIH1N6NFX1ECCW5ZDKIZQ","","31.100000023841858","img/food3.png","74","32.10000002384186","1","0","3","2","1,0.5,0,1,0.5,0,0.5,0,1","1,0.5,0,1,0.5,0,0.5,0,1","1","false",""
"","html-keyboard-response","251","88576","0.0-284.0","339ANSOTR6OOYC5V6Y36EG4G3MHIK3","A3TH6B3RUD1MUQ","3ECKRY5B1QIH1N6NFX1ECCW5ZDKIZQ","","null","<img src=""img/food3.png"" style=""width:200px;border:14px solid red;"">","null","","","","","","","","","",""
"","image-keyboard-response","252","88654","0.0-286.0","339ANSOTR6OOYC5V6Y36EG4G3MHIK3","A3TH6B3RUD1MUQ","3ECKRY5B1QIH1N6NFX1ECCW5ZDKIZQ","","75.80000007152557","img/food1.png","75","77","2","0","2","2","1,0.5,0,1,0.5,0,0.5,0,1","1,0.5,0,1,0.5,0,0.5,0,1","1","false",""
"","html-keyboard-response","253","88957","0.0-287.0","339ANSOTR6OOYC5V6Y36EG4G3MHIK3","A3TH6B3RUD1MUQ","3ECKRY5B1QIH1N6NFX1ECCW5ZDKIZQ","","null","<img src=""img/food1.png"" style=""width:200px;border:14px solid red;"">","null","","","","","","","","","",""
"","image-keyboard-response","254","89054","0.0-289.0","339ANSOTR6OOYC5V6Y36EG4G3MHIK3","A3TH6B3RUD1MUQ","3ECKRY5B1QIH1N6NFX1ECCW5ZDKIZQ","","95.60000002384186","img/food3.png","75","96.5","2","0","3","2","1,0.5,0,1,0.5,0,0.5,0,1","1,0.5,0,1,0.5,0,0.5,0,1","1","false",""
"","html-keyboard-response","255","89357","0.0-290.0","339ANSOTR6OOYC5V6Y36EG4G3MHIK3","A3TH6B3RUD1MUQ","3ECKRY5B1QIH1N6NFX1ECCW5ZDKIZQ","","null","<img src=""img/food3.png"" style=""width:200px;border:14px solid red;"">","null","","","","","","","","","",""
"","image-keyboard-response","256","89374","0.0-292.0","339ANSOTR6OOYC5V6Y36EG4G3MHIK3","A3TH6B3RUD1MUQ","3ECKRY5B1QIH1N6NFX1ECCW5ZDKIZQ","","14.800000071525574","img/food3.png","76","15.799999952316284","3","1","3","2","1,0.5,0,1,0.5,0,0.5,0,1","1,0.5,0,1,0.5,0,0.5,0,1","1","false",""
"","html-keyboard-response","257","89675","0.0-293.0","339ANSOTR6OOYC5V6Y36EG4G3MHIK3","A3TH6B3RUD1MUQ","3ECKRY5B1QIH1N6NFX1ECCW5ZDKIZQ","","null","<img src=""img/food3.png"" style=""width:200px; border:14px solid green;"">","null","","","","","","","","","",""
"","image-keyboard-response","258","89687","0.0-295.0","339ANSOTR6OOYC5V6Y36EG4G3MHIK3","A3TH6B3RUD1MUQ","3ECKRY5B1QIH1N6NFX1ECCW5ZDKIZQ","","10.200000047683716","img/food4.png","75","11.099999904632568","2","0","1","2","1,0.5,0,1,0.5,0,0.5,0,1","1,0.5,0,1,0.5,0,0.5,0,1","1","false",""
"","html-keyboard-response","259","89990","0.0-296.0","339ANSOTR6OOYC5V6Y36EG4G3MHIK3","A3TH6B3RUD1MUQ","3ECKRY5B1QIH1N6NFX1ECCW5ZDKIZQ","","null","<img src=""img/food4.png"" style=""width:200px;border:14px solid red;"">","null","","","","","","","","","",""
"","image-keyboard-response","260","89998","0.0-298.0","339ANSOTR6OOYC5V6Y36EG4G3MHIK3","A3TH6B3RUD1MUQ","3ECKRY5B1QIH1N6NFX1ECCW5ZDKIZQ","","6.100000023841858","img/food4.png","76","7.100000023841858","3","0","1","2","1,0.5,0,1,0.5,0,0.5,0,1","1,0.5,0,1,0.5,0,0.5,0,1","1","false",""
"","html-keyboard-response","261","90299","0.0-299.0","339ANSOTR6OOYC5V6Y36EG4G3MHIK3","A3TH6B3RUD1MUQ","3ECKRY5B1QIH1N6NFX1ECCW5ZDKIZQ","","null","<img src=""img/food4.png"" style=""width:200px;border:14px solid red;"">","null","","","","","","","","","",""
"","image-keyboard-response","262","90424","0.0-301.0","339ANSOTR6OOYC5V6Y36EG4G3MHIK3","A3TH6B3RUD1MUQ","3ECKRY5B1QIH1N6NFX1ECCW5ZDKIZQ","","123.70000004768372","img/food3.png","76","124.5","3","1","3","2","1,0.5,0,1,0.5,0,0.5,0,1","1,0.5,0,1,0.5,0,0.5,0,1","1","false",""
"","html-keyboard-response","263","90726","0.0-302.0","339ANSOTR6OOYC5V6Y36EG4G3MHIK3","A3TH6B3RUD1MUQ","3ECKRY5B1QIH1N6NFX1ECCW5ZDKIZQ","","null","<img src=""img/food3.png"" style=""width:200px; border:14px solid green;"">","null","","","","","","","","","",""
"","image-keyboard-response","264","90744","0.0-304.0","339ANSOTR6OOYC5V6Y36EG4G3MHIK3","A3TH6B3RUD1MUQ","3ECKRY5B1QIH1N6NFX1ECCW5ZDKIZQ","","15.600000023841858","img/food4.png","75","16.699999928474426","2","0","1","2","1,0.5,0,1,0.5,0,0.5,0,1","1,0.5,0,1,0.5,0,0.5,0,1","1","false",""
"","html-keyboard-response","265","91046","0.0-305.0","339ANSOTR6OOYC5V6Y36EG4G3MHIK3","A3TH6B3RUD1MUQ","3ECKRY5B1QIH1N6NFX1ECCW5ZDKIZQ","","null","<img src=""img/food4.png"" style=""width:200px;border:14px solid red;"">","null","","","","","","","","","",""
"","image-keyboard-response","266","91114","0.0-307.0","339ANSOTR6OOYC5V6Y36EG4G3MHIK3","A3TH6B3RUD1MUQ","3ECKRY5B1QIH1N6NFX1ECCW5ZDKIZQ","","65.5","img/food3.png","76","66.80000007152557","3","1","3","2","1,0.5,0,1,0.5,0,0.5,0,1","1,0.5,0,1,0.5,0,0.5,0,1","1","false",""
"","html-keyboard-response","267","91417","0.0-308.0","339ANSOTR6OOYC5V6Y36EG4G3MHIK3","A3TH6B3RUD1MUQ","3ECKRY5B1QIH1N6NFX1ECCW5ZDKIZQ","","null","<img src=""img/food3.png"" style=""width:200px; border:14px solid green;"">","null","","","","","","","","","",""
"","image-keyboard-response","268","91444","0.0-310.0","339ANSOTR6OOYC5V6Y36EG4G3MHIK3","A3TH6B3RUD1MUQ","3ECKRY5B1QIH1N6NFX1ECCW5ZDKIZQ","","26","img/food3.png","74","27.100000023841858","1","0","3","2","1,0.5,0,1,0.5,0,0.5,0,1","1,0.5,0,1,0.5,0,0.5,0,1","1","false",""
"","html-keyboard-response","269","91751","0.0-311.0","339ANSOTR6OOYC5V6Y36EG4G3MHIK3","A3TH6B3RUD1MUQ","3ECKRY5B1QIH1N6NFX1ECCW5ZDKIZQ","","null","<img src=""img/food3.png"" style=""width:200px;border:14px solid red;"">","null","","","","","","","","","",""
"","image-keyboard-response","270","91764","0.0-313.0","339ANSOTR6OOYC5V6Y36EG4G3MHIK3","A3TH6B3RUD1MUQ","3ECKRY5B1QIH1N6NFX1ECCW5ZDKIZQ","","11.700000047683716","img/food3.png","74","12.699999928474426","1","1","3","2","1,0.5,0,1,0.5,0,0.5,0,1","1,0.5,0,1,0.5,0,0.5,0,1","1","false",""
"","html-keyboard-response","271","92067","0.0-314.0","339ANSOTR6OOYC5V6Y36EG4G3MHIK3","A3TH6B3RUD1MUQ","3ECKRY5B1QIH1N6NFX1ECCW5ZDKIZQ","","null","<img src=""img/food3.png"" style=""width:200px; border:14px solid green;"">","null","","","","","","","","","",""
"","image-keyboard-response","272","92134","0.0-316.0","339ANSOTR6OOYC5V6Y36EG4G3MHIK3","A3TH6B3RUD1MUQ","3ECKRY5B1QIH1N6NFX1ECCW5ZDKIZQ","","65.5","img/food3.png","75","66.70000004768372","2","0","3","2","1,0.5,0,1,0.5,0,0.5,0,1","1,0.5,0,1,0.5,0,0.5,0,1","1","false",""
"","html-keyboard-response","273","92436","0.0-317.0","339ANSOTR6OOYC5V6Y36EG4G3MHIK3","A3TH6B3RUD1MUQ","3ECKRY5B1QIH1N6NFX1ECCW5ZDKIZQ","","null","<img src=""img/food3.png"" style=""width:200px;border:14px solid red;"">","null","","","","","","","","","",""
"","image-keyboard-response","274","92554","0.0-319.0","339ANSOTR6OOYC5V6Y36EG4G3MHIK3","A3TH6B3RUD1MUQ","3ECKRY5B1QIH1N6NFX1ECCW5ZDKIZQ","","116.29999995231628","img/food4.png","75","117.60000002384186","2","0","1","2","1,0.5,0,1,0.5,0,0.5,0,1","1,0.5,0,1,0.5,0,0.5,0,1","1","false",""
"","html-keyboard-response","275","92857","0.0-320.0","339ANSOTR6OOYC5V6Y36EG4G3MHIK3","A3TH6B3RUD1MUQ","3ECKRY5B1QIH1N6NFX1ECCW5ZDKIZQ","","null","<img src=""img/food4.png"" style=""width:200px;border:14px solid red;"">","null","","","","","","","","","",""
"","image-keyboard-response","276","92864","0.0-322.0","339ANSOTR6OOYC5V6Y36EG4G3MHIK3","A3TH6B3RUD1MUQ","3ECKRY5B1QIH1N6NFX1ECCW5ZDKIZQ","","6.199999928474426","img/food1.png","74","7.100000023841858","1","1","2","2","1,0.5,0,1,0.5,0,0.5,0,1","1,0.5,0,1,0.5,0,0.5,0,1","1","false",""
"","html-keyboard-response","277","93167","0.0-323.0","339ANSOTR6OOYC5V6Y36EG4G3MHIK3","A3TH6B3RUD1MUQ","3ECKRY5B1QIH1N6NFX1ECCW5ZDKIZQ","","null","<img src=""img/food1.png"" style=""width:200px; border:14px solid green;"">","null","","","","","","","","","",""
"","image-keyboard-response","278","93184","0.0-325.0","339ANSOTR6OOYC5V6Y36EG4G3MHIK3","A3TH6B3RUD1MUQ","3ECKRY5B1QIH1N6NFX1ECCW5ZDKIZQ","","15.5","img/food4.png","74","16.59999990463257","1","1","1","2","1,0.5,0,1,0.5,0,0.5,0,1","1,0.5,0,1,0.5,0,0.5,0,1","1","false",""
"","html-keyboard-response","279","93485","0.0-326.0","339ANSOTR6OOYC5V6Y36EG4G3MHIK3","A3TH6B3RUD1MUQ","3ECKRY5B1QIH1N6NFX1ECCW5ZDKIZQ","","null","<img src=""img/food4.png"" style=""width:200px; border:14px solid green;"">","null","","","","","","","","","",""
"","image-keyboard-response","280","93534","0.0-328.0","339ANSOTR6OOYC5V6Y36EG4G3MHIK3","A3TH6B3RUD1MUQ","3ECKRY5B1QIH1N6NFX1ECCW5ZDKIZQ","","47.10000002384186","img/food1.png","74","48.200000047683716","1","1","2","2","1,0.5,0,1,0.5,0,0.5,0,1","1,0.5,0,1,0.5,0,0.5,0,1","1","false",""
"","html-keyboard-response","281","93837","0.0-329.0","339ANSOTR6OOYC5V6Y36EG4G3MHIK3","A3TH6B3RUD1MUQ","3ECKRY5B1QIH1N6NFX1ECCW5ZDKIZQ","","null","<img src=""img/food1.png"" style=""width:200px; border:14px solid green;"">","null","","","","","","","","","",""
"","image-keyboard-response","282","93914","0.0-331.0","339ANSOTR6OOYC5V6Y36EG4G3MHIK3","A3TH6B3RUD1MUQ","3ECKRY5B1QIH1N6NFX1ECCW5ZDKIZQ","","75.70000004768372","img/food3.png","76","76.70000004768372","3","1","3","2","1,0.5,0,1,0.5,0,0.5,0,1","1,0.5,0,1,0.5,0,0.5,0,1","1","false",""
"","html-keyboard-response","283","94217","0.0-332.0","339ANSOTR6OOYC5V6Y36EG4G3MHIK3","A3TH6B3RUD1MUQ","3ECKRY5B1QIH1N6NFX1ECCW5ZDKIZQ","","null","<img src=""img/food3.png"" style=""width:200px; border:14px solid green;"">","null","","","","","","","","","",""
"","image-keyboard-response","284","94354","0.0-334.0","339ANSOTR6OOYC5V6Y36EG4G3MHIK3","A3TH6B3RUD1MUQ","3ECKRY5B1QIH1N6NFX1ECCW5ZDKIZQ","","135.39999997615814","img/food3.png","76","136.39999997615814","3","1","3","2","1,0.5,0,1,0.5,0,0.5,0,1","1,0.5,0,1,0.5,0,0.5,0,1","1","false",""
"","html-keyboard-response","285","94657","0.0-335.0","339ANSOTR6OOYC5V6Y36EG4G3MHIK3","A3TH6B3RUD1MUQ","3ECKRY5B1QIH1N6NFX1ECCW5ZDKIZQ","","null","<img src=""img/food3.png"" style=""width:200px; border:14px solid green;"">","null","","","","","","","","","",""
"","image-keyboard-response","286","94683","0.0-337.0","339ANSOTR6OOYC5V6Y36EG4G3MHIK3","A3TH6B3RUD1MUQ","3ECKRY5B1QIH1N6NFX1ECCW5ZDKIZQ","","25","img/food4.png","75","26.09999990463257","2","0","1","2","1,0.5,0,1,0.5,0,0.5,0,1","1,0.5,0,1,0.5,0,0.5,0,1","1","false",""
"","html-keyboard-response","287","94985","0.0-338.0","339ANSOTR6OOYC5V6Y36EG4G3MHIK3","A3TH6B3RUD1MUQ","3ECKRY5B1QIH1N6NFX1ECCW5ZDKIZQ","","null","<img src=""img/food4.png"" style=""width:200px;border:14px solid red;"">","null","","","","","","","","","",""
"","image-keyboard-response","288","95024","0.0-340.0","339ANSOTR6OOYC5V6Y36EG4G3MHIK3","A3TH6B3RUD1MUQ","3ECKRY5B1QIH1N6NFX1ECCW5ZDKIZQ","","36.89999997615814","img/food1.png","76","37.89999997615814","3","0","2","2","1,0.5,0,1,0.5,0,0.5,0,1","1,0.5,0,1,0.5,0,0.5,0,1","1","false",""
"","html-keyboard-response","289","95327","0.0-341.0","339ANSOTR6OOYC5V6Y36EG4G3MHIK3","A3TH6B3RUD1MUQ","3ECKRY5B1QIH1N6NFX1ECCW5ZDKIZQ","","null","<img src=""img/food1.png"" style=""width:200px;border:14px solid red;"">","null","","","","","","","","","",""
"","image-keyboard-response","290","95336","0.0-343.0","339ANSOTR6OOYC5V6Y36EG4G3MHIK3","A3TH6B3RUD1MUQ","3ECKRY5B1QIH1N6NFX1ECCW5ZDKIZQ","","7.100000023841858","img/food4.png","74","8.200000047683716","1","1","1","2","1,0.5,0,1,0.5,0,0.5,0,1","1,0.5,0,1,0.5,0,0.5,0,1","1","false",""
"","html-keyboard-response","291","95638","0.0-344.0","339ANSOTR6OOYC5V6Y36EG4G3MHIK3","A3TH6B3RUD1MUQ","3ECKRY5B1QIH1N6NFX1ECCW5ZDKIZQ","","null","<img src=""img/food4.png"" style=""width:200px; border:14px solid green;"">","null","","","","","","","","","",""
"","image-keyboard-response","292","95764","0.0-346.0","339ANSOTR6OOYC5V6Y36EG4G3MHIK3","A3TH6B3RUD1MUQ","3ECKRY5B1QIH1N6NFX1ECCW5ZDKIZQ","","124.60000002384186","img/food3.png","76","125.70000004768372","3","1","3","2","1,0.5,0,1,0.5,0,0.5,0,1","1,0.5,0,1,0.5,0,0.5,0,1","1","false",""
"","html-keyboard-response","293","96066","0.0-347.0","339ANSOTR6OOYC5V6Y36EG4G3MHIK3","A3TH6B3RUD1MUQ","3ECKRY5B1QIH1N6NFX1ECCW5ZDKIZQ","","null","<img src=""img/food3.png"" style=""width:200px; border:14px solid green;"">","null","","","","","","","","","",""
"","image-keyboard-response","294","96194","0.0-349.0","339ANSOTR6OOYC5V6Y36EG4G3MHIK3","A3TH6B3RUD1MUQ","3ECKRY5B1QIH1N6NFX1ECCW5ZDKIZQ","","127.20000004768372","img/food1.png","76","128.10000002384186","3","0","2","2","1,0.5,0,1,0.5,0,0.5,0,1","1,0.5,0,1,0.5,0,0.5,0,1","1","false",""
"","html-keyboard-response","295","96497","0.0-350.0","339ANSOTR6OOYC5V6Y36EG4G3MHIK3","A3TH6B3RUD1MUQ","3ECKRY5B1QIH1N6NFX1ECCW5ZDKIZQ","","null","<img src=""img/food1.png"" style=""width:200px;border:14px solid red;"">","null","","","","","","","","","",""
"","image-keyboard-response","296","96605","0.0-352.0","339ANSOTR6OOYC5V6Y36EG4G3MHIK3","A3TH6B3RUD1MUQ","3ECKRY5B1QIH1N6NFX1ECCW5ZDKIZQ","","105.90000009536743","img/food1.png","75","107","2","0","2","2","1,0.5,0,1,0.5,0,0.5,0,1","1,0.5,0,1,0.5,0,0.5,0,1","1","false",""
"","html-keyboard-response","297","96907","0.0-353.0","339ANSOTR6OOYC5V6Y36EG4G3MHIK3","A3TH6B3RUD1MUQ","3ECKRY5B1QIH1N6NFX1ECCW5ZDKIZQ","","null","<img src=""img/food1.png"" style=""width:200px;border:14px solid red;"">","null","","","","","","","","","",""
"","image-keyboard-response","298","96919","0.0-355.0","339ANSOTR6OOYC5V6Y36EG4G3MHIK3","A3TH6B3RUD1MUQ","3ECKRY5B1QIH1N6NFX1ECCW5ZDKIZQ","","10.200000047683716","img/food1.png","75","11.100000023841858","2","0","2","2","1,0.5,0,1,0.5,0,0.5,0,1","1,0.5,0,1,0.5,0,0.5,0,1","1","false",""
"","html-keyboard-response","299","97222","0.0-356.0","339ANSOTR6OOYC5V6Y36EG4G3MHIK3","A3TH6B3RUD1MUQ","3ECKRY5B1QIH1N6NFX1ECCW5ZDKIZQ","","null","<img src=""img/food1.png"" style=""width:200px;border:14px solid red;"">","null","","","","","","","","","",""
"","image-keyboard-response","300","97414","0.0-358.0","339ANSOTR6OOYC5V6Y36EG4G3MHIK3","A3TH6B3RUD1MUQ","3ECKRY5B1QIH1N6NFX1ECCW5ZDKIZQ","","191","img/food4.png","75","192.10000002384186","2","1","1","2","1,0.5,0,1,0.5,0,0.5,0,1","1,0.5,0,1,0.5,0,0.5,0,1","1","false",""
"","html-keyboard-response","301","97717","0.0-359.0","339ANSOTR6OOYC5V6Y36EG4G3MHIK3","A3TH6B3RUD1MUQ","3ECKRY5B1QIH1N6NFX1ECCW5ZDKIZQ","","null","<img src=""img/food4.png"" style=""width:200px; border:14px solid green;"">","null","","","","","","","","","",""
"","image-keyboard-response","302","97874","0.0-361.0","339ANSOTR6OOYC5V6Y36EG4G3MHIK3","A3TH6B3RUD1MUQ","3ECKRY5B1QIH1N6NFX1ECCW5ZDKIZQ","","156.19999992847443","img/food4.png","76","157.19999992847443","3","0","1","2","1,0.5,0,1,0.5,0,0.5,0,1","1,0.5,0,1,0.5,0,0.5,0,1","1","false",""
"","html-keyboard-response","303","98178","0.0-362.0","339ANSOTR6OOYC5V6Y36EG4G3MHIK3","A3TH6B3RUD1MUQ","3ECKRY5B1QIH1N6NFX1ECCW5ZDKIZQ","","null","<img src=""img/food4.png"" style=""width:200px;border:14px solid red;"">","null","","","","","","","","","",""
"","image-keyboard-response","304","98344","0.0-364.0","339ANSOTR6OOYC5V6Y36EG4G3MHIK3","A3TH6B3RUD1MUQ","3ECKRY5B1QIH1N6NFX1ECCW5ZDKIZQ","","164","img/food3.png","75","165.10000002384186","2","0","3","2","1,0.5,0,1,0.5,0,0.5,0,1","1,0.5,0,1,0.5,0,0.5,0,1","1","false",""
"","html-keyboard-response","305","98647","0.0-365.0","339ANSOTR6OOYC5V6Y36EG4G3MHIK3","A3TH6B3RUD1MUQ","3ECKRY5B1QIH1N6NFX1ECCW5ZDKIZQ","","null","<img src=""img/food3.png"" style=""width:200px;border:14px solid red;"">","null","","","","","","","","","",""
"","image-keyboard-response","306","98834","0.0-367.0","339ANSOTR6OOYC5V6Y36EG4G3MHIK3","A3TH6B3RUD1MUQ","3ECKRY5B1QIH1N6NFX1ECCW5ZDKIZQ","","185.79999995231628","img/food3.png","76","186.79999995231628","3","1","3","2","1,0.5,0,1,0.5,0,0.5,0,1","1,0.5,0,1,0.5,0,0.5,0,1","1","false",""
"","html-keyboard-response","307","99137","0.0-368.0","339ANSOTR6OOYC5V6Y36EG4G3MHIK3","A3TH6B3RUD1MUQ","3ECKRY5B1QIH1N6NFX1ECCW5ZDKIZQ","","null","<img src=""img/food3.png"" style=""width:200px; border:14px solid green;"">","null","","","","","","","","","",""
"","image-keyboard-response","308","99234","0.0-370.0","339ANSOTR6OOYC5V6Y36EG4G3MHIK3","A3TH6B3RUD1MUQ","3ECKRY5B1QIH1N6NFX1ECCW5ZDKIZQ","","95.30000007152557","img/food4.png","76","96.5","3","0","1","2","1,0.5,0,1,0.5,0,0.5,0,1","1,0.5,0,1,0.5,0,0.5,0,1","1","false",""
"","html-keyboard-response","309","99536","0.0-371.0","339ANSOTR6OOYC5V6Y36EG4G3MHIK3","A3TH6B3RUD1MUQ","3ECKRY5B1QIH1N6NFX1ECCW5ZDKIZQ","","null","<img src=""img/food4.png"" style=""width:200px;border:14px solid red;"">","null","","","","","","","","","",""
"","image-keyboard-response","310","99634","0.0-373.0","339ANSOTR6OOYC5V6Y36EG4G3MHIK3","A3TH6B3RUD1MUQ","3ECKRY5B1QIH1N6NFX1ECCW5ZDKIZQ","","96.39999997615814","img/food4.png","75","97.39999997615814","2","0","1","2","1,0.5,0,1,0.5,0,0.5,0,1","1,0.5,0,1,0.5,0,0.5,0,1","1","false",""
"","html-keyboard-response","311","99937","0.0-374.0","339ANSOTR6OOYC5V6Y36EG4G3MHIK3","A3TH6B3RUD1MUQ","3ECKRY5B1QIH1N6NFX1ECCW5ZDKIZQ","","null","<img src=""img/food4.png"" style=""width:200px;border:14px solid red;"">","null","","","","","","","","","",""
"","image-keyboard-response","312","99984","0.0-376.0","339ANSOTR6OOYC5V6Y36EG4G3MHIK3","A3TH6B3RUD1MUQ","3ECKRY5B1QIH1N6NFX1ECCW5ZDKIZQ","","46","img/food3.png","74","46.89999997615814","1","1","3","2","1,0.5,0,1,0.5,0,0.5,0,1","1,0.5,0,1,0.5,0,0.5,0,1","1","false",""
"","html-keyboard-response","313","100286","0.0-377.0","339ANSOTR6OOYC5V6Y36EG4G3MHIK3","A3TH6B3RUD1MUQ","3ECKRY5B1QIH1N6NFX1ECCW5ZDKIZQ","","null","<img src=""img/food3.png"" style=""width:200px; border:14px solid green;"">","null","","","","","","","","","",""
"","image-keyboard-response","314","100374","0.0-379.0","339ANSOTR6OOYC5V6Y36EG4G3MHIK3","A3TH6B3RUD1MUQ","3ECKRY5B1QIH1N6NFX1ECCW5ZDKIZQ","","85.79999995231628","img/food1.png","76","87","3","0","2","2","1,0.5,0,1,0.5,0,0.5,0,1","1,0.5,0,1,0.5,0,0.5,0,1","1","false",""
"","html-keyboard-response","315","100677","0.0-380.0","339ANSOTR6OOYC5V6Y36EG4G3MHIK3","A3TH6B3RUD1MUQ","3ECKRY5B1QIH1N6NFX1ECCW5ZDKIZQ","","null","<img src=""img/food1.png"" style=""width:200px;border:14px solid red;"">","null","","","","","","","","","",""
"","image-keyboard-response","316","100734","0.0-382.0","339ANSOTR6OOYC5V6Y36EG4G3MHIK3","A3TH6B3RUD1MUQ","3ECKRY5B1QIH1N6NFX1ECCW5ZDKIZQ","","55.699999928474426","img/food1.png","75","56.799999952316284","2","1","2","2","1,0.5,0,1,0.5,0,0.5,0,1","1,0.5,0,1,0.5,0,0.5,0,1","1","false",""
"","html-keyboard-response","317","101037","0.0-383.0","339ANSOTR6OOYC5V6Y36EG4G3MHIK3","A3TH6B3RUD1MUQ","3ECKRY5B1QIH1N6NFX1ECCW5ZDKIZQ","","null","<img src=""img/food1.png"" style=""width:200px; border:14px solid green;"">","null","","","","","","","","","",""
"","image-keyboard-response","318","101114","0.0-385.0","339ANSOTR6OOYC5V6Y36EG4G3MHIK3","A3TH6B3RUD1MUQ","3ECKRY5B1QIH1N6NFX1ECCW5ZDKIZQ","","74.29999995231628","img/food3.png","76","75.5","3","1","3","2","1,0.5,0,1,0.5,0,0.5,0,1","1,0.5,0,1,0.5,0,0.5,0,1","1","false",""
"","html-keyboard-response","319","101417","0.0-386.0","339ANSOTR6OOYC5V6Y36EG4G3MHIK3","A3TH6B3RUD1MUQ","3ECKRY5B1QIH1N6NFX1ECCW5ZDKIZQ","","null","<img src=""img/food3.png"" style=""width:200px; border:14px solid green;"">","null","","","","","","","","","",""
"","image-keyboard-response","320","101524","0.0-388.0","339ANSOTR6OOYC5V6Y36EG4G3MHIK3","A3TH6B3RUD1MUQ","3ECKRY5B1QIH1N6NFX1ECCW5ZDKIZQ","","105","img/food3.png","76","106.10000002384186","3","1","3","2","1,0.5,0,1,0.5,0,0.5,0,1","1,0.5,0,1,0.5,0,0.5,0,1","1","false",""
"","html-keyboard-response","321","101826","0.0-389.0","339ANSOTR6OOYC5V6Y36EG4G3MHIK3","A3TH6B3RUD1MUQ","3ECKRY5B1QIH1N6NFX1ECCW5ZDKIZQ","","null","<img src=""img/food3.png"" style=""width:200px; border:14px solid green;"">","null","","","","","","","","","",""
"","image-keyboard-response","322","101868","0.0-391.0","339ANSOTR6OOYC5V6Y36EG4G3MHIK3","A3TH6B3RUD1MUQ","3ECKRY5B1QIH1N6NFX1ECCW5ZDKIZQ","","39.5","img/food1.png","75","40.799999952316284","2","1","2","2","1,0.5,0,1,0.5,0,0.5,0,1","1,0.5,0,1,0.5,0,0.5,0,1","1","false",""
"","html-keyboard-response","323","102170","0.0-392.0","339ANSOTR6OOYC5V6Y36EG4G3MHIK3","A3TH6B3RUD1MUQ","3ECKRY5B1QIH1N6NFX1ECCW5ZDKIZQ","","null","<img src=""img/food1.png"" style=""width:200px; border:14px solid green;"">","null","","","","","","","","","",""
"","image-keyboard-response","324","102264","0.0-394.0","339ANSOTR6OOYC5V6Y36EG4G3MHIK3","A3TH6B3RUD1MUQ","3ECKRY5B1QIH1N6NFX1ECCW5ZDKIZQ","","91.79999995231628","img/food3.png","74","93","1","0","3","2","1,0.5,0,1,0.5,0,0.5,0,1","1,0.5,0,1,0.5,0,0.5,0,1","1","false",""
"","html-keyboard-response","325","102566","0.0-395.0","339ANSOTR6OOYC5V6Y36EG4G3MHIK3","A3TH6B3RUD1MUQ","3ECKRY5B1QIH1N6NFX1ECCW5ZDKIZQ","","null","<img src=""img/food3.png"" style=""width:200px;border:14px solid red;"">","null","","","","","","","","","",""
"","image-keyboard-response","326","102663","0.0-397.0","339ANSOTR6OOYC5V6Y36EG4G3MHIK3","A3TH6B3RUD1MUQ","3ECKRY5B1QIH1N6NFX1ECCW5ZDKIZQ","","95.59999990463257","img/food4.png","74","96.79999995231628","1","1","1","2","1,0.5,0,1,0.5,0,0.5,0,1","1,0.5,0,1,0.5,0,0.5,0,1","1","false",""
"","html-keyboard-response","327","102967","0.0-398.0","339ANSOTR6OOYC5V6Y36EG4G3MHIK3","A3TH6B3RUD1MUQ","3ECKRY5B1QIH1N6NFX1ECCW5ZDKIZQ","","null","<img src=""img/food4.png"" style=""width:200px; border:14px solid green;"">","null","","","","","","","","","",""
"","image-keyboard-response","328","103034","0.0-400.0","339ANSOTR6OOYC5V6Y36EG4G3MHIK3","A3TH6B3RUD1MUQ","3ECKRY5B1QIH1N6NFX1ECCW5ZDKIZQ","","64.20000004768372","img/food4.png","75","65.80000007152557","2","1","1","2","1,0.5,0,1,0.5,0,0.5,0,1","1,0.5,0,1,0.5,0,0.5,0,1","1","false",""
"","html-keyboard-response","329","103336","0.0-401.0","339ANSOTR6OOYC5V6Y36EG4G3MHIK3","A3TH6B3RUD1MUQ","3ECKRY5B1QIH1N6NFX1ECCW5ZDKIZQ","","null","<img src=""img/food4.png"" style=""width:200px; border:14px solid green;"">","null","","","","","","","","","",""
"","image-keyboard-response","330","103414","0.0-403.0","339ANSOTR6OOYC5V6Y36EG4G3MHIK3","A3TH6B3RUD1MUQ","3ECKRY5B1QIH1N6NFX1ECCW5ZDKIZQ","","75.20000004768372","img/food1.png","76","76.60000002384186","3","0","2","2","1,0.5,0,1,0.5,0,0.5,0,1","1,0.5,0,1,0.5,0,0.5,0,1","1","false",""
"","html-keyboard-response","331","103716","0.0-404.0","339ANSOTR6OOYC5V6Y36EG4G3MHIK3","A3TH6B3RUD1MUQ","3ECKRY5B1QIH1N6NFX1ECCW5ZDKIZQ","","null","<img src=""img/food1.png"" style=""width:200px;border:14px solid red;"">","null","","","","","","","","","",""
"","image-keyboard-response","332","103748","0.0-406.0","339ANSOTR6OOYC5V6Y36EG4G3MHIK3","A3TH6B3RUD1MUQ","3ECKRY5B1QIH1N6NFX1ECCW5ZDKIZQ","","30.199999928474426","img/food3.png","75","31.5","2","0","3","2","1,0.5,0,1,0.5,0,0.5,0,1","1,0.5,0,1,0.5,0,0.5,0,1","1","false",""
"","html-keyboard-response","333","104051","0.0-407.0","339ANSOTR6OOYC5V6Y36EG4G3MHIK3","A3TH6B3RUD1MUQ","3ECKRY5B1QIH1N6NFX1ECCW5ZDKIZQ","","null","<img src=""img/food3.png"" style=""width:200px;border:14px solid red;"">","null","","","","","","","","","",""
"","image-keyboard-response","334","104124","0.0-409.0","339ANSOTR6OOYC5V6Y36EG4G3MHIK3","A3TH6B3RUD1MUQ","3ECKRY5B1QIH1N6NFX1ECCW5ZDKIZQ","","71.60000002384186","img/food3.png","76","72.5","3","1","3","2","1,0.5,0,1,0.5,0,0.5,0,1","1,0.5,0,1,0.5,0,0.5,0,1","1","false",""
"","html-keyboard-response","335","104426","0.0-410.0","339ANSOTR6OOYC5V6Y36EG4G3MHIK3","A3TH6B3RUD1MUQ","3ECKRY5B1QIH1N6NFX1ECCW5ZDKIZQ","","null","<img src=""img/food3.png"" style=""width:200px; border:14px solid green;"">","null","","","","","","","","","",""
"","image-keyboard-response","336","104474","0.0-412.0","339ANSOTR6OOYC5V6Y36EG4G3MHIK3","A3TH6B3RUD1MUQ","3ECKRY5B1QIH1N6NFX1ECCW5ZDKIZQ","","46.39999997615814","img/food3.png","75","47.299999952316284","2","0","3","2","1,0.5,0,1,0.5,0,0.5,0,1","1,0.5,0,1,0.5,0,0.5,0,1","1","false",""
"","html-keyboard-response","337","104777","0.0-413.0","339ANSOTR6OOYC5V6Y36EG4G3MHIK3","A3TH6B3RUD1MUQ","3ECKRY5B1QIH1N6NFX1ECCW5ZDKIZQ","","null","<img src=""img/food3.png"" style=""width:200px;border:14px solid red;"">","null","","","","","","","","","",""
"","image-keyboard-response","338","104853","0.0-415.0","339ANSOTR6OOYC5V6Y36EG4G3MHIK3","A3TH6B3RUD1MUQ","3ECKRY5B1QIH1N6NFX1ECCW5ZDKIZQ","","74.40000009536743","img/food4.png","76","75.30000007152557","3","0","1","2","1,0.5,0,1,0.5,0,0.5,0,1","1,0.5,0,1,0.5,0,0.5,0,1","1","false",""
"","html-keyboard-response","339","105155","0.0-416.0","339ANSOTR6OOYC5V6Y36EG4G3MHIK3","A3TH6B3RUD1MUQ","3ECKRY5B1QIH1N6NFX1ECCW5ZDKIZQ","","null","<img src=""img/food4.png"" style=""width:200px;border:14px solid red;"">","null","","","","","","","","","",""
"","image-keyboard-response","340","105304","0.0-418.0","339ANSOTR6OOYC5V6Y36EG4G3MHIK3","A3TH6B3RUD1MUQ","3ECKRY5B1QIH1N6NFX1ECCW5ZDKIZQ","","147.20000004768372","img/food1.png","76","148.10000002384186","3","0","2","2","1,0.5,0,1,0.5,0,0.5,0,1","1,0.5,0,1,0.5,0,0.5,0,1","1","false",""
"","html-keyboard-response","341","105606","0.0-419.0","339ANSOTR6OOYC5V6Y36EG4G3MHIK3","A3TH6B3RUD1MUQ","3ECKRY5B1QIH1N6NFX1ECCW5ZDKIZQ","","null","<img src=""img/food1.png"" style=""width:200px;border:14px solid red;"">","null","","","","","","","","","",""
"","image-keyboard-response","342","105664","0.0-421.0","339ANSOTR6OOYC5V6Y36EG4G3MHIK3","A3TH6B3RUD1MUQ","3ECKRY5B1QIH1N6NFX1ECCW5ZDKIZQ","","56.39999997615814","img/food4.png","74","57.5","1","1","1","2","1,0.5,0,1,0.5,0,0.5,0,1","1,0.5,0,1,0.5,0,0.5,0,1","1","false",""
"","html-keyboard-response","343","105966","0.0-422.0","339ANSOTR6OOYC5V6Y36EG4G3MHIK3","A3TH6B3RUD1MUQ","3ECKRY5B1QIH1N6NFX1ECCW5ZDKIZQ","","null","<img src=""img/food4.png"" style=""width:200px; border:14px solid green;"">","null","","","","","","","","","",""
"","image-keyboard-response","344","106089","0.0-424.0","339ANSOTR6OOYC5V6Y36EG4G3MHIK3","A3TH6B3RUD1MUQ","3ECKRY5B1QIH1N6NFX1ECCW5ZDKIZQ","","120.79999995231628","img/food3.png","74","121.80000007152557","1","1","3","2","1,0.5,0,1,0.5,0,0.5,0,1","1,0.5,0,1,0.5,0,0.5,0,1","1","false",""
"","html-keyboard-response","345","106392","0.0-425.0","339ANSOTR6OOYC5V6Y36EG4G3MHIK3","A3TH6B3RUD1MUQ","3ECKRY5B1QIH1N6NFX1ECCW5ZDKIZQ","","null","<img src=""img/food3.png"" style=""width:200px; border:14px solid green;"">","null","","","","","","","","","",""
"","image-keyboard-response","346","106403","0.0-427.0","339ANSOTR6OOYC5V6Y36EG4G3MHIK3","A3TH6B3RUD1MUQ","3ECKRY5B1QIH1N6NFX1ECCW5ZDKIZQ","","9","img/food1.png","75","10.099999904632568","2","1","2","2","1,0.5,0,1,0.5,0,0.5,0,1","1,0.5,0,1,0.5,0,0.5,0,1","1","false",""
"","html-keyboard-response","347","106705","0.0-428.0","339ANSOTR6OOYC5V6Y36EG4G3MHIK3","A3TH6B3RUD1MUQ","3ECKRY5B1QIH1N6NFX1ECCW5ZDKIZQ","","null","<img src=""img/food1.png"" style=""width:200px; border:14px solid green;"">","null","","","","","","","","","",""
"","image-keyboard-response","348","106744","0.0-430.0","339ANSOTR6OOYC5V6Y36EG4G3MHIK3","A3TH6B3RUD1MUQ","3ECKRY5B1QIH1N6NFX1ECCW5ZDKIZQ","","37.60000002384186","img/food4.png","76","38.60000002384186","3","0","1","2","1,0.5,0,1,0.5,0,0.5,0,1","1,0.5,0,1,0.5,0,0.5,0,1","1","false",""
"","html-keyboard-response","349","107047","0.0-431.0","339ANSOTR6OOYC5V6Y36EG4G3MHIK3","A3TH6B3RUD1MUQ","3ECKRY5B1QIH1N6NFX1ECCW5ZDKIZQ","","null","<img src=""img/food4.png"" style=""width:200px;border:14px solid red;"">","null","","","","","","","","","",""
"","image-keyboard-response","350","107164","0.0-433.0","339ANSOTR6OOYC5V6Y36EG4G3MHIK3","A3TH6B3RUD1MUQ","3ECKRY5B1QIH1N6NFX1ECCW5ZDKIZQ","","115.5","img/food1.png","76","116.80000007152557","3","0","2","2","1,0.5,0,1,0.5,0,0.5,0,1","1,0.5,0,1,0.5,0,0.5,0,1","1","false",""
"","html-keyboard-response","351","107467","0.0-434.0","339ANSOTR6OOYC5V6Y36EG4G3MHIK3","A3TH6B3RUD1MUQ","3ECKRY5B1QIH1N6NFX1ECCW5ZDKIZQ","","null","<img src=""img/food1.png"" style=""width:200px;border:14px solid red;"">","null","","","","","","","","","",""
"","image-keyboard-response","352","107524","0.0-436.0","339ANSOTR6OOYC5V6Y36EG4G3MHIK3","A3TH6B3RUD1MUQ","3ECKRY5B1QIH1N6NFX1ECCW5ZDKIZQ","","55","img/food3.png","75","56","2","0","3","2","1,0.5,0,1,0.5,0,0.5,0,1","1,0.5,0,1,0.5,0,0.5,0,1","1","false",""
"","html-keyboard-response","353","107828","0.0-437.0","339ANSOTR6OOYC5V6Y36EG4G3MHIK3","A3TH6B3RUD1MUQ","3ECKRY5B1QIH1N6NFX1ECCW5ZDKIZQ","","null","<img src=""img/food3.png"" style=""width:200px;border:14px solid red;"">","null","","","","","","","","","",""
"","image-keyboard-response","354","107884","0.0-439.0","339ANSOTR6OOYC5V6Y36EG4G3MHIK3","A3TH6B3RUD1MUQ","3ECKRY5B1QIH1N6NFX1ECCW5ZDKIZQ","","54","img/food1.png","74","55.39999997615814","1","1","2","2","1,0.5,0,1,0.5,0,0.5,0,1","1,0.5,0,1,0.5,0,0.5,0,1","1","false",""
"","html-keyboard-response","355","108187","0.0-440.0","339ANSOTR6OOYC5V6Y36EG4G3MHIK3","A3TH6B3RUD1MUQ","3ECKRY5B1QIH1N6NFX1ECCW5ZDKIZQ","","null","<img src=""img/food1.png"" style=""width:200px; border:14px solid green;"">","null","","","","","","","","","",""
"","image-keyboard-response","356","108279","0.0-442.0","339ANSOTR6OOYC5V6Y36EG4G3MHIK3","A3TH6B3RUD1MUQ","3ECKRY5B1QIH1N6NFX1ECCW5ZDKIZQ","","90.10000002384186","img/food3.png","76","91.30000007152557","3","1","3","2","1,0.5,0,1,0.5,0,0.5,0,1","1,0.5,0,1,0.5,0,0.5,0,1","1","false",""
"","html-keyboard-response","357","108581","0.0-443.0","339ANSOTR6OOYC5V6Y36EG4G3MHIK3","A3TH6B3RUD1MUQ","3ECKRY5B1QIH1N6NFX1ECCW5ZDKIZQ","","null","<img src=""img/food3.png"" style=""width:200px; border:14px solid green;"">","null","","","","","","","","","",""
"","image-keyboard-response","358","108674","0.0-445.0","339ANSOTR6OOYC5V6Y36EG4G3MHIK3","A3TH6B3RUD1MUQ","3ECKRY5B1QIH1N6NFX1ECCW5ZDKIZQ","","91.60000002384186","img/food4.png","75","92.70000004768372","2","0","1","2","1,0.5,0,1,0.5,0,0.5,0,1","1,0.5,0,1,0.5,0,0.5,0,1","1","false",""
"","html-keyboard-response","359","108977","0.0-446.0","339ANSOTR6OOYC5V6Y36EG4G3MHIK3","A3TH6B3RUD1MUQ","3ECKRY5B1QIH1N6NFX1ECCW5ZDKIZQ","","null","<img src=""img/food4.png"" style=""width:200px;border:14px solid red;"">","null","","","","","","","","","",""
"","image-keyboard-response","360","108987","0.0-448.0","339ANSOTR6OOYC5V6Y36EG4G3MHIK3","A3TH6B3RUD1MUQ","3ECKRY5B1QIH1N6NFX1ECCW5ZDKIZQ","","8","img/food4.png","74","9","1","1","1","2","1,0.5,0,1,0.5,0,0.5,0,1","1,0.5,0,1,0.5,0,0.5,0,1","1","false",""
"","html-keyboard-response","361","109289","0.0-449.0","339ANSOTR6OOYC5V6Y36EG4G3MHIK3","A3TH6B3RUD1MUQ","3ECKRY5B1QIH1N6NFX1ECCW5ZDKIZQ","","null","<img src=""img/food4.png"" style=""width:200px; border:14px solid green;"">","null","","","","","","","","","",""
"","image-keyboard-response","362","109335","0.0-451.0","339ANSOTR6OOYC5V6Y36EG4G3MHIK3","A3TH6B3RUD1MUQ","3ECKRY5B1QIH1N6NFX1ECCW5ZDKIZQ","","44.10000002384186","img/food1.png","75","45.39999997615814","2","1","2","2","1,0.5,0,1,0.5,0,0.5,0,1","1,0.5,0,1,0.5,0,0.5,0,1","1","false",""
"","html-keyboard-response","363","109638","0.0-452.0","339ANSOTR6OOYC5V6Y36EG4G3MHIK3","A3TH6B3RUD1MUQ","3ECKRY5B1QIH1N6NFX1ECCW5ZDKIZQ","","null","<img src=""img/food1.png"" style=""width:200px; border:14px solid green;"">","null","","","","","","","","","",""
"","instructions","364","115225","0.0-454.0","339ANSOTR6OOYC5V6Y36EG4G3MHIK3","A3TH6B3RUD1MUQ","3ECKRY5B1QIH1N6NFX1ECCW5ZDKIZQ","[{""page_index"":0,""viewing_time"":5584.799999952316}]","5585.5","","","","","","","","","","","",""
"","survey-text","365","124266","0.0-455.0","339ANSOTR6OOYC5V6Y36EG4G3MHIK3","A3TH6B3RUD1MUQ","3ECKRY5B1QIH1N6NFX1ECCW5ZDKIZQ","","9033.399999976158","","","","","","","","","","","","{""Q0"":""A3TH6B3RUD1MUQ""}"
