"success","trial_type","trial_index","time_elapsed","internal_node_id","assignmentID","mturkID","hitID","view_history","rt","stimulus","key_press","reactionTime","a","r","s","cond","reward_cond","reward_cond_actual","reward_matrix_idx","warning","responses"
"true","fullscreen","0","3175","0.0-0.0","3WJEQKOXA9O7MT0BM05BS3KYH7AA1K","A3UJ6WXBW4ZJOV","3PEG1BH7AEDCPKTV9M6N3A4F0EHKBR","","","","","","","","","","","","","",""
"","instructions","1","48760","0.0-1.0","3WJEQKOXA9O7MT0BM05BS3KYH7AA1K","A3UJ6WXBW4ZJOV","3PEG1BH7AEDCPKTV9M6N3A4F0EHKBR","[{""page_index"":0,""viewing_time"":4923.700000017881},{""page_index"":1,""viewing_time"":9336.799999982119},{""page_index"":2,""viewing_time"":8777.90000000596},{""page_index"":3,""viewing_time"":8230},{""page_index"":4,""viewing_time"":4822},{""page_index"":5,""viewing_time"":5426.0999999940395},{""page_index"":6,""viewing_time"":4066.7000000178814}]","45583.70000001788","","","","","","","","","","","",""
"","image-keyboard-response","2","50964","0.0-2.0","3WJEQKOXA9O7MT0BM05BS3KYH7AA1K","A3UJ6WXBW4ZJOV","3PEG1BH7AEDCPKTV9M6N3A4F0EHKBR","","2201.199999988079","img/food2.png","74","2203.199999988079","1","0","3","1","1,0.5,0,1,0.5,0,0.5,0,1","0.5,0,1,0.5,0,1,0,1,0.5","2","",""
"","html-keyboard-response","3","51267","0.0-3.0","3WJEQKOXA9O7MT0BM05BS3KYH7AA1K","A3UJ6WXBW4ZJOV","3PEG1BH7AEDCPKTV9M6N3A4F0EHKBR","","null","<img src=""img/food2.png"" style=""width:200px;border:14px solid red;"">","null","","","","","","","","","",""
"","image-keyboard-response","4","53050","0.0-4.0","3WJEQKOXA9O7MT0BM05BS3KYH7AA1K","A3UJ6WXBW4ZJOV","3PEG1BH7AEDCPKTV9M6N3A4F0EHKBR","","1780.9000000059605","img/food4.png","75","1782.7999999821186","2","0","2","1","1,0.5,0,1,0.5,0,0.5,0,1","0.5,0,1,0.5,0,1,0,1,0.5","2","",""
"","html-keyboard-response","5","53353","0.0-5.0","3WJEQKOXA9O7MT0BM05BS3KYH7AA1K","A3UJ6WXBW4ZJOV","3PEG1BH7AEDCPKTV9M6N3A4F0EHKBR","","null","<img src=""img/food4.png"" style=""width:200px;border:14px solid red;"">","null","","","","","","","","","",""
"","image-keyboard-response","6","53514","0.0-6.0","3WJEQKOXA9O7MT0BM05BS3KYH7AA1K","A3UJ6WXBW4ZJOV","3PEG1BH7AEDCPKTV9M6N3A4F0EHKBR","","158.7999999821186","img/food3.png","76","160.2999999821186","3","1","1","1","1,0.5,0,1,0.5,0,0.5,0,1","0.5,0,1,0.5,0,1,0,1,0.5","2","",""
"","html-keyboard-response","7","53817","0.0-7.0","3WJEQKOXA9O7MT0BM05BS3KYH7AA1K","A3UJ6WXBW4ZJOV","3PEG1BH7AEDCPKTV9M6N3A4F0EHKBR","","null","<img src=""img/food3.png"" style=""width:200px; border:14px solid green;"">","null","","","","","","","","","",""
"","image-keyboard-response","8","55355","0.0-8.0","3WJEQKOXA9O7MT0BM05BS3KYH7AA1K","A3UJ6WXBW4ZJOV","3PEG1BH7AEDCPKTV9M6N3A4F0EHKBR","","1535.800000011921","img/food4.png","76","1537.4000000059605","3","1","2","1","1,0.5,0,1,0.5,0,0.5,0,1","0.5,0,1,0.5,0,1,0,1,0.5","2","",""
"","html-keyboard-response","9","55667","0.0-9.0","3WJEQKOXA9O7MT0BM05BS3KYH7AA1K","A3UJ6WXBW4ZJOV","3PEG1BH7AEDCPKTV9M6N3A4F0EHKBR","","null","<img src=""img/food4.png"" style=""width:200px; border:14px solid green;"">","null","","","","","","","","","",""
"","image-keyboard-response","10","56235","0.0-10.0","3WJEQKOXA9O7MT0BM05BS3KYH7AA1K","A3UJ6WXBW4ZJOV","3PEG1BH7AEDCPKTV9M6N3A4F0EHKBR","","565.9000000059605","img/food3.png","76","567.9000000059605","3","1","1","1","1,0.5,0,1,0.5,0,0.5,0,1","0.5,0,1,0.5,0,1,0,1,0.5","2","",""
"","html-keyboard-response","11","56538","0.0-11.0","3WJEQKOXA9O7MT0BM05BS3KYH7AA1K","A3UJ6WXBW4ZJOV","3PEG1BH7AEDCPKTV9M6N3A4F0EHKBR","","null","<img src=""img/food3.png"" style=""width:200px; border:14px solid green;"">","null","","","","","","","","","",""
"","image-keyboard-response","12","57098","0.0-12.0","3WJEQKOXA9O7MT0BM05BS3KYH7AA1K","A3UJ6WXBW4ZJOV","3PEG1BH7AEDCPKTV9M6N3A4F0EHKBR","","558","img/food2.png","74","559.2999999821186","1","0","3","1","1,0.5,0,1,0.5,0,0.5,0,1","0.5,0,1,0.5,0,1,0,1,0.5","2","",""
"","html-keyboard-response","13","57400","0.0-13.0","3WJEQKOXA9O7MT0BM05BS3KYH7AA1K","A3UJ6WXBW4ZJOV","3PEG1BH7AEDCPKTV9M6N3A4F0EHKBR","","null","<img src=""img/food2.png"" style=""width:200px;border:14px solid red;"">","null","","","","","","","","","",""
"","image-keyboard-response","14","58978","0.0-14.0","3WJEQKOXA9O7MT0BM05BS3KYH7AA1K","A3UJ6WXBW4ZJOV","3PEG1BH7AEDCPKTV9M6N3A4F0EHKBR","","1576.0999999940395","img/food3.png","76","1577.5","3","1","1","1","1,0.5,0,1,0.5,0,0.5,0,1","0.5,0,1,0.5,0,1,0,1,0.5","2","",""
"","html-keyboard-response","15","59290","0.0-15.0","3WJEQKOXA9O7MT0BM05BS3KYH7AA1K","A3UJ6WXBW4ZJOV","3PEG1BH7AEDCPKTV9M6N3A4F0EHKBR","","null","<img src=""img/food3.png"" style=""width:200px; border:14px solid green;"">","null","","","","","","","","","",""
"","image-keyboard-response","16","59858","0.0-16.0","3WJEQKOXA9O7MT0BM05BS3KYH7AA1K","A3UJ6WXBW4ZJOV","3PEG1BH7AEDCPKTV9M6N3A4F0EHKBR","","566.0999999940395","img/food4.png","75","567.9000000059605","2","0","2","1","1,0.5,0,1,0.5,0,0.5,0,1","0.5,0,1,0.5,0,1,0,1,0.5","2","",""
"","html-keyboard-response","17","60160","0.0-17.0","3WJEQKOXA9O7MT0BM05BS3KYH7AA1K","A3UJ6WXBW4ZJOV","3PEG1BH7AEDCPKTV9M6N3A4F0EHKBR","","null","<img src=""img/food4.png"" style=""width:200px;border:14px solid red;"">","null","","","","","","","","","",""
"","image-keyboard-response","18","60890","0.0-18.0","3WJEQKOXA9O7MT0BM05BS3KYH7AA1K","A3UJ6WXBW4ZJOV","3PEG1BH7AEDCPKTV9M6N3A4F0EHKBR","","728.4000000059605","img/food3.png","75","730","2","0","1","1","1,0.5,0,1,0.5,0,0.5,0,1","0.5,0,1,0.5,0,1,0,1,0.5","2","",""
"","html-keyboard-response","19","61193","0.0-19.0","3WJEQKOXA9O7MT0BM05BS3KYH7AA1K","A3UJ6WXBW4ZJOV","3PEG1BH7AEDCPKTV9M6N3A4F0EHKBR","","null","<img src=""img/food3.png"" style=""width:200px;border:14px solid red;"">","null","","","","","","","","","",""
"","image-keyboard-response","20","61906","0.0-20.0","3WJEQKOXA9O7MT0BM05BS3KYH7AA1K","A3UJ6WXBW4ZJOV","3PEG1BH7AEDCPKTV9M6N3A4F0EHKBR","","711","img/food3.png","76","712.5","3","1","1","1","1,0.5,0,1,0.5,0,0.5,0,1","0.5,0,1,0.5,0,1,0,1,0.5","2","",""
"","html-keyboard-response","21","62208","0.0-21.0","3WJEQKOXA9O7MT0BM05BS3KYH7AA1K","A3UJ6WXBW4ZJOV","3PEG1BH7AEDCPKTV9M6N3A4F0EHKBR","","null","<img src=""img/food3.png"" style=""width:200px; border:14px solid green;"">","null","","","","","","","","","",""
"","image-keyboard-response","22","62938","0.0-22.0","3WJEQKOXA9O7MT0BM05BS3KYH7AA1K","A3UJ6WXBW4ZJOV","3PEG1BH7AEDCPKTV9M6N3A4F0EHKBR","","727.6999999880791","img/food2.png","75","729.1999999880791","2","1","3","1","1,0.5,0,1,0.5,0,0.5,0,1","0.5,0,1,0.5,0,1,0,1,0.5","2","",""
"","html-keyboard-response","23","63241","0.0-23.0","3WJEQKOXA9O7MT0BM05BS3KYH7AA1K","A3UJ6WXBW4ZJOV","3PEG1BH7AEDCPKTV9M6N3A4F0EHKBR","","null","<img src=""img/food2.png"" style=""width:200px; border:14px solid green;"">","null","","","","","","","","","",""
"","image-keyboard-response","24","64186","0.0-24.0","3WJEQKOXA9O7MT0BM05BS3KYH7AA1K","A3UJ6WXBW4ZJOV","3PEG1BH7AEDCPKTV9M6N3A4F0EHKBR","","944.1999999880791","img/food2.png","75","945.0999999940395","2","1","3","1","1,0.5,0,1,0.5,0,0.5,0,1","0.5,0,1,0.5,0,1,0,1,0.5","2","",""
"","html-keyboard-response","25","64488","0.0-25.0","3WJEQKOXA9O7MT0BM05BS3KYH7AA1K","A3UJ6WXBW4ZJOV","3PEG1BH7AEDCPKTV9M6N3A4F0EHKBR","","null","<img src=""img/food2.png"" style=""width:200px; border:14px solid green;"">","null","","","","","","","","","",""
"","image-keyboard-response","26","65130","0.0-26.0","3WJEQKOXA9O7MT0BM05BS3KYH7AA1K","A3UJ6WXBW4ZJOV","3PEG1BH7AEDCPKTV9M6N3A4F0EHKBR","","639.5999999940395","img/food2.png","75","641.5999999940395","2","1","3","1","1,0.5,0,1,0.5,0,0.5,0,1","0.5,0,1,0.5,0,1,0,1,0.5","2","",""
"","html-keyboard-response","27","65433","0.0-27.0","3WJEQKOXA9O7MT0BM05BS3KYH7AA1K","A3UJ6WXBW4ZJOV","3PEG1BH7AEDCPKTV9M6N3A4F0EHKBR","","null","<img src=""img/food2.png"" style=""width:200px; border:14px solid green;"">","null","","","","","","","","","",""
"","image-keyboard-response","28","66018","0.0-28.0","3WJEQKOXA9O7MT0BM05BS3KYH7AA1K","A3UJ6WXBW4ZJOV","3PEG1BH7AEDCPKTV9M6N3A4F0EHKBR","","583.8999999761581","img/food2.png","75","585.3000000119209","2","1","3","1","1,0.5,0,1,0.5,0,0.5,0,1","0.5,0,1,0.5,0,1,0,1,0.5","2","",""
"","html-keyboard-response","29","66321","0.0-29.0","3WJEQKOXA9O7MT0BM05BS3KYH7AA1K","A3UJ6WXBW4ZJOV","3PEG1BH7AEDCPKTV9M6N3A4F0EHKBR","","null","<img src=""img/food2.png"" style=""width:200px; border:14px solid green;"">","null","","","","","","","","","",""
"","image-keyboard-response","30","66954","0.0-30.0","3WJEQKOXA9O7MT0BM05BS3KYH7AA1K","A3UJ6WXBW4ZJOV","3PEG1BH7AEDCPKTV9M6N3A4F0EHKBR","","630.9000000059605","img/food2.png","75","632.6000000238419","2","1","3","1","1,0.5,0,1,0.5,0,0.5,0,1","0.5,0,1,0.5,0,1,0,1,0.5","2","",""
"","html-keyboard-response","31","67256","0.0-31.0","3WJEQKOXA9O7MT0BM05BS3KYH7AA1K","A3UJ6WXBW4ZJOV","3PEG1BH7AEDCPKTV9M6N3A4F0EHKBR","","null","<img src=""img/food2.png"" style=""width:200px; border:14px solid green;"">","null","","","","","","","","","",""
"","image-keyboard-response","32","67938","0.0-32.0","3WJEQKOXA9O7MT0BM05BS3KYH7AA1K","A3UJ6WXBW4ZJOV","3PEG1BH7AEDCPKTV9M6N3A4F0EHKBR","","680","img/food3.png","76","681.5999999940395","3","1","1","1","1,0.5,0,1,0.5,0,0.5,0,1","0.5,0,1,0.5,0,1,0,1,0.5","2","",""
"","html-keyboard-response","33","68240","0.0-33.0","3WJEQKOXA9O7MT0BM05BS3KYH7AA1K","A3UJ6WXBW4ZJOV","3PEG1BH7AEDCPKTV9M6N3A4F0EHKBR","","null","<img src=""img/food3.png"" style=""width:200px; border:14px solid green;"">","null","","","","","","","","","",""
"","image-keyboard-response","34","68851","0.0-34.0","3WJEQKOXA9O7MT0BM05BS3KYH7AA1K","A3UJ6WXBW4ZJOV","3PEG1BH7AEDCPKTV9M6N3A4F0EHKBR","","608.7000000178814","img/food2.png","75","610.4000000059605","2","1","3","1","1,0.5,0,1,0.5,0,0.5,0,1","0.5,0,1,0.5,0,1,0,1,0.5","2","",""
"","html-keyboard-response","35","69153","0.0-35.0","3WJEQKOXA9O7MT0BM05BS3KYH7AA1K","A3UJ6WXBW4ZJOV","3PEG1BH7AEDCPKTV9M6N3A4F0EHKBR","","null","<img src=""img/food2.png"" style=""width:200px; border:14px solid green;"">","null","","","","","","","","","",""
"","image-keyboard-response","36","69746","0.0-36.0","3WJEQKOXA9O7MT0BM05BS3KYH7AA1K","A3UJ6WXBW4ZJOV","3PEG1BH7AEDCPKTV9M6N3A4F0EHKBR","","590.2000000178814","img/food4.png","76","591.9000000059605","3","1","2","1","1,0.5,0,1,0.5,0,0.5,0,1","0.5,0,1,0.5,0,1,0,1,0.5","2","",""
"","html-keyboard-response","37","70048","0.0-37.0","3WJEQKOXA9O7MT0BM05BS3KYH7AA1K","A3UJ6WXBW4ZJOV","3PEG1BH7AEDCPKTV9M6N3A4F0EHKBR","","null","<img src=""img/food4.png"" style=""width:200px; border:14px solid green;"">","null","","","","","","","","","",""
"","image-keyboard-response","38","70730","0.0-38.0","3WJEQKOXA9O7MT0BM05BS3KYH7AA1K","A3UJ6WXBW4ZJOV","3PEG1BH7AEDCPKTV9M6N3A4F0EHKBR","","680.3000000119209","img/food3.png","75","681.9000000059605","2","0","1","1","1,0.5,0,1,0.5,0,0.5,0,1","0.5,0,1,0.5,0,1,0,1,0.5","2","",""
"","html-keyboard-response","39","71033","0.0-39.0","3WJEQKOXA9O7MT0BM05BS3KYH7AA1K","A3UJ6WXBW4ZJOV","3PEG1BH7AEDCPKTV9M6N3A4F0EHKBR","","null","<img src=""img/food3.png"" style=""width:200px;border:14px solid red;"">","null","","","","","","","","","",""
"","image-keyboard-response","40","71658","0.0-40.0","3WJEQKOXA9O7MT0BM05BS3KYH7AA1K","A3UJ6WXBW4ZJOV","3PEG1BH7AEDCPKTV9M6N3A4F0EHKBR","","623.5","img/food2.png","76","624.9000000059605","3","1","3","1","1,0.5,0,1,0.5,0,0.5,0,1","0.5,0,1,0.5,0,1,0,1,0.5","2","",""
"","html-keyboard-response","41","71962","0.0-41.0","3WJEQKOXA9O7MT0BM05BS3KYH7AA1K","A3UJ6WXBW4ZJOV","3PEG1BH7AEDCPKTV9M6N3A4F0EHKBR","","null","<img src=""img/food2.png"" style=""width:200px; border:14px solid green;"">","null","","","","","","","","","",""
"","image-keyboard-response","42","72513","0.0-42.0","3WJEQKOXA9O7MT0BM05BS3KYH7AA1K","A3UJ6WXBW4ZJOV","3PEG1BH7AEDCPKTV9M6N3A4F0EHKBR","","549.3000000119209","img/food2.png","76","550.8999999761581","3","0","3","1","1,0.5,0,1,0.5,0,0.5,0,1","0.5,0,1,0.5,0,1,0,1,0.5","2","",""
"","html-keyboard-response","43","72815","0.0-43.0","3WJEQKOXA9O7MT0BM05BS3KYH7AA1K","A3UJ6WXBW4ZJOV","3PEG1BH7AEDCPKTV9M6N3A4F0EHKBR","","null","<img src=""img/food2.png"" style=""width:200px;border:14px solid red;"">","null","","","","","","","","","",""
"","image-keyboard-response","44","73722","0.0-44.0","3WJEQKOXA9O7MT0BM05BS3KYH7AA1K","A3UJ6WXBW4ZJOV","3PEG1BH7AEDCPKTV9M6N3A4F0EHKBR","","905.6999999880791","img/food4.png","76","907.0999999940395","3","1","2","1","1,0.5,0,1,0.5,0,0.5,0,1","0.5,0,1,0.5,0,1,0,1,0.5","2","",""
"","html-keyboard-response","45","74024","0.0-45.0","3WJEQKOXA9O7MT0BM05BS3KYH7AA1K","A3UJ6WXBW4ZJOV","3PEG1BH7AEDCPKTV9M6N3A4F0EHKBR","","null","<img src=""img/food4.png"" style=""width:200px; border:14px solid green;"">","null","","","","","","","","","",""
"","image-keyboard-response","46","74770","0.0-46.0","3WJEQKOXA9O7MT0BM05BS3KYH7AA1K","A3UJ6WXBW4ZJOV","3PEG1BH7AEDCPKTV9M6N3A4F0EHKBR","","743.5999999940395","img/food3.png","75","745.4000000059605","2","0","1","1","1,0.5,0,1,0.5,0,0.5,0,1","0.5,0,1,0.5,0,1,0,1,0.5","2","",""
"","html-keyboard-response","47","75072","0.0-47.0","3WJEQKOXA9O7MT0BM05BS3KYH7AA1K","A3UJ6WXBW4ZJOV","3PEG1BH7AEDCPKTV9M6N3A4F0EHKBR","","null","<img src=""img/food3.png"" style=""width:200px;border:14px solid red;"">","null","","","","","","","","","",""
"","image-keyboard-response","48","75537","0.0-48.0","3WJEQKOXA9O7MT0BM05BS3KYH7AA1K","A3UJ6WXBW4ZJOV","3PEG1BH7AEDCPKTV9M6N3A4F0EHKBR","","463.39999997615814","img/food2.png","76","464.80000001192093","3","0","3","1","1,0.5,0,1,0.5,0,0.5,0,1","0.5,0,1,0.5,0,1,0,1,0.5","2","",""
"","html-keyboard-response","49","75840","0.0-49.0","3WJEQKOXA9O7MT0BM05BS3KYH7AA1K","A3UJ6WXBW4ZJOV","3PEG1BH7AEDCPKTV9M6N3A4F0EHKBR","","null","<img src=""img/food2.png"" style=""width:200px;border:14px solid red;"">","null","","","","","","","","","",""
"","image-keyboard-response","50","77850","0.0-50.0","3WJEQKOXA9O7MT0BM05BS3KYH7AA1K","A3UJ6WXBW4ZJOV","3PEG1BH7AEDCPKTV9M6N3A4F0EHKBR","","2008.5","img/food4.png","75","2009.699999988079","2","0","2","1","1,0.5,0,1,0.5,0,0.5,0,1","0.5,0,1,0.5,0,1,0,1,0.5","2","",""
"","html-keyboard-response","51","78153","0.0-51.0","3WJEQKOXA9O7MT0BM05BS3KYH7AA1K","A3UJ6WXBW4ZJOV","3PEG1BH7AEDCPKTV9M6N3A4F0EHKBR","","null","<img src=""img/food4.png"" style=""width:200px;border:14px solid red;"">","null","","","","","","","","","",""
"","image-keyboard-response","52","78354","0.0-52.0","3WJEQKOXA9O7MT0BM05BS3KYH7AA1K","A3UJ6WXBW4ZJOV","3PEG1BH7AEDCPKTV9M6N3A4F0EHKBR","","199.09999999403954","img/food4.png","74","200.40000000596046","1","0","2","1","1,0.5,0,1,0.5,0,0.5,0,1","0.5,0,1,0.5,0,1,0,1,0.5","2","",""
"","html-keyboard-response","53","78656","0.0-53.0","3WJEQKOXA9O7MT0BM05BS3KYH7AA1K","A3UJ6WXBW4ZJOV","3PEG1BH7AEDCPKTV9M6N3A4F0EHKBR","","null","<img src=""img/food4.png"" style=""width:200px;border:14px solid red;"">","null","","","","","","","","","",""
"","image-keyboard-response","54","79545","0.0-54.0","3WJEQKOXA9O7MT0BM05BS3KYH7AA1K","A3UJ6WXBW4ZJOV","3PEG1BH7AEDCPKTV9M6N3A4F0EHKBR","","886.8000000119209","img/food3.png","76","888.0999999940395","3","1","1","1","1,0.5,0,1,0.5,0,0.5,0,1","0.5,0,1,0.5,0,1,0,1,0.5","2","",""
"","html-keyboard-response","55","79847","0.0-55.0","3WJEQKOXA9O7MT0BM05BS3KYH7AA1K","A3UJ6WXBW4ZJOV","3PEG1BH7AEDCPKTV9M6N3A4F0EHKBR","","null","<img src=""img/food3.png"" style=""width:200px; border:14px solid green;"">","null","","","","","","","","","",""
"","image-keyboard-response","56","80624","0.0-56.0","3WJEQKOXA9O7MT0BM05BS3KYH7AA1K","A3UJ6WXBW4ZJOV","3PEG1BH7AEDCPKTV9M6N3A4F0EHKBR","","775.5","img/food4.png","76","776.6999999880791","3","1","2","1","1,0.5,0,1,0.5,0,0.5,0,1","0.5,0,1,0.5,0,1,0,1,0.5","2","",""
"","html-keyboard-response","57","80926","0.0-57.0","3WJEQKOXA9O7MT0BM05BS3KYH7AA1K","A3UJ6WXBW4ZJOV","3PEG1BH7AEDCPKTV9M6N3A4F0EHKBR","","null","<img src=""img/food4.png"" style=""width:200px; border:14px solid green;"">","null","","","","","","","","","",""
"","image-keyboard-response","58","81952","0.0-58.0","3WJEQKOXA9O7MT0BM05BS3KYH7AA1K","A3UJ6WXBW4ZJOV","3PEG1BH7AEDCPKTV9M6N3A4F0EHKBR","","1024.699999988079","img/food2.png","75","1025.800000011921","2","1","3","1","1,0.5,0,1,0.5,0,0.5,0,1","0.5,0,1,0.5,0,1,0,1,0.5","2","",""
"","html-keyboard-response","59","82255","0.0-59.0","3WJEQKOXA9O7MT0BM05BS3KYH7AA1K","A3UJ6WXBW4ZJOV","3PEG1BH7AEDCPKTV9M6N3A4F0EHKBR","","null","<img src=""img/food2.png"" style=""width:200px; border:14px solid green;"">","null","","","","","","","","","",""
"","image-keyboard-response","60","82848","0.0-60.0","3WJEQKOXA9O7MT0BM05BS3KYH7AA1K","A3UJ6WXBW4ZJOV","3PEG1BH7AEDCPKTV9M6N3A4F0EHKBR","","591.5999999940395","img/food3.png","76","593","3","1","1","1","1,0.5,0,1,0.5,0,0.5,0,1","0.5,0,1,0.5,0,1,0,1,0.5","2","",""
"","html-keyboard-response","61","83151","0.0-61.0","3WJEQKOXA9O7MT0BM05BS3KYH7AA1K","A3UJ6WXBW4ZJOV","3PEG1BH7AEDCPKTV9M6N3A4F0EHKBR","","null","<img src=""img/food3.png"" style=""width:200px; border:14px solid green;"">","null","","","","","","","","","",""
"","image-keyboard-response","62","83866","0.0-62.0","3WJEQKOXA9O7MT0BM05BS3KYH7AA1K","A3UJ6WXBW4ZJOV","3PEG1BH7AEDCPKTV9M6N3A4F0EHKBR","","713.3000000119209","img/food3.png","76","714.7000000178814","3","1","1","1","1,0.5,0,1,0.5,0,0.5,0,1","0.5,0,1,0.5,0,1,0,1,0.5","2","",""
"","html-keyboard-response","63","84169","0.0-63.0","3WJEQKOXA9O7MT0BM05BS3KYH7AA1K","A3UJ6WXBW4ZJOV","3PEG1BH7AEDCPKTV9M6N3A4F0EHKBR","","null","<img src=""img/food3.png"" style=""width:200px; border:14px solid green;"">","null","","","","","","","","","",""
"","image-keyboard-response","64","85058","0.0-64.0","3WJEQKOXA9O7MT0BM05BS3KYH7AA1K","A3UJ6WXBW4ZJOV","3PEG1BH7AEDCPKTV9M6N3A4F0EHKBR","","886.8000000119209","img/food3.png","76","888.3000000119209","3","1","1","1","1,0.5,0,1,0.5,0,0.5,0,1","0.5,0,1,0.5,0,1,0,1,0.5","2","",""
"","html-keyboard-response","65","85360","0.0-65.0","3WJEQKOXA9O7MT0BM05BS3KYH7AA1K","A3UJ6WXBW4ZJOV","3PEG1BH7AEDCPKTV9M6N3A4F0EHKBR","","null","<img src=""img/food3.png"" style=""width:200px; border:14px solid green;"">","null","","","","","","","","","",""
"","image-keyboard-response","66","86314","0.0-66.0","3WJEQKOXA9O7MT0BM05BS3KYH7AA1K","A3UJ6WXBW4ZJOV","3PEG1BH7AEDCPKTV9M6N3A4F0EHKBR","","952.1999999880791","img/food4.png","75","953.5999999940395","2","0","2","1","1,0.5,0,1,0.5,0,0.5,0,1","0.5,0,1,0.5,0,1,0,1,0.5","2","",""
"","html-keyboard-response","67","86617","0.0-67.0","3WJEQKOXA9O7MT0BM05BS3KYH7AA1K","A3UJ6WXBW4ZJOV","3PEG1BH7AEDCPKTV9M6N3A4F0EHKBR","","null","<img src=""img/food4.png"" style=""width:200px;border:14px solid red;"">","null","","","","","","","","","",""
"","image-keyboard-response","68","88323","0.0-68.0","3WJEQKOXA9O7MT0BM05BS3KYH7AA1K","A3UJ6WXBW4ZJOV","3PEG1BH7AEDCPKTV9M6N3A4F0EHKBR","","1703.7000000178814","img/food2.png","74","1705.4000000059605","1","0","3","1","1,0.5,0,1,0.5,0,0.5,0,1","0.5,0,1,0.5,0,1,0,1,0.5","2","",""
"","html-keyboard-response","69","88626","0.0-69.0","3WJEQKOXA9O7MT0BM05BS3KYH7AA1K","A3UJ6WXBW4ZJOV","3PEG1BH7AEDCPKTV9M6N3A4F0EHKBR","","null","<img src=""img/food2.png"" style=""width:200px;border:14px solid red;"">","null","","","","","","","","","",""
"","image-keyboard-response","70","89033","0.0-70.0","3WJEQKOXA9O7MT0BM05BS3KYH7AA1K","A3UJ6WXBW4ZJOV","3PEG1BH7AEDCPKTV9M6N3A4F0EHKBR","","406.09999999403954","img/food2.png","76","407.5","3","1","3","1","1,0.5,0,1,0.5,0,0.5,0,1","0.5,0,1,0.5,0,1,0,1,0.5","2","",""
"","html-keyboard-response","71","89336","0.0-71.0","3WJEQKOXA9O7MT0BM05BS3KYH7AA1K","A3UJ6WXBW4ZJOV","3PEG1BH7AEDCPKTV9M6N3A4F0EHKBR","","null","<img src=""img/food2.png"" style=""width:200px; border:14px solid green;"">","null","","","","","","","","","",""
"","image-keyboard-response","72","89825","0.0-72.0","3WJEQKOXA9O7MT0BM05BS3KYH7AA1K","A3UJ6WXBW4ZJOV","3PEG1BH7AEDCPKTV9M6N3A4F0EHKBR","","487.7999999821186","img/food3.png","76","488.90000000596046","3","1","1","1","1,0.5,0,1,0.5,0,0.5,0,1","0.5,0,1,0.5,0,1,0,1,0.5","2","",""
"","html-keyboard-response","73","90127","0.0-73.0","3WJEQKOXA9O7MT0BM05BS3KYH7AA1K","A3UJ6WXBW4ZJOV","3PEG1BH7AEDCPKTV9M6N3A4F0EHKBR","","null","<img src=""img/food3.png"" style=""width:200px; border:14px solid green;"">","null","","","","","","","","","",""
"","image-keyboard-response","74","90618","0.0-74.0","3WJEQKOXA9O7MT0BM05BS3KYH7AA1K","A3UJ6WXBW4ZJOV","3PEG1BH7AEDCPKTV9M6N3A4F0EHKBR","","489.2999999821186","img/food3.png","76","490.59999999403954","3","1","1","1","1,0.5,0,1,0.5,0,0.5,0,1","0.5,0,1,0.5,0,1,0,1,0.5","2","",""
"","html-keyboard-response","75","90921","0.0-75.0","3WJEQKOXA9O7MT0BM05BS3KYH7AA1K","A3UJ6WXBW4ZJOV","3PEG1BH7AEDCPKTV9M6N3A4F0EHKBR","","null","<img src=""img/food3.png"" style=""width:200px; border:14px solid green;"">","null","","","","","","","","","",""
"","image-keyboard-response","76","91738","0.0-76.0","3WJEQKOXA9O7MT0BM05BS3KYH7AA1K","A3UJ6WXBW4ZJOV","3PEG1BH7AEDCPKTV9M6N3A4F0EHKBR","","816.0999999940395","img/food4.png","76","817.4000000059605","3","1","2","1","1,0.5,0,1,0.5,0,0.5,0,1","0.5,0,1,0.5,0,1,0,1,0.5","2","",""
"","html-keyboard-response","77","92041","0.0-77.0","3WJEQKOXA9O7MT0BM05BS3KYH7AA1K","A3UJ6WXBW4ZJOV","3PEG1BH7AEDCPKTV9M6N3A4F0EHKBR","","null","<img src=""img/food4.png"" style=""width:200px; border:14px solid green;"">","null","","","","","","","","","",""
"","image-keyboard-response","78","92601","0.0-78.0","3WJEQKOXA9O7MT0BM05BS3KYH7AA1K","A3UJ6WXBW4ZJOV","3PEG1BH7AEDCPKTV9M6N3A4F0EHKBR","","558.5","img/food2.png","76","559.9000000059605","3","1","3","1","1,0.5,0,1,0.5,0,0.5,0,1","0.5,0,1,0.5,0,1,0,1,0.5","2","",""
"","html-keyboard-response","79","92904","0.0-79.0","3WJEQKOXA9O7MT0BM05BS3KYH7AA1K","A3UJ6WXBW4ZJOV","3PEG1BH7AEDCPKTV9M6N3A4F0EHKBR","","null","<img src=""img/food2.png"" style=""width:200px; border:14px solid green;"">","null","","","","","","","","","",""
"","image-keyboard-response","80","93649","0.0-80.0","3WJEQKOXA9O7MT0BM05BS3KYH7AA1K","A3UJ6WXBW4ZJOV","3PEG1BH7AEDCPKTV9M6N3A4F0EHKBR","","743.6999999880791","img/food2.png","76","745","3","1","3","1","1,0.5,0,1,0.5,0,0.5,0,1","0.5,0,1,0.5,0,1,0,1,0.5","2","",""
"","html-keyboard-response","81","93952","0.0-81.0","3WJEQKOXA9O7MT0BM05BS3KYH7AA1K","A3UJ6WXBW4ZJOV","3PEG1BH7AEDCPKTV9M6N3A4F0EHKBR","","null","<img src=""img/food2.png"" style=""width:200px; border:14px solid green;"">","null","","","","","","","","","",""
"","image-keyboard-response","82","94609","0.0-82.0","3WJEQKOXA9O7MT0BM05BS3KYH7AA1K","A3UJ6WXBW4ZJOV","3PEG1BH7AEDCPKTV9M6N3A4F0EHKBR","","655.7999999821186","img/food2.png","76","656.9000000059605","3","0","3","1","1,0.5,0,1,0.5,0,0.5,0,1","0.5,0,1,0.5,0,1,0,1,0.5","2","",""
"","html-keyboard-response","83","94912","0.0-83.0","3WJEQKOXA9O7MT0BM05BS3KYH7AA1K","A3UJ6WXBW4ZJOV","3PEG1BH7AEDCPKTV9M6N3A4F0EHKBR","","null","<img src=""img/food2.png"" style=""width:200px;border:14px solid red;"">","null","","","","","","","","","",""
"","image-keyboard-response","84","95817","0.0-84.0","3WJEQKOXA9O7MT0BM05BS3KYH7AA1K","A3UJ6WXBW4ZJOV","3PEG1BH7AEDCPKTV9M6N3A4F0EHKBR","","903.8999999761581","img/food2.png","75","905","2","1","3","1","1,0.5,0,1,0.5,0,0.5,0,1","0.5,0,1,0.5,0,1,0,1,0.5","2","",""
"","html-keyboard-response","85","96120","0.0-85.0","3WJEQKOXA9O7MT0BM05BS3KYH7AA1K","A3UJ6WXBW4ZJOV","3PEG1BH7AEDCPKTV9M6N3A4F0EHKBR","","null","<img src=""img/food2.png"" style=""width:200px; border:14px solid green;"">","null","","","","","","","","","",""
"","image-keyboard-response","86","96986","0.0-86.0","3WJEQKOXA9O7MT0BM05BS3KYH7AA1K","A3UJ6WXBW4ZJOV","3PEG1BH7AEDCPKTV9M6N3A4F0EHKBR","","863.7000000178814","img/food3.png","76","865.4000000059605","3","1","1","1","1,0.5,0,1,0.5,0,0.5,0,1","0.5,0,1,0.5,0,1,0,1,0.5","2","",""
"","html-keyboard-response","87","97292","0.0-87.0","3WJEQKOXA9O7MT0BM05BS3KYH7AA1K","A3UJ6WXBW4ZJOV","3PEG1BH7AEDCPKTV9M6N3A4F0EHKBR","","null","<img src=""img/food3.png"" style=""width:200px; border:14px solid green;"">","null","","","","","","","","","",""
"","image-keyboard-response","88","98347","0.0-88.0","3WJEQKOXA9O7MT0BM05BS3KYH7AA1K","A3UJ6WXBW4ZJOV","3PEG1BH7AEDCPKTV9M6N3A4F0EHKBR","","1052.6000000238419","img/food4.png","76","1054.5999999940395","3","1","2","1","1,0.5,0,1,0.5,0,0.5,0,1","0.5,0,1,0.5,0,1,0,1,0.5","2","",""
"","html-keyboard-response","89","98649","0.0-89.0","3WJEQKOXA9O7MT0BM05BS3KYH7AA1K","A3UJ6WXBW4ZJOV","3PEG1BH7AEDCPKTV9M6N3A4F0EHKBR","","null","<img src=""img/food4.png"" style=""width:200px; border:14px solid green;"">","null","","","","","","","","","",""
"","image-keyboard-response","90","99442","0.0-90.0","3WJEQKOXA9O7MT0BM05BS3KYH7AA1K","A3UJ6WXBW4ZJOV","3PEG1BH7AEDCPKTV9M6N3A4F0EHKBR","","791.2000000178814","img/food2.png","75","792.5999999940395","2","1","3","1","1,0.5,0,1,0.5,0,0.5,0,1","0.5,0,1,0.5,0,1,0,1,0.5","2","",""
"","html-keyboard-response","91","99745","0.0-91.0","3WJEQKOXA9O7MT0BM05BS3KYH7AA1K","A3UJ6WXBW4ZJOV","3PEG1BH7AEDCPKTV9M6N3A4F0EHKBR","","null","<img src=""img/food2.png"" style=""width:200px; border:14px solid green;"">","null","","","","","","","","","",""
"","image-keyboard-response","92","100562","0.0-92.0","3WJEQKOXA9O7MT0BM05BS3KYH7AA1K","A3UJ6WXBW4ZJOV","3PEG1BH7AEDCPKTV9M6N3A4F0EHKBR","","815.5","img/food3.png","76","816.9000000059605","3","1","1","1","1,0.5,0,1,0.5,0,0.5,0,1","0.5,0,1,0.5,0,1,0,1,0.5","2","",""
"","html-keyboard-response","93","100865","0.0-93.0","3WJEQKOXA9O7MT0BM05BS3KYH7AA1K","A3UJ6WXBW4ZJOV","3PEG1BH7AEDCPKTV9M6N3A4F0EHKBR","","null","<img src=""img/food3.png"" style=""width:200px; border:14px solid green;"">","null","","","","","","","","","",""
"","image-keyboard-response","94","102241","0.0-94.0","3WJEQKOXA9O7MT0BM05BS3KYH7AA1K","A3UJ6WXBW4ZJOV","3PEG1BH7AEDCPKTV9M6N3A4F0EHKBR","","1374.7000000178814","img/food4.png","75","1376","2","0","2","1","1,0.5,0,1,0.5,0,0.5,0,1","0.5,0,1,0.5,0,1,0,1,0.5","2","",""
"","html-keyboard-response","95","102544","0.0-95.0","3WJEQKOXA9O7MT0BM05BS3KYH7AA1K","A3UJ6WXBW4ZJOV","3PEG1BH7AEDCPKTV9M6N3A4F0EHKBR","","null","<img src=""img/food4.png"" style=""width:200px;border:14px solid red;"">","null","","","","","","","","","",""
"","image-keyboard-response","96","102922","0.0-96.0","3WJEQKOXA9O7MT0BM05BS3KYH7AA1K","A3UJ6WXBW4ZJOV","3PEG1BH7AEDCPKTV9M6N3A4F0EHKBR","","376.10000002384186","img/food4.png","76","377.5","3","1","2","1","1,0.5,0,1,0.5,0,0.5,0,1","0.5,0,1,0.5,0,1,0,1,0.5","2","",""
"","html-keyboard-response","97","103225","0.0-97.0","3WJEQKOXA9O7MT0BM05BS3KYH7AA1K","A3UJ6WXBW4ZJOV","3PEG1BH7AEDCPKTV9M6N3A4F0EHKBR","","null","<img src=""img/food4.png"" style=""width:200px; border:14px solid green;"">","null","","","","","","","","","",""
"","image-keyboard-response","98","104097","0.0-98.0","3WJEQKOXA9O7MT0BM05BS3KYH7AA1K","A3UJ6WXBW4ZJOV","3PEG1BH7AEDCPKTV9M6N3A4F0EHKBR","","870.8000000119209","img/food3.png","76","872.2999999821186","3","1","1","1","1,0.5,0,1,0.5,0,0.5,0,1","0.5,0,1,0.5,0,1,0,1,0.5","2","",""
"","html-keyboard-response","99","104401","0.0-99.0","3WJEQKOXA9O7MT0BM05BS3KYH7AA1K","A3UJ6WXBW4ZJOV","3PEG1BH7AEDCPKTV9M6N3A4F0EHKBR","","null","<img src=""img/food3.png"" style=""width:200px; border:14px solid green;"">","null","","","","","","","","","",""
"","image-keyboard-response","100","104994","0.0-100.0","3WJEQKOXA9O7MT0BM05BS3KYH7AA1K","A3UJ6WXBW4ZJOV","3PEG1BH7AEDCPKTV9M6N3A4F0EHKBR","","591.1999999880791","img/food3.png","76","592.7000000178814","3","1","1","1","1,0.5,0,1,0.5,0,0.5,0,1","0.5,0,1,0.5,0,1,0,1,0.5","2","",""
"","html-keyboard-response","101","105296","0.0-101.0","3WJEQKOXA9O7MT0BM05BS3KYH7AA1K","A3UJ6WXBW4ZJOV","3PEG1BH7AEDCPKTV9M6N3A4F0EHKBR","","null","<img src=""img/food3.png"" style=""width:200px; border:14px solid green;"">","null","","","","","","","","","",""
"","image-keyboard-response","102","105834","0.0-102.0","3WJEQKOXA9O7MT0BM05BS3KYH7AA1K","A3UJ6WXBW4ZJOV","3PEG1BH7AEDCPKTV9M6N3A4F0EHKBR","","535.9000000059605","img/food3.png","76","537.7999999821186","3","1","1","1","1,0.5,0,1,0.5,0,0.5,0,1","0.5,0,1,0.5,0,1,0,1,0.5","2","",""
"","html-keyboard-response","103","106136","0.0-103.0","3WJEQKOXA9O7MT0BM05BS3KYH7AA1K","A3UJ6WXBW4ZJOV","3PEG1BH7AEDCPKTV9M6N3A4F0EHKBR","","null","<img src=""img/food3.png"" style=""width:200px; border:14px solid green;"">","null","","","","","","","","","",""
"","image-keyboard-response","104","106577","0.0-104.0","3WJEQKOXA9O7MT0BM05BS3KYH7AA1K","A3UJ6WXBW4ZJOV","3PEG1BH7AEDCPKTV9M6N3A4F0EHKBR","","439.40000000596046","img/food3.png","76","440.69999998807907","3","1","1","1","1,0.5,0,1,0.5,0,0.5,0,1","0.5,0,1,0.5,0,1,0,1,0.5","2","",""
"","html-keyboard-response","105","106880","0.0-105.0","3WJEQKOXA9O7MT0BM05BS3KYH7AA1K","A3UJ6WXBW4ZJOV","3PEG1BH7AEDCPKTV9M6N3A4F0EHKBR","","null","<img src=""img/food3.png"" style=""width:200px; border:14px solid green;"">","null","","","","","","","","","",""
"","image-keyboard-response","106","107874","0.0-106.0","3WJEQKOXA9O7MT0BM05BS3KYH7AA1K","A3UJ6WXBW4ZJOV","3PEG1BH7AEDCPKTV9M6N3A4F0EHKBR","","992.4000000059605","img/food4.png","75","993.9000000059605","2","0","2","1","1,0.5,0,1,0.5,0,0.5,0,1","0.5,0,1,0.5,0,1,0,1,0.5","2","",""
"","html-keyboard-response","107","108175","0.0-107.0","3WJEQKOXA9O7MT0BM05BS3KYH7AA1K","A3UJ6WXBW4ZJOV","3PEG1BH7AEDCPKTV9M6N3A4F0EHKBR","","null","<img src=""img/food4.png"" style=""width:200px;border:14px solid red;"">","null","","","","","","","","","",""
"","image-keyboard-response","108","108266","0.0-108.0","3WJEQKOXA9O7MT0BM05BS3KYH7AA1K","A3UJ6WXBW4ZJOV","3PEG1BH7AEDCPKTV9M6N3A4F0EHKBR","","88.80000001192093","img/food4.png","76","90.5","3","1","2","1","1,0.5,0,1,0.5,0,0.5,0,1","0.5,0,1,0.5,0,1,0,1,0.5","2","",""
"","html-keyboard-response","109","108569","0.0-109.0","3WJEQKOXA9O7MT0BM05BS3KYH7AA1K","A3UJ6WXBW4ZJOV","3PEG1BH7AEDCPKTV9M6N3A4F0EHKBR","","null","<img src=""img/food4.png"" style=""width:200px; border:14px solid green;"">","null","","","","","","","","","",""
"","image-keyboard-response","110","108803","0.0-110.0","3WJEQKOXA9O7MT0BM05BS3KYH7AA1K","A3UJ6WXBW4ZJOV","3PEG1BH7AEDCPKTV9M6N3A4F0EHKBR","","231.80000001192093","img/food2.png","76","233.40000000596046","3","0","3","1","1,0.5,0,1,0.5,0,0.5,0,1","0.5,0,1,0.5,0,1,0,1,0.5","2","",""
"","html-keyboard-response","111","109106","0.0-111.0","3WJEQKOXA9O7MT0BM05BS3KYH7AA1K","A3UJ6WXBW4ZJOV","3PEG1BH7AEDCPKTV9M6N3A4F0EHKBR","","null","<img src=""img/food2.png"" style=""width:200px;border:14px solid red;"">","null","","","","","","","","","",""
"","image-keyboard-response","112","109538","0.0-112.0","3WJEQKOXA9O7MT0BM05BS3KYH7AA1K","A3UJ6WXBW4ZJOV","3PEG1BH7AEDCPKTV9M6N3A4F0EHKBR","","429.59999999403954","img/food2.png","75","431.2000000178814","2","1","3","1","1,0.5,0,1,0.5,0,0.5,0,1","0.5,0,1,0.5,0,1,0,1,0.5","2","",""
"","html-keyboard-response","113","109841","0.0-113.0","3WJEQKOXA9O7MT0BM05BS3KYH7AA1K","A3UJ6WXBW4ZJOV","3PEG1BH7AEDCPKTV9M6N3A4F0EHKBR","","null","<img src=""img/food2.png"" style=""width:200px; border:14px solid green;"">","null","","","","","","","","","",""
"","image-keyboard-response","114","110297","0.0-114.0","3WJEQKOXA9O7MT0BM05BS3KYH7AA1K","A3UJ6WXBW4ZJOV","3PEG1BH7AEDCPKTV9M6N3A4F0EHKBR","","454","img/food3.png","76","455.69999998807907","3","1","1","1","1,0.5,0,1,0.5,0,0.5,0,1","0.5,0,1,0.5,0,1,0,1,0.5","2","",""
"","html-keyboard-response","115","110600","0.0-115.0","3WJEQKOXA9O7MT0BM05BS3KYH7AA1K","A3UJ6WXBW4ZJOV","3PEG1BH7AEDCPKTV9M6N3A4F0EHKBR","","null","<img src=""img/food3.png"" style=""width:200px; border:14px solid green;"">","null","","","","","","","","","",""
"","image-keyboard-response","116","111553","0.0-116.0","3WJEQKOXA9O7MT0BM05BS3KYH7AA1K","A3UJ6WXBW4ZJOV","3PEG1BH7AEDCPKTV9M6N3A4F0EHKBR","","952.3999999761581","img/food2.png","76","953.0999999940395","3","1","3","1","1,0.5,0,1,0.5,0,0.5,0,1","0.5,0,1,0.5,0,1,0,1,0.5","2","",""
"","html-keyboard-response","117","111855","0.0-117.0","3WJEQKOXA9O7MT0BM05BS3KYH7AA1K","A3UJ6WXBW4ZJOV","3PEG1BH7AEDCPKTV9M6N3A4F0EHKBR","","null","<img src=""img/food2.png"" style=""width:200px; border:14px solid green;"">","null","","","","","","","","","",""
"","image-keyboard-response","118","112704","0.0-118.0","3WJEQKOXA9O7MT0BM05BS3KYH7AA1K","A3UJ6WXBW4ZJOV","3PEG1BH7AEDCPKTV9M6N3A4F0EHKBR","","847.2999999821186","img/food3.png","75","848.5","2","0","1","1","1,0.5,0,1,0.5,0,0.5,0,1","0.5,0,1,0.5,0,1,0,1,0.5","2","",""
"","html-keyboard-response","119","113007","0.0-119.0","3WJEQKOXA9O7MT0BM05BS3KYH7AA1K","A3UJ6WXBW4ZJOV","3PEG1BH7AEDCPKTV9M6N3A4F0EHKBR","","null","<img src=""img/food3.png"" style=""width:200px;border:14px solid red;"">","null","","","","","","","","","",""
"","image-keyboard-response","120","113313","0.0-120.0","3WJEQKOXA9O7MT0BM05BS3KYH7AA1K","A3UJ6WXBW4ZJOV","3PEG1BH7AEDCPKTV9M6N3A4F0EHKBR","","304.69999998807907","img/food3.png","76","306.09999999403954","3","1","1","1","1,0.5,0,1,0.5,0,0.5,0,1","0.5,0,1,0.5,0,1,0,1,0.5","2","",""
"","html-keyboard-response","121","113615","0.0-121.0","3WJEQKOXA9O7MT0BM05BS3KYH7AA1K","A3UJ6WXBW4ZJOV","3PEG1BH7AEDCPKTV9M6N3A4F0EHKBR","","null","<img src=""img/food3.png"" style=""width:200px; border:14px solid green;"">","null","","","","","","","","","",""
"","image-keyboard-response","122","114409","0.0-122.0","3WJEQKOXA9O7MT0BM05BS3KYH7AA1K","A3UJ6WXBW4ZJOV","3PEG1BH7AEDCPKTV9M6N3A4F0EHKBR","","792.8000000119209","img/food4.png","76","793.9000000059605","3","1","2","1","1,0.5,0,1,0.5,0,0.5,0,1","0.5,0,1,0.5,0,1,0,1,0.5","2","",""
"","html-keyboard-response","123","114712","0.0-123.0","3WJEQKOXA9O7MT0BM05BS3KYH7AA1K","A3UJ6WXBW4ZJOV","3PEG1BH7AEDCPKTV9M6N3A4F0EHKBR","","null","<img src=""img/food4.png"" style=""width:200px; border:14px solid green;"">","null","","","","","","","","","",""
"","image-keyboard-response","124","115315","0.0-124.0","3WJEQKOXA9O7MT0BM05BS3KYH7AA1K","A3UJ6WXBW4ZJOV","3PEG1BH7AEDCPKTV9M6N3A4F0EHKBR","","600.9000000059605","img/food4.png","76","602.2000000178814","3","1","2","1","1,0.5,0,1,0.5,0,0.5,0,1","0.5,0,1,0.5,0,1,0,1,0.5","2","",""
"","html-keyboard-response","125","115618","0.0-125.0","3WJEQKOXA9O7MT0BM05BS3KYH7AA1K","A3UJ6WXBW4ZJOV","3PEG1BH7AEDCPKTV9M6N3A4F0EHKBR","","null","<img src=""img/food4.png"" style=""width:200px; border:14px solid green;"">","null","","","","","","","","","",""
"","image-keyboard-response","126","116210","0.0-126.0","3WJEQKOXA9O7MT0BM05BS3KYH7AA1K","A3UJ6WXBW4ZJOV","3PEG1BH7AEDCPKTV9M6N3A4F0EHKBR","","590.7999999821186","img/food4.png","76","592.0999999940395","3","1","2","1","1,0.5,0,1,0.5,0,0.5,0,1","0.5,0,1,0.5,0,1,0,1,0.5","2","",""
"","html-keyboard-response","127","116512","0.0-127.0","3WJEQKOXA9O7MT0BM05BS3KYH7AA1K","A3UJ6WXBW4ZJOV","3PEG1BH7AEDCPKTV9M6N3A4F0EHKBR","","null","<img src=""img/food4.png"" style=""width:200px; border:14px solid green;"">","null","","","","","","","","","",""
"","image-keyboard-response","128","117001","0.0-128.0","3WJEQKOXA9O7MT0BM05BS3KYH7AA1K","A3UJ6WXBW4ZJOV","3PEG1BH7AEDCPKTV9M6N3A4F0EHKBR","","487.59999999403954","img/food4.png","76","488.7999999821186","3","1","2","1","1,0.5,0,1,0.5,0,0.5,0,1","0.5,0,1,0.5,0,1,0,1,0.5","2","",""
"","html-keyboard-response","129","117303","0.0-129.0","3WJEQKOXA9O7MT0BM05BS3KYH7AA1K","A3UJ6WXBW4ZJOV","3PEG1BH7AEDCPKTV9M6N3A4F0EHKBR","","null","<img src=""img/food4.png"" style=""width:200px; border:14px solid green;"">","null","","","","","","","","","",""
"","image-keyboard-response","130","117946","0.0-130.0","3WJEQKOXA9O7MT0BM05BS3KYH7AA1K","A3UJ6WXBW4ZJOV","3PEG1BH7AEDCPKTV9M6N3A4F0EHKBR","","641.4000000059605","img/food2.png","75","642.9000000059605","2","1","3","1","1,0.5,0,1,0.5,0,0.5,0,1","0.5,0,1,0.5,0,1,0,1,0.5","2","",""
"","html-keyboard-response","131","118248","0.0-131.0","3WJEQKOXA9O7MT0BM05BS3KYH7AA1K","A3UJ6WXBW4ZJOV","3PEG1BH7AEDCPKTV9M6N3A4F0EHKBR","","null","<img src=""img/food2.png"" style=""width:200px; border:14px solid green;"">","null","","","","","","","","","",""
"","image-keyboard-response","132","118954","0.0-132.0","3WJEQKOXA9O7MT0BM05BS3KYH7AA1K","A3UJ6WXBW4ZJOV","3PEG1BH7AEDCPKTV9M6N3A4F0EHKBR","","704.5","img/food2.png","75","705.9000000059605","2","1","3","1","1,0.5,0,1,0.5,0,0.5,0,1","0.5,0,1,0.5,0,1,0,1,0.5","2","",""
"","html-keyboard-response","133","119257","0.0-133.0","3WJEQKOXA9O7MT0BM05BS3KYH7AA1K","A3UJ6WXBW4ZJOV","3PEG1BH7AEDCPKTV9M6N3A4F0EHKBR","","null","<img src=""img/food2.png"" style=""width:200px; border:14px solid green;"">","null","","","","","","","","","",""
"","image-keyboard-response","134","120034","0.0-134.0","3WJEQKOXA9O7MT0BM05BS3KYH7AA1K","A3UJ6WXBW4ZJOV","3PEG1BH7AEDCPKTV9M6N3A4F0EHKBR","","775.2999999821186","img/food4.png","76","776.8000000119209","3","1","2","1","1,0.5,0,1,0.5,0,0.5,0,1","0.5,0,1,0.5,0,1,0,1,0.5","2","",""
"","html-keyboard-response","135","120344","0.0-135.0","3WJEQKOXA9O7MT0BM05BS3KYH7AA1K","A3UJ6WXBW4ZJOV","3PEG1BH7AEDCPKTV9M6N3A4F0EHKBR","","null","<img src=""img/food4.png"" style=""width:200px; border:14px solid green;"">","null","","","","","","","","","",""
"","image-keyboard-response","136","121050","0.0-136.0","3WJEQKOXA9O7MT0BM05BS3KYH7AA1K","A3UJ6WXBW4ZJOV","3PEG1BH7AEDCPKTV9M6N3A4F0EHKBR","","704.4000000059605","img/food4.png","76","706","3","1","2","1","1,0.5,0,1,0.5,0,0.5,0,1","0.5,0,1,0.5,0,1,0,1,0.5","2","",""
"","html-keyboard-response","137","121353","0.0-137.0","3WJEQKOXA9O7MT0BM05BS3KYH7AA1K","A3UJ6WXBW4ZJOV","3PEG1BH7AEDCPKTV9M6N3A4F0EHKBR","","null","<img src=""img/food4.png"" style=""width:200px; border:14px solid green;"">","null","","","","","","","","","",""
"","image-keyboard-response","138","122082","0.0-138.0","3WJEQKOXA9O7MT0BM05BS3KYH7AA1K","A3UJ6WXBW4ZJOV","3PEG1BH7AEDCPKTV9M6N3A4F0EHKBR","","727.1999999880791","img/food2.png","75","728.7999999821186","2","1","3","1","1,0.5,0,1,0.5,0,0.5,0,1","0.5,0,1,0.5,0,1,0,1,0.5","2","",""
"","html-keyboard-response","139","122384","0.0-139.0","3WJEQKOXA9O7MT0BM05BS3KYH7AA1K","A3UJ6WXBW4ZJOV","3PEG1BH7AEDCPKTV9M6N3A4F0EHKBR","","null","<img src=""img/food2.png"" style=""width:200px; border:14px solid green;"">","null","","","","","","","","","",""
"","image-keyboard-response","140","122770","0.0-140.0","3WJEQKOXA9O7MT0BM05BS3KYH7AA1K","A3UJ6WXBW4ZJOV","3PEG1BH7AEDCPKTV9M6N3A4F0EHKBR","","384.5","img/food3.png","76","385.90000000596046","3","1","1","1","1,0.5,0,1,0.5,0,0.5,0,1","0.5,0,1,0.5,0,1,0,1,0.5","2","",""
"","html-keyboard-response","141","123073","0.0-141.0","3WJEQKOXA9O7MT0BM05BS3KYH7AA1K","A3UJ6WXBW4ZJOV","3PEG1BH7AEDCPKTV9M6N3A4F0EHKBR","","null","<img src=""img/food3.png"" style=""width:200px; border:14px solid green;"">","null","","","","","","","","","",""
"","image-keyboard-response","142","123434","0.0-142.0","3WJEQKOXA9O7MT0BM05BS3KYH7AA1K","A3UJ6WXBW4ZJOV","3PEG1BH7AEDCPKTV9M6N3A4F0EHKBR","","359.30000001192093","img/food2.png","76","361.09999999403954","3","1","3","1","1,0.5,0,1,0.5,0,0.5,0,1","0.5,0,1,0.5,0,1,0,1,0.5","2","",""
"","html-keyboard-response","143","123737","0.0-143.0","3WJEQKOXA9O7MT0BM05BS3KYH7AA1K","A3UJ6WXBW4ZJOV","3PEG1BH7AEDCPKTV9M6N3A4F0EHKBR","","null","<img src=""img/food2.png"" style=""width:200px; border:14px solid green;"">","null","","","","","","","","","",""
"","image-keyboard-response","144","124394","0.0-144.0","3WJEQKOXA9O7MT0BM05BS3KYH7AA1K","A3UJ6WXBW4ZJOV","3PEG1BH7AEDCPKTV9M6N3A4F0EHKBR","","655.8000000119209","img/food3.png","75","657","2","0","1","1","1,0.5,0,1,0.5,0,0.5,0,1","0.5,0,1,0.5,0,1,0,1,0.5","2","",""
"","html-keyboard-response","145","124698","0.0-145.0","3WJEQKOXA9O7MT0BM05BS3KYH7AA1K","A3UJ6WXBW4ZJOV","3PEG1BH7AEDCPKTV9M6N3A4F0EHKBR","","null","<img src=""img/food3.png"" style=""width:200px;border:14px solid red;"">","null","","","","","","","","","",""
"","image-keyboard-response","146","124834","0.0-146.0","3WJEQKOXA9O7MT0BM05BS3KYH7AA1K","A3UJ6WXBW4ZJOV","3PEG1BH7AEDCPKTV9M6N3A4F0EHKBR","","133.90000000596046","img/food4.png","76","135.7000000178814","3","1","2","1","1,0.5,0,1,0.5,0,0.5,0,1","0.5,0,1,0.5,0,1,0,1,0.5","2","",""
"","html-keyboard-response","147","125136","0.0-147.0","3WJEQKOXA9O7MT0BM05BS3KYH7AA1K","A3UJ6WXBW4ZJOV","3PEG1BH7AEDCPKTV9M6N3A4F0EHKBR","","null","<img src=""img/food4.png"" style=""width:200px; border:14px solid green;"">","null","","","","","","","","","",""
"","image-keyboard-response","148","125257","0.0-148.0","3WJEQKOXA9O7MT0BM05BS3KYH7AA1K","A3UJ6WXBW4ZJOV","3PEG1BH7AEDCPKTV9M6N3A4F0EHKBR","","119.69999998807907","img/food2.png","76","121.19999998807907","3","0","3","1","1,0.5,0,1,0.5,0,0.5,0,1","0.5,0,1,0.5,0,1,0,1,0.5","2","",""
"","html-keyboard-response","149","125559","0.0-149.0","3WJEQKOXA9O7MT0BM05BS3KYH7AA1K","A3UJ6WXBW4ZJOV","3PEG1BH7AEDCPKTV9M6N3A4F0EHKBR","","null","<img src=""img/food2.png"" style=""width:200px;border:14px solid red;"">","null","","","","","","","","","",""
"","image-keyboard-response","150","125866","0.0-150.0","3WJEQKOXA9O7MT0BM05BS3KYH7AA1K","A3UJ6WXBW4ZJOV","3PEG1BH7AEDCPKTV9M6N3A4F0EHKBR","","304.7000000178814","img/food2.png","75","306.40000000596046","2","1","3","1","1,0.5,0,1,0.5,0,0.5,0,1","0.5,0,1,0.5,0,1,0,1,0.5","2","",""
"","html-keyboard-response","151","126168","0.0-151.0","3WJEQKOXA9O7MT0BM05BS3KYH7AA1K","A3UJ6WXBW4ZJOV","3PEG1BH7AEDCPKTV9M6N3A4F0EHKBR","","null","<img src=""img/food2.png"" style=""width:200px; border:14px solid green;"">","null","","","","","","","","","",""
"","image-keyboard-response","152","126586","0.0-152.0","3WJEQKOXA9O7MT0BM05BS3KYH7AA1K","A3UJ6WXBW4ZJOV","3PEG1BH7AEDCPKTV9M6N3A4F0EHKBR","","416.40000000596046","img/food4.png","76","417.09999999403954","3","1","2","1","1,0.5,0,1,0.5,0,0.5,0,1","0.5,0,1,0.5,0,1,0,1,0.5","2","",""
"","html-keyboard-response","153","126888","0.0-153.0","3WJEQKOXA9O7MT0BM05BS3KYH7AA1K","A3UJ6WXBW4ZJOV","3PEG1BH7AEDCPKTV9M6N3A4F0EHKBR","","null","<img src=""img/food4.png"" style=""width:200px; border:14px solid green;"">","null","","","","","","","","","",""
"","image-keyboard-response","154","127170","0.0-154.0","3WJEQKOXA9O7MT0BM05BS3KYH7AA1K","A3UJ6WXBW4ZJOV","3PEG1BH7AEDCPKTV9M6N3A4F0EHKBR","","280.40000000596046","img/food4.png","76","281.90000000596046","3","1","2","1","1,0.5,0,1,0.5,0,0.5,0,1","0.5,0,1,0.5,0,1,0,1,0.5","2","",""
"","html-keyboard-response","155","127472","0.0-155.0","3WJEQKOXA9O7MT0BM05BS3KYH7AA1K","A3UJ6WXBW4ZJOV","3PEG1BH7AEDCPKTV9M6N3A4F0EHKBR","","null","<img src=""img/food4.png"" style=""width:200px; border:14px solid green;"">","null","","","","","","","","","",""
"","image-keyboard-response","156","127793","0.0-156.0","3WJEQKOXA9O7MT0BM05BS3KYH7AA1K","A3UJ6WXBW4ZJOV","3PEG1BH7AEDCPKTV9M6N3A4F0EHKBR","","319.09999999403954","img/food4.png","76","320.2999999821186","3","1","2","1","1,0.5,0,1,0.5,0,0.5,0,1","0.5,0,1,0.5,0,1,0,1,0.5","2","",""
"","html-keyboard-response","157","128096","0.0-157.0","3WJEQKOXA9O7MT0BM05BS3KYH7AA1K","A3UJ6WXBW4ZJOV","3PEG1BH7AEDCPKTV9M6N3A4F0EHKBR","","null","<img src=""img/food4.png"" style=""width:200px; border:14px solid green;"">","null","","","","","","","","","",""
"","image-keyboard-response","158","128523","0.0-158.0","3WJEQKOXA9O7MT0BM05BS3KYH7AA1K","A3UJ6WXBW4ZJOV","3PEG1BH7AEDCPKTV9M6N3A4F0EHKBR","","425.09999999403954","img/food3.png","75","426.5","2","0","1","1","1,0.5,0,1,0.5,0,0.5,0,1","0.5,0,1,0.5,0,1,0,1,0.5","2","",""
"","html-keyboard-response","159","128825","0.0-159.0","3WJEQKOXA9O7MT0BM05BS3KYH7AA1K","A3UJ6WXBW4ZJOV","3PEG1BH7AEDCPKTV9M6N3A4F0EHKBR","","null","<img src=""img/food3.png"" style=""width:200px;border:14px solid red;"">","null","","","","","","","","","",""
"","image-keyboard-response","160","128961","0.0-160.0","3WJEQKOXA9O7MT0BM05BS3KYH7AA1K","A3UJ6WXBW4ZJOV","3PEG1BH7AEDCPKTV9M6N3A4F0EHKBR","","136","img/food4.png","76","136.7999999821186","3","1","2","1","1,0.5,0,1,0.5,0,0.5,0,1","0.5,0,1,0.5,0,1,0,1,0.5","2","",""
"","html-keyboard-response","161","129264","0.0-161.0","3WJEQKOXA9O7MT0BM05BS3KYH7AA1K","A3UJ6WXBW4ZJOV","3PEG1BH7AEDCPKTV9M6N3A4F0EHKBR","","null","<img src=""img/food4.png"" style=""width:200px; border:14px solid green;"">","null","","","","","","","","","",""
"","image-keyboard-response","162","129418","0.0-162.0","3WJEQKOXA9O7MT0BM05BS3KYH7AA1K","A3UJ6WXBW4ZJOV","3PEG1BH7AEDCPKTV9M6N3A4F0EHKBR","","152.80000001192093","img/food3.png","76","154.2000000178814","3","1","1","1","1,0.5,0,1,0.5,0,0.5,0,1","0.5,0,1,0.5,0,1,0,1,0.5","2","",""
"","html-keyboard-response","163","129721","0.0-163.0","3WJEQKOXA9O7MT0BM05BS3KYH7AA1K","A3UJ6WXBW4ZJOV","3PEG1BH7AEDCPKTV9M6N3A4F0EHKBR","","null","<img src=""img/food3.png"" style=""width:200px; border:14px solid green;"">","null","","","","","","","","","",""
"","image-keyboard-response","164","129808","0.0-164.0","3WJEQKOXA9O7MT0BM05BS3KYH7AA1K","A3UJ6WXBW4ZJOV","3PEG1BH7AEDCPKTV9M6N3A4F0EHKBR","","84.90000000596046","img/food4.png","76","86.09999999403954","3","1","2","1","1,0.5,0,1,0.5,0,0.5,0,1","0.5,0,1,0.5,0,1,0,1,0.5","2","",""
"","html-keyboard-response","165","130109","0.0-165.0","3WJEQKOXA9O7MT0BM05BS3KYH7AA1K","A3UJ6WXBW4ZJOV","3PEG1BH7AEDCPKTV9M6N3A4F0EHKBR","","null","<img src=""img/food4.png"" style=""width:200px; border:14px solid green;"">","null","","","","","","","","","",""
"","image-keyboard-response","166","130322","0.0-166.0","3WJEQKOXA9O7MT0BM05BS3KYH7AA1K","A3UJ6WXBW4ZJOV","3PEG1BH7AEDCPKTV9M6N3A4F0EHKBR","","210.90000000596046","img/food4.png","76","212.40000000596046","3","1","2","1","1,0.5,0,1,0.5,0,0.5,0,1","0.5,0,1,0.5,0,1,0,1,0.5","2","",""
"","html-keyboard-response","167","130625","0.0-167.0","3WJEQKOXA9O7MT0BM05BS3KYH7AA1K","A3UJ6WXBW4ZJOV","3PEG1BH7AEDCPKTV9M6N3A4F0EHKBR","","null","<img src=""img/food4.png"" style=""width:200px; border:14px solid green;"">","null","","","","","","","","","",""
"","image-keyboard-response","168","130706","0.0-168.0","3WJEQKOXA9O7MT0BM05BS3KYH7AA1K","A3UJ6WXBW4ZJOV","3PEG1BH7AEDCPKTV9M6N3A4F0EHKBR","","79.30000001192093","img/food4.png","76","80.7000000178814","3","1","2","1","1,0.5,0,1,0.5,0,0.5,0,1","0.5,0,1,0.5,0,1,0,1,0.5","2","",""
"","html-keyboard-response","169","131008","0.0-169.0","3WJEQKOXA9O7MT0BM05BS3KYH7AA1K","A3UJ6WXBW4ZJOV","3PEG1BH7AEDCPKTV9M6N3A4F0EHKBR","","null","<img src=""img/food4.png"" style=""width:200px; border:14px solid green;"">","null","","","","","","","","","",""
"","image-keyboard-response","170","131082","0.0-170.0","3WJEQKOXA9O7MT0BM05BS3KYH7AA1K","A3UJ6WXBW4ZJOV","3PEG1BH7AEDCPKTV9M6N3A4F0EHKBR","","72.30000001192093","img/food2.png","76","73.59999999403954","3","0","3","1","1,0.5,0,1,0.5,0,0.5,0,1","0.5,0,1,0.5,0,1,0,1,0.5","2","",""
"","html-keyboard-response","171","131385","0.0-171.0","3WJEQKOXA9O7MT0BM05BS3KYH7AA1K","A3UJ6WXBW4ZJOV","3PEG1BH7AEDCPKTV9M6N3A4F0EHKBR","","null","<img src=""img/food2.png"" style=""width:200px;border:14px solid red;"">","null","","","","","","","","","",""
"","image-keyboard-response","172","131745","0.0-172.0","3WJEQKOXA9O7MT0BM05BS3KYH7AA1K","A3UJ6WXBW4ZJOV","3PEG1BH7AEDCPKTV9M6N3A4F0EHKBR","","358.80000001192093","img/food2.png","75","360.5","2","1","3","1","1,0.5,0,1,0.5,0,0.5,0,1","0.5,0,1,0.5,0,1,0,1,0.5","2","",""
"","html-keyboard-response","173","132048","0.0-173.0","3WJEQKOXA9O7MT0BM05BS3KYH7AA1K","A3UJ6WXBW4ZJOV","3PEG1BH7AEDCPKTV9M6N3A4F0EHKBR","","null","<img src=""img/food2.png"" style=""width:200px; border:14px solid green;"">","null","","","","","","","","","",""
"","image-keyboard-response","174","132050","0.0-174.0","3WJEQKOXA9O7MT0BM05BS3KYH7AA1K","A3UJ6WXBW4ZJOV","3PEG1BH7AEDCPKTV9M6N3A4F0EHKBR","","0.29999998211860657","img/food3.png","76","1.5","3","1","1","1","1,0.5,0,1,0.5,0,0.5,0,1","0.5,0,1,0.5,0,1,0,1,0.5","2","",""
"","html-keyboard-response","175","132352","0.0-175.0","3WJEQKOXA9O7MT0BM05BS3KYH7AA1K","A3UJ6WXBW4ZJOV","3PEG1BH7AEDCPKTV9M6N3A4F0EHKBR","","null","<img src=""img/food3.png"" style=""width:200px; border:14px solid green;"">","null","","","","","","","","","",""
"","image-keyboard-response","176","132410","0.0-176.0","3WJEQKOXA9O7MT0BM05BS3KYH7AA1K","A3UJ6WXBW4ZJOV","3PEG1BH7AEDCPKTV9M6N3A4F0EHKBR","","56.099999994039536","img/food4.png","76","57.80000001192093","3","1","2","1","1,0.5,0,1,0.5,0,0.5,0,1","0.5,0,1,0.5,0,1,0,1,0.5","2","",""
"","html-keyboard-response","177","132712","0.0-177.0","3WJEQKOXA9O7MT0BM05BS3KYH7AA1K","A3UJ6WXBW4ZJOV","3PEG1BH7AEDCPKTV9M6N3A4F0EHKBR","","null","<img src=""img/food4.png"" style=""width:200px; border:14px solid green;"">","null","","","","","","","","","",""
"","image-keyboard-response","178","132833","0.0-178.0","3WJEQKOXA9O7MT0BM05BS3KYH7AA1K","A3UJ6WXBW4ZJOV","3PEG1BH7AEDCPKTV9M6N3A4F0EHKBR","","118.7000000178814","img/food3.png","76","120","3","1","1","1","1,0.5,0,1,0.5,0,0.5,0,1","0.5,0,1,0.5,0,1,0,1,0.5","2","",""
"","html-keyboard-response","179","133135","0.0-179.0","3WJEQKOXA9O7MT0BM05BS3KYH7AA1K","A3UJ6WXBW4ZJOV","3PEG1BH7AEDCPKTV9M6N3A4F0EHKBR","","null","<img src=""img/food3.png"" style=""width:200px; border:14px solid green;"">","null","","","","","","","","","",""
"","image-keyboard-response","180","133210","0.0-180.0","3WJEQKOXA9O7MT0BM05BS3KYH7AA1K","A3UJ6WXBW4ZJOV","3PEG1BH7AEDCPKTV9M6N3A4F0EHKBR","","73.5","img/food3.png","76","74.80000001192093","3","1","1","1","1,0.5,0,1,0.5,0,0.5,0,1","0.5,0,1,0.5,0,1,0,1,0.5","2","",""
"","html-keyboard-response","181","133512","0.0-181.0","3WJEQKOXA9O7MT0BM05BS3KYH7AA1K","A3UJ6WXBW4ZJOV","3PEG1BH7AEDCPKTV9M6N3A4F0EHKBR","","null","<img src=""img/food3.png"" style=""width:200px; border:14px solid green;"">","null","","","","","","","","","",""
"","html-keyboard-response","182","148347","0.0-182.0","3WJEQKOXA9O7MT0BM05BS3KYH7AA1K","A3UJ6WXBW4ZJOV","3PEG1BH7AEDCPKTV9M6N3A4F0EHKBR","","","","","","","","","","","","","",""
"","instructions","183","188452","0.0-183.0","3WJEQKOXA9O7MT0BM05BS3KYH7AA1K","A3UJ6WXBW4ZJOV","3PEG1BH7AEDCPKTV9M6N3A4F0EHKBR","[{""page_index"":0,""viewing_time"":36241},{""page_index"":1,""viewing_time"":3863.7000000178814}]","40105","","","","","","","","","","","",""
"","image-keyboard-response","184","189338","0.0-184.0","3WJEQKOXA9O7MT0BM05BS3KYH7AA1K","A3UJ6WXBW4ZJOV","3PEG1BH7AEDCPKTV9M6N3A4F0EHKBR","","884.0999999940395","img/food1.png","76","885.8000000119209","3","1","1","2","1,0.5,0,1,0.5,0,0.5,0,1","0.5,0,1,0.5,0,1,0,1,0.5","2","false",""
"","html-keyboard-response","185","189641","0.0-185.0","3WJEQKOXA9O7MT0BM05BS3KYH7AA1K","A3UJ6WXBW4ZJOV","3PEG1BH7AEDCPKTV9M6N3A4F0EHKBR","","null","<img src=""img/food1.png"" style=""width:200px; border:14px solid green;"">","null","","","","","","","","","",""
"","image-keyboard-response","186","190153","0.0-187.0","3WJEQKOXA9O7MT0BM05BS3KYH7AA1K","A3UJ6WXBW4ZJOV","3PEG1BH7AEDCPKTV9M6N3A4F0EHKBR","","510","img/food1.png","76","511.40000000596046","3","1","1","2","1,0.5,0,1,0.5,0,0.5,0,1","0.5,0,1,0.5,0,1,0,1,0.5","2","false",""
"","html-keyboard-response","187","190455","0.0-188.0","3WJEQKOXA9O7MT0BM05BS3KYH7AA1K","A3UJ6WXBW4ZJOV","3PEG1BH7AEDCPKTV9M6N3A4F0EHKBR","","null","<img src=""img/food1.png"" style=""width:200px; border:14px solid green;"">","null","","","","","","","","","",""
"","image-keyboard-response","188","190921","0.0-190.0","3WJEQKOXA9O7MT0BM05BS3KYH7AA1K","A3UJ6WXBW4ZJOV","3PEG1BH7AEDCPKTV9M6N3A4F0EHKBR","","465.09999999403954","img/food6.png","75","466.19999998807907","2","1","3","2","1,0.5,0,1,0.5,0,0.5,0,1","0.5,0,1,0.5,0,1,0,1,0.5","2","false",""
"","html-keyboard-response","189","191224","0.0-191.0","3WJEQKOXA9O7MT0BM05BS3KYH7AA1K","A3UJ6WXBW4ZJOV","3PEG1BH7AEDCPKTV9M6N3A4F0EHKBR","","null","<img src=""img/food6.png"" style=""width:200px; border:14px solid green;"">","null","","","","","","","","","",""
"","image-keyboard-response","190","191592","0.0-193.0","3WJEQKOXA9O7MT0BM05BS3KYH7AA1K","A3UJ6WXBW4ZJOV","3PEG1BH7AEDCPKTV9M6N3A4F0EHKBR","","366.7999999821186","img/food1.png","76","367.59999999403954","3","1","1","2","1,0.5,0,1,0.5,0,0.5,0,1","0.5,0,1,0.5,0,1,0,1,0.5","2","false",""
"","html-keyboard-response","191","191893","0.0-194.0","3WJEQKOXA9O7MT0BM05BS3KYH7AA1K","A3UJ6WXBW4ZJOV","3PEG1BH7AEDCPKTV9M6N3A4F0EHKBR","","null","<img src=""img/food1.png"" style=""width:200px; border:14px solid green;"">","null","","","","","","","","","",""
"","image-keyboard-response","192","192354","0.0-196.0","3WJEQKOXA9O7MT0BM05BS3KYH7AA1K","A3UJ6WXBW4ZJOV","3PEG1BH7AEDCPKTV9M6N3A4F0EHKBR","","457.5","img/food5.png","75","459.39999997615814","2","0","2","2","1,0.5,0,1,0.5,0,0.5,0,1","0.5,0,1,0.5,0,1,0,1,0.5","2","false",""
"","html-keyboard-response","193","192656","0.0-197.0","3WJEQKOXA9O7MT0BM05BS3KYH7AA1K","A3UJ6WXBW4ZJOV","3PEG1BH7AEDCPKTV9M6N3A4F0EHKBR","","null","<img src=""img/food5.png"" style=""width:200px;border:14px solid red;"">","null","","","","","","","","","",""
"","image-keyboard-response","194","192777","0.0-199.0","3WJEQKOXA9O7MT0BM05BS3KYH7AA1K","A3UJ6WXBW4ZJOV","3PEG1BH7AEDCPKTV9M6N3A4F0EHKBR","","118.5","img/food1.png","74","120.40000000596046","1","1","1","2","1,0.5,0,1,0.5,0,0.5,0,1","0.5,0,1,0.5,0,1,0,1,0.5","2","false",""
"","html-keyboard-response","195","193080","0.0-200.0","3WJEQKOXA9O7MT0BM05BS3KYH7AA1K","A3UJ6WXBW4ZJOV","3PEG1BH7AEDCPKTV9M6N3A4F0EHKBR","","null","<img src=""img/food1.png"" style=""width:200px; border:14px solid green;"">","null","","","","","","","","","",""
"","image-keyboard-response","196","193250","0.0-202.0","3WJEQKOXA9O7MT0BM05BS3KYH7AA1K","A3UJ6WXBW4ZJOV","3PEG1BH7AEDCPKTV9M6N3A4F0EHKBR","","167.89999997615814","img/food5.png","76","169.60000002384186","3","1","2","2","1,0.5,0,1,0.5,0,0.5,0,1","0.5,0,1,0.5,0,1,0,1,0.5","2","false",""
"","html-keyboard-response","197","193552","0.0-203.0","3WJEQKOXA9O7MT0BM05BS3KYH7AA1K","A3UJ6WXBW4ZJOV","3PEG1BH7AEDCPKTV9M6N3A4F0EHKBR","","null","<img src=""img/food5.png"" style=""width:200px; border:14px solid green;"">","null","","","","","","","","","",""
"","image-keyboard-response","198","194034","0.0-205.0","3WJEQKOXA9O7MT0BM05BS3KYH7AA1K","A3UJ6WXBW4ZJOV","3PEG1BH7AEDCPKTV9M6N3A4F0EHKBR","","479.89999997615814","img/food1.png","75","481.5","2","0","1","2","1,0.5,0,1,0.5,0,0.5,0,1","0.5,0,1,0.5,0,1,0,1,0.5","2","false",""
"","html-keyboard-response","199","194336","0.0-206.0","3WJEQKOXA9O7MT0BM05BS3KYH7AA1K","A3UJ6WXBW4ZJOV","3PEG1BH7AEDCPKTV9M6N3A4F0EHKBR","","null","<img src=""img/food1.png"" style=""width:200px;border:14px solid red;"">","null","","","","","","","","","",""
"","image-keyboard-response","200","194473","0.0-208.0","3WJEQKOXA9O7MT0BM05BS3KYH7AA1K","A3UJ6WXBW4ZJOV","3PEG1BH7AEDCPKTV9M6N3A4F0EHKBR","","134.69999998807907","img/food6.png","76","136.19999998807907","3","1","3","2","1,0.5,0,1,0.5,0,0.5,0,1","0.5,0,1,0.5,0,1,0,1,0.5","2","false",""
"","html-keyboard-response","201","194776","0.0-209.0","3WJEQKOXA9O7MT0BM05BS3KYH7AA1K","A3UJ6WXBW4ZJOV","3PEG1BH7AEDCPKTV9M6N3A4F0EHKBR","","null","<img src=""img/food6.png"" style=""width:200px; border:14px solid green;"">","null","","","","","","","","","",""
"","image-keyboard-response","202","194842","0.0-211.0","3WJEQKOXA9O7MT0BM05BS3KYH7AA1K","A3UJ6WXBW4ZJOV","3PEG1BH7AEDCPKTV9M6N3A4F0EHKBR","","64","img/food5.png","74","65.59999999403954","1","0","2","2","1,0.5,0,1,0.5,0,0.5,0,1","0.5,0,1,0.5,0,1,0,1,0.5","2","false",""
"","html-keyboard-response","203","195144","0.0-212.0","3WJEQKOXA9O7MT0BM05BS3KYH7AA1K","A3UJ6WXBW4ZJOV","3PEG1BH7AEDCPKTV9M6N3A4F0EHKBR","","null","<img src=""img/food5.png"" style=""width:200px;border:14px solid red;"">","null","","","","","","","","","",""
"","image-keyboard-response","204","195633","0.0-214.0","3WJEQKOXA9O7MT0BM05BS3KYH7AA1K","A3UJ6WXBW4ZJOV","3PEG1BH7AEDCPKTV9M6N3A4F0EHKBR","","486.7000000178814","img/food5.png","76","488.2000000178814","3","1","2","2","1,0.5,0,1,0.5,0,0.5,0,1","0.5,0,1,0.5,0,1,0,1,0.5","2","false",""
"","html-keyboard-response","205","195936","0.0-215.0","3WJEQKOXA9O7MT0BM05BS3KYH7AA1K","A3UJ6WXBW4ZJOV","3PEG1BH7AEDCPKTV9M6N3A4F0EHKBR","","null","<img src=""img/food5.png"" style=""width:200px; border:14px solid green;"">","null","","","","","","","","","",""
"","image-keyboard-response","206","196218","0.0-217.0","3WJEQKOXA9O7MT0BM05BS3KYH7AA1K","A3UJ6WXBW4ZJOV","3PEG1BH7AEDCPKTV9M6N3A4F0EHKBR","","280.19999998807907","img/food1.png","76","281.09999999403954","3","1","1","2","1,0.5,0,1,0.5,0,0.5,0,1","0.5,0,1,0.5,0,1,0,1,0.5","2","false",""
"","html-keyboard-response","207","196521","0.0-218.0","3WJEQKOXA9O7MT0BM05BS3KYH7AA1K","A3UJ6WXBW4ZJOV","3PEG1BH7AEDCPKTV9M6N3A4F0EHKBR","","null","<img src=""img/food1.png"" style=""width:200px; border:14px solid green;"">","null","","","","","","","","","",""
"","image-keyboard-response","208","197178","0.0-220.0","3WJEQKOXA9O7MT0BM05BS3KYH7AA1K","A3UJ6WXBW4ZJOV","3PEG1BH7AEDCPKTV9M6N3A4F0EHKBR","","655.2000000178814","img/food6.png","75","656.6999999880791","2","1","3","2","1,0.5,0,1,0.5,0,0.5,0,1","0.5,0,1,0.5,0,1,0,1,0.5","2","false",""
"","html-keyboard-response","209","197481","0.0-221.0","3WJEQKOXA9O7MT0BM05BS3KYH7AA1K","A3UJ6WXBW4ZJOV","3PEG1BH7AEDCPKTV9M6N3A4F0EHKBR","","null","<img src=""img/food6.png"" style=""width:200px; border:14px solid green;"">","null","","","","","","","","","",""
"","image-keyboard-response","210","197935","0.0-223.0","3WJEQKOXA9O7MT0BM05BS3KYH7AA1K","A3UJ6WXBW4ZJOV","3PEG1BH7AEDCPKTV9M6N3A4F0EHKBR","","452.7999999821186","img/food6.png","75","453.80000001192093","2","1","3","2","1,0.5,0,1,0.5,0,0.5,0,1","0.5,0,1,0.5,0,1,0,1,0.5","2","false",""
"","html-keyboard-response","211","198236","0.0-224.0","3WJEQKOXA9O7MT0BM05BS3KYH7AA1K","A3UJ6WXBW4ZJOV","3PEG1BH7AEDCPKTV9M6N3A4F0EHKBR","","null","<img src=""img/food6.png"" style=""width:200px; border:14px solid green;"">","null","","","","","","","","","",""
"","image-keyboard-response","212","198688","0.0-226.0","3WJEQKOXA9O7MT0BM05BS3KYH7AA1K","A3UJ6WXBW4ZJOV","3PEG1BH7AEDCPKTV9M6N3A4F0EHKBR","","449.80000001192093","img/food5.png","76","450.7999999821186","3","1","2","2","1,0.5,0,1,0.5,0,0.5,0,1","0.5,0,1,0.5,0,1,0,1,0.5","2","false",""
"","html-keyboard-response","213","198989","0.0-227.0","3WJEQKOXA9O7MT0BM05BS3KYH7AA1K","A3UJ6WXBW4ZJOV","3PEG1BH7AEDCPKTV9M6N3A4F0EHKBR","","null","<img src=""img/food5.png"" style=""width:200px; border:14px solid green;"">","null","","","","","","","","","",""
"","image-keyboard-response","214","199345","0.0-229.0","3WJEQKOXA9O7MT0BM05BS3KYH7AA1K","A3UJ6WXBW4ZJOV","3PEG1BH7AEDCPKTV9M6N3A4F0EHKBR","","354.19999998807907","img/food5.png","76","355.69999998807907","3","1","2","2","1,0.5,0,1,0.5,0,0.5,0,1","0.5,0,1,0.5,0,1,0,1,0.5","2","false",""
"","html-keyboard-response","215","199647","0.0-230.0","3WJEQKOXA9O7MT0BM05BS3KYH7AA1K","A3UJ6WXBW4ZJOV","3PEG1BH7AEDCPKTV9M6N3A4F0EHKBR","","null","<img src=""img/food5.png"" style=""width:200px; border:14px solid green;"">","null","","","","","","","","","",""
"","image-keyboard-response","216","200306","0.0-232.0","3WJEQKOXA9O7MT0BM05BS3KYH7AA1K","A3UJ6WXBW4ZJOV","3PEG1BH7AEDCPKTV9M6N3A4F0EHKBR","","656.9000000059605","img/food6.png","75","658.2000000178814","2","1","3","2","1,0.5,0,1,0.5,0,0.5,0,1","0.5,0,1,0.5,0,1,0,1,0.5","2","false",""
"","html-keyboard-response","217","200609","0.0-233.0","3WJEQKOXA9O7MT0BM05BS3KYH7AA1K","A3UJ6WXBW4ZJOV","3PEG1BH7AEDCPKTV9M6N3A4F0EHKBR","","null","<img src=""img/food6.png"" style=""width:200px; border:14px solid green;"">","null","","","","","","","","","",""
"","image-keyboard-response","218","200898","0.0-235.0","3WJEQKOXA9O7MT0BM05BS3KYH7AA1K","A3UJ6WXBW4ZJOV","3PEG1BH7AEDCPKTV9M6N3A4F0EHKBR","","287.09999999403954","img/food5.png","76","288.39999997615814","3","1","2","2","1,0.5,0,1,0.5,0,0.5,0,1","0.5,0,1,0.5,0,1,0,1,0.5","2","false",""
"","html-keyboard-response","219","201201","0.0-236.0","3WJEQKOXA9O7MT0BM05BS3KYH7AA1K","A3UJ6WXBW4ZJOV","3PEG1BH7AEDCPKTV9M6N3A4F0EHKBR","","null","<img src=""img/food5.png"" style=""width:200px; border:14px solid green;"">","null","","","","","","","","","",""
"","image-keyboard-response","220","201578","0.0-238.0","3WJEQKOXA9O7MT0BM05BS3KYH7AA1K","A3UJ6WXBW4ZJOV","3PEG1BH7AEDCPKTV9M6N3A4F0EHKBR","","374.7000000178814","img/food6.png","76","376.30000001192093","3","1","3","2","1,0.5,0,1,0.5,0,0.5,0,1","0.5,0,1,0.5,0,1,0,1,0.5","2","false",""
"","html-keyboard-response","221","201880","0.0-239.0","3WJEQKOXA9O7MT0BM05BS3KYH7AA1K","A3UJ6WXBW4ZJOV","3PEG1BH7AEDCPKTV9M6N3A4F0EHKBR","","null","<img src=""img/food6.png"" style=""width:200px; border:14px solid green;"">","null","","","","","","","","","",""
"","image-keyboard-response","222","202322","0.0-241.0","3WJEQKOXA9O7MT0BM05BS3KYH7AA1K","A3UJ6WXBW4ZJOV","3PEG1BH7AEDCPKTV9M6N3A4F0EHKBR","","440","img/food1.png","76","441.30000001192093","3","1","1","2","1,0.5,0,1,0.5,0,0.5,0,1","0.5,0,1,0.5,0,1,0,1,0.5","2","false",""
"","html-keyboard-response","223","202625","0.0-242.0","3WJEQKOXA9O7MT0BM05BS3KYH7AA1K","A3UJ6WXBW4ZJOV","3PEG1BH7AEDCPKTV9M6N3A4F0EHKBR","","null","<img src=""img/food1.png"" style=""width:200px; border:14px solid green;"">","null","","","","","","","","","",""
"","image-keyboard-response","224","203370","0.0-244.0","3WJEQKOXA9O7MT0BM05BS3KYH7AA1K","A3UJ6WXBW4ZJOV","3PEG1BH7AEDCPKTV9M6N3A4F0EHKBR","","742.1999999880791","img/food5.png","76","744.0999999940395","3","1","2","2","1,0.5,0,1,0.5,0,0.5,0,1","0.5,0,1,0.5,0,1,0,1,0.5","2","false",""
"","html-keyboard-response","225","203672","0.0-245.0","3WJEQKOXA9O7MT0BM05BS3KYH7AA1K","A3UJ6WXBW4ZJOV","3PEG1BH7AEDCPKTV9M6N3A4F0EHKBR","","null","<img src=""img/food5.png"" style=""width:200px; border:14px solid green;"">","null","","","","","","","","","",""
"","image-keyboard-response","226","204223","0.0-247.0","3WJEQKOXA9O7MT0BM05BS3KYH7AA1K","A3UJ6WXBW4ZJOV","3PEG1BH7AEDCPKTV9M6N3A4F0EHKBR","","550.5","img/food1.png","75","551.2000000178814","2","0","1","2","1,0.5,0,1,0.5,0,0.5,0,1","0.5,0,1,0.5,0,1,0,1,0.5","2","false",""
"","html-keyboard-response","227","204525","0.0-248.0","3WJEQKOXA9O7MT0BM05BS3KYH7AA1K","A3UJ6WXBW4ZJOV","3PEG1BH7AEDCPKTV9M6N3A4F0EHKBR","","null","<img src=""img/food1.png"" style=""width:200px;border:14px solid red;"">","null","","","","","","","","","",""
"","image-keyboard-response","228","204679","0.0-250.0","3WJEQKOXA9O7MT0BM05BS3KYH7AA1K","A3UJ6WXBW4ZJOV","3PEG1BH7AEDCPKTV9M6N3A4F0EHKBR","","153.40000000596046","img/food5.png","76","153.90000000596046","3","1","2","2","1,0.5,0,1,0.5,0,0.5,0,1","0.5,0,1,0.5,0,1,0,1,0.5","2","false",""
"","html-keyboard-response","229","204981","0.0-251.0","3WJEQKOXA9O7MT0BM05BS3KYH7AA1K","A3UJ6WXBW4ZJOV","3PEG1BH7AEDCPKTV9M6N3A4F0EHKBR","","null","<img src=""img/food5.png"" style=""width:200px; border:14px solid green;"">","null","","","","","","","","","",""
"","image-keyboard-response","230","205327","0.0-253.0","3WJEQKOXA9O7MT0BM05BS3KYH7AA1K","A3UJ6WXBW4ZJOV","3PEG1BH7AEDCPKTV9M6N3A4F0EHKBR","","346.09999999403954","img/food6.png","76","346.5","3","1","3","2","1,0.5,0,1,0.5,0,0.5,0,1","0.5,0,1,0.5,0,1,0,1,0.5","2","false",""
"","html-keyboard-response","231","205629","0.0-254.0","3WJEQKOXA9O7MT0BM05BS3KYH7AA1K","A3UJ6WXBW4ZJOV","3PEG1BH7AEDCPKTV9M6N3A4F0EHKBR","","null","<img src=""img/food6.png"" style=""width:200px; border:14px solid green;"">","null","","","","","","","","","",""
"","image-keyboard-response","232","205943","0.0-256.0","3WJEQKOXA9O7MT0BM05BS3KYH7AA1K","A3UJ6WXBW4ZJOV","3PEG1BH7AEDCPKTV9M6N3A4F0EHKBR","","313.40000000596046","img/food6.png","76","313.90000000596046","3","1","3","2","1,0.5,0,1,0.5,0,0.5,0,1","0.5,0,1,0.5,0,1,0,1,0.5","2","false",""
"","html-keyboard-response","233","206245","0.0-257.0","3WJEQKOXA9O7MT0BM05BS3KYH7AA1K","A3UJ6WXBW4ZJOV","3PEG1BH7AEDCPKTV9M6N3A4F0EHKBR","","null","<img src=""img/food6.png"" style=""width:200px; border:14px solid green;"">","null","","","","","","","","","",""
"","image-keyboard-response","234","206799","0.0-259.0","3WJEQKOXA9O7MT0BM05BS3KYH7AA1K","A3UJ6WXBW4ZJOV","3PEG1BH7AEDCPKTV9M6N3A4F0EHKBR","","553.4000000059605","img/food1.png","74","553.9000000059605","1","0","1","2","1,0.5,0,1,0.5,0,0.5,0,1","0.5,0,1,0.5,0,1,0,1,0.5","2","false",""
"","html-keyboard-response","235","207102","0.0-260.0","3WJEQKOXA9O7MT0BM05BS3KYH7AA1K","A3UJ6WXBW4ZJOV","3PEG1BH7AEDCPKTV9M6N3A4F0EHKBR","","null","<img src=""img/food1.png"" style=""width:200px;border:14px solid red;"">","null","","","","","","","","","",""
"","image-keyboard-response","236","207207","0.0-262.0","3WJEQKOXA9O7MT0BM05BS3KYH7AA1K","A3UJ6WXBW4ZJOV","3PEG1BH7AEDCPKTV9M6N3A4F0EHKBR","","104.7000000178814","img/food6.png","75","105.19999998807907","2","1","3","2","1,0.5,0,1,0.5,0,0.5,0,1","0.5,0,1,0.5,0,1,0,1,0.5","2","false",""
"","html-keyboard-response","237","207508","0.0-263.0","3WJEQKOXA9O7MT0BM05BS3KYH7AA1K","A3UJ6WXBW4ZJOV","3PEG1BH7AEDCPKTV9M6N3A4F0EHKBR","","null","<img src=""img/food6.png"" style=""width:200px; border:14px solid green;"">","null","","","","","","","","","",""
"","image-keyboard-response","238","207951","0.0-265.0","3WJEQKOXA9O7MT0BM05BS3KYH7AA1K","A3UJ6WXBW4ZJOV","3PEG1BH7AEDCPKTV9M6N3A4F0EHKBR","","442.10000002384186","img/food6.png","75","442.40000000596046","2","1","3","2","1,0.5,0,1,0.5,0,0.5,0,1","0.5,0,1,0.5,0,1,0,1,0.5","2","false",""
"","html-keyboard-response","239","208253","0.0-266.0","3WJEQKOXA9O7MT0BM05BS3KYH7AA1K","A3UJ6WXBW4ZJOV","3PEG1BH7AEDCPKTV9M6N3A4F0EHKBR","","null","<img src=""img/food6.png"" style=""width:200px; border:14px solid green;"">","null","","","","","","","","","",""
"","image-keyboard-response","240","208583","0.0-268.0","3WJEQKOXA9O7MT0BM05BS3KYH7AA1K","A3UJ6WXBW4ZJOV","3PEG1BH7AEDCPKTV9M6N3A4F0EHKBR","","329.90000000596046","img/food6.png","75","330.40000000596046","2","1","3","2","1,0.5,0,1,0.5,0,0.5,0,1","0.5,0,1,0.5,0,1,0,1,0.5","2","false",""
"","html-keyboard-response","241","208885","0.0-269.0","3WJEQKOXA9O7MT0BM05BS3KYH7AA1K","A3UJ6WXBW4ZJOV","3PEG1BH7AEDCPKTV9M6N3A4F0EHKBR","","null","<img src=""img/food6.png"" style=""width:200px; border:14px solid green;"">","null","","","","","","","","","",""
"","image-keyboard-response","242","209015","0.0-271.0","3WJEQKOXA9O7MT0BM05BS3KYH7AA1K","A3UJ6WXBW4ZJOV","3PEG1BH7AEDCPKTV9M6N3A4F0EHKBR","","129","img/food6.png","75","129.5","2","1","3","2","1,0.5,0,1,0.5,0,0.5,0,1","0.5,0,1,0.5,0,1,0,1,0.5","2","false",""
"","html-keyboard-response","243","209317","0.0-272.0","3WJEQKOXA9O7MT0BM05BS3KYH7AA1K","A3UJ6WXBW4ZJOV","3PEG1BH7AEDCPKTV9M6N3A4F0EHKBR","","null","<img src=""img/food6.png"" style=""width:200px; border:14px solid green;"">","null","","","","","","","","","",""
"","image-keyboard-response","244","209479","0.0-274.0","3WJEQKOXA9O7MT0BM05BS3KYH7AA1K","A3UJ6WXBW4ZJOV","3PEG1BH7AEDCPKTV9M6N3A4F0EHKBR","","161.30000001192093","img/food6.png","75","161.69999998807907","2","1","3","2","1,0.5,0,1,0.5,0,0.5,0,1","0.5,0,1,0.5,0,1,0,1,0.5","2","false",""
"","html-keyboard-response","245","209781","0.0-275.0","3WJEQKOXA9O7MT0BM05BS3KYH7AA1K","A3UJ6WXBW4ZJOV","3PEG1BH7AEDCPKTV9M6N3A4F0EHKBR","","null","<img src=""img/food6.png"" style=""width:200px; border:14px solid green;"">","null","","","","","","","","","",""
"","image-keyboard-response","246","209927","0.0-277.0","3WJEQKOXA9O7MT0BM05BS3KYH7AA1K","A3UJ6WXBW4ZJOV","3PEG1BH7AEDCPKTV9M6N3A4F0EHKBR","","145.90000000596046","img/food6.png","75","146.2999999821186","2","1","3","2","1,0.5,0,1,0.5,0,0.5,0,1","0.5,0,1,0.5,0,1,0,1,0.5","2","false",""
"","html-keyboard-response","247","210229","0.0-278.0","3WJEQKOXA9O7MT0BM05BS3KYH7AA1K","A3UJ6WXBW4ZJOV","3PEG1BH7AEDCPKTV9M6N3A4F0EHKBR","","null","<img src=""img/food6.png"" style=""width:200px; border:14px solid green;"">","null","","","","","","","","","",""
"","image-keyboard-response","248","210447","0.0-280.0","3WJEQKOXA9O7MT0BM05BS3KYH7AA1K","A3UJ6WXBW4ZJOV","3PEG1BH7AEDCPKTV9M6N3A4F0EHKBR","","217.90000000596046","img/food6.png","75","218.40000000596046","2","1","3","2","1,0.5,0,1,0.5,0,0.5,0,1","0.5,0,1,0.5,0,1,0,1,0.5","2","false",""
"","html-keyboard-response","249","210749","0.0-281.0","3WJEQKOXA9O7MT0BM05BS3KYH7AA1K","A3UJ6WXBW4ZJOV","3PEG1BH7AEDCPKTV9M6N3A4F0EHKBR","","null","<img src=""img/food6.png"" style=""width:200px; border:14px solid green;"">","null","","","","","","","","","",""
"","image-keyboard-response","250","210919","0.0-283.0","3WJEQKOXA9O7MT0BM05BS3KYH7AA1K","A3UJ6WXBW4ZJOV","3PEG1BH7AEDCPKTV9M6N3A4F0EHKBR","","169.60000002384186","img/food1.png","75","170.19999998807907","2","0","1","2","1,0.5,0,1,0.5,0,0.5,0,1","0.5,0,1,0.5,0,1,0,1,0.5","2","false",""
"","html-keyboard-response","251","211221","0.0-284.0","3WJEQKOXA9O7MT0BM05BS3KYH7AA1K","A3UJ6WXBW4ZJOV","3PEG1BH7AEDCPKTV9M6N3A4F0EHKBR","","null","<img src=""img/food1.png"" style=""width:200px;border:14px solid red;"">","null","","","","","","","","","",""
"","image-keyboard-response","252","211471","0.0-286.0","3WJEQKOXA9O7MT0BM05BS3KYH7AA1K","A3UJ6WXBW4ZJOV","3PEG1BH7AEDCPKTV9M6N3A4F0EHKBR","","249.30000001192093","img/food6.png","76","249.80000001192093","3","0","3","2","1,0.5,0,1,0.5,0,0.5,0,1","0.5,0,1,0.5,0,1,0,1,0.5","2","false",""
"","html-keyboard-response","253","211773","0.0-287.0","3WJEQKOXA9O7MT0BM05BS3KYH7AA1K","A3UJ6WXBW4ZJOV","3PEG1BH7AEDCPKTV9M6N3A4F0EHKBR","","null","<img src=""img/food6.png"" style=""width:200px;border:14px solid red;"">","null","","","","","","","","","",""
"","image-keyboard-response","254","212279","0.0-289.0","3WJEQKOXA9O7MT0BM05BS3KYH7AA1K","A3UJ6WXBW4ZJOV","3PEG1BH7AEDCPKTV9M6N3A4F0EHKBR","","505.19999998807907","img/food1.png","75","505.69999998807907","2","0","1","2","1,0.5,0,1,0.5,0,0.5,0,1","0.5,0,1,0.5,0,1,0,1,0.5","2","false",""
"","html-keyboard-response","255","212581","0.0-290.0","3WJEQKOXA9O7MT0BM05BS3KYH7AA1K","A3UJ6WXBW4ZJOV","3PEG1BH7AEDCPKTV9M6N3A4F0EHKBR","","null","<img src=""img/food1.png"" style=""width:200px;border:14px solid red;"">","null","","","","","","","","","",""
"","image-keyboard-response","256","212911","0.0-292.0","3WJEQKOXA9O7MT0BM05BS3KYH7AA1K","A3UJ6WXBW4ZJOV","3PEG1BH7AEDCPKTV9M6N3A4F0EHKBR","","329.59999999403954","img/food1.png","75","330.09999999403954","2","0","1","2","1,0.5,0,1,0.5,0,0.5,0,1","0.5,0,1,0.5,0,1,0,1,0.5","2","false",""
"","html-keyboard-response","257","213213","0.0-293.0","3WJEQKOXA9O7MT0BM05BS3KYH7AA1K","A3UJ6WXBW4ZJOV","3PEG1BH7AEDCPKTV9M6N3A4F0EHKBR","","null","<img src=""img/food1.png"" style=""width:200px;border:14px solid red;"">","null","","","","","","","","","",""
"","image-keyboard-response","258","213567","0.0-295.0","3WJEQKOXA9O7MT0BM05BS3KYH7AA1K","A3UJ6WXBW4ZJOV","3PEG1BH7AEDCPKTV9M6N3A4F0EHKBR","","353.60000002384186","img/food1.png","74","354.5","1","0","1","2","1,0.5,0,1,0.5,0,0.5,0,1","0.5,0,1,0.5,0,1,0,1,0.5","2","false",""
"","html-keyboard-response","259","213870","0.0-296.0","3WJEQKOXA9O7MT0BM05BS3KYH7AA1K","A3UJ6WXBW4ZJOV","3PEG1BH7AEDCPKTV9M6N3A4F0EHKBR","","null","<img src=""img/food1.png"" style=""width:200px;border:14px solid red;"">","null","","","","","","","","","",""
"","image-keyboard-response","260","214175","0.0-298.0","3WJEQKOXA9O7MT0BM05BS3KYH7AA1K","A3UJ6WXBW4ZJOV","3PEG1BH7AEDCPKTV9M6N3A4F0EHKBR","","304.90000000596046","img/food6.png","75","305.30000001192093","2","1","3","2","1,0.5,0,1,0.5,0,0.5,0,1","0.5,0,1,0.5,0,1,0,1,0.5","2","false",""
"","html-keyboard-response","261","214477","0.0-299.0","3WJEQKOXA9O7MT0BM05BS3KYH7AA1K","A3UJ6WXBW4ZJOV","3PEG1BH7AEDCPKTV9M6N3A4F0EHKBR","","null","<img src=""img/food6.png"" style=""width:200px; border:14px solid green;"">","null","","","","","","","","","",""
"","image-keyboard-response","262","214736","0.0-301.0","3WJEQKOXA9O7MT0BM05BS3KYH7AA1K","A3UJ6WXBW4ZJOV","3PEG1BH7AEDCPKTV9M6N3A4F0EHKBR","","258.5","img/food1.png","75","258.90000000596046","2","0","1","2","1,0.5,0,1,0.5,0,0.5,0,1","0.5,0,1,0.5,0,1,0,1,0.5","2","false",""
"","html-keyboard-response","263","215040","0.0-302.0","3WJEQKOXA9O7MT0BM05BS3KYH7AA1K","A3UJ6WXBW4ZJOV","3PEG1BH7AEDCPKTV9M6N3A4F0EHKBR","","null","<img src=""img/food1.png"" style=""width:200px;border:14px solid red;"">","null","","","","","","","","","",""
"","image-keyboard-response","264","215410","0.0-304.0","3WJEQKOXA9O7MT0BM05BS3KYH7AA1K","A3UJ6WXBW4ZJOV","3PEG1BH7AEDCPKTV9M6N3A4F0EHKBR","","368.40000000596046","img/food1.png","75","369.30000001192093","2","0","1","2","1,0.5,0,1,0.5,0,0.5,0,1","0.5,0,1,0.5,0,1,0,1,0.5","2","false",""
"","html-keyboard-response","265","215712","0.0-305.0","3WJEQKOXA9O7MT0BM05BS3KYH7AA1K","A3UJ6WXBW4ZJOV","3PEG1BH7AEDCPKTV9M6N3A4F0EHKBR","","null","<img src=""img/food1.png"" style=""width:200px;border:14px solid red;"">","null","","","","","","","","","",""
"","image-keyboard-response","266","215904","0.0-307.0","3WJEQKOXA9O7MT0BM05BS3KYH7AA1K","A3UJ6WXBW4ZJOV","3PEG1BH7AEDCPKTV9M6N3A4F0EHKBR","","190.30000001192093","img/food5.png","76","191.90000000596046","3","1","2","2","1,0.5,0,1,0.5,0,0.5,0,1","0.5,0,1,0.5,0,1,0,1,0.5","2","false",""
"","html-keyboard-response","267","216206","0.0-308.0","3WJEQKOXA9O7MT0BM05BS3KYH7AA1K","A3UJ6WXBW4ZJOV","3PEG1BH7AEDCPKTV9M6N3A4F0EHKBR","","null","<img src=""img/food5.png"" style=""width:200px; border:14px solid green;"">","null","","","","","","","","","",""
"","image-keyboard-response","268","216337","0.0-310.0","3WJEQKOXA9O7MT0BM05BS3KYH7AA1K","A3UJ6WXBW4ZJOV","3PEG1BH7AEDCPKTV9M6N3A4F0EHKBR","","129.5","img/food5.png","76","130.7999999821186","3","1","2","2","1,0.5,0,1,0.5,0,0.5,0,1","0.5,0,1,0.5,0,1,0,1,0.5","2","false",""
"","html-keyboard-response","269","216640","0.0-311.0","3WJEQKOXA9O7MT0BM05BS3KYH7AA1K","A3UJ6WXBW4ZJOV","3PEG1BH7AEDCPKTV9M6N3A4F0EHKBR","","null","<img src=""img/food5.png"" style=""width:200px; border:14px solid green;"">","null","","","","","","","","","",""
"","image-keyboard-response","270","216759","0.0-313.0","3WJEQKOXA9O7MT0BM05BS3KYH7AA1K","A3UJ6WXBW4ZJOV","3PEG1BH7AEDCPKTV9M6N3A4F0EHKBR","","117.2000000178814","img/food5.png","76","118.69999998807907","3","1","2","2","1,0.5,0,1,0.5,0,0.5,0,1","0.5,0,1,0.5,0,1,0,1,0.5","2","false",""
"","html-keyboard-response","271","217060","0.0-314.0","3WJEQKOXA9O7MT0BM05BS3KYH7AA1K","A3UJ6WXBW4ZJOV","3PEG1BH7AEDCPKTV9M6N3A4F0EHKBR","","null","<img src=""img/food5.png"" style=""width:200px; border:14px solid green;"">","null","","","","","","","","","",""
"","image-keyboard-response","272","217154","0.0-316.0","3WJEQKOXA9O7MT0BM05BS3KYH7AA1K","A3UJ6WXBW4ZJOV","3PEG1BH7AEDCPKTV9M6N3A4F0EHKBR","","91.2999999821186","img/food6.png","76","92.7999999821186","3","1","3","2","1,0.5,0,1,0.5,0,0.5,0,1","0.5,0,1,0.5,0,1,0,1,0.5","2","false",""
"","html-keyboard-response","273","217456","0.0-317.0","3WJEQKOXA9O7MT0BM05BS3KYH7AA1K","A3UJ6WXBW4ZJOV","3PEG1BH7AEDCPKTV9M6N3A4F0EHKBR","","null","<img src=""img/food6.png"" style=""width:200px; border:14px solid green;"">","null","","","","","","","","","",""
"","image-keyboard-response","274","217570","0.0-319.0","3WJEQKOXA9O7MT0BM05BS3KYH7AA1K","A3UJ6WXBW4ZJOV","3PEG1BH7AEDCPKTV9M6N3A4F0EHKBR","","111.09999999403954","img/food5.png","76","112.59999999403954","3","1","2","2","1,0.5,0,1,0.5,0,0.5,0,1","0.5,0,1,0.5,0,1,0,1,0.5","2","false",""
"","html-keyboard-response","275","217884","0.0-320.0","3WJEQKOXA9O7MT0BM05BS3KYH7AA1K","A3UJ6WXBW4ZJOV","3PEG1BH7AEDCPKTV9M6N3A4F0EHKBR","","null","<img src=""img/food5.png"" style=""width:200px; border:14px solid green;"">","null","","","","","","","","","",""
"","image-keyboard-response","276","218025","0.0-322.0","3WJEQKOXA9O7MT0BM05BS3KYH7AA1K","A3UJ6WXBW4ZJOV","3PEG1BH7AEDCPKTV9M6N3A4F0EHKBR","","138.7000000178814","img/food5.png","76","140.5","3","1","2","2","1,0.5,0,1,0.5,0,0.5,0,1","0.5,0,1,0.5,0,1,0,1,0.5","2","false",""
"","html-keyboard-response","277","218328","0.0-323.0","3WJEQKOXA9O7MT0BM05BS3KYH7AA1K","A3UJ6WXBW4ZJOV","3PEG1BH7AEDCPKTV9M6N3A4F0EHKBR","","null","<img src=""img/food5.png"" style=""width:200px; border:14px solid green;"">","null","","","","","","","","","",""
"","image-keyboard-response","278","218378","0.0-325.0","3WJEQKOXA9O7MT0BM05BS3KYH7AA1K","A3UJ6WXBW4ZJOV","3PEG1BH7AEDCPKTV9M6N3A4F0EHKBR","","47.30000001192093","img/food6.png","76","48.900000005960464","3","0","3","2","1,0.5,0,1,0.5,0,0.5,0,1","0.5,0,1,0.5,0,1,0,1,0.5","2","false",""
"","html-keyboard-response","279","218681","0.0-326.0","3WJEQKOXA9O7MT0BM05BS3KYH7AA1K","A3UJ6WXBW4ZJOV","3PEG1BH7AEDCPKTV9M6N3A4F0EHKBR","","null","<img src=""img/food6.png"" style=""width:200px;border:14px solid red;"">","null","","","","","","","","","",""
"","image-keyboard-response","280","219049","0.0-328.0","3WJEQKOXA9O7MT0BM05BS3KYH7AA1K","A3UJ6WXBW4ZJOV","3PEG1BH7AEDCPKTV9M6N3A4F0EHKBR","","365.90000000596046","img/food1.png","74","367.69999998807907","1","1","1","2","1,0.5,0,1,0.5,0,0.5,0,1","0.5,0,1,0.5,0,1,0,1,0.5","2","false",""
"","html-keyboard-response","281","219351","0.0-329.0","3WJEQKOXA9O7MT0BM05BS3KYH7AA1K","A3UJ6WXBW4ZJOV","3PEG1BH7AEDCPKTV9M6N3A4F0EHKBR","","null","<img src=""img/food1.png"" style=""width:200px; border:14px solid green;"">","null","","","","","","","","","",""
"","image-keyboard-response","282","219706","0.0-331.0","3WJEQKOXA9O7MT0BM05BS3KYH7AA1K","A3UJ6WXBW4ZJOV","3PEG1BH7AEDCPKTV9M6N3A4F0EHKBR","","353.89999997615814","img/food1.png","75","354.69999998807907","2","0","1","2","1,0.5,0,1,0.5,0,0.5,0,1","0.5,0,1,0.5,0,1,0,1,0.5","2","false",""
"","html-keyboard-response","283","220008","0.0-332.0","3WJEQKOXA9O7MT0BM05BS3KYH7AA1K","A3UJ6WXBW4ZJOV","3PEG1BH7AEDCPKTV9M6N3A4F0EHKBR","","null","<img src=""img/food1.png"" style=""width:200px;border:14px solid red;"">","null","","","","","","","","","",""
"","image-keyboard-response","284","220033","0.0-334.0","3WJEQKOXA9O7MT0BM05BS3KYH7AA1K","A3UJ6WXBW4ZJOV","3PEG1BH7AEDCPKTV9M6N3A4F0EHKBR","","23.099999994039536","img/food5.png","75","24.700000017881393","2","0","2","2","1,0.5,0,1,0.5,0,0.5,0,1","0.5,0,1,0.5,0,1,0,1,0.5","2","false",""
"","html-keyboard-response","285","220337","0.0-335.0","3WJEQKOXA9O7MT0BM05BS3KYH7AA1K","A3UJ6WXBW4ZJOV","3PEG1BH7AEDCPKTV9M6N3A4F0EHKBR","","null","<img src=""img/food5.png"" style=""width:200px;border:14px solid red;"">","null","","","","","","","","","",""
"","image-keyboard-response","286","220553","0.0-337.0","3WJEQKOXA9O7MT0BM05BS3KYH7AA1K","A3UJ6WXBW4ZJOV","3PEG1BH7AEDCPKTV9M6N3A4F0EHKBR","","214.2999999821186","img/food1.png","76","215.7999999821186","3","1","1","2","1,0.5,0,1,0.5,0,0.5,0,1","0.5,0,1,0.5,0,1,0,1,0.5","2","false",""
"","html-keyboard-response","287","220855","0.0-338.0","3WJEQKOXA9O7MT0BM05BS3KYH7AA1K","A3UJ6WXBW4ZJOV","3PEG1BH7AEDCPKTV9M6N3A4F0EHKBR","","null","<img src=""img/food1.png"" style=""width:200px; border:14px solid green;"">","null","","","","","","","","","",""
"","image-keyboard-response","288","221281","0.0-340.0","3WJEQKOXA9O7MT0BM05BS3KYH7AA1K","A3UJ6WXBW4ZJOV","3PEG1BH7AEDCPKTV9M6N3A4F0EHKBR","","423.5","img/food6.png","76","425.2000000178814","3","0","3","2","1,0.5,0,1,0.5,0,0.5,0,1","0.5,0,1,0.5,0,1,0,1,0.5","2","false",""
"","html-keyboard-response","289","221584","0.0-341.0","3WJEQKOXA9O7MT0BM05BS3KYH7AA1K","A3UJ6WXBW4ZJOV","3PEG1BH7AEDCPKTV9M6N3A4F0EHKBR","","null","<img src=""img/food6.png"" style=""width:200px;border:14px solid red;"">","null","","","","","","","","","",""
"","image-keyboard-response","290","221727","0.0-343.0","3WJEQKOXA9O7MT0BM05BS3KYH7AA1K","A3UJ6WXBW4ZJOV","3PEG1BH7AEDCPKTV9M6N3A4F0EHKBR","","141.09999999403954","img/food5.png","75","142.59999999403954","2","0","2","2","1,0.5,0,1,0.5,0,0.5,0,1","0.5,0,1,0.5,0,1,0,1,0.5","2","false",""
"","html-keyboard-response","291","222029","0.0-344.0","3WJEQKOXA9O7MT0BM05BS3KYH7AA1K","A3UJ6WXBW4ZJOV","3PEG1BH7AEDCPKTV9M6N3A4F0EHKBR","","null","<img src=""img/food5.png"" style=""width:200px;border:14px solid red;"">","null","","","","","","","","","",""
"","image-keyboard-response","292","222032","0.0-346.0","3WJEQKOXA9O7MT0BM05BS3KYH7AA1K","A3UJ6WXBW4ZJOV","3PEG1BH7AEDCPKTV9M6N3A4F0EHKBR","","1.7999999821186066","img/food1.png","76","2.7000000178813934","3","1","1","2","1,0.5,0,1,0.5,0,0.5,0,1","0.5,0,1,0.5,0,1,0,1,0.5","2","false",""
"","html-keyboard-response","293","222335","0.0-347.0","3WJEQKOXA9O7MT0BM05BS3KYH7AA1K","A3UJ6WXBW4ZJOV","3PEG1BH7AEDCPKTV9M6N3A4F0EHKBR","","null","<img src=""img/food1.png"" style=""width:200px; border:14px solid green;"">","null","","","","","","","","","",""
"","image-keyboard-response","294","222602","0.0-349.0","3WJEQKOXA9O7MT0BM05BS3KYH7AA1K","A3UJ6WXBW4ZJOV","3PEG1BH7AEDCPKTV9M6N3A4F0EHKBR","","264.80000001192093","img/food5.png","76","266.59999999403954","3","1","2","2","1,0.5,0,1,0.5,0,0.5,0,1","0.5,0,1,0.5,0,1,0,1,0.5","2","false",""
"","html-keyboard-response","295","222904","0.0-350.0","3WJEQKOXA9O7MT0BM05BS3KYH7AA1K","A3UJ6WXBW4ZJOV","3PEG1BH7AEDCPKTV9M6N3A4F0EHKBR","","null","<img src=""img/food5.png"" style=""width:200px; border:14px solid green;"">","null","","","","","","","","","",""
"","image-keyboard-response","296","223008","0.0-352.0","3WJEQKOXA9O7MT0BM05BS3KYH7AA1K","A3UJ6WXBW4ZJOV","3PEG1BH7AEDCPKTV9M6N3A4F0EHKBR","","103.59999999403954","img/food1.png","76","104.30000001192093","3","1","1","2","1,0.5,0,1,0.5,0,0.5,0,1","0.5,0,1,0.5,0,1,0,1,0.5","2","false",""
"","html-keyboard-response","297","223311","0.0-353.0","3WJEQKOXA9O7MT0BM05BS3KYH7AA1K","A3UJ6WXBW4ZJOV","3PEG1BH7AEDCPKTV9M6N3A4F0EHKBR","","null","<img src=""img/food1.png"" style=""width:200px; border:14px solid green;"">","null","","","","","","","","","",""
"","image-keyboard-response","298","223490","0.0-355.0","3WJEQKOXA9O7MT0BM05BS3KYH7AA1K","A3UJ6WXBW4ZJOV","3PEG1BH7AEDCPKTV9M6N3A4F0EHKBR","","176.90000000596046","img/food1.png","76","178.5","3","1","1","2","1,0.5,0,1,0.5,0,0.5,0,1","0.5,0,1,0.5,0,1,0,1,0.5","2","false",""
"","html-keyboard-response","299","223792","0.0-356.0","3WJEQKOXA9O7MT0BM05BS3KYH7AA1K","A3UJ6WXBW4ZJOV","3PEG1BH7AEDCPKTV9M6N3A4F0EHKBR","","null","<img src=""img/food1.png"" style=""width:200px; border:14px solid green;"">","null","","","","","","","","","",""
"","image-keyboard-response","300","223842","0.0-358.0","3WJEQKOXA9O7MT0BM05BS3KYH7AA1K","A3UJ6WXBW4ZJOV","3PEG1BH7AEDCPKTV9M6N3A4F0EHKBR","","47.30000001192093","img/food6.png","76","49.099999994039536","3","1","3","2","1,0.5,0,1,0.5,0,0.5,0,1","0.5,0,1,0.5,0,1,0,1,0.5","2","false",""
"","html-keyboard-response","301","224145","0.0-359.0","3WJEQKOXA9O7MT0BM05BS3KYH7AA1K","A3UJ6WXBW4ZJOV","3PEG1BH7AEDCPKTV9M6N3A4F0EHKBR","","null","<img src=""img/food6.png"" style=""width:200px; border:14px solid green;"">","null","","","","","","","","","",""
"","image-keyboard-response","302","224474","0.0-361.0","3WJEQKOXA9O7MT0BM05BS3KYH7AA1K","A3UJ6WXBW4ZJOV","3PEG1BH7AEDCPKTV9M6N3A4F0EHKBR","","326.30000001192093","img/food6.png","76","327.7999999821186","3","1","3","2","1,0.5,0,1,0.5,0,0.5,0,1","0.5,0,1,0.5,0,1,0,1,0.5","2","false",""
"","html-keyboard-response","303","224777","0.0-362.0","3WJEQKOXA9O7MT0BM05BS3KYH7AA1K","A3UJ6WXBW4ZJOV","3PEG1BH7AEDCPKTV9M6N3A4F0EHKBR","","null","<img src=""img/food6.png"" style=""width:200px; border:14px solid green;"">","null","","","","","","","","","",""
"","image-keyboard-response","304","224849","0.0-364.0","3WJEQKOXA9O7MT0BM05BS3KYH7AA1K","A3UJ6WXBW4ZJOV","3PEG1BH7AEDCPKTV9M6N3A4F0EHKBR","","70.60000002384186","img/food5.png","76","72.2000000178814","3","1","2","2","1,0.5,0,1,0.5,0,0.5,0,1","0.5,0,1,0.5,0,1,0,1,0.5","2","false",""
"","html-keyboard-response","305","225152","0.0-365.0","3WJEQKOXA9O7MT0BM05BS3KYH7AA1K","A3UJ6WXBW4ZJOV","3PEG1BH7AEDCPKTV9M6N3A4F0EHKBR","","null","<img src=""img/food5.png"" style=""width:200px; border:14px solid green;"">","null","","","","","","","","","",""
"","image-keyboard-response","306","225193","0.0-367.0","3WJEQKOXA9O7MT0BM05BS3KYH7AA1K","A3UJ6WXBW4ZJOV","3PEG1BH7AEDCPKTV9M6N3A4F0EHKBR","","39.5","img/food6.png","75","40.80000001192093","2","1","3","2","1,0.5,0,1,0.5,0,0.5,0,1","0.5,0,1,0.5,0,1,0,1,0.5","2","false",""
"","html-keyboard-response","307","225495","0.0-368.0","3WJEQKOXA9O7MT0BM05BS3KYH7AA1K","A3UJ6WXBW4ZJOV","3PEG1BH7AEDCPKTV9M6N3A4F0EHKBR","","null","<img src=""img/food6.png"" style=""width:200px; border:14px solid green;"">","null","","","","","","","","","",""
"","image-keyboard-response","308","225578","0.0-370.0","3WJEQKOXA9O7MT0BM05BS3KYH7AA1K","A3UJ6WXBW4ZJOV","3PEG1BH7AEDCPKTV9M6N3A4F0EHKBR","","80.5","img/food5.png","76","81.90000000596046","3","1","2","2","1,0.5,0,1,0.5,0,0.5,0,1","0.5,0,1,0.5,0,1,0,1,0.5","2","false",""
"","html-keyboard-response","309","225881","0.0-371.0","3WJEQKOXA9O7MT0BM05BS3KYH7AA1K","A3UJ6WXBW4ZJOV","3PEG1BH7AEDCPKTV9M6N3A4F0EHKBR","","null","<img src=""img/food5.png"" style=""width:200px; border:14px solid green;"">","null","","","","","","","","","",""
"","image-keyboard-response","310","226241","0.0-373.0","3WJEQKOXA9O7MT0BM05BS3KYH7AA1K","A3UJ6WXBW4ZJOV","3PEG1BH7AEDCPKTV9M6N3A4F0EHKBR","","357.59999999403954","img/food1.png","76","359.59999999403954","3","1","1","2","1,0.5,0,1,0.5,0,0.5,0,1","0.5,0,1,0.5,0,1,0,1,0.5","2","false",""
"","html-keyboard-response","311","226544","0.0-374.0","3WJEQKOXA9O7MT0BM05BS3KYH7AA1K","A3UJ6WXBW4ZJOV","3PEG1BH7AEDCPKTV9M6N3A4F0EHKBR","","null","<img src=""img/food1.png"" style=""width:200px; border:14px solid green;"">","null","","","","","","","","","",""
"","image-keyboard-response","312","226897","0.0-376.0","3WJEQKOXA9O7MT0BM05BS3KYH7AA1K","A3UJ6WXBW4ZJOV","3PEG1BH7AEDCPKTV9M6N3A4F0EHKBR","","351","img/food6.png","76","352.59999999403954","3","0","3","2","1,0.5,0,1,0.5,0,0.5,0,1","0.5,0,1,0.5,0,1,0,1,0.5","2","false",""
"","html-keyboard-response","313","227200","0.0-377.0","3WJEQKOXA9O7MT0BM05BS3KYH7AA1K","A3UJ6WXBW4ZJOV","3PEG1BH7AEDCPKTV9M6N3A4F0EHKBR","","null","<img src=""img/food6.png"" style=""width:200px;border:14px solid red;"">","null","","","","","","","","","",""
"","image-keyboard-response","314","227305","0.0-379.0","3WJEQKOXA9O7MT0BM05BS3KYH7AA1K","A3UJ6WXBW4ZJOV","3PEG1BH7AEDCPKTV9M6N3A4F0EHKBR","","102.19999998807907","img/food5.png","75","103.90000000596046","2","0","2","2","1,0.5,0,1,0.5,0,0.5,0,1","0.5,0,1,0.5,0,1,0,1,0.5","2","false",""
"","html-keyboard-response","315","227608","0.0-380.0","3WJEQKOXA9O7MT0BM05BS3KYH7AA1K","A3UJ6WXBW4ZJOV","3PEG1BH7AEDCPKTV9M6N3A4F0EHKBR","","null","<img src=""img/food5.png"" style=""width:200px;border:14px solid red;"">","null","","","","","","","","","",""
"","image-keyboard-response","316","227770","0.0-382.0","3WJEQKOXA9O7MT0BM05BS3KYH7AA1K","A3UJ6WXBW4ZJOV","3PEG1BH7AEDCPKTV9M6N3A4F0EHKBR","","159.2999999821186","img/food6.png","74","161","1","0","3","2","1,0.5,0,1,0.5,0,0.5,0,1","0.5,0,1,0.5,0,1,0,1,0.5","2","false",""
"","html-keyboard-response","317","228073","0.0-383.0","3WJEQKOXA9O7MT0BM05BS3KYH7AA1K","A3UJ6WXBW4ZJOV","3PEG1BH7AEDCPKTV9M6N3A4F0EHKBR","","null","<img src=""img/food6.png"" style=""width:200px;border:14px solid red;"">","null","","","","","","","","","",""
"","image-keyboard-response","318","228369","0.0-385.0","3WJEQKOXA9O7MT0BM05BS3KYH7AA1K","A3UJ6WXBW4ZJOV","3PEG1BH7AEDCPKTV9M6N3A4F0EHKBR","","294.40000000596046","img/food1.png","75","295.40000000596046","2","0","1","2","1,0.5,0,1,0.5,0,0.5,0,1","0.5,0,1,0.5,0,1,0,1,0.5","2","false",""
"","html-keyboard-response","319","228671","0.0-386.0","3WJEQKOXA9O7MT0BM05BS3KYH7AA1K","A3UJ6WXBW4ZJOV","3PEG1BH7AEDCPKTV9M6N3A4F0EHKBR","","null","<img src=""img/food1.png"" style=""width:200px;border:14px solid red;"">","null","","","","","","","","","",""
"","image-keyboard-response","320","228673","0.0-388.0","3WJEQKOXA9O7MT0BM05BS3KYH7AA1K","A3UJ6WXBW4ZJOV","3PEG1BH7AEDCPKTV9M6N3A4F0EHKBR","","0.20000001788139343","img/food1.png","75","1.0999999940395355","2","0","1","2","1,0.5,0,1,0.5,0,0.5,0,1","0.5,0,1,0.5,0,1,0,1,0.5","2","false",""
"","html-keyboard-response","321","228975","0.0-389.0","3WJEQKOXA9O7MT0BM05BS3KYH7AA1K","A3UJ6WXBW4ZJOV","3PEG1BH7AEDCPKTV9M6N3A4F0EHKBR","","null","<img src=""img/food1.png"" style=""width:200px;border:14px solid red;"">","null","","","","","","","","","",""
"","image-keyboard-response","322","229162","0.0-391.0","3WJEQKOXA9O7MT0BM05BS3KYH7AA1K","A3UJ6WXBW4ZJOV","3PEG1BH7AEDCPKTV9M6N3A4F0EHKBR","","184.90000000596046","img/food5.png","76","186.40000000596046","3","1","2","2","1,0.5,0,1,0.5,0,0.5,0,1","0.5,0,1,0.5,0,1,0,1,0.5","2","false",""
"","html-keyboard-response","323","229465","0.0-392.0","3WJEQKOXA9O7MT0BM05BS3KYH7AA1K","A3UJ6WXBW4ZJOV","3PEG1BH7AEDCPKTV9M6N3A4F0EHKBR","","null","<img src=""img/food5.png"" style=""width:200px; border:14px solid green;"">","null","","","","","","","","","",""
"","image-keyboard-response","324","229513","0.0-394.0","3WJEQKOXA9O7MT0BM05BS3KYH7AA1K","A3UJ6WXBW4ZJOV","3PEG1BH7AEDCPKTV9M6N3A4F0EHKBR","","46.30000001192093","img/food1.png","76","48.099999994039536","3","1","1","2","1,0.5,0,1,0.5,0,0.5,0,1","0.5,0,1,0.5,0,1,0,1,0.5","2","false",""
"","html-keyboard-response","325","229817","0.0-395.0","3WJEQKOXA9O7MT0BM05BS3KYH7AA1K","A3UJ6WXBW4ZJOV","3PEG1BH7AEDCPKTV9M6N3A4F0EHKBR","","null","<img src=""img/food1.png"" style=""width:200px; border:14px solid green;"">","null","","","","","","","","","",""
"","image-keyboard-response","326","230074","0.0-397.0","3WJEQKOXA9O7MT0BM05BS3KYH7AA1K","A3UJ6WXBW4ZJOV","3PEG1BH7AEDCPKTV9M6N3A4F0EHKBR","","254.90000000596046","img/food5.png","76","256.39999997615814","3","1","2","2","1,0.5,0,1,0.5,0,0.5,0,1","0.5,0,1,0.5,0,1,0,1,0.5","2","false",""
"","html-keyboard-response","327","230385","0.0-398.0","3WJEQKOXA9O7MT0BM05BS3KYH7AA1K","A3UJ6WXBW4ZJOV","3PEG1BH7AEDCPKTV9M6N3A4F0EHKBR","","null","<img src=""img/food5.png"" style=""width:200px; border:14px solid green;"">","null","","","","","","","","","",""
"","image-keyboard-response","328","230458","0.0-400.0","3WJEQKOXA9O7MT0BM05BS3KYH7AA1K","A3UJ6WXBW4ZJOV","3PEG1BH7AEDCPKTV9M6N3A4F0EHKBR","","70.09999999403954","img/food1.png","76","71.69999998807907","3","1","1","2","1,0.5,0,1,0.5,0,0.5,0,1","0.5,0,1,0.5,0,1,0,1,0.5","2","false",""
"","html-keyboard-response","329","230761","0.0-401.0","3WJEQKOXA9O7MT0BM05BS3KYH7AA1K","A3UJ6WXBW4ZJOV","3PEG1BH7AEDCPKTV9M6N3A4F0EHKBR","","null","<img src=""img/food1.png"" style=""width:200px; border:14px solid green;"">","null","","","","","","","","","",""
"","image-keyboard-response","330","230969","0.0-403.0","3WJEQKOXA9O7MT0BM05BS3KYH7AA1K","A3UJ6WXBW4ZJOV","3PEG1BH7AEDCPKTV9M6N3A4F0EHKBR","","206.40000000596046","img/food6.png","76","208","3","1","3","2","1,0.5,0,1,0.5,0,0.5,0,1","0.5,0,1,0.5,0,1,0,1,0.5","2","false",""
"","html-keyboard-response","331","231272","0.0-404.0","3WJEQKOXA9O7MT0BM05BS3KYH7AA1K","A3UJ6WXBW4ZJOV","3PEG1BH7AEDCPKTV9M6N3A4F0EHKBR","","null","<img src=""img/food6.png"" style=""width:200px; border:14px solid green;"">","null","","","","","","","","","",""
"","image-keyboard-response","332","231361","0.0-406.0","3WJEQKOXA9O7MT0BM05BS3KYH7AA1K","A3UJ6WXBW4ZJOV","3PEG1BH7AEDCPKTV9M6N3A4F0EHKBR","","86.2000000178814","img/food5.png","76","87.89999997615814","3","1","2","2","1,0.5,0,1,0.5,0,0.5,0,1","0.5,0,1,0.5,0,1,0,1,0.5","2","false",""
"","html-keyboard-response","333","231663","0.0-407.0","3WJEQKOXA9O7MT0BM05BS3KYH7AA1K","A3UJ6WXBW4ZJOV","3PEG1BH7AEDCPKTV9M6N3A4F0EHKBR","","null","<img src=""img/food5.png"" style=""width:200px; border:14px solid green;"">","null","","","","","","","","","",""
"","image-keyboard-response","334","231841","0.0-409.0","3WJEQKOXA9O7MT0BM05BS3KYH7AA1K","A3UJ6WXBW4ZJOV","3PEG1BH7AEDCPKTV9M6N3A4F0EHKBR","","176.30000001192093","img/food5.png","76","178","3","1","2","2","1,0.5,0,1,0.5,0,0.5,0,1","0.5,0,1,0.5,0,1,0,1,0.5","2","false",""
"","html-keyboard-response","335","232144","0.0-410.0","3WJEQKOXA9O7MT0BM05BS3KYH7AA1K","A3UJ6WXBW4ZJOV","3PEG1BH7AEDCPKTV9M6N3A4F0EHKBR","","null","<img src=""img/food5.png"" style=""width:200px; border:14px solid green;"">","null","","","","","","","","","",""
"","image-keyboard-response","336","232201","0.0-412.0","3WJEQKOXA9O7MT0BM05BS3KYH7AA1K","A3UJ6WXBW4ZJOV","3PEG1BH7AEDCPKTV9M6N3A4F0EHKBR","","54.69999998807907","img/food5.png","76","56.099999994039536","3","1","2","2","1,0.5,0,1,0.5,0,0.5,0,1","0.5,0,1,0.5,0,1,0,1,0.5","2","false",""
"","html-keyboard-response","337","232503","0.0-413.0","3WJEQKOXA9O7MT0BM05BS3KYH7AA1K","A3UJ6WXBW4ZJOV","3PEG1BH7AEDCPKTV9M6N3A4F0EHKBR","","null","<img src=""img/food5.png"" style=""width:200px; border:14px solid green;"">","null","","","","","","","","","",""
"","image-keyboard-response","338","232553","0.0-415.0","3WJEQKOXA9O7MT0BM05BS3KYH7AA1K","A3UJ6WXBW4ZJOV","3PEG1BH7AEDCPKTV9M6N3A4F0EHKBR","","48.89999997615814","img/food5.png","76","50","3","1","2","2","1,0.5,0,1,0.5,0,0.5,0,1","0.5,0,1,0.5,0,1,0,1,0.5","2","false",""
"","html-keyboard-response","339","232856","0.0-416.0","3WJEQKOXA9O7MT0BM05BS3KYH7AA1K","A3UJ6WXBW4ZJOV","3PEG1BH7AEDCPKTV9M6N3A4F0EHKBR","","null","<img src=""img/food5.png"" style=""width:200px; border:14px solid green;"">","null","","","","","","","","","",""
"","image-keyboard-response","340","232921","0.0-418.0","3WJEQKOXA9O7MT0BM05BS3KYH7AA1K","A3UJ6WXBW4ZJOV","3PEG1BH7AEDCPKTV9M6N3A4F0EHKBR","","62.79999998211861","img/food6.png","76","64.39999997615814","3","0","3","2","1,0.5,0,1,0.5,0,0.5,0,1","0.5,0,1,0.5,0,1,0,1,0.5","2","false",""
"","html-keyboard-response","341","233223","0.0-419.0","3WJEQKOXA9O7MT0BM05BS3KYH7AA1K","A3UJ6WXBW4ZJOV","3PEG1BH7AEDCPKTV9M6N3A4F0EHKBR","","null","<img src=""img/food6.png"" style=""width:200px;border:14px solid red;"">","null","","","","","","","","","",""
"","image-keyboard-response","342","233754","0.0-421.0","3WJEQKOXA9O7MT0BM05BS3KYH7AA1K","A3UJ6WXBW4ZJOV","3PEG1BH7AEDCPKTV9M6N3A4F0EHKBR","","528.2000000178814","img/food5.png","75","530","2","0","2","2","1,0.5,0,1,0.5,0,0.5,0,1","0.5,0,1,0.5,0,1,0,1,0.5","2","false",""
"","html-keyboard-response","343","234063","0.0-422.0","3WJEQKOXA9O7MT0BM05BS3KYH7AA1K","A3UJ6WXBW4ZJOV","3PEG1BH7AEDCPKTV9M6N3A4F0EHKBR","","null","<img src=""img/food5.png"" style=""width:200px;border:14px solid red;"">","null","","","","","","","","","",""
"","image-keyboard-response","344","234240","0.0-424.0","3WJEQKOXA9O7MT0BM05BS3KYH7AA1K","A3UJ6WXBW4ZJOV","3PEG1BH7AEDCPKTV9M6N3A4F0EHKBR","","174.40000000596046","img/food6.png","75","175.7000000178814","2","1","3","2","1,0.5,0,1,0.5,0,0.5,0,1","0.5,0,1,0.5,0,1,0,1,0.5","2","false",""
"","html-keyboard-response","345","234542","0.0-425.0","3WJEQKOXA9O7MT0BM05BS3KYH7AA1K","A3UJ6WXBW4ZJOV","3PEG1BH7AEDCPKTV9M6N3A4F0EHKBR","","null","<img src=""img/food6.png"" style=""width:200px; border:14px solid green;"">","null","","","","","","","","","",""
"","image-keyboard-response","346","234777","0.0-427.0","3WJEQKOXA9O7MT0BM05BS3KYH7AA1K","A3UJ6WXBW4ZJOV","3PEG1BH7AEDCPKTV9M6N3A4F0EHKBR","","233.80000001192093","img/food1.png","76","235.5","3","1","1","2","1,0.5,0,1,0.5,0,0.5,0,1","0.5,0,1,0.5,0,1,0,1,0.5","2","false",""
"","html-keyboard-response","347","235080","0.0-428.0","3WJEQKOXA9O7MT0BM05BS3KYH7AA1K","A3UJ6WXBW4ZJOV","3PEG1BH7AEDCPKTV9M6N3A4F0EHKBR","","null","<img src=""img/food1.png"" style=""width:200px; border:14px solid green;"">","null","","","","","","","","","",""
"","image-keyboard-response","348","235306","0.0-430.0","3WJEQKOXA9O7MT0BM05BS3KYH7AA1K","A3UJ6WXBW4ZJOV","3PEG1BH7AEDCPKTV9M6N3A4F0EHKBR","","223.69999998807907","img/food5.png","76","225.19999998807907","3","1","2","2","1,0.5,0,1,0.5,0,0.5,0,1","0.5,0,1,0.5,0,1,0,1,0.5","2","false",""
"","html-keyboard-response","349","235609","0.0-431.0","3WJEQKOXA9O7MT0BM05BS3KYH7AA1K","A3UJ6WXBW4ZJOV","3PEG1BH7AEDCPKTV9M6N3A4F0EHKBR","","null","<img src=""img/food5.png"" style=""width:200px; border:14px solid green;"">","null","","","","","","","","","",""
"","image-keyboard-response","350","235713","0.0-433.0","3WJEQKOXA9O7MT0BM05BS3KYH7AA1K","A3UJ6WXBW4ZJOV","3PEG1BH7AEDCPKTV9M6N3A4F0EHKBR","","102","img/food6.png","76","103.5","3","0","3","2","1,0.5,0,1,0.5,0,0.5,0,1","0.5,0,1,0.5,0,1,0,1,0.5","2","false",""
"","html-keyboard-response","351","236015","0.0-434.0","3WJEQKOXA9O7MT0BM05BS3KYH7AA1K","A3UJ6WXBW4ZJOV","3PEG1BH7AEDCPKTV9M6N3A4F0EHKBR","","null","<img src=""img/food6.png"" style=""width:200px;border:14px solid red;"">","null","","","","","","","","","",""
"","image-keyboard-response","352","236128","0.0-436.0","3WJEQKOXA9O7MT0BM05BS3KYH7AA1K","A3UJ6WXBW4ZJOV","3PEG1BH7AEDCPKTV9M6N3A4F0EHKBR","","112","img/food6.png","75","112.90000000596046","2","1","3","2","1,0.5,0,1,0.5,0,0.5,0,1","0.5,0,1,0.5,0,1,0,1,0.5","2","false",""
"","html-keyboard-response","353","236431","0.0-437.0","3WJEQKOXA9O7MT0BM05BS3KYH7AA1K","A3UJ6WXBW4ZJOV","3PEG1BH7AEDCPKTV9M6N3A4F0EHKBR","","null","<img src=""img/food6.png"" style=""width:200px; border:14px solid green;"">","null","","","","","","","","","",""
"","image-keyboard-response","354","236529","0.0-439.0","3WJEQKOXA9O7MT0BM05BS3KYH7AA1K","A3UJ6WXBW4ZJOV","3PEG1BH7AEDCPKTV9M6N3A4F0EHKBR","","95.90000000596046","img/food1.png","76","97.7000000178814","3","1","1","2","1,0.5,0,1,0.5,0,0.5,0,1","0.5,0,1,0.5,0,1,0,1,0.5","2","false",""
"","html-keyboard-response","355","236833","0.0-440.0","3WJEQKOXA9O7MT0BM05BS3KYH7AA1K","A3UJ6WXBW4ZJOV","3PEG1BH7AEDCPKTV9M6N3A4F0EHKBR","","null","<img src=""img/food1.png"" style=""width:200px; border:14px solid green;"">","null","","","","","","","","","",""
"","image-keyboard-response","356","236968","0.0-442.0","3WJEQKOXA9O7MT0BM05BS3KYH7AA1K","A3UJ6WXBW4ZJOV","3PEG1BH7AEDCPKTV9M6N3A4F0EHKBR","","133.69999998807907","img/food5.png","76","135.10000002384186","3","1","2","2","1,0.5,0,1,0.5,0,0.5,0,1","0.5,0,1,0.5,0,1,0,1,0.5","2","false",""
"","html-keyboard-response","357","237270","0.0-443.0","3WJEQKOXA9O7MT0BM05BS3KYH7AA1K","A3UJ6WXBW4ZJOV","3PEG1BH7AEDCPKTV9M6N3A4F0EHKBR","","null","<img src=""img/food5.png"" style=""width:200px; border:14px solid green;"">","null","","","","","","","","","",""
"","image-keyboard-response","358","237425","0.0-445.0","3WJEQKOXA9O7MT0BM05BS3KYH7AA1K","A3UJ6WXBW4ZJOV","3PEG1BH7AEDCPKTV9M6N3A4F0EHKBR","","152.89999997615814","img/food1.png","75","154.39999997615814","2","0","1","2","1,0.5,0,1,0.5,0,0.5,0,1","0.5,0,1,0.5,0,1,0,1,0.5","2","false",""
"","html-keyboard-response","359","237728","0.0-446.0","3WJEQKOXA9O7MT0BM05BS3KYH7AA1K","A3UJ6WXBW4ZJOV","3PEG1BH7AEDCPKTV9M6N3A4F0EHKBR","","null","<img src=""img/food1.png"" style=""width:200px;border:14px solid red;"">","null","","","","","","","","","",""
"","image-keyboard-response","360","238161","0.0-448.0","3WJEQKOXA9O7MT0BM05BS3KYH7AA1K","A3UJ6WXBW4ZJOV","3PEG1BH7AEDCPKTV9M6N3A4F0EHKBR","","431.59999999403954","img/food1.png","76","432.90000000596046","3","1","1","2","1,0.5,0,1,0.5,0,0.5,0,1","0.5,0,1,0.5,0,1,0,1,0.5","2","false",""
"","html-keyboard-response","361","238464","0.0-449.0","3WJEQKOXA9O7MT0BM05BS3KYH7AA1K","A3UJ6WXBW4ZJOV","3PEG1BH7AEDCPKTV9M6N3A4F0EHKBR","","null","<img src=""img/food1.png"" style=""width:200px; border:14px solid green;"">","null","","","","","","","","","",""
"","image-keyboard-response","362","238529","0.0-451.0","3WJEQKOXA9O7MT0BM05BS3KYH7AA1K","A3UJ6WXBW4ZJOV","3PEG1BH7AEDCPKTV9M6N3A4F0EHKBR","","63.599999994039536","img/food5.png","76","65.10000002384186","3","1","2","2","1,0.5,0,1,0.5,0,0.5,0,1","0.5,0,1,0.5,0,1,0,1,0.5","2","false",""
"","html-keyboard-response","363","238832","0.0-452.0","3WJEQKOXA9O7MT0BM05BS3KYH7AA1K","A3UJ6WXBW4ZJOV","3PEG1BH7AEDCPKTV9M6N3A4F0EHKBR","","null","<img src=""img/food5.png"" style=""width:200px; border:14px solid green;"">","null","","","","","","","","","",""
"","instructions","364","242648","0.0-454.0","3WJEQKOXA9O7MT0BM05BS3KYH7AA1K","A3UJ6WXBW4ZJOV","3PEG1BH7AEDCPKTV9M6N3A4F0EHKBR","[{""page_index"":0,""viewing_time"":3816}]","3816.2999999821186","","","","","","","","","","","",""
"","survey-text","365","250281","0.0-455.0","3WJEQKOXA9O7MT0BM05BS3KYH7AA1K","A3UJ6WXBW4ZJOV","3PEG1BH7AEDCPKTV9M6N3A4F0EHKBR","","7627.5","","","","","","","","","","","","{""Q0"":""A3UJ6WXBW4ZJOV""}"
