"success","trial_type","trial_index","time_elapsed","internal_node_id","assignmentID","mturkID","hitID","view_history","rt","stimulus","key_press","reactionTime","a","r","s","cond","reward_cond","reward_cond_actual","reward_matrix_idx","warning","responses"
"true","fullscreen","0","4042","0.0-0.0","3Y5140Z9DY2P932BJQ8EAXQFXXZPIP","A3UMFQFJ8HE82I","382GHPVPHSDM8N0F9141EAH7F0K34Z","","","","","","","","","","","","","",""
"","instructions","1","55770","0.0-1.0","3Y5140Z9DY2P932BJQ8EAXQFXXZPIP","A3UMFQFJ8HE82I","382GHPVPHSDM8N0F9141EAH7F0K34Z","[{""page_index"":0,""viewing_time"":2118.5},{""page_index"":1,""viewing_time"":1278.2999999821186},{""page_index"":2,""viewing_time"":1481.5999999940395},{""page_index"":3,""viewing_time"":34173.40000000596},{""page_index"":4,""viewing_time"":3294.300000011921},{""page_index"":5,""viewing_time"":7017.5},{""page_index"":6,""viewing_time"":2362.199999988079}]","51726.19999998808","","","","","","","","","","","",""
"","image-keyboard-response","2","57704","0.0-2.0","3Y5140Z9DY2P932BJQ8EAXQFXXZPIP","A3UMFQFJ8HE82I","382GHPVPHSDM8N0F9141EAH7F0K34Z","","1931.9000000059605","img/food2.png","74","1933.3999999761581","1","1","3","1","1,0.5,0,1,0.5,0,0.5,0,1","0,1,0.5,0,1,0.5,1,0.5,0","3","",""
"","html-keyboard-response","3","58007","0.0-3.0","3Y5140Z9DY2P932BJQ8EAXQFXXZPIP","A3UMFQFJ8HE82I","382GHPVPHSDM8N0F9141EAH7F0K34Z","","null","<img src=""img/food2.png"" style=""width:200px; border:14px solid green;"">","null","","","","","","","","","",""
"","image-keyboard-response","4","59927","0.0-4.0","3Y5140Z9DY2P932BJQ8EAXQFXXZPIP","A3UMFQFJ8HE82I","382GHPVPHSDM8N0F9141EAH7F0K34Z","","1918.800000011921","img/food3.png","74","1919.699999988079","1","0","1","1","1,0.5,0,1,0.5,0,0.5,0,1","0,1,0.5,0,1,0.5,1,0.5,0","3","",""
"","html-keyboard-response","5","60230","0.0-5.0","3Y5140Z9DY2P932BJQ8EAXQFXXZPIP","A3UMFQFJ8HE82I","382GHPVPHSDM8N0F9141EAH7F0K34Z","","null","<img src=""img/food3.png"" style=""width:200px;border:14px solid red;"">","null","","","","","","","","","",""
"","image-keyboard-response","6","61079","0.0-6.0","3Y5140Z9DY2P932BJQ8EAXQFXXZPIP","A3UMFQFJ8HE82I","382GHPVPHSDM8N0F9141EAH7F0K34Z","","848.4000000059605","img/food6.png","75","849","2","1","2","1","1,0.5,0,1,0.5,0,0.5,0,1","0,1,0.5,0,1,0.5,1,0.5,0","3","",""
"","html-keyboard-response","7","61381","0.0-7.0","3Y5140Z9DY2P932BJQ8EAXQFXXZPIP","A3UMFQFJ8HE82I","382GHPVPHSDM8N0F9141EAH7F0K34Z","","null","<img src=""img/food6.png"" style=""width:200px; border:14px solid green;"">","null","","","","","","","","","",""
"","image-keyboard-response","8","62855","0.0-8.0","3Y5140Z9DY2P932BJQ8EAXQFXXZPIP","A3UMFQFJ8HE82I","382GHPVPHSDM8N0F9141EAH7F0K34Z","","1473","img/food3.png","74","1473.699999988079","1","0","1","1","1,0.5,0,1,0.5,0,0.5,0,1","0,1,0.5,0,1,0.5,1,0.5,0","3","",""
"","html-keyboard-response","9","63156","0.0-9.0","3Y5140Z9DY2P932BJQ8EAXQFXXZPIP","A3UMFQFJ8HE82I","382GHPVPHSDM8N0F9141EAH7F0K34Z","","null","<img src=""img/food3.png"" style=""width:200px;border:14px solid red;"">","null","","","","","","","","","",""
"","image-keyboard-response","10","64152","0.0-10.0","3Y5140Z9DY2P932BJQ8EAXQFXXZPIP","A3UMFQFJ8HE82I","382GHPVPHSDM8N0F9141EAH7F0K34Z","","994.5","img/food6.png","75","995.4000000059605","2","1","2","1","1,0.5,0,1,0.5,0,0.5,0,1","0,1,0.5,0,1,0.5,1,0.5,0","3","",""
"","html-keyboard-response","11","64453","0.0-11.0","3Y5140Z9DY2P932BJQ8EAXQFXXZPIP","A3UMFQFJ8HE82I","382GHPVPHSDM8N0F9141EAH7F0K34Z","","null","<img src=""img/food6.png"" style=""width:200px; border:14px solid green;"">","null","","","","","","","","","",""
"","image-keyboard-response","12","65479","0.0-12.0","3Y5140Z9DY2P932BJQ8EAXQFXXZPIP","A3UMFQFJ8HE82I","382GHPVPHSDM8N0F9141EAH7F0K34Z","","1024.5","img/food2.png","74","1025.1000000238419","1","1","3","1","1,0.5,0,1,0.5,0,0.5,0,1","0,1,0.5,0,1,0.5,1,0.5,0","3","",""
"","html-keyboard-response","13","65781","0.0-13.0","3Y5140Z9DY2P932BJQ8EAXQFXXZPIP","A3UMFQFJ8HE82I","382GHPVPHSDM8N0F9141EAH7F0K34Z","","null","<img src=""img/food2.png"" style=""width:200px; border:14px solid green;"">","null","","","","","","","","","",""
"","image-keyboard-response","14","67799","0.0-14.0","3Y5140Z9DY2P932BJQ8EAXQFXXZPIP","A3UMFQFJ8HE82I","382GHPVPHSDM8N0F9141EAH7F0K34Z","","2016.9000000059605","img/food2.png","74","2017.5999999940395","1","1","3","1","1,0.5,0,1,0.5,0,0.5,0,1","0,1,0.5,0,1,0.5,1,0.5,0","3","",""
"","html-keyboard-response","15","68101","0.0-15.0","3Y5140Z9DY2P932BJQ8EAXQFXXZPIP","A3UMFQFJ8HE82I","382GHPVPHSDM8N0F9141EAH7F0K34Z","","null","<img src=""img/food2.png"" style=""width:200px; border:14px solid green;"">","null","","","","","","","","","",""
"","image-keyboard-response","16","69176","0.0-16.0","3Y5140Z9DY2P932BJQ8EAXQFXXZPIP","A3UMFQFJ8HE82I","382GHPVPHSDM8N0F9141EAH7F0K34Z","","1073.800000011921","img/food3.png","76","1074.2999999821186","3","1","1","1","1,0.5,0,1,0.5,0,0.5,0,1","0,1,0.5,0,1,0.5,1,0.5,0","3","",""
"","html-keyboard-response","17","69477","0.0-17.0","3Y5140Z9DY2P932BJQ8EAXQFXXZPIP","A3UMFQFJ8HE82I","382GHPVPHSDM8N0F9141EAH7F0K34Z","","null","<img src=""img/food3.png"" style=""width:200px; border:14px solid green;"">","null","","","","","","","","","",""
"","image-keyboard-response","18","70327","0.0-18.0","3Y5140Z9DY2P932BJQ8EAXQFXXZPIP","A3UMFQFJ8HE82I","382GHPVPHSDM8N0F9141EAH7F0K34Z","","848.7999999821186","img/food6.png","75","849.4000000059605","2","1","2","1","1,0.5,0,1,0.5,0,0.5,0,1","0,1,0.5,0,1,0.5,1,0.5,0","3","",""
"","html-keyboard-response","19","70629","0.0-19.0","3Y5140Z9DY2P932BJQ8EAXQFXXZPIP","A3UMFQFJ8HE82I","382GHPVPHSDM8N0F9141EAH7F0K34Z","","null","<img src=""img/food6.png"" style=""width:200px; border:14px solid green;"">","null","","","","","","","","","",""
"","image-keyboard-response","20","71384","0.0-20.0","3Y5140Z9DY2P932BJQ8EAXQFXXZPIP","A3UMFQFJ8HE82I","382GHPVPHSDM8N0F9141EAH7F0K34Z","","754.5","img/food2.png","74","755.1999999880791","1","1","3","1","1,0.5,0,1,0.5,0,0.5,0,1","0,1,0.5,0,1,0.5,1,0.5,0","3","",""
"","html-keyboard-response","21","71686","0.0-21.0","3Y5140Z9DY2P932BJQ8EAXQFXXZPIP","A3UMFQFJ8HE82I","382GHPVPHSDM8N0F9141EAH7F0K34Z","","null","<img src=""img/food2.png"" style=""width:200px; border:14px solid green;"">","null","","","","","","","","","",""
"","image-keyboard-response","22","72679","0.0-22.0","3Y5140Z9DY2P932BJQ8EAXQFXXZPIP","A3UMFQFJ8HE82I","382GHPVPHSDM8N0F9141EAH7F0K34Z","","992.2000000178814","img/food2.png","74","993","1","1","3","1","1,0.5,0,1,0.5,0,0.5,0,1","0,1,0.5,0,1,0.5,1,0.5,0","3","",""
"","html-keyboard-response","23","72986","0.0-23.0","3Y5140Z9DY2P932BJQ8EAXQFXXZPIP","A3UMFQFJ8HE82I","382GHPVPHSDM8N0F9141EAH7F0K34Z","","null","<img src=""img/food2.png"" style=""width:200px; border:14px solid green;"">","null","","","","","","","","","",""
"","image-keyboard-response","24","73879","0.0-24.0","3Y5140Z9DY2P932BJQ8EAXQFXXZPIP","A3UMFQFJ8HE82I","382GHPVPHSDM8N0F9141EAH7F0K34Z","","892.0999999940395","img/food6.png","75","892.5999999940395","2","1","2","1","1,0.5,0,1,0.5,0,0.5,0,1","0,1,0.5,0,1,0.5,1,0.5,0","3","",""
"","html-keyboard-response","25","74182","0.0-25.0","3Y5140Z9DY2P932BJQ8EAXQFXXZPIP","A3UMFQFJ8HE82I","382GHPVPHSDM8N0F9141EAH7F0K34Z","","null","<img src=""img/food6.png"" style=""width:200px; border:14px solid green;"">","null","","","","","","","","","",""
"","image-keyboard-response","26","74983","0.0-26.0","3Y5140Z9DY2P932BJQ8EAXQFXXZPIP","A3UMFQFJ8HE82I","382GHPVPHSDM8N0F9141EAH7F0K34Z","","800.6000000238419","img/food3.png","76","801.5","3","0","1","1","1,0.5,0,1,0.5,0,0.5,0,1","0,1,0.5,0,1,0.5,1,0.5,0","3","",""
"","html-keyboard-response","27","75285","0.0-27.0","3Y5140Z9DY2P932BJQ8EAXQFXXZPIP","A3UMFQFJ8HE82I","382GHPVPHSDM8N0F9141EAH7F0K34Z","","null","<img src=""img/food3.png"" style=""width:200px;border:14px solid red;"">","null","","","","","","","","","",""
"","image-keyboard-response","28","76231","0.0-28.0","3Y5140Z9DY2P932BJQ8EAXQFXXZPIP","A3UMFQFJ8HE82I","382GHPVPHSDM8N0F9141EAH7F0K34Z","","944.9000000059605","img/food2.png","74","945.6999999880791","1","1","3","1","1,0.5,0,1,0.5,0,0.5,0,1","0,1,0.5,0,1,0.5,1,0.5,0","3","",""
"","html-keyboard-response","29","76533","0.0-29.0","3Y5140Z9DY2P932BJQ8EAXQFXXZPIP","A3UMFQFJ8HE82I","382GHPVPHSDM8N0F9141EAH7F0K34Z","","null","<img src=""img/food2.png"" style=""width:200px; border:14px solid green;"">","null","","","","","","","","","",""
"","image-keyboard-response","30","77639","0.0-30.0","3Y5140Z9DY2P932BJQ8EAXQFXXZPIP","A3UMFQFJ8HE82I","382GHPVPHSDM8N0F9141EAH7F0K34Z","","1105.2000000178814","img/food2.png","74","1105.699999988079","1","1","3","1","1,0.5,0,1,0.5,0,0.5,0,1","0,1,0.5,0,1,0.5,1,0.5,0","3","",""
"","html-keyboard-response","31","77941","0.0-31.0","3Y5140Z9DY2P932BJQ8EAXQFXXZPIP","A3UMFQFJ8HE82I","382GHPVPHSDM8N0F9141EAH7F0K34Z","","null","<img src=""img/food2.png"" style=""width:200px; border:14px solid green;"">","null","","","","","","","","","",""
"","image-keyboard-response","32","79031","0.0-32.0","3Y5140Z9DY2P932BJQ8EAXQFXXZPIP","A3UMFQFJ8HE82I","382GHPVPHSDM8N0F9141EAH7F0K34Z","","1089.300000011921","img/food3.png","76","1090.0999999940395","3","1","1","1","1,0.5,0,1,0.5,0,0.5,0,1","0,1,0.5,0,1,0.5,1,0.5,0","3","",""
"","html-keyboard-response","33","79333","0.0-33.0","3Y5140Z9DY2P932BJQ8EAXQFXXZPIP","A3UMFQFJ8HE82I","382GHPVPHSDM8N0F9141EAH7F0K34Z","","null","<img src=""img/food3.png"" style=""width:200px; border:14px solid green;"">","null","","","","","","","","","",""
"","image-keyboard-response","34","80168","0.0-34.0","3Y5140Z9DY2P932BJQ8EAXQFXXZPIP","A3UMFQFJ8HE82I","382GHPVPHSDM8N0F9141EAH7F0K34Z","","833.4000000059605","img/food3.png","76","834","3","1","1","1","1,0.5,0,1,0.5,0,0.5,0,1","0,1,0.5,0,1,0.5,1,0.5,0","3","",""
"","html-keyboard-response","35","80469","0.0-35.0","3Y5140Z9DY2P932BJQ8EAXQFXXZPIP","A3UMFQFJ8HE82I","382GHPVPHSDM8N0F9141EAH7F0K34Z","","null","<img src=""img/food3.png"" style=""width:200px; border:14px solid green;"">","null","","","","","","","","","",""
"","image-keyboard-response","36","81319","0.0-36.0","3Y5140Z9DY2P932BJQ8EAXQFXXZPIP","A3UMFQFJ8HE82I","382GHPVPHSDM8N0F9141EAH7F0K34Z","","849.0999999940395","img/food6.png","75","849.9000000059605","2","1","2","1","1,0.5,0,1,0.5,0,0.5,0,1","0,1,0.5,0,1,0.5,1,0.5,0","3","",""
"","html-keyboard-response","37","81629","0.0-37.0","3Y5140Z9DY2P932BJQ8EAXQFXXZPIP","A3UMFQFJ8HE82I","382GHPVPHSDM8N0F9141EAH7F0K34Z","","null","<img src=""img/food6.png"" style=""width:200px; border:14px solid green;"">","null","","","","","","","","","",""
"","image-keyboard-response","38","82408","0.0-38.0","3Y5140Z9DY2P932BJQ8EAXQFXXZPIP","A3UMFQFJ8HE82I","382GHPVPHSDM8N0F9141EAH7F0K34Z","","777.5999999940395","img/food2.png","74","778.2999999821186","1","1","3","1","1,0.5,0,1,0.5,0,0.5,0,1","0,1,0.5,0,1,0.5,1,0.5,0","3","",""
"","html-keyboard-response","39","82715","0.0-39.0","3Y5140Z9DY2P932BJQ8EAXQFXXZPIP","A3UMFQFJ8HE82I","382GHPVPHSDM8N0F9141EAH7F0K34Z","","null","<img src=""img/food2.png"" style=""width:200px; border:14px solid green;"">","null","","","","","","","","","",""
"","image-keyboard-response","40","83255","0.0-40.0","3Y5140Z9DY2P932BJQ8EAXQFXXZPIP","A3UMFQFJ8HE82I","382GHPVPHSDM8N0F9141EAH7F0K34Z","","538.5999999940395","img/food2.png","74","539.2999999821186","1","1","3","1","1,0.5,0,1,0.5,0,0.5,0,1","0,1,0.5,0,1,0.5,1,0.5,0","3","",""
"","html-keyboard-response","41","83556","0.0-41.0","3Y5140Z9DY2P932BJQ8EAXQFXXZPIP","A3UMFQFJ8HE82I","382GHPVPHSDM8N0F9141EAH7F0K34Z","","null","<img src=""img/food2.png"" style=""width:200px; border:14px solid green;"">","null","","","","","","","","","",""
"","image-keyboard-response","42","83976","0.0-42.0","3Y5140Z9DY2P932BJQ8EAXQFXXZPIP","A3UMFQFJ8HE82I","382GHPVPHSDM8N0F9141EAH7F0K34Z","","419.59999999403954","img/food2.png","74","420.30000001192093","1","1","3","1","1,0.5,0,1,0.5,0,0.5,0,1","0,1,0.5,0,1,0.5,1,0.5,0","3","",""
"","html-keyboard-response","43","84279","0.0-43.0","3Y5140Z9DY2P932BJQ8EAXQFXXZPIP","A3UMFQFJ8HE82I","382GHPVPHSDM8N0F9141EAH7F0K34Z","","null","<img src=""img/food2.png"" style=""width:200px; border:14px solid green;"">","null","","","","","","","","","",""
"","image-keyboard-response","44","85111","0.0-44.0","3Y5140Z9DY2P932BJQ8EAXQFXXZPIP","A3UMFQFJ8HE82I","382GHPVPHSDM8N0F9141EAH7F0K34Z","","831.5999999940395","img/food6.png","75","832.2000000178814","2","1","2","1","1,0.5,0,1,0.5,0,0.5,0,1","0,1,0.5,0,1,0.5,1,0.5,0","3","",""
"","html-keyboard-response","45","85414","0.0-45.0","3Y5140Z9DY2P932BJQ8EAXQFXXZPIP","A3UMFQFJ8HE82I","382GHPVPHSDM8N0F9141EAH7F0K34Z","","null","<img src=""img/food6.png"" style=""width:200px; border:14px solid green;"">","null","","","","","","","","","",""
"","image-keyboard-response","46","86118","0.0-46.0","3Y5140Z9DY2P932BJQ8EAXQFXXZPIP","A3UMFQFJ8HE82I","382GHPVPHSDM8N0F9141EAH7F0K34Z","","703.3999999761581","img/food3.png","76","704.0999999940395","3","1","1","1","1,0.5,0,1,0.5,0,0.5,0,1","0,1,0.5,0,1,0.5,1,0.5,0","3","",""
"","html-keyboard-response","47","86420","0.0-47.0","3Y5140Z9DY2P932BJQ8EAXQFXXZPIP","A3UMFQFJ8HE82I","382GHPVPHSDM8N0F9141EAH7F0K34Z","","null","<img src=""img/food3.png"" style=""width:200px; border:14px solid green;"">","null","","","","","","","","","",""
"","image-keyboard-response","48","87094","0.0-48.0","3Y5140Z9DY2P932BJQ8EAXQFXXZPIP","A3UMFQFJ8HE82I","382GHPVPHSDM8N0F9141EAH7F0K34Z","","673.7000000178814","img/food6.png","75","674.3000000119209","2","1","2","1","1,0.5,0,1,0.5,0,0.5,0,1","0,1,0.5,0,1,0.5,1,0.5,0","3","",""
"","html-keyboard-response","49","87395","0.0-49.0","3Y5140Z9DY2P932BJQ8EAXQFXXZPIP","A3UMFQFJ8HE82I","382GHPVPHSDM8N0F9141EAH7F0K34Z","","null","<img src=""img/food6.png"" style=""width:200px; border:14px solid green;"">","null","","","","","","","","","",""
"","image-keyboard-response","50","88055","0.0-50.0","3Y5140Z9DY2P932BJQ8EAXQFXXZPIP","A3UMFQFJ8HE82I","382GHPVPHSDM8N0F9141EAH7F0K34Z","","658.3000000119209","img/food6.png","75","659.1000000238419","2","1","2","1","1,0.5,0,1,0.5,0,0.5,0,1","0,1,0.5,0,1,0.5,1,0.5,0","3","",""
"","html-keyboard-response","51","88356","0.0-51.0","3Y5140Z9DY2P932BJQ8EAXQFXXZPIP","A3UMFQFJ8HE82I","382GHPVPHSDM8N0F9141EAH7F0K34Z","","null","<img src=""img/food6.png"" style=""width:200px; border:14px solid green;"">","null","","","","","","","","","",""
"","image-keyboard-response","52","88966","0.0-52.0","3Y5140Z9DY2P932BJQ8EAXQFXXZPIP","A3UMFQFJ8HE82I","382GHPVPHSDM8N0F9141EAH7F0K34Z","","609.1999999880791","img/food2.png","74","609.9000000059605","1","1","3","1","1,0.5,0,1,0.5,0,0.5,0,1","0,1,0.5,0,1,0.5,1,0.5,0","3","",""
"","html-keyboard-response","53","89268","0.0-53.0","3Y5140Z9DY2P932BJQ8EAXQFXXZPIP","A3UMFQFJ8HE82I","382GHPVPHSDM8N0F9141EAH7F0K34Z","","null","<img src=""img/food2.png"" style=""width:200px; border:14px solid green;"">","null","","","","","","","","","",""
"","image-keyboard-response","54","90006","0.0-54.0","3Y5140Z9DY2P932BJQ8EAXQFXXZPIP","A3UMFQFJ8HE82I","382GHPVPHSDM8N0F9141EAH7F0K34Z","","737.6999999880791","img/food3.png","76","738.3000000119209","3","0","1","1","1,0.5,0,1,0.5,0,0.5,0,1","0,1,0.5,0,1,0.5,1,0.5,0","3","",""
"","html-keyboard-response","55","90308","0.0-55.0","3Y5140Z9DY2P932BJQ8EAXQFXXZPIP","A3UMFQFJ8HE82I","382GHPVPHSDM8N0F9141EAH7F0K34Z","","null","<img src=""img/food3.png"" style=""width:200px;border:14px solid red;"">","null","","","","","","","","","",""
"","image-keyboard-response","56","90966","0.0-56.0","3Y5140Z9DY2P932BJQ8EAXQFXXZPIP","A3UMFQFJ8HE82I","382GHPVPHSDM8N0F9141EAH7F0K34Z","","657.7000000178814","img/food6.png","75","658.2000000178814","2","1","2","1","1,0.5,0,1,0.5,0,0.5,0,1","0,1,0.5,0,1,0.5,1,0.5,0","3","",""
"","html-keyboard-response","57","91268","0.0-57.0","3Y5140Z9DY2P932BJQ8EAXQFXXZPIP","A3UMFQFJ8HE82I","382GHPVPHSDM8N0F9141EAH7F0K34Z","","null","<img src=""img/food6.png"" style=""width:200px; border:14px solid green;"">","null","","","","","","","","","",""
"","image-keyboard-response","58","91702","0.0-58.0","3Y5140Z9DY2P932BJQ8EAXQFXXZPIP","A3UMFQFJ8HE82I","382GHPVPHSDM8N0F9141EAH7F0K34Z","","433.5","img/food6.png","75","434","2","1","2","1","1,0.5,0,1,0.5,0,0.5,0,1","0,1,0.5,0,1,0.5,1,0.5,0","3","",""
"","html-keyboard-response","59","92005","0.0-59.0","3Y5140Z9DY2P932BJQ8EAXQFXXZPIP","A3UMFQFJ8HE82I","382GHPVPHSDM8N0F9141EAH7F0K34Z","","null","<img src=""img/food6.png"" style=""width:200px; border:14px solid green;"">","null","","","","","","","","","",""
"","image-keyboard-response","60","92919","0.0-60.0","3Y5140Z9DY2P932BJQ8EAXQFXXZPIP","A3UMFQFJ8HE82I","382GHPVPHSDM8N0F9141EAH7F0K34Z","","913.2000000178814","img/food3.png","74","913.9000000059605","1","0","1","1","1,0.5,0,1,0.5,0,0.5,0,1","0,1,0.5,0,1,0.5,1,0.5,0","3","",""
"","html-keyboard-response","61","93220","0.0-61.0","3Y5140Z9DY2P932BJQ8EAXQFXXZPIP","A3UMFQFJ8HE82I","382GHPVPHSDM8N0F9141EAH7F0K34Z","","null","<img src=""img/food3.png"" style=""width:200px;border:14px solid red;"">","null","","","","","","","","","",""
"","image-keyboard-response","62","93479","0.0-62.0","3Y5140Z9DY2P932BJQ8EAXQFXXZPIP","A3UMFQFJ8HE82I","382GHPVPHSDM8N0F9141EAH7F0K34Z","","258.30000001192093","img/food3.png","76","259","3","1","1","1","1,0.5,0,1,0.5,0,0.5,0,1","0,1,0.5,0,1,0.5,1,0.5,0","3","",""
"","html-keyboard-response","63","93781","0.0-63.0","3Y5140Z9DY2P932BJQ8EAXQFXXZPIP","A3UMFQFJ8HE82I","382GHPVPHSDM8N0F9141EAH7F0K34Z","","null","<img src=""img/food3.png"" style=""width:200px; border:14px solid green;"">","null","","","","","","","","","",""
"","image-keyboard-response","64","94662","0.0-64.0","3Y5140Z9DY2P932BJQ8EAXQFXXZPIP","A3UMFQFJ8HE82I","382GHPVPHSDM8N0F9141EAH7F0K34Z","","880.7999999821186","img/food2.png","74","881.4000000059605","1","1","3","1","1,0.5,0,1,0.5,0,0.5,0,1","0,1,0.5,0,1,0.5,1,0.5,0","3","",""
"","html-keyboard-response","65","94965","0.0-65.0","3Y5140Z9DY2P932BJQ8EAXQFXXZPIP","A3UMFQFJ8HE82I","382GHPVPHSDM8N0F9141EAH7F0K34Z","","null","<img src=""img/food2.png"" style=""width:200px; border:14px solid green;"">","null","","","","","","","","","",""
"","image-keyboard-response","66","95655","0.0-66.0","3Y5140Z9DY2P932BJQ8EAXQFXXZPIP","A3UMFQFJ8HE82I","382GHPVPHSDM8N0F9141EAH7F0K34Z","","689.8000000119209","img/food2.png","74","690.5","1","1","3","1","1,0.5,0,1,0.5,0,0.5,0,1","0,1,0.5,0,1,0.5,1,0.5,0","3","",""
"","html-keyboard-response","67","95957","0.0-67.0","3Y5140Z9DY2P932BJQ8EAXQFXXZPIP","A3UMFQFJ8HE82I","382GHPVPHSDM8N0F9141EAH7F0K34Z","","null","<img src=""img/food2.png"" style=""width:200px; border:14px solid green;"">","null","","","","","","","","","",""
"","image-keyboard-response","68","96726","0.0-68.0","3Y5140Z9DY2P932BJQ8EAXQFXXZPIP","A3UMFQFJ8HE82I","382GHPVPHSDM8N0F9141EAH7F0K34Z","","768.5","img/food6.png","75","769.4000000059605","2","1","2","1","1,0.5,0,1,0.5,0,0.5,0,1","0,1,0.5,0,1,0.5,1,0.5,0","3","",""
"","html-keyboard-response","69","97029","0.0-69.0","3Y5140Z9DY2P932BJQ8EAXQFXXZPIP","A3UMFQFJ8HE82I","382GHPVPHSDM8N0F9141EAH7F0K34Z","","null","<img src=""img/food6.png"" style=""width:200px; border:14px solid green;"">","null","","","","","","","","","",""
"","image-keyboard-response","70","97494","0.0-70.0","3Y5140Z9DY2P932BJQ8EAXQFXXZPIP","A3UMFQFJ8HE82I","382GHPVPHSDM8N0F9141EAH7F0K34Z","","464.2999999821186","img/food6.png","75","465.09999999403954","2","1","2","1","1,0.5,0,1,0.5,0,0.5,0,1","0,1,0.5,0,1,0.5,1,0.5,0","3","",""
"","html-keyboard-response","71","97795","0.0-71.0","3Y5140Z9DY2P932BJQ8EAXQFXXZPIP","A3UMFQFJ8HE82I","382GHPVPHSDM8N0F9141EAH7F0K34Z","","null","<img src=""img/food6.png"" style=""width:200px; border:14px solid green;"">","null","","","","","","","","","",""
"","image-keyboard-response","72","98391","0.0-72.0","3Y5140Z9DY2P932BJQ8EAXQFXXZPIP","A3UMFQFJ8HE82I","382GHPVPHSDM8N0F9141EAH7F0K34Z","","594.8000000119209","img/food2.png","74","595.4000000059605","1","1","3","1","1,0.5,0,1,0.5,0,0.5,0,1","0,1,0.5,0,1,0.5,1,0.5,0","3","",""
"","html-keyboard-response","73","98693","0.0-73.0","3Y5140Z9DY2P932BJQ8EAXQFXXZPIP","A3UMFQFJ8HE82I","382GHPVPHSDM8N0F9141EAH7F0K34Z","","null","<img src=""img/food2.png"" style=""width:200px; border:14px solid green;"">","null","","","","","","","","","",""
"","image-keyboard-response","74","99574","0.0-74.0","3Y5140Z9DY2P932BJQ8EAXQFXXZPIP","A3UMFQFJ8HE82I","382GHPVPHSDM8N0F9141EAH7F0K34Z","","880.5","img/food3.png","75","881.0999999940395","2","1","1","1","1,0.5,0,1,0.5,0,0.5,0,1","0,1,0.5,0,1,0.5,1,0.5,0","3","",""
"","html-keyboard-response","75","99876","0.0-75.0","3Y5140Z9DY2P932BJQ8EAXQFXXZPIP","A3UMFQFJ8HE82I","382GHPVPHSDM8N0F9141EAH7F0K34Z","","null","<img src=""img/food3.png"" style=""width:200px; border:14px solid green;"">","null","","","","","","","","","",""
"","image-keyboard-response","76","100518","0.0-76.0","3Y5140Z9DY2P932BJQ8EAXQFXXZPIP","A3UMFQFJ8HE82I","382GHPVPHSDM8N0F9141EAH7F0K34Z","","641.5","img/food2.png","74","642.0999999940395","1","1","3","1","1,0.5,0,1,0.5,0,0.5,0,1","0,1,0.5,0,1,0.5,1,0.5,0","3","",""
"","html-keyboard-response","77","100820","0.0-77.0","3Y5140Z9DY2P932BJQ8EAXQFXXZPIP","A3UMFQFJ8HE82I","382GHPVPHSDM8N0F9141EAH7F0K34Z","","null","<img src=""img/food2.png"" style=""width:200px; border:14px solid green;"">","null","","","","","","","","","",""
"","image-keyboard-response","78","101510","0.0-78.0","3Y5140Z9DY2P932BJQ8EAXQFXXZPIP","A3UMFQFJ8HE82I","382GHPVPHSDM8N0F9141EAH7F0K34Z","","689.6999999880791","img/food3.png","75","690.5","2","1","1","1","1,0.5,0,1,0.5,0,0.5,0,1","0,1,0.5,0,1,0.5,1,0.5,0","3","",""
"","html-keyboard-response","79","101819","0.0-79.0","3Y5140Z9DY2P932BJQ8EAXQFXXZPIP","A3UMFQFJ8HE82I","382GHPVPHSDM8N0F9141EAH7F0K34Z","","null","<img src=""img/food3.png"" style=""width:200px; border:14px solid green;"">","null","","","","","","","","","",""
"","image-keyboard-response","80","102262","0.0-80.0","3Y5140Z9DY2P932BJQ8EAXQFXXZPIP","A3UMFQFJ8HE82I","382GHPVPHSDM8N0F9141EAH7F0K34Z","","442.90000000596046","img/food2.png","74","443.39999997615814","1","1","3","1","1,0.5,0,1,0.5,0,0.5,0,1","0,1,0.5,0,1,0.5,1,0.5,0","3","",""
"","html-keyboard-response","81","102565","0.0-81.0","3Y5140Z9DY2P932BJQ8EAXQFXXZPIP","A3UMFQFJ8HE82I","382GHPVPHSDM8N0F9141EAH7F0K34Z","","null","<img src=""img/food2.png"" style=""width:200px; border:14px solid green;"">","null","","","","","","","","","",""
"","image-keyboard-response","82","102982","0.0-82.0","3Y5140Z9DY2P932BJQ8EAXQFXXZPIP","A3UMFQFJ8HE82I","382GHPVPHSDM8N0F9141EAH7F0K34Z","","412.40000000596046","img/food3.png","75","415.5","2","1","1","1","1,0.5,0,1,0.5,0,0.5,0,1","0,1,0.5,0,1,0.5,1,0.5,0","3","",""
"","html-keyboard-response","83","103284","0.0-83.0","3Y5140Z9DY2P932BJQ8EAXQFXXZPIP","A3UMFQFJ8HE82I","382GHPVPHSDM8N0F9141EAH7F0K34Z","","null","<img src=""img/food3.png"" style=""width:200px; border:14px solid green;"">","null","","","","","","","","","",""
"","image-keyboard-response","84","103575","0.0-84.0","3Y5140Z9DY2P932BJQ8EAXQFXXZPIP","A3UMFQFJ8HE82I","382GHPVPHSDM8N0F9141EAH7F0K34Z","","290.40000000596046","img/food6.png","74","290.89999997615814","1","0","2","1","1,0.5,0,1,0.5,0,0.5,0,1","0,1,0.5,0,1,0.5,1,0.5,0","3","",""
"","html-keyboard-response","85","103877","0.0-85.0","3Y5140Z9DY2P932BJQ8EAXQFXXZPIP","A3UMFQFJ8HE82I","382GHPVPHSDM8N0F9141EAH7F0K34Z","","null","<img src=""img/food6.png"" style=""width:200px;border:14px solid red;"">","null","","","","","","","","","",""
"","image-keyboard-response","86","104278","0.0-86.0","3Y5140Z9DY2P932BJQ8EAXQFXXZPIP","A3UMFQFJ8HE82I","382GHPVPHSDM8N0F9141EAH7F0K34Z","","400.19999998807907","img/food6.png","76","400.69999998807907","3","1","2","1","1,0.5,0,1,0.5,0,0.5,0,1","0,1,0.5,0,1,0.5,1,0.5,0","3","",""
"","html-keyboard-response","87","104581","0.0-87.0","3Y5140Z9DY2P932BJQ8EAXQFXXZPIP","A3UMFQFJ8HE82I","382GHPVPHSDM8N0F9141EAH7F0K34Z","","null","<img src=""img/food6.png"" style=""width:200px; border:14px solid green;"">","null","","","","","","","","","",""
"","image-keyboard-response","88","104966","0.0-88.0","3Y5140Z9DY2P932BJQ8EAXQFXXZPIP","A3UMFQFJ8HE82I","382GHPVPHSDM8N0F9141EAH7F0K34Z","","384.2999999821186","img/food2.png","75","385.09999999403954","2","0","3","1","1,0.5,0,1,0.5,0,0.5,0,1","0,1,0.5,0,1,0.5,1,0.5,0","3","",""
"","html-keyboard-response","89","105268","0.0-89.0","3Y5140Z9DY2P932BJQ8EAXQFXXZPIP","A3UMFQFJ8HE82I","382GHPVPHSDM8N0F9141EAH7F0K34Z","","null","<img src=""img/food2.png"" style=""width:200px;border:14px solid red;"">","null","","","","","","","","","",""
"","image-keyboard-response","90","105767","0.0-90.0","3Y5140Z9DY2P932BJQ8EAXQFXXZPIP","A3UMFQFJ8HE82I","382GHPVPHSDM8N0F9141EAH7F0K34Z","","498","img/food6.png","75","498.5","2","1","2","1","1,0.5,0,1,0.5,0,0.5,0,1","0,1,0.5,0,1,0.5,1,0.5,0","3","",""
"","html-keyboard-response","91","106068","0.0-91.0","3Y5140Z9DY2P932BJQ8EAXQFXXZPIP","A3UMFQFJ8HE82I","382GHPVPHSDM8N0F9141EAH7F0K34Z","","null","<img src=""img/food6.png"" style=""width:200px; border:14px solid green;"">","null","","","","","","","","","",""
"","image-keyboard-response","92","107398","0.0-92.0","3Y5140Z9DY2P932BJQ8EAXQFXXZPIP","A3UMFQFJ8HE82I","382GHPVPHSDM8N0F9141EAH7F0K34Z","","1329.0999999940395","img/food3.png","75","1329.7999999821186","2","1","1","1","1,0.5,0,1,0.5,0,0.5,0,1","0,1,0.5,0,1,0.5,1,0.5,0","3","",""
"","html-keyboard-response","93","107700","0.0-93.0","3Y5140Z9DY2P932BJQ8EAXQFXXZPIP","A3UMFQFJ8HE82I","382GHPVPHSDM8N0F9141EAH7F0K34Z","","null","<img src=""img/food3.png"" style=""width:200px; border:14px solid green;"">","null","","","","","","","","","",""
"","image-keyboard-response","94","108870","0.0-94.0","3Y5140Z9DY2P932BJQ8EAXQFXXZPIP","A3UMFQFJ8HE82I","382GHPVPHSDM8N0F9141EAH7F0K34Z","","1168.9000000059605","img/food6.png","75","1169.5","2","1","2","1","1,0.5,0,1,0.5,0,0.5,0,1","0,1,0.5,0,1,0.5,1,0.5,0","3","",""
"","html-keyboard-response","95","109171","0.0-95.0","3Y5140Z9DY2P932BJQ8EAXQFXXZPIP","A3UMFQFJ8HE82I","382GHPVPHSDM8N0F9141EAH7F0K34Z","","null","<img src=""img/food6.png"" style=""width:200px; border:14px solid green;"">","null","","","","","","","","","",""
"","image-keyboard-response","96","109702","0.0-96.0","3Y5140Z9DY2P932BJQ8EAXQFXXZPIP","A3UMFQFJ8HE82I","382GHPVPHSDM8N0F9141EAH7F0K34Z","","530.4000000059605","img/food6.png","75","530.8999999761581","2","1","2","1","1,0.5,0,1,0.5,0,0.5,0,1","0,1,0.5,0,1,0.5,1,0.5,0","3","",""
"","html-keyboard-response","97","110003","0.0-97.0","3Y5140Z9DY2P932BJQ8EAXQFXXZPIP","A3UMFQFJ8HE82I","382GHPVPHSDM8N0F9141EAH7F0K34Z","","null","<img src=""img/food6.png"" style=""width:200px; border:14px solid green;"">","null","","","","","","","","","",""
"","image-keyboard-response","98","110758","0.0-98.0","3Y5140Z9DY2P932BJQ8EAXQFXXZPIP","A3UMFQFJ8HE82I","382GHPVPHSDM8N0F9141EAH7F0K34Z","","753.8000000119209","img/food2.png","74","754.4000000059605","1","1","3","1","1,0.5,0,1,0.5,0,0.5,0,1","0,1,0.5,0,1,0.5,1,0.5,0","3","",""
"","html-keyboard-response","99","111060","0.0-99.0","3Y5140Z9DY2P932BJQ8EAXQFXXZPIP","A3UMFQFJ8HE82I","382GHPVPHSDM8N0F9141EAH7F0K34Z","","null","<img src=""img/food2.png"" style=""width:200px; border:14px solid green;"">","null","","","","","","","","","",""
"","image-keyboard-response","100","114599","0.0-100.0","3Y5140Z9DY2P932BJQ8EAXQFXXZPIP","A3UMFQFJ8HE82I","382GHPVPHSDM8N0F9141EAH7F0K34Z","","3538.0999999940395","img/food3.png","76","3538.7999999821186","3","1","1","1","1,0.5,0,1,0.5,0,0.5,0,1","0,1,0.5,0,1,0.5,1,0.5,0","3","",""
"","html-keyboard-response","101","114900","0.0-101.0","3Y5140Z9DY2P932BJQ8EAXQFXXZPIP","A3UMFQFJ8HE82I","382GHPVPHSDM8N0F9141EAH7F0K34Z","","null","<img src=""img/food3.png"" style=""width:200px; border:14px solid green;"">","null","","","","","","","","","",""
"","image-keyboard-response","102","116487","0.0-102.0","3Y5140Z9DY2P932BJQ8EAXQFXXZPIP","A3UMFQFJ8HE82I","382GHPVPHSDM8N0F9141EAH7F0K34Z","","1585.7999999821186","img/food3.png","74","1586.5","1","0","1","1","1,0.5,0,1,0.5,0,0.5,0,1","0,1,0.5,0,1,0.5,1,0.5,0","3","",""
"","html-keyboard-response","103","116789","0.0-103.0","3Y5140Z9DY2P932BJQ8EAXQFXXZPIP","A3UMFQFJ8HE82I","382GHPVPHSDM8N0F9141EAH7F0K34Z","","null","<img src=""img/food3.png"" style=""width:200px;border:14px solid red;"">","null","","","","","","","","","",""
"","image-keyboard-response","104","117366","0.0-104.0","3Y5140Z9DY2P932BJQ8EAXQFXXZPIP","A3UMFQFJ8HE82I","382GHPVPHSDM8N0F9141EAH7F0K34Z","","576.5","img/food6.png","76","577.1000000238419","3","0","2","1","1,0.5,0,1,0.5,0,0.5,0,1","0,1,0.5,0,1,0.5,1,0.5,0","3","",""
"","html-keyboard-response","105","117668","0.0-105.0","3Y5140Z9DY2P932BJQ8EAXQFXXZPIP","A3UMFQFJ8HE82I","382GHPVPHSDM8N0F9141EAH7F0K34Z","","null","<img src=""img/food6.png"" style=""width:200px;border:14px solid red;"">","null","","","","","","","","","",""
"","image-keyboard-response","106","117846","0.0-106.0","3Y5140Z9DY2P932BJQ8EAXQFXXZPIP","A3UMFQFJ8HE82I","382GHPVPHSDM8N0F9141EAH7F0K34Z","","177.59999999403954","img/food2.png","75","178.19999998807907","2","1","3","1","1,0.5,0,1,0.5,0,0.5,0,1","0,1,0.5,0,1,0.5,1,0.5,0","3","",""
"","html-keyboard-response","107","118148","0.0-107.0","3Y5140Z9DY2P932BJQ8EAXQFXXZPIP","A3UMFQFJ8HE82I","382GHPVPHSDM8N0F9141EAH7F0K34Z","","null","<img src=""img/food2.png"" style=""width:200px; border:14px solid green;"">","null","","","","","","","","","",""
"","image-keyboard-response","108","118710","0.0-108.0","3Y5140Z9DY2P932BJQ8EAXQFXXZPIP","A3UMFQFJ8HE82I","382GHPVPHSDM8N0F9141EAH7F0K34Z","","561","img/food2.png","75","561.7000000178814","2","0","3","1","1,0.5,0,1,0.5,0,0.5,0,1","0,1,0.5,0,1,0.5,1,0.5,0","3","",""
"","html-keyboard-response","109","119011","0.0-109.0","3Y5140Z9DY2P932BJQ8EAXQFXXZPIP","A3UMFQFJ8HE82I","382GHPVPHSDM8N0F9141EAH7F0K34Z","","null","<img src=""img/food2.png"" style=""width:200px;border:14px solid red;"">","null","","","","","","","","","",""
"","image-keyboard-response","110","119334","0.0-110.0","3Y5140Z9DY2P932BJQ8EAXQFXXZPIP","A3UMFQFJ8HE82I","382GHPVPHSDM8N0F9141EAH7F0K34Z","","322.2000000178814","img/food3.png","74","322.59999999403954","1","0","1","1","1,0.5,0,1,0.5,0,0.5,0,1","0,1,0.5,0,1,0.5,1,0.5,0","3","",""
"","html-keyboard-response","111","119651","0.0-111.0","3Y5140Z9DY2P932BJQ8EAXQFXXZPIP","A3UMFQFJ8HE82I","382GHPVPHSDM8N0F9141EAH7F0K34Z","","null","<img src=""img/food3.png"" style=""width:200px;border:14px solid red;"">","null","","","","","","","","","",""
"","image-keyboard-response","112","120118","0.0-112.0","3Y5140Z9DY2P932BJQ8EAXQFXXZPIP","A3UMFQFJ8HE82I","382GHPVPHSDM8N0F9141EAH7F0K34Z","","466.2000000178814","img/food6.png","76","466.80000001192093","3","0","2","1","1,0.5,0,1,0.5,0,0.5,0,1","0,1,0.5,0,1,0.5,1,0.5,0","3","",""
"","html-keyboard-response","113","120420","0.0-113.0","3Y5140Z9DY2P932BJQ8EAXQFXXZPIP","A3UMFQFJ8HE82I","382GHPVPHSDM8N0F9141EAH7F0K34Z","","null","<img src=""img/food6.png"" style=""width:200px;border:14px solid red;"">","null","","","","","","","","","",""
"","image-keyboard-response","114","121030","0.0-114.0","3Y5140Z9DY2P932BJQ8EAXQFXXZPIP","A3UMFQFJ8HE82I","382GHPVPHSDM8N0F9141EAH7F0K34Z","","609.1999999880791","img/food3.png","75","610.0999999940395","2","1","1","1","1,0.5,0,1,0.5,0,0.5,0,1","0,1,0.5,0,1,0.5,1,0.5,0","3","",""
"","html-keyboard-response","115","121332","0.0-115.0","3Y5140Z9DY2P932BJQ8EAXQFXXZPIP","A3UMFQFJ8HE82I","382GHPVPHSDM8N0F9141EAH7F0K34Z","","null","<img src=""img/food3.png"" style=""width:200px; border:14px solid green;"">","null","","","","","","","","","",""
"","image-keyboard-response","116","122966","0.0-116.0","3Y5140Z9DY2P932BJQ8EAXQFXXZPIP","A3UMFQFJ8HE82I","382GHPVPHSDM8N0F9141EAH7F0K34Z","","1633","img/food2.png","74","1633.8999999761581","1","1","3","1","1,0.5,0,1,0.5,0,0.5,0,1","0,1,0.5,0,1,0.5,1,0.5,0","3","",""
"","html-keyboard-response","117","123268","0.0-117.0","3Y5140Z9DY2P932BJQ8EAXQFXXZPIP","A3UMFQFJ8HE82I","382GHPVPHSDM8N0F9141EAH7F0K34Z","","null","<img src=""img/food2.png"" style=""width:200px; border:14px solid green;"">","null","","","","","","","","","",""
"","image-keyboard-response","118","125958","0.0-118.0","3Y5140Z9DY2P932BJQ8EAXQFXXZPIP","A3UMFQFJ8HE82I","382GHPVPHSDM8N0F9141EAH7F0K34Z","","2688.7999999821186","img/food2.png","74","2689.5999999940395","1","1","3","1","1,0.5,0,1,0.5,0,0.5,0,1","0,1,0.5,0,1,0.5,1,0.5,0","3","",""
"","html-keyboard-response","119","126260","0.0-119.0","3Y5140Z9DY2P932BJQ8EAXQFXXZPIP","A3UMFQFJ8HE82I","382GHPVPHSDM8N0F9141EAH7F0K34Z","","null","<img src=""img/food2.png"" style=""width:200px; border:14px solid green;"">","null","","","","","","","","","",""
"","image-keyboard-response","120","127495","0.0-120.0","3Y5140Z9DY2P932BJQ8EAXQFXXZPIP","A3UMFQFJ8HE82I","382GHPVPHSDM8N0F9141EAH7F0K34Z","","1233.7000000178814","img/food2.png","74","1234.2999999821186","1","1","3","1","1,0.5,0,1,0.5,0,0.5,0,1","0,1,0.5,0,1,0.5,1,0.5,0","3","",""
"","html-keyboard-response","121","127796","0.0-121.0","3Y5140Z9DY2P932BJQ8EAXQFXXZPIP","A3UMFQFJ8HE82I","382GHPVPHSDM8N0F9141EAH7F0K34Z","","null","<img src=""img/food2.png"" style=""width:200px; border:14px solid green;"">","null","","","","","","","","","",""
"","image-keyboard-response","122","129046","0.0-122.0","3Y5140Z9DY2P932BJQ8EAXQFXXZPIP","A3UMFQFJ8HE82I","382GHPVPHSDM8N0F9141EAH7F0K34Z","","1247.699999988079","img/food3.png","76","1248.300000011921","3","0","1","1","1,0.5,0,1,0.5,0,0.5,0,1","0,1,0.5,0,1,0.5,1,0.5,0","3","",""
"","html-keyboard-response","123","129348","0.0-123.0","3Y5140Z9DY2P932BJQ8EAXQFXXZPIP","A3UMFQFJ8HE82I","382GHPVPHSDM8N0F9141EAH7F0K34Z","","null","<img src=""img/food3.png"" style=""width:200px;border:14px solid red;"">","null","","","","","","","","","",""
"","image-keyboard-response","124","129670","0.0-124.0","3Y5140Z9DY2P932BJQ8EAXQFXXZPIP","A3UMFQFJ8HE82I","382GHPVPHSDM8N0F9141EAH7F0K34Z","","320.90000000596046","img/food3.png","75","321.5","2","1","1","1","1,0.5,0,1,0.5,0,0.5,0,1","0,1,0.5,0,1,0.5,1,0.5,0","3","",""
"","html-keyboard-response","125","129972","0.0-125.0","3Y5140Z9DY2P932BJQ8EAXQFXXZPIP","A3UMFQFJ8HE82I","382GHPVPHSDM8N0F9141EAH7F0K34Z","","null","<img src=""img/food3.png"" style=""width:200px; border:14px solid green;"">","null","","","","","","","","","",""
"","image-keyboard-response","126","133478","0.0-126.0","3Y5140Z9DY2P932BJQ8EAXQFXXZPIP","A3UMFQFJ8HE82I","382GHPVPHSDM8N0F9141EAH7F0K34Z","","3505","img/food6.png","76","3505.7999999821186","3","0","2","1","1,0.5,0,1,0.5,0,0.5,0,1","0,1,0.5,0,1,0.5,1,0.5,0","3","",""
"","html-keyboard-response","127","133780","0.0-127.0","3Y5140Z9DY2P932BJQ8EAXQFXXZPIP","A3UMFQFJ8HE82I","382GHPVPHSDM8N0F9141EAH7F0K34Z","","null","<img src=""img/food6.png"" style=""width:200px;border:14px solid red;"">","null","","","","","","","","","",""
"","image-keyboard-response","128","135318","0.0-128.0","3Y5140Z9DY2P932BJQ8EAXQFXXZPIP","A3UMFQFJ8HE82I","382GHPVPHSDM8N0F9141EAH7F0K34Z","","1536.6000000238419","img/food2.png","74","1537.2999999821186","1","1","3","1","1,0.5,0,1,0.5,0,0.5,0,1","0,1,0.5,0,1,0.5,1,0.5,0","3","",""
"","html-keyboard-response","129","135620","0.0-129.0","3Y5140Z9DY2P932BJQ8EAXQFXXZPIP","A3UMFQFJ8HE82I","382GHPVPHSDM8N0F9141EAH7F0K34Z","","null","<img src=""img/food2.png"" style=""width:200px; border:14px solid green;"">","null","","","","","","","","","",""
"","image-keyboard-response","130","138855","0.0-130.0","3Y5140Z9DY2P932BJQ8EAXQFXXZPIP","A3UMFQFJ8HE82I","382GHPVPHSDM8N0F9141EAH7F0K34Z","","3233.7000000178814","img/food2.png","74","3234.199999988079","1","1","3","1","1,0.5,0,1,0.5,0,0.5,0,1","0,1,0.5,0,1,0.5,1,0.5,0","3","",""
"","html-keyboard-response","131","139157","0.0-131.0","3Y5140Z9DY2P932BJQ8EAXQFXXZPIP","A3UMFQFJ8HE82I","382GHPVPHSDM8N0F9141EAH7F0K34Z","","null","<img src=""img/food2.png"" style=""width:200px; border:14px solid green;"">","null","","","","","","","","","",""
"","image-keyboard-response","132","141078","0.0-132.0","3Y5140Z9DY2P932BJQ8EAXQFXXZPIP","A3UMFQFJ8HE82I","382GHPVPHSDM8N0F9141EAH7F0K34Z","","1920.0999999940395","img/food2.png","74","1920.5999999940395","1","1","3","1","1,0.5,0,1,0.5,0,0.5,0,1","0,1,0.5,0,1,0.5,1,0.5,0","3","",""
"","html-keyboard-response","133","141379","0.0-133.0","3Y5140Z9DY2P932BJQ8EAXQFXXZPIP","A3UMFQFJ8HE82I","382GHPVPHSDM8N0F9141EAH7F0K34Z","","null","<img src=""img/food2.png"" style=""width:200px; border:14px solid green;"">","null","","","","","","","","","",""
"","image-keyboard-response","134","142262","0.0-134.0","3Y5140Z9DY2P932BJQ8EAXQFXXZPIP","A3UMFQFJ8HE82I","382GHPVPHSDM8N0F9141EAH7F0K34Z","","881.6000000238419","img/food6.png","75","882.1999999880791","2","1","2","1","1,0.5,0,1,0.5,0,0.5,0,1","0,1,0.5,0,1,0.5,1,0.5,0","3","",""
"","html-keyboard-response","135","142563","0.0-135.0","3Y5140Z9DY2P932BJQ8EAXQFXXZPIP","A3UMFQFJ8HE82I","382GHPVPHSDM8N0F9141EAH7F0K34Z","","null","<img src=""img/food6.png"" style=""width:200px; border:14px solid green;"">","null","","","","","","","","","",""
"","image-keyboard-response","136","143606","0.0-136.0","3Y5140Z9DY2P932BJQ8EAXQFXXZPIP","A3UMFQFJ8HE82I","382GHPVPHSDM8N0F9141EAH7F0K34Z","","1041.5","img/food6.png","75","1042.0999999940395","2","1","2","1","1,0.5,0,1,0.5,0,0.5,0,1","0,1,0.5,0,1,0.5,1,0.5,0","3","",""
"","html-keyboard-response","137","143907","0.0-137.0","3Y5140Z9DY2P932BJQ8EAXQFXXZPIP","A3UMFQFJ8HE82I","382GHPVPHSDM8N0F9141EAH7F0K34Z","","null","<img src=""img/food6.png"" style=""width:200px; border:14px solid green;"">","null","","","","","","","","","",""
"","image-keyboard-response","138","144790","0.0-138.0","3Y5140Z9DY2P932BJQ8EAXQFXXZPIP","A3UMFQFJ8HE82I","382GHPVPHSDM8N0F9141EAH7F0K34Z","","881.8000000119209","img/food3.png","76","882.2999999821186","3","0","1","1","1,0.5,0,1,0.5,0,0.5,0,1","0,1,0.5,0,1,0.5,1,0.5,0","3","",""
"","html-keyboard-response","139","145091","0.0-139.0","3Y5140Z9DY2P932BJQ8EAXQFXXZPIP","A3UMFQFJ8HE82I","382GHPVPHSDM8N0F9141EAH7F0K34Z","","null","<img src=""img/food3.png"" style=""width:200px;border:14px solid red;"">","null","","","","","","","","","",""
"","image-keyboard-response","140","145798","0.0-140.0","3Y5140Z9DY2P932BJQ8EAXQFXXZPIP","A3UMFQFJ8HE82I","382GHPVPHSDM8N0F9141EAH7F0K34Z","","705.9000000059605","img/food6.png","75","706.4000000059605","2","1","2","1","1,0.5,0,1,0.5,0,0.5,0,1","0,1,0.5,0,1,0.5,1,0.5,0","3","",""
"","html-keyboard-response","141","146099","0.0-141.0","3Y5140Z9DY2P932BJQ8EAXQFXXZPIP","A3UMFQFJ8HE82I","382GHPVPHSDM8N0F9141EAH7F0K34Z","","null","<img src=""img/food6.png"" style=""width:200px; border:14px solid green;"">","null","","","","","","","","","",""
"","image-keyboard-response","142","146725","0.0-142.0","3Y5140Z9DY2P932BJQ8EAXQFXXZPIP","A3UMFQFJ8HE82I","382GHPVPHSDM8N0F9141EAH7F0K34Z","","625.5999999940395","img/food6.png","75","626.3000000119209","2","1","2","1","1,0.5,0,1,0.5,0,0.5,0,1","0,1,0.5,0,1,0.5,1,0.5,0","3","",""
"","html-keyboard-response","143","147027","0.0-143.0","3Y5140Z9DY2P932BJQ8EAXQFXXZPIP","A3UMFQFJ8HE82I","382GHPVPHSDM8N0F9141EAH7F0K34Z","","null","<img src=""img/food6.png"" style=""width:200px; border:14px solid green;"">","null","","","","","","","","","",""
"","image-keyboard-response","144","147686","0.0-144.0","3Y5140Z9DY2P932BJQ8EAXQFXXZPIP","A3UMFQFJ8HE82I","382GHPVPHSDM8N0F9141EAH7F0K34Z","","657.5999999940395","img/food6.png","75","658.2999999821186","2","1","2","1","1,0.5,0,1,0.5,0,0.5,0,1","0,1,0.5,0,1,0.5,1,0.5,0","3","",""
"","html-keyboard-response","145","147988","0.0-145.0","3Y5140Z9DY2P932BJQ8EAXQFXXZPIP","A3UMFQFJ8HE82I","382GHPVPHSDM8N0F9141EAH7F0K34Z","","null","<img src=""img/food6.png"" style=""width:200px; border:14px solid green;"">","null","","","","","","","","","",""
"","image-keyboard-response","146","149254","0.0-146.0","3Y5140Z9DY2P932BJQ8EAXQFXXZPIP","A3UMFQFJ8HE82I","382GHPVPHSDM8N0F9141EAH7F0K34Z","","1265.199999988079","img/food3.png","75","1265.7999999821186","2","1","1","1","1,0.5,0,1,0.5,0,0.5,0,1","0,1,0.5,0,1,0.5,1,0.5,0","3","",""
"","html-keyboard-response","147","149556","0.0-147.0","3Y5140Z9DY2P932BJQ8EAXQFXXZPIP","A3UMFQFJ8HE82I","382GHPVPHSDM8N0F9141EAH7F0K34Z","","null","<img src=""img/food3.png"" style=""width:200px; border:14px solid green;"">","null","","","","","","","","","",""
"","image-keyboard-response","148","150085","0.0-148.0","3Y5140Z9DY2P932BJQ8EAXQFXXZPIP","A3UMFQFJ8HE82I","382GHPVPHSDM8N0F9141EAH7F0K34Z","","528.7999999821186","img/food3.png","75","529.3000000119209","2","1","1","1","1,0.5,0,1,0.5,0,0.5,0,1","0,1,0.5,0,1,0.5,1,0.5,0","3","",""
"","html-keyboard-response","149","150394","0.0-149.0","3Y5140Z9DY2P932BJQ8EAXQFXXZPIP","A3UMFQFJ8HE82I","382GHPVPHSDM8N0F9141EAH7F0K34Z","","null","<img src=""img/food3.png"" style=""width:200px; border:14px solid green;"">","null","","","","","","","","","",""
"","image-keyboard-response","150","151029","0.0-150.0","3Y5140Z9DY2P932BJQ8EAXQFXXZPIP","A3UMFQFJ8HE82I","382GHPVPHSDM8N0F9141EAH7F0K34Z","","634.0999999940395","img/food3.png","75","635.2000000178814","2","1","1","1","1,0.5,0,1,0.5,0,0.5,0,1","0,1,0.5,0,1,0.5,1,0.5,0","3","",""
"","html-keyboard-response","151","151331","0.0-151.0","3Y5140Z9DY2P932BJQ8EAXQFXXZPIP","A3UMFQFJ8HE82I","382GHPVPHSDM8N0F9141EAH7F0K34Z","","null","<img src=""img/food3.png"" style=""width:200px; border:14px solid green;"">","null","","","","","","","","","",""
"","image-keyboard-response","152","151909","0.0-152.0","3Y5140Z9DY2P932BJQ8EAXQFXXZPIP","A3UMFQFJ8HE82I","382GHPVPHSDM8N0F9141EAH7F0K34Z","","577.6999999880791","img/food2.png","74","578.3000000119209","1","1","3","1","1,0.5,0,1,0.5,0,0.5,0,1","0,1,0.5,0,1,0.5,1,0.5,0","3","",""
"","html-keyboard-response","153","152211","0.0-153.0","3Y5140Z9DY2P932BJQ8EAXQFXXZPIP","A3UMFQFJ8HE82I","382GHPVPHSDM8N0F9141EAH7F0K34Z","","null","<img src=""img/food2.png"" style=""width:200px; border:14px solid green;"">","null","","","","","","","","","",""
"","image-keyboard-response","154","152726","0.0-154.0","3Y5140Z9DY2P932BJQ8EAXQFXXZPIP","A3UMFQFJ8HE82I","382GHPVPHSDM8N0F9141EAH7F0K34Z","","513.9000000059605","img/food2.png","74","514.6999999880791","1","1","3","1","1,0.5,0,1,0.5,0,0.5,0,1","0,1,0.5,0,1,0.5,1,0.5,0","3","",""
"","html-keyboard-response","155","153030","0.0-155.0","3Y5140Z9DY2P932BJQ8EAXQFXXZPIP","A3UMFQFJ8HE82I","382GHPVPHSDM8N0F9141EAH7F0K34Z","","null","<img src=""img/food2.png"" style=""width:200px; border:14px solid green;"">","null","","","","","","","","","",""
"","image-keyboard-response","156","153525","0.0-156.0","3Y5140Z9DY2P932BJQ8EAXQFXXZPIP","A3UMFQFJ8HE82I","382GHPVPHSDM8N0F9141EAH7F0K34Z","","494.40000000596046","img/food2.png","74","495","1","1","3","1","1,0.5,0,1,0.5,0,0.5,0,1","0,1,0.5,0,1,0.5,1,0.5,0","3","",""
"","html-keyboard-response","157","153828","0.0-157.0","3Y5140Z9DY2P932BJQ8EAXQFXXZPIP","A3UMFQFJ8HE82I","382GHPVPHSDM8N0F9141EAH7F0K34Z","","null","<img src=""img/food2.png"" style=""width:200px; border:14px solid green;"">","null","","","","","","","","","",""
"","image-keyboard-response","158","154405","0.0-158.0","3Y5140Z9DY2P932BJQ8EAXQFXXZPIP","A3UMFQFJ8HE82I","382GHPVPHSDM8N0F9141EAH7F0K34Z","","577","img/food3.png","75","577.5","2","1","1","1","1,0.5,0,1,0.5,0,0.5,0,1","0,1,0.5,0,1,0.5,1,0.5,0","3","",""
"","html-keyboard-response","159","154708","0.0-159.0","3Y5140Z9DY2P932BJQ8EAXQFXXZPIP","A3UMFQFJ8HE82I","382GHPVPHSDM8N0F9141EAH7F0K34Z","","null","<img src=""img/food3.png"" style=""width:200px; border:14px solid green;"">","null","","","","","","","","","",""
"","image-keyboard-response","160","155573","0.0-160.0","3Y5140Z9DY2P932BJQ8EAXQFXXZPIP","A3UMFQFJ8HE82I","382GHPVPHSDM8N0F9141EAH7F0K34Z","","864.6999999880791","img/food6.png","75","865.3000000119209","2","1","2","1","1,0.5,0,1,0.5,0,0.5,0,1","0,1,0.5,0,1,0.5,1,0.5,0","3","",""
"","html-keyboard-response","161","155875","0.0-161.0","3Y5140Z9DY2P932BJQ8EAXQFXXZPIP","A3UMFQFJ8HE82I","382GHPVPHSDM8N0F9141EAH7F0K34Z","","null","<img src=""img/food6.png"" style=""width:200px; border:14px solid green;"">","null","","","","","","","","","",""
"","image-keyboard-response","162","156341","0.0-162.0","3Y5140Z9DY2P932BJQ8EAXQFXXZPIP","A3UMFQFJ8HE82I","382GHPVPHSDM8N0F9141EAH7F0K34Z","","466","img/food6.png","75","466.7000000178814","2","1","2","1","1,0.5,0,1,0.5,0,0.5,0,1","0,1,0.5,0,1,0.5,1,0.5,0","3","",""
"","html-keyboard-response","163","156643","0.0-163.0","3Y5140Z9DY2P932BJQ8EAXQFXXZPIP","A3UMFQFJ8HE82I","382GHPVPHSDM8N0F9141EAH7F0K34Z","","null","<img src=""img/food6.png"" style=""width:200px; border:14px solid green;"">","null","","","","","","","","","",""
"","image-keyboard-response","164","157045","0.0-164.0","3Y5140Z9DY2P932BJQ8EAXQFXXZPIP","A3UMFQFJ8HE82I","382GHPVPHSDM8N0F9141EAH7F0K34Z","","401.5","img/food6.png","75","402.40000000596046","2","1","2","1","1,0.5,0,1,0.5,0,0.5,0,1","0,1,0.5,0,1,0.5,1,0.5,0","3","",""
"","html-keyboard-response","165","157347","0.0-165.0","3Y5140Z9DY2P932BJQ8EAXQFXXZPIP","A3UMFQFJ8HE82I","382GHPVPHSDM8N0F9141EAH7F0K34Z","","null","<img src=""img/food6.png"" style=""width:200px; border:14px solid green;"">","null","","","","","","","","","",""
"","image-keyboard-response","166","157893","0.0-166.0","3Y5140Z9DY2P932BJQ8EAXQFXXZPIP","A3UMFQFJ8HE82I","382GHPVPHSDM8N0F9141EAH7F0K34Z","","545.4000000059605","img/food3.png","74","546","1","0","1","1","1,0.5,0,1,0.5,0,0.5,0,1","0,1,0.5,0,1,0.5,1,0.5,0","3","",""
"","html-keyboard-response","167","158207","0.0-167.0","3Y5140Z9DY2P932BJQ8EAXQFXXZPIP","A3UMFQFJ8HE82I","382GHPVPHSDM8N0F9141EAH7F0K34Z","","null","<img src=""img/food3.png"" style=""width:200px;border:14px solid red;"">","null","","","","","","","","","",""
"","image-keyboard-response","168","159029","0.0-168.0","3Y5140Z9DY2P932BJQ8EAXQFXXZPIP","A3UMFQFJ8HE82I","382GHPVPHSDM8N0F9141EAH7F0K34Z","","821.6999999880791","img/food6.png","75","822.6000000238419","2","1","2","1","1,0.5,0,1,0.5,0,0.5,0,1","0,1,0.5,0,1,0.5,1,0.5,0","3","",""
"","html-keyboard-response","169","159330","0.0-169.0","3Y5140Z9DY2P932BJQ8EAXQFXXZPIP","A3UMFQFJ8HE82I","382GHPVPHSDM8N0F9141EAH7F0K34Z","","null","<img src=""img/food6.png"" style=""width:200px; border:14px solid green;"">","null","","","","","","","","","",""
"","image-keyboard-response","170","159942","0.0-170.0","3Y5140Z9DY2P932BJQ8EAXQFXXZPIP","A3UMFQFJ8HE82I","382GHPVPHSDM8N0F9141EAH7F0K34Z","","610.7999999821186","img/food3.png","75","611.5999999940395","2","1","1","1","1,0.5,0,1,0.5,0,0.5,0,1","0,1,0.5,0,1,0.5,1,0.5,0","3","",""
"","html-keyboard-response","171","160244","0.0-171.0","3Y5140Z9DY2P932BJQ8EAXQFXXZPIP","A3UMFQFJ8HE82I","382GHPVPHSDM8N0F9141EAH7F0K34Z","","null","<img src=""img/food3.png"" style=""width:200px; border:14px solid green;"">","null","","","","","","","","","",""
"","image-keyboard-response","172","160853","0.0-172.0","3Y5140Z9DY2P932BJQ8EAXQFXXZPIP","A3UMFQFJ8HE82I","382GHPVPHSDM8N0F9141EAH7F0K34Z","","608.5","img/food3.png","75","609","2","1","1","1","1,0.5,0,1,0.5,0,0.5,0,1","0,1,0.5,0,1,0.5,1,0.5,0","3","",""
"","html-keyboard-response","173","161155","0.0-173.0","3Y5140Z9DY2P932BJQ8EAXQFXXZPIP","A3UMFQFJ8HE82I","382GHPVPHSDM8N0F9141EAH7F0K34Z","","null","<img src=""img/food3.png"" style=""width:200px; border:14px solid green;"">","null","","","","","","","","","",""
"","image-keyboard-response","174","161749","0.0-174.0","3Y5140Z9DY2P932BJQ8EAXQFXXZPIP","A3UMFQFJ8HE82I","382GHPVPHSDM8N0F9141EAH7F0K34Z","","593.8000000119209","img/food3.png","75","594.3999999761581","2","1","1","1","1,0.5,0,1,0.5,0,0.5,0,1","0,1,0.5,0,1,0.5,1,0.5,0","3","",""
"","html-keyboard-response","175","162052","0.0-175.0","3Y5140Z9DY2P932BJQ8EAXQFXXZPIP","A3UMFQFJ8HE82I","382GHPVPHSDM8N0F9141EAH7F0K34Z","","null","<img src=""img/food3.png"" style=""width:200px; border:14px solid green;"">","null","","","","","","","","","",""
"","image-keyboard-response","176","164677","0.0-176.0","3Y5140Z9DY2P932BJQ8EAXQFXXZPIP","A3UMFQFJ8HE82I","382GHPVPHSDM8N0F9141EAH7F0K34Z","","2624.7000000178814","img/food6.png","75","2625.4000000059605","2","1","2","1","1,0.5,0,1,0.5,0,0.5,0,1","0,1,0.5,0,1,0.5,1,0.5,0","3","",""
"","html-keyboard-response","177","164978","0.0-177.0","3Y5140Z9DY2P932BJQ8EAXQFXXZPIP","A3UMFQFJ8HE82I","382GHPVPHSDM8N0F9141EAH7F0K34Z","","null","<img src=""img/food6.png"" style=""width:200px; border:14px solid green;"">","null","","","","","","","","","",""
"","image-keyboard-response","178","167237","0.0-178.0","3Y5140Z9DY2P932BJQ8EAXQFXXZPIP","A3UMFQFJ8HE82I","382GHPVPHSDM8N0F9141EAH7F0K34Z","","2258","img/food2.png","74","2258.7999999821186","1","1","3","1","1,0.5,0,1,0.5,0,0.5,0,1","0,1,0.5,0,1,0.5,1,0.5,0","3","",""
"","html-keyboard-response","179","167539","0.0-179.0","3Y5140Z9DY2P932BJQ8EAXQFXXZPIP","A3UMFQFJ8HE82I","382GHPVPHSDM8N0F9141EAH7F0K34Z","","null","<img src=""img/food2.png"" style=""width:200px; border:14px solid green;"">","null","","","","","","","","","",""
"","image-keyboard-response","180","169205","0.0-180.0","3Y5140Z9DY2P932BJQ8EAXQFXXZPIP","A3UMFQFJ8HE82I","382GHPVPHSDM8N0F9141EAH7F0K34Z","","1664.9000000059605","img/food3.png","75","1665.5","2","1","1","1","1,0.5,0,1,0.5,0,0.5,0,1","0,1,0.5,0,1,0.5,1,0.5,0","3","",""
"","html-keyboard-response","181","169507","0.0-181.0","3Y5140Z9DY2P932BJQ8EAXQFXXZPIP","A3UMFQFJ8HE82I","382GHPVPHSDM8N0F9141EAH7F0K34Z","","null","<img src=""img/food3.png"" style=""width:200px; border:14px solid green;"">","null","","","","","","","","","",""
"","html-keyboard-response","182","179471","0.0-182.0","3Y5140Z9DY2P932BJQ8EAXQFXXZPIP","A3UMFQFJ8HE82I","382GHPVPHSDM8N0F9141EAH7F0K34Z","","","","","","","","","","","","","",""
"","instructions","183","219283","0.0-183.0","3Y5140Z9DY2P932BJQ8EAXQFXXZPIP","A3UMFQFJ8HE82I","382GHPVPHSDM8N0F9141EAH7F0K34Z","[{""page_index"":0,""viewing_time"":36148.80000001192},{""page_index"":1,""viewing_time"":3661.899999976158}]","39811","","","","","","","","","","","",""
"","image-keyboard-response","184","220285","0.0-184.0","3Y5140Z9DY2P932BJQ8EAXQFXXZPIP","A3UMFQFJ8HE82I","382GHPVPHSDM8N0F9141EAH7F0K34Z","","","img/food5.png","","1002.0999999940395","-1","0","2","2","1,0.5,0,1,0.5,0,0.5,0,1","1,0.5,0,1,0.5,0,0.5,0,1","1","true",""
"","html-keyboard-response","185","220587","0.0-185.0","3Y5140Z9DY2P932BJQ8EAXQFXXZPIP","A3UMFQFJ8HE82I","382GHPVPHSDM8N0F9141EAH7F0K34Z","","null","<img src=""img/food5.png"" style=""width:200px;border:14px solid red;"">","null","","","","","","","","","",""
"","html-keyboard-response","186","229264","0.0-186.0-0.0","3Y5140Z9DY2P932BJQ8EAXQFXXZPIP","A3UMFQFJ8HE82I","382GHPVPHSDM8N0F9141EAH7F0K34Z","","","","","","","","","","","","","",""
"","image-keyboard-response","187","229780","0.0-187.0","3Y5140Z9DY2P932BJQ8EAXQFXXZPIP","A3UMFQFJ8HE82I","382GHPVPHSDM8N0F9141EAH7F0K34Z","","514.5","img/food4.png","75","515.4000000059605","2","0","3","2","1,0.5,0,1,0.5,0,0.5,0,1","1,0.5,0,1,0.5,0,0.5,0,1","1","false",""
"","html-keyboard-response","188","230082","0.0-188.0","3Y5140Z9DY2P932BJQ8EAXQFXXZPIP","A3UMFQFJ8HE82I","382GHPVPHSDM8N0F9141EAH7F0K34Z","","null","<img src=""img/food4.png"" style=""width:200px;border:14px solid red;"">","null","","","","","","","","","",""
"","image-keyboard-response","189","230260","0.0-190.0","3Y5140Z9DY2P932BJQ8EAXQFXXZPIP","A3UMFQFJ8HE82I","382GHPVPHSDM8N0F9141EAH7F0K34Z","","177","img/food1.png","74","177.59999999403954","1","1","1","2","1,0.5,0,1,0.5,0,0.5,0,1","1,0.5,0,1,0.5,0,0.5,0,1","1","false",""
"","html-keyboard-response","190","230561","0.0-191.0","3Y5140Z9DY2P932BJQ8EAXQFXXZPIP","A3UMFQFJ8HE82I","382GHPVPHSDM8N0F9141EAH7F0K34Z","","null","<img src=""img/food1.png"" style=""width:200px; border:14px solid green;"">","null","","","","","","","","","",""
"","image-keyboard-response","191","230932","0.0-193.0","3Y5140Z9DY2P932BJQ8EAXQFXXZPIP","A3UMFQFJ8HE82I","382GHPVPHSDM8N0F9141EAH7F0K34Z","","369.5","img/food1.png","74","370.09999999403954","1","1","1","2","1,0.5,0,1,0.5,0,0.5,0,1","1,0.5,0,1,0.5,0,0.5,0,1","1","false",""
"","html-keyboard-response","192","231233","0.0-194.0","3Y5140Z9DY2P932BJQ8EAXQFXXZPIP","A3UMFQFJ8HE82I","382GHPVPHSDM8N0F9141EAH7F0K34Z","","null","<img src=""img/food1.png"" style=""width:200px; border:14px solid green;"">","null","","","","","","","","","",""
"","image-keyboard-response","193","231748","0.0-196.0","3Y5140Z9DY2P932BJQ8EAXQFXXZPIP","A3UMFQFJ8HE82I","382GHPVPHSDM8N0F9141EAH7F0K34Z","","513.6999999880791","img/food4.png","75","514.5999999940395","2","0","3","2","1,0.5,0,1,0.5,0,0.5,0,1","1,0.5,0,1,0.5,0,0.5,0,1","1","false",""
"","html-keyboard-response","194","232058","0.0-197.0","3Y5140Z9DY2P932BJQ8EAXQFXXZPIP","A3UMFQFJ8HE82I","382GHPVPHSDM8N0F9141EAH7F0K34Z","","null","<img src=""img/food4.png"" style=""width:200px;border:14px solid red;"">","null","","","","","","","","","",""
"","image-keyboard-response","195","232196","0.0-199.0","3Y5140Z9DY2P932BJQ8EAXQFXXZPIP","A3UMFQFJ8HE82I","382GHPVPHSDM8N0F9141EAH7F0K34Z","","137.10000002384186","img/food4.png","74","137.7999999821186","1","0","3","2","1,0.5,0,1,0.5,0,0.5,0,1","1,0.5,0,1,0.5,0,0.5,0,1","1","false",""
"","html-keyboard-response","196","232497","0.0-200.0","3Y5140Z9DY2P932BJQ8EAXQFXXZPIP","A3UMFQFJ8HE82I","382GHPVPHSDM8N0F9141EAH7F0K34Z","","null","<img src=""img/food4.png"" style=""width:200px;border:14px solid red;"">","null","","","","","","","","","",""
"","image-keyboard-response","197","233284","0.0-202.0","3Y5140Z9DY2P932BJQ8EAXQFXXZPIP","A3UMFQFJ8HE82I","382GHPVPHSDM8N0F9141EAH7F0K34Z","","785.9000000059605","img/food1.png","74","786.5","1","1","1","2","1,0.5,0,1,0.5,0,0.5,0,1","1,0.5,0,1,0.5,0,0.5,0,1","1","false",""
"","html-keyboard-response","198","233585","0.0-203.0","3Y5140Z9DY2P932BJQ8EAXQFXXZPIP","A3UMFQFJ8HE82I","382GHPVPHSDM8N0F9141EAH7F0K34Z","","null","<img src=""img/food1.png"" style=""width:200px; border:14px solid green;"">","null","","","","","","","","","",""
"","image-keyboard-response","199","234196","0.0-205.0","3Y5140Z9DY2P932BJQ8EAXQFXXZPIP","A3UMFQFJ8HE82I","382GHPVPHSDM8N0F9141EAH7F0K34Z","","609.5999999940395","img/food5.png","76","610.2000000178814","3","0","2","2","1,0.5,0,1,0.5,0,0.5,0,1","1,0.5,0,1,0.5,0,0.5,0,1","1","false",""
"","html-keyboard-response","200","234498","0.0-206.0","3Y5140Z9DY2P932BJQ8EAXQFXXZPIP","A3UMFQFJ8HE82I","382GHPVPHSDM8N0F9141EAH7F0K34Z","","null","<img src=""img/food5.png"" style=""width:200px;border:14px solid red;"">","null","","","","","","","","","",""
"","image-keyboard-response","201","234676","0.0-208.0","3Y5140Z9DY2P932BJQ8EAXQFXXZPIP","A3UMFQFJ8HE82I","382GHPVPHSDM8N0F9141EAH7F0K34Z","","173.90000000596046","img/food1.png","75","174.80000001192093","2","1","1","2","1,0.5,0,1,0.5,0,0.5,0,1","1,0.5,0,1,0.5,0,0.5,0,1","1","false",""
"","html-keyboard-response","202","234978","0.0-209.0","3Y5140Z9DY2P932BJQ8EAXQFXXZPIP","A3UMFQFJ8HE82I","382GHPVPHSDM8N0F9141EAH7F0K34Z","","null","<img src=""img/food1.png"" style=""width:200px; border:14px solid green;"">","null","","","","","","","","","",""
"","image-keyboard-response","203","235444","0.0-211.0","3Y5140Z9DY2P932BJQ8EAXQFXXZPIP","A3UMFQFJ8HE82I","382GHPVPHSDM8N0F9141EAH7F0K34Z","","464.39999997615814","img/food5.png","74","465.2000000178814","1","1","2","2","1,0.5,0,1,0.5,0,0.5,0,1","1,0.5,0,1,0.5,0,0.5,0,1","1","false",""
"","html-keyboard-response","204","235746","0.0-212.0","3Y5140Z9DY2P932BJQ8EAXQFXXZPIP","A3UMFQFJ8HE82I","382GHPVPHSDM8N0F9141EAH7F0K34Z","","null","<img src=""img/food5.png"" style=""width:200px; border:14px solid green;"">","null","","","","","","","","","",""
"","image-keyboard-response","205","236452","0.0-214.0","3Y5140Z9DY2P932BJQ8EAXQFXXZPIP","A3UMFQFJ8HE82I","382GHPVPHSDM8N0F9141EAH7F0K34Z","","704.6999999880791","img/food4.png","74","705.5","1","1","3","2","1,0.5,0,1,0.5,0,0.5,0,1","1,0.5,0,1,0.5,0,0.5,0,1","1","false",""
"","html-keyboard-response","206","236754","0.0-215.0","3Y5140Z9DY2P932BJQ8EAXQFXXZPIP","A3UMFQFJ8HE82I","382GHPVPHSDM8N0F9141EAH7F0K34Z","","null","<img src=""img/food4.png"" style=""width:200px; border:14px solid green;"">","null","","","","","","","","","",""
"","image-keyboard-response","207","237540","0.0-217.0","3Y5140Z9DY2P932BJQ8EAXQFXXZPIP","A3UMFQFJ8HE82I","382GHPVPHSDM8N0F9141EAH7F0K34Z","","785.0999999940395","img/food1.png","74","785.8000000119209","1","1","1","2","1,0.5,0,1,0.5,0,0.5,0,1","1,0.5,0,1,0.5,0,0.5,0,1","1","false",""
"","html-keyboard-response","208","237842","0.0-218.0","3Y5140Z9DY2P932BJQ8EAXQFXXZPIP","A3UMFQFJ8HE82I","382GHPVPHSDM8N0F9141EAH7F0K34Z","","null","<img src=""img/food1.png"" style=""width:200px; border:14px solid green;"">","null","","","","","","","","","",""
"","image-keyboard-response","209","238356","0.0-220.0","3Y5140Z9DY2P932BJQ8EAXQFXXZPIP","A3UMFQFJ8HE82I","382GHPVPHSDM8N0F9141EAH7F0K34Z","","512.8000000119209","img/food5.png","75","513.5","2","1","2","2","1,0.5,0,1,0.5,0,0.5,0,1","1,0.5,0,1,0.5,0,0.5,0,1","1","false",""
"","html-keyboard-response","210","238657","0.0-221.0","3Y5140Z9DY2P932BJQ8EAXQFXXZPIP","A3UMFQFJ8HE82I","382GHPVPHSDM8N0F9141EAH7F0K34Z","","null","<img src=""img/food5.png"" style=""width:200px; border:14px solid green;"">","null","","","","","","","","","",""
"","image-keyboard-response","211","239060","0.0-223.0","3Y5140Z9DY2P932BJQ8EAXQFXXZPIP","A3UMFQFJ8HE82I","382GHPVPHSDM8N0F9141EAH7F0K34Z","","401.89999997615814","img/food4.png","74","402.5","1","0","3","2","1,0.5,0,1,0.5,0,0.5,0,1","1,0.5,0,1,0.5,0,0.5,0,1","1","false",""
"","html-keyboard-response","212","239362","0.0-224.0","3Y5140Z9DY2P932BJQ8EAXQFXXZPIP","A3UMFQFJ8HE82I","382GHPVPHSDM8N0F9141EAH7F0K34Z","","null","<img src=""img/food4.png"" style=""width:200px;border:14px solid red;"">","null","","","","","","","","","",""
"","image-keyboard-response","213","239845","0.0-226.0","3Y5140Z9DY2P932BJQ8EAXQFXXZPIP","A3UMFQFJ8HE82I","382GHPVPHSDM8N0F9141EAH7F0K34Z","","482","img/food5.png","75","482.69999998807907","2","0","2","2","1,0.5,0,1,0.5,0,0.5,0,1","1,0.5,0,1,0.5,0,0.5,0,1","1","false",""
"","html-keyboard-response","214","240147","0.0-227.0","3Y5140Z9DY2P932BJQ8EAXQFXXZPIP","A3UMFQFJ8HE82I","382GHPVPHSDM8N0F9141EAH7F0K34Z","","null","<img src=""img/food5.png"" style=""width:200px;border:14px solid red;"">","null","","","","","","","","","",""
"","image-keyboard-response","215","240628","0.0-229.0","3Y5140Z9DY2P932BJQ8EAXQFXXZPIP","A3UMFQFJ8HE82I","382GHPVPHSDM8N0F9141EAH7F0K34Z","","480.40000000596046","img/food5.png","76","481.2000000178814","3","0","2","2","1,0.5,0,1,0.5,0,0.5,0,1","1,0.5,0,1,0.5,0,0.5,0,1","1","false",""
"","html-keyboard-response","216","240931","0.0-230.0","3Y5140Z9DY2P932BJQ8EAXQFXXZPIP","A3UMFQFJ8HE82I","382GHPVPHSDM8N0F9141EAH7F0K34Z","","null","<img src=""img/food5.png"" style=""width:200px;border:14px solid red;"">","null","","","","","","","","","",""
"","image-keyboard-response","217","241300","0.0-232.0","3Y5140Z9DY2P932BJQ8EAXQFXXZPIP","A3UMFQFJ8HE82I","382GHPVPHSDM8N0F9141EAH7F0K34Z","","368","img/food4.png","74","368.60000002384186","1","1","3","2","1,0.5,0,1,0.5,0,0.5,0,1","1,0.5,0,1,0.5,0,0.5,0,1","1","false",""
"","html-keyboard-response","218","241602","0.0-233.0","3Y5140Z9DY2P932BJQ8EAXQFXXZPIP","A3UMFQFJ8HE82I","382GHPVPHSDM8N0F9141EAH7F0K34Z","","null","<img src=""img/food4.png"" style=""width:200px; border:14px solid green;"">","null","","","","","","","","","",""
"","image-keyboard-response","219","242292","0.0-235.0","3Y5140Z9DY2P932BJQ8EAXQFXXZPIP","A3UMFQFJ8HE82I","382GHPVPHSDM8N0F9141EAH7F0K34Z","","689.9000000059605","img/food1.png","74","690.7000000178814","1","1","1","2","1,0.5,0,1,0.5,0,0.5,0,1","1,0.5,0,1,0.5,0,0.5,0,1","1","false",""
"","html-keyboard-response","220","242595","0.0-236.0","3Y5140Z9DY2P932BJQ8EAXQFXXZPIP","A3UMFQFJ8HE82I","382GHPVPHSDM8N0F9141EAH7F0K34Z","","null","<img src=""img/food1.png"" style=""width:200px; border:14px solid green;"">","null","","","","","","","","","",""
"","image-keyboard-response","221","243172","0.0-238.0","3Y5140Z9DY2P932BJQ8EAXQFXXZPIP","A3UMFQFJ8HE82I","382GHPVPHSDM8N0F9141EAH7F0K34Z","","576.1999999880791","img/food5.png","74","576.9000000059605","1","1","2","2","1,0.5,0,1,0.5,0,0.5,0,1","1,0.5,0,1,0.5,0,0.5,0,1","1","false",""
"","html-keyboard-response","222","243488","0.0-239.0","3Y5140Z9DY2P932BJQ8EAXQFXXZPIP","A3UMFQFJ8HE82I","382GHPVPHSDM8N0F9141EAH7F0K34Z","","null","<img src=""img/food5.png"" style=""width:200px; border:14px solid green;"">","null","","","","","","","","","",""
"","image-keyboard-response","223","243988","0.0-241.0","3Y5140Z9DY2P932BJQ8EAXQFXXZPIP","A3UMFQFJ8HE82I","382GHPVPHSDM8N0F9141EAH7F0K34Z","","498.59999999403954","img/food5.png","74","499.5","1","1","2","2","1,0.5,0,1,0.5,0,0.5,0,1","1,0.5,0,1,0.5,0,0.5,0,1","1","false",""
"","html-keyboard-response","224","244290","0.0-242.0","3Y5140Z9DY2P932BJQ8EAXQFXXZPIP","A3UMFQFJ8HE82I","382GHPVPHSDM8N0F9141EAH7F0K34Z","","null","<img src=""img/food5.png"" style=""width:200px; border:14px solid green;"">","null","","","","","","","","","",""
"","image-keyboard-response","225","244660","0.0-244.0","3Y5140Z9DY2P932BJQ8EAXQFXXZPIP","A3UMFQFJ8HE82I","382GHPVPHSDM8N0F9141EAH7F0K34Z","","368.90000000596046","img/food5.png","74","369.59999999403954","1","1","2","2","1,0.5,0,1,0.5,0,0.5,0,1","1,0.5,0,1,0.5,0,0.5,0,1","1","false",""
"","html-keyboard-response","226","244962","0.0-245.0","3Y5140Z9DY2P932BJQ8EAXQFXXZPIP","A3UMFQFJ8HE82I","382GHPVPHSDM8N0F9141EAH7F0K34Z","","null","<img src=""img/food5.png"" style=""width:200px; border:14px solid green;"">","null","","","","","","","","","",""
"","image-keyboard-response","227","245316","0.0-247.0","3Y5140Z9DY2P932BJQ8EAXQFXXZPIP","A3UMFQFJ8HE82I","382GHPVPHSDM8N0F9141EAH7F0K34Z","","353.69999998807907","img/food5.png","74","354.30000001192093","1","1","2","2","1,0.5,0,1,0.5,0,0.5,0,1","1,0.5,0,1,0.5,0,0.5,0,1","1","false",""
"","html-keyboard-response","228","245618","0.0-248.0","3Y5140Z9DY2P932BJQ8EAXQFXXZPIP","A3UMFQFJ8HE82I","382GHPVPHSDM8N0F9141EAH7F0K34Z","","null","<img src=""img/food5.png"" style=""width:200px; border:14px solid green;"">","null","","","","","","","","","",""
"","image-keyboard-response","229","245924","0.0-250.0","3Y5140Z9DY2P932BJQ8EAXQFXXZPIP","A3UMFQFJ8HE82I","382GHPVPHSDM8N0F9141EAH7F0K34Z","","305","img/food5.png","74","305.80000001192093","1","1","2","2","1,0.5,0,1,0.5,0,0.5,0,1","1,0.5,0,1,0.5,0,0.5,0,1","1","false",""
"","html-keyboard-response","230","246225","0.0-251.0","3Y5140Z9DY2P932BJQ8EAXQFXXZPIP","A3UMFQFJ8HE82I","382GHPVPHSDM8N0F9141EAH7F0K34Z","","null","<img src=""img/food5.png"" style=""width:200px; border:14px solid green;"">","null","","","","","","","","","",""
"","image-keyboard-response","231","246532","0.0-253.0","3Y5140Z9DY2P932BJQ8EAXQFXXZPIP","A3UMFQFJ8HE82I","382GHPVPHSDM8N0F9141EAH7F0K34Z","","305.59999999403954","img/food5.png","74","306.5","1","1","2","2","1,0.5,0,1,0.5,0,0.5,0,1","1,0.5,0,1,0.5,0,0.5,0,1","1","false",""
"","html-keyboard-response","232","246835","0.0-254.0","3Y5140Z9DY2P932BJQ8EAXQFXXZPIP","A3UMFQFJ8HE82I","382GHPVPHSDM8N0F9141EAH7F0K34Z","","null","<img src=""img/food5.png"" style=""width:200px; border:14px solid green;"">","null","","","","","","","","","",""
"","image-keyboard-response","233","247140","0.0-256.0","3Y5140Z9DY2P932BJQ8EAXQFXXZPIP","A3UMFQFJ8HE82I","382GHPVPHSDM8N0F9141EAH7F0K34Z","","303.90000000596046","img/food5.png","74","304.7000000178814","1","1","2","2","1,0.5,0,1,0.5,0,0.5,0,1","1,0.5,0,1,0.5,0,0.5,0,1","1","false",""
"","html-keyboard-response","234","247442","0.0-257.0","3Y5140Z9DY2P932BJQ8EAXQFXXZPIP","A3UMFQFJ8HE82I","382GHPVPHSDM8N0F9141EAH7F0K34Z","","null","<img src=""img/food5.png"" style=""width:200px; border:14px solid green;"">","null","","","","","","","","","",""
"","image-keyboard-response","235","247748","0.0-259.0","3Y5140Z9DY2P932BJQ8EAXQFXXZPIP","A3UMFQFJ8HE82I","382GHPVPHSDM8N0F9141EAH7F0K34Z","","305.40000000596046","img/food5.png","74","306.2000000178814","1","1","2","2","1,0.5,0,1,0.5,0,0.5,0,1","1,0.5,0,1,0.5,0,0.5,0,1","1","false",""
"","html-keyboard-response","236","248051","0.0-260.0","3Y5140Z9DY2P932BJQ8EAXQFXXZPIP","A3UMFQFJ8HE82I","382GHPVPHSDM8N0F9141EAH7F0K34Z","","null","<img src=""img/food5.png"" style=""width:200px; border:14px solid green;"">","null","","","","","","","","","",""
"","image-keyboard-response","237","248340","0.0-262.0","3Y5140Z9DY2P932BJQ8EAXQFXXZPIP","A3UMFQFJ8HE82I","382GHPVPHSDM8N0F9141EAH7F0K34Z","","288.2000000178814","img/food5.png","74","288.89999997615814","1","1","2","2","1,0.5,0,1,0.5,0,0.5,0,1","1,0.5,0,1,0.5,0,0.5,0,1","1","false",""
"","html-keyboard-response","238","248642","0.0-263.0","3Y5140Z9DY2P932BJQ8EAXQFXXZPIP","A3UMFQFJ8HE82I","382GHPVPHSDM8N0F9141EAH7F0K34Z","","null","<img src=""img/food5.png"" style=""width:200px; border:14px solid green;"">","null","","","","","","","","","",""
"","image-keyboard-response","239","249316","0.0-265.0","3Y5140Z9DY2P932BJQ8EAXQFXXZPIP","A3UMFQFJ8HE82I","382GHPVPHSDM8N0F9141EAH7F0K34Z","","673.3000000119209","img/food4.png","75","673.9000000059605","2","0","3","2","1,0.5,0,1,0.5,0,0.5,0,1","1,0.5,0,1,0.5,0,0.5,0,1","1","false",""
"","html-keyboard-response","240","249617","0.0-266.0","3Y5140Z9DY2P932BJQ8EAXQFXXZPIP","A3UMFQFJ8HE82I","382GHPVPHSDM8N0F9141EAH7F0K34Z","","null","<img src=""img/food4.png"" style=""width:200px;border:14px solid red;"">","null","","","","","","","","","",""
"","image-keyboard-response","241","249828","0.0-268.0","3Y5140Z9DY2P932BJQ8EAXQFXXZPIP","A3UMFQFJ8HE82I","382GHPVPHSDM8N0F9141EAH7F0K34Z","","210.40000000596046","img/food4.png","74","211.09999999403954","1","0","3","2","1,0.5,0,1,0.5,0,0.5,0,1","1,0.5,0,1,0.5,0,0.5,0,1","1","false",""
"","html-keyboard-response","242","250131","0.0-269.0","3Y5140Z9DY2P932BJQ8EAXQFXXZPIP","A3UMFQFJ8HE82I","382GHPVPHSDM8N0F9141EAH7F0K34Z","","null","<img src=""img/food4.png"" style=""width:200px;border:14px solid red;"">","null","","","","","","","","","",""
"","image-keyboard-response","243","250485","0.0-271.0","3Y5140Z9DY2P932BJQ8EAXQFXXZPIP","A3UMFQFJ8HE82I","382GHPVPHSDM8N0F9141EAH7F0K34Z","","353","img/food4.png","76","353.59999999403954","3","1","3","2","1,0.5,0,1,0.5,0,0.5,0,1","1,0.5,0,1,0.5,0,0.5,0,1","1","false",""
"","html-keyboard-response","244","250786","0.0-272.0","3Y5140Z9DY2P932BJQ8EAXQFXXZPIP","A3UMFQFJ8HE82I","382GHPVPHSDM8N0F9141EAH7F0K34Z","","null","<img src=""img/food4.png"" style=""width:200px; border:14px solid green;"">","null","","","","","","","","","",""
"","image-keyboard-response","245","251788","0.0-274.0","3Y5140Z9DY2P932BJQ8EAXQFXXZPIP","A3UMFQFJ8HE82I","382GHPVPHSDM8N0F9141EAH7F0K34Z","","","img/food1.png","","1001.5999999940395","-1","0","1","2","1,0.5,0,1,0.5,0,0.5,0,1","1,0.5,0,1,0.5,0,0.5,0,1","1","true",""
"","html-keyboard-response","246","252090","0.0-275.0","3Y5140Z9DY2P932BJQ8EAXQFXXZPIP","A3UMFQFJ8HE82I","382GHPVPHSDM8N0F9141EAH7F0K34Z","","null","<img src=""img/food1.png"" style=""width:200px;border:14px solid red;"">","null","","","","","","","","","",""
"","html-keyboard-response","247","254766","0.0-276.0-0.0","3Y5140Z9DY2P932BJQ8EAXQFXXZPIP","A3UMFQFJ8HE82I","382GHPVPHSDM8N0F9141EAH7F0K34Z","","","","","","","","","","","","","",""
"","image-keyboard-response","248","255397","0.0-277.0","3Y5140Z9DY2P932BJQ8EAXQFXXZPIP","A3UMFQFJ8HE82I","382GHPVPHSDM8N0F9141EAH7F0K34Z","","629.5999999940395","img/food5.png","74","630.4000000059605","1","1","2","2","1,0.5,0,1,0.5,0,0.5,0,1","1,0.5,0,1,0.5,0,0.5,0,1","1","false",""
"","html-keyboard-response","249","255698","0.0-278.0","3Y5140Z9DY2P932BJQ8EAXQFXXZPIP","A3UMFQFJ8HE82I","382GHPVPHSDM8N0F9141EAH7F0K34Z","","null","<img src=""img/food5.png"" style=""width:200px; border:14px solid green;"">","null","","","","","","","","","",""
"","image-keyboard-response","250","256340","0.0-280.0","3Y5140Z9DY2P932BJQ8EAXQFXXZPIP","A3UMFQFJ8HE82I","382GHPVPHSDM8N0F9141EAH7F0K34Z","","641","img/food1.png","75","641.7999999821186","2","0","1","2","1,0.5,0,1,0.5,0,0.5,0,1","1,0.5,0,1,0.5,0,0.5,0,1","1","false",""
"","html-keyboard-response","251","256642","0.0-281.0","3Y5140Z9DY2P932BJQ8EAXQFXXZPIP","A3UMFQFJ8HE82I","382GHPVPHSDM8N0F9141EAH7F0K34Z","","null","<img src=""img/food1.png"" style=""width:200px;border:14px solid red;"">","null","","","","","","","","","",""
"","image-keyboard-response","252","256708","0.0-283.0","3Y5140Z9DY2P932BJQ8EAXQFXXZPIP","A3UMFQFJ8HE82I","382GHPVPHSDM8N0F9141EAH7F0K34Z","","65.09999999403954","img/food1.png","74","65.7999999821186","1","1","1","2","1,0.5,0,1,0.5,0,0.5,0,1","1,0.5,0,1,0.5,0,0.5,0,1","1","false",""
"","html-keyboard-response","253","257009","0.0-284.0","3Y5140Z9DY2P932BJQ8EAXQFXXZPIP","A3UMFQFJ8HE82I","382GHPVPHSDM8N0F9141EAH7F0K34Z","","null","<img src=""img/food1.png"" style=""width:200px; border:14px solid green;"">","null","","","","","","","","","",""
"","image-keyboard-response","254","257396","0.0-286.0","3Y5140Z9DY2P932BJQ8EAXQFXXZPIP","A3UMFQFJ8HE82I","382GHPVPHSDM8N0F9141EAH7F0K34Z","","385.39999997615814","img/food4.png","74","386.2999999821186","1","1","3","2","1,0.5,0,1,0.5,0,0.5,0,1","1,0.5,0,1,0.5,0,0.5,0,1","1","false",""
"","html-keyboard-response","255","257697","0.0-287.0","3Y5140Z9DY2P932BJQ8EAXQFXXZPIP","A3UMFQFJ8HE82I","382GHPVPHSDM8N0F9141EAH7F0K34Z","","null","<img src=""img/food4.png"" style=""width:200px; border:14px solid green;"">","null","","","","","","","","","",""
"","image-keyboard-response","256","258164","0.0-289.0","3Y5140Z9DY2P932BJQ8EAXQFXXZPIP","A3UMFQFJ8HE82I","382GHPVPHSDM8N0F9141EAH7F0K34Z","","465.40000000596046","img/food5.png","75","466.09999999403954","2","0","2","2","1,0.5,0,1,0.5,0,0.5,0,1","1,0.5,0,1,0.5,0,0.5,0,1","1","false",""
"","html-keyboard-response","257","258466","0.0-290.0","3Y5140Z9DY2P932BJQ8EAXQFXXZPIP","A3UMFQFJ8HE82I","382GHPVPHSDM8N0F9141EAH7F0K34Z","","null","<img src=""img/food5.png"" style=""width:200px;border:14px solid red;"">","null","","","","","","","","","",""
"","image-keyboard-response","258","258516","0.0-292.0","3Y5140Z9DY2P932BJQ8EAXQFXXZPIP","A3UMFQFJ8HE82I","382GHPVPHSDM8N0F9141EAH7F0K34Z","","48.5","img/food1.png","76","49.60000002384186","3","0","1","2","1,0.5,0,1,0.5,0,0.5,0,1","1,0.5,0,1,0.5,0,0.5,0,1","1","false",""
"","html-keyboard-response","259","258818","0.0-293.0","3Y5140Z9DY2P932BJQ8EAXQFXXZPIP","A3UMFQFJ8HE82I","382GHPVPHSDM8N0F9141EAH7F0K34Z","","null","<img src=""img/food1.png"" style=""width:200px;border:14px solid red;"">","null","","","","","","","","","",""
"","image-keyboard-response","260","259284","0.0-295.0","3Y5140Z9DY2P932BJQ8EAXQFXXZPIP","A3UMFQFJ8HE82I","382GHPVPHSDM8N0F9141EAH7F0K34Z","","464.59999999403954","img/food4.png","74","465.19999998807907","1","0","3","2","1,0.5,0,1,0.5,0,0.5,0,1","1,0.5,0,1,0.5,0,0.5,0,1","1","false",""
"","html-keyboard-response","261","259585","0.0-296.0","3Y5140Z9DY2P932BJQ8EAXQFXXZPIP","A3UMFQFJ8HE82I","382GHPVPHSDM8N0F9141EAH7F0K34Z","","null","<img src=""img/food4.png"" style=""width:200px;border:14px solid red;"">","null","","","","","","","","","",""
"","image-keyboard-response","262","259940","0.0-298.0","3Y5140Z9DY2P932BJQ8EAXQFXXZPIP","A3UMFQFJ8HE82I","382GHPVPHSDM8N0F9141EAH7F0K34Z","","353.80000001192093","img/food4.png","76","354.5","3","1","3","2","1,0.5,0,1,0.5,0,0.5,0,1","1,0.5,0,1,0.5,0,0.5,0,1","1","false",""
"","html-keyboard-response","263","260242","0.0-299.0","3Y5140Z9DY2P932BJQ8EAXQFXXZPIP","A3UMFQFJ8HE82I","382GHPVPHSDM8N0F9141EAH7F0K34Z","","null","<img src=""img/food4.png"" style=""width:200px; border:14px solid green;"">","null","","","","","","","","","",""
"","image-keyboard-response","264","260549","0.0-301.0","3Y5140Z9DY2P932BJQ8EAXQFXXZPIP","A3UMFQFJ8HE82I","382GHPVPHSDM8N0F9141EAH7F0K34Z","","306.30000001192093","img/food1.png","76","307.10000002384186","3","0","1","2","1,0.5,0,1,0.5,0,0.5,0,1","1,0.5,0,1,0.5,0,0.5,0,1","1","false",""
"","html-keyboard-response","265","260851","0.0-302.0","3Y5140Z9DY2P932BJQ8EAXQFXXZPIP","A3UMFQFJ8HE82I","382GHPVPHSDM8N0F9141EAH7F0K34Z","","null","<img src=""img/food1.png"" style=""width:200px;border:14px solid red;"">","null","","","","","","","","","",""
"","image-keyboard-response","266","260980","0.0-304.0","3Y5140Z9DY2P932BJQ8EAXQFXXZPIP","A3UMFQFJ8HE82I","382GHPVPHSDM8N0F9141EAH7F0K34Z","","127.89999997615814","img/food5.png","74","128.7999999821186","1","1","2","2","1,0.5,0,1,0.5,0,0.5,0,1","1,0.5,0,1,0.5,0,0.5,0,1","1","false",""
"","html-keyboard-response","267","261282","0.0-305.0","3Y5140Z9DY2P932BJQ8EAXQFXXZPIP","A3UMFQFJ8HE82I","382GHPVPHSDM8N0F9141EAH7F0K34Z","","null","<img src=""img/food5.png"" style=""width:200px; border:14px solid green;"">","null","","","","","","","","","",""
"","image-keyboard-response","268","261412","0.0-307.0","3Y5140Z9DY2P932BJQ8EAXQFXXZPIP","A3UMFQFJ8HE82I","382GHPVPHSDM8N0F9141EAH7F0K34Z","","128.60000002384186","img/food4.png","75","129.09999999403954","2","0","3","2","1,0.5,0,1,0.5,0,0.5,0,1","1,0.5,0,1,0.5,0,0.5,0,1","1","false",""
"","html-keyboard-response","269","261713","0.0-308.0","3Y5140Z9DY2P932BJQ8EAXQFXXZPIP","A3UMFQFJ8HE82I","382GHPVPHSDM8N0F9141EAH7F0K34Z","","null","<img src=""img/food4.png"" style=""width:200px;border:14px solid red;"">","null","","","","","","","","","",""
"","image-keyboard-response","270","261924","0.0-310.0","3Y5140Z9DY2P932BJQ8EAXQFXXZPIP","A3UMFQFJ8HE82I","382GHPVPHSDM8N0F9141EAH7F0K34Z","","209.39999997615814","img/food4.png","74","210.19999998807907","1","0","3","2","1,0.5,0,1,0.5,0,0.5,0,1","1,0.5,0,1,0.5,0,0.5,0,1","1","false",""
"","html-keyboard-response","271","262226","0.0-311.0","3Y5140Z9DY2P932BJQ8EAXQFXXZPIP","A3UMFQFJ8HE82I","382GHPVPHSDM8N0F9141EAH7F0K34Z","","null","<img src=""img/food4.png"" style=""width:200px;border:14px solid red;"">","null","","","","","","","","","",""
"","image-keyboard-response","272","262596","0.0-313.0","3Y5140Z9DY2P932BJQ8EAXQFXXZPIP","A3UMFQFJ8HE82I","382GHPVPHSDM8N0F9141EAH7F0K34Z","","368.7999999821186","img/food4.png","76","369.5","3","1","3","2","1,0.5,0,1,0.5,0,0.5,0,1","1,0.5,0,1,0.5,0,0.5,0,1","1","false",""
"","html-keyboard-response","273","262897","0.0-314.0","3Y5140Z9DY2P932BJQ8EAXQFXXZPIP","A3UMFQFJ8HE82I","382GHPVPHSDM8N0F9141EAH7F0K34Z","","null","<img src=""img/food4.png"" style=""width:200px; border:14px solid green;"">","null","","","","","","","","","",""
"","image-keyboard-response","274","263460","0.0-316.0","3Y5140Z9DY2P932BJQ8EAXQFXXZPIP","A3UMFQFJ8HE82I","382GHPVPHSDM8N0F9141EAH7F0K34Z","","561.5999999940395","img/food4.png","76","562.1999999880791","3","1","3","2","1,0.5,0,1,0.5,0,0.5,0,1","1,0.5,0,1,0.5,0,0.5,0,1","1","false",""
"","html-keyboard-response","275","263762","0.0-317.0","3Y5140Z9DY2P932BJQ8EAXQFXXZPIP","A3UMFQFJ8HE82I","382GHPVPHSDM8N0F9141EAH7F0K34Z","","null","<img src=""img/food4.png"" style=""width:200px; border:14px solid green;"">","null","","","","","","","","","",""
"","image-keyboard-response","276","264132","0.0-319.0","3Y5140Z9DY2P932BJQ8EAXQFXXZPIP","A3UMFQFJ8HE82I","382GHPVPHSDM8N0F9141EAH7F0K34Z","","369.19999998807907","img/food4.png","76","369.80000001192093","3","1","3","2","1,0.5,0,1,0.5,0,0.5,0,1","1,0.5,0,1,0.5,0,0.5,0,1","1","false",""
"","html-keyboard-response","277","264434","0.0-320.0","3Y5140Z9DY2P932BJQ8EAXQFXXZPIP","A3UMFQFJ8HE82I","382GHPVPHSDM8N0F9141EAH7F0K34Z","","null","<img src=""img/food4.png"" style=""width:200px; border:14px solid green;"">","null","","","","","","","","","",""
"","image-keyboard-response","278","264692","0.0-322.0","3Y5140Z9DY2P932BJQ8EAXQFXXZPIP","A3UMFQFJ8HE82I","382GHPVPHSDM8N0F9141EAH7F0K34Z","","256.40000000596046","img/food4.png","76","257.5","3","1","3","2","1,0.5,0,1,0.5,0,0.5,0,1","1,0.5,0,1,0.5,0,0.5,0,1","1","false",""
"","html-keyboard-response","279","264993","0.0-323.0","3Y5140Z9DY2P932BJQ8EAXQFXXZPIP","A3UMFQFJ8HE82I","382GHPVPHSDM8N0F9141EAH7F0K34Z","","null","<img src=""img/food4.png"" style=""width:200px; border:14px solid green;"">","null","","","","","","","","","",""
"","image-keyboard-response","280","265572","0.0-325.0","3Y5140Z9DY2P932BJQ8EAXQFXXZPIP","A3UMFQFJ8HE82I","382GHPVPHSDM8N0F9141EAH7F0K34Z","","577.5","img/food5.png","74","578.1999999880791","1","1","2","2","1,0.5,0,1,0.5,0,0.5,0,1","1,0.5,0,1,0.5,0,0.5,0,1","1","false",""
"","html-keyboard-response","281","265874","0.0-326.0","3Y5140Z9DY2P932BJQ8EAXQFXXZPIP","A3UMFQFJ8HE82I","382GHPVPHSDM8N0F9141EAH7F0K34Z","","null","<img src=""img/food5.png"" style=""width:200px; border:14px solid green;"">","null","","","","","","","","","",""
"","image-keyboard-response","282","266820","0.0-328.0","3Y5140Z9DY2P932BJQ8EAXQFXXZPIP","A3UMFQFJ8HE82I","382GHPVPHSDM8N0F9141EAH7F0K34Z","","944.2999999821186","img/food1.png","76","945.1999999880791","3","0","1","2","1,0.5,0,1,0.5,0,0.5,0,1","1,0.5,0,1,0.5,0,0.5,0,1","1","false",""
"","html-keyboard-response","283","267122","0.0-329.0","3Y5140Z9DY2P932BJQ8EAXQFXXZPIP","A3UMFQFJ8HE82I","382GHPVPHSDM8N0F9141EAH7F0K34Z","","null","<img src=""img/food1.png"" style=""width:200px;border:14px solid red;"">","null","","","","","","","","","",""
"","image-keyboard-response","284","267300","0.0-331.0","3Y5140Z9DY2P932BJQ8EAXQFXXZPIP","A3UMFQFJ8HE82I","382GHPVPHSDM8N0F9141EAH7F0K34Z","","177.10000002384186","img/food1.png","74","177.80000001192093","1","1","1","2","1,0.5,0,1,0.5,0,0.5,0,1","1,0.5,0,1,0.5,0,0.5,0,1","1","false",""
"","html-keyboard-response","285","267601","0.0-332.0","3Y5140Z9DY2P932BJQ8EAXQFXXZPIP","A3UMFQFJ8HE82I","382GHPVPHSDM8N0F9141EAH7F0K34Z","","null","<img src=""img/food1.png"" style=""width:200px; border:14px solid green;"">","null","","","","","","","","","",""
"","image-keyboard-response","286","267972","0.0-334.0","3Y5140Z9DY2P932BJQ8EAXQFXXZPIP","A3UMFQFJ8HE82I","382GHPVPHSDM8N0F9141EAH7F0K34Z","","369.69999998807907","img/food5.png","74","370.5","1","1","2","2","1,0.5,0,1,0.5,0,0.5,0,1","1,0.5,0,1,0.5,0,0.5,0,1","1","false",""
"","html-keyboard-response","287","268273","0.0-335.0","3Y5140Z9DY2P932BJQ8EAXQFXXZPIP","A3UMFQFJ8HE82I","382GHPVPHSDM8N0F9141EAH7F0K34Z","","null","<img src=""img/food5.png"" style=""width:200px; border:14px solid green;"">","null","","","","","","","","","",""
"","image-keyboard-response","288","268611","0.0-337.0","3Y5140Z9DY2P932BJQ8EAXQFXXZPIP","A3UMFQFJ8HE82I","382GHPVPHSDM8N0F9141EAH7F0K34Z","","337.7000000178814","img/food1.png","74","338.39999997615814","1","1","1","2","1,0.5,0,1,0.5,0,0.5,0,1","1,0.5,0,1,0.5,0,0.5,0,1","1","false",""
"","html-keyboard-response","289","268914","0.0-338.0","3Y5140Z9DY2P932BJQ8EAXQFXXZPIP","A3UMFQFJ8HE82I","382GHPVPHSDM8N0F9141EAH7F0K34Z","","null","<img src=""img/food1.png"" style=""width:200px; border:14px solid green;"">","null","","","","","","","","","",""
"","image-keyboard-response","290","269380","0.0-340.0","3Y5140Z9DY2P932BJQ8EAXQFXXZPIP","A3UMFQFJ8HE82I","382GHPVPHSDM8N0F9141EAH7F0K34Z","","465","img/food4.png","74","465.80000001192093","1","0","3","2","1,0.5,0,1,0.5,0,0.5,0,1","1,0.5,0,1,0.5,0,0.5,0,1","1","false",""
"","html-keyboard-response","291","269681","0.0-341.0","3Y5140Z9DY2P932BJQ8EAXQFXXZPIP","A3UMFQFJ8HE82I","382GHPVPHSDM8N0F9141EAH7F0K34Z","","null","<img src=""img/food4.png"" style=""width:200px;border:14px solid red;"">","null","","","","","","","","","",""
"","image-keyboard-response","292","269860","0.0-343.0","3Y5140Z9DY2P932BJQ8EAXQFXXZPIP","A3UMFQFJ8HE82I","382GHPVPHSDM8N0F9141EAH7F0K34Z","","177.2999999821186","img/food4.png","75","178","2","0","3","2","1,0.5,0,1,0.5,0,0.5,0,1","1,0.5,0,1,0.5,0,0.5,0,1","1","false",""
"","html-keyboard-response","293","270162","0.0-344.0","3Y5140Z9DY2P932BJQ8EAXQFXXZPIP","A3UMFQFJ8HE82I","382GHPVPHSDM8N0F9141EAH7F0K34Z","","null","<img src=""img/food4.png"" style=""width:200px;border:14px solid red;"">","null","","","","","","","","","",""
"","image-keyboard-response","294","270516","0.0-346.0","3Y5140Z9DY2P932BJQ8EAXQFXXZPIP","A3UMFQFJ8HE82I","382GHPVPHSDM8N0F9141EAH7F0K34Z","","353.19999998807907","img/food5.png","76","354.09999999403954","3","0","2","2","1,0.5,0,1,0.5,0,0.5,0,1","1,0.5,0,1,0.5,0,0.5,0,1","1","false",""
"","html-keyboard-response","295","270817","0.0-347.0","3Y5140Z9DY2P932BJQ8EAXQFXXZPIP","A3UMFQFJ8HE82I","382GHPVPHSDM8N0F9141EAH7F0K34Z","","null","<img src=""img/food5.png"" style=""width:200px;border:14px solid red;"">","null","","","","","","","","","",""
"","image-keyboard-response","296","271124","0.0-349.0","3Y5140Z9DY2P932BJQ8EAXQFXXZPIP","A3UMFQFJ8HE82I","382GHPVPHSDM8N0F9141EAH7F0K34Z","","306.30000001192093","img/food1.png","75","307","2","1","1","2","1,0.5,0,1,0.5,0,0.5,0,1","1,0.5,0,1,0.5,0,0.5,0,1","1","false",""
"","html-keyboard-response","297","271426","0.0-350.0","3Y5140Z9DY2P932BJQ8EAXQFXXZPIP","A3UMFQFJ8HE82I","382GHPVPHSDM8N0F9141EAH7F0K34Z","","null","<img src=""img/food1.png"" style=""width:200px; border:14px solid green;"">","null","","","","","","","","","",""
"","image-keyboard-response","298","271765","0.0-352.0","3Y5140Z9DY2P932BJQ8EAXQFXXZPIP","A3UMFQFJ8HE82I","382GHPVPHSDM8N0F9141EAH7F0K34Z","","337.7999999821186","img/food5.png","75","338.40000000596046","2","0","2","2","1,0.5,0,1,0.5,0,0.5,0,1","1,0.5,0,1,0.5,0,0.5,0,1","1","false",""
"","html-keyboard-response","299","272066","0.0-353.0","3Y5140Z9DY2P932BJQ8EAXQFXXZPIP","A3UMFQFJ8HE82I","382GHPVPHSDM8N0F9141EAH7F0K34Z","","null","<img src=""img/food5.png"" style=""width:200px;border:14px solid red;"">","null","","","","","","","","","",""
"","image-keyboard-response","300","272324","0.0-355.0","3Y5140Z9DY2P932BJQ8EAXQFXXZPIP","A3UMFQFJ8HE82I","382GHPVPHSDM8N0F9141EAH7F0K34Z","","256.59999999403954","img/food5.png","76","257.40000000596046","3","0","2","2","1,0.5,0,1,0.5,0,0.5,0,1","1,0.5,0,1,0.5,0,0.5,0,1","1","false",""
"","html-keyboard-response","301","272627","0.0-356.0","3Y5140Z9DY2P932BJQ8EAXQFXXZPIP","A3UMFQFJ8HE82I","382GHPVPHSDM8N0F9141EAH7F0K34Z","","null","<img src=""img/food5.png"" style=""width:200px;border:14px solid red;"">","null","","","","","","","","","",""
"","image-keyboard-response","302","273203","0.0-358.0","3Y5140Z9DY2P932BJQ8EAXQFXXZPIP","A3UMFQFJ8HE82I","382GHPVPHSDM8N0F9141EAH7F0K34Z","","575.6999999880791","img/food5.png","76","576.4000000059605","3","0","2","2","1,0.5,0,1,0.5,0,0.5,0,1","1,0.5,0,1,0.5,0,0.5,0,1","1","false",""
"","html-keyboard-response","303","273506","0.0-359.0","3Y5140Z9DY2P932BJQ8EAXQFXXZPIP","A3UMFQFJ8HE82I","382GHPVPHSDM8N0F9141EAH7F0K34Z","","null","<img src=""img/food5.png"" style=""width:200px;border:14px solid red;"">","null","","","","","","","","","",""
"","image-keyboard-response","304","273699","0.0-361.0","3Y5140Z9DY2P932BJQ8EAXQFXXZPIP","A3UMFQFJ8HE82I","382GHPVPHSDM8N0F9141EAH7F0K34Z","","193","img/food1.png","74","193.7000000178814","1","1","1","2","1,0.5,0,1,0.5,0,0.5,0,1","1,0.5,0,1,0.5,0,0.5,0,1","1","false",""
"","html-keyboard-response","305","274002","0.0-362.0","3Y5140Z9DY2P932BJQ8EAXQFXXZPIP","A3UMFQFJ8HE82I","382GHPVPHSDM8N0F9141EAH7F0K34Z","","null","<img src=""img/food1.png"" style=""width:200px; border:14px solid green;"">","null","","","","","","","","","",""
"","image-keyboard-response","306","274309","0.0-364.0","3Y5140Z9DY2P932BJQ8EAXQFXXZPIP","A3UMFQFJ8HE82I","382GHPVPHSDM8N0F9141EAH7F0K34Z","","306.19999998807907","img/food4.png","74","307","1","0","3","2","1,0.5,0,1,0.5,0,0.5,0,1","1,0.5,0,1,0.5,0,0.5,0,1","1","false",""
"","html-keyboard-response","307","274619","0.0-365.0","3Y5140Z9DY2P932BJQ8EAXQFXXZPIP","A3UMFQFJ8HE82I","382GHPVPHSDM8N0F9141EAH7F0K34Z","","null","<img src=""img/food4.png"" style=""width:200px;border:14px solid red;"">","null","","","","","","","","","",""
"","image-keyboard-response","308","275156","0.0-367.0","3Y5140Z9DY2P932BJQ8EAXQFXXZPIP","A3UMFQFJ8HE82I","382GHPVPHSDM8N0F9141EAH7F0K34Z","","535.5","img/food4.png","75","536.0999999940395","2","0","3","2","1,0.5,0,1,0.5,0,0.5,0,1","1,0.5,0,1,0.5,0,0.5,0,1","1","false",""
"","html-keyboard-response","309","275458","0.0-368.0","3Y5140Z9DY2P932BJQ8EAXQFXXZPIP","A3UMFQFJ8HE82I","382GHPVPHSDM8N0F9141EAH7F0K34Z","","null","<img src=""img/food4.png"" style=""width:200px;border:14px solid red;"">","null","","","","","","","","","",""
"","image-keyboard-response","310","276100","0.0-370.0","3Y5140Z9DY2P932BJQ8EAXQFXXZPIP","A3UMFQFJ8HE82I","382GHPVPHSDM8N0F9141EAH7F0K34Z","","641.0999999940395","img/food5.png","76","641.8000000119209","3","0","2","2","1,0.5,0,1,0.5,0,0.5,0,1","1,0.5,0,1,0.5,0,0.5,0,1","1","false",""
"","html-keyboard-response","311","276402","0.0-371.0","3Y5140Z9DY2P932BJQ8EAXQFXXZPIP","A3UMFQFJ8HE82I","382GHPVPHSDM8N0F9141EAH7F0K34Z","","null","<img src=""img/food5.png"" style=""width:200px;border:14px solid red;"">","null","","","","","","","","","",""
"","image-keyboard-response","312","276548","0.0-373.0","3Y5140Z9DY2P932BJQ8EAXQFXXZPIP","A3UMFQFJ8HE82I","382GHPVPHSDM8N0F9141EAH7F0K34Z","","144.90000000596046","img/food1.png","75","145.90000000596046","2","1","1","2","1,0.5,0,1,0.5,0,0.5,0,1","1,0.5,0,1,0.5,0,0.5,0,1","1","false",""
"","html-keyboard-response","313","276850","0.0-374.0","3Y5140Z9DY2P932BJQ8EAXQFXXZPIP","A3UMFQFJ8HE82I","382GHPVPHSDM8N0F9141EAH7F0K34Z","","null","<img src=""img/food1.png"" style=""width:200px; border:14px solid green;"">","null","","","","","","","","","",""
"","image-keyboard-response","314","277172","0.0-376.0","3Y5140Z9DY2P932BJQ8EAXQFXXZPIP","A3UMFQFJ8HE82I","382GHPVPHSDM8N0F9141EAH7F0K34Z","","321.10000002384186","img/food1.png","74","321.7999999821186","1","1","1","2","1,0.5,0,1,0.5,0,0.5,0,1","1,0.5,0,1,0.5,0,0.5,0,1","1","false",""
"","html-keyboard-response","315","277487","0.0-377.0","3Y5140Z9DY2P932BJQ8EAXQFXXZPIP","A3UMFQFJ8HE82I","382GHPVPHSDM8N0F9141EAH7F0K34Z","","null","<img src=""img/food1.png"" style=""width:200px; border:14px solid green;"">","null","","","","","","","","","",""
"","image-keyboard-response","316","277651","0.0-379.0","3Y5140Z9DY2P932BJQ8EAXQFXXZPIP","A3UMFQFJ8HE82I","382GHPVPHSDM8N0F9141EAH7F0K34Z","","163.7000000178814","img/food1.png","75","164.2999999821186","2","0","1","2","1,0.5,0,1,0.5,0,0.5,0,1","1,0.5,0,1,0.5,0,0.5,0,1","1","false",""
"","html-keyboard-response","317","277953","0.0-380.0","3Y5140Z9DY2P932BJQ8EAXQFXXZPIP","A3UMFQFJ8HE82I","382GHPVPHSDM8N0F9141EAH7F0K34Z","","null","<img src=""img/food1.png"" style=""width:200px;border:14px solid red;"">","null","","","","","","","","","",""
"","image-keyboard-response","318","278211","0.0-382.0","3Y5140Z9DY2P932BJQ8EAXQFXXZPIP","A3UMFQFJ8HE82I","382GHPVPHSDM8N0F9141EAH7F0K34Z","","257.40000000596046","img/food1.png","74","258","1","1","1","2","1,0.5,0,1,0.5,0,0.5,0,1","1,0.5,0,1,0.5,0,0.5,0,1","1","false",""
"","html-keyboard-response","319","278513","0.0-383.0","3Y5140Z9DY2P932BJQ8EAXQFXXZPIP","A3UMFQFJ8HE82I","382GHPVPHSDM8N0F9141EAH7F0K34Z","","null","<img src=""img/food1.png"" style=""width:200px; border:14px solid green;"">","null","","","","","","","","","",""
"","image-keyboard-response","320","278691","0.0-385.0","3Y5140Z9DY2P932BJQ8EAXQFXXZPIP","A3UMFQFJ8HE82I","382GHPVPHSDM8N0F9141EAH7F0K34Z","","177.09999999403954","img/food1.png","74","177.59999999403954","1","1","1","2","1,0.5,0,1,0.5,0,0.5,0,1","1,0.5,0,1,0.5,0,0.5,0,1","1","false",""
"","html-keyboard-response","321","278993","0.0-386.0","3Y5140Z9DY2P932BJQ8EAXQFXXZPIP","A3UMFQFJ8HE82I","382GHPVPHSDM8N0F9141EAH7F0K34Z","","null","<img src=""img/food1.png"" style=""width:200px; border:14px solid green;"">","null","","","","","","","","","",""
"","image-keyboard-response","322","279203","0.0-388.0","3Y5140Z9DY2P932BJQ8EAXQFXXZPIP","A3UMFQFJ8HE82I","382GHPVPHSDM8N0F9141EAH7F0K34Z","","209.59999999403954","img/food4.png","74","210.2999999821186","1","1","3","2","1,0.5,0,1,0.5,0,0.5,0,1","1,0.5,0,1,0.5,0,0.5,0,1","1","false",""
"","html-keyboard-response","323","279505","0.0-389.0","3Y5140Z9DY2P932BJQ8EAXQFXXZPIP","A3UMFQFJ8HE82I","382GHPVPHSDM8N0F9141EAH7F0K34Z","","null","<img src=""img/food4.png"" style=""width:200px; border:14px solid green;"">","null","","","","","","","","","",""
"","image-keyboard-response","324","280035","0.0-391.0","3Y5140Z9DY2P932BJQ8EAXQFXXZPIP","A3UMFQFJ8HE82I","382GHPVPHSDM8N0F9141EAH7F0K34Z","","529.3000000119209","img/food4.png","74","530","1","1","3","2","1,0.5,0,1,0.5,0,0.5,0,1","1,0.5,0,1,0.5,0,0.5,0,1","1","false",""
"","html-keyboard-response","325","280352","0.0-392.0","3Y5140Z9DY2P932BJQ8EAXQFXXZPIP","A3UMFQFJ8HE82I","382GHPVPHSDM8N0F9141EAH7F0K34Z","","null","<img src=""img/food4.png"" style=""width:200px; border:14px solid green;"">","null","","","","","","","","","",""
"","image-keyboard-response","326","280468","0.0-394.0","3Y5140Z9DY2P932BJQ8EAXQFXXZPIP","A3UMFQFJ8HE82I","382GHPVPHSDM8N0F9141EAH7F0K34Z","","114.80000001192093","img/food1.png","74","115.7000000178814","1","1","1","2","1,0.5,0,1,0.5,0,0.5,0,1","1,0.5,0,1,0.5,0,0.5,0,1","1","false",""
"","html-keyboard-response","327","280770","0.0-395.0","3Y5140Z9DY2P932BJQ8EAXQFXXZPIP","A3UMFQFJ8HE82I","382GHPVPHSDM8N0F9141EAH7F0K34Z","","null","<img src=""img/food1.png"" style=""width:200px; border:14px solid green;"">","null","","","","","","","","","",""
"","image-keyboard-response","328","281091","0.0-397.0","3Y5140Z9DY2P932BJQ8EAXQFXXZPIP","A3UMFQFJ8HE82I","382GHPVPHSDM8N0F9141EAH7F0K34Z","","320.7000000178814","img/food1.png","74","321.5","1","1","1","2","1,0.5,0,1,0.5,0,0.5,0,1","1,0.5,0,1,0.5,0,0.5,0,1","1","false",""
"","html-keyboard-response","329","281393","0.0-398.0","3Y5140Z9DY2P932BJQ8EAXQFXXZPIP","A3UMFQFJ8HE82I","382GHPVPHSDM8N0F9141EAH7F0K34Z","","null","<img src=""img/food1.png"" style=""width:200px; border:14px solid green;"">","null","","","","","","","","","",""
"","image-keyboard-response","330","281588","0.0-400.0","3Y5140Z9DY2P932BJQ8EAXQFXXZPIP","A3UMFQFJ8HE82I","382GHPVPHSDM8N0F9141EAH7F0K34Z","","194.19999998807907","img/food5.png","74","194.80000001192093","1","1","2","2","1,0.5,0,1,0.5,0,0.5,0,1","1,0.5,0,1,0.5,0,0.5,0,1","1","false",""
"","html-keyboard-response","331","281890","0.0-401.0","3Y5140Z9DY2P932BJQ8EAXQFXXZPIP","A3UMFQFJ8HE82I","382GHPVPHSDM8N0F9141EAH7F0K34Z","","null","<img src=""img/food5.png"" style=""width:200px; border:14px solid green;"">","null","","","","","","","","","",""
"","image-keyboard-response","332","282051","0.0-403.0","3Y5140Z9DY2P932BJQ8EAXQFXXZPIP","A3UMFQFJ8HE82I","382GHPVPHSDM8N0F9141EAH7F0K34Z","","160","img/food1.png","74","160.69999998807907","1","1","1","2","1,0.5,0,1,0.5,0,0.5,0,1","1,0.5,0,1,0.5,0,0.5,0,1","1","false",""
"","html-keyboard-response","333","282353","0.0-404.0","3Y5140Z9DY2P932BJQ8EAXQFXXZPIP","A3UMFQFJ8HE82I","382GHPVPHSDM8N0F9141EAH7F0K34Z","","null","<img src=""img/food1.png"" style=""width:200px; border:14px solid green;"">","null","","","","","","","","","",""
"","image-keyboard-response","334","282532","0.0-406.0","3Y5140Z9DY2P932BJQ8EAXQFXXZPIP","A3UMFQFJ8HE82I","382GHPVPHSDM8N0F9141EAH7F0K34Z","","177","img/food5.png","74","177.90000000596046","1","1","2","2","1,0.5,0,1,0.5,0,0.5,0,1","1,0.5,0,1,0.5,0,0.5,0,1","1","false",""
"","html-keyboard-response","335","282833","0.0-407.0","3Y5140Z9DY2P932BJQ8EAXQFXXZPIP","A3UMFQFJ8HE82I","382GHPVPHSDM8N0F9141EAH7F0K34Z","","null","<img src=""img/food5.png"" style=""width:200px; border:14px solid green;"">","null","","","","","","","","","",""
"","image-keyboard-response","336","282995","0.0-409.0","3Y5140Z9DY2P932BJQ8EAXQFXXZPIP","A3UMFQFJ8HE82I","382GHPVPHSDM8N0F9141EAH7F0K34Z","","160.7999999821186","img/food1.png","74","161.5","1","1","1","2","1,0.5,0,1,0.5,0,0.5,0,1","1,0.5,0,1,0.5,0,0.5,0,1","1","false",""
"","html-keyboard-response","337","283298","0.0-410.0","3Y5140Z9DY2P932BJQ8EAXQFXXZPIP","A3UMFQFJ8HE82I","382GHPVPHSDM8N0F9141EAH7F0K34Z","","null","<img src=""img/food1.png"" style=""width:200px; border:14px solid green;"">","null","","","","","","","","","",""
"","image-keyboard-response","338","283443","0.0-412.0","3Y5140Z9DY2P932BJQ8EAXQFXXZPIP","A3UMFQFJ8HE82I","382GHPVPHSDM8N0F9141EAH7F0K34Z","","144.7000000178814","img/food5.png","74","145.5","1","1","2","2","1,0.5,0,1,0.5,0,0.5,0,1","1,0.5,0,1,0.5,0,0.5,0,1","1","false",""
"","html-keyboard-response","339","283745","0.0-413.0","3Y5140Z9DY2P932BJQ8EAXQFXXZPIP","A3UMFQFJ8HE82I","382GHPVPHSDM8N0F9141EAH7F0K34Z","","null","<img src=""img/food5.png"" style=""width:200px; border:14px solid green;"">","null","","","","","","","","","",""
"","image-keyboard-response","340","283891","0.0-415.0","3Y5140Z9DY2P932BJQ8EAXQFXXZPIP","A3UMFQFJ8HE82I","382GHPVPHSDM8N0F9141EAH7F0K34Z","","145","img/food1.png","74","145.69999998807907","1","1","1","2","1,0.5,0,1,0.5,0,0.5,0,1","1,0.5,0,1,0.5,0,0.5,0,1","1","false",""
"","html-keyboard-response","341","284193","0.0-416.0","3Y5140Z9DY2P932BJQ8EAXQFXXZPIP","A3UMFQFJ8HE82I","382GHPVPHSDM8N0F9141EAH7F0K34Z","","null","<img src=""img/food1.png"" style=""width:200px; border:14px solid green;"">","null","","","","","","","","","",""
"","image-keyboard-response","342","284387","0.0-418.0","3Y5140Z9DY2P932BJQ8EAXQFXXZPIP","A3UMFQFJ8HE82I","382GHPVPHSDM8N0F9141EAH7F0K34Z","","193.40000000596046","img/food4.png","74","194.09999999403954","1","1","3","2","1,0.5,0,1,0.5,0,0.5,0,1","1,0.5,0,1,0.5,0,0.5,0,1","1","false",""
"","html-keyboard-response","343","284688","0.0-419.0","3Y5140Z9DY2P932BJQ8EAXQFXXZPIP","A3UMFQFJ8HE82I","382GHPVPHSDM8N0F9141EAH7F0K34Z","","null","<img src=""img/food4.png"" style=""width:200px; border:14px solid green;"">","null","","","","","","","","","",""
"","image-keyboard-response","344","284851","0.0-421.0","3Y5140Z9DY2P932BJQ8EAXQFXXZPIP","A3UMFQFJ8HE82I","382GHPVPHSDM8N0F9141EAH7F0K34Z","","161.69999998807907","img/food1.png","74","162.5","1","1","1","2","1,0.5,0,1,0.5,0,0.5,0,1","1,0.5,0,1,0.5,0,0.5,0,1","1","false",""
"","html-keyboard-response","345","285153","0.0-422.0","3Y5140Z9DY2P932BJQ8EAXQFXXZPIP","A3UMFQFJ8HE82I","382GHPVPHSDM8N0F9141EAH7F0K34Z","","null","<img src=""img/food1.png"" style=""width:200px; border:14px solid green;"">","null","","","","","","","","","",""
"","image-keyboard-response","346","285283","0.0-424.0","3Y5140Z9DY2P932BJQ8EAXQFXXZPIP","A3UMFQFJ8HE82I","382GHPVPHSDM8N0F9141EAH7F0K34Z","","129.80000001192093","img/food4.png","74","130.5","1","0","3","2","1,0.5,0,1,0.5,0,0.5,0,1","1,0.5,0,1,0.5,0,0.5,0,1","1","false",""
"","html-keyboard-response","347","285592","0.0-425.0","3Y5140Z9DY2P932BJQ8EAXQFXXZPIP","A3UMFQFJ8HE82I","382GHPVPHSDM8N0F9141EAH7F0K34Z","","null","<img src=""img/food4.png"" style=""width:200px;border:14px solid red;"">","null","","","","","","","","","",""
"","image-keyboard-response","348","285715","0.0-427.0","3Y5140Z9DY2P932BJQ8EAXQFXXZPIP","A3UMFQFJ8HE82I","382GHPVPHSDM8N0F9141EAH7F0K34Z","","122.30000001192093","img/food4.png","74","123.19999998807907","1","0","3","2","1,0.5,0,1,0.5,0,0.5,0,1","1,0.5,0,1,0.5,0,0.5,0,1","1","false",""
"","html-keyboard-response","349","286018","0.0-428.0","3Y5140Z9DY2P932BJQ8EAXQFXXZPIP","A3UMFQFJ8HE82I","382GHPVPHSDM8N0F9141EAH7F0K34Z","","null","<img src=""img/food4.png"" style=""width:200px;border:14px solid red;"">","null","","","","","","","","","",""
"","image-keyboard-response","350","286083","0.0-430.0","3Y5140Z9DY2P932BJQ8EAXQFXXZPIP","A3UMFQFJ8HE82I","382GHPVPHSDM8N0F9141EAH7F0K34Z","","64.60000002384186","img/food1.png","75","65.19999998807907","2","1","1","2","1,0.5,0,1,0.5,0,0.5,0,1","1,0.5,0,1,0.5,0,0.5,0,1","1","false",""
"","html-keyboard-response","351","286386","0.0-431.0","3Y5140Z9DY2P932BJQ8EAXQFXXZPIP","A3UMFQFJ8HE82I","382GHPVPHSDM8N0F9141EAH7F0K34Z","","null","<img src=""img/food1.png"" style=""width:200px; border:14px solid green;"">","null","","","","","","","","","",""
"","image-keyboard-response","352","286419","0.0-433.0","3Y5140Z9DY2P932BJQ8EAXQFXXZPIP","A3UMFQFJ8HE82I","382GHPVPHSDM8N0F9141EAH7F0K34Z","","32.60000002384186","img/food1.png","76","33.19999998807907","3","0","1","2","1,0.5,0,1,0.5,0,0.5,0,1","1,0.5,0,1,0.5,0,0.5,0,1","1","false",""
"","html-keyboard-response","353","286721","0.0-434.0","3Y5140Z9DY2P932BJQ8EAXQFXXZPIP","A3UMFQFJ8HE82I","382GHPVPHSDM8N0F9141EAH7F0K34Z","","null","<img src=""img/food1.png"" style=""width:200px;border:14px solid red;"">","null","","","","","","","","","",""
"","image-keyboard-response","354","286835","0.0-436.0","3Y5140Z9DY2P932BJQ8EAXQFXXZPIP","A3UMFQFJ8HE82I","382GHPVPHSDM8N0F9141EAH7F0K34Z","","113.40000000596046","img/food4.png","76","114.09999999403954","3","1","3","2","1,0.5,0,1,0.5,0,0.5,0,1","1,0.5,0,1,0.5,0,0.5,0,1","1","false",""
"","html-keyboard-response","355","287136","0.0-437.0","3Y5140Z9DY2P932BJQ8EAXQFXXZPIP","A3UMFQFJ8HE82I","382GHPVPHSDM8N0F9141EAH7F0K34Z","","null","<img src=""img/food4.png"" style=""width:200px; border:14px solid green;"">","null","","","","","","","","","",""
"","image-keyboard-response","356","287267","0.0-439.0","3Y5140Z9DY2P932BJQ8EAXQFXXZPIP","A3UMFQFJ8HE82I","382GHPVPHSDM8N0F9141EAH7F0K34Z","","130","img/food4.png","75","130.69999998807907","2","0","3","2","1,0.5,0,1,0.5,0,0.5,0,1","1,0.5,0,1,0.5,0,0.5,0,1","1","false",""
"","html-keyboard-response","357","287568","0.0-440.0","3Y5140Z9DY2P932BJQ8EAXQFXXZPIP","A3UMFQFJ8HE82I","382GHPVPHSDM8N0F9141EAH7F0K34Z","","null","<img src=""img/food4.png"" style=""width:200px;border:14px solid red;"">","null","","","","","","","","","",""
"","image-keyboard-response","358","287699","0.0-442.0","3Y5140Z9DY2P932BJQ8EAXQFXXZPIP","A3UMFQFJ8HE82I","382GHPVPHSDM8N0F9141EAH7F0K34Z","","129.90000000596046","img/food1.png","76","130.69999998807907","3","0","1","2","1,0.5,0,1,0.5,0,0.5,0,1","1,0.5,0,1,0.5,0,0.5,0,1","1","false",""
"","html-keyboard-response","359","288001","0.0-443.0","3Y5140Z9DY2P932BJQ8EAXQFXXZPIP","A3UMFQFJ8HE82I","382GHPVPHSDM8N0F9141EAH7F0K34Z","","null","<img src=""img/food1.png"" style=""width:200px;border:14px solid red;"">","null","","","","","","","","","",""
"","image-keyboard-response","360","288595","0.0-445.0","3Y5140Z9DY2P932BJQ8EAXQFXXZPIP","A3UMFQFJ8HE82I","382GHPVPHSDM8N0F9141EAH7F0K34Z","","593.5999999940395","img/food4.png","75","594.2999999821186","2","0","3","2","1,0.5,0,1,0.5,0,0.5,0,1","1,0.5,0,1,0.5,0,0.5,0,1","1","false",""
"","html-keyboard-response","361","288897","0.0-446.0","3Y5140Z9DY2P932BJQ8EAXQFXXZPIP","A3UMFQFJ8HE82I","382GHPVPHSDM8N0F9141EAH7F0K34Z","","null","<img src=""img/food4.png"" style=""width:200px;border:14px solid red;"">","null","","","","","","","","","",""
"","image-keyboard-response","362","289379","0.0-448.0","3Y5140Z9DY2P932BJQ8EAXQFXXZPIP","A3UMFQFJ8HE82I","382GHPVPHSDM8N0F9141EAH7F0K34Z","","481.19999998807907","img/food5.png","76","482","3","0","2","2","1,0.5,0,1,0.5,0,0.5,0,1","1,0.5,0,1,0.5,0,0.5,0,1","1","false",""
"","html-keyboard-response","363","289681","0.0-449.0","3Y5140Z9DY2P932BJQ8EAXQFXXZPIP","A3UMFQFJ8HE82I","382GHPVPHSDM8N0F9141EAH7F0K34Z","","null","<img src=""img/food5.png"" style=""width:200px;border:14px solid red;"">","null","","","","","","","","","",""
"","image-keyboard-response","364","289971","0.0-451.0","3Y5140Z9DY2P932BJQ8EAXQFXXZPIP","A3UMFQFJ8HE82I","382GHPVPHSDM8N0F9141EAH7F0K34Z","","289.2000000178814","img/food5.png","74","290","1","1","2","2","1,0.5,0,1,0.5,0,0.5,0,1","1,0.5,0,1,0.5,0,0.5,0,1","1","false",""
"","html-keyboard-response","365","290273","0.0-452.0","3Y5140Z9DY2P932BJQ8EAXQFXXZPIP","A3UMFQFJ8HE82I","382GHPVPHSDM8N0F9141EAH7F0K34Z","","null","<img src=""img/food5.png"" style=""width:200px; border:14px solid green;"">","null","","","","","","","","","",""
"","instructions","366","293028","0.0-454.0","3Y5140Z9DY2P932BJQ8EAXQFXXZPIP","A3UMFQFJ8HE82I","382GHPVPHSDM8N0F9141EAH7F0K34Z","[{""page_index"":0,""viewing_time"":2753.300000011921}]","2753.5999999940395","","","","","","","","","","","",""
"","survey-text","367","303650","0.0-455.0","3Y5140Z9DY2P932BJQ8EAXQFXXZPIP","A3UMFQFJ8HE82I","382GHPVPHSDM8N0F9141EAH7F0K34Z","","10617.40000000596","","","","","","","","","","","","{""Q0"":""A3UMFQFJ8HE82I""}"
