"success","trial_type","trial_index","time_elapsed","internal_node_id","assignmentID","mturkID","hitID","view_history","rt","stimulus","key_press","reactionTime","a","r","s","cond","reward_cond","reward_cond_actual","reward_matrix_idx","warning","responses"
"true","fullscreen","0","2890","0.0-0.0","3JPSL1DZ5TLA0070RN39PAX1K31NAH","A3V2XCDF45VN9X","3UDTAB6HH6LRO17U79I9TKUGYFV09C","","","","","","","","","","","","","",""
"","instructions","1","11593","0.0-1.0","3JPSL1DZ5TLA0070RN39PAX1K31NAH","A3V2XCDF45VN9X","3UDTAB6HH6LRO17U79I9TKUGYFV09C","[{""page_index"":0,""viewing_time"":1261.0999999046326},{""page_index"":1,""viewing_time"":969},{""page_index"":2,""viewing_time"":736.6000001430511},{""page_index"":3,""viewing_time"":1817.6999998092651},{""page_index"":4,""viewing_time"":1690.2000000476837},{""page_index"":5,""viewing_time"":1176.9000000953674},{""page_index"":6,""viewing_time"":1049.7000000476837}]","8701.5","","","","","","","","","","","",""
"","image-keyboard-response","2","13011","0.0-2.0","3JPSL1DZ5TLA0070RN39PAX1K31NAH","A3V2XCDF45VN9X","3UDTAB6HH6LRO17U79I9TKUGYFV09C","","1416.3000001907349","img/food5.png","74","1417.5999999046326","1","1","2","1","1,0.5,0,1,0.5,0,0.5,0,1","1,0.5,0,1,0.5,0,0.5,0,1","1","",""
"","html-keyboard-response","3","13319","0.0-3.0","3JPSL1DZ5TLA0070RN39PAX1K31NAH","A3V2XCDF45VN9X","3UDTAB6HH6LRO17U79I9TKUGYFV09C","","null","<img src=""img/food5.png"" style=""width:200px; border:14px solid green;"">","null","","","","","","","","","",""
"","image-keyboard-response","4","14437","0.0-4.0","3JPSL1DZ5TLA0070RN39PAX1K31NAH","A3V2XCDF45VN9X","3UDTAB6HH6LRO17U79I9TKUGYFV09C","","1116.8000001907349","img/food3.png","75","1117.5","2","0","1","1","1,0.5,0,1,0.5,0,0.5,0,1","1,0.5,0,1,0.5,0,0.5,0,1","1","",""
"","html-keyboard-response","5","14743","0.0-5.0","3JPSL1DZ5TLA0070RN39PAX1K31NAH","A3V2XCDF45VN9X","3UDTAB6HH6LRO17U79I9TKUGYFV09C","","null","<img src=""img/food3.png"" style=""width:200px;border:14px solid red;"">","null","","","","","","","","","",""
"","image-keyboard-response","6","15419","0.0-6.0","3JPSL1DZ5TLA0070RN39PAX1K31NAH","A3V2XCDF45VN9X","3UDTAB6HH6LRO17U79I9TKUGYFV09C","","674.3999998569489","img/food2.png","76","675.0999999046326","3","1","3","1","1,0.5,0,1,0.5,0,0.5,0,1","1,0.5,0,1,0.5,0,0.5,0,1","1","",""
"","html-keyboard-response","7","15730","0.0-7.0","3JPSL1DZ5TLA0070RN39PAX1K31NAH","A3V2XCDF45VN9X","3UDTAB6HH6LRO17U79I9TKUGYFV09C","","null","<img src=""img/food2.png"" style=""width:200px; border:14px solid green;"">","null","","","","","","","","","",""
"","image-keyboard-response","8","16393","0.0-8.0","3JPSL1DZ5TLA0070RN39PAX1K31NAH","A3V2XCDF45VN9X","3UDTAB6HH6LRO17U79I9TKUGYFV09C","","661.6000001430511","img/food5.png","74","662.5","1","1","2","1","1,0.5,0,1,0.5,0,0.5,0,1","1,0.5,0,1,0.5,0,0.5,0,1","1","",""
"","html-keyboard-response","9","16706","0.0-9.0","3JPSL1DZ5TLA0070RN39PAX1K31NAH","A3V2XCDF45VN9X","3UDTAB6HH6LRO17U79I9TKUGYFV09C","","null","<img src=""img/food5.png"" style=""width:200px; border:14px solid green;"">","null","","","","","","","","","",""
"","image-keyboard-response","10","17070","0.0-10.0","3JPSL1DZ5TLA0070RN39PAX1K31NAH","A3V2XCDF45VN9X","3UDTAB6HH6LRO17U79I9TKUGYFV09C","","362.60000014305115","img/food5.png","74","363.60000014305115","1","1","2","1","1,0.5,0,1,0.5,0,0.5,0,1","1,0.5,0,1,0.5,0,0.5,0,1","1","",""
"","html-keyboard-response","11","17378","0.0-11.0","3JPSL1DZ5TLA0070RN39PAX1K31NAH","A3V2XCDF45VN9X","3UDTAB6HH6LRO17U79I9TKUGYFV09C","","null","<img src=""img/food5.png"" style=""width:200px; border:14px solid green;"">","null","","","","","","","","","",""
"","image-keyboard-response","12","17805","0.0-12.0","3JPSL1DZ5TLA0070RN39PAX1K31NAH","A3V2XCDF45VN9X","3UDTAB6HH6LRO17U79I9TKUGYFV09C","","425.90000009536743","img/food5.png","74","426.60000014305115","1","1","2","1","1,0.5,0,1,0.5,0,0.5,0,1","1,0.5,0,1,0.5,0,0.5,0,1","1","",""
"","html-keyboard-response","13","18114","0.0-13.0","3JPSL1DZ5TLA0070RN39PAX1K31NAH","A3V2XCDF45VN9X","3UDTAB6HH6LRO17U79I9TKUGYFV09C","","null","<img src=""img/food5.png"" style=""width:200px; border:14px solid green;"">","null","","","","","","","","","",""
"","image-keyboard-response","14","19239","0.0-14.0","3JPSL1DZ5TLA0070RN39PAX1K31NAH","A3V2XCDF45VN9X","3UDTAB6HH6LRO17U79I9TKUGYFV09C","","1123.5","img/food2.png","75","1124.2000000476837","2","0","3","1","1,0.5,0,1,0.5,0,0.5,0,1","1,0.5,0,1,0.5,0,0.5,0,1","1","",""
"","html-keyboard-response","15","19542","0.0-15.0","3JPSL1DZ5TLA0070RN39PAX1K31NAH","A3V2XCDF45VN9X","3UDTAB6HH6LRO17U79I9TKUGYFV09C","","null","<img src=""img/food2.png"" style=""width:200px;border:14px solid red;"">","null","","","","","","","","","",""
"","image-keyboard-response","16","20444","0.0-16.0","3JPSL1DZ5TLA0070RN39PAX1K31NAH","A3V2XCDF45VN9X","3UDTAB6HH6LRO17U79I9TKUGYFV09C","","900.2999999523163","img/food3.png","76","901.2999999523163","3","0","1","1","1,0.5,0,1,0.5,0,0.5,0,1","1,0.5,0,1,0.5,0,0.5,0,1","1","",""
"","html-keyboard-response","17","20754","0.0-17.0","3JPSL1DZ5TLA0070RN39PAX1K31NAH","A3V2XCDF45VN9X","3UDTAB6HH6LRO17U79I9TKUGYFV09C","","null","<img src=""img/food3.png"" style=""width:200px;border:14px solid red;"">","null","","","","","","","","","",""
"","image-keyboard-response","18","21581","0.0-18.0","3JPSL1DZ5TLA0070RN39PAX1K31NAH","A3V2XCDF45VN9X","3UDTAB6HH6LRO17U79I9TKUGYFV09C","","826.1000001430511","img/food5.png","74","826.9000000953674","1","1","2","1","1,0.5,0,1,0.5,0,0.5,0,1","1,0.5,0,1,0.5,0,0.5,0,1","1","",""
"","html-keyboard-response","19","21889","0.0-19.0","3JPSL1DZ5TLA0070RN39PAX1K31NAH","A3V2XCDF45VN9X","3UDTAB6HH6LRO17U79I9TKUGYFV09C","","null","<img src=""img/food5.png"" style=""width:200px; border:14px solid green;"">","null","","","","","","","","","",""
"","image-keyboard-response","20","22417","0.0-20.0","3JPSL1DZ5TLA0070RN39PAX1K31NAH","A3V2XCDF45VN9X","3UDTAB6HH6LRO17U79I9TKUGYFV09C","","526.1000001430511","img/food3.png","75","527.5","2","1","1","1","1,0.5,0,1,0.5,0,0.5,0,1","1,0.5,0,1,0.5,0,0.5,0,1","1","",""
"","html-keyboard-response","21","22727","0.0-21.0","3JPSL1DZ5TLA0070RN39PAX1K31NAH","A3V2XCDF45VN9X","3UDTAB6HH6LRO17U79I9TKUGYFV09C","","null","<img src=""img/food3.png"" style=""width:200px; border:14px solid green;"">","null","","","","","","","","","",""
"","image-keyboard-response","22","23070","0.0-22.0","3JPSL1DZ5TLA0070RN39PAX1K31NAH","A3V2XCDF45VN9X","3UDTAB6HH6LRO17U79I9TKUGYFV09C","","341.2000000476837","img/food3.png","75","341.90000009536743","2","1","1","1","1,0.5,0,1,0.5,0,0.5,0,1","1,0.5,0,1,0.5,0,0.5,0,1","1","",""
"","html-keyboard-response","23","23378","0.0-23.0","3JPSL1DZ5TLA0070RN39PAX1K31NAH","A3V2XCDF45VN9X","3UDTAB6HH6LRO17U79I9TKUGYFV09C","","null","<img src=""img/food3.png"" style=""width:200px; border:14px solid green;"">","null","","","","","","","","","",""
"","image-keyboard-response","24","23886","0.0-24.0","3JPSL1DZ5TLA0070RN39PAX1K31NAH","A3V2XCDF45VN9X","3UDTAB6HH6LRO17U79I9TKUGYFV09C","","506.7000000476837","img/food2.png","76","507.40000009536743","3","1","3","1","1,0.5,0,1,0.5,0,0.5,0,1","1,0.5,0,1,0.5,0,0.5,0,1","1","",""
"","html-keyboard-response","25","24194","0.0-25.0","3JPSL1DZ5TLA0070RN39PAX1K31NAH","A3V2XCDF45VN9X","3UDTAB6HH6LRO17U79I9TKUGYFV09C","","null","<img src=""img/food2.png"" style=""width:200px; border:14px solid green;"">","null","","","","","","","","","",""
"","image-keyboard-response","26","24731","0.0-26.0","3JPSL1DZ5TLA0070RN39PAX1K31NAH","A3V2XCDF45VN9X","3UDTAB6HH6LRO17U79I9TKUGYFV09C","","535.6999998092651","img/food3.png","75","536.3999998569489","2","0","1","1","1,0.5,0,1,0.5,0,0.5,0,1","1,0.5,0,1,0.5,0,0.5,0,1","1","",""
"","html-keyboard-response","27","25042","0.0-27.0","3JPSL1DZ5TLA0070RN39PAX1K31NAH","A3V2XCDF45VN9X","3UDTAB6HH6LRO17U79I9TKUGYFV09C","","null","<img src=""img/food3.png"" style=""width:200px;border:14px solid red;"">","null","","","","","","","","","",""
"","image-keyboard-response","28","25759","0.0-28.0","3JPSL1DZ5TLA0070RN39PAX1K31NAH","A3V2XCDF45VN9X","3UDTAB6HH6LRO17U79I9TKUGYFV09C","","715.2999999523163","img/food5.png","74","716.2999999523163","1","1","2","1","1,0.5,0,1,0.5,0,0.5,0,1","1,0.5,0,1,0.5,0,0.5,0,1","1","",""
"","html-keyboard-response","29","26063","0.0-29.0","3JPSL1DZ5TLA0070RN39PAX1K31NAH","A3V2XCDF45VN9X","3UDTAB6HH6LRO17U79I9TKUGYFV09C","","null","<img src=""img/food5.png"" style=""width:200px; border:14px solid green;"">","null","","","","","","","","","",""
"","image-keyboard-response","30","26629","0.0-30.0","3JPSL1DZ5TLA0070RN39PAX1K31NAH","A3V2XCDF45VN9X","3UDTAB6HH6LRO17U79I9TKUGYFV09C","","565.4000000953674","img/food3.png","75","566","2","1","1","1","1,0.5,0,1,0.5,0,0.5,0,1","1,0.5,0,1,0.5,0,0.5,0,1","1","",""
"","html-keyboard-response","31","26935","0.0-31.0","3JPSL1DZ5TLA0070RN39PAX1K31NAH","A3V2XCDF45VN9X","3UDTAB6HH6LRO17U79I9TKUGYFV09C","","null","<img src=""img/food3.png"" style=""width:200px; border:14px solid green;"">","null","","","","","","","","","",""
"","image-keyboard-response","32","27547","0.0-32.0","3JPSL1DZ5TLA0070RN39PAX1K31NAH","A3V2XCDF45VN9X","3UDTAB6HH6LRO17U79I9TKUGYFV09C","","610","img/food2.png","76","611","3","1","3","1","1,0.5,0,1,0.5,0,0.5,0,1","1,0.5,0,1,0.5,0,0.5,0,1","1","",""
"","html-keyboard-response","33","27858","0.0-33.0","3JPSL1DZ5TLA0070RN39PAX1K31NAH","A3V2XCDF45VN9X","3UDTAB6HH6LRO17U79I9TKUGYFV09C","","null","<img src=""img/food2.png"" style=""width:200px; border:14px solid green;"">","null","","","","","","","","","",""
"","image-keyboard-response","34","28227","0.0-34.0","3JPSL1DZ5TLA0070RN39PAX1K31NAH","A3V2XCDF45VN9X","3UDTAB6HH6LRO17U79I9TKUGYFV09C","","368.2999999523163","img/food2.png","76","369","3","1","3","1","1,0.5,0,1,0.5,0,0.5,0,1","1,0.5,0,1,0.5,0,0.5,0,1","1","",""
"","html-keyboard-response","35","28537","0.0-35.0","3JPSL1DZ5TLA0070RN39PAX1K31NAH","A3V2XCDF45VN9X","3UDTAB6HH6LRO17U79I9TKUGYFV09C","","null","<img src=""img/food2.png"" style=""width:200px; border:14px solid green;"">","null","","","","","","","","","",""
"","image-keyboard-response","36","29181","0.0-36.0","3JPSL1DZ5TLA0070RN39PAX1K31NAH","A3V2XCDF45VN9X","3UDTAB6HH6LRO17U79I9TKUGYFV09C","","642.6999998092651","img/food5.png","74","643.5","1","1","2","1","1,0.5,0,1,0.5,0,0.5,0,1","1,0.5,0,1,0.5,0,0.5,0,1","1","",""
"","html-keyboard-response","37","29487","0.0-37.0","3JPSL1DZ5TLA0070RN39PAX1K31NAH","A3V2XCDF45VN9X","3UDTAB6HH6LRO17U79I9TKUGYFV09C","","null","<img src=""img/food5.png"" style=""width:200px; border:14px solid green;"">","null","","","","","","","","","",""
"","image-keyboard-response","38","29944","0.0-38.0","3JPSL1DZ5TLA0070RN39PAX1K31NAH","A3V2XCDF45VN9X","3UDTAB6HH6LRO17U79I9TKUGYFV09C","","456.2999999523163","img/food5.png","74","457.2000000476837","1","1","2","1","1,0.5,0,1,0.5,0,0.5,0,1","1,0.5,0,1,0.5,0,0.5,0,1","1","",""
"","html-keyboard-response","39","30251","0.0-39.0","3JPSL1DZ5TLA0070RN39PAX1K31NAH","A3V2XCDF45VN9X","3UDTAB6HH6LRO17U79I9TKUGYFV09C","","null","<img src=""img/food5.png"" style=""width:200px; border:14px solid green;"">","null","","","","","","","","","",""
"","image-keyboard-response","40","30900","0.0-40.0","3JPSL1DZ5TLA0070RN39PAX1K31NAH","A3V2XCDF45VN9X","3UDTAB6HH6LRO17U79I9TKUGYFV09C","","647.2999999523163","img/food2.png","75","648.1000001430511","2","0","3","1","1,0.5,0,1,0.5,0,0.5,0,1","1,0.5,0,1,0.5,0,0.5,0,1","1","",""
"","html-keyboard-response","41","31206","0.0-41.0","3JPSL1DZ5TLA0070RN39PAX1K31NAH","A3V2XCDF45VN9X","3UDTAB6HH6LRO17U79I9TKUGYFV09C","","null","<img src=""img/food2.png"" style=""width:200px;border:14px solid red;"">","null","","","","","","","","","",""
"","image-keyboard-response","42","31801","0.0-42.0","3JPSL1DZ5TLA0070RN39PAX1K31NAH","A3V2XCDF45VN9X","3UDTAB6HH6LRO17U79I9TKUGYFV09C","","594","img/food3.png","76","594.7999999523163","3","0","1","1","1,0.5,0,1,0.5,0,0.5,0,1","1,0.5,0,1,0.5,0,0.5,0,1","1","",""
"","html-keyboard-response","43","32114","0.0-43.0","3JPSL1DZ5TLA0070RN39PAX1K31NAH","A3V2XCDF45VN9X","3UDTAB6HH6LRO17U79I9TKUGYFV09C","","null","<img src=""img/food3.png"" style=""width:200px;border:14px solid red;"">","null","","","","","","","","","",""
"","image-keyboard-response","44","32791","0.0-44.0","3JPSL1DZ5TLA0070RN39PAX1K31NAH","A3V2XCDF45VN9X","3UDTAB6HH6LRO17U79I9TKUGYFV09C","","676.2000000476837","img/food2.png","76","676.9000000953674","3","1","3","1","1,0.5,0,1,0.5,0,0.5,0,1","1,0.5,0,1,0.5,0,0.5,0,1","1","",""
"","html-keyboard-response","45","33097","0.0-45.0","3JPSL1DZ5TLA0070RN39PAX1K31NAH","A3V2XCDF45VN9X","3UDTAB6HH6LRO17U79I9TKUGYFV09C","","null","<img src=""img/food2.png"" style=""width:200px; border:14px solid green;"">","null","","","","","","","","","",""
"","image-keyboard-response","46","33897","0.0-46.0","3JPSL1DZ5TLA0070RN39PAX1K31NAH","A3V2XCDF45VN9X","3UDTAB6HH6LRO17U79I9TKUGYFV09C","","799.5","img/food5.png","74","800.2000000476837","1","1","2","1","1,0.5,0,1,0.5,0,0.5,0,1","1,0.5,0,1,0.5,0,0.5,0,1","1","",""
"","html-keyboard-response","47","34207","0.0-47.0","3JPSL1DZ5TLA0070RN39PAX1K31NAH","A3V2XCDF45VN9X","3UDTAB6HH6LRO17U79I9TKUGYFV09C","","null","<img src=""img/food5.png"" style=""width:200px; border:14px solid green;"">","null","","","","","","","","","",""
"","image-keyboard-response","48","34692","0.0-48.0","3JPSL1DZ5TLA0070RN39PAX1K31NAH","A3V2XCDF45VN9X","3UDTAB6HH6LRO17U79I9TKUGYFV09C","","483.90000009536743","img/food5.png","74","484.7999999523163","1","1","2","1","1,0.5,0,1,0.5,0,0.5,0,1","1,0.5,0,1,0.5,0,0.5,0,1","1","",""
"","html-keyboard-response","49","35001","0.0-49.0","3JPSL1DZ5TLA0070RN39PAX1K31NAH","A3V2XCDF45VN9X","3UDTAB6HH6LRO17U79I9TKUGYFV09C","","null","<img src=""img/food5.png"" style=""width:200px; border:14px solid green;"">","null","","","","","","","","","",""
"","image-keyboard-response","50","35501","0.0-50.0","3JPSL1DZ5TLA0070RN39PAX1K31NAH","A3V2XCDF45VN9X","3UDTAB6HH6LRO17U79I9TKUGYFV09C","","499","img/food3.png","75","499.7999999523163","2","1","1","1","1,0.5,0,1,0.5,0,0.5,0,1","1,0.5,0,1,0.5,0,0.5,0,1","1","",""
"","html-keyboard-response","51","35810","0.0-51.0","3JPSL1DZ5TLA0070RN39PAX1K31NAH","A3V2XCDF45VN9X","3UDTAB6HH6LRO17U79I9TKUGYFV09C","","null","<img src=""img/food3.png"" style=""width:200px; border:14px solid green;"">","null","","","","","","","","","",""
"","image-keyboard-response","52","36460","0.0-52.0","3JPSL1DZ5TLA0070RN39PAX1K31NAH","A3V2XCDF45VN9X","3UDTAB6HH6LRO17U79I9TKUGYFV09C","","648.3000001907349","img/food2.png","76","649.0999999046326","3","1","3","1","1,0.5,0,1,0.5,0,0.5,0,1","1,0.5,0,1,0.5,0,0.5,0,1","1","",""
"","html-keyboard-response","53","36770","0.0-53.0","3JPSL1DZ5TLA0070RN39PAX1K31NAH","A3V2XCDF45VN9X","3UDTAB6HH6LRO17U79I9TKUGYFV09C","","null","<img src=""img/food2.png"" style=""width:200px; border:14px solid green;"">","null","","","","","","","","","",""
"","image-keyboard-response","54","37219","0.0-54.0","3JPSL1DZ5TLA0070RN39PAX1K31NAH","A3V2XCDF45VN9X","3UDTAB6HH6LRO17U79I9TKUGYFV09C","","447.89999985694885","img/food2.png","76","448.7000000476837","3","1","3","1","1,0.5,0,1,0.5,0,0.5,0,1","1,0.5,0,1,0.5,0,0.5,0,1","1","",""
"","html-keyboard-response","55","37529","0.0-55.0","3JPSL1DZ5TLA0070RN39PAX1K31NAH","A3V2XCDF45VN9X","3UDTAB6HH6LRO17U79I9TKUGYFV09C","","null","<img src=""img/food2.png"" style=""width:200px; border:14px solid green;"">","null","","","","","","","","","",""
"","image-keyboard-response","56","38111","0.0-56.0","3JPSL1DZ5TLA0070RN39PAX1K31NAH","A3V2XCDF45VN9X","3UDTAB6HH6LRO17U79I9TKUGYFV09C","","580.7000000476837","img/food5.png","74","581.3999998569489","1","1","2","1","1,0.5,0,1,0.5,0,0.5,0,1","1,0.5,0,1,0.5,0,0.5,0,1","1","",""
"","html-keyboard-response","57","38418","0.0-57.0","3JPSL1DZ5TLA0070RN39PAX1K31NAH","A3V2XCDF45VN9X","3UDTAB6HH6LRO17U79I9TKUGYFV09C","","null","<img src=""img/food5.png"" style=""width:200px; border:14px solid green;"">","null","","","","","","","","","",""
"","image-keyboard-response","58","38968","0.0-58.0","3JPSL1DZ5TLA0070RN39PAX1K31NAH","A3V2XCDF45VN9X","3UDTAB6HH6LRO17U79I9TKUGYFV09C","","548.5","img/food3.png","75","549.2000000476837","2","0","1","1","1,0.5,0,1,0.5,0,0.5,0,1","1,0.5,0,1,0.5,0,0.5,0,1","1","",""
"","html-keyboard-response","59","39274","0.0-59.0","3JPSL1DZ5TLA0070RN39PAX1K31NAH","A3V2XCDF45VN9X","3UDTAB6HH6LRO17U79I9TKUGYFV09C","","null","<img src=""img/food3.png"" style=""width:200px;border:14px solid red;"">","null","","","","","","","","","",""
"","image-keyboard-response","60","40102","0.0-60.0","3JPSL1DZ5TLA0070RN39PAX1K31NAH","A3V2XCDF45VN9X","3UDTAB6HH6LRO17U79I9TKUGYFV09C","","827.0999999046326","img/food5.png","74","828.2000000476837","1","1","2","1","1,0.5,0,1,0.5,0,0.5,0,1","1,0.5,0,1,0.5,0,0.5,0,1","1","",""
"","html-keyboard-response","61","40408","0.0-61.0","3JPSL1DZ5TLA0070RN39PAX1K31NAH","A3V2XCDF45VN9X","3UDTAB6HH6LRO17U79I9TKUGYFV09C","","null","<img src=""img/food5.png"" style=""width:200px; border:14px solid green;"">","null","","","","","","","","","",""
"","image-keyboard-response","62","40820","0.0-62.0","3JPSL1DZ5TLA0070RN39PAX1K31NAH","A3V2XCDF45VN9X","3UDTAB6HH6LRO17U79I9TKUGYFV09C","","411.2000000476837","img/food5.png","74","412","1","1","2","1","1,0.5,0,1,0.5,0,0.5,0,1","1,0.5,0,1,0.5,0,0.5,0,1","1","",""
"","html-keyboard-response","63","41131","0.0-63.0","3JPSL1DZ5TLA0070RN39PAX1K31NAH","A3V2XCDF45VN9X","3UDTAB6HH6LRO17U79I9TKUGYFV09C","","null","<img src=""img/food5.png"" style=""width:200px; border:14px solid green;"">","null","","","","","","","","","",""
"","image-keyboard-response","64","41628","0.0-64.0","3JPSL1DZ5TLA0070RN39PAX1K31NAH","A3V2XCDF45VN9X","3UDTAB6HH6LRO17U79I9TKUGYFV09C","","495.40000009536743","img/food5.png","74","496.2000000476837","1","1","2","1","1,0.5,0,1,0.5,0,0.5,0,1","1,0.5,0,1,0.5,0,0.5,0,1","1","",""
"","html-keyboard-response","65","41938","0.0-65.0","3JPSL1DZ5TLA0070RN39PAX1K31NAH","A3V2XCDF45VN9X","3UDTAB6HH6LRO17U79I9TKUGYFV09C","","null","<img src=""img/food5.png"" style=""width:200px; border:14px solid green;"">","null","","","","","","","","","",""
"","image-keyboard-response","66","42560","0.0-66.0","3JPSL1DZ5TLA0070RN39PAX1K31NAH","A3V2XCDF45VN9X","3UDTAB6HH6LRO17U79I9TKUGYFV09C","","621","img/food3.png","75","621.5999999046326","2","1","1","1","1,0.5,0,1,0.5,0,0.5,0,1","1,0.5,0,1,0.5,0,0.5,0,1","1","",""
"","html-keyboard-response","67","42867","0.0-67.0","3JPSL1DZ5TLA0070RN39PAX1K31NAH","A3V2XCDF45VN9X","3UDTAB6HH6LRO17U79I9TKUGYFV09C","","null","<img src=""img/food3.png"" style=""width:200px; border:14px solid green;"">","null","","","","","","","","","",""
"","image-keyboard-response","68","43300","0.0-68.0","3JPSL1DZ5TLA0070RN39PAX1K31NAH","A3V2XCDF45VN9X","3UDTAB6HH6LRO17U79I9TKUGYFV09C","","432.2999999523163","img/food3.png","75","433.2000000476837","2","0","1","1","1,0.5,0,1,0.5,0,0.5,0,1","1,0.5,0,1,0.5,0,0.5,0,1","1","",""
"","html-keyboard-response","69","43610","0.0-69.0","3JPSL1DZ5TLA0070RN39PAX1K31NAH","A3V2XCDF45VN9X","3UDTAB6HH6LRO17U79I9TKUGYFV09C","","null","<img src=""img/food3.png"" style=""width:200px;border:14px solid red;"">","null","","","","","","","","","",""
"","image-keyboard-response","70","44049","0.0-70.0","3JPSL1DZ5TLA0070RN39PAX1K31NAH","A3V2XCDF45VN9X","3UDTAB6HH6LRO17U79I9TKUGYFV09C","","437.5","img/food3.png","75","438.2999999523163","2","1","1","1","1,0.5,0,1,0.5,0,0.5,0,1","1,0.5,0,1,0.5,0,0.5,0,1","1","",""
"","html-keyboard-response","71","44354","0.0-71.0","3JPSL1DZ5TLA0070RN39PAX1K31NAH","A3V2XCDF45VN9X","3UDTAB6HH6LRO17U79I9TKUGYFV09C","","null","<img src=""img/food3.png"" style=""width:200px; border:14px solid green;"">","null","","","","","","","","","",""
"","image-keyboard-response","72","44858","0.0-72.0","3JPSL1DZ5TLA0070RN39PAX1K31NAH","A3V2XCDF45VN9X","3UDTAB6HH6LRO17U79I9TKUGYFV09C","","502.89999985694885","img/food2.png","76","503.5","3","1","3","1","1,0.5,0,1,0.5,0,0.5,0,1","1,0.5,0,1,0.5,0,0.5,0,1","1","",""
"","html-keyboard-response","73","45170","0.0-73.0","3JPSL1DZ5TLA0070RN39PAX1K31NAH","A3V2XCDF45VN9X","3UDTAB6HH6LRO17U79I9TKUGYFV09C","","null","<img src=""img/food2.png"" style=""width:200px; border:14px solid green;"">","null","","","","","","","","","",""
"","image-keyboard-response","74","45899","0.0-74.0","3JPSL1DZ5TLA0070RN39PAX1K31NAH","A3V2XCDF45VN9X","3UDTAB6HH6LRO17U79I9TKUGYFV09C","","727.1000001430511","img/food3.png","75","727.7000000476837","2","1","1","1","1,0.5,0,1,0.5,0,0.5,0,1","1,0.5,0,1,0.5,0,0.5,0,1","1","",""
"","html-keyboard-response","75","46210","0.0-75.0","3JPSL1DZ5TLA0070RN39PAX1K31NAH","A3V2XCDF45VN9X","3UDTAB6HH6LRO17U79I9TKUGYFV09C","","null","<img src=""img/food3.png"" style=""width:200px; border:14px solid green;"">","null","","","","","","","","","",""
"","image-keyboard-response","76","46852","0.0-76.0","3JPSL1DZ5TLA0070RN39PAX1K31NAH","A3V2XCDF45VN9X","3UDTAB6HH6LRO17U79I9TKUGYFV09C","","641.2000000476837","img/food2.png","76","641.9000000953674","3","1","3","1","1,0.5,0,1,0.5,0,0.5,0,1","1,0.5,0,1,0.5,0,0.5,0,1","1","",""
"","html-keyboard-response","77","47162","0.0-77.0","3JPSL1DZ5TLA0070RN39PAX1K31NAH","A3V2XCDF45VN9X","3UDTAB6HH6LRO17U79I9TKUGYFV09C","","null","<img src=""img/food2.png"" style=""width:200px; border:14px solid green;"">","null","","","","","","","","","",""
"","image-keyboard-response","78","47553","0.0-78.0","3JPSL1DZ5TLA0070RN39PAX1K31NAH","A3V2XCDF45VN9X","3UDTAB6HH6LRO17U79I9TKUGYFV09C","","390.39999985694885","img/food2.png","76","391.2000000476837","3","1","3","1","1,0.5,0,1,0.5,0,0.5,0,1","1,0.5,0,1,0.5,0,0.5,0,1","1","",""
"","html-keyboard-response","79","47866","0.0-79.0","3JPSL1DZ5TLA0070RN39PAX1K31NAH","A3V2XCDF45VN9X","3UDTAB6HH6LRO17U79I9TKUGYFV09C","","null","<img src=""img/food2.png"" style=""width:200px; border:14px solid green;"">","null","","","","","","","","","",""
"","image-keyboard-response","80","48324","0.0-80.0","3JPSL1DZ5TLA0070RN39PAX1K31NAH","A3V2XCDF45VN9X","3UDTAB6HH6LRO17U79I9TKUGYFV09C","","457.2999999523163","img/food2.png","76","457.90000009536743","3","1","3","1","1,0.5,0,1,0.5,0,0.5,0,1","1,0.5,0,1,0.5,0,0.5,0,1","1","",""
"","html-keyboard-response","81","48634","0.0-81.0","3JPSL1DZ5TLA0070RN39PAX1K31NAH","A3V2XCDF45VN9X","3UDTAB6HH6LRO17U79I9TKUGYFV09C","","null","<img src=""img/food2.png"" style=""width:200px; border:14px solid green;"">","null","","","","","","","","","",""
"","image-keyboard-response","82","49247","0.0-82.0","3JPSL1DZ5TLA0070RN39PAX1K31NAH","A3V2XCDF45VN9X","3UDTAB6HH6LRO17U79I9TKUGYFV09C","","612.3000001907349","img/food5.png","74","613","1","1","2","1","1,0.5,0,1,0.5,0,0.5,0,1","1,0.5,0,1,0.5,0,0.5,0,1","1","",""
"","html-keyboard-response","83","49551","0.0-83.0","3JPSL1DZ5TLA0070RN39PAX1K31NAH","A3V2XCDF45VN9X","3UDTAB6HH6LRO17U79I9TKUGYFV09C","","null","<img src=""img/food5.png"" style=""width:200px; border:14px solid green;"">","null","","","","","","","","","",""
"","image-keyboard-response","84","49946","0.0-84.0","3JPSL1DZ5TLA0070RN39PAX1K31NAH","A3V2XCDF45VN9X","3UDTAB6HH6LRO17U79I9TKUGYFV09C","","393.7999999523163","img/food5.png","74","394.5","1","1","2","1","1,0.5,0,1,0.5,0,0.5,0,1","1,0.5,0,1,0.5,0,0.5,0,1","1","",""
"","html-keyboard-response","85","50255","0.0-85.0","3JPSL1DZ5TLA0070RN39PAX1K31NAH","A3V2XCDF45VN9X","3UDTAB6HH6LRO17U79I9TKUGYFV09C","","null","<img src=""img/food5.png"" style=""width:200px; border:14px solid green;"">","null","","","","","","","","","",""
"","image-keyboard-response","86","50879","0.0-86.0","3JPSL1DZ5TLA0070RN39PAX1K31NAH","A3V2XCDF45VN9X","3UDTAB6HH6LRO17U79I9TKUGYFV09C","","622.5","img/food3.png","75","623.0999999046326","2","1","1","1","1,0.5,0,1,0.5,0,0.5,0,1","1,0.5,0,1,0.5,0,0.5,0,1","1","",""
"","html-keyboard-response","87","51186","0.0-87.0","3JPSL1DZ5TLA0070RN39PAX1K31NAH","A3V2XCDF45VN9X","3UDTAB6HH6LRO17U79I9TKUGYFV09C","","null","<img src=""img/food3.png"" style=""width:200px; border:14px solid green;"">","null","","","","","","","","","",""
"","image-keyboard-response","88","51824","0.0-88.0","3JPSL1DZ5TLA0070RN39PAX1K31NAH","A3V2XCDF45VN9X","3UDTAB6HH6LRO17U79I9TKUGYFV09C","","636.7999999523163","img/food2.png","76","637.7000000476837","3","1","3","1","1,0.5,0,1,0.5,0,0.5,0,1","1,0.5,0,1,0.5,0,0.5,0,1","1","",""
"","html-keyboard-response","89","52128","0.0-89.0","3JPSL1DZ5TLA0070RN39PAX1K31NAH","A3V2XCDF45VN9X","3UDTAB6HH6LRO17U79I9TKUGYFV09C","","null","<img src=""img/food2.png"" style=""width:200px; border:14px solid green;"">","null","","","","","","","","","",""
"","image-keyboard-response","90","52837","0.0-90.0","3JPSL1DZ5TLA0070RN39PAX1K31NAH","A3V2XCDF45VN9X","3UDTAB6HH6LRO17U79I9TKUGYFV09C","","708.2000000476837","img/food3.png","75","709","2","0","1","1","1,0.5,0,1,0.5,0,0.5,0,1","1,0.5,0,1,0.5,0,0.5,0,1","1","",""
"","html-keyboard-response","91","53143","0.0-91.0","3JPSL1DZ5TLA0070RN39PAX1K31NAH","A3V2XCDF45VN9X","3UDTAB6HH6LRO17U79I9TKUGYFV09C","","null","<img src=""img/food3.png"" style=""width:200px;border:14px solid red;"">","null","","","","","","","","","",""
"","image-keyboard-response","92","53645","0.0-92.0","3JPSL1DZ5TLA0070RN39PAX1K31NAH","A3V2XCDF45VN9X","3UDTAB6HH6LRO17U79I9TKUGYFV09C","","500.89999985694885","img/food3.png","75","501.60000014305115","2","1","1","1","1,0.5,0,1,0.5,0,0.5,0,1","1,0.5,0,1,0.5,0,0.5,0,1","1","",""
"","html-keyboard-response","93","53955","0.0-93.0","3JPSL1DZ5TLA0070RN39PAX1K31NAH","A3V2XCDF45VN9X","3UDTAB6HH6LRO17U79I9TKUGYFV09C","","null","<img src=""img/food3.png"" style=""width:200px; border:14px solid green;"">","null","","","","","","","","","",""
"","image-keyboard-response","94","54437","0.0-94.0","3JPSL1DZ5TLA0070RN39PAX1K31NAH","A3V2XCDF45VN9X","3UDTAB6HH6LRO17U79I9TKUGYFV09C","","480.60000014305115","img/food3.png","75","481.2000000476837","2","1","1","1","1,0.5,0,1,0.5,0,0.5,0,1","1,0.5,0,1,0.5,0,0.5,0,1","1","",""
"","html-keyboard-response","95","54746","0.0-95.0","3JPSL1DZ5TLA0070RN39PAX1K31NAH","A3V2XCDF45VN9X","3UDTAB6HH6LRO17U79I9TKUGYFV09C","","null","<img src=""img/food3.png"" style=""width:200px; border:14px solid green;"">","null","","","","","","","","","",""
"","image-keyboard-response","96","55215","0.0-96.0","3JPSL1DZ5TLA0070RN39PAX1K31NAH","A3V2XCDF45VN9X","3UDTAB6HH6LRO17U79I9TKUGYFV09C","","468","img/food2.png","76","468.60000014305115","3","1","3","1","1,0.5,0,1,0.5,0,0.5,0,1","1,0.5,0,1,0.5,0,0.5,0,1","1","",""
"","html-keyboard-response","97","55523","0.0-97.0","3JPSL1DZ5TLA0070RN39PAX1K31NAH","A3V2XCDF45VN9X","3UDTAB6HH6LRO17U79I9TKUGYFV09C","","null","<img src=""img/food2.png"" style=""width:200px; border:14px solid green;"">","null","","","","","","","","","",""
"","image-keyboard-response","98","56129","0.0-98.0","3JPSL1DZ5TLA0070RN39PAX1K31NAH","A3V2XCDF45VN9X","3UDTAB6HH6LRO17U79I9TKUGYFV09C","","605.5","img/food5.png","74","606.2000000476837","1","1","2","1","1,0.5,0,1,0.5,0,0.5,0,1","1,0.5,0,1,0.5,0,0.5,0,1","1","",""
"","html-keyboard-response","99","56435","0.0-99.0","3JPSL1DZ5TLA0070RN39PAX1K31NAH","A3V2XCDF45VN9X","3UDTAB6HH6LRO17U79I9TKUGYFV09C","","null","<img src=""img/food5.png"" style=""width:200px; border:14px solid green;"">","null","","","","","","","","","",""
"","image-keyboard-response","100","56888","0.0-100.0","3JPSL1DZ5TLA0070RN39PAX1K31NAH","A3V2XCDF45VN9X","3UDTAB6HH6LRO17U79I9TKUGYFV09C","","452","img/food5.png","74","452.60000014305115","1","1","2","1","1,0.5,0,1,0.5,0,0.5,0,1","1,0.5,0,1,0.5,0,0.5,0,1","1","",""
"","html-keyboard-response","101","57194","0.0-101.0","3JPSL1DZ5TLA0070RN39PAX1K31NAH","A3V2XCDF45VN9X","3UDTAB6HH6LRO17U79I9TKUGYFV09C","","null","<img src=""img/food5.png"" style=""width:200px; border:14px solid green;"">","null","","","","","","","","","",""
"","image-keyboard-response","102","57656","0.0-102.0","3JPSL1DZ5TLA0070RN39PAX1K31NAH","A3V2XCDF45VN9X","3UDTAB6HH6LRO17U79I9TKUGYFV09C","","460.10000014305115","img/food5.png","74","460.7999999523163","1","1","2","1","1,0.5,0,1,0.5,0,0.5,0,1","1,0.5,0,1,0.5,0,0.5,0,1","1","",""
"","html-keyboard-response","103","57962","0.0-103.0","3JPSL1DZ5TLA0070RN39PAX1K31NAH","A3V2XCDF45VN9X","3UDTAB6HH6LRO17U79I9TKUGYFV09C","","null","<img src=""img/food5.png"" style=""width:200px; border:14px solid green;"">","null","","","","","","","","","",""
"","image-keyboard-response","104","58664","0.0-104.0","3JPSL1DZ5TLA0070RN39PAX1K31NAH","A3V2XCDF45VN9X","3UDTAB6HH6LRO17U79I9TKUGYFV09C","","701","img/food3.png","75","701.7000000476837","2","1","1","1","1,0.5,0,1,0.5,0,0.5,0,1","1,0.5,0,1,0.5,0,0.5,0,1","1","",""
"","html-keyboard-response","105","58970","0.0-105.0","3JPSL1DZ5TLA0070RN39PAX1K31NAH","A3V2XCDF45VN9X","3UDTAB6HH6LRO17U79I9TKUGYFV09C","","null","<img src=""img/food3.png"" style=""width:200px; border:14px solid green;"">","null","","","","","","","","","",""
"","image-keyboard-response","106","59365","0.0-106.0","3JPSL1DZ5TLA0070RN39PAX1K31NAH","A3V2XCDF45VN9X","3UDTAB6HH6LRO17U79I9TKUGYFV09C","","393.2000000476837","img/food3.png","75","393.90000009536743","2","1","1","1","1,0.5,0,1,0.5,0,0.5,0,1","1,0.5,0,1,0.5,0,0.5,0,1","1","",""
"","html-keyboard-response","107","59676","0.0-107.0","3JPSL1DZ5TLA0070RN39PAX1K31NAH","A3V2XCDF45VN9X","3UDTAB6HH6LRO17U79I9TKUGYFV09C","","null","<img src=""img/food3.png"" style=""width:200px; border:14px solid green;"">","null","","","","","","","","","",""
"","image-keyboard-response","108","60149","0.0-108.0","3JPSL1DZ5TLA0070RN39PAX1K31NAH","A3V2XCDF45VN9X","3UDTAB6HH6LRO17U79I9TKUGYFV09C","","472.60000014305115","img/food5.png","76","473.19999980926514","3","0","2","1","1,0.5,0,1,0.5,0,0.5,0,1","1,0.5,0,1,0.5,0,0.5,0,1","1","",""
"","html-keyboard-response","109","60456","0.0-109.0","3JPSL1DZ5TLA0070RN39PAX1K31NAH","A3V2XCDF45VN9X","3UDTAB6HH6LRO17U79I9TKUGYFV09C","","null","<img src=""img/food5.png"" style=""width:200px;border:14px solid red;"">","null","","","","","","","","","",""
"","image-keyboard-response","110","61093","0.0-110.0","3JPSL1DZ5TLA0070RN39PAX1K31NAH","A3V2XCDF45VN9X","3UDTAB6HH6LRO17U79I9TKUGYFV09C","","635.6000001430511","img/food2.png","76","636.5999999046326","3","1","3","1","1,0.5,0,1,0.5,0,0.5,0,1","1,0.5,0,1,0.5,0,0.5,0,1","1","",""
"","html-keyboard-response","111","61402","0.0-111.0","3JPSL1DZ5TLA0070RN39PAX1K31NAH","A3V2XCDF45VN9X","3UDTAB6HH6LRO17U79I9TKUGYFV09C","","null","<img src=""img/food2.png"" style=""width:200px; border:14px solid green;"">","null","","","","","","","","","",""
"","image-keyboard-response","112","61836","0.0-112.0","3JPSL1DZ5TLA0070RN39PAX1K31NAH","A3V2XCDF45VN9X","3UDTAB6HH6LRO17U79I9TKUGYFV09C","","432.7000000476837","img/food2.png","76","433.40000009536743","3","1","3","1","1,0.5,0,1,0.5,0,0.5,0,1","1,0.5,0,1,0.5,0,0.5,0,1","1","",""
"","html-keyboard-response","113","62147","0.0-113.0","3JPSL1DZ5TLA0070RN39PAX1K31NAH","A3V2XCDF45VN9X","3UDTAB6HH6LRO17U79I9TKUGYFV09C","","null","<img src=""img/food2.png"" style=""width:200px; border:14px solid green;"">","null","","","","","","","","","",""
"","image-keyboard-response","114","62829","0.0-114.0","3JPSL1DZ5TLA0070RN39PAX1K31NAH","A3V2XCDF45VN9X","3UDTAB6HH6LRO17U79I9TKUGYFV09C","","681","img/food3.png","75","681.7999999523163","2","0","1","1","1,0.5,0,1,0.5,0,0.5,0,1","1,0.5,0,1,0.5,0,0.5,0,1","1","",""
"","html-keyboard-response","115","63138","0.0-115.0","3JPSL1DZ5TLA0070RN39PAX1K31NAH","A3V2XCDF45VN9X","3UDTAB6HH6LRO17U79I9TKUGYFV09C","","null","<img src=""img/food3.png"" style=""width:200px;border:14px solid red;"">","null","","","","","","","","","",""
"","image-keyboard-response","116","63974","0.0-116.0","3JPSL1DZ5TLA0070RN39PAX1K31NAH","A3V2XCDF45VN9X","3UDTAB6HH6LRO17U79I9TKUGYFV09C","","835","img/food2.png","76","836","3","1","3","1","1,0.5,0,1,0.5,0,0.5,0,1","1,0.5,0,1,0.5,0,0.5,0,1","1","",""
"","html-keyboard-response","117","64282","0.0-117.0","3JPSL1DZ5TLA0070RN39PAX1K31NAH","A3V2XCDF45VN9X","3UDTAB6HH6LRO17U79I9TKUGYFV09C","","null","<img src=""img/food2.png"" style=""width:200px; border:14px solid green;"">","null","","","","","","","","","",""
"","image-keyboard-response","118","64564","0.0-118.0","3JPSL1DZ5TLA0070RN39PAX1K31NAH","A3V2XCDF45VN9X","3UDTAB6HH6LRO17U79I9TKUGYFV09C","","281","img/food2.png","76","281.7000000476837","3","1","3","1","1,0.5,0,1,0.5,0,0.5,0,1","1,0.5,0,1,0.5,0,0.5,0,1","1","",""
"","html-keyboard-response","119","64873","0.0-119.0","3JPSL1DZ5TLA0070RN39PAX1K31NAH","A3V2XCDF45VN9X","3UDTAB6HH6LRO17U79I9TKUGYFV09C","","null","<img src=""img/food2.png"" style=""width:200px; border:14px solid green;"">","null","","","","","","","","","",""
"","image-keyboard-response","120","65615","0.0-120.0","3JPSL1DZ5TLA0070RN39PAX1K31NAH","A3V2XCDF45VN9X","3UDTAB6HH6LRO17U79I9TKUGYFV09C","","741.2999999523163","img/food3.png","75","742","2","1","1","1","1,0.5,0,1,0.5,0,0.5,0,1","1,0.5,0,1,0.5,0,0.5,0,1","1","",""
"","html-keyboard-response","121","65923","0.0-121.0","3JPSL1DZ5TLA0070RN39PAX1K31NAH","A3V2XCDF45VN9X","3UDTAB6HH6LRO17U79I9TKUGYFV09C","","null","<img src=""img/food3.png"" style=""width:200px; border:14px solid green;"">","null","","","","","","","","","",""
"","image-keyboard-response","122","66347","0.0-122.0","3JPSL1DZ5TLA0070RN39PAX1K31NAH","A3V2XCDF45VN9X","3UDTAB6HH6LRO17U79I9TKUGYFV09C","","423.09999990463257","img/food3.png","75","423.7999999523163","2","0","1","1","1,0.5,0,1,0.5,0,0.5,0,1","1,0.5,0,1,0.5,0,0.5,0,1","1","",""
"","html-keyboard-response","123","66656","0.0-123.0","3JPSL1DZ5TLA0070RN39PAX1K31NAH","A3V2XCDF45VN9X","3UDTAB6HH6LRO17U79I9TKUGYFV09C","","null","<img src=""img/food3.png"" style=""width:200px;border:14px solid red;"">","null","","","","","","","","","",""
"","image-keyboard-response","124","67393","0.0-124.0","3JPSL1DZ5TLA0070RN39PAX1K31NAH","A3V2XCDF45VN9X","3UDTAB6HH6LRO17U79I9TKUGYFV09C","","736.2000000476837","img/food5.png","74","736.9000000953674","1","1","2","1","1,0.5,0,1,0.5,0,0.5,0,1","1,0.5,0,1,0.5,0,0.5,0,1","1","",""
"","html-keyboard-response","125","67699","0.0-125.0","3JPSL1DZ5TLA0070RN39PAX1K31NAH","A3V2XCDF45VN9X","3UDTAB6HH6LRO17U79I9TKUGYFV09C","","null","<img src=""img/food5.png"" style=""width:200px; border:14px solid green;"">","null","","","","","","","","","",""
"","image-keyboard-response","126","68406","0.0-126.0","3JPSL1DZ5TLA0070RN39PAX1K31NAH","A3V2XCDF45VN9X","3UDTAB6HH6LRO17U79I9TKUGYFV09C","","705.8999998569489","img/food2.png","76","706.8000001907349","3","1","3","1","1,0.5,0,1,0.5,0,0.5,0,1","1,0.5,0,1,0.5,0,0.5,0,1","1","",""
"","html-keyboard-response","127","68715","0.0-127.0","3JPSL1DZ5TLA0070RN39PAX1K31NAH","A3V2XCDF45VN9X","3UDTAB6HH6LRO17U79I9TKUGYFV09C","","null","<img src=""img/food2.png"" style=""width:200px; border:14px solid green;"">","null","","","","","","","","","",""
"","image-keyboard-response","128","69028","0.0-128.0","3JPSL1DZ5TLA0070RN39PAX1K31NAH","A3V2XCDF45VN9X","3UDTAB6HH6LRO17U79I9TKUGYFV09C","","312","img/food2.png","76","312.69999980926514","3","1","3","1","1,0.5,0,1,0.5,0,0.5,0,1","1,0.5,0,1,0.5,0,0.5,0,1","1","",""
"","html-keyboard-response","129","69339","0.0-129.0","3JPSL1DZ5TLA0070RN39PAX1K31NAH","A3V2XCDF45VN9X","3UDTAB6HH6LRO17U79I9TKUGYFV09C","","null","<img src=""img/food2.png"" style=""width:200px; border:14px solid green;"">","null","","","","","","","","","",""
"","image-keyboard-response","130","69970","0.0-130.0","3JPSL1DZ5TLA0070RN39PAX1K31NAH","A3V2XCDF45VN9X","3UDTAB6HH6LRO17U79I9TKUGYFV09C","","630.6000001430511","img/food3.png","75","631.4000000953674","2","0","1","1","1,0.5,0,1,0.5,0,0.5,0,1","1,0.5,0,1,0.5,0,0.5,0,1","1","",""
"","html-keyboard-response","131","70283","0.0-131.0","3JPSL1DZ5TLA0070RN39PAX1K31NAH","A3V2XCDF45VN9X","3UDTAB6HH6LRO17U79I9TKUGYFV09C","","null","<img src=""img/food3.png"" style=""width:200px;border:14px solid red;"">","null","","","","","","","","","",""
"","image-keyboard-response","132","70721","0.0-132.0","3JPSL1DZ5TLA0070RN39PAX1K31NAH","A3V2XCDF45VN9X","3UDTAB6HH6LRO17U79I9TKUGYFV09C","","436.7000000476837","img/food3.png","75","437.5","2","0","1","1","1,0.5,0,1,0.5,0,0.5,0,1","1,0.5,0,1,0.5,0,0.5,0,1","1","",""
"","html-keyboard-response","133","71027","0.0-133.0","3JPSL1DZ5TLA0070RN39PAX1K31NAH","A3V2XCDF45VN9X","3UDTAB6HH6LRO17U79I9TKUGYFV09C","","null","<img src=""img/food3.png"" style=""width:200px;border:14px solid red;"">","null","","","","","","","","","",""
"","image-keyboard-response","134","72166","0.0-134.0","3JPSL1DZ5TLA0070RN39PAX1K31NAH","A3V2XCDF45VN9X","3UDTAB6HH6LRO17U79I9TKUGYFV09C","","1137.9000000953674","img/food2.png","76","1138.6999998092651","3","1","3","1","1,0.5,0,1,0.5,0,0.5,0,1","1,0.5,0,1,0.5,0,0.5,0,1","1","",""
"","html-keyboard-response","135","72473","0.0-135.0","3JPSL1DZ5TLA0070RN39PAX1K31NAH","A3V2XCDF45VN9X","3UDTAB6HH6LRO17U79I9TKUGYFV09C","","null","<img src=""img/food2.png"" style=""width:200px; border:14px solid green;"">","null","","","","","","","","","",""
"","image-keyboard-response","136","73124","0.0-136.0","3JPSL1DZ5TLA0070RN39PAX1K31NAH","A3V2XCDF45VN9X","3UDTAB6HH6LRO17U79I9TKUGYFV09C","","649.9000000953674","img/food3.png","75","650.6000001430511","2","0","1","1","1,0.5,0,1,0.5,0,0.5,0,1","1,0.5,0,1,0.5,0,0.5,0,1","1","",""
"","html-keyboard-response","137","73435","0.0-137.0","3JPSL1DZ5TLA0070RN39PAX1K31NAH","A3V2XCDF45VN9X","3UDTAB6HH6LRO17U79I9TKUGYFV09C","","null","<img src=""img/food3.png"" style=""width:200px;border:14px solid red;"">","null","","","","","","","","","",""
"","image-keyboard-response","138","73826","0.0-138.0","3JPSL1DZ5TLA0070RN39PAX1K31NAH","A3V2XCDF45VN9X","3UDTAB6HH6LRO17U79I9TKUGYFV09C","","390.60000014305115","img/food3.png","75","391.09999990463257","2","1","1","1","1,0.5,0,1,0.5,0,0.5,0,1","1,0.5,0,1,0.5,0,0.5,0,1","1","",""
"","html-keyboard-response","139","74137","0.0-139.0","3JPSL1DZ5TLA0070RN39PAX1K31NAH","A3V2XCDF45VN9X","3UDTAB6HH6LRO17U79I9TKUGYFV09C","","null","<img src=""img/food3.png"" style=""width:200px; border:14px solid green;"">","null","","","","","","","","","",""
"","image-keyboard-response","140","74718","0.0-140.0","3JPSL1DZ5TLA0070RN39PAX1K31NAH","A3V2XCDF45VN9X","3UDTAB6HH6LRO17U79I9TKUGYFV09C","","580.2999999523163","img/food2.png","76","581.0999999046326","3","1","3","1","1,0.5,0,1,0.5,0,0.5,0,1","1,0.5,0,1,0.5,0,0.5,0,1","1","",""
"","html-keyboard-response","141","75027","0.0-141.0","3JPSL1DZ5TLA0070RN39PAX1K31NAH","A3V2XCDF45VN9X","3UDTAB6HH6LRO17U79I9TKUGYFV09C","","null","<img src=""img/food2.png"" style=""width:200px; border:14px solid green;"">","null","","","","","","","","","",""
"","image-keyboard-response","142","75412","0.0-142.0","3JPSL1DZ5TLA0070RN39PAX1K31NAH","A3V2XCDF45VN9X","3UDTAB6HH6LRO17U79I9TKUGYFV09C","","383.2999999523163","img/food2.png","76","384.2000000476837","3","1","3","1","1,0.5,0,1,0.5,0,0.5,0,1","1,0.5,0,1,0.5,0,0.5,0,1","1","",""
"","html-keyboard-response","143","75716","0.0-143.0","3JPSL1DZ5TLA0070RN39PAX1K31NAH","A3V2XCDF45VN9X","3UDTAB6HH6LRO17U79I9TKUGYFV09C","","null","<img src=""img/food2.png"" style=""width:200px; border:14px solid green;"">","null","","","","","","","","","",""
"","image-keyboard-response","144","76320","0.0-144.0","3JPSL1DZ5TLA0070RN39PAX1K31NAH","A3V2XCDF45VN9X","3UDTAB6HH6LRO17U79I9TKUGYFV09C","","602.9000000953674","img/food3.png","75","603.7000000476837","2","1","1","1","1,0.5,0,1,0.5,0,0.5,0,1","1,0.5,0,1,0.5,0,0.5,0,1","1","",""
"","html-keyboard-response","145","76627","0.0-145.0","3JPSL1DZ5TLA0070RN39PAX1K31NAH","A3V2XCDF45VN9X","3UDTAB6HH6LRO17U79I9TKUGYFV09C","","null","<img src=""img/food3.png"" style=""width:200px; border:14px solid green;"">","null","","","","","","","","","",""
"","image-keyboard-response","146","77229","0.0-146.0","3JPSL1DZ5TLA0070RN39PAX1K31NAH","A3V2XCDF45VN9X","3UDTAB6HH6LRO17U79I9TKUGYFV09C","","601","img/food5.png","74","601.7999999523163","1","1","2","1","1,0.5,0,1,0.5,0,0.5,0,1","1,0.5,0,1,0.5,0,0.5,0,1","1","",""
"","html-keyboard-response","147","77539","0.0-147.0","3JPSL1DZ5TLA0070RN39PAX1K31NAH","A3V2XCDF45VN9X","3UDTAB6HH6LRO17U79I9TKUGYFV09C","","null","<img src=""img/food5.png"" style=""width:200px; border:14px solid green;"">","null","","","","","","","","","",""
"","image-keyboard-response","148","78061","0.0-148.0","3JPSL1DZ5TLA0070RN39PAX1K31NAH","A3V2XCDF45VN9X","3UDTAB6HH6LRO17U79I9TKUGYFV09C","","521.2000000476837","img/food5.png","74","521.9000000953674","1","1","2","1","1,0.5,0,1,0.5,0,0.5,0,1","1,0.5,0,1,0.5,0,0.5,0,1","1","",""
"","html-keyboard-response","149","78372","0.0-149.0","3JPSL1DZ5TLA0070RN39PAX1K31NAH","A3V2XCDF45VN9X","3UDTAB6HH6LRO17U79I9TKUGYFV09C","","null","<img src=""img/food5.png"" style=""width:200px; border:14px solid green;"">","null","","","","","","","","","",""
"","image-keyboard-response","150","78765","0.0-150.0","3JPSL1DZ5TLA0070RN39PAX1K31NAH","A3V2XCDF45VN9X","3UDTAB6HH6LRO17U79I9TKUGYFV09C","","391.7999999523163","img/food5.png","74","392.7000000476837","1","1","2","1","1,0.5,0,1,0.5,0,0.5,0,1","1,0.5,0,1,0.5,0,0.5,0,1","1","",""
"","html-keyboard-response","151","79075","0.0-151.0","3JPSL1DZ5TLA0070RN39PAX1K31NAH","A3V2XCDF45VN9X","3UDTAB6HH6LRO17U79I9TKUGYFV09C","","null","<img src=""img/food5.png"" style=""width:200px; border:14px solid green;"">","null","","","","","","","","","",""
"","image-keyboard-response","152","79446","0.0-152.0","3JPSL1DZ5TLA0070RN39PAX1K31NAH","A3V2XCDF45VN9X","3UDTAB6HH6LRO17U79I9TKUGYFV09C","","369.89999985694885","img/food5.png","74","370.7000000476837","1","1","2","1","1,0.5,0,1,0.5,0,0.5,0,1","1,0.5,0,1,0.5,0,0.5,0,1","1","",""
"","html-keyboard-response","153","79755","0.0-153.0","3JPSL1DZ5TLA0070RN39PAX1K31NAH","A3V2XCDF45VN9X","3UDTAB6HH6LRO17U79I9TKUGYFV09C","","null","<img src=""img/food5.png"" style=""width:200px; border:14px solid green;"">","null","","","","","","","","","",""
"","image-keyboard-response","154","80142","0.0-154.0","3JPSL1DZ5TLA0070RN39PAX1K31NAH","A3V2XCDF45VN9X","3UDTAB6HH6LRO17U79I9TKUGYFV09C","","385.7999999523163","img/food5.png","74","386.60000014305115","1","1","2","1","1,0.5,0,1,0.5,0,0.5,0,1","1,0.5,0,1,0.5,0,0.5,0,1","1","",""
"","html-keyboard-response","155","80452","0.0-155.0","3JPSL1DZ5TLA0070RN39PAX1K31NAH","A3V2XCDF45VN9X","3UDTAB6HH6LRO17U79I9TKUGYFV09C","","null","<img src=""img/food5.png"" style=""width:200px; border:14px solid green;"">","null","","","","","","","","","",""
"","image-keyboard-response","156","81022","0.0-156.0","3JPSL1DZ5TLA0070RN39PAX1K31NAH","A3V2XCDF45VN9X","3UDTAB6HH6LRO17U79I9TKUGYFV09C","","568.8999998569489","img/food3.png","75","569.5","2","1","1","1","1,0.5,0,1,0.5,0,0.5,0,1","1,0.5,0,1,0.5,0,0.5,0,1","1","",""
"","html-keyboard-response","157","81333","0.0-157.0","3JPSL1DZ5TLA0070RN39PAX1K31NAH","A3V2XCDF45VN9X","3UDTAB6HH6LRO17U79I9TKUGYFV09C","","null","<img src=""img/food3.png"" style=""width:200px; border:14px solid green;"">","null","","","","","","","","","",""
"","image-keyboard-response","158","81734","0.0-158.0","3JPSL1DZ5TLA0070RN39PAX1K31NAH","A3V2XCDF45VN9X","3UDTAB6HH6LRO17U79I9TKUGYFV09C","","399.5","img/food3.png","75","400.30000019073486","2","0","1","1","1,0.5,0,1,0.5,0,0.5,0,1","1,0.5,0,1,0.5,0,0.5,0,1","1","",""
"","html-keyboard-response","159","82041","0.0-159.0","3JPSL1DZ5TLA0070RN39PAX1K31NAH","A3V2XCDF45VN9X","3UDTAB6HH6LRO17U79I9TKUGYFV09C","","null","<img src=""img/food3.png"" style=""width:200px;border:14px solid red;"">","null","","","","","","","","","",""
"","image-keyboard-response","160","82595","0.0-160.0","3JPSL1DZ5TLA0070RN39PAX1K31NAH","A3V2XCDF45VN9X","3UDTAB6HH6LRO17U79I9TKUGYFV09C","","553.1000001430511","img/food2.png","76","553.8000001907349","3","1","3","1","1,0.5,0,1,0.5,0,0.5,0,1","1,0.5,0,1,0.5,0,0.5,0,1","1","",""
"","html-keyboard-response","161","82907","0.0-161.0","3JPSL1DZ5TLA0070RN39PAX1K31NAH","A3V2XCDF45VN9X","3UDTAB6HH6LRO17U79I9TKUGYFV09C","","null","<img src=""img/food2.png"" style=""width:200px; border:14px solid green;"">","null","","","","","","","","","",""
"","image-keyboard-response","162","83286","0.0-162.0","3JPSL1DZ5TLA0070RN39PAX1K31NAH","A3V2XCDF45VN9X","3UDTAB6HH6LRO17U79I9TKUGYFV09C","","378.39999985694885","img/food2.png","76","379.09999990463257","3","1","3","1","1,0.5,0,1,0.5,0,0.5,0,1","1,0.5,0,1,0.5,0,0.5,0,1","1","",""
"","html-keyboard-response","163","83595","0.0-163.0","3JPSL1DZ5TLA0070RN39PAX1K31NAH","A3V2XCDF45VN9X","3UDTAB6HH6LRO17U79I9TKUGYFV09C","","null","<img src=""img/food2.png"" style=""width:200px; border:14px solid green;"">","null","","","","","","","","","",""
"","image-keyboard-response","164","84078","0.0-164.0","3JPSL1DZ5TLA0070RN39PAX1K31NAH","A3V2XCDF45VN9X","3UDTAB6HH6LRO17U79I9TKUGYFV09C","","481.2999999523163","img/food5.png","75","481.7999999523163","2","0","2","1","1,0.5,0,1,0.5,0,0.5,0,1","1,0.5,0,1,0.5,0,0.5,0,1","1","",""
"","html-keyboard-response","165","84387","0.0-165.0","3JPSL1DZ5TLA0070RN39PAX1K31NAH","A3V2XCDF45VN9X","3UDTAB6HH6LRO17U79I9TKUGYFV09C","","null","<img src=""img/food5.png"" style=""width:200px;border:14px solid red;"">","null","","","","","","","","","",""
"","image-keyboard-response","166","84854","0.0-166.0","3JPSL1DZ5TLA0070RN39PAX1K31NAH","A3V2XCDF45VN9X","3UDTAB6HH6LRO17U79I9TKUGYFV09C","","466.5","img/food5.png","74","467.2999999523163","1","1","2","1","1,0.5,0,1,0.5,0,0.5,0,1","1,0.5,0,1,0.5,0,0.5,0,1","1","",""
"","html-keyboard-response","167","85163","0.0-167.0","3JPSL1DZ5TLA0070RN39PAX1K31NAH","A3V2XCDF45VN9X","3UDTAB6HH6LRO17U79I9TKUGYFV09C","","null","<img src=""img/food5.png"" style=""width:200px; border:14px solid green;"">","null","","","","","","","","","",""
"","image-keyboard-response","168","85577","0.0-168.0","3JPSL1DZ5TLA0070RN39PAX1K31NAH","A3V2XCDF45VN9X","3UDTAB6HH6LRO17U79I9TKUGYFV09C","","412.89999985694885","img/food5.png","74","413.59999990463257","1","1","2","1","1,0.5,0,1,0.5,0,0.5,0,1","1,0.5,0,1,0.5,0,0.5,0,1","1","",""
"","html-keyboard-response","169","85885","0.0-169.0","3JPSL1DZ5TLA0070RN39PAX1K31NAH","A3V2XCDF45VN9X","3UDTAB6HH6LRO17U79I9TKUGYFV09C","","null","<img src=""img/food5.png"" style=""width:200px; border:14px solid green;"">","null","","","","","","","","","",""
"","image-keyboard-response","170","86623","0.0-170.0","3JPSL1DZ5TLA0070RN39PAX1K31NAH","A3V2XCDF45VN9X","3UDTAB6HH6LRO17U79I9TKUGYFV09C","","737.1000001430511","img/food2.png","76","737.9000000953674","3","1","3","1","1,0.5,0,1,0.5,0,0.5,0,1","1,0.5,0,1,0.5,0,0.5,0,1","1","",""
"","html-keyboard-response","171","86932","0.0-171.0","3JPSL1DZ5TLA0070RN39PAX1K31NAH","A3V2XCDF45VN9X","3UDTAB6HH6LRO17U79I9TKUGYFV09C","","null","<img src=""img/food2.png"" style=""width:200px; border:14px solid green;"">","null","","","","","","","","","",""
"","image-keyboard-response","172","87574","0.0-172.0","3JPSL1DZ5TLA0070RN39PAX1K31NAH","A3V2XCDF45VN9X","3UDTAB6HH6LRO17U79I9TKUGYFV09C","","641.5999999046326","img/food3.png","75","642.2999999523163","2","0","1","1","1,0.5,0,1,0.5,0,0.5,0,1","1,0.5,0,1,0.5,0,0.5,0,1","1","",""
"","html-keyboard-response","173","87881","0.0-173.0","3JPSL1DZ5TLA0070RN39PAX1K31NAH","A3V2XCDF45VN9X","3UDTAB6HH6LRO17U79I9TKUGYFV09C","","null","<img src=""img/food3.png"" style=""width:200px;border:14px solid red;"">","null","","","","","","","","","",""
"","image-keyboard-response","174","88529","0.0-174.0","3JPSL1DZ5TLA0070RN39PAX1K31NAH","A3V2XCDF45VN9X","3UDTAB6HH6LRO17U79I9TKUGYFV09C","","647","img/food2.png","76","647.7000000476837","3","1","3","1","1,0.5,0,1,0.5,0,0.5,0,1","1,0.5,0,1,0.5,0,0.5,0,1","1","",""
"","html-keyboard-response","175","88836","0.0-175.0","3JPSL1DZ5TLA0070RN39PAX1K31NAH","A3V2XCDF45VN9X","3UDTAB6HH6LRO17U79I9TKUGYFV09C","","null","<img src=""img/food2.png"" style=""width:200px; border:14px solid green;"">","null","","","","","","","","","",""
"","image-keyboard-response","176","89372","0.0-176.0","3JPSL1DZ5TLA0070RN39PAX1K31NAH","A3V2XCDF45VN9X","3UDTAB6HH6LRO17U79I9TKUGYFV09C","","535.0999999046326","img/food5.png","75","535.7999999523163","2","0","2","1","1,0.5,0,1,0.5,0,0.5,0,1","1,0.5,0,1,0.5,0,0.5,0,1","1","",""
"","html-keyboard-response","177","89683","0.0-177.0","3JPSL1DZ5TLA0070RN39PAX1K31NAH","A3V2XCDF45VN9X","3UDTAB6HH6LRO17U79I9TKUGYFV09C","","null","<img src=""img/food5.png"" style=""width:200px;border:14px solid red;"">","null","","","","","","","","","",""
"","image-keyboard-response","178","90491","0.0-178.0","3JPSL1DZ5TLA0070RN39PAX1K31NAH","A3V2XCDF45VN9X","3UDTAB6HH6LRO17U79I9TKUGYFV09C","","807.5","img/food2.png","76","808.2999999523163","3","1","3","1","1,0.5,0,1,0.5,0,0.5,0,1","1,0.5,0,1,0.5,0,0.5,0,1","1","",""
"","html-keyboard-response","179","90804","0.0-179.0","3JPSL1DZ5TLA0070RN39PAX1K31NAH","A3V2XCDF45VN9X","3UDTAB6HH6LRO17U79I9TKUGYFV09C","","null","<img src=""img/food2.png"" style=""width:200px; border:14px solid green;"">","null","","","","","","","","","",""
"","image-keyboard-response","180","91170","0.0-180.0","3JPSL1DZ5TLA0070RN39PAX1K31NAH","A3V2XCDF45VN9X","3UDTAB6HH6LRO17U79I9TKUGYFV09C","","365.2999999523163","img/food2.png","76","366.09999990463257","3","1","3","1","1,0.5,0,1,0.5,0,0.5,0,1","1,0.5,0,1,0.5,0,0.5,0,1","1","",""
"","html-keyboard-response","181","91476","0.0-181.0","3JPSL1DZ5TLA0070RN39PAX1K31NAH","A3V2XCDF45VN9X","3UDTAB6HH6LRO17U79I9TKUGYFV09C","","null","<img src=""img/food2.png"" style=""width:200px; border:14px solid green;"">","null","","","","","","","","","",""
"","html-keyboard-response","182","93634","0.0-182.0","3JPSL1DZ5TLA0070RN39PAX1K31NAH","A3V2XCDF45VN9X","3UDTAB6HH6LRO17U79I9TKUGYFV09C","","","","","","","","","","","","","",""
"","instructions","183","106887","0.0-183.0","3JPSL1DZ5TLA0070RN39PAX1K31NAH","A3V2XCDF45VN9X","3UDTAB6HH6LRO17U79I9TKUGYFV09C","[{""page_index"":0,""viewing_time"":11185.5},{""page_index"":1,""viewing_time"":2065.9000000953674}]","13251.600000143051","","","","","","","","","","","",""
"","image-keyboard-response","184","107443","0.0-184.0","3JPSL1DZ5TLA0070RN39PAX1K31NAH","A3V2XCDF45VN9X","3UDTAB6HH6LRO17U79I9TKUGYFV09C","","555","img/food1.png","74","555.9000000953674","1","0","1","2","1,0.5,0,1,0.5,0,0.5,0,1","0,1,0.5,0,1,0.5,1,0.5,0","3","false",""
"","html-keyboard-response","185","107757","0.0-185.0","3JPSL1DZ5TLA0070RN39PAX1K31NAH","A3V2XCDF45VN9X","3UDTAB6HH6LRO17U79I9TKUGYFV09C","","null","<img src=""img/food1.png"" style=""width:200px;border:14px solid red;"">","null","","","","","","","","","",""
"","image-keyboard-response","186","108305","0.0-187.0","3JPSL1DZ5TLA0070RN39PAX1K31NAH","A3V2XCDF45VN9X","3UDTAB6HH6LRO17U79I9TKUGYFV09C","","546.5","img/food1.png","75","547.2999999523163","2","1","1","2","1,0.5,0,1,0.5,0,0.5,0,1","0,1,0.5,0,1,0.5,1,0.5,0","3","false",""
"","html-keyboard-response","187","108613","0.0-188.0","3JPSL1DZ5TLA0070RN39PAX1K31NAH","A3V2XCDF45VN9X","3UDTAB6HH6LRO17U79I9TKUGYFV09C","","null","<img src=""img/food1.png"" style=""width:200px; border:14px solid green;"">","null","","","","","","","","","",""
"","image-keyboard-response","188","108973","0.0-190.0","3JPSL1DZ5TLA0070RN39PAX1K31NAH","A3V2XCDF45VN9X","3UDTAB6HH6LRO17U79I9TKUGYFV09C","","359.10000014305115","img/food1.png","75","360","2","1","1","2","1,0.5,0,1,0.5,0,0.5,0,1","0,1,0.5,0,1,0.5,1,0.5,0","3","false",""
"","html-keyboard-response","189","109281","0.0-191.0","3JPSL1DZ5TLA0070RN39PAX1K31NAH","A3V2XCDF45VN9X","3UDTAB6HH6LRO17U79I9TKUGYFV09C","","null","<img src=""img/food1.png"" style=""width:200px; border:14px solid green;"">","null","","","","","","","","","",""
"","image-keyboard-response","190","109612","0.0-193.0","3JPSL1DZ5TLA0070RN39PAX1K31NAH","A3V2XCDF45VN9X","3UDTAB6HH6LRO17U79I9TKUGYFV09C","","329.5","img/food1.png","75","330.2999999523163","2","1","1","2","1,0.5,0,1,0.5,0,0.5,0,1","0,1,0.5,0,1,0.5,1,0.5,0","3","false",""
"","html-keyboard-response","191","109925","0.0-194.0","3JPSL1DZ5TLA0070RN39PAX1K31NAH","A3V2XCDF45VN9X","3UDTAB6HH6LRO17U79I9TKUGYFV09C","","null","<img src=""img/food1.png"" style=""width:200px; border:14px solid green;"">","null","","","","","","","","","",""
"","image-keyboard-response","192","110464","0.0-196.0","3JPSL1DZ5TLA0070RN39PAX1K31NAH","A3V2XCDF45VN9X","3UDTAB6HH6LRO17U79I9TKUGYFV09C","","538.2000000476837","img/food4.png","76","539.1000001430511","3","0","3","2","1,0.5,0,1,0.5,0,0.5,0,1","0,1,0.5,0,1,0.5,1,0.5,0","3","false",""
"","html-keyboard-response","193","110773","0.0-197.0","3JPSL1DZ5TLA0070RN39PAX1K31NAH","A3V2XCDF45VN9X","3UDTAB6HH6LRO17U79I9TKUGYFV09C","","null","<img src=""img/food4.png"" style=""width:200px;border:14px solid red;"">","null","","","","","","","","","",""
"","image-keyboard-response","194","111781","0.0-199.0","3JPSL1DZ5TLA0070RN39PAX1K31NAH","A3V2XCDF45VN9X","3UDTAB6HH6LRO17U79I9TKUGYFV09C","","","img/food6.png","","1007.5999999046326","-1","0","2","2","1,0.5,0,1,0.5,0,0.5,0,1","0,1,0.5,0,1,0.5,1,0.5,0","3","true",""
"","html-keyboard-response","195","112092","0.0-200.0","3JPSL1DZ5TLA0070RN39PAX1K31NAH","A3V2XCDF45VN9X","3UDTAB6HH6LRO17U79I9TKUGYFV09C","","null","<img src=""img/food6.png"" style=""width:200px;border:14px solid red;"">","null","","","","","","","","","",""
"","html-keyboard-response","196","113982","0.0-201.0-0.0","3JPSL1DZ5TLA0070RN39PAX1K31NAH","A3V2XCDF45VN9X","3UDTAB6HH6LRO17U79I9TKUGYFV09C","","","","","","","","","","","","","",""
"","image-keyboard-response","197","114459","0.0-202.0","3JPSL1DZ5TLA0070RN39PAX1K31NAH","A3V2XCDF45VN9X","3UDTAB6HH6LRO17U79I9TKUGYFV09C","","475.69999980926514","img/food1.png","74","476.7000000476837","1","0","1","2","1,0.5,0,1,0.5,0,0.5,0,1","0,1,0.5,0,1,0.5,1,0.5,0","3","false",""
"","html-keyboard-response","198","114765","0.0-203.0","3JPSL1DZ5TLA0070RN39PAX1K31NAH","A3V2XCDF45VN9X","3UDTAB6HH6LRO17U79I9TKUGYFV09C","","null","<img src=""img/food1.png"" style=""width:200px;border:14px solid red;"">","null","","","","","","","","","",""
"","image-keyboard-response","199","115079","0.0-205.0","3JPSL1DZ5TLA0070RN39PAX1K31NAH","A3V2XCDF45VN9X","3UDTAB6HH6LRO17U79I9TKUGYFV09C","","313","img/food6.png","74","313.59999990463257","1","0","2","2","1,0.5,0,1,0.5,0,0.5,0,1","0,1,0.5,0,1,0.5,1,0.5,0","3","false",""
"","html-keyboard-response","200","115389","0.0-206.0","3JPSL1DZ5TLA0070RN39PAX1K31NAH","A3V2XCDF45VN9X","3UDTAB6HH6LRO17U79I9TKUGYFV09C","","null","<img src=""img/food6.png"" style=""width:200px;border:14px solid red;"">","null","","","","","","","","","",""
"","image-keyboard-response","201","115904","0.0-208.0","3JPSL1DZ5TLA0070RN39PAX1K31NAH","A3V2XCDF45VN9X","3UDTAB6HH6LRO17U79I9TKUGYFV09C","","513.7000000476837","img/food1.png","75","514.5","2","1","1","2","1,0.5,0,1,0.5,0,0.5,0,1","0,1,0.5,0,1,0.5,1,0.5,0","3","false",""
"","html-keyboard-response","202","116213","0.0-209.0","3JPSL1DZ5TLA0070RN39PAX1K31NAH","A3V2XCDF45VN9X","3UDTAB6HH6LRO17U79I9TKUGYFV09C","","null","<img src=""img/food1.png"" style=""width:200px; border:14px solid green;"">","null","","","","","","","","","",""
"","image-keyboard-response","203","116454","0.0-211.0","3JPSL1DZ5TLA0070RN39PAX1K31NAH","A3V2XCDF45VN9X","3UDTAB6HH6LRO17U79I9TKUGYFV09C","","239.79999995231628","img/food6.png","75","240.60000014305115","2","1","2","2","1,0.5,0,1,0.5,0,0.5,0,1","0,1,0.5,0,1,0.5,1,0.5,0","3","false",""
"","html-keyboard-response","204","116764","0.0-212.0","3JPSL1DZ5TLA0070RN39PAX1K31NAH","A3V2XCDF45VN9X","3UDTAB6HH6LRO17U79I9TKUGYFV09C","","null","<img src=""img/food6.png"" style=""width:200px; border:14px solid green;"">","null","","","","","","","","","",""
"","image-keyboard-response","205","117080","0.0-214.0","3JPSL1DZ5TLA0070RN39PAX1K31NAH","A3V2XCDF45VN9X","3UDTAB6HH6LRO17U79I9TKUGYFV09C","","314.5","img/food6.png","76","315.2000000476837","3","1","2","2","1,0.5,0,1,0.5,0,0.5,0,1","0,1,0.5,0,1,0.5,1,0.5,0","3","false",""
"","html-keyboard-response","206","117388","0.0-215.0","3JPSL1DZ5TLA0070RN39PAX1K31NAH","A3V2XCDF45VN9X","3UDTAB6HH6LRO17U79I9TKUGYFV09C","","null","<img src=""img/food6.png"" style=""width:200px; border:14px solid green;"">","null","","","","","","","","","",""
"","image-keyboard-response","207","117724","0.0-217.0","3JPSL1DZ5TLA0070RN39PAX1K31NAH","A3V2XCDF45VN9X","3UDTAB6HH6LRO17U79I9TKUGYFV09C","","334.40000009536743","img/food6.png","76","335.2000000476837","3","0","2","2","1,0.5,0,1,0.5,0,0.5,0,1","0,1,0.5,0,1,0.5,1,0.5,0","3","false",""
"","html-keyboard-response","208","118033","0.0-218.0","3JPSL1DZ5TLA0070RN39PAX1K31NAH","A3V2XCDF45VN9X","3UDTAB6HH6LRO17U79I9TKUGYFV09C","","null","<img src=""img/food6.png"" style=""width:200px;border:14px solid red;"">","null","","","","","","","","","",""
"","image-keyboard-response","209","118455","0.0-220.0","3JPSL1DZ5TLA0070RN39PAX1K31NAH","A3V2XCDF45VN9X","3UDTAB6HH6LRO17U79I9TKUGYFV09C","","420.30000019073486","img/food6.png","76","420.89999985694885","3","0","2","2","1,0.5,0,1,0.5,0,0.5,0,1","0,1,0.5,0,1,0.5,1,0.5,0","3","false",""
"","html-keyboard-response","210","118764","0.0-221.0","3JPSL1DZ5TLA0070RN39PAX1K31NAH","A3V2XCDF45VN9X","3UDTAB6HH6LRO17U79I9TKUGYFV09C","","null","<img src=""img/food6.png"" style=""width:200px;border:14px solid red;"">","null","","","","","","","","","",""
"","image-keyboard-response","211","119058","0.0-223.0","3JPSL1DZ5TLA0070RN39PAX1K31NAH","A3V2XCDF45VN9X","3UDTAB6HH6LRO17U79I9TKUGYFV09C","","292.60000014305115","img/food4.png","75","293.40000009536743","2","0","3","2","1,0.5,0,1,0.5,0,0.5,0,1","0,1,0.5,0,1,0.5,1,0.5,0","3","false",""
"","html-keyboard-response","212","119364","0.0-224.0","3JPSL1DZ5TLA0070RN39PAX1K31NAH","A3V2XCDF45VN9X","3UDTAB6HH6LRO17U79I9TKUGYFV09C","","null","<img src=""img/food4.png"" style=""width:200px;border:14px solid red;"">","null","","","","","","","","","",""
"","image-keyboard-response","213","119654","0.0-226.0","3JPSL1DZ5TLA0070RN39PAX1K31NAH","A3V2XCDF45VN9X","3UDTAB6HH6LRO17U79I9TKUGYFV09C","","288.7999999523163","img/food4.png","75","289.30000019073486","2","0","3","2","1,0.5,0,1,0.5,0,0.5,0,1","0,1,0.5,0,1,0.5,1,0.5,0","3","false",""
"","html-keyboard-response","214","119964","0.0-227.0","3JPSL1DZ5TLA0070RN39PAX1K31NAH","A3V2XCDF45VN9X","3UDTAB6HH6LRO17U79I9TKUGYFV09C","","null","<img src=""img/food4.png"" style=""width:200px;border:14px solid red;"">","null","","","","","","","","","",""
"","image-keyboard-response","215","120305","0.0-229.0","3JPSL1DZ5TLA0070RN39PAX1K31NAH","A3V2XCDF45VN9X","3UDTAB6HH6LRO17U79I9TKUGYFV09C","","339.40000009536743","img/food4.png","74","340.5","1","1","3","2","1,0.5,0,1,0.5,0,0.5,0,1","0,1,0.5,0,1,0.5,1,0.5,0","3","false",""
"","html-keyboard-response","216","120613","0.0-230.0","3JPSL1DZ5TLA0070RN39PAX1K31NAH","A3V2XCDF45VN9X","3UDTAB6HH6LRO17U79I9TKUGYFV09C","","null","<img src=""img/food4.png"" style=""width:200px; border:14px solid green;"">","null","","","","","","","","","",""
"","image-keyboard-response","217","121092","0.0-232.0","3JPSL1DZ5TLA0070RN39PAX1K31NAH","A3V2XCDF45VN9X","3UDTAB6HH6LRO17U79I9TKUGYFV09C","","477.7000000476837","img/food1.png","75","478.5","2","1","1","2","1,0.5,0,1,0.5,0,0.5,0,1","0,1,0.5,0,1,0.5,1,0.5,0","3","false",""
"","html-keyboard-response","218","121404","0.0-233.0","3JPSL1DZ5TLA0070RN39PAX1K31NAH","A3V2XCDF45VN9X","3UDTAB6HH6LRO17U79I9TKUGYFV09C","","null","<img src=""img/food1.png"" style=""width:200px; border:14px solid green;"">","null","","","","","","","","","",""
"","image-keyboard-response","219","121626","0.0-235.0","3JPSL1DZ5TLA0070RN39PAX1K31NAH","A3V2XCDF45VN9X","3UDTAB6HH6LRO17U79I9TKUGYFV09C","","221.29999995231628","img/food6.png","75","221.89999985694885","2","1","2","2","1,0.5,0,1,0.5,0,0.5,0,1","0,1,0.5,0,1,0.5,1,0.5,0","3","false",""
"","html-keyboard-response","220","121932","0.0-236.0","3JPSL1DZ5TLA0070RN39PAX1K31NAH","A3V2XCDF45VN9X","3UDTAB6HH6LRO17U79I9TKUGYFV09C","","null","<img src=""img/food6.png"" style=""width:200px; border:14px solid green;"">","null","","","","","","","","","",""
"","image-keyboard-response","221","122728","0.0-238.0","3JPSL1DZ5TLA0070RN39PAX1K31NAH","A3V2XCDF45VN9X","3UDTAB6HH6LRO17U79I9TKUGYFV09C","","794.9000000953674","img/food4.png","74","795.6000001430511","1","1","3","2","1,0.5,0,1,0.5,0,0.5,0,1","0,1,0.5,0,1,0.5,1,0.5,0","3","false",""
"","html-keyboard-response","222","123036","0.0-239.0","3JPSL1DZ5TLA0070RN39PAX1K31NAH","A3V2XCDF45VN9X","3UDTAB6HH6LRO17U79I9TKUGYFV09C","","null","<img src=""img/food4.png"" style=""width:200px; border:14px solid green;"">","null","","","","","","","","","",""
"","image-keyboard-response","223","123347","0.0-241.0","3JPSL1DZ5TLA0070RN39PAX1K31NAH","A3V2XCDF45VN9X","3UDTAB6HH6LRO17U79I9TKUGYFV09C","","309.2000000476837","img/food6.png","75","310","2","1","2","2","1,0.5,0,1,0.5,0,0.5,0,1","0,1,0.5,0,1,0.5,1,0.5,0","3","false",""
"","html-keyboard-response","224","123653","0.0-242.0","3JPSL1DZ5TLA0070RN39PAX1K31NAH","A3V2XCDF45VN9X","3UDTAB6HH6LRO17U79I9TKUGYFV09C","","null","<img src=""img/food6.png"" style=""width:200px; border:14px solid green;"">","null","","","","","","","","","",""
"","image-keyboard-response","225","124053","0.0-244.0","3JPSL1DZ5TLA0070RN39PAX1K31NAH","A3V2XCDF45VN9X","3UDTAB6HH6LRO17U79I9TKUGYFV09C","","399.2999999523163","img/food4.png","75","400","2","1","3","2","1,0.5,0,1,0.5,0,0.5,0,1","0,1,0.5,0,1,0.5,1,0.5,0","3","false",""
"","html-keyboard-response","226","124364","0.0-245.0","3JPSL1DZ5TLA0070RN39PAX1K31NAH","A3V2XCDF45VN9X","3UDTAB6HH6LRO17U79I9TKUGYFV09C","","null","<img src=""img/food4.png"" style=""width:200px; border:14px solid green;"">","null","","","","","","","","","",""
"","image-keyboard-response","227","124697","0.0-247.0","3JPSL1DZ5TLA0070RN39PAX1K31NAH","A3V2XCDF45VN9X","3UDTAB6HH6LRO17U79I9TKUGYFV09C","","331.19999980926514","img/food4.png","76","332","3","0","3","2","1,0.5,0,1,0.5,0,0.5,0,1","0,1,0.5,0,1,0.5,1,0.5,0","3","false",""
"","html-keyboard-response","228","125004","0.0-248.0","3JPSL1DZ5TLA0070RN39PAX1K31NAH","A3V2XCDF45VN9X","3UDTAB6HH6LRO17U79I9TKUGYFV09C","","null","<img src=""img/food4.png"" style=""width:200px;border:14px solid red;"">","null","","","","","","","","","",""
"","image-keyboard-response","229","125315","0.0-250.0","3JPSL1DZ5TLA0070RN39PAX1K31NAH","A3V2XCDF45VN9X","3UDTAB6HH6LRO17U79I9TKUGYFV09C","","309.40000009536743","img/food6.png","75","310","2","1","2","2","1,0.5,0,1,0.5,0,0.5,0,1","0,1,0.5,0,1,0.5,1,0.5,0","3","false",""
"","html-keyboard-response","230","125621","0.0-251.0","3JPSL1DZ5TLA0070RN39PAX1K31NAH","A3V2XCDF45VN9X","3UDTAB6HH6LRO17U79I9TKUGYFV09C","","null","<img src=""img/food6.png"" style=""width:200px; border:14px solid green;"">","null","","","","","","","","","",""
"","image-keyboard-response","231","125989","0.0-253.0","3JPSL1DZ5TLA0070RN39PAX1K31NAH","A3V2XCDF45VN9X","3UDTAB6HH6LRO17U79I9TKUGYFV09C","","366.5","img/food1.png","76","367.2000000476837","3","0","1","2","1,0.5,0,1,0.5,0,0.5,0,1","0,1,0.5,0,1,0.5,1,0.5,0","3","false",""
"","html-keyboard-response","232","126300","0.0-254.0","3JPSL1DZ5TLA0070RN39PAX1K31NAH","A3V2XCDF45VN9X","3UDTAB6HH6LRO17U79I9TKUGYFV09C","","null","<img src=""img/food1.png"" style=""width:200px;border:14px solid red;"">","null","","","","","","","","","",""
"","image-keyboard-response","233","126733","0.0-256.0","3JPSL1DZ5TLA0070RN39PAX1K31NAH","A3V2XCDF45VN9X","3UDTAB6HH6LRO17U79I9TKUGYFV09C","","431.59999990463257","img/food1.png","76","432.2999999523163","3","1","1","2","1,0.5,0,1,0.5,0,0.5,0,1","0,1,0.5,0,1,0.5,1,0.5,0","3","false",""
"","html-keyboard-response","234","127045","0.0-257.0","3JPSL1DZ5TLA0070RN39PAX1K31NAH","A3V2XCDF45VN9X","3UDTAB6HH6LRO17U79I9TKUGYFV09C","","null","<img src=""img/food1.png"" style=""width:200px; border:14px solid green;"">","null","","","","","","","","","",""
"","image-keyboard-response","235","127355","0.0-259.0","3JPSL1DZ5TLA0070RN39PAX1K31NAH","A3V2XCDF45VN9X","3UDTAB6HH6LRO17U79I9TKUGYFV09C","","308.7000000476837","img/food4.png","76","309.40000009536743","3","0","3","2","1,0.5,0,1,0.5,0,0.5,0,1","0,1,0.5,0,1,0.5,1,0.5,0","3","false",""
"","html-keyboard-response","236","127660","0.0-260.0","3JPSL1DZ5TLA0070RN39PAX1K31NAH","A3V2XCDF45VN9X","3UDTAB6HH6LRO17U79I9TKUGYFV09C","","null","<img src=""img/food4.png"" style=""width:200px;border:14px solid red;"">","null","","","","","","","","","",""
"","image-keyboard-response","237","128028","0.0-262.0","3JPSL1DZ5TLA0070RN39PAX1K31NAH","A3V2XCDF45VN9X","3UDTAB6HH6LRO17U79I9TKUGYFV09C","","366.7000000476837","img/food4.png","75","367.30000019073486","2","0","3","2","1,0.5,0,1,0.5,0,0.5,0,1","0,1,0.5,0,1,0.5,1,0.5,0","3","false",""
"","html-keyboard-response","238","128340","0.0-263.0","3JPSL1DZ5TLA0070RN39PAX1K31NAH","A3V2XCDF45VN9X","3UDTAB6HH6LRO17U79I9TKUGYFV09C","","null","<img src=""img/food4.png"" style=""width:200px;border:14px solid red;"">","null","","","","","","","","","",""
"","image-keyboard-response","239","128795","0.0-265.0","3JPSL1DZ5TLA0070RN39PAX1K31NAH","A3V2XCDF45VN9X","3UDTAB6HH6LRO17U79I9TKUGYFV09C","","454.7999999523163","img/food1.png","75","455.5","2","1","1","2","1,0.5,0,1,0.5,0,0.5,0,1","0,1,0.5,0,1,0.5,1,0.5,0","3","false",""
"","html-keyboard-response","240","129101","0.0-266.0","3JPSL1DZ5TLA0070RN39PAX1K31NAH","A3V2XCDF45VN9X","3UDTAB6HH6LRO17U79I9TKUGYFV09C","","null","<img src=""img/food1.png"" style=""width:200px; border:14px solid green;"">","null","","","","","","","","","",""
"","image-keyboard-response","241","129438","0.0-268.0","3JPSL1DZ5TLA0070RN39PAX1K31NAH","A3V2XCDF45VN9X","3UDTAB6HH6LRO17U79I9TKUGYFV09C","","335.90000009536743","img/food1.png","74","336.7000000476837","1","0","1","2","1,0.5,0,1,0.5,0,0.5,0,1","0,1,0.5,0,1,0.5,1,0.5,0","3","false",""
"","html-keyboard-response","242","129746","0.0-269.0","3JPSL1DZ5TLA0070RN39PAX1K31NAH","A3V2XCDF45VN9X","3UDTAB6HH6LRO17U79I9TKUGYFV09C","","null","<img src=""img/food1.png"" style=""width:200px;border:14px solid red;"">","null","","","","","","","","","",""
"","image-keyboard-response","243","130082","0.0-271.0","3JPSL1DZ5TLA0070RN39PAX1K31NAH","A3V2XCDF45VN9X","3UDTAB6HH6LRO17U79I9TKUGYFV09C","","334.59999990463257","img/food1.png","75","335.5","2","1","1","2","1,0.5,0,1,0.5,0,0.5,0,1","0,1,0.5,0,1,0.5,1,0.5,0","3","false",""
"","html-keyboard-response","244","130388","0.0-272.0","3JPSL1DZ5TLA0070RN39PAX1K31NAH","A3V2XCDF45VN9X","3UDTAB6HH6LRO17U79I9TKUGYFV09C","","null","<img src=""img/food1.png"" style=""width:200px; border:14px solid green;"">","null","","","","","","","","","",""
"","image-keyboard-response","245","130840","0.0-274.0","3JPSL1DZ5TLA0070RN39PAX1K31NAH","A3V2XCDF45VN9X","3UDTAB6HH6LRO17U79I9TKUGYFV09C","","450.2999999523163","img/food4.png","76","451.09999990463257","3","0","3","2","1,0.5,0,1,0.5,0,0.5,0,1","0,1,0.5,0,1,0.5,1,0.5,0","3","false",""
"","html-keyboard-response","246","131147","0.0-275.0","3JPSL1DZ5TLA0070RN39PAX1K31NAH","A3V2XCDF45VN9X","3UDTAB6HH6LRO17U79I9TKUGYFV09C","","null","<img src=""img/food4.png"" style=""width:200px;border:14px solid red;"">","null","","","","","","","","","",""
"","image-keyboard-response","247","131537","0.0-277.0","3JPSL1DZ5TLA0070RN39PAX1K31NAH","A3V2XCDF45VN9X","3UDTAB6HH6LRO17U79I9TKUGYFV09C","","389","img/food6.png","74","389.7999999523163","1","0","2","2","1,0.5,0,1,0.5,0,0.5,0,1","0,1,0.5,0,1,0.5,1,0.5,0","3","false",""
"","html-keyboard-response","248","131845","0.0-278.0","3JPSL1DZ5TLA0070RN39PAX1K31NAH","A3V2XCDF45VN9X","3UDTAB6HH6LRO17U79I9TKUGYFV09C","","null","<img src=""img/food6.png"" style=""width:200px;border:14px solid red;"">","null","","","","","","","","","",""
"","image-keyboard-response","249","132139","0.0-280.0","3JPSL1DZ5TLA0070RN39PAX1K31NAH","A3V2XCDF45VN9X","3UDTAB6HH6LRO17U79I9TKUGYFV09C","","292.2999999523163","img/food4.png","76","293","3","0","3","2","1,0.5,0,1,0.5,0,0.5,0,1","0,1,0.5,0,1,0.5,1,0.5,0","3","false",""
"","html-keyboard-response","250","132445","0.0-281.0","3JPSL1DZ5TLA0070RN39PAX1K31NAH","A3V2XCDF45VN9X","3UDTAB6HH6LRO17U79I9TKUGYFV09C","","null","<img src=""img/food4.png"" style=""width:200px;border:14px solid red;"">","null","","","","","","","","","",""
"","image-keyboard-response","251","132813","0.0-283.0","3JPSL1DZ5TLA0070RN39PAX1K31NAH","A3V2XCDF45VN9X","3UDTAB6HH6LRO17U79I9TKUGYFV09C","","367.2000000476837","img/food1.png","75","368.09999990463257","2","1","1","2","1,0.5,0,1,0.5,0,0.5,0,1","0,1,0.5,0,1,0.5,1,0.5,0","3","false",""
"","html-keyboard-response","252","133125","0.0-284.0","3JPSL1DZ5TLA0070RN39PAX1K31NAH","A3V2XCDF45VN9X","3UDTAB6HH6LRO17U79I9TKUGYFV09C","","null","<img src=""img/food1.png"" style=""width:200px; border:14px solid green;"">","null","","","","","","","","","",""
"","image-keyboard-response","253","133423","0.0-286.0","3JPSL1DZ5TLA0070RN39PAX1K31NAH","A3V2XCDF45VN9X","3UDTAB6HH6LRO17U79I9TKUGYFV09C","","297.90000009536743","img/food4.png","75","298.39999985694885","2","1","3","2","1,0.5,0,1,0.5,0,0.5,0,1","0,1,0.5,0,1,0.5,1,0.5,0","3","false",""
"","html-keyboard-response","254","133733","0.0-287.0","3JPSL1DZ5TLA0070RN39PAX1K31NAH","A3V2XCDF45VN9X","3UDTAB6HH6LRO17U79I9TKUGYFV09C","","null","<img src=""img/food4.png"" style=""width:200px; border:14px solid green;"">","null","","","","","","","","","",""
"","image-keyboard-response","255","134049","0.0-289.0","3JPSL1DZ5TLA0070RN39PAX1K31NAH","A3V2XCDF45VN9X","3UDTAB6HH6LRO17U79I9TKUGYFV09C","","314.40000009536743","img/food4.png","75","315.2999999523163","2","1","3","2","1,0.5,0,1,0.5,0,0.5,0,1","0,1,0.5,0,1,0.5,1,0.5,0","3","false",""
"","html-keyboard-response","256","134357","0.0-290.0","3JPSL1DZ5TLA0070RN39PAX1K31NAH","A3V2XCDF45VN9X","3UDTAB6HH6LRO17U79I9TKUGYFV09C","","null","<img src=""img/food4.png"" style=""width:200px; border:14px solid green;"">","null","","","","","","","","","",""
"","image-keyboard-response","257","134709","0.0-292.0","3JPSL1DZ5TLA0070RN39PAX1K31NAH","A3V2XCDF45VN9X","3UDTAB6HH6LRO17U79I9TKUGYFV09C","","350.10000014305115","img/food4.png","75","350.80000019073486","2","1","3","2","1,0.5,0,1,0.5,0,0.5,0,1","0,1,0.5,0,1,0.5,1,0.5,0","3","false",""
"","html-keyboard-response","258","135021","0.0-293.0","3JPSL1DZ5TLA0070RN39PAX1K31NAH","A3V2XCDF45VN9X","3UDTAB6HH6LRO17U79I9TKUGYFV09C","","null","<img src=""img/food4.png"" style=""width:200px; border:14px solid green;"">","null","","","","","","","","","",""
"","image-keyboard-response","259","135299","0.0-295.0","3JPSL1DZ5TLA0070RN39PAX1K31NAH","A3V2XCDF45VN9X","3UDTAB6HH6LRO17U79I9TKUGYFV09C","","276.7000000476837","img/food1.png","75","277.7000000476837","2","1","1","2","1,0.5,0,1,0.5,0,0.5,0,1","0,1,0.5,0,1,0.5,1,0.5,0","3","false",""
"","html-keyboard-response","260","135602","0.0-296.0","3JPSL1DZ5TLA0070RN39PAX1K31NAH","A3V2XCDF45VN9X","3UDTAB6HH6LRO17U79I9TKUGYFV09C","","null","<img src=""img/food1.png"" style=""width:200px; border:14px solid green;"">","null","","","","","","","","","",""
"","image-keyboard-response","261","135915","0.0-298.0","3JPSL1DZ5TLA0070RN39PAX1K31NAH","A3V2XCDF45VN9X","3UDTAB6HH6LRO17U79I9TKUGYFV09C","","312.2999999523163","img/food4.png","75","313.09999990463257","2","0","3","2","1,0.5,0,1,0.5,0,0.5,0,1","0,1,0.5,0,1,0.5,1,0.5,0","3","false",""
"","html-keyboard-response","262","136220","0.0-299.0","3JPSL1DZ5TLA0070RN39PAX1K31NAH","A3V2XCDF45VN9X","3UDTAB6HH6LRO17U79I9TKUGYFV09C","","null","<img src=""img/food4.png"" style=""width:200px;border:14px solid red;"">","null","","","","","","","","","",""
"","image-keyboard-response","263","136595","0.0-301.0","3JPSL1DZ5TLA0070RN39PAX1K31NAH","A3V2XCDF45VN9X","3UDTAB6HH6LRO17U79I9TKUGYFV09C","","374","img/food1.png","75","374.89999985694885","2","1","1","2","1,0.5,0,1,0.5,0,0.5,0,1","0,1,0.5,0,1,0.5,1,0.5,0","3","false",""
"","html-keyboard-response","264","136900","0.0-302.0","3JPSL1DZ5TLA0070RN39PAX1K31NAH","A3V2XCDF45VN9X","3UDTAB6HH6LRO17U79I9TKUGYFV09C","","null","<img src=""img/food1.png"" style=""width:200px; border:14px solid green;"">","null","","","","","","","","","",""
"","image-keyboard-response","265","137223","0.0-304.0","3JPSL1DZ5TLA0070RN39PAX1K31NAH","A3V2XCDF45VN9X","3UDTAB6HH6LRO17U79I9TKUGYFV09C","","322.19999980926514","img/food4.png","75","322.89999985694885","2","0","3","2","1,0.5,0,1,0.5,0,0.5,0,1","0,1,0.5,0,1,0.5,1,0.5,0","3","false",""
"","html-keyboard-response","266","137533","0.0-305.0","3JPSL1DZ5TLA0070RN39PAX1K31NAH","A3V2XCDF45VN9X","3UDTAB6HH6LRO17U79I9TKUGYFV09C","","null","<img src=""img/food4.png"" style=""width:200px;border:14px solid red;"">","null","","","","","","","","","",""
"","image-keyboard-response","267","137837","0.0-307.0","3JPSL1DZ5TLA0070RN39PAX1K31NAH","A3V2XCDF45VN9X","3UDTAB6HH6LRO17U79I9TKUGYFV09C","","303.10000014305115","img/food4.png","76","303.7999999523163","3","0","3","2","1,0.5,0,1,0.5,0,0.5,0,1","0,1,0.5,0,1,0.5,1,0.5,0","3","false",""
"","html-keyboard-response","268","138149","0.0-308.0","3JPSL1DZ5TLA0070RN39PAX1K31NAH","A3V2XCDF45VN9X","3UDTAB6HH6LRO17U79I9TKUGYFV09C","","null","<img src=""img/food4.png"" style=""width:200px;border:14px solid red;"">","null","","","","","","","","","",""
"","image-keyboard-response","269","138515","0.0-310.0","3JPSL1DZ5TLA0070RN39PAX1K31NAH","A3V2XCDF45VN9X","3UDTAB6HH6LRO17U79I9TKUGYFV09C","","364.19999980926514","img/food6.png","75","365.39999985694885","2","1","2","2","1,0.5,0,1,0.5,0,0.5,0,1","0,1,0.5,0,1,0.5,1,0.5,0","3","false",""
"","html-keyboard-response","270","138821","0.0-311.0","3JPSL1DZ5TLA0070RN39PAX1K31NAH","A3V2XCDF45VN9X","3UDTAB6HH6LRO17U79I9TKUGYFV09C","","null","<img src=""img/food6.png"" style=""width:200px; border:14px solid green;"">","null","","","","","","","","","",""
"","image-keyboard-response","271","139308","0.0-313.0","3JPSL1DZ5TLA0070RN39PAX1K31NAH","A3V2XCDF45VN9X","3UDTAB6HH6LRO17U79I9TKUGYFV09C","","485.39999985694885","img/food6.png","76","486.7000000476837","3","1","2","2","1,0.5,0,1,0.5,0,0.5,0,1","0,1,0.5,0,1,0.5,1,0.5,0","3","false",""
"","html-keyboard-response","272","139621","0.0-314.0","3JPSL1DZ5TLA0070RN39PAX1K31NAH","A3V2XCDF45VN9X","3UDTAB6HH6LRO17U79I9TKUGYFV09C","","null","<img src=""img/food6.png"" style=""width:200px; border:14px solid green;"">","null","","","","","","","","","",""
"","image-keyboard-response","273","140113","0.0-316.0","3JPSL1DZ5TLA0070RN39PAX1K31NAH","A3V2XCDF45VN9X","3UDTAB6HH6LRO17U79I9TKUGYFV09C","","490.09999990463257","img/food4.png","75","491","2","1","3","2","1,0.5,0,1,0.5,0,0.5,0,1","0,1,0.5,0,1,0.5,1,0.5,0","3","false",""
"","html-keyboard-response","274","140422","0.0-317.0","3JPSL1DZ5TLA0070RN39PAX1K31NAH","A3V2XCDF45VN9X","3UDTAB6HH6LRO17U79I9TKUGYFV09C","","null","<img src=""img/food4.png"" style=""width:200px; border:14px solid green;"">","null","","","","","","","","","",""
"","image-keyboard-response","275","140872","0.0-319.0","3JPSL1DZ5TLA0070RN39PAX1K31NAH","A3V2XCDF45VN9X","3UDTAB6HH6LRO17U79I9TKUGYFV09C","","449","img/food6.png","75","449.7999999523163","2","1","2","2","1,0.5,0,1,0.5,0,0.5,0,1","0,1,0.5,0,1,0.5,1,0.5,0","3","false",""
"","html-keyboard-response","276","141181","0.0-320.0","3JPSL1DZ5TLA0070RN39PAX1K31NAH","A3V2XCDF45VN9X","3UDTAB6HH6LRO17U79I9TKUGYFV09C","","null","<img src=""img/food6.png"" style=""width:200px; border:14px solid green;"">","null","","","","","","","","","",""
"","image-keyboard-response","277","141559","0.0-322.0","3JPSL1DZ5TLA0070RN39PAX1K31NAH","A3V2XCDF45VN9X","3UDTAB6HH6LRO17U79I9TKUGYFV09C","","376.59999990463257","img/food4.png","76","377.40000009536743","3","0","3","2","1,0.5,0,1,0.5,0,0.5,0,1","0,1,0.5,0,1,0.5,1,0.5,0","3","false",""
"","html-keyboard-response","278","141871","0.0-323.0","3JPSL1DZ5TLA0070RN39PAX1K31NAH","A3V2XCDF45VN9X","3UDTAB6HH6LRO17U79I9TKUGYFV09C","","null","<img src=""img/food4.png"" style=""width:200px;border:14px solid red;"">","null","","","","","","","","","",""
"","image-keyboard-response","279","142175","0.0-325.0","3JPSL1DZ5TLA0070RN39PAX1K31NAH","A3V2XCDF45VN9X","3UDTAB6HH6LRO17U79I9TKUGYFV09C","","303.59999990463257","img/food6.png","75","304.2000000476837","2","1","2","2","1,0.5,0,1,0.5,0,0.5,0,1","0,1,0.5,0,1,0.5,1,0.5,0","3","false",""
"","html-keyboard-response","280","142485","0.0-326.0","3JPSL1DZ5TLA0070RN39PAX1K31NAH","A3V2XCDF45VN9X","3UDTAB6HH6LRO17U79I9TKUGYFV09C","","null","<img src=""img/food6.png"" style=""width:200px; border:14px solid green;"">","null","","","","","","","","","",""
"","image-keyboard-response","281","142868","0.0-328.0","3JPSL1DZ5TLA0070RN39PAX1K31NAH","A3V2XCDF45VN9X","3UDTAB6HH6LRO17U79I9TKUGYFV09C","","381.19999980926514","img/food4.png","76","382","3","0","3","2","1,0.5,0,1,0.5,0,0.5,0,1","0,1,0.5,0,1,0.5,1,0.5,0","3","false",""
"","html-keyboard-response","282","143181","0.0-329.0","3JPSL1DZ5TLA0070RN39PAX1K31NAH","A3V2XCDF45VN9X","3UDTAB6HH6LRO17U79I9TKUGYFV09C","","null","<img src=""img/food4.png"" style=""width:200px;border:14px solid red;"">","null","","","","","","","","","",""
"","image-keyboard-response","283","143512","0.0-331.0","3JPSL1DZ5TLA0070RN39PAX1K31NAH","A3V2XCDF45VN9X","3UDTAB6HH6LRO17U79I9TKUGYFV09C","","329.5","img/food6.png","75","330.40000009536743","2","1","2","2","1,0.5,0,1,0.5,0,0.5,0,1","0,1,0.5,0,1,0.5,1,0.5,0","3","false",""
"","html-keyboard-response","284","143821","0.0-332.0","3JPSL1DZ5TLA0070RN39PAX1K31NAH","A3V2XCDF45VN9X","3UDTAB6HH6LRO17U79I9TKUGYFV09C","","null","<img src=""img/food6.png"" style=""width:200px; border:14px solid green;"">","null","","","","","","","","","",""
"","image-keyboard-response","285","144199","0.0-334.0","3JPSL1DZ5TLA0070RN39PAX1K31NAH","A3V2XCDF45VN9X","3UDTAB6HH6LRO17U79I9TKUGYFV09C","","376.7000000476837","img/food1.png","76","377.39999985694885","3","0","1","2","1,0.5,0,1,0.5,0,0.5,0,1","0,1,0.5,0,1,0.5,1,0.5,0","3","false",""
"","html-keyboard-response","286","144509","0.0-335.0","3JPSL1DZ5TLA0070RN39PAX1K31NAH","A3V2XCDF45VN9X","3UDTAB6HH6LRO17U79I9TKUGYFV09C","","null","<img src=""img/food1.png"" style=""width:200px;border:14px solid red;"">","null","","","","","","","","","",""
"","image-keyboard-response","287","144869","0.0-337.0","3JPSL1DZ5TLA0070RN39PAX1K31NAH","A3V2XCDF45VN9X","3UDTAB6HH6LRO17U79I9TKUGYFV09C","","358.7999999523163","img/food4.png","74","359.7000000476837","1","1","3","2","1,0.5,0,1,0.5,0,0.5,0,1","0,1,0.5,0,1,0.5,1,0.5,0","3","false",""
"","html-keyboard-response","288","145181","0.0-338.0","3JPSL1DZ5TLA0070RN39PAX1K31NAH","A3V2XCDF45VN9X","3UDTAB6HH6LRO17U79I9TKUGYFV09C","","null","<img src=""img/food4.png"" style=""width:200px; border:14px solid green;"">","null","","","","","","","","","",""
"","image-keyboard-response","289","145563","0.0-340.0","3JPSL1DZ5TLA0070RN39PAX1K31NAH","A3V2XCDF45VN9X","3UDTAB6HH6LRO17U79I9TKUGYFV09C","","381.2999999523163","img/food1.png","74","382","1","0","1","2","1,0.5,0,1,0.5,0,0.5,0,1","0,1,0.5,0,1,0.5,1,0.5,0","3","false",""
"","html-keyboard-response","290","145870","0.0-341.0","3JPSL1DZ5TLA0070RN39PAX1K31NAH","A3V2XCDF45VN9X","3UDTAB6HH6LRO17U79I9TKUGYFV09C","","null","<img src=""img/food1.png"" style=""width:200px;border:14px solid red;"">","null","","","","","","","","","",""
"","image-keyboard-response","291","146230","0.0-343.0","3JPSL1DZ5TLA0070RN39PAX1K31NAH","A3V2XCDF45VN9X","3UDTAB6HH6LRO17U79I9TKUGYFV09C","","358.90000009536743","img/food6.png","76","359.7000000476837","3","1","2","2","1,0.5,0,1,0.5,0,0.5,0,1","0,1,0.5,0,1,0.5,1,0.5,0","3","false",""
"","html-keyboard-response","292","146541","0.0-344.0","3JPSL1DZ5TLA0070RN39PAX1K31NAH","A3V2XCDF45VN9X","3UDTAB6HH6LRO17U79I9TKUGYFV09C","","null","<img src=""img/food6.png"" style=""width:200px; border:14px solid green;"">","null","","","","","","","","","",""
"","image-keyboard-response","293","146792","0.0-346.0","3JPSL1DZ5TLA0070RN39PAX1K31NAH","A3V2XCDF45VN9X","3UDTAB6HH6LRO17U79I9TKUGYFV09C","","250.09999990463257","img/food1.png","76","250.79999995231628","3","0","1","2","1,0.5,0,1,0.5,0,0.5,0,1","0,1,0.5,0,1,0.5,1,0.5,0","3","false",""
"","html-keyboard-response","294","147101","0.0-347.0","3JPSL1DZ5TLA0070RN39PAX1K31NAH","A3V2XCDF45VN9X","3UDTAB6HH6LRO17U79I9TKUGYFV09C","","null","<img src=""img/food1.png"" style=""width:200px;border:14px solid red;"">","null","","","","","","","","","",""
"","image-keyboard-response","295","147484","0.0-349.0","3JPSL1DZ5TLA0070RN39PAX1K31NAH","A3V2XCDF45VN9X","3UDTAB6HH6LRO17U79I9TKUGYFV09C","","381.59999990463257","img/food6.png","75","382.2999999523163","2","1","2","2","1,0.5,0,1,0.5,0,0.5,0,1","0,1,0.5,0,1,0.5,1,0.5,0","3","false",""
"","html-keyboard-response","296","147789","0.0-350.0","3JPSL1DZ5TLA0070RN39PAX1K31NAH","A3V2XCDF45VN9X","3UDTAB6HH6LRO17U79I9TKUGYFV09C","","null","<img src=""img/food6.png"" style=""width:200px; border:14px solid green;"">","null","","","","","","","","","",""
"","image-keyboard-response","297","148075","0.0-352.0","3JPSL1DZ5TLA0070RN39PAX1K31NAH","A3V2XCDF45VN9X","3UDTAB6HH6LRO17U79I9TKUGYFV09C","","284.60000014305115","img/food1.png","75","285.30000019073486","2","1","1","2","1,0.5,0,1,0.5,0,0.5,0,1","0,1,0.5,0,1,0.5,1,0.5,0","3","false",""
"","html-keyboard-response","298","148381","0.0-353.0","3JPSL1DZ5TLA0070RN39PAX1K31NAH","A3V2XCDF45VN9X","3UDTAB6HH6LRO17U79I9TKUGYFV09C","","null","<img src=""img/food1.png"" style=""width:200px; border:14px solid green;"">","null","","","","","","","","","",""
"","image-keyboard-response","299","148764","0.0-355.0","3JPSL1DZ5TLA0070RN39PAX1K31NAH","A3V2XCDF45VN9X","3UDTAB6HH6LRO17U79I9TKUGYFV09C","","381.90000009536743","img/food4.png","76","382.7000000476837","3","0","3","2","1,0.5,0,1,0.5,0,0.5,0,1","0,1,0.5,0,1,0.5,1,0.5,0","3","false",""
"","html-keyboard-response","300","149075","0.0-356.0","3JPSL1DZ5TLA0070RN39PAX1K31NAH","A3V2XCDF45VN9X","3UDTAB6HH6LRO17U79I9TKUGYFV09C","","null","<img src=""img/food4.png"" style=""width:200px;border:14px solid red;"">","null","","","","","","","","","",""
"","image-keyboard-response","301","149371","0.0-358.0","3JPSL1DZ5TLA0070RN39PAX1K31NAH","A3V2XCDF45VN9X","3UDTAB6HH6LRO17U79I9TKUGYFV09C","","294.60000014305115","img/food1.png","76","295.39999985694885","3","1","1","2","1,0.5,0,1,0.5,0,0.5,0,1","0,1,0.5,0,1,0.5,1,0.5,0","3","false",""
"","html-keyboard-response","302","149676","0.0-359.0","3JPSL1DZ5TLA0070RN39PAX1K31NAH","A3V2XCDF45VN9X","3UDTAB6HH6LRO17U79I9TKUGYFV09C","","null","<img src=""img/food1.png"" style=""width:200px; border:14px solid green;"">","null","","","","","","","","","",""
"","image-keyboard-response","303","150042","0.0-361.0","3JPSL1DZ5TLA0070RN39PAX1K31NAH","A3V2XCDF45VN9X","3UDTAB6HH6LRO17U79I9TKUGYFV09C","","363.09999990463257","img/food6.png","76","364.2000000476837","3","1","2","2","1,0.5,0,1,0.5,0,0.5,0,1","0,1,0.5,0,1,0.5,1,0.5,0","3","false",""
"","html-keyboard-response","304","150347","0.0-362.0","3JPSL1DZ5TLA0070RN39PAX1K31NAH","A3V2XCDF45VN9X","3UDTAB6HH6LRO17U79I9TKUGYFV09C","","null","<img src=""img/food6.png"" style=""width:200px; border:14px solid green;"">","null","","","","","","","","","",""
"","image-keyboard-response","305","150659","0.0-364.0","3JPSL1DZ5TLA0070RN39PAX1K31NAH","A3V2XCDF45VN9X","3UDTAB6HH6LRO17U79I9TKUGYFV09C","","310.59999990463257","img/food6.png","75","311.40000009536743","2","1","2","2","1,0.5,0,1,0.5,0,0.5,0,1","0,1,0.5,0,1,0.5,1,0.5,0","3","false",""
"","html-keyboard-response","306","150965","0.0-365.0","3JPSL1DZ5TLA0070RN39PAX1K31NAH","A3V2XCDF45VN9X","3UDTAB6HH6LRO17U79I9TKUGYFV09C","","null","<img src=""img/food6.png"" style=""width:200px; border:14px solid green;"">","null","","","","","","","","","",""
"","image-keyboard-response","307","151322","0.0-367.0","3JPSL1DZ5TLA0070RN39PAX1K31NAH","A3V2XCDF45VN9X","3UDTAB6HH6LRO17U79I9TKUGYFV09C","","355.90000009536743","img/food4.png","75","356.60000014305115","2","1","3","2","1,0.5,0,1,0.5,0,0.5,0,1","0,1,0.5,0,1,0.5,1,0.5,0","3","false",""
"","html-keyboard-response","308","151626","0.0-368.0","3JPSL1DZ5TLA0070RN39PAX1K31NAH","A3V2XCDF45VN9X","3UDTAB6HH6LRO17U79I9TKUGYFV09C","","null","<img src=""img/food4.png"" style=""width:200px; border:14px solid green;"">","null","","","","","","","","","",""
"","image-keyboard-response","309","152083","0.0-370.0","3JPSL1DZ5TLA0070RN39PAX1K31NAH","A3V2XCDF45VN9X","3UDTAB6HH6LRO17U79I9TKUGYFV09C","","455.59999990463257","img/food1.png","76","456.59999990463257","3","1","1","2","1,0.5,0,1,0.5,0,0.5,0,1","0,1,0.5,0,1,0.5,1,0.5,0","3","false",""
"","html-keyboard-response","310","152390","0.0-371.0","3JPSL1DZ5TLA0070RN39PAX1K31NAH","A3V2XCDF45VN9X","3UDTAB6HH6LRO17U79I9TKUGYFV09C","","null","<img src=""img/food1.png"" style=""width:200px; border:14px solid green;"">","null","","","","","","","","","",""
"","image-keyboard-response","311","152626","0.0-373.0","3JPSL1DZ5TLA0070RN39PAX1K31NAH","A3V2XCDF45VN9X","3UDTAB6HH6LRO17U79I9TKUGYFV09C","","235.39999985694885","img/food6.png","76","236.09999990463257","3","0","2","2","1,0.5,0,1,0.5,0,0.5,0,1","0,1,0.5,0,1,0.5,1,0.5,0","3","false",""
"","html-keyboard-response","312","152931","0.0-374.0","3JPSL1DZ5TLA0070RN39PAX1K31NAH","A3V2XCDF45VN9X","3UDTAB6HH6LRO17U79I9TKUGYFV09C","","null","<img src=""img/food6.png"" style=""width:200px;border:14px solid red;"">","null","","","","","","","","","",""
"","image-keyboard-response","313","153345","0.0-376.0","3JPSL1DZ5TLA0070RN39PAX1K31NAH","A3V2XCDF45VN9X","3UDTAB6HH6LRO17U79I9TKUGYFV09C","","413","img/food4.png","76","413.90000009536743","3","0","3","2","1,0.5,0,1,0.5,0,0.5,0,1","0,1,0.5,0,1,0.5,1,0.5,0","3","false",""
"","html-keyboard-response","314","153654","0.0-377.0","3JPSL1DZ5TLA0070RN39PAX1K31NAH","A3V2XCDF45VN9X","3UDTAB6HH6LRO17U79I9TKUGYFV09C","","null","<img src=""img/food4.png"" style=""width:200px;border:14px solid red;"">","null","","","","","","","","","",""
"","image-keyboard-response","315","154018","0.0-379.0","3JPSL1DZ5TLA0070RN39PAX1K31NAH","A3V2XCDF45VN9X","3UDTAB6HH6LRO17U79I9TKUGYFV09C","","362.7999999523163","img/food4.png","75","363.5","2","0","3","2","1,0.5,0,1,0.5,0,0.5,0,1","0,1,0.5,0,1,0.5,1,0.5,0","3","false",""
"","html-keyboard-response","316","154325","0.0-380.0","3JPSL1DZ5TLA0070RN39PAX1K31NAH","A3V2XCDF45VN9X","3UDTAB6HH6LRO17U79I9TKUGYFV09C","","null","<img src=""img/food4.png"" style=""width:200px;border:14px solid red;"">","null","","","","","","","","","",""
"","image-keyboard-response","317","154704","0.0-382.0","3JPSL1DZ5TLA0070RN39PAX1K31NAH","A3V2XCDF45VN9X","3UDTAB6HH6LRO17U79I9TKUGYFV09C","","377.59999990463257","img/food1.png","75","378.30000019073486","2","1","1","2","1,0.5,0,1,0.5,0,0.5,0,1","0,1,0.5,0,1,0.5,1,0.5,0","3","false",""
"","html-keyboard-response","318","155014","0.0-383.0","3JPSL1DZ5TLA0070RN39PAX1K31NAH","A3V2XCDF45VN9X","3UDTAB6HH6LRO17U79I9TKUGYFV09C","","null","<img src=""img/food1.png"" style=""width:200px; border:14px solid green;"">","null","","","","","","","","","",""
"","image-keyboard-response","319","155403","0.0-385.0","3JPSL1DZ5TLA0070RN39PAX1K31NAH","A3V2XCDF45VN9X","3UDTAB6HH6LRO17U79I9TKUGYFV09C","","388.40000009536743","img/food6.png","74","389.2999999523163","1","0","2","2","1,0.5,0,1,0.5,0,0.5,0,1","0,1,0.5,0,1,0.5,1,0.5,0","3","false",""
"","html-keyboard-response","320","155709","0.0-386.0","3JPSL1DZ5TLA0070RN39PAX1K31NAH","A3V2XCDF45VN9X","3UDTAB6HH6LRO17U79I9TKUGYFV09C","","null","<img src=""img/food6.png"" style=""width:200px;border:14px solid red;"">","null","","","","","","","","","",""
"","image-keyboard-response","321","156026","0.0-388.0","3JPSL1DZ5TLA0070RN39PAX1K31NAH","A3V2XCDF45VN9X","3UDTAB6HH6LRO17U79I9TKUGYFV09C","","316.2999999523163","img/food4.png","76","317","3","0","3","2","1,0.5,0,1,0.5,0,0.5,0,1","0,1,0.5,0,1,0.5,1,0.5,0","3","false",""
"","html-keyboard-response","322","156333","0.0-389.0","3JPSL1DZ5TLA0070RN39PAX1K31NAH","A3V2XCDF45VN9X","3UDTAB6HH6LRO17U79I9TKUGYFV09C","","null","<img src=""img/food4.png"" style=""width:200px;border:14px solid red;"">","null","","","","","","","","","",""
"","image-keyboard-response","323","156785","0.0-391.0","3JPSL1DZ5TLA0070RN39PAX1K31NAH","A3V2XCDF45VN9X","3UDTAB6HH6LRO17U79I9TKUGYFV09C","","451.5","img/food6.png","75","452.2000000476837","2","1","2","2","1,0.5,0,1,0.5,0,0.5,0,1","0,1,0.5,0,1,0.5,1,0.5,0","3","false",""
"","html-keyboard-response","324","157094","0.0-392.0","3JPSL1DZ5TLA0070RN39PAX1K31NAH","A3V2XCDF45VN9X","3UDTAB6HH6LRO17U79I9TKUGYFV09C","","null","<img src=""img/food6.png"" style=""width:200px; border:14px solid green;"">","null","","","","","","","","","",""
"","image-keyboard-response","325","157594","0.0-394.0","3JPSL1DZ5TLA0070RN39PAX1K31NAH","A3V2XCDF45VN9X","3UDTAB6HH6LRO17U79I9TKUGYFV09C","","498.60000014305115","img/food1.png","76","499.30000019073486","3","1","1","2","1,0.5,0,1,0.5,0,0.5,0,1","0,1,0.5,0,1,0.5,1,0.5,0","3","false",""
"","html-keyboard-response","326","157901","0.0-395.0","3JPSL1DZ5TLA0070RN39PAX1K31NAH","A3V2XCDF45VN9X","3UDTAB6HH6LRO17U79I9TKUGYFV09C","","null","<img src=""img/food1.png"" style=""width:200px; border:14px solid green;"">","null","","","","","","","","","",""
"","image-keyboard-response","327","158132","0.0-397.0","3JPSL1DZ5TLA0070RN39PAX1K31NAH","A3V2XCDF45VN9X","3UDTAB6HH6LRO17U79I9TKUGYFV09C","","230.29999995231628","img/food1.png","76","231","3","0","1","2","1,0.5,0,1,0.5,0,0.5,0,1","0,1,0.5,0,1,0.5,1,0.5,0","3","false",""
"","html-keyboard-response","328","158438","0.0-398.0","3JPSL1DZ5TLA0070RN39PAX1K31NAH","A3V2XCDF45VN9X","3UDTAB6HH6LRO17U79I9TKUGYFV09C","","null","<img src=""img/food1.png"" style=""width:200px;border:14px solid red;"">","null","","","","","","","","","",""
"","image-keyboard-response","329","158991","0.0-400.0","3JPSL1DZ5TLA0070RN39PAX1K31NAH","A3V2XCDF45VN9X","3UDTAB6HH6LRO17U79I9TKUGYFV09C","","552.1000001430511","img/food1.png","74","552.8999998569489","1","0","1","2","1,0.5,0,1,0.5,0,0.5,0,1","0,1,0.5,0,1,0.5,1,0.5,0","3","false",""
"","html-keyboard-response","330","159300","0.0-401.0","3JPSL1DZ5TLA0070RN39PAX1K31NAH","A3V2XCDF45VN9X","3UDTAB6HH6LRO17U79I9TKUGYFV09C","","null","<img src=""img/food1.png"" style=""width:200px;border:14px solid red;"">","null","","","","","","","","","",""
"","image-keyboard-response","331","159647","0.0-403.0","3JPSL1DZ5TLA0070RN39PAX1K31NAH","A3V2XCDF45VN9X","3UDTAB6HH6LRO17U79I9TKUGYFV09C","","345.7000000476837","img/food1.png","74","346.5","1","0","1","2","1,0.5,0,1,0.5,0,0.5,0,1","0,1,0.5,0,1,0.5,1,0.5,0","3","false",""
"","html-keyboard-response","332","159958","0.0-404.0","3JPSL1DZ5TLA0070RN39PAX1K31NAH","A3V2XCDF45VN9X","3UDTAB6HH6LRO17U79I9TKUGYFV09C","","null","<img src=""img/food1.png"" style=""width:200px;border:14px solid red;"">","null","","","","","","","","","",""
"","image-keyboard-response","333","160494","0.0-406.0","3JPSL1DZ5TLA0070RN39PAX1K31NAH","A3V2XCDF45VN9X","3UDTAB6HH6LRO17U79I9TKUGYFV09C","","534.9000000953674","img/food4.png","75","535.5999999046326","2","1","3","2","1,0.5,0,1,0.5,0,0.5,0,1","0,1,0.5,0,1,0.5,1,0.5,0","3","false",""
"","html-keyboard-response","334","160805","0.0-407.0","3JPSL1DZ5TLA0070RN39PAX1K31NAH","A3V2XCDF45VN9X","3UDTAB6HH6LRO17U79I9TKUGYFV09C","","null","<img src=""img/food4.png"" style=""width:200px; border:14px solid green;"">","null","","","","","","","","","",""
"","image-keyboard-response","335","161494","0.0-409.0","3JPSL1DZ5TLA0070RN39PAX1K31NAH","A3V2XCDF45VN9X","3UDTAB6HH6LRO17U79I9TKUGYFV09C","","687.6999998092651","img/food1.png","74","688.2999999523163","1","0","1","2","1,0.5,0,1,0.5,0,0.5,0,1","0,1,0.5,0,1,0.5,1,0.5,0","3","false",""
"","html-keyboard-response","336","161798","0.0-410.0","3JPSL1DZ5TLA0070RN39PAX1K31NAH","A3V2XCDF45VN9X","3UDTAB6HH6LRO17U79I9TKUGYFV09C","","null","<img src=""img/food1.png"" style=""width:200px;border:14px solid red;"">","null","","","","","","","","","",""
"","image-keyboard-response","337","162084","0.0-412.0","3JPSL1DZ5TLA0070RN39PAX1K31NAH","A3V2XCDF45VN9X","3UDTAB6HH6LRO17U79I9TKUGYFV09C","","284","img/food6.png","75","284.60000014305115","2","1","2","2","1,0.5,0,1,0.5,0,0.5,0,1","0,1,0.5,0,1,0.5,1,0.5,0","3","false",""
"","html-keyboard-response","338","162389","0.0-413.0","3JPSL1DZ5TLA0070RN39PAX1K31NAH","A3V2XCDF45VN9X","3UDTAB6HH6LRO17U79I9TKUGYFV09C","","null","<img src=""img/food6.png"" style=""width:200px; border:14px solid green;"">","null","","","","","","","","","",""
"","image-keyboard-response","339","162694","0.0-415.0","3JPSL1DZ5TLA0070RN39PAX1K31NAH","A3V2XCDF45VN9X","3UDTAB6HH6LRO17U79I9TKUGYFV09C","","303.59999990463257","img/food1.png","76","304.2999999523163","3","1","1","2","1,0.5,0,1,0.5,0,0.5,0,1","0,1,0.5,0,1,0.5,1,0.5,0","3","false",""
"","html-keyboard-response","340","163006","0.0-416.0","3JPSL1DZ5TLA0070RN39PAX1K31NAH","A3V2XCDF45VN9X","3UDTAB6HH6LRO17U79I9TKUGYFV09C","","null","<img src=""img/food1.png"" style=""width:200px; border:14px solid green;"">","null","","","","","","","","","",""
"","image-keyboard-response","341","163295","0.0-418.0","3JPSL1DZ5TLA0070RN39PAX1K31NAH","A3V2XCDF45VN9X","3UDTAB6HH6LRO17U79I9TKUGYFV09C","","288.39999985694885","img/food4.png","76","289.09999990463257","3","0","3","2","1,0.5,0,1,0.5,0,0.5,0,1","0,1,0.5,0,1,0.5,1,0.5,0","3","false",""
"","html-keyboard-response","342","163606","0.0-419.0","3JPSL1DZ5TLA0070RN39PAX1K31NAH","A3V2XCDF45VN9X","3UDTAB6HH6LRO17U79I9TKUGYFV09C","","null","<img src=""img/food4.png"" style=""width:200px;border:14px solid red;"">","null","","","","","","","","","",""
"","image-keyboard-response","343","163967","0.0-421.0","3JPSL1DZ5TLA0070RN39PAX1K31NAH","A3V2XCDF45VN9X","3UDTAB6HH6LRO17U79I9TKUGYFV09C","","359.5","img/food6.png","75","360.10000014305115","2","1","2","2","1,0.5,0,1,0.5,0,0.5,0,1","0,1,0.5,0,1,0.5,1,0.5,0","3","false",""
"","html-keyboard-response","344","164278","0.0-422.0","3JPSL1DZ5TLA0070RN39PAX1K31NAH","A3V2XCDF45VN9X","3UDTAB6HH6LRO17U79I9TKUGYFV09C","","null","<img src=""img/food6.png"" style=""width:200px; border:14px solid green;"">","null","","","","","","","","","",""
"","image-keyboard-response","345","164565","0.0-424.0","3JPSL1DZ5TLA0070RN39PAX1K31NAH","A3V2XCDF45VN9X","3UDTAB6HH6LRO17U79I9TKUGYFV09C","","285.19999980926514","img/food6.png","75","286.10000014305115","2","1","2","2","1,0.5,0,1,0.5,0,0.5,0,1","0,1,0.5,0,1,0.5,1,0.5,0","3","false",""
"","html-keyboard-response","346","164878","0.0-425.0","3JPSL1DZ5TLA0070RN39PAX1K31NAH","A3V2XCDF45VN9X","3UDTAB6HH6LRO17U79I9TKUGYFV09C","","null","<img src=""img/food6.png"" style=""width:200px; border:14px solid green;"">","null","","","","","","","","","",""
"","image-keyboard-response","347","165170","0.0-427.0","3JPSL1DZ5TLA0070RN39PAX1K31NAH","A3V2XCDF45VN9X","3UDTAB6HH6LRO17U79I9TKUGYFV09C","","290.7999999523163","img/food1.png","75","291.39999985694885","2","1","1","2","1,0.5,0,1,0.5,0,0.5,0,1","0,1,0.5,0,1,0.5,1,0.5,0","3","false",""
"","html-keyboard-response","348","165477","0.0-428.0","3JPSL1DZ5TLA0070RN39PAX1K31NAH","A3V2XCDF45VN9X","3UDTAB6HH6LRO17U79I9TKUGYFV09C","","null","<img src=""img/food1.png"" style=""width:200px; border:14px solid green;"">","null","","","","","","","","","",""
"","image-keyboard-response","349","165839","0.0-430.0","3JPSL1DZ5TLA0070RN39PAX1K31NAH","A3V2XCDF45VN9X","3UDTAB6HH6LRO17U79I9TKUGYFV09C","","360.7000000476837","img/food4.png","76","361.5","3","0","3","2","1,0.5,0,1,0.5,0,0.5,0,1","0,1,0.5,0,1,0.5,1,0.5,0","3","false",""
"","html-keyboard-response","350","166150","0.0-431.0","3JPSL1DZ5TLA0070RN39PAX1K31NAH","A3V2XCDF45VN9X","3UDTAB6HH6LRO17U79I9TKUGYFV09C","","null","<img src=""img/food4.png"" style=""width:200px;border:14px solid red;"">","null","","","","","","","","","",""
"","image-keyboard-response","351","166443","0.0-433.0","3JPSL1DZ5TLA0070RN39PAX1K31NAH","A3V2XCDF45VN9X","3UDTAB6HH6LRO17U79I9TKUGYFV09C","","291.09999990463257","img/food4.png","75","291.89999985694885","2","0","3","2","1,0.5,0,1,0.5,0,0.5,0,1","0,1,0.5,0,1,0.5,1,0.5,0","3","false",""
"","html-keyboard-response","352","166747","0.0-434.0","3JPSL1DZ5TLA0070RN39PAX1K31NAH","A3V2XCDF45VN9X","3UDTAB6HH6LRO17U79I9TKUGYFV09C","","null","<img src=""img/food4.png"" style=""width:200px;border:14px solid red;"">","null","","","","","","","","","",""
"","image-keyboard-response","353","167149","0.0-436.0","3JPSL1DZ5TLA0070RN39PAX1K31NAH","A3V2XCDF45VN9X","3UDTAB6HH6LRO17U79I9TKUGYFV09C","","400","img/food6.png","75","400.7000000476837","2","1","2","2","1,0.5,0,1,0.5,0,0.5,0,1","0,1,0.5,0,1,0.5,1,0.5,0","3","false",""
"","html-keyboard-response","354","167454","0.0-437.0","3JPSL1DZ5TLA0070RN39PAX1K31NAH","A3V2XCDF45VN9X","3UDTAB6HH6LRO17U79I9TKUGYFV09C","","null","<img src=""img/food6.png"" style=""width:200px; border:14px solid green;"">","null","","","","","","","","","",""
"","image-keyboard-response","355","167761","0.0-439.0","3JPSL1DZ5TLA0070RN39PAX1K31NAH","A3V2XCDF45VN9X","3UDTAB6HH6LRO17U79I9TKUGYFV09C","","306.10000014305115","img/food1.png","75","306.7999999523163","2","1","1","2","1,0.5,0,1,0.5,0,0.5,0,1","0,1,0.5,0,1,0.5,1,0.5,0","3","false",""
"","html-keyboard-response","356","168070","0.0-440.0","3JPSL1DZ5TLA0070RN39PAX1K31NAH","A3V2XCDF45VN9X","3UDTAB6HH6LRO17U79I9TKUGYFV09C","","null","<img src=""img/food1.png"" style=""width:200px; border:14px solid green;"">","null","","","","","","","","","",""
"","image-keyboard-response","357","168449","0.0-442.0","3JPSL1DZ5TLA0070RN39PAX1K31NAH","A3V2XCDF45VN9X","3UDTAB6HH6LRO17U79I9TKUGYFV09C","","377.39999985694885","img/food6.png","74","378.09999990463257","1","0","2","2","1,0.5,0,1,0.5,0,0.5,0,1","0,1,0.5,0,1,0.5,1,0.5,0","3","false",""
"","html-keyboard-response","358","168758","0.0-443.0","3JPSL1DZ5TLA0070RN39PAX1K31NAH","A3V2XCDF45VN9X","3UDTAB6HH6LRO17U79I9TKUGYFV09C","","null","<img src=""img/food6.png"" style=""width:200px;border:14px solid red;"">","null","","","","","","","","","",""
"","image-keyboard-response","359","169086","0.0-445.0","3JPSL1DZ5TLA0070RN39PAX1K31NAH","A3V2XCDF45VN9X","3UDTAB6HH6LRO17U79I9TKUGYFV09C","","326.09999990463257","img/food6.png","74","326.89999985694885","1","0","2","2","1,0.5,0,1,0.5,0,0.5,0,1","0,1,0.5,0,1,0.5,1,0.5,0","3","false",""
"","html-keyboard-response","360","169399","0.0-446.0","3JPSL1DZ5TLA0070RN39PAX1K31NAH","A3V2XCDF45VN9X","3UDTAB6HH6LRO17U79I9TKUGYFV09C","","null","<img src=""img/food6.png"" style=""width:200px;border:14px solid red;"">","null","","","","","","","","","",""
"","image-keyboard-response","361","169674","0.0-448.0","3JPSL1DZ5TLA0070RN39PAX1K31NAH","A3V2XCDF45VN9X","3UDTAB6HH6LRO17U79I9TKUGYFV09C","","273.89999985694885","img/food6.png","76","274.60000014305115","3","0","2","2","1,0.5,0,1,0.5,0,0.5,0,1","0,1,0.5,0,1,0.5,1,0.5,0","3","false",""
"","html-keyboard-response","362","169980","0.0-449.0","3JPSL1DZ5TLA0070RN39PAX1K31NAH","A3V2XCDF45VN9X","3UDTAB6HH6LRO17U79I9TKUGYFV09C","","null","<img src=""img/food6.png"" style=""width:200px;border:14px solid red;"">","null","","","","","","","","","",""
"","image-keyboard-response","363","170366","0.0-451.0","3JPSL1DZ5TLA0070RN39PAX1K31NAH","A3V2XCDF45VN9X","3UDTAB6HH6LRO17U79I9TKUGYFV09C","","384.7999999523163","img/food6.png","75","385.5","2","1","2","2","1,0.5,0,1,0.5,0,0.5,0,1","0,1,0.5,0,1,0.5,1,0.5,0","3","false",""
"","html-keyboard-response","364","170678","0.0-452.0","3JPSL1DZ5TLA0070RN39PAX1K31NAH","A3V2XCDF45VN9X","3UDTAB6HH6LRO17U79I9TKUGYFV09C","","null","<img src=""img/food6.png"" style=""width:200px; border:14px solid green;"">","null","","","","","","","","","",""
"","instructions","365","173266","0.0-454.0","3JPSL1DZ5TLA0070RN39PAX1K31NAH","A3V2XCDF45VN9X","3UDTAB6HH6LRO17U79I9TKUGYFV09C","[{""page_index"":0,""viewing_time"":2586.100000143051}]","2586.4000000953674","","","","","","","","","","","",""
"","survey-text","366","176277","0.0-455.0","3JPSL1DZ5TLA0070RN39PAX1K31NAH","A3V2XCDF45VN9X","3UDTAB6HH6LRO17U79I9TKUGYFV09C","","3005.199999809265","","","","","","","","","","","","{""Q0"":""A3V2XCDF45VN9X""}"
