"success","trial_type","trial_index","time_elapsed","internal_node_id","assignmentID","mturkID","hitID","view_history","rt","stimulus","key_press","reactionTime","a","r","warning","s","cond","reward_cond","reward_cond_actual","reward_matrix_idx","responses"
"true","fullscreen","0","2154","0.0-0.0","369J354OFEW336EBE692JLMIN6E6GN","A41APS6V2Z1FJ","3HUR21WDDUBEMSLDIXZW1FAIHVWXYO","","","","","","","","","","","","","",""
"","instructions","1","14352","0.0-1.0","369J354OFEW336EBE692JLMIN6E6GN","A41APS6V2Z1FJ","3HUR21WDDUBEMSLDIXZW1FAIHVWXYO","[{""page_index"":0,""viewing_time"":2068.7999999970198},{""page_index"":1,""viewing_time"":999.8999999985099},{""page_index"":2,""viewing_time"":694.2000000029802},{""page_index"":3,""viewing_time"":1710.7999999970198},{""page_index"":4,""viewing_time"":1108.2000000029802},{""page_index"":5,""viewing_time"":1842},{""page_index"":6,""viewing_time"":3772.7999999970198}]","12196.89999999851","","","","","","","","","","","",""
"","instructions","2","24821","0.0-2.0","369J354OFEW336EBE692JLMIN6E6GN","A41APS6V2Z1FJ","3HUR21WDDUBEMSLDIXZW1FAIHVWXYO","[{""page_index"":0,""viewing_time"":7257.20000000298},{""page_index"":1,""viewing_time"":3210.7999999970198}]","10468.20000000298","","","","","","","","","","","",""
"","image-keyboard-response","3","25310","0.0-3.0","369J354OFEW336EBE692JLMIN6E6GN","A41APS6V2Z1FJ","3HUR21WDDUBEMSLDIXZW1FAIHVWXYO","","487.30000000447035","img/food4.png","75","488.59999999403954","2","0","false","1","2","1,0.5,0,1,0.5,0,0.5,0,1","1,0.5,0,1,0.5,0,0.5,0,1","1",""
"","html-keyboard-response","4","25612","0.0-4.0","369J354OFEW336EBE692JLMIN6E6GN","A41APS6V2Z1FJ","3HUR21WDDUBEMSLDIXZW1FAIHVWXYO","","null","<img src=""img/food4.png"" style=""width:200px;border:14px solid red;"">","null","","","","","","","","","",""
"","image-keyboard-response","5","25793","0.0-6.0","369J354OFEW336EBE692JLMIN6E6GN","A41APS6V2Z1FJ","3HUR21WDDUBEMSLDIXZW1FAIHVWXYO","","179.10000000149012","img/food4.png","75","180.10000000149012","2","1","false","1","2","1,0.5,0,1,0.5,0,0.5,0,1","1,0.5,0,1,0.5,0,0.5,0,1","1",""
"","html-keyboard-response","6","26094","0.0-7.0","369J354OFEW336EBE692JLMIN6E6GN","A41APS6V2Z1FJ","3HUR21WDDUBEMSLDIXZW1FAIHVWXYO","","null","<img src=""img/food4.png"" style=""width:200px; border:14px solid green;"">","null","","","","","","","","","",""
"","image-keyboard-response","7","26182","0.0-9.0","369J354OFEW336EBE692JLMIN6E6GN","A41APS6V2Z1FJ","3HUR21WDDUBEMSLDIXZW1FAIHVWXYO","","86.5","img/food3.png","75","87.19999999552965","2","0","false","3","2","1,0.5,0,1,0.5,0,0.5,0,1","1,0.5,0,1,0.5,0,0.5,0,1","1",""
"","html-keyboard-response","8","26484","0.0-10.0","369J354OFEW336EBE692JLMIN6E6GN","A41APS6V2Z1FJ","3HUR21WDDUBEMSLDIXZW1FAIHVWXYO","","null","<img src=""img/food3.png"" style=""width:200px;border:14px solid red;"">","null","","","","","","","","","",""
"","image-keyboard-response","9","26502","0.0-12.0","369J354OFEW336EBE692JLMIN6E6GN","A41APS6V2Z1FJ","3HUR21WDDUBEMSLDIXZW1FAIHVWXYO","","17","img/food3.png","74","17.700000002980232","1","1","false","3","2","1,0.5,0,1,0.5,0,0.5,0,1","1,0.5,0,1,0.5,0,0.5,0,1","1",""
"","html-keyboard-response","10","26803","0.0-13.0","369J354OFEW336EBE692JLMIN6E6GN","A41APS6V2Z1FJ","3HUR21WDDUBEMSLDIXZW1FAIHVWXYO","","null","<img src=""img/food3.png"" style=""width:200px; border:14px solid green;"">","null","","","","","","","","","",""
"","image-keyboard-response","11","26888","0.0-15.0","369J354OFEW336EBE692JLMIN6E6GN","A41APS6V2Z1FJ","3HUR21WDDUBEMSLDIXZW1FAIHVWXYO","","83.70000000298023","img/food6.png","75","84.60000000149012","2","0","false","2","2","1,0.5,0,1,0.5,0,0.5,0,1","1,0.5,0,1,0.5,0,0.5,0,1","1",""
"","html-keyboard-response","12","27189","0.0-16.0","369J354OFEW336EBE692JLMIN6E6GN","A41APS6V2Z1FJ","3HUR21WDDUBEMSLDIXZW1FAIHVWXYO","","null","<img src=""img/food6.png"" style=""width:200px;border:14px solid red;"">","null","","","","","","","","","",""
"","image-keyboard-response","13","27201","0.0-18.0","369J354OFEW336EBE692JLMIN6E6GN","A41APS6V2Z1FJ","3HUR21WDDUBEMSLDIXZW1FAIHVWXYO","","10.5","img/food6.png","75","11.200000002980232","2","0","false","2","2","1,0.5,0,1,0.5,0,0.5,0,1","1,0.5,0,1,0.5,0,0.5,0,1","1",""
"","html-keyboard-response","14","27503","0.0-19.0","369J354OFEW336EBE692JLMIN6E6GN","A41APS6V2Z1FJ","3HUR21WDDUBEMSLDIXZW1FAIHVWXYO","","null","<img src=""img/food6.png"" style=""width:200px;border:14px solid red;"">","null","","","","","","","","","",""
"","image-keyboard-response","15","27582","0.0-21.0","369J354OFEW336EBE692JLMIN6E6GN","A41APS6V2Z1FJ","3HUR21WDDUBEMSLDIXZW1FAIHVWXYO","","78.19999999552965","img/food4.png","76","79","3","0","false","1","2","1,0.5,0,1,0.5,0,0.5,0,1","1,0.5,0,1,0.5,0,0.5,0,1","1",""
"","html-keyboard-response","16","27884","0.0-22.0","369J354OFEW336EBE692JLMIN6E6GN","A41APS6V2Z1FJ","3HUR21WDDUBEMSLDIXZW1FAIHVWXYO","","null","<img src=""img/food4.png"" style=""width:200px;border:14px solid red;"">","null","","","","","","","","","",""
"","image-keyboard-response","17","27903","0.0-24.0","369J354OFEW336EBE692JLMIN6E6GN","A41APS6V2Z1FJ","3HUR21WDDUBEMSLDIXZW1FAIHVWXYO","","18.299999997019768","img/food4.png","76","19","3","0","false","1","2","1,0.5,0,1,0.5,0,0.5,0,1","1,0.5,0,1,0.5,0,0.5,0,1","1",""
"","html-keyboard-response","18","28204","0.0-25.0","369J354OFEW336EBE692JLMIN6E6GN","A41APS6V2Z1FJ","3HUR21WDDUBEMSLDIXZW1FAIHVWXYO","","null","<img src=""img/food4.png"" style=""width:200px;border:14px solid red;"">","null","","","","","","","","","",""
"","image-keyboard-response","19","28215","0.0-27.0","369J354OFEW336EBE692JLMIN6E6GN","A41APS6V2Z1FJ","3HUR21WDDUBEMSLDIXZW1FAIHVWXYO","","9.700000002980232","img/food6.png","76","10.300000004470348","3","0","false","2","2","1,0.5,0,1,0.5,0,0.5,0,1","1,0.5,0,1,0.5,0,0.5,0,1","1",""
"","html-keyboard-response","20","28516","0.0-28.0","369J354OFEW336EBE692JLMIN6E6GN","A41APS6V2Z1FJ","3HUR21WDDUBEMSLDIXZW1FAIHVWXYO","","null","<img src=""img/food6.png"" style=""width:200px;border:14px solid red;"">","null","","","","","","","","","",""
"","image-keyboard-response","21","28585","0.0-30.0","369J354OFEW336EBE692JLMIN6E6GN","A41APS6V2Z1FJ","3HUR21WDDUBEMSLDIXZW1FAIHVWXYO","","67.39999999850988","img/food3.png","75","68.19999999552965","2","0","false","3","2","1,0.5,0,1,0.5,0,0.5,0,1","1,0.5,0,1,0.5,0,0.5,0,1","1",""
"","html-keyboard-response","22","28889","0.0-31.0","369J354OFEW336EBE692JLMIN6E6GN","A41APS6V2Z1FJ","3HUR21WDDUBEMSLDIXZW1FAIHVWXYO","","null","<img src=""img/food3.png"" style=""width:200px;border:14px solid red;"">","null","","","","","","","","","",""
"","image-keyboard-response","23","28896","0.0-33.0","369J354OFEW336EBE692JLMIN6E6GN","A41APS6V2Z1FJ","3HUR21WDDUBEMSLDIXZW1FAIHVWXYO","","4","img/food3.png","75","5.100000001490116","2","0","false","3","2","1,0.5,0,1,0.5,0,0.5,0,1","1,0.5,0,1,0.5,0,0.5,0,1","1",""
"","html-keyboard-response","24","29198","0.0-34.0","369J354OFEW336EBE692JLMIN6E6GN","A41APS6V2Z1FJ","3HUR21WDDUBEMSLDIXZW1FAIHVWXYO","","null","<img src=""img/food3.png"" style=""width:200px;border:14px solid red;"">","null","","","","","","","","","",""
"","image-keyboard-response","25","29489","0.0-36.0","369J354OFEW336EBE692JLMIN6E6GN","A41APS6V2Z1FJ","3HUR21WDDUBEMSLDIXZW1FAIHVWXYO","","290.20000000298023","img/food4.png","74","290.8999999985099","1","1","false","1","2","1,0.5,0,1,0.5,0,0.5,0,1","1,0.5,0,1,0.5,0,0.5,0,1","1",""
"","html-keyboard-response","26","29791","0.0-37.0","369J354OFEW336EBE692JLMIN6E6GN","A41APS6V2Z1FJ","3HUR21WDDUBEMSLDIXZW1FAIHVWXYO","","null","<img src=""img/food4.png"" style=""width:200px; border:14px solid green;"">","null","","","","","","","","","",""
"","image-keyboard-response","27","29799","0.0-39.0","369J354OFEW336EBE692JLMIN6E6GN","A41APS6V2Z1FJ","3HUR21WDDUBEMSLDIXZW1FAIHVWXYO","","6.799999997019768","img/food6.png","74","7.5","1","1","false","2","2","1,0.5,0,1,0.5,0,0.5,0,1","1,0.5,0,1,0.5,0,0.5,0,1","1",""
"","html-keyboard-response","28","30100","0.0-40.0","369J354OFEW336EBE692JLMIN6E6GN","A41APS6V2Z1FJ","3HUR21WDDUBEMSLDIXZW1FAIHVWXYO","","null","<img src=""img/food6.png"" style=""width:200px; border:14px solid green;"">","null","","","","","","","","","",""
"","image-keyboard-response","29","30102","0.0-42.0","369J354OFEW336EBE692JLMIN6E6GN","A41APS6V2Z1FJ","3HUR21WDDUBEMSLDIXZW1FAIHVWXYO","","1.1999999955296516","img/food3.png","74","1.9000000059604645","1","0","false","3","2","1,0.5,0,1,0.5,0,0.5,0,1","1,0.5,0,1,0.5,0,0.5,0,1","1",""
"","html-keyboard-response","30","30404","0.0-43.0","369J354OFEW336EBE692JLMIN6E6GN","A41APS6V2Z1FJ","3HUR21WDDUBEMSLDIXZW1FAIHVWXYO","","null","<img src=""img/food3.png"" style=""width:200px;border:14px solid red;"">","null","","","","","","","","","",""
"","image-keyboard-response","31","30476","0.0-45.0","369J354OFEW336EBE692JLMIN6E6GN","A41APS6V2Z1FJ","3HUR21WDDUBEMSLDIXZW1FAIHVWXYO","","70.20000000298023","img/food3.png","75","71.10000000149012","2","0","false","3","2","1,0.5,0,1,0.5,0,0.5,0,1","1,0.5,0,1,0.5,0,0.5,0,1","1",""
"","html-keyboard-response","32","30778","0.0-46.0","369J354OFEW336EBE692JLMIN6E6GN","A41APS6V2Z1FJ","3HUR21WDDUBEMSLDIXZW1FAIHVWXYO","","null","<img src=""img/food3.png"" style=""width:200px;border:14px solid red;"">","null","","","","","","","","","",""
"","image-keyboard-response","33","30816","0.0-48.0","369J354OFEW336EBE692JLMIN6E6GN","A41APS6V2Z1FJ","3HUR21WDDUBEMSLDIXZW1FAIHVWXYO","","36.70000000298023","img/food4.png","75","37.600000001490116","2","1","false","1","2","1,0.5,0,1,0.5,0,0.5,0,1","1,0.5,0,1,0.5,0,0.5,0,1","1",""
"","html-keyboard-response","34","31118","0.0-49.0","369J354OFEW336EBE692JLMIN6E6GN","A41APS6V2Z1FJ","3HUR21WDDUBEMSLDIXZW1FAIHVWXYO","","null","<img src=""img/food4.png"" style=""width:200px; border:14px solid green;"">","null","","","","","","","","","",""
"","image-keyboard-response","35","31137","0.0-51.0","369J354OFEW336EBE692JLMIN6E6GN","A41APS6V2Z1FJ","3HUR21WDDUBEMSLDIXZW1FAIHVWXYO","","18.399999998509884","img/food3.png","75","19.19999999552965","2","0","false","3","2","1,0.5,0,1,0.5,0,0.5,0,1","1,0.5,0,1,0.5,0,0.5,0,1","1",""
"","html-keyboard-response","36","31439","0.0-52.0","369J354OFEW336EBE692JLMIN6E6GN","A41APS6V2Z1FJ","3HUR21WDDUBEMSLDIXZW1FAIHVWXYO","","null","<img src=""img/food3.png"" style=""width:200px;border:14px solid red;"">","null","","","","","","","","","",""
"","image-keyboard-response","37","31627","0.0-54.0","369J354OFEW336EBE692JLMIN6E6GN","A41APS6V2Z1FJ","3HUR21WDDUBEMSLDIXZW1FAIHVWXYO","","182.90000000596046","img/food6.png","75","185.5","2","0","false","2","2","1,0.5,0,1,0.5,0,0.5,0,1","1,0.5,0,1,0.5,0,0.5,0,1","1",""
"","html-keyboard-response","38","31929","0.0-55.0","369J354OFEW336EBE692JLMIN6E6GN","A41APS6V2Z1FJ","3HUR21WDDUBEMSLDIXZW1FAIHVWXYO","","null","<img src=""img/food6.png"" style=""width:200px;border:14px solid red;"">","null","","","","","","","","","",""
"","image-keyboard-response","39","32062","0.0-57.0","369J354OFEW336EBE692JLMIN6E6GN","A41APS6V2Z1FJ","3HUR21WDDUBEMSLDIXZW1FAIHVWXYO","","131.89999999850988","img/food4.png","76","132.70000000298023","3","0","false","1","2","1,0.5,0,1,0.5,0,0.5,0,1","1,0.5,0,1,0.5,0,0.5,0,1","1",""
"","html-keyboard-response","40","32363","0.0-58.0","369J354OFEW336EBE692JLMIN6E6GN","A41APS6V2Z1FJ","3HUR21WDDUBEMSLDIXZW1FAIHVWXYO","","null","<img src=""img/food4.png"" style=""width:200px;border:14px solid red;"">","null","","","","","","","","","",""
"","image-keyboard-response","41","32406","0.0-60.0","369J354OFEW336EBE692JLMIN6E6GN","A41APS6V2Z1FJ","3HUR21WDDUBEMSLDIXZW1FAIHVWXYO","","41.600000001490116","img/food6.png","76","42.29999999701977","3","0","false","2","2","1,0.5,0,1,0.5,0,0.5,0,1","1,0.5,0,1,0.5,0,0.5,0,1","1",""
"","html-keyboard-response","42","32708","0.0-61.0","369J354OFEW336EBE692JLMIN6E6GN","A41APS6V2Z1FJ","3HUR21WDDUBEMSLDIXZW1FAIHVWXYO","","null","<img src=""img/food6.png"" style=""width:200px;border:14px solid red;"">","null","","","","","","","","","",""
"","image-keyboard-response","43","32982","0.0-63.0","369J354OFEW336EBE692JLMIN6E6GN","A41APS6V2Z1FJ","3HUR21WDDUBEMSLDIXZW1FAIHVWXYO","","273.1000000014901","img/food6.png","75","274.1000000014901","2","1","false","2","2","1,0.5,0,1,0.5,0,0.5,0,1","1,0.5,0,1,0.5,0,0.5,0,1","1",""
"","html-keyboard-response","44","33284","0.0-64.0","369J354OFEW336EBE692JLMIN6E6GN","A41APS6V2Z1FJ","3HUR21WDDUBEMSLDIXZW1FAIHVWXYO","","null","<img src=""img/food6.png"" style=""width:200px; border:14px solid green;"">","null","","","","","","","","","",""
"","image-keyboard-response","45","33750","0.0-66.0","369J354OFEW336EBE692JLMIN6E6GN","A41APS6V2Z1FJ","3HUR21WDDUBEMSLDIXZW1FAIHVWXYO","","464.70000000298023","img/food4.png","75","465.6000000014901","2","0","false","1","2","1,0.5,0,1,0.5,0,0.5,0,1","1,0.5,0,1,0.5,0,0.5,0,1","1",""
"","html-keyboard-response","46","34052","0.0-67.0","369J354OFEW336EBE692JLMIN6E6GN","A41APS6V2Z1FJ","3HUR21WDDUBEMSLDIXZW1FAIHVWXYO","","null","<img src=""img/food4.png"" style=""width:200px;border:14px solid red;"">","null","","","","","","","","","",""
"","image-keyboard-response","47","34215","0.0-69.0","369J354OFEW336EBE692JLMIN6E6GN","A41APS6V2Z1FJ","3HUR21WDDUBEMSLDIXZW1FAIHVWXYO","","162","img/food4.png","76","162.79999999701977","3","0","false","1","2","1,0.5,0,1,0.5,0,0.5,0,1","1,0.5,0,1,0.5,0,0.5,0,1","1",""
"","html-keyboard-response","48","34518","0.0-70.0","369J354OFEW336EBE692JLMIN6E6GN","A41APS6V2Z1FJ","3HUR21WDDUBEMSLDIXZW1FAIHVWXYO","","null","<img src=""img/food4.png"" style=""width:200px;border:14px solid red;"">","null","","","","","","","","","",""
"","image-keyboard-response","49","34756","0.0-72.0","369J354OFEW336EBE692JLMIN6E6GN","A41APS6V2Z1FJ","3HUR21WDDUBEMSLDIXZW1FAIHVWXYO","","237.39999999850988","img/food3.png","75","238.20000000298023","2","0","false","3","2","1,0.5,0,1,0.5,0,0.5,0,1","1,0.5,0,1,0.5,0,0.5,0,1","1",""
"","html-keyboard-response","50","35058","0.0-73.0","369J354OFEW336EBE692JLMIN6E6GN","A41APS6V2Z1FJ","3HUR21WDDUBEMSLDIXZW1FAIHVWXYO","","null","<img src=""img/food3.png"" style=""width:200px;border:14px solid red;"">","null","","","","","","","","","",""
"","image-keyboard-response","51","35269","0.0-75.0","369J354OFEW336EBE692JLMIN6E6GN","A41APS6V2Z1FJ","3HUR21WDDUBEMSLDIXZW1FAIHVWXYO","","209.70000000298023","img/food6.png","75","210.39999999850988","2","1","false","2","2","1,0.5,0,1,0.5,0,0.5,0,1","1,0.5,0,1,0.5,0,0.5,0,1","1",""
"","html-keyboard-response","52","35571","0.0-76.0","369J354OFEW336EBE692JLMIN6E6GN","A41APS6V2Z1FJ","3HUR21WDDUBEMSLDIXZW1FAIHVWXYO","","null","<img src=""img/food6.png"" style=""width:200px; border:14px solid green;"">","null","","","","","","","","","",""
"","image-keyboard-response","53","35785","0.0-78.0","369J354OFEW336EBE692JLMIN6E6GN","A41APS6V2Z1FJ","3HUR21WDDUBEMSLDIXZW1FAIHVWXYO","","213.20000000298023","img/food6.png","74","214","1","1","false","2","2","1,0.5,0,1,0.5,0,0.5,0,1","1,0.5,0,1,0.5,0,0.5,0,1","1",""
"","html-keyboard-response","54","36087","0.0-79.0","369J354OFEW336EBE692JLMIN6E6GN","A41APS6V2Z1FJ","3HUR21WDDUBEMSLDIXZW1FAIHVWXYO","","null","<img src=""img/food6.png"" style=""width:200px; border:14px solid green;"">","null","","","","","","","","","",""
"","image-keyboard-response","55","36242","0.0-81.0","369J354OFEW336EBE692JLMIN6E6GN","A41APS6V2Z1FJ","3HUR21WDDUBEMSLDIXZW1FAIHVWXYO","","150.60000000149012","img/food3.png","75","153.19999999552965","2","0","false","3","2","1,0.5,0,1,0.5,0,0.5,0,1","1,0.5,0,1,0.5,0,0.5,0,1","1",""
"","html-keyboard-response","56","36543","0.0-82.0","369J354OFEW336EBE692JLMIN6E6GN","A41APS6V2Z1FJ","3HUR21WDDUBEMSLDIXZW1FAIHVWXYO","","null","<img src=""img/food3.png"" style=""width:200px;border:14px solid red;"">","null","","","","","","","","","",""
"","image-keyboard-response","57","36748","0.0-84.0","369J354OFEW336EBE692JLMIN6E6GN","A41APS6V2Z1FJ","3HUR21WDDUBEMSLDIXZW1FAIHVWXYO","","202.5","img/food6.png","75","203.20000000298023","2","0","false","2","2","1,0.5,0,1,0.5,0,0.5,0,1","1,0.5,0,1,0.5,0,0.5,0,1","1",""
"","html-keyboard-response","58","37049","0.0-85.0","369J354OFEW336EBE692JLMIN6E6GN","A41APS6V2Z1FJ","3HUR21WDDUBEMSLDIXZW1FAIHVWXYO","","null","<img src=""img/food6.png"" style=""width:200px;border:14px solid red;"">","null","","","","","","","","","",""
"","image-keyboard-response","59","37272","0.0-87.0","369J354OFEW336EBE692JLMIN6E6GN","A41APS6V2Z1FJ","3HUR21WDDUBEMSLDIXZW1FAIHVWXYO","","221.39999999850988","img/food3.png","76","222.19999999552965","3","1","false","3","2","1,0.5,0,1,0.5,0,0.5,0,1","1,0.5,0,1,0.5,0,0.5,0,1","1",""
"","html-keyboard-response","60","37573","0.0-88.0","369J354OFEW336EBE692JLMIN6E6GN","A41APS6V2Z1FJ","3HUR21WDDUBEMSLDIXZW1FAIHVWXYO","","null","<img src=""img/food3.png"" style=""width:200px; border:14px solid green;"">","null","","","","","","","","","",""
"","image-keyboard-response","61","37715","0.0-90.0","369J354OFEW336EBE692JLMIN6E6GN","A41APS6V2Z1FJ","3HUR21WDDUBEMSLDIXZW1FAIHVWXYO","","141","img/food3.png","76","141.69999999552965","3","1","false","3","2","1,0.5,0,1,0.5,0,0.5,0,1","1,0.5,0,1,0.5,0,0.5,0,1","1",""
"","html-keyboard-response","62","38016","0.0-91.0","369J354OFEW336EBE692JLMIN6E6GN","A41APS6V2Z1FJ","3HUR21WDDUBEMSLDIXZW1FAIHVWXYO","","null","<img src=""img/food3.png"" style=""width:200px; border:14px solid green;"">","null","","","","","","","","","",""
"","image-keyboard-response","63","38068","0.0-93.0","369J354OFEW336EBE692JLMIN6E6GN","A41APS6V2Z1FJ","3HUR21WDDUBEMSLDIXZW1FAIHVWXYO","","50.600000001490116","img/food4.png","76","51.20000000298023","3","0","false","1","2","1,0.5,0,1,0.5,0,0.5,0,1","1,0.5,0,1,0.5,0,0.5,0,1","1",""
"","html-keyboard-response","64","38370","0.0-94.0","369J354OFEW336EBE692JLMIN6E6GN","A41APS6V2Z1FJ","3HUR21WDDUBEMSLDIXZW1FAIHVWXYO","","null","<img src=""img/food4.png"" style=""width:200px;border:14px solid red;"">","null","","","","","","","","","",""
"","image-keyboard-response","65","38379","0.0-96.0","369J354OFEW336EBE692JLMIN6E6GN","A41APS6V2Z1FJ","3HUR21WDDUBEMSLDIXZW1FAIHVWXYO","","8.100000001490116","img/food3.png","75","8.899999998509884","2","0","false","3","2","1,0.5,0,1,0.5,0,0.5,0,1","1,0.5,0,1,0.5,0,0.5,0,1","1",""
"","html-keyboard-response","66","38681","0.0-97.0","369J354OFEW336EBE692JLMIN6E6GN","A41APS6V2Z1FJ","3HUR21WDDUBEMSLDIXZW1FAIHVWXYO","","null","<img src=""img/food3.png"" style=""width:200px;border:14px solid red;"">","null","","","","","","","","","",""
"","image-keyboard-response","67","38747","0.0-99.0","369J354OFEW336EBE692JLMIN6E6GN","A41APS6V2Z1FJ","3HUR21WDDUBEMSLDIXZW1FAIHVWXYO","","64.5","img/food4.png","75","65.20000000298023","2","0","false","1","2","1,0.5,0,1,0.5,0,0.5,0,1","1,0.5,0,1,0.5,0,0.5,0,1","1",""
"","html-keyboard-response","68","39048","0.0-100.0","369J354OFEW336EBE692JLMIN6E6GN","A41APS6V2Z1FJ","3HUR21WDDUBEMSLDIXZW1FAIHVWXYO","","null","<img src=""img/food4.png"" style=""width:200px;border:14px solid red;"">","null","","","","","","","","","",""
"","image-keyboard-response","69","39380","0.0-102.0","369J354OFEW336EBE692JLMIN6E6GN","A41APS6V2Z1FJ","3HUR21WDDUBEMSLDIXZW1FAIHVWXYO","","330.6000000014901","img/food6.png","75","331.29999999701977","2","0","false","2","2","1,0.5,0,1,0.5,0,0.5,0,1","1,0.5,0,1,0.5,0,0.5,0,1","1",""
"","html-keyboard-response","70","39682","0.0-103.0","369J354OFEW336EBE692JLMIN6E6GN","A41APS6V2Z1FJ","3HUR21WDDUBEMSLDIXZW1FAIHVWXYO","","null","<img src=""img/food6.png"" style=""width:200px;border:14px solid red;"">","null","","","","","","","","","",""
"","image-keyboard-response","71","39754","0.0-105.0","369J354OFEW336EBE692JLMIN6E6GN","A41APS6V2Z1FJ","3HUR21WDDUBEMSLDIXZW1FAIHVWXYO","","71.60000000149012","img/food3.png","76","72.20000000298023","3","1","false","3","2","1,0.5,0,1,0.5,0,0.5,0,1","1,0.5,0,1,0.5,0,0.5,0,1","1",""
"","html-keyboard-response","72","40056","0.0-106.0","369J354OFEW336EBE692JLMIN6E6GN","A41APS6V2Z1FJ","3HUR21WDDUBEMSLDIXZW1FAIHVWXYO","","null","<img src=""img/food3.png"" style=""width:200px; border:14px solid green;"">","null","","","","","","","","","",""
"","image-keyboard-response","73","40296","0.0-108.0","369J354OFEW336EBE692JLMIN6E6GN","A41APS6V2Z1FJ","3HUR21WDDUBEMSLDIXZW1FAIHVWXYO","","238.60000000149012","img/food3.png","76","239.39999999850988","3","1","false","3","2","1,0.5,0,1,0.5,0,0.5,0,1","1,0.5,0,1,0.5,0,0.5,0,1","1",""
"","html-keyboard-response","74","40598","0.0-109.0","369J354OFEW336EBE692JLMIN6E6GN","A41APS6V2Z1FJ","3HUR21WDDUBEMSLDIXZW1FAIHVWXYO","","null","<img src=""img/food3.png"" style=""width:200px; border:14px solid green;"">","null","","","","","","","","","",""
"","image-keyboard-response","75","40839","0.0-111.0","369J354OFEW336EBE692JLMIN6E6GN","A41APS6V2Z1FJ","3HUR21WDDUBEMSLDIXZW1FAIHVWXYO","","239.60000000149012","img/food6.png","76","240.19999999552965","3","0","false","2","2","1,0.5,0,1,0.5,0,0.5,0,1","1,0.5,0,1,0.5,0,0.5,0,1","1",""
"","html-keyboard-response","76","41140","0.0-112.0","369J354OFEW336EBE692JLMIN6E6GN","A41APS6V2Z1FJ","3HUR21WDDUBEMSLDIXZW1FAIHVWXYO","","null","<img src=""img/food6.png"" style=""width:200px;border:14px solid red;"">","null","","","","","","","","","",""
"","image-keyboard-response","77","41168","0.0-114.0","369J354OFEW336EBE692JLMIN6E6GN","A41APS6V2Z1FJ","3HUR21WDDUBEMSLDIXZW1FAIHVWXYO","","26.899999998509884","img/food6.png","76","27.600000001490116","3","0","false","2","2","1,0.5,0,1,0.5,0,0.5,0,1","1,0.5,0,1,0.5,0,0.5,0,1","1",""
"","html-keyboard-response","78","41470","0.0-115.0","369J354OFEW336EBE692JLMIN6E6GN","A41APS6V2Z1FJ","3HUR21WDDUBEMSLDIXZW1FAIHVWXYO","","null","<img src=""img/food6.png"" style=""width:200px;border:14px solid red;"">","null","","","","","","","","","",""
"","image-keyboard-response","79","41674","0.0-117.0","369J354OFEW336EBE692JLMIN6E6GN","A41APS6V2Z1FJ","3HUR21WDDUBEMSLDIXZW1FAIHVWXYO","","202.20000000298023","img/food6.png","75","203.29999999701977","2","1","false","2","2","1,0.5,0,1,0.5,0,0.5,0,1","1,0.5,0,1,0.5,0,0.5,0,1","1",""
"","html-keyboard-response","80","41976","0.0-118.0","369J354OFEW336EBE692JLMIN6E6GN","A41APS6V2Z1FJ","3HUR21WDDUBEMSLDIXZW1FAIHVWXYO","","null","<img src=""img/food6.png"" style=""width:200px; border:14px solid green;"">","null","","","","","","","","","",""
"","image-keyboard-response","81","42078","0.0-120.0","369J354OFEW336EBE692JLMIN6E6GN","A41APS6V2Z1FJ","3HUR21WDDUBEMSLDIXZW1FAIHVWXYO","","100.80000000447035","img/food4.png","75","101.70000000298023","2","1","false","1","2","1,0.5,0,1,0.5,0,0.5,0,1","1,0.5,0,1,0.5,0,0.5,0,1","1",""
"","html-keyboard-response","82","42379","0.0-121.0","369J354OFEW336EBE692JLMIN6E6GN","A41APS6V2Z1FJ","3HUR21WDDUBEMSLDIXZW1FAIHVWXYO","","null","<img src=""img/food4.png"" style=""width:200px; border:14px solid green;"">","null","","","","","","","","","",""
"","image-keyboard-response","83","42429","0.0-123.0","369J354OFEW336EBE692JLMIN6E6GN","A41APS6V2Z1FJ","3HUR21WDDUBEMSLDIXZW1FAIHVWXYO","","48.70000000298023","img/food3.png","75","49.399999998509884","2","0","false","3","2","1,0.5,0,1,0.5,0,0.5,0,1","1,0.5,0,1,0.5,0,0.5,0,1","1",""
"","html-keyboard-response","84","42731","0.0-124.0","369J354OFEW336EBE692JLMIN6E6GN","A41APS6V2Z1FJ","3HUR21WDDUBEMSLDIXZW1FAIHVWXYO","","null","<img src=""img/food3.png"" style=""width:200px;border:14px solid red;"">","null","","","","","","","","","",""
"","image-keyboard-response","85","42761","0.0-126.0","369J354OFEW336EBE692JLMIN6E6GN","A41APS6V2Z1FJ","3HUR21WDDUBEMSLDIXZW1FAIHVWXYO","","29.399999998509884","img/food4.png","75","29.900000005960464","2","1","false","1","2","1,0.5,0,1,0.5,0,0.5,0,1","1,0.5,0,1,0.5,0,0.5,0,1","1",""
"","html-keyboard-response","86","43062","0.0-127.0","369J354OFEW336EBE692JLMIN6E6GN","A41APS6V2Z1FJ","3HUR21WDDUBEMSLDIXZW1FAIHVWXYO","","null","<img src=""img/food4.png"" style=""width:200px; border:14px solid green;"">","null","","","","","","","","","",""
"","image-keyboard-response","87","43209","0.0-129.0","369J354OFEW336EBE692JLMIN6E6GN","A41APS6V2Z1FJ","3HUR21WDDUBEMSLDIXZW1FAIHVWXYO","","146","img/food4.png","76","146.79999999701977","3","0","false","1","2","1,0.5,0,1,0.5,0,0.5,0,1","1,0.5,0,1,0.5,0,0.5,0,1","1",""
"","html-keyboard-response","88","43510","0.0-130.0","369J354OFEW336EBE692JLMIN6E6GN","A41APS6V2Z1FJ","3HUR21WDDUBEMSLDIXZW1FAIHVWXYO","","null","<img src=""img/food4.png"" style=""width:200px;border:14px solid red;"">","null","","","","","","","","","",""
"","image-keyboard-response","89","43606","0.0-132.0","369J354OFEW336EBE692JLMIN6E6GN","A41APS6V2Z1FJ","3HUR21WDDUBEMSLDIXZW1FAIHVWXYO","","94.70000000298023","img/food4.png","76","95.29999999701977","3","0","false","1","2","1,0.5,0,1,0.5,0,0.5,0,1","1,0.5,0,1,0.5,0,0.5,0,1","1",""
"","html-keyboard-response","90","43908","0.0-133.0","369J354OFEW336EBE692JLMIN6E6GN","A41APS6V2Z1FJ","3HUR21WDDUBEMSLDIXZW1FAIHVWXYO","","null","<img src=""img/food4.png"" style=""width:200px;border:14px solid red;"">","null","","","","","","","","","",""
"","image-keyboard-response","91","43929","0.0-135.0","369J354OFEW336EBE692JLMIN6E6GN","A41APS6V2Z1FJ","3HUR21WDDUBEMSLDIXZW1FAIHVWXYO","","20.200000002980232","img/food6.png","75","20.899999998509884","2","0","false","2","2","1,0.5,0,1,0.5,0,0.5,0,1","1,0.5,0,1,0.5,0,0.5,0,1","1",""
"","html-keyboard-response","92","44231","0.0-136.0","369J354OFEW336EBE692JLMIN6E6GN","A41APS6V2Z1FJ","3HUR21WDDUBEMSLDIXZW1FAIHVWXYO","","null","<img src=""img/food6.png"" style=""width:200px;border:14px solid red;"">","null","","","","","","","","","",""
"","image-keyboard-response","93","44354","0.0-138.0","369J354OFEW336EBE692JLMIN6E6GN","A41APS6V2Z1FJ","3HUR21WDDUBEMSLDIXZW1FAIHVWXYO","","121.60000000149012","img/food3.png","75","122.39999999850988","2","0","false","3","2","1,0.5,0,1,0.5,0,0.5,0,1","1,0.5,0,1,0.5,0,0.5,0,1","1",""
"","html-keyboard-response","94","44655","0.0-139.0","369J354OFEW336EBE692JLMIN6E6GN","A41APS6V2Z1FJ","3HUR21WDDUBEMSLDIXZW1FAIHVWXYO","","null","<img src=""img/food3.png"" style=""width:200px;border:14px solid red;"">","null","","","","","","","","","",""
"","image-keyboard-response","95","44824","0.0-141.0","369J354OFEW336EBE692JLMIN6E6GN","A41APS6V2Z1FJ","3HUR21WDDUBEMSLDIXZW1FAIHVWXYO","","167.29999999701977","img/food4.png","74","168.20000000298023","1","1","false","1","2","1,0.5,0,1,0.5,0,0.5,0,1","1,0.5,0,1,0.5,0,0.5,0,1","1",""
"","html-keyboard-response","96","45126","0.0-142.0","369J354OFEW336EBE692JLMIN6E6GN","A41APS6V2Z1FJ","3HUR21WDDUBEMSLDIXZW1FAIHVWXYO","","null","<img src=""img/food4.png"" style=""width:200px; border:14px solid green;"">","null","","","","","","","","","",""
"","image-keyboard-response","97","45265","0.0-144.0","369J354OFEW336EBE692JLMIN6E6GN","A41APS6V2Z1FJ","3HUR21WDDUBEMSLDIXZW1FAIHVWXYO","","138.60000000149012","img/food3.png","75","139.39999999850988","2","0","false","3","2","1,0.5,0,1,0.5,0,0.5,0,1","1,0.5,0,1,0.5,0,0.5,0,1","1",""
"","html-keyboard-response","98","45567","0.0-145.0","369J354OFEW336EBE692JLMIN6E6GN","A41APS6V2Z1FJ","3HUR21WDDUBEMSLDIXZW1FAIHVWXYO","","null","<img src=""img/food3.png"" style=""width:200px;border:14px solid red;"">","null","","","","","","","","","",""
"","image-keyboard-response","99","45662","0.0-147.0","369J354OFEW336EBE692JLMIN6E6GN","A41APS6V2Z1FJ","3HUR21WDDUBEMSLDIXZW1FAIHVWXYO","","93.70000000298023","img/food6.png","76","94.5","3","0","false","2","2","1,0.5,0,1,0.5,0,0.5,0,1","1,0.5,0,1,0.5,0,0.5,0,1","1",""
"","html-keyboard-response","100","45964","0.0-148.0","369J354OFEW336EBE692JLMIN6E6GN","A41APS6V2Z1FJ","3HUR21WDDUBEMSLDIXZW1FAIHVWXYO","","null","<img src=""img/food6.png"" style=""width:200px;border:14px solid red;"">","null","","","","","","","","","",""
"","image-keyboard-response","101","46056","0.0-150.0","369J354OFEW336EBE692JLMIN6E6GN","A41APS6V2Z1FJ","3HUR21WDDUBEMSLDIXZW1FAIHVWXYO","","90.60000000149012","img/food6.png","76","91.39999999850988","3","0","false","2","2","1,0.5,0,1,0.5,0,0.5,0,1","1,0.5,0,1,0.5,0,0.5,0,1","1",""
"","html-keyboard-response","102","46358","0.0-151.0","369J354OFEW336EBE692JLMIN6E6GN","A41APS6V2Z1FJ","3HUR21WDDUBEMSLDIXZW1FAIHVWXYO","","null","<img src=""img/food6.png"" style=""width:200px;border:14px solid red;"">","null","","","","","","","","","",""
"","image-keyboard-response","103","46419","0.0-153.0","369J354OFEW336EBE692JLMIN6E6GN","A41APS6V2Z1FJ","3HUR21WDDUBEMSLDIXZW1FAIHVWXYO","","60.20000000298023","img/food6.png","75","60.899999998509884","2","0","false","2","2","1,0.5,0,1,0.5,0,0.5,0,1","1,0.5,0,1,0.5,0,0.5,0,1","1",""
"","html-keyboard-response","104","46722","0.0-154.0","369J354OFEW336EBE692JLMIN6E6GN","A41APS6V2Z1FJ","3HUR21WDDUBEMSLDIXZW1FAIHVWXYO","","null","<img src=""img/food6.png"" style=""width:200px;border:14px solid red;"">","null","","","","","","","","","",""
"","image-keyboard-response","105","46858","0.0-156.0","369J354OFEW336EBE692JLMIN6E6GN","A41APS6V2Z1FJ","3HUR21WDDUBEMSLDIXZW1FAIHVWXYO","","131.20000000298023","img/food4.png","75","132","2","0","false","1","2","1,0.5,0,1,0.5,0,0.5,0,1","1,0.5,0,1,0.5,0,0.5,0,1","1",""
"","html-keyboard-response","106","47160","0.0-157.0","369J354OFEW336EBE692JLMIN6E6GN","A41APS6V2Z1FJ","3HUR21WDDUBEMSLDIXZW1FAIHVWXYO","","null","<img src=""img/food4.png"" style=""width:200px;border:14px solid red;"">","null","","","","","","","","","",""
"","image-keyboard-response","107","47498","0.0-159.0","369J354OFEW336EBE692JLMIN6E6GN","A41APS6V2Z1FJ","3HUR21WDDUBEMSLDIXZW1FAIHVWXYO","","337.1000000014901","img/food6.png","75","338","2","0","false","2","2","1,0.5,0,1,0.5,0,0.5,0,1","1,0.5,0,1,0.5,0,0.5,0,1","1",""
"","html-keyboard-response","108","47799","0.0-160.0","369J354OFEW336EBE692JLMIN6E6GN","A41APS6V2Z1FJ","3HUR21WDDUBEMSLDIXZW1FAIHVWXYO","","null","<img src=""img/food6.png"" style=""width:200px;border:14px solid red;"">","null","","","","","","","","","",""
"","image-keyboard-response","109","47841","0.0-162.0","369J354OFEW336EBE692JLMIN6E6GN","A41APS6V2Z1FJ","3HUR21WDDUBEMSLDIXZW1FAIHVWXYO","","40.399999998509884","img/food3.png","75","41.400000005960464","2","0","false","3","2","1,0.5,0,1,0.5,0,0.5,0,1","1,0.5,0,1,0.5,0,0.5,0,1","1",""
"","html-keyboard-response","110","48142","0.0-163.0","369J354OFEW336EBE692JLMIN6E6GN","A41APS6V2Z1FJ","3HUR21WDDUBEMSLDIXZW1FAIHVWXYO","","null","<img src=""img/food3.png"" style=""width:200px;border:14px solid red;"">","null","","","","","","","","","",""
"","image-keyboard-response","111","48238","0.0-165.0","369J354OFEW336EBE692JLMIN6E6GN","A41APS6V2Z1FJ","3HUR21WDDUBEMSLDIXZW1FAIHVWXYO","","94.60000000149012","img/food3.png","76","95.29999999701977","3","1","false","3","2","1,0.5,0,1,0.5,0,0.5,0,1","1,0.5,0,1,0.5,0,0.5,0,1","1",""
"","html-keyboard-response","112","48540","0.0-166.0","369J354OFEW336EBE692JLMIN6E6GN","A41APS6V2Z1FJ","3HUR21WDDUBEMSLDIXZW1FAIHVWXYO","","null","<img src=""img/food3.png"" style=""width:200px; border:14px solid green;"">","null","","","","","","","","","",""
"","image-keyboard-response","113","48575","0.0-168.0","369J354OFEW336EBE692JLMIN6E6GN","A41APS6V2Z1FJ","3HUR21WDDUBEMSLDIXZW1FAIHVWXYO","","34.399999998509884","img/food6.png","76","34.900000005960464","3","0","false","2","2","1,0.5,0,1,0.5,0,0.5,0,1","1,0.5,0,1,0.5,0,0.5,0,1","1",""
"","html-keyboard-response","114","48878","0.0-169.0","369J354OFEW336EBE692JLMIN6E6GN","A41APS6V2Z1FJ","3HUR21WDDUBEMSLDIXZW1FAIHVWXYO","","null","<img src=""img/food6.png"" style=""width:200px;border:14px solid red;"">","null","","","","","","","","","",""
"","image-keyboard-response","115","48909","0.0-171.0","369J354OFEW336EBE692JLMIN6E6GN","A41APS6V2Z1FJ","3HUR21WDDUBEMSLDIXZW1FAIHVWXYO","","29.200000002980232","img/food3.png","76","29.80000000447035","3","1","false","3","2","1,0.5,0,1,0.5,0,0.5,0,1","1,0.5,0,1,0.5,0,0.5,0,1","1",""
"","html-keyboard-response","116","49210","0.0-172.0","369J354OFEW336EBE692JLMIN6E6GN","A41APS6V2Z1FJ","3HUR21WDDUBEMSLDIXZW1FAIHVWXYO","","null","<img src=""img/food3.png"" style=""width:200px; border:14px solid green;"">","null","","","","","","","","","",""
"","image-keyboard-response","117","49382","0.0-174.0","369J354OFEW336EBE692JLMIN6E6GN","A41APS6V2Z1FJ","3HUR21WDDUBEMSLDIXZW1FAIHVWXYO","","170.70000000298023","img/food4.png","75","171.89999999850988","2","0","false","1","2","1,0.5,0,1,0.5,0,0.5,0,1","1,0.5,0,1,0.5,0,0.5,0,1","1",""
"","html-keyboard-response","118","49687","0.0-175.0","369J354OFEW336EBE692JLMIN6E6GN","A41APS6V2Z1FJ","3HUR21WDDUBEMSLDIXZW1FAIHVWXYO","","null","<img src=""img/food4.png"" style=""width:200px;border:14px solid red;"">","null","","","","","","","","","",""
"","image-keyboard-response","119","49713","0.0-177.0","369J354OFEW336EBE692JLMIN6E6GN","A41APS6V2Z1FJ","3HUR21WDDUBEMSLDIXZW1FAIHVWXYO","","24.399999998509884","img/food6.png","75","25.100000001490116","2","1","false","2","2","1,0.5,0,1,0.5,0,0.5,0,1","1,0.5,0,1,0.5,0,0.5,0,1","1",""
"","html-keyboard-response","120","50014","0.0-178.0","369J354OFEW336EBE692JLMIN6E6GN","A41APS6V2Z1FJ","3HUR21WDDUBEMSLDIXZW1FAIHVWXYO","","null","<img src=""img/food6.png"" style=""width:200px; border:14px solid green;"">","null","","","","","","","","","",""
"","image-keyboard-response","121","50087","0.0-180.0","369J354OFEW336EBE692JLMIN6E6GN","A41APS6V2Z1FJ","3HUR21WDDUBEMSLDIXZW1FAIHVWXYO","","68.39999999850988","img/food6.png","74","70.59999999403954","1","1","false","2","2","1,0.5,0,1,0.5,0,0.5,0,1","1,0.5,0,1,0.5,0,0.5,0,1","1",""
"","html-keyboard-response","122","50388","0.0-181.0","369J354OFEW336EBE692JLMIN6E6GN","A41APS6V2Z1FJ","3HUR21WDDUBEMSLDIXZW1FAIHVWXYO","","null","<img src=""img/food6.png"" style=""width:200px; border:14px solid green;"">","null","","","","","","","","","",""
"","image-keyboard-response","123","50513","0.0-183.0","369J354OFEW336EBE692JLMIN6E6GN","A41APS6V2Z1FJ","3HUR21WDDUBEMSLDIXZW1FAIHVWXYO","","123.80000000447035","img/food6.png","74","124.5","1","1","false","2","2","1,0.5,0,1,0.5,0,0.5,0,1","1,0.5,0,1,0.5,0,0.5,0,1","1",""
"","html-keyboard-response","124","50815","0.0-184.0","369J354OFEW336EBE692JLMIN6E6GN","A41APS6V2Z1FJ","3HUR21WDDUBEMSLDIXZW1FAIHVWXYO","","null","<img src=""img/food6.png"" style=""width:200px; border:14px solid green;"">","null","","","","","","","","","",""
"","image-keyboard-response","125","50888","0.0-186.0","369J354OFEW336EBE692JLMIN6E6GN","A41APS6V2Z1FJ","3HUR21WDDUBEMSLDIXZW1FAIHVWXYO","","72.29999999701977","img/food4.png","75","72.90000000596046","2","0","false","1","2","1,0.5,0,1,0.5,0,0.5,0,1","1,0.5,0,1,0.5,0,0.5,0,1","1",""
"","html-keyboard-response","126","51189","0.0-187.0","369J354OFEW336EBE692JLMIN6E6GN","A41APS6V2Z1FJ","3HUR21WDDUBEMSLDIXZW1FAIHVWXYO","","null","<img src=""img/food4.png"" style=""width:200px;border:14px solid red;"">","null","","","","","","","","","",""
"","image-keyboard-response","127","51239","0.0-189.0","369J354OFEW336EBE692JLMIN6E6GN","A41APS6V2Z1FJ","3HUR21WDDUBEMSLDIXZW1FAIHVWXYO","","45.899999998509884","img/food6.png","75","48.100000001490116","2","1","false","2","2","1,0.5,0,1,0.5,0,0.5,0,1","1,0.5,0,1,0.5,0,0.5,0,1","1",""
"","html-keyboard-response","128","51540","0.0-190.0","369J354OFEW336EBE692JLMIN6E6GN","A41APS6V2Z1FJ","3HUR21WDDUBEMSLDIXZW1FAIHVWXYO","","null","<img src=""img/food6.png"" style=""width:200px; border:14px solid green;"">","null","","","","","","","","","",""
"","image-keyboard-response","129","51582","0.0-192.0","369J354OFEW336EBE692JLMIN6E6GN","A41APS6V2Z1FJ","3HUR21WDDUBEMSLDIXZW1FAIHVWXYO","","40.20000000298023","img/food6.png","75","41","2","0","false","2","2","1,0.5,0,1,0.5,0,0.5,0,1","1,0.5,0,1,0.5,0,0.5,0,1","1",""
"","html-keyboard-response","130","51883","0.0-193.0","369J354OFEW336EBE692JLMIN6E6GN","A41APS6V2Z1FJ","3HUR21WDDUBEMSLDIXZW1FAIHVWXYO","","null","<img src=""img/food6.png"" style=""width:200px;border:14px solid red;"">","null","","","","","","","","","",""
"","image-keyboard-response","131","51974","0.0-195.0","369J354OFEW336EBE692JLMIN6E6GN","A41APS6V2Z1FJ","3HUR21WDDUBEMSLDIXZW1FAIHVWXYO","","89.69999999552965","img/food4.png","76","90.29999999701977","3","0","false","1","2","1,0.5,0,1,0.5,0,0.5,0,1","1,0.5,0,1,0.5,0,0.5,0,1","1",""
"","html-keyboard-response","132","52276","0.0-196.0","369J354OFEW336EBE692JLMIN6E6GN","A41APS6V2Z1FJ","3HUR21WDDUBEMSLDIXZW1FAIHVWXYO","","null","<img src=""img/food4.png"" style=""width:200px;border:14px solid red;"">","null","","","","","","","","","",""
"","image-keyboard-response","133","52367","0.0-198.0","369J354OFEW336EBE692JLMIN6E6GN","A41APS6V2Z1FJ","3HUR21WDDUBEMSLDIXZW1FAIHVWXYO","","89.69999999552965","img/food4.png","75","90.69999999552965","2","0","false","1","2","1,0.5,0,1,0.5,0,0.5,0,1","1,0.5,0,1,0.5,0,0.5,0,1","1",""
"","html-keyboard-response","134","52669","0.0-199.0","369J354OFEW336EBE692JLMIN6E6GN","A41APS6V2Z1FJ","3HUR21WDDUBEMSLDIXZW1FAIHVWXYO","","null","<img src=""img/food4.png"" style=""width:200px;border:14px solid red;"">","null","","","","","","","","","",""
"","image-keyboard-response","135","52841","0.0-201.0","369J354OFEW336EBE692JLMIN6E6GN","A41APS6V2Z1FJ","3HUR21WDDUBEMSLDIXZW1FAIHVWXYO","","170.80000000447035","img/food3.png","75","171.5","2","0","false","3","2","1,0.5,0,1,0.5,0,0.5,0,1","1,0.5,0,1,0.5,0,0.5,0,1","1",""
"","html-keyboard-response","136","53144","0.0-202.0","369J354OFEW336EBE692JLMIN6E6GN","A41APS6V2Z1FJ","3HUR21WDDUBEMSLDIXZW1FAIHVWXYO","","null","<img src=""img/food3.png"" style=""width:200px;border:14px solid red;"">","null","","","","","","","","","",""
"","image-keyboard-response","137","53446","0.0-204.0","369J354OFEW336EBE692JLMIN6E6GN","A41APS6V2Z1FJ","3HUR21WDDUBEMSLDIXZW1FAIHVWXYO","","297.3999999985099","img/food4.png","74","300.20000000298023","1","1","false","1","2","1,0.5,0,1,0.5,0,0.5,0,1","1,0.5,0,1,0.5,0,0.5,0,1","1",""
"","html-keyboard-response","138","53747","0.0-205.0","369J354OFEW336EBE692JLMIN6E6GN","A41APS6V2Z1FJ","3HUR21WDDUBEMSLDIXZW1FAIHVWXYO","","null","<img src=""img/food4.png"" style=""width:200px; border:14px solid green;"">","null","","","","","","","","","",""
"","image-keyboard-response","139","54104","0.0-207.0","369J354OFEW336EBE692JLMIN6E6GN","A41APS6V2Z1FJ","3HUR21WDDUBEMSLDIXZW1FAIHVWXYO","","355.70000000298023","img/food4.png","75","356.3999999985099","2","0","false","1","2","1,0.5,0,1,0.5,0,0.5,0,1","1,0.5,0,1,0.5,0,0.5,0,1","1",""
"","html-keyboard-response","140","54406","0.0-208.0","369J354OFEW336EBE692JLMIN6E6GN","A41APS6V2Z1FJ","3HUR21WDDUBEMSLDIXZW1FAIHVWXYO","","null","<img src=""img/food4.png"" style=""width:200px;border:14px solid red;"">","null","","","","","","","","","",""
"","image-keyboard-response","141","54541","0.0-210.0","369J354OFEW336EBE692JLMIN6E6GN","A41APS6V2Z1FJ","3HUR21WDDUBEMSLDIXZW1FAIHVWXYO","","134","img/food3.png","76","134.89999999850988","3","1","false","3","2","1,0.5,0,1,0.5,0,0.5,0,1","1,0.5,0,1,0.5,0,0.5,0,1","1",""
"","html-keyboard-response","142","54842","0.0-211.0","369J354OFEW336EBE692JLMIN6E6GN","A41APS6V2Z1FJ","3HUR21WDDUBEMSLDIXZW1FAIHVWXYO","","null","<img src=""img/food3.png"" style=""width:200px; border:14px solid green;"">","null","","","","","","","","","",""
"","image-keyboard-response","143","54922","0.0-213.0","369J354OFEW336EBE692JLMIN6E6GN","A41APS6V2Z1FJ","3HUR21WDDUBEMSLDIXZW1FAIHVWXYO","","78.30000000447035","img/food3.png","75","79.29999999701977","2","0","false","3","2","1,0.5,0,1,0.5,0,0.5,0,1","1,0.5,0,1,0.5,0,0.5,0,1","1",""
"","html-keyboard-response","144","55223","0.0-214.0","369J354OFEW336EBE692JLMIN6E6GN","A41APS6V2Z1FJ","3HUR21WDDUBEMSLDIXZW1FAIHVWXYO","","null","<img src=""img/food3.png"" style=""width:200px;border:14px solid red;"">","null","","","","","","","","","",""
"","image-keyboard-response","145","55371","0.0-216.0","369J354OFEW336EBE692JLMIN6E6GN","A41APS6V2Z1FJ","3HUR21WDDUBEMSLDIXZW1FAIHVWXYO","","146.39999999850988","img/food4.png","75","147.09999999403954","2","0","false","1","2","1,0.5,0,1,0.5,0,0.5,0,1","1,0.5,0,1,0.5,0,0.5,0,1","1",""
"","html-keyboard-response","146","55673","0.0-217.0","369J354OFEW336EBE692JLMIN6E6GN","A41APS6V2Z1FJ","3HUR21WDDUBEMSLDIXZW1FAIHVWXYO","","null","<img src=""img/food4.png"" style=""width:200px;border:14px solid red;"">","null","","","","","","","","","",""
"","image-keyboard-response","147","55729","0.0-219.0","369J354OFEW336EBE692JLMIN6E6GN","A41APS6V2Z1FJ","3HUR21WDDUBEMSLDIXZW1FAIHVWXYO","","54.20000000298023","img/food6.png","75","55.20000000298023","2","0","false","2","2","1,0.5,0,1,0.5,0,0.5,0,1","1,0.5,0,1,0.5,0,0.5,0,1","1",""
"","html-keyboard-response","148","56031","0.0-220.0","369J354OFEW336EBE692JLMIN6E6GN","A41APS6V2Z1FJ","3HUR21WDDUBEMSLDIXZW1FAIHVWXYO","","null","<img src=""img/food6.png"" style=""width:200px;border:14px solid red;"">","null","","","","","","","","","",""
"","image-keyboard-response","149","56071","0.0-222.0","369J354OFEW336EBE692JLMIN6E6GN","A41APS6V2Z1FJ","3HUR21WDDUBEMSLDIXZW1FAIHVWXYO","","34.899999998509884","img/food4.png","75","38","2","0","false","1","2","1,0.5,0,1,0.5,0,0.5,0,1","1,0.5,0,1,0.5,0,0.5,0,1","1",""
"","html-keyboard-response","150","56372","0.0-223.0","369J354OFEW336EBE692JLMIN6E6GN","A41APS6V2Z1FJ","3HUR21WDDUBEMSLDIXZW1FAIHVWXYO","","null","<img src=""img/food4.png"" style=""width:200px;border:14px solid red;"">","null","","","","","","","","","",""
"","image-keyboard-response","151","56549","0.0-225.0","369J354OFEW336EBE692JLMIN6E6GN","A41APS6V2Z1FJ","3HUR21WDDUBEMSLDIXZW1FAIHVWXYO","","175.29999999701977","img/food3.png","76","176.09999999403954","3","1","false","3","2","1,0.5,0,1,0.5,0,0.5,0,1","1,0.5,0,1,0.5,0,0.5,0,1","1",""
"","html-keyboard-response","152","56850","0.0-226.0","369J354OFEW336EBE692JLMIN6E6GN","A41APS6V2Z1FJ","3HUR21WDDUBEMSLDIXZW1FAIHVWXYO","","null","<img src=""img/food3.png"" style=""width:200px; border:14px solid green;"">","null","","","","","","","","","",""
"","image-keyboard-response","153","56905","0.0-228.0","369J354OFEW336EBE692JLMIN6E6GN","A41APS6V2Z1FJ","3HUR21WDDUBEMSLDIXZW1FAIHVWXYO","","53.600000001490116","img/food6.png","76","54.399999998509884","3","0","false","2","2","1,0.5,0,1,0.5,0,0.5,0,1","1,0.5,0,1,0.5,0,0.5,0,1","1",""
"","html-keyboard-response","154","57211","0.0-229.0","369J354OFEW336EBE692JLMIN6E6GN","A41APS6V2Z1FJ","3HUR21WDDUBEMSLDIXZW1FAIHVWXYO","","null","<img src=""img/food6.png"" style=""width:200px;border:14px solid red;"">","null","","","","","","","","","",""
"","image-keyboard-response","155","57351","0.0-231.0","369J354OFEW336EBE692JLMIN6E6GN","A41APS6V2Z1FJ","3HUR21WDDUBEMSLDIXZW1FAIHVWXYO","","138.20000000298023","img/food4.png","75","139.10000000149012","2","1","false","1","2","1,0.5,0,1,0.5,0,0.5,0,1","1,0.5,0,1,0.5,0,0.5,0,1","1",""
"","html-keyboard-response","156","57653","0.0-232.0","369J354OFEW336EBE692JLMIN6E6GN","A41APS6V2Z1FJ","3HUR21WDDUBEMSLDIXZW1FAIHVWXYO","","null","<img src=""img/food4.png"" style=""width:200px; border:14px solid green;"">","null","","","","","","","","","",""
"","image-keyboard-response","157","57718","0.0-234.0","369J354OFEW336EBE692JLMIN6E6GN","A41APS6V2Z1FJ","3HUR21WDDUBEMSLDIXZW1FAIHVWXYO","","64","img/food3.png","75","64.70000000298023","2","0","false","3","2","1,0.5,0,1,0.5,0,0.5,0,1","1,0.5,0,1,0.5,0,0.5,0,1","1",""
"","html-keyboard-response","158","58020","0.0-235.0","369J354OFEW336EBE692JLMIN6E6GN","A41APS6V2Z1FJ","3HUR21WDDUBEMSLDIXZW1FAIHVWXYO","","null","<img src=""img/food3.png"" style=""width:200px;border:14px solid red;"">","null","","","","","","","","","",""
"","image-keyboard-response","159","58081","0.0-237.0","369J354OFEW336EBE692JLMIN6E6GN","A41APS6V2Z1FJ","3HUR21WDDUBEMSLDIXZW1FAIHVWXYO","","56.600000001490116","img/food3.png","75","59.399999998509884","2","0","false","3","2","1,0.5,0,1,0.5,0,0.5,0,1","1,0.5,0,1,0.5,0,0.5,0,1","1",""
"","html-keyboard-response","160","58383","0.0-238.0","369J354OFEW336EBE692JLMIN6E6GN","A41APS6V2Z1FJ","3HUR21WDDUBEMSLDIXZW1FAIHVWXYO","","null","<img src=""img/food3.png"" style=""width:200px;border:14px solid red;"">","null","","","","","","","","","",""
"","image-keyboard-response","161","58439","0.0-240.0","369J354OFEW336EBE692JLMIN6E6GN","A41APS6V2Z1FJ","3HUR21WDDUBEMSLDIXZW1FAIHVWXYO","","50.899999998509884","img/food4.png","75","54.099999994039536","2","1","false","1","2","1,0.5,0,1,0.5,0,0.5,0,1","1,0.5,0,1,0.5,0,0.5,0,1","1",""
"","html-keyboard-response","162","58742","0.0-241.0","369J354OFEW336EBE692JLMIN6E6GN","A41APS6V2Z1FJ","3HUR21WDDUBEMSLDIXZW1FAIHVWXYO","","null","<img src=""img/food4.png"" style=""width:200px; border:14px solid green;"">","null","","","","","","","","","",""
"","image-keyboard-response","163","58908","0.0-243.0","369J354OFEW336EBE692JLMIN6E6GN","A41APS6V2Z1FJ","3HUR21WDDUBEMSLDIXZW1FAIHVWXYO","","161.29999999701977","img/food6.png","74","164.09999999403954","1","1","false","2","2","1,0.5,0,1,0.5,0,0.5,0,1","1,0.5,0,1,0.5,0,0.5,0,1","1",""
"","html-keyboard-response","164","59209","0.0-244.0","369J354OFEW336EBE692JLMIN6E6GN","A41APS6V2Z1FJ","3HUR21WDDUBEMSLDIXZW1FAIHVWXYO","","null","<img src=""img/food6.png"" style=""width:200px; border:14px solid green;"">","null","","","","","","","","","",""
"","image-keyboard-response","165","59352","0.0-246.0","369J354OFEW336EBE692JLMIN6E6GN","A41APS6V2Z1FJ","3HUR21WDDUBEMSLDIXZW1FAIHVWXYO","","141.10000000149012","img/food3.png","75","141.89999999850988","2","0","false","3","2","1,0.5,0,1,0.5,0,0.5,0,1","1,0.5,0,1,0.5,0,0.5,0,1","1",""
"","html-keyboard-response","166","59654","0.0-247.0","369J354OFEW336EBE692JLMIN6E6GN","A41APS6V2Z1FJ","3HUR21WDDUBEMSLDIXZW1FAIHVWXYO","","null","<img src=""img/food3.png"" style=""width:200px;border:14px solid red;"">","null","","","","","","","","","",""
"","image-keyboard-response","167","60043","0.0-249.0","369J354OFEW336EBE692JLMIN6E6GN","A41APS6V2Z1FJ","3HUR21WDDUBEMSLDIXZW1FAIHVWXYO","","387.6000000014901","img/food4.png","75","388.5","2","1","false","1","2","1,0.5,0,1,0.5,0,0.5,0,1","1,0.5,0,1,0.5,0,0.5,0,1","1",""
"","html-keyboard-response","168","60345","0.0-250.0","369J354OFEW336EBE692JLMIN6E6GN","A41APS6V2Z1FJ","3HUR21WDDUBEMSLDIXZW1FAIHVWXYO","","null","<img src=""img/food4.png"" style=""width:200px; border:14px solid green;"">","null","","","","","","","","","",""
"","image-keyboard-response","169","60457","0.0-252.0","369J354OFEW336EBE692JLMIN6E6GN","A41APS6V2Z1FJ","3HUR21WDDUBEMSLDIXZW1FAIHVWXYO","","110.20000000298023","img/food3.png","75","111","2","0","false","3","2","1,0.5,0,1,0.5,0,0.5,0,1","1,0.5,0,1,0.5,0,0.5,0,1","1",""
"","html-keyboard-response","170","60759","0.0-253.0","369J354OFEW336EBE692JLMIN6E6GN","A41APS6V2Z1FJ","3HUR21WDDUBEMSLDIXZW1FAIHVWXYO","","null","<img src=""img/food3.png"" style=""width:200px;border:14px solid red;"">","null","","","","","","","","","",""
"","image-keyboard-response","171","60880","0.0-255.0","369J354OFEW336EBE692JLMIN6E6GN","A41APS6V2Z1FJ","3HUR21WDDUBEMSLDIXZW1FAIHVWXYO","","119.5","img/food6.png","75","120.39999999850988","2","0","false","2","2","1,0.5,0,1,0.5,0,0.5,0,1","1,0.5,0,1,0.5,0,0.5,0,1","1",""
"","html-keyboard-response","172","61181","0.0-256.0","369J354OFEW336EBE692JLMIN6E6GN","A41APS6V2Z1FJ","3HUR21WDDUBEMSLDIXZW1FAIHVWXYO","","null","<img src=""img/food6.png"" style=""width:200px;border:14px solid red;"">","null","","","","","","","","","",""
"","image-keyboard-response","173","61597","0.0-258.0","369J354OFEW336EBE692JLMIN6E6GN","A41APS6V2Z1FJ","3HUR21WDDUBEMSLDIXZW1FAIHVWXYO","","414.6000000014901","img/food4.png","76","415.3999999985099","3","0","false","1","2","1,0.5,0,1,0.5,0,0.5,0,1","1,0.5,0,1,0.5,0,0.5,0,1","1",""
"","html-keyboard-response","174","61898","0.0-259.0","369J354OFEW336EBE692JLMIN6E6GN","A41APS6V2Z1FJ","3HUR21WDDUBEMSLDIXZW1FAIHVWXYO","","null","<img src=""img/food4.png"" style=""width:200px;border:14px solid red;"">","null","","","","","","","","","",""
"","image-keyboard-response","175","62095","0.0-261.0","369J354OFEW336EBE692JLMIN6E6GN","A41APS6V2Z1FJ","3HUR21WDDUBEMSLDIXZW1FAIHVWXYO","","195.20000000298023","img/food3.png","76","195.79999999701977","3","1","false","3","2","1,0.5,0,1,0.5,0,0.5,0,1","1,0.5,0,1,0.5,0,0.5,0,1","1",""
"","html-keyboard-response","176","62396","0.0-262.0","369J354OFEW336EBE692JLMIN6E6GN","A41APS6V2Z1FJ","3HUR21WDDUBEMSLDIXZW1FAIHVWXYO","","null","<img src=""img/food3.png"" style=""width:200px; border:14px solid green;"">","null","","","","","","","","","",""
"","image-keyboard-response","177","62585","0.0-264.0","369J354OFEW336EBE692JLMIN6E6GN","A41APS6V2Z1FJ","3HUR21WDDUBEMSLDIXZW1FAIHVWXYO","","187.5","img/food3.png","75","188.29999999701977","2","0","false","3","2","1,0.5,0,1,0.5,0,0.5,0,1","1,0.5,0,1,0.5,0,0.5,0,1","1",""
"","html-keyboard-response","178","62886","0.0-265.0","369J354OFEW336EBE692JLMIN6E6GN","A41APS6V2Z1FJ","3HUR21WDDUBEMSLDIXZW1FAIHVWXYO","","null","<img src=""img/food3.png"" style=""width:200px;border:14px solid red;"">","null","","","","","","","","","",""
"","image-keyboard-response","179","63066","0.0-267.0","369J354OFEW336EBE692JLMIN6E6GN","A41APS6V2Z1FJ","3HUR21WDDUBEMSLDIXZW1FAIHVWXYO","","178.40000000596046","img/food4.png","75","179.10000000149012","2","1","false","1","2","1,0.5,0,1,0.5,0,0.5,0,1","1,0.5,0,1,0.5,0,0.5,0,1","1",""
"","html-keyboard-response","180","63368","0.0-268.0","369J354OFEW336EBE692JLMIN6E6GN","A41APS6V2Z1FJ","3HUR21WDDUBEMSLDIXZW1FAIHVWXYO","","null","<img src=""img/food4.png"" style=""width:200px; border:14px solid green;"">","null","","","","","","","","","",""
"","image-keyboard-response","181","63609","0.0-270.0","369J354OFEW336EBE692JLMIN6E6GN","A41APS6V2Z1FJ","3HUR21WDDUBEMSLDIXZW1FAIHVWXYO","","239.80000000447035","img/food6.png","74","240.5","1","1","false","2","2","1,0.5,0,1,0.5,0,0.5,0,1","1,0.5,0,1,0.5,0,0.5,0,1","1",""
"","html-keyboard-response","182","63910","0.0-271.0","369J354OFEW336EBE692JLMIN6E6GN","A41APS6V2Z1FJ","3HUR21WDDUBEMSLDIXZW1FAIHVWXYO","","null","<img src=""img/food6.png"" style=""width:200px; border:14px solid green;"">","null","","","","","","","","","",""
"","instructions","183","69071","0.0-273.0","369J354OFEW336EBE692JLMIN6E6GN","A41APS6V2Z1FJ","3HUR21WDDUBEMSLDIXZW1FAIHVWXYO","[{""page_index"":0,""viewing_time"":3760},{""page_index"":1,""viewing_time"":1399.8999999985099}]","5160.20000000298","","","","","","","","","","","",""
"","image-keyboard-response","184","69532","0.0-274.0","369J354OFEW336EBE692JLMIN6E6GN","A41APS6V2Z1FJ","3HUR21WDDUBEMSLDIXZW1FAIHVWXYO","","459.6000000014901","img/food2.png","75","460.6000000014901","2","1","","3","1","1,0.5,0,1,0.5,0,0.5,0,1","0.5,0,1,0.5,0,1,0,1,0.5","2",""
"","html-keyboard-response","185","69835","0.0-275.0","369J354OFEW336EBE692JLMIN6E6GN","A41APS6V2Z1FJ","3HUR21WDDUBEMSLDIXZW1FAIHVWXYO","","null","<img src=""img/food2.png"" style=""width:200px; border:14px solid green;"">","null","","","","","","","","","",""
"","image-keyboard-response","186","70382","0.0-276.0","369J354OFEW336EBE692JLMIN6E6GN","A41APS6V2Z1FJ","3HUR21WDDUBEMSLDIXZW1FAIHVWXYO","","543.5","img/food2.png","75","546","2","1","","3","1","1,0.5,0,1,0.5,0,0.5,0,1","0.5,0,1,0.5,0,1,0,1,0.5","2",""
"","html-keyboard-response","187","70684","0.0-277.0","369J354OFEW336EBE692JLMIN6E6GN","A41APS6V2Z1FJ","3HUR21WDDUBEMSLDIXZW1FAIHVWXYO","","null","<img src=""img/food2.png"" style=""width:200px; border:14px solid green;"">","null","","","","","","","","","",""
"","image-keyboard-response","188","71243","0.0-278.0","369J354OFEW336EBE692JLMIN6E6GN","A41APS6V2Z1FJ","3HUR21WDDUBEMSLDIXZW1FAIHVWXYO","","557.8999999985099","img/food5.png","76","558.7999999970198","3","1","","2","1","1,0.5,0,1,0.5,0,0.5,0,1","0.5,0,1,0.5,0,1,0,1,0.5","2",""
"","html-keyboard-response","189","71544","0.0-279.0","369J354OFEW336EBE692JLMIN6E6GN","A41APS6V2Z1FJ","3HUR21WDDUBEMSLDIXZW1FAIHVWXYO","","null","<img src=""img/food5.png"" style=""width:200px; border:14px solid green;"">","null","","","","","","","","","",""
"","image-keyboard-response","190","71961","0.0-280.0","369J354OFEW336EBE692JLMIN6E6GN","A41APS6V2Z1FJ","3HUR21WDDUBEMSLDIXZW1FAIHVWXYO","","415.6000000014901","img/food5.png","76","416.3999999985099","3","1","","2","1","1,0.5,0,1,0.5,0,0.5,0,1","0.5,0,1,0.5,0,1,0,1,0.5","2",""
"","html-keyboard-response","191","72263","0.0-281.0","369J354OFEW336EBE692JLMIN6E6GN","A41APS6V2Z1FJ","3HUR21WDDUBEMSLDIXZW1FAIHVWXYO","","null","<img src=""img/food5.png"" style=""width:200px; border:14px solid green;"">","null","","","","","","","","","",""
"","image-keyboard-response","192","72795","0.0-282.0","369J354OFEW336EBE692JLMIN6E6GN","A41APS6V2Z1FJ","3HUR21WDDUBEMSLDIXZW1FAIHVWXYO","","529.6000000014901","img/food2.png","74","530.3999999985099","1","0","","3","1","1,0.5,0,1,0.5,0,0.5,0,1","0.5,0,1,0.5,0,1,0,1,0.5","2",""
"","html-keyboard-response","193","73097","0.0-283.0","369J354OFEW336EBE692JLMIN6E6GN","A41APS6V2Z1FJ","3HUR21WDDUBEMSLDIXZW1FAIHVWXYO","","null","<img src=""img/food2.png"" style=""width:200px;border:14px solid red;"">","null","","","","","","","","","",""
"","image-keyboard-response","194","73462","0.0-284.0","369J354OFEW336EBE692JLMIN6E6GN","A41APS6V2Z1FJ","3HUR21WDDUBEMSLDIXZW1FAIHVWXYO","","364.09999999403954","img/food5.png","75","365","2","0","","2","1","1,0.5,0,1,0.5,0,0.5,0,1","0.5,0,1,0.5,0,1,0,1,0.5","2",""
"","html-keyboard-response","195","73763","0.0-285.0","369J354OFEW336EBE692JLMIN6E6GN","A41APS6V2Z1FJ","3HUR21WDDUBEMSLDIXZW1FAIHVWXYO","","null","<img src=""img/food5.png"" style=""width:200px;border:14px solid red;"">","null","","","","","","","","","",""
"","image-keyboard-response","196","74087","0.0-286.0","369J354OFEW336EBE692JLMIN6E6GN","A41APS6V2Z1FJ","3HUR21WDDUBEMSLDIXZW1FAIHVWXYO","","322","img/food2.png","75","323","2","1","","3","1","1,0.5,0,1,0.5,0,0.5,0,1","0.5,0,1,0.5,0,1,0,1,0.5","2",""
"","html-keyboard-response","197","74388","0.0-287.0","369J354OFEW336EBE692JLMIN6E6GN","A41APS6V2Z1FJ","3HUR21WDDUBEMSLDIXZW1FAIHVWXYO","","null","<img src=""img/food2.png"" style=""width:200px; border:14px solid green;"">","null","","","","","","","","","",""
"","image-keyboard-response","198","74580","0.0-288.0","369J354OFEW336EBE692JLMIN6E6GN","A41APS6V2Z1FJ","3HUR21WDDUBEMSLDIXZW1FAIHVWXYO","","190.39999999850988","img/food5.png","76","191.29999999701977","3","1","","2","1","1,0.5,0,1,0.5,0,0.5,0,1","0.5,0,1,0.5,0,1,0,1,0.5","2",""
"","html-keyboard-response","199","74881","0.0-289.0","369J354OFEW336EBE692JLMIN6E6GN","A41APS6V2Z1FJ","3HUR21WDDUBEMSLDIXZW1FAIHVWXYO","","null","<img src=""img/food5.png"" style=""width:200px; border:14px solid green;"">","null","","","","","","","","","",""
"","image-keyboard-response","200","75024","0.0-290.0","369J354OFEW336EBE692JLMIN6E6GN","A41APS6V2Z1FJ","3HUR21WDDUBEMSLDIXZW1FAIHVWXYO","","141.20000000298023","img/food1.png","75","141.89999999850988","2","0","","1","1","1,0.5,0,1,0.5,0,0.5,0,1","0.5,0,1,0.5,0,1,0,1,0.5","2",""
"","html-keyboard-response","201","75326","0.0-291.0","369J354OFEW336EBE692JLMIN6E6GN","A41APS6V2Z1FJ","3HUR21WDDUBEMSLDIXZW1FAIHVWXYO","","null","<img src=""img/food1.png"" style=""width:200px;border:14px solid red;"">","null","","","","","","","","","",""
"","image-keyboard-response","202","75432","0.0-292.0","369J354OFEW336EBE692JLMIN6E6GN","A41APS6V2Z1FJ","3HUR21WDDUBEMSLDIXZW1FAIHVWXYO","","100.39999999850988","img/food5.png","75","104.69999999552965","2","0","","2","1","1,0.5,0,1,0.5,0,0.5,0,1","0.5,0,1,0.5,0,1,0,1,0.5","2",""
"","html-keyboard-response","203","75734","0.0-293.0","369J354OFEW336EBE692JLMIN6E6GN","A41APS6V2Z1FJ","3HUR21WDDUBEMSLDIXZW1FAIHVWXYO","","null","<img src=""img/food5.png"" style=""width:200px;border:14px solid red;"">","null","","","","","","","","","",""
"","image-keyboard-response","204","75848","0.0-294.0","369J354OFEW336EBE692JLMIN6E6GN","A41APS6V2Z1FJ","3HUR21WDDUBEMSLDIXZW1FAIHVWXYO","","112.5","img/food2.png","76","113.19999999552965","3","0","","3","1","1,0.5,0,1,0.5,0,0.5,0,1","0.5,0,1,0.5,0,1,0,1,0.5","2",""
"","html-keyboard-response","205","76150","0.0-295.0","369J354OFEW336EBE692JLMIN6E6GN","A41APS6V2Z1FJ","3HUR21WDDUBEMSLDIXZW1FAIHVWXYO","","null","<img src=""img/food2.png"" style=""width:200px;border:14px solid red;"">","null","","","","","","","","","",""
"","image-keyboard-response","206","76326","0.0-296.0","369J354OFEW336EBE692JLMIN6E6GN","A41APS6V2Z1FJ","3HUR21WDDUBEMSLDIXZW1FAIHVWXYO","","174.89999999850988","img/food2.png","76","175.89999999850988","3","0","","3","1","1,0.5,0,1,0.5,0,0.5,0,1","0.5,0,1,0.5,0,1,0,1,0.5","2",""
"","html-keyboard-response","207","76627","0.0-297.0","369J354OFEW336EBE692JLMIN6E6GN","A41APS6V2Z1FJ","3HUR21WDDUBEMSLDIXZW1FAIHVWXYO","","null","<img src=""img/food2.png"" style=""width:200px;border:14px solid red;"">","null","","","","","","","","","",""
"","image-keyboard-response","208","76786","0.0-298.0","369J354OFEW336EBE692JLMIN6E6GN","A41APS6V2Z1FJ","3HUR21WDDUBEMSLDIXZW1FAIHVWXYO","","158","img/food1.png","76","158.5","3","1","","1","1","1,0.5,0,1,0.5,0,0.5,0,1","0.5,0,1,0.5,0,1,0,1,0.5","2",""
"","html-keyboard-response","209","77087","0.0-299.0","369J354OFEW336EBE692JLMIN6E6GN","A41APS6V2Z1FJ","3HUR21WDDUBEMSLDIXZW1FAIHVWXYO","","null","<img src=""img/food1.png"" style=""width:200px; border:14px solid green;"">","null","","","","","","","","","",""
"","image-keyboard-response","210","77313","0.0-300.0","369J354OFEW336EBE692JLMIN6E6GN","A41APS6V2Z1FJ","3HUR21WDDUBEMSLDIXZW1FAIHVWXYO","","224.10000000149012","img/food2.png","76","225","3","1","","3","1","1,0.5,0,1,0.5,0,0.5,0,1","0.5,0,1,0.5,0,1,0,1,0.5","2",""
"","html-keyboard-response","211","77614","0.0-301.0","369J354OFEW336EBE692JLMIN6E6GN","A41APS6V2Z1FJ","3HUR21WDDUBEMSLDIXZW1FAIHVWXYO","","null","<img src=""img/food2.png"" style=""width:200px; border:14px solid green;"">","null","","","","","","","","","",""
"","image-keyboard-response","212","77776","0.0-302.0","369J354OFEW336EBE692JLMIN6E6GN","A41APS6V2Z1FJ","3HUR21WDDUBEMSLDIXZW1FAIHVWXYO","","160.79999999701977","img/food5.png","75","161.60000000149012","2","0","","2","1","1,0.5,0,1,0.5,0,0.5,0,1","0.5,0,1,0.5,0,1,0,1,0.5","2",""
"","html-keyboard-response","213","78077","0.0-303.0","369J354OFEW336EBE692JLMIN6E6GN","A41APS6V2Z1FJ","3HUR21WDDUBEMSLDIXZW1FAIHVWXYO","","null","<img src=""img/food5.png"" style=""width:200px;border:14px solid red;"">","null","","","","","","","","","",""
"","image-keyboard-response","214","78232","0.0-304.0","369J354OFEW336EBE692JLMIN6E6GN","A41APS6V2Z1FJ","3HUR21WDDUBEMSLDIXZW1FAIHVWXYO","","153.89999999850988","img/food1.png","76","154.40000000596046","3","1","","1","1","1,0.5,0,1,0.5,0,0.5,0,1","0.5,0,1,0.5,0,1,0,1,0.5","2",""
"","html-keyboard-response","215","78533","0.0-305.0","369J354OFEW336EBE692JLMIN6E6GN","A41APS6V2Z1FJ","3HUR21WDDUBEMSLDIXZW1FAIHVWXYO","","null","<img src=""img/food1.png"" style=""width:200px; border:14px solid green;"">","null","","","","","","","","","",""
"","image-keyboard-response","216","78661","0.0-306.0","369J354OFEW336EBE692JLMIN6E6GN","A41APS6V2Z1FJ","3HUR21WDDUBEMSLDIXZW1FAIHVWXYO","","126.89999999850988","img/food5.png","75","127.69999999552965","2","0","","2","1","1,0.5,0,1,0.5,0,0.5,0,1","0.5,0,1,0.5,0,1,0,1,0.5","2",""
"","html-keyboard-response","217","78962","0.0-307.0","369J354OFEW336EBE692JLMIN6E6GN","A41APS6V2Z1FJ","3HUR21WDDUBEMSLDIXZW1FAIHVWXYO","","null","<img src=""img/food5.png"" style=""width:200px;border:14px solid red;"">","null","","","","","","","","","",""
"","image-keyboard-response","218","79179","0.0-308.0","369J354OFEW336EBE692JLMIN6E6GN","A41APS6V2Z1FJ","3HUR21WDDUBEMSLDIXZW1FAIHVWXYO","","215.60000000149012","img/food1.png","75","216.29999999701977","2","0","","1","1","1,0.5,0,1,0.5,0,0.5,0,1","0.5,0,1,0.5,0,1,0,1,0.5","2",""
"","html-keyboard-response","219","79481","0.0-309.0","369J354OFEW336EBE692JLMIN6E6GN","A41APS6V2Z1FJ","3HUR21WDDUBEMSLDIXZW1FAIHVWXYO","","null","<img src=""img/food1.png"" style=""width:200px;border:14px solid red;"">","null","","","","","","","","","",""
"","image-keyboard-response","220","79758","0.0-310.0","369J354OFEW336EBE692JLMIN6E6GN","A41APS6V2Z1FJ","3HUR21WDDUBEMSLDIXZW1FAIHVWXYO","","276.1000000014901","img/food1.png","75","277.09999999403954","2","0","","1","1","1,0.5,0,1,0.5,0,0.5,0,1","0.5,0,1,0.5,0,1,0,1,0.5","2",""
"","html-keyboard-response","221","80059","0.0-311.0","369J354OFEW336EBE692JLMIN6E6GN","A41APS6V2Z1FJ","3HUR21WDDUBEMSLDIXZW1FAIHVWXYO","","null","<img src=""img/food1.png"" style=""width:200px;border:14px solid red;"">","null","","","","","","","","","",""
"","image-keyboard-response","222","80395","0.0-312.0","369J354OFEW336EBE692JLMIN6E6GN","A41APS6V2Z1FJ","3HUR21WDDUBEMSLDIXZW1FAIHVWXYO","","334.6000000014901","img/food5.png","75","335.29999999701977","2","0","","2","1","1,0.5,0,1,0.5,0,0.5,0,1","0.5,0,1,0.5,0,1,0,1,0.5","2",""
"","html-keyboard-response","223","80696","0.0-313.0","369J354OFEW336EBE692JLMIN6E6GN","A41APS6V2Z1FJ","3HUR21WDDUBEMSLDIXZW1FAIHVWXYO","","null","<img src=""img/food5.png"" style=""width:200px;border:14px solid red;"">","null","","","","","","","","","",""
"","image-keyboard-response","224","80873","0.0-314.0","369J354OFEW336EBE692JLMIN6E6GN","A41APS6V2Z1FJ","3HUR21WDDUBEMSLDIXZW1FAIHVWXYO","","175.60000000149012","img/food5.png","75","176.60000000149012","2","0","","2","1","1,0.5,0,1,0.5,0,0.5,0,1","0.5,0,1,0.5,0,1,0,1,0.5","2",""
"","html-keyboard-response","225","81174","0.0-315.0","369J354OFEW336EBE692JLMIN6E6GN","A41APS6V2Z1FJ","3HUR21WDDUBEMSLDIXZW1FAIHVWXYO","","null","<img src=""img/food5.png"" style=""width:200px;border:14px solid red;"">","null","","","","","","","","","",""
"","image-keyboard-response","226","81435","0.0-316.0","369J354OFEW336EBE692JLMIN6E6GN","A41APS6V2Z1FJ","3HUR21WDDUBEMSLDIXZW1FAIHVWXYO","","259.3999999985099","img/food1.png","75","260.09999999403954","2","0","","1","1","1,0.5,0,1,0.5,0,0.5,0,1","0.5,0,1,0.5,0,1,0,1,0.5","2",""
"","html-keyboard-response","227","81736","0.0-317.0","369J354OFEW336EBE692JLMIN6E6GN","A41APS6V2Z1FJ","3HUR21WDDUBEMSLDIXZW1FAIHVWXYO","","null","<img src=""img/food1.png"" style=""width:200px;border:14px solid red;"">","null","","","","","","","","","",""
"","image-keyboard-response","228","81950","0.0-318.0","369J354OFEW336EBE692JLMIN6E6GN","A41APS6V2Z1FJ","3HUR21WDDUBEMSLDIXZW1FAIHVWXYO","","213","img/food5.png","75","213.69999999552965","2","0","","2","1","1,0.5,0,1,0.5,0,0.5,0,1","0.5,0,1,0.5,0,1,0,1,0.5","2",""
"","html-keyboard-response","229","82251","0.0-319.0","369J354OFEW336EBE692JLMIN6E6GN","A41APS6V2Z1FJ","3HUR21WDDUBEMSLDIXZW1FAIHVWXYO","","null","<img src=""img/food5.png"" style=""width:200px;border:14px solid red;"">","null","","","","","","","","","",""
"","image-keyboard-response","230","82393","0.0-320.0","369J354OFEW336EBE692JLMIN6E6GN","A41APS6V2Z1FJ","3HUR21WDDUBEMSLDIXZW1FAIHVWXYO","","140.69999999552965","img/food5.png","76","141.39999999850988","3","1","","2","1","1,0.5,0,1,0.5,0,0.5,0,1","0.5,0,1,0.5,0,1,0,1,0.5","2",""
"","html-keyboard-response","231","82695","0.0-321.0","369J354OFEW336EBE692JLMIN6E6GN","A41APS6V2Z1FJ","3HUR21WDDUBEMSLDIXZW1FAIHVWXYO","","null","<img src=""img/food5.png"" style=""width:200px; border:14px solid green;"">","null","","","","","","","","","",""
"","image-keyboard-response","232","82955","0.0-322.0","369J354OFEW336EBE692JLMIN6E6GN","A41APS6V2Z1FJ","3HUR21WDDUBEMSLDIXZW1FAIHVWXYO","","258.79999999701977","img/food5.png","76","260.3999999985099","3","1","","2","1","1,0.5,0,1,0.5,0,0.5,0,1","0.5,0,1,0.5,0,1,0,1,0.5","2",""
"","html-keyboard-response","233","83257","0.0-323.0","369J354OFEW336EBE692JLMIN6E6GN","A41APS6V2Z1FJ","3HUR21WDDUBEMSLDIXZW1FAIHVWXYO","","null","<img src=""img/food5.png"" style=""width:200px; border:14px solid green;"">","null","","","","","","","","","",""
"","image-keyboard-response","234","83507","0.0-324.0","369J354OFEW336EBE692JLMIN6E6GN","A41APS6V2Z1FJ","3HUR21WDDUBEMSLDIXZW1FAIHVWXYO","","248.19999999552965","img/food2.png","76","249","3","0","","3","1","1,0.5,0,1,0.5,0,0.5,0,1","0.5,0,1,0.5,0,1,0,1,0.5","2",""
"","html-keyboard-response","235","83809","0.0-325.0","369J354OFEW336EBE692JLMIN6E6GN","A41APS6V2Z1FJ","3HUR21WDDUBEMSLDIXZW1FAIHVWXYO","","null","<img src=""img/food2.png"" style=""width:200px;border:14px solid red;"">","null","","","","","","","","","",""
"","image-keyboard-response","236","84033","0.0-326.0","369J354OFEW336EBE692JLMIN6E6GN","A41APS6V2Z1FJ","3HUR21WDDUBEMSLDIXZW1FAIHVWXYO","","223.10000000149012","img/food5.png","76","223.69999999552965","3","1","","2","1","1,0.5,0,1,0.5,0,0.5,0,1","0.5,0,1,0.5,0,1,0,1,0.5","2",""
"","html-keyboard-response","237","84334","0.0-327.0","369J354OFEW336EBE692JLMIN6E6GN","A41APS6V2Z1FJ","3HUR21WDDUBEMSLDIXZW1FAIHVWXYO","","null","<img src=""img/food5.png"" style=""width:200px; border:14px solid green;"">","null","","","","","","","","","",""
"","image-keyboard-response","238","84437","0.0-328.0","369J354OFEW336EBE692JLMIN6E6GN","A41APS6V2Z1FJ","3HUR21WDDUBEMSLDIXZW1FAIHVWXYO","","101.20000000298023","img/food2.png","75","102.09999999403954","2","1","","3","1","1,0.5,0,1,0.5,0,0.5,0,1","0.5,0,1,0.5,0,1,0,1,0.5","2",""
"","html-keyboard-response","239","84739","0.0-329.0","369J354OFEW336EBE692JLMIN6E6GN","A41APS6V2Z1FJ","3HUR21WDDUBEMSLDIXZW1FAIHVWXYO","","null","<img src=""img/food2.png"" style=""width:200px; border:14px solid green;"">","null","","","","","","","","","",""
"","image-keyboard-response","240","84848","0.0-330.0","369J354OFEW336EBE692JLMIN6E6GN","A41APS6V2Z1FJ","3HUR21WDDUBEMSLDIXZW1FAIHVWXYO","","104.5","img/food5.png","75","106.69999999552965","2","0","","2","1","1,0.5,0,1,0.5,0,0.5,0,1","0.5,0,1,0.5,0,1,0,1,0.5","2",""
"","html-keyboard-response","241","85149","0.0-331.0","369J354OFEW336EBE692JLMIN6E6GN","A41APS6V2Z1FJ","3HUR21WDDUBEMSLDIXZW1FAIHVWXYO","","null","<img src=""img/food5.png"" style=""width:200px;border:14px solid red;"">","null","","","","","","","","","",""
"","image-keyboard-response","242","85233","0.0-332.0","369J354OFEW336EBE692JLMIN6E6GN","A41APS6V2Z1FJ","3HUR21WDDUBEMSLDIXZW1FAIHVWXYO","","83","img/food1.png","75","83.80000000447035","2","0","","1","1","1,0.5,0,1,0.5,0,0.5,0,1","0.5,0,1,0.5,0,1,0,1,0.5","2",""
"","html-keyboard-response","243","85534","0.0-333.0","369J354OFEW336EBE692JLMIN6E6GN","A41APS6V2Z1FJ","3HUR21WDDUBEMSLDIXZW1FAIHVWXYO","","null","<img src=""img/food1.png"" style=""width:200px;border:14px solid red;"">","null","","","","","","","","","",""
"","image-keyboard-response","244","85741","0.0-334.0","369J354OFEW336EBE692JLMIN6E6GN","A41APS6V2Z1FJ","3HUR21WDDUBEMSLDIXZW1FAIHVWXYO","","205.70000000298023","img/food1.png","75","206.39999999850988","2","0","","1","1","1,0.5,0,1,0.5,0,0.5,0,1","0.5,0,1,0.5,0,1,0,1,0.5","2",""
"","html-keyboard-response","245","86043","0.0-335.0","369J354OFEW336EBE692JLMIN6E6GN","A41APS6V2Z1FJ","3HUR21WDDUBEMSLDIXZW1FAIHVWXYO","","null","<img src=""img/food1.png"" style=""width:200px;border:14px solid red;"">","null","","","","","","","","","",""
"","image-keyboard-response","246","86301","0.0-336.0","369J354OFEW336EBE692JLMIN6E6GN","A41APS6V2Z1FJ","3HUR21WDDUBEMSLDIXZW1FAIHVWXYO","","257.1000000014901","img/food2.png","75","257.90000000596046","2","1","","3","1","1,0.5,0,1,0.5,0,0.5,0,1","0.5,0,1,0.5,0,1,0,1,0.5","2",""
"","html-keyboard-response","247","86603","0.0-337.0","369J354OFEW336EBE692JLMIN6E6GN","A41APS6V2Z1FJ","3HUR21WDDUBEMSLDIXZW1FAIHVWXYO","","null","<img src=""img/food2.png"" style=""width:200px; border:14px solid green;"">","null","","","","","","","","","",""
"","image-keyboard-response","248","86870","0.0-338.0","369J354OFEW336EBE692JLMIN6E6GN","A41APS6V2Z1FJ","3HUR21WDDUBEMSLDIXZW1FAIHVWXYO","","265.5","img/food1.png","75","266.29999999701977","2","0","","1","1","1,0.5,0,1,0.5,0,0.5,0,1","0.5,0,1,0.5,0,1,0,1,0.5","2",""
"","html-keyboard-response","249","87171","0.0-339.0","369J354OFEW336EBE692JLMIN6E6GN","A41APS6V2Z1FJ","3HUR21WDDUBEMSLDIXZW1FAIHVWXYO","","null","<img src=""img/food1.png"" style=""width:200px;border:14px solid red;"">","null","","","","","","","","","",""
"","image-keyboard-response","250","87417","0.0-340.0","369J354OFEW336EBE692JLMIN6E6GN","A41APS6V2Z1FJ","3HUR21WDDUBEMSLDIXZW1FAIHVWXYO","","244.70000000298023","img/food5.png","75","245.69999999552965","2","0","","2","1","1,0.5,0,1,0.5,0,0.5,0,1","0.5,0,1,0.5,0,1,0,1,0.5","2",""
"","html-keyboard-response","251","87718","0.0-341.0","369J354OFEW336EBE692JLMIN6E6GN","A41APS6V2Z1FJ","3HUR21WDDUBEMSLDIXZW1FAIHVWXYO","","null","<img src=""img/food5.png"" style=""width:200px;border:14px solid red;"">","null","","","","","","","","","",""
"","image-keyboard-response","252","87970","0.0-342.0","369J354OFEW336EBE692JLMIN6E6GN","A41APS6V2Z1FJ","3HUR21WDDUBEMSLDIXZW1FAIHVWXYO","","250.5","img/food5.png","75","251.39999999850988","2","0","","2","1","1,0.5,0,1,0.5,0,0.5,0,1","0.5,0,1,0.5,0,1,0,1,0.5","2",""
"","html-keyboard-response","253","88271","0.0-343.0","369J354OFEW336EBE692JLMIN6E6GN","A41APS6V2Z1FJ","3HUR21WDDUBEMSLDIXZW1FAIHVWXYO","","null","<img src=""img/food5.png"" style=""width:200px;border:14px solid red;"">","null","","","","","","","","","",""
"","image-keyboard-response","254","88554","0.0-344.0","369J354OFEW336EBE692JLMIN6E6GN","A41APS6V2Z1FJ","3HUR21WDDUBEMSLDIXZW1FAIHVWXYO","","281.8999999985099","img/food5.png","75","282.79999999701977","2","0","","2","1","1,0.5,0,1,0.5,0,0.5,0,1","0.5,0,1,0.5,0,1,0,1,0.5","2",""
"","html-keyboard-response","255","88855","0.0-345.0","369J354OFEW336EBE692JLMIN6E6GN","A41APS6V2Z1FJ","3HUR21WDDUBEMSLDIXZW1FAIHVWXYO","","null","<img src=""img/food5.png"" style=""width:200px;border:14px solid red;"">","null","","","","","","","","","",""
"","image-keyboard-response","256","89110","0.0-346.0","369J354OFEW336EBE692JLMIN6E6GN","A41APS6V2Z1FJ","3HUR21WDDUBEMSLDIXZW1FAIHVWXYO","","253.30000000447035","img/food1.png","75","254.10000000149012","2","0","","1","1","1,0.5,0,1,0.5,0,0.5,0,1","0.5,0,1,0.5,0,1,0,1,0.5","2",""
"","html-keyboard-response","257","89411","0.0-347.0","369J354OFEW336EBE692JLMIN6E6GN","A41APS6V2Z1FJ","3HUR21WDDUBEMSLDIXZW1FAIHVWXYO","","null","<img src=""img/food1.png"" style=""width:200px;border:14px solid red;"">","null","","","","","","","","","",""
"","image-keyboard-response","258","89566","0.0-348.0","369J354OFEW336EBE692JLMIN6E6GN","A41APS6V2Z1FJ","3HUR21WDDUBEMSLDIXZW1FAIHVWXYO","","153.60000000149012","img/food1.png","75","154.39999999850988","2","0","","1","1","1,0.5,0,1,0.5,0,0.5,0,1","0.5,0,1,0.5,0,1,0,1,0.5","2",""
"","html-keyboard-response","259","89867","0.0-349.0","369J354OFEW336EBE692JLMIN6E6GN","A41APS6V2Z1FJ","3HUR21WDDUBEMSLDIXZW1FAIHVWXYO","","null","<img src=""img/food1.png"" style=""width:200px;border:14px solid red;"">","null","","","","","","","","","",""
"","image-keyboard-response","260","90021","0.0-350.0","369J354OFEW336EBE692JLMIN6E6GN","A41APS6V2Z1FJ","3HUR21WDDUBEMSLDIXZW1FAIHVWXYO","","152.39999999850988","img/food2.png","76","153.10000000149012","3","0","","3","1","1,0.5,0,1,0.5,0,0.5,0,1","0.5,0,1,0.5,0,1,0,1,0.5","2",""
"","html-keyboard-response","261","90322","0.0-351.0","369J354OFEW336EBE692JLMIN6E6GN","A41APS6V2Z1FJ","3HUR21WDDUBEMSLDIXZW1FAIHVWXYO","","null","<img src=""img/food2.png"" style=""width:200px;border:14px solid red;"">","null","","","","","","","","","",""
"","image-keyboard-response","262","90528","0.0-352.0","369J354OFEW336EBE692JLMIN6E6GN","A41APS6V2Z1FJ","3HUR21WDDUBEMSLDIXZW1FAIHVWXYO","","204.5","img/food1.png","76","205.29999999701977","3","1","","1","1","1,0.5,0,1,0.5,0,0.5,0,1","0.5,0,1,0.5,0,1,0,1,0.5","2",""
"","html-keyboard-response","263","90830","0.0-353.0","369J354OFEW336EBE692JLMIN6E6GN","A41APS6V2Z1FJ","3HUR21WDDUBEMSLDIXZW1FAIHVWXYO","","null","<img src=""img/food1.png"" style=""width:200px; border:14px solid green;"">","null","","","","","","","","","",""
"","image-keyboard-response","264","91052","0.0-354.0","369J354OFEW336EBE692JLMIN6E6GN","A41APS6V2Z1FJ","3HUR21WDDUBEMSLDIXZW1FAIHVWXYO","","217.39999999850988","img/food1.png","75","220.29999999701977","2","0","","1","1","1,0.5,0,1,0.5,0,0.5,0,1","0.5,0,1,0.5,0,1,0,1,0.5","2",""
"","html-keyboard-response","265","91353","0.0-355.0","369J354OFEW336EBE692JLMIN6E6GN","A41APS6V2Z1FJ","3HUR21WDDUBEMSLDIXZW1FAIHVWXYO","","null","<img src=""img/food1.png"" style=""width:200px;border:14px solid red;"">","null","","","","","","","","","",""
"","image-keyboard-response","266","91531","0.0-356.0","369J354OFEW336EBE692JLMIN6E6GN","A41APS6V2Z1FJ","3HUR21WDDUBEMSLDIXZW1FAIHVWXYO","","176.70000000298023","img/food2.png","75","177.39999999850988","2","1","","3","1","1,0.5,0,1,0.5,0,0.5,0,1","0.5,0,1,0.5,0,1,0,1,0.5","2",""
"","html-keyboard-response","267","91832","0.0-357.0","369J354OFEW336EBE692JLMIN6E6GN","A41APS6V2Z1FJ","3HUR21WDDUBEMSLDIXZW1FAIHVWXYO","","null","<img src=""img/food2.png"" style=""width:200px; border:14px solid green;"">","null","","","","","","","","","",""
"","image-keyboard-response","268","92065","0.0-358.0","369J354OFEW336EBE692JLMIN6E6GN","A41APS6V2Z1FJ","3HUR21WDDUBEMSLDIXZW1FAIHVWXYO","","231.30000000447035","img/food1.png","76","231.89999999850988","3","1","","1","1","1,0.5,0,1,0.5,0,0.5,0,1","0.5,0,1,0.5,0,1,0,1,0.5","2",""
"","html-keyboard-response","269","92366","0.0-359.0","369J354OFEW336EBE692JLMIN6E6GN","A41APS6V2Z1FJ","3HUR21WDDUBEMSLDIXZW1FAIHVWXYO","","null","<img src=""img/food1.png"" style=""width:200px; border:14px solid green;"">","null","","","","","","","","","",""
"","image-keyboard-response","270","92589","0.0-360.0","369J354OFEW336EBE692JLMIN6E6GN","A41APS6V2Z1FJ","3HUR21WDDUBEMSLDIXZW1FAIHVWXYO","","221.89999999850988","img/food1.png","76","222.60000000149012","3","1","","1","1","1,0.5,0,1,0.5,0,0.5,0,1","0.5,0,1,0.5,0,1,0,1,0.5","2",""
"","html-keyboard-response","271","92890","0.0-361.0","369J354OFEW336EBE692JLMIN6E6GN","A41APS6V2Z1FJ","3HUR21WDDUBEMSLDIXZW1FAIHVWXYO","","null","<img src=""img/food1.png"" style=""width:200px; border:14px solid green;"">","null","","","","","","","","","",""
"","image-keyboard-response","272","93091","0.0-362.0","369J354OFEW336EBE692JLMIN6E6GN","A41APS6V2Z1FJ","3HUR21WDDUBEMSLDIXZW1FAIHVWXYO","","199.60000000149012","img/food5.png","75","200.39999999850988","2","0","","2","1","1,0.5,0,1,0.5,0,0.5,0,1","0.5,0,1,0.5,0,1,0,1,0.5","2",""
"","html-keyboard-response","273","93393","0.0-363.0","369J354OFEW336EBE692JLMIN6E6GN","A41APS6V2Z1FJ","3HUR21WDDUBEMSLDIXZW1FAIHVWXYO","","null","<img src=""img/food5.png"" style=""width:200px;border:14px solid red;"">","null","","","","","","","","","",""
"","image-keyboard-response","274","93624","0.0-364.0","369J354OFEW336EBE692JLMIN6E6GN","A41APS6V2Z1FJ","3HUR21WDDUBEMSLDIXZW1FAIHVWXYO","","230.10000000149012","img/food5.png","75","230.79999999701977","2","0","","2","1","1,0.5,0,1,0.5,0,0.5,0,1","0.5,0,1,0.5,0,1,0,1,0.5","2",""
"","html-keyboard-response","275","93925","0.0-365.0","369J354OFEW336EBE692JLMIN6E6GN","A41APS6V2Z1FJ","3HUR21WDDUBEMSLDIXZW1FAIHVWXYO","","null","<img src=""img/food5.png"" style=""width:200px;border:14px solid red;"">","null","","","","","","","","","",""
"","image-keyboard-response","276","94165","0.0-366.0","369J354OFEW336EBE692JLMIN6E6GN","A41APS6V2Z1FJ","3HUR21WDDUBEMSLDIXZW1FAIHVWXYO","","239.10000000149012","img/food2.png","75","239.69999999552965","2","1","","3","1","1,0.5,0,1,0.5,0,0.5,0,1","0.5,0,1,0.5,0,1,0,1,0.5","2",""
"","html-keyboard-response","277","94466","0.0-367.0","369J354OFEW336EBE692JLMIN6E6GN","A41APS6V2Z1FJ","3HUR21WDDUBEMSLDIXZW1FAIHVWXYO","","null","<img src=""img/food2.png"" style=""width:200px; border:14px solid green;"">","null","","","","","","","","","",""
"","image-keyboard-response","278","94729","0.0-368.0","369J354OFEW336EBE692JLMIN6E6GN","A41APS6V2Z1FJ","3HUR21WDDUBEMSLDIXZW1FAIHVWXYO","","261.20000000298023","img/food2.png","75","262","2","1","","3","1","1,0.5,0,1,0.5,0,0.5,0,1","0.5,0,1,0.5,0,1,0,1,0.5","2",""
"","html-keyboard-response","279","95030","0.0-369.0","369J354OFEW336EBE692JLMIN6E6GN","A41APS6V2Z1FJ","3HUR21WDDUBEMSLDIXZW1FAIHVWXYO","","null","<img src=""img/food2.png"" style=""width:200px; border:14px solid green;"">","null","","","","","","","","","",""
"","image-keyboard-response","280","95321","0.0-370.0","369J354OFEW336EBE692JLMIN6E6GN","A41APS6V2Z1FJ","3HUR21WDDUBEMSLDIXZW1FAIHVWXYO","","290.3999999985099","img/food2.png","75","291.1000000014901","2","1","","3","1","1,0.5,0,1,0.5,0,0.5,0,1","0.5,0,1,0.5,0,1,0,1,0.5","2",""
"","html-keyboard-response","281","95622","0.0-371.0","369J354OFEW336EBE692JLMIN6E6GN","A41APS6V2Z1FJ","3HUR21WDDUBEMSLDIXZW1FAIHVWXYO","","null","<img src=""img/food2.png"" style=""width:200px; border:14px solid green;"">","null","","","","","","","","","",""
"","image-keyboard-response","282","95855","0.0-372.0","369J354OFEW336EBE692JLMIN6E6GN","A41APS6V2Z1FJ","3HUR21WDDUBEMSLDIXZW1FAIHVWXYO","","231.79999999701977","img/food1.png","75","232.70000000298023","2","0","","1","1","1,0.5,0,1,0.5,0,0.5,0,1","0.5,0,1,0.5,0,1,0,1,0.5","2",""
"","html-keyboard-response","283","96157","0.0-373.0","369J354OFEW336EBE692JLMIN6E6GN","A41APS6V2Z1FJ","3HUR21WDDUBEMSLDIXZW1FAIHVWXYO","","null","<img src=""img/food1.png"" style=""width:200px;border:14px solid red;"">","null","","","","","","","","","",""
"","image-keyboard-response","284","96401","0.0-374.0","369J354OFEW336EBE692JLMIN6E6GN","A41APS6V2Z1FJ","3HUR21WDDUBEMSLDIXZW1FAIHVWXYO","","243.10000000149012","img/food1.png","76","243.90000000596046","3","1","","1","1","1,0.5,0,1,0.5,0,0.5,0,1","0.5,0,1,0.5,0,1,0,1,0.5","2",""
"","html-keyboard-response","285","96702","0.0-375.0","369J354OFEW336EBE692JLMIN6E6GN","A41APS6V2Z1FJ","3HUR21WDDUBEMSLDIXZW1FAIHVWXYO","","null","<img src=""img/food1.png"" style=""width:200px; border:14px solid green;"">","null","","","","","","","","","",""
"","image-keyboard-response","286","96916","0.0-376.0","369J354OFEW336EBE692JLMIN6E6GN","A41APS6V2Z1FJ","3HUR21WDDUBEMSLDIXZW1FAIHVWXYO","","212.39999999850988","img/food1.png","76","213.20000000298023","3","1","","1","1","1,0.5,0,1,0.5,0,0.5,0,1","0.5,0,1,0.5,0,1,0,1,0.5","2",""
"","html-keyboard-response","287","97218","0.0-377.0","369J354OFEW336EBE692JLMIN6E6GN","A41APS6V2Z1FJ","3HUR21WDDUBEMSLDIXZW1FAIHVWXYO","","null","<img src=""img/food1.png"" style=""width:200px; border:14px solid green;"">","null","","","","","","","","","",""
"","image-keyboard-response","288","97443","0.0-378.0","369J354OFEW336EBE692JLMIN6E6GN","A41APS6V2Z1FJ","3HUR21WDDUBEMSLDIXZW1FAIHVWXYO","","224.20000000298023","img/food5.png","76","224.89999999850988","3","1","","2","1","1,0.5,0,1,0.5,0,0.5,0,1","0.5,0,1,0.5,0,1,0,1,0.5","2",""
"","html-keyboard-response","289","97745","0.0-379.0","369J354OFEW336EBE692JLMIN6E6GN","A41APS6V2Z1FJ","3HUR21WDDUBEMSLDIXZW1FAIHVWXYO","","null","<img src=""img/food5.png"" style=""width:200px; border:14px solid green;"">","null","","","","","","","","","",""
"","image-keyboard-response","290","97907","0.0-380.0","369J354OFEW336EBE692JLMIN6E6GN","A41APS6V2Z1FJ","3HUR21WDDUBEMSLDIXZW1FAIHVWXYO","","161.20000000298023","img/food2.png","75","162","2","1","","3","1","1,0.5,0,1,0.5,0,0.5,0,1","0.5,0,1,0.5,0,1,0,1,0.5","2",""
"","html-keyboard-response","291","98209","0.0-381.0","369J354OFEW336EBE692JLMIN6E6GN","A41APS6V2Z1FJ","3HUR21WDDUBEMSLDIXZW1FAIHVWXYO","","null","<img src=""img/food2.png"" style=""width:200px; border:14px solid green;"">","null","","","","","","","","","",""
"","image-keyboard-response","292","98368","0.0-382.0","369J354OFEW336EBE692JLMIN6E6GN","A41APS6V2Z1FJ","3HUR21WDDUBEMSLDIXZW1FAIHVWXYO","","157.70000000298023","img/food1.png","75","158.39999999850988","2","0","","1","1","1,0.5,0,1,0.5,0,0.5,0,1","0.5,0,1,0.5,0,1,0,1,0.5","2",""
"","html-keyboard-response","293","98669","0.0-383.0","369J354OFEW336EBE692JLMIN6E6GN","A41APS6V2Z1FJ","3HUR21WDDUBEMSLDIXZW1FAIHVWXYO","","null","<img src=""img/food1.png"" style=""width:200px;border:14px solid red;"">","null","","","","","","","","","",""
"","image-keyboard-response","294","98780","0.0-384.0","369J354OFEW336EBE692JLMIN6E6GN","A41APS6V2Z1FJ","3HUR21WDDUBEMSLDIXZW1FAIHVWXYO","","109.70000000298023","img/food5.png","75","110.5","2","0","","2","1","1,0.5,0,1,0.5,0,0.5,0,1","0.5,0,1,0.5,0,1,0,1,0.5","2",""
"","html-keyboard-response","295","99081","0.0-385.0","369J354OFEW336EBE692JLMIN6E6GN","A41APS6V2Z1FJ","3HUR21WDDUBEMSLDIXZW1FAIHVWXYO","","null","<img src=""img/food5.png"" style=""width:200px;border:14px solid red;"">","null","","","","","","","","","",""
"","image-keyboard-response","296","99390","0.0-386.0","369J354OFEW336EBE692JLMIN6E6GN","A41APS6V2Z1FJ","3HUR21WDDUBEMSLDIXZW1FAIHVWXYO","","306.8999999985099","img/food2.png","76","308.20000000298023","3","0","","3","1","1,0.5,0,1,0.5,0,0.5,0,1","0.5,0,1,0.5,0,1,0,1,0.5","2",""
"","html-keyboard-response","297","99691","0.0-387.0","369J354OFEW336EBE692JLMIN6E6GN","A41APS6V2Z1FJ","3HUR21WDDUBEMSLDIXZW1FAIHVWXYO","","null","<img src=""img/food2.png"" style=""width:200px;border:14px solid red;"">","null","","","","","","","","","",""
"","image-keyboard-response","298","99789","0.0-388.0","369J354OFEW336EBE692JLMIN6E6GN","A41APS6V2Z1FJ","3HUR21WDDUBEMSLDIXZW1FAIHVWXYO","","97.29999999701977","img/food2.png","76","98.10000000149012","3","0","","3","1","1,0.5,0,1,0.5,0,0.5,0,1","0.5,0,1,0.5,0,1,0,1,0.5","2",""
"","html-keyboard-response","299","100091","0.0-389.0","369J354OFEW336EBE692JLMIN6E6GN","A41APS6V2Z1FJ","3HUR21WDDUBEMSLDIXZW1FAIHVWXYO","","null","<img src=""img/food2.png"" style=""width:200px;border:14px solid red;"">","null","","","","","","","","","",""
"","image-keyboard-response","300","100113","0.0-390.0","369J354OFEW336EBE692JLMIN6E6GN","A41APS6V2Z1FJ","3HUR21WDDUBEMSLDIXZW1FAIHVWXYO","","21.100000001490116","img/food2.png","75","21.799999997019768","2","1","","3","1","1,0.5,0,1,0.5,0,0.5,0,1","0.5,0,1,0.5,0,1,0,1,0.5","2",""
"","html-keyboard-response","301","100415","0.0-391.0","369J354OFEW336EBE692JLMIN6E6GN","A41APS6V2Z1FJ","3HUR21WDDUBEMSLDIXZW1FAIHVWXYO","","null","<img src=""img/food2.png"" style=""width:200px; border:14px solid green;"">","null","","","","","","","","","",""
"","image-keyboard-response","302","100619","0.0-392.0","369J354OFEW336EBE692JLMIN6E6GN","A41APS6V2Z1FJ","3HUR21WDDUBEMSLDIXZW1FAIHVWXYO","","198.30000000447035","img/food1.png","75","201.89999999850988","2","0","","1","1","1,0.5,0,1,0.5,0,0.5,0,1","0.5,0,1,0.5,0,1,0,1,0.5","2",""
"","html-keyboard-response","303","100920","0.0-393.0","369J354OFEW336EBE692JLMIN6E6GN","A41APS6V2Z1FJ","3HUR21WDDUBEMSLDIXZW1FAIHVWXYO","","null","<img src=""img/food1.png"" style=""width:200px;border:14px solid red;"">","null","","","","","","","","","",""
"","image-keyboard-response","304","101068","0.0-394.0","369J354OFEW336EBE692JLMIN6E6GN","A41APS6V2Z1FJ","3HUR21WDDUBEMSLDIXZW1FAIHVWXYO","","146.40000000596046","img/food2.png","75","147.19999999552965","2","1","","3","1","1,0.5,0,1,0.5,0,0.5,0,1","0.5,0,1,0.5,0,1,0,1,0.5","2",""
"","html-keyboard-response","305","101370","0.0-395.0","369J354OFEW336EBE692JLMIN6E6GN","A41APS6V2Z1FJ","3HUR21WDDUBEMSLDIXZW1FAIHVWXYO","","null","<img src=""img/food2.png"" style=""width:200px; border:14px solid green;"">","null","","","","","","","","","",""
"","image-keyboard-response","306","101463","0.0-396.0","369J354OFEW336EBE692JLMIN6E6GN","A41APS6V2Z1FJ","3HUR21WDDUBEMSLDIXZW1FAIHVWXYO","","91.79999999701977","img/food2.png","76","92.70000000298023","3","1","","3","1","1,0.5,0,1,0.5,0,0.5,0,1","0.5,0,1,0.5,0,1,0,1,0.5","2",""
"","html-keyboard-response","307","101764","0.0-397.0","369J354OFEW336EBE692JLMIN6E6GN","A41APS6V2Z1FJ","3HUR21WDDUBEMSLDIXZW1FAIHVWXYO","","null","<img src=""img/food2.png"" style=""width:200px; border:14px solid green;"">","null","","","","","","","","","",""
"","image-keyboard-response","308","101871","0.0-398.0","369J354OFEW336EBE692JLMIN6E6GN","A41APS6V2Z1FJ","3HUR21WDDUBEMSLDIXZW1FAIHVWXYO","","105.20000000298023","img/food1.png","76","106.10000000149012","3","1","","1","1","1,0.5,0,1,0.5,0,0.5,0,1","0.5,0,1,0.5,0,1,0,1,0.5","2",""
"","html-keyboard-response","309","102172","0.0-399.0","369J354OFEW336EBE692JLMIN6E6GN","A41APS6V2Z1FJ","3HUR21WDDUBEMSLDIXZW1FAIHVWXYO","","null","<img src=""img/food1.png"" style=""width:200px; border:14px solid green;"">","null","","","","","","","","","",""
"","image-keyboard-response","310","102304","0.0-400.0","369J354OFEW336EBE692JLMIN6E6GN","A41APS6V2Z1FJ","3HUR21WDDUBEMSLDIXZW1FAIHVWXYO","","130","img/food1.png","75","131","2","0","","1","1","1,0.5,0,1,0.5,0,0.5,0,1","0.5,0,1,0.5,0,1,0,1,0.5","2",""
"","html-keyboard-response","311","102605","0.0-401.0","369J354OFEW336EBE692JLMIN6E6GN","A41APS6V2Z1FJ","3HUR21WDDUBEMSLDIXZW1FAIHVWXYO","","null","<img src=""img/food1.png"" style=""width:200px;border:14px solid red;"">","null","","","","","","","","","",""
"","image-keyboard-response","312","102670","0.0-402.0","369J354OFEW336EBE692JLMIN6E6GN","A41APS6V2Z1FJ","3HUR21WDDUBEMSLDIXZW1FAIHVWXYO","","63.69999999552965","img/food2.png","75","64.40000000596046","2","1","","3","1","1,0.5,0,1,0.5,0,0.5,0,1","0.5,0,1,0.5,0,1,0,1,0.5","2",""
"","html-keyboard-response","313","102971","0.0-403.0","369J354OFEW336EBE692JLMIN6E6GN","A41APS6V2Z1FJ","3HUR21WDDUBEMSLDIXZW1FAIHVWXYO","","null","<img src=""img/food2.png"" style=""width:200px; border:14px solid green;"">","null","","","","","","","","","",""
"","image-keyboard-response","314","103016","0.0-404.0","369J354OFEW336EBE692JLMIN6E6GN","A41APS6V2Z1FJ","3HUR21WDDUBEMSLDIXZW1FAIHVWXYO","","43.5","img/food1.png","75","44.19999999552965","2","0","","1","1","1,0.5,0,1,0.5,0,0.5,0,1","0.5,0,1,0.5,0,1,0,1,0.5","2",""
"","html-keyboard-response","315","103318","0.0-405.0","369J354OFEW336EBE692JLMIN6E6GN","A41APS6V2Z1FJ","3HUR21WDDUBEMSLDIXZW1FAIHVWXYO","","null","<img src=""img/food1.png"" style=""width:200px;border:14px solid red;"">","null","","","","","","","","","",""
"","image-keyboard-response","316","103341","0.0-406.0","369J354OFEW336EBE692JLMIN6E6GN","A41APS6V2Z1FJ","3HUR21WDDUBEMSLDIXZW1FAIHVWXYO","","21.5","img/food5.png","75","22.399999998509884","2","0","","2","1","1,0.5,0,1,0.5,0,0.5,0,1","0.5,0,1,0.5,0,1,0,1,0.5","2",""
"","html-keyboard-response","317","103643","0.0-407.0","369J354OFEW336EBE692JLMIN6E6GN","A41APS6V2Z1FJ","3HUR21WDDUBEMSLDIXZW1FAIHVWXYO","","null","<img src=""img/food5.png"" style=""width:200px;border:14px solid red;"">","null","","","","","","","","","",""
"","image-keyboard-response","318","103693","0.0-408.0","369J354OFEW336EBE692JLMIN6E6GN","A41APS6V2Z1FJ","3HUR21WDDUBEMSLDIXZW1FAIHVWXYO","","48.80000000447035","img/food5.png","76","49.70000000298023","3","1","","2","1","1,0.5,0,1,0.5,0,0.5,0,1","0.5,0,1,0.5,0,1,0,1,0.5","2",""
"","html-keyboard-response","319","103995","0.0-409.0","369J354OFEW336EBE692JLMIN6E6GN","A41APS6V2Z1FJ","3HUR21WDDUBEMSLDIXZW1FAIHVWXYO","","null","<img src=""img/food5.png"" style=""width:200px; border:14px solid green;"">","null","","","","","","","","","",""
"","image-keyboard-response","320","104208","0.0-410.0","369J354OFEW336EBE692JLMIN6E6GN","A41APS6V2Z1FJ","3HUR21WDDUBEMSLDIXZW1FAIHVWXYO","","211.60000000149012","img/food1.png","76","212.29999999701977","3","1","","1","1","1,0.5,0,1,0.5,0,0.5,0,1","0.5,0,1,0.5,0,1,0,1,0.5","2",""
"","html-keyboard-response","321","104509","0.0-411.0","369J354OFEW336EBE692JLMIN6E6GN","A41APS6V2Z1FJ","3HUR21WDDUBEMSLDIXZW1FAIHVWXYO","","null","<img src=""img/food1.png"" style=""width:200px; border:14px solid green;"">","null","","","","","","","","","",""
"","image-keyboard-response","322","104689","0.0-412.0","369J354OFEW336EBE692JLMIN6E6GN","A41APS6V2Z1FJ","3HUR21WDDUBEMSLDIXZW1FAIHVWXYO","","178.30000000447035","img/food1.png","76","179.10000000149012","3","1","","1","1","1,0.5,0,1,0.5,0,0.5,0,1","0.5,0,1,0.5,0,1,0,1,0.5","2",""
"","html-keyboard-response","323","104990","0.0-413.0","369J354OFEW336EBE692JLMIN6E6GN","A41APS6V2Z1FJ","3HUR21WDDUBEMSLDIXZW1FAIHVWXYO","","null","<img src=""img/food1.png"" style=""width:200px; border:14px solid green;"">","null","","","","","","","","","",""
"","image-keyboard-response","324","105200","0.0-414.0","369J354OFEW336EBE692JLMIN6E6GN","A41APS6V2Z1FJ","3HUR21WDDUBEMSLDIXZW1FAIHVWXYO","","208.70000000298023","img/food1.png","76","209.5","3","1","","1","1","1,0.5,0,1,0.5,0,0.5,0,1","0.5,0,1,0.5,0,1,0,1,0.5","2",""
"","html-keyboard-response","325","105502","0.0-415.0","369J354OFEW336EBE692JLMIN6E6GN","A41APS6V2Z1FJ","3HUR21WDDUBEMSLDIXZW1FAIHVWXYO","","null","<img src=""img/food1.png"" style=""width:200px; border:14px solid green;"">","null","","","","","","","","","",""
"","image-keyboard-response","326","105715","0.0-416.0","369J354OFEW336EBE692JLMIN6E6GN","A41APS6V2Z1FJ","3HUR21WDDUBEMSLDIXZW1FAIHVWXYO","","209.20000000298023","img/food2.png","76","211.19999999552965","3","1","","3","1","1,0.5,0,1,0.5,0,0.5,0,1","0.5,0,1,0.5,0,1,0,1,0.5","2",""
"","html-keyboard-response","327","106016","0.0-417.0","369J354OFEW336EBE692JLMIN6E6GN","A41APS6V2Z1FJ","3HUR21WDDUBEMSLDIXZW1FAIHVWXYO","","null","<img src=""img/food2.png"" style=""width:200px; border:14px solid green;"">","null","","","","","","","","","",""
"","image-keyboard-response","328","106178","0.0-418.0","369J354OFEW336EBE692JLMIN6E6GN","A41APS6V2Z1FJ","3HUR21WDDUBEMSLDIXZW1FAIHVWXYO","","160.79999999701977","img/food1.png","76","161.89999999850988","3","1","","1","1","1,0.5,0,1,0.5,0,0.5,0,1","0.5,0,1,0.5,0,1,0,1,0.5","2",""
"","html-keyboard-response","329","106480","0.0-419.0","369J354OFEW336EBE692JLMIN6E6GN","A41APS6V2Z1FJ","3HUR21WDDUBEMSLDIXZW1FAIHVWXYO","","null","<img src=""img/food1.png"" style=""width:200px; border:14px solid green;"">","null","","","","","","","","","",""
"","image-keyboard-response","330","106587","0.0-420.0","369J354OFEW336EBE692JLMIN6E6GN","A41APS6V2Z1FJ","3HUR21WDDUBEMSLDIXZW1FAIHVWXYO","","105.39999999850988","img/food5.png","75","106.19999999552965","2","0","","2","1","1,0.5,0,1,0.5,0,0.5,0,1","0.5,0,1,0.5,0,1,0,1,0.5","2",""
"","html-keyboard-response","331","106889","0.0-421.0","369J354OFEW336EBE692JLMIN6E6GN","A41APS6V2Z1FJ","3HUR21WDDUBEMSLDIXZW1FAIHVWXYO","","null","<img src=""img/food5.png"" style=""width:200px;border:14px solid red;"">","null","","","","","","","","","",""
"","image-keyboard-response","332","106973","0.0-422.0","369J354OFEW336EBE692JLMIN6E6GN","A41APS6V2Z1FJ","3HUR21WDDUBEMSLDIXZW1FAIHVWXYO","","83.30000000447035","img/food5.png","75","84.10000000149012","2","0","","2","1","1,0.5,0,1,0.5,0,0.5,0,1","0.5,0,1,0.5,0,1,0,1,0.5","2",""
"","html-keyboard-response","333","107275","0.0-423.0","369J354OFEW336EBE692JLMIN6E6GN","A41APS6V2Z1FJ","3HUR21WDDUBEMSLDIXZW1FAIHVWXYO","","null","<img src=""img/food5.png"" style=""width:200px;border:14px solid red;"">","null","","","","","","","","","",""
"","image-keyboard-response","334","107386","0.0-424.0","369J354OFEW336EBE692JLMIN6E6GN","A41APS6V2Z1FJ","3HUR21WDDUBEMSLDIXZW1FAIHVWXYO","","109.80000000447035","img/food2.png","76","110.5","3","0","","3","1","1,0.5,0,1,0.5,0,0.5,0,1","0.5,0,1,0.5,0,1,0,1,0.5","2",""
"","html-keyboard-response","335","107687","0.0-425.0","369J354OFEW336EBE692JLMIN6E6GN","A41APS6V2Z1FJ","3HUR21WDDUBEMSLDIXZW1FAIHVWXYO","","null","<img src=""img/food2.png"" style=""width:200px;border:14px solid red;"">","null","","","","","","","","","",""
"","image-keyboard-response","336","107788","0.0-426.0","369J354OFEW336EBE692JLMIN6E6GN","A41APS6V2Z1FJ","3HUR21WDDUBEMSLDIXZW1FAIHVWXYO","","99.80000000447035","img/food2.png","76","100.70000000298023","3","1","","3","1","1,0.5,0,1,0.5,0,0.5,0,1","0.5,0,1,0.5,0,1,0,1,0.5","2",""
"","html-keyboard-response","337","108090","0.0-427.0","369J354OFEW336EBE692JLMIN6E6GN","A41APS6V2Z1FJ","3HUR21WDDUBEMSLDIXZW1FAIHVWXYO","","null","<img src=""img/food2.png"" style=""width:200px; border:14px solid green;"">","null","","","","","","","","","",""
"","image-keyboard-response","338","108218","0.0-428.0","369J354OFEW336EBE692JLMIN6E6GN","A41APS6V2Z1FJ","3HUR21WDDUBEMSLDIXZW1FAIHVWXYO","","123.5","img/food2.png","75","125.89999999850988","2","1","","3","1","1,0.5,0,1,0.5,0,0.5,0,1","0.5,0,1,0.5,0,1,0,1,0.5","2",""
"","html-keyboard-response","339","108519","0.0-429.0","369J354OFEW336EBE692JLMIN6E6GN","A41APS6V2Z1FJ","3HUR21WDDUBEMSLDIXZW1FAIHVWXYO","","null","<img src=""img/food2.png"" style=""width:200px; border:14px solid green;"">","null","","","","","","","","","",""
"","image-keyboard-response","340","108577","0.0-430.0","369J354OFEW336EBE692JLMIN6E6GN","A41APS6V2Z1FJ","3HUR21WDDUBEMSLDIXZW1FAIHVWXYO","","56.600000001490116","img/food2.png","75","57.399999998509884","2","1","","3","1","1,0.5,0,1,0.5,0,0.5,0,1","0.5,0,1,0.5,0,1,0,1,0.5","2",""
"","html-keyboard-response","341","108878","0.0-431.0","369J354OFEW336EBE692JLMIN6E6GN","A41APS6V2Z1FJ","3HUR21WDDUBEMSLDIXZW1FAIHVWXYO","","null","<img src=""img/food2.png"" style=""width:200px; border:14px solid green;"">","null","","","","","","","","","",""
"","image-keyboard-response","342","108935","0.0-432.0","369J354OFEW336EBE692JLMIN6E6GN","A41APS6V2Z1FJ","3HUR21WDDUBEMSLDIXZW1FAIHVWXYO","","55.30000000447035","img/food5.png","75","56","2","0","","2","1","1,0.5,0,1,0.5,0,0.5,0,1","0.5,0,1,0.5,0,1,0,1,0.5","2",""
"","html-keyboard-response","343","109237","0.0-433.0","369J354OFEW336EBE692JLMIN6E6GN","A41APS6V2Z1FJ","3HUR21WDDUBEMSLDIXZW1FAIHVWXYO","","null","<img src=""img/food5.png"" style=""width:200px;border:14px solid red;"">","null","","","","","","","","","",""
"","image-keyboard-response","344","109353","0.0-434.0","369J354OFEW336EBE692JLMIN6E6GN","A41APS6V2Z1FJ","3HUR21WDDUBEMSLDIXZW1FAIHVWXYO","","115","img/food2.png","76","115.80000000447035","3","1","","3","1","1,0.5,0,1,0.5,0,0.5,0,1","0.5,0,1,0.5,0,1,0,1,0.5","2",""
"","html-keyboard-response","345","109655","0.0-435.0","369J354OFEW336EBE692JLMIN6E6GN","A41APS6V2Z1FJ","3HUR21WDDUBEMSLDIXZW1FAIHVWXYO","","null","<img src=""img/food2.png"" style=""width:200px; border:14px solid green;"">","null","","","","","","","","","",""
"","image-keyboard-response","346","109928","0.0-436.0","369J354OFEW336EBE692JLMIN6E6GN","A41APS6V2Z1FJ","3HUR21WDDUBEMSLDIXZW1FAIHVWXYO","","269.20000000298023","img/food1.png","76","271.1000000014901","3","1","","1","1","1,0.5,0,1,0.5,0,0.5,0,1","0.5,0,1,0.5,0,1,0,1,0.5","2",""
"","html-keyboard-response","347","110230","0.0-437.0","369J354OFEW336EBE692JLMIN6E6GN","A41APS6V2Z1FJ","3HUR21WDDUBEMSLDIXZW1FAIHVWXYO","","null","<img src=""img/food1.png"" style=""width:200px; border:14px solid green;"">","null","","","","","","","","","",""
"","image-keyboard-response","348","110448","0.0-438.0","369J354OFEW336EBE692JLMIN6E6GN","A41APS6V2Z1FJ","3HUR21WDDUBEMSLDIXZW1FAIHVWXYO","","216.80000000447035","img/food1.png","75","217.80000000447035","2","0","","1","1","1,0.5,0,1,0.5,0,0.5,0,1","0.5,0,1,0.5,0,1,0,1,0.5","2",""
"","html-keyboard-response","349","110749","0.0-439.0","369J354OFEW336EBE692JLMIN6E6GN","A41APS6V2Z1FJ","3HUR21WDDUBEMSLDIXZW1FAIHVWXYO","","null","<img src=""img/food1.png"" style=""width:200px;border:14px solid red;"">","null","","","","","","","","","",""
"","image-keyboard-response","350","110860","0.0-440.0","369J354OFEW336EBE692JLMIN6E6GN","A41APS6V2Z1FJ","3HUR21WDDUBEMSLDIXZW1FAIHVWXYO","","109.10000000149012","img/food2.png","75","110","2","1","","3","1","1,0.5,0,1,0.5,0,0.5,0,1","0.5,0,1,0.5,0,1,0,1,0.5","2",""
"","html-keyboard-response","351","111162","0.0-441.0","369J354OFEW336EBE692JLMIN6E6GN","A41APS6V2Z1FJ","3HUR21WDDUBEMSLDIXZW1FAIHVWXYO","","null","<img src=""img/food2.png"" style=""width:200px; border:14px solid green;"">","null","","","","","","","","","",""
"","image-keyboard-response","352","111218","0.0-442.0","369J354OFEW336EBE692JLMIN6E6GN","A41APS6V2Z1FJ","3HUR21WDDUBEMSLDIXZW1FAIHVWXYO","","55.100000001490116","img/food5.png","75","55.79999999701977","2","0","","2","1","1,0.5,0,1,0.5,0,0.5,0,1","0.5,0,1,0.5,0,1,0,1,0.5","2",""
"","html-keyboard-response","353","111519","0.0-443.0","369J354OFEW336EBE692JLMIN6E6GN","A41APS6V2Z1FJ","3HUR21WDDUBEMSLDIXZW1FAIHVWXYO","","null","<img src=""img/food5.png"" style=""width:200px;border:14px solid red;"">","null","","","","","","","","","",""
"","image-keyboard-response","354","111529","0.0-444.0","369J354OFEW336EBE692JLMIN6E6GN","A41APS6V2Z1FJ","3HUR21WDDUBEMSLDIXZW1FAIHVWXYO","","8.600000001490116","img/food5.png","76","9.399999998509884","3","1","","2","1","1,0.5,0,1,0.5,0,0.5,0,1","0.5,0,1,0.5,0,1,0,1,0.5","2",""
"","html-keyboard-response","355","111830","0.0-445.0","369J354OFEW336EBE692JLMIN6E6GN","A41APS6V2Z1FJ","3HUR21WDDUBEMSLDIXZW1FAIHVWXYO","","null","<img src=""img/food5.png"" style=""width:200px; border:14px solid green;"">","null","","","","","","","","","",""
"","image-keyboard-response","356","111845","0.0-446.0","369J354OFEW336EBE692JLMIN6E6GN","A41APS6V2Z1FJ","3HUR21WDDUBEMSLDIXZW1FAIHVWXYO","","13.5","img/food2.png","76","14.300000004470348","3","0","","3","1","1,0.5,0,1,0.5,0,0.5,0,1","0.5,0,1,0.5,0,1,0,1,0.5","2",""
"","html-keyboard-response","357","112147","0.0-447.0","369J354OFEW336EBE692JLMIN6E6GN","A41APS6V2Z1FJ","3HUR21WDDUBEMSLDIXZW1FAIHVWXYO","","null","<img src=""img/food2.png"" style=""width:200px;border:14px solid red;"">","null","","","","","","","","","",""
"","image-keyboard-response","358","112431","0.0-448.0","369J354OFEW336EBE692JLMIN6E6GN","A41APS6V2Z1FJ","3HUR21WDDUBEMSLDIXZW1FAIHVWXYO","","283.8999999985099","img/food5.png","75","284.6000000014901","2","0","","2","1","1,0.5,0,1,0.5,0,0.5,0,1","0.5,0,1,0.5,0,1,0,1,0.5","2",""
"","html-keyboard-response","359","112733","0.0-449.0","369J354OFEW336EBE692JLMIN6E6GN","A41APS6V2Z1FJ","3HUR21WDDUBEMSLDIXZW1FAIHVWXYO","","null","<img src=""img/food5.png"" style=""width:200px;border:14px solid red;"">","null","","","","","","","","","",""
"","image-keyboard-response","360","112968","0.0-450.0","369J354OFEW336EBE692JLMIN6E6GN","A41APS6V2Z1FJ","3HUR21WDDUBEMSLDIXZW1FAIHVWXYO","","233.5","img/food5.png","75","234.19999999552965","2","0","","2","1","1,0.5,0,1,0.5,0,0.5,0,1","0.5,0,1,0.5,0,1,0,1,0.5","2",""
"","html-keyboard-response","361","113269","0.0-451.0","369J354OFEW336EBE692JLMIN6E6GN","A41APS6V2Z1FJ","3HUR21WDDUBEMSLDIXZW1FAIHVWXYO","","null","<img src=""img/food5.png"" style=""width:200px;border:14px solid red;"">","null","","","","","","","","","",""
"","image-keyboard-response","362","113343","0.0-452.0","369J354OFEW336EBE692JLMIN6E6GN","A41APS6V2Z1FJ","3HUR21WDDUBEMSLDIXZW1FAIHVWXYO","","72.80000000447035","img/food1.png","75","74.10000000149012","2","0","","1","1","1,0.5,0,1,0.5,0,0.5,0,1","0.5,0,1,0.5,0,1,0,1,0.5","2",""
"","html-keyboard-response","363","113645","0.0-453.0","369J354OFEW336EBE692JLMIN6E6GN","A41APS6V2Z1FJ","3HUR21WDDUBEMSLDIXZW1FAIHVWXYO","","null","<img src=""img/food1.png"" style=""width:200px;border:14px solid red;"">","null","","","","","","","","","",""
"","html-keyboard-response","364","117561","0.0-454.0","369J354OFEW336EBE692JLMIN6E6GN","A41APS6V2Z1FJ","3HUR21WDDUBEMSLDIXZW1FAIHVWXYO","","","","","","","","","","","","","",""
"","instructions","365","120796","0.0-455.0","369J354OFEW336EBE692JLMIN6E6GN","A41APS6V2Z1FJ","3HUR21WDDUBEMSLDIXZW1FAIHVWXYO","[{""page_index"":0,""viewing_time"":3234.2999999970198}]","3234.5","","","","","","","","","","","",""
"","survey-text","366","124789","0.0-456.0","369J354OFEW336EBE692JLMIN6E6GN","A41APS6V2Z1FJ","3HUR21WDDUBEMSLDIXZW1FAIHVWXYO","","3989.7000000029802","","","","","","","","","","","","{""Q0"":""A41APS6V2Z1FJ""}"
