"success","trial_type","trial_index","time_elapsed","internal_node_id","assignmentID","mturkID","hitID","view_history","rt","stimulus","key_press","reactionTime","a","r","warning","s","cond","reward_cond","reward_cond_actual","reward_matrix_idx","responses"
"true","fullscreen","0","6001","0.0-0.0","3Z9WI9EOZ0AO2HUB0GLLE43133XKHV","A50K26F2IS94U","3PIOQ99R7Y8STPN46QFY0SD7JTFNU0","","","","","","","","","","","","","",""
"","instructions","1","18112","0.0-1.0","3Z9WI9EOZ0AO2HUB0GLLE43133XKHV","A50K26F2IS94U","3PIOQ99R7Y8STPN46QFY0SD7JTFNU0","[{""page_index"":0,""viewing_time"":4701.70000000298},{""page_index"":1,""viewing_time"":431.70000000298023},{""page_index"":2,""viewing_time"":1792.5},{""page_index"":3,""viewing_time"":1751.9000000059605},{""page_index"":4,""viewing_time"":1272},{""page_index"":5,""viewing_time"":1291},{""page_index"":6,""viewing_time"":869.3999999910593}]","12110.40000000596","","","","","","","","","","","",""
"","instructions","2","29295","0.0-2.0","3Z9WI9EOZ0AO2HUB0GLLE43133XKHV","A50K26F2IS94U","3PIOQ99R7Y8STPN46QFY0SD7JTFNU0","[{""page_index"":0,""viewing_time"":9350.60000000894},{""page_index"":1,""viewing_time"":1832}]","11182.70000000298","","","","","","","","","","","",""
"","image-keyboard-response","3","29732","0.0-3.0","3Z9WI9EOZ0AO2HUB0GLLE43133XKHV","A50K26F2IS94U","3PIOQ99R7Y8STPN46QFY0SD7JTFNU0","","435.29999999701977","img/food6.png","74","436.1000000089407","1","0","false","2","2","1,0.5,0,1,0.5,0,0.5,0,1","0,1,0.5,0,1,0.5,1,0.5,0","3",""
"","html-keyboard-response","4","30034","0.0-4.0","3Z9WI9EOZ0AO2HUB0GLLE43133XKHV","A50K26F2IS94U","3PIOQ99R7Y8STPN46QFY0SD7JTFNU0","","null","<img src=""img/food6.png"" style=""width:200px;border:14px solid red;"">","null","","","","","","","","","",""
"","image-keyboard-response","5","30500","0.0-6.0","3Z9WI9EOZ0AO2HUB0GLLE43133XKHV","A50K26F2IS94U","3PIOQ99R7Y8STPN46QFY0SD7JTFNU0","","464.5","img/food6.png","74","465.1000000089407","1","0","false","2","2","1,0.5,0,1,0.5,0,0.5,0,1","0,1,0.5,0,1,0.5,1,0.5,0","3",""
"","html-keyboard-response","6","30801","0.0-7.0","3Z9WI9EOZ0AO2HUB0GLLE43133XKHV","A50K26F2IS94U","3PIOQ99R7Y8STPN46QFY0SD7JTFNU0","","null","<img src=""img/food6.png"" style=""width:200px;border:14px solid red;"">","null","","","","","","","","","",""
"","image-keyboard-response","7","31267","0.0-9.0","3Z9WI9EOZ0AO2HUB0GLLE43133XKHV","A50K26F2IS94U","3PIOQ99R7Y8STPN46QFY0SD7JTFNU0","","465.20000000298023","img/food5.png","74","465.70000000298023","1","0","false","1","2","1,0.5,0,1,0.5,0,0.5,0,1","0,1,0.5,0,1,0.5,1,0.5,0","3",""
"","html-keyboard-response","8","31570","0.0-10.0","3Z9WI9EOZ0AO2HUB0GLLE43133XKHV","A50K26F2IS94U","3PIOQ99R7Y8STPN46QFY0SD7JTFNU0","","null","<img src=""img/food5.png"" style=""width:200px;border:14px solid red;"">","null","","","","","","","","","",""
"","image-keyboard-response","9","31964","0.0-12.0","3Z9WI9EOZ0AO2HUB0GLLE43133XKHV","A50K26F2IS94U","3PIOQ99R7Y8STPN46QFY0SD7JTFNU0","","392.59999999403954","img/food5.png","74","393.5","1","0","false","1","2","1,0.5,0,1,0.5,0,0.5,0,1","0,1,0.5,0,1,0.5,1,0.5,0","3",""
"","html-keyboard-response","10","32265","0.0-13.0","3Z9WI9EOZ0AO2HUB0GLLE43133XKHV","A50K26F2IS94U","3PIOQ99R7Y8STPN46QFY0SD7JTFNU0","","null","<img src=""img/food5.png"" style=""width:200px;border:14px solid red;"">","null","","","","","","","","","",""
"","image-keyboard-response","11","32652","0.0-15.0","3Z9WI9EOZ0AO2HUB0GLLE43133XKHV","A50K26F2IS94U","3PIOQ99R7Y8STPN46QFY0SD7JTFNU0","","385.79999999701977","img/food6.png","74","386.5","1","0","false","2","2","1,0.5,0,1,0.5,0,0.5,0,1","0,1,0.5,0,1,0.5,1,0.5,0","3",""
"","html-keyboard-response","12","32953","0.0-16.0","3Z9WI9EOZ0AO2HUB0GLLE43133XKHV","A50K26F2IS94U","3PIOQ99R7Y8STPN46QFY0SD7JTFNU0","","null","<img src=""img/food6.png"" style=""width:200px;border:14px solid red;"">","null","","","","","","","","","",""
"","image-keyboard-response","13","33371","0.0-18.0","3Z9WI9EOZ0AO2HUB0GLLE43133XKHV","A50K26F2IS94U","3PIOQ99R7Y8STPN46QFY0SD7JTFNU0","","418.09999999403954","img/food2.png","74","418.5","1","1","false","3","2","1,0.5,0,1,0.5,0,0.5,0,1","0,1,0.5,0,1,0.5,1,0.5,0","3",""
"","html-keyboard-response","14","33673","0.0-19.0","3Z9WI9EOZ0AO2HUB0GLLE43133XKHV","A50K26F2IS94U","3PIOQ99R7Y8STPN46QFY0SD7JTFNU0","","null","<img src=""img/food2.png"" style=""width:200px; border:14px solid green;"">","null","","","","","","","","","",""
"","image-keyboard-response","15","34027","0.0-21.0","3Z9WI9EOZ0AO2HUB0GLLE43133XKHV","A50K26F2IS94U","3PIOQ99R7Y8STPN46QFY0SD7JTFNU0","","353.59999999403954","img/food6.png","74","354","1","0","false","2","2","1,0.5,0,1,0.5,0,0.5,0,1","0,1,0.5,0,1,0.5,1,0.5,0","3",""
"","html-keyboard-response","16","34329","0.0-22.0","3Z9WI9EOZ0AO2HUB0GLLE43133XKHV","A50K26F2IS94U","3PIOQ99R7Y8STPN46QFY0SD7JTFNU0","","null","<img src=""img/food6.png"" style=""width:200px;border:14px solid red;"">","null","","","","","","","","","",""
"","image-keyboard-response","17","34643","0.0-24.0","3Z9WI9EOZ0AO2HUB0GLLE43133XKHV","A50K26F2IS94U","3PIOQ99R7Y8STPN46QFY0SD7JTFNU0","","313.79999999701977","img/food2.png","74","314.29999999701977","1","1","false","3","2","1,0.5,0,1,0.5,0,0.5,0,1","0,1,0.5,0,1,0.5,1,0.5,0","3",""
"","html-keyboard-response","18","34946","0.0-25.0","3Z9WI9EOZ0AO2HUB0GLLE43133XKHV","A50K26F2IS94U","3PIOQ99R7Y8STPN46QFY0SD7JTFNU0","","null","<img src=""img/food2.png"" style=""width:200px; border:14px solid green;"">","null","","","","","","","","","",""
"","image-keyboard-response","19","35347","0.0-27.0","3Z9WI9EOZ0AO2HUB0GLLE43133XKHV","A50K26F2IS94U","3PIOQ99R7Y8STPN46QFY0SD7JTFNU0","","400.90000000596046","img/food2.png","74","401.40000000596046","1","1","false","3","2","1,0.5,0,1,0.5,0,0.5,0,1","0,1,0.5,0,1,0.5,1,0.5,0","3",""
"","html-keyboard-response","20","35649","0.0-28.0","3Z9WI9EOZ0AO2HUB0GLLE43133XKHV","A50K26F2IS94U","3PIOQ99R7Y8STPN46QFY0SD7JTFNU0","","null","<img src=""img/food2.png"" style=""width:200px; border:14px solid green;"">","null","","","","","","","","","",""
"","image-keyboard-response","21","35939","0.0-30.0","3Z9WI9EOZ0AO2HUB0GLLE43133XKHV","A50K26F2IS94U","3PIOQ99R7Y8STPN46QFY0SD7JTFNU0","","289.29999999701977","img/food5.png","74","289.90000000596046","1","0","false","1","2","1,0.5,0,1,0.5,0,0.5,0,1","0,1,0.5,0,1,0.5,1,0.5,0","3",""
"","html-keyboard-response","22","36241","0.0-31.0","3Z9WI9EOZ0AO2HUB0GLLE43133XKHV","A50K26F2IS94U","3PIOQ99R7Y8STPN46QFY0SD7JTFNU0","","null","<img src=""img/food5.png"" style=""width:200px;border:14px solid red;"">","null","","","","","","","","","",""
"","image-keyboard-response","23","36515","0.0-33.0","3Z9WI9EOZ0AO2HUB0GLLE43133XKHV","A50K26F2IS94U","3PIOQ99R7Y8STPN46QFY0SD7JTFNU0","","273.8999999910593","img/food6.png","74","274.30000001192093","1","0","false","2","2","1,0.5,0,1,0.5,0,0.5,0,1","0,1,0.5,0,1,0.5,1,0.5,0","3",""
"","html-keyboard-response","24","36817","0.0-34.0","3Z9WI9EOZ0AO2HUB0GLLE43133XKHV","A50K26F2IS94U","3PIOQ99R7Y8STPN46QFY0SD7JTFNU0","","null","<img src=""img/food6.png"" style=""width:200px;border:14px solid red;"">","null","","","","","","","","","",""
"","image-keyboard-response","25","37011","0.0-36.0","3Z9WI9EOZ0AO2HUB0GLLE43133XKHV","A50K26F2IS94U","3PIOQ99R7Y8STPN46QFY0SD7JTFNU0","","194.09999999403954","img/food6.png","75","194.5","2","1","false","2","2","1,0.5,0,1,0.5,0,0.5,0,1","0,1,0.5,0,1,0.5,1,0.5,0","3",""
"","html-keyboard-response","26","37313","0.0-37.0","3Z9WI9EOZ0AO2HUB0GLLE43133XKHV","A50K26F2IS94U","3PIOQ99R7Y8STPN46QFY0SD7JTFNU0","","null","<img src=""img/food6.png"" style=""width:200px; border:14px solid green;"">","null","","","","","","","","","",""
"","image-keyboard-response","27","37548","0.0-39.0","3Z9WI9EOZ0AO2HUB0GLLE43133XKHV","A50K26F2IS94U","3PIOQ99R7Y8STPN46QFY0SD7JTFNU0","","233.8999999910593","img/food6.png","75","234.3999999910593","2","1","false","2","2","1,0.5,0,1,0.5,0,0.5,0,1","0,1,0.5,0,1,0.5,1,0.5,0","3",""
"","html-keyboard-response","28","37849","0.0-40.0","3Z9WI9EOZ0AO2HUB0GLLE43133XKHV","A50K26F2IS94U","3PIOQ99R7Y8STPN46QFY0SD7JTFNU0","","null","<img src=""img/food6.png"" style=""width:200px; border:14px solid green;"">","null","","","","","","","","","",""
"","image-keyboard-response","29","38067","0.0-42.0","3Z9WI9EOZ0AO2HUB0GLLE43133XKHV","A50K26F2IS94U","3PIOQ99R7Y8STPN46QFY0SD7JTFNU0","","217.29999999701977","img/food5.png","75","217.70000000298023","2","1","false","1","2","1,0.5,0,1,0.5,0,0.5,0,1","0,1,0.5,0,1,0.5,1,0.5,0","3",""
"","html-keyboard-response","30","38369","0.0-43.0","3Z9WI9EOZ0AO2HUB0GLLE43133XKHV","A50K26F2IS94U","3PIOQ99R7Y8STPN46QFY0SD7JTFNU0","","null","<img src=""img/food5.png"" style=""width:200px; border:14px solid green;"">","null","","","","","","","","","",""
"","image-keyboard-response","31","38627","0.0-45.0","3Z9WI9EOZ0AO2HUB0GLLE43133XKHV","A50K26F2IS94U","3PIOQ99R7Y8STPN46QFY0SD7JTFNU0","","258.09999999403954","img/food2.png","75","258.69999998807907","2","0","false","3","2","1,0.5,0,1,0.5,0,0.5,0,1","0,1,0.5,0,1,0.5,1,0.5,0","3",""
"","html-keyboard-response","32","38929","0.0-46.0","3Z9WI9EOZ0AO2HUB0GLLE43133XKHV","A50K26F2IS94U","3PIOQ99R7Y8STPN46QFY0SD7JTFNU0","","null","<img src=""img/food2.png"" style=""width:200px;border:14px solid red;"">","null","","","","","","","","","",""
"","image-keyboard-response","33","39235","0.0-48.0","3Z9WI9EOZ0AO2HUB0GLLE43133XKHV","A50K26F2IS94U","3PIOQ99R7Y8STPN46QFY0SD7JTFNU0","","305.5","img/food2.png","75","305.8999999910593","2","0","false","3","2","1,0.5,0,1,0.5,0,0.5,0,1","0,1,0.5,0,1,0.5,1,0.5,0","3",""
"","html-keyboard-response","34","39536","0.0-49.0","3Z9WI9EOZ0AO2HUB0GLLE43133XKHV","A50K26F2IS94U","3PIOQ99R7Y8STPN46QFY0SD7JTFNU0","","null","<img src=""img/food2.png"" style=""width:200px;border:14px solid red;"">","null","","","","","","","","","",""
"","image-keyboard-response","35","39763","0.0-51.0","3Z9WI9EOZ0AO2HUB0GLLE43133XKHV","A50K26F2IS94U","3PIOQ99R7Y8STPN46QFY0SD7JTFNU0","","226.5","img/food5.png","75","227","2","1","false","1","2","1,0.5,0,1,0.5,0,0.5,0,1","0,1,0.5,0,1,0.5,1,0.5,0","3",""
"","html-keyboard-response","36","40066","0.0-52.0","3Z9WI9EOZ0AO2HUB0GLLE43133XKHV","A50K26F2IS94U","3PIOQ99R7Y8STPN46QFY0SD7JTFNU0","","null","<img src=""img/food5.png"" style=""width:200px; border:14px solid green;"">","null","","","","","","","","","",""
"","image-keyboard-response","37","40347","0.0-54.0","3Z9WI9EOZ0AO2HUB0GLLE43133XKHV","A50K26F2IS94U","3PIOQ99R7Y8STPN46QFY0SD7JTFNU0","","281.09999999403954","img/food6.png","75","281.5","2","1","false","2","2","1,0.5,0,1,0.5,0,0.5,0,1","0,1,0.5,0,1,0.5,1,0.5,0","3",""
"","html-keyboard-response","38","40648","0.0-55.0","3Z9WI9EOZ0AO2HUB0GLLE43133XKHV","A50K26F2IS94U","3PIOQ99R7Y8STPN46QFY0SD7JTFNU0","","null","<img src=""img/food6.png"" style=""width:200px; border:14px solid green;"">","null","","","","","","","","","",""
"","image-keyboard-response","39","41044","0.0-57.0","3Z9WI9EOZ0AO2HUB0GLLE43133XKHV","A50K26F2IS94U","3PIOQ99R7Y8STPN46QFY0SD7JTFNU0","","394.5","img/food6.png","75","394.8999999910593","2","1","false","2","2","1,0.5,0,1,0.5,0,0.5,0,1","0,1,0.5,0,1,0.5,1,0.5,0","3",""
"","html-keyboard-response","40","41345","0.0-58.0","3Z9WI9EOZ0AO2HUB0GLLE43133XKHV","A50K26F2IS94U","3PIOQ99R7Y8STPN46QFY0SD7JTFNU0","","null","<img src=""img/food6.png"" style=""width:200px; border:14px solid green;"">","null","","","","","","","","","",""
"","image-keyboard-response","41","41643","0.0-60.0","3Z9WI9EOZ0AO2HUB0GLLE43133XKHV","A50K26F2IS94U","3PIOQ99R7Y8STPN46QFY0SD7JTFNU0","","297.8999999910593","img/food2.png","75","298.5","2","0","false","3","2","1,0.5,0,1,0.5,0,0.5,0,1","0,1,0.5,0,1,0.5,1,0.5,0","3",""
"","html-keyboard-response","42","41945","0.0-61.0","3Z9WI9EOZ0AO2HUB0GLLE43133XKHV","A50K26F2IS94U","3PIOQ99R7Y8STPN46QFY0SD7JTFNU0","","null","<img src=""img/food2.png"" style=""width:200px;border:14px solid red;"">","null","","","","","","","","","",""
"","image-keyboard-response","43","42315","0.0-63.0","3Z9WI9EOZ0AO2HUB0GLLE43133XKHV","A50K26F2IS94U","3PIOQ99R7Y8STPN46QFY0SD7JTFNU0","","369.8999999910593","img/food2.png","75","370.30000001192093","2","1","false","3","2","1,0.5,0,1,0.5,0,0.5,0,1","0,1,0.5,0,1,0.5,1,0.5,0","3",""
"","html-keyboard-response","44","42616","0.0-64.0","3Z9WI9EOZ0AO2HUB0GLLE43133XKHV","A50K26F2IS94U","3PIOQ99R7Y8STPN46QFY0SD7JTFNU0","","null","<img src=""img/food2.png"" style=""width:200px; border:14px solid green;"">","null","","","","","","","","","",""
"","image-keyboard-response","45","42955","0.0-66.0","3Z9WI9EOZ0AO2HUB0GLLE43133XKHV","A50K26F2IS94U","3PIOQ99R7Y8STPN46QFY0SD7JTFNU0","","338.40000000596046","img/food2.png","75","338.70000000298023","2","1","false","3","2","1,0.5,0,1,0.5,0,0.5,0,1","0,1,0.5,0,1,0.5,1,0.5,0","3",""
"","html-keyboard-response","46","43257","0.0-67.0","3Z9WI9EOZ0AO2HUB0GLLE43133XKHV","A50K26F2IS94U","3PIOQ99R7Y8STPN46QFY0SD7JTFNU0","","null","<img src=""img/food2.png"" style=""width:200px; border:14px solid green;"">","null","","","","","","","","","",""
"","image-keyboard-response","47","43635","0.0-69.0","3Z9WI9EOZ0AO2HUB0GLLE43133XKHV","A50K26F2IS94U","3PIOQ99R7Y8STPN46QFY0SD7JTFNU0","","377.30000001192093","img/food5.png","75","377.70000000298023","2","1","false","1","2","1,0.5,0,1,0.5,0,0.5,0,1","0,1,0.5,0,1,0.5,1,0.5,0","3",""
"","html-keyboard-response","48","43938","0.0-70.0","3Z9WI9EOZ0AO2HUB0GLLE43133XKHV","A50K26F2IS94U","3PIOQ99R7Y8STPN46QFY0SD7JTFNU0","","null","<img src=""img/food5.png"" style=""width:200px; border:14px solid green;"">","null","","","","","","","","","",""
"","image-keyboard-response","49","44291","0.0-72.0","3Z9WI9EOZ0AO2HUB0GLLE43133XKHV","A50K26F2IS94U","3PIOQ99R7Y8STPN46QFY0SD7JTFNU0","","353","img/food6.png","75","353.5","2","1","false","2","2","1,0.5,0,1,0.5,0,0.5,0,1","0,1,0.5,0,1,0.5,1,0.5,0","3",""
"","html-keyboard-response","50","44592","0.0-73.0","3Z9WI9EOZ0AO2HUB0GLLE43133XKHV","A50K26F2IS94U","3PIOQ99R7Y8STPN46QFY0SD7JTFNU0","","null","<img src=""img/food6.png"" style=""width:200px; border:14px solid green;"">","null","","","","","","","","","",""
"","image-keyboard-response","51","44867","0.0-75.0","3Z9WI9EOZ0AO2HUB0GLLE43133XKHV","A50K26F2IS94U","3PIOQ99R7Y8STPN46QFY0SD7JTFNU0","","274.20000000298023","img/food6.png","75","274.59999999403954","2","1","false","2","2","1,0.5,0,1,0.5,0,0.5,0,1","0,1,0.5,0,1,0.5,1,0.5,0","3",""
"","html-keyboard-response","52","45170","0.0-76.0","3Z9WI9EOZ0AO2HUB0GLLE43133XKHV","A50K26F2IS94U","3PIOQ99R7Y8STPN46QFY0SD7JTFNU0","","null","<img src=""img/food6.png"" style=""width:200px; border:14px solid green;"">","null","","","","","","","","","",""
"","image-keyboard-response","53","45451","0.0-78.0","3Z9WI9EOZ0AO2HUB0GLLE43133XKHV","A50K26F2IS94U","3PIOQ99R7Y8STPN46QFY0SD7JTFNU0","","281.20000000298023","img/food6.png","75","281.69999998807907","2","1","false","2","2","1,0.5,0,1,0.5,0,0.5,0,1","0,1,0.5,0,1,0.5,1,0.5,0","3",""
"","html-keyboard-response","54","45753","0.0-79.0","3Z9WI9EOZ0AO2HUB0GLLE43133XKHV","A50K26F2IS94U","3PIOQ99R7Y8STPN46QFY0SD7JTFNU0","","null","<img src=""img/food6.png"" style=""width:200px; border:14px solid green;"">","null","","","","","","","","","",""
"","image-keyboard-response","55","45979","0.0-81.0","3Z9WI9EOZ0AO2HUB0GLLE43133XKHV","A50K26F2IS94U","3PIOQ99R7Y8STPN46QFY0SD7JTFNU0","","225.6000000089407","img/food6.png","75","226","2","1","false","2","2","1,0.5,0,1,0.5,0,0.5,0,1","0,1,0.5,0,1,0.5,1,0.5,0","3",""
"","html-keyboard-response","56","46282","0.0-82.0","3Z9WI9EOZ0AO2HUB0GLLE43133XKHV","A50K26F2IS94U","3PIOQ99R7Y8STPN46QFY0SD7JTFNU0","","null","<img src=""img/food6.png"" style=""width:200px; border:14px solid green;"">","null","","","","","","","","","",""
"","image-keyboard-response","57","46507","0.0-84.0","3Z9WI9EOZ0AO2HUB0GLLE43133XKHV","A50K26F2IS94U","3PIOQ99R7Y8STPN46QFY0SD7JTFNU0","","224.70000000298023","img/food5.png","75","225.09999999403954","2","1","false","1","2","1,0.5,0,1,0.5,0,0.5,0,1","0,1,0.5,0,1,0.5,1,0.5,0","3",""
"","html-keyboard-response","58","46821","0.0-85.0","3Z9WI9EOZ0AO2HUB0GLLE43133XKHV","A50K26F2IS94U","3PIOQ99R7Y8STPN46QFY0SD7JTFNU0","","null","<img src=""img/food5.png"" style=""width:200px; border:14px solid green;"">","null","","","","","","","","","",""
"","image-keyboard-response","59","47011","0.0-87.0","3Z9WI9EOZ0AO2HUB0GLLE43133XKHV","A50K26F2IS94U","3PIOQ99R7Y8STPN46QFY0SD7JTFNU0","","190","img/food2.png","75","190.5","2","0","false","3","2","1,0.5,0,1,0.5,0,0.5,0,1","0,1,0.5,0,1,0.5,1,0.5,0","3",""
"","html-keyboard-response","60","47314","0.0-88.0","3Z9WI9EOZ0AO2HUB0GLLE43133XKHV","A50K26F2IS94U","3PIOQ99R7Y8STPN46QFY0SD7JTFNU0","","null","<img src=""img/food2.png"" style=""width:200px;border:14px solid red;"">","null","","","","","","","","","",""
"","image-keyboard-response","61","47548","0.0-90.0","3Z9WI9EOZ0AO2HUB0GLLE43133XKHV","A50K26F2IS94U","3PIOQ99R7Y8STPN46QFY0SD7JTFNU0","","232.90000000596046","img/food2.png","75","233.29999999701977","2","1","false","3","2","1,0.5,0,1,0.5,0,0.5,0,1","0,1,0.5,0,1,0.5,1,0.5,0","3",""
"","html-keyboard-response","62","47850","0.0-91.0","3Z9WI9EOZ0AO2HUB0GLLE43133XKHV","A50K26F2IS94U","3PIOQ99R7Y8STPN46QFY0SD7JTFNU0","","null","<img src=""img/food2.png"" style=""width:200px; border:14px solid green;"">","null","","","","","","","","","",""
"","image-keyboard-response","63","48044","0.0-93.0","3Z9WI9EOZ0AO2HUB0GLLE43133XKHV","A50K26F2IS94U","3PIOQ99R7Y8STPN46QFY0SD7JTFNU0","","192.8999999910593","img/food2.png","75","193.3999999910593","2","1","false","3","2","1,0.5,0,1,0.5,0,0.5,0,1","0,1,0.5,0,1,0.5,1,0.5,0","3",""
"","html-keyboard-response","64","48345","0.0-94.0","3Z9WI9EOZ0AO2HUB0GLLE43133XKHV","A50K26F2IS94U","3PIOQ99R7Y8STPN46QFY0SD7JTFNU0","","null","<img src=""img/food2.png"" style=""width:200px; border:14px solid green;"">","null","","","","","","","","","",""
"","image-keyboard-response","65","48563","0.0-96.0","3Z9WI9EOZ0AO2HUB0GLLE43133XKHV","A50K26F2IS94U","3PIOQ99R7Y8STPN46QFY0SD7JTFNU0","","217.6000000089407","img/food6.png","75","217.90000000596046","2","1","false","2","2","1,0.5,0,1,0.5,0,0.5,0,1","0,1,0.5,0,1,0.5,1,0.5,0","3",""
"","html-keyboard-response","66","48865","0.0-97.0","3Z9WI9EOZ0AO2HUB0GLLE43133XKHV","A50K26F2IS94U","3PIOQ99R7Y8STPN46QFY0SD7JTFNU0","","null","<img src=""img/food6.png"" style=""width:200px; border:14px solid green;"">","null","","","","","","","","","",""
"","image-keyboard-response","67","49091","0.0-99.0","3Z9WI9EOZ0AO2HUB0GLLE43133XKHV","A50K26F2IS94U","3PIOQ99R7Y8STPN46QFY0SD7JTFNU0","","225.90000000596046","img/food5.png","75","226.20000000298023","2","1","false","1","2","1,0.5,0,1,0.5,0,0.5,0,1","0,1,0.5,0,1,0.5,1,0.5,0","3",""
"","html-keyboard-response","68","49393","0.0-100.0","3Z9WI9EOZ0AO2HUB0GLLE43133XKHV","A50K26F2IS94U","3PIOQ99R7Y8STPN46QFY0SD7JTFNU0","","null","<img src=""img/food5.png"" style=""width:200px; border:14px solid green;"">","null","","","","","","","","","",""
"","image-keyboard-response","69","49604","0.0-102.0","3Z9WI9EOZ0AO2HUB0GLLE43133XKHV","A50K26F2IS94U","3PIOQ99R7Y8STPN46QFY0SD7JTFNU0","","210.30000001192093","img/food5.png","75","210.69999998807907","2","1","false","1","2","1,0.5,0,1,0.5,0,0.5,0,1","0,1,0.5,0,1,0.5,1,0.5,0","3",""
"","html-keyboard-response","70","49906","0.0-103.0","3Z9WI9EOZ0AO2HUB0GLLE43133XKHV","A50K26F2IS94U","3PIOQ99R7Y8STPN46QFY0SD7JTFNU0","","null","<img src=""img/food5.png"" style=""width:200px; border:14px solid green;"">","null","","","","","","","","","",""
"","image-keyboard-response","71","50107","0.0-105.0","3Z9WI9EOZ0AO2HUB0GLLE43133XKHV","A50K26F2IS94U","3PIOQ99R7Y8STPN46QFY0SD7JTFNU0","","200.70000000298023","img/food2.png","75","201.20000000298023","2","0","false","3","2","1,0.5,0,1,0.5,0,0.5,0,1","0,1,0.5,0,1,0.5,1,0.5,0","3",""
"","html-keyboard-response","72","50410","0.0-106.0","3Z9WI9EOZ0AO2HUB0GLLE43133XKHV","A50K26F2IS94U","3PIOQ99R7Y8STPN46QFY0SD7JTFNU0","","null","<img src=""img/food2.png"" style=""width:200px;border:14px solid red;"">","null","","","","","","","","","",""
"","image-keyboard-response","73","50636","0.0-108.0","3Z9WI9EOZ0AO2HUB0GLLE43133XKHV","A50K26F2IS94U","3PIOQ99R7Y8STPN46QFY0SD7JTFNU0","","225.09999999403954","img/food5.png","75","225.5","2","1","false","1","2","1,0.5,0,1,0.5,0,0.5,0,1","0,1,0.5,0,1,0.5,1,0.5,0","3",""
"","html-keyboard-response","74","50937","0.0-109.0","3Z9WI9EOZ0AO2HUB0GLLE43133XKHV","A50K26F2IS94U","3PIOQ99R7Y8STPN46QFY0SD7JTFNU0","","null","<img src=""img/food5.png"" style=""width:200px; border:14px solid green;"">","null","","","","","","","","","",""
"","image-keyboard-response","75","51131","0.0-111.0","3Z9WI9EOZ0AO2HUB0GLLE43133XKHV","A50K26F2IS94U","3PIOQ99R7Y8STPN46QFY0SD7JTFNU0","","193.79999999701977","img/food6.png","75","194.20000000298023","2","1","false","2","2","1,0.5,0,1,0.5,0,0.5,0,1","0,1,0.5,0,1,0.5,1,0.5,0","3",""
"","html-keyboard-response","76","51433","0.0-112.0","3Z9WI9EOZ0AO2HUB0GLLE43133XKHV","A50K26F2IS94U","3PIOQ99R7Y8STPN46QFY0SD7JTFNU0","","null","<img src=""img/food6.png"" style=""width:200px; border:14px solid green;"">","null","","","","","","","","","",""
"","image-keyboard-response","77","51628","0.0-114.0","3Z9WI9EOZ0AO2HUB0GLLE43133XKHV","A50K26F2IS94U","3PIOQ99R7Y8STPN46QFY0SD7JTFNU0","","193.70000000298023","img/food5.png","75","194.20000000298023","2","1","false","1","2","1,0.5,0,1,0.5,0,0.5,0,1","0,1,0.5,0,1,0.5,1,0.5,0","3",""
"","html-keyboard-response","78","51930","0.0-115.0","3Z9WI9EOZ0AO2HUB0GLLE43133XKHV","A50K26F2IS94U","3PIOQ99R7Y8STPN46QFY0SD7JTFNU0","","null","<img src=""img/food5.png"" style=""width:200px; border:14px solid green;"">","null","","","","","","","","","",""
"","image-keyboard-response","79","52131","0.0-117.0","3Z9WI9EOZ0AO2HUB0GLLE43133XKHV","A50K26F2IS94U","3PIOQ99R7Y8STPN46QFY0SD7JTFNU0","","200.5","img/food2.png","75","200.90000000596046","2","0","false","3","2","1,0.5,0,1,0.5,0,0.5,0,1","0,1,0.5,0,1,0.5,1,0.5,0","3",""
"","html-keyboard-response","80","52433","0.0-118.0","3Z9WI9EOZ0AO2HUB0GLLE43133XKHV","A50K26F2IS94U","3PIOQ99R7Y8STPN46QFY0SD7JTFNU0","","null","<img src=""img/food2.png"" style=""width:200px;border:14px solid red;"">","null","","","","","","","","","",""
"","image-keyboard-response","81","52628","0.0-120.0","3Z9WI9EOZ0AO2HUB0GLLE43133XKHV","A50K26F2IS94U","3PIOQ99R7Y8STPN46QFY0SD7JTFNU0","","193.90000000596046","img/food2.png","75","194.40000000596046","2","0","false","3","2","1,0.5,0,1,0.5,0,0.5,0,1","0,1,0.5,0,1,0.5,1,0.5,0","3",""
"","html-keyboard-response","82","52929","0.0-121.0","3Z9WI9EOZ0AO2HUB0GLLE43133XKHV","A50K26F2IS94U","3PIOQ99R7Y8STPN46QFY0SD7JTFNU0","","null","<img src=""img/food2.png"" style=""width:200px;border:14px solid red;"">","null","","","","","","","","","",""
"","image-keyboard-response","83","53131","0.0-123.0","3Z9WI9EOZ0AO2HUB0GLLE43133XKHV","A50K26F2IS94U","3PIOQ99R7Y8STPN46QFY0SD7JTFNU0","","201.09999999403954","img/food6.png","75","201.70000000298023","2","1","false","2","2","1,0.5,0,1,0.5,0,0.5,0,1","0,1,0.5,0,1,0.5,1,0.5,0","3",""
"","html-keyboard-response","84","53432","0.0-124.0","3Z9WI9EOZ0AO2HUB0GLLE43133XKHV","A50K26F2IS94U","3PIOQ99R7Y8STPN46QFY0SD7JTFNU0","","null","<img src=""img/food6.png"" style=""width:200px; border:14px solid green;"">","null","","","","","","","","","",""
"","image-keyboard-response","85","53628","0.0-126.0","3Z9WI9EOZ0AO2HUB0GLLE43133XKHV","A50K26F2IS94U","3PIOQ99R7Y8STPN46QFY0SD7JTFNU0","","194.70000000298023","img/food2.png","75","195.40000000596046","2","1","false","3","2","1,0.5,0,1,0.5,0,0.5,0,1","0,1,0.5,0,1,0.5,1,0.5,0","3",""
"","html-keyboard-response","86","53930","0.0-127.0","3Z9WI9EOZ0AO2HUB0GLLE43133XKHV","A50K26F2IS94U","3PIOQ99R7Y8STPN46QFY0SD7JTFNU0","","null","<img src=""img/food2.png"" style=""width:200px; border:14px solid green;"">","null","","","","","","","","","",""
"","image-keyboard-response","87","54139","0.0-129.0","3Z9WI9EOZ0AO2HUB0GLLE43133XKHV","A50K26F2IS94U","3PIOQ99R7Y8STPN46QFY0SD7JTFNU0","","208.70000000298023","img/food6.png","75","209.09999999403954","2","1","false","2","2","1,0.5,0,1,0.5,0,0.5,0,1","0,1,0.5,0,1,0.5,1,0.5,0","3",""
"","html-keyboard-response","88","54441","0.0-130.0","3Z9WI9EOZ0AO2HUB0GLLE43133XKHV","A50K26F2IS94U","3PIOQ99R7Y8STPN46QFY0SD7JTFNU0","","null","<img src=""img/food6.png"" style=""width:200px; border:14px solid green;"">","null","","","","","","","","","",""
"","image-keyboard-response","89","54611","0.0-132.0","3Z9WI9EOZ0AO2HUB0GLLE43133XKHV","A50K26F2IS94U","3PIOQ99R7Y8STPN46QFY0SD7JTFNU0","","169.1000000089407","img/food5.png","75","169.6000000089407","2","1","false","1","2","1,0.5,0,1,0.5,0,0.5,0,1","0,1,0.5,0,1,0.5,1,0.5,0","3",""
"","html-keyboard-response","90","54913","0.0-133.0","3Z9WI9EOZ0AO2HUB0GLLE43133XKHV","A50K26F2IS94U","3PIOQ99R7Y8STPN46QFY0SD7JTFNU0","","null","<img src=""img/food5.png"" style=""width:200px; border:14px solid green;"">","null","","","","","","","","","",""
"","image-keyboard-response","91","55107","0.0-135.0","3Z9WI9EOZ0AO2HUB0GLLE43133XKHV","A50K26F2IS94U","3PIOQ99R7Y8STPN46QFY0SD7JTFNU0","","193.29999999701977","img/food2.png","75","193.79999999701977","2","0","false","3","2","1,0.5,0,1,0.5,0,0.5,0,1","0,1,0.5,0,1,0.5,1,0.5,0","3",""
"","html-keyboard-response","92","55409","0.0-136.0","3Z9WI9EOZ0AO2HUB0GLLE43133XKHV","A50K26F2IS94U","3PIOQ99R7Y8STPN46QFY0SD7JTFNU0","","null","<img src=""img/food2.png"" style=""width:200px;border:14px solid red;"">","null","","","","","","","","","",""
"","image-keyboard-response","93","55643","0.0-138.0","3Z9WI9EOZ0AO2HUB0GLLE43133XKHV","A50K26F2IS94U","3PIOQ99R7Y8STPN46QFY0SD7JTFNU0","","233.70000000298023","img/food5.png","75","234.29999999701977","2","1","false","1","2","1,0.5,0,1,0.5,0,0.5,0,1","0,1,0.5,0,1,0.5,1,0.5,0","3",""
"","html-keyboard-response","94","55946","0.0-139.0","3Z9WI9EOZ0AO2HUB0GLLE43133XKHV","A50K26F2IS94U","3PIOQ99R7Y8STPN46QFY0SD7JTFNU0","","null","<img src=""img/food5.png"" style=""width:200px; border:14px solid green;"">","null","","","","","","","","","",""
"","image-keyboard-response","95","56123","0.0-141.0","3Z9WI9EOZ0AO2HUB0GLLE43133XKHV","A50K26F2IS94U","3PIOQ99R7Y8STPN46QFY0SD7JTFNU0","","177","img/food6.png","75","177.40000000596046","2","1","false","2","2","1,0.5,0,1,0.5,0,0.5,0,1","0,1,0.5,0,1,0.5,1,0.5,0","3",""
"","html-keyboard-response","96","56425","0.0-142.0","3Z9WI9EOZ0AO2HUB0GLLE43133XKHV","A50K26F2IS94U","3PIOQ99R7Y8STPN46QFY0SD7JTFNU0","","null","<img src=""img/food6.png"" style=""width:200px; border:14px solid green;"">","null","","","","","","","","","",""
"","image-keyboard-response","97","56636","0.0-144.0","3Z9WI9EOZ0AO2HUB0GLLE43133XKHV","A50K26F2IS94U","3PIOQ99R7Y8STPN46QFY0SD7JTFNU0","","209.80000001192093","img/food5.png","75","210.40000000596046","2","1","false","1","2","1,0.5,0,1,0.5,0,0.5,0,1","0,1,0.5,0,1,0.5,1,0.5,0","3",""
"","html-keyboard-response","98","56938","0.0-145.0","3Z9WI9EOZ0AO2HUB0GLLE43133XKHV","A50K26F2IS94U","3PIOQ99R7Y8STPN46QFY0SD7JTFNU0","","null","<img src=""img/food5.png"" style=""width:200px; border:14px solid green;"">","null","","","","","","","","","",""
"","image-keyboard-response","99","57155","0.0-147.0","3Z9WI9EOZ0AO2HUB0GLLE43133XKHV","A50K26F2IS94U","3PIOQ99R7Y8STPN46QFY0SD7JTFNU0","","217","img/food5.png","75","217.5","2","1","false","1","2","1,0.5,0,1,0.5,0,0.5,0,1","0,1,0.5,0,1,0.5,1,0.5,0","3",""
"","html-keyboard-response","100","57457","0.0-148.0","3Z9WI9EOZ0AO2HUB0GLLE43133XKHV","A50K26F2IS94U","3PIOQ99R7Y8STPN46QFY0SD7JTFNU0","","null","<img src=""img/food5.png"" style=""width:200px; border:14px solid green;"">","null","","","","","","","","","",""
"","image-keyboard-response","101","57652","0.0-150.0","3Z9WI9EOZ0AO2HUB0GLLE43133XKHV","A50K26F2IS94U","3PIOQ99R7Y8STPN46QFY0SD7JTFNU0","","193.5","img/food2.png","75","194","2","0","false","3","2","1,0.5,0,1,0.5,0,0.5,0,1","0,1,0.5,0,1,0.5,1,0.5,0","3",""
"","html-keyboard-response","102","57954","0.0-151.0","3Z9WI9EOZ0AO2HUB0GLLE43133XKHV","A50K26F2IS94U","3PIOQ99R7Y8STPN46QFY0SD7JTFNU0","","null","<img src=""img/food2.png"" style=""width:200px;border:14px solid red;"">","null","","","","","","","","","",""
"","image-keyboard-response","103","58212","0.0-153.0","3Z9WI9EOZ0AO2HUB0GLLE43133XKHV","A50K26F2IS94U","3PIOQ99R7Y8STPN46QFY0SD7JTFNU0","","257.5","img/food6.png","75","257.79999999701977","2","1","false","2","2","1,0.5,0,1,0.5,0,0.5,0,1","0,1,0.5,0,1,0.5,1,0.5,0","3",""
"","html-keyboard-response","104","58513","0.0-154.0","3Z9WI9EOZ0AO2HUB0GLLE43133XKHV","A50K26F2IS94U","3PIOQ99R7Y8STPN46QFY0SD7JTFNU0","","null","<img src=""img/food6.png"" style=""width:200px; border:14px solid green;"">","null","","","","","","","","","",""
"","image-keyboard-response","105","58771","0.0-156.0","3Z9WI9EOZ0AO2HUB0GLLE43133XKHV","A50K26F2IS94U","3PIOQ99R7Y8STPN46QFY0SD7JTFNU0","","258.20000000298023","img/food2.png","75","258.59999999403954","2","0","false","3","2","1,0.5,0,1,0.5,0,0.5,0,1","0,1,0.5,0,1,0.5,1,0.5,0","3",""
"","html-keyboard-response","106","59072","0.0-157.0","3Z9WI9EOZ0AO2HUB0GLLE43133XKHV","A50K26F2IS94U","3PIOQ99R7Y8STPN46QFY0SD7JTFNU0","","null","<img src=""img/food2.png"" style=""width:200px;border:14px solid red;"">","null","","","","","","","","","",""
"","image-keyboard-response","107","59284","0.0-159.0","3Z9WI9EOZ0AO2HUB0GLLE43133XKHV","A50K26F2IS94U","3PIOQ99R7Y8STPN46QFY0SD7JTFNU0","","210.5","img/food6.png","75","211.09999999403954","2","1","false","2","2","1,0.5,0,1,0.5,0,0.5,0,1","0,1,0.5,0,1,0.5,1,0.5,0","3",""
"","html-keyboard-response","108","59590","0.0-160.0","3Z9WI9EOZ0AO2HUB0GLLE43133XKHV","A50K26F2IS94U","3PIOQ99R7Y8STPN46QFY0SD7JTFNU0","","null","<img src=""img/food6.png"" style=""width:200px; border:14px solid green;"">","null","","","","","","","","","",""
"","image-keyboard-response","109","59755","0.0-162.0","3Z9WI9EOZ0AO2HUB0GLLE43133XKHV","A50K26F2IS94U","3PIOQ99R7Y8STPN46QFY0SD7JTFNU0","","164.8999999910593","img/food5.png","75","165.29999999701977","2","1","false","1","2","1,0.5,0,1,0.5,0,0.5,0,1","0,1,0.5,0,1,0.5,1,0.5,0","3",""
"","html-keyboard-response","110","60057","0.0-163.0","3Z9WI9EOZ0AO2HUB0GLLE43133XKHV","A50K26F2IS94U","3PIOQ99R7Y8STPN46QFY0SD7JTFNU0","","null","<img src=""img/food5.png"" style=""width:200px; border:14px solid green;"">","null","","","","","","","","","",""
"","image-keyboard-response","111","60203","0.0-165.0","3Z9WI9EOZ0AO2HUB0GLLE43133XKHV","A50K26F2IS94U","3PIOQ99R7Y8STPN46QFY0SD7JTFNU0","","145.80000001192093","img/food5.png","75","146.20000000298023","2","1","false","1","2","1,0.5,0,1,0.5,0,0.5,0,1","0,1,0.5,0,1,0.5,1,0.5,0","3",""
"","html-keyboard-response","112","60505","0.0-166.0","3Z9WI9EOZ0AO2HUB0GLLE43133XKHV","A50K26F2IS94U","3PIOQ99R7Y8STPN46QFY0SD7JTFNU0","","null","<img src=""img/food5.png"" style=""width:200px; border:14px solid green;"">","null","","","","","","","","","",""
"","image-keyboard-response","113","60708","0.0-168.0","3Z9WI9EOZ0AO2HUB0GLLE43133XKHV","A50K26F2IS94U","3PIOQ99R7Y8STPN46QFY0SD7JTFNU0","","202","img/food5.png","75","202.59999999403954","2","1","false","1","2","1,0.5,0,1,0.5,0,0.5,0,1","0,1,0.5,0,1,0.5,1,0.5,0","3",""
"","html-keyboard-response","114","61010","0.0-169.0","3Z9WI9EOZ0AO2HUB0GLLE43133XKHV","A50K26F2IS94U","3PIOQ99R7Y8STPN46QFY0SD7JTFNU0","","null","<img src=""img/food5.png"" style=""width:200px; border:14px solid green;"">","null","","","","","","","","","",""
"","image-keyboard-response","115","61155","0.0-171.0","3Z9WI9EOZ0AO2HUB0GLLE43133XKHV","A50K26F2IS94U","3PIOQ99R7Y8STPN46QFY0SD7JTFNU0","","144.90000000596046","img/food2.png","75","145.29999999701977","2","1","false","3","2","1,0.5,0,1,0.5,0,0.5,0,1","0,1,0.5,0,1,0.5,1,0.5,0","3",""
"","html-keyboard-response","116","61467","0.0-172.0","3Z9WI9EOZ0AO2HUB0GLLE43133XKHV","A50K26F2IS94U","3PIOQ99R7Y8STPN46QFY0SD7JTFNU0","","null","<img src=""img/food2.png"" style=""width:200px; border:14px solid green;"">","null","","","","","","","","","",""
"","image-keyboard-response","117","61635","0.0-174.0","3Z9WI9EOZ0AO2HUB0GLLE43133XKHV","A50K26F2IS94U","3PIOQ99R7Y8STPN46QFY0SD7JTFNU0","","168","img/food2.png","75","168.29999999701977","2","1","false","3","2","1,0.5,0,1,0.5,0,0.5,0,1","0,1,0.5,0,1,0.5,1,0.5,0","3",""
"","html-keyboard-response","118","61937","0.0-175.0","3Z9WI9EOZ0AO2HUB0GLLE43133XKHV","A50K26F2IS94U","3PIOQ99R7Y8STPN46QFY0SD7JTFNU0","","null","<img src=""img/food2.png"" style=""width:200px; border:14px solid green;"">","null","","","","","","","","","",""
"","image-keyboard-response","119","62161","0.0-177.0","3Z9WI9EOZ0AO2HUB0GLLE43133XKHV","A50K26F2IS94U","3PIOQ99R7Y8STPN46QFY0SD7JTFNU0","","223.20000000298023","img/food6.png","75","223.70000000298023","2","1","false","2","2","1,0.5,0,1,0.5,0,0.5,0,1","0,1,0.5,0,1,0.5,1,0.5,0","3",""
"","html-keyboard-response","120","62462","0.0-178.0","3Z9WI9EOZ0AO2HUB0GLLE43133XKHV","A50K26F2IS94U","3PIOQ99R7Y8STPN46QFY0SD7JTFNU0","","null","<img src=""img/food6.png"" style=""width:200px; border:14px solid green;"">","null","","","","","","","","","",""
"","image-keyboard-response","121","62563","0.0-180.0","3Z9WI9EOZ0AO2HUB0GLLE43133XKHV","A50K26F2IS94U","3PIOQ99R7Y8STPN46QFY0SD7JTFNU0","","100.79999999701977","img/food5.png","75","101.1000000089407","2","1","false","1","2","1,0.5,0,1,0.5,0,0.5,0,1","0,1,0.5,0,1,0.5,1,0.5,0","3",""
"","html-keyboard-response","122","62875","0.0-181.0","3Z9WI9EOZ0AO2HUB0GLLE43133XKHV","A50K26F2IS94U","3PIOQ99R7Y8STPN46QFY0SD7JTFNU0","","null","<img src=""img/food5.png"" style=""width:200px; border:14px solid green;"">","null","","","","","","","","","",""
"","image-keyboard-response","123","63019","0.0-183.0","3Z9WI9EOZ0AO2HUB0GLLE43133XKHV","A50K26F2IS94U","3PIOQ99R7Y8STPN46QFY0SD7JTFNU0","","143","img/food5.png","75","143.5","2","1","false","1","2","1,0.5,0,1,0.5,0,0.5,0,1","0,1,0.5,0,1,0.5,1,0.5,0","3",""
"","html-keyboard-response","124","63321","0.0-184.0","3Z9WI9EOZ0AO2HUB0GLLE43133XKHV","A50K26F2IS94U","3PIOQ99R7Y8STPN46QFY0SD7JTFNU0","","null","<img src=""img/food5.png"" style=""width:200px; border:14px solid green;"">","null","","","","","","","","","",""
"","image-keyboard-response","125","63451","0.0-186.0","3Z9WI9EOZ0AO2HUB0GLLE43133XKHV","A50K26F2IS94U","3PIOQ99R7Y8STPN46QFY0SD7JTFNU0","","129.3999999910593","img/food6.png","75","129.80000001192093","2","1","false","2","2","1,0.5,0,1,0.5,0,0.5,0,1","0,1,0.5,0,1,0.5,1,0.5,0","3",""
"","html-keyboard-response","126","63752","0.0-187.0","3Z9WI9EOZ0AO2HUB0GLLE43133XKHV","A50K26F2IS94U","3PIOQ99R7Y8STPN46QFY0SD7JTFNU0","","null","<img src=""img/food6.png"" style=""width:200px; border:14px solid green;"">","null","","","","","","","","","",""
"","image-keyboard-response","127","63915","0.0-189.0","3Z9WI9EOZ0AO2HUB0GLLE43133XKHV","A50K26F2IS94U","3PIOQ99R7Y8STPN46QFY0SD7JTFNU0","","162.20000000298023","img/food6.png","75","162.59999999403954","2","1","false","2","2","1,0.5,0,1,0.5,0,0.5,0,1","0,1,0.5,0,1,0.5,1,0.5,0","3",""
"","html-keyboard-response","128","64218","0.0-190.0","3Z9WI9EOZ0AO2HUB0GLLE43133XKHV","A50K26F2IS94U","3PIOQ99R7Y8STPN46QFY0SD7JTFNU0","","null","<img src=""img/food6.png"" style=""width:200px; border:14px solid green;"">","null","","","","","","","","","",""
"","image-keyboard-response","129","64403","0.0-192.0","3Z9WI9EOZ0AO2HUB0GLLE43133XKHV","A50K26F2IS94U","3PIOQ99R7Y8STPN46QFY0SD7JTFNU0","","184.79999999701977","img/food5.png","75","185.20000000298023","2","1","false","1","2","1,0.5,0,1,0.5,0,0.5,0,1","0,1,0.5,0,1,0.5,1,0.5,0","3",""
"","html-keyboard-response","130","64705","0.0-193.0","3Z9WI9EOZ0AO2HUB0GLLE43133XKHV","A50K26F2IS94U","3PIOQ99R7Y8STPN46QFY0SD7JTFNU0","","null","<img src=""img/food5.png"" style=""width:200px; border:14px solid green;"">","null","","","","","","","","","",""
"","image-keyboard-response","131","64883","0.0-195.0","3Z9WI9EOZ0AO2HUB0GLLE43133XKHV","A50K26F2IS94U","3PIOQ99R7Y8STPN46QFY0SD7JTFNU0","","177.5","img/food2.png","75","178.09999999403954","2","0","false","3","2","1,0.5,0,1,0.5,0,0.5,0,1","0,1,0.5,0,1,0.5,1,0.5,0","3",""
"","html-keyboard-response","132","65187","0.0-196.0","3Z9WI9EOZ0AO2HUB0GLLE43133XKHV","A50K26F2IS94U","3PIOQ99R7Y8STPN46QFY0SD7JTFNU0","","null","<img src=""img/food2.png"" style=""width:200px;border:14px solid red;"">","null","","","","","","","","","",""
"","image-keyboard-response","133","65371","0.0-198.0","3Z9WI9EOZ0AO2HUB0GLLE43133XKHV","A50K26F2IS94U","3PIOQ99R7Y8STPN46QFY0SD7JTFNU0","","183.79999999701977","img/food2.png","75","184.20000000298023","2","0","false","3","2","1,0.5,0,1,0.5,0,0.5,0,1","0,1,0.5,0,1,0.5,1,0.5,0","3",""
"","html-keyboard-response","134","65680","0.0-199.0","3Z9WI9EOZ0AO2HUB0GLLE43133XKHV","A50K26F2IS94U","3PIOQ99R7Y8STPN46QFY0SD7JTFNU0","","null","<img src=""img/food2.png"" style=""width:200px;border:14px solid red;"">","null","","","","","","","","","",""
"","image-keyboard-response","135","65851","0.0-201.0","3Z9WI9EOZ0AO2HUB0GLLE43133XKHV","A50K26F2IS94U","3PIOQ99R7Y8STPN46QFY0SD7JTFNU0","","170.79999999701977","img/food2.png","75","171.29999999701977","2","0","false","3","2","1,0.5,0,1,0.5,0,0.5,0,1","0,1,0.5,0,1,0.5,1,0.5,0","3",""
"","html-keyboard-response","136","66152","0.0-202.0","3Z9WI9EOZ0AO2HUB0GLLE43133XKHV","A50K26F2IS94U","3PIOQ99R7Y8STPN46QFY0SD7JTFNU0","","null","<img src=""img/food2.png"" style=""width:200px;border:14px solid red;"">","null","","","","","","","","","",""
"","image-keyboard-response","137","66307","0.0-204.0","3Z9WI9EOZ0AO2HUB0GLLE43133XKHV","A50K26F2IS94U","3PIOQ99R7Y8STPN46QFY0SD7JTFNU0","","154.1000000089407","img/food5.png","75","154.5","2","1","false","1","2","1,0.5,0,1,0.5,0,0.5,0,1","0,1,0.5,0,1,0.5,1,0.5,0","3",""
"","html-keyboard-response","138","66610","0.0-205.0","3Z9WI9EOZ0AO2HUB0GLLE43133XKHV","A50K26F2IS94U","3PIOQ99R7Y8STPN46QFY0SD7JTFNU0","","null","<img src=""img/food5.png"" style=""width:200px; border:14px solid green;"">","null","","","","","","","","","",""
"","image-keyboard-response","139","66779","0.0-207.0","3Z9WI9EOZ0AO2HUB0GLLE43133XKHV","A50K26F2IS94U","3PIOQ99R7Y8STPN46QFY0SD7JTFNU0","","168.70000000298023","img/food6.png","75","169.5","2","1","false","2","2","1,0.5,0,1,0.5,0,0.5,0,1","0,1,0.5,0,1,0.5,1,0.5,0","3",""
"","html-keyboard-response","140","67080","0.0-208.0","3Z9WI9EOZ0AO2HUB0GLLE43133XKHV","A50K26F2IS94U","3PIOQ99R7Y8STPN46QFY0SD7JTFNU0","","null","<img src=""img/food6.png"" style=""width:200px; border:14px solid green;"">","null","","","","","","","","","",""
"","image-keyboard-response","141","67227","0.0-210.0","3Z9WI9EOZ0AO2HUB0GLLE43133XKHV","A50K26F2IS94U","3PIOQ99R7Y8STPN46QFY0SD7JTFNU0","","146.20000000298023","img/food2.png","75","146.59999999403954","2","0","false","3","2","1,0.5,0,1,0.5,0,0.5,0,1","0,1,0.5,0,1,0.5,1,0.5,0","3",""
"","html-keyboard-response","142","67528","0.0-211.0","3Z9WI9EOZ0AO2HUB0GLLE43133XKHV","A50K26F2IS94U","3PIOQ99R7Y8STPN46QFY0SD7JTFNU0","","null","<img src=""img/food2.png"" style=""width:200px;border:14px solid red;"">","null","","","","","","","","","",""
"","image-keyboard-response","143","67731","0.0-213.0","3Z9WI9EOZ0AO2HUB0GLLE43133XKHV","A50K26F2IS94U","3PIOQ99R7Y8STPN46QFY0SD7JTFNU0","","202.09999999403954","img/food6.png","75","202.6000000089407","2","1","false","2","2","1,0.5,0,1,0.5,0,0.5,0,1","0,1,0.5,0,1,0.5,1,0.5,0","3",""
"","html-keyboard-response","144","68032","0.0-214.0","3Z9WI9EOZ0AO2HUB0GLLE43133XKHV","A50K26F2IS94U","3PIOQ99R7Y8STPN46QFY0SD7JTFNU0","","null","<img src=""img/food6.png"" style=""width:200px; border:14px solid green;"">","null","","","","","","","","","",""
"","image-keyboard-response","145","68211","0.0-216.0","3Z9WI9EOZ0AO2HUB0GLLE43133XKHV","A50K26F2IS94U","3PIOQ99R7Y8STPN46QFY0SD7JTFNU0","","178.6000000089407","img/food5.png","75","179","2","1","false","1","2","1,0.5,0,1,0.5,0,0.5,0,1","0,1,0.5,0,1,0.5,1,0.5,0","3",""
"","html-keyboard-response","146","68513","0.0-217.0","3Z9WI9EOZ0AO2HUB0GLLE43133XKHV","A50K26F2IS94U","3PIOQ99R7Y8STPN46QFY0SD7JTFNU0","","null","<img src=""img/food5.png"" style=""width:200px; border:14px solid green;"">","null","","","","","","","","","",""
"","image-keyboard-response","147","68660","0.0-219.0","3Z9WI9EOZ0AO2HUB0GLLE43133XKHV","A50K26F2IS94U","3PIOQ99R7Y8STPN46QFY0SD7JTFNU0","","146.19999998807907","img/food2.png","75","146.70000000298023","2","0","false","3","2","1,0.5,0,1,0.5,0,0.5,0,1","0,1,0.5,0,1,0.5,1,0.5,0","3",""
"","html-keyboard-response","148","68961","0.0-220.0","3Z9WI9EOZ0AO2HUB0GLLE43133XKHV","A50K26F2IS94U","3PIOQ99R7Y8STPN46QFY0SD7JTFNU0","","null","<img src=""img/food2.png"" style=""width:200px;border:14px solid red;"">","null","","","","","","","","","",""
"","image-keyboard-response","149","69139","0.0-222.0","3Z9WI9EOZ0AO2HUB0GLLE43133XKHV","A50K26F2IS94U","3PIOQ99R7Y8STPN46QFY0SD7JTFNU0","","178","img/food6.png","75","178.5","2","1","false","2","2","1,0.5,0,1,0.5,0,0.5,0,1","0,1,0.5,0,1,0.5,1,0.5,0","3",""
"","html-keyboard-response","150","69441","0.0-223.0","3Z9WI9EOZ0AO2HUB0GLLE43133XKHV","A50K26F2IS94U","3PIOQ99R7Y8STPN46QFY0SD7JTFNU0","","null","<img src=""img/food6.png"" style=""width:200px; border:14px solid green;"">","null","","","","","","","","","",""
"","image-keyboard-response","151","69619","0.0-225.0","3Z9WI9EOZ0AO2HUB0GLLE43133XKHV","A50K26F2IS94U","3PIOQ99R7Y8STPN46QFY0SD7JTFNU0","","177.40000000596046","img/food2.png","75","177.79999999701977","2","0","false","3","2","1,0.5,0,1,0.5,0,0.5,0,1","0,1,0.5,0,1,0.5,1,0.5,0","3",""
"","html-keyboard-response","152","69921","0.0-226.0","3Z9WI9EOZ0AO2HUB0GLLE43133XKHV","A50K26F2IS94U","3PIOQ99R7Y8STPN46QFY0SD7JTFNU0","","null","<img src=""img/food2.png"" style=""width:200px;border:14px solid red;"">","null","","","","","","","","","",""
"","image-keyboard-response","153","70043","0.0-228.0","3Z9WI9EOZ0AO2HUB0GLLE43133XKHV","A50K26F2IS94U","3PIOQ99R7Y8STPN46QFY0SD7JTFNU0","","121.1000000089407","img/food5.png","75","121.5","2","1","false","1","2","1,0.5,0,1,0.5,0,0.5,0,1","0,1,0.5,0,1,0.5,1,0.5,0","3",""
"","html-keyboard-response","154","70345","0.0-229.0","3Z9WI9EOZ0AO2HUB0GLLE43133XKHV","A50K26F2IS94U","3PIOQ99R7Y8STPN46QFY0SD7JTFNU0","","null","<img src=""img/food5.png"" style=""width:200px; border:14px solid green;"">","null","","","","","","","","","",""
"","image-keyboard-response","155","70515","0.0-231.0","3Z9WI9EOZ0AO2HUB0GLLE43133XKHV","A50K26F2IS94U","3PIOQ99R7Y8STPN46QFY0SD7JTFNU0","","169.6000000089407","img/food2.png","75","170.1000000089407","2","1","false","3","2","1,0.5,0,1,0.5,0,0.5,0,1","0,1,0.5,0,1,0.5,1,0.5,0","3",""
"","html-keyboard-response","156","70816","0.0-232.0","3Z9WI9EOZ0AO2HUB0GLLE43133XKHV","A50K26F2IS94U","3PIOQ99R7Y8STPN46QFY0SD7JTFNU0","","null","<img src=""img/food2.png"" style=""width:200px; border:14px solid green;"">","null","","","","","","","","","",""
"","image-keyboard-response","157","71004","0.0-234.0","3Z9WI9EOZ0AO2HUB0GLLE43133XKHV","A50K26F2IS94U","3PIOQ99R7Y8STPN46QFY0SD7JTFNU0","","186.5","img/food6.png","75","187.09999999403954","2","1","false","2","2","1,0.5,0,1,0.5,0,0.5,0,1","0,1,0.5,0,1,0.5,1,0.5,0","3",""
"","html-keyboard-response","158","71309","0.0-235.0","3Z9WI9EOZ0AO2HUB0GLLE43133XKHV","A50K26F2IS94U","3PIOQ99R7Y8STPN46QFY0SD7JTFNU0","","null","<img src=""img/food6.png"" style=""width:200px; border:14px solid green;"">","null","","","","","","","","","",""
"","image-keyboard-response","159","71475","0.0-237.0","3Z9WI9EOZ0AO2HUB0GLLE43133XKHV","A50K26F2IS94U","3PIOQ99R7Y8STPN46QFY0SD7JTFNU0","","165.1000000089407","img/food6.png","75","165.5","2","1","false","2","2","1,0.5,0,1,0.5,0,0.5,0,1","0,1,0.5,0,1,0.5,1,0.5,0","3",""
"","html-keyboard-response","160","71777","0.0-238.0","3Z9WI9EOZ0AO2HUB0GLLE43133XKHV","A50K26F2IS94U","3PIOQ99R7Y8STPN46QFY0SD7JTFNU0","","null","<img src=""img/food6.png"" style=""width:200px; border:14px solid green;"">","null","","","","","","","","","",""
"","image-keyboard-response","161","71931","0.0-240.0","3Z9WI9EOZ0AO2HUB0GLLE43133XKHV","A50K26F2IS94U","3PIOQ99R7Y8STPN46QFY0SD7JTFNU0","","153","img/food2.png","75","153.5","2","1","false","3","2","1,0.5,0,1,0.5,0,0.5,0,1","0,1,0.5,0,1,0.5,1,0.5,0","3",""
"","html-keyboard-response","162","72233","0.0-241.0","3Z9WI9EOZ0AO2HUB0GLLE43133XKHV","A50K26F2IS94U","3PIOQ99R7Y8STPN46QFY0SD7JTFNU0","","null","<img src=""img/food2.png"" style=""width:200px; border:14px solid green;"">","null","","","","","","","","","",""
"","image-keyboard-response","163","72395","0.0-243.0","3Z9WI9EOZ0AO2HUB0GLLE43133XKHV","A50K26F2IS94U","3PIOQ99R7Y8STPN46QFY0SD7JTFNU0","","161.80000001192093","img/food5.png","75","162.09999999403954","2","1","false","1","2","1,0.5,0,1,0.5,0,0.5,0,1","0,1,0.5,0,1,0.5,1,0.5,0","3",""
"","html-keyboard-response","164","72697","0.0-244.0","3Z9WI9EOZ0AO2HUB0GLLE43133XKHV","A50K26F2IS94U","3PIOQ99R7Y8STPN46QFY0SD7JTFNU0","","null","<img src=""img/food5.png"" style=""width:200px; border:14px solid green;"">","null","","","","","","","","","",""
"","image-keyboard-response","165","72827","0.0-246.0","3Z9WI9EOZ0AO2HUB0GLLE43133XKHV","A50K26F2IS94U","3PIOQ99R7Y8STPN46QFY0SD7JTFNU0","","129.70000000298023","img/food5.png","75","130.20000000298023","2","1","false","1","2","1,0.5,0,1,0.5,0,0.5,0,1","0,1,0.5,0,1,0.5,1,0.5,0","3",""
"","html-keyboard-response","166","73129","0.0-247.0","3Z9WI9EOZ0AO2HUB0GLLE43133XKHV","A50K26F2IS94U","3PIOQ99R7Y8STPN46QFY0SD7JTFNU0","","null","<img src=""img/food5.png"" style=""width:200px; border:14px solid green;"">","null","","","","","","","","","",""
"","image-keyboard-response","167","73299","0.0-249.0","3Z9WI9EOZ0AO2HUB0GLLE43133XKHV","A50K26F2IS94U","3PIOQ99R7Y8STPN46QFY0SD7JTFNU0","","169.70000000298023","img/food5.png","75","170.20000000298023","2","1","false","1","2","1,0.5,0,1,0.5,0,0.5,0,1","0,1,0.5,0,1,0.5,1,0.5,0","3",""
"","html-keyboard-response","168","73601","0.0-250.0","3Z9WI9EOZ0AO2HUB0GLLE43133XKHV","A50K26F2IS94U","3PIOQ99R7Y8STPN46QFY0SD7JTFNU0","","null","<img src=""img/food5.png"" style=""width:200px; border:14px solid green;"">","null","","","","","","","","","",""
"","image-keyboard-response","169","73747","0.0-252.0","3Z9WI9EOZ0AO2HUB0GLLE43133XKHV","A50K26F2IS94U","3PIOQ99R7Y8STPN46QFY0SD7JTFNU0","","145.6000000089407","img/food5.png","75","146.09999999403954","2","1","false","1","2","1,0.5,0,1,0.5,0,0.5,0,1","0,1,0.5,0,1,0.5,1,0.5,0","3",""
"","html-keyboard-response","170","74049","0.0-253.0","3Z9WI9EOZ0AO2HUB0GLLE43133XKHV","A50K26F2IS94U","3PIOQ99R7Y8STPN46QFY0SD7JTFNU0","","null","<img src=""img/food5.png"" style=""width:200px; border:14px solid green;"">","null","","","","","","","","","",""
"","image-keyboard-response","171","74187","0.0-255.0","3Z9WI9EOZ0AO2HUB0GLLE43133XKHV","A50K26F2IS94U","3PIOQ99R7Y8STPN46QFY0SD7JTFNU0","","138","img/food5.png","75","138.40000000596046","2","1","false","1","2","1,0.5,0,1,0.5,0,0.5,0,1","0,1,0.5,0,1,0.5,1,0.5,0","3",""
"","html-keyboard-response","172","74489","0.0-256.0","3Z9WI9EOZ0AO2HUB0GLLE43133XKHV","A50K26F2IS94U","3PIOQ99R7Y8STPN46QFY0SD7JTFNU0","","null","<img src=""img/food5.png"" style=""width:200px; border:14px solid green;"">","null","","","","","","","","","",""
"","image-keyboard-response","173","74643","0.0-258.0","3Z9WI9EOZ0AO2HUB0GLLE43133XKHV","A50K26F2IS94U","3PIOQ99R7Y8STPN46QFY0SD7JTFNU0","","153.29999999701977","img/food6.png","75","153.90000000596046","2","1","false","2","2","1,0.5,0,1,0.5,0,0.5,0,1","0,1,0.5,0,1,0.5,1,0.5,0","3",""
"","html-keyboard-response","174","74944","0.0-259.0","3Z9WI9EOZ0AO2HUB0GLLE43133XKHV","A50K26F2IS94U","3PIOQ99R7Y8STPN46QFY0SD7JTFNU0","","null","<img src=""img/food6.png"" style=""width:200px; border:14px solid green;"">","null","","","","","","","","","",""
"","image-keyboard-response","175","75115","0.0-261.0","3Z9WI9EOZ0AO2HUB0GLLE43133XKHV","A50K26F2IS94U","3PIOQ99R7Y8STPN46QFY0SD7JTFNU0","","169.8999999910593","img/food6.png","75","170.29999999701977","2","1","false","2","2","1,0.5,0,1,0.5,0,0.5,0,1","0,1,0.5,0,1,0.5,1,0.5,0","3",""
"","html-keyboard-response","176","75416","0.0-262.0","3Z9WI9EOZ0AO2HUB0GLLE43133XKHV","A50K26F2IS94U","3PIOQ99R7Y8STPN46QFY0SD7JTFNU0","","null","<img src=""img/food6.png"" style=""width:200px; border:14px solid green;"">","null","","","","","","","","","",""
"","image-keyboard-response","177","75579","0.0-264.0","3Z9WI9EOZ0AO2HUB0GLLE43133XKHV","A50K26F2IS94U","3PIOQ99R7Y8STPN46QFY0SD7JTFNU0","","162.20000000298023","img/food2.png","75","162.79999999701977","2","0","false","3","2","1,0.5,0,1,0.5,0,0.5,0,1","0,1,0.5,0,1,0.5,1,0.5,0","3",""
"","html-keyboard-response","178","75880","0.0-265.0","3Z9WI9EOZ0AO2HUB0GLLE43133XKHV","A50K26F2IS94U","3PIOQ99R7Y8STPN46QFY0SD7JTFNU0","","null","<img src=""img/food2.png"" style=""width:200px;border:14px solid red;"">","null","","","","","","","","","",""
"","image-keyboard-response","179","76011","0.0-267.0","3Z9WI9EOZ0AO2HUB0GLLE43133XKHV","A50K26F2IS94U","3PIOQ99R7Y8STPN46QFY0SD7JTFNU0","","130.29999999701977","img/food2.png","75","130.59999999403954","2","1","false","3","2","1,0.5,0,1,0.5,0,0.5,0,1","0,1,0.5,0,1,0.5,1,0.5,0","3",""
"","html-keyboard-response","180","76314","0.0-268.0","3Z9WI9EOZ0AO2HUB0GLLE43133XKHV","A50K26F2IS94U","3PIOQ99R7Y8STPN46QFY0SD7JTFNU0","","null","<img src=""img/food2.png"" style=""width:200px; border:14px solid green;"">","null","","","","","","","","","",""
"","image-keyboard-response","181","76451","0.0-270.0","3Z9WI9EOZ0AO2HUB0GLLE43133XKHV","A50K26F2IS94U","3PIOQ99R7Y8STPN46QFY0SD7JTFNU0","","136.70000000298023","img/food5.png","75","137.1000000089407","2","1","false","1","2","1,0.5,0,1,0.5,0,0.5,0,1","0,1,0.5,0,1,0.5,1,0.5,0","3",""
"","html-keyboard-response","182","76753","0.0-271.0","3Z9WI9EOZ0AO2HUB0GLLE43133XKHV","A50K26F2IS94U","3PIOQ99R7Y8STPN46QFY0SD7JTFNU0","","null","<img src=""img/food5.png"" style=""width:200px; border:14px solid green;"">","null","","","","","","","","","",""
"","instructions","183","83268","0.0-273.0","3Z9WI9EOZ0AO2HUB0GLLE43133XKHV","A50K26F2IS94U","3PIOQ99R7Y8STPN46QFY0SD7JTFNU0","[{""page_index"":0,""viewing_time"":4893.5999999940395},{""page_index"":1,""viewing_time"":1621.2000000029802}]","6515.0999999940395","","","","","","","","","","","",""
"","image-keyboard-response","184","84051","0.0-274.0","3Z9WI9EOZ0AO2HUB0GLLE43133XKHV","A50K26F2IS94U","3PIOQ99R7Y8STPN46QFY0SD7JTFNU0","","782.2000000029802","img/food3.png","75","782.7999999970198","2","1","","1","1","1,0.5,0,1,0.5,0,0.5,0,1","0,1,0.5,0,1,0.5,1,0.5,0","3",""
"","html-keyboard-response","185","84353","0.0-275.0","3Z9WI9EOZ0AO2HUB0GLLE43133XKHV","A50K26F2IS94U","3PIOQ99R7Y8STPN46QFY0SD7JTFNU0","","null","<img src=""img/food3.png"" style=""width:200px; border:14px solid green;"">","null","","","","","","","","","",""
"","image-keyboard-response","186","84427","0.0-276.0","3Z9WI9EOZ0AO2HUB0GLLE43133XKHV","A50K26F2IS94U","3PIOQ99R7Y8STPN46QFY0SD7JTFNU0","","73.8999999910593","img/food1.png","75","74.3999999910593","2","1","","2","1","1,0.5,0,1,0.5,0,0.5,0,1","0,1,0.5,0,1,0.5,1,0.5,0","3",""
"","html-keyboard-response","187","84730","0.0-277.0","3Z9WI9EOZ0AO2HUB0GLLE43133XKHV","A50K26F2IS94U","3PIOQ99R7Y8STPN46QFY0SD7JTFNU0","","null","<img src=""img/food1.png"" style=""width:200px; border:14px solid green;"">","null","","","","","","","","","",""
"","image-keyboard-response","188","84867","0.0-278.0","3Z9WI9EOZ0AO2HUB0GLLE43133XKHV","A50K26F2IS94U","3PIOQ99R7Y8STPN46QFY0SD7JTFNU0","","136.79999999701977","img/food3.png","75","137.5","2","1","","1","1","1,0.5,0,1,0.5,0,0.5,0,1","0,1,0.5,0,1,0.5,1,0.5,0","3",""
"","html-keyboard-response","189","85169","0.0-279.0","3Z9WI9EOZ0AO2HUB0GLLE43133XKHV","A50K26F2IS94U","3PIOQ99R7Y8STPN46QFY0SD7JTFNU0","","null","<img src=""img/food3.png"" style=""width:200px; border:14px solid green;"">","null","","","","","","","","","",""
"","image-keyboard-response","190","85331","0.0-280.0","3Z9WI9EOZ0AO2HUB0GLLE43133XKHV","A50K26F2IS94U","3PIOQ99R7Y8STPN46QFY0SD7JTFNU0","","161.40000000596046","img/food4.png","75","162.20000000298023","2","1","","3","1","1,0.5,0,1,0.5,0,0.5,0,1","0,1,0.5,0,1,0.5,1,0.5,0","3",""
"","html-keyboard-response","191","85634","0.0-281.0","3Z9WI9EOZ0AO2HUB0GLLE43133XKHV","A50K26F2IS94U","3PIOQ99R7Y8STPN46QFY0SD7JTFNU0","","null","<img src=""img/food4.png"" style=""width:200px; border:14px solid green;"">","null","","","","","","","","","",""
"","image-keyboard-response","192","85795","0.0-282.0","3Z9WI9EOZ0AO2HUB0GLLE43133XKHV","A50K26F2IS94U","3PIOQ99R7Y8STPN46QFY0SD7JTFNU0","","161","img/food4.png","75","161.5","2","1","","3","1","1,0.5,0,1,0.5,0,0.5,0,1","0,1,0.5,0,1,0.5,1,0.5,0","3",""
"","html-keyboard-response","193","86097","0.0-283.0","3Z9WI9EOZ0AO2HUB0GLLE43133XKHV","A50K26F2IS94U","3PIOQ99R7Y8STPN46QFY0SD7JTFNU0","","null","<img src=""img/food4.png"" style=""width:200px; border:14px solid green;"">","null","","","","","","","","","",""
"","image-keyboard-response","194","86251","0.0-284.0","3Z9WI9EOZ0AO2HUB0GLLE43133XKHV","A50K26F2IS94U","3PIOQ99R7Y8STPN46QFY0SD7JTFNU0","","153.90000000596046","img/food1.png","75","154.29999999701977","2","1","","2","1","1,0.5,0,1,0.5,0,0.5,0,1","0,1,0.5,0,1,0.5,1,0.5,0","3",""
"","html-keyboard-response","195","86554","0.0-285.0","3Z9WI9EOZ0AO2HUB0GLLE43133XKHV","A50K26F2IS94U","3PIOQ99R7Y8STPN46QFY0SD7JTFNU0","","null","<img src=""img/food1.png"" style=""width:200px; border:14px solid green;"">","null","","","","","","","","","",""
"","image-keyboard-response","196","86747","0.0-286.0","3Z9WI9EOZ0AO2HUB0GLLE43133XKHV","A50K26F2IS94U","3PIOQ99R7Y8STPN46QFY0SD7JTFNU0","","193","img/food3.png","75","193.40000000596046","2","1","","1","1","1,0.5,0,1,0.5,0,0.5,0,1","0,1,0.5,0,1,0.5,1,0.5,0","3",""
"","html-keyboard-response","197","87048","0.0-287.0","3Z9WI9EOZ0AO2HUB0GLLE43133XKHV","A50K26F2IS94U","3PIOQ99R7Y8STPN46QFY0SD7JTFNU0","","null","<img src=""img/food3.png"" style=""width:200px; border:14px solid green;"">","null","","","","","","","","","",""
"","image-keyboard-response","198","87252","0.0-288.0","3Z9WI9EOZ0AO2HUB0GLLE43133XKHV","A50K26F2IS94U","3PIOQ99R7Y8STPN46QFY0SD7JTFNU0","","203","img/food3.png","75","203.5","2","1","","1","1","1,0.5,0,1,0.5,0,0.5,0,1","0,1,0.5,0,1,0.5,1,0.5,0","3",""
"","html-keyboard-response","199","87554","0.0-289.0","3Z9WI9EOZ0AO2HUB0GLLE43133XKHV","A50K26F2IS94U","3PIOQ99R7Y8STPN46QFY0SD7JTFNU0","","null","<img src=""img/food3.png"" style=""width:200px; border:14px solid green;"">","null","","","","","","","","","",""
"","image-keyboard-response","200","87699","0.0-290.0","3Z9WI9EOZ0AO2HUB0GLLE43133XKHV","A50K26F2IS94U","3PIOQ99R7Y8STPN46QFY0SD7JTFNU0","","144.09999999403954","img/food1.png","75","144.59999999403954","2","1","","2","1","1,0.5,0,1,0.5,0,0.5,0,1","0,1,0.5,0,1,0.5,1,0.5,0","3",""
"","html-keyboard-response","201","88001","0.0-291.0","3Z9WI9EOZ0AO2HUB0GLLE43133XKHV","A50K26F2IS94U","3PIOQ99R7Y8STPN46QFY0SD7JTFNU0","","null","<img src=""img/food1.png"" style=""width:200px; border:14px solid green;"">","null","","","","","","","","","",""
"","image-keyboard-response","202","88155","0.0-292.0","3Z9WI9EOZ0AO2HUB0GLLE43133XKHV","A50K26F2IS94U","3PIOQ99R7Y8STPN46QFY0SD7JTFNU0","","154.20000000298023","img/food1.png","75","154.70000000298023","2","1","","2","1","1,0.5,0,1,0.5,0,0.5,0,1","0,1,0.5,0,1,0.5,1,0.5,0","3",""
"","html-keyboard-response","203","88456","0.0-293.0","3Z9WI9EOZ0AO2HUB0GLLE43133XKHV","A50K26F2IS94U","3PIOQ99R7Y8STPN46QFY0SD7JTFNU0","","null","<img src=""img/food1.png"" style=""width:200px; border:14px solid green;"">","null","","","","","","","","","",""
"","image-keyboard-response","204","88579","0.0-294.0","3Z9WI9EOZ0AO2HUB0GLLE43133XKHV","A50K26F2IS94U","3PIOQ99R7Y8STPN46QFY0SD7JTFNU0","","122","img/food3.png","75","122.59999999403954","2","1","","1","1","1,0.5,0,1,0.5,0,0.5,0,1","0,1,0.5,0,1,0.5,1,0.5,0","3",""
"","html-keyboard-response","205","88882","0.0-295.0","3Z9WI9EOZ0AO2HUB0GLLE43133XKHV","A50K26F2IS94U","3PIOQ99R7Y8STPN46QFY0SD7JTFNU0","","null","<img src=""img/food3.png"" style=""width:200px; border:14px solid green;"">","null","","","","","","","","","",""
"","image-keyboard-response","206","89067","0.0-296.0","3Z9WI9EOZ0AO2HUB0GLLE43133XKHV","A50K26F2IS94U","3PIOQ99R7Y8STPN46QFY0SD7JTFNU0","","185","img/food1.png","75","185.70000000298023","2","1","","2","1","1,0.5,0,1,0.5,0,0.5,0,1","0,1,0.5,0,1,0.5,1,0.5,0","3",""
"","html-keyboard-response","207","89368","0.0-297.0","3Z9WI9EOZ0AO2HUB0GLLE43133XKHV","A50K26F2IS94U","3PIOQ99R7Y8STPN46QFY0SD7JTFNU0","","null","<img src=""img/food1.png"" style=""width:200px; border:14px solid green;"">","null","","","","","","","","","",""
"","image-keyboard-response","208","89539","0.0-298.0","3Z9WI9EOZ0AO2HUB0GLLE43133XKHV","A50K26F2IS94U","3PIOQ99R7Y8STPN46QFY0SD7JTFNU0","","170.29999999701977","img/food1.png","75","170.90000000596046","2","1","","2","1","1,0.5,0,1,0.5,0,0.5,0,1","0,1,0.5,0,1,0.5,1,0.5,0","3",""
"","html-keyboard-response","209","89841","0.0-299.0","3Z9WI9EOZ0AO2HUB0GLLE43133XKHV","A50K26F2IS94U","3PIOQ99R7Y8STPN46QFY0SD7JTFNU0","","null","<img src=""img/food1.png"" style=""width:200px; border:14px solid green;"">","null","","","","","","","","","",""
"","image-keyboard-response","210","90019","0.0-300.0","3Z9WI9EOZ0AO2HUB0GLLE43133XKHV","A50K26F2IS94U","3PIOQ99R7Y8STPN46QFY0SD7JTFNU0","","177.80000001192093","img/food1.png","75","178.3999999910593","2","1","","2","1","1,0.5,0,1,0.5,0,0.5,0,1","0,1,0.5,0,1,0.5,1,0.5,0","3",""
"","html-keyboard-response","211","90322","0.0-301.0","3Z9WI9EOZ0AO2HUB0GLLE43133XKHV","A50K26F2IS94U","3PIOQ99R7Y8STPN46QFY0SD7JTFNU0","","null","<img src=""img/food1.png"" style=""width:200px; border:14px solid green;"">","null","","","","","","","","","",""
"","image-keyboard-response","212","90491","0.0-302.0","3Z9WI9EOZ0AO2HUB0GLLE43133XKHV","A50K26F2IS94U","3PIOQ99R7Y8STPN46QFY0SD7JTFNU0","","168.5","img/food1.png","75","169","2","1","","2","1","1,0.5,0,1,0.5,0,0.5,0,1","0,1,0.5,0,1,0.5,1,0.5,0","3",""
"","html-keyboard-response","213","90794","0.0-303.0","3Z9WI9EOZ0AO2HUB0GLLE43133XKHV","A50K26F2IS94U","3PIOQ99R7Y8STPN46QFY0SD7JTFNU0","","null","<img src=""img/food1.png"" style=""width:200px; border:14px solid green;"">","null","","","","","","","","","",""
"","image-keyboard-response","214","90915","0.0-304.0","3Z9WI9EOZ0AO2HUB0GLLE43133XKHV","A50K26F2IS94U","3PIOQ99R7Y8STPN46QFY0SD7JTFNU0","","120.90000000596046","img/food3.png","75","121.40000000596046","2","1","","1","1","1,0.5,0,1,0.5,0,0.5,0,1","0,1,0.5,0,1,0.5,1,0.5,0","3",""
"","html-keyboard-response","215","91216","0.0-305.0","3Z9WI9EOZ0AO2HUB0GLLE43133XKHV","A50K26F2IS94U","3PIOQ99R7Y8STPN46QFY0SD7JTFNU0","","null","<img src=""img/food3.png"" style=""width:200px; border:14px solid green;"">","null","","","","","","","","","",""
"","image-keyboard-response","216","91395","0.0-306.0","3Z9WI9EOZ0AO2HUB0GLLE43133XKHV","A50K26F2IS94U","3PIOQ99R7Y8STPN46QFY0SD7JTFNU0","","178.5","img/food3.png","75","179","2","1","","1","1","1,0.5,0,1,0.5,0,0.5,0,1","0,1,0.5,0,1,0.5,1,0.5,0","3",""
"","html-keyboard-response","217","91705","0.0-307.0","3Z9WI9EOZ0AO2HUB0GLLE43133XKHV","A50K26F2IS94U","3PIOQ99R7Y8STPN46QFY0SD7JTFNU0","","null","<img src=""img/food3.png"" style=""width:200px; border:14px solid green;"">","null","","","","","","","","","",""
"","image-keyboard-response","218","91867","0.0-308.0","3Z9WI9EOZ0AO2HUB0GLLE43133XKHV","A50K26F2IS94U","3PIOQ99R7Y8STPN46QFY0SD7JTFNU0","","161.59999999403954","img/food4.png","75","162.09999999403954","2","1","","3","1","1,0.5,0,1,0.5,0,0.5,0,1","0,1,0.5,0,1,0.5,1,0.5,0","3",""
"","html-keyboard-response","219","92168","0.0-309.0","3Z9WI9EOZ0AO2HUB0GLLE43133XKHV","A50K26F2IS94U","3PIOQ99R7Y8STPN46QFY0SD7JTFNU0","","null","<img src=""img/food4.png"" style=""width:200px; border:14px solid green;"">","null","","","","","","","","","",""
"","image-keyboard-response","220","92315","0.0-310.0","3Z9WI9EOZ0AO2HUB0GLLE43133XKHV","A50K26F2IS94U","3PIOQ99R7Y8STPN46QFY0SD7JTFNU0","","146.29999999701977","img/food4.png","75","146.70000000298023","2","1","","3","1","1,0.5,0,1,0.5,0,0.5,0,1","0,1,0.5,0,1,0.5,1,0.5,0","3",""
"","html-keyboard-response","221","92617","0.0-311.0","3Z9WI9EOZ0AO2HUB0GLLE43133XKHV","A50K26F2IS94U","3PIOQ99R7Y8STPN46QFY0SD7JTFNU0","","null","<img src=""img/food4.png"" style=""width:200px; border:14px solid green;"">","null","","","","","","","","","",""
"","image-keyboard-response","222","92803","0.0-312.0","3Z9WI9EOZ0AO2HUB0GLLE43133XKHV","A50K26F2IS94U","3PIOQ99R7Y8STPN46QFY0SD7JTFNU0","","186","img/food3.png","75","186.29999999701977","2","1","","1","1","1,0.5,0,1,0.5,0,0.5,0,1","0,1,0.5,0,1,0.5,1,0.5,0","3",""
"","html-keyboard-response","223","93104","0.0-313.0","3Z9WI9EOZ0AO2HUB0GLLE43133XKHV","A50K26F2IS94U","3PIOQ99R7Y8STPN46QFY0SD7JTFNU0","","null","<img src=""img/food3.png"" style=""width:200px; border:14px solid green;"">","null","","","","","","","","","",""
"","image-keyboard-response","224","93307","0.0-314.0","3Z9WI9EOZ0AO2HUB0GLLE43133XKHV","A50K26F2IS94U","3PIOQ99R7Y8STPN46QFY0SD7JTFNU0","","202.20000000298023","img/food4.png","75","202.59999999403954","2","0","","3","1","1,0.5,0,1,0.5,0,0.5,0,1","0,1,0.5,0,1,0.5,1,0.5,0","3",""
"","html-keyboard-response","225","93610","0.0-315.0","3Z9WI9EOZ0AO2HUB0GLLE43133XKHV","A50K26F2IS94U","3PIOQ99R7Y8STPN46QFY0SD7JTFNU0","","null","<img src=""img/food4.png"" style=""width:200px;border:14px solid red;"">","null","","","","","","","","","",""
"","image-keyboard-response","226","93787","0.0-316.0","3Z9WI9EOZ0AO2HUB0GLLE43133XKHV","A50K26F2IS94U","3PIOQ99R7Y8STPN46QFY0SD7JTFNU0","","176.8999999910593","img/food4.png","75","177.29999999701977","2","1","","3","1","1,0.5,0,1,0.5,0,0.5,0,1","0,1,0.5,0,1,0.5,1,0.5,0","3",""
"","html-keyboard-response","227","94094","0.0-317.0","3Z9WI9EOZ0AO2HUB0GLLE43133XKHV","A50K26F2IS94U","3PIOQ99R7Y8STPN46QFY0SD7JTFNU0","","null","<img src=""img/food4.png"" style=""width:200px; border:14px solid green;"">","null","","","","","","","","","",""
"","image-keyboard-response","228","94291","0.0-318.0","3Z9WI9EOZ0AO2HUB0GLLE43133XKHV","A50K26F2IS94U","3PIOQ99R7Y8STPN46QFY0SD7JTFNU0","","196.20000000298023","img/food1.png","75","196.79999999701977","2","1","","2","1","1,0.5,0,1,0.5,0,0.5,0,1","0,1,0.5,0,1,0.5,1,0.5,0","3",""
"","html-keyboard-response","229","94593","0.0-319.0","3Z9WI9EOZ0AO2HUB0GLLE43133XKHV","A50K26F2IS94U","3PIOQ99R7Y8STPN46QFY0SD7JTFNU0","","null","<img src=""img/food1.png"" style=""width:200px; border:14px solid green;"">","null","","","","","","","","","",""
"","image-keyboard-response","230","94805","0.0-320.0","3Z9WI9EOZ0AO2HUB0GLLE43133XKHV","A50K26F2IS94U","3PIOQ99R7Y8STPN46QFY0SD7JTFNU0","","211.5","img/food3.png","75","212","2","1","","1","1","1,0.5,0,1,0.5,0,0.5,0,1","0,1,0.5,0,1,0.5,1,0.5,0","3",""
"","html-keyboard-response","231","95108","0.0-321.0","3Z9WI9EOZ0AO2HUB0GLLE43133XKHV","A50K26F2IS94U","3PIOQ99R7Y8STPN46QFY0SD7JTFNU0","","null","<img src=""img/food3.png"" style=""width:200px; border:14px solid green;"">","null","","","","","","","","","",""
"","image-keyboard-response","232","95203","0.0-322.0","3Z9WI9EOZ0AO2HUB0GLLE43133XKHV","A50K26F2IS94U","3PIOQ99R7Y8STPN46QFY0SD7JTFNU0","","94.3999999910593","img/food4.png","75","94.79999999701977","2","0","","3","1","1,0.5,0,1,0.5,0,0.5,0,1","0,1,0.5,0,1,0.5,1,0.5,0","3",""
"","html-keyboard-response","233","95505","0.0-323.0","3Z9WI9EOZ0AO2HUB0GLLE43133XKHV","A50K26F2IS94U","3PIOQ99R7Y8STPN46QFY0SD7JTFNU0","","null","<img src=""img/food4.png"" style=""width:200px;border:14px solid red;"">","null","","","","","","","","","",""
"","image-keyboard-response","234","95723","0.0-324.0","3Z9WI9EOZ0AO2HUB0GLLE43133XKHV","A50K26F2IS94U","3PIOQ99R7Y8STPN46QFY0SD7JTFNU0","","217.79999999701977","img/food3.png","75","218.29999999701977","2","1","","1","1","1,0.5,0,1,0.5,0,0.5,0,1","0,1,0.5,0,1,0.5,1,0.5,0","3",""
"","html-keyboard-response","235","96025","0.0-325.0","3Z9WI9EOZ0AO2HUB0GLLE43133XKHV","A50K26F2IS94U","3PIOQ99R7Y8STPN46QFY0SD7JTFNU0","","null","<img src=""img/food3.png"" style=""width:200px; border:14px solid green;"">","null","","","","","","","","","",""
"","image-keyboard-response","236","96147","0.0-326.0","3Z9WI9EOZ0AO2HUB0GLLE43133XKHV","A50K26F2IS94U","3PIOQ99R7Y8STPN46QFY0SD7JTFNU0","","121.59999999403954","img/food4.png","75","122","2","1","","3","1","1,0.5,0,1,0.5,0,0.5,0,1","0,1,0.5,0,1,0.5,1,0.5,0","3",""
"","html-keyboard-response","237","96449","0.0-327.0","3Z9WI9EOZ0AO2HUB0GLLE43133XKHV","A50K26F2IS94U","3PIOQ99R7Y8STPN46QFY0SD7JTFNU0","","null","<img src=""img/food4.png"" style=""width:200px; border:14px solid green;"">","null","","","","","","","","","",""
"","image-keyboard-response","238","96531","0.0-328.0","3Z9WI9EOZ0AO2HUB0GLLE43133XKHV","A50K26F2IS94U","3PIOQ99R7Y8STPN46QFY0SD7JTFNU0","","81.09999999403954","img/food3.png","75","81.59999999403954","2","1","","1","1","1,0.5,0,1,0.5,0,0.5,0,1","0,1,0.5,0,1,0.5,1,0.5,0","3",""
"","html-keyboard-response","239","96833","0.0-329.0","3Z9WI9EOZ0AO2HUB0GLLE43133XKHV","A50K26F2IS94U","3PIOQ99R7Y8STPN46QFY0SD7JTFNU0","","null","<img src=""img/food3.png"" style=""width:200px; border:14px solid green;"">","null","","","","","","","","","",""
"","image-keyboard-response","240","96995","0.0-330.0","3Z9WI9EOZ0AO2HUB0GLLE43133XKHV","A50K26F2IS94U","3PIOQ99R7Y8STPN46QFY0SD7JTFNU0","","161.8999999910593","img/food4.png","75","162.29999999701977","2","0","","3","1","1,0.5,0,1,0.5,0,0.5,0,1","0,1,0.5,0,1,0.5,1,0.5,0","3",""
"","html-keyboard-response","241","97297","0.0-331.0","3Z9WI9EOZ0AO2HUB0GLLE43133XKHV","A50K26F2IS94U","3PIOQ99R7Y8STPN46QFY0SD7JTFNU0","","null","<img src=""img/food4.png"" style=""width:200px;border:14px solid red;"">","null","","","","","","","","","",""
"","image-keyboard-response","242","97467","0.0-332.0","3Z9WI9EOZ0AO2HUB0GLLE43133XKHV","A50K26F2IS94U","3PIOQ99R7Y8STPN46QFY0SD7JTFNU0","","170","img/food3.png","75","170.40000000596046","2","1","","1","1","1,0.5,0,1,0.5,0,0.5,0,1","0,1,0.5,0,1,0.5,1,0.5,0","3",""
"","html-keyboard-response","243","97769","0.0-333.0","3Z9WI9EOZ0AO2HUB0GLLE43133XKHV","A50K26F2IS94U","3PIOQ99R7Y8STPN46QFY0SD7JTFNU0","","null","<img src=""img/food3.png"" style=""width:200px; border:14px solid green;"">","null","","","","","","","","","",""
"","image-keyboard-response","244","97915","0.0-334.0","3Z9WI9EOZ0AO2HUB0GLLE43133XKHV","A50K26F2IS94U","3PIOQ99R7Y8STPN46QFY0SD7JTFNU0","","145.1000000089407","img/food4.png","75","145.6000000089407","2","1","","3","1","1,0.5,0,1,0.5,0,0.5,0,1","0,1,0.5,0,1,0.5,1,0.5,0","3",""
"","html-keyboard-response","245","98216","0.0-335.0","3Z9WI9EOZ0AO2HUB0GLLE43133XKHV","A50K26F2IS94U","3PIOQ99R7Y8STPN46QFY0SD7JTFNU0","","null","<img src=""img/food4.png"" style=""width:200px; border:14px solid green;"">","null","","","","","","","","","",""
"","image-keyboard-response","246","98355","0.0-336.0","3Z9WI9EOZ0AO2HUB0GLLE43133XKHV","A50K26F2IS94U","3PIOQ99R7Y8STPN46QFY0SD7JTFNU0","","138.79999999701977","img/food3.png","75","139.29999999701977","2","1","","1","1","1,0.5,0,1,0.5,0,0.5,0,1","0,1,0.5,0,1,0.5,1,0.5,0","3",""
"","html-keyboard-response","247","98657","0.0-337.0","3Z9WI9EOZ0AO2HUB0GLLE43133XKHV","A50K26F2IS94U","3PIOQ99R7Y8STPN46QFY0SD7JTFNU0","","null","<img src=""img/food3.png"" style=""width:200px; border:14px solid green;"">","null","","","","","","","","","",""
"","image-keyboard-response","248","98886","0.0-338.0","3Z9WI9EOZ0AO2HUB0GLLE43133XKHV","A50K26F2IS94U","3PIOQ99R7Y8STPN46QFY0SD7JTFNU0","","227.59999999403954","img/food4.png","75","228.09999999403954","2","0","","3","1","1,0.5,0,1,0.5,0,0.5,0,1","0,1,0.5,0,1,0.5,1,0.5,0","3",""
"","html-keyboard-response","249","99187","0.0-339.0","3Z9WI9EOZ0AO2HUB0GLLE43133XKHV","A50K26F2IS94U","3PIOQ99R7Y8STPN46QFY0SD7JTFNU0","","null","<img src=""img/food4.png"" style=""width:200px;border:14px solid red;"">","null","","","","","","","","","",""
"","image-keyboard-response","250","99267","0.0-340.0","3Z9WI9EOZ0AO2HUB0GLLE43133XKHV","A50K26F2IS94U","3PIOQ99R7Y8STPN46QFY0SD7JTFNU0","","79.5","img/food1.png","75","80","2","1","","2","1","1,0.5,0,1,0.5,0,0.5,0,1","0,1,0.5,0,1,0.5,1,0.5,0","3",""
"","html-keyboard-response","251","99569","0.0-341.0","3Z9WI9EOZ0AO2HUB0GLLE43133XKHV","A50K26F2IS94U","3PIOQ99R7Y8STPN46QFY0SD7JTFNU0","","null","<img src=""img/food1.png"" style=""width:200px; border:14px solid green;"">","null","","","","","","","","","",""
"","image-keyboard-response","252","99723","0.0-342.0","3Z9WI9EOZ0AO2HUB0GLLE43133XKHV","A50K26F2IS94U","3PIOQ99R7Y8STPN46QFY0SD7JTFNU0","","153.6000000089407","img/food1.png","75","154","2","1","","2","1","1,0.5,0,1,0.5,0,0.5,0,1","0,1,0.5,0,1,0.5,1,0.5,0","3",""
"","html-keyboard-response","253","100024","0.0-343.0","3Z9WI9EOZ0AO2HUB0GLLE43133XKHV","A50K26F2IS94U","3PIOQ99R7Y8STPN46QFY0SD7JTFNU0","","null","<img src=""img/food1.png"" style=""width:200px; border:14px solid green;"">","null","","","","","","","","","",""
"","image-keyboard-response","254","100155","0.0-344.0","3Z9WI9EOZ0AO2HUB0GLLE43133XKHV","A50K26F2IS94U","3PIOQ99R7Y8STPN46QFY0SD7JTFNU0","","130.6000000089407","img/food4.png","75","131.20000000298023","2","0","","3","1","1,0.5,0,1,0.5,0,0.5,0,1","0,1,0.5,0,1,0.5,1,0.5,0","3",""
"","html-keyboard-response","255","100458","0.0-345.0","3Z9WI9EOZ0AO2HUB0GLLE43133XKHV","A50K26F2IS94U","3PIOQ99R7Y8STPN46QFY0SD7JTFNU0","","null","<img src=""img/food4.png"" style=""width:200px;border:14px solid red;"">","null","","","","","","","","","",""
"","image-keyboard-response","256","100571","0.0-346.0","3Z9WI9EOZ0AO2HUB0GLLE43133XKHV","A50K26F2IS94U","3PIOQ99R7Y8STPN46QFY0SD7JTFNU0","","113.1000000089407","img/food1.png","75","113.59999999403954","2","1","","2","1","1,0.5,0,1,0.5,0,0.5,0,1","0,1,0.5,0,1,0.5,1,0.5,0","3",""
"","html-keyboard-response","257","100873","0.0-347.0","3Z9WI9EOZ0AO2HUB0GLLE43133XKHV","A50K26F2IS94U","3PIOQ99R7Y8STPN46QFY0SD7JTFNU0","","null","<img src=""img/food1.png"" style=""width:200px; border:14px solid green;"">","null","","","","","","","","","",""
"","image-keyboard-response","258","101011","0.0-348.0","3Z9WI9EOZ0AO2HUB0GLLE43133XKHV","A50K26F2IS94U","3PIOQ99R7Y8STPN46QFY0SD7JTFNU0","","138.1000000089407","img/food1.png","75","138.6000000089407","2","1","","2","1","1,0.5,0,1,0.5,0,0.5,0,1","0,1,0.5,0,1,0.5,1,0.5,0","3",""
"","html-keyboard-response","259","101313","0.0-349.0","3Z9WI9EOZ0AO2HUB0GLLE43133XKHV","A50K26F2IS94U","3PIOQ99R7Y8STPN46QFY0SD7JTFNU0","","null","<img src=""img/food1.png"" style=""width:200px; border:14px solid green;"">","null","","","","","","","","","",""
"","image-keyboard-response","260","101459","0.0-350.0","3Z9WI9EOZ0AO2HUB0GLLE43133XKHV","A50K26F2IS94U","3PIOQ99R7Y8STPN46QFY0SD7JTFNU0","","146.1000000089407","img/food4.png","75","146.5","2","1","","3","1","1,0.5,0,1,0.5,0,0.5,0,1","0,1,0.5,0,1,0.5,1,0.5,0","3",""
"","html-keyboard-response","261","101762","0.0-351.0","3Z9WI9EOZ0AO2HUB0GLLE43133XKHV","A50K26F2IS94U","3PIOQ99R7Y8STPN46QFY0SD7JTFNU0","","null","<img src=""img/food4.png"" style=""width:200px; border:14px solid green;"">","null","","","","","","","","","",""
"","image-keyboard-response","262","101900","0.0-352.0","3Z9WI9EOZ0AO2HUB0GLLE43133XKHV","A50K26F2IS94U","3PIOQ99R7Y8STPN46QFY0SD7JTFNU0","","137.1000000089407","img/food1.png","75","137.6000000089407","2","1","","2","1","1,0.5,0,1,0.5,0,0.5,0,1","0,1,0.5,0,1,0.5,1,0.5,0","3",""
"","html-keyboard-response","263","102201","0.0-353.0","3Z9WI9EOZ0AO2HUB0GLLE43133XKHV","A50K26F2IS94U","3PIOQ99R7Y8STPN46QFY0SD7JTFNU0","","null","<img src=""img/food1.png"" style=""width:200px; border:14px solid green;"">","null","","","","","","","","","",""
"","image-keyboard-response","264","102356","0.0-354.0","3Z9WI9EOZ0AO2HUB0GLLE43133XKHV","A50K26F2IS94U","3PIOQ99R7Y8STPN46QFY0SD7JTFNU0","","154.19999998807907","img/food4.png","75","154.70000000298023","2","0","","3","1","1,0.5,0,1,0.5,0,0.5,0,1","0,1,0.5,0,1,0.5,1,0.5,0","3",""
"","html-keyboard-response","265","102658","0.0-355.0","3Z9WI9EOZ0AO2HUB0GLLE43133XKHV","A50K26F2IS94U","3PIOQ99R7Y8STPN46QFY0SD7JTFNU0","","null","<img src=""img/food4.png"" style=""width:200px;border:14px solid red;"">","null","","","","","","","","","",""
"","image-keyboard-response","266","102779","0.0-356.0","3Z9WI9EOZ0AO2HUB0GLLE43133XKHV","A50K26F2IS94U","3PIOQ99R7Y8STPN46QFY0SD7JTFNU0","","121","img/food4.png","75","121.40000000596046","2","0","","3","1","1,0.5,0,1,0.5,0,0.5,0,1","0,1,0.5,0,1,0.5,1,0.5,0","3",""
"","html-keyboard-response","267","103081","0.0-357.0","3Z9WI9EOZ0AO2HUB0GLLE43133XKHV","A50K26F2IS94U","3PIOQ99R7Y8STPN46QFY0SD7JTFNU0","","null","<img src=""img/food4.png"" style=""width:200px;border:14px solid red;"">","null","","","","","","","","","",""
"","image-keyboard-response","268","103251","0.0-358.0","3Z9WI9EOZ0AO2HUB0GLLE43133XKHV","A50K26F2IS94U","3PIOQ99R7Y8STPN46QFY0SD7JTFNU0","","169.29999999701977","img/food4.png","75","169.8999999910593","2","0","","3","1","1,0.5,0,1,0.5,0,0.5,0,1","0,1,0.5,0,1,0.5,1,0.5,0","3",""
"","html-keyboard-response","269","103554","0.0-359.0","3Z9WI9EOZ0AO2HUB0GLLE43133XKHV","A50K26F2IS94U","3PIOQ99R7Y8STPN46QFY0SD7JTFNU0","","null","<img src=""img/food4.png"" style=""width:200px;border:14px solid red;"">","null","","","","","","","","","",""
"","image-keyboard-response","270","103691","0.0-360.0","3Z9WI9EOZ0AO2HUB0GLLE43133XKHV","A50K26F2IS94U","3PIOQ99R7Y8STPN46QFY0SD7JTFNU0","","136.70000000298023","img/food4.png","75","137.09999999403954","2","0","","3","1","1,0.5,0,1,0.5,0,0.5,0,1","0,1,0.5,0,1,0.5,1,0.5,0","3",""
"","html-keyboard-response","271","103993","0.0-361.0","3Z9WI9EOZ0AO2HUB0GLLE43133XKHV","A50K26F2IS94U","3PIOQ99R7Y8STPN46QFY0SD7JTFNU0","","null","<img src=""img/food4.png"" style=""width:200px;border:14px solid red;"">","null","","","","","","","","","",""
"","image-keyboard-response","272","104315","0.0-362.0","3Z9WI9EOZ0AO2HUB0GLLE43133XKHV","A50K26F2IS94U","3PIOQ99R7Y8STPN46QFY0SD7JTFNU0","","320.90000000596046","img/food3.png","75","321.6000000089407","2","1","","1","1","1,0.5,0,1,0.5,0,0.5,0,1","0,1,0.5,0,1,0.5,1,0.5,0","3",""
"","html-keyboard-response","273","104618","0.0-363.0","3Z9WI9EOZ0AO2HUB0GLLE43133XKHV","A50K26F2IS94U","3PIOQ99R7Y8STPN46QFY0SD7JTFNU0","","null","<img src=""img/food3.png"" style=""width:200px; border:14px solid green;"">","null","","","","","","","","","",""
"","image-keyboard-response","274","104771","0.0-364.0","3Z9WI9EOZ0AO2HUB0GLLE43133XKHV","A50K26F2IS94U","3PIOQ99R7Y8STPN46QFY0SD7JTFNU0","","152.79999999701977","img/food3.png","75","153.1000000089407","2","1","","1","1","1,0.5,0,1,0.5,0,0.5,0,1","0,1,0.5,0,1,0.5,1,0.5,0","3",""
"","html-keyboard-response","275","105073","0.0-365.0","3Z9WI9EOZ0AO2HUB0GLLE43133XKHV","A50K26F2IS94U","3PIOQ99R7Y8STPN46QFY0SD7JTFNU0","","null","<img src=""img/food3.png"" style=""width:200px; border:14px solid green;"">","null","","","","","","","","","",""
"","image-keyboard-response","276","105236","0.0-366.0","3Z9WI9EOZ0AO2HUB0GLLE43133XKHV","A50K26F2IS94U","3PIOQ99R7Y8STPN46QFY0SD7JTFNU0","","162.20000000298023","img/food3.png","75","162.90000000596046","2","1","","1","1","1,0.5,0,1,0.5,0,0.5,0,1","0,1,0.5,0,1,0.5,1,0.5,0","3",""
"","html-keyboard-response","277","105537","0.0-367.0","3Z9WI9EOZ0AO2HUB0GLLE43133XKHV","A50K26F2IS94U","3PIOQ99R7Y8STPN46QFY0SD7JTFNU0","","null","<img src=""img/food3.png"" style=""width:200px; border:14px solid green;"">","null","","","","","","","","","",""
"","image-keyboard-response","278","105683","0.0-368.0","3Z9WI9EOZ0AO2HUB0GLLE43133XKHV","A50K26F2IS94U","3PIOQ99R7Y8STPN46QFY0SD7JTFNU0","","145.20000000298023","img/food1.png","75","145.70000000298023","2","1","","2","1","1,0.5,0,1,0.5,0,0.5,0,1","0,1,0.5,0,1,0.5,1,0.5,0","3",""
"","html-keyboard-response","279","105985","0.0-369.0","3Z9WI9EOZ0AO2HUB0GLLE43133XKHV","A50K26F2IS94U","3PIOQ99R7Y8STPN46QFY0SD7JTFNU0","","null","<img src=""img/food1.png"" style=""width:200px; border:14px solid green;"">","null","","","","","","","","","",""
"","image-keyboard-response","280","106155","0.0-370.0","3Z9WI9EOZ0AO2HUB0GLLE43133XKHV","A50K26F2IS94U","3PIOQ99R7Y8STPN46QFY0SD7JTFNU0","","169.09999999403954","img/food1.png","75","169.59999999403954","2","1","","2","1","1,0.5,0,1,0.5,0,0.5,0,1","0,1,0.5,0,1,0.5,1,0.5,0","3",""
"","html-keyboard-response","281","106457","0.0-371.0","3Z9WI9EOZ0AO2HUB0GLLE43133XKHV","A50K26F2IS94U","3PIOQ99R7Y8STPN46QFY0SD7JTFNU0","","null","<img src=""img/food1.png"" style=""width:200px; border:14px solid green;"">","null","","","","","","","","","",""
"","image-keyboard-response","282","106595","0.0-372.0","3Z9WI9EOZ0AO2HUB0GLLE43133XKHV","A50K26F2IS94U","3PIOQ99R7Y8STPN46QFY0SD7JTFNU0","","138","img/food1.png","75","138.59999999403954","2","1","","2","1","1,0.5,0,1,0.5,0,0.5,0,1","0,1,0.5,0,1,0.5,1,0.5,0","3",""
"","html-keyboard-response","283","106897","0.0-373.0","3Z9WI9EOZ0AO2HUB0GLLE43133XKHV","A50K26F2IS94U","3PIOQ99R7Y8STPN46QFY0SD7JTFNU0","","null","<img src=""img/food1.png"" style=""width:200px; border:14px solid green;"">","null","","","","","","","","","",""
"","image-keyboard-response","284","107064","0.0-374.0","3Z9WI9EOZ0AO2HUB0GLLE43133XKHV","A50K26F2IS94U","3PIOQ99R7Y8STPN46QFY0SD7JTFNU0","","166.79999999701977","img/food3.png","75","167.30000001192093","2","1","","1","1","1,0.5,0,1,0.5,0,0.5,0,1","0,1,0.5,0,1,0.5,1,0.5,0","3",""
"","html-keyboard-response","285","107376","0.0-375.0","3Z9WI9EOZ0AO2HUB0GLLE43133XKHV","A50K26F2IS94U","3PIOQ99R7Y8STPN46QFY0SD7JTFNU0","","null","<img src=""img/food3.png"" style=""width:200px; border:14px solid green;"">","null","","","","","","","","","",""
"","image-keyboard-response","286","107523","0.0-376.0","3Z9WI9EOZ0AO2HUB0GLLE43133XKHV","A50K26F2IS94U","3PIOQ99R7Y8STPN46QFY0SD7JTFNU0","","146.70000000298023","img/food3.png","75","147.20000000298023","2","1","","1","1","1,0.5,0,1,0.5,0,0.5,0,1","0,1,0.5,0,1,0.5,1,0.5,0","3",""
"","html-keyboard-response","287","107825","0.0-377.0","3Z9WI9EOZ0AO2HUB0GLLE43133XKHV","A50K26F2IS94U","3PIOQ99R7Y8STPN46QFY0SD7JTFNU0","","null","<img src=""img/food3.png"" style=""width:200px; border:14px solid green;"">","null","","","","","","","","","",""
"","image-keyboard-response","288","107932","0.0-378.0","3Z9WI9EOZ0AO2HUB0GLLE43133XKHV","A50K26F2IS94U","3PIOQ99R7Y8STPN46QFY0SD7JTFNU0","","105.79999999701977","img/food1.png","75","106.5","2","1","","2","1","1,0.5,0,1,0.5,0,0.5,0,1","0,1,0.5,0,1,0.5,1,0.5,0","3",""
"","html-keyboard-response","289","108233","0.0-379.0","3Z9WI9EOZ0AO2HUB0GLLE43133XKHV","A50K26F2IS94U","3PIOQ99R7Y8STPN46QFY0SD7JTFNU0","","null","<img src=""img/food1.png"" style=""width:200px; border:14px solid green;"">","null","","","","","","","","","",""
"","image-keyboard-response","290","108387","0.0-380.0","3Z9WI9EOZ0AO2HUB0GLLE43133XKHV","A50K26F2IS94U","3PIOQ99R7Y8STPN46QFY0SD7JTFNU0","","153.5","img/food3.png","75","153.90000000596046","2","1","","1","1","1,0.5,0,1,0.5,0,0.5,0,1","0,1,0.5,0,1,0.5,1,0.5,0","3",""
"","html-keyboard-response","291","108689","0.0-381.0","3Z9WI9EOZ0AO2HUB0GLLE43133XKHV","A50K26F2IS94U","3PIOQ99R7Y8STPN46QFY0SD7JTFNU0","","null","<img src=""img/food3.png"" style=""width:200px; border:14px solid green;"">","null","","","","","","","","","",""
"","image-keyboard-response","292","108835","0.0-382.0","3Z9WI9EOZ0AO2HUB0GLLE43133XKHV","A50K26F2IS94U","3PIOQ99R7Y8STPN46QFY0SD7JTFNU0","","145.40000000596046","img/food4.png","75","145.80000001192093","2","1","","3","1","1,0.5,0,1,0.5,0,0.5,0,1","0,1,0.5,0,1,0.5,1,0.5,0","3",""
"","html-keyboard-response","293","109136","0.0-383.0","3Z9WI9EOZ0AO2HUB0GLLE43133XKHV","A50K26F2IS94U","3PIOQ99R7Y8STPN46QFY0SD7JTFNU0","","null","<img src=""img/food4.png"" style=""width:200px; border:14px solid green;"">","null","","","","","","","","","",""
"","image-keyboard-response","294","109259","0.0-384.0","3Z9WI9EOZ0AO2HUB0GLLE43133XKHV","A50K26F2IS94U","3PIOQ99R7Y8STPN46QFY0SD7JTFNU0","","122.59999999403954","img/food1.png","75","123","2","1","","2","1","1,0.5,0,1,0.5,0,0.5,0,1","0,1,0.5,0,1,0.5,1,0.5,0","3",""
"","html-keyboard-response","295","109563","0.0-385.0","3Z9WI9EOZ0AO2HUB0GLLE43133XKHV","A50K26F2IS94U","3PIOQ99R7Y8STPN46QFY0SD7JTFNU0","","null","<img src=""img/food1.png"" style=""width:200px; border:14px solid green;"">","null","","","","","","","","","",""
"","image-keyboard-response","296","109747","0.0-386.0","3Z9WI9EOZ0AO2HUB0GLLE43133XKHV","A50K26F2IS94U","3PIOQ99R7Y8STPN46QFY0SD7JTFNU0","","183.79999999701977","img/food4.png","75","184.20000000298023","2","1","","3","1","1,0.5,0,1,0.5,0,0.5,0,1","0,1,0.5,0,1,0.5,1,0.5,0","3",""
"","html-keyboard-response","297","110049","0.0-387.0","3Z9WI9EOZ0AO2HUB0GLLE43133XKHV","A50K26F2IS94U","3PIOQ99R7Y8STPN46QFY0SD7JTFNU0","","null","<img src=""img/food4.png"" style=""width:200px; border:14px solid green;"">","null","","","","","","","","","",""
"","image-keyboard-response","298","110195","0.0-388.0","3Z9WI9EOZ0AO2HUB0GLLE43133XKHV","A50K26F2IS94U","3PIOQ99R7Y8STPN46QFY0SD7JTFNU0","","145.40000000596046","img/food4.png","75","145.79999999701977","2","1","","3","1","1,0.5,0,1,0.5,0,0.5,0,1","0,1,0.5,0,1,0.5,1,0.5,0","3",""
"","html-keyboard-response","299","110497","0.0-389.0","3Z9WI9EOZ0AO2HUB0GLLE43133XKHV","A50K26F2IS94U","3PIOQ99R7Y8STPN46QFY0SD7JTFNU0","","null","<img src=""img/food4.png"" style=""width:200px; border:14px solid green;"">","null","","","","","","","","","",""
"","image-keyboard-response","300","110659","0.0-390.0","3Z9WI9EOZ0AO2HUB0GLLE43133XKHV","A50K26F2IS94U","3PIOQ99R7Y8STPN46QFY0SD7JTFNU0","","161.5","img/food3.png","75","161.79999999701977","2","1","","1","1","1,0.5,0,1,0.5,0,0.5,0,1","0,1,0.5,0,1,0.5,1,0.5,0","3",""
"","html-keyboard-response","301","110962","0.0-391.0","3Z9WI9EOZ0AO2HUB0GLLE43133XKHV","A50K26F2IS94U","3PIOQ99R7Y8STPN46QFY0SD7JTFNU0","","null","<img src=""img/food3.png"" style=""width:200px; border:14px solid green;"">","null","","","","","","","","","",""
"","image-keyboard-response","302","111145","0.0-392.0","3Z9WI9EOZ0AO2HUB0GLLE43133XKHV","A50K26F2IS94U","3PIOQ99R7Y8STPN46QFY0SD7JTFNU0","","182.3999999910593","img/food1.png","75","182.8999999910593","2","1","","2","1","1,0.5,0,1,0.5,0,0.5,0,1","0,1,0.5,0,1,0.5,1,0.5,0","3",""
"","html-keyboard-response","303","111446","0.0-393.0","3Z9WI9EOZ0AO2HUB0GLLE43133XKHV","A50K26F2IS94U","3PIOQ99R7Y8STPN46QFY0SD7JTFNU0","","null","<img src=""img/food1.png"" style=""width:200px; border:14px solid green;"">","null","","","","","","","","","",""
"","image-keyboard-response","304","111579","0.0-394.0","3Z9WI9EOZ0AO2HUB0GLLE43133XKHV","A50K26F2IS94U","3PIOQ99R7Y8STPN46QFY0SD7JTFNU0","","132.29999999701977","img/food1.png","75","132.70000000298023","2","1","","2","1","1,0.5,0,1,0.5,0,0.5,0,1","0,1,0.5,0,1,0.5,1,0.5,0","3",""
"","html-keyboard-response","305","111890","0.0-395.0","3Z9WI9EOZ0AO2HUB0GLLE43133XKHV","A50K26F2IS94U","3PIOQ99R7Y8STPN46QFY0SD7JTFNU0","","null","<img src=""img/food1.png"" style=""width:200px; border:14px solid green;"">","null","","","","","","","","","",""
"","image-keyboard-response","306","112051","0.0-396.0","3Z9WI9EOZ0AO2HUB0GLLE43133XKHV","A50K26F2IS94U","3PIOQ99R7Y8STPN46QFY0SD7JTFNU0","","161.20000000298023","img/food3.png","75","161.70000000298023","2","1","","1","1","1,0.5,0,1,0.5,0,0.5,0,1","0,1,0.5,0,1,0.5,1,0.5,0","3",""
"","html-keyboard-response","307","112352","0.0-397.0","3Z9WI9EOZ0AO2HUB0GLLE43133XKHV","A50K26F2IS94U","3PIOQ99R7Y8STPN46QFY0SD7JTFNU0","","null","<img src=""img/food3.png"" style=""width:200px; border:14px solid green;"">","null","","","","","","","","","",""
"","image-keyboard-response","308","112483","0.0-398.0","3Z9WI9EOZ0AO2HUB0GLLE43133XKHV","A50K26F2IS94U","3PIOQ99R7Y8STPN46QFY0SD7JTFNU0","","130.30000001192093","img/food4.png","75","130.69999998807907","2","0","","3","1","1,0.5,0,1,0.5,0,0.5,0,1","0,1,0.5,0,1,0.5,1,0.5,0","3",""
"","html-keyboard-response","309","112785","0.0-399.0","3Z9WI9EOZ0AO2HUB0GLLE43133XKHV","A50K26F2IS94U","3PIOQ99R7Y8STPN46QFY0SD7JTFNU0","","null","<img src=""img/food4.png"" style=""width:200px;border:14px solid red;"">","null","","","","","","","","","",""
"","image-keyboard-response","310","112947","0.0-400.0","3Z9WI9EOZ0AO2HUB0GLLE43133XKHV","A50K26F2IS94U","3PIOQ99R7Y8STPN46QFY0SD7JTFNU0","","162","img/food4.png","75","162.29999999701977","2","1","","3","1","1,0.5,0,1,0.5,0,0.5,0,1","0,1,0.5,0,1,0.5,1,0.5,0","3",""
"","html-keyboard-response","311","113249","0.0-401.0","3Z9WI9EOZ0AO2HUB0GLLE43133XKHV","A50K26F2IS94U","3PIOQ99R7Y8STPN46QFY0SD7JTFNU0","","null","<img src=""img/food4.png"" style=""width:200px; border:14px solid green;"">","null","","","","","","","","","",""
"","image-keyboard-response","312","113451","0.0-402.0","3Z9WI9EOZ0AO2HUB0GLLE43133XKHV","A50K26F2IS94U","3PIOQ99R7Y8STPN46QFY0SD7JTFNU0","","202.09999999403954","img/food3.png","75","202.5","2","1","","1","1","1,0.5,0,1,0.5,0,0.5,0,1","0,1,0.5,0,1,0.5,1,0.5,0","3",""
"","html-keyboard-response","313","113753","0.0-403.0","3Z9WI9EOZ0AO2HUB0GLLE43133XKHV","A50K26F2IS94U","3PIOQ99R7Y8STPN46QFY0SD7JTFNU0","","null","<img src=""img/food3.png"" style=""width:200px; border:14px solid green;"">","null","","","","","","","","","",""
"","image-keyboard-response","314","113883","0.0-404.0","3Z9WI9EOZ0AO2HUB0GLLE43133XKHV","A50K26F2IS94U","3PIOQ99R7Y8STPN46QFY0SD7JTFNU0","","129.79999999701977","img/food4.png","75","130.30000001192093","2","1","","3","1","1,0.5,0,1,0.5,0,0.5,0,1","0,1,0.5,0,1,0.5,1,0.5,0","3",""
"","html-keyboard-response","315","114185","0.0-405.0","3Z9WI9EOZ0AO2HUB0GLLE43133XKHV","A50K26F2IS94U","3PIOQ99R7Y8STPN46QFY0SD7JTFNU0","","null","<img src=""img/food4.png"" style=""width:200px; border:14px solid green;"">","null","","","","","","","","","",""
"","image-keyboard-response","316","114299","0.0-406.0","3Z9WI9EOZ0AO2HUB0GLLE43133XKHV","A50K26F2IS94U","3PIOQ99R7Y8STPN46QFY0SD7JTFNU0","","113.70000000298023","img/food3.png","75","114.20000000298023","2","1","","1","1","1,0.5,0,1,0.5,0,0.5,0,1","0,1,0.5,0,1,0.5,1,0.5,0","3",""
"","html-keyboard-response","317","114601","0.0-407.0","3Z9WI9EOZ0AO2HUB0GLLE43133XKHV","A50K26F2IS94U","3PIOQ99R7Y8STPN46QFY0SD7JTFNU0","","null","<img src=""img/food3.png"" style=""width:200px; border:14px solid green;"">","null","","","","","","","","","",""
"","image-keyboard-response","318","114763","0.0-408.0","3Z9WI9EOZ0AO2HUB0GLLE43133XKHV","A50K26F2IS94U","3PIOQ99R7Y8STPN46QFY0SD7JTFNU0","","161.6000000089407","img/food3.png","75","162.09999999403954","2","1","","1","1","1,0.5,0,1,0.5,0,0.5,0,1","0,1,0.5,0,1,0.5,1,0.5,0","3",""
"","html-keyboard-response","319","115065","0.0-409.0","3Z9WI9EOZ0AO2HUB0GLLE43133XKHV","A50K26F2IS94U","3PIOQ99R7Y8STPN46QFY0SD7JTFNU0","","null","<img src=""img/food3.png"" style=""width:200px; border:14px solid green;"">","null","","","","","","","","","",""
"","image-keyboard-response","320","115238","0.0-410.0","3Z9WI9EOZ0AO2HUB0GLLE43133XKHV","A50K26F2IS94U","3PIOQ99R7Y8STPN46QFY0SD7JTFNU0","","171.79999999701977","img/food4.png","75","172.5","2","1","","3","1","1,0.5,0,1,0.5,0,0.5,0,1","0,1,0.5,0,1,0.5,1,0.5,0","3",""
"","html-keyboard-response","321","115539","0.0-411.0","3Z9WI9EOZ0AO2HUB0GLLE43133XKHV","A50K26F2IS94U","3PIOQ99R7Y8STPN46QFY0SD7JTFNU0","","null","<img src=""img/food4.png"" style=""width:200px; border:14px solid green;"">","null","","","","","","","","","",""
"","image-keyboard-response","322","115675","0.0-412.0","3Z9WI9EOZ0AO2HUB0GLLE43133XKHV","A50K26F2IS94U","3PIOQ99R7Y8STPN46QFY0SD7JTFNU0","","135.5","img/food1.png","75","136","2","1","","2","1","1,0.5,0,1,0.5,0,0.5,0,1","0,1,0.5,0,1,0.5,1,0.5,0","3",""
"","html-keyboard-response","323","115977","0.0-413.0","3Z9WI9EOZ0AO2HUB0GLLE43133XKHV","A50K26F2IS94U","3PIOQ99R7Y8STPN46QFY0SD7JTFNU0","","null","<img src=""img/food1.png"" style=""width:200px; border:14px solid green;"">","null","","","","","","","","","",""
"","image-keyboard-response","324","116155","0.0-414.0","3Z9WI9EOZ0AO2HUB0GLLE43133XKHV","A50K26F2IS94U","3PIOQ99R7Y8STPN46QFY0SD7JTFNU0","","177.8999999910593","img/food1.png","75","178.29999999701977","2","1","","2","1","1,0.5,0,1,0.5,0,0.5,0,1","0,1,0.5,0,1,0.5,1,0.5,0","3",""
"","html-keyboard-response","325","116457","0.0-415.0","3Z9WI9EOZ0AO2HUB0GLLE43133XKHV","A50K26F2IS94U","3PIOQ99R7Y8STPN46QFY0SD7JTFNU0","","null","<img src=""img/food1.png"" style=""width:200px; border:14px solid green;"">","null","","","","","","","","","",""
"","image-keyboard-response","326","116595","0.0-416.0","3Z9WI9EOZ0AO2HUB0GLLE43133XKHV","A50K26F2IS94U","3PIOQ99R7Y8STPN46QFY0SD7JTFNU0","","137.8999999910593","img/food3.png","75","138.5","2","1","","1","1","1,0.5,0,1,0.5,0,0.5,0,1","0,1,0.5,0,1,0.5,1,0.5,0","3",""
"","html-keyboard-response","327","116896","0.0-417.0","3Z9WI9EOZ0AO2HUB0GLLE43133XKHV","A50K26F2IS94U","3PIOQ99R7Y8STPN46QFY0SD7JTFNU0","","null","<img src=""img/food3.png"" style=""width:200px; border:14px solid green;"">","null","","","","","","","","","",""
"","image-keyboard-response","328","117027","0.0-418.0","3Z9WI9EOZ0AO2HUB0GLLE43133XKHV","A50K26F2IS94U","3PIOQ99R7Y8STPN46QFY0SD7JTFNU0","","130.40000000596046","img/food1.png","75","130.90000000596046","2","1","","2","1","1,0.5,0,1,0.5,0,0.5,0,1","0,1,0.5,0,1,0.5,1,0.5,0","3",""
"","html-keyboard-response","329","117329","0.0-419.0","3Z9WI9EOZ0AO2HUB0GLLE43133XKHV","A50K26F2IS94U","3PIOQ99R7Y8STPN46QFY0SD7JTFNU0","","null","<img src=""img/food1.png"" style=""width:200px; border:14px solid green;"">","null","","","","","","","","","",""
"","image-keyboard-response","330","117427","0.0-420.0","3Z9WI9EOZ0AO2HUB0GLLE43133XKHV","A50K26F2IS94U","3PIOQ99R7Y8STPN46QFY0SD7JTFNU0","","97.5","img/food1.png","75","98.09999999403954","2","1","","2","1","1,0.5,0,1,0.5,0,0.5,0,1","0,1,0.5,0,1,0.5,1,0.5,0","3",""
"","html-keyboard-response","331","117728","0.0-421.0","3Z9WI9EOZ0AO2HUB0GLLE43133XKHV","A50K26F2IS94U","3PIOQ99R7Y8STPN46QFY0SD7JTFNU0","","null","<img src=""img/food1.png"" style=""width:200px; border:14px solid green;"">","null","","","","","","","","","",""
"","image-keyboard-response","332","117891","0.0-422.0","3Z9WI9EOZ0AO2HUB0GLLE43133XKHV","A50K26F2IS94U","3PIOQ99R7Y8STPN46QFY0SD7JTFNU0","","162.20000000298023","img/food1.png","75","162.70000000298023","2","1","","2","1","1,0.5,0,1,0.5,0,0.5,0,1","0,1,0.5,0,1,0.5,1,0.5,0","3",""
"","html-keyboard-response","333","118193","0.0-423.0","3Z9WI9EOZ0AO2HUB0GLLE43133XKHV","A50K26F2IS94U","3PIOQ99R7Y8STPN46QFY0SD7JTFNU0","","null","<img src=""img/food1.png"" style=""width:200px; border:14px solid green;"">","null","","","","","","","","","",""
"","image-keyboard-response","334","118324","0.0-424.0","3Z9WI9EOZ0AO2HUB0GLLE43133XKHV","A50K26F2IS94U","3PIOQ99R7Y8STPN46QFY0SD7JTFNU0","","129.79999999701977","img/food4.png","75","130.40000000596046","2","0","","3","1","1,0.5,0,1,0.5,0,0.5,0,1","0,1,0.5,0,1,0.5,1,0.5,0","3",""
"","html-keyboard-response","335","118625","0.0-425.0","3Z9WI9EOZ0AO2HUB0GLLE43133XKHV","A50K26F2IS94U","3PIOQ99R7Y8STPN46QFY0SD7JTFNU0","","null","<img src=""img/food4.png"" style=""width:200px;border:14px solid red;"">","null","","","","","","","","","",""
"","image-keyboard-response","336","118779","0.0-426.0","3Z9WI9EOZ0AO2HUB0GLLE43133XKHV","A50K26F2IS94U","3PIOQ99R7Y8STPN46QFY0SD7JTFNU0","","153.59999999403954","img/food1.png","75","154.09999999403954","2","1","","2","1","1,0.5,0,1,0.5,0,0.5,0,1","0,1,0.5,0,1,0.5,1,0.5,0","3",""
"","html-keyboard-response","337","119081","0.0-427.0","3Z9WI9EOZ0AO2HUB0GLLE43133XKHV","A50K26F2IS94U","3PIOQ99R7Y8STPN46QFY0SD7JTFNU0","","null","<img src=""img/food1.png"" style=""width:200px; border:14px solid green;"">","null","","","","","","","","","",""
"","image-keyboard-response","338","119203","0.0-428.0","3Z9WI9EOZ0AO2HUB0GLLE43133XKHV","A50K26F2IS94U","3PIOQ99R7Y8STPN46QFY0SD7JTFNU0","","121.6000000089407","img/food3.png","75","122","2","1","","1","1","1,0.5,0,1,0.5,0,0.5,0,1","0,1,0.5,0,1,0.5,1,0.5,0","3",""
"","html-keyboard-response","339","119505","0.0-429.0","3Z9WI9EOZ0AO2HUB0GLLE43133XKHV","A50K26F2IS94U","3PIOQ99R7Y8STPN46QFY0SD7JTFNU0","","null","<img src=""img/food3.png"" style=""width:200px; border:14px solid green;"">","null","","","","","","","","","",""
"","image-keyboard-response","340","119667","0.0-430.0","3Z9WI9EOZ0AO2HUB0GLLE43133XKHV","A50K26F2IS94U","3PIOQ99R7Y8STPN46QFY0SD7JTFNU0","","161.79999999701977","img/food1.png","75","162.20000000298023","2","1","","2","1","1,0.5,0,1,0.5,0,0.5,0,1","0,1,0.5,0,1,0.5,1,0.5,0","3",""
"","html-keyboard-response","341","119970","0.0-431.0","3Z9WI9EOZ0AO2HUB0GLLE43133XKHV","A50K26F2IS94U","3PIOQ99R7Y8STPN46QFY0SD7JTFNU0","","null","<img src=""img/food1.png"" style=""width:200px; border:14px solid green;"">","null","","","","","","","","","",""
"","image-keyboard-response","342","120115","0.0-432.0","3Z9WI9EOZ0AO2HUB0GLLE43133XKHV","A50K26F2IS94U","3PIOQ99R7Y8STPN46QFY0SD7JTFNU0","","144.29999999701977","img/food4.png","75","145","2","0","","3","1","1,0.5,0,1,0.5,0,0.5,0,1","0,1,0.5,0,1,0.5,1,0.5,0","3",""
"","html-keyboard-response","343","120417","0.0-433.0","3Z9WI9EOZ0AO2HUB0GLLE43133XKHV","A50K26F2IS94U","3PIOQ99R7Y8STPN46QFY0SD7JTFNU0","","null","<img src=""img/food4.png"" style=""width:200px;border:14px solid red;"">","null","","","","","","","","","",""
"","image-keyboard-response","344","120579","0.0-434.0","3Z9WI9EOZ0AO2HUB0GLLE43133XKHV","A50K26F2IS94U","3PIOQ99R7Y8STPN46QFY0SD7JTFNU0","","161.79999999701977","img/food1.png","75","162.20000000298023","2","1","","2","1","1,0.5,0,1,0.5,0,0.5,0,1","0,1,0.5,0,1,0.5,1,0.5,0","3",""
"","html-keyboard-response","345","120882","0.0-435.0","3Z9WI9EOZ0AO2HUB0GLLE43133XKHV","A50K26F2IS94U","3PIOQ99R7Y8STPN46QFY0SD7JTFNU0","","null","<img src=""img/food1.png"" style=""width:200px; border:14px solid green;"">","null","","","","","","","","","",""
"","image-keyboard-response","346","121043","0.0-436.0","3Z9WI9EOZ0AO2HUB0GLLE43133XKHV","A50K26F2IS94U","3PIOQ99R7Y8STPN46QFY0SD7JTFNU0","","160.59999999403954","img/food4.png","75","161.09999999403954","2","0","","3","1","1,0.5,0,1,0.5,0,0.5,0,1","0,1,0.5,0,1,0.5,1,0.5,0","3",""
"","html-keyboard-response","347","121345","0.0-437.0","3Z9WI9EOZ0AO2HUB0GLLE43133XKHV","A50K26F2IS94U","3PIOQ99R7Y8STPN46QFY0SD7JTFNU0","","null","<img src=""img/food4.png"" style=""width:200px;border:14px solid red;"">","null","","","","","","","","","",""
"","image-keyboard-response","348","121499","0.0-438.0","3Z9WI9EOZ0AO2HUB0GLLE43133XKHV","A50K26F2IS94U","3PIOQ99R7Y8STPN46QFY0SD7JTFNU0","","153.5","img/food3.png","75","154.20000000298023","2","1","","1","1","1,0.5,0,1,0.5,0,0.5,0,1","0,1,0.5,0,1,0.5,1,0.5,0","3",""
"","html-keyboard-response","349","121809","0.0-439.0","3Z9WI9EOZ0AO2HUB0GLLE43133XKHV","A50K26F2IS94U","3PIOQ99R7Y8STPN46QFY0SD7JTFNU0","","null","<img src=""img/food3.png"" style=""width:200px; border:14px solid green;"">","null","","","","","","","","","",""
"","image-keyboard-response","350","121955","0.0-440.0","3Z9WI9EOZ0AO2HUB0GLLE43133XKHV","A50K26F2IS94U","3PIOQ99R7Y8STPN46QFY0SD7JTFNU0","","145.09999999403954","img/food3.png","75","145.59999999403954","2","1","","1","1","1,0.5,0,1,0.5,0,0.5,0,1","0,1,0.5,0,1,0.5,1,0.5,0","3",""
"","html-keyboard-response","351","122257","0.0-441.0","3Z9WI9EOZ0AO2HUB0GLLE43133XKHV","A50K26F2IS94U","3PIOQ99R7Y8STPN46QFY0SD7JTFNU0","","null","<img src=""img/food3.png"" style=""width:200px; border:14px solid green;"">","null","","","","","","","","","",""
"","image-keyboard-response","352","122819","0.0-442.0","3Z9WI9EOZ0AO2HUB0GLLE43133XKHV","A50K26F2IS94U","3PIOQ99R7Y8STPN46QFY0SD7JTFNU0","","561.8999999910593","img/food4.png","76","562.3999999910593","3","0","","3","1","1,0.5,0,1,0.5,0,0.5,0,1","0,1,0.5,0,1,0.5,1,0.5,0","3",""
"","html-keyboard-response","353","123121","0.0-443.0","3Z9WI9EOZ0AO2HUB0GLLE43133XKHV","A50K26F2IS94U","3PIOQ99R7Y8STPN46QFY0SD7JTFNU0","","null","<img src=""img/food4.png"" style=""width:200px;border:14px solid red;"">","null","","","","","","","","","",""
"","image-keyboard-response","354","123411","0.0-444.0","3Z9WI9EOZ0AO2HUB0GLLE43133XKHV","A50K26F2IS94U","3PIOQ99R7Y8STPN46QFY0SD7JTFNU0","","289.70000000298023","img/food3.png","75","290.29999999701977","2","1","","1","1","1,0.5,0,1,0.5,0,0.5,0,1","0,1,0.5,0,1,0.5,1,0.5,0","3",""
"","html-keyboard-response","355","123712","0.0-445.0","3Z9WI9EOZ0AO2HUB0GLLE43133XKHV","A50K26F2IS94U","3PIOQ99R7Y8STPN46QFY0SD7JTFNU0","","null","<img src=""img/food3.png"" style=""width:200px; border:14px solid green;"">","null","","","","","","","","","",""
"","image-keyboard-response","356","124307","0.0-446.0","3Z9WI9EOZ0AO2HUB0GLLE43133XKHV","A50K26F2IS94U","3PIOQ99R7Y8STPN46QFY0SD7JTFNU0","","594.3000000119209","img/food4.png","74","594.6999999880791","1","1","","3","1","1,0.5,0,1,0.5,0,0.5,0,1","0,1,0.5,0,1,0.5,1,0.5,0","3",""
"","html-keyboard-response","357","124619","0.0-447.0","3Z9WI9EOZ0AO2HUB0GLLE43133XKHV","A50K26F2IS94U","3PIOQ99R7Y8STPN46QFY0SD7JTFNU0","","null","<img src=""img/food4.png"" style=""width:200px; border:14px solid green;"">","null","","","","","","","","","",""
"","image-keyboard-response","358","124955","0.0-448.0","3Z9WI9EOZ0AO2HUB0GLLE43133XKHV","A50K26F2IS94U","3PIOQ99R7Y8STPN46QFY0SD7JTFNU0","","335","img/food4.png","75","335.5","2","0","","3","1","1,0.5,0,1,0.5,0,0.5,0,1","0,1,0.5,0,1,0.5,1,0.5,0","3",""
"","html-keyboard-response","359","125258","0.0-449.0","3Z9WI9EOZ0AO2HUB0GLLE43133XKHV","A50K26F2IS94U","3PIOQ99R7Y8STPN46QFY0SD7JTFNU0","","null","<img src=""img/food4.png"" style=""width:200px;border:14px solid red;"">","null","","","","","","","","","",""
"","image-keyboard-response","360","125371","0.0-450.0","3Z9WI9EOZ0AO2HUB0GLLE43133XKHV","A50K26F2IS94U","3PIOQ99R7Y8STPN46QFY0SD7JTFNU0","","112.79999999701977","img/food1.png","74","113.30000001192093","1","0","","2","1","1,0.5,0,1,0.5,0,0.5,0,1","0,1,0.5,0,1,0.5,1,0.5,0","3",""
"","html-keyboard-response","361","125674","0.0-451.0","3Z9WI9EOZ0AO2HUB0GLLE43133XKHV","A50K26F2IS94U","3PIOQ99R7Y8STPN46QFY0SD7JTFNU0","","null","<img src=""img/food1.png"" style=""width:200px;border:14px solid red;"">","null","","","","","","","","","",""
"","image-keyboard-response","362","126107","0.0-452.0","3Z9WI9EOZ0AO2HUB0GLLE43133XKHV","A50K26F2IS94U","3PIOQ99R7Y8STPN46QFY0SD7JTFNU0","","432.6000000089407","img/food3.png","75","433.09999999403954","2","1","","1","1","1,0.5,0,1,0.5,0,0.5,0,1","0,1,0.5,0,1,0.5,1,0.5,0","3",""
"","html-keyboard-response","363","126420","0.0-453.0","3Z9WI9EOZ0AO2HUB0GLLE43133XKHV","A50K26F2IS94U","3PIOQ99R7Y8STPN46QFY0SD7JTFNU0","","null","<img src=""img/food3.png"" style=""width:200px; border:14px solid green;"">","null","","","","","","","","","",""
"","html-keyboard-response","364","128453","0.0-454.0","3Z9WI9EOZ0AO2HUB0GLLE43133XKHV","A50K26F2IS94U","3PIOQ99R7Y8STPN46QFY0SD7JTFNU0","","","","","","","","","","","","","",""
"","instructions","365","132327","0.0-455.0","3Z9WI9EOZ0AO2HUB0GLLE43133XKHV","A50K26F2IS94U","3PIOQ99R7Y8STPN46QFY0SD7JTFNU0","[{""page_index"":0,""viewing_time"":3873.6000000089407}]","3873.7000000029802","","","","","","","","","","","",""
"","survey-text","366","135756","0.0-456.0","3Z9WI9EOZ0AO2HUB0GLLE43133XKHV","A50K26F2IS94U","3PIOQ99R7Y8STPN46QFY0SD7JTFNU0","","3426.3999999910593","","","","","","","","","","","","{""Q0"":""A50K26F2IS94U""}"
