"success","trial_type","trial_index","time_elapsed","internal_node_id","assignmentID","mturkID","hitID","view_history","rt","stimulus","key_press","reactionTime","a","r","s","cond","reward_cond","reward_cond_actual","reward_matrix_idx","warning","responses"
"true","fullscreen","0","2143","0.0-0.0","3PM8NZGV8Z27ZASLIPN4DC34Q6RXQQ","A50NVZ6AI91O","3WRBLBQ2GRU63BU2LFOJL1G32T90GO","","","","","","","","","","","","","",""
"","instructions","1","12353","0.0-1.0","3PM8NZGV8Z27ZASLIPN4DC34Q6RXQQ","A50NVZ6AI91O","3WRBLBQ2GRU63BU2LFOJL1G32T90GO","[{""page_index"":0,""viewing_time"":1433.2000000476837},{""page_index"":1,""viewing_time"":969.0999999046326},{""page_index"":2,""viewing_time"":958.2000000476837},{""page_index"":3,""viewing_time"":2402.100000143051},{""page_index"":4,""viewing_time"":2490.0999999046326},{""page_index"":5,""viewing_time"":998.2999999523163},{""page_index"":6,""viewing_time"":954.7000000476837}]","10206.5","","","","","","","","","","","",""
"","image-keyboard-response","2","13647","0.0-2.0","3PM8NZGV8Z27ZASLIPN4DC34Q6RXQQ","A50NVZ6AI91O","3WRBLBQ2GRU63BU2LFOJL1G32T90GO","","1290.6000001430511","img/food4.png","74","1294.1000001430511","1","0","2","1","1,0.5,0,1,0.5,0,0.5,0,1","0,1,0.5,0,1,0.5,1,0.5,0","3","",""
"","html-keyboard-response","3","13961","0.0-3.0","3PM8NZGV8Z27ZASLIPN4DC34Q6RXQQ","A50NVZ6AI91O","3WRBLBQ2GRU63BU2LFOJL1G32T90GO","","null","<img src=""img/food4.png"" style=""width:200px;border:14px solid red;"">","null","","","","","","","","","",""
"","image-keyboard-response","4","14112","0.0-4.0","3PM8NZGV8Z27ZASLIPN4DC34Q6RXQQ","A50NVZ6AI91O","3WRBLBQ2GRU63BU2LFOJL1G32T90GO","","148.39999985694885","img/food4.png","75","150.70000004768372","2","1","2","1","1,0.5,0,1,0.5,0,0.5,0,1","0,1,0.5,0,1,0.5,1,0.5,0","3","",""
"","html-keyboard-response","5","14417","0.0-5.0","3PM8NZGV8Z27ZASLIPN4DC34Q6RXQQ","A50NVZ6AI91O","3WRBLBQ2GRU63BU2LFOJL1G32T90GO","","null","<img src=""img/food4.png"" style=""width:200px; border:14px solid green;"">","null","","","","","","","","","",""
"","image-keyboard-response","6","14570","0.0-6.0","3PM8NZGV8Z27ZASLIPN4DC34Q6RXQQ","A50NVZ6AI91O","3WRBLBQ2GRU63BU2LFOJL1G32T90GO","","150.60000014305115","img/food4.png","76","152.40000009536743","3","0","2","1","1,0.5,0,1,0.5,0,0.5,0,1","0,1,0.5,0,1,0.5,1,0.5,0","3","",""
"","html-keyboard-response","7","14879","0.0-7.0","3PM8NZGV8Z27ZASLIPN4DC34Q6RXQQ","A50NVZ6AI91O","3WRBLBQ2GRU63BU2LFOJL1G32T90GO","","null","<img src=""img/food4.png"" style=""width:200px;border:14px solid red;"">","null","","","","","","","","","",""
"","image-keyboard-response","8","15241","0.0-8.0","3PM8NZGV8Z27ZASLIPN4DC34Q6RXQQ","A50NVZ6AI91O","3WRBLBQ2GRU63BU2LFOJL1G32T90GO","","359.7999999523163","img/food4.png","74","361.7000000476837","1","0","2","1","1,0.5,0,1,0.5,0,0.5,0,1","0,1,0.5,0,1,0.5,1,0.5,0","3","",""
"","html-keyboard-response","9","15557","0.0-9.0","3PM8NZGV8Z27ZASLIPN4DC34Q6RXQQ","A50NVZ6AI91O","3WRBLBQ2GRU63BU2LFOJL1G32T90GO","","null","<img src=""img/food4.png"" style=""width:200px;border:14px solid red;"">","null","","","","","","","","","",""
"","image-keyboard-response","10","15724","0.0-10.0","3PM8NZGV8Z27ZASLIPN4DC34Q6RXQQ","A50NVZ6AI91O","3WRBLBQ2GRU63BU2LFOJL1G32T90GO","","165.10000014305115","img/food1.png","75","167.20000004768372","2","1","1","1","1,0.5,0,1,0.5,0,0.5,0,1","0,1,0.5,0,1,0.5,1,0.5,0","3","",""
"","html-keyboard-response","11","16039","0.0-11.0","3PM8NZGV8Z27ZASLIPN4DC34Q6RXQQ","A50NVZ6AI91O","3WRBLBQ2GRU63BU2LFOJL1G32T90GO","","null","<img src=""img/food1.png"" style=""width:200px; border:14px solid green;"">","null","","","","","","","","","",""
"","image-keyboard-response","12","16139","0.0-12.0","3PM8NZGV8Z27ZASLIPN4DC34Q6RXQQ","A50NVZ6AI91O","3WRBLBQ2GRU63BU2LFOJL1G32T90GO","","97.79999995231628","img/food5.png","76","99.60000014305115","3","0","3","1","1,0.5,0,1,0.5,0,0.5,0,1","0,1,0.5,0,1,0.5,1,0.5,0","3","",""
"","html-keyboard-response","13","16451","0.0-13.0","3PM8NZGV8Z27ZASLIPN4DC34Q6RXQQ","A50NVZ6AI91O","3WRBLBQ2GRU63BU2LFOJL1G32T90GO","","null","<img src=""img/food5.png"" style=""width:200px;border:14px solid red;"">","null","","","","","","","","","",""
"","image-keyboard-response","14","16622","0.0-14.0","3PM8NZGV8Z27ZASLIPN4DC34Q6RXQQ","A50NVZ6AI91O","3WRBLBQ2GRU63BU2LFOJL1G32T90GO","","168.90000009536743","img/food4.png","75","170.29999995231628","2","1","2","1","1,0.5,0,1,0.5,0,0.5,0,1","0,1,0.5,0,1,0.5,1,0.5,0","3","",""
"","html-keyboard-response","15","16932","0.0-15.0","3PM8NZGV8Z27ZASLIPN4DC34Q6RXQQ","A50NVZ6AI91O","3WRBLBQ2GRU63BU2LFOJL1G32T90GO","","null","<img src=""img/food4.png"" style=""width:200px; border:14px solid green;"">","null","","","","","","","","","",""
"","image-keyboard-response","16","16984","0.0-16.0","3PM8NZGV8Z27ZASLIPN4DC34Q6RXQQ","A50NVZ6AI91O","3WRBLBQ2GRU63BU2LFOJL1G32T90GO","","50.59999990463257","img/food4.png","74","51.60000014305115","1","0","2","1","1,0.5,0,1,0.5,0,0.5,0,1","0,1,0.5,0,1,0.5,1,0.5,0","3","",""
"","html-keyboard-response","17","17297","0.0-17.0","3PM8NZGV8Z27ZASLIPN4DC34Q6RXQQ","A50NVZ6AI91O","3WRBLBQ2GRU63BU2LFOJL1G32T90GO","","null","<img src=""img/food4.png"" style=""width:200px;border:14px solid red;"">","null","","","","","","","","","",""
"","image-keyboard-response","18","17428","0.0-18.0","3PM8NZGV8Z27ZASLIPN4DC34Q6RXQQ","A50NVZ6AI91O","3WRBLBQ2GRU63BU2LFOJL1G32T90GO","","130.30000019073486","img/food5.png","74","130.89999985694885","1","1","3","1","1,0.5,0,1,0.5,0,0.5,0,1","0,1,0.5,0,1,0.5,1,0.5,0","3","",""
"","html-keyboard-response","19","17742","0.0-19.0","3PM8NZGV8Z27ZASLIPN4DC34Q6RXQQ","A50NVZ6AI91O","3WRBLBQ2GRU63BU2LFOJL1G32T90GO","","null","<img src=""img/food5.png"" style=""width:200px; border:14px solid green;"">","null","","","","","","","","","",""
"","image-keyboard-response","20","18194","0.0-20.0","3PM8NZGV8Z27ZASLIPN4DC34Q6RXQQ","A50NVZ6AI91O","3WRBLBQ2GRU63BU2LFOJL1G32T90GO","","449.90000009536743","img/food5.png","76","451.40000009536743","3","0","3","1","1,0.5,0,1,0.5,0,0.5,0,1","0,1,0.5,0,1,0.5,1,0.5,0","3","",""
"","html-keyboard-response","21","18507","0.0-21.0","3PM8NZGV8Z27ZASLIPN4DC34Q6RXQQ","A50NVZ6AI91O","3WRBLBQ2GRU63BU2LFOJL1G32T90GO","","null","<img src=""img/food5.png"" style=""width:200px;border:14px solid red;"">","null","","","","","","","","","",""
"","image-keyboard-response","22","18626","0.0-22.0","3PM8NZGV8Z27ZASLIPN4DC34Q6RXQQ","A50NVZ6AI91O","3WRBLBQ2GRU63BU2LFOJL1G32T90GO","","117.39999985694885","img/food1.png","74","119.09999990463257","1","0","1","1","1,0.5,0,1,0.5,0,0.5,0,1","0,1,0.5,0,1,0.5,1,0.5,0","3","",""
"","html-keyboard-response","23","18942","0.0-23.0","3PM8NZGV8Z27ZASLIPN4DC34Q6RXQQ","A50NVZ6AI91O","3WRBLBQ2GRU63BU2LFOJL1G32T90GO","","null","<img src=""img/food1.png"" style=""width:200px;border:14px solid red;"">","null","","","","","","","","","",""
"","image-keyboard-response","24","19207","0.0-24.0","3PM8NZGV8Z27ZASLIPN4DC34Q6RXQQ","A50NVZ6AI91O","3WRBLBQ2GRU63BU2LFOJL1G32T90GO","","262.5","img/food4.png","76","264.2999999523163","3","0","2","1","1,0.5,0,1,0.5,0,0.5,0,1","0,1,0.5,0,1,0.5,1,0.5,0","3","",""
"","html-keyboard-response","25","19523","0.0-25.0","3PM8NZGV8Z27ZASLIPN4DC34Q6RXQQ","A50NVZ6AI91O","3WRBLBQ2GRU63BU2LFOJL1G32T90GO","","null","<img src=""img/food4.png"" style=""width:200px;border:14px solid red;"">","null","","","","","","","","","",""
"","image-keyboard-response","26","19645","0.0-26.0","3PM8NZGV8Z27ZASLIPN4DC34Q6RXQQ","A50NVZ6AI91O","3WRBLBQ2GRU63BU2LFOJL1G32T90GO","","120.09999990463257","img/food5.png","74","121.90000009536743","1","1","3","1","1,0.5,0,1,0.5,0,0.5,0,1","0,1,0.5,0,1,0.5,1,0.5,0","3","",""
"","html-keyboard-response","27","19954","0.0-27.0","3PM8NZGV8Z27ZASLIPN4DC34Q6RXQQ","A50NVZ6AI91O","3WRBLBQ2GRU63BU2LFOJL1G32T90GO","","null","<img src=""img/food5.png"" style=""width:200px; border:14px solid green;"">","null","","","","","","","","","",""
"","image-keyboard-response","28","19968","0.0-28.0","3PM8NZGV8Z27ZASLIPN4DC34Q6RXQQ","A50NVZ6AI91O","3WRBLBQ2GRU63BU2LFOJL1G32T90GO","","13","img/food4.png","75","13.600000143051147","2","1","2","1","1,0.5,0,1,0.5,0,0.5,0,1","0,1,0.5,0,1,0.5,1,0.5,0","3","",""
"","html-keyboard-response","29","20285","0.0-29.0","3PM8NZGV8Z27ZASLIPN4DC34Q6RXQQ","A50NVZ6AI91O","3WRBLBQ2GRU63BU2LFOJL1G32T90GO","","null","<img src=""img/food4.png"" style=""width:200px; border:14px solid green;"">","null","","","","","","","","","",""
"","image-keyboard-response","30","20811","0.0-30.0","3PM8NZGV8Z27ZASLIPN4DC34Q6RXQQ","A50NVZ6AI91O","3WRBLBQ2GRU63BU2LFOJL1G32T90GO","","523.6999998092651","img/food4.png","74","525.5999999046326","1","0","2","1","1,0.5,0,1,0.5,0,0.5,0,1","0,1,0.5,0,1,0.5,1,0.5,0","3","",""
"","html-keyboard-response","31","21125","0.0-31.0","3PM8NZGV8Z27ZASLIPN4DC34Q6RXQQ","A50NVZ6AI91O","3WRBLBQ2GRU63BU2LFOJL1G32T90GO","","null","<img src=""img/food4.png"" style=""width:200px;border:14px solid red;"">","null","","","","","","","","","",""
"","image-keyboard-response","32","21386","0.0-32.0","3PM8NZGV8Z27ZASLIPN4DC34Q6RXQQ","A50NVZ6AI91O","3WRBLBQ2GRU63BU2LFOJL1G32T90GO","","260.39999985694885","img/food5.png","76","261.59999990463257","3","0","3","1","1,0.5,0,1,0.5,0,0.5,0,1","0,1,0.5,0,1,0.5,1,0.5,0","3","",""
"","html-keyboard-response","33","21699","0.0-33.0","3PM8NZGV8Z27ZASLIPN4DC34Q6RXQQ","A50NVZ6AI91O","3WRBLBQ2GRU63BU2LFOJL1G32T90GO","","null","<img src=""img/food5.png"" style=""width:200px;border:14px solid red;"">","null","","","","","","","","","",""
"","image-keyboard-response","34","21911","0.0-34.0","3PM8NZGV8Z27ZASLIPN4DC34Q6RXQQ","A50NVZ6AI91O","3WRBLBQ2GRU63BU2LFOJL1G32T90GO","","209.29999995231628","img/food5.png","74","211.10000014305115","1","1","3","1","1,0.5,0,1,0.5,0,0.5,0,1","0,1,0.5,0,1,0.5,1,0.5,0","3","",""
"","html-keyboard-response","35","22224","0.0-35.0","3PM8NZGV8Z27ZASLIPN4DC34Q6RXQQ","A50NVZ6AI91O","3WRBLBQ2GRU63BU2LFOJL1G32T90GO","","null","<img src=""img/food5.png"" style=""width:200px; border:14px solid green;"">","null","","","","","","","","","",""
"","image-keyboard-response","36","22485","0.0-36.0","3PM8NZGV8Z27ZASLIPN4DC34Q6RXQQ","A50NVZ6AI91O","3WRBLBQ2GRU63BU2LFOJL1G32T90GO","","260","img/food1.png","76","261","3","1","1","1","1,0.5,0,1,0.5,0,0.5,0,1","0,1,0.5,0,1,0.5,1,0.5,0","3","",""
"","html-keyboard-response","37","22797","0.0-37.0","3PM8NZGV8Z27ZASLIPN4DC34Q6RXQQ","A50NVZ6AI91O","3WRBLBQ2GRU63BU2LFOJL1G32T90GO","","null","<img src=""img/food1.png"" style=""width:200px; border:14px solid green;"">","null","","","","","","","","","",""
"","image-keyboard-response","38","22940","0.0-38.0","3PM8NZGV8Z27ZASLIPN4DC34Q6RXQQ","A50NVZ6AI91O","3WRBLBQ2GRU63BU2LFOJL1G32T90GO","","140","img/food1.png","74","141.79999995231628","1","0","1","1","1,0.5,0,1,0.5,0,0.5,0,1","0,1,0.5,0,1,0.5,1,0.5,0","3","",""
"","html-keyboard-response","39","23244","0.0-39.0","3PM8NZGV8Z27ZASLIPN4DC34Q6RXQQ","A50NVZ6AI91O","3WRBLBQ2GRU63BU2LFOJL1G32T90GO","","null","<img src=""img/food1.png"" style=""width:200px;border:14px solid red;"">","null","","","","","","","","","",""
"","image-keyboard-response","40","23494","0.0-40.0","3PM8NZGV8Z27ZASLIPN4DC34Q6RXQQ","A50NVZ6AI91O","3WRBLBQ2GRU63BU2LFOJL1G32T90GO","","247.60000014305115","img/food1.png","76","249.29999995231628","3","0","1","1","1,0.5,0,1,0.5,0,0.5,0,1","0,1,0.5,0,1,0.5,1,0.5,0","3","",""
"","html-keyboard-response","41","23807","0.0-41.0","3PM8NZGV8Z27ZASLIPN4DC34Q6RXQQ","A50NVZ6AI91O","3WRBLBQ2GRU63BU2LFOJL1G32T90GO","","null","<img src=""img/food1.png"" style=""width:200px;border:14px solid red;"">","null","","","","","","","","","",""
"","image-keyboard-response","42","23895","0.0-42.0","3PM8NZGV8Z27ZASLIPN4DC34Q6RXQQ","A50NVZ6AI91O","3WRBLBQ2GRU63BU2LFOJL1G32T90GO","","85.5","img/food1.png","74","87.40000009536743","1","0","1","1","1,0.5,0,1,0.5,0,0.5,0,1","0,1,0.5,0,1,0.5,1,0.5,0","3","",""
"","html-keyboard-response","43","24206","0.0-43.0","3PM8NZGV8Z27ZASLIPN4DC34Q6RXQQ","A50NVZ6AI91O","3WRBLBQ2GRU63BU2LFOJL1G32T90GO","","null","<img src=""img/food1.png"" style=""width:200px;border:14px solid red;"">","null","","","","","","","","","",""
"","image-keyboard-response","44","24255","0.0-44.0","3PM8NZGV8Z27ZASLIPN4DC34Q6RXQQ","A50NVZ6AI91O","3WRBLBQ2GRU63BU2LFOJL1G32T90GO","","46.299999952316284","img/food1.png","75","48.09999990463257","2","1","1","1","1,0.5,0,1,0.5,0,0.5,0,1","0,1,0.5,0,1,0.5,1,0.5,0","3","",""
"","html-keyboard-response","45","24572","0.0-45.0","3PM8NZGV8Z27ZASLIPN4DC34Q6RXQQ","A50NVZ6AI91O","3WRBLBQ2GRU63BU2LFOJL1G32T90GO","","null","<img src=""img/food1.png"" style=""width:200px; border:14px solid green;"">","null","","","","","","","","","",""
"","image-keyboard-response","46","24623","0.0-46.0","3PM8NZGV8Z27ZASLIPN4DC34Q6RXQQ","A50NVZ6AI91O","3WRBLBQ2GRU63BU2LFOJL1G32T90GO","","48.19999980926514","img/food4.png","76","50.200000047683716","3","0","2","1","1,0.5,0,1,0.5,0,0.5,0,1","0,1,0.5,0,1,0.5,1,0.5,0","3","",""
"","html-keyboard-response","47","24936","0.0-47.0","3PM8NZGV8Z27ZASLIPN4DC34Q6RXQQ","A50NVZ6AI91O","3WRBLBQ2GRU63BU2LFOJL1G32T90GO","","null","<img src=""img/food4.png"" style=""width:200px;border:14px solid red;"">","null","","","","","","","","","",""
"","image-keyboard-response","48","25129","0.0-48.0","3PM8NZGV8Z27ZASLIPN4DC34Q6RXQQ","A50NVZ6AI91O","3WRBLBQ2GRU63BU2LFOJL1G32T90GO","","191.20000004768372","img/food1.png","74","192.59999990463257","1","0","1","1","1,0.5,0,1,0.5,0,0.5,0,1","0,1,0.5,0,1,0.5,1,0.5,0","3","",""
"","html-keyboard-response","49","25443","0.0-49.0","3PM8NZGV8Z27ZASLIPN4DC34Q6RXQQ","A50NVZ6AI91O","3WRBLBQ2GRU63BU2LFOJL1G32T90GO","","null","<img src=""img/food1.png"" style=""width:200px;border:14px solid red;"">","null","","","","","","","","","",""
"","image-keyboard-response","50","25797","0.0-50.0","3PM8NZGV8Z27ZASLIPN4DC34Q6RXQQ","A50NVZ6AI91O","3WRBLBQ2GRU63BU2LFOJL1G32T90GO","","351.7000000476837","img/food5.png","75","354.19999980926514","2","0","3","1","1,0.5,0,1,0.5,0,0.5,0,1","0,1,0.5,0,1,0.5,1,0.5,0","3","",""
"","html-keyboard-response","51","26113","0.0-51.0","3PM8NZGV8Z27ZASLIPN4DC34Q6RXQQ","A50NVZ6AI91O","3WRBLBQ2GRU63BU2LFOJL1G32T90GO","","null","<img src=""img/food5.png"" style=""width:200px;border:14px solid red;"">","null","","","","","","","","","",""
"","image-keyboard-response","52","26485","0.0-52.0","3PM8NZGV8Z27ZASLIPN4DC34Q6RXQQ","A50NVZ6AI91O","3WRBLBQ2GRU63BU2LFOJL1G32T90GO","","369.2999999523163","img/food5.png","75","371.90000009536743","2","0","3","1","1,0.5,0,1,0.5,0,0.5,0,1","0,1,0.5,0,1,0.5,1,0.5,0","3","",""
"","html-keyboard-response","53","26798","0.0-53.0","3PM8NZGV8Z27ZASLIPN4DC34Q6RXQQ","A50NVZ6AI91O","3WRBLBQ2GRU63BU2LFOJL1G32T90GO","","null","<img src=""img/food5.png"" style=""width:200px;border:14px solid red;"">","null","","","","","","","","","",""
"","image-keyboard-response","54","27052","0.0-54.0","3PM8NZGV8Z27ZASLIPN4DC34Q6RXQQ","A50NVZ6AI91O","3WRBLBQ2GRU63BU2LFOJL1G32T90GO","","251.10000014305115","img/food4.png","76","253.40000009536743","3","1","2","1","1,0.5,0,1,0.5,0,0.5,0,1","0,1,0.5,0,1,0.5,1,0.5,0","3","",""
"","html-keyboard-response","55","27367","0.0-55.0","3PM8NZGV8Z27ZASLIPN4DC34Q6RXQQ","A50NVZ6AI91O","3WRBLBQ2GRU63BU2LFOJL1G32T90GO","","null","<img src=""img/food4.png"" style=""width:200px; border:14px solid green;"">","null","","","","","","","","","",""
"","image-keyboard-response","56","27427","0.0-56.0","3PM8NZGV8Z27ZASLIPN4DC34Q6RXQQ","A50NVZ6AI91O","3WRBLBQ2GRU63BU2LFOJL1G32T90GO","","57.89999985694885","img/food1.png","74","59.60000014305115","1","0","1","1","1,0.5,0,1,0.5,0,0.5,0,1","0,1,0.5,0,1,0.5,1,0.5,0","3","",""
"","html-keyboard-response","57","27730","0.0-57.0","3PM8NZGV8Z27ZASLIPN4DC34Q6RXQQ","A50NVZ6AI91O","3WRBLBQ2GRU63BU2LFOJL1G32T90GO","","null","<img src=""img/food1.png"" style=""width:200px;border:14px solid red;"">","null","","","","","","","","","",""
"","image-keyboard-response","58","27832","0.0-58.0","3PM8NZGV8Z27ZASLIPN4DC34Q6RXQQ","A50NVZ6AI91O","3WRBLBQ2GRU63BU2LFOJL1G32T90GO","","101","img/food1.png","74","101.90000009536743","1","0","1","1","1,0.5,0,1,0.5,0,0.5,0,1","0,1,0.5,0,1,0.5,1,0.5,0","3","",""
"","html-keyboard-response","59","28144","0.0-59.0","3PM8NZGV8Z27ZASLIPN4DC34Q6RXQQ","A50NVZ6AI91O","3WRBLBQ2GRU63BU2LFOJL1G32T90GO","","null","<img src=""img/food1.png"" style=""width:200px;border:14px solid red;"">","null","","","","","","","","","",""
"","image-keyboard-response","60","28280","0.0-60.0","3PM8NZGV8Z27ZASLIPN4DC34Q6RXQQ","A50NVZ6AI91O","3WRBLBQ2GRU63BU2LFOJL1G32T90GO","","134.39999985694885","img/food1.png","76","135.5","3","0","1","1","1,0.5,0,1,0.5,0,0.5,0,1","0,1,0.5,0,1,0.5,1,0.5,0","3","",""
"","html-keyboard-response","61","28593","0.0-61.0","3PM8NZGV8Z27ZASLIPN4DC34Q6RXQQ","A50NVZ6AI91O","3WRBLBQ2GRU63BU2LFOJL1G32T90GO","","null","<img src=""img/food1.png"" style=""width:200px;border:14px solid red;"">","null","","","","","","","","","",""
"","image-keyboard-response","62","28671","0.0-62.0","3PM8NZGV8Z27ZASLIPN4DC34Q6RXQQ","A50NVZ6AI91O","3WRBLBQ2GRU63BU2LFOJL1G32T90GO","","75.5","img/food4.png","75","77.20000004768372","2","1","2","1","1,0.5,0,1,0.5,0,0.5,0,1","0,1,0.5,0,1,0.5,1,0.5,0","3","",""
"","html-keyboard-response","63","28973","0.0-63.0","3PM8NZGV8Z27ZASLIPN4DC34Q6RXQQ","A50NVZ6AI91O","3WRBLBQ2GRU63BU2LFOJL1G32T90GO","","null","<img src=""img/food4.png"" style=""width:200px; border:14px solid green;"">","null","","","","","","","","","",""
"","image-keyboard-response","64","29195","0.0-64.0","3PM8NZGV8Z27ZASLIPN4DC34Q6RXQQ","A50NVZ6AI91O","3WRBLBQ2GRU63BU2LFOJL1G32T90GO","","219.39999985694885","img/food5.png","74","221.09999990463257","1","1","3","1","1,0.5,0,1,0.5,0,0.5,0,1","0,1,0.5,0,1,0.5,1,0.5,0","3","",""
"","html-keyboard-response","65","29511","0.0-65.0","3PM8NZGV8Z27ZASLIPN4DC34Q6RXQQ","A50NVZ6AI91O","3WRBLBQ2GRU63BU2LFOJL1G32T90GO","","null","<img src=""img/food5.png"" style=""width:200px; border:14px solid green;"">","null","","","","","","","","","",""
"","image-keyboard-response","66","29543","0.0-66.0","3PM8NZGV8Z27ZASLIPN4DC34Q6RXQQ","A50NVZ6AI91O","3WRBLBQ2GRU63BU2LFOJL1G32T90GO","","30.399999856948853","img/food5.png","74","31.700000047683716","1","1","3","1","1,0.5,0,1,0.5,0,0.5,0,1","0,1,0.5,0,1,0.5,1,0.5,0","3","",""
"","html-keyboard-response","67","29847","0.0-67.0","3PM8NZGV8Z27ZASLIPN4DC34Q6RXQQ","A50NVZ6AI91O","3WRBLBQ2GRU63BU2LFOJL1G32T90GO","","null","<img src=""img/food5.png"" style=""width:200px; border:14px solid green;"">","null","","","","","","","","","",""
"","image-keyboard-response","68","29939","0.0-68.0","3PM8NZGV8Z27ZASLIPN4DC34Q6RXQQ","A50NVZ6AI91O","3WRBLBQ2GRU63BU2LFOJL1G32T90GO","","89.90000009536743","img/food1.png","76","91.59999990463257","3","0","1","1","1,0.5,0,1,0.5,0,0.5,0,1","0,1,0.5,0,1,0.5,1,0.5,0","3","",""
"","html-keyboard-response","69","30242","0.0-69.0","3PM8NZGV8Z27ZASLIPN4DC34Q6RXQQ","A50NVZ6AI91O","3WRBLBQ2GRU63BU2LFOJL1G32T90GO","","null","<img src=""img/food1.png"" style=""width:200px;border:14px solid red;"">","null","","","","","","","","","",""
"","image-keyboard-response","70","30419","0.0-70.0","3PM8NZGV8Z27ZASLIPN4DC34Q6RXQQ","A50NVZ6AI91O","3WRBLBQ2GRU63BU2LFOJL1G32T90GO","","175.70000004768372","img/food5.png","76","176.90000009536743","3","0","3","1","1,0.5,0,1,0.5,0,0.5,0,1","0,1,0.5,0,1,0.5,1,0.5,0","3","",""
"","html-keyboard-response","71","30722","0.0-71.0","3PM8NZGV8Z27ZASLIPN4DC34Q6RXQQ","A50NVZ6AI91O","3WRBLBQ2GRU63BU2LFOJL1G32T90GO","","null","<img src=""img/food5.png"" style=""width:200px;border:14px solid red;"">","null","","","","","","","","","",""
"","image-keyboard-response","72","30741","0.0-72.0","3PM8NZGV8Z27ZASLIPN4DC34Q6RXQQ","A50NVZ6AI91O","3WRBLBQ2GRU63BU2LFOJL1G32T90GO","","15.700000047683716","img/food5.png","74","17.899999856948853","1","1","3","1","1,0.5,0,1,0.5,0,0.5,0,1","0,1,0.5,0,1,0.5,1,0.5,0","3","",""
"","html-keyboard-response","73","31044","0.0-73.0","3PM8NZGV8Z27ZASLIPN4DC34Q6RXQQ","A50NVZ6AI91O","3WRBLBQ2GRU63BU2LFOJL1G32T90GO","","null","<img src=""img/food5.png"" style=""width:200px; border:14px solid green;"">","null","","","","","","","","","",""
"","image-keyboard-response","74","31138","0.0-74.0","3PM8NZGV8Z27ZASLIPN4DC34Q6RXQQ","A50NVZ6AI91O","3WRBLBQ2GRU63BU2LFOJL1G32T90GO","","91.20000004768372","img/food5.png","74","93.20000004768372","1","1","3","1","1,0.5,0,1,0.5,0,0.5,0,1","0,1,0.5,0,1,0.5,1,0.5,0","3","",""
"","html-keyboard-response","75","31454","0.0-75.0","3PM8NZGV8Z27ZASLIPN4DC34Q6RXQQ","A50NVZ6AI91O","3WRBLBQ2GRU63BU2LFOJL1G32T90GO","","null","<img src=""img/food5.png"" style=""width:200px; border:14px solid green;"">","null","","","","","","","","","",""
"","image-keyboard-response","76","31475","0.0-76.0","3PM8NZGV8Z27ZASLIPN4DC34Q6RXQQ","A50NVZ6AI91O","3WRBLBQ2GRU63BU2LFOJL1G32T90GO","","19.5","img/food5.png","76","20.700000047683716","3","0","3","1","1,0.5,0,1,0.5,0,0.5,0,1","0,1,0.5,0,1,0.5,1,0.5,0","3","",""
"","html-keyboard-response","77","31776","0.0-77.0","3PM8NZGV8Z27ZASLIPN4DC34Q6RXQQ","A50NVZ6AI91O","3WRBLBQ2GRU63BU2LFOJL1G32T90GO","","null","<img src=""img/food5.png"" style=""width:200px;border:14px solid red;"">","null","","","","","","","","","",""
"","image-keyboard-response","78","31828","0.0-78.0","3PM8NZGV8Z27ZASLIPN4DC34Q6RXQQ","A50NVZ6AI91O","3WRBLBQ2GRU63BU2LFOJL1G32T90GO","","50.60000014305115","img/food1.png","76","51.59999990463257","3","0","1","1","1,0.5,0,1,0.5,0,0.5,0,1","0,1,0.5,0,1,0.5,1,0.5,0","3","",""
"","html-keyboard-response","79","32131","0.0-79.0","3PM8NZGV8Z27ZASLIPN4DC34Q6RXQQ","A50NVZ6AI91O","3WRBLBQ2GRU63BU2LFOJL1G32T90GO","","null","<img src=""img/food1.png"" style=""width:200px;border:14px solid red;"">","null","","","","","","","","","",""
"","image-keyboard-response","80","32246","0.0-80.0","3PM8NZGV8Z27ZASLIPN4DC34Q6RXQQ","A50NVZ6AI91O","3WRBLBQ2GRU63BU2LFOJL1G32T90GO","","112.90000009536743","img/food4.png","74","114.29999995231628","1","0","2","1","1,0.5,0,1,0.5,0,0.5,0,1","0,1,0.5,0,1,0.5,1,0.5,0","3","",""
"","html-keyboard-response","81","32548","0.0-81.0","3PM8NZGV8Z27ZASLIPN4DC34Q6RXQQ","A50NVZ6AI91O","3WRBLBQ2GRU63BU2LFOJL1G32T90GO","","null","<img src=""img/food4.png"" style=""width:200px;border:14px solid red;"">","null","","","","","","","","","",""
"","image-keyboard-response","82","32562","0.0-82.0","3PM8NZGV8Z27ZASLIPN4DC34Q6RXQQ","A50NVZ6AI91O","3WRBLBQ2GRU63BU2LFOJL1G32T90GO","","11.700000047683716","img/food4.png","74","13.099999904632568","1","0","2","1","1,0.5,0,1,0.5,0,0.5,0,1","0,1,0.5,0,1,0.5,1,0.5,0","3","",""
"","html-keyboard-response","83","32863","0.0-83.0","3PM8NZGV8Z27ZASLIPN4DC34Q6RXQQ","A50NVZ6AI91O","3WRBLBQ2GRU63BU2LFOJL1G32T90GO","","null","<img src=""img/food4.png"" style=""width:200px;border:14px solid red;"">","null","","","","","","","","","",""
"","image-keyboard-response","84","32884","0.0-84.0","3PM8NZGV8Z27ZASLIPN4DC34Q6RXQQ","A50NVZ6AI91O","3WRBLBQ2GRU63BU2LFOJL1G32T90GO","","18.699999809265137","img/food1.png","75","19.90000009536743","2","1","1","1","1,0.5,0,1,0.5,0,0.5,0,1","0,1,0.5,0,1,0.5,1,0.5,0","3","",""
"","html-keyboard-response","85","33186","0.0-85.0","3PM8NZGV8Z27ZASLIPN4DC34Q6RXQQ","A50NVZ6AI91O","3WRBLBQ2GRU63BU2LFOJL1G32T90GO","","null","<img src=""img/food1.png"" style=""width:200px; border:14px solid green;"">","null","","","","","","","","","",""
"","image-keyboard-response","86","33602","0.0-86.0","3PM8NZGV8Z27ZASLIPN4DC34Q6RXQQ","A50NVZ6AI91O","3WRBLBQ2GRU63BU2LFOJL1G32T90GO","","413.2999999523163","img/food1.png","76","415.2000000476837","3","0","1","1","1,0.5,0,1,0.5,0,0.5,0,1","0,1,0.5,0,1,0.5,1,0.5,0","3","",""
"","html-keyboard-response","87","33905","0.0-87.0","3PM8NZGV8Z27ZASLIPN4DC34Q6RXQQ","A50NVZ6AI91O","3WRBLBQ2GRU63BU2LFOJL1G32T90GO","","null","<img src=""img/food1.png"" style=""width:200px;border:14px solid red;"">","null","","","","","","","","","",""
"","image-keyboard-response","88","33970","0.0-88.0","3PM8NZGV8Z27ZASLIPN4DC34Q6RXQQ","A50NVZ6AI91O","3WRBLBQ2GRU63BU2LFOJL1G32T90GO","","62.700000047683716","img/food1.png","74","64","1","0","1","1","1,0.5,0,1,0.5,0,0.5,0,1","0,1,0.5,0,1,0.5,1,0.5,0","3","",""
"","html-keyboard-response","89","34273","0.0-89.0","3PM8NZGV8Z27ZASLIPN4DC34Q6RXQQ","A50NVZ6AI91O","3WRBLBQ2GRU63BU2LFOJL1G32T90GO","","null","<img src=""img/food1.png"" style=""width:200px;border:14px solid red;"">","null","","","","","","","","","",""
"","image-keyboard-response","90","34451","0.0-90.0","3PM8NZGV8Z27ZASLIPN4DC34Q6RXQQ","A50NVZ6AI91O","3WRBLBQ2GRU63BU2LFOJL1G32T90GO","","176.69999980926514","img/food4.png","74","178","1","0","2","1","1,0.5,0,1,0.5,0,0.5,0,1","0,1,0.5,0,1,0.5,1,0.5,0","3","",""
"","html-keyboard-response","91","34753","0.0-91.0","3PM8NZGV8Z27ZASLIPN4DC34Q6RXQQ","A50NVZ6AI91O","3WRBLBQ2GRU63BU2LFOJL1G32T90GO","","null","<img src=""img/food4.png"" style=""width:200px;border:14px solid red;"">","null","","","","","","","","","",""
"","image-keyboard-response","92","34883","0.0-92.0","3PM8NZGV8Z27ZASLIPN4DC34Q6RXQQ","A50NVZ6AI91O","3WRBLBQ2GRU63BU2LFOJL1G32T90GO","","127.5","img/food5.png","76","129.29999995231628","3","0","3","1","1,0.5,0,1,0.5,0,0.5,0,1","0,1,0.5,0,1,0.5,1,0.5,0","3","",""
"","html-keyboard-response","93","35187","0.0-93.0","3PM8NZGV8Z27ZASLIPN4DC34Q6RXQQ","A50NVZ6AI91O","3WRBLBQ2GRU63BU2LFOJL1G32T90GO","","null","<img src=""img/food5.png"" style=""width:200px;border:14px solid red;"">","null","","","","","","","","","",""
"","image-keyboard-response","94","35327","0.0-94.0","3PM8NZGV8Z27ZASLIPN4DC34Q6RXQQ","A50NVZ6AI91O","3WRBLBQ2GRU63BU2LFOJL1G32T90GO","","137.70000004768372","img/food1.png","76","139.5","3","0","1","1","1,0.5,0,1,0.5,0,0.5,0,1","0,1,0.5,0,1,0.5,1,0.5,0","3","",""
"","html-keyboard-response","95","35631","0.0-95.0","3PM8NZGV8Z27ZASLIPN4DC34Q6RXQQ","A50NVZ6AI91O","3WRBLBQ2GRU63BU2LFOJL1G32T90GO","","null","<img src=""img/food1.png"" style=""width:200px;border:14px solid red;"">","null","","","","","","","","","",""
"","image-keyboard-response","96","35813","0.0-96.0","3PM8NZGV8Z27ZASLIPN4DC34Q6RXQQ","A50NVZ6AI91O","3WRBLBQ2GRU63BU2LFOJL1G32T90GO","","180.40000009536743","img/food5.png","74","182.19999980926514","1","1","3","1","1,0.5,0,1,0.5,0,0.5,0,1","0,1,0.5,0,1,0.5,1,0.5,0","3","",""
"","html-keyboard-response","97","36117","0.0-97.0","3PM8NZGV8Z27ZASLIPN4DC34Q6RXQQ","A50NVZ6AI91O","3WRBLBQ2GRU63BU2LFOJL1G32T90GO","","null","<img src=""img/food5.png"" style=""width:200px; border:14px solid green;"">","null","","","","","","","","","",""
"","image-keyboard-response","98","36254","0.0-98.0","3PM8NZGV8Z27ZASLIPN4DC34Q6RXQQ","A50NVZ6AI91O","3WRBLBQ2GRU63BU2LFOJL1G32T90GO","","134.80000019073486","img/food5.png","74","136.79999995231628","1","1","3","1","1,0.5,0,1,0.5,0,0.5,0,1","0,1,0.5,0,1,0.5,1,0.5,0","3","",""
"","html-keyboard-response","99","36558","0.0-99.0","3PM8NZGV8Z27ZASLIPN4DC34Q6RXQQ","A50NVZ6AI91O","3WRBLBQ2GRU63BU2LFOJL1G32T90GO","","null","<img src=""img/food5.png"" style=""width:200px; border:14px solid green;"">","null","","","","","","","","","",""
"","image-keyboard-response","100","36565","0.0-100.0","3PM8NZGV8Z27ZASLIPN4DC34Q6RXQQ","A50NVZ6AI91O","3WRBLBQ2GRU63BU2LFOJL1G32T90GO","","5.799999952316284","img/food1.png","75","7.299999952316284","2","1","1","1","1,0.5,0,1,0.5,0,0.5,0,1","0,1,0.5,0,1,0.5,1,0.5,0","3","",""
"","html-keyboard-response","101","36868","0.0-101.0","3PM8NZGV8Z27ZASLIPN4DC34Q6RXQQ","A50NVZ6AI91O","3WRBLBQ2GRU63BU2LFOJL1G32T90GO","","null","<img src=""img/food1.png"" style=""width:200px; border:14px solid green;"">","null","","","","","","","","","",""
"","image-keyboard-response","102","37125","0.0-102.0","3PM8NZGV8Z27ZASLIPN4DC34Q6RXQQ","A50NVZ6AI91O","3WRBLBQ2GRU63BU2LFOJL1G32T90GO","","254.29999995231628","img/food1.png","75","256.2999999523163","2","1","1","1","1,0.5,0,1,0.5,0,0.5,0,1","0,1,0.5,0,1,0.5,1,0.5,0","3","",""
"","html-keyboard-response","103","37427","0.0-103.0","3PM8NZGV8Z27ZASLIPN4DC34Q6RXQQ","A50NVZ6AI91O","3WRBLBQ2GRU63BU2LFOJL1G32T90GO","","null","<img src=""img/food1.png"" style=""width:200px; border:14px solid green;"">","null","","","","","","","","","",""
"","image-keyboard-response","104","37702","0.0-104.0","3PM8NZGV8Z27ZASLIPN4DC34Q6RXQQ","A50NVZ6AI91O","3WRBLBQ2GRU63BU2LFOJL1G32T90GO","","271.89999985694885","img/food4.png","76","273.60000014305115","3","0","2","1","1,0.5,0,1,0.5,0,0.5,0,1","0,1,0.5,0,1,0.5,1,0.5,0","3","",""
"","html-keyboard-response","105","38005","0.0-105.0","3PM8NZGV8Z27ZASLIPN4DC34Q6RXQQ","A50NVZ6AI91O","3WRBLBQ2GRU63BU2LFOJL1G32T90GO","","null","<img src=""img/food4.png"" style=""width:200px;border:14px solid red;"">","null","","","","","","","","","",""
"","image-keyboard-response","106","38154","0.0-106.0","3PM8NZGV8Z27ZASLIPN4DC34Q6RXQQ","A50NVZ6AI91O","3WRBLBQ2GRU63BU2LFOJL1G32T90GO","","145.70000004768372","img/food5.png","74","147.59999990463257","1","1","3","1","1,0.5,0,1,0.5,0,0.5,0,1","0,1,0.5,0,1,0.5,1,0.5,0","3","",""
"","html-keyboard-response","107","38458","0.0-107.0","3PM8NZGV8Z27ZASLIPN4DC34Q6RXQQ","A50NVZ6AI91O","3WRBLBQ2GRU63BU2LFOJL1G32T90GO","","null","<img src=""img/food5.png"" style=""width:200px; border:14px solid green;"">","null","","","","","","","","","",""
"","image-keyboard-response","108","38499","0.0-108.0","3PM8NZGV8Z27ZASLIPN4DC34Q6RXQQ","A50NVZ6AI91O","3WRBLBQ2GRU63BU2LFOJL1G32T90GO","","39","img/food1.png","74","40.40000009536743","1","0","1","1","1,0.5,0,1,0.5,0,0.5,0,1","0,1,0.5,0,1,0.5,1,0.5,0","3","",""
"","html-keyboard-response","109","38802","0.0-109.0","3PM8NZGV8Z27ZASLIPN4DC34Q6RXQQ","A50NVZ6AI91O","3WRBLBQ2GRU63BU2LFOJL1G32T90GO","","null","<img src=""img/food1.png"" style=""width:200px;border:14px solid red;"">","null","","","","","","","","","",""
"","image-keyboard-response","110","38870","0.0-110.0","3PM8NZGV8Z27ZASLIPN4DC34Q6RXQQ","A50NVZ6AI91O","3WRBLBQ2GRU63BU2LFOJL1G32T90GO","","66.09999990463257","img/food4.png","76","67.5","3","0","2","1","1,0.5,0,1,0.5,0,0.5,0,1","0,1,0.5,0,1,0.5,1,0.5,0","3","",""
"","html-keyboard-response","111","39171","0.0-111.0","3PM8NZGV8Z27ZASLIPN4DC34Q6RXQQ","A50NVZ6AI91O","3WRBLBQ2GRU63BU2LFOJL1G32T90GO","","null","<img src=""img/food4.png"" style=""width:200px;border:14px solid red;"">","null","","","","","","","","","",""
"","image-keyboard-response","112","39288","0.0-112.0","3PM8NZGV8Z27ZASLIPN4DC34Q6RXQQ","A50NVZ6AI91O","3WRBLBQ2GRU63BU2LFOJL1G32T90GO","","113.90000009536743","img/food5.png","76","115.60000014305115","3","0","3","1","1,0.5,0,1,0.5,0,0.5,0,1","0,1,0.5,0,1,0.5,1,0.5,0","3","",""
"","html-keyboard-response","113","39590","0.0-113.0","3PM8NZGV8Z27ZASLIPN4DC34Q6RXQQ","A50NVZ6AI91O","3WRBLBQ2GRU63BU2LFOJL1G32T90GO","","null","<img src=""img/food5.png"" style=""width:200px;border:14px solid red;"">","null","","","","","","","","","",""
"","image-keyboard-response","114","39767","0.0-114.0","3PM8NZGV8Z27ZASLIPN4DC34Q6RXQQ","A50NVZ6AI91O","3WRBLBQ2GRU63BU2LFOJL1G32T90GO","","174.40000009536743","img/food5.png","74","176.39999985694885","1","1","3","1","1,0.5,0,1,0.5,0,0.5,0,1","0,1,0.5,0,1,0.5,1,0.5,0","3","",""
"","html-keyboard-response","115","40071","0.0-115.0","3PM8NZGV8Z27ZASLIPN4DC34Q6RXQQ","A50NVZ6AI91O","3WRBLBQ2GRU63BU2LFOJL1G32T90GO","","null","<img src=""img/food5.png"" style=""width:200px; border:14px solid green;"">","null","","","","","","","","","",""
"","image-keyboard-response","116","40101","0.0-116.0","3PM8NZGV8Z27ZASLIPN4DC34Q6RXQQ","A50NVZ6AI91O","3WRBLBQ2GRU63BU2LFOJL1G32T90GO","","28.799999952316284","img/food1.png","74","30.09999990463257","1","0","1","1","1,0.5,0,1,0.5,0,0.5,0,1","0,1,0.5,0,1,0.5,1,0.5,0","3","",""
"","html-keyboard-response","117","40403","0.0-117.0","3PM8NZGV8Z27ZASLIPN4DC34Q6RXQQ","A50NVZ6AI91O","3WRBLBQ2GRU63BU2LFOJL1G32T90GO","","null","<img src=""img/food1.png"" style=""width:200px;border:14px solid red;"">","null","","","","","","","","","",""
"","image-keyboard-response","118","40515","0.0-118.0","3PM8NZGV8Z27ZASLIPN4DC34Q6RXQQ","A50NVZ6AI91O","3WRBLBQ2GRU63BU2LFOJL1G32T90GO","","111.09999990463257","img/food4.png","76","112.5","3","0","2","1","1,0.5,0,1,0.5,0,0.5,0,1","0,1,0.5,0,1,0.5,1,0.5,0","3","",""
"","html-keyboard-response","119","40818","0.0-119.0","3PM8NZGV8Z27ZASLIPN4DC34Q6RXQQ","A50NVZ6AI91O","3WRBLBQ2GRU63BU2LFOJL1G32T90GO","","null","<img src=""img/food4.png"" style=""width:200px;border:14px solid red;"">","null","","","","","","","","","",""
"","image-keyboard-response","120","40940","0.0-120.0","3PM8NZGV8Z27ZASLIPN4DC34Q6RXQQ","A50NVZ6AI91O","3WRBLBQ2GRU63BU2LFOJL1G32T90GO","","121","img/food4.png","76","122","3","0","2","1","1,0.5,0,1,0.5,0,0.5,0,1","0,1,0.5,0,1,0.5,1,0.5,0","3","",""
"","html-keyboard-response","121","41243","0.0-121.0","3PM8NZGV8Z27ZASLIPN4DC34Q6RXQQ","A50NVZ6AI91O","3WRBLBQ2GRU63BU2LFOJL1G32T90GO","","null","<img src=""img/food4.png"" style=""width:200px;border:14px solid red;"">","null","","","","","","","","","",""
"","image-keyboard-response","122","41433","0.0-122.0","3PM8NZGV8Z27ZASLIPN4DC34Q6RXQQ","A50NVZ6AI91O","3WRBLBQ2GRU63BU2LFOJL1G32T90GO","","187.20000004768372","img/food4.png","74","189","1","0","2","1","1,0.5,0,1,0.5,0,0.5,0,1","0,1,0.5,0,1,0.5,1,0.5,0","3","",""
"","html-keyboard-response","123","41736","0.0-123.0","3PM8NZGV8Z27ZASLIPN4DC34Q6RXQQ","A50NVZ6AI91O","3WRBLBQ2GRU63BU2LFOJL1G32T90GO","","null","<img src=""img/food4.png"" style=""width:200px;border:14px solid red;"">","null","","","","","","","","","",""
"","image-keyboard-response","124","41828","0.0-124.0","3PM8NZGV8Z27ZASLIPN4DC34Q6RXQQ","A50NVZ6AI91O","3WRBLBQ2GRU63BU2LFOJL1G32T90GO","","89.80000019073486","img/food4.png","74","91.69999980926514","1","0","2","1","1,0.5,0,1,0.5,0,0.5,0,1","0,1,0.5,0,1,0.5,1,0.5,0","3","",""
"","html-keyboard-response","125","42131","0.0-125.0","3PM8NZGV8Z27ZASLIPN4DC34Q6RXQQ","A50NVZ6AI91O","3WRBLBQ2GRU63BU2LFOJL1G32T90GO","","null","<img src=""img/food4.png"" style=""width:200px;border:14px solid red;"">","null","","","","","","","","","",""
"","image-keyboard-response","126","42323","0.0-126.0","3PM8NZGV8Z27ZASLIPN4DC34Q6RXQQ","A50NVZ6AI91O","3WRBLBQ2GRU63BU2LFOJL1G32T90GO","","189.59999990463257","img/food1.png","76","191.69999980926514","3","0","1","1","1,0.5,0,1,0.5,0,0.5,0,1","0,1,0.5,0,1,0.5,1,0.5,0","3","",""
"","html-keyboard-response","127","42627","0.0-127.0","3PM8NZGV8Z27ZASLIPN4DC34Q6RXQQ","A50NVZ6AI91O","3WRBLBQ2GRU63BU2LFOJL1G32T90GO","","null","<img src=""img/food1.png"" style=""width:200px;border:14px solid red;"">","null","","","","","","","","","",""
"","image-keyboard-response","128","42682","0.0-128.0","3PM8NZGV8Z27ZASLIPN4DC34Q6RXQQ","A50NVZ6AI91O","3WRBLBQ2GRU63BU2LFOJL1G32T90GO","","52.89999985694885","img/food4.png","76","54.80000019073486","3","1","2","1","1,0.5,0,1,0.5,0,0.5,0,1","0,1,0.5,0,1,0.5,1,0.5,0","3","",""
"","html-keyboard-response","129","42985","0.0-129.0","3PM8NZGV8Z27ZASLIPN4DC34Q6RXQQ","A50NVZ6AI91O","3WRBLBQ2GRU63BU2LFOJL1G32T90GO","","null","<img src=""img/food4.png"" style=""width:200px; border:14px solid green;"">","null","","","","","","","","","",""
"","image-keyboard-response","130","43192","0.0-130.0","3PM8NZGV8Z27ZASLIPN4DC34Q6RXQQ","A50NVZ6AI91O","3WRBLBQ2GRU63BU2LFOJL1G32T90GO","","204.60000014305115","img/food5.png","74","206.39999985694885","1","1","3","1","1,0.5,0,1,0.5,0,0.5,0,1","0,1,0.5,0,1,0.5,1,0.5,0","3","",""
"","html-keyboard-response","131","43496","0.0-131.0","3PM8NZGV8Z27ZASLIPN4DC34Q6RXQQ","A50NVZ6AI91O","3WRBLBQ2GRU63BU2LFOJL1G32T90GO","","null","<img src=""img/food5.png"" style=""width:200px; border:14px solid green;"">","null","","","","","","","","","",""
"","image-keyboard-response","132","43539","0.0-132.0","3PM8NZGV8Z27ZASLIPN4DC34Q6RXQQ","A50NVZ6AI91O","3WRBLBQ2GRU63BU2LFOJL1G32T90GO","","41.60000014305115","img/food5.png","74","43.09999990463257","1","1","3","1","1,0.5,0,1,0.5,0,0.5,0,1","0,1,0.5,0,1,0.5,1,0.5,0","3","",""
"","html-keyboard-response","133","43841","0.0-133.0","3PM8NZGV8Z27ZASLIPN4DC34Q6RXQQ","A50NVZ6AI91O","3WRBLBQ2GRU63BU2LFOJL1G32T90GO","","null","<img src=""img/food5.png"" style=""width:200px; border:14px solid green;"">","null","","","","","","","","","",""
"","image-keyboard-response","134","44027","0.0-134.0","3PM8NZGV8Z27ZASLIPN4DC34Q6RXQQ","A50NVZ6AI91O","3WRBLBQ2GRU63BU2LFOJL1G32T90GO","","184.09999990463257","img/food5.png","76","185.5","3","0","3","1","1,0.5,0,1,0.5,0,0.5,0,1","0,1,0.5,0,1,0.5,1,0.5,0","3","",""
"","html-keyboard-response","135","44330","0.0-135.0","3PM8NZGV8Z27ZASLIPN4DC34Q6RXQQ","A50NVZ6AI91O","3WRBLBQ2GRU63BU2LFOJL1G32T90GO","","null","<img src=""img/food5.png"" style=""width:200px;border:14px solid red;"">","null","","","","","","","","","",""
"","image-keyboard-response","136","44513","0.0-136.0","3PM8NZGV8Z27ZASLIPN4DC34Q6RXQQ","A50NVZ6AI91O","3WRBLBQ2GRU63BU2LFOJL1G32T90GO","","180.40000009536743","img/food5.png","76","182.29999995231628","3","0","3","1","1,0.5,0,1,0.5,0,0.5,0,1","0,1,0.5,0,1,0.5,1,0.5,0","3","",""
"","html-keyboard-response","137","44817","0.0-137.0","3PM8NZGV8Z27ZASLIPN4DC34Q6RXQQ","A50NVZ6AI91O","3WRBLBQ2GRU63BU2LFOJL1G32T90GO","","null","<img src=""img/food5.png"" style=""width:200px;border:14px solid red;"">","null","","","","","","","","","",""
"","image-keyboard-response","138","44991","0.0-138.0","3PM8NZGV8Z27ZASLIPN4DC34Q6RXQQ","A50NVZ6AI91O","3WRBLBQ2GRU63BU2LFOJL1G32T90GO","","173","img/food4.png","75","174.09999990463257","2","1","2","1","1,0.5,0,1,0.5,0,0.5,0,1","0,1,0.5,0,1,0.5,1,0.5,0","3","",""
"","html-keyboard-response","139","45294","0.0-139.0","3PM8NZGV8Z27ZASLIPN4DC34Q6RXQQ","A50NVZ6AI91O","3WRBLBQ2GRU63BU2LFOJL1G32T90GO","","null","<img src=""img/food4.png"" style=""width:200px; border:14px solid green;"">","null","","","","","","","","","",""
"","image-keyboard-response","140","45887","0.0-140.0","3PM8NZGV8Z27ZASLIPN4DC34Q6RXQQ","A50NVZ6AI91O","3WRBLBQ2GRU63BU2LFOJL1G32T90GO","","592","img/food5.png","74","593.0999999046326","1","1","3","1","1,0.5,0,1,0.5,0,0.5,0,1","0,1,0.5,0,1,0.5,1,0.5,0","3","",""
"","html-keyboard-response","141","46191","0.0-141.0","3PM8NZGV8Z27ZASLIPN4DC34Q6RXQQ","A50NVZ6AI91O","3WRBLBQ2GRU63BU2LFOJL1G32T90GO","","null","<img src=""img/food5.png"" style=""width:200px; border:14px solid green;"">","null","","","","","","","","","",""
"","image-keyboard-response","142","46563","0.0-142.0","3PM8NZGV8Z27ZASLIPN4DC34Q6RXQQ","A50NVZ6AI91O","3WRBLBQ2GRU63BU2LFOJL1G32T90GO","","370","img/food5.png","76","371.89999985694885","3","0","3","1","1,0.5,0,1,0.5,0,0.5,0,1","0,1,0.5,0,1,0.5,1,0.5,0","3","",""
"","html-keyboard-response","143","46865","0.0-143.0","3PM8NZGV8Z27ZASLIPN4DC34Q6RXQQ","A50NVZ6AI91O","3WRBLBQ2GRU63BU2LFOJL1G32T90GO","","null","<img src=""img/food5.png"" style=""width:200px;border:14px solid red;"">","null","","","","","","","","","",""
"","image-keyboard-response","144","46993","0.0-144.0","3PM8NZGV8Z27ZASLIPN4DC34Q6RXQQ","A50NVZ6AI91O","3WRBLBQ2GRU63BU2LFOJL1G32T90GO","","125.09999990463257","img/food1.png","76","127.10000014305115","3","0","1","1","1,0.5,0,1,0.5,0,0.5,0,1","0,1,0.5,0,1,0.5,1,0.5,0","3","",""
"","html-keyboard-response","145","47296","0.0-145.0","3PM8NZGV8Z27ZASLIPN4DC34Q6RXQQ","A50NVZ6AI91O","3WRBLBQ2GRU63BU2LFOJL1G32T90GO","","null","<img src=""img/food1.png"" style=""width:200px;border:14px solid red;"">","null","","","","","","","","","",""
"","image-keyboard-response","146","47688","0.0-146.0","3PM8NZGV8Z27ZASLIPN4DC34Q6RXQQ","A50NVZ6AI91O","3WRBLBQ2GRU63BU2LFOJL1G32T90GO","","390","img/food5.png","74","391.90000009536743","1","1","3","1","1,0.5,0,1,0.5,0,0.5,0,1","0,1,0.5,0,1,0.5,1,0.5,0","3","",""
"","html-keyboard-response","147","47991","0.0-147.0","3PM8NZGV8Z27ZASLIPN4DC34Q6RXQQ","A50NVZ6AI91O","3WRBLBQ2GRU63BU2LFOJL1G32T90GO","","null","<img src=""img/food5.png"" style=""width:200px; border:14px solid green;"">","null","","","","","","","","","",""
"","image-keyboard-response","148","48113","0.0-148.0","3PM8NZGV8Z27ZASLIPN4DC34Q6RXQQ","A50NVZ6AI91O","3WRBLBQ2GRU63BU2LFOJL1G32T90GO","","119.60000014305115","img/food5.png","75","120.90000009536743","2","0","3","1","1,0.5,0,1,0.5,0,0.5,0,1","0,1,0.5,0,1,0.5,1,0.5,0","3","",""
"","html-keyboard-response","149","48414","0.0-149.0","3PM8NZGV8Z27ZASLIPN4DC34Q6RXQQ","A50NVZ6AI91O","3WRBLBQ2GRU63BU2LFOJL1G32T90GO","","null","<img src=""img/food5.png"" style=""width:200px;border:14px solid red;"">","null","","","","","","","","","",""
"","image-keyboard-response","150","48489","0.0-150.0","3PM8NZGV8Z27ZASLIPN4DC34Q6RXQQ","A50NVZ6AI91O","3WRBLBQ2GRU63BU2LFOJL1G32T90GO","","71.79999995231628","img/food4.png","75","73.60000014305115","2","1","2","1","1,0.5,0,1,0.5,0,0.5,0,1","0,1,0.5,0,1,0.5,1,0.5,0","3","",""
"","html-keyboard-response","151","48792","0.0-151.0","3PM8NZGV8Z27ZASLIPN4DC34Q6RXQQ","A50NVZ6AI91O","3WRBLBQ2GRU63BU2LFOJL1G32T90GO","","null","<img src=""img/food4.png"" style=""width:200px; border:14px solid green;"">","null","","","","","","","","","",""
"","image-keyboard-response","152","48801","0.0-152.0","3PM8NZGV8Z27ZASLIPN4DC34Q6RXQQ","A50NVZ6AI91O","3WRBLBQ2GRU63BU2LFOJL1G32T90GO","","7.299999952316284","img/food4.png","76","8.700000047683716","3","0","2","1","1,0.5,0,1,0.5,0,0.5,0,1","0,1,0.5,0,1,0.5,1,0.5,0","3","",""
"","html-keyboard-response","153","49103","0.0-153.0","3PM8NZGV8Z27ZASLIPN4DC34Q6RXQQ","A50NVZ6AI91O","3WRBLBQ2GRU63BU2LFOJL1G32T90GO","","null","<img src=""img/food4.png"" style=""width:200px;border:14px solid red;"">","null","","","","","","","","","",""
"","image-keyboard-response","154","49376","0.0-154.0","3PM8NZGV8Z27ZASLIPN4DC34Q6RXQQ","A50NVZ6AI91O","3WRBLBQ2GRU63BU2LFOJL1G32T90GO","","272.5","img/food4.png","74","273.69999980926514","1","0","2","1","1,0.5,0,1,0.5,0,0.5,0,1","0,1,0.5,0,1,0.5,1,0.5,0","3","",""
"","html-keyboard-response","155","49679","0.0-155.0","3PM8NZGV8Z27ZASLIPN4DC34Q6RXQQ","A50NVZ6AI91O","3WRBLBQ2GRU63BU2LFOJL1G32T90GO","","null","<img src=""img/food4.png"" style=""width:200px;border:14px solid red;"">","null","","","","","","","","","",""
"","image-keyboard-response","156","49909","0.0-156.0","3PM8NZGV8Z27ZASLIPN4DC34Q6RXQQ","A50NVZ6AI91O","3WRBLBQ2GRU63BU2LFOJL1G32T90GO","","227","img/food1.png","75","229","2","1","1","1","1,0.5,0,1,0.5,0,0.5,0,1","0,1,0.5,0,1,0.5,1,0.5,0","3","",""
"","html-keyboard-response","157","50212","0.0-157.0","3PM8NZGV8Z27ZASLIPN4DC34Q6RXQQ","A50NVZ6AI91O","3WRBLBQ2GRU63BU2LFOJL1G32T90GO","","null","<img src=""img/food1.png"" style=""width:200px; border:14px solid green;"">","null","","","","","","","","","",""
"","image-keyboard-response","158","50237","0.0-158.0","3PM8NZGV8Z27ZASLIPN4DC34Q6RXQQ","A50NVZ6AI91O","3WRBLBQ2GRU63BU2LFOJL1G32T90GO","","22.699999809265137","img/food4.png","76","24.200000047683716","3","0","2","1","1,0.5,0,1,0.5,0,0.5,0,1","0,1,0.5,0,1,0.5,1,0.5,0","3","",""
"","html-keyboard-response","159","50539","0.0-159.0","3PM8NZGV8Z27ZASLIPN4DC34Q6RXQQ","A50NVZ6AI91O","3WRBLBQ2GRU63BU2LFOJL1G32T90GO","","null","<img src=""img/food4.png"" style=""width:200px;border:14px solid red;"">","null","","","","","","","","","",""
"","image-keyboard-response","160","50810","0.0-160.0","3PM8NZGV8Z27ZASLIPN4DC34Q6RXQQ","A50NVZ6AI91O","3WRBLBQ2GRU63BU2LFOJL1G32T90GO","","269.10000014305115","img/food1.png","76","270.60000014305115","3","1","1","1","1,0.5,0,1,0.5,0,0.5,0,1","0,1,0.5,0,1,0.5,1,0.5,0","3","",""
"","html-keyboard-response","161","51112","0.0-161.0","3PM8NZGV8Z27ZASLIPN4DC34Q6RXQQ","A50NVZ6AI91O","3WRBLBQ2GRU63BU2LFOJL1G32T90GO","","null","<img src=""img/food1.png"" style=""width:200px; border:14px solid green;"">","null","","","","","","","","","",""
"","image-keyboard-response","162","51174","0.0-162.0","3PM8NZGV8Z27ZASLIPN4DC34Q6RXQQ","A50NVZ6AI91O","3WRBLBQ2GRU63BU2LFOJL1G32T90GO","","60","img/food1.png","76","61.90000009536743","3","1","1","1","1,0.5,0,1,0.5,0,0.5,0,1","0,1,0.5,0,1,0.5,1,0.5,0","3","",""
"","html-keyboard-response","163","51478","0.0-163.0","3PM8NZGV8Z27ZASLIPN4DC34Q6RXQQ","A50NVZ6AI91O","3WRBLBQ2GRU63BU2LFOJL1G32T90GO","","null","<img src=""img/food1.png"" style=""width:200px; border:14px solid green;"">","null","","","","","","","","","",""
"","image-keyboard-response","164","51599","0.0-164.0","3PM8NZGV8Z27ZASLIPN4DC34Q6RXQQ","A50NVZ6AI91O","3WRBLBQ2GRU63BU2LFOJL1G32T90GO","","118.59999990463257","img/food1.png","74","120.59999990463257","1","0","1","1","1,0.5,0,1,0.5,0,0.5,0,1","0,1,0.5,0,1,0.5,1,0.5,0","3","",""
"","html-keyboard-response","165","51912","0.0-165.0","3PM8NZGV8Z27ZASLIPN4DC34Q6RXQQ","A50NVZ6AI91O","3WRBLBQ2GRU63BU2LFOJL1G32T90GO","","null","<img src=""img/food1.png"" style=""width:200px;border:14px solid red;"">","null","","","","","","","","","",""
"","image-keyboard-response","166","52035","0.0-166.0","3PM8NZGV8Z27ZASLIPN4DC34Q6RXQQ","A50NVZ6AI91O","3WRBLBQ2GRU63BU2LFOJL1G32T90GO","","121","img/food1.png","76","122.89999985694885","3","1","1","1","1,0.5,0,1,0.5,0,0.5,0,1","0,1,0.5,0,1,0.5,1,0.5,0","3","",""
"","html-keyboard-response","167","52339","0.0-167.0","3PM8NZGV8Z27ZASLIPN4DC34Q6RXQQ","A50NVZ6AI91O","3WRBLBQ2GRU63BU2LFOJL1G32T90GO","","null","<img src=""img/food1.png"" style=""width:200px; border:14px solid green;"">","null","","","","","","","","","",""
"","image-keyboard-response","168","52362","0.0-168.0","3PM8NZGV8Z27ZASLIPN4DC34Q6RXQQ","A50NVZ6AI91O","3WRBLBQ2GRU63BU2LFOJL1G32T90GO","","20.09999990463257","img/food5.png","75","21.5","2","1","3","1","1,0.5,0,1,0.5,0,0.5,0,1","0,1,0.5,0,1,0.5,1,0.5,0","3","",""
"","html-keyboard-response","169","52664","0.0-169.0","3PM8NZGV8Z27ZASLIPN4DC34Q6RXQQ","A50NVZ6AI91O","3WRBLBQ2GRU63BU2LFOJL1G32T90GO","","null","<img src=""img/food5.png"" style=""width:200px; border:14px solid green;"">","null","","","","","","","","","",""
"","image-keyboard-response","170","53010","0.0-170.0","3PM8NZGV8Z27ZASLIPN4DC34Q6RXQQ","A50NVZ6AI91O","3WRBLBQ2GRU63BU2LFOJL1G32T90GO","","343.09999990463257","img/food4.png","74","345.2000000476837","1","0","2","1","1,0.5,0,1,0.5,0,0.5,0,1","0,1,0.5,0,1,0.5,1,0.5,0","3","",""
"","html-keyboard-response","171","53314","0.0-171.0","3PM8NZGV8Z27ZASLIPN4DC34Q6RXQQ","A50NVZ6AI91O","3WRBLBQ2GRU63BU2LFOJL1G32T90GO","","null","<img src=""img/food4.png"" style=""width:200px;border:14px solid red;"">","null","","","","","","","","","",""
"","image-keyboard-response","172","53430","0.0-172.0","3PM8NZGV8Z27ZASLIPN4DC34Q6RXQQ","A50NVZ6AI91O","3WRBLBQ2GRU63BU2LFOJL1G32T90GO","","113","img/food1.png","76","115","3","0","1","1","1,0.5,0,1,0.5,0,0.5,0,1","0,1,0.5,0,1,0.5,1,0.5,0","3","",""
"","html-keyboard-response","173","53733","0.0-173.0","3PM8NZGV8Z27ZASLIPN4DC34Q6RXQQ","A50NVZ6AI91O","3WRBLBQ2GRU63BU2LFOJL1G32T90GO","","null","<img src=""img/food1.png"" style=""width:200px;border:14px solid red;"">","null","","","","","","","","","",""
"","image-keyboard-response","174","53980","0.0-174.0","3PM8NZGV8Z27ZASLIPN4DC34Q6RXQQ","A50NVZ6AI91O","3WRBLBQ2GRU63BU2LFOJL1G32T90GO","","243.79999995231628","img/food4.png","76","245.70000004768372","3","0","2","1","1,0.5,0,1,0.5,0,0.5,0,1","0,1,0.5,0,1,0.5,1,0.5,0","3","",""
"","html-keyboard-response","175","54282","0.0-175.0","3PM8NZGV8Z27ZASLIPN4DC34Q6RXQQ","A50NVZ6AI91O","3WRBLBQ2GRU63BU2LFOJL1G32T90GO","","null","<img src=""img/food4.png"" style=""width:200px;border:14px solid red;"">","null","","","","","","","","","",""
"","image-keyboard-response","176","54294","0.0-176.0","3PM8NZGV8Z27ZASLIPN4DC34Q6RXQQ","A50NVZ6AI91O","3WRBLBQ2GRU63BU2LFOJL1G32T90GO","","9","img/food1.png","75","10.699999809265137","2","1","1","1","1,0.5,0,1,0.5,0,0.5,0,1","0,1,0.5,0,1,0.5,1,0.5,0","3","",""
"","html-keyboard-response","177","54597","0.0-177.0","3PM8NZGV8Z27ZASLIPN4DC34Q6RXQQ","A50NVZ6AI91O","3WRBLBQ2GRU63BU2LFOJL1G32T90GO","","null","<img src=""img/food1.png"" style=""width:200px; border:14px solid green;"">","null","","","","","","","","","",""
"","image-keyboard-response","178","54930","0.0-178.0","3PM8NZGV8Z27ZASLIPN4DC34Q6RXQQ","A50NVZ6AI91O","3WRBLBQ2GRU63BU2LFOJL1G32T90GO","","330.7000000476837","img/food4.png","75","332.40000009536743","2","1","2","1","1,0.5,0,1,0.5,0,0.5,0,1","0,1,0.5,0,1,0.5,1,0.5,0","3","",""
"","html-keyboard-response","179","55233","0.0-179.0","3PM8NZGV8Z27ZASLIPN4DC34Q6RXQQ","A50NVZ6AI91O","3WRBLBQ2GRU63BU2LFOJL1G32T90GO","","null","<img src=""img/food4.png"" style=""width:200px; border:14px solid green;"">","null","","","","","","","","","",""
"","image-keyboard-response","180","55266","0.0-180.0","3PM8NZGV8Z27ZASLIPN4DC34Q6RXQQ","A50NVZ6AI91O","3WRBLBQ2GRU63BU2LFOJL1G32T90GO","","31.299999952316284","img/food5.png","74","33.19999980926514","1","1","3","1","1,0.5,0,1,0.5,0,0.5,0,1","0,1,0.5,0,1,0.5,1,0.5,0","3","",""
"","html-keyboard-response","181","55570","0.0-181.0","3PM8NZGV8Z27ZASLIPN4DC34Q6RXQQ","A50NVZ6AI91O","3WRBLBQ2GRU63BU2LFOJL1G32T90GO","","null","<img src=""img/food5.png"" style=""width:200px; border:14px solid green;"">","null","","","","","","","","","",""
"","html-keyboard-response","182","58399","0.0-182.0","3PM8NZGV8Z27ZASLIPN4DC34Q6RXQQ","A50NVZ6AI91O","3WRBLBQ2GRU63BU2LFOJL1G32T90GO","","","","","","","","","","","","","",""
"","instructions","183","64667","0.0-183.0","3PM8NZGV8Z27ZASLIPN4DC34Q6RXQQ","A50NVZ6AI91O","3WRBLBQ2GRU63BU2LFOJL1G32T90GO","[{""page_index"":0,""viewing_time"":5024},{""page_index"":1,""viewing_time"":1242.2000000476837}]","6266.5","","","","","","","","","","","",""
"","image-keyboard-response","184","65649","0.0-184.0","3PM8NZGV8Z27ZASLIPN4DC34Q6RXQQ","A50NVZ6AI91O","3WRBLBQ2GRU63BU2LFOJL1G32T90GO","","981.3999998569489","img/food6.png","74","983.2999999523163","1","0","3","2","1,0.5,0,1,0.5,0,0.5,0,1","0.5,0,1,0.5,0,1,0,1,0.5","2","false",""
"","html-keyboard-response","185","65952","0.0-185.0","3PM8NZGV8Z27ZASLIPN4DC34Q6RXQQ","A50NVZ6AI91O","3WRBLBQ2GRU63BU2LFOJL1G32T90GO","","null","<img src=""img/food6.png"" style=""width:200px;border:14px solid red;"">","null","","","","","","","","","",""
"","image-keyboard-response","186","66129","0.0-187.0","3PM8NZGV8Z27ZASLIPN4DC34Q6RXQQ","A50NVZ6AI91O","3WRBLBQ2GRU63BU2LFOJL1G32T90GO","","173.59999990463257","img/food3.png","75","175.79999995231628","2","0","2","2","1,0.5,0,1,0.5,0,0.5,0,1","0.5,0,1,0.5,0,1,0,1,0.5","2","false",""
"","html-keyboard-response","187","66432","0.0-188.0","3PM8NZGV8Z27ZASLIPN4DC34Q6RXQQ","A50NVZ6AI91O","3WRBLBQ2GRU63BU2LFOJL1G32T90GO","","null","<img src=""img/food3.png"" style=""width:200px;border:14px solid red;"">","null","","","","","","","","","",""
"","image-keyboard-response","188","66586","0.0-190.0","3PM8NZGV8Z27ZASLIPN4DC34Q6RXQQ","A50NVZ6AI91O","3WRBLBQ2GRU63BU2LFOJL1G32T90GO","","150.90000009536743","img/food6.png","76","153.20000004768372","3","1","3","2","1,0.5,0,1,0.5,0,0.5,0,1","0.5,0,1,0.5,0,1,0,1,0.5","2","false",""
"","html-keyboard-response","189","66889","0.0-191.0","3PM8NZGV8Z27ZASLIPN4DC34Q6RXQQ","A50NVZ6AI91O","3WRBLBQ2GRU63BU2LFOJL1G32T90GO","","null","<img src=""img/food6.png"" style=""width:200px; border:14px solid green;"">","null","","","","","","","","","",""
"","image-keyboard-response","190","67155","0.0-193.0","3PM8NZGV8Z27ZASLIPN4DC34Q6RXQQ","A50NVZ6AI91O","3WRBLBQ2GRU63BU2LFOJL1G32T90GO","","263.5","img/food2.png","76","265.7000000476837","3","1","1","2","1,0.5,0,1,0.5,0,0.5,0,1","0.5,0,1,0.5,0,1,0,1,0.5","2","false",""
"","html-keyboard-response","191","67458","0.0-194.0","3PM8NZGV8Z27ZASLIPN4DC34Q6RXQQ","A50NVZ6AI91O","3WRBLBQ2GRU63BU2LFOJL1G32T90GO","","null","<img src=""img/food2.png"" style=""width:200px; border:14px solid green;"">","null","","","","","","","","","",""
"","image-keyboard-response","192","67490","0.0-196.0","3PM8NZGV8Z27ZASLIPN4DC34Q6RXQQ","A50NVZ6AI91O","3WRBLBQ2GRU63BU2LFOJL1G32T90GO","","31.299999952316284","img/food6.png","75","32","2","1","3","2","1,0.5,0,1,0.5,0,0.5,0,1","0.5,0,1,0.5,0,1,0,1,0.5","2","false",""
"","html-keyboard-response","193","67792","0.0-197.0","3PM8NZGV8Z27ZASLIPN4DC34Q6RXQQ","A50NVZ6AI91O","3WRBLBQ2GRU63BU2LFOJL1G32T90GO","","null","<img src=""img/food6.png"" style=""width:200px; border:14px solid green;"">","null","","","","","","","","","",""
"","image-keyboard-response","194","67844","0.0-199.0","3PM8NZGV8Z27ZASLIPN4DC34Q6RXQQ","A50NVZ6AI91O","3WRBLBQ2GRU63BU2LFOJL1G32T90GO","","49.299999952316284","img/food2.png","74","51.59999990463257","1","1","1","2","1,0.5,0,1,0.5,0,0.5,0,1","0.5,0,1,0.5,0,1,0,1,0.5","2","false",""
"","html-keyboard-response","195","68148","0.0-200.0","3PM8NZGV8Z27ZASLIPN4DC34Q6RXQQ","A50NVZ6AI91O","3WRBLBQ2GRU63BU2LFOJL1G32T90GO","","null","<img src=""img/food2.png"" style=""width:200px; border:14px solid green;"">","null","","","","","","","","","",""
"","image-keyboard-response","196","68346","0.0-202.0","3PM8NZGV8Z27ZASLIPN4DC34Q6RXQQ","A50NVZ6AI91O","3WRBLBQ2GRU63BU2LFOJL1G32T90GO","","196.5","img/food6.png","75","197.80000019073486","2","1","3","2","1,0.5,0,1,0.5,0,0.5,0,1","0.5,0,1,0.5,0,1,0,1,0.5","2","false",""
"","html-keyboard-response","197","68650","0.0-203.0","3PM8NZGV8Z27ZASLIPN4DC34Q6RXQQ","A50NVZ6AI91O","3WRBLBQ2GRU63BU2LFOJL1G32T90GO","","null","<img src=""img/food6.png"" style=""width:200px; border:14px solid green;"">","null","","","","","","","","","",""
"","image-keyboard-response","198","68752","0.0-205.0","3PM8NZGV8Z27ZASLIPN4DC34Q6RXQQ","A50NVZ6AI91O","3WRBLBQ2GRU63BU2LFOJL1G32T90GO","","99.5","img/food6.png","76","101.29999995231628","3","1","3","2","1,0.5,0,1,0.5,0,0.5,0,1","0.5,0,1,0.5,0,1,0,1,0.5","2","false",""
"","html-keyboard-response","199","69055","0.0-206.0","3PM8NZGV8Z27ZASLIPN4DC34Q6RXQQ","A50NVZ6AI91O","3WRBLBQ2GRU63BU2LFOJL1G32T90GO","","null","<img src=""img/food6.png"" style=""width:200px; border:14px solid green;"">","null","","","","","","","","","",""
"","image-keyboard-response","200","69233","0.0-208.0","3PM8NZGV8Z27ZASLIPN4DC34Q6RXQQ","A50NVZ6AI91O","3WRBLBQ2GRU63BU2LFOJL1G32T90GO","","175.09999990463257","img/food3.png","75","176.79999995231628","2","0","2","2","1,0.5,0,1,0.5,0,0.5,0,1","0.5,0,1,0.5,0,1,0,1,0.5","2","false",""
"","html-keyboard-response","201","69537","0.0-209.0","3PM8NZGV8Z27ZASLIPN4DC34Q6RXQQ","A50NVZ6AI91O","3WRBLBQ2GRU63BU2LFOJL1G32T90GO","","null","<img src=""img/food3.png"" style=""width:200px;border:14px solid red;"">","null","","","","","","","","","",""
"","image-keyboard-response","202","69564","0.0-211.0","3PM8NZGV8Z27ZASLIPN4DC34Q6RXQQ","A50NVZ6AI91O","3WRBLBQ2GRU63BU2LFOJL1G32T90GO","","25.200000047683716","img/food3.png","74","26.399999856948853","1","0","2","2","1,0.5,0,1,0.5,0,0.5,0,1","0.5,0,1,0.5,0,1,0,1,0.5","2","false",""
"","html-keyboard-response","203","69868","0.0-212.0","3PM8NZGV8Z27ZASLIPN4DC34Q6RXQQ","A50NVZ6AI91O","3WRBLBQ2GRU63BU2LFOJL1G32T90GO","","null","<img src=""img/food3.png"" style=""width:200px;border:14px solid red;"">","null","","","","","","","","","",""
"","image-keyboard-response","204","70135","0.0-214.0","3PM8NZGV8Z27ZASLIPN4DC34Q6RXQQ","A50NVZ6AI91O","3WRBLBQ2GRU63BU2LFOJL1G32T90GO","","263.89999985694885","img/food3.png","75","265.89999985694885","2","0","2","2","1,0.5,0,1,0.5,0,0.5,0,1","0.5,0,1,0.5,0,1,0,1,0.5","2","false",""
"","html-keyboard-response","205","70438","0.0-215.0","3PM8NZGV8Z27ZASLIPN4DC34Q6RXQQ","A50NVZ6AI91O","3WRBLBQ2GRU63BU2LFOJL1G32T90GO","","null","<img src=""img/food3.png"" style=""width:200px;border:14px solid red;"">","null","","","","","","","","","",""
"","image-keyboard-response","206","70660","0.0-217.0","3PM8NZGV8Z27ZASLIPN4DC34Q6RXQQ","A50NVZ6AI91O","3WRBLBQ2GRU63BU2LFOJL1G32T90GO","","218.59999990463257","img/food3.png","76","221","3","1","2","2","1,0.5,0,1,0.5,0,0.5,0,1","0.5,0,1,0.5,0,1,0,1,0.5","2","false",""
"","html-keyboard-response","207","70964","0.0-218.0","3PM8NZGV8Z27ZASLIPN4DC34Q6RXQQ","A50NVZ6AI91O","3WRBLBQ2GRU63BU2LFOJL1G32T90GO","","null","<img src=""img/food3.png"" style=""width:200px; border:14px solid green;"">","null","","","","","","","","","",""
"","image-keyboard-response","208","71083","0.0-220.0","3PM8NZGV8Z27ZASLIPN4DC34Q6RXQQ","A50NVZ6AI91O","3WRBLBQ2GRU63BU2LFOJL1G32T90GO","","116","img/food3.png","75","118.09999990463257","2","0","2","2","1,0.5,0,1,0.5,0,0.5,0,1","0.5,0,1,0.5,0,1,0,1,0.5","2","false",""
"","html-keyboard-response","209","71387","0.0-221.0","3PM8NZGV8Z27ZASLIPN4DC34Q6RXQQ","A50NVZ6AI91O","3WRBLBQ2GRU63BU2LFOJL1G32T90GO","","null","<img src=""img/food3.png"" style=""width:200px;border:14px solid red;"">","null","","","","","","","","","",""
"","image-keyboard-response","210","71460","0.0-223.0","3PM8NZGV8Z27ZASLIPN4DC34Q6RXQQ","A50NVZ6AI91O","3WRBLBQ2GRU63BU2LFOJL1G32T90GO","","70.29999995231628","img/food6.png","74","72.09999990463257","1","0","3","2","1,0.5,0,1,0.5,0,0.5,0,1","0.5,0,1,0.5,0,1,0,1,0.5","2","false",""
"","html-keyboard-response","211","71763","0.0-224.0","3PM8NZGV8Z27ZASLIPN4DC34Q6RXQQ","A50NVZ6AI91O","3WRBLBQ2GRU63BU2LFOJL1G32T90GO","","null","<img src=""img/food6.png"" style=""width:200px;border:14px solid red;"">","null","","","","","","","","","",""
"","image-keyboard-response","212","71918","0.0-226.0","3PM8NZGV8Z27ZASLIPN4DC34Q6RXQQ","A50NVZ6AI91O","3WRBLBQ2GRU63BU2LFOJL1G32T90GO","","152.29999995231628","img/food6.png","74","154.59999990463257","1","0","3","2","1,0.5,0,1,0.5,0,0.5,0,1","0.5,0,1,0.5,0,1,0,1,0.5","2","false",""
"","html-keyboard-response","213","72222","0.0-227.0","3PM8NZGV8Z27ZASLIPN4DC34Q6RXQQ","A50NVZ6AI91O","3WRBLBQ2GRU63BU2LFOJL1G32T90GO","","null","<img src=""img/food6.png"" style=""width:200px;border:14px solid red;"">","null","","","","","","","","","",""
"","image-keyboard-response","214","72553","0.0-229.0","3PM8NZGV8Z27ZASLIPN4DC34Q6RXQQ","A50NVZ6AI91O","3WRBLBQ2GRU63BU2LFOJL1G32T90GO","","328.10000014305115","img/food3.png","74","330.30000019073486","1","0","2","2","1,0.5,0,1,0.5,0,0.5,0,1","0.5,0,1,0.5,0,1,0,1,0.5","2","false",""
"","html-keyboard-response","215","72856","0.0-230.0","3PM8NZGV8Z27ZASLIPN4DC34Q6RXQQ","A50NVZ6AI91O","3WRBLBQ2GRU63BU2LFOJL1G32T90GO","","null","<img src=""img/food3.png"" style=""width:200px;border:14px solid red;"">","null","","","","","","","","","",""
"","image-keyboard-response","216","72928","0.0-232.0","3PM8NZGV8Z27ZASLIPN4DC34Q6RXQQ","A50NVZ6AI91O","3WRBLBQ2GRU63BU2LFOJL1G32T90GO","","68.70000004768372","img/food6.png","75","70.59999990463257","2","1","3","2","1,0.5,0,1,0.5,0,0.5,0,1","0.5,0,1,0.5,0,1,0,1,0.5","2","false",""
"","html-keyboard-response","217","73232","0.0-233.0","3PM8NZGV8Z27ZASLIPN4DC34Q6RXQQ","A50NVZ6AI91O","3WRBLBQ2GRU63BU2LFOJL1G32T90GO","","null","<img src=""img/food6.png"" style=""width:200px; border:14px solid green;"">","null","","","","","","","","","",""
"","image-keyboard-response","218","73304","0.0-235.0","3PM8NZGV8Z27ZASLIPN4DC34Q6RXQQ","A50NVZ6AI91O","3WRBLBQ2GRU63BU2LFOJL1G32T90GO","","69.5","img/food3.png","76","71.5","3","1","2","2","1,0.5,0,1,0.5,0,0.5,0,1","0.5,0,1,0.5,0,1,0,1,0.5","2","false",""
"","html-keyboard-response","219","73607","0.0-236.0","3PM8NZGV8Z27ZASLIPN4DC34Q6RXQQ","A50NVZ6AI91O","3WRBLBQ2GRU63BU2LFOJL1G32T90GO","","null","<img src=""img/food3.png"" style=""width:200px; border:14px solid green;"">","null","","","","","","","","","",""
"","image-keyboard-response","220","73771","0.0-238.0","3PM8NZGV8Z27ZASLIPN4DC34Q6RXQQ","A50NVZ6AI91O","3WRBLBQ2GRU63BU2LFOJL1G32T90GO","","161.90000009536743","img/food2.png","75","163.59999990463257","2","0","1","2","1,0.5,0,1,0.5,0,0.5,0,1","0.5,0,1,0.5,0,1,0,1,0.5","2","false",""
"","html-keyboard-response","221","74073","0.0-239.0","3PM8NZGV8Z27ZASLIPN4DC34Q6RXQQ","A50NVZ6AI91O","3WRBLBQ2GRU63BU2LFOJL1G32T90GO","","null","<img src=""img/food2.png"" style=""width:200px;border:14px solid red;"">","null","","","","","","","","","",""
"","image-keyboard-response","222","74393","0.0-241.0","3PM8NZGV8Z27ZASLIPN4DC34Q6RXQQ","A50NVZ6AI91O","3WRBLBQ2GRU63BU2LFOJL1G32T90GO","","317.10000014305115","img/food2.png","75","319.19999980926514","2","0","1","2","1,0.5,0,1,0.5,0,0.5,0,1","0.5,0,1,0.5,0,1,0,1,0.5","2","false",""
"","html-keyboard-response","223","74695","0.0-242.0","3PM8NZGV8Z27ZASLIPN4DC34Q6RXQQ","A50NVZ6AI91O","3WRBLBQ2GRU63BU2LFOJL1G32T90GO","","null","<img src=""img/food2.png"" style=""width:200px;border:14px solid red;"">","null","","","","","","","","","",""
"","image-keyboard-response","224","74862","0.0-244.0","3PM8NZGV8Z27ZASLIPN4DC34Q6RXQQ","A50NVZ6AI91O","3WRBLBQ2GRU63BU2LFOJL1G32T90GO","","164.39999985694885","img/food2.png","74","166.29999995231628","1","1","1","2","1,0.5,0,1,0.5,0,0.5,0,1","0.5,0,1,0.5,0,1,0,1,0.5","2","false",""
"","html-keyboard-response","225","75166","0.0-245.0","3PM8NZGV8Z27ZASLIPN4DC34Q6RXQQ","A50NVZ6AI91O","3WRBLBQ2GRU63BU2LFOJL1G32T90GO","","null","<img src=""img/food2.png"" style=""width:200px; border:14px solid green;"">","null","","","","","","","","","",""
"","image-keyboard-response","226","75520","0.0-247.0","3PM8NZGV8Z27ZASLIPN4DC34Q6RXQQ","A50NVZ6AI91O","3WRBLBQ2GRU63BU2LFOJL1G32T90GO","","351.39999985694885","img/food3.png","76","353.5","3","1","2","2","1,0.5,0,1,0.5,0,0.5,0,1","0.5,0,1,0.5,0,1,0,1,0.5","2","false",""
"","html-keyboard-response","227","75823","0.0-248.0","3PM8NZGV8Z27ZASLIPN4DC34Q6RXQQ","A50NVZ6AI91O","3WRBLBQ2GRU63BU2LFOJL1G32T90GO","","null","<img src=""img/food3.png"" style=""width:200px; border:14px solid green;"">","null","","","","","","","","","",""
"","image-keyboard-response","228","75924","0.0-250.0","3PM8NZGV8Z27ZASLIPN4DC34Q6RXQQ","A50NVZ6AI91O","3WRBLBQ2GRU63BU2LFOJL1G32T90GO","","98.19999980926514","img/food6.png","75","99.60000014305115","2","1","3","2","1,0.5,0,1,0.5,0,0.5,0,1","0.5,0,1,0.5,0,1,0,1,0.5","2","false",""
"","html-keyboard-response","229","76226","0.0-251.0","3PM8NZGV8Z27ZASLIPN4DC34Q6RXQQ","A50NVZ6AI91O","3WRBLBQ2GRU63BU2LFOJL1G32T90GO","","null","<img src=""img/food6.png"" style=""width:200px; border:14px solid green;"">","null","","","","","","","","","",""
"","image-keyboard-response","230","76351","0.0-253.0","3PM8NZGV8Z27ZASLIPN4DC34Q6RXQQ","A50NVZ6AI91O","3WRBLBQ2GRU63BU2LFOJL1G32T90GO","","122","img/food3.png","74","124.19999980926514","1","1","2","2","1,0.5,0,1,0.5,0,0.5,0,1","0.5,0,1,0.5,0,1,0,1,0.5","2","false",""
"","html-keyboard-response","231","76653","0.0-254.0","3PM8NZGV8Z27ZASLIPN4DC34Q6RXQQ","A50NVZ6AI91O","3WRBLBQ2GRU63BU2LFOJL1G32T90GO","","null","<img src=""img/food3.png"" style=""width:200px; border:14px solid green;"">","null","","","","","","","","","",""
"","image-keyboard-response","232","76816","0.0-256.0","3PM8NZGV8Z27ZASLIPN4DC34Q6RXQQ","A50NVZ6AI91O","3WRBLBQ2GRU63BU2LFOJL1G32T90GO","","159.79999995231628","img/food3.png","75","161.70000004768372","2","0","2","2","1,0.5,0,1,0.5,0,0.5,0,1","0.5,0,1,0.5,0,1,0,1,0.5","2","false",""
"","html-keyboard-response","233","77118","0.0-257.0","3PM8NZGV8Z27ZASLIPN4DC34Q6RXQQ","A50NVZ6AI91O","3WRBLBQ2GRU63BU2LFOJL1G32T90GO","","null","<img src=""img/food3.png"" style=""width:200px;border:14px solid red;"">","null","","","","","","","","","",""
"","image-keyboard-response","234","77350","0.0-259.0","3PM8NZGV8Z27ZASLIPN4DC34Q6RXQQ","A50NVZ6AI91O","3WRBLBQ2GRU63BU2LFOJL1G32T90GO","","229.5","img/food6.png","76","231.70000004768372","3","0","3","2","1,0.5,0,1,0.5,0,0.5,0,1","0.5,0,1,0.5,0,1,0,1,0.5","2","false",""
"","html-keyboard-response","235","77654","0.0-260.0","3PM8NZGV8Z27ZASLIPN4DC34Q6RXQQ","A50NVZ6AI91O","3WRBLBQ2GRU63BU2LFOJL1G32T90GO","","null","<img src=""img/food6.png"" style=""width:200px;border:14px solid red;"">","null","","","","","","","","","",""
"","image-keyboard-response","236","77760","0.0-262.0","3PM8NZGV8Z27ZASLIPN4DC34Q6RXQQ","A50NVZ6AI91O","3WRBLBQ2GRU63BU2LFOJL1G32T90GO","","103.20000004768372","img/food3.png","75","105.20000004768372","2","0","2","2","1,0.5,0,1,0.5,0,0.5,0,1","0.5,0,1,0.5,0,1,0,1,0.5","2","false",""
"","html-keyboard-response","237","78064","0.0-263.0","3PM8NZGV8Z27ZASLIPN4DC34Q6RXQQ","A50NVZ6AI91O","3WRBLBQ2GRU63BU2LFOJL1G32T90GO","","null","<img src=""img/food3.png"" style=""width:200px;border:14px solid red;"">","null","","","","","","","","","",""
"","image-keyboard-response","238","78498","0.0-265.0","3PM8NZGV8Z27ZASLIPN4DC34Q6RXQQ","A50NVZ6AI91O","3WRBLBQ2GRU63BU2LFOJL1G32T90GO","","430.09999990463257","img/food2.png","74","432.2000000476837","1","0","1","2","1,0.5,0,1,0.5,0,0.5,0,1","0.5,0,1,0.5,0,1,0,1,0.5","2","false",""
"","html-keyboard-response","239","78802","0.0-266.0","3PM8NZGV8Z27ZASLIPN4DC34Q6RXQQ","A50NVZ6AI91O","3WRBLBQ2GRU63BU2LFOJL1G32T90GO","","null","<img src=""img/food2.png"" style=""width:200px;border:14px solid red;"">","null","","","","","","","","","",""
"","image-keyboard-response","240","78979","0.0-268.0","3PM8NZGV8Z27ZASLIPN4DC34Q6RXQQ","A50NVZ6AI91O","3WRBLBQ2GRU63BU2LFOJL1G32T90GO","","174.90000009536743","img/food3.png","75","177.10000014305115","2","0","2","2","1,0.5,0,1,0.5,0,0.5,0,1","0.5,0,1,0.5,0,1,0,1,0.5","2","false",""
"","html-keyboard-response","241","79292","0.0-269.0","3PM8NZGV8Z27ZASLIPN4DC34Q6RXQQ","A50NVZ6AI91O","3WRBLBQ2GRU63BU2LFOJL1G32T90GO","","null","<img src=""img/food3.png"" style=""width:200px;border:14px solid red;"">","null","","","","","","","","","",""
"","image-keyboard-response","242","79350","0.0-271.0","3PM8NZGV8Z27ZASLIPN4DC34Q6RXQQ","A50NVZ6AI91O","3WRBLBQ2GRU63BU2LFOJL1G32T90GO","","54.799999952316284","img/food6.png","76","57","3","0","3","2","1,0.5,0,1,0.5,0,0.5,0,1","0.5,0,1,0.5,0,1,0,1,0.5","2","false",""
"","html-keyboard-response","243","79653","0.0-272.0","3PM8NZGV8Z27ZASLIPN4DC34Q6RXQQ","A50NVZ6AI91O","3WRBLBQ2GRU63BU2LFOJL1G32T90GO","","null","<img src=""img/food6.png"" style=""width:200px;border:14px solid red;"">","null","","","","","","","","","",""
"","image-keyboard-response","244","79901","0.0-274.0","3PM8NZGV8Z27ZASLIPN4DC34Q6RXQQ","A50NVZ6AI91O","3WRBLBQ2GRU63BU2LFOJL1G32T90GO","","244.39999985694885","img/food2.png","75","246.59999990463257","2","0","1","2","1,0.5,0,1,0.5,0,0.5,0,1","0.5,0,1,0.5,0,1,0,1,0.5","2","false",""
"","html-keyboard-response","245","80204","0.0-275.0","3PM8NZGV8Z27ZASLIPN4DC34Q6RXQQ","A50NVZ6AI91O","3WRBLBQ2GRU63BU2LFOJL1G32T90GO","","null","<img src=""img/food2.png"" style=""width:200px;border:14px solid red;"">","null","","","","","","","","","",""
"","image-keyboard-response","246","80323","0.0-277.0","3PM8NZGV8Z27ZASLIPN4DC34Q6RXQQ","A50NVZ6AI91O","3WRBLBQ2GRU63BU2LFOJL1G32T90GO","","115.70000004768372","img/food2.png","74","118.19999980926514","1","1","1","2","1,0.5,0,1,0.5,0,0.5,0,1","0.5,0,1,0.5,0,1,0,1,0.5","2","false",""
"","html-keyboard-response","247","80626","0.0-278.0","3PM8NZGV8Z27ZASLIPN4DC34Q6RXQQ","A50NVZ6AI91O","3WRBLBQ2GRU63BU2LFOJL1G32T90GO","","null","<img src=""img/food2.png"" style=""width:200px; border:14px solid green;"">","null","","","","","","","","","",""
"","image-keyboard-response","248","80776","0.0-280.0","3PM8NZGV8Z27ZASLIPN4DC34Q6RXQQ","A50NVZ6AI91O","3WRBLBQ2GRU63BU2LFOJL1G32T90GO","","146.69999980926514","img/food6.png","76","149.09999990463257","3","1","3","2","1,0.5,0,1,0.5,0,0.5,0,1","0.5,0,1,0.5,0,1,0,1,0.5","2","false",""
"","html-keyboard-response","249","81080","0.0-281.0","3PM8NZGV8Z27ZASLIPN4DC34Q6RXQQ","A50NVZ6AI91O","3WRBLBQ2GRU63BU2LFOJL1G32T90GO","","null","<img src=""img/food6.png"" style=""width:200px; border:14px solid green;"">","null","","","","","","","","","",""
"","image-keyboard-response","250","81369","0.0-283.0","3PM8NZGV8Z27ZASLIPN4DC34Q6RXQQ","A50NVZ6AI91O","3WRBLBQ2GRU63BU2LFOJL1G32T90GO","","286.90000009536743","img/food3.png","74","290.59999990463257","1","0","2","2","1,0.5,0,1,0.5,0,0.5,0,1","0.5,0,1,0.5,0,1,0,1,0.5","2","false",""
"","html-keyboard-response","251","81675","0.0-284.0","3PM8NZGV8Z27ZASLIPN4DC34Q6RXQQ","A50NVZ6AI91O","3WRBLBQ2GRU63BU2LFOJL1G32T90GO","","null","<img src=""img/food3.png"" style=""width:200px;border:14px solid red;"">","null","","","","","","","","","",""
"","image-keyboard-response","252","81809","0.0-286.0","3PM8NZGV8Z27ZASLIPN4DC34Q6RXQQ","A50NVZ6AI91O","3WRBLBQ2GRU63BU2LFOJL1G32T90GO","","131.29999995231628","img/food3.png","75","133.29999995231628","2","0","2","2","1,0.5,0,1,0.5,0,0.5,0,1","0.5,0,1,0.5,0,1,0,1,0.5","2","false",""
"","html-keyboard-response","253","82112","0.0-287.0","3PM8NZGV8Z27ZASLIPN4DC34Q6RXQQ","A50NVZ6AI91O","3WRBLBQ2GRU63BU2LFOJL1G32T90GO","","null","<img src=""img/food3.png"" style=""width:200px;border:14px solid red;"">","null","","","","","","","","","",""
"","image-keyboard-response","254","82161","0.0-289.0","3PM8NZGV8Z27ZASLIPN4DC34Q6RXQQ","A50NVZ6AI91O","3WRBLBQ2GRU63BU2LFOJL1G32T90GO","","46.59999990463257","img/food6.png","76","48.200000047683716","3","1","3","2","1,0.5,0,1,0.5,0,0.5,0,1","0.5,0,1,0.5,0,1,0,1,0.5","2","false",""
"","html-keyboard-response","255","82463","0.0-290.0","3PM8NZGV8Z27ZASLIPN4DC34Q6RXQQ","A50NVZ6AI91O","3WRBLBQ2GRU63BU2LFOJL1G32T90GO","","null","<img src=""img/food6.png"" style=""width:200px; border:14px solid green;"">","null","","","","","","","","","",""
"","image-keyboard-response","256","82776","0.0-292.0","3PM8NZGV8Z27ZASLIPN4DC34Q6RXQQ","A50NVZ6AI91O","3WRBLBQ2GRU63BU2LFOJL1G32T90GO","","309.2999999523163","img/food3.png","76","311.5","3","1","2","2","1,0.5,0,1,0.5,0,0.5,0,1","0.5,0,1,0.5,0,1,0,1,0.5","2","false",""
"","html-keyboard-response","257","83080","0.0-293.0","3PM8NZGV8Z27ZASLIPN4DC34Q6RXQQ","A50NVZ6AI91O","3WRBLBQ2GRU63BU2LFOJL1G32T90GO","","null","<img src=""img/food3.png"" style=""width:200px; border:14px solid green;"">","null","","","","","","","","","",""
"","image-keyboard-response","258","83239","0.0-295.0","3PM8NZGV8Z27ZASLIPN4DC34Q6RXQQ","A50NVZ6AI91O","3WRBLBQ2GRU63BU2LFOJL1G32T90GO","","156.20000004768372","img/food2.png","75","158.10000014305115","2","0","1","2","1,0.5,0,1,0.5,0,0.5,0,1","0.5,0,1,0.5,0,1,0,1,0.5","2","false",""
"","html-keyboard-response","259","83542","0.0-296.0","3PM8NZGV8Z27ZASLIPN4DC34Q6RXQQ","A50NVZ6AI91O","3WRBLBQ2GRU63BU2LFOJL1G32T90GO","","null","<img src=""img/food2.png"" style=""width:200px;border:14px solid red;"">","null","","","","","","","","","",""
"","image-keyboard-response","260","83677","0.0-298.0","3PM8NZGV8Z27ZASLIPN4DC34Q6RXQQ","A50NVZ6AI91O","3WRBLBQ2GRU63BU2LFOJL1G32T90GO","","132.5","img/food3.png","74","134.20000004768372","1","0","2","2","1,0.5,0,1,0.5,0,0.5,0,1","0.5,0,1,0.5,0,1,0,1,0.5","2","false",""
"","html-keyboard-response","261","83978","0.0-299.0","3PM8NZGV8Z27ZASLIPN4DC34Q6RXQQ","A50NVZ6AI91O","3WRBLBQ2GRU63BU2LFOJL1G32T90GO","","null","<img src=""img/food3.png"" style=""width:200px;border:14px solid red;"">","null","","","","","","","","","",""
"","image-keyboard-response","262","84396","0.0-301.0","3PM8NZGV8Z27ZASLIPN4DC34Q6RXQQ","A50NVZ6AI91O","3WRBLBQ2GRU63BU2LFOJL1G32T90GO","","416","img/food6.png","75","417.2999999523163","2","1","3","2","1,0.5,0,1,0.5,0,0.5,0,1","0.5,0,1,0.5,0,1,0,1,0.5","2","false",""
"","html-keyboard-response","263","84700","0.0-302.0","3PM8NZGV8Z27ZASLIPN4DC34Q6RXQQ","A50NVZ6AI91O","3WRBLBQ2GRU63BU2LFOJL1G32T90GO","","null","<img src=""img/food6.png"" style=""width:200px; border:14px solid green;"">","null","","","","","","","","","",""
"","image-keyboard-response","264","84787","0.0-304.0","3PM8NZGV8Z27ZASLIPN4DC34Q6RXQQ","A50NVZ6AI91O","3WRBLBQ2GRU63BU2LFOJL1G32T90GO","","84.80000019073486","img/food6.png","76","86.79999995231628","3","0","3","2","1,0.5,0,1,0.5,0,0.5,0,1","0.5,0,1,0.5,0,1,0,1,0.5","2","false",""
"","html-keyboard-response","265","85090","0.0-305.0","3PM8NZGV8Z27ZASLIPN4DC34Q6RXQQ","A50NVZ6AI91O","3WRBLBQ2GRU63BU2LFOJL1G32T90GO","","null","<img src=""img/food6.png"" style=""width:200px;border:14px solid red;"">","null","","","","","","","","","",""
"","image-keyboard-response","266","85427","0.0-307.0","3PM8NZGV8Z27ZASLIPN4DC34Q6RXQQ","A50NVZ6AI91O","3WRBLBQ2GRU63BU2LFOJL1G32T90GO","","334.89999985694885","img/food2.png","76","336.69999980926514","3","1","1","2","1,0.5,0,1,0.5,0,0.5,0,1","0.5,0,1,0.5,0,1,0,1,0.5","2","false",""
"","html-keyboard-response","267","85731","0.0-308.0","3PM8NZGV8Z27ZASLIPN4DC34Q6RXQQ","A50NVZ6AI91O","3WRBLBQ2GRU63BU2LFOJL1G32T90GO","","null","<img src=""img/food2.png"" style=""width:200px; border:14px solid green;"">","null","","","","","","","","","",""
"","image-keyboard-response","268","85747","0.0-310.0","3PM8NZGV8Z27ZASLIPN4DC34Q6RXQQ","A50NVZ6AI91O","3WRBLBQ2GRU63BU2LFOJL1G32T90GO","","13.799999952316284","img/food6.png","75","15.300000190734863","2","1","3","2","1,0.5,0,1,0.5,0,0.5,0,1","0.5,0,1,0.5,0,1,0,1,0.5","2","false",""
"","html-keyboard-response","269","86049","0.0-311.0","3PM8NZGV8Z27ZASLIPN4DC34Q6RXQQ","A50NVZ6AI91O","3WRBLBQ2GRU63BU2LFOJL1G32T90GO","","null","<img src=""img/food6.png"" style=""width:200px; border:14px solid green;"">","null","","","","","","","","","",""
"","image-keyboard-response","270","86057","0.0-313.0","3PM8NZGV8Z27ZASLIPN4DC34Q6RXQQ","A50NVZ6AI91O","3WRBLBQ2GRU63BU2LFOJL1G32T90GO","","5.5","img/food2.png","74","7.099999904632568","1","1","1","2","1,0.5,0,1,0.5,0,0.5,0,1","0.5,0,1,0.5,0,1,0,1,0.5","2","false",""
"","html-keyboard-response","271","86359","0.0-314.0","3PM8NZGV8Z27ZASLIPN4DC34Q6RXQQ","A50NVZ6AI91O","3WRBLBQ2GRU63BU2LFOJL1G32T90GO","","null","<img src=""img/food2.png"" style=""width:200px; border:14px solid green;"">","null","","","","","","","","","",""
"","image-keyboard-response","272","86498","0.0-316.0","3PM8NZGV8Z27ZASLIPN4DC34Q6RXQQ","A50NVZ6AI91O","3WRBLBQ2GRU63BU2LFOJL1G32T90GO","","135.5","img/food3.png","74","137.60000014305115","1","0","2","2","1,0.5,0,1,0.5,0,0.5,0,1","0.5,0,1,0.5,0,1,0,1,0.5","2","false",""
"","html-keyboard-response","273","86804","0.0-317.0","3PM8NZGV8Z27ZASLIPN4DC34Q6RXQQ","A50NVZ6AI91O","3WRBLBQ2GRU63BU2LFOJL1G32T90GO","","null","<img src=""img/food3.png"" style=""width:200px;border:14px solid red;"">","null","","","","","","","","","",""
"","image-keyboard-response","274","87166","0.0-319.0","3PM8NZGV8Z27ZASLIPN4DC34Q6RXQQ","A50NVZ6AI91O","3WRBLBQ2GRU63BU2LFOJL1G32T90GO","","359.90000009536743","img/food2.png","76","361.2999999523163","3","1","1","2","1,0.5,0,1,0.5,0,0.5,0,1","0.5,0,1,0.5,0,1,0,1,0.5","2","false",""
"","html-keyboard-response","275","87470","0.0-320.0","3PM8NZGV8Z27ZASLIPN4DC34Q6RXQQ","A50NVZ6AI91O","3WRBLBQ2GRU63BU2LFOJL1G32T90GO","","null","<img src=""img/food2.png"" style=""width:200px; border:14px solid green;"">","null","","","","","","","","","",""
"","image-keyboard-response","276","87654","0.0-322.0","3PM8NZGV8Z27ZASLIPN4DC34Q6RXQQ","A50NVZ6AI91O","3WRBLBQ2GRU63BU2LFOJL1G32T90GO","","181.79999995231628","img/food2.png","76","183.60000014305115","3","1","1","2","1,0.5,0,1,0.5,0,0.5,0,1","0.5,0,1,0.5,0,1,0,1,0.5","2","false",""
"","html-keyboard-response","277","87958","0.0-323.0","3PM8NZGV8Z27ZASLIPN4DC34Q6RXQQ","A50NVZ6AI91O","3WRBLBQ2GRU63BU2LFOJL1G32T90GO","","null","<img src=""img/food2.png"" style=""width:200px; border:14px solid green;"">","null","","","","","","","","","",""
"","image-keyboard-response","278","88270","0.0-325.0","3PM8NZGV8Z27ZASLIPN4DC34Q6RXQQ","A50NVZ6AI91O","3WRBLBQ2GRU63BU2LFOJL1G32T90GO","","310","img/food3.png","74","311.2999999523163","1","0","2","2","1,0.5,0,1,0.5,0,0.5,0,1","0.5,0,1,0.5,0,1,0,1,0.5","2","false",""
"","html-keyboard-response","279","88580","0.0-326.0","3PM8NZGV8Z27ZASLIPN4DC34Q6RXQQ","A50NVZ6AI91O","3WRBLBQ2GRU63BU2LFOJL1G32T90GO","","null","<img src=""img/food3.png"" style=""width:200px;border:14px solid red;"">","null","","","","","","","","","",""
"","image-keyboard-response","280","88916","0.0-328.0","3PM8NZGV8Z27ZASLIPN4DC34Q6RXQQ","A50NVZ6AI91O","3WRBLBQ2GRU63BU2LFOJL1G32T90GO","","333.30000019073486","img/food3.png","74","335.2999999523163","1","0","2","2","1,0.5,0,1,0.5,0,0.5,0,1","0.5,0,1,0.5,0,1,0,1,0.5","2","false",""
"","html-keyboard-response","281","89220","0.0-329.0","3PM8NZGV8Z27ZASLIPN4DC34Q6RXQQ","A50NVZ6AI91O","3WRBLBQ2GRU63BU2LFOJL1G32T90GO","","null","<img src=""img/food3.png"" style=""width:200px;border:14px solid red;"">","null","","","","","","","","","",""
"","image-keyboard-response","282","89290","0.0-331.0","3PM8NZGV8Z27ZASLIPN4DC34Q6RXQQ","A50NVZ6AI91O","3WRBLBQ2GRU63BU2LFOJL1G32T90GO","","68.09999990463257","img/food2.png","75","69.70000004768372","2","0","1","2","1,0.5,0,1,0.5,0,0.5,0,1","0.5,0,1,0.5,0,1,0,1,0.5","2","false",""
"","html-keyboard-response","283","89593","0.0-332.0","3PM8NZGV8Z27ZASLIPN4DC34Q6RXQQ","A50NVZ6AI91O","3WRBLBQ2GRU63BU2LFOJL1G32T90GO","","null","<img src=""img/food2.png"" style=""width:200px;border:14px solid red;"">","null","","","","","","","","","",""
"","image-keyboard-response","284","89695","0.0-334.0","3PM8NZGV8Z27ZASLIPN4DC34Q6RXQQ","A50NVZ6AI91O","3WRBLBQ2GRU63BU2LFOJL1G32T90GO","","98.79999995231628","img/food6.png","76","101","3","1","3","2","1,0.5,0,1,0.5,0,0.5,0,1","0.5,0,1,0.5,0,1,0,1,0.5","2","false",""
"","html-keyboard-response","285","89999","0.0-335.0","3PM8NZGV8Z27ZASLIPN4DC34Q6RXQQ","A50NVZ6AI91O","3WRBLBQ2GRU63BU2LFOJL1G32T90GO","","null","<img src=""img/food6.png"" style=""width:200px; border:14px solid green;"">","null","","","","","","","","","",""
"","image-keyboard-response","286","90170","0.0-337.0","3PM8NZGV8Z27ZASLIPN4DC34Q6RXQQ","A50NVZ6AI91O","3WRBLBQ2GRU63BU2LFOJL1G32T90GO","","168.69999980926514","img/food2.png","75","170.70000004768372","2","0","1","2","1,0.5,0,1,0.5,0,0.5,0,1","0.5,0,1,0.5,0,1,0,1,0.5","2","false",""
"","html-keyboard-response","287","90474","0.0-338.0","3PM8NZGV8Z27ZASLIPN4DC34Q6RXQQ","A50NVZ6AI91O","3WRBLBQ2GRU63BU2LFOJL1G32T90GO","","null","<img src=""img/food2.png"" style=""width:200px;border:14px solid red;"">","null","","","","","","","","","",""
"","image-keyboard-response","288","90796","0.0-340.0","3PM8NZGV8Z27ZASLIPN4DC34Q6RXQQ","A50NVZ6AI91O","3WRBLBQ2GRU63BU2LFOJL1G32T90GO","","318","img/food2.png","74","321","1","1","1","2","1,0.5,0,1,0.5,0,0.5,0,1","0.5,0,1,0.5,0,1,0,1,0.5","2","false",""
"","html-keyboard-response","289","91100","0.0-341.0","3PM8NZGV8Z27ZASLIPN4DC34Q6RXQQ","A50NVZ6AI91O","3WRBLBQ2GRU63BU2LFOJL1G32T90GO","","null","<img src=""img/food2.png"" style=""width:200px; border:14px solid green;"">","null","","","","","","","","","",""
"","image-keyboard-response","290","91686","0.0-343.0","3PM8NZGV8Z27ZASLIPN4DC34Q6RXQQ","A50NVZ6AI91O","3WRBLBQ2GRU63BU2LFOJL1G32T90GO","","583.2999999523163","img/food6.png","75","585.4000000953674","2","1","3","2","1,0.5,0,1,0.5,0,0.5,0,1","0.5,0,1,0.5,0,1,0,1,0.5","2","false",""
"","html-keyboard-response","291","91989","0.0-344.0","3PM8NZGV8Z27ZASLIPN4DC34Q6RXQQ","A50NVZ6AI91O","3WRBLBQ2GRU63BU2LFOJL1G32T90GO","","null","<img src=""img/food6.png"" style=""width:200px; border:14px solid green;"">","null","","","","","","","","","",""
"","image-keyboard-response","292","92184","0.0-346.0","3PM8NZGV8Z27ZASLIPN4DC34Q6RXQQ","A50NVZ6AI91O","3WRBLBQ2GRU63BU2LFOJL1G32T90GO","","193.60000014305115","img/food2.png","76","194.90000009536743","3","1","1","2","1,0.5,0,1,0.5,0,0.5,0,1","0.5,0,1,0.5,0,1,0,1,0.5","2","false",""
"","html-keyboard-response","293","92488","0.0-347.0","3PM8NZGV8Z27ZASLIPN4DC34Q6RXQQ","A50NVZ6AI91O","3WRBLBQ2GRU63BU2LFOJL1G32T90GO","","null","<img src=""img/food2.png"" style=""width:200px; border:14px solid green;"">","null","","","","","","","","","",""
"","image-keyboard-response","294","92950","0.0-349.0","3PM8NZGV8Z27ZASLIPN4DC34Q6RXQQ","A50NVZ6AI91O","3WRBLBQ2GRU63BU2LFOJL1G32T90GO","","459.2999999523163","img/food6.png","76","461.2000000476837","3","0","3","2","1,0.5,0,1,0.5,0,0.5,0,1","0.5,0,1,0.5,0,1,0,1,0.5","2","false",""
"","html-keyboard-response","295","93253","0.0-350.0","3PM8NZGV8Z27ZASLIPN4DC34Q6RXQQ","A50NVZ6AI91O","3WRBLBQ2GRU63BU2LFOJL1G32T90GO","","null","<img src=""img/food6.png"" style=""width:200px;border:14px solid red;"">","null","","","","","","","","","",""
"","image-keyboard-response","296","93606","0.0-352.0","3PM8NZGV8Z27ZASLIPN4DC34Q6RXQQ","A50NVZ6AI91O","3WRBLBQ2GRU63BU2LFOJL1G32T90GO","","351.40000009536743","img/food2.png","76","352.60000014305115","3","1","1","2","1,0.5,0,1,0.5,0,0.5,0,1","0.5,0,1,0.5,0,1,0,1,0.5","2","false",""
"","html-keyboard-response","297","93909","0.0-353.0","3PM8NZGV8Z27ZASLIPN4DC34Q6RXQQ","A50NVZ6AI91O","3WRBLBQ2GRU63BU2LFOJL1G32T90GO","","null","<img src=""img/food2.png"" style=""width:200px; border:14px solid green;"">","null","","","","","","","","","",""
"","image-keyboard-response","298","94056","0.0-355.0","3PM8NZGV8Z27ZASLIPN4DC34Q6RXQQ","A50NVZ6AI91O","3WRBLBQ2GRU63BU2LFOJL1G32T90GO","","144.09999990463257","img/food2.png","75","145.89999985694885","2","0","1","2","1,0.5,0,1,0.5,0,0.5,0,1","0.5,0,1,0.5,0,1,0,1,0.5","2","false",""
"","html-keyboard-response","299","94359","0.0-356.0","3PM8NZGV8Z27ZASLIPN4DC34Q6RXQQ","A50NVZ6AI91O","3WRBLBQ2GRU63BU2LFOJL1G32T90GO","","null","<img src=""img/food2.png"" style=""width:200px;border:14px solid red;"">","null","","","","","","","","","",""
"","image-keyboard-response","300","94801","0.0-358.0","3PM8NZGV8Z27ZASLIPN4DC34Q6RXQQ","A50NVZ6AI91O","3WRBLBQ2GRU63BU2LFOJL1G32T90GO","","438.7999999523163","img/food6.png","74","440.60000014305115","1","0","3","2","1,0.5,0,1,0.5,0,0.5,0,1","0.5,0,1,0.5,0,1,0,1,0.5","2","false",""
"","html-keyboard-response","301","95103","0.0-359.0","3PM8NZGV8Z27ZASLIPN4DC34Q6RXQQ","A50NVZ6AI91O","3WRBLBQ2GRU63BU2LFOJL1G32T90GO","","null","<img src=""img/food6.png"" style=""width:200px;border:14px solid red;"">","null","","","","","","","","","",""
"","image-keyboard-response","302","95935","0.0-361.0","3PM8NZGV8Z27ZASLIPN4DC34Q6RXQQ","A50NVZ6AI91O","3WRBLBQ2GRU63BU2LFOJL1G32T90GO","","828.2999999523163","img/food2.png","74","830.7999999523163","1","1","1","2","1,0.5,0,1,0.5,0,0.5,0,1","0.5,0,1,0.5,0,1,0,1,0.5","2","false",""
"","html-keyboard-response","303","96238","0.0-362.0","3PM8NZGV8Z27ZASLIPN4DC34Q6RXQQ","A50NVZ6AI91O","3WRBLBQ2GRU63BU2LFOJL1G32T90GO","","null","<img src=""img/food2.png"" style=""width:200px; border:14px solid green;"">","null","","","","","","","","","",""
"","image-keyboard-response","304","96326","0.0-364.0","3PM8NZGV8Z27ZASLIPN4DC34Q6RXQQ","A50NVZ6AI91O","3WRBLBQ2GRU63BU2LFOJL1G32T90GO","","84.79999995231628","img/food3.png","75","87.20000004768372","2","0","2","2","1,0.5,0,1,0.5,0,0.5,0,1","0.5,0,1,0.5,0,1,0,1,0.5","2","false",""
"","html-keyboard-response","305","96629","0.0-365.0","3PM8NZGV8Z27ZASLIPN4DC34Q6RXQQ","A50NVZ6AI91O","3WRBLBQ2GRU63BU2LFOJL1G32T90GO","","null","<img src=""img/food3.png"" style=""width:200px;border:14px solid red;"">","null","","","","","","","","","",""
"","image-keyboard-response","306","96940","0.0-367.0","3PM8NZGV8Z27ZASLIPN4DC34Q6RXQQ","A50NVZ6AI91O","3WRBLBQ2GRU63BU2LFOJL1G32T90GO","","308.7999999523163","img/food2.png","75","310.5","2","0","1","2","1,0.5,0,1,0.5,0,0.5,0,1","0.5,0,1,0.5,0,1,0,1,0.5","2","false",""
"","html-keyboard-response","307","97243","0.0-368.0","3PM8NZGV8Z27ZASLIPN4DC34Q6RXQQ","A50NVZ6AI91O","3WRBLBQ2GRU63BU2LFOJL1G32T90GO","","null","<img src=""img/food2.png"" style=""width:200px;border:14px solid red;"">","null","","","","","","","","","",""
"","image-keyboard-response","308","97758","0.0-370.0","3PM8NZGV8Z27ZASLIPN4DC34Q6RXQQ","A50NVZ6AI91O","3WRBLBQ2GRU63BU2LFOJL1G32T90GO","","512.5999999046326","img/food6.png","76","514.5999999046326","3","1","3","2","1,0.5,0,1,0.5,0,0.5,0,1","0.5,0,1,0.5,0,1,0,1,0.5","2","false",""
"","html-keyboard-response","309","98062","0.0-371.0","3PM8NZGV8Z27ZASLIPN4DC34Q6RXQQ","A50NVZ6AI91O","3WRBLBQ2GRU63BU2LFOJL1G32T90GO","","null","<img src=""img/food6.png"" style=""width:200px; border:14px solid green;"">","null","","","","","","","","","",""
"","image-keyboard-response","310","98443","0.0-373.0","3PM8NZGV8Z27ZASLIPN4DC34Q6RXQQ","A50NVZ6AI91O","3WRBLBQ2GRU63BU2LFOJL1G32T90GO","","377.90000009536743","img/food3.png","76","380","3","1","2","2","1,0.5,0,1,0.5,0,0.5,0,1","0.5,0,1,0.5,0,1,0,1,0.5","2","false",""
"","html-keyboard-response","311","98747","0.0-374.0","3PM8NZGV8Z27ZASLIPN4DC34Q6RXQQ","A50NVZ6AI91O","3WRBLBQ2GRU63BU2LFOJL1G32T90GO","","null","<img src=""img/food3.png"" style=""width:200px; border:14px solid green;"">","null","","","","","","","","","",""
"","image-keyboard-response","312","99039","0.0-376.0","3PM8NZGV8Z27ZASLIPN4DC34Q6RXQQ","A50NVZ6AI91O","3WRBLBQ2GRU63BU2LFOJL1G32T90GO","","289.10000014305115","img/food6.png","74","291.30000019073486","1","0","3","2","1,0.5,0,1,0.5,0,0.5,0,1","0.5,0,1,0.5,0,1,0,1,0.5","2","false",""
"","html-keyboard-response","313","99343","0.0-377.0","3PM8NZGV8Z27ZASLIPN4DC34Q6RXQQ","A50NVZ6AI91O","3WRBLBQ2GRU63BU2LFOJL1G32T90GO","","null","<img src=""img/food6.png"" style=""width:200px;border:14px solid red;"">","null","","","","","","","","","",""
"","image-keyboard-response","314","99566","0.0-379.0","3PM8NZGV8Z27ZASLIPN4DC34Q6RXQQ","A50NVZ6AI91O","3WRBLBQ2GRU63BU2LFOJL1G32T90GO","","220.40000009536743","img/food6.png","75","222.59999990463257","2","1","3","2","1,0.5,0,1,0.5,0,0.5,0,1","0.5,0,1,0.5,0,1,0,1,0.5","2","false",""
"","html-keyboard-response","315","99870","0.0-380.0","3PM8NZGV8Z27ZASLIPN4DC34Q6RXQQ","A50NVZ6AI91O","3WRBLBQ2GRU63BU2LFOJL1G32T90GO","","null","<img src=""img/food6.png"" style=""width:200px; border:14px solid green;"">","null","","","","","","","","","",""
"","image-keyboard-response","316","100139","0.0-382.0","3PM8NZGV8Z27ZASLIPN4DC34Q6RXQQ","A50NVZ6AI91O","3WRBLBQ2GRU63BU2LFOJL1G32T90GO","","265.60000014305115","img/food3.png","76","268.09999990463257","3","1","2","2","1,0.5,0,1,0.5,0,0.5,0,1","0.5,0,1,0.5,0,1,0,1,0.5","2","false",""
"","html-keyboard-response","317","100443","0.0-383.0","3PM8NZGV8Z27ZASLIPN4DC34Q6RXQQ","A50NVZ6AI91O","3WRBLBQ2GRU63BU2LFOJL1G32T90GO","","null","<img src=""img/food3.png"" style=""width:200px; border:14px solid green;"">","null","","","","","","","","","",""
"","image-keyboard-response","318","100590","0.0-385.0","3PM8NZGV8Z27ZASLIPN4DC34Q6RXQQ","A50NVZ6AI91O","3WRBLBQ2GRU63BU2LFOJL1G32T90GO","","144.70000004768372","img/food6.png","75","146.89999985694885","2","1","3","2","1,0.5,0,1,0.5,0,0.5,0,1","0.5,0,1,0.5,0,1,0,1,0.5","2","false",""
"","html-keyboard-response","319","100894","0.0-386.0","3PM8NZGV8Z27ZASLIPN4DC34Q6RXQQ","A50NVZ6AI91O","3WRBLBQ2GRU63BU2LFOJL1G32T90GO","","null","<img src=""img/food6.png"" style=""width:200px; border:14px solid green;"">","null","","","","","","","","","",""
"","image-keyboard-response","320","101016","0.0-388.0","3PM8NZGV8Z27ZASLIPN4DC34Q6RXQQ","A50NVZ6AI91O","3WRBLBQ2GRU63BU2LFOJL1G32T90GO","","118.79999995231628","img/food2.png","74","121.09999990463257","1","0","1","2","1,0.5,0,1,0.5,0,0.5,0,1","0.5,0,1,0.5,0,1,0,1,0.5","2","false",""
"","html-keyboard-response","321","101320","0.0-389.0","3PM8NZGV8Z27ZASLIPN4DC34Q6RXQQ","A50NVZ6AI91O","3WRBLBQ2GRU63BU2LFOJL1G32T90GO","","null","<img src=""img/food2.png"" style=""width:200px;border:14px solid red;"">","null","","","","","","","","","",""
"","image-keyboard-response","322","101465","0.0-391.0","3PM8NZGV8Z27ZASLIPN4DC34Q6RXQQ","A50NVZ6AI91O","3WRBLBQ2GRU63BU2LFOJL1G32T90GO","","142.59999990463257","img/food3.png","75","144.80000019073486","2","0","2","2","1,0.5,0,1,0.5,0,0.5,0,1","0.5,0,1,0.5,0,1,0,1,0.5","2","false",""
"","html-keyboard-response","323","101768","0.0-392.0","3PM8NZGV8Z27ZASLIPN4DC34Q6RXQQ","A50NVZ6AI91O","3WRBLBQ2GRU63BU2LFOJL1G32T90GO","","null","<img src=""img/food3.png"" style=""width:200px;border:14px solid red;"">","null","","","","","","","","","",""
"","image-keyboard-response","324","101937","0.0-394.0","3PM8NZGV8Z27ZASLIPN4DC34Q6RXQQ","A50NVZ6AI91O","3WRBLBQ2GRU63BU2LFOJL1G32T90GO","","166.5","img/food2.png","76","168.59999990463257","3","1","1","2","1,0.5,0,1,0.5,0,0.5,0,1","0.5,0,1,0.5,0,1,0,1,0.5","2","false",""
"","html-keyboard-response","325","102240","0.0-395.0","3PM8NZGV8Z27ZASLIPN4DC34Q6RXQQ","A50NVZ6AI91O","3WRBLBQ2GRU63BU2LFOJL1G32T90GO","","null","<img src=""img/food2.png"" style=""width:200px; border:14px solid green;"">","null","","","","","","","","","",""
"","image-keyboard-response","326","102534","0.0-397.0","3PM8NZGV8Z27ZASLIPN4DC34Q6RXQQ","A50NVZ6AI91O","3WRBLBQ2GRU63BU2LFOJL1G32T90GO","","292.69999980926514","img/food2.png","76","294.09999990463257","3","1","1","2","1,0.5,0,1,0.5,0,0.5,0,1","0.5,0,1,0.5,0,1,0,1,0.5","2","false",""
"","html-keyboard-response","327","102838","0.0-398.0","3PM8NZGV8Z27ZASLIPN4DC34Q6RXQQ","A50NVZ6AI91O","3WRBLBQ2GRU63BU2LFOJL1G32T90GO","","null","<img src=""img/food2.png"" style=""width:200px; border:14px solid green;"">","null","","","","","","","","","",""
"","image-keyboard-response","328","102862","0.0-400.0","3PM8NZGV8Z27ZASLIPN4DC34Q6RXQQ","A50NVZ6AI91O","3WRBLBQ2GRU63BU2LFOJL1G32T90GO","","21.799999952316284","img/food3.png","75","23.299999952316284","2","0","2","2","1,0.5,0,1,0.5,0,0.5,0,1","0.5,0,1,0.5,0,1,0,1,0.5","2","false",""
"","html-keyboard-response","329","103165","0.0-401.0","3PM8NZGV8Z27ZASLIPN4DC34Q6RXQQ","A50NVZ6AI91O","3WRBLBQ2GRU63BU2LFOJL1G32T90GO","","null","<img src=""img/food3.png"" style=""width:200px;border:14px solid red;"">","null","","","","","","","","","",""
"","image-keyboard-response","330","103262","0.0-403.0","3PM8NZGV8Z27ZASLIPN4DC34Q6RXQQ","A50NVZ6AI91O","3WRBLBQ2GRU63BU2LFOJL1G32T90GO","","95.09999990463257","img/food2.png","74","96.70000004768372","1","0","1","2","1,0.5,0,1,0.5,0,0.5,0,1","0.5,0,1,0.5,0,1,0,1,0.5","2","false",""
"","html-keyboard-response","331","103565","0.0-404.0","3PM8NZGV8Z27ZASLIPN4DC34Q6RXQQ","A50NVZ6AI91O","3WRBLBQ2GRU63BU2LFOJL1G32T90GO","","null","<img src=""img/food2.png"" style=""width:200px;border:14px solid red;"">","null","","","","","","","","","",""
"","image-keyboard-response","332","103733","0.0-406.0","3PM8NZGV8Z27ZASLIPN4DC34Q6RXQQ","A50NVZ6AI91O","3WRBLBQ2GRU63BU2LFOJL1G32T90GO","","165.29999995231628","img/food3.png","75","166.90000009536743","2","0","2","2","1,0.5,0,1,0.5,0,0.5,0,1","0.5,0,1,0.5,0,1,0,1,0.5","2","false",""
"","html-keyboard-response","333","104035","0.0-407.0","3PM8NZGV8Z27ZASLIPN4DC34Q6RXQQ","A50NVZ6AI91O","3WRBLBQ2GRU63BU2LFOJL1G32T90GO","","null","<img src=""img/food3.png"" style=""width:200px;border:14px solid red;"">","null","","","","","","","","","",""
"","image-keyboard-response","334","104156","0.0-409.0","3PM8NZGV8Z27ZASLIPN4DC34Q6RXQQ","A50NVZ6AI91O","3WRBLBQ2GRU63BU2LFOJL1G32T90GO","","120.09999990463257","img/food6.png","76","121.19999980926514","3","1","3","2","1,0.5,0,1,0.5,0,0.5,0,1","0.5,0,1,0.5,0,1,0,1,0.5","2","false",""
"","html-keyboard-response","335","104459","0.0-410.0","3PM8NZGV8Z27ZASLIPN4DC34Q6RXQQ","A50NVZ6AI91O","3WRBLBQ2GRU63BU2LFOJL1G32T90GO","","null","<img src=""img/food6.png"" style=""width:200px; border:14px solid green;"">","null","","","","","","","","","",""
"","image-keyboard-response","336","104630","0.0-412.0","3PM8NZGV8Z27ZASLIPN4DC34Q6RXQQ","A50NVZ6AI91O","3WRBLBQ2GRU63BU2LFOJL1G32T90GO","","168.20000004768372","img/food2.png","76","170.30000019073486","3","1","1","2","1,0.5,0,1,0.5,0,0.5,0,1","0.5,0,1,0.5,0,1,0,1,0.5","2","false",""
"","html-keyboard-response","337","104934","0.0-413.0","3PM8NZGV8Z27ZASLIPN4DC34Q6RXQQ","A50NVZ6AI91O","3WRBLBQ2GRU63BU2LFOJL1G32T90GO","","null","<img src=""img/food2.png"" style=""width:200px; border:14px solid green;"">","null","","","","","","","","","",""
"","image-keyboard-response","338","105404","0.0-415.0","3PM8NZGV8Z27ZASLIPN4DC34Q6RXQQ","A50NVZ6AI91O","3WRBLBQ2GRU63BU2LFOJL1G32T90GO","","468.2000000476837","img/food2.png","74","470.10000014305115","1","0","1","2","1,0.5,0,1,0.5,0,0.5,0,1","0.5,0,1,0.5,0,1,0,1,0.5","2","false",""
"","html-keyboard-response","339","105707","0.0-416.0","3PM8NZGV8Z27ZASLIPN4DC34Q6RXQQ","A50NVZ6AI91O","3WRBLBQ2GRU63BU2LFOJL1G32T90GO","","null","<img src=""img/food2.png"" style=""width:200px;border:14px solid red;"">","null","","","","","","","","","",""
"","image-keyboard-response","340","105963","0.0-418.0","3PM8NZGV8Z27ZASLIPN4DC34Q6RXQQ","A50NVZ6AI91O","3WRBLBQ2GRU63BU2LFOJL1G32T90GO","","254.70000004768372","img/food6.png","75","255.5","2","1","3","2","1,0.5,0,1,0.5,0,0.5,0,1","0.5,0,1,0.5,0,1,0,1,0.5","2","false",""
"","html-keyboard-response","341","106266","0.0-419.0","3PM8NZGV8Z27ZASLIPN4DC34Q6RXQQ","A50NVZ6AI91O","3WRBLBQ2GRU63BU2LFOJL1G32T90GO","","null","<img src=""img/food6.png"" style=""width:200px; border:14px solid green;"">","null","","","","","","","","","",""
"","image-keyboard-response","342","106383","0.0-421.0","3PM8NZGV8Z27ZASLIPN4DC34Q6RXQQ","A50NVZ6AI91O","3WRBLBQ2GRU63BU2LFOJL1G32T90GO","","115.19999980926514","img/food6.png","76","116.90000009536743","3","0","3","2","1,0.5,0,1,0.5,0,0.5,0,1","0.5,0,1,0.5,0,1,0,1,0.5","2","false",""
"","html-keyboard-response","343","106686","0.0-422.0","3PM8NZGV8Z27ZASLIPN4DC34Q6RXQQ","A50NVZ6AI91O","3WRBLBQ2GRU63BU2LFOJL1G32T90GO","","null","<img src=""img/food6.png"" style=""width:200px;border:14px solid red;"">","null","","","","","","","","","",""
"","image-keyboard-response","344","107020","0.0-424.0","3PM8NZGV8Z27ZASLIPN4DC34Q6RXQQ","A50NVZ6AI91O","3WRBLBQ2GRU63BU2LFOJL1G32T90GO","","331.5","img/food2.png","76","333.39999985694885","3","1","1","2","1,0.5,0,1,0.5,0,0.5,0,1","0.5,0,1,0.5,0,1,0,1,0.5","2","false",""
"","html-keyboard-response","345","107337","0.0-425.0","3PM8NZGV8Z27ZASLIPN4DC34Q6RXQQ","A50NVZ6AI91O","3WRBLBQ2GRU63BU2LFOJL1G32T90GO","","null","<img src=""img/food2.png"" style=""width:200px; border:14px solid green;"">","null","","","","","","","","","",""
"","image-keyboard-response","346","107574","0.0-427.0","3PM8NZGV8Z27ZASLIPN4DC34Q6RXQQ","A50NVZ6AI91O","3WRBLBQ2GRU63BU2LFOJL1G32T90GO","","234","img/food2.png","74","236","1","0","1","2","1,0.5,0,1,0.5,0,0.5,0,1","0.5,0,1,0.5,0,1,0,1,0.5","2","false",""
"","html-keyboard-response","347","107877","0.0-428.0","3PM8NZGV8Z27ZASLIPN4DC34Q6RXQQ","A50NVZ6AI91O","3WRBLBQ2GRU63BU2LFOJL1G32T90GO","","null","<img src=""img/food2.png"" style=""width:200px;border:14px solid red;"">","null","","","","","","","","","",""
"","image-keyboard-response","348","108061","0.0-430.0","3PM8NZGV8Z27ZASLIPN4DC34Q6RXQQ","A50NVZ6AI91O","3WRBLBQ2GRU63BU2LFOJL1G32T90GO","","180.60000014305115","img/food6.png","75","182.69999980926514","2","1","3","2","1,0.5,0,1,0.5,0,0.5,0,1","0.5,0,1,0.5,0,1,0,1,0.5","2","false",""
"","html-keyboard-response","349","108363","0.0-431.0","3PM8NZGV8Z27ZASLIPN4DC34Q6RXQQ","A50NVZ6AI91O","3WRBLBQ2GRU63BU2LFOJL1G32T90GO","","null","<img src=""img/food6.png"" style=""width:200px; border:14px solid green;"">","null","","","","","","","","","",""
"","image-keyboard-response","350","108520","0.0-433.0","3PM8NZGV8Z27ZASLIPN4DC34Q6RXQQ","A50NVZ6AI91O","3WRBLBQ2GRU63BU2LFOJL1G32T90GO","","152.79999995231628","img/food3.png","76","155.10000014305115","3","1","2","2","1,0.5,0,1,0.5,0,0.5,0,1","0.5,0,1,0.5,0,1,0,1,0.5","2","false",""
"","html-keyboard-response","351","108823","0.0-434.0","3PM8NZGV8Z27ZASLIPN4DC34Q6RXQQ","A50NVZ6AI91O","3WRBLBQ2GRU63BU2LFOJL1G32T90GO","","null","<img src=""img/food3.png"" style=""width:200px; border:14px solid green;"">","null","","","","","","","","","",""
"","image-keyboard-response","352","109117","0.0-436.0","3PM8NZGV8Z27ZASLIPN4DC34Q6RXQQ","A50NVZ6AI91O","3WRBLBQ2GRU63BU2LFOJL1G32T90GO","","291.5","img/food3.png","75","293","2","0","2","2","1,0.5,0,1,0.5,0,0.5,0,1","0.5,0,1,0.5,0,1,0,1,0.5","2","false",""
"","html-keyboard-response","353","109419","0.0-437.0","3PM8NZGV8Z27ZASLIPN4DC34Q6RXQQ","A50NVZ6AI91O","3WRBLBQ2GRU63BU2LFOJL1G32T90GO","","null","<img src=""img/food3.png"" style=""width:200px;border:14px solid red;"">","null","","","","","","","","","",""
"","image-keyboard-response","354","109477","0.0-439.0","3PM8NZGV8Z27ZASLIPN4DC34Q6RXQQ","A50NVZ6AI91O","3WRBLBQ2GRU63BU2LFOJL1G32T90GO","","55.39999985694885","img/food2.png","74","57.299999952316284","1","1","1","2","1,0.5,0,1,0.5,0,0.5,0,1","0.5,0,1,0.5,0,1,0,1,0.5","2","false",""
"","html-keyboard-response","355","109780","0.0-440.0","3PM8NZGV8Z27ZASLIPN4DC34Q6RXQQ","A50NVZ6AI91O","3WRBLBQ2GRU63BU2LFOJL1G32T90GO","","null","<img src=""img/food2.png"" style=""width:200px; border:14px solid green;"">","null","","","","","","","","","",""
"","image-keyboard-response","356","110170","0.0-442.0","3PM8NZGV8Z27ZASLIPN4DC34Q6RXQQ","A50NVZ6AI91O","3WRBLBQ2GRU63BU2LFOJL1G32T90GO","","387.7999999523163","img/food3.png","74","389.2999999523163","1","0","2","2","1,0.5,0,1,0.5,0,0.5,0,1","0.5,0,1,0.5,0,1,0,1,0.5","2","false",""
"","html-keyboard-response","357","110473","0.0-443.0","3PM8NZGV8Z27ZASLIPN4DC34Q6RXQQ","A50NVZ6AI91O","3WRBLBQ2GRU63BU2LFOJL1G32T90GO","","null","<img src=""img/food3.png"" style=""width:200px;border:14px solid red;"">","null","","","","","","","","","",""
"","image-keyboard-response","358","110527","0.0-445.0","3PM8NZGV8Z27ZASLIPN4DC34Q6RXQQ","A50NVZ6AI91O","3WRBLBQ2GRU63BU2LFOJL1G32T90GO","","51.5","img/food6.png","75","53.39999985694885","2","1","3","2","1,0.5,0,1,0.5,0,0.5,0,1","0.5,0,1,0.5,0,1,0,1,0.5","2","false",""
"","html-keyboard-response","359","110831","0.0-446.0","3PM8NZGV8Z27ZASLIPN4DC34Q6RXQQ","A50NVZ6AI91O","3WRBLBQ2GRU63BU2LFOJL1G32T90GO","","null","<img src=""img/food6.png"" style=""width:200px; border:14px solid green;"">","null","","","","","","","","","",""
"","image-keyboard-response","360","111064","0.0-448.0","3PM8NZGV8Z27ZASLIPN4DC34Q6RXQQ","A50NVZ6AI91O","3WRBLBQ2GRU63BU2LFOJL1G32T90GO","","231.90000009536743","img/food3.png","76","232.79999995231628","3","1","2","2","1,0.5,0,1,0.5,0,0.5,0,1","0.5,0,1,0.5,0,1,0,1,0.5","2","false",""
"","html-keyboard-response","361","111365","0.0-449.0","3PM8NZGV8Z27ZASLIPN4DC34Q6RXQQ","A50NVZ6AI91O","3WRBLBQ2GRU63BU2LFOJL1G32T90GO","","null","<img src=""img/food3.png"" style=""width:200px; border:14px solid green;"">","null","","","","","","","","","",""
"","image-keyboard-response","362","111695","0.0-451.0","3PM8NZGV8Z27ZASLIPN4DC34Q6RXQQ","A50NVZ6AI91O","3WRBLBQ2GRU63BU2LFOJL1G32T90GO","","326.90000009536743","img/food6.png","75","329.19999980926514","2","1","3","2","1,0.5,0,1,0.5,0,0.5,0,1","0.5,0,1,0.5,0,1,0,1,0.5","2","false",""
"","html-keyboard-response","363","111998","0.0-452.0","3PM8NZGV8Z27ZASLIPN4DC34Q6RXQQ","A50NVZ6AI91O","3WRBLBQ2GRU63BU2LFOJL1G32T90GO","","null","<img src=""img/food6.png"" style=""width:200px; border:14px solid green;"">","null","","","","","","","","","",""
"","instructions","364","115681","0.0-454.0","3PM8NZGV8Z27ZASLIPN4DC34Q6RXQQ","A50NVZ6AI91O","3WRBLBQ2GRU63BU2LFOJL1G32T90GO","[{""page_index"":0,""viewing_time"":3679.899999856949}]","3680.699999809265","","","","","","","","","","","",""
"","survey-text","365","119048","0.0-455.0","3PM8NZGV8Z27ZASLIPN4DC34Q6RXQQ","A50NVZ6AI91O","3WRBLBQ2GRU63BU2LFOJL1G32T90GO","","3359.5","","","","","","","","","","","","{""Q0"":""A50NVZ6AI91O""}"
