"success","trial_type","trial_index","time_elapsed","internal_node_id","assignmentID","mturkID","hitID","view_history","rt","stimulus","key_press","reactionTime","a","r","warning","s","cond","reward_cond","reward_cond_actual","reward_matrix_idx","responses"
"true","fullscreen","0","4515","0.0-0.0","3D3VGR7TA11VVD07BF5GBMO5FSPR38","A5CIHEPULDFUF","3HUR21WDDUBEMSLDIXZW1FAIHW8YX3","","","","","","","","","","","","","",""
"","instructions","1","32681","0.0-1.0","3D3VGR7TA11VVD07BF5GBMO5FSPR38","A5CIHEPULDFUF","3HUR21WDDUBEMSLDIXZW1FAIHW8YX3","[{""page_index"":0,""viewing_time"":3306.699999809265},{""page_index"":1,""viewing_time"":1481.6000001430511},{""page_index"":0,""viewing_time"":3453.7000000476837},{""page_index"":1,""viewing_time"":3441.699999809265},{""page_index"":2,""viewing_time"":2422.300000190735},{""page_index"":3,""viewing_time"":4849.5},{""page_index"":4,""viewing_time"":1945.5},{""page_index"":5,""viewing_time"":3718.699999809265},{""page_index"":6,""viewing_time"":3541.2000000476837}]","28161.599999904633","","","","","","","","","","","",""
"","instructions","2","43356","0.0-2.0","3D3VGR7TA11VVD07BF5GBMO5FSPR38","A5CIHEPULDFUF","3HUR21WDDUBEMSLDIXZW1FAIHW8YX3","[{""page_index"":0,""viewing_time"":9152.799999952316},{""page_index"":1,""viewing_time"":1519.7000000476837}]","10673.099999904633","","","","","","","","","","","",""
"","image-keyboard-response","3","43726","0.0-3.0","3D3VGR7TA11VVD07BF5GBMO5FSPR38","A5CIHEPULDFUF","3HUR21WDDUBEMSLDIXZW1FAIHW8YX3","","365.40000009536743","img/food6.png","75","370.09999990463257","2","0","false","3","2","1,0.5,0,1,0.5,0,0.5,0,1","0,1,0.5,0,1,0.5,1,0.5,0","3",""
"","html-keyboard-response","4","44032","0.0-4.0","3D3VGR7TA11VVD07BF5GBMO5FSPR38","A5CIHEPULDFUF","3HUR21WDDUBEMSLDIXZW1FAIHW8YX3","","null","<img src=""img/food6.png"" style=""width:200px;border:14px solid red;"">","null","","","","","","","","","",""
"","image-keyboard-response","5","44150","0.0-6.0","3D3VGR7TA11VVD07BF5GBMO5FSPR38","A5CIHEPULDFUF","3HUR21WDDUBEMSLDIXZW1FAIHW8YX3","","114.60000014305115","img/food2.png","74","117.09999990463257","1","0","false","1","2","1,0.5,0,1,0.5,0,0.5,0,1","0,1,0.5,0,1,0.5,1,0.5,0","3",""
"","html-keyboard-response","6","44454","0.0-7.0","3D3VGR7TA11VVD07BF5GBMO5FSPR38","A5CIHEPULDFUF","3HUR21WDDUBEMSLDIXZW1FAIHW8YX3","","null","<img src=""img/food2.png"" style=""width:200px;border:14px solid red;"">","null","","","","","","","","","",""
"","image-keyboard-response","7","44673","0.0-9.0","3D3VGR7TA11VVD07BF5GBMO5FSPR38","A5CIHEPULDFUF","3HUR21WDDUBEMSLDIXZW1FAIHW8YX3","","216.09999990463257","img/food4.png","75","218.09999990463257","2","1","false","2","2","1,0.5,0,1,0.5,0,0.5,0,1","0,1,0.5,0,1,0.5,1,0.5,0","3",""
"","html-keyboard-response","8","44978","0.0-10.0","3D3VGR7TA11VVD07BF5GBMO5FSPR38","A5CIHEPULDFUF","3HUR21WDDUBEMSLDIXZW1FAIHW8YX3","","null","<img src=""img/food4.png"" style=""width:200px; border:14px solid green;"">","null","","","","","","","","","",""
"","image-keyboard-response","9","45310","0.0-12.0","3D3VGR7TA11VVD07BF5GBMO5FSPR38","A5CIHEPULDFUF","3HUR21WDDUBEMSLDIXZW1FAIHW8YX3","","328.80000019073486","img/food6.png","76","330.59999990463257","3","0","false","3","2","1,0.5,0,1,0.5,0,0.5,0,1","0,1,0.5,0,1,0.5,1,0.5,0","3",""
"","html-keyboard-response","10","45613","0.0-13.0","3D3VGR7TA11VVD07BF5GBMO5FSPR38","A5CIHEPULDFUF","3HUR21WDDUBEMSLDIXZW1FAIHW8YX3","","null","<img src=""img/food6.png"" style=""width:200px;border:14px solid red;"">","null","","","","","","","","","",""
"","image-keyboard-response","11","45929","0.0-15.0","3D3VGR7TA11VVD07BF5GBMO5FSPR38","A5CIHEPULDFUF","3HUR21WDDUBEMSLDIXZW1FAIHW8YX3","","308","img/food6.png","75","313.60000014305115","2","0","false","3","2","1,0.5,0,1,0.5,0,0.5,0,1","0,1,0.5,0,1,0.5,1,0.5,0","3",""
"","html-keyboard-response","12","46233","0.0-16.0","3D3VGR7TA11VVD07BF5GBMO5FSPR38","A5CIHEPULDFUF","3HUR21WDDUBEMSLDIXZW1FAIHW8YX3","","null","<img src=""img/food6.png"" style=""width:200px;border:14px solid red;"">","null","","","","","","","","","",""
"","image-keyboard-response","13","46236","0.0-18.0","3D3VGR7TA11VVD07BF5GBMO5FSPR38","A5CIHEPULDFUF","3HUR21WDDUBEMSLDIXZW1FAIHW8YX3","","0.5","img/food2.png","76","2.0999999046325684","3","0","false","1","2","1,0.5,0,1,0.5,0,0.5,0,1","0,1,0.5,0,1,0.5,1,0.5,0","3",""
"","html-keyboard-response","14","46539","0.0-19.0","3D3VGR7TA11VVD07BF5GBMO5FSPR38","A5CIHEPULDFUF","3HUR21WDDUBEMSLDIXZW1FAIHW8YX3","","null","<img src=""img/food2.png"" style=""width:200px;border:14px solid red;"">","null","","","","","","","","","",""
"","image-keyboard-response","15","46911","0.0-21.0","3D3VGR7TA11VVD07BF5GBMO5FSPR38","A5CIHEPULDFUF","3HUR21WDDUBEMSLDIXZW1FAIHW8YX3","","364.2000000476837","img/food2.png","75","370","2","1","false","1","2","1,0.5,0,1,0.5,0,0.5,0,1","0,1,0.5,0,1,0.5,1,0.5,0","3",""
"","html-keyboard-response","16","47213","0.0-22.0","3D3VGR7TA11VVD07BF5GBMO5FSPR38","A5CIHEPULDFUF","3HUR21WDDUBEMSLDIXZW1FAIHW8YX3","","null","<img src=""img/food2.png"" style=""width:200px; border:14px solid green;"">","null","","","","","","","","","",""
"","image-keyboard-response","17","47358","0.0-24.0","3D3VGR7TA11VVD07BF5GBMO5FSPR38","A5CIHEPULDFUF","3HUR21WDDUBEMSLDIXZW1FAIHW8YX3","","134.90000009536743","img/food4.png","74","142.29999995231628","1","0","false","2","2","1,0.5,0,1,0.5,0,0.5,0,1","0,1,0.5,0,1,0.5,1,0.5,0","3",""
"","html-keyboard-response","18","47661","0.0-25.0","3D3VGR7TA11VVD07BF5GBMO5FSPR38","A5CIHEPULDFUF","3HUR21WDDUBEMSLDIXZW1FAIHW8YX3","","null","<img src=""img/food4.png"" style=""width:200px;border:14px solid red;"">","null","","","","","","","","","",""
"","image-keyboard-response","19","47997","0.0-27.0","3D3VGR7TA11VVD07BF5GBMO5FSPR38","A5CIHEPULDFUF","3HUR21WDDUBEMSLDIXZW1FAIHW8YX3","","332.7000000476837","img/food4.png","75","334.59999990463257","2","1","false","2","2","1,0.5,0,1,0.5,0,0.5,0,1","0,1,0.5,0,1,0.5,1,0.5,0","3",""
"","html-keyboard-response","20","48300","0.0-28.0","3D3VGR7TA11VVD07BF5GBMO5FSPR38","A5CIHEPULDFUF","3HUR21WDDUBEMSLDIXZW1FAIHW8YX3","","null","<img src=""img/food4.png"" style=""width:200px; border:14px solid green;"">","null","","","","","","","","","",""
"","image-keyboard-response","21","48399","0.0-30.0","3D3VGR7TA11VVD07BF5GBMO5FSPR38","A5CIHEPULDFUF","3HUR21WDDUBEMSLDIXZW1FAIHW8YX3","","96.59999990463257","img/food6.png","74","98.5","1","1","false","3","2","1,0.5,0,1,0.5,0,0.5,0,1","0,1,0.5,0,1,0.5,1,0.5,0","3",""
"","html-keyboard-response","22","48703","0.0-31.0","3D3VGR7TA11VVD07BF5GBMO5FSPR38","A5CIHEPULDFUF","3HUR21WDDUBEMSLDIXZW1FAIHW8YX3","","null","<img src=""img/food6.png"" style=""width:200px; border:14px solid green;"">","null","","","","","","","","","",""
"","image-keyboard-response","23","49111","0.0-33.0","3D3VGR7TA11VVD07BF5GBMO5FSPR38","A5CIHEPULDFUF","3HUR21WDDUBEMSLDIXZW1FAIHW8YX3","","405.2999999523163","img/food6.png","75","407.2999999523163","2","1","false","3","2","1,0.5,0,1,0.5,0,0.5,0,1","0,1,0.5,0,1,0.5,1,0.5,0","3",""
"","html-keyboard-response","24","49414","0.0-34.0","3D3VGR7TA11VVD07BF5GBMO5FSPR38","A5CIHEPULDFUF","3HUR21WDDUBEMSLDIXZW1FAIHW8YX3","","null","<img src=""img/food6.png"" style=""width:200px; border:14px solid green;"">","null","","","","","","","","","",""
"","image-keyboard-response","25","49755","0.0-36.0","3D3VGR7TA11VVD07BF5GBMO5FSPR38","A5CIHEPULDFUF","3HUR21WDDUBEMSLDIXZW1FAIHW8YX3","","338.59999990463257","img/food6.png","74","340.40000009536743","1","1","false","3","2","1,0.5,0,1,0.5,0,0.5,0,1","0,1,0.5,0,1,0.5,1,0.5,0","3",""
"","html-keyboard-response","26","50058","0.0-37.0","3D3VGR7TA11VVD07BF5GBMO5FSPR38","A5CIHEPULDFUF","3HUR21WDDUBEMSLDIXZW1FAIHW8YX3","","null","<img src=""img/food6.png"" style=""width:200px; border:14px solid green;"">","null","","","","","","","","","",""
"","image-keyboard-response","27","50206","0.0-39.0","3D3VGR7TA11VVD07BF5GBMO5FSPR38","A5CIHEPULDFUF","3HUR21WDDUBEMSLDIXZW1FAIHW8YX3","","145","img/food2.png","75","147","2","1","false","1","2","1,0.5,0,1,0.5,0,0.5,0,1","0,1,0.5,0,1,0.5,1,0.5,0","3",""
"","html-keyboard-response","28","50509","0.0-40.0","3D3VGR7TA11VVD07BF5GBMO5FSPR38","A5CIHEPULDFUF","3HUR21WDDUBEMSLDIXZW1FAIHW8YX3","","null","<img src=""img/food2.png"" style=""width:200px; border:14px solid green;"">","null","","","","","","","","","",""
"","image-keyboard-response","29","50562","0.0-42.0","3D3VGR7TA11VVD07BF5GBMO5FSPR38","A5CIHEPULDFUF","3HUR21WDDUBEMSLDIXZW1FAIHW8YX3","","50.5","img/food2.png","76","52.299999952316284","3","1","false","1","2","1,0.5,0,1,0.5,0,0.5,0,1","0,1,0.5,0,1,0.5,1,0.5,0","3",""
"","html-keyboard-response","30","50866","0.0-43.0","3D3VGR7TA11VVD07BF5GBMO5FSPR38","A5CIHEPULDFUF","3HUR21WDDUBEMSLDIXZW1FAIHW8YX3","","null","<img src=""img/food2.png"" style=""width:200px; border:14px solid green;"">","null","","","","","","","","","",""
"","image-keyboard-response","31","51101","0.0-45.0","3D3VGR7TA11VVD07BF5GBMO5FSPR38","A5CIHEPULDFUF","3HUR21WDDUBEMSLDIXZW1FAIHW8YX3","","232.60000014305115","img/food6.png","74","234.20000004768372","1","1","false","3","2","1,0.5,0,1,0.5,0,0.5,0,1","0,1,0.5,0,1,0.5,1,0.5,0","3",""
"","html-keyboard-response","32","51404","0.0-46.0","3D3VGR7TA11VVD07BF5GBMO5FSPR38","A5CIHEPULDFUF","3HUR21WDDUBEMSLDIXZW1FAIHW8YX3","","null","<img src=""img/food6.png"" style=""width:200px; border:14px solid green;"">","null","","","","","","","","","",""
"","image-keyboard-response","33","51697","0.0-48.0","3D3VGR7TA11VVD07BF5GBMO5FSPR38","A5CIHEPULDFUF","3HUR21WDDUBEMSLDIXZW1FAIHW8YX3","","290","img/food2.png","76","292.2000000476837","3","1","false","1","2","1,0.5,0,1,0.5,0,0.5,0,1","0,1,0.5,0,1,0.5,1,0.5,0","3",""
"","html-keyboard-response","34","51999","0.0-49.0","3D3VGR7TA11VVD07BF5GBMO5FSPR38","A5CIHEPULDFUF","3HUR21WDDUBEMSLDIXZW1FAIHW8YX3","","null","<img src=""img/food2.png"" style=""width:200px; border:14px solid green;"">","null","","","","","","","","","",""
"","image-keyboard-response","35","52129","0.0-51.0","3D3VGR7TA11VVD07BF5GBMO5FSPR38","A5CIHEPULDFUF","3HUR21WDDUBEMSLDIXZW1FAIHW8YX3","","127.59999990463257","img/food2.png","74","129.39999985694885","1","0","false","1","2","1,0.5,0,1,0.5,0,0.5,0,1","0,1,0.5,0,1,0.5,1,0.5,0","3",""
"","html-keyboard-response","36","52433","0.0-52.0","3D3VGR7TA11VVD07BF5GBMO5FSPR38","A5CIHEPULDFUF","3HUR21WDDUBEMSLDIXZW1FAIHW8YX3","","null","<img src=""img/food2.png"" style=""width:200px;border:14px solid red;"">","null","","","","","","","","","",""
"","image-keyboard-response","37","52661","0.0-54.0","3D3VGR7TA11VVD07BF5GBMO5FSPR38","A5CIHEPULDFUF","3HUR21WDDUBEMSLDIXZW1FAIHW8YX3","","225.29999995231628","img/food2.png","75","227.09999990463257","2","1","false","1","2","1,0.5,0,1,0.5,0,0.5,0,1","0,1,0.5,0,1,0.5,1,0.5,0","3",""
"","html-keyboard-response","38","52963","0.0-55.0","3D3VGR7TA11VVD07BF5GBMO5FSPR38","A5CIHEPULDFUF","3HUR21WDDUBEMSLDIXZW1FAIHW8YX3","","null","<img src=""img/food2.png"" style=""width:200px; border:14px solid green;"">","null","","","","","","","","","",""
"","image-keyboard-response","39","53214","0.0-57.0","3D3VGR7TA11VVD07BF5GBMO5FSPR38","A5CIHEPULDFUF","3HUR21WDDUBEMSLDIXZW1FAIHW8YX3","","248.79999995231628","img/food6.png","75","250.79999995231628","2","1","false","3","2","1,0.5,0,1,0.5,0,0.5,0,1","0,1,0.5,0,1,0.5,1,0.5,0","3",""
"","html-keyboard-response","40","53517","0.0-58.0","3D3VGR7TA11VVD07BF5GBMO5FSPR38","A5CIHEPULDFUF","3HUR21WDDUBEMSLDIXZW1FAIHW8YX3","","null","<img src=""img/food6.png"" style=""width:200px; border:14px solid green;"">","null","","","","","","","","","",""
"","image-keyboard-response","41","53772","0.0-60.0","3D3VGR7TA11VVD07BF5GBMO5FSPR38","A5CIHEPULDFUF","3HUR21WDDUBEMSLDIXZW1FAIHW8YX3","","252.70000004768372","img/food2.png","75","254.90000009536743","2","1","false","1","2","1,0.5,0,1,0.5,0,0.5,0,1","0,1,0.5,0,1,0.5,1,0.5,0","3",""
"","html-keyboard-response","42","54077","0.0-61.0","3D3VGR7TA11VVD07BF5GBMO5FSPR38","A5CIHEPULDFUF","3HUR21WDDUBEMSLDIXZW1FAIHW8YX3","","null","<img src=""img/food2.png"" style=""width:200px; border:14px solid green;"">","null","","","","","","","","","",""
"","image-keyboard-response","43","54241","0.0-63.0","3D3VGR7TA11VVD07BF5GBMO5FSPR38","A5CIHEPULDFUF","3HUR21WDDUBEMSLDIXZW1FAIHW8YX3","","161.70000004768372","img/food2.png","74","163.79999995231628","1","0","false","1","2","1,0.5,0,1,0.5,0,0.5,0,1","0,1,0.5,0,1,0.5,1,0.5,0","3",""
"","html-keyboard-response","44","54546","0.0-64.0","3D3VGR7TA11VVD07BF5GBMO5FSPR38","A5CIHEPULDFUF","3HUR21WDDUBEMSLDIXZW1FAIHW8YX3","","null","<img src=""img/food2.png"" style=""width:200px;border:14px solid red;"">","null","","","","","","","","","",""
"","image-keyboard-response","45","54573","0.0-66.0","3D3VGR7TA11VVD07BF5GBMO5FSPR38","A5CIHEPULDFUF","3HUR21WDDUBEMSLDIXZW1FAIHW8YX3","","23.200000047683716","img/food4.png","75","26.899999856948853","2","1","false","2","2","1,0.5,0,1,0.5,0,0.5,0,1","0,1,0.5,0,1,0.5,1,0.5,0","3",""
"","html-keyboard-response","46","54877","0.0-67.0","3D3VGR7TA11VVD07BF5GBMO5FSPR38","A5CIHEPULDFUF","3HUR21WDDUBEMSLDIXZW1FAIHW8YX3","","null","<img src=""img/food4.png"" style=""width:200px; border:14px solid green;"">","null","","","","","","","","","",""
"","image-keyboard-response","47","55008","0.0-69.0","3D3VGR7TA11VVD07BF5GBMO5FSPR38","A5CIHEPULDFUF","3HUR21WDDUBEMSLDIXZW1FAIHW8YX3","","128.10000014305115","img/food2.png","75","129.79999995231628","2","1","false","1","2","1,0.5,0,1,0.5,0,0.5,0,1","0,1,0.5,0,1,0.5,1,0.5,0","3",""
"","html-keyboard-response","48","55311","0.0-70.0","3D3VGR7TA11VVD07BF5GBMO5FSPR38","A5CIHEPULDFUF","3HUR21WDDUBEMSLDIXZW1FAIHW8YX3","","null","<img src=""img/food2.png"" style=""width:200px; border:14px solid green;"">","null","","","","","","","","","",""
"","image-keyboard-response","49","55421","0.0-72.0","3D3VGR7TA11VVD07BF5GBMO5FSPR38","A5CIHEPULDFUF","3HUR21WDDUBEMSLDIXZW1FAIHW8YX3","","106.79999995231628","img/food6.png","75","108.70000004768372","2","1","false","3","2","1,0.5,0,1,0.5,0,0.5,0,1","0,1,0.5,0,1,0.5,1,0.5,0","3",""
"","html-keyboard-response","50","55724","0.0-73.0","3D3VGR7TA11VVD07BF5GBMO5FSPR38","A5CIHEPULDFUF","3HUR21WDDUBEMSLDIXZW1FAIHW8YX3","","null","<img src=""img/food6.png"" style=""width:200px; border:14px solid green;"">","null","","","","","","","","","",""
"","image-keyboard-response","51","55848","0.0-75.0","3D3VGR7TA11VVD07BF5GBMO5FSPR38","A5CIHEPULDFUF","3HUR21WDDUBEMSLDIXZW1FAIHW8YX3","","121.09999990463257","img/food4.png","75","123.39999985694885","2","1","false","2","2","1,0.5,0,1,0.5,0,0.5,0,1","0,1,0.5,0,1,0.5,1,0.5,0","3",""
"","html-keyboard-response","52","56153","0.0-76.0","3D3VGR7TA11VVD07BF5GBMO5FSPR38","A5CIHEPULDFUF","3HUR21WDDUBEMSLDIXZW1FAIHW8YX3","","null","<img src=""img/food4.png"" style=""width:200px; border:14px solid green;"">","null","","","","","","","","","",""
"","image-keyboard-response","53","56250","0.0-78.0","3D3VGR7TA11VVD07BF5GBMO5FSPR38","A5CIHEPULDFUF","3HUR21WDDUBEMSLDIXZW1FAIHW8YX3","","95.29999995231628","img/food2.png","75","96.79999995231628","2","1","false","1","2","1,0.5,0,1,0.5,0,0.5,0,1","0,1,0.5,0,1,0.5,1,0.5,0","3",""
"","html-keyboard-response","54","56552","0.0-79.0","3D3VGR7TA11VVD07BF5GBMO5FSPR38","A5CIHEPULDFUF","3HUR21WDDUBEMSLDIXZW1FAIHW8YX3","","null","<img src=""img/food2.png"" style=""width:200px; border:14px solid green;"">","null","","","","","","","","","",""
"","image-keyboard-response","55","56638","0.0-81.0","3D3VGR7TA11VVD07BF5GBMO5FSPR38","A5CIHEPULDFUF","3HUR21WDDUBEMSLDIXZW1FAIHW8YX3","","83","img/food2.png","75","84.89999985694885","2","1","false","1","2","1,0.5,0,1,0.5,0,0.5,0,1","0,1,0.5,0,1,0.5,1,0.5,0","3",""
"","html-keyboard-response","56","56942","0.0-82.0","3D3VGR7TA11VVD07BF5GBMO5FSPR38","A5CIHEPULDFUF","3HUR21WDDUBEMSLDIXZW1FAIHW8YX3","","null","<img src=""img/food2.png"" style=""width:200px; border:14px solid green;"">","null","","","","","","","","","",""
"","image-keyboard-response","57","57036","0.0-84.0","3D3VGR7TA11VVD07BF5GBMO5FSPR38","A5CIHEPULDFUF","3HUR21WDDUBEMSLDIXZW1FAIHW8YX3","","86.20000004768372","img/food4.png","75","91.5","2","1","false","2","2","1,0.5,0,1,0.5,0,0.5,0,1","0,1,0.5,0,1,0.5,1,0.5,0","3",""
"","html-keyboard-response","58","57339","0.0-85.0","3D3VGR7TA11VVD07BF5GBMO5FSPR38","A5CIHEPULDFUF","3HUR21WDDUBEMSLDIXZW1FAIHW8YX3","","null","<img src=""img/food4.png"" style=""width:200px; border:14px solid green;"">","null","","","","","","","","","",""
"","image-keyboard-response","59","57438","0.0-87.0","3D3VGR7TA11VVD07BF5GBMO5FSPR38","A5CIHEPULDFUF","3HUR21WDDUBEMSLDIXZW1FAIHW8YX3","","95.79999995231628","img/food4.png","75","97.70000004768372","2","1","false","2","2","1,0.5,0,1,0.5,0,0.5,0,1","0,1,0.5,0,1,0.5,1,0.5,0","3",""
"","html-keyboard-response","60","57740","0.0-88.0","3D3VGR7TA11VVD07BF5GBMO5FSPR38","A5CIHEPULDFUF","3HUR21WDDUBEMSLDIXZW1FAIHW8YX3","","null","<img src=""img/food4.png"" style=""width:200px; border:14px solid green;"">","null","","","","","","","","","",""
"","image-keyboard-response","61","57807","0.0-90.0","3D3VGR7TA11VVD07BF5GBMO5FSPR38","A5CIHEPULDFUF","3HUR21WDDUBEMSLDIXZW1FAIHW8YX3","","64.39999985694885","img/food6.png","75","66","2","0","false","3","2","1,0.5,0,1,0.5,0,0.5,0,1","0,1,0.5,0,1,0.5,1,0.5,0","3",""
"","html-keyboard-response","62","58110","0.0-91.0","3D3VGR7TA11VVD07BF5GBMO5FSPR38","A5CIHEPULDFUF","3HUR21WDDUBEMSLDIXZW1FAIHW8YX3","","null","<img src=""img/food6.png"" style=""width:200px;border:14px solid red;"">","null","","","","","","","","","",""
"","image-keyboard-response","63","58327","0.0-93.0","3D3VGR7TA11VVD07BF5GBMO5FSPR38","A5CIHEPULDFUF","3HUR21WDDUBEMSLDIXZW1FAIHW8YX3","","214.5","img/food4.png","74","216.20000004768372","1","0","false","2","2","1,0.5,0,1,0.5,0,0.5,0,1","0,1,0.5,0,1,0.5,1,0.5,0","3",""
"","html-keyboard-response","64","58636","0.0-94.0","3D3VGR7TA11VVD07BF5GBMO5FSPR38","A5CIHEPULDFUF","3HUR21WDDUBEMSLDIXZW1FAIHW8YX3","","null","<img src=""img/food4.png"" style=""width:200px;border:14px solid red;"">","null","","","","","","","","","",""
"","image-keyboard-response","65","58770","0.0-96.0","3D3VGR7TA11VVD07BF5GBMO5FSPR38","A5CIHEPULDFUF","3HUR21WDDUBEMSLDIXZW1FAIHW8YX3","","130.5","img/food4.png","75","132.40000009536743","2","1","false","2","2","1,0.5,0,1,0.5,0,0.5,0,1","0,1,0.5,0,1,0.5,1,0.5,0","3",""
"","html-keyboard-response","66","59074","0.0-97.0","3D3VGR7TA11VVD07BF5GBMO5FSPR38","A5CIHEPULDFUF","3HUR21WDDUBEMSLDIXZW1FAIHW8YX3","","null","<img src=""img/food4.png"" style=""width:200px; border:14px solid green;"">","null","","","","","","","","","",""
"","image-keyboard-response","67","59222","0.0-99.0","3D3VGR7TA11VVD07BF5GBMO5FSPR38","A5CIHEPULDFUF","3HUR21WDDUBEMSLDIXZW1FAIHW8YX3","","145.40000009536743","img/food6.png","74","147.40000009536743","1","1","false","3","2","1,0.5,0,1,0.5,0,0.5,0,1","0,1,0.5,0,1,0.5,1,0.5,0","3",""
"","html-keyboard-response","68","59524","0.0-100.0","3D3VGR7TA11VVD07BF5GBMO5FSPR38","A5CIHEPULDFUF","3HUR21WDDUBEMSLDIXZW1FAIHW8YX3","","null","<img src=""img/food6.png"" style=""width:200px; border:14px solid green;"">","null","","","","","","","","","",""
"","image-keyboard-response","69","59679","0.0-102.0","3D3VGR7TA11VVD07BF5GBMO5FSPR38","A5CIHEPULDFUF","3HUR21WDDUBEMSLDIXZW1FAIHW8YX3","","151.90000009536743","img/food4.png","75","153.5","2","1","false","2","2","1,0.5,0,1,0.5,0,0.5,0,1","0,1,0.5,0,1,0.5,1,0.5,0","3",""
"","html-keyboard-response","70","59983","0.0-103.0","3D3VGR7TA11VVD07BF5GBMO5FSPR38","A5CIHEPULDFUF","3HUR21WDDUBEMSLDIXZW1FAIHW8YX3","","null","<img src=""img/food4.png"" style=""width:200px; border:14px solid green;"">","null","","","","","","","","","",""
"","image-keyboard-response","71","60132","0.0-105.0","3D3VGR7TA11VVD07BF5GBMO5FSPR38","A5CIHEPULDFUF","3HUR21WDDUBEMSLDIXZW1FAIHW8YX3","","146","img/food4.png","75","148","2","1","false","2","2","1,0.5,0,1,0.5,0,0.5,0,1","0,1,0.5,0,1,0.5,1,0.5,0","3",""
"","html-keyboard-response","72","60434","0.0-106.0","3D3VGR7TA11VVD07BF5GBMO5FSPR38","A5CIHEPULDFUF","3HUR21WDDUBEMSLDIXZW1FAIHW8YX3","","null","<img src=""img/food4.png"" style=""width:200px; border:14px solid green;"">","null","","","","","","","","","",""
"","image-keyboard-response","73","60503","0.0-108.0","3D3VGR7TA11VVD07BF5GBMO5FSPR38","A5CIHEPULDFUF","3HUR21WDDUBEMSLDIXZW1FAIHW8YX3","","66.29999995231628","img/food4.png","74","68.29999995231628","1","0","false","2","2","1,0.5,0,1,0.5,0,0.5,0,1","0,1,0.5,0,1,0.5,1,0.5,0","3",""
"","html-keyboard-response","74","60806","0.0-109.0","3D3VGR7TA11VVD07BF5GBMO5FSPR38","A5CIHEPULDFUF","3HUR21WDDUBEMSLDIXZW1FAIHW8YX3","","null","<img src=""img/food4.png"" style=""width:200px;border:14px solid red;"">","null","","","","","","","","","",""
"","image-keyboard-response","75","61009","0.0-111.0","3D3VGR7TA11VVD07BF5GBMO5FSPR38","A5CIHEPULDFUF","3HUR21WDDUBEMSLDIXZW1FAIHW8YX3","","200.69999980926514","img/food4.png","75","202.5","2","1","false","2","2","1,0.5,0,1,0.5,0,0.5,0,1","0,1,0.5,0,1,0.5,1,0.5,0","3",""
"","html-keyboard-response","76","61312","0.0-112.0","3D3VGR7TA11VVD07BF5GBMO5FSPR38","A5CIHEPULDFUF","3HUR21WDDUBEMSLDIXZW1FAIHW8YX3","","null","<img src=""img/food4.png"" style=""width:200px; border:14px solid green;"">","null","","","","","","","","","",""
"","image-keyboard-response","77","61537","0.0-114.0","3D3VGR7TA11VVD07BF5GBMO5FSPR38","A5CIHEPULDFUF","3HUR21WDDUBEMSLDIXZW1FAIHW8YX3","","223.09999990463257","img/food4.png","75","224.89999985694885","2","1","false","2","2","1,0.5,0,1,0.5,0,0.5,0,1","0,1,0.5,0,1,0.5,1,0.5,0","3",""
"","html-keyboard-response","78","61842","0.0-115.0","3D3VGR7TA11VVD07BF5GBMO5FSPR38","A5CIHEPULDFUF","3HUR21WDDUBEMSLDIXZW1FAIHW8YX3","","null","<img src=""img/food4.png"" style=""width:200px; border:14px solid green;"">","null","","","","","","","","","",""
"","image-keyboard-response","79","62145","0.0-117.0","3D3VGR7TA11VVD07BF5GBMO5FSPR38","A5CIHEPULDFUF","3HUR21WDDUBEMSLDIXZW1FAIHW8YX3","","300.7000000476837","img/food2.png","74","303.09999990463257","1","0","false","1","2","1,0.5,0,1,0.5,0,0.5,0,1","0,1,0.5,0,1,0.5,1,0.5,0","3",""
"","html-keyboard-response","80","62449","0.0-118.0","3D3VGR7TA11VVD07BF5GBMO5FSPR38","A5CIHEPULDFUF","3HUR21WDDUBEMSLDIXZW1FAIHW8YX3","","null","<img src=""img/food2.png"" style=""width:200px;border:14px solid red;"">","null","","","","","","","","","",""
"","image-keyboard-response","81","62573","0.0-120.0","3D3VGR7TA11VVD07BF5GBMO5FSPR38","A5CIHEPULDFUF","3HUR21WDDUBEMSLDIXZW1FAIHW8YX3","","121.90000009536743","img/food4.png","76","123.5","3","1","false","2","2","1,0.5,0,1,0.5,0,0.5,0,1","0,1,0.5,0,1,0.5,1,0.5,0","3",""
"","html-keyboard-response","82","62876","0.0-121.0","3D3VGR7TA11VVD07BF5GBMO5FSPR38","A5CIHEPULDFUF","3HUR21WDDUBEMSLDIXZW1FAIHW8YX3","","null","<img src=""img/food4.png"" style=""width:200px; border:14px solid green;"">","null","","","","","","","","","",""
"","image-keyboard-response","83","63085","0.0-123.0","3D3VGR7TA11VVD07BF5GBMO5FSPR38","A5CIHEPULDFUF","3HUR21WDDUBEMSLDIXZW1FAIHW8YX3","","206","img/food6.png","76","208.40000009536743","3","0","false","3","2","1,0.5,0,1,0.5,0,0.5,0,1","0,1,0.5,0,1,0.5,1,0.5,0","3",""
"","html-keyboard-response","84","63401","0.0-124.0","3D3VGR7TA11VVD07BF5GBMO5FSPR38","A5CIHEPULDFUF","3HUR21WDDUBEMSLDIXZW1FAIHW8YX3","","null","<img src=""img/food6.png"" style=""width:200px;border:14px solid red;"">","null","","","","","","","","","",""
"","image-keyboard-response","85","63612","0.0-126.0","3D3VGR7TA11VVD07BF5GBMO5FSPR38","A5CIHEPULDFUF","3HUR21WDDUBEMSLDIXZW1FAIHW8YX3","","207.59999990463257","img/food6.png","75","209.70000004768372","2","1","false","3","2","1,0.5,0,1,0.5,0,0.5,0,1","0,1,0.5,0,1,0.5,1,0.5,0","3",""
"","html-keyboard-response","86","63916","0.0-127.0","3D3VGR7TA11VVD07BF5GBMO5FSPR38","A5CIHEPULDFUF","3HUR21WDDUBEMSLDIXZW1FAIHW8YX3","","null","<img src=""img/food6.png"" style=""width:200px; border:14px solid green;"">","null","","","","","","","","","",""
"","image-keyboard-response","87","64038","0.0-129.0","3D3VGR7TA11VVD07BF5GBMO5FSPR38","A5CIHEPULDFUF","3HUR21WDDUBEMSLDIXZW1FAIHW8YX3","","119.70000004768372","img/food4.png","75","121.60000014305115","2","1","false","2","2","1,0.5,0,1,0.5,0,0.5,0,1","0,1,0.5,0,1,0.5,1,0.5,0","3",""
"","html-keyboard-response","88","64341","0.0-130.0","3D3VGR7TA11VVD07BF5GBMO5FSPR38","A5CIHEPULDFUF","3HUR21WDDUBEMSLDIXZW1FAIHW8YX3","","null","<img src=""img/food4.png"" style=""width:200px; border:14px solid green;"">","null","","","","","","","","","",""
"","image-keyboard-response","89","64466","0.0-132.0","3D3VGR7TA11VVD07BF5GBMO5FSPR38","A5CIHEPULDFUF","3HUR21WDDUBEMSLDIXZW1FAIHW8YX3","","121.89999985694885","img/food4.png","74","123.79999995231628","1","0","false","2","2","1,0.5,0,1,0.5,0,0.5,0,1","0,1,0.5,0,1,0.5,1,0.5,0","3",""
"","html-keyboard-response","90","64770","0.0-133.0","3D3VGR7TA11VVD07BF5GBMO5FSPR38","A5CIHEPULDFUF","3HUR21WDDUBEMSLDIXZW1FAIHW8YX3","","null","<img src=""img/food4.png"" style=""width:200px;border:14px solid red;"">","null","","","","","","","","","",""
"","image-keyboard-response","91","64918","0.0-135.0","3D3VGR7TA11VVD07BF5GBMO5FSPR38","A5CIHEPULDFUF","3HUR21WDDUBEMSLDIXZW1FAIHW8YX3","","146.10000014305115","img/food2.png","75","147.90000009536743","2","1","false","1","2","1,0.5,0,1,0.5,0,0.5,0,1","0,1,0.5,0,1,0.5,1,0.5,0","3",""
"","html-keyboard-response","92","65223","0.0-136.0","3D3VGR7TA11VVD07BF5GBMO5FSPR38","A5CIHEPULDFUF","3HUR21WDDUBEMSLDIXZW1FAIHW8YX3","","null","<img src=""img/food2.png"" style=""width:200px; border:14px solid green;"">","null","","","","","","","","","",""
"","image-keyboard-response","93","65280","0.0-138.0","3D3VGR7TA11VVD07BF5GBMO5FSPR38","A5CIHEPULDFUF","3HUR21WDDUBEMSLDIXZW1FAIHW8YX3","","54.299999952316284","img/food6.png","76","56.299999952316284","3","0","false","3","2","1,0.5,0,1,0.5,0,0.5,0,1","0,1,0.5,0,1,0.5,1,0.5,0","3",""
"","html-keyboard-response","94","65583","0.0-139.0","3D3VGR7TA11VVD07BF5GBMO5FSPR38","A5CIHEPULDFUF","3HUR21WDDUBEMSLDIXZW1FAIHW8YX3","","null","<img src=""img/food6.png"" style=""width:200px;border:14px solid red;"">","null","","","","","","","","","",""
"","image-keyboard-response","95","65702","0.0-141.0","3D3VGR7TA11VVD07BF5GBMO5FSPR38","A5CIHEPULDFUF","3HUR21WDDUBEMSLDIXZW1FAIHW8YX3","","116.30000019073486","img/food4.png","76","118.39999985694885","3","0","false","2","2","1,0.5,0,1,0.5,0,0.5,0,1","0,1,0.5,0,1,0.5,1,0.5,0","3",""
"","html-keyboard-response","96","66004","0.0-142.0","3D3VGR7TA11VVD07BF5GBMO5FSPR38","A5CIHEPULDFUF","3HUR21WDDUBEMSLDIXZW1FAIHW8YX3","","null","<img src=""img/food4.png"" style=""width:200px;border:14px solid red;"">","null","","","","","","","","","",""
"","image-keyboard-response","97","66176","0.0-144.0","3D3VGR7TA11VVD07BF5GBMO5FSPR38","A5CIHEPULDFUF","3HUR21WDDUBEMSLDIXZW1FAIHW8YX3","","168.09999990463257","img/food6.png","75","171.59999990463257","2","0","false","3","2","1,0.5,0,1,0.5,0,0.5,0,1","0,1,0.5,0,1,0.5,1,0.5,0","3",""
"","html-keyboard-response","98","66487","0.0-145.0","3D3VGR7TA11VVD07BF5GBMO5FSPR38","A5CIHEPULDFUF","3HUR21WDDUBEMSLDIXZW1FAIHW8YX3","","null","<img src=""img/food6.png"" style=""width:200px;border:14px solid red;"">","null","","","","","","","","","",""
"","image-keyboard-response","99","66541","0.0-147.0","3D3VGR7TA11VVD07BF5GBMO5FSPR38","A5CIHEPULDFUF","3HUR21WDDUBEMSLDIXZW1FAIHW8YX3","","51.89999985694885","img/food6.png","75","53.700000047683716","2","0","false","3","2","1,0.5,0,1,0.5,0,0.5,0,1","0,1,0.5,0,1,0.5,1,0.5,0","3",""
"","html-keyboard-response","100","66843","0.0-148.0","3D3VGR7TA11VVD07BF5GBMO5FSPR38","A5CIHEPULDFUF","3HUR21WDDUBEMSLDIXZW1FAIHW8YX3","","null","<img src=""img/food6.png"" style=""width:200px;border:14px solid red;"">","null","","","","","","","","","",""
"","image-keyboard-response","101","66943","0.0-150.0","3D3VGR7TA11VVD07BF5GBMO5FSPR38","A5CIHEPULDFUF","3HUR21WDDUBEMSLDIXZW1FAIHW8YX3","","97.79999995231628","img/food2.png","74","99.59999990463257","1","0","false","1","2","1,0.5,0,1,0.5,0,0.5,0,1","0,1,0.5,0,1,0.5,1,0.5,0","3",""
"","html-keyboard-response","102","67247","0.0-151.0","3D3VGR7TA11VVD07BF5GBMO5FSPR38","A5CIHEPULDFUF","3HUR21WDDUBEMSLDIXZW1FAIHW8YX3","","null","<img src=""img/food2.png"" style=""width:200px;border:14px solid red;"">","null","","","","","","","","","",""
"","image-keyboard-response","103","67251","0.0-153.0","3D3VGR7TA11VVD07BF5GBMO5FSPR38","A5CIHEPULDFUF","3HUR21WDDUBEMSLDIXZW1FAIHW8YX3","","0.5999999046325684","img/food6.png","75","2.4000000953674316","2","0","false","3","2","1,0.5,0,1,0.5,0,0.5,0,1","0,1,0.5,0,1,0.5,1,0.5,0","3",""
"","html-keyboard-response","104","67554","0.0-154.0","3D3VGR7TA11VVD07BF5GBMO5FSPR38","A5CIHEPULDFUF","3HUR21WDDUBEMSLDIXZW1FAIHW8YX3","","null","<img src=""img/food6.png"" style=""width:200px;border:14px solid red;"">","null","","","","","","","","","",""
"","image-keyboard-response","105","67719","0.0-156.0","3D3VGR7TA11VVD07BF5GBMO5FSPR38","A5CIHEPULDFUF","3HUR21WDDUBEMSLDIXZW1FAIHW8YX3","","162.70000004768372","img/food2.png","75","164.70000004768372","2","1","false","1","2","1,0.5,0,1,0.5,0,0.5,0,1","0,1,0.5,0,1,0.5,1,0.5,0","3",""
"","html-keyboard-response","106","68022","0.0-157.0","3D3VGR7TA11VVD07BF5GBMO5FSPR38","A5CIHEPULDFUF","3HUR21WDDUBEMSLDIXZW1FAIHW8YX3","","null","<img src=""img/food2.png"" style=""width:200px; border:14px solid green;"">","null","","","","","","","","","",""
"","image-keyboard-response","107","68104","0.0-159.0","3D3VGR7TA11VVD07BF5GBMO5FSPR38","A5CIHEPULDFUF","3HUR21WDDUBEMSLDIXZW1FAIHW8YX3","","78.79999995231628","img/food6.png","75","80.70000004768372","2","1","false","3","2","1,0.5,0,1,0.5,0,0.5,0,1","0,1,0.5,0,1,0.5,1,0.5,0","3",""
"","html-keyboard-response","108","68407","0.0-160.0","3D3VGR7TA11VVD07BF5GBMO5FSPR38","A5CIHEPULDFUF","3HUR21WDDUBEMSLDIXZW1FAIHW8YX3","","null","<img src=""img/food6.png"" style=""width:200px; border:14px solid green;"">","null","","","","","","","","","",""
"","image-keyboard-response","109","68603","0.0-162.0","3D3VGR7TA11VVD07BF5GBMO5FSPR38","A5CIHEPULDFUF","3HUR21WDDUBEMSLDIXZW1FAIHW8YX3","","193.10000014305115","img/food6.png","75","196.29999995231628","2","1","false","3","2","1,0.5,0,1,0.5,0,0.5,0,1","0,1,0.5,0,1,0.5,1,0.5,0","3",""
"","html-keyboard-response","110","68913","0.0-163.0","3D3VGR7TA11VVD07BF5GBMO5FSPR38","A5CIHEPULDFUF","3HUR21WDDUBEMSLDIXZW1FAIHW8YX3","","null","<img src=""img/food6.png"" style=""width:200px; border:14px solid green;"">","null","","","","","","","","","",""
"","image-keyboard-response","111","68979","0.0-165.0","3D3VGR7TA11VVD07BF5GBMO5FSPR38","A5CIHEPULDFUF","3HUR21WDDUBEMSLDIXZW1FAIHW8YX3","","63.59999990463257","img/food2.png","75","65.39999985694885","2","1","false","1","2","1,0.5,0,1,0.5,0,0.5,0,1","0,1,0.5,0,1,0.5,1,0.5,0","3",""
"","html-keyboard-response","112","69282","0.0-166.0","3D3VGR7TA11VVD07BF5GBMO5FSPR38","A5CIHEPULDFUF","3HUR21WDDUBEMSLDIXZW1FAIHW8YX3","","null","<img src=""img/food2.png"" style=""width:200px; border:14px solid green;"">","null","","","","","","","","","",""
"","image-keyboard-response","113","69482","0.0-168.0","3D3VGR7TA11VVD07BF5GBMO5FSPR38","A5CIHEPULDFUF","3HUR21WDDUBEMSLDIXZW1FAIHW8YX3","","197.30000019073486","img/food2.png","74","199.10000014305115","1","0","false","1","2","1,0.5,0,1,0.5,0,0.5,0,1","0,1,0.5,0,1,0.5,1,0.5,0","3",""
"","html-keyboard-response","114","69786","0.0-169.0","3D3VGR7TA11VVD07BF5GBMO5FSPR38","A5CIHEPULDFUF","3HUR21WDDUBEMSLDIXZW1FAIHW8YX3","","null","<img src=""img/food2.png"" style=""width:200px;border:14px solid red;"">","null","","","","","","","","","",""
"","image-keyboard-response","115","69917","0.0-171.0","3D3VGR7TA11VVD07BF5GBMO5FSPR38","A5CIHEPULDFUF","3HUR21WDDUBEMSLDIXZW1FAIHW8YX3","","128.39999985694885","img/food4.png","75","130.29999995231628","2","1","false","2","2","1,0.5,0,1,0.5,0,0.5,0,1","0,1,0.5,0,1,0.5,1,0.5,0","3",""
"","html-keyboard-response","116","70220","0.0-172.0","3D3VGR7TA11VVD07BF5GBMO5FSPR38","A5CIHEPULDFUF","3HUR21WDDUBEMSLDIXZW1FAIHW8YX3","","null","<img src=""img/food4.png"" style=""width:200px; border:14px solid green;"">","null","","","","","","","","","",""
"","image-keyboard-response","117","70395","0.0-174.0","3D3VGR7TA11VVD07BF5GBMO5FSPR38","A5CIHEPULDFUF","3HUR21WDDUBEMSLDIXZW1FAIHW8YX3","","173.20000004768372","img/food4.png","75","175.09999990463257","2","1","false","2","2","1,0.5,0,1,0.5,0,0.5,0,1","0,1,0.5,0,1,0.5,1,0.5,0","3",""
"","html-keyboard-response","118","70699","0.0-175.0","3D3VGR7TA11VVD07BF5GBMO5FSPR38","A5CIHEPULDFUF","3HUR21WDDUBEMSLDIXZW1FAIHW8YX3","","null","<img src=""img/food4.png"" style=""width:200px; border:14px solid green;"">","null","","","","","","","","","",""
"","image-keyboard-response","119","70805","0.0-177.0","3D3VGR7TA11VVD07BF5GBMO5FSPR38","A5CIHEPULDFUF","3HUR21WDDUBEMSLDIXZW1FAIHW8YX3","","97.79999995231628","img/food6.png","75","103.90000009536743","2","0","false","3","2","1,0.5,0,1,0.5,0,0.5,0,1","0,1,0.5,0,1,0.5,1,0.5,0","3",""
"","html-keyboard-response","120","71108","0.0-178.0","3D3VGR7TA11VVD07BF5GBMO5FSPR38","A5CIHEPULDFUF","3HUR21WDDUBEMSLDIXZW1FAIHW8YX3","","null","<img src=""img/food6.png"" style=""width:200px;border:14px solid red;"">","null","","","","","","","","","",""
"","image-keyboard-response","121","71394","0.0-180.0","3D3VGR7TA11VVD07BF5GBMO5FSPR38","A5CIHEPULDFUF","3HUR21WDDUBEMSLDIXZW1FAIHW8YX3","","283.2999999523163","img/food2.png","75","285.09999990463257","2","1","false","1","2","1,0.5,0,1,0.5,0,0.5,0,1","0,1,0.5,0,1,0.5,1,0.5,0","3",""
"","html-keyboard-response","122","71701","0.0-181.0","3D3VGR7TA11VVD07BF5GBMO5FSPR38","A5CIHEPULDFUF","3HUR21WDDUBEMSLDIXZW1FAIHW8YX3","","null","<img src=""img/food2.png"" style=""width:200px; border:14px solid green;"">","null","","","","","","","","","",""
"","image-keyboard-response","123","71809","0.0-183.0","3D3VGR7TA11VVD07BF5GBMO5FSPR38","A5CIHEPULDFUF","3HUR21WDDUBEMSLDIXZW1FAIHW8YX3","","99.29999995231628","img/food6.png","75","105","2","0","false","3","2","1,0.5,0,1,0.5,0,0.5,0,1","0,1,0.5,0,1,0.5,1,0.5,0","3",""
"","html-keyboard-response","124","72114","0.0-184.0","3D3VGR7TA11VVD07BF5GBMO5FSPR38","A5CIHEPULDFUF","3HUR21WDDUBEMSLDIXZW1FAIHW8YX3","","null","<img src=""img/food6.png"" style=""width:200px;border:14px solid red;"">","null","","","","","","","","","",""
"","image-keyboard-response","125","72277","0.0-186.0","3D3VGR7TA11VVD07BF5GBMO5FSPR38","A5CIHEPULDFUF","3HUR21WDDUBEMSLDIXZW1FAIHW8YX3","","160.90000009536743","img/food2.png","75","162.69999980926514","2","1","false","1","2","1,0.5,0,1,0.5,0,0.5,0,1","0,1,0.5,0,1,0.5,1,0.5,0","3",""
"","html-keyboard-response","126","72580","0.0-187.0","3D3VGR7TA11VVD07BF5GBMO5FSPR38","A5CIHEPULDFUF","3HUR21WDDUBEMSLDIXZW1FAIHW8YX3","","null","<img src=""img/food2.png"" style=""width:200px; border:14px solid green;"">","null","","","","","","","","","",""
"","image-keyboard-response","127","72788","0.0-189.0","3D3VGR7TA11VVD07BF5GBMO5FSPR38","A5CIHEPULDFUF","3HUR21WDDUBEMSLDIXZW1FAIHW8YX3","","205.20000004768372","img/food4.png","75","207","2","1","false","2","2","1,0.5,0,1,0.5,0,0.5,0,1","0,1,0.5,0,1,0.5,1,0.5,0","3",""
"","html-keyboard-response","128","73091","0.0-190.0","3D3VGR7TA11VVD07BF5GBMO5FSPR38","A5CIHEPULDFUF","3HUR21WDDUBEMSLDIXZW1FAIHW8YX3","","null","<img src=""img/food4.png"" style=""width:200px; border:14px solid green;"">","null","","","","","","","","","",""
"","image-keyboard-response","129","73265","0.0-192.0","3D3VGR7TA11VVD07BF5GBMO5FSPR38","A5CIHEPULDFUF","3HUR21WDDUBEMSLDIXZW1FAIHW8YX3","","172.09999990463257","img/food2.png","75","174","2","1","false","1","2","1,0.5,0,1,0.5,0,0.5,0,1","0,1,0.5,0,1,0.5,1,0.5,0","3",""
"","html-keyboard-response","130","73569","0.0-193.0","3D3VGR7TA11VVD07BF5GBMO5FSPR38","A5CIHEPULDFUF","3HUR21WDDUBEMSLDIXZW1FAIHW8YX3","","null","<img src=""img/food2.png"" style=""width:200px; border:14px solid green;"">","null","","","","","","","","","",""
"","image-keyboard-response","131","73690","0.0-195.0","3D3VGR7TA11VVD07BF5GBMO5FSPR38","A5CIHEPULDFUF","3HUR21WDDUBEMSLDIXZW1FAIHW8YX3","","118.19999980926514","img/food2.png","74","120.09999990463257","1","0","false","1","2","1,0.5,0,1,0.5,0,0.5,0,1","0,1,0.5,0,1,0.5,1,0.5,0","3",""
"","html-keyboard-response","132","73994","0.0-196.0","3D3VGR7TA11VVD07BF5GBMO5FSPR38","A5CIHEPULDFUF","3HUR21WDDUBEMSLDIXZW1FAIHW8YX3","","null","<img src=""img/food2.png"" style=""width:200px;border:14px solid red;"">","null","","","","","","","","","",""
"","image-keyboard-response","133","74130","0.0-198.0","3D3VGR7TA11VVD07BF5GBMO5FSPR38","A5CIHEPULDFUF","3HUR21WDDUBEMSLDIXZW1FAIHW8YX3","","133.40000009536743","img/food6.png","75","135.40000009536743","2","1","false","3","2","1,0.5,0,1,0.5,0,0.5,0,1","0,1,0.5,0,1,0.5,1,0.5,0","3",""
"","html-keyboard-response","134","74433","0.0-199.0","3D3VGR7TA11VVD07BF5GBMO5FSPR38","A5CIHEPULDFUF","3HUR21WDDUBEMSLDIXZW1FAIHW8YX3","","null","<img src=""img/food6.png"" style=""width:200px; border:14px solid green;"">","null","","","","","","","","","",""
"","image-keyboard-response","135","74638","0.0-201.0","3D3VGR7TA11VVD07BF5GBMO5FSPR38","A5CIHEPULDFUF","3HUR21WDDUBEMSLDIXZW1FAIHW8YX3","","202.39999985694885","img/food6.png","75","204.69999980926514","2","1","false","3","2","1,0.5,0,1,0.5,0,0.5,0,1","0,1,0.5,0,1,0.5,1,0.5,0","3",""
"","html-keyboard-response","136","74941","0.0-202.0","3D3VGR7TA11VVD07BF5GBMO5FSPR38","A5CIHEPULDFUF","3HUR21WDDUBEMSLDIXZW1FAIHW8YX3","","null","<img src=""img/food6.png"" style=""width:200px; border:14px solid green;"">","null","","","","","","","","","",""
"","image-keyboard-response","137","75296","0.0-204.0","3D3VGR7TA11VVD07BF5GBMO5FSPR38","A5CIHEPULDFUF","3HUR21WDDUBEMSLDIXZW1FAIHW8YX3","","350.89999985694885","img/food2.png","74","354.40000009536743","1","0","false","1","2","1,0.5,0,1,0.5,0,0.5,0,1","0,1,0.5,0,1,0.5,1,0.5,0","3",""
"","html-keyboard-response","138","75600","0.0-205.0","3D3VGR7TA11VVD07BF5GBMO5FSPR38","A5CIHEPULDFUF","3HUR21WDDUBEMSLDIXZW1FAIHW8YX3","","null","<img src=""img/food2.png"" style=""width:200px;border:14px solid red;"">","null","","","","","","","","","",""
"","image-keyboard-response","139","75744","0.0-207.0","3D3VGR7TA11VVD07BF5GBMO5FSPR38","A5CIHEPULDFUF","3HUR21WDDUBEMSLDIXZW1FAIHW8YX3","","141.39999985694885","img/food2.png","75","143.20000004768372","2","1","false","1","2","1,0.5,0,1,0.5,0,0.5,0,1","0,1,0.5,0,1,0.5,1,0.5,0","3",""
"","html-keyboard-response","140","76047","0.0-208.0","3D3VGR7TA11VVD07BF5GBMO5FSPR38","A5CIHEPULDFUF","3HUR21WDDUBEMSLDIXZW1FAIHW8YX3","","null","<img src=""img/food2.png"" style=""width:200px; border:14px solid green;"">","null","","","","","","","","","",""
"","image-keyboard-response","141","76181","0.0-210.0","3D3VGR7TA11VVD07BF5GBMO5FSPR38","A5CIHEPULDFUF","3HUR21WDDUBEMSLDIXZW1FAIHW8YX3","","131.5","img/food4.png","75","133.29999995231628","2","1","false","2","2","1,0.5,0,1,0.5,0,0.5,0,1","0,1,0.5,0,1,0.5,1,0.5,0","3",""
"","html-keyboard-response","142","76484","0.0-211.0","3D3VGR7TA11VVD07BF5GBMO5FSPR38","A5CIHEPULDFUF","3HUR21WDDUBEMSLDIXZW1FAIHW8YX3","","null","<img src=""img/food4.png"" style=""width:200px; border:14px solid green;"">","null","","","","","","","","","",""
"","image-keyboard-response","143","76599","0.0-213.0","3D3VGR7TA11VVD07BF5GBMO5FSPR38","A5CIHEPULDFUF","3HUR21WDDUBEMSLDIXZW1FAIHW8YX3","","113.10000014305115","img/food4.png","74","115","1","0","false","2","2","1,0.5,0,1,0.5,0,0.5,0,1","0,1,0.5,0,1,0.5,1,0.5,0","3",""
"","html-keyboard-response","144","76902","0.0-214.0","3D3VGR7TA11VVD07BF5GBMO5FSPR38","A5CIHEPULDFUF","3HUR21WDDUBEMSLDIXZW1FAIHW8YX3","","null","<img src=""img/food4.png"" style=""width:200px;border:14px solid red;"">","null","","","","","","","","","",""
"","image-keyboard-response","145","77072","0.0-216.0","3D3VGR7TA11VVD07BF5GBMO5FSPR38","A5CIHEPULDFUF","3HUR21WDDUBEMSLDIXZW1FAIHW8YX3","","166.79999995231628","img/food4.png","75","168.59999990463257","2","1","false","2","2","1,0.5,0,1,0.5,0,0.5,0,1","0,1,0.5,0,1,0.5,1,0.5,0","3",""
"","html-keyboard-response","146","77375","0.0-217.0","3D3VGR7TA11VVD07BF5GBMO5FSPR38","A5CIHEPULDFUF","3HUR21WDDUBEMSLDIXZW1FAIHW8YX3","","null","<img src=""img/food4.png"" style=""width:200px; border:14px solid green;"">","null","","","","","","","","","",""
"","image-keyboard-response","147","77580","0.0-219.0","3D3VGR7TA11VVD07BF5GBMO5FSPR38","A5CIHEPULDFUF","3HUR21WDDUBEMSLDIXZW1FAIHW8YX3","","200.70000004768372","img/food6.png","75","204.20000004768372","2","1","false","3","2","1,0.5,0,1,0.5,0,0.5,0,1","0,1,0.5,0,1,0.5,1,0.5,0","3",""
"","html-keyboard-response","148","77884","0.0-220.0","3D3VGR7TA11VVD07BF5GBMO5FSPR38","A5CIHEPULDFUF","3HUR21WDDUBEMSLDIXZW1FAIHW8YX3","","null","<img src=""img/food6.png"" style=""width:200px; border:14px solid green;"">","null","","","","","","","","","",""
"","image-keyboard-response","149","77999","0.0-222.0","3D3VGR7TA11VVD07BF5GBMO5FSPR38","A5CIHEPULDFUF","3HUR21WDDUBEMSLDIXZW1FAIHW8YX3","","112.59999990463257","img/food4.png","74","114.59999990463257","1","0","false","2","2","1,0.5,0,1,0.5,0,0.5,0,1","0,1,0.5,0,1,0.5,1,0.5,0","3",""
"","html-keyboard-response","150","78303","0.0-223.0","3D3VGR7TA11VVD07BF5GBMO5FSPR38","A5CIHEPULDFUF","3HUR21WDDUBEMSLDIXZW1FAIHW8YX3","","null","<img src=""img/food4.png"" style=""width:200px;border:14px solid red;"">","null","","","","","","","","","",""
"","image-keyboard-response","151","78481","0.0-225.0","3D3VGR7TA11VVD07BF5GBMO5FSPR38","A5CIHEPULDFUF","3HUR21WDDUBEMSLDIXZW1FAIHW8YX3","","169.79999995231628","img/food2.png","75","175.19999980926514","2","1","false","1","2","1,0.5,0,1,0.5,0,0.5,0,1","0,1,0.5,0,1,0.5,1,0.5,0","3",""
"","html-keyboard-response","152","78784","0.0-226.0","3D3VGR7TA11VVD07BF5GBMO5FSPR38","A5CIHEPULDFUF","3HUR21WDDUBEMSLDIXZW1FAIHW8YX3","","null","<img src=""img/food2.png"" style=""width:200px; border:14px solid green;"">","null","","","","","","","","","",""
"","image-keyboard-response","153","79208","0.0-228.0","3D3VGR7TA11VVD07BF5GBMO5FSPR38","A5CIHEPULDFUF","3HUR21WDDUBEMSLDIXZW1FAIHW8YX3","","414.69999980926514","img/food2.png","76","420.40000009536743","3","1","false","1","2","1,0.5,0,1,0.5,0,0.5,0,1","0,1,0.5,0,1,0.5,1,0.5,0","3",""
"","html-keyboard-response","154","79511","0.0-229.0","3D3VGR7TA11VVD07BF5GBMO5FSPR38","A5CIHEPULDFUF","3HUR21WDDUBEMSLDIXZW1FAIHW8YX3","","null","<img src=""img/food2.png"" style=""width:200px; border:14px solid green;"">","null","","","","","","","","","",""
"","image-keyboard-response","155","79652","0.0-231.0","3D3VGR7TA11VVD07BF5GBMO5FSPR38","A5CIHEPULDFUF","3HUR21WDDUBEMSLDIXZW1FAIHW8YX3","","138.60000014305115","img/food2.png","76","140.40000009536743","3","0","false","1","2","1,0.5,0,1,0.5,0,0.5,0,1","0,1,0.5,0,1,0.5,1,0.5,0","3",""
"","html-keyboard-response","156","79955","0.0-232.0","3D3VGR7TA11VVD07BF5GBMO5FSPR38","A5CIHEPULDFUF","3HUR21WDDUBEMSLDIXZW1FAIHW8YX3","","null","<img src=""img/food2.png"" style=""width:200px;border:14px solid red;"">","null","","","","","","","","","",""
"","image-keyboard-response","157","80146","0.0-234.0","3D3VGR7TA11VVD07BF5GBMO5FSPR38","A5CIHEPULDFUF","3HUR21WDDUBEMSLDIXZW1FAIHW8YX3","","188.29999995231628","img/food6.png","76","190.29999995231628","3","0","false","3","2","1,0.5,0,1,0.5,0,0.5,0,1","0,1,0.5,0,1,0.5,1,0.5,0","3",""
"","html-keyboard-response","158","80450","0.0-235.0","3D3VGR7TA11VVD07BF5GBMO5FSPR38","A5CIHEPULDFUF","3HUR21WDDUBEMSLDIXZW1FAIHW8YX3","","null","<img src=""img/food6.png"" style=""width:200px;border:14px solid red;"">","null","","","","","","","","","",""
"","image-keyboard-response","159","80584","0.0-237.0","3D3VGR7TA11VVD07BF5GBMO5FSPR38","A5CIHEPULDFUF","3HUR21WDDUBEMSLDIXZW1FAIHW8YX3","","132","img/food6.png","76","133.60000014305115","3","0","false","3","2","1,0.5,0,1,0.5,0,0.5,0,1","0,1,0.5,0,1,0.5,1,0.5,0","3",""
"","html-keyboard-response","160","80887","0.0-238.0","3D3VGR7TA11VVD07BF5GBMO5FSPR38","A5CIHEPULDFUF","3HUR21WDDUBEMSLDIXZW1FAIHW8YX3","","null","<img src=""img/food6.png"" style=""width:200px;border:14px solid red;"">","null","","","","","","","","","",""
"","image-keyboard-response","161","81086","0.0-240.0","3D3VGR7TA11VVD07BF5GBMO5FSPR38","A5CIHEPULDFUF","3HUR21WDDUBEMSLDIXZW1FAIHW8YX3","","190.69999980926514","img/food6.png","76","196.29999995231628","3","0","false","3","2","1,0.5,0,1,0.5,0,0.5,0,1","0,1,0.5,0,1,0.5,1,0.5,0","3",""
"","html-keyboard-response","162","81390","0.0-241.0","3D3VGR7TA11VVD07BF5GBMO5FSPR38","A5CIHEPULDFUF","3HUR21WDDUBEMSLDIXZW1FAIHW8YX3","","null","<img src=""img/food6.png"" style=""width:200px;border:14px solid red;"">","null","","","","","","","","","",""
"","image-keyboard-response","163","81561","0.0-243.0","3D3VGR7TA11VVD07BF5GBMO5FSPR38","A5CIHEPULDFUF","3HUR21WDDUBEMSLDIXZW1FAIHW8YX3","","168","img/food4.png","76","170.20000004768372","3","0","false","2","2","1,0.5,0,1,0.5,0,0.5,0,1","0,1,0.5,0,1,0.5,1,0.5,0","3",""
"","html-keyboard-response","164","81864","0.0-244.0","3D3VGR7TA11VVD07BF5GBMO5FSPR38","A5CIHEPULDFUF","3HUR21WDDUBEMSLDIXZW1FAIHW8YX3","","null","<img src=""img/food4.png"" style=""width:200px;border:14px solid red;"">","null","","","","","","","","","",""
"","image-keyboard-response","165","82056","0.0-246.0","3D3VGR7TA11VVD07BF5GBMO5FSPR38","A5CIHEPULDFUF","3HUR21WDDUBEMSLDIXZW1FAIHW8YX3","","188.59999990463257","img/food6.png","76","190.69999980926514","3","0","false","3","2","1,0.5,0,1,0.5,0,0.5,0,1","0,1,0.5,0,1,0.5,1,0.5,0","3",""
"","html-keyboard-response","166","82360","0.0-247.0","3D3VGR7TA11VVD07BF5GBMO5FSPR38","A5CIHEPULDFUF","3HUR21WDDUBEMSLDIXZW1FAIHW8YX3","","null","<img src=""img/food6.png"" style=""width:200px;border:14px solid red;"">","null","","","","","","","","","",""
"","image-keyboard-response","167","82477","0.0-249.0","3D3VGR7TA11VVD07BF5GBMO5FSPR38","A5CIHEPULDFUF","3HUR21WDDUBEMSLDIXZW1FAIHW8YX3","","113.70000004768372","img/food4.png","76","115.5","3","1","false","2","2","1,0.5,0,1,0.5,0,0.5,0,1","0,1,0.5,0,1,0.5,1,0.5,0","3",""
"","html-keyboard-response","168","82780","0.0-250.0","3D3VGR7TA11VVD07BF5GBMO5FSPR38","A5CIHEPULDFUF","3HUR21WDDUBEMSLDIXZW1FAIHW8YX3","","null","<img src=""img/food4.png"" style=""width:200px; border:14px solid green;"">","null","","","","","","","","","",""
"","image-keyboard-response","169","83017","0.0-252.0","3D3VGR7TA11VVD07BF5GBMO5FSPR38","A5CIHEPULDFUF","3HUR21WDDUBEMSLDIXZW1FAIHW8YX3","","234.40000009536743","img/food2.png","76","236.5","3","0","false","1","2","1,0.5,0,1,0.5,0,0.5,0,1","0,1,0.5,0,1,0.5,1,0.5,0","3",""
"","html-keyboard-response","170","83321","0.0-253.0","3D3VGR7TA11VVD07BF5GBMO5FSPR38","A5CIHEPULDFUF","3HUR21WDDUBEMSLDIXZW1FAIHW8YX3","","null","<img src=""img/food2.png"" style=""width:200px;border:14px solid red;"">","null","","","","","","","","","",""
"","image-keyboard-response","171","83538","0.0-255.0","3D3VGR7TA11VVD07BF5GBMO5FSPR38","A5CIHEPULDFUF","3HUR21WDDUBEMSLDIXZW1FAIHW8YX3","","214.69999980926514","img/food4.png","76","216.70000004768372","3","1","false","2","2","1,0.5,0,1,0.5,0,0.5,0,1","0,1,0.5,0,1,0.5,1,0.5,0","3",""
"","html-keyboard-response","172","83842","0.0-256.0","3D3VGR7TA11VVD07BF5GBMO5FSPR38","A5CIHEPULDFUF","3HUR21WDDUBEMSLDIXZW1FAIHW8YX3","","null","<img src=""img/food4.png"" style=""width:200px; border:14px solid green;"">","null","","","","","","","","","",""
"","image-keyboard-response","173","84017","0.0-258.0","3D3VGR7TA11VVD07BF5GBMO5FSPR38","A5CIHEPULDFUF","3HUR21WDDUBEMSLDIXZW1FAIHW8YX3","","172.29999995231628","img/food4.png","76","174.20000004768372","3","1","false","2","2","1,0.5,0,1,0.5,0,0.5,0,1","0,1,0.5,0,1,0.5,1,0.5,0","3",""
"","html-keyboard-response","174","84320","0.0-259.0","3D3VGR7TA11VVD07BF5GBMO5FSPR38","A5CIHEPULDFUF","3HUR21WDDUBEMSLDIXZW1FAIHW8YX3","","null","<img src=""img/food4.png"" style=""width:200px; border:14px solid green;"">","null","","","","","","","","","",""
"","image-keyboard-response","175","84459","0.0-261.0","3D3VGR7TA11VVD07BF5GBMO5FSPR38","A5CIHEPULDFUF","3HUR21WDDUBEMSLDIXZW1FAIHW8YX3","","136.60000014305115","img/food6.png","76","138.70000004768372","3","0","false","3","2","1,0.5,0,1,0.5,0,0.5,0,1","0,1,0.5,0,1,0.5,1,0.5,0","3",""
"","html-keyboard-response","176","84763","0.0-262.0","3D3VGR7TA11VVD07BF5GBMO5FSPR38","A5CIHEPULDFUF","3HUR21WDDUBEMSLDIXZW1FAIHW8YX3","","null","<img src=""img/food6.png"" style=""width:200px;border:14px solid red;"">","null","","","","","","","","","",""
"","image-keyboard-response","177","84906","0.0-264.0","3D3VGR7TA11VVD07BF5GBMO5FSPR38","A5CIHEPULDFUF","3HUR21WDDUBEMSLDIXZW1FAIHW8YX3","","140.5","img/food2.png","76","142.40000009536743","3","0","false","1","2","1,0.5,0,1,0.5,0,0.5,0,1","0,1,0.5,0,1,0.5,1,0.5,0","3",""
"","html-keyboard-response","178","85208","0.0-265.0","3D3VGR7TA11VVD07BF5GBMO5FSPR38","A5CIHEPULDFUF","3HUR21WDDUBEMSLDIXZW1FAIHW8YX3","","null","<img src=""img/food2.png"" style=""width:200px;border:14px solid red;"">","null","","","","","","","","","",""
"","image-keyboard-response","179","85361","0.0-267.0","3D3VGR7TA11VVD07BF5GBMO5FSPR38","A5CIHEPULDFUF","3HUR21WDDUBEMSLDIXZW1FAIHW8YX3","","149.90000009536743","img/food4.png","76","151.79999995231628","3","0","false","2","2","1,0.5,0,1,0.5,0,0.5,0,1","0,1,0.5,0,1,0.5,1,0.5,0","3",""
"","html-keyboard-response","180","85664","0.0-268.0","3D3VGR7TA11VVD07BF5GBMO5FSPR38","A5CIHEPULDFUF","3HUR21WDDUBEMSLDIXZW1FAIHW8YX3","","null","<img src=""img/food4.png"" style=""width:200px;border:14px solid red;"">","null","","","","","","","","","",""
"","image-keyboard-response","181","85788","0.0-270.0","3D3VGR7TA11VVD07BF5GBMO5FSPR38","A5CIHEPULDFUF","3HUR21WDDUBEMSLDIXZW1FAIHW8YX3","","120.5","img/food6.png","76","122.5","3","0","false","3","2","1,0.5,0,1,0.5,0,0.5,0,1","0,1,0.5,0,1,0.5,1,0.5,0","3",""
"","html-keyboard-response","182","86090","0.0-271.0","3D3VGR7TA11VVD07BF5GBMO5FSPR38","A5CIHEPULDFUF","3HUR21WDDUBEMSLDIXZW1FAIHW8YX3","","null","<img src=""img/food6.png"" style=""width:200px;border:14px solid red;"">","null","","","","","","","","","",""
"","instructions","183","91564","0.0-273.0","3D3VGR7TA11VVD07BF5GBMO5FSPR38","A5CIHEPULDFUF","3HUR21WDDUBEMSLDIXZW1FAIHW8YX3","[{""page_index"":0,""viewing_time"":4240.600000143051},{""page_index"":1,""viewing_time"":1231}]","5472.100000143051","","","","","","","","","","","",""
"","image-keyboard-response","184","92132","0.0-274.0","3D3VGR7TA11VVD07BF5GBMO5FSPR38","A5CIHEPULDFUF","3HUR21WDDUBEMSLDIXZW1FAIHW8YX3","","565.4000000953674","img/food5.png","75","567.7999999523163","2","1","","1","1","1,0.5,0,1,0.5,0,0.5,0,1","0,1,0.5,0,1,0.5,1,0.5,0","3",""
"","html-keyboard-response","185","92441","0.0-275.0","3D3VGR7TA11VVD07BF5GBMO5FSPR38","A5CIHEPULDFUF","3HUR21WDDUBEMSLDIXZW1FAIHW8YX3","","null","<img src=""img/food5.png"" style=""width:200px; border:14px solid green;"">","null","","","","","","","","","",""
"","image-keyboard-response","186","92921","0.0-276.0","3D3VGR7TA11VVD07BF5GBMO5FSPR38","A5CIHEPULDFUF","3HUR21WDDUBEMSLDIXZW1FAIHW8YX3","","476.30000019073486","img/food5.png","76","479.90000009536743","3","1","","1","1","1,0.5,0,1,0.5,0,0.5,0,1","0,1,0.5,0,1,0.5,1,0.5,0","3",""
"","html-keyboard-response","187","93228","0.0-277.0","3D3VGR7TA11VVD07BF5GBMO5FSPR38","A5CIHEPULDFUF","3HUR21WDDUBEMSLDIXZW1FAIHW8YX3","","null","<img src=""img/food5.png"" style=""width:200px; border:14px solid green;"">","null","","","","","","","","","",""
"","image-keyboard-response","188","93594","0.0-278.0","3D3VGR7TA11VVD07BF5GBMO5FSPR38","A5CIHEPULDFUF","3HUR21WDDUBEMSLDIXZW1FAIHW8YX3","","363.10000014305115","img/food1.png","76","365.09999990463257","3","0","","3","1","1,0.5,0,1,0.5,0,0.5,0,1","0,1,0.5,0,1,0.5,1,0.5,0","3",""
"","html-keyboard-response","189","93904","0.0-279.0","3D3VGR7TA11VVD07BF5GBMO5FSPR38","A5CIHEPULDFUF","3HUR21WDDUBEMSLDIXZW1FAIHW8YX3","","null","<img src=""img/food1.png"" style=""width:200px;border:14px solid red;"">","null","","","","","","","","","",""
"","image-keyboard-response","190","93907","0.0-280.0","3D3VGR7TA11VVD07BF5GBMO5FSPR38","A5CIHEPULDFUF","3HUR21WDDUBEMSLDIXZW1FAIHW8YX3","","0.40000009536743164","img/food5.png","74","2.3999998569488525","1","0","","1","1","1,0.5,0,1,0.5,0,0.5,0,1","0,1,0.5,0,1,0.5,1,0.5,0","3",""
"","html-keyboard-response","191","94210","0.0-281.0","3D3VGR7TA11VVD07BF5GBMO5FSPR38","A5CIHEPULDFUF","3HUR21WDDUBEMSLDIXZW1FAIHW8YX3","","null","<img src=""img/food5.png"" style=""width:200px;border:14px solid red;"">","null","","","","","","","","","",""
"","image-keyboard-response","192","94224","0.0-282.0","3D3VGR7TA11VVD07BF5GBMO5FSPR38","A5CIHEPULDFUF","3HUR21WDDUBEMSLDIXZW1FAIHW8YX3","","11.600000143051147","img/food1.png","75","13.900000095367432","2","1","","3","1","1,0.5,0,1,0.5,0,0.5,0,1","0,1,0.5,0,1,0.5,1,0.5,0","3",""
"","html-keyboard-response","193","94528","0.0-283.0","3D3VGR7TA11VVD07BF5GBMO5FSPR38","A5CIHEPULDFUF","3HUR21WDDUBEMSLDIXZW1FAIHW8YX3","","null","<img src=""img/food1.png"" style=""width:200px; border:14px solid green;"">","null","","","","","","","","","",""
"","image-keyboard-response","194","94587","0.0-284.0","3D3VGR7TA11VVD07BF5GBMO5FSPR38","A5CIHEPULDFUF","3HUR21WDDUBEMSLDIXZW1FAIHW8YX3","","56.39999985694885","img/food1.png","76","58.5","3","0","","3","1","1,0.5,0,1,0.5,0,0.5,0,1","0,1,0.5,0,1,0.5,1,0.5,0","3",""
"","html-keyboard-response","195","94891","0.0-285.0","3D3VGR7TA11VVD07BF5GBMO5FSPR38","A5CIHEPULDFUF","3HUR21WDDUBEMSLDIXZW1FAIHW8YX3","","null","<img src=""img/food1.png"" style=""width:200px;border:14px solid red;"">","null","","","","","","","","","",""
"","image-keyboard-response","196","95172","0.0-286.0","3D3VGR7TA11VVD07BF5GBMO5FSPR38","A5CIHEPULDFUF","3HUR21WDDUBEMSLDIXZW1FAIHW8YX3","","277.90000009536743","img/food5.png","76","280.09999990463257","3","0","","1","1","1,0.5,0,1,0.5,0,0.5,0,1","0,1,0.5,0,1,0.5,1,0.5,0","3",""
"","html-keyboard-response","197","95476","0.0-287.0","3D3VGR7TA11VVD07BF5GBMO5FSPR38","A5CIHEPULDFUF","3HUR21WDDUBEMSLDIXZW1FAIHW8YX3","","null","<img src=""img/food5.png"" style=""width:200px;border:14px solid red;"">","null","","","","","","","","","",""
"","image-keyboard-response","198","95486","0.0-288.0","3D3VGR7TA11VVD07BF5GBMO5FSPR38","A5CIHEPULDFUF","3HUR21WDDUBEMSLDIXZW1FAIHW8YX3","","7.799999952316284","img/food1.png","74","9.799999952316284","1","1","","3","1","1,0.5,0,1,0.5,0,0.5,0,1","0,1,0.5,0,1,0.5,1,0.5,0","3",""
"","html-keyboard-response","199","95790","0.0-289.0","3D3VGR7TA11VVD07BF5GBMO5FSPR38","A5CIHEPULDFUF","3HUR21WDDUBEMSLDIXZW1FAIHW8YX3","","null","<img src=""img/food1.png"" style=""width:200px; border:14px solid green;"">","null","","","","","","","","","",""
"","image-keyboard-response","200","96120","0.0-290.0","3D3VGR7TA11VVD07BF5GBMO5FSPR38","A5CIHEPULDFUF","3HUR21WDDUBEMSLDIXZW1FAIHW8YX3","","328.40000009536743","img/food5.png","75","330.2000000476837","2","1","","1","1","1,0.5,0,1,0.5,0,0.5,0,1","0,1,0.5,0,1,0.5,1,0.5,0","3",""
"","html-keyboard-response","201","96424","0.0-291.0","3D3VGR7TA11VVD07BF5GBMO5FSPR38","A5CIHEPULDFUF","3HUR21WDDUBEMSLDIXZW1FAIHW8YX3","","null","<img src=""img/food5.png"" style=""width:200px; border:14px solid green;"">","null","","","","","","","","","",""
"","image-keyboard-response","202","96439","0.0-292.0","3D3VGR7TA11VVD07BF5GBMO5FSPR38","A5CIHEPULDFUF","3HUR21WDDUBEMSLDIXZW1FAIHW8YX3","","11.900000095367432","img/food5.png","76","14.800000190734863","3","0","","1","1","1,0.5,0,1,0.5,0,0.5,0,1","0,1,0.5,0,1,0.5,1,0.5,0","3",""
"","html-keyboard-response","203","96743","0.0-293.0","3D3VGR7TA11VVD07BF5GBMO5FSPR38","A5CIHEPULDFUF","3HUR21WDDUBEMSLDIXZW1FAIHW8YX3","","null","<img src=""img/food5.png"" style=""width:200px;border:14px solid red;"">","null","","","","","","","","","",""
"","image-keyboard-response","204","96994","0.0-294.0","3D3VGR7TA11VVD07BF5GBMO5FSPR38","A5CIHEPULDFUF","3HUR21WDDUBEMSLDIXZW1FAIHW8YX3","","249.20000004768372","img/food1.png","75","250.90000009536743","2","1","","3","1","1,0.5,0,1,0.5,0,0.5,0,1","0,1,0.5,0,1,0.5,1,0.5,0","3",""
"","html-keyboard-response","205","97303","0.0-295.0","3D3VGR7TA11VVD07BF5GBMO5FSPR38","A5CIHEPULDFUF","3HUR21WDDUBEMSLDIXZW1FAIHW8YX3","","null","<img src=""img/food1.png"" style=""width:200px; border:14px solid green;"">","null","","","","","","","","","",""
"","image-keyboard-response","206","97562","0.0-296.0","3D3VGR7TA11VVD07BF5GBMO5FSPR38","A5CIHEPULDFUF","3HUR21WDDUBEMSLDIXZW1FAIHW8YX3","","256.90000009536743","img/food1.png","76","258.90000009536743","3","0","","3","1","1,0.5,0,1,0.5,0,0.5,0,1","0,1,0.5,0,1,0.5,1,0.5,0","3",""
"","html-keyboard-response","207","97866","0.0-297.0","3D3VGR7TA11VVD07BF5GBMO5FSPR38","A5CIHEPULDFUF","3HUR21WDDUBEMSLDIXZW1FAIHW8YX3","","null","<img src=""img/food1.png"" style=""width:200px;border:14px solid red;"">","null","","","","","","","","","",""
"","image-keyboard-response","208","98071","0.0-298.0","3D3VGR7TA11VVD07BF5GBMO5FSPR38","A5CIHEPULDFUF","3HUR21WDDUBEMSLDIXZW1FAIHW8YX3","","202.90000009536743","img/food1.png","75","204.59999990463257","2","0","","3","1","1,0.5,0,1,0.5,0,0.5,0,1","0,1,0.5,0,1,0.5,1,0.5,0","3",""
"","html-keyboard-response","209","98374","0.0-299.0","3D3VGR7TA11VVD07BF5GBMO5FSPR38","A5CIHEPULDFUF","3HUR21WDDUBEMSLDIXZW1FAIHW8YX3","","null","<img src=""img/food1.png"" style=""width:200px;border:14px solid red;"">","null","","","","","","","","","",""
"","image-keyboard-response","210","98587","0.0-300.0","3D3VGR7TA11VVD07BF5GBMO5FSPR38","A5CIHEPULDFUF","3HUR21WDDUBEMSLDIXZW1FAIHW8YX3","","210.19999980926514","img/food3.png","76","212.09999990463257","3","0","","2","1","1,0.5,0,1,0.5,0,0.5,0,1","0,1,0.5,0,1,0.5,1,0.5,0","3",""
"","html-keyboard-response","211","98890","0.0-301.0","3D3VGR7TA11VVD07BF5GBMO5FSPR38","A5CIHEPULDFUF","3HUR21WDDUBEMSLDIXZW1FAIHW8YX3","","null","<img src=""img/food3.png"" style=""width:200px;border:14px solid red;"">","null","","","","","","","","","",""
"","image-keyboard-response","212","99054","0.0-302.0","3D3VGR7TA11VVD07BF5GBMO5FSPR38","A5CIHEPULDFUF","3HUR21WDDUBEMSLDIXZW1FAIHW8YX3","","161.79999995231628","img/food5.png","75","163.5","2","1","","1","1","1,0.5,0,1,0.5,0,0.5,0,1","0,1,0.5,0,1,0.5,1,0.5,0","3",""
"","html-keyboard-response","213","99358","0.0-303.0","3D3VGR7TA11VVD07BF5GBMO5FSPR38","A5CIHEPULDFUF","3HUR21WDDUBEMSLDIXZW1FAIHW8YX3","","null","<img src=""img/food5.png"" style=""width:200px; border:14px solid green;"">","null","","","","","","","","","",""
"","image-keyboard-response","214","99522","0.0-304.0","3D3VGR7TA11VVD07BF5GBMO5FSPR38","A5CIHEPULDFUF","3HUR21WDDUBEMSLDIXZW1FAIHW8YX3","","162.09999990463257","img/food3.png","76","164.09999990463257","3","1","","2","1","1,0.5,0,1,0.5,0,0.5,0,1","0,1,0.5,0,1,0.5,1,0.5,0","3",""
"","html-keyboard-response","215","99827","0.0-305.0","3D3VGR7TA11VVD07BF5GBMO5FSPR38","A5CIHEPULDFUF","3HUR21WDDUBEMSLDIXZW1FAIHW8YX3","","null","<img src=""img/food3.png"" style=""width:200px; border:14px solid green;"">","null","","","","","","","","","",""
"","image-keyboard-response","216","99939","0.0-306.0","3D3VGR7TA11VVD07BF5GBMO5FSPR38","A5CIHEPULDFUF","3HUR21WDDUBEMSLDIXZW1FAIHW8YX3","","111","img/food1.png","75","112.59999990463257","2","1","","3","1","1,0.5,0,1,0.5,0,0.5,0,1","0,1,0.5,0,1,0.5,1,0.5,0","3",""
"","html-keyboard-response","217","100243","0.0-307.0","3D3VGR7TA11VVD07BF5GBMO5FSPR38","A5CIHEPULDFUF","3HUR21WDDUBEMSLDIXZW1FAIHW8YX3","","null","<img src=""img/food1.png"" style=""width:200px; border:14px solid green;"">","null","","","","","","","","","",""
"","image-keyboard-response","218","100430","0.0-308.0","3D3VGR7TA11VVD07BF5GBMO5FSPR38","A5CIHEPULDFUF","3HUR21WDDUBEMSLDIXZW1FAIHW8YX3","","184","img/food3.png","76","186","3","0","","2","1","1,0.5,0,1,0.5,0,0.5,0,1","0,1,0.5,0,1,0.5,1,0.5,0","3",""
"","html-keyboard-response","219","100733","0.0-309.0","3D3VGR7TA11VVD07BF5GBMO5FSPR38","A5CIHEPULDFUF","3HUR21WDDUBEMSLDIXZW1FAIHW8YX3","","null","<img src=""img/food3.png"" style=""width:200px;border:14px solid red;"">","null","","","","","","","","","",""
"","image-keyboard-response","220","100843","0.0-310.0","3D3VGR7TA11VVD07BF5GBMO5FSPR38","A5CIHEPULDFUF","3HUR21WDDUBEMSLDIXZW1FAIHW8YX3","","107.59999990463257","img/food3.png","75","109.70000004768372","2","1","","2","1","1,0.5,0,1,0.5,0,0.5,0,1","0,1,0.5,0,1,0.5,1,0.5,0","3",""
"","html-keyboard-response","221","101145","0.0-311.0","3D3VGR7TA11VVD07BF5GBMO5FSPR38","A5CIHEPULDFUF","3HUR21WDDUBEMSLDIXZW1FAIHW8YX3","","null","<img src=""img/food3.png"" style=""width:200px; border:14px solid green;"">","null","","","","","","","","","",""
"","image-keyboard-response","222","101308","0.0-312.0","3D3VGR7TA11VVD07BF5GBMO5FSPR38","A5CIHEPULDFUF","3HUR21WDDUBEMSLDIXZW1FAIHW8YX3","","160.09999990463257","img/food1.png","76","162.09999990463257","3","0","","3","1","1,0.5,0,1,0.5,0,0.5,0,1","0,1,0.5,0,1,0.5,1,0.5,0","3",""
"","html-keyboard-response","223","101611","0.0-313.0","3D3VGR7TA11VVD07BF5GBMO5FSPR38","A5CIHEPULDFUF","3HUR21WDDUBEMSLDIXZW1FAIHW8YX3","","null","<img src=""img/food1.png"" style=""width:200px;border:14px solid red;"">","null","","","","","","","","","",""
"","image-keyboard-response","224","101772","0.0-314.0","3D3VGR7TA11VVD07BF5GBMO5FSPR38","A5CIHEPULDFUF","3HUR21WDDUBEMSLDIXZW1FAIHW8YX3","","157.5","img/food5.png","75","160.70000004768372","2","1","","1","1","1,0.5,0,1,0.5,0,0.5,0,1","0,1,0.5,0,1,0.5,1,0.5,0","3",""
"","html-keyboard-response","225","102084","0.0-315.0","3D3VGR7TA11VVD07BF5GBMO5FSPR38","A5CIHEPULDFUF","3HUR21WDDUBEMSLDIXZW1FAIHW8YX3","","null","<img src=""img/food5.png"" style=""width:200px; border:14px solid green;"">","null","","","","","","","","","",""
"","image-keyboard-response","226","102315","0.0-316.0","3D3VGR7TA11VVD07BF5GBMO5FSPR38","A5CIHEPULDFUF","3HUR21WDDUBEMSLDIXZW1FAIHW8YX3","","227.89999985694885","img/food3.png","76","229.89999985694885","3","0","","2","1","1,0.5,0,1,0.5,0,0.5,0,1","0,1,0.5,0,1,0.5,1,0.5,0","3",""
"","html-keyboard-response","227","102617","0.0-317.0","3D3VGR7TA11VVD07BF5GBMO5FSPR38","A5CIHEPULDFUF","3HUR21WDDUBEMSLDIXZW1FAIHW8YX3","","null","<img src=""img/food3.png"" style=""width:200px;border:14px solid red;"">","null","","","","","","","","","",""
"","image-keyboard-response","228","102788","0.0-318.0","3D3VGR7TA11VVD07BF5GBMO5FSPR38","A5CIHEPULDFUF","3HUR21WDDUBEMSLDIXZW1FAIHW8YX3","","168.20000004768372","img/food5.png","76","170.29999995231628","3","0","","1","1","1,0.5,0,1,0.5,0,0.5,0,1","0,1,0.5,0,1,0.5,1,0.5,0","3",""
"","html-keyboard-response","229","103091","0.0-319.0","3D3VGR7TA11VVD07BF5GBMO5FSPR38","A5CIHEPULDFUF","3HUR21WDDUBEMSLDIXZW1FAIHW8YX3","","null","<img src=""img/food5.png"" style=""width:200px;border:14px solid red;"">","null","","","","","","","","","",""
"","image-keyboard-response","230","103094","0.0-320.0","3D3VGR7TA11VVD07BF5GBMO5FSPR38","A5CIHEPULDFUF","3HUR21WDDUBEMSLDIXZW1FAIHW8YX3","","0.39999985694885254","img/food5.png","75","2.0999999046325684","2","1","","1","1","1,0.5,0,1,0.5,0,0.5,0,1","0,1,0.5,0,1,0.5,1,0.5,0","3",""
"","html-keyboard-response","231","103397","0.0-321.0","3D3VGR7TA11VVD07BF5GBMO5FSPR38","A5CIHEPULDFUF","3HUR21WDDUBEMSLDIXZW1FAIHW8YX3","","null","<img src=""img/food5.png"" style=""width:200px; border:14px solid green;"">","null","","","","","","","","","",""
"","image-keyboard-response","232","103518","0.0-322.0","3D3VGR7TA11VVD07BF5GBMO5FSPR38","A5CIHEPULDFUF","3HUR21WDDUBEMSLDIXZW1FAIHW8YX3","","118.29999995231628","img/food1.png","74","120.20000004768372","1","1","","3","1","1,0.5,0,1,0.5,0,0.5,0,1","0,1,0.5,0,1,0.5,1,0.5,0","3",""
"","html-keyboard-response","233","103821","0.0-323.0","3D3VGR7TA11VVD07BF5GBMO5FSPR38","A5CIHEPULDFUF","3HUR21WDDUBEMSLDIXZW1FAIHW8YX3","","null","<img src=""img/food1.png"" style=""width:200px; border:14px solid green;"">","null","","","","","","","","","",""
"","image-keyboard-response","234","104037","0.0-324.0","3D3VGR7TA11VVD07BF5GBMO5FSPR38","A5CIHEPULDFUF","3HUR21WDDUBEMSLDIXZW1FAIHW8YX3","","214","img/food1.png","75","215.79999995231628","2","0","","3","1","1,0.5,0,1,0.5,0,0.5,0,1","0,1,0.5,0,1,0.5,1,0.5,0","3",""
"","html-keyboard-response","235","104340","0.0-325.0","3D3VGR7TA11VVD07BF5GBMO5FSPR38","A5CIHEPULDFUF","3HUR21WDDUBEMSLDIXZW1FAIHW8YX3","","null","<img src=""img/food1.png"" style=""width:200px;border:14px solid red;"">","null","","","","","","","","","",""
"","image-keyboard-response","236","104447","0.0-326.0","3D3VGR7TA11VVD07BF5GBMO5FSPR38","A5CIHEPULDFUF","3HUR21WDDUBEMSLDIXZW1FAIHW8YX3","","105.10000014305115","img/food1.png","74","107","1","1","","3","1","1,0.5,0,1,0.5,0,0.5,0,1","0,1,0.5,0,1,0.5,1,0.5,0","3",""
"","html-keyboard-response","237","104750","0.0-327.0","3D3VGR7TA11VVD07BF5GBMO5FSPR38","A5CIHEPULDFUF","3HUR21WDDUBEMSLDIXZW1FAIHW8YX3","","null","<img src=""img/food1.png"" style=""width:200px; border:14px solid green;"">","null","","","","","","","","","",""
"","image-keyboard-response","238","105029","0.0-328.0","3D3VGR7TA11VVD07BF5GBMO5FSPR38","A5CIHEPULDFUF","3HUR21WDDUBEMSLDIXZW1FAIHW8YX3","","276.39999985694885","img/food1.png","75","278.2999999523163","2","0","","3","1","1,0.5,0,1,0.5,0,0.5,0,1","0,1,0.5,0,1,0.5,1,0.5,0","3",""
"","html-keyboard-response","239","105333","0.0-329.0","3D3VGR7TA11VVD07BF5GBMO5FSPR38","A5CIHEPULDFUF","3HUR21WDDUBEMSLDIXZW1FAIHW8YX3","","null","<img src=""img/food1.png"" style=""width:200px;border:14px solid red;"">","null","","","","","","","","","",""
"","image-keyboard-response","240","105436","0.0-330.0","3D3VGR7TA11VVD07BF5GBMO5FSPR38","A5CIHEPULDFUF","3HUR21WDDUBEMSLDIXZW1FAIHW8YX3","","100.59999990463257","img/food3.png","74","102.59999990463257","1","0","","2","1","1,0.5,0,1,0.5,0,0.5,0,1","0,1,0.5,0,1,0.5,1,0.5,0","3",""
"","html-keyboard-response","241","105738","0.0-331.0","3D3VGR7TA11VVD07BF5GBMO5FSPR38","A5CIHEPULDFUF","3HUR21WDDUBEMSLDIXZW1FAIHW8YX3","","null","<img src=""img/food3.png"" style=""width:200px;border:14px solid red;"">","null","","","","","","","","","",""
"","image-keyboard-response","242","105961","0.0-332.0","3D3VGR7TA11VVD07BF5GBMO5FSPR38","A5CIHEPULDFUF","3HUR21WDDUBEMSLDIXZW1FAIHW8YX3","","219.70000004768372","img/food1.png","75","221.90000009536743","2","0","","3","1","1,0.5,0,1,0.5,0,0.5,0,1","0,1,0.5,0,1,0.5,1,0.5,0","3",""
"","html-keyboard-response","243","106263","0.0-333.0","3D3VGR7TA11VVD07BF5GBMO5FSPR38","A5CIHEPULDFUF","3HUR21WDDUBEMSLDIXZW1FAIHW8YX3","","null","<img src=""img/food1.png"" style=""width:200px;border:14px solid red;"">","null","","","","","","","","","",""
"","image-keyboard-response","244","106415","0.0-334.0","3D3VGR7TA11VVD07BF5GBMO5FSPR38","A5CIHEPULDFUF","3HUR21WDDUBEMSLDIXZW1FAIHW8YX3","","149.29999995231628","img/food3.png","74","151.5","1","0","","2","1","1,0.5,0,1,0.5,0,0.5,0,1","0,1,0.5,0,1,0.5,1,0.5,0","3",""
"","html-keyboard-response","245","106719","0.0-335.0","3D3VGR7TA11VVD07BF5GBMO5FSPR38","A5CIHEPULDFUF","3HUR21WDDUBEMSLDIXZW1FAIHW8YX3","","null","<img src=""img/food3.png"" style=""width:200px;border:14px solid red;"">","null","","","","","","","","","",""
"","image-keyboard-response","246","107107","0.0-336.0","3D3VGR7TA11VVD07BF5GBMO5FSPR38","A5CIHEPULDFUF","3HUR21WDDUBEMSLDIXZW1FAIHW8YX3","","385","img/food5.png","75","387","2","1","","1","1","1,0.5,0,1,0.5,0,0.5,0,1","0,1,0.5,0,1,0.5,1,0.5,0","3",""
"","html-keyboard-response","247","107410","0.0-337.0","3D3VGR7TA11VVD07BF5GBMO5FSPR38","A5CIHEPULDFUF","3HUR21WDDUBEMSLDIXZW1FAIHW8YX3","","null","<img src=""img/food5.png"" style=""width:200px; border:14px solid green;"">","null","","","","","","","","","",""
"","image-keyboard-response","248","107416","0.0-338.0","3D3VGR7TA11VVD07BF5GBMO5FSPR38","A5CIHEPULDFUF","3HUR21WDDUBEMSLDIXZW1FAIHW8YX3","","4.5","img/food5.png","76","6.200000047683716","3","0","","1","1","1,0.5,0,1,0.5,0,0.5,0,1","0,1,0.5,0,1,0.5,1,0.5,0","3",""
"","html-keyboard-response","249","107721","0.0-339.0","3D3VGR7TA11VVD07BF5GBMO5FSPR38","A5CIHEPULDFUF","3HUR21WDDUBEMSLDIXZW1FAIHW8YX3","","null","<img src=""img/food5.png"" style=""width:200px;border:14px solid red;"">","null","","","","","","","","","",""
"","image-keyboard-response","250","107867","0.0-340.0","3D3VGR7TA11VVD07BF5GBMO5FSPR38","A5CIHEPULDFUF","3HUR21WDDUBEMSLDIXZW1FAIHW8YX3","","143.40000009536743","img/food3.png","76","145.20000004768372","3","0","","2","1","1,0.5,0,1,0.5,0,0.5,0,1","0,1,0.5,0,1,0.5,1,0.5,0","3",""
"","html-keyboard-response","251","108171","0.0-341.0","3D3VGR7TA11VVD07BF5GBMO5FSPR38","A5CIHEPULDFUF","3HUR21WDDUBEMSLDIXZW1FAIHW8YX3","","null","<img src=""img/food3.png"" style=""width:200px;border:14px solid red;"">","null","","","","","","","","","",""
"","image-keyboard-response","252","108383","0.0-342.0","3D3VGR7TA11VVD07BF5GBMO5FSPR38","A5CIHEPULDFUF","3HUR21WDDUBEMSLDIXZW1FAIHW8YX3","","209.70000004768372","img/food5.png","75","211.70000004768372","2","1","","1","1","1,0.5,0,1,0.5,0,0.5,0,1","0,1,0.5,0,1,0.5,1,0.5,0","3",""
"","html-keyboard-response","253","108687","0.0-343.0","3D3VGR7TA11VVD07BF5GBMO5FSPR38","A5CIHEPULDFUF","3HUR21WDDUBEMSLDIXZW1FAIHW8YX3","","null","<img src=""img/food5.png"" style=""width:200px; border:14px solid green;"">","null","","","","","","","","","",""
"","image-keyboard-response","254","108862","0.0-344.0","3D3VGR7TA11VVD07BF5GBMO5FSPR38","A5CIHEPULDFUF","3HUR21WDDUBEMSLDIXZW1FAIHW8YX3","","173.29999995231628","img/food5.png","74","175","1","0","","1","1","1,0.5,0,1,0.5,0,0.5,0,1","0,1,0.5,0,1,0.5,1,0.5,0","3",""
"","html-keyboard-response","255","109167","0.0-345.0","3D3VGR7TA11VVD07BF5GBMO5FSPR38","A5CIHEPULDFUF","3HUR21WDDUBEMSLDIXZW1FAIHW8YX3","","null","<img src=""img/food5.png"" style=""width:200px;border:14px solid red;"">","null","","","","","","","","","",""
"","image-keyboard-response","256","109294","0.0-346.0","3D3VGR7TA11VVD07BF5GBMO5FSPR38","A5CIHEPULDFUF","3HUR21WDDUBEMSLDIXZW1FAIHW8YX3","","119","img/food5.png","74","125.69999980926514","1","0","","1","1","1,0.5,0,1,0.5,0,0.5,0,1","0,1,0.5,0,1,0.5,1,0.5,0","3",""
"","html-keyboard-response","257","109604","0.0-347.0","3D3VGR7TA11VVD07BF5GBMO5FSPR38","A5CIHEPULDFUF","3HUR21WDDUBEMSLDIXZW1FAIHW8YX3","","null","<img src=""img/food5.png"" style=""width:200px;border:14px solid red;"">","null","","","","","","","","","",""
"","image-keyboard-response","258","109664","0.0-348.0","3D3VGR7TA11VVD07BF5GBMO5FSPR38","A5CIHEPULDFUF","3HUR21WDDUBEMSLDIXZW1FAIHW8YX3","","56.90000009536743","img/food5.png","75","59.09999990463257","2","1","","1","1","1,0.5,0,1,0.5,0,0.5,0,1","0,1,0.5,0,1,0.5,1,0.5,0","3",""
"","html-keyboard-response","259","109966","0.0-349.0","3D3VGR7TA11VVD07BF5GBMO5FSPR38","A5CIHEPULDFUF","3HUR21WDDUBEMSLDIXZW1FAIHW8YX3","","null","<img src=""img/food5.png"" style=""width:200px; border:14px solid green;"">","null","","","","","","","","","",""
"","image-keyboard-response","260","110075","0.0-350.0","3D3VGR7TA11VVD07BF5GBMO5FSPR38","A5CIHEPULDFUF","3HUR21WDDUBEMSLDIXZW1FAIHW8YX3","","106.39999985694885","img/food1.png","74","108.29999995231628","1","1","","3","1","1,0.5,0,1,0.5,0,0.5,0,1","0,1,0.5,0,1,0.5,1,0.5,0","3",""
"","html-keyboard-response","261","110379","0.0-351.0","3D3VGR7TA11VVD07BF5GBMO5FSPR38","A5CIHEPULDFUF","3HUR21WDDUBEMSLDIXZW1FAIHW8YX3","","null","<img src=""img/food1.png"" style=""width:200px; border:14px solid green;"">","null","","","","","","","","","",""
"","image-keyboard-response","262","110609","0.0-352.0","3D3VGR7TA11VVD07BF5GBMO5FSPR38","A5CIHEPULDFUF","3HUR21WDDUBEMSLDIXZW1FAIHW8YX3","","227.5","img/food3.png","75","229.39999985694885","2","1","","2","1","1,0.5,0,1,0.5,0,0.5,0,1","0,1,0.5,0,1,0.5,1,0.5,0","3",""
"","html-keyboard-response","263","110913","0.0-353.0","3D3VGR7TA11VVD07BF5GBMO5FSPR38","A5CIHEPULDFUF","3HUR21WDDUBEMSLDIXZW1FAIHW8YX3","","null","<img src=""img/food3.png"" style=""width:200px; border:14px solid green;"">","null","","","","","","","","","",""
"","image-keyboard-response","264","111049","0.0-354.0","3D3VGR7TA11VVD07BF5GBMO5FSPR38","A5CIHEPULDFUF","3HUR21WDDUBEMSLDIXZW1FAIHW8YX3","","133.79999995231628","img/food5.png","74","135.70000004768372","1","0","","1","1","1,0.5,0,1,0.5,0,0.5,0,1","0,1,0.5,0,1,0.5,1,0.5,0","3",""
"","html-keyboard-response","265","111353","0.0-355.0","3D3VGR7TA11VVD07BF5GBMO5FSPR38","A5CIHEPULDFUF","3HUR21WDDUBEMSLDIXZW1FAIHW8YX3","","null","<img src=""img/food5.png"" style=""width:200px;border:14px solid red;"">","null","","","","","","","","","",""
"","image-keyboard-response","266","111551","0.0-356.0","3D3VGR7TA11VVD07BF5GBMO5FSPR38","A5CIHEPULDFUF","3HUR21WDDUBEMSLDIXZW1FAIHW8YX3","","195.59999990463257","img/food3.png","75","197.59999990463257","2","1","","2","1","1,0.5,0,1,0.5,0,0.5,0,1","0,1,0.5,0,1,0.5,1,0.5,0","3",""
"","html-keyboard-response","267","111853","0.0-357.0","3D3VGR7TA11VVD07BF5GBMO5FSPR38","A5CIHEPULDFUF","3HUR21WDDUBEMSLDIXZW1FAIHW8YX3","","null","<img src=""img/food3.png"" style=""width:200px; border:14px solid green;"">","null","","","","","","","","","",""
"","image-keyboard-response","268","112020","0.0-358.0","3D3VGR7TA11VVD07BF5GBMO5FSPR38","A5CIHEPULDFUF","3HUR21WDDUBEMSLDIXZW1FAIHW8YX3","","163.79999995231628","img/food5.png","74","166.70000004768372","1","0","","1","1","1,0.5,0,1,0.5,0,0.5,0,1","0,1,0.5,0,1,0.5,1,0.5,0","3",""
"","html-keyboard-response","269","112329","0.0-359.0","3D3VGR7TA11VVD07BF5GBMO5FSPR38","A5CIHEPULDFUF","3HUR21WDDUBEMSLDIXZW1FAIHW8YX3","","null","<img src=""img/food5.png"" style=""width:200px;border:14px solid red;"">","null","","","","","","","","","",""
"","image-keyboard-response","270","112507","0.0-360.0","3D3VGR7TA11VVD07BF5GBMO5FSPR38","A5CIHEPULDFUF","3HUR21WDDUBEMSLDIXZW1FAIHW8YX3","","176","img/food1.png","75","177.89999985694885","2","1","","3","1","1,0.5,0,1,0.5,0,0.5,0,1","0,1,0.5,0,1,0.5,1,0.5,0","3",""
"","html-keyboard-response","271","112810","0.0-361.0","3D3VGR7TA11VVD07BF5GBMO5FSPR38","A5CIHEPULDFUF","3HUR21WDDUBEMSLDIXZW1FAIHW8YX3","","null","<img src=""img/food1.png"" style=""width:200px; border:14px solid green;"">","null","","","","","","","","","",""
"","image-keyboard-response","272","113007","0.0-362.0","3D3VGR7TA11VVD07BF5GBMO5FSPR38","A5CIHEPULDFUF","3HUR21WDDUBEMSLDIXZW1FAIHW8YX3","","195.20000004768372","img/food1.png","75","196.79999995231628","2","1","","3","1","1,0.5,0,1,0.5,0,0.5,0,1","0,1,0.5,0,1,0.5,1,0.5,0","3",""
"","html-keyboard-response","273","113311","0.0-363.0","3D3VGR7TA11VVD07BF5GBMO5FSPR38","A5CIHEPULDFUF","3HUR21WDDUBEMSLDIXZW1FAIHW8YX3","","null","<img src=""img/food1.png"" style=""width:200px; border:14px solid green;"">","null","","","","","","","","","",""
"","image-keyboard-response","274","113469","0.0-364.0","3D3VGR7TA11VVD07BF5GBMO5FSPR38","A5CIHEPULDFUF","3HUR21WDDUBEMSLDIXZW1FAIHW8YX3","","155.5","img/food5.png","75","158.90000009536743","2","1","","1","1","1,0.5,0,1,0.5,0,0.5,0,1","0,1,0.5,0,1,0.5,1,0.5,0","3",""
"","html-keyboard-response","275","113779","0.0-365.0","3D3VGR7TA11VVD07BF5GBMO5FSPR38","A5CIHEPULDFUF","3HUR21WDDUBEMSLDIXZW1FAIHW8YX3","","null","<img src=""img/food5.png"" style=""width:200px; border:14px solid green;"">","null","","","","","","","","","",""
"","image-keyboard-response","276","113921","0.0-366.0","3D3VGR7TA11VVD07BF5GBMO5FSPR38","A5CIHEPULDFUF","3HUR21WDDUBEMSLDIXZW1FAIHW8YX3","","139.29999995231628","img/food5.png","74","141.29999995231628","1","0","","1","1","1,0.5,0,1,0.5,0,0.5,0,1","0,1,0.5,0,1,0.5,1,0.5,0","3",""
"","html-keyboard-response","277","114224","0.0-367.0","3D3VGR7TA11VVD07BF5GBMO5FSPR38","A5CIHEPULDFUF","3HUR21WDDUBEMSLDIXZW1FAIHW8YX3","","null","<img src=""img/food5.png"" style=""width:200px;border:14px solid red;"">","null","","","","","","","","","",""
"","image-keyboard-response","278","114406","0.0-368.0","3D3VGR7TA11VVD07BF5GBMO5FSPR38","A5CIHEPULDFUF","3HUR21WDDUBEMSLDIXZW1FAIHW8YX3","","179.79999995231628","img/food3.png","75","181.79999995231628","2","1","","2","1","1,0.5,0,1,0.5,0,0.5,0,1","0,1,0.5,0,1,0.5,1,0.5,0","3",""
"","html-keyboard-response","279","114709","0.0-369.0","3D3VGR7TA11VVD07BF5GBMO5FSPR38","A5CIHEPULDFUF","3HUR21WDDUBEMSLDIXZW1FAIHW8YX3","","null","<img src=""img/food3.png"" style=""width:200px; border:14px solid green;"">","null","","","","","","","","","",""
"","image-keyboard-response","280","114887","0.0-370.0","3D3VGR7TA11VVD07BF5GBMO5FSPR38","A5CIHEPULDFUF","3HUR21WDDUBEMSLDIXZW1FAIHW8YX3","","176.39999985694885","img/food3.png","75","177.89999985694885","2","1","","2","1","1,0.5,0,1,0.5,0,0.5,0,1","0,1,0.5,0,1,0.5,1,0.5,0","3",""
"","html-keyboard-response","281","115190","0.0-371.0","3D3VGR7TA11VVD07BF5GBMO5FSPR38","A5CIHEPULDFUF","3HUR21WDDUBEMSLDIXZW1FAIHW8YX3","","null","<img src=""img/food3.png"" style=""width:200px; border:14px solid green;"">","null","","","","","","","","","",""
"","image-keyboard-response","282","115327","0.0-372.0","3D3VGR7TA11VVD07BF5GBMO5FSPR38","A5CIHEPULDFUF","3HUR21WDDUBEMSLDIXZW1FAIHW8YX3","","134.79999995231628","img/food3.png","75","136.79999995231628","2","1","","2","1","1,0.5,0,1,0.5,0,0.5,0,1","0,1,0.5,0,1,0.5,1,0.5,0","3",""
"","html-keyboard-response","283","115631","0.0-373.0","3D3VGR7TA11VVD07BF5GBMO5FSPR38","A5CIHEPULDFUF","3HUR21WDDUBEMSLDIXZW1FAIHW8YX3","","null","<img src=""img/food3.png"" style=""width:200px; border:14px solid green;"">","null","","","","","","","","","",""
"","image-keyboard-response","284","115786","0.0-374.0","3D3VGR7TA11VVD07BF5GBMO5FSPR38","A5CIHEPULDFUF","3HUR21WDDUBEMSLDIXZW1FAIHW8YX3","","148.5","img/food3.png","74","154.19999980926514","1","0","","2","1","1,0.5,0,1,0.5,0,0.5,0,1","0,1,0.5,0,1,0.5,1,0.5,0","3",""
"","html-keyboard-response","285","116089","0.0-375.0","3D3VGR7TA11VVD07BF5GBMO5FSPR38","A5CIHEPULDFUF","3HUR21WDDUBEMSLDIXZW1FAIHW8YX3","","null","<img src=""img/food3.png"" style=""width:200px;border:14px solid red;"">","null","","","","","","","","","",""
"","image-keyboard-response","286","116294","0.0-376.0","3D3VGR7TA11VVD07BF5GBMO5FSPR38","A5CIHEPULDFUF","3HUR21WDDUBEMSLDIXZW1FAIHW8YX3","","202.29999995231628","img/food5.png","75","204.20000004768372","2","1","","1","1","1,0.5,0,1,0.5,0,0.5,0,1","0,1,0.5,0,1,0.5,1,0.5,0","3",""
"","html-keyboard-response","287","116597","0.0-377.0","3D3VGR7TA11VVD07BF5GBMO5FSPR38","A5CIHEPULDFUF","3HUR21WDDUBEMSLDIXZW1FAIHW8YX3","","null","<img src=""img/food5.png"" style=""width:200px; border:14px solid green;"">","null","","","","","","","","","",""
"","image-keyboard-response","288","116775","0.0-378.0","3D3VGR7TA11VVD07BF5GBMO5FSPR38","A5CIHEPULDFUF","3HUR21WDDUBEMSLDIXZW1FAIHW8YX3","","175.70000004768372","img/food3.png","75","177.90000009536743","2","1","","2","1","1,0.5,0,1,0.5,0,0.5,0,1","0,1,0.5,0,1,0.5,1,0.5,0","3",""
"","html-keyboard-response","289","117080","0.0-379.0","3D3VGR7TA11VVD07BF5GBMO5FSPR38","A5CIHEPULDFUF","3HUR21WDDUBEMSLDIXZW1FAIHW8YX3","","null","<img src=""img/food3.png"" style=""width:200px; border:14px solid green;"">","null","","","","","","","","","",""
"","image-keyboard-response","290","117249","0.0-380.0","3D3VGR7TA11VVD07BF5GBMO5FSPR38","A5CIHEPULDFUF","3HUR21WDDUBEMSLDIXZW1FAIHW8YX3","","167.20000004768372","img/food5.png","75","169","2","1","","1","1","1,0.5,0,1,0.5,0,0.5,0,1","0,1,0.5,0,1,0.5,1,0.5,0","3",""
"","html-keyboard-response","291","117553","0.0-381.0","3D3VGR7TA11VVD07BF5GBMO5FSPR38","A5CIHEPULDFUF","3HUR21WDDUBEMSLDIXZW1FAIHW8YX3","","null","<img src=""img/food5.png"" style=""width:200px; border:14px solid green;"">","null","","","","","","","","","",""
"","image-keyboard-response","292","117708","0.0-382.0","3D3VGR7TA11VVD07BF5GBMO5FSPR38","A5CIHEPULDFUF","3HUR21WDDUBEMSLDIXZW1FAIHW8YX3","","152.70000004768372","img/food3.png","75","154.5","2","1","","2","1","1,0.5,0,1,0.5,0,0.5,0,1","0,1,0.5,0,1,0.5,1,0.5,0","3",""
"","html-keyboard-response","293","118011","0.0-383.0","3D3VGR7TA11VVD07BF5GBMO5FSPR38","A5CIHEPULDFUF","3HUR21WDDUBEMSLDIXZW1FAIHW8YX3","","null","<img src=""img/food3.png"" style=""width:200px; border:14px solid green;"">","null","","","","","","","","","",""
"","image-keyboard-response","294","118135","0.0-384.0","3D3VGR7TA11VVD07BF5GBMO5FSPR38","A5CIHEPULDFUF","3HUR21WDDUBEMSLDIXZW1FAIHW8YX3","","121.79999995231628","img/food3.png","74","123.60000014305115","1","0","","2","1","1,0.5,0,1,0.5,0,0.5,0,1","0,1,0.5,0,1,0.5,1,0.5,0","3",""
"","html-keyboard-response","295","118438","0.0-385.0","3D3VGR7TA11VVD07BF5GBMO5FSPR38","A5CIHEPULDFUF","3HUR21WDDUBEMSLDIXZW1FAIHW8YX3","","null","<img src=""img/food3.png"" style=""width:200px;border:14px solid red;"">","null","","","","","","","","","",""
"","image-keyboard-response","296","118633","0.0-386.0","3D3VGR7TA11VVD07BF5GBMO5FSPR38","A5CIHEPULDFUF","3HUR21WDDUBEMSLDIXZW1FAIHW8YX3","","192.19999980926514","img/food3.png","75","194.09999990463257","2","1","","2","1","1,0.5,0,1,0.5,0,0.5,0,1","0,1,0.5,0,1,0.5,1,0.5,0","3",""
"","html-keyboard-response","297","118936","0.0-387.0","3D3VGR7TA11VVD07BF5GBMO5FSPR38","A5CIHEPULDFUF","3HUR21WDDUBEMSLDIXZW1FAIHW8YX3","","null","<img src=""img/food3.png"" style=""width:200px; border:14px solid green;"">","null","","","","","","","","","",""
"","image-keyboard-response","298","119157","0.0-388.0","3D3VGR7TA11VVD07BF5GBMO5FSPR38","A5CIHEPULDFUF","3HUR21WDDUBEMSLDIXZW1FAIHW8YX3","","218.90000009536743","img/food1.png","75","220.80000019073486","2","0","","3","1","1,0.5,0,1,0.5,0,0.5,0,1","0,1,0.5,0,1,0.5,1,0.5,0","3",""
"","html-keyboard-response","299","119462","0.0-389.0","3D3VGR7TA11VVD07BF5GBMO5FSPR38","A5CIHEPULDFUF","3HUR21WDDUBEMSLDIXZW1FAIHW8YX3","","null","<img src=""img/food1.png"" style=""width:200px;border:14px solid red;"">","null","","","","","","","","","",""
"","image-keyboard-response","300","119637","0.0-390.0","3D3VGR7TA11VVD07BF5GBMO5FSPR38","A5CIHEPULDFUF","3HUR21WDDUBEMSLDIXZW1FAIHW8YX3","","173","img/food1.png","75","174.70000004768372","2","0","","3","1","1,0.5,0,1,0.5,0,0.5,0,1","0,1,0.5,0,1,0.5,1,0.5,0","3",""
"","html-keyboard-response","301","119945","0.0-391.0","3D3VGR7TA11VVD07BF5GBMO5FSPR38","A5CIHEPULDFUF","3HUR21WDDUBEMSLDIXZW1FAIHW8YX3","","null","<img src=""img/food1.png"" style=""width:200px;border:14px solid red;"">","null","","","","","","","","","",""
"","image-keyboard-response","302","119954","0.0-392.0","3D3VGR7TA11VVD07BF5GBMO5FSPR38","A5CIHEPULDFUF","3HUR21WDDUBEMSLDIXZW1FAIHW8YX3","","2.5999999046325684","img/food1.png","74","7.299999952316284","1","1","","3","1","1,0.5,0,1,0.5,0,0.5,0,1","0,1,0.5,0,1,0.5,1,0.5,0","3",""
"","html-keyboard-response","303","120258","0.0-393.0","3D3VGR7TA11VVD07BF5GBMO5FSPR38","A5CIHEPULDFUF","3HUR21WDDUBEMSLDIXZW1FAIHW8YX3","","null","<img src=""img/food1.png"" style=""width:200px; border:14px solid green;"">","null","","","","","","","","","",""
"","image-keyboard-response","304","120417","0.0-394.0","3D3VGR7TA11VVD07BF5GBMO5FSPR38","A5CIHEPULDFUF","3HUR21WDDUBEMSLDIXZW1FAIHW8YX3","","155.59999990463257","img/food1.png","75","159.30000019073486","2","1","","3","1","1,0.5,0,1,0.5,0,0.5,0,1","0,1,0.5,0,1,0.5,1,0.5,0","3",""
"","html-keyboard-response","305","120727","0.0-395.0","3D3VGR7TA11VVD07BF5GBMO5FSPR38","A5CIHEPULDFUF","3HUR21WDDUBEMSLDIXZW1FAIHW8YX3","","null","<img src=""img/food1.png"" style=""width:200px; border:14px solid green;"">","null","","","","","","","","","",""
"","image-keyboard-response","306","120898","0.0-396.0","3D3VGR7TA11VVD07BF5GBMO5FSPR38","A5CIHEPULDFUF","3HUR21WDDUBEMSLDIXZW1FAIHW8YX3","","168.70000004768372","img/food3.png","74","170.59999990463257","1","0","","2","1","1,0.5,0,1,0.5,0,0.5,0,1","0,1,0.5,0,1,0.5,1,0.5,0","3",""
"","html-keyboard-response","307","121202","0.0-397.0","3D3VGR7TA11VVD07BF5GBMO5FSPR38","A5CIHEPULDFUF","3HUR21WDDUBEMSLDIXZW1FAIHW8YX3","","null","<img src=""img/food3.png"" style=""width:200px;border:14px solid red;"">","null","","","","","","","","","",""
"","image-keyboard-response","308","121210","0.0-398.0","3D3VGR7TA11VVD07BF5GBMO5FSPR38","A5CIHEPULDFUF","3HUR21WDDUBEMSLDIXZW1FAIHW8YX3","","5.599999904632568","img/food1.png","76","7.400000095367432","3","0","","3","1","1,0.5,0,1,0.5,0,0.5,0,1","0,1,0.5,0,1,0.5,1,0.5,0","3",""
"","html-keyboard-response","309","121515","0.0-399.0","3D3VGR7TA11VVD07BF5GBMO5FSPR38","A5CIHEPULDFUF","3HUR21WDDUBEMSLDIXZW1FAIHW8YX3","","null","<img src=""img/food1.png"" style=""width:200px;border:14px solid red;"">","null","","","","","","","","","",""
"","image-keyboard-response","310","121729","0.0-400.0","3D3VGR7TA11VVD07BF5GBMO5FSPR38","A5CIHEPULDFUF","3HUR21WDDUBEMSLDIXZW1FAIHW8YX3","","211.5","img/food5.png","76","213.09999990463257","3","0","","1","1","1,0.5,0,1,0.5,0,0.5,0,1","0,1,0.5,0,1,0.5,1,0.5,0","3",""
"","html-keyboard-response","311","122031","0.0-401.0","3D3VGR7TA11VVD07BF5GBMO5FSPR38","A5CIHEPULDFUF","3HUR21WDDUBEMSLDIXZW1FAIHW8YX3","","null","<img src=""img/food5.png"" style=""width:200px;border:14px solid red;"">","null","","","","","","","","","",""
"","image-keyboard-response","312","122232","0.0-402.0","3D3VGR7TA11VVD07BF5GBMO5FSPR38","A5CIHEPULDFUF","3HUR21WDDUBEMSLDIXZW1FAIHW8YX3","","198.40000009536743","img/food3.png","75","200.29999995231628","2","1","","2","1","1,0.5,0,1,0.5,0,0.5,0,1","0,1,0.5,0,1,0.5,1,0.5,0","3",""
"","html-keyboard-response","313","122535","0.0-403.0","3D3VGR7TA11VVD07BF5GBMO5FSPR38","A5CIHEPULDFUF","3HUR21WDDUBEMSLDIXZW1FAIHW8YX3","","null","<img src=""img/food3.png"" style=""width:200px; border:14px solid green;"">","null","","","","","","","","","",""
"","image-keyboard-response","314","122709","0.0-404.0","3D3VGR7TA11VVD07BF5GBMO5FSPR38","A5CIHEPULDFUF","3HUR21WDDUBEMSLDIXZW1FAIHW8YX3","","169.70000004768372","img/food1.png","76","173.5","3","0","","3","1","1,0.5,0,1,0.5,0,0.5,0,1","0,1,0.5,0,1,0.5,1,0.5,0","3",""
"","html-keyboard-response","315","123015","0.0-405.0","3D3VGR7TA11VVD07BF5GBMO5FSPR38","A5CIHEPULDFUF","3HUR21WDDUBEMSLDIXZW1FAIHW8YX3","","null","<img src=""img/food1.png"" style=""width:200px;border:14px solid red;"">","null","","","","","","","","","",""
"","image-keyboard-response","316","123206","0.0-406.0","3D3VGR7TA11VVD07BF5GBMO5FSPR38","A5CIHEPULDFUF","3HUR21WDDUBEMSLDIXZW1FAIHW8YX3","","182.90000009536743","img/food3.png","76","188.69999980926514","3","1","","2","1","1,0.5,0,1,0.5,0,0.5,0,1","0,1,0.5,0,1,0.5,1,0.5,0","3",""
"","html-keyboard-response","317","123509","0.0-407.0","3D3VGR7TA11VVD07BF5GBMO5FSPR38","A5CIHEPULDFUF","3HUR21WDDUBEMSLDIXZW1FAIHW8YX3","","null","<img src=""img/food3.png"" style=""width:200px; border:14px solid green;"">","null","","","","","","","","","",""
"","image-keyboard-response","318","123661","0.0-408.0","3D3VGR7TA11VVD07BF5GBMO5FSPR38","A5CIHEPULDFUF","3HUR21WDDUBEMSLDIXZW1FAIHW8YX3","","147.79999995231628","img/food1.png","75","149.90000009536743","2","1","","3","1","1,0.5,0,1,0.5,0,0.5,0,1","0,1,0.5,0,1,0.5,1,0.5,0","3",""
"","html-keyboard-response","319","123965","0.0-409.0","3D3VGR7TA11VVD07BF5GBMO5FSPR38","A5CIHEPULDFUF","3HUR21WDDUBEMSLDIXZW1FAIHW8YX3","","null","<img src=""img/food1.png"" style=""width:200px; border:14px solid green;"">","null","","","","","","","","","",""
"","image-keyboard-response","320","123967","0.0-410.0","3D3VGR7TA11VVD07BF5GBMO5FSPR38","A5CIHEPULDFUF","3HUR21WDDUBEMSLDIXZW1FAIHW8YX3","","0.40000009536743164","img/food3.png","75","2","2","1","","2","1","1,0.5,0,1,0.5,0,0.5,0,1","0,1,0.5,0,1,0.5,1,0.5,0","3",""
"","html-keyboard-response","321","124270","0.0-411.0","3D3VGR7TA11VVD07BF5GBMO5FSPR38","A5CIHEPULDFUF","3HUR21WDDUBEMSLDIXZW1FAIHW8YX3","","null","<img src=""img/food3.png"" style=""width:200px; border:14px solid green;"">","null","","","","","","","","","",""
"","image-keyboard-response","322","124462","0.0-412.0","3D3VGR7TA11VVD07BF5GBMO5FSPR38","A5CIHEPULDFUF","3HUR21WDDUBEMSLDIXZW1FAIHW8YX3","","188.59999990463257","img/food1.png","75","190.90000009536743","2","0","","3","1","1,0.5,0,1,0.5,0,0.5,0,1","0,1,0.5,0,1,0.5,1,0.5,0","3",""
"","html-keyboard-response","323","124765","0.0-413.0","3D3VGR7TA11VVD07BF5GBMO5FSPR38","A5CIHEPULDFUF","3HUR21WDDUBEMSLDIXZW1FAIHW8YX3","","null","<img src=""img/food1.png"" style=""width:200px;border:14px solid red;"">","null","","","","","","","","","",""
"","image-keyboard-response","324","124994","0.0-414.0","3D3VGR7TA11VVD07BF5GBMO5FSPR38","A5CIHEPULDFUF","3HUR21WDDUBEMSLDIXZW1FAIHW8YX3","","225.70000004768372","img/food5.png","75","227.79999995231628","2","1","","1","1","1,0.5,0,1,0.5,0,0.5,0,1","0,1,0.5,0,1,0.5,1,0.5,0","3",""
"","html-keyboard-response","325","125298","0.0-415.0","3D3VGR7TA11VVD07BF5GBMO5FSPR38","A5CIHEPULDFUF","3HUR21WDDUBEMSLDIXZW1FAIHW8YX3","","null","<img src=""img/food5.png"" style=""width:200px; border:14px solid green;"">","null","","","","","","","","","",""
"","image-keyboard-response","326","125477","0.0-416.0","3D3VGR7TA11VVD07BF5GBMO5FSPR38","A5CIHEPULDFUF","3HUR21WDDUBEMSLDIXZW1FAIHW8YX3","","176.80000019073486","img/food1.png","74","178.80000019073486","1","1","","3","1","1,0.5,0,1,0.5,0,0.5,0,1","0,1,0.5,0,1,0.5,1,0.5,0","3",""
"","html-keyboard-response","327","125786","0.0-417.0","3D3VGR7TA11VVD07BF5GBMO5FSPR38","A5CIHEPULDFUF","3HUR21WDDUBEMSLDIXZW1FAIHW8YX3","","null","<img src=""img/food1.png"" style=""width:200px; border:14px solid green;"">","null","","","","","","","","","",""
"","image-keyboard-response","328","125966","0.0-418.0","3D3VGR7TA11VVD07BF5GBMO5FSPR38","A5CIHEPULDFUF","3HUR21WDDUBEMSLDIXZW1FAIHW8YX3","","177.70000004768372","img/food5.png","75","179.60000014305115","2","1","","1","1","1,0.5,0,1,0.5,0,0.5,0,1","0,1,0.5,0,1,0.5,1,0.5,0","3",""
"","html-keyboard-response","329","126269","0.0-419.0","3D3VGR7TA11VVD07BF5GBMO5FSPR38","A5CIHEPULDFUF","3HUR21WDDUBEMSLDIXZW1FAIHW8YX3","","null","<img src=""img/food5.png"" style=""width:200px; border:14px solid green;"">","null","","","","","","","","","",""
"","image-keyboard-response","330","126431","0.0-420.0","3D3VGR7TA11VVD07BF5GBMO5FSPR38","A5CIHEPULDFUF","3HUR21WDDUBEMSLDIXZW1FAIHW8YX3","","160.20000004768372","img/food1.png","74","162","1","1","","3","1","1,0.5,0,1,0.5,0,0.5,0,1","0,1,0.5,0,1,0.5,1,0.5,0","3",""
"","html-keyboard-response","331","126735","0.0-421.0","3D3VGR7TA11VVD07BF5GBMO5FSPR38","A5CIHEPULDFUF","3HUR21WDDUBEMSLDIXZW1FAIHW8YX3","","null","<img src=""img/food1.png"" style=""width:200px; border:14px solid green;"">","null","","","","","","","","","",""
"","image-keyboard-response","332","126928","0.0-422.0","3D3VGR7TA11VVD07BF5GBMO5FSPR38","A5CIHEPULDFUF","3HUR21WDDUBEMSLDIXZW1FAIHW8YX3","","190.5","img/food5.png","75","192.5","2","1","","1","1","1,0.5,0,1,0.5,0,0.5,0,1","0,1,0.5,0,1,0.5,1,0.5,0","3",""
"","html-keyboard-response","333","127231","0.0-423.0","3D3VGR7TA11VVD07BF5GBMO5FSPR38","A5CIHEPULDFUF","3HUR21WDDUBEMSLDIXZW1FAIHW8YX3","","null","<img src=""img/food5.png"" style=""width:200px; border:14px solid green;"">","null","","","","","","","","","",""
"","image-keyboard-response","334","127421","0.0-424.0","3D3VGR7TA11VVD07BF5GBMO5FSPR38","A5CIHEPULDFUF","3HUR21WDDUBEMSLDIXZW1FAIHW8YX3","","187.39999985694885","img/food3.png","75","189.29999995231628","2","1","","2","1","1,0.5,0,1,0.5,0,0.5,0,1","0,1,0.5,0,1,0.5,1,0.5,0","3",""
"","html-keyboard-response","335","127724","0.0-425.0","3D3VGR7TA11VVD07BF5GBMO5FSPR38","A5CIHEPULDFUF","3HUR21WDDUBEMSLDIXZW1FAIHW8YX3","","null","<img src=""img/food3.png"" style=""width:200px; border:14px solid green;"">","null","","","","","","","","","",""
"","image-keyboard-response","336","127859","0.0-426.0","3D3VGR7TA11VVD07BF5GBMO5FSPR38","A5CIHEPULDFUF","3HUR21WDDUBEMSLDIXZW1FAIHW8YX3","","133.5","img/food3.png","74","135.5","1","0","","2","1","1,0.5,0,1,0.5,0,0.5,0,1","0,1,0.5,0,1,0.5,1,0.5,0","3",""
"","html-keyboard-response","337","128163","0.0-427.0","3D3VGR7TA11VVD07BF5GBMO5FSPR38","A5CIHEPULDFUF","3HUR21WDDUBEMSLDIXZW1FAIHW8YX3","","null","<img src=""img/food3.png"" style=""width:200px;border:14px solid red;"">","null","","","","","","","","","",""
"","image-keyboard-response","338","128391","0.0-428.0","3D3VGR7TA11VVD07BF5GBMO5FSPR38","A5CIHEPULDFUF","3HUR21WDDUBEMSLDIXZW1FAIHW8YX3","","225.70000004768372","img/food3.png","75","227.70000004768372","2","1","","2","1","1,0.5,0,1,0.5,0,0.5,0,1","0,1,0.5,0,1,0.5,1,0.5,0","3",""
"","html-keyboard-response","339","128694","0.0-429.0","3D3VGR7TA11VVD07BF5GBMO5FSPR38","A5CIHEPULDFUF","3HUR21WDDUBEMSLDIXZW1FAIHW8YX3","","null","<img src=""img/food3.png"" style=""width:200px; border:14px solid green;"">","null","","","","","","","","","",""
"","image-keyboard-response","340","128844","0.0-430.0","3D3VGR7TA11VVD07BF5GBMO5FSPR38","A5CIHEPULDFUF","3HUR21WDDUBEMSLDIXZW1FAIHW8YX3","","146.79999995231628","img/food5.png","74","148.79999995231628","1","0","","1","1","1,0.5,0,1,0.5,0,0.5,0,1","0,1,0.5,0,1,0.5,1,0.5,0","3",""
"","html-keyboard-response","341","129149","0.0-431.0","3D3VGR7TA11VVD07BF5GBMO5FSPR38","A5CIHEPULDFUF","3HUR21WDDUBEMSLDIXZW1FAIHW8YX3","","null","<img src=""img/food5.png"" style=""width:200px;border:14px solid red;"">","null","","","","","","","","","",""
"","image-keyboard-response","342","129346","0.0-432.0","3D3VGR7TA11VVD07BF5GBMO5FSPR38","A5CIHEPULDFUF","3HUR21WDDUBEMSLDIXZW1FAIHW8YX3","","189","img/food3.png","75","194.70000004768372","2","1","","2","1","1,0.5,0,1,0.5,0,0.5,0,1","0,1,0.5,0,1,0.5,1,0.5,0","3",""
"","html-keyboard-response","343","129649","0.0-433.0","3D3VGR7TA11VVD07BF5GBMO5FSPR38","A5CIHEPULDFUF","3HUR21WDDUBEMSLDIXZW1FAIHW8YX3","","null","<img src=""img/food3.png"" style=""width:200px; border:14px solid green;"">","null","","","","","","","","","",""
"","image-keyboard-response","344","129825","0.0-434.0","3D3VGR7TA11VVD07BF5GBMO5FSPR38","A5CIHEPULDFUF","3HUR21WDDUBEMSLDIXZW1FAIHW8YX3","","173.09999990463257","img/food5.png","74","175","1","0","","1","1","1,0.5,0,1,0.5,0,0.5,0,1","0,1,0.5,0,1,0.5,1,0.5,0","3",""
"","html-keyboard-response","345","130127","0.0-435.0","3D3VGR7TA11VVD07BF5GBMO5FSPR38","A5CIHEPULDFUF","3HUR21WDDUBEMSLDIXZW1FAIHW8YX3","","null","<img src=""img/food5.png"" style=""width:200px;border:14px solid red;"">","null","","","","","","","","","",""
"","image-keyboard-response","346","130290","0.0-436.0","3D3VGR7TA11VVD07BF5GBMO5FSPR38","A5CIHEPULDFUF","3HUR21WDDUBEMSLDIXZW1FAIHW8YX3","","160.5","img/food1.png","75","162.79999995231628","2","1","","3","1","1,0.5,0,1,0.5,0,0.5,0,1","0,1,0.5,0,1,0.5,1,0.5,0","3",""
"","html-keyboard-response","347","130594","0.0-437.0","3D3VGR7TA11VVD07BF5GBMO5FSPR38","A5CIHEPULDFUF","3HUR21WDDUBEMSLDIXZW1FAIHW8YX3","","null","<img src=""img/food1.png"" style=""width:200px; border:14px solid green;"">","null","","","","","","","","","",""
"","image-keyboard-response","348","130760","0.0-438.0","3D3VGR7TA11VVD07BF5GBMO5FSPR38","A5CIHEPULDFUF","3HUR21WDDUBEMSLDIXZW1FAIHW8YX3","","163.80000019073486","img/food5.png","74","165.90000009536743","1","0","","1","1","1,0.5,0,1,0.5,0,0.5,0,1","0,1,0.5,0,1,0.5,1,0.5,0","3",""
"","html-keyboard-response","349","131065","0.0-439.0","3D3VGR7TA11VVD07BF5GBMO5FSPR38","A5CIHEPULDFUF","3HUR21WDDUBEMSLDIXZW1FAIHW8YX3","","null","<img src=""img/food5.png"" style=""width:200px;border:14px solid red;"">","null","","","","","","","","","",""
"","image-keyboard-response","350","131259","0.0-440.0","3D3VGR7TA11VVD07BF5GBMO5FSPR38","A5CIHEPULDFUF","3HUR21WDDUBEMSLDIXZW1FAIHW8YX3","","192.09999990463257","img/food5.png","75","193.70000004768372","2","1","","1","1","1,0.5,0,1,0.5,0,0.5,0,1","0,1,0.5,0,1,0.5,1,0.5,0","3",""
"","html-keyboard-response","351","131563","0.0-441.0","3D3VGR7TA11VVD07BF5GBMO5FSPR38","A5CIHEPULDFUF","3HUR21WDDUBEMSLDIXZW1FAIHW8YX3","","null","<img src=""img/food5.png"" style=""width:200px; border:14px solid green;"">","null","","","","","","","","","",""
"","image-keyboard-response","352","131736","0.0-442.0","3D3VGR7TA11VVD07BF5GBMO5FSPR38","A5CIHEPULDFUF","3HUR21WDDUBEMSLDIXZW1FAIHW8YX3","","170.60000014305115","img/food1.png","75","172.30000019073486","2","0","","3","1","1,0.5,0,1,0.5,0,0.5,0,1","0,1,0.5,0,1,0.5,1,0.5,0","3",""
"","html-keyboard-response","353","132039","0.0-443.0","3D3VGR7TA11VVD07BF5GBMO5FSPR38","A5CIHEPULDFUF","3HUR21WDDUBEMSLDIXZW1FAIHW8YX3","","null","<img src=""img/food1.png"" style=""width:200px;border:14px solid red;"">","null","","","","","","","","","",""
"","image-keyboard-response","354","132184","0.0-444.0","3D3VGR7TA11VVD07BF5GBMO5FSPR38","A5CIHEPULDFUF","3HUR21WDDUBEMSLDIXZW1FAIHW8YX3","","142.70000004768372","img/food3.png","74","144.29999995231628","1","0","","2","1","1,0.5,0,1,0.5,0,0.5,0,1","0,1,0.5,0,1,0.5,1,0.5,0","3",""
"","html-keyboard-response","355","132487","0.0-445.0","3D3VGR7TA11VVD07BF5GBMO5FSPR38","A5CIHEPULDFUF","3HUR21WDDUBEMSLDIXZW1FAIHW8YX3","","null","<img src=""img/food3.png"" style=""width:200px;border:14px solid red;"">","null","","","","","","","","","",""
"","image-keyboard-response","356","132655","0.0-446.0","3D3VGR7TA11VVD07BF5GBMO5FSPR38","A5CIHEPULDFUF","3HUR21WDDUBEMSLDIXZW1FAIHW8YX3","","165.20000004768372","img/food3.png","75","167.10000014305115","2","1","","2","1","1,0.5,0,1,0.5,0,0.5,0,1","0,1,0.5,0,1,0.5,1,0.5,0","3",""
"","html-keyboard-response","357","132958","0.0-447.0","3D3VGR7TA11VVD07BF5GBMO5FSPR38","A5CIHEPULDFUF","3HUR21WDDUBEMSLDIXZW1FAIHW8YX3","","null","<img src=""img/food3.png"" style=""width:200px; border:14px solid green;"">","null","","","","","","","","","",""
"","image-keyboard-response","358","133446","0.0-448.0","3D3VGR7TA11VVD07BF5GBMO5FSPR38","A5CIHEPULDFUF","3HUR21WDDUBEMSLDIXZW1FAIHW8YX3","","485.2000000476837","img/food3.png","76","487.2000000476837","3","0","","2","1","1,0.5,0,1,0.5,0,0.5,0,1","0,1,0.5,0,1,0.5,1,0.5,0","3",""
"","html-keyboard-response","359","133749","0.0-449.0","3D3VGR7TA11VVD07BF5GBMO5FSPR38","A5CIHEPULDFUF","3HUR21WDDUBEMSLDIXZW1FAIHW8YX3","","null","<img src=""img/food3.png"" style=""width:200px;border:14px solid red;"">","null","","","","","","","","","",""
"","image-keyboard-response","360","133895","0.0-450.0","3D3VGR7TA11VVD07BF5GBMO5FSPR38","A5CIHEPULDFUF","3HUR21WDDUBEMSLDIXZW1FAIHW8YX3","","143.20000004768372","img/food1.png","76","145","3","0","","3","1","1,0.5,0,1,0.5,0,0.5,0,1","0,1,0.5,0,1,0.5,1,0.5,0","3",""
"","html-keyboard-response","361","134198","0.0-451.0","3D3VGR7TA11VVD07BF5GBMO5FSPR38","A5CIHEPULDFUF","3HUR21WDDUBEMSLDIXZW1FAIHW8YX3","","null","<img src=""img/food1.png"" style=""width:200px;border:14px solid red;"">","null","","","","","","","","","",""
"","image-keyboard-response","362","134315","0.0-452.0","3D3VGR7TA11VVD07BF5GBMO5FSPR38","A5CIHEPULDFUF","3HUR21WDDUBEMSLDIXZW1FAIHW8YX3","","114.40000009536743","img/food3.png","74","116.09999990463257","1","0","","2","1","1,0.5,0,1,0.5,0,0.5,0,1","0,1,0.5,0,1,0.5,1,0.5,0","3",""
"","html-keyboard-response","363","134617","0.0-453.0","3D3VGR7TA11VVD07BF5GBMO5FSPR38","A5CIHEPULDFUF","3HUR21WDDUBEMSLDIXZW1FAIHW8YX3","","null","<img src=""img/food3.png"" style=""width:200px;border:14px solid red;"">","null","","","","","","","","","",""
"","html-keyboard-response","364","136713","0.0-454.0","3D3VGR7TA11VVD07BF5GBMO5FSPR38","A5CIHEPULDFUF","3HUR21WDDUBEMSLDIXZW1FAIHW8YX3","","","","","","","","","","","","","",""
"","instructions","365","137907","0.0-455.0","3D3VGR7TA11VVD07BF5GBMO5FSPR38","A5CIHEPULDFUF","3HUR21WDDUBEMSLDIXZW1FAIHW8YX3","[{""page_index"":0,""viewing_time"":1191.7000000476837}]","1192.2000000476837","","","","","","","","","","","",""
"","survey-text","366","141966","0.0-456.0","3D3VGR7TA11VVD07BF5GBMO5FSPR38","A5CIHEPULDFUF","3HUR21WDDUBEMSLDIXZW1FAIHW8YX3","","4047.9000000953674","","","","","","","","","","","","{""Q0"":""A5CIHEPULDFUF""}"
