"success","trial_type","trial_index","time_elapsed","internal_node_id","assignmentID","mturkID","hitID","view_history","rt","stimulus","key_press","reactionTime","chosenAction","reward","responses"
"true","fullscreen","0","2697","0.0-0.0","369J354OFEW336EBE692JLMIJWAG65","A5P12YJP805RG","3SBNLSTU6UR0TCQ1NJ03LFGS7YQZDZ","","","","","","","",""
"","instructions","1","18560","0.0-1.0","369J354OFEW336EBE692JLMIJWAG65","A5P12YJP805RG","3SBNLSTU6UR0TCQ1NJ03LFGS7YQZDZ","[{""page_index"":0,""viewing_time"":4093.0999999046326},{""page_index"":1,""viewing_time"":1472.1000001430511},{""page_index"":2,""viewing_time"":407.89999985694885},{""page_index"":3,""viewing_time"":1472},{""page_index"":4,""viewing_time"":1136},{""page_index"":5,""viewing_time"":5768.200000047684},{""page_index"":6,""viewing_time"":1511.7000000476837}]","15861.5","","","","","",""
"","image-keyboard-response","2","19941","0.0-2.0","369J354OFEW336EBE692JLMIJWAG65","A5P12YJP805RG","3SBNLSTU6UR0TCQ1NJ03LFGS7YQZDZ","","1380.0999999046326","img/food1.png","74","1380.7999999523163","74","0",""
"","html-keyboard-response","3","20246","0.0-3.0","369J354OFEW336EBE692JLMIJWAG65","A5P12YJP805RG","3SBNLSTU6UR0TCQ1NJ03LFGS7YQZDZ","","null","<img src=""img/food1.png"" style=""width:200px;border:14px solid red;"">","null","","","",""
"","image-keyboard-response","4","22669","0.0-4.0","369J354OFEW336EBE692JLMIJWAG65","A5P12YJP805RG","3SBNLSTU6UR0TCQ1NJ03LFGS7YQZDZ","","2422.600000143051","img/food3.png","74","2423.2000000476837","74","0",""
"","html-keyboard-response","5","22981","0.0-5.0","369J354OFEW336EBE692JLMIJWAG65","A5P12YJP805RG","3SBNLSTU6UR0TCQ1NJ03LFGS7YQZDZ","","null","<img src=""img/food3.png"" style=""width:200px;border:14px solid red;"">","null","","","",""
"","image-keyboard-response","6","23325","0.0-6.0","369J354OFEW336EBE692JLMIJWAG65","A5P12YJP805RG","3SBNLSTU6UR0TCQ1NJ03LFGS7YQZDZ","","343.7000000476837","img/food3.png","74","344.2000000476837","74","1",""
"","html-keyboard-response","7","23636","0.0-7.0","369J354OFEW336EBE692JLMIJWAG65","A5P12YJP805RG","3SBNLSTU6UR0TCQ1NJ03LFGS7YQZDZ","","null","<img src=""img/food3.png"" style=""width:200px; border:14px solid green;"">","null","","","",""
"","image-keyboard-response","8","24365","0.0-8.0","369J354OFEW336EBE692JLMIJWAG65","A5P12YJP805RG","3SBNLSTU6UR0TCQ1NJ03LFGS7YQZDZ","","728.2999999523163","img/food2.png","74","729","74","1",""
"","html-keyboard-response","9","24673","0.0-9.0","369J354OFEW336EBE692JLMIJWAG65","A5P12YJP805RG","3SBNLSTU6UR0TCQ1NJ03LFGS7YQZDZ","","null","<img src=""img/food2.png"" style=""width:200px; border:14px solid green;"">","null","","","",""
"","image-keyboard-response","10","25253","0.0-10.0","369J354OFEW336EBE692JLMIJWAG65","A5P12YJP805RG","3SBNLSTU6UR0TCQ1NJ03LFGS7YQZDZ","","579","img/food2.png","74","579.5999999046326","74","0",""
"","html-keyboard-response","11","25557","0.0-11.0","369J354OFEW336EBE692JLMIJWAG65","A5P12YJP805RG","3SBNLSTU6UR0TCQ1NJ03LFGS7YQZDZ","","null","<img src=""img/food2.png"" style=""width:200px;border:14px solid red;"">","null","","","",""
"","image-keyboard-response","12","28150","0.0-12.0","369J354OFEW336EBE692JLMIJWAG65","A5P12YJP805RG","3SBNLSTU6UR0TCQ1NJ03LFGS7YQZDZ","","2591.7000000476837","img/food1.png","75","2592.2999999523163","75","0",""
"","html-keyboard-response","13","28461","0.0-13.0","369J354OFEW336EBE692JLMIJWAG65","A5P12YJP805RG","3SBNLSTU6UR0TCQ1NJ03LFGS7YQZDZ","","null","<img src=""img/food1.png"" style=""width:200px;border:14px solid red;"">","null","","","",""
"","image-keyboard-response","14","30205","0.0-14.0","369J354OFEW336EBE692JLMIJWAG65","A5P12YJP805RG","3SBNLSTU6UR0TCQ1NJ03LFGS7YQZDZ","","1744","img/food2.png","76","1744.5999999046326","76","0",""
"","html-keyboard-response","15","30507","0.0-15.0","369J354OFEW336EBE692JLMIJWAG65","A5P12YJP805RG","3SBNLSTU6UR0TCQ1NJ03LFGS7YQZDZ","","null","<img src=""img/food2.png"" style=""width:200px;border:14px solid red;"">","null","","","",""
"","image-keyboard-response","16","31542","0.0-16.0","369J354OFEW336EBE692JLMIJWAG65","A5P12YJP805RG","3SBNLSTU6UR0TCQ1NJ03LFGS7YQZDZ","","1034","img/food3.png","76","1034.6999998092651","76","1",""
"","html-keyboard-response","17","31843","0.0-17.0","369J354OFEW336EBE692JLMIJWAG65","A5P12YJP805RG","3SBNLSTU6UR0TCQ1NJ03LFGS7YQZDZ","","null","<img src=""img/food3.png"" style=""width:200px; border:14px solid green;"">","null","","","",""
"","image-keyboard-response","18","33038","0.0-18.0","369J354OFEW336EBE692JLMIJWAG65","A5P12YJP805RG","3SBNLSTU6UR0TCQ1NJ03LFGS7YQZDZ","","1194.5999999046326","img/food1.png","75","1195.2000000476837","75","0",""
"","html-keyboard-response","19","33339","0.0-19.0","369J354OFEW336EBE692JLMIJWAG65","A5P12YJP805RG","3SBNLSTU6UR0TCQ1NJ03LFGS7YQZDZ","","null","<img src=""img/food1.png"" style=""width:200px;border:14px solid red;"">","null","","","",""
"","image-keyboard-response","20","34038","0.0-20.0","369J354OFEW336EBE692JLMIJWAG65","A5P12YJP805RG","3SBNLSTU6UR0TCQ1NJ03LFGS7YQZDZ","","698.6000001430511","img/food3.png","76","699.1000001430511","76","1",""
"","html-keyboard-response","21","34339","0.0-21.0","369J354OFEW336EBE692JLMIJWAG65","A5P12YJP805RG","3SBNLSTU6UR0TCQ1NJ03LFGS7YQZDZ","","null","<img src=""img/food3.png"" style=""width:200px; border:14px solid green;"">","null","","","",""
"","image-keyboard-response","22","35446","0.0-22.0","369J354OFEW336EBE692JLMIJWAG65","A5P12YJP805RG","3SBNLSTU6UR0TCQ1NJ03LFGS7YQZDZ","","1106","img/food2.png","75","1106.5","75","1",""
"","html-keyboard-response","23","35748","0.0-23.0","369J354OFEW336EBE692JLMIJWAG65","A5P12YJP805RG","3SBNLSTU6UR0TCQ1NJ03LFGS7YQZDZ","","null","<img src=""img/food2.png"" style=""width:200px; border:14px solid green;"">","null","","","",""
"","image-keyboard-response","24","38551","0.0-24.0","369J354OFEW336EBE692JLMIJWAG65","A5P12YJP805RG","3SBNLSTU6UR0TCQ1NJ03LFGS7YQZDZ","","2802.2999999523163","img/food1.png","74","2803.0999999046326","74","0",""
"","html-keyboard-response","25","38852","0.0-25.0","369J354OFEW336EBE692JLMIJWAG65","A5P12YJP805RG","3SBNLSTU6UR0TCQ1NJ03LFGS7YQZDZ","","null","<img src=""img/food1.png"" style=""width:200px;border:14px solid red;"">","null","","","",""
"","image-keyboard-response","26","39695","0.0-26.0","369J354OFEW336EBE692JLMIJWAG65","A5P12YJP805RG","3SBNLSTU6UR0TCQ1NJ03LFGS7YQZDZ","","841.7999999523163","img/food1.png","76","842.2000000476837","76","0",""
"","html-keyboard-response","27","39997","0.0-27.0","369J354OFEW336EBE692JLMIJWAG65","A5P12YJP805RG","3SBNLSTU6UR0TCQ1NJ03LFGS7YQZDZ","","null","<img src=""img/food1.png"" style=""width:200px;border:14px solid red;"">","null","","","",""
"","image-keyboard-response","28","40783","0.0-28.0","369J354OFEW336EBE692JLMIJWAG65","A5P12YJP805RG","3SBNLSTU6UR0TCQ1NJ03LFGS7YQZDZ","","785.5","img/food3.png","76","786.1000001430511","76","0",""
"","html-keyboard-response","29","41085","0.0-29.0","369J354OFEW336EBE692JLMIJWAG65","A5P12YJP805RG","3SBNLSTU6UR0TCQ1NJ03LFGS7YQZDZ","","null","<img src=""img/food3.png"" style=""width:200px;border:14px solid red;"">","null","","","",""
"","image-keyboard-response","30","41575","0.0-30.0","369J354OFEW336EBE692JLMIJWAG65","A5P12YJP805RG","3SBNLSTU6UR0TCQ1NJ03LFGS7YQZDZ","","489.09999990463257","img/food3.png","76","489.7000000476837","76","1",""
"","html-keyboard-response","31","41877","0.0-31.0","369J354OFEW336EBE692JLMIJWAG65","A5P12YJP805RG","3SBNLSTU6UR0TCQ1NJ03LFGS7YQZDZ","","null","<img src=""img/food3.png"" style=""width:200px; border:14px solid green;"">","null","","","",""
"","image-keyboard-response","32","43071","0.0-32.0","369J354OFEW336EBE692JLMIJWAG65","A5P12YJP805RG","3SBNLSTU6UR0TCQ1NJ03LFGS7YQZDZ","","1193.7000000476837","img/food2.png","76","1194.4000000953674","76","0",""
"","html-keyboard-response","33","43372","0.0-33.0","369J354OFEW336EBE692JLMIJWAG65","A5P12YJP805RG","3SBNLSTU6UR0TCQ1NJ03LFGS7YQZDZ","","null","<img src=""img/food2.png"" style=""width:200px;border:14px solid red;"">","null","","","",""
"","image-keyboard-response","34","44512","0.0-34.0","369J354OFEW336EBE692JLMIJWAG65","A5P12YJP805RG","3SBNLSTU6UR0TCQ1NJ03LFGS7YQZDZ","","1139","img/food3.png","76","1139.4000000953674","76","1",""
"","html-keyboard-response","35","44813","0.0-35.0","369J354OFEW336EBE692JLMIJWAG65","A5P12YJP805RG","3SBNLSTU6UR0TCQ1NJ03LFGS7YQZDZ","","null","<img src=""img/food3.png"" style=""width:200px; border:14px solid green;"">","null","","","",""
"","image-keyboard-response","36","46208","0.0-36.0","369J354OFEW336EBE692JLMIJWAG65","A5P12YJP805RG","3SBNLSTU6UR0TCQ1NJ03LFGS7YQZDZ","","1393.5999999046326","img/food1.png","75","1394.2000000476837","75","0",""
"","html-keyboard-response","37","46509","0.0-37.0","369J354OFEW336EBE692JLMIJWAG65","A5P12YJP805RG","3SBNLSTU6UR0TCQ1NJ03LFGS7YQZDZ","","null","<img src=""img/food1.png"" style=""width:200px;border:14px solid red;"">","null","","","",""
"","image-keyboard-response","38","47160","0.0-38.0","369J354OFEW336EBE692JLMIJWAG65","A5P12YJP805RG","3SBNLSTU6UR0TCQ1NJ03LFGS7YQZDZ","","650.5","img/food3.png","76","650.8999998569489","76","1",""
"","html-keyboard-response","39","47461","0.0-39.0","369J354OFEW336EBE692JLMIJWAG65","A5P12YJP805RG","3SBNLSTU6UR0TCQ1NJ03LFGS7YQZDZ","","null","<img src=""img/food3.png"" style=""width:200px; border:14px solid green;"">","null","","","",""
"","image-keyboard-response","40","48832","0.0-40.0","369J354OFEW336EBE692JLMIJWAG65","A5P12YJP805RG","3SBNLSTU6UR0TCQ1NJ03LFGS7YQZDZ","","1371","img/food2.png","74","1371.6000001430511","74","0",""
"","html-keyboard-response","41","49133","0.0-41.0","369J354OFEW336EBE692JLMIJWAG65","A5P12YJP805RG","3SBNLSTU6UR0TCQ1NJ03LFGS7YQZDZ","","null","<img src=""img/food2.png"" style=""width:200px;border:14px solid red;"">","null","","","",""
"","image-keyboard-response","42","49840","0.0-42.0","369J354OFEW336EBE692JLMIJWAG65","A5P12YJP805RG","3SBNLSTU6UR0TCQ1NJ03LFGS7YQZDZ","","706.8999998569489","img/food3.png","76","707.4000000953674","76","1",""
"","html-keyboard-response","43","50142","0.0-43.0","369J354OFEW336EBE692JLMIJWAG65","A5P12YJP805RG","3SBNLSTU6UR0TCQ1NJ03LFGS7YQZDZ","","null","<img src=""img/food3.png"" style=""width:200px; border:14px solid green;"">","null","","","",""
"","image-keyboard-response","44","51480","0.0-44.0","369J354OFEW336EBE692JLMIJWAG65","A5P12YJP805RG","3SBNLSTU6UR0TCQ1NJ03LFGS7YQZDZ","","1338.1000001430511","img/food1.png","75","1338.5","75","0",""
"","html-keyboard-response","45","51782","0.0-45.0","369J354OFEW336EBE692JLMIJWAG65","A5P12YJP805RG","3SBNLSTU6UR0TCQ1NJ03LFGS7YQZDZ","","null","<img src=""img/food1.png"" style=""width:200px;border:14px solid red;"">","null","","","",""
"","image-keyboard-response","46","52729","0.0-46.0","369J354OFEW336EBE692JLMIJWAG65","A5P12YJP805RG","3SBNLSTU6UR0TCQ1NJ03LFGS7YQZDZ","","946.2000000476837","img/food2.png","75","946.7999999523163","75","1",""
"","html-keyboard-response","47","53029","0.0-47.0","369J354OFEW336EBE692JLMIJWAG65","A5P12YJP805RG","3SBNLSTU6UR0TCQ1NJ03LFGS7YQZDZ","","null","<img src=""img/food2.png"" style=""width:200px; border:14px solid green;"">","null","","","",""
"","image-keyboard-response","48","53850","0.0-48.0","369J354OFEW336EBE692JLMIJWAG65","A5P12YJP805RG","3SBNLSTU6UR0TCQ1NJ03LFGS7YQZDZ","","819.5","img/food3.png","76","820.1000001430511","76","0",""
"","html-keyboard-response","49","54151","0.0-49.0","369J354OFEW336EBE692JLMIJWAG65","A5P12YJP805RG","3SBNLSTU6UR0TCQ1NJ03LFGS7YQZDZ","","null","<img src=""img/food3.png"" style=""width:200px;border:14px solid red;"">","null","","","",""
"","image-keyboard-response","50","54609","0.0-50.0","369J354OFEW336EBE692JLMIJWAG65","A5P12YJP805RG","3SBNLSTU6UR0TCQ1NJ03LFGS7YQZDZ","","457","img/food3.png","76","458","76","0",""
"","html-keyboard-response","51","54910","0.0-51.0","369J354OFEW336EBE692JLMIJWAG65","A5P12YJP805RG","3SBNLSTU6UR0TCQ1NJ03LFGS7YQZDZ","","null","<img src=""img/food3.png"" style=""width:200px;border:14px solid red;"">","null","","","",""
"","image-keyboard-response","52","56697","0.0-52.0","369J354OFEW336EBE692JLMIJWAG65","A5P12YJP805RG","3SBNLSTU6UR0TCQ1NJ03LFGS7YQZDZ","","1786.2999999523163","img/food2.png","74","1787","74","1",""
"","html-keyboard-response","53","56999","0.0-53.0","369J354OFEW336EBE692JLMIJWAG65","A5P12YJP805RG","3SBNLSTU6UR0TCQ1NJ03LFGS7YQZDZ","","null","<img src=""img/food2.png"" style=""width:200px; border:14px solid green;"">","null","","","",""
"","image-keyboard-response","54","57401","0.0-54.0","369J354OFEW336EBE692JLMIJWAG65","A5P12YJP805RG","3SBNLSTU6UR0TCQ1NJ03LFGS7YQZDZ","","402.2000000476837","img/food2.png","74","402.59999990463257","74","0",""
"","html-keyboard-response","55","57703","0.0-55.0","369J354OFEW336EBE692JLMIJWAG65","A5P12YJP805RG","3SBNLSTU6UR0TCQ1NJ03LFGS7YQZDZ","","null","<img src=""img/food2.png"" style=""width:200px;border:14px solid red;"">","null","","","",""
"","image-keyboard-response","56","57985","0.0-56.0","369J354OFEW336EBE692JLMIJWAG65","A5P12YJP805RG","3SBNLSTU6UR0TCQ1NJ03LFGS7YQZDZ","","281.90000009536743","img/food2.png","74","282.5","74","0",""
"","html-keyboard-response","57","58286","0.0-57.0","369J354OFEW336EBE692JLMIJWAG65","A5P12YJP805RG","3SBNLSTU6UR0TCQ1NJ03LFGS7YQZDZ","","null","<img src=""img/food2.png"" style=""width:200px;border:14px solid red;"">","null","","","",""
"","image-keyboard-response","58","59393","0.0-58.0","369J354OFEW336EBE692JLMIJWAG65","A5P12YJP805RG","3SBNLSTU6UR0TCQ1NJ03LFGS7YQZDZ","","1106.5","img/food3.png","76","1107","76","1",""
"","html-keyboard-response","59","59695","0.0-59.0","369J354OFEW336EBE692JLMIJWAG65","A5P12YJP805RG","3SBNLSTU6UR0TCQ1NJ03LFGS7YQZDZ","","null","<img src=""img/food3.png"" style=""width:200px; border:14px solid green;"">","null","","","",""
"","image-keyboard-response","60","59994","0.0-60.0","369J354OFEW336EBE692JLMIJWAG65","A5P12YJP805RG","3SBNLSTU6UR0TCQ1NJ03LFGS7YQZDZ","","298.09999990463257","img/food3.png","76","298.89999985694885","76","0",""
"","html-keyboard-response","61","60295","0.0-61.0","369J354OFEW336EBE692JLMIJWAG65","A5P12YJP805RG","3SBNLSTU6UR0TCQ1NJ03LFGS7YQZDZ","","null","<img src=""img/food3.png"" style=""width:200px;border:14px solid red;"">","null","","","",""
"","image-keyboard-response","62","61250","0.0-62.0","369J354OFEW336EBE692JLMIJWAG65","A5P12YJP805RG","3SBNLSTU6UR0TCQ1NJ03LFGS7YQZDZ","","954","img/food2.png","75","954.5999999046326","75","1",""
"","html-keyboard-response","63","61551","0.0-63.0","369J354OFEW336EBE692JLMIJWAG65","A5P12YJP805RG","3SBNLSTU6UR0TCQ1NJ03LFGS7YQZDZ","","null","<img src=""img/food2.png"" style=""width:200px; border:14px solid green;"">","null","","","",""
"","image-keyboard-response","64","62410","0.0-64.0","369J354OFEW336EBE692JLMIJWAG65","A5P12YJP805RG","3SBNLSTU6UR0TCQ1NJ03LFGS7YQZDZ","","858.5","img/food3.png","75","859.1999998092651","75","0",""
"","html-keyboard-response","65","62712","0.0-65.0","369J354OFEW336EBE692JLMIJWAG65","A5P12YJP805RG","3SBNLSTU6UR0TCQ1NJ03LFGS7YQZDZ","","null","<img src=""img/food3.png"" style=""width:200px;border:14px solid red;"">","null","","","",""
"","image-keyboard-response","66","63058","0.0-66.0","369J354OFEW336EBE692JLMIJWAG65","A5P12YJP805RG","3SBNLSTU6UR0TCQ1NJ03LFGS7YQZDZ","","345.10000014305115","img/food3.png","75","345.59999990463257","75","0",""
"","html-keyboard-response","67","63359","0.0-67.0","369J354OFEW336EBE692JLMIJWAG65","A5P12YJP805RG","3SBNLSTU6UR0TCQ1NJ03LFGS7YQZDZ","","null","<img src=""img/food3.png"" style=""width:200px;border:14px solid red;"">","null","","","",""
"","image-keyboard-response","68","63634","0.0-68.0","369J354OFEW336EBE692JLMIJWAG65","A5P12YJP805RG","3SBNLSTU6UR0TCQ1NJ03LFGS7YQZDZ","","274","img/food3.png","75","274.60000014305115","75","0",""
"","html-keyboard-response","69","63936","0.0-69.0","369J354OFEW336EBE692JLMIJWAG65","A5P12YJP805RG","3SBNLSTU6UR0TCQ1NJ03LFGS7YQZDZ","","null","<img src=""img/food3.png"" style=""width:200px;border:14px solid red;"">","null","","","",""
"","image-keyboard-response","70","64402","0.0-70.0","369J354OFEW336EBE692JLMIJWAG65","A5P12YJP805RG","3SBNLSTU6UR0TCQ1NJ03LFGS7YQZDZ","","465.7000000476837","img/food3.png","74","466.2999999523163","74","1",""
"","html-keyboard-response","71","64704","0.0-71.0","369J354OFEW336EBE692JLMIJWAG65","A5P12YJP805RG","3SBNLSTU6UR0TCQ1NJ03LFGS7YQZDZ","","null","<img src=""img/food3.png"" style=""width:200px; border:14px solid green;"">","null","","","",""
"","image-keyboard-response","72","66875","0.0-72.0","369J354OFEW336EBE692JLMIJWAG65","A5P12YJP805RG","3SBNLSTU6UR0TCQ1NJ03LFGS7YQZDZ","","2169.9000000953674","img/food1.png","74","2170.2999999523163","74","0",""
"","html-keyboard-response","73","67175","0.0-73.0","369J354OFEW336EBE692JLMIJWAG65","A5P12YJP805RG","3SBNLSTU6UR0TCQ1NJ03LFGS7YQZDZ","","null","<img src=""img/food1.png"" style=""width:200px;border:14px solid red;"">","null","","","",""
"","image-keyboard-response","74","67947","0.0-74.0","369J354OFEW336EBE692JLMIJWAG65","A5P12YJP805RG","3SBNLSTU6UR0TCQ1NJ03LFGS7YQZDZ","","771.1000001430511","img/food1.png","74","771.7999999523163","74","1",""
"","html-keyboard-response","75","68248","0.0-75.0","369J354OFEW336EBE692JLMIJWAG65","A5P12YJP805RG","3SBNLSTU6UR0TCQ1NJ03LFGS7YQZDZ","","null","<img src=""img/food1.png"" style=""width:200px; border:14px solid green;"">","null","","","",""
"","image-keyboard-response","76","68835","0.0-76.0","369J354OFEW336EBE692JLMIJWAG65","A5P12YJP805RG","3SBNLSTU6UR0TCQ1NJ03LFGS7YQZDZ","","586.2000000476837","img/food3.png","74","586.7000000476837","74","1",""
"","html-keyboard-response","77","69137","0.0-77.0","369J354OFEW336EBE692JLMIJWAG65","A5P12YJP805RG","3SBNLSTU6UR0TCQ1NJ03LFGS7YQZDZ","","null","<img src=""img/food3.png"" style=""width:200px; border:14px solid green;"">","null","","","",""
"","image-keyboard-response","78","70155","0.0-78.0","369J354OFEW336EBE692JLMIJWAG65","A5P12YJP805RG","3SBNLSTU6UR0TCQ1NJ03LFGS7YQZDZ","","1017.4000000953674","img/food2.png","75","1017.8999998569489","75","1",""
"","html-keyboard-response","79","70457","0.0-79.0","369J354OFEW336EBE692JLMIJWAG65","A5P12YJP805RG","3SBNLSTU6UR0TCQ1NJ03LFGS7YQZDZ","","null","<img src=""img/food2.png"" style=""width:200px; border:14px solid green;"">","null","","","",""
"","image-keyboard-response","80","71595","0.0-80.0","369J354OFEW336EBE692JLMIJWAG65","A5P12YJP805RG","3SBNLSTU6UR0TCQ1NJ03LFGS7YQZDZ","","1138.0999999046326","img/food1.png","75","1138.6000001430511","75","1",""
"","html-keyboard-response","81","71897","0.0-81.0","369J354OFEW336EBE692JLMIJWAG65","A5P12YJP805RG","3SBNLSTU6UR0TCQ1NJ03LFGS7YQZDZ","","null","<img src=""img/food1.png"" style=""width:200px; border:14px solid green;"">","null","","","",""
"","image-keyboard-response","82","72628","0.0-82.0","369J354OFEW336EBE692JLMIJWAG65","A5P12YJP805RG","3SBNLSTU6UR0TCQ1NJ03LFGS7YQZDZ","","730.2000000476837","img/food2.png","75","730.7000000476837","75","1",""
"","html-keyboard-response","83","72929","0.0-83.0","369J354OFEW336EBE692JLMIJWAG65","A5P12YJP805RG","3SBNLSTU6UR0TCQ1NJ03LFGS7YQZDZ","","null","<img src=""img/food2.png"" style=""width:200px; border:14px solid green;"">","null","","","",""
"","image-keyboard-response","84","73276","0.0-84.0","369J354OFEW336EBE692JLMIJWAG65","A5P12YJP805RG","3SBNLSTU6UR0TCQ1NJ03LFGS7YQZDZ","","346","img/food2.png","75","346.5","75","1",""
"","html-keyboard-response","85","73577","0.0-85.0","369J354OFEW336EBE692JLMIJWAG65","A5P12YJP805RG","3SBNLSTU6UR0TCQ1NJ03LFGS7YQZDZ","","null","<img src=""img/food2.png"" style=""width:200px; border:14px solid green;"">","null","","","",""
"","image-keyboard-response","86","73844","0.0-86.0","369J354OFEW336EBE692JLMIJWAG65","A5P12YJP805RG","3SBNLSTU6UR0TCQ1NJ03LFGS7YQZDZ","","266.2999999523163","img/food2.png","75","267","75","0",""
"","html-keyboard-response","87","74145","0.0-87.0","369J354OFEW336EBE692JLMIJWAG65","A5P12YJP805RG","3SBNLSTU6UR0TCQ1NJ03LFGS7YQZDZ","","null","<img src=""img/food2.png"" style=""width:200px;border:14px solid red;"">","null","","","",""
"","image-keyboard-response","88","74516","0.0-88.0","369J354OFEW336EBE692JLMIJWAG65","A5P12YJP805RG","3SBNLSTU6UR0TCQ1NJ03LFGS7YQZDZ","","370.39999985694885","img/food2.png","75","371","75","1",""
"","html-keyboard-response","89","74817","0.0-89.0","369J354OFEW336EBE692JLMIJWAG65","A5P12YJP805RG","3SBNLSTU6UR0TCQ1NJ03LFGS7YQZDZ","","null","<img src=""img/food2.png"" style=""width:200px; border:14px solid green;"">","null","","","",""
"","image-keyboard-response","90","75460","0.0-90.0","369J354OFEW336EBE692JLMIJWAG65","A5P12YJP805RG","3SBNLSTU6UR0TCQ1NJ03LFGS7YQZDZ","","642.5999999046326","img/food3.png","74","643.4000000953674","74","1",""
"","html-keyboard-response","91","75761","0.0-91.0","369J354OFEW336EBE692JLMIJWAG65","A5P12YJP805RG","3SBNLSTU6UR0TCQ1NJ03LFGS7YQZDZ","","null","<img src=""img/food3.png"" style=""width:200px; border:14px solid green;"">","null","","","",""
"","image-keyboard-response","92","76724","0.0-92.0","369J354OFEW336EBE692JLMIJWAG65","A5P12YJP805RG","3SBNLSTU6UR0TCQ1NJ03LFGS7YQZDZ","","962.4000000953674","img/food1.png","76","963","76","0",""
"","html-keyboard-response","93","77025","0.0-93.0","369J354OFEW336EBE692JLMIJWAG65","A5P12YJP805RG","3SBNLSTU6UR0TCQ1NJ03LFGS7YQZDZ","","null","<img src=""img/food1.png"" style=""width:200px;border:14px solid red;"">","null","","","",""
"","image-keyboard-response","94","77900","0.0-94.0","369J354OFEW336EBE692JLMIJWAG65","A5P12YJP805RG","3SBNLSTU6UR0TCQ1NJ03LFGS7YQZDZ","","874.6999998092651","img/food2.png","75","875.2000000476837","75","1",""
"","html-keyboard-response","95","78201","0.0-95.0","369J354OFEW336EBE692JLMIJWAG65","A5P12YJP805RG","3SBNLSTU6UR0TCQ1NJ03LFGS7YQZDZ","","null","<img src=""img/food2.png"" style=""width:200px; border:14px solid green;"">","null","","","",""
"","image-keyboard-response","96","79020","0.0-96.0","369J354OFEW336EBE692JLMIJWAG65","A5P12YJP805RG","3SBNLSTU6UR0TCQ1NJ03LFGS7YQZDZ","","818.6000001430511","img/food1.png","76","819.1000001430511","76","0",""
"","html-keyboard-response","97","79322","0.0-97.0","369J354OFEW336EBE692JLMIJWAG65","A5P12YJP805RG","3SBNLSTU6UR0TCQ1NJ03LFGS7YQZDZ","","null","<img src=""img/food1.png"" style=""width:200px;border:14px solid red;"">","null","","","",""
"","image-keyboard-response","98","80061","0.0-98.0","369J354OFEW336EBE692JLMIJWAG65","A5P12YJP805RG","3SBNLSTU6UR0TCQ1NJ03LFGS7YQZDZ","","737.5","img/food3.png","74","738","74","1",""
"","html-keyboard-response","99","80362","0.0-99.0","369J354OFEW336EBE692JLMIJWAG65","A5P12YJP805RG","3SBNLSTU6UR0TCQ1NJ03LFGS7YQZDZ","","null","<img src=""img/food3.png"" style=""width:200px; border:14px solid green;"">","null","","","",""
"","image-keyboard-response","100","80685","0.0-100.0","369J354OFEW336EBE692JLMIJWAG65","A5P12YJP805RG","3SBNLSTU6UR0TCQ1NJ03LFGS7YQZDZ","","322.10000014305115","img/food3.png","74","322.7000000476837","74","0",""
"","html-keyboard-response","101","80987","0.0-101.0","369J354OFEW336EBE692JLMIJWAG65","A5P12YJP805RG","3SBNLSTU6UR0TCQ1NJ03LFGS7YQZDZ","","null","<img src=""img/food3.png"" style=""width:200px;border:14px solid red;"">","null","","","",""
"","image-keyboard-response","102","82461","0.0-102.0","369J354OFEW336EBE692JLMIJWAG65","A5P12YJP805RG","3SBNLSTU6UR0TCQ1NJ03LFGS7YQZDZ","","1474.1000001430511","img/food1.png","76","1474.7000000476837","76","0",""
"","html-keyboard-response","103","82764","0.0-103.0","369J354OFEW336EBE692JLMIJWAG65","A5P12YJP805RG","3SBNLSTU6UR0TCQ1NJ03LFGS7YQZDZ","","null","<img src=""img/food1.png"" style=""width:200px;border:14px solid red;"">","null","","","",""
"","image-keyboard-response","104","83365","0.0-104.0","369J354OFEW336EBE692JLMIJWAG65","A5P12YJP805RG","3SBNLSTU6UR0TCQ1NJ03LFGS7YQZDZ","","600.9000000953674","img/food3.png","74","601.3999998569489","74","1",""
"","html-keyboard-response","105","83667","0.0-105.0","369J354OFEW336EBE692JLMIJWAG65","A5P12YJP805RG","3SBNLSTU6UR0TCQ1NJ03LFGS7YQZDZ","","null","<img src=""img/food3.png"" style=""width:200px; border:14px solid green;"">","null","","","",""
"","image-keyboard-response","106","84718","0.0-106.0","369J354OFEW336EBE692JLMIJWAG65","A5P12YJP805RG","3SBNLSTU6UR0TCQ1NJ03LFGS7YQZDZ","","1050.1000001430511","img/food2.png","75","1050.7999999523163","75","0",""
"","html-keyboard-response","107","85019","0.0-107.0","369J354OFEW336EBE692JLMIJWAG65","A5P12YJP805RG","3SBNLSTU6UR0TCQ1NJ03LFGS7YQZDZ","","null","<img src=""img/food2.png"" style=""width:200px;border:14px solid red;"">","null","","","",""
"","image-keyboard-response","108","85621","0.0-108.0","369J354OFEW336EBE692JLMIJWAG65","A5P12YJP805RG","3SBNLSTU6UR0TCQ1NJ03LFGS7YQZDZ","","602","img/food2.png","75","602.6000001430511","75","1",""
"","html-keyboard-response","109","85923","0.0-109.0","369J354OFEW336EBE692JLMIJWAG65","A5P12YJP805RG","3SBNLSTU6UR0TCQ1NJ03LFGS7YQZDZ","","null","<img src=""img/food2.png"" style=""width:200px; border:14px solid green;"">","null","","","",""
"","image-keyboard-response","110","86614","0.0-110.0","369J354OFEW336EBE692JLMIJWAG65","A5P12YJP805RG","3SBNLSTU6UR0TCQ1NJ03LFGS7YQZDZ","","690.3000001907349","img/food3.png","74","690.7000000476837","74","1",""
"","html-keyboard-response","111","86915","0.0-111.0","369J354OFEW336EBE692JLMIJWAG65","A5P12YJP805RG","3SBNLSTU6UR0TCQ1NJ03LFGS7YQZDZ","","null","<img src=""img/food3.png"" style=""width:200px; border:14px solid green;"">","null","","","",""
"","image-keyboard-response","112","87262","0.0-112.0","369J354OFEW336EBE692JLMIJWAG65","A5P12YJP805RG","3SBNLSTU6UR0TCQ1NJ03LFGS7YQZDZ","","346.7000000476837","img/food3.png","74","347.10000014305115","74","1",""
"","html-keyboard-response","113","87564","0.0-113.0","369J354OFEW336EBE692JLMIJWAG65","A5P12YJP805RG","3SBNLSTU6UR0TCQ1NJ03LFGS7YQZDZ","","null","<img src=""img/food3.png"" style=""width:200px; border:14px solid green;"">","null","","","",""
"","image-keyboard-response","114","88742","0.0-114.0","369J354OFEW336EBE692JLMIJWAG65","A5P12YJP805RG","3SBNLSTU6UR0TCQ1NJ03LFGS7YQZDZ","","1177.5999999046326","img/food1.png","76","1178.1000001430511","76","0",""
"","html-keyboard-response","115","89044","0.0-115.0","369J354OFEW336EBE692JLMIJWAG65","A5P12YJP805RG","3SBNLSTU6UR0TCQ1NJ03LFGS7YQZDZ","","null","<img src=""img/food1.png"" style=""width:200px;border:14px solid red;"">","null","","","",""
"","image-keyboard-response","116","89382","0.0-116.0","369J354OFEW336EBE692JLMIJWAG65","A5P12YJP805RG","3SBNLSTU6UR0TCQ1NJ03LFGS7YQZDZ","","336.90000009536743","img/food1.png","76","337.5","76","0",""
"","html-keyboard-response","117","89684","0.0-117.0","369J354OFEW336EBE692JLMIJWAG65","A5P12YJP805RG","3SBNLSTU6UR0TCQ1NJ03LFGS7YQZDZ","","null","<img src=""img/food1.png"" style=""width:200px;border:14px solid red;"">","null","","","",""
"","image-keyboard-response","118","90422","0.0-118.0","369J354OFEW336EBE692JLMIJWAG65","A5P12YJP805RG","3SBNLSTU6UR0TCQ1NJ03LFGS7YQZDZ","","737.5","img/food3.png","74","738.1000001430511","74","1",""
"","html-keyboard-response","119","90724","0.0-119.0","369J354OFEW336EBE692JLMIJWAG65","A5P12YJP805RG","3SBNLSTU6UR0TCQ1NJ03LFGS7YQZDZ","","null","<img src=""img/food3.png"" style=""width:200px; border:14px solid green;"">","null","","","",""
"","image-keyboard-response","120","91566","0.0-120.0","369J354OFEW336EBE692JLMIJWAG65","A5P12YJP805RG","3SBNLSTU6UR0TCQ1NJ03LFGS7YQZDZ","","841.8999998569489","img/food1.png","75","842.3999998569489","75","0",""
"","html-keyboard-response","121","91868","0.0-121.0","369J354OFEW336EBE692JLMIJWAG65","A5P12YJP805RG","3SBNLSTU6UR0TCQ1NJ03LFGS7YQZDZ","","null","<img src=""img/food1.png"" style=""width:200px;border:14px solid red;"">","null","","","",""
"","image-keyboard-response","122","92606","0.0-122.0","369J354OFEW336EBE692JLMIJWAG65","A5P12YJP805RG","3SBNLSTU6UR0TCQ1NJ03LFGS7YQZDZ","","738.3000001907349","img/food2.png","75","738.7000000476837","75","1",""
"","html-keyboard-response","123","92909","0.0-123.0","369J354OFEW336EBE692JLMIJWAG65","A5P12YJP805RG","3SBNLSTU6UR0TCQ1NJ03LFGS7YQZDZ","","null","<img src=""img/food2.png"" style=""width:200px; border:14px solid green;"">","null","","","",""
"","image-keyboard-response","124","93207","0.0-124.0","369J354OFEW336EBE692JLMIJWAG65","A5P12YJP805RG","3SBNLSTU6UR0TCQ1NJ03LFGS7YQZDZ","","296.90000009536743","img/food2.png","75","297.39999985694885","75","1",""
"","html-keyboard-response","125","93508","0.0-125.0","369J354OFEW336EBE692JLMIJWAG65","A5P12YJP805RG","3SBNLSTU6UR0TCQ1NJ03LFGS7YQZDZ","","null","<img src=""img/food2.png"" style=""width:200px; border:14px solid green;"">","null","","","",""
"","image-keyboard-response","126","94071","0.0-126.0","369J354OFEW336EBE692JLMIJWAG65","A5P12YJP805RG","3SBNLSTU6UR0TCQ1NJ03LFGS7YQZDZ","","562.5","img/food1.png","74","563.0999999046326","74","1",""
"","html-keyboard-response","127","94373","0.0-127.0","369J354OFEW336EBE692JLMIJWAG65","A5P12YJP805RG","3SBNLSTU6UR0TCQ1NJ03LFGS7YQZDZ","","null","<img src=""img/food1.png"" style=""width:200px; border:14px solid green;"">","null","","","",""
"","image-keyboard-response","128","94871","0.0-128.0","369J354OFEW336EBE692JLMIJWAG65","A5P12YJP805RG","3SBNLSTU6UR0TCQ1NJ03LFGS7YQZDZ","","497.5","img/food3.png","74","498.09999990463257","74","1",""
"","html-keyboard-response","129","95174","0.0-129.0","369J354OFEW336EBE692JLMIJWAG65","A5P12YJP805RG","3SBNLSTU6UR0TCQ1NJ03LFGS7YQZDZ","","null","<img src=""img/food3.png"" style=""width:200px; border:14px solid green;"">","null","","","",""
"","image-keyboard-response","130","95503","0.0-130.0","369J354OFEW336EBE692JLMIJWAG65","A5P12YJP805RG","3SBNLSTU6UR0TCQ1NJ03LFGS7YQZDZ","","328.59999990463257","img/food3.png","74","329.2000000476837","74","1",""
"","html-keyboard-response","131","95805","0.0-131.0","369J354OFEW336EBE692JLMIJWAG65","A5P12YJP805RG","3SBNLSTU6UR0TCQ1NJ03LFGS7YQZDZ","","null","<img src=""img/food3.png"" style=""width:200px; border:14px solid green;"">","null","","","",""
"","image-keyboard-response","132","96831","0.0-132.0","369J354OFEW336EBE692JLMIJWAG65","A5P12YJP805RG","3SBNLSTU6UR0TCQ1NJ03LFGS7YQZDZ","","1025.4000000953674","img/food2.png","75","1026","75","1",""
"","html-keyboard-response","133","97132","0.0-133.0","369J354OFEW336EBE692JLMIJWAG65","A5P12YJP805RG","3SBNLSTU6UR0TCQ1NJ03LFGS7YQZDZ","","null","<img src=""img/food2.png"" style=""width:200px; border:14px solid green;"">","null","","","",""
"","image-keyboard-response","134","97623","0.0-134.0","369J354OFEW336EBE692JLMIJWAG65","A5P12YJP805RG","3SBNLSTU6UR0TCQ1NJ03LFGS7YQZDZ","","490.7999999523163","img/food3.png","74","491.19999980926514","74","1",""
"","html-keyboard-response","135","97924","0.0-135.0","369J354OFEW336EBE692JLMIJWAG65","A5P12YJP805RG","3SBNLSTU6UR0TCQ1NJ03LFGS7YQZDZ","","null","<img src=""img/food3.png"" style=""width:200px; border:14px solid green;"">","null","","","",""
"","image-keyboard-response","136","98567","0.0-136.0","369J354OFEW336EBE692JLMIJWAG65","A5P12YJP805RG","3SBNLSTU6UR0TCQ1NJ03LFGS7YQZDZ","","642.2999999523163","img/food1.png","74","643","74","1",""
"","html-keyboard-response","137","98869","0.0-137.0","369J354OFEW336EBE692JLMIJWAG65","A5P12YJP805RG","3SBNLSTU6UR0TCQ1NJ03LFGS7YQZDZ","","null","<img src=""img/food1.png"" style=""width:200px; border:14px solid green;"">","null","","","",""
"","image-keyboard-response","138","99175","0.0-138.0","369J354OFEW336EBE692JLMIJWAG65","A5P12YJP805RG","3SBNLSTU6UR0TCQ1NJ03LFGS7YQZDZ","","306.09999990463257","img/food1.png","74","306.60000014305115","74","0",""
"","html-keyboard-response","139","99478","0.0-139.0","369J354OFEW336EBE692JLMIJWAG65","A5P12YJP805RG","3SBNLSTU6UR0TCQ1NJ03LFGS7YQZDZ","","null","<img src=""img/food1.png"" style=""width:200px;border:14px solid red;"">","null","","","",""
"","image-keyboard-response","140","100416","0.0-140.0","369J354OFEW336EBE692JLMIJWAG65","A5P12YJP805RG","3SBNLSTU6UR0TCQ1NJ03LFGS7YQZDZ","","937.2999999523163","img/food2.png","75","937.9000000953674","75","0",""
"","html-keyboard-response","141","100717","0.0-141.0","369J354OFEW336EBE692JLMIJWAG65","A5P12YJP805RG","3SBNLSTU6UR0TCQ1NJ03LFGS7YQZDZ","","null","<img src=""img/food2.png"" style=""width:200px;border:14px solid red;"">","null","","","",""
"","image-keyboard-response","142","101240","0.0-142.0","369J354OFEW336EBE692JLMIJWAG65","A5P12YJP805RG","3SBNLSTU6UR0TCQ1NJ03LFGS7YQZDZ","","522.3999998569489","img/food3.png","74","522.9000000953674","74","1",""
"","html-keyboard-response","143","101541","0.0-143.0","369J354OFEW336EBE692JLMIJWAG65","A5P12YJP805RG","3SBNLSTU6UR0TCQ1NJ03LFGS7YQZDZ","","null","<img src=""img/food3.png"" style=""width:200px; border:14px solid green;"">","null","","","",""
"","image-keyboard-response","144","102136","0.0-144.0","369J354OFEW336EBE692JLMIJWAG65","A5P12YJP805RG","3SBNLSTU6UR0TCQ1NJ03LFGS7YQZDZ","","594.5999999046326","img/food2.png","75","595","75","1",""
"","html-keyboard-response","145","102437","0.0-145.0","369J354OFEW336EBE692JLMIJWAG65","A5P12YJP805RG","3SBNLSTU6UR0TCQ1NJ03LFGS7YQZDZ","","null","<img src=""img/food2.png"" style=""width:200px; border:14px solid green;"">","null","","","",""
"","image-keyboard-response","146","102768","0.0-146.0","369J354OFEW336EBE692JLMIJWAG65","A5P12YJP805RG","3SBNLSTU6UR0TCQ1NJ03LFGS7YQZDZ","","330.59999990463257","img/food2.png","75","331.2999999523163","75","0",""
"","html-keyboard-response","147","103069","0.0-147.0","369J354OFEW336EBE692JLMIJWAG65","A5P12YJP805RG","3SBNLSTU6UR0TCQ1NJ03LFGS7YQZDZ","","null","<img src=""img/food2.png"" style=""width:200px;border:14px solid red;"">","null","","","",""
"","image-keyboard-response","148","103632","0.0-148.0","369J354OFEW336EBE692JLMIJWAG65","A5P12YJP805RG","3SBNLSTU6UR0TCQ1NJ03LFGS7YQZDZ","","562.7999999523163","img/food1.png","74","563.2999999523163","74","1",""
"","html-keyboard-response","149","103934","0.0-149.0","369J354OFEW336EBE692JLMIJWAG65","A5P12YJP805RG","3SBNLSTU6UR0TCQ1NJ03LFGS7YQZDZ","","null","<img src=""img/food1.png"" style=""width:200px; border:14px solid green;"">","null","","","",""
"","image-keyboard-response","150","104240","0.0-150.0","369J354OFEW336EBE692JLMIJWAG65","A5P12YJP805RG","3SBNLSTU6UR0TCQ1NJ03LFGS7YQZDZ","","305.19999980926514","img/food1.png","74","305.90000009536743","74","1",""
"","html-keyboard-response","151","104543","0.0-151.0","369J354OFEW336EBE692JLMIJWAG65","A5P12YJP805RG","3SBNLSTU6UR0TCQ1NJ03LFGS7YQZDZ","","null","<img src=""img/food1.png"" style=""width:200px; border:14px solid green;"">","null","","","",""
"","image-keyboard-response","152","105328","0.0-152.0","369J354OFEW336EBE692JLMIJWAG65","A5P12YJP805RG","3SBNLSTU6UR0TCQ1NJ03LFGS7YQZDZ","","785.0999999046326","img/food2.png","75","785.7000000476837","75","1",""
"","html-keyboard-response","153","105630","0.0-153.0","369J354OFEW336EBE692JLMIJWAG65","A5P12YJP805RG","3SBNLSTU6UR0TCQ1NJ03LFGS7YQZDZ","","null","<img src=""img/food2.png"" style=""width:200px; border:14px solid green;"">","null","","","",""
"","image-keyboard-response","154","106073","0.0-154.0","369J354OFEW336EBE692JLMIJWAG65","A5P12YJP805RG","3SBNLSTU6UR0TCQ1NJ03LFGS7YQZDZ","","442.10000014305115","img/food3.png","74","442.69999980926514","74","1",""
"","html-keyboard-response","155","106374","0.0-155.0","369J354OFEW336EBE692JLMIJWAG65","A5P12YJP805RG","3SBNLSTU6UR0TCQ1NJ03LFGS7YQZDZ","","null","<img src=""img/food3.png"" style=""width:200px; border:14px solid green;"">","null","","","",""
"","image-keyboard-response","156","107025","0.0-156.0","369J354OFEW336EBE692JLMIJWAG65","A5P12YJP805RG","3SBNLSTU6UR0TCQ1NJ03LFGS7YQZDZ","","650.0999999046326","img/food1.png","75","650.7000000476837","75","0",""
"","html-keyboard-response","157","107326","0.0-157.0","369J354OFEW336EBE692JLMIJWAG65","A5P12YJP805RG","3SBNLSTU6UR0TCQ1NJ03LFGS7YQZDZ","","null","<img src=""img/food1.png"" style=""width:200px;border:14px solid red;"">","null","","","",""
"","image-keyboard-response","158","108377","0.0-158.0","369J354OFEW336EBE692JLMIJWAG65","A5P12YJP805RG","3SBNLSTU6UR0TCQ1NJ03LFGS7YQZDZ","","1050.4000000953674","img/food1.png","74","1051.2000000476837","74","1",""
"","html-keyboard-response","159","108678","0.0-159.0","369J354OFEW336EBE692JLMIJWAG65","A5P12YJP805RG","3SBNLSTU6UR0TCQ1NJ03LFGS7YQZDZ","","null","<img src=""img/food1.png"" style=""width:200px; border:14px solid green;"">","null","","","",""
"","image-keyboard-response","160","108969","0.0-160.0","369J354OFEW336EBE692JLMIJWAG65","A5P12YJP805RG","3SBNLSTU6UR0TCQ1NJ03LFGS7YQZDZ","","290","img/food1.png","74","290.5","74","1",""
"","html-keyboard-response","161","109270","0.0-161.0","369J354OFEW336EBE692JLMIJWAG65","A5P12YJP805RG","3SBNLSTU6UR0TCQ1NJ03LFGS7YQZDZ","","null","<img src=""img/food1.png"" style=""width:200px; border:14px solid green;"">","null","","","",""
"","image-keyboard-response","162","109577","0.0-162.0","369J354OFEW336EBE692JLMIJWAG65","A5P12YJP805RG","3SBNLSTU6UR0TCQ1NJ03LFGS7YQZDZ","","306.39999985694885","img/food1.png","74","307.19999980926514","74","1",""
"","html-keyboard-response","163","109878","0.0-163.0","369J354OFEW336EBE692JLMIJWAG65","A5P12YJP805RG","3SBNLSTU6UR0TCQ1NJ03LFGS7YQZDZ","","null","<img src=""img/food1.png"" style=""width:200px; border:14px solid green;"">","null","","","",""
"","image-keyboard-response","164","110193","0.0-164.0","369J354OFEW336EBE692JLMIJWAG65","A5P12YJP805RG","3SBNLSTU6UR0TCQ1NJ03LFGS7YQZDZ","","314","img/food1.png","74","314.30000019073486","74","1",""
"","html-keyboard-response","165","110495","0.0-165.0","369J354OFEW336EBE692JLMIJWAG65","A5P12YJP805RG","3SBNLSTU6UR0TCQ1NJ03LFGS7YQZDZ","","null","<img src=""img/food1.png"" style=""width:200px; border:14px solid green;"">","null","","","",""
"","image-keyboard-response","166","111218","0.0-166.0","369J354OFEW336EBE692JLMIJWAG65","A5P12YJP805RG","3SBNLSTU6UR0TCQ1NJ03LFGS7YQZDZ","","722.3000001907349","img/food2.png","75","722.7999999523163","75","1",""
"","html-keyboard-response","167","111519","0.0-167.0","369J354OFEW336EBE692JLMIJWAG65","A5P12YJP805RG","3SBNLSTU6UR0TCQ1NJ03LFGS7YQZDZ","","null","<img src=""img/food2.png"" style=""width:200px; border:14px solid green;"">","null","","","",""
"","image-keyboard-response","168","111825","0.0-168.0","369J354OFEW336EBE692JLMIJWAG65","A5P12YJP805RG","3SBNLSTU6UR0TCQ1NJ03LFGS7YQZDZ","","306","img/food2.png","75","306.7000000476837","75","1",""
"","html-keyboard-response","169","112128","0.0-169.0","369J354OFEW336EBE692JLMIJWAG65","A5P12YJP805RG","3SBNLSTU6UR0TCQ1NJ03LFGS7YQZDZ","","null","<img src=""img/food2.png"" style=""width:200px; border:14px solid green;"">","null","","","",""
"","image-keyboard-response","170","112409","0.0-170.0","369J354OFEW336EBE692JLMIJWAG65","A5P12YJP805RG","3SBNLSTU6UR0TCQ1NJ03LFGS7YQZDZ","","281.09999990463257","img/food2.png","75","281.60000014305115","75","1",""
"","html-keyboard-response","171","112712","0.0-171.0","369J354OFEW336EBE692JLMIJWAG65","A5P12YJP805RG","3SBNLSTU6UR0TCQ1NJ03LFGS7YQZDZ","","null","<img src=""img/food2.png"" style=""width:200px; border:14px solid green;"">","null","","","",""
"","image-keyboard-response","172","113298","0.0-172.0","369J354OFEW336EBE692JLMIJWAG65","A5P12YJP805RG","3SBNLSTU6UR0TCQ1NJ03LFGS7YQZDZ","","585.1000001430511","img/food1.png","74","585.8999998569489","74","0",""
"","html-keyboard-response","173","113599","0.0-173.0","369J354OFEW336EBE692JLMIJWAG65","A5P12YJP805RG","3SBNLSTU6UR0TCQ1NJ03LFGS7YQZDZ","","null","<img src=""img/food1.png"" style=""width:200px;border:14px solid red;"">","null","","","",""
"","image-keyboard-response","174","113842","0.0-174.0","369J354OFEW336EBE692JLMIJWAG65","A5P12YJP805RG","3SBNLSTU6UR0TCQ1NJ03LFGS7YQZDZ","","242.40000009536743","img/food1.png","74","243.10000014305115","74","1",""
"","html-keyboard-response","175","114144","0.0-175.0","369J354OFEW336EBE692JLMIJWAG65","A5P12YJP805RG","3SBNLSTU6UR0TCQ1NJ03LFGS7YQZDZ","","null","<img src=""img/food1.png"" style=""width:200px; border:14px solid green;"">","null","","","",""
"","image-keyboard-response","176","114458","0.0-176.0","369J354OFEW336EBE692JLMIJWAG65","A5P12YJP805RG","3SBNLSTU6UR0TCQ1NJ03LFGS7YQZDZ","","313.19999980926514","img/food1.png","74","313.60000014305115","74","1",""
"","html-keyboard-response","177","114759","0.0-177.0","369J354OFEW336EBE692JLMIJWAG65","A5P12YJP805RG","3SBNLSTU6UR0TCQ1NJ03LFGS7YQZDZ","","null","<img src=""img/food1.png"" style=""width:200px; border:14px solid green;"">","null","","","",""
"","image-keyboard-response","178","115066","0.0-178.0","369J354OFEW336EBE692JLMIJWAG65","A5P12YJP805RG","3SBNLSTU6UR0TCQ1NJ03LFGS7YQZDZ","","306.5","img/food1.png","74","307.10000014305115","74","1",""
"","html-keyboard-response","179","115367","0.0-179.0","369J354OFEW336EBE692JLMIJWAG65","A5P12YJP805RG","3SBNLSTU6UR0TCQ1NJ03LFGS7YQZDZ","","null","<img src=""img/food1.png"" style=""width:200px; border:14px solid green;"">","null","","","",""
"","image-keyboard-response","180","116162","0.0-180.0","369J354OFEW336EBE692JLMIJWAG65","A5P12YJP805RG","3SBNLSTU6UR0TCQ1NJ03LFGS7YQZDZ","","794.6000001430511","img/food2.png","75","795.2999999523163","75","1",""
"","html-keyboard-response","181","116464","0.0-181.0","369J354OFEW336EBE692JLMIJWAG65","A5P12YJP805RG","3SBNLSTU6UR0TCQ1NJ03LFGS7YQZDZ","","null","<img src=""img/food2.png"" style=""width:200px; border:14px solid green;"">","null","","","",""
"","html-keyboard-response","182","118655","0.0-182.0","369J354OFEW336EBE692JLMIJWAG65","A5P12YJP805RG","3SBNLSTU6UR0TCQ1NJ03LFGS7YQZDZ","","","","","","","",""
"","image-keyboard-response","183","120171","0.0-183.0","369J354OFEW336EBE692JLMIJWAG65","A5P12YJP805RG","3SBNLSTU6UR0TCQ1NJ03LFGS7YQZDZ","","1515","img/food5.png","74","1515.7000000476837","74","0",""
"","html-keyboard-response","184","120472","0.0-184.0","369J354OFEW336EBE692JLMIJWAG65","A5P12YJP805RG","3SBNLSTU6UR0TCQ1NJ03LFGS7YQZDZ","","null","<img src=""img/food5.png"" style=""width:200px;border:14px solid red;"">","null","","","",""
"","image-keyboard-response","185","122459","0.0-185.0","369J354OFEW336EBE692JLMIJWAG65","A5P12YJP805RG","3SBNLSTU6UR0TCQ1NJ03LFGS7YQZDZ","","1985.7999999523163","img/food4.png","74","1986.4000000953674","74","0",""
"","html-keyboard-response","186","122761","0.0-186.0","369J354OFEW336EBE692JLMIJWAG65","A5P12YJP805RG","3SBNLSTU6UR0TCQ1NJ03LFGS7YQZDZ","","null","<img src=""img/food4.png"" style=""width:200px;border:14px solid red;"">","null","","","",""
"","image-keyboard-response","187","123035","0.0-187.0","369J354OFEW336EBE692JLMIJWAG65","A5P12YJP805RG","3SBNLSTU6UR0TCQ1NJ03LFGS7YQZDZ","","273.7000000476837","img/food4.png","74","274.2999999523163","74","0",""
"","html-keyboard-response","188","123336","0.0-188.0","369J354OFEW336EBE692JLMIJWAG65","A5P12YJP805RG","3SBNLSTU6UR0TCQ1NJ03LFGS7YQZDZ","","null","<img src=""img/food4.png"" style=""width:200px;border:14px solid red;"">","null","","","",""
"","image-keyboard-response","189","123579","0.0-189.0","369J354OFEW336EBE692JLMIJWAG65","A5P12YJP805RG","3SBNLSTU6UR0TCQ1NJ03LFGS7YQZDZ","","242","img/food4.png","74","242.59999990463257","74","0",""
"","html-keyboard-response","190","123880","0.0-190.0","369J354OFEW336EBE692JLMIJWAG65","A5P12YJP805RG","3SBNLSTU6UR0TCQ1NJ03LFGS7YQZDZ","","null","<img src=""img/food4.png"" style=""width:200px;border:14px solid red;"">","null","","","",""
"","image-keyboard-response","191","124955","0.0-191.0","369J354OFEW336EBE692JLMIJWAG65","A5P12YJP805RG","3SBNLSTU6UR0TCQ1NJ03LFGS7YQZDZ","","1074.2999999523163","img/food5.png","74","1075","74","0",""
"","html-keyboard-response","192","125257","0.0-192.0","369J354OFEW336EBE692JLMIJWAG65","A5P12YJP805RG","3SBNLSTU6UR0TCQ1NJ03LFGS7YQZDZ","","null","<img src=""img/food5.png"" style=""width:200px;border:14px solid red;"">","null","","","",""
"","image-keyboard-response","193","126476","0.0-193.0","369J354OFEW336EBE692JLMIJWAG65","A5P12YJP805RG","3SBNLSTU6UR0TCQ1NJ03LFGS7YQZDZ","","1218.2000000476837","img/food4.png","75","1218.6999998092651","75","1",""
"","html-keyboard-response","194","126777","0.0-194.0","369J354OFEW336EBE692JLMIJWAG65","A5P12YJP805RG","3SBNLSTU6UR0TCQ1NJ03LFGS7YQZDZ","","null","<img src=""img/food4.png"" style=""width:200px; border:14px solid green;"">","null","","","",""
"","image-keyboard-response","195","128300","0.0-195.0","369J354OFEW336EBE692JLMIJWAG65","A5P12YJP805RG","3SBNLSTU6UR0TCQ1NJ03LFGS7YQZDZ","","1521.7999999523163","img/food6.png","74","1522.2000000476837","74","0",""
"","html-keyboard-response","196","128602","0.0-196.0","369J354OFEW336EBE692JLMIJWAG65","A5P12YJP805RG","3SBNLSTU6UR0TCQ1NJ03LFGS7YQZDZ","","null","<img src=""img/food6.png"" style=""width:200px;border:14px solid red;"">","null","","","",""
"","image-keyboard-response","197","129500","0.0-197.0","369J354OFEW336EBE692JLMIJWAG65","A5P12YJP805RG","3SBNLSTU6UR0TCQ1NJ03LFGS7YQZDZ","","897.5","img/food4.png","75","897.8999998569489","75","1",""
"","html-keyboard-response","198","129802","0.0-198.0","369J354OFEW336EBE692JLMIJWAG65","A5P12YJP805RG","3SBNLSTU6UR0TCQ1NJ03LFGS7YQZDZ","","null","<img src=""img/food4.png"" style=""width:200px; border:14px solid green;"">","null","","","",""
"","image-keyboard-response","199","130860","0.0-199.0","369J354OFEW336EBE692JLMIJWAG65","A5P12YJP805RG","3SBNLSTU6UR0TCQ1NJ03LFGS7YQZDZ","","1057.6000001430511","img/food5.png","74","1058.0999999046326","74","1",""
"","html-keyboard-response","200","131162","0.0-200.0","369J354OFEW336EBE692JLMIJWAG65","A5P12YJP805RG","3SBNLSTU6UR0TCQ1NJ03LFGS7YQZDZ","","null","<img src=""img/food5.png"" style=""width:200px; border:14px solid green;"">","null","","","",""
"","image-keyboard-response","201","132740","0.0-201.0","369J354OFEW336EBE692JLMIJWAG65","A5P12YJP805RG","3SBNLSTU6UR0TCQ1NJ03LFGS7YQZDZ","","1578.2000000476837","img/food6.png","75","1578.7999999523163","75","1",""
"","html-keyboard-response","202","133042","0.0-202.0","369J354OFEW336EBE692JLMIJWAG65","A5P12YJP805RG","3SBNLSTU6UR0TCQ1NJ03LFGS7YQZDZ","","null","<img src=""img/food6.png"" style=""width:200px; border:14px solid green;"">","null","","","",""
"","image-keyboard-response","203","134253","0.0-203.0","369J354OFEW336EBE692JLMIJWAG65","A5P12YJP805RG","3SBNLSTU6UR0TCQ1NJ03LFGS7YQZDZ","","1210.5","img/food4.png","75","1211","75","0",""
"","html-keyboard-response","204","134554","0.0-204.0","369J354OFEW336EBE692JLMIJWAG65","A5P12YJP805RG","3SBNLSTU6UR0TCQ1NJ03LFGS7YQZDZ","","null","<img src=""img/food4.png"" style=""width:200px;border:14px solid red;"">","null","","","",""
"","image-keyboard-response","205","134933","0.0-205.0","369J354OFEW336EBE692JLMIJWAG65","A5P12YJP805RG","3SBNLSTU6UR0TCQ1NJ03LFGS7YQZDZ","","378.19999980926514","img/food4.png","75","378.89999985694885","75","1",""
"","html-keyboard-response","206","135234","0.0-206.0","369J354OFEW336EBE692JLMIJWAG65","A5P12YJP805RG","3SBNLSTU6UR0TCQ1NJ03LFGS7YQZDZ","","null","<img src=""img/food4.png"" style=""width:200px; border:14px solid green;"">","null","","","",""
"","image-keyboard-response","207","135525","0.0-207.0","369J354OFEW336EBE692JLMIJWAG65","A5P12YJP805RG","3SBNLSTU6UR0TCQ1NJ03LFGS7YQZDZ","","290.39999985694885","img/food4.png","75","291.10000014305115","75","1",""
"","html-keyboard-response","208","135827","0.0-208.0","369J354OFEW336EBE692JLMIJWAG65","A5P12YJP805RG","3SBNLSTU6UR0TCQ1NJ03LFGS7YQZDZ","","null","<img src=""img/food4.png"" style=""width:200px; border:14px solid green;"">","null","","","",""
"","image-keyboard-response","209","136117","0.0-209.0","369J354OFEW336EBE692JLMIJWAG65","A5P12YJP805RG","3SBNLSTU6UR0TCQ1NJ03LFGS7YQZDZ","","289.40000009536743","img/food4.png","75","290","75","0",""
"","html-keyboard-response","210","136418","0.0-210.0","369J354OFEW336EBE692JLMIJWAG65","A5P12YJP805RG","3SBNLSTU6UR0TCQ1NJ03LFGS7YQZDZ","","null","<img src=""img/food4.png"" style=""width:200px;border:14px solid red;"">","null","","","",""
"","image-keyboard-response","211","136981","0.0-211.0","369J354OFEW336EBE692JLMIJWAG65","A5P12YJP805RG","3SBNLSTU6UR0TCQ1NJ03LFGS7YQZDZ","","562.6000001430511","img/food4.png","75","563.2999999523163","75","1",""
"","html-keyboard-response","212","137283","0.0-212.0","369J354OFEW336EBE692JLMIJWAG65","A5P12YJP805RG","3SBNLSTU6UR0TCQ1NJ03LFGS7YQZDZ","","null","<img src=""img/food4.png"" style=""width:200px; border:14px solid green;"">","null","","","",""
"","image-keyboard-response","213","138461","0.0-213.0","369J354OFEW336EBE692JLMIJWAG65","A5P12YJP805RG","3SBNLSTU6UR0TCQ1NJ03LFGS7YQZDZ","","1178.1000001430511","img/food6.png","75","1178.5999999046326","75","0",""
"","html-keyboard-response","214","138775","0.0-214.0","369J354OFEW336EBE692JLMIJWAG65","A5P12YJP805RG","3SBNLSTU6UR0TCQ1NJ03LFGS7YQZDZ","","null","<img src=""img/food6.png"" style=""width:200px;border:14px solid red;"">","null","","","",""
"","image-keyboard-response","215","139117","0.0-215.0","369J354OFEW336EBE692JLMIJWAG65","A5P12YJP805RG","3SBNLSTU6UR0TCQ1NJ03LFGS7YQZDZ","","341.40000009536743","img/food6.png","75","342","75","0",""
"","html-keyboard-response","216","139420","0.0-216.0","369J354OFEW336EBE692JLMIJWAG65","A5P12YJP805RG","3SBNLSTU6UR0TCQ1NJ03LFGS7YQZDZ","","null","<img src=""img/food6.png"" style=""width:200px;border:14px solid red;"">","null","","","",""
"","image-keyboard-response","217","139821","0.0-217.0","369J354OFEW336EBE692JLMIJWAG65","A5P12YJP805RG","3SBNLSTU6UR0TCQ1NJ03LFGS7YQZDZ","","401.09999990463257","img/food6.png","76","401.60000014305115","76","0",""
"","html-keyboard-response","218","140123","0.0-218.0","369J354OFEW336EBE692JLMIJWAG65","A5P12YJP805RG","3SBNLSTU6UR0TCQ1NJ03LFGS7YQZDZ","","null","<img src=""img/food6.png"" style=""width:200px;border:14px solid red;"">","null","","","",""
"","image-keyboard-response","219","140966","0.0-219.0","369J354OFEW336EBE692JLMIJWAG65","A5P12YJP805RG","3SBNLSTU6UR0TCQ1NJ03LFGS7YQZDZ","","842.4000000953674","img/food4.png","75","842.9000000953674","75","1",""
"","html-keyboard-response","220","141267","0.0-220.0","369J354OFEW336EBE692JLMIJWAG65","A5P12YJP805RG","3SBNLSTU6UR0TCQ1NJ03LFGS7YQZDZ","","null","<img src=""img/food4.png"" style=""width:200px; border:14px solid green;"">","null","","","",""
"","image-keyboard-response","221","141590","0.0-221.0","369J354OFEW336EBE692JLMIJWAG65","A5P12YJP805RG","3SBNLSTU6UR0TCQ1NJ03LFGS7YQZDZ","","322.39999985694885","img/food4.png","75","322.90000009536743","75","0",""
"","html-keyboard-response","222","141891","0.0-222.0","369J354OFEW336EBE692JLMIJWAG65","A5P12YJP805RG","3SBNLSTU6UR0TCQ1NJ03LFGS7YQZDZ","","null","<img src=""img/food4.png"" style=""width:200px;border:14px solid red;"">","null","","","",""
"","image-keyboard-response","223","142966","0.0-223.0","369J354OFEW336EBE692JLMIJWAG65","A5P12YJP805RG","3SBNLSTU6UR0TCQ1NJ03LFGS7YQZDZ","","1075","img/food5.png","74","1075.5999999046326","74","0",""
"","html-keyboard-response","224","143267","0.0-224.0","369J354OFEW336EBE692JLMIJWAG65","A5P12YJP805RG","3SBNLSTU6UR0TCQ1NJ03LFGS7YQZDZ","","null","<img src=""img/food5.png"" style=""width:200px;border:14px solid red;"">","null","","","",""
"","image-keyboard-response","225","144854","0.0-225.0","369J354OFEW336EBE692JLMIJWAG65","A5P12YJP805RG","3SBNLSTU6UR0TCQ1NJ03LFGS7YQZDZ","","1586.1999998092651","img/food4.png","76","1586.7000000476837","76","1",""
"","html-keyboard-response","226","145156","0.0-226.0","369J354OFEW336EBE692JLMIJWAG65","A5P12YJP805RG","3SBNLSTU6UR0TCQ1NJ03LFGS7YQZDZ","","null","<img src=""img/food4.png"" style=""width:200px; border:14px solid green;"">","null","","","",""
"","image-keyboard-response","227","146527","0.0-227.0","369J354OFEW336EBE692JLMIJWAG65","A5P12YJP805RG","3SBNLSTU6UR0TCQ1NJ03LFGS7YQZDZ","","1369.9000000953674","img/food6.png","76","1370.5999999046326","76","1",""
"","html-keyboard-response","228","146828","0.0-228.0","369J354OFEW336EBE692JLMIJWAG65","A5P12YJP805RG","3SBNLSTU6UR0TCQ1NJ03LFGS7YQZDZ","","null","<img src=""img/food6.png"" style=""width:200px; border:14px solid green;"">","null","","","",""
"","image-keyboard-response","229","147119","0.0-229.0","369J354OFEW336EBE692JLMIJWAG65","A5P12YJP805RG","3SBNLSTU6UR0TCQ1NJ03LFGS7YQZDZ","","289.69999980926514","img/food6.png","76","290.2999999523163","76","0",""
"","html-keyboard-response","230","147421","0.0-230.0","369J354OFEW336EBE692JLMIJWAG65","A5P12YJP805RG","3SBNLSTU6UR0TCQ1NJ03LFGS7YQZDZ","","null","<img src=""img/food6.png"" style=""width:200px;border:14px solid red;"">","null","","","",""
"","image-keyboard-response","231","149095","0.0-231.0","369J354OFEW336EBE692JLMIJWAG65","A5P12YJP805RG","3SBNLSTU6UR0TCQ1NJ03LFGS7YQZDZ","","1673.5","img/food5.png","75","1674.1000001430511","75","0",""
"","html-keyboard-response","232","149397","0.0-232.0","369J354OFEW336EBE692JLMIJWAG65","A5P12YJP805RG","3SBNLSTU6UR0TCQ1NJ03LFGS7YQZDZ","","null","<img src=""img/food5.png"" style=""width:200px;border:14px solid red;"">","null","","","",""
"","image-keyboard-response","233","150159","0.0-233.0","369J354OFEW336EBE692JLMIJWAG65","A5P12YJP805RG","3SBNLSTU6UR0TCQ1NJ03LFGS7YQZDZ","","761.7000000476837","img/food4.png","76","762.2000000476837","76","0",""
"","html-keyboard-response","234","150461","0.0-234.0","369J354OFEW336EBE692JLMIJWAG65","A5P12YJP805RG","3SBNLSTU6UR0TCQ1NJ03LFGS7YQZDZ","","null","<img src=""img/food4.png"" style=""width:200px;border:14px solid red;"">","null","","","",""
"","image-keyboard-response","235","150743","0.0-235.0","369J354OFEW336EBE692JLMIJWAG65","A5P12YJP805RG","3SBNLSTU6UR0TCQ1NJ03LFGS7YQZDZ","","281.39999985694885","img/food4.png","76","281.90000009536743","76","1",""
"","html-keyboard-response","236","151045","0.0-236.0","369J354OFEW336EBE692JLMIJWAG65","A5P12YJP805RG","3SBNLSTU6UR0TCQ1NJ03LFGS7YQZDZ","","null","<img src=""img/food4.png"" style=""width:200px; border:14px solid green;"">","null","","","",""
"","image-keyboard-response","237","151664","0.0-237.0","369J354OFEW336EBE692JLMIJWAG65","A5P12YJP805RG","3SBNLSTU6UR0TCQ1NJ03LFGS7YQZDZ","","617.7999999523163","img/food6.png","76","618.5","76","1",""
"","html-keyboard-response","238","151966","0.0-238.0","369J354OFEW336EBE692JLMIJWAG65","A5P12YJP805RG","3SBNLSTU6UR0TCQ1NJ03LFGS7YQZDZ","","null","<img src=""img/food6.png"" style=""width:200px; border:14px solid green;"">","null","","","",""
"","image-keyboard-response","239","152272","0.0-239.0","369J354OFEW336EBE692JLMIJWAG65","A5P12YJP805RG","3SBNLSTU6UR0TCQ1NJ03LFGS7YQZDZ","","305.2000000476837","img/food6.png","76","305.7000000476837","76","1",""
"","html-keyboard-response","240","152573","0.0-240.0","369J354OFEW336EBE692JLMIJWAG65","A5P12YJP805RG","3SBNLSTU6UR0TCQ1NJ03LFGS7YQZDZ","","null","<img src=""img/food6.png"" style=""width:200px; border:14px solid green;"">","null","","","",""
"","image-keyboard-response","241","153520","0.0-241.0","369J354OFEW336EBE692JLMIJWAG65","A5P12YJP805RG","3SBNLSTU6UR0TCQ1NJ03LFGS7YQZDZ","","946.6000001430511","img/food4.png","76","947.4000000953674","76","1",""
"","html-keyboard-response","242","153822","0.0-242.0","369J354OFEW336EBE692JLMIJWAG65","A5P12YJP805RG","3SBNLSTU6UR0TCQ1NJ03LFGS7YQZDZ","","null","<img src=""img/food4.png"" style=""width:200px; border:14px solid green;"">","null","","","",""
"","image-keyboard-response","243","154976","0.0-243.0","369J354OFEW336EBE692JLMIJWAG65","A5P12YJP805RG","3SBNLSTU6UR0TCQ1NJ03LFGS7YQZDZ","","1153.2000000476837","img/food5.png","75","1153.7999999523163","75","0",""
"","html-keyboard-response","244","155278","0.0-244.0","369J354OFEW336EBE692JLMIJWAG65","A5P12YJP805RG","3SBNLSTU6UR0TCQ1NJ03LFGS7YQZDZ","","null","<img src=""img/food5.png"" style=""width:200px;border:14px solid red;"">","null","","","",""
"","image-keyboard-response","245","155913","0.0-245.0","369J354OFEW336EBE692JLMIJWAG65","A5P12YJP805RG","3SBNLSTU6UR0TCQ1NJ03LFGS7YQZDZ","","634.4000000953674","img/food4.png","76","634.7999999523163","76","0",""
"","html-keyboard-response","246","156213","0.0-246.0","369J354OFEW336EBE692JLMIJWAG65","A5P12YJP805RG","3SBNLSTU6UR0TCQ1NJ03LFGS7YQZDZ","","null","<img src=""img/food4.png"" style=""width:200px;border:14px solid red;"">","null","","","",""
"","image-keyboard-response","247","157025","0.0-247.0","369J354OFEW336EBE692JLMIJWAG65","A5P12YJP805RG","3SBNLSTU6UR0TCQ1NJ03LFGS7YQZDZ","","810.5","img/food5.png","75","811","75","0",""
"","html-keyboard-response","248","157326","0.0-248.0","369J354OFEW336EBE692JLMIJWAG65","A5P12YJP805RG","3SBNLSTU6UR0TCQ1NJ03LFGS7YQZDZ","","null","<img src=""img/food5.png"" style=""width:200px;border:14px solid red;"">","null","","","",""
"","image-keyboard-response","249","157641","0.0-249.0","369J354OFEW336EBE692JLMIJWAG65","A5P12YJP805RG","3SBNLSTU6UR0TCQ1NJ03LFGS7YQZDZ","","314.40000009536743","img/food5.png","75","315","75","0",""
"","html-keyboard-response","250","157942","0.0-250.0","369J354OFEW336EBE692JLMIJWAG65","A5P12YJP805RG","3SBNLSTU6UR0TCQ1NJ03LFGS7YQZDZ","","null","<img src=""img/food5.png"" style=""width:200px;border:14px solid red;"">","null","","","",""
"","image-keyboard-response","251","158705","0.0-251.0","369J354OFEW336EBE692JLMIJWAG65","A5P12YJP805RG","3SBNLSTU6UR0TCQ1NJ03LFGS7YQZDZ","","762","img/food6.png","76","762.5","76","1",""
"","html-keyboard-response","252","159007","0.0-252.0","369J354OFEW336EBE692JLMIJWAG65","A5P12YJP805RG","3SBNLSTU6UR0TCQ1NJ03LFGS7YQZDZ","","null","<img src=""img/food6.png"" style=""width:200px; border:14px solid green;"">","null","","","",""
"","image-keyboard-response","253","159305","0.0-253.0","369J354OFEW336EBE692JLMIJWAG65","A5P12YJP805RG","3SBNLSTU6UR0TCQ1NJ03LFGS7YQZDZ","","297.2999999523163","img/food6.png","76","297.90000009536743","76","0",""
"","html-keyboard-response","254","159606","0.0-254.0","369J354OFEW336EBE692JLMIJWAG65","A5P12YJP805RG","3SBNLSTU6UR0TCQ1NJ03LFGS7YQZDZ","","null","<img src=""img/food6.png"" style=""width:200px;border:14px solid red;"">","null","","","",""
"","image-keyboard-response","255","160697","0.0-255.0","369J354OFEW336EBE692JLMIJWAG65","A5P12YJP805RG","3SBNLSTU6UR0TCQ1NJ03LFGS7YQZDZ","","1090.3000001907349","img/food5.png","76","1090.7999999523163","76","1",""
"","html-keyboard-response","256","160999","0.0-256.0","369J354OFEW336EBE692JLMIJWAG65","A5P12YJP805RG","3SBNLSTU6UR0TCQ1NJ03LFGS7YQZDZ","","null","<img src=""img/food5.png"" style=""width:200px; border:14px solid green;"">","null","","","",""
"","image-keyboard-response","257","161281","0.0-257.0","369J354OFEW336EBE692JLMIJWAG65","A5P12YJP805RG","3SBNLSTU6UR0TCQ1NJ03LFGS7YQZDZ","","281.2999999523163","img/food5.png","76","281.90000009536743","76","1",""
"","html-keyboard-response","258","161582","0.0-258.0","369J354OFEW336EBE692JLMIJWAG65","A5P12YJP805RG","3SBNLSTU6UR0TCQ1NJ03LFGS7YQZDZ","","null","<img src=""img/food5.png"" style=""width:200px; border:14px solid green;"">","null","","","",""
"","image-keyboard-response","259","161881","0.0-259.0","369J354OFEW336EBE692JLMIJWAG65","A5P12YJP805RG","3SBNLSTU6UR0TCQ1NJ03LFGS7YQZDZ","","298.2999999523163","img/food5.png","76","298.90000009536743","76","1",""
"","html-keyboard-response","260","162182","0.0-260.0","369J354OFEW336EBE692JLMIJWAG65","A5P12YJP805RG","3SBNLSTU6UR0TCQ1NJ03LFGS7YQZDZ","","null","<img src=""img/food5.png"" style=""width:200px; border:14px solid green;"">","null","","","",""
"","image-keyboard-response","261","162857","0.0-261.0","369J354OFEW336EBE692JLMIJWAG65","A5P12YJP805RG","3SBNLSTU6UR0TCQ1NJ03LFGS7YQZDZ","","674.4000000953674","img/food6.png","76","674.9000000953674","76","1",""
"","html-keyboard-response","262","163159","0.0-262.0","369J354OFEW336EBE692JLMIJWAG65","A5P12YJP805RG","3SBNLSTU6UR0TCQ1NJ03LFGS7YQZDZ","","null","<img src=""img/food6.png"" style=""width:200px; border:14px solid green;"">","null","","","",""
"","image-keyboard-response","263","163722","0.0-263.0","369J354OFEW336EBE692JLMIJWAG65","A5P12YJP805RG","3SBNLSTU6UR0TCQ1NJ03LFGS7YQZDZ","","561.9000000953674","img/food5.png","76","562.5","76","1",""
"","html-keyboard-response","264","164023","0.0-264.0","369J354OFEW336EBE692JLMIJWAG65","A5P12YJP805RG","3SBNLSTU6UR0TCQ1NJ03LFGS7YQZDZ","","null","<img src=""img/food5.png"" style=""width:200px; border:14px solid green;"">","null","","","",""
"","image-keyboard-response","265","164330","0.0-265.0","369J354OFEW336EBE692JLMIJWAG65","A5P12YJP805RG","3SBNLSTU6UR0TCQ1NJ03LFGS7YQZDZ","","306.40000009536743","img/food4.png","76","306.89999985694885","76","1",""
"","html-keyboard-response","266","164631","0.0-266.0","369J354OFEW336EBE692JLMIJWAG65","A5P12YJP805RG","3SBNLSTU6UR0TCQ1NJ03LFGS7YQZDZ","","null","<img src=""img/food4.png"" style=""width:200px; border:14px solid green;"">","null","","","",""
"","image-keyboard-response","267","164962","0.0-267.0","369J354OFEW336EBE692JLMIJWAG65","A5P12YJP805RG","3SBNLSTU6UR0TCQ1NJ03LFGS7YQZDZ","","329.2000000476837","img/food5.png","76","330","76","0",""
"","html-keyboard-response","268","165263","0.0-268.0","369J354OFEW336EBE692JLMIJWAG65","A5P12YJP805RG","3SBNLSTU6UR0TCQ1NJ03LFGS7YQZDZ","","null","<img src=""img/food5.png"" style=""width:200px;border:14px solid red;"">","null","","","",""
"","image-keyboard-response","269","165634","0.0-269.0","369J354OFEW336EBE692JLMIJWAG65","A5P12YJP805RG","3SBNLSTU6UR0TCQ1NJ03LFGS7YQZDZ","","370.2000000476837","img/food5.png","76","370.89999985694885","76","1",""
"","html-keyboard-response","270","165934","0.0-270.0","369J354OFEW336EBE692JLMIJWAG65","A5P12YJP805RG","3SBNLSTU6UR0TCQ1NJ03LFGS7YQZDZ","","null","<img src=""img/food5.png"" style=""width:200px; border:14px solid green;"">","null","","","",""
"","image-keyboard-response","271","166402","0.0-271.0","369J354OFEW336EBE692JLMIJWAG65","A5P12YJP805RG","3SBNLSTU6UR0TCQ1NJ03LFGS7YQZDZ","","466.7999999523163","img/food4.png","76","467.40000009536743","76","1",""
"","html-keyboard-response","272","166703","0.0-272.0","369J354OFEW336EBE692JLMIJWAG65","A5P12YJP805RG","3SBNLSTU6UR0TCQ1NJ03LFGS7YQZDZ","","null","<img src=""img/food4.png"" style=""width:200px; border:14px solid green;"">","null","","","",""
"","image-keyboard-response","273","167282","0.0-273.0","369J354OFEW336EBE692JLMIJWAG65","A5P12YJP805RG","3SBNLSTU6UR0TCQ1NJ03LFGS7YQZDZ","","578.5","img/food5.png","76","579.0999999046326","76","1",""
"","html-keyboard-response","274","167584","0.0-274.0","369J354OFEW336EBE692JLMIJWAG65","A5P12YJP805RG","3SBNLSTU6UR0TCQ1NJ03LFGS7YQZDZ","","null","<img src=""img/food5.png"" style=""width:200px; border:14px solid green;"">","null","","","",""
"","image-keyboard-response","275","167890","0.0-275.0","369J354OFEW336EBE692JLMIJWAG65","A5P12YJP805RG","3SBNLSTU6UR0TCQ1NJ03LFGS7YQZDZ","","305.40000009536743","img/food6.png","76","306.09999990463257","76","1",""
"","html-keyboard-response","276","168191","0.0-276.0","369J354OFEW336EBE692JLMIJWAG65","A5P12YJP805RG","3SBNLSTU6UR0TCQ1NJ03LFGS7YQZDZ","","null","<img src=""img/food6.png"" style=""width:200px; border:14px solid green;"">","null","","","",""
"","image-keyboard-response","277","168562","0.0-277.0","369J354OFEW336EBE692JLMIJWAG65","A5P12YJP805RG","3SBNLSTU6UR0TCQ1NJ03LFGS7YQZDZ","","370.2000000476837","img/food6.png","76","370.69999980926514","76","1",""
"","html-keyboard-response","278","168863","0.0-278.0","369J354OFEW336EBE692JLMIJWAG65","A5P12YJP805RG","3SBNLSTU6UR0TCQ1NJ03LFGS7YQZDZ","","null","<img src=""img/food6.png"" style=""width:200px; border:14px solid green;"">","null","","","",""
"","image-keyboard-response","279","169154","0.0-279.0","369J354OFEW336EBE692JLMIJWAG65","A5P12YJP805RG","3SBNLSTU6UR0TCQ1NJ03LFGS7YQZDZ","","290.7000000476837","img/food6.png","76","291.2000000476837","76","0",""
"","html-keyboard-response","280","169456","0.0-280.0","369J354OFEW336EBE692JLMIJWAG65","A5P12YJP805RG","3SBNLSTU6UR0TCQ1NJ03LFGS7YQZDZ","","null","<img src=""img/food6.png"" style=""width:200px;border:14px solid red;"">","null","","","",""
"","image-keyboard-response","281","169955","0.0-281.0","369J354OFEW336EBE692JLMIJWAG65","A5P12YJP805RG","3SBNLSTU6UR0TCQ1NJ03LFGS7YQZDZ","","497.89999985694885","img/food4.png","76","498.40000009536743","76","0",""
"","html-keyboard-response","282","170256","0.0-282.0","369J354OFEW336EBE692JLMIJWAG65","A5P12YJP805RG","3SBNLSTU6UR0TCQ1NJ03LFGS7YQZDZ","","null","<img src=""img/food4.png"" style=""width:200px;border:14px solid red;"">","null","","","",""
"","image-keyboard-response","283","170667","0.0-283.0","369J354OFEW336EBE692JLMIJWAG65","A5P12YJP805RG","3SBNLSTU6UR0TCQ1NJ03LFGS7YQZDZ","","410.5","img/food5.png","76","410.90000009536743","76","1",""
"","html-keyboard-response","284","170967","0.0-284.0","369J354OFEW336EBE692JLMIJWAG65","A5P12YJP805RG","3SBNLSTU6UR0TCQ1NJ03LFGS7YQZDZ","","null","<img src=""img/food5.png"" style=""width:200px; border:14px solid green;"">","null","","","",""
"","image-keyboard-response","285","171579","0.0-285.0","369J354OFEW336EBE692JLMIJWAG65","A5P12YJP805RG","3SBNLSTU6UR0TCQ1NJ03LFGS7YQZDZ","","610.6000001430511","img/food6.png","76","611.2999999523163","76","1",""
"","html-keyboard-response","286","171880","0.0-286.0","369J354OFEW336EBE692JLMIJWAG65","A5P12YJP805RG","3SBNLSTU6UR0TCQ1NJ03LFGS7YQZDZ","","null","<img src=""img/food6.png"" style=""width:200px; border:14px solid green;"">","null","","","",""
"","image-keyboard-response","287","172363","0.0-287.0","369J354OFEW336EBE692JLMIJWAG65","A5P12YJP805RG","3SBNLSTU6UR0TCQ1NJ03LFGS7YQZDZ","","482.2000000476837","img/food5.png","76","483","76","0",""
"","html-keyboard-response","288","172664","0.0-288.0","369J354OFEW336EBE692JLMIJWAG65","A5P12YJP805RG","3SBNLSTU6UR0TCQ1NJ03LFGS7YQZDZ","","null","<img src=""img/food5.png"" style=""width:200px;border:14px solid red;"">","null","","","",""
"","image-keyboard-response","289","173043","0.0-289.0","369J354OFEW336EBE692JLMIJWAG65","A5P12YJP805RG","3SBNLSTU6UR0TCQ1NJ03LFGS7YQZDZ","","378.09999990463257","img/food6.png","76","378.7000000476837","76","1",""
"","html-keyboard-response","290","173345","0.0-290.0","369J354OFEW336EBE692JLMIJWAG65","A5P12YJP805RG","3SBNLSTU6UR0TCQ1NJ03LFGS7YQZDZ","","null","<img src=""img/food6.png"" style=""width:200px; border:14px solid green;"">","null","","","",""
"","image-keyboard-response","291","173851","0.0-291.0","369J354OFEW336EBE692JLMIJWAG65","A5P12YJP805RG","3SBNLSTU6UR0TCQ1NJ03LFGS7YQZDZ","","504.7999999523163","img/food4.png","76","505.40000009536743","76","1",""
"","html-keyboard-response","292","174153","0.0-292.0","369J354OFEW336EBE692JLMIJWAG65","A5P12YJP805RG","3SBNLSTU6UR0TCQ1NJ03LFGS7YQZDZ","","null","<img src=""img/food4.png"" style=""width:200px; border:14px solid green;"">","null","","","",""
"","image-keyboard-response","293","174691","0.0-293.0","369J354OFEW336EBE692JLMIJWAG65","A5P12YJP805RG","3SBNLSTU6UR0TCQ1NJ03LFGS7YQZDZ","","537.2999999523163","img/food6.png","76","538.0999999046326","76","1",""
"","html-keyboard-response","294","174993","0.0-294.0","369J354OFEW336EBE692JLMIJWAG65","A5P12YJP805RG","3SBNLSTU6UR0TCQ1NJ03LFGS7YQZDZ","","null","<img src=""img/food6.png"" style=""width:200px; border:14px solid green;"">","null","","","",""
"","image-keyboard-response","295","175523","0.0-295.0","369J354OFEW336EBE692JLMIJWAG65","A5P12YJP805RG","3SBNLSTU6UR0TCQ1NJ03LFGS7YQZDZ","","530","img/food5.png","76","530.6000001430511","76","1",""
"","html-keyboard-response","296","175824","0.0-296.0","369J354OFEW336EBE692JLMIJWAG65","A5P12YJP805RG","3SBNLSTU6UR0TCQ1NJ03LFGS7YQZDZ","","null","<img src=""img/food5.png"" style=""width:200px; border:14px solid green;"">","null","","","",""
"","image-keyboard-response","297","176131","0.0-297.0","369J354OFEW336EBE692JLMIJWAG65","A5P12YJP805RG","3SBNLSTU6UR0TCQ1NJ03LFGS7YQZDZ","","306.39999985694885","img/food5.png","76","306.89999985694885","76","0",""
"","html-keyboard-response","298","176432","0.0-298.0","369J354OFEW336EBE692JLMIJWAG65","A5P12YJP805RG","3SBNLSTU6UR0TCQ1NJ03LFGS7YQZDZ","","null","<img src=""img/food5.png"" style=""width:200px;border:14px solid red;"">","null","","","",""
"","image-keyboard-response","299","176739","0.0-299.0","369J354OFEW336EBE692JLMIJWAG65","A5P12YJP805RG","3SBNLSTU6UR0TCQ1NJ03LFGS7YQZDZ","","306.40000009536743","img/food5.png","76","307.10000014305115","76","0",""
"","html-keyboard-response","300","177041","0.0-300.0","369J354OFEW336EBE692JLMIJWAG65","A5P12YJP805RG","3SBNLSTU6UR0TCQ1NJ03LFGS7YQZDZ","","null","<img src=""img/food5.png"" style=""width:200px;border:14px solid red;"">","null","","","",""
"","image-keyboard-response","301","177708","0.0-301.0","369J354OFEW336EBE692JLMIJWAG65","A5P12YJP805RG","3SBNLSTU6UR0TCQ1NJ03LFGS7YQZDZ","","666","img/food6.png","76","666.5","76","1",""
"","html-keyboard-response","302","178009","0.0-302.0","369J354OFEW336EBE692JLMIJWAG65","A5P12YJP805RG","3SBNLSTU6UR0TCQ1NJ03LFGS7YQZDZ","","null","<img src=""img/food6.png"" style=""width:200px; border:14px solid green;"">","null","","","",""
"","image-keyboard-response","303","178292","0.0-303.0","369J354OFEW336EBE692JLMIJWAG65","A5P12YJP805RG","3SBNLSTU6UR0TCQ1NJ03LFGS7YQZDZ","","282","img/food6.png","76","282.5","76","0",""
"","html-keyboard-response","304","178594","0.0-304.0","369J354OFEW336EBE692JLMIJWAG65","A5P12YJP805RG","3SBNLSTU6UR0TCQ1NJ03LFGS7YQZDZ","","null","<img src=""img/food6.png"" style=""width:200px;border:14px solid red;"">","null","","","",""
"","image-keyboard-response","305","179260","0.0-305.0","369J354OFEW336EBE692JLMIJWAG65","A5P12YJP805RG","3SBNLSTU6UR0TCQ1NJ03LFGS7YQZDZ","","665.3999998569489","img/food4.png","76","665.8999998569489","76","0",""
"","html-keyboard-response","306","179561","0.0-306.0","369J354OFEW336EBE692JLMIJWAG65","A5P12YJP805RG","3SBNLSTU6UR0TCQ1NJ03LFGS7YQZDZ","","null","<img src=""img/food4.png"" style=""width:200px;border:14px solid red;"">","null","","","",""
"","image-keyboard-response","307","180308","0.0-307.0","369J354OFEW336EBE692JLMIJWAG65","A5P12YJP805RG","3SBNLSTU6UR0TCQ1NJ03LFGS7YQZDZ","","746","img/food6.png","76","746.5999999046326","76","1",""
"","html-keyboard-response","308","180609","0.0-308.0","369J354OFEW336EBE692JLMIJWAG65","A5P12YJP805RG","3SBNLSTU6UR0TCQ1NJ03LFGS7YQZDZ","","null","<img src=""img/food6.png"" style=""width:200px; border:14px solid green;"">","null","","","",""
"","image-keyboard-response","309","181044","0.0-309.0","369J354OFEW336EBE692JLMIJWAG65","A5P12YJP805RG","3SBNLSTU6UR0TCQ1NJ03LFGS7YQZDZ","","434.39999985694885","img/food5.png","76","435","76","1",""
"","html-keyboard-response","310","181346","0.0-310.0","369J354OFEW336EBE692JLMIJWAG65","A5P12YJP805RG","3SBNLSTU6UR0TCQ1NJ03LFGS7YQZDZ","","null","<img src=""img/food5.png"" style=""width:200px; border:14px solid green;"">","null","","","",""
"","image-keyboard-response","311","181580","0.0-311.0","369J354OFEW336EBE692JLMIJWAG65","A5P12YJP805RG","3SBNLSTU6UR0TCQ1NJ03LFGS7YQZDZ","","233.70000004768372","img/food5.png","76","234.29999995231628","76","1",""
"","html-keyboard-response","312","181882","0.0-312.0","369J354OFEW336EBE692JLMIJWAG65","A5P12YJP805RG","3SBNLSTU6UR0TCQ1NJ03LFGS7YQZDZ","","null","<img src=""img/food5.png"" style=""width:200px; border:14px solid green;"">","null","","","",""
"","image-keyboard-response","313","182276","0.0-313.0","369J354OFEW336EBE692JLMIJWAG65","A5P12YJP805RG","3SBNLSTU6UR0TCQ1NJ03LFGS7YQZDZ","","393.2999999523163","img/food4.png","76","393.90000009536743","76","1",""
"","html-keyboard-response","314","182577","0.0-314.0","369J354OFEW336EBE692JLMIJWAG65","A5P12YJP805RG","3SBNLSTU6UR0TCQ1NJ03LFGS7YQZDZ","","null","<img src=""img/food4.png"" style=""width:200px; border:14px solid green;"">","null","","","",""
"","image-keyboard-response","315","182868","0.0-315.0","369J354OFEW336EBE692JLMIJWAG65","A5P12YJP805RG","3SBNLSTU6UR0TCQ1NJ03LFGS7YQZDZ","","290.39999985694885","img/food5.png","76","291","76","1",""
"","html-keyboard-response","316","183170","0.0-316.0","369J354OFEW336EBE692JLMIJWAG65","A5P12YJP805RG","3SBNLSTU6UR0TCQ1NJ03LFGS7YQZDZ","","null","<img src=""img/food5.png"" style=""width:200px; border:14px solid green;"">","null","","","",""
"","image-keyboard-response","317","183372","0.0-317.0","369J354OFEW336EBE692JLMIJWAG65","A5P12YJP805RG","3SBNLSTU6UR0TCQ1NJ03LFGS7YQZDZ","","201.60000014305115","img/food6.png","76","202.09999990463257","76","1",""
"","html-keyboard-response","318","183674","0.0-318.0","369J354OFEW336EBE692JLMIJWAG65","A5P12YJP805RG","3SBNLSTU6UR0TCQ1NJ03LFGS7YQZDZ","","null","<img src=""img/food6.png"" style=""width:200px; border:14px solid green;"">","null","","","",""
"","image-keyboard-response","319","184005","0.0-319.0","369J354OFEW336EBE692JLMIJWAG65","A5P12YJP805RG","3SBNLSTU6UR0TCQ1NJ03LFGS7YQZDZ","","330","img/food6.png","76","330.5","76","0",""
"","html-keyboard-response","320","184306","0.0-320.0","369J354OFEW336EBE692JLMIJWAG65","A5P12YJP805RG","3SBNLSTU6UR0TCQ1NJ03LFGS7YQZDZ","","null","<img src=""img/food6.png"" style=""width:200px;border:14px solid red;"">","null","","","",""
"","image-keyboard-response","321","184589","0.0-321.0","369J354OFEW336EBE692JLMIJWAG65","A5P12YJP805RG","3SBNLSTU6UR0TCQ1NJ03LFGS7YQZDZ","","282","img/food6.png","76","282.5","76","1",""
"","html-keyboard-response","322","184890","0.0-322.0","369J354OFEW336EBE692JLMIJWAG65","A5P12YJP805RG","3SBNLSTU6UR0TCQ1NJ03LFGS7YQZDZ","","null","<img src=""img/food6.png"" style=""width:200px; border:14px solid green;"">","null","","","",""
"","image-keyboard-response","323","185045","0.0-323.0","369J354OFEW336EBE692JLMIJWAG65","A5P12YJP805RG","3SBNLSTU6UR0TCQ1NJ03LFGS7YQZDZ","","153.90000009536743","img/food6.png","76","154.29999995231628","76","0",""
"","html-keyboard-response","324","185346","0.0-324.0","369J354OFEW336EBE692JLMIJWAG65","A5P12YJP805RG","3SBNLSTU6UR0TCQ1NJ03LFGS7YQZDZ","","null","<img src=""img/food6.png"" style=""width:200px;border:14px solid red;"">","null","","","",""
"","image-keyboard-response","325","185797","0.0-325.0","369J354OFEW336EBE692JLMIJWAG65","A5P12YJP805RG","3SBNLSTU6UR0TCQ1NJ03LFGS7YQZDZ","","449.90000009536743","img/food4.png","76","450.40000009536743","76","1",""
"","html-keyboard-response","326","186098","0.0-326.0","369J354OFEW336EBE692JLMIJWAG65","A5P12YJP805RG","3SBNLSTU6UR0TCQ1NJ03LFGS7YQZDZ","","null","<img src=""img/food4.png"" style=""width:200px; border:14px solid green;"">","null","","","",""
"","image-keyboard-response","327","186421","0.0-327.0","369J354OFEW336EBE692JLMIJWAG65","A5P12YJP805RG","3SBNLSTU6UR0TCQ1NJ03LFGS7YQZDZ","","321.90000009536743","img/food5.png","76","322.40000009536743","76","1",""
"","html-keyboard-response","328","186723","0.0-328.0","369J354OFEW336EBE692JLMIJWAG65","A5P12YJP805RG","3SBNLSTU6UR0TCQ1NJ03LFGS7YQZDZ","","null","<img src=""img/food5.png"" style=""width:200px; border:14px solid green;"">","null","","","",""
"","image-keyboard-response","329","186981","0.0-329.0","369J354OFEW336EBE692JLMIJWAG65","A5P12YJP805RG","3SBNLSTU6UR0TCQ1NJ03LFGS7YQZDZ","","257.10000014305115","img/food5.png","76","257.5","76","1",""
"","html-keyboard-response","330","187283","0.0-330.0","369J354OFEW336EBE692JLMIJWAG65","A5P12YJP805RG","3SBNLSTU6UR0TCQ1NJ03LFGS7YQZDZ","","null","<img src=""img/food5.png"" style=""width:200px; border:14px solid green;"">","null","","","",""
"","image-keyboard-response","331","187485","0.0-331.0","369J354OFEW336EBE692JLMIJWAG65","A5P12YJP805RG","3SBNLSTU6UR0TCQ1NJ03LFGS7YQZDZ","","201.60000014305115","img/food6.png","76","202.29999995231628","76","1",""
"","html-keyboard-response","332","187787","0.0-332.0","369J354OFEW336EBE692JLMIJWAG65","A5P12YJP805RG","3SBNLSTU6UR0TCQ1NJ03LFGS7YQZDZ","","null","<img src=""img/food6.png"" style=""width:200px; border:14px solid green;"">","null","","","",""
"","image-keyboard-response","333","187949","0.0-333.0","369J354OFEW336EBE692JLMIJWAG65","A5P12YJP805RG","3SBNLSTU6UR0TCQ1NJ03LFGS7YQZDZ","","160.89999985694885","img/food4.png","76","161.70000004768372","76","1",""
"","html-keyboard-response","334","188250","0.0-334.0","369J354OFEW336EBE692JLMIJWAG65","A5P12YJP805RG","3SBNLSTU6UR0TCQ1NJ03LFGS7YQZDZ","","null","<img src=""img/food4.png"" style=""width:200px; border:14px solid green;"">","null","","","",""
"","image-keyboard-response","335","188445","0.0-335.0","369J354OFEW336EBE692JLMIJWAG65","A5P12YJP805RG","3SBNLSTU6UR0TCQ1NJ03LFGS7YQZDZ","","194.40000009536743","img/food5.png","76","195","76","1",""
"","html-keyboard-response","336","188747","0.0-336.0","369J354OFEW336EBE692JLMIJWAG65","A5P12YJP805RG","3SBNLSTU6UR0TCQ1NJ03LFGS7YQZDZ","","null","<img src=""img/food5.png"" style=""width:200px; border:14px solid green;"">","null","","","",""
"","image-keyboard-response","337","188949","0.0-337.0","369J354OFEW336EBE692JLMIJWAG65","A5P12YJP805RG","3SBNLSTU6UR0TCQ1NJ03LFGS7YQZDZ","","201.20000004768372","img/food6.png","76","201.69999980926514","76","1",""
"","html-keyboard-response","338","189250","0.0-338.0","369J354OFEW336EBE692JLMIJWAG65","A5P12YJP805RG","3SBNLSTU6UR0TCQ1NJ03LFGS7YQZDZ","","null","<img src=""img/food6.png"" style=""width:200px; border:14px solid green;"">","null","","","",""
"","image-keyboard-response","339","189581","0.0-339.0","369J354OFEW336EBE692JLMIJWAG65","A5P12YJP805RG","3SBNLSTU6UR0TCQ1NJ03LFGS7YQZDZ","","330.39999985694885","img/food6.png","76","331.10000014305115","76","1",""
"","html-keyboard-response","340","189883","0.0-340.0","369J354OFEW336EBE692JLMIJWAG65","A5P12YJP805RG","3SBNLSTU6UR0TCQ1NJ03LFGS7YQZDZ","","null","<img src=""img/food6.png"" style=""width:200px; border:14px solid green;"">","null","","","",""
"","image-keyboard-response","341","190149","0.0-341.0","369J354OFEW336EBE692JLMIJWAG65","A5P12YJP805RG","3SBNLSTU6UR0TCQ1NJ03LFGS7YQZDZ","","266.09999990463257","img/food6.png","76","266.59999990463257","76","1",""
"","html-keyboard-response","342","190451","0.0-342.0","369J354OFEW336EBE692JLMIJWAG65","A5P12YJP805RG","3SBNLSTU6UR0TCQ1NJ03LFGS7YQZDZ","","null","<img src=""img/food6.png"" style=""width:200px; border:14px solid green;"">","null","","","",""
"","image-keyboard-response","343","190693","0.0-343.0","369J354OFEW336EBE692JLMIJWAG65","A5P12YJP805RG","3SBNLSTU6UR0TCQ1NJ03LFGS7YQZDZ","","242","img/food6.png","76","242.70000004768372","76","1",""
"","html-keyboard-response","344","190995","0.0-344.0","369J354OFEW336EBE692JLMIJWAG65","A5P12YJP805RG","3SBNLSTU6UR0TCQ1NJ03LFGS7YQZDZ","","null","<img src=""img/food6.png"" style=""width:200px; border:14px solid green;"">","null","","","",""
"","image-keyboard-response","345","191222","0.0-345.0","369J354OFEW336EBE692JLMIJWAG65","A5P12YJP805RG","3SBNLSTU6UR0TCQ1NJ03LFGS7YQZDZ","","225.90000009536743","img/food4.png","76","226.60000014305115","76","1",""
"","html-keyboard-response","346","191523","0.0-346.0","369J354OFEW336EBE692JLMIJWAG65","A5P12YJP805RG","3SBNLSTU6UR0TCQ1NJ03LFGS7YQZDZ","","null","<img src=""img/food4.png"" style=""width:200px; border:14px solid green;"">","null","","","",""
"","image-keyboard-response","347","192350","0.0-347.0","369J354OFEW336EBE692JLMIJWAG65","A5P12YJP805RG","3SBNLSTU6UR0TCQ1NJ03LFGS7YQZDZ","","825.7999999523163","img/food5.png","76","826.1999998092651","76","1",""
"","html-keyboard-response","348","192650","0.0-348.0","369J354OFEW336EBE692JLMIJWAG65","A5P12YJP805RG","3SBNLSTU6UR0TCQ1NJ03LFGS7YQZDZ","","null","<img src=""img/food5.png"" style=""width:200px; border:14px solid green;"">","null","","","",""
"","image-keyboard-response","349","192838","0.0-349.0","369J354OFEW336EBE692JLMIJWAG65","A5P12YJP805RG","3SBNLSTU6UR0TCQ1NJ03LFGS7YQZDZ","","186.69999980926514","img/food4.png","76","187.40000009536743","76","1",""
"","html-keyboard-response","350","193139","0.0-350.0","369J354OFEW336EBE692JLMIJWAG65","A5P12YJP805RG","3SBNLSTU6UR0TCQ1NJ03LFGS7YQZDZ","","null","<img src=""img/food4.png"" style=""width:200px; border:14px solid green;"">","null","","","",""
"","image-keyboard-response","351","193350","0.0-351.0","369J354OFEW336EBE692JLMIJWAG65","A5P12YJP805RG","3SBNLSTU6UR0TCQ1NJ03LFGS7YQZDZ","","209.90000009536743","img/food4.png","76","210.40000009536743","76","0",""
"","html-keyboard-response","352","193651","0.0-352.0","369J354OFEW336EBE692JLMIJWAG65","A5P12YJP805RG","3SBNLSTU6UR0TCQ1NJ03LFGS7YQZDZ","","null","<img src=""img/food4.png"" style=""width:200px;border:14px solid red;"">","null","","","",""
"","image-keyboard-response","353","193966","0.0-353.0","369J354OFEW336EBE692JLMIJWAG65","A5P12YJP805RG","3SBNLSTU6UR0TCQ1NJ03LFGS7YQZDZ","","313.89999985694885","img/food4.png","76","314.5","76","1",""
"","html-keyboard-response","354","194268","0.0-354.0","369J354OFEW336EBE692JLMIJWAG65","A5P12YJP805RG","3SBNLSTU6UR0TCQ1NJ03LFGS7YQZDZ","","null","<img src=""img/food4.png"" style=""width:200px; border:14px solid green;"">","null","","","",""
"","image-keyboard-response","355","194534","0.0-355.0","369J354OFEW336EBE692JLMIJWAG65","A5P12YJP805RG","3SBNLSTU6UR0TCQ1NJ03LFGS7YQZDZ","","265.7999999523163","img/food5.png","76","266.2999999523163","76","0",""
"","html-keyboard-response","356","194836","0.0-356.0","369J354OFEW336EBE692JLMIJWAG65","A5P12YJP805RG","3SBNLSTU6UR0TCQ1NJ03LFGS7YQZDZ","","null","<img src=""img/food5.png"" style=""width:200px;border:14px solid red;"">","null","","","",""
"","image-keyboard-response","357","195150","0.0-357.0","369J354OFEW336EBE692JLMIJWAG65","A5P12YJP805RG","3SBNLSTU6UR0TCQ1NJ03LFGS7YQZDZ","","313.09999990463257","img/food5.png","76","313.7000000476837","76","0",""
"","html-keyboard-response","358","195451","0.0-358.0","369J354OFEW336EBE692JLMIJWAG65","A5P12YJP805RG","3SBNLSTU6UR0TCQ1NJ03LFGS7YQZDZ","","null","<img src=""img/food5.png"" style=""width:200px;border:14px solid red;"">","null","","","",""
"","image-keyboard-response","359","196102","0.0-359.0","369J354OFEW336EBE692JLMIJWAG65","A5P12YJP805RG","3SBNLSTU6UR0TCQ1NJ03LFGS7YQZDZ","","650.0999999046326","img/food5.png","76","650.7000000476837","76","1",""
"","html-keyboard-response","360","196403","0.0-360.0","369J354OFEW336EBE692JLMIJWAG65","A5P12YJP805RG","3SBNLSTU6UR0TCQ1NJ03LFGS7YQZDZ","","null","<img src=""img/food5.png"" style=""width:200px; border:14px solid green;"">","null","","","",""
"","image-keyboard-response","361","196718","0.0-361.0","369J354OFEW336EBE692JLMIJWAG65","A5P12YJP805RG","3SBNLSTU6UR0TCQ1NJ03LFGS7YQZDZ","","314.10000014305115","img/food4.png","76","314.80000019073486","76","1",""
"","html-keyboard-response","362","197020","0.0-362.0","369J354OFEW336EBE692JLMIJWAG65","A5P12YJP805RG","3SBNLSTU6UR0TCQ1NJ03LFGS7YQZDZ","","null","<img src=""img/food4.png"" style=""width:200px; border:14px solid green;"">","null","","","",""
"","instructions","363","199448","0.0-363.0","369J354OFEW336EBE692JLMIJWAG65","A5P12YJP805RG","3SBNLSTU6UR0TCQ1NJ03LFGS7YQZDZ","[{""page_index"":0,""viewing_time"":2426.9000000953674}]","2427.0999999046326","","","","","",""
"","survey-text","364","204936","0.0-364.0","369J354OFEW336EBE692JLMIJWAG65","A5P12YJP805RG","3SBNLSTU6UR0TCQ1NJ03LFGS7YQZDZ","","5486.799999952316","","","","","","{""Q0"":""A5P12YJP805RG""}"
