"success","trial_type","trial_index","time_elapsed","internal_node_id","assignmentID","mturkID","hitID","view_history","rt","stimulus","key_press","reactionTime","a","r","s","cond","reward_cond","reward_cond_actual","reward_matrix_idx","warning","responses"
"true","fullscreen","0","3938","0.0-0.0","3LOTDFNYA8LVJLXMU4GOZULJ93BFWL","A6THOSGKI6HQC","3THR0FZ95PF7SK0MYRNAOUHTWA4OLV","","","","","","","","","","","","","",""
"","instructions","1","19097","0.0-1.0","3LOTDFNYA8LVJLXMU4GOZULJ93BFWL","A6THOSGKI6HQC","3THR0FZ95PF7SK0MYRNAOUHTWA4OLV","[{""page_index"":0,""viewing_time"":3411.300000190735},{""page_index"":1,""viewing_time"":1136.0999999046326},{""page_index"":2,""viewing_time"":207.90000009536743},{""page_index"":3,""viewing_time"":2544.800000190735},{""page_index"":4,""viewing_time"":4871.199999809265},{""page_index"":5,""viewing_time"":1776.6999998092651},{""page_index"":6,""viewing_time"":1208}]","15156.900000095367","","","","","","","","","","","",""
"","image-keyboard-response","2","21118","0.0-2.0","3LOTDFNYA8LVJLXMU4GOZULJ93BFWL","A6THOSGKI6HQC","3THR0FZ95PF7SK0MYRNAOUHTWA4OLV","","2019.8999996185303","img/food5.png","74","2021.5","1","0","1","1","1,0.7,0,1,0.7,0,0.7,0,1","0,1,0.7,0,1,0.7,1,0.7,0","3","",""
"","html-keyboard-response","3","21422","0.0-3.0","3LOTDFNYA8LVJLXMU4GOZULJ93BFWL","A6THOSGKI6HQC","3THR0FZ95PF7SK0MYRNAOUHTWA4OLV","","null","<img src=""img/food5.png"" style=""width:200px;border:14px solid red;"">","null","","","","","","","","","",""
"","image-keyboard-response","4","21685","0.0-4.0","3LOTDFNYA8LVJLXMU4GOZULJ93BFWL","A6THOSGKI6HQC","3THR0FZ95PF7SK0MYRNAOUHTWA4OLV","","261.90000009536743","img/food6.png","74","262.90000009536743","1","1","3","1","1,0.7,0,1,0.7,0,0.7,0,1","0,1,0.7,0,1,0.7,1,0.7,0","3","",""
"","html-keyboard-response","5","21988","0.0-5.0","3LOTDFNYA8LVJLXMU4GOZULJ93BFWL","A6THOSGKI6HQC","3THR0FZ95PF7SK0MYRNAOUHTWA4OLV","","null","<img src=""img/food6.png"" style=""width:200px; border:14px solid green;"">","null","","","","","","","","","",""
"","image-keyboard-response","6","22326","0.0-6.0","3LOTDFNYA8LVJLXMU4GOZULJ93BFWL","A6THOSGKI6HQC","3THR0FZ95PF7SK0MYRNAOUHTWA4OLV","","336.69999980926514","img/food5.png","74","337.5","1","0","1","1","1,0.7,0,1,0.7,0,0.7,0,1","0,1,0.7,0,1,0.7,1,0.7,0","3","",""
"","html-keyboard-response","7","22629","0.0-7.0","3LOTDFNYA8LVJLXMU4GOZULJ93BFWL","A6THOSGKI6HQC","3THR0FZ95PF7SK0MYRNAOUHTWA4OLV","","null","<img src=""img/food5.png"" style=""width:200px;border:14px solid red;"">","null","","","","","","","","","",""
"","image-keyboard-response","8","22773","0.0-8.0","3LOTDFNYA8LVJLXMU4GOZULJ93BFWL","A6THOSGKI6HQC","3THR0FZ95PF7SK0MYRNAOUHTWA4OLV","","143.5","img/food6.png","76","144.5","3","0","3","1","1,0.7,0,1,0.7,0,0.7,0,1","0,1,0.7,0,1,0.7,1,0.7,0","3","",""
"","html-keyboard-response","9","23076","0.0-9.0","3LOTDFNYA8LVJLXMU4GOZULJ93BFWL","A6THOSGKI6HQC","3THR0FZ95PF7SK0MYRNAOUHTWA4OLV","","null","<img src=""img/food6.png"" style=""width:200px;border:14px solid red;"">","null","","","","","","","","","",""
"","image-keyboard-response","10","23237","0.0-10.0","3LOTDFNYA8LVJLXMU4GOZULJ93BFWL","A6THOSGKI6HQC","3THR0FZ95PF7SK0MYRNAOUHTWA4OLV","","159.7000002861023","img/food5.png","75","160.59999990463257","2","1","1","1","1,0.7,0,1,0.7,0,0.7,0,1","0,1,0.7,0,1,0.7,1,0.7,0","3","",""
"","html-keyboard-response","11","23540","0.0-11.0","3LOTDFNYA8LVJLXMU4GOZULJ93BFWL","A6THOSGKI6HQC","3THR0FZ95PF7SK0MYRNAOUHTWA4OLV","","null","<img src=""img/food5.png"" style=""width:200px; border:14px solid green;"">","null","","","","","","","","","",""
"","image-keyboard-response","12","23637","0.0-12.0","3LOTDFNYA8LVJLXMU4GOZULJ93BFWL","A6THOSGKI6HQC","3THR0FZ95PF7SK0MYRNAOUHTWA4OLV","","96","img/food5.png","74","96.90000009536743","1","0","1","1","1,0.7,0,1,0.7,0,0.7,0,1","0,1,0.7,0,1,0.7,1,0.7,0","3","",""
"","html-keyboard-response","13","23940","0.0-13.0","3LOTDFNYA8LVJLXMU4GOZULJ93BFWL","A6THOSGKI6HQC","3THR0FZ95PF7SK0MYRNAOUHTWA4OLV","","null","<img src=""img/food5.png"" style=""width:200px;border:14px solid red;"">","null","","","","","","","","","",""
"","image-keyboard-response","14","24205","0.0-14.0","3LOTDFNYA8LVJLXMU4GOZULJ93BFWL","A6THOSGKI6HQC","3THR0FZ95PF7SK0MYRNAOUHTWA4OLV","","264","img/food4.png","75","264.7999997138977","2","1","2","1","1,0.7,0,1,0.7,0,0.7,0,1","0,1,0.7,0,1,0.7,1,0.7,0","3","",""
"","html-keyboard-response","15","24507","0.0-15.0","3LOTDFNYA8LVJLXMU4GOZULJ93BFWL","A6THOSGKI6HQC","3THR0FZ95PF7SK0MYRNAOUHTWA4OLV","","null","<img src=""img/food4.png"" style=""width:200px; border:14px solid green;"">","null","","","","","","","","","",""
"","image-keyboard-response","16","24781","0.0-16.0","3LOTDFNYA8LVJLXMU4GOZULJ93BFWL","A6THOSGKI6HQC","3THR0FZ95PF7SK0MYRNAOUHTWA4OLV","","272.59999990463257","img/food5.png","74","273.7000002861023","1","0","1","1","1,0.7,0,1,0.7,0,0.7,0,1","0,1,0.7,0,1,0.7,1,0.7,0","3","",""
"","html-keyboard-response","17","25083","0.0-17.0","3LOTDFNYA8LVJLXMU4GOZULJ93BFWL","A6THOSGKI6HQC","3THR0FZ95PF7SK0MYRNAOUHTWA4OLV","","null","<img src=""img/food5.png"" style=""width:200px;border:14px solid red;"">","null","","","","","","","","","",""
"","image-keyboard-response","18","25342","0.0-18.0","3LOTDFNYA8LVJLXMU4GOZULJ93BFWL","A6THOSGKI6HQC","3THR0FZ95PF7SK0MYRNAOUHTWA4OLV","","257.59999990463257","img/food5.png","74","258.5","1","0","1","1","1,0.7,0,1,0.7,0,0.7,0,1","0,1,0.7,0,1,0.7,1,0.7,0","3","",""
"","html-keyboard-response","19","25645","0.0-19.0","3LOTDFNYA8LVJLXMU4GOZULJ93BFWL","A6THOSGKI6HQC","3THR0FZ95PF7SK0MYRNAOUHTWA4OLV","","null","<img src=""img/food5.png"" style=""width:200px;border:14px solid red;"">","null","","","","","","","","","",""
"","image-keyboard-response","20","25877","0.0-20.0","3LOTDFNYA8LVJLXMU4GOZULJ93BFWL","A6THOSGKI6HQC","3THR0FZ95PF7SK0MYRNAOUHTWA4OLV","","231.09999990463257","img/food5.png","74","232.2000002861023","1","0","1","1","1,0.7,0,1,0.7,0,0.7,0,1","0,1,0.7,0,1,0.7,1,0.7,0","3","",""
"","html-keyboard-response","21","26180","0.0-21.0","3LOTDFNYA8LVJLXMU4GOZULJ93BFWL","A6THOSGKI6HQC","3THR0FZ95PF7SK0MYRNAOUHTWA4OLV","","null","<img src=""img/food5.png"" style=""width:200px;border:14px solid red;"">","null","","","","","","","","","",""
"","image-keyboard-response","22","26350","0.0-22.0","3LOTDFNYA8LVJLXMU4GOZULJ93BFWL","A6THOSGKI6HQC","3THR0FZ95PF7SK0MYRNAOUHTWA4OLV","","169.09999990463257","img/food4.png","75","169.90000009536743","2","1","2","1","1,0.7,0,1,0.7,0,0.7,0,1","0,1,0.7,0,1,0.7,1,0.7,0","3","",""
"","html-keyboard-response","23","26652","0.0-23.0","3LOTDFNYA8LVJLXMU4GOZULJ93BFWL","A6THOSGKI6HQC","3THR0FZ95PF7SK0MYRNAOUHTWA4OLV","","null","<img src=""img/food4.png"" style=""width:200px; border:14px solid green;"">","null","","","","","","","","","",""
"","image-keyboard-response","24","26773","0.0-24.0","3LOTDFNYA8LVJLXMU4GOZULJ93BFWL","A6THOSGKI6HQC","3THR0FZ95PF7SK0MYRNAOUHTWA4OLV","","119.40000009536743","img/food6.png","76","120.2999997138977","3","0","3","1","1,0.7,0,1,0.7,0,0.7,0,1","0,1,0.7,0,1,0.7,1,0.7,0","3","",""
"","html-keyboard-response","25","27075","0.0-25.0","3LOTDFNYA8LVJLXMU4GOZULJ93BFWL","A6THOSGKI6HQC","3THR0FZ95PF7SK0MYRNAOUHTWA4OLV","","null","<img src=""img/food6.png"" style=""width:200px;border:14px solid red;"">","null","","","","","","","","","",""
"","image-keyboard-response","26","27109","0.0-26.0","3LOTDFNYA8LVJLXMU4GOZULJ93BFWL","A6THOSGKI6HQC","3THR0FZ95PF7SK0MYRNAOUHTWA4OLV","","32.799999713897705","img/food6.png","75","33.60000038146973","2","0","3","1","1,0.7,0,1,0.7,0,0.7,0,1","0,1,0.7,0,1,0.7,1,0.7,0","3","",""
"","html-keyboard-response","27","27411","0.0-27.0","3LOTDFNYA8LVJLXMU4GOZULJ93BFWL","A6THOSGKI6HQC","3THR0FZ95PF7SK0MYRNAOUHTWA4OLV","","null","<img src=""img/food6.png"" style=""width:200px;border:14px solid red;"">","null","","","","","","","","","",""
"","image-keyboard-response","28","27581","0.0-28.0","3LOTDFNYA8LVJLXMU4GOZULJ93BFWL","A6THOSGKI6HQC","3THR0FZ95PF7SK0MYRNAOUHTWA4OLV","","168.59999990463257","img/food6.png","74","169.5","1","1","3","1","1,0.7,0,1,0.7,0,0.7,0,1","0,1,0.7,0,1,0.7,1,0.7,0","3","",""
"","html-keyboard-response","29","27883","0.0-29.0","3LOTDFNYA8LVJLXMU4GOZULJ93BFWL","A6THOSGKI6HQC","3THR0FZ95PF7SK0MYRNAOUHTWA4OLV","","null","<img src=""img/food6.png"" style=""width:200px; border:14px solid green;"">","null","","","","","","","","","",""
"","image-keyboard-response","30","28077","0.0-30.0","3LOTDFNYA8LVJLXMU4GOZULJ93BFWL","A6THOSGKI6HQC","3THR0FZ95PF7SK0MYRNAOUHTWA4OLV","","193.40000009536743","img/food6.png","75","194.30000019073486","2","1","3","1","1,0.7,0,1,0.7,0,0.7,0,1","0,1,0.7,0,1,0.7,1,0.7,0","3","",""
"","html-keyboard-response","31","28380","0.0-31.0","3LOTDFNYA8LVJLXMU4GOZULJ93BFWL","A6THOSGKI6HQC","3THR0FZ95PF7SK0MYRNAOUHTWA4OLV","","null","<img src=""img/food6.png"" style=""width:200px; border:14px solid green;"">","null","","","","","","","","","",""
"","image-keyboard-response","32","28381","0.0-32.0","3LOTDFNYA8LVJLXMU4GOZULJ93BFWL","A6THOSGKI6HQC","3THR0FZ95PF7SK0MYRNAOUHTWA4OLV","","0.40000009536743164","img/food6.png","76","1.1999998092651367","3","0","3","1","1,0.7,0,1,0.7,0,0.7,0,1","0,1,0.7,0,1,0.7,1,0.7,0","3","",""
"","html-keyboard-response","33","28683","0.0-33.0","3LOTDFNYA8LVJLXMU4GOZULJ93BFWL","A6THOSGKI6HQC","3THR0FZ95PF7SK0MYRNAOUHTWA4OLV","","null","<img src=""img/food6.png"" style=""width:200px;border:14px solid red;"">","null","","","","","","","","","",""
"","image-keyboard-response","34","28901","0.0-34.0","3LOTDFNYA8LVJLXMU4GOZULJ93BFWL","A6THOSGKI6HQC","3THR0FZ95PF7SK0MYRNAOUHTWA4OLV","","217.09999990463257","img/food6.png","76","218","3","0","3","1","1,0.7,0,1,0.7,0,0.7,0,1","0,1,0.7,0,1,0.7,1,0.7,0","3","",""
"","html-keyboard-response","35","29203","0.0-35.0","3LOTDFNYA8LVJLXMU4GOZULJ93BFWL","A6THOSGKI6HQC","3THR0FZ95PF7SK0MYRNAOUHTWA4OLV","","null","<img src=""img/food6.png"" style=""width:200px;border:14px solid red;"">","null","","","","","","","","","",""
"","image-keyboard-response","36","29325","0.0-36.0","3LOTDFNYA8LVJLXMU4GOZULJ93BFWL","A6THOSGKI6HQC","3THR0FZ95PF7SK0MYRNAOUHTWA4OLV","","120.80000019073486","img/food6.png","76","121.59999990463257","3","0","3","1","1,0.7,0,1,0.7,0,0.7,0,1","0,1,0.7,0,1,0.7,1,0.7,0","3","",""
"","html-keyboard-response","37","29627","0.0-37.0","3LOTDFNYA8LVJLXMU4GOZULJ93BFWL","A6THOSGKI6HQC","3THR0FZ95PF7SK0MYRNAOUHTWA4OLV","","null","<img src=""img/food6.png"" style=""width:200px;border:14px solid red;"">","null","","","","","","","","","",""
"","image-keyboard-response","38","29636","0.0-38.0","3LOTDFNYA8LVJLXMU4GOZULJ93BFWL","A6THOSGKI6HQC","3THR0FZ95PF7SK0MYRNAOUHTWA4OLV","","8.400000095367432","img/food6.png","74","9.400000095367432","1","1","3","1","1,0.7,0,1,0.7,0,0.7,0,1","0,1,0.7,0,1,0.7,1,0.7,0","3","",""
"","html-keyboard-response","39","29938","0.0-39.0","3LOTDFNYA8LVJLXMU4GOZULJ93BFWL","A6THOSGKI6HQC","3THR0FZ95PF7SK0MYRNAOUHTWA4OLV","","null","<img src=""img/food6.png"" style=""width:200px; border:14px solid green;"">","null","","","","","","","","","",""
"","image-keyboard-response","40","30117","0.0-40.0","3LOTDFNYA8LVJLXMU4GOZULJ93BFWL","A6THOSGKI6HQC","3THR0FZ95PF7SK0MYRNAOUHTWA4OLV","","177.90000009536743","img/food6.png","75","178.7999997138977","2","1","3","1","1,0.7,0,1,0.7,0,0.7,0,1","0,1,0.7,0,1,0.7,1,0.7,0","3","",""
"","html-keyboard-response","41","30420","0.0-41.0","3LOTDFNYA8LVJLXMU4GOZULJ93BFWL","A6THOSGKI6HQC","3THR0FZ95PF7SK0MYRNAOUHTWA4OLV","","null","<img src=""img/food6.png"" style=""width:200px; border:14px solid green;"">","null","","","","","","","","","",""
"","image-keyboard-response","42","30565","0.0-42.0","3LOTDFNYA8LVJLXMU4GOZULJ93BFWL","A6THOSGKI6HQC","3THR0FZ95PF7SK0MYRNAOUHTWA4OLV","","143.5","img/food5.png","75","144.5","2","1","1","1","1,0.7,0,1,0.7,0,0.7,0,1","0,1,0.7,0,1,0.7,1,0.7,0","3","",""
"","html-keyboard-response","43","30867","0.0-43.0","3LOTDFNYA8LVJLXMU4GOZULJ93BFWL","A6THOSGKI6HQC","3THR0FZ95PF7SK0MYRNAOUHTWA4OLV","","null","<img src=""img/food5.png"" style=""width:200px; border:14px solid green;"">","null","","","","","","","","","",""
"","image-keyboard-response","44","31020","0.0-44.0","3LOTDFNYA8LVJLXMU4GOZULJ93BFWL","A6THOSGKI6HQC","3THR0FZ95PF7SK0MYRNAOUHTWA4OLV","","152.2000002861023","img/food6.png","74","153.19999980926514","1","1","3","1","1,0.7,0,1,0.7,0,0.7,0,1","0,1,0.7,0,1,0.7,1,0.7,0","3","",""
"","html-keyboard-response","45","31323","0.0-45.0","3LOTDFNYA8LVJLXMU4GOZULJ93BFWL","A6THOSGKI6HQC","3THR0FZ95PF7SK0MYRNAOUHTWA4OLV","","null","<img src=""img/food6.png"" style=""width:200px; border:14px solid green;"">","null","","","","","","","","","",""
"","image-keyboard-response","46","31437","0.0-46.0","3LOTDFNYA8LVJLXMU4GOZULJ93BFWL","A6THOSGKI6HQC","3THR0FZ95PF7SK0MYRNAOUHTWA4OLV","","113.30000019073486","img/food6.png","75","114.09999990463257","2","0","3","1","1,0.7,0,1,0.7,0,0.7,0,1","0,1,0.7,0,1,0.7,1,0.7,0","3","",""
"","html-keyboard-response","47","31740","0.0-47.0","3LOTDFNYA8LVJLXMU4GOZULJ93BFWL","A6THOSGKI6HQC","3THR0FZ95PF7SK0MYRNAOUHTWA4OLV","","null","<img src=""img/food6.png"" style=""width:200px;border:14px solid red;"">","null","","","","","","","","","",""
"","image-keyboard-response","48","31797","0.0-48.0","3LOTDFNYA8LVJLXMU4GOZULJ93BFWL","A6THOSGKI6HQC","3THR0FZ95PF7SK0MYRNAOUHTWA4OLV","","55.90000009536743","img/food4.png","74","56.59999990463257","1","0","2","1","1,0.7,0,1,0.7,0,0.7,0,1","0,1,0.7,0,1,0.7,1,0.7,0","3","",""
"","html-keyboard-response","49","32099","0.0-49.0","3LOTDFNYA8LVJLXMU4GOZULJ93BFWL","A6THOSGKI6HQC","3THR0FZ95PF7SK0MYRNAOUHTWA4OLV","","null","<img src=""img/food4.png"" style=""width:200px;border:14px solid red;"">","null","","","","","","","","","",""
"","image-keyboard-response","50","32333","0.0-50.0","3LOTDFNYA8LVJLXMU4GOZULJ93BFWL","A6THOSGKI6HQC","3THR0FZ95PF7SK0MYRNAOUHTWA4OLV","","233","img/food4.png","74","234.09999990463257","1","0","2","1","1,0.7,0,1,0.7,0,0.7,0,1","0,1,0.7,0,1,0.7,1,0.7,0","3","",""
"","html-keyboard-response","51","32636","0.0-51.0","3LOTDFNYA8LVJLXMU4GOZULJ93BFWL","A6THOSGKI6HQC","3THR0FZ95PF7SK0MYRNAOUHTWA4OLV","","null","<img src=""img/food4.png"" style=""width:200px;border:14px solid red;"">","null","","","","","","","","","",""
"","image-keyboard-response","52","33277","0.0-52.0","3LOTDFNYA8LVJLXMU4GOZULJ93BFWL","A6THOSGKI6HQC","3THR0FZ95PF7SK0MYRNAOUHTWA4OLV","","640.5","img/food5.png","74","641.4000000953674","1","0","1","1","1,0.7,0,1,0.7,0,0.7,0,1","0,1,0.7,0,1,0.7,1,0.7,0","3","",""
"","html-keyboard-response","53","33579","0.0-53.0","3LOTDFNYA8LVJLXMU4GOZULJ93BFWL","A6THOSGKI6HQC","3THR0FZ95PF7SK0MYRNAOUHTWA4OLV","","null","<img src=""img/food5.png"" style=""width:200px;border:14px solid red;"">","null","","","","","","","","","",""
"","image-keyboard-response","54","33629","0.0-54.0","3LOTDFNYA8LVJLXMU4GOZULJ93BFWL","A6THOSGKI6HQC","3THR0FZ95PF7SK0MYRNAOUHTWA4OLV","","48.299999713897705","img/food6.png","74","49.200000286102295","1","1","3","1","1,0.7,0,1,0.7,0,0.7,0,1","0,1,0.7,0,1,0.7,1,0.7,0","3","",""
"","html-keyboard-response","55","33930","0.0-55.0","3LOTDFNYA8LVJLXMU4GOZULJ93BFWL","A6THOSGKI6HQC","3THR0FZ95PF7SK0MYRNAOUHTWA4OLV","","null","<img src=""img/food6.png"" style=""width:200px; border:14px solid green;"">","null","","","","","","","","","",""
"","image-keyboard-response","56","34085","0.0-56.0","3LOTDFNYA8LVJLXMU4GOZULJ93BFWL","A6THOSGKI6HQC","3THR0FZ95PF7SK0MYRNAOUHTWA4OLV","","153.7000002861023","img/food6.png","74","154.5","1","1","3","1","1,0.7,0,1,0.7,0,0.7,0,1","0,1,0.7,0,1,0.7,1,0.7,0","3","",""
"","html-keyboard-response","57","34387","0.0-57.0","3LOTDFNYA8LVJLXMU4GOZULJ93BFWL","A6THOSGKI6HQC","3THR0FZ95PF7SK0MYRNAOUHTWA4OLV","","null","<img src=""img/food6.png"" style=""width:200px; border:14px solid green;"">","null","","","","","","","","","",""
"","image-keyboard-response","58","34389","0.0-58.0","3LOTDFNYA8LVJLXMU4GOZULJ93BFWL","A6THOSGKI6HQC","3THR0FZ95PF7SK0MYRNAOUHTWA4OLV","","1.1000003814697266","img/food4.png","76","1.8000001907348633","3","1","2","1","1,0.7,0,1,0.7,0,0.7,0,1","0,1,0.7,0,1,0.7,1,0.7,0","3","",""
"","html-keyboard-response","59","34691","0.0-59.0","3LOTDFNYA8LVJLXMU4GOZULJ93BFWL","A6THOSGKI6HQC","3THR0FZ95PF7SK0MYRNAOUHTWA4OLV","","null","<img src=""img/food4.png"" style=""width:200px; border:14px solid green;"">","null","","","","","","","","","",""
"","image-keyboard-response","60","34717","0.0-60.0","3LOTDFNYA8LVJLXMU4GOZULJ93BFWL","A6THOSGKI6HQC","3THR0FZ95PF7SK0MYRNAOUHTWA4OLV","","24.5","img/food6.png","74","25.300000190734863","1","1","3","1","1,0.7,0,1,0.7,0,0.7,0,1","0,1,0.7,0,1,0.7,1,0.7,0","3","",""
"","html-keyboard-response","61","35018","0.0-61.0","3LOTDFNYA8LVJLXMU4GOZULJ93BFWL","A6THOSGKI6HQC","3THR0FZ95PF7SK0MYRNAOUHTWA4OLV","","null","<img src=""img/food6.png"" style=""width:200px; border:14px solid green;"">","null","","","","","","","","","",""
"","image-keyboard-response","62","35189","0.0-62.0","3LOTDFNYA8LVJLXMU4GOZULJ93BFWL","A6THOSGKI6HQC","3THR0FZ95PF7SK0MYRNAOUHTWA4OLV","","169.7999997138977","img/food4.png","75","170.5","2","1","2","1","1,0.7,0,1,0.7,0,0.7,0,1","0,1,0.7,0,1,0.7,1,0.7,0","3","",""
"","html-keyboard-response","63","35491","0.0-63.0","3LOTDFNYA8LVJLXMU4GOZULJ93BFWL","A6THOSGKI6HQC","3THR0FZ95PF7SK0MYRNAOUHTWA4OLV","","null","<img src=""img/food4.png"" style=""width:200px; border:14px solid green;"">","null","","","","","","","","","",""
"","image-keyboard-response","64","35565","0.0-64.0","3LOTDFNYA8LVJLXMU4GOZULJ93BFWL","A6THOSGKI6HQC","3THR0FZ95PF7SK0MYRNAOUHTWA4OLV","","73.40000009536743","img/food4.png","76","74.5","3","1","2","1","1,0.7,0,1,0.7,0,0.7,0,1","0,1,0.7,0,1,0.7,1,0.7,0","3","",""
"","html-keyboard-response","65","35868","0.0-65.0","3LOTDFNYA8LVJLXMU4GOZULJ93BFWL","A6THOSGKI6HQC","3THR0FZ95PF7SK0MYRNAOUHTWA4OLV","","null","<img src=""img/food4.png"" style=""width:200px; border:14px solid green;"">","null","","","","","","","","","",""
"","image-keyboard-response","66","36013","0.0-66.0","3LOTDFNYA8LVJLXMU4GOZULJ93BFWL","A6THOSGKI6HQC","3THR0FZ95PF7SK0MYRNAOUHTWA4OLV","","144.90000009536743","img/food6.png","76","145.5","3","0","3","1","1,0.7,0,1,0.7,0,0.7,0,1","0,1,0.7,0,1,0.7,1,0.7,0","3","",""
"","html-keyboard-response","67","36316","0.0-67.0","3LOTDFNYA8LVJLXMU4GOZULJ93BFWL","A6THOSGKI6HQC","3THR0FZ95PF7SK0MYRNAOUHTWA4OLV","","null","<img src=""img/food6.png"" style=""width:200px;border:14px solid red;"">","null","","","","","","","","","",""
"","image-keyboard-response","68","45829","0.0-68.0","3LOTDFNYA8LVJLXMU4GOZULJ93BFWL","A6THOSGKI6HQC","3THR0FZ95PF7SK0MYRNAOUHTWA4OLV","","9512.5","img/food4.png","74","9513.300000190735","1","0","2","1","1,0.7,0,1,0.7,0,0.7,0,1","0,1,0.7,0,1,0.7,1,0.7,0","3","",""
"","html-keyboard-response","69","46132","0.0-69.0","3LOTDFNYA8LVJLXMU4GOZULJ93BFWL","A6THOSGKI6HQC","3THR0FZ95PF7SK0MYRNAOUHTWA4OLV","","null","<img src=""img/food4.png"" style=""width:200px;border:14px solid red;"">","null","","","","","","","","","",""
"","image-keyboard-response","70","46348","0.0-70.0","3LOTDFNYA8LVJLXMU4GOZULJ93BFWL","A6THOSGKI6HQC","3THR0FZ95PF7SK0MYRNAOUHTWA4OLV","","215.5","img/food5.png","76","216.2999997138977","3","0","1","1","1,0.7,0,1,0.7,0,0.7,0,1","0,1,0.7,0,1,0.7,1,0.7,0","3","",""
"","html-keyboard-response","71","46651","0.0-71.0","3LOTDFNYA8LVJLXMU4GOZULJ93BFWL","A6THOSGKI6HQC","3THR0FZ95PF7SK0MYRNAOUHTWA4OLV","","null","<img src=""img/food5.png"" style=""width:200px;border:14px solid red;"">","null","","","","","","","","","",""
"","image-keyboard-response","72","46820","0.0-72.0","3LOTDFNYA8LVJLXMU4GOZULJ93BFWL","A6THOSGKI6HQC","3THR0FZ95PF7SK0MYRNAOUHTWA4OLV","","168.19999980926514","img/food4.png","75","169.40000009536743","2","1","2","1","1,0.7,0,1,0.7,0,0.7,0,1","0,1,0.7,0,1,0.7,1,0.7,0","3","",""
"","html-keyboard-response","73","47123","0.0-73.0","3LOTDFNYA8LVJLXMU4GOZULJ93BFWL","A6THOSGKI6HQC","3THR0FZ95PF7SK0MYRNAOUHTWA4OLV","","null","<img src=""img/food4.png"" style=""width:200px; border:14px solid green;"">","null","","","","","","","","","",""
"","image-keyboard-response","74","47260","0.0-74.0","3LOTDFNYA8LVJLXMU4GOZULJ93BFWL","A6THOSGKI6HQC","3THR0FZ95PF7SK0MYRNAOUHTWA4OLV","","136.90000009536743","img/food6.png","74","137.59999990463257","1","1","3","1","1,0.7,0,1,0.7,0,0.7,0,1","0,1,0.7,0,1,0.7,1,0.7,0","3","",""
"","html-keyboard-response","75","47563","0.0-75.0","3LOTDFNYA8LVJLXMU4GOZULJ93BFWL","A6THOSGKI6HQC","3THR0FZ95PF7SK0MYRNAOUHTWA4OLV","","null","<img src=""img/food6.png"" style=""width:200px; border:14px solid green;"">","null","","","","","","","","","",""
"","image-keyboard-response","76","47692","0.0-76.0","3LOTDFNYA8LVJLXMU4GOZULJ93BFWL","A6THOSGKI6HQC","3THR0FZ95PF7SK0MYRNAOUHTWA4OLV","","127.7000002861023","img/food6.png","75","128.69999980926514","2","1","3","1","1,0.7,0,1,0.7,0,0.7,0,1","0,1,0.7,0,1,0.7,1,0.7,0","3","",""
"","html-keyboard-response","77","47995","0.0-77.0","3LOTDFNYA8LVJLXMU4GOZULJ93BFWL","A6THOSGKI6HQC","3THR0FZ95PF7SK0MYRNAOUHTWA4OLV","","null","<img src=""img/food6.png"" style=""width:200px; border:14px solid green;"">","null","","","","","","","","","",""
"","image-keyboard-response","78","48228","0.0-78.0","3LOTDFNYA8LVJLXMU4GOZULJ93BFWL","A6THOSGKI6HQC","3THR0FZ95PF7SK0MYRNAOUHTWA4OLV","","232","img/food4.png","75","232.69999980926514","2","1","2","1","1,0.7,0,1,0.7,0,0.7,0,1","0,1,0.7,0,1,0.7,1,0.7,0","3","",""
"","html-keyboard-response","79","48531","0.0-79.0","3LOTDFNYA8LVJLXMU4GOZULJ93BFWL","A6THOSGKI6HQC","3THR0FZ95PF7SK0MYRNAOUHTWA4OLV","","null","<img src=""img/food4.png"" style=""width:200px; border:14px solid green;"">","null","","","","","","","","","",""
"","image-keyboard-response","80","48564","0.0-80.0","3LOTDFNYA8LVJLXMU4GOZULJ93BFWL","A6THOSGKI6HQC","3THR0FZ95PF7SK0MYRNAOUHTWA4OLV","","31.699999809265137","img/food5.png","74","32.700000286102295","1","0","1","1","1,0.7,0,1,0.7,0,0.7,0,1","0,1,0.7,0,1,0.7,1,0.7,0","3","",""
"","html-keyboard-response","81","48866","0.0-81.0","3LOTDFNYA8LVJLXMU4GOZULJ93BFWL","A6THOSGKI6HQC","3THR0FZ95PF7SK0MYRNAOUHTWA4OLV","","null","<img src=""img/food5.png"" style=""width:200px;border:14px solid red;"">","null","","","","","","","","","",""
"","image-keyboard-response","82","48908","0.0-82.0","3LOTDFNYA8LVJLXMU4GOZULJ93BFWL","A6THOSGKI6HQC","3THR0FZ95PF7SK0MYRNAOUHTWA4OLV","","41.30000019073486","img/food4.png","75","42.19999980926514","2","1","2","1","1,0.7,0,1,0.7,0,0.7,0,1","0,1,0.7,0,1,0.7,1,0.7,0","3","",""
"","html-keyboard-response","83","49210","0.0-83.0","3LOTDFNYA8LVJLXMU4GOZULJ93BFWL","A6THOSGKI6HQC","3THR0FZ95PF7SK0MYRNAOUHTWA4OLV","","null","<img src=""img/food4.png"" style=""width:200px; border:14px solid green;"">","null","","","","","","","","","",""
"","image-keyboard-response","84","49500","0.0-84.0","3LOTDFNYA8LVJLXMU4GOZULJ93BFWL","A6THOSGKI6HQC","3THR0FZ95PF7SK0MYRNAOUHTWA4OLV","","289.09999990463257","img/food4.png","76","289.90000009536743","3","1","2","1","1,0.7,0,1,0.7,0,0.7,0,1","0,1,0.7,0,1,0.7,1,0.7,0","3","",""
"","html-keyboard-response","85","49803","0.0-85.0","3LOTDFNYA8LVJLXMU4GOZULJ93BFWL","A6THOSGKI6HQC","3THR0FZ95PF7SK0MYRNAOUHTWA4OLV","","null","<img src=""img/food4.png"" style=""width:200px; border:14px solid green;"">","null","","","","","","","","","",""
"","image-keyboard-response","86","49852","0.0-86.0","3LOTDFNYA8LVJLXMU4GOZULJ93BFWL","A6THOSGKI6HQC","3THR0FZ95PF7SK0MYRNAOUHTWA4OLV","","48.69999980926514","img/food6.png","75","49.60000038146973","2","1","3","1","1,0.7,0,1,0.7,0,0.7,0,1","0,1,0.7,0,1,0.7,1,0.7,0","3","",""
"","html-keyboard-response","87","50155","0.0-87.0","3LOTDFNYA8LVJLXMU4GOZULJ93BFWL","A6THOSGKI6HQC","3THR0FZ95PF7SK0MYRNAOUHTWA4OLV","","null","<img src=""img/food6.png"" style=""width:200px; border:14px solid green;"">","null","","","","","","","","","",""
"","image-keyboard-response","88","50460","0.0-88.0","3LOTDFNYA8LVJLXMU4GOZULJ93BFWL","A6THOSGKI6HQC","3THR0FZ95PF7SK0MYRNAOUHTWA4OLV","","304.7000002861023","img/food4.png","76","305.5","3","1","2","1","1,0.7,0,1,0.7,0,0.7,0,1","0,1,0.7,0,1,0.7,1,0.7,0","3","",""
"","html-keyboard-response","89","50762","0.0-89.0","3LOTDFNYA8LVJLXMU4GOZULJ93BFWL","A6THOSGKI6HQC","3THR0FZ95PF7SK0MYRNAOUHTWA4OLV","","null","<img src=""img/food4.png"" style=""width:200px; border:14px solid green;"">","null","","","","","","","","","",""
"","image-keyboard-response","90","50956","0.0-90.0","3LOTDFNYA8LVJLXMU4GOZULJ93BFWL","A6THOSGKI6HQC","3THR0FZ95PF7SK0MYRNAOUHTWA4OLV","","192.19999980926514","img/food6.png","76","193.09999990463257","3","0","3","1","1,0.7,0,1,0.7,0,0.7,0,1","0,1,0.7,0,1,0.7,1,0.7,0","3","",""
"","html-keyboard-response","91","51258","0.0-91.0","3LOTDFNYA8LVJLXMU4GOZULJ93BFWL","A6THOSGKI6HQC","3THR0FZ95PF7SK0MYRNAOUHTWA4OLV","","null","<img src=""img/food6.png"" style=""width:200px;border:14px solid red;"">","null","","","","","","","","","",""
"","image-keyboard-response","92","51284","0.0-92.0","3LOTDFNYA8LVJLXMU4GOZULJ93BFWL","A6THOSGKI6HQC","3THR0FZ95PF7SK0MYRNAOUHTWA4OLV","","25.09999990463257","img/food5.png","75","25.799999713897705","2","1","1","1","1,0.7,0,1,0.7,0,0.7,0,1","0,1,0.7,0,1,0.7,1,0.7,0","3","",""
"","html-keyboard-response","93","51587","0.0-93.0","3LOTDFNYA8LVJLXMU4GOZULJ93BFWL","A6THOSGKI6HQC","3THR0FZ95PF7SK0MYRNAOUHTWA4OLV","","null","<img src=""img/food5.png"" style=""width:200px; border:14px solid green;"">","null","","","","","","","","","",""
"","image-keyboard-response","94","51805","0.0-94.0","3LOTDFNYA8LVJLXMU4GOZULJ93BFWL","A6THOSGKI6HQC","3THR0FZ95PF7SK0MYRNAOUHTWA4OLV","","216.7000002861023","img/food6.png","75","217.5","2","0","3","1","1,0.7,0,1,0.7,0,0.7,0,1","0,1,0.7,0,1,0.7,1,0.7,0","3","",""
"","html-keyboard-response","95","52107","0.0-95.0","3LOTDFNYA8LVJLXMU4GOZULJ93BFWL","A6THOSGKI6HQC","3THR0FZ95PF7SK0MYRNAOUHTWA4OLV","","null","<img src=""img/food6.png"" style=""width:200px;border:14px solid red;"">","null","","","","","","","","","",""
"","image-keyboard-response","96","52348","0.0-96.0","3LOTDFNYA8LVJLXMU4GOZULJ93BFWL","A6THOSGKI6HQC","3THR0FZ95PF7SK0MYRNAOUHTWA4OLV","","239.90000009536743","img/food4.png","74","240.80000019073486","1","0","2","1","1,0.7,0,1,0.7,0,0.7,0,1","0,1,0.7,0,1,0.7,1,0.7,0","3","",""
"","html-keyboard-response","97","52650","0.0-97.0","3LOTDFNYA8LVJLXMU4GOZULJ93BFWL","A6THOSGKI6HQC","3THR0FZ95PF7SK0MYRNAOUHTWA4OLV","","null","<img src=""img/food4.png"" style=""width:200px;border:14px solid red;"">","null","","","","","","","","","",""
"","image-keyboard-response","98","52653","0.0-98.0","3LOTDFNYA8LVJLXMU4GOZULJ93BFWL","A6THOSGKI6HQC","3THR0FZ95PF7SK0MYRNAOUHTWA4OLV","","1.6999998092651367","img/food6.png","74","2.5999999046325684","1","1","3","1","1,0.7,0,1,0.7,0,0.7,0,1","0,1,0.7,0,1,0.7,1,0.7,0","3","",""
"","html-keyboard-response","99","52955","0.0-99.0","3LOTDFNYA8LVJLXMU4GOZULJ93BFWL","A6THOSGKI6HQC","3THR0FZ95PF7SK0MYRNAOUHTWA4OLV","","null","<img src=""img/food6.png"" style=""width:200px; border:14px solid green;"">","null","","","","","","","","","",""
"","image-keyboard-response","100","53084","0.0-100.0","3LOTDFNYA8LVJLXMU4GOZULJ93BFWL","A6THOSGKI6HQC","3THR0FZ95PF7SK0MYRNAOUHTWA4OLV","","128.5","img/food5.png","75","129.30000019073486","2","1","1","1","1,0.7,0,1,0.7,0,0.7,0,1","0,1,0.7,0,1,0.7,1,0.7,0","3","",""
"","html-keyboard-response","101","53387","0.0-101.0","3LOTDFNYA8LVJLXMU4GOZULJ93BFWL","A6THOSGKI6HQC","3THR0FZ95PF7SK0MYRNAOUHTWA4OLV","","null","<img src=""img/food5.png"" style=""width:200px; border:14px solid green;"">","null","","","","","","","","","",""
"","image-keyboard-response","102","53452","0.0-102.0","3LOTDFNYA8LVJLXMU4GOZULJ93BFWL","A6THOSGKI6HQC","3THR0FZ95PF7SK0MYRNAOUHTWA4OLV","","64.80000019073486","img/food5.png","76","65.80000019073486","3","0","1","1","1,0.7,0,1,0.7,0,0.7,0,1","0,1,0.7,0,1,0.7,1,0.7,0","3","",""
"","html-keyboard-response","103","53754","0.0-103.0","3LOTDFNYA8LVJLXMU4GOZULJ93BFWL","A6THOSGKI6HQC","3THR0FZ95PF7SK0MYRNAOUHTWA4OLV","","null","<img src=""img/food5.png"" style=""width:200px;border:14px solid red;"">","null","","","","","","","","","",""
"","image-keyboard-response","104","53788","0.0-104.0","3LOTDFNYA8LVJLXMU4GOZULJ93BFWL","A6THOSGKI6HQC","3THR0FZ95PF7SK0MYRNAOUHTWA4OLV","","32.80000019073486","img/food4.png","74","33.59999990463257","1","0","2","1","1,0.7,0,1,0.7,0,0.7,0,1","0,1,0.7,0,1,0.7,1,0.7,0","3","",""
"","html-keyboard-response","105","54090","0.0-105.0","3LOTDFNYA8LVJLXMU4GOZULJ93BFWL","A6THOSGKI6HQC","3THR0FZ95PF7SK0MYRNAOUHTWA4OLV","","null","<img src=""img/food4.png"" style=""width:200px;border:14px solid red;"">","null","","","","","","","","","",""
"","image-keyboard-response","106","54260","0.0-106.0","3LOTDFNYA8LVJLXMU4GOZULJ93BFWL","A6THOSGKI6HQC","3THR0FZ95PF7SK0MYRNAOUHTWA4OLV","","168.7999997138977","img/food6.png","76","169.69999980926514","3","0","3","1","1,0.7,0,1,0.7,0,0.7,0,1","0,1,0.7,0,1,0.7,1,0.7,0","3","",""
"","html-keyboard-response","107","54562","0.0-107.0","3LOTDFNYA8LVJLXMU4GOZULJ93BFWL","A6THOSGKI6HQC","3THR0FZ95PF7SK0MYRNAOUHTWA4OLV","","null","<img src=""img/food6.png"" style=""width:200px;border:14px solid red;"">","null","","","","","","","","","",""
"","image-keyboard-response","108","54949","0.0-108.0","3LOTDFNYA8LVJLXMU4GOZULJ93BFWL","A6THOSGKI6HQC","3THR0FZ95PF7SK0MYRNAOUHTWA4OLV","","385.2999997138977","img/food6.png","74","386.30000019073486","1","1","3","1","1,0.7,0,1,0.7,0,0.7,0,1","0,1,0.7,0,1,0.7,1,0.7,0","3","",""
"","html-keyboard-response","109","55251","0.0-109.0","3LOTDFNYA8LVJLXMU4GOZULJ93BFWL","A6THOSGKI6HQC","3THR0FZ95PF7SK0MYRNAOUHTWA4OLV","","null","<img src=""img/food6.png"" style=""width:200px; border:14px solid green;"">","null","","","","","","","","","",""
"","image-keyboard-response","110","55532","0.0-110.0","3LOTDFNYA8LVJLXMU4GOZULJ93BFWL","A6THOSGKI6HQC","3THR0FZ95PF7SK0MYRNAOUHTWA4OLV","","280.2000002861023","img/food5.png","74","281.19999980926514","1","0","1","1","1,0.7,0,1,0.7,0,0.7,0,1","0,1,0.7,0,1,0.7,1,0.7,0","3","",""
"","html-keyboard-response","111","55835","0.0-111.0","3LOTDFNYA8LVJLXMU4GOZULJ93BFWL","A6THOSGKI6HQC","3THR0FZ95PF7SK0MYRNAOUHTWA4OLV","","null","<img src=""img/food5.png"" style=""width:200px;border:14px solid red;"">","null","","","","","","","","","",""
"","image-keyboard-response","112","55844","0.0-112.0","3LOTDFNYA8LVJLXMU4GOZULJ93BFWL","A6THOSGKI6HQC","3THR0FZ95PF7SK0MYRNAOUHTWA4OLV","","8.400000095367432","img/food5.png","76","9.199999809265137","3","1","1","1","1,0.7,0,1,0.7,0,0.7,0,1","0,1,0.7,0,1,0.7,1,0.7,0","3","",""
"","html-keyboard-response","113","56147","0.0-113.0","3LOTDFNYA8LVJLXMU4GOZULJ93BFWL","A6THOSGKI6HQC","3THR0FZ95PF7SK0MYRNAOUHTWA4OLV","","null","<img src=""img/food5.png"" style=""width:200px; border:14px solid green;"">","null","","","","","","","","","",""
"","image-keyboard-response","114","56149","0.0-114.0","3LOTDFNYA8LVJLXMU4GOZULJ93BFWL","A6THOSGKI6HQC","3THR0FZ95PF7SK0MYRNAOUHTWA4OLV","","1.299999713897705","img/food5.png","75","2.200000286102295","2","1","1","1","1,0.7,0,1,0.7,0,0.7,0,1","0,1,0.7,0,1,0.7,1,0.7,0","3","",""
"","html-keyboard-response","115","56452","0.0-115.0","3LOTDFNYA8LVJLXMU4GOZULJ93BFWL","A6THOSGKI6HQC","3THR0FZ95PF7SK0MYRNAOUHTWA4OLV","","null","<img src=""img/food5.png"" style=""width:200px; border:14px solid green;"">","null","","","","","","","","","",""
"","image-keyboard-response","116","56620","0.0-116.0","3LOTDFNYA8LVJLXMU4GOZULJ93BFWL","A6THOSGKI6HQC","3THR0FZ95PF7SK0MYRNAOUHTWA4OLV","","166.7999997138977","img/food6.png","74","167.80000019073486","1","1","3","1","1,0.7,0,1,0.7,0,0.7,0,1","0,1,0.7,0,1,0.7,1,0.7,0","3","",""
"","html-keyboard-response","117","56922","0.0-117.0","3LOTDFNYA8LVJLXMU4GOZULJ93BFWL","A6THOSGKI6HQC","3THR0FZ95PF7SK0MYRNAOUHTWA4OLV","","null","<img src=""img/food6.png"" style=""width:200px; border:14px solid green;"">","null","","","","","","","","","",""
"","image-keyboard-response","118","57188","0.0-118.0","3LOTDFNYA8LVJLXMU4GOZULJ93BFWL","A6THOSGKI6HQC","3THR0FZ95PF7SK0MYRNAOUHTWA4OLV","","264.30000019073486","img/food4.png","74","265.19999980926514","1","0","2","1","1,0.7,0,1,0.7,0,0.7,0,1","0,1,0.7,0,1,0.7,1,0.7,0","3","",""
"","html-keyboard-response","119","57490","0.0-119.0","3LOTDFNYA8LVJLXMU4GOZULJ93BFWL","A6THOSGKI6HQC","3THR0FZ95PF7SK0MYRNAOUHTWA4OLV","","null","<img src=""img/food4.png"" style=""width:200px;border:14px solid red;"">","null","","","","","","","","","",""
"","image-keyboard-response","120","57684","0.0-120.0","3LOTDFNYA8LVJLXMU4GOZULJ93BFWL","A6THOSGKI6HQC","3THR0FZ95PF7SK0MYRNAOUHTWA4OLV","","193.40000009536743","img/food5.png","75","194.2999997138977","2","1","1","1","1,0.7,0,1,0.7,0,0.7,0,1","0,1,0.7,0,1,0.7,1,0.7,0","3","",""
"","html-keyboard-response","121","57987","0.0-121.0","3LOTDFNYA8LVJLXMU4GOZULJ93BFWL","A6THOSGKI6HQC","3THR0FZ95PF7SK0MYRNAOUHTWA4OLV","","null","<img src=""img/food5.png"" style=""width:200px; border:14px solid green;"">","null","","","","","","","","","",""
"","image-keyboard-response","122","58004","0.0-122.0","3LOTDFNYA8LVJLXMU4GOZULJ93BFWL","A6THOSGKI6HQC","3THR0FZ95PF7SK0MYRNAOUHTWA4OLV","","16.200000286102295","img/food5.png","76","17.199999809265137","3","1","1","1","1,0.7,0,1,0.7,0,0.7,0,1","0,1,0.7,0,1,0.7,1,0.7,0","3","",""
"","html-keyboard-response","123","58307","0.0-123.0","3LOTDFNYA8LVJLXMU4GOZULJ93BFWL","A6THOSGKI6HQC","3THR0FZ95PF7SK0MYRNAOUHTWA4OLV","","null","<img src=""img/food5.png"" style=""width:200px; border:14px solid green;"">","null","","","","","","","","","",""
"","image-keyboard-response","124","58461","0.0-124.0","3LOTDFNYA8LVJLXMU4GOZULJ93BFWL","A6THOSGKI6HQC","3THR0FZ95PF7SK0MYRNAOUHTWA4OLV","","153.5","img/food5.png","76","154.30000019073486","3","1","1","1","1,0.7,0,1,0.7,0,0.7,0,1","0,1,0.7,0,1,0.7,1,0.7,0","3","",""
"","html-keyboard-response","125","58764","0.0-125.0","3LOTDFNYA8LVJLXMU4GOZULJ93BFWL","A6THOSGKI6HQC","3THR0FZ95PF7SK0MYRNAOUHTWA4OLV","","null","<img src=""img/food5.png"" style=""width:200px; border:14px solid green;"">","null","","","","","","","","","",""
"","image-keyboard-response","126","58788","0.0-126.0","3LOTDFNYA8LVJLXMU4GOZULJ93BFWL","A6THOSGKI6HQC","3THR0FZ95PF7SK0MYRNAOUHTWA4OLV","","23","img/food5.png","75","23.90000009536743","2","1","1","1","1,0.7,0,1,0.7,0,0.7,0,1","0,1,0.7,0,1,0.7,1,0.7,0","3","",""
"","html-keyboard-response","127","59090","0.0-127.0","3LOTDFNYA8LVJLXMU4GOZULJ93BFWL","A6THOSGKI6HQC","3THR0FZ95PF7SK0MYRNAOUHTWA4OLV","","null","<img src=""img/food5.png"" style=""width:200px; border:14px solid green;"">","null","","","","","","","","","",""
"","image-keyboard-response","128","59284","0.0-128.0","3LOTDFNYA8LVJLXMU4GOZULJ93BFWL","A6THOSGKI6HQC","3THR0FZ95PF7SK0MYRNAOUHTWA4OLV","","193.5","img/food4.png","75","194.2999997138977","2","1","2","1","1,0.7,0,1,0.7,0,0.7,0,1","0,1,0.7,0,1,0.7,1,0.7,0","3","",""
"","html-keyboard-response","129","59587","0.0-129.0","3LOTDFNYA8LVJLXMU4GOZULJ93BFWL","A6THOSGKI6HQC","3THR0FZ95PF7SK0MYRNAOUHTWA4OLV","","null","<img src=""img/food4.png"" style=""width:200px; border:14px solid green;"">","null","","","","","","","","","",""
"","image-keyboard-response","130","59604","0.0-130.0","3LOTDFNYA8LVJLXMU4GOZULJ93BFWL","A6THOSGKI6HQC","3THR0FZ95PF7SK0MYRNAOUHTWA4OLV","","16.700000286102295","img/food6.png","76","17.59999990463257","3","0","3","1","1,0.7,0,1,0.7,0,0.7,0,1","0,1,0.7,0,1,0.7,1,0.7,0","3","",""
"","html-keyboard-response","131","59907","0.0-131.0","3LOTDFNYA8LVJLXMU4GOZULJ93BFWL","A6THOSGKI6HQC","3THR0FZ95PF7SK0MYRNAOUHTWA4OLV","","null","<img src=""img/food6.png"" style=""width:200px;border:14px solid red;"">","null","","","","","","","","","",""
"","image-keyboard-response","132","60132","0.0-132.0","3LOTDFNYA8LVJLXMU4GOZULJ93BFWL","A6THOSGKI6HQC","3THR0FZ95PF7SK0MYRNAOUHTWA4OLV","","223.80000019073486","img/food5.png","76","224.80000019073486","3","1","1","1","1,0.7,0,1,0.7,0,0.7,0,1","0,1,0.7,0,1,0.7,1,0.7,0","3","",""
"","html-keyboard-response","133","60435","0.0-133.0","3LOTDFNYA8LVJLXMU4GOZULJ93BFWL","A6THOSGKI6HQC","3THR0FZ95PF7SK0MYRNAOUHTWA4OLV","","null","<img src=""img/food5.png"" style=""width:200px; border:14px solid green;"">","null","","","","","","","","","",""
"","image-keyboard-response","134","60500","0.0-134.0","3LOTDFNYA8LVJLXMU4GOZULJ93BFWL","A6THOSGKI6HQC","3THR0FZ95PF7SK0MYRNAOUHTWA4OLV","","64.30000019073486","img/food4.png","75","65.09999990463257","2","1","2","1","1,0.7,0,1,0.7,0,0.7,0,1","0,1,0.7,0,1,0.7,1,0.7,0","3","",""
"","html-keyboard-response","135","60803","0.0-135.0","3LOTDFNYA8LVJLXMU4GOZULJ93BFWL","A6THOSGKI6HQC","3THR0FZ95PF7SK0MYRNAOUHTWA4OLV","","null","<img src=""img/food4.png"" style=""width:200px; border:14px solid green;"">","null","","","","","","","","","",""
"","image-keyboard-response","136","60844","0.0-136.0","3LOTDFNYA8LVJLXMU4GOZULJ93BFWL","A6THOSGKI6HQC","3THR0FZ95PF7SK0MYRNAOUHTWA4OLV","","40.19999980926514","img/food5.png","74","41.09999990463257","1","0","1","1","1,0.7,0,1,0.7,0,0.7,0,1","0,1,0.7,0,1,0.7,1,0.7,0","3","",""
"","html-keyboard-response","137","61147","0.0-137.0","3LOTDFNYA8LVJLXMU4GOZULJ93BFWL","A6THOSGKI6HQC","3THR0FZ95PF7SK0MYRNAOUHTWA4OLV","","null","<img src=""img/food5.png"" style=""width:200px;border:14px solid red;"">","null","","","","","","","","","",""
"","image-keyboard-response","138","61292","0.0-138.0","3LOTDFNYA8LVJLXMU4GOZULJ93BFWL","A6THOSGKI6HQC","3THR0FZ95PF7SK0MYRNAOUHTWA4OLV","","144.5","img/food4.png","76","145.2000002861023","3","1","2","1","1,0.7,0,1,0.7,0,0.7,0,1","0,1,0.7,0,1,0.7,1,0.7,0","3","",""
"","html-keyboard-response","139","61595","0.0-139.0","3LOTDFNYA8LVJLXMU4GOZULJ93BFWL","A6THOSGKI6HQC","3THR0FZ95PF7SK0MYRNAOUHTWA4OLV","","null","<img src=""img/food4.png"" style=""width:200px; border:14px solid green;"">","null","","","","","","","","","",""
"","image-keyboard-response","140","61708","0.0-140.0","3LOTDFNYA8LVJLXMU4GOZULJ93BFWL","A6THOSGKI6HQC","3THR0FZ95PF7SK0MYRNAOUHTWA4OLV","","112","img/food4.png","75","112.90000009536743","2","1","2","1","1,0.7,0,1,0.7,0,0.7,0,1","0,1,0.7,0,1,0.7,1,0.7,0","3","",""
"","html-keyboard-response","141","62009","0.0-141.0","3LOTDFNYA8LVJLXMU4GOZULJ93BFWL","A6THOSGKI6HQC","3THR0FZ95PF7SK0MYRNAOUHTWA4OLV","","null","<img src=""img/food4.png"" style=""width:200px; border:14px solid green;"">","null","","","","","","","","","",""
"","image-keyboard-response","142","62012","0.0-142.0","3LOTDFNYA8LVJLXMU4GOZULJ93BFWL","A6THOSGKI6HQC","3THR0FZ95PF7SK0MYRNAOUHTWA4OLV","","1.5999999046325684","img/food4.png","74","2.1999998092651367","1","0","2","1","1,0.7,0,1,0.7,0,0.7,0,1","0,1,0.7,0,1,0.7,1,0.7,0","3","",""
"","html-keyboard-response","143","62313","0.0-143.0","3LOTDFNYA8LVJLXMU4GOZULJ93BFWL","A6THOSGKI6HQC","3THR0FZ95PF7SK0MYRNAOUHTWA4OLV","","null","<img src=""img/food4.png"" style=""width:200px;border:14px solid red;"">","null","","","","","","","","","",""
"","image-keyboard-response","144","62468","0.0-144.0","3LOTDFNYA8LVJLXMU4GOZULJ93BFWL","A6THOSGKI6HQC","3THR0FZ95PF7SK0MYRNAOUHTWA4OLV","","153.69999980926514","img/food5.png","76","154.5","3","1","1","1","1,0.7,0,1,0.7,0,0.7,0,1","0,1,0.7,0,1,0.7,1,0.7,0","3","",""
"","html-keyboard-response","145","62770","0.0-145.0","3LOTDFNYA8LVJLXMU4GOZULJ93BFWL","A6THOSGKI6HQC","3THR0FZ95PF7SK0MYRNAOUHTWA4OLV","","null","<img src=""img/food5.png"" style=""width:200px; border:14px solid green;"">","null","","","","","","","","","",""
"","image-keyboard-response","146","62861","0.0-146.0","3LOTDFNYA8LVJLXMU4GOZULJ93BFWL","A6THOSGKI6HQC","3THR0FZ95PF7SK0MYRNAOUHTWA4OLV","","89.09999990463257","img/food6.png","75","90.09999990463257","2","1","3","1","1,0.7,0,1,0.7,0,0.7,0,1","0,1,0.7,0,1,0.7,1,0.7,0","3","",""
"","html-keyboard-response","147","63163","0.0-147.0","3LOTDFNYA8LVJLXMU4GOZULJ93BFWL","A6THOSGKI6HQC","3THR0FZ95PF7SK0MYRNAOUHTWA4OLV","","null","<img src=""img/food6.png"" style=""width:200px; border:14px solid green;"">","null","","","","","","","","","",""
"","image-keyboard-response","148","63244","0.0-148.0","3LOTDFNYA8LVJLXMU4GOZULJ93BFWL","A6THOSGKI6HQC","3THR0FZ95PF7SK0MYRNAOUHTWA4OLV","","80.19999980926514","img/food5.png","74","81.2000002861023","1","0","1","1","1,0.7,0,1,0.7,0,0.7,0,1","0,1,0.7,0,1,0.7,1,0.7,0","3","",""
"","html-keyboard-response","149","63547","0.0-149.0","3LOTDFNYA8LVJLXMU4GOZULJ93BFWL","A6THOSGKI6HQC","3THR0FZ95PF7SK0MYRNAOUHTWA4OLV","","null","<img src=""img/food5.png"" style=""width:200px;border:14px solid red;"">","null","","","","","","","","","",""
"","image-keyboard-response","150","63693","0.0-150.0","3LOTDFNYA8LVJLXMU4GOZULJ93BFWL","A6THOSGKI6HQC","3THR0FZ95PF7SK0MYRNAOUHTWA4OLV","","144.2999997138977","img/food4.png","76","145.19999980926514","3","1","2","1","1,0.7,0,1,0.7,0,0.7,0,1","0,1,0.7,0,1,0.7,1,0.7,0","3","",""
"","html-keyboard-response","151","63994","0.0-151.0","3LOTDFNYA8LVJLXMU4GOZULJ93BFWL","A6THOSGKI6HQC","3THR0FZ95PF7SK0MYRNAOUHTWA4OLV","","null","<img src=""img/food4.png"" style=""width:200px; border:14px solid green;"">","null","","","","","","","","","",""
"","image-keyboard-response","152","64108","0.0-152.0","3LOTDFNYA8LVJLXMU4GOZULJ93BFWL","A6THOSGKI6HQC","3THR0FZ95PF7SK0MYRNAOUHTWA4OLV","","112.2999997138977","img/food6.png","76","113.09999990463257","3","0","3","1","1,0.7,0,1,0.7,0,0.7,0,1","0,1,0.7,0,1,0.7,1,0.7,0","3","",""
"","html-keyboard-response","153","64410","0.0-153.0","3LOTDFNYA8LVJLXMU4GOZULJ93BFWL","A6THOSGKI6HQC","3THR0FZ95PF7SK0MYRNAOUHTWA4OLV","","null","<img src=""img/food6.png"" style=""width:200px;border:14px solid red;"">","null","","","","","","","","","",""
"","image-keyboard-response","154","64469","0.0-154.0","3LOTDFNYA8LVJLXMU4GOZULJ93BFWL","A6THOSGKI6HQC","3THR0FZ95PF7SK0MYRNAOUHTWA4OLV","","58","img/food4.png","74","59.09999990463257","1","0","2","1","1,0.7,0,1,0.7,0,0.7,0,1","0,1,0.7,0,1,0.7,1,0.7,0","3","",""
"","html-keyboard-response","155","64770","0.0-155.0","3LOTDFNYA8LVJLXMU4GOZULJ93BFWL","A6THOSGKI6HQC","3THR0FZ95PF7SK0MYRNAOUHTWA4OLV","","null","<img src=""img/food4.png"" style=""width:200px;border:14px solid red;"">","null","","","","","","","","","",""
"","image-keyboard-response","156","65332","0.0-156.0","3LOTDFNYA8LVJLXMU4GOZULJ93BFWL","A6THOSGKI6HQC","3THR0FZ95PF7SK0MYRNAOUHTWA4OLV","","560.4000000953674","img/food4.png","76","561.4000000953674","3","0","2","1","1,0.7,0,1,0.7,0,0.7,0,1","0,1,0.7,0,1,0.7,1,0.7,0","3","",""
"","html-keyboard-response","157","65634","0.0-157.0","3LOTDFNYA8LVJLXMU4GOZULJ93BFWL","A6THOSGKI6HQC","3THR0FZ95PF7SK0MYRNAOUHTWA4OLV","","null","<img src=""img/food4.png"" style=""width:200px;border:14px solid red;"">","null","","","","","","","","","",""
"","image-keyboard-response","158","65668","0.0-158.0","3LOTDFNYA8LVJLXMU4GOZULJ93BFWL","A6THOSGKI6HQC","3THR0FZ95PF7SK0MYRNAOUHTWA4OLV","","32.19999980926514","img/food5.png","75","33","2","1","1","1","1,0.7,0,1,0.7,0,0.7,0,1","0,1,0.7,0,1,0.7,1,0.7,0","3","",""
"","html-keyboard-response","159","65970","0.0-159.0","3LOTDFNYA8LVJLXMU4GOZULJ93BFWL","A6THOSGKI6HQC","3THR0FZ95PF7SK0MYRNAOUHTWA4OLV","","null","<img src=""img/food5.png"" style=""width:200px; border:14px solid green;"">","null","","","","","","","","","",""
"","image-keyboard-response","160","66068","0.0-160.0","3LOTDFNYA8LVJLXMU4GOZULJ93BFWL","A6THOSGKI6HQC","3THR0FZ95PF7SK0MYRNAOUHTWA4OLV","","96.80000019073486","img/food4.png","74","97.69999980926514","1","0","2","1","1,0.7,0,1,0.7,0,0.7,0,1","0,1,0.7,0,1,0.7,1,0.7,0","3","",""
"","html-keyboard-response","161","66370","0.0-161.0","3LOTDFNYA8LVJLXMU4GOZULJ93BFWL","A6THOSGKI6HQC","3THR0FZ95PF7SK0MYRNAOUHTWA4OLV","","null","<img src=""img/food4.png"" style=""width:200px;border:14px solid red;"">","null","","","","","","","","","",""
"","image-keyboard-response","162","66396","0.0-162.0","3LOTDFNYA8LVJLXMU4GOZULJ93BFWL","A6THOSGKI6HQC","3THR0FZ95PF7SK0MYRNAOUHTWA4OLV","","24.09999990463257","img/food4.png","75","25","2","1","2","1","1,0.7,0,1,0.7,0,0.7,0,1","0,1,0.7,0,1,0.7,1,0.7,0","3","",""
"","html-keyboard-response","163","66698","0.0-163.0","3LOTDFNYA8LVJLXMU4GOZULJ93BFWL","A6THOSGKI6HQC","3THR0FZ95PF7SK0MYRNAOUHTWA4OLV","","null","<img src=""img/food4.png"" style=""width:200px; border:14px solid green;"">","null","","","","","","","","","",""
"","image-keyboard-response","164","66868","0.0-164.0","3LOTDFNYA8LVJLXMU4GOZULJ93BFWL","A6THOSGKI6HQC","3THR0FZ95PF7SK0MYRNAOUHTWA4OLV","","169.2999997138977","img/food5.png","76","170.30000019073486","3","0","1","1","1,0.7,0,1,0.7,0,0.7,0,1","0,1,0.7,0,1,0.7,1,0.7,0","3","",""
"","html-keyboard-response","165","67169","0.0-165.0","3LOTDFNYA8LVJLXMU4GOZULJ93BFWL","A6THOSGKI6HQC","3THR0FZ95PF7SK0MYRNAOUHTWA4OLV","","null","<img src=""img/food5.png"" style=""width:200px;border:14px solid red;"">","null","","","","","","","","","",""
"","image-keyboard-response","166","67172","0.0-166.0","3LOTDFNYA8LVJLXMU4GOZULJ93BFWL","A6THOSGKI6HQC","3THR0FZ95PF7SK0MYRNAOUHTWA4OLV","","2.299999713897705","img/food5.png","75","3","2","1","1","1","1,0.7,0,1,0.7,0,0.7,0,1","0,1,0.7,0,1,0.7,1,0.7,0","3","",""
"","html-keyboard-response","167","67474","0.0-167.0","3LOTDFNYA8LVJLXMU4GOZULJ93BFWL","A6THOSGKI6HQC","3THR0FZ95PF7SK0MYRNAOUHTWA4OLV","","null","<img src=""img/food5.png"" style=""width:200px; border:14px solid green;"">","null","","","","","","","","","",""
"","image-keyboard-response","168","67821","0.0-168.0","3LOTDFNYA8LVJLXMU4GOZULJ93BFWL","A6THOSGKI6HQC","3THR0FZ95PF7SK0MYRNAOUHTWA4OLV","","345.40000009536743","img/food5.png","74","346.40000009536743","1","0","1","1","1,0.7,0,1,0.7,0,0.7,0,1","0,1,0.7,0,1,0.7,1,0.7,0","3","",""
"","html-keyboard-response","169","68123","0.0-169.0","3LOTDFNYA8LVJLXMU4GOZULJ93BFWL","A6THOSGKI6HQC","3THR0FZ95PF7SK0MYRNAOUHTWA4OLV","","null","<img src=""img/food5.png"" style=""width:200px;border:14px solid red;"">","null","","","","","","","","","",""
"","image-keyboard-response","170","68396","0.0-170.0","3LOTDFNYA8LVJLXMU4GOZULJ93BFWL","A6THOSGKI6HQC","3THR0FZ95PF7SK0MYRNAOUHTWA4OLV","","272.5","img/food4.png","76","273.30000019073486","3","1","2","1","1,0.7,0,1,0.7,0,0.7,0,1","0,1,0.7,0,1,0.7,1,0.7,0","3","",""
"","html-keyboard-response","171","68699","0.0-171.0","3LOTDFNYA8LVJLXMU4GOZULJ93BFWL","A6THOSGKI6HQC","3THR0FZ95PF7SK0MYRNAOUHTWA4OLV","","null","<img src=""img/food4.png"" style=""width:200px; border:14px solid green;"">","null","","","","","","","","","",""
"","image-keyboard-response","172","68732","0.0-172.0","3LOTDFNYA8LVJLXMU4GOZULJ93BFWL","A6THOSGKI6HQC","3THR0FZ95PF7SK0MYRNAOUHTWA4OLV","","32.19999980926514","img/food4.png","74","33.09999990463257","1","0","2","1","1,0.7,0,1,0.7,0,0.7,0,1","0,1,0.7,0,1,0.7,1,0.7,0","3","",""
"","html-keyboard-response","173","69035","0.0-173.0","3LOTDFNYA8LVJLXMU4GOZULJ93BFWL","A6THOSGKI6HQC","3THR0FZ95PF7SK0MYRNAOUHTWA4OLV","","null","<img src=""img/food4.png"" style=""width:200px;border:14px solid red;"">","null","","","","","","","","","",""
"","image-keyboard-response","174","69317","0.0-174.0","3LOTDFNYA8LVJLXMU4GOZULJ93BFWL","A6THOSGKI6HQC","3THR0FZ95PF7SK0MYRNAOUHTWA4OLV","","281.40000009536743","img/food6.png","75","282.09999990463257","2","1","3","1","1,0.7,0,1,0.7,0,0.7,0,1","0,1,0.7,0,1,0.7,1,0.7,0","3","",""
"","html-keyboard-response","175","69620","0.0-175.0","3LOTDFNYA8LVJLXMU4GOZULJ93BFWL","A6THOSGKI6HQC","3THR0FZ95PF7SK0MYRNAOUHTWA4OLV","","null","<img src=""img/food6.png"" style=""width:200px; border:14px solid green;"">","null","","","","","","","","","",""
"","image-keyboard-response","176","69637","0.0-176.0","3LOTDFNYA8LVJLXMU4GOZULJ93BFWL","A6THOSGKI6HQC","3THR0FZ95PF7SK0MYRNAOUHTWA4OLV","","15.599999904632568","img/food4.png","74","16.5","1","0","2","1","1,0.7,0,1,0.7,0,0.7,0,1","0,1,0.7,0,1,0.7,1,0.7,0","3","",""
"","html-keyboard-response","177","69939","0.0-177.0","3LOTDFNYA8LVJLXMU4GOZULJ93BFWL","A6THOSGKI6HQC","3THR0FZ95PF7SK0MYRNAOUHTWA4OLV","","null","<img src=""img/food4.png"" style=""width:200px;border:14px solid red;"">","null","","","","","","","","","",""
"","image-keyboard-response","178","70237","0.0-178.0","3LOTDFNYA8LVJLXMU4GOZULJ93BFWL","A6THOSGKI6HQC","3THR0FZ95PF7SK0MYRNAOUHTWA4OLV","","296.59999990463257","img/food4.png","74","297.5","1","0","2","1","1,0.7,0,1,0.7,0,0.7,0,1","0,1,0.7,0,1,0.7,1,0.7,0","3","",""
"","html-keyboard-response","179","70540","0.0-179.0","3LOTDFNYA8LVJLXMU4GOZULJ93BFWL","A6THOSGKI6HQC","3THR0FZ95PF7SK0MYRNAOUHTWA4OLV","","null","<img src=""img/food4.png"" style=""width:200px;border:14px solid red;"">","null","","","","","","","","","",""
"","image-keyboard-response","180","70636","0.0-180.0","3LOTDFNYA8LVJLXMU4GOZULJ93BFWL","A6THOSGKI6HQC","3THR0FZ95PF7SK0MYRNAOUHTWA4OLV","","95.2999997138977","img/food5.png","76","96.2000002861023","3","1","1","1","1,0.7,0,1,0.7,0,0.7,0,1","0,1,0.7,0,1,0.7,1,0.7,0","3","",""
"","html-keyboard-response","181","70939","0.0-181.0","3LOTDFNYA8LVJLXMU4GOZULJ93BFWL","A6THOSGKI6HQC","3THR0FZ95PF7SK0MYRNAOUHTWA4OLV","","null","<img src=""img/food5.png"" style=""width:200px; border:14px solid green;"">","null","","","","","","","","","",""
"","html-keyboard-response","182","75238","0.0-182.0","3LOTDFNYA8LVJLXMU4GOZULJ93BFWL","A6THOSGKI6HQC","3THR0FZ95PF7SK0MYRNAOUHTWA4OLV","","","","","","","","","","","","","",""
"","instructions","183","77798","0.0-183.0","3LOTDFNYA8LVJLXMU4GOZULJ93BFWL","A6THOSGKI6HQC","3THR0FZ95PF7SK0MYRNAOUHTWA4OLV","[{""page_index"":0,""viewing_time"":1270.6999998092651},{""page_index"":1,""viewing_time"":1288.3000001907349}]","2559.4000000953674","","","","","","","","","","","",""
"","image-keyboard-response","184","78801","0.0-184.0","3LOTDFNYA8LVJLXMU4GOZULJ93BFWL","A6THOSGKI6HQC","3THR0FZ95PF7SK0MYRNAOUHTWA4OLV","","","img/food1.png","","1002.5","-1","0","2","2","1,0.7,0,1,0.7,0,0.7,0,1","1,0.7,0,1,0.7,0,0.7,0,1","1","true",""
"","html-keyboard-response","185","79104","0.0-185.0","3LOTDFNYA8LVJLXMU4GOZULJ93BFWL","A6THOSGKI6HQC","3THR0FZ95PF7SK0MYRNAOUHTWA4OLV","","null","<img src=""img/food1.png"" style=""width:200px;border:14px solid red;"">","null","","","","","","","","","",""
"","html-keyboard-response","186","81662","0.0-186.0-0.0","3LOTDFNYA8LVJLXMU4GOZULJ93BFWL","A6THOSGKI6HQC","3THR0FZ95PF7SK0MYRNAOUHTWA4OLV","","","","","","","","","","","","","",""
"","image-keyboard-response","187","82666","0.0-187.0","3LOTDFNYA8LVJLXMU4GOZULJ93BFWL","A6THOSGKI6HQC","3THR0FZ95PF7SK0MYRNAOUHTWA4OLV","","","img/food3.png","","1003.0999999046326","-1","0","3","2","1,0.7,0,1,0.7,0,0.7,0,1","1,0.7,0,1,0.7,0,0.7,0,1","1","true",""
"","html-keyboard-response","188","82969","0.0-188.0","3LOTDFNYA8LVJLXMU4GOZULJ93BFWL","A6THOSGKI6HQC","3THR0FZ95PF7SK0MYRNAOUHTWA4OLV","","null","<img src=""img/food3.png"" style=""width:200px;border:14px solid red;"">","null","","","","","","","","","",""
"","html-keyboard-response","189","84750","0.0-189.0-0.0","3LOTDFNYA8LVJLXMU4GOZULJ93BFWL","A6THOSGKI6HQC","3THR0FZ95PF7SK0MYRNAOUHTWA4OLV","","","","","","","","","","","","","",""
"","image-keyboard-response","190","85753","0.0-190.0","3LOTDFNYA8LVJLXMU4GOZULJ93BFWL","A6THOSGKI6HQC","3THR0FZ95PF7SK0MYRNAOUHTWA4OLV","","","img/food3.png","","1003","-1","0","3","2","1,0.7,0,1,0.7,0,0.7,0,1","1,0.7,0,1,0.7,0,0.7,0,1","1","true",""
"","html-keyboard-response","191","86056","0.0-191.0","3LOTDFNYA8LVJLXMU4GOZULJ93BFWL","A6THOSGKI6HQC","3THR0FZ95PF7SK0MYRNAOUHTWA4OLV","","null","<img src=""img/food3.png"" style=""width:200px;border:14px solid red;"">","null","","","","","","","","","",""
"","html-keyboard-response","192","86918","0.0-192.0-0.0","3LOTDFNYA8LVJLXMU4GOZULJ93BFWL","A6THOSGKI6HQC","3THR0FZ95PF7SK0MYRNAOUHTWA4OLV","","","","","","","","","","","","","",""
"","image-keyboard-response","193","87921","0.0-193.0","3LOTDFNYA8LVJLXMU4GOZULJ93BFWL","A6THOSGKI6HQC","3THR0FZ95PF7SK0MYRNAOUHTWA4OLV","","","img/food2.png","","1002.8999996185303","-1","0","1","2","1,0.7,0,1,0.7,0,0.7,0,1","1,0.7,0,1,0.7,0,0.7,0,1","1","true",""
"","html-keyboard-response","194","88223","0.0-194.0","3LOTDFNYA8LVJLXMU4GOZULJ93BFWL","A6THOSGKI6HQC","3THR0FZ95PF7SK0MYRNAOUHTWA4OLV","","null","<img src=""img/food2.png"" style=""width:200px;border:14px solid red;"">","null","","","","","","","","","",""
"","html-keyboard-response","195","89085","0.0-195.0-0.0","3LOTDFNYA8LVJLXMU4GOZULJ93BFWL","A6THOSGKI6HQC","3THR0FZ95PF7SK0MYRNAOUHTWA4OLV","","","","","","","","","","","","","",""
"","image-keyboard-response","196","89564","0.0-196.0","3LOTDFNYA8LVJLXMU4GOZULJ93BFWL","A6THOSGKI6HQC","3THR0FZ95PF7SK0MYRNAOUHTWA4OLV","","476.90000009536743","img/food2.png","76","478","3","0","1","2","1,0.7,0,1,0.7,0,0.7,0,1","1,0.7,0,1,0.7,0,0.7,0,1","1","false",""
"","html-keyboard-response","197","89865","0.0-197.0","3LOTDFNYA8LVJLXMU4GOZULJ93BFWL","A6THOSGKI6HQC","3THR0FZ95PF7SK0MYRNAOUHTWA4OLV","","null","<img src=""img/food2.png"" style=""width:200px;border:14px solid red;"">","null","","","","","","","","","",""
"","image-keyboard-response","198","90868","0.0-199.0","3LOTDFNYA8LVJLXMU4GOZULJ93BFWL","A6THOSGKI6HQC","3THR0FZ95PF7SK0MYRNAOUHTWA4OLV","","","img/food2.png","","1002.4000000953674","-1","0","1","2","1,0.7,0,1,0.7,0,0.7,0,1","1,0.7,0,1,0.7,0,0.7,0,1","1","true",""
"","html-keyboard-response","199","91170","0.0-200.0","3LOTDFNYA8LVJLXMU4GOZULJ93BFWL","A6THOSGKI6HQC","3THR0FZ95PF7SK0MYRNAOUHTWA4OLV","","null","<img src=""img/food2.png"" style=""width:200px;border:14px solid red;"">","null","","","","","","","","","",""
"","html-keyboard-response","200","92278","0.0-201.0-0.0","3LOTDFNYA8LVJLXMU4GOZULJ93BFWL","A6THOSGKI6HQC","3THR0FZ95PF7SK0MYRNAOUHTWA4OLV","","","","","","","","","","","","","",""
"","image-keyboard-response","201","93280","0.0-202.0","3LOTDFNYA8LVJLXMU4GOZULJ93BFWL","A6THOSGKI6HQC","3THR0FZ95PF7SK0MYRNAOUHTWA4OLV","","","img/food1.png","","1002.4000000953674","-1","0","2","2","1,0.7,0,1,0.7,0,0.7,0,1","1,0.7,0,1,0.7,0,0.7,0,1","1","true",""
"","html-keyboard-response","202","93583","0.0-203.0","3LOTDFNYA8LVJLXMU4GOZULJ93BFWL","A6THOSGKI6HQC","3THR0FZ95PF7SK0MYRNAOUHTWA4OLV","","null","<img src=""img/food1.png"" style=""width:200px;border:14px solid red;"">","null","","","","","","","","","",""
"","html-keyboard-response","203","95926","0.0-204.0-0.0","3LOTDFNYA8LVJLXMU4GOZULJ93BFWL","A6THOSGKI6HQC","3THR0FZ95PF7SK0MYRNAOUHTWA4OLV","","","","","","","","","","","","","",""
"","image-keyboard-response","204","96092","0.0-205.0","3LOTDFNYA8LVJLXMU4GOZULJ93BFWL","A6THOSGKI6HQC","3THR0FZ95PF7SK0MYRNAOUHTWA4OLV","","164.7999997138977","img/food2.png","76","166.09999990463257","3","0","1","2","1,0.7,0,1,0.7,0,0.7,0,1","1,0.7,0,1,0.7,0,0.7,0,1","1","false",""
"","html-keyboard-response","205","96395","0.0-206.0","3LOTDFNYA8LVJLXMU4GOZULJ93BFWL","A6THOSGKI6HQC","3THR0FZ95PF7SK0MYRNAOUHTWA4OLV","","null","<img src=""img/food2.png"" style=""width:200px;border:14px solid red;"">","null","","","","","","","","","",""
"","image-keyboard-response","206","97398","0.0-208.0","3LOTDFNYA8LVJLXMU4GOZULJ93BFWL","A6THOSGKI6HQC","3THR0FZ95PF7SK0MYRNAOUHTWA4OLV","","","img/food2.png","","1002.6999998092651","-1","0","1","2","1,0.7,0,1,0.7,0,0.7,0,1","1,0.7,0,1,0.7,0,0.7,0,1","1","true",""
"","html-keyboard-response","207","97701","0.0-209.0","3LOTDFNYA8LVJLXMU4GOZULJ93BFWL","A6THOSGKI6HQC","3THR0FZ95PF7SK0MYRNAOUHTWA4OLV","","null","<img src=""img/food2.png"" style=""width:200px;border:14px solid red;"">","null","","","","","","","","","",""
"","html-keyboard-response","208","99446","0.0-210.0-0.0","3LOTDFNYA8LVJLXMU4GOZULJ93BFWL","A6THOSGKI6HQC","3THR0FZ95PF7SK0MYRNAOUHTWA4OLV","","","","","","","","","","","","","",""
"","image-keyboard-response","209","100449","0.0-211.0","3LOTDFNYA8LVJLXMU4GOZULJ93BFWL","A6THOSGKI6HQC","3THR0FZ95PF7SK0MYRNAOUHTWA4OLV","","","img/food1.png","","1002.7999997138977","-1","0","2","2","1,0.7,0,1,0.7,0,0.7,0,1","1,0.7,0,1,0.7,0,0.7,0,1","1","true",""
"","html-keyboard-response","210","100752","0.0-212.0","3LOTDFNYA8LVJLXMU4GOZULJ93BFWL","A6THOSGKI6HQC","3THR0FZ95PF7SK0MYRNAOUHTWA4OLV","","null","<img src=""img/food1.png"" style=""width:200px;border:14px solid red;"">","null","","","","","","","","","",""
"","html-keyboard-response","211","101630","0.0-213.0-0.0","3LOTDFNYA8LVJLXMU4GOZULJ93BFWL","A6THOSGKI6HQC","3THR0FZ95PF7SK0MYRNAOUHTWA4OLV","","","","","","","","","","","","","",""
"","image-keyboard-response","212","102631","0.0-214.0","3LOTDFNYA8LVJLXMU4GOZULJ93BFWL","A6THOSGKI6HQC","3THR0FZ95PF7SK0MYRNAOUHTWA4OLV","","","img/food1.png","","1001.6000003814697","-1","0","2","2","1,0.7,0,1,0.7,0,0.7,0,1","1,0.7,0,1,0.7,0,0.7,0,1","1","true",""
"","html-keyboard-response","213","102934","0.0-215.0","3LOTDFNYA8LVJLXMU4GOZULJ93BFWL","A6THOSGKI6HQC","3THR0FZ95PF7SK0MYRNAOUHTWA4OLV","","null","<img src=""img/food1.png"" style=""width:200px;border:14px solid red;"">","null","","","","","","","","","",""
"","html-keyboard-response","214","104605","0.0-216.0-0.0","3LOTDFNYA8LVJLXMU4GOZULJ93BFWL","A6THOSGKI6HQC","3THR0FZ95PF7SK0MYRNAOUHTWA4OLV","","","","","","","","","","","","","",""
"","image-keyboard-response","215","105608","0.0-217.0","3LOTDFNYA8LVJLXMU4GOZULJ93BFWL","A6THOSGKI6HQC","3THR0FZ95PF7SK0MYRNAOUHTWA4OLV","","","img/food1.png","","1002.9000000953674","-1","0","2","2","1,0.7,0,1,0.7,0,0.7,0,1","1,0.7,0,1,0.7,0,0.7,0,1","1","true",""
"","html-keyboard-response","216","105911","0.0-218.0","3LOTDFNYA8LVJLXMU4GOZULJ93BFWL","A6THOSGKI6HQC","3THR0FZ95PF7SK0MYRNAOUHTWA4OLV","","null","<img src=""img/food1.png"" style=""width:200px;border:14px solid red;"">","null","","","","","","","","","",""
"","html-keyboard-response","217","106949","0.0-219.0-0.0","3LOTDFNYA8LVJLXMU4GOZULJ93BFWL","A6THOSGKI6HQC","3THR0FZ95PF7SK0MYRNAOUHTWA4OLV","","","","","","","","","","","","","",""
"","image-keyboard-response","218","107952","0.0-220.0","3LOTDFNYA8LVJLXMU4GOZULJ93BFWL","A6THOSGKI6HQC","3THR0FZ95PF7SK0MYRNAOUHTWA4OLV","","","img/food3.png","","1002.1999998092651","-1","0","3","2","1,0.7,0,1,0.7,0,0.7,0,1","1,0.7,0,1,0.7,0,0.7,0,1","1","true",""
"","html-keyboard-response","219","108254","0.0-221.0","3LOTDFNYA8LVJLXMU4GOZULJ93BFWL","A6THOSGKI6HQC","3THR0FZ95PF7SK0MYRNAOUHTWA4OLV","","null","<img src=""img/food3.png"" style=""width:200px;border:14px solid red;"">","null","","","","","","","","","",""
"","html-keyboard-response","220","112309","0.0-222.0-0.0","3LOTDFNYA8LVJLXMU4GOZULJ93BFWL","A6THOSGKI6HQC","3THR0FZ95PF7SK0MYRNAOUHTWA4OLV","","","","","","","","","","","","","",""
"","image-keyboard-response","221","113188","0.0-223.0","3LOTDFNYA8LVJLXMU4GOZULJ93BFWL","A6THOSGKI6HQC","3THR0FZ95PF7SK0MYRNAOUHTWA4OLV","","877.5","img/food3.png","76","878.6000003814697","3","1","3","2","1,0.7,0,1,0.7,0,0.7,0,1","1,0.7,0,1,0.7,0,0.7,0,1","1","false",""
"","html-keyboard-response","222","113490","0.0-224.0","3LOTDFNYA8LVJLXMU4GOZULJ93BFWL","A6THOSGKI6HQC","3THR0FZ95PF7SK0MYRNAOUHTWA4OLV","","null","<img src=""img/food3.png"" style=""width:200px; border:14px solid green;"">","null","","","","","","","","","",""
"","image-keyboard-response","223","114493","0.0-226.0","3LOTDFNYA8LVJLXMU4GOZULJ93BFWL","A6THOSGKI6HQC","3THR0FZ95PF7SK0MYRNAOUHTWA4OLV","","","img/food3.png","","1002.2999997138977","-1","0","3","2","1,0.7,0,1,0.7,0,0.7,0,1","1,0.7,0,1,0.7,0,0.7,0,1","1","true",""
"","html-keyboard-response","224","114795","0.0-227.0","3LOTDFNYA8LVJLXMU4GOZULJ93BFWL","A6THOSGKI6HQC","3THR0FZ95PF7SK0MYRNAOUHTWA4OLV","","null","<img src=""img/food3.png"" style=""width:200px;border:14px solid red;"">","null","","","","","","","","","",""
"","html-keyboard-response","225","115853","0.0-228.0-0.0","3LOTDFNYA8LVJLXMU4GOZULJ93BFWL","A6THOSGKI6HQC","3THR0FZ95PF7SK0MYRNAOUHTWA4OLV","","","","","","","","","","","","","",""
"","image-keyboard-response","226","116764","0.0-229.0","3LOTDFNYA8LVJLXMU4GOZULJ93BFWL","A6THOSGKI6HQC","3THR0FZ95PF7SK0MYRNAOUHTWA4OLV","","909.6999998092651","img/food2.png","76","910.8000001907349","3","0","1","2","1,0.7,0,1,0.7,0,0.7,0,1","1,0.7,0,1,0.7,0,0.7,0,1","1","false",""
"","html-keyboard-response","227","117067","0.0-230.0","3LOTDFNYA8LVJLXMU4GOZULJ93BFWL","A6THOSGKI6HQC","3THR0FZ95PF7SK0MYRNAOUHTWA4OLV","","null","<img src=""img/food2.png"" style=""width:200px;border:14px solid red;"">","null","","","","","","","","","",""
"","image-keyboard-response","228","118069","0.0-232.0","3LOTDFNYA8LVJLXMU4GOZULJ93BFWL","A6THOSGKI6HQC","3THR0FZ95PF7SK0MYRNAOUHTWA4OLV","","","img/food2.png","","1002.4000000953674","-1","0","1","2","1,0.7,0,1,0.7,0,0.7,0,1","1,0.7,0,1,0.7,0,0.7,0,1","1","true",""
"","html-keyboard-response","229","118372","0.0-233.0","3LOTDFNYA8LVJLXMU4GOZULJ93BFWL","A6THOSGKI6HQC","3THR0FZ95PF7SK0MYRNAOUHTWA4OLV","","null","<img src=""img/food2.png"" style=""width:200px;border:14px solid red;"">","null","","","","","","","","","",""
"","html-keyboard-response","230","121862","0.0-234.0-0.0","3LOTDFNYA8LVJLXMU4GOZULJ93BFWL","A6THOSGKI6HQC","3THR0FZ95PF7SK0MYRNAOUHTWA4OLV","","","","","","","","","","","","","",""
"","image-keyboard-response","231","122865","0.0-235.0","3LOTDFNYA8LVJLXMU4GOZULJ93BFWL","A6THOSGKI6HQC","3THR0FZ95PF7SK0MYRNAOUHTWA4OLV","","","img/food2.png","","1003.0999999046326","-1","0","1","2","1,0.7,0,1,0.7,0,0.7,0,1","1,0.7,0,1,0.7,0,0.7,0,1","1","true",""
"","html-keyboard-response","232","123168","0.0-236.0","3LOTDFNYA8LVJLXMU4GOZULJ93BFWL","A6THOSGKI6HQC","3THR0FZ95PF7SK0MYRNAOUHTWA4OLV","","null","<img src=""img/food2.png"" style=""width:200px;border:14px solid red;"">","null","","","","","","","","","",""
"","html-keyboard-response","233","124109","0.0-237.0-0.0","3LOTDFNYA8LVJLXMU4GOZULJ93BFWL","A6THOSGKI6HQC","3THR0FZ95PF7SK0MYRNAOUHTWA4OLV","","","","","","","","","","","","","",""
"","image-keyboard-response","234","124876","0.0-238.0","3LOTDFNYA8LVJLXMU4GOZULJ93BFWL","A6THOSGKI6HQC","3THR0FZ95PF7SK0MYRNAOUHTWA4OLV","","765.4000000953674","img/food3.png","75","766.5","2","0","3","2","1,0.7,0,1,0.7,0,0.7,0,1","1,0.7,0,1,0.7,0,0.7,0,1","1","false",""
"","html-keyboard-response","235","125179","0.0-239.0","3LOTDFNYA8LVJLXMU4GOZULJ93BFWL","A6THOSGKI6HQC","3THR0FZ95PF7SK0MYRNAOUHTWA4OLV","","null","<img src=""img/food3.png"" style=""width:200px;border:14px solid red;"">","null","","","","","","","","","",""
"","image-keyboard-response","236","126181","0.0-241.0","3LOTDFNYA8LVJLXMU4GOZULJ93BFWL","A6THOSGKI6HQC","3THR0FZ95PF7SK0MYRNAOUHTWA4OLV","","","img/food3.png","","1002","-1","0","3","2","1,0.7,0,1,0.7,0,0.7,0,1","1,0.7,0,1,0.7,0,0.7,0,1","1","true",""
"","html-keyboard-response","237","126484","0.0-242.0","3LOTDFNYA8LVJLXMU4GOZULJ93BFWL","A6THOSGKI6HQC","3THR0FZ95PF7SK0MYRNAOUHTWA4OLV","","null","<img src=""img/food3.png"" style=""width:200px;border:14px solid red;"">","null","","","","","","","","","",""
"","html-keyboard-response","238","127357","0.0-243.0-0.0","3LOTDFNYA8LVJLXMU4GOZULJ93BFWL","A6THOSGKI6HQC","3THR0FZ95PF7SK0MYRNAOUHTWA4OLV","","","","","","","","","","","","","",""
"","image-keyboard-response","239","128361","0.0-244.0","3LOTDFNYA8LVJLXMU4GOZULJ93BFWL","A6THOSGKI6HQC","3THR0FZ95PF7SK0MYRNAOUHTWA4OLV","","","img/food2.png","","1003","-1","0","1","2","1,0.7,0,1,0.7,0,0.7,0,1","1,0.7,0,1,0.7,0,0.7,0,1","1","true",""
"","html-keyboard-response","240","128662","0.0-245.0","3LOTDFNYA8LVJLXMU4GOZULJ93BFWL","A6THOSGKI6HQC","3THR0FZ95PF7SK0MYRNAOUHTWA4OLV","","null","<img src=""img/food2.png"" style=""width:200px;border:14px solid red;"">","null","","","","","","","","","",""
"","html-keyboard-response","241","130117","0.0-246.0-0.0","3LOTDFNYA8LVJLXMU4GOZULJ93BFWL","A6THOSGKI6HQC","3THR0FZ95PF7SK0MYRNAOUHTWA4OLV","","","","","","","","","","","","","",""
"","image-keyboard-response","242","131120","0.0-247.0","3LOTDFNYA8LVJLXMU4GOZULJ93BFWL","A6THOSGKI6HQC","3THR0FZ95PF7SK0MYRNAOUHTWA4OLV","","","img/food1.png","","1002.4000000953674","-1","0","2","2","1,0.7,0,1,0.7,0,0.7,0,1","1,0.7,0,1,0.7,0,0.7,0,1","1","true",""
"","html-keyboard-response","243","131423","0.0-248.0","3LOTDFNYA8LVJLXMU4GOZULJ93BFWL","A6THOSGKI6HQC","3THR0FZ95PF7SK0MYRNAOUHTWA4OLV","","null","<img src=""img/food1.png"" style=""width:200px;border:14px solid red;"">","null","","","","","","","","","",""
"","html-keyboard-response","244","144964","0.0-249.0-0.0","3LOTDFNYA8LVJLXMU4GOZULJ93BFWL","A6THOSGKI6HQC","3THR0FZ95PF7SK0MYRNAOUHTWA4OLV","","","","","","","","","","","","","",""
"","image-keyboard-response","245","145967","0.0-250.0","3LOTDFNYA8LVJLXMU4GOZULJ93BFWL","A6THOSGKI6HQC","3THR0FZ95PF7SK0MYRNAOUHTWA4OLV","","","img/food1.png","","1002.5","-1","0","2","2","1,0.7,0,1,0.7,0,0.7,0,1","1,0.7,0,1,0.7,0,0.7,0,1","1","true",""
"","html-keyboard-response","246","146270","0.0-251.0","3LOTDFNYA8LVJLXMU4GOZULJ93BFWL","A6THOSGKI6HQC","3THR0FZ95PF7SK0MYRNAOUHTWA4OLV","","null","<img src=""img/food1.png"" style=""width:200px;border:14px solid red;"">","null","","","","","","","","","",""
"","html-keyboard-response","247","148132","0.0-252.0-0.0","3LOTDFNYA8LVJLXMU4GOZULJ93BFWL","A6THOSGKI6HQC","3THR0FZ95PF7SK0MYRNAOUHTWA4OLV","","","","","","","","","","","","","",""
"","image-keyboard-response","248","149135","0.0-253.0","3LOTDFNYA8LVJLXMU4GOZULJ93BFWL","A6THOSGKI6HQC","3THR0FZ95PF7SK0MYRNAOUHTWA4OLV","","","img/food1.png","","1002.2000002861023","-1","0","2","2","1,0.7,0,1,0.7,0,0.7,0,1","1,0.7,0,1,0.7,0,0.7,0,1","1","true",""
"","html-keyboard-response","249","149437","0.0-254.0","3LOTDFNYA8LVJLXMU4GOZULJ93BFWL","A6THOSGKI6HQC","3THR0FZ95PF7SK0MYRNAOUHTWA4OLV","","null","<img src=""img/food1.png"" style=""width:200px;border:14px solid red;"">","null","","","","","","","","","",""
"","html-keyboard-response","250","150533","0.0-255.0-0.0","3LOTDFNYA8LVJLXMU4GOZULJ93BFWL","A6THOSGKI6HQC","3THR0FZ95PF7SK0MYRNAOUHTWA4OLV","","","","","","","","","","","","","",""
"","image-keyboard-response","251","151535","0.0-256.0","3LOTDFNYA8LVJLXMU4GOZULJ93BFWL","A6THOSGKI6HQC","3THR0FZ95PF7SK0MYRNAOUHTWA4OLV","","","img/food3.png","","1002.1999998092651","-1","0","3","2","1,0.7,0,1,0.7,0,0.7,0,1","1,0.7,0,1,0.7,0,0.7,0,1","1","true",""
"","html-keyboard-response","252","151838","0.0-257.0","3LOTDFNYA8LVJLXMU4GOZULJ93BFWL","A6THOSGKI6HQC","3THR0FZ95PF7SK0MYRNAOUHTWA4OLV","","null","<img src=""img/food3.png"" style=""width:200px;border:14px solid red;"">","null","","","","","","","","","",""
"","html-keyboard-response","253","153525","0.0-258.0-0.0","3LOTDFNYA8LVJLXMU4GOZULJ93BFWL","A6THOSGKI6HQC","3THR0FZ95PF7SK0MYRNAOUHTWA4OLV","","","","","","","","","","","","","",""
"","image-keyboard-response","254","154528","0.0-259.0","3LOTDFNYA8LVJLXMU4GOZULJ93BFWL","A6THOSGKI6HQC","3THR0FZ95PF7SK0MYRNAOUHTWA4OLV","","","img/food1.png","","1003","-1","0","2","2","1,0.7,0,1,0.7,0,0.7,0,1","1,0.7,0,1,0.7,0,0.7,0,1","1","true",""
"","html-keyboard-response","255","154831","0.0-260.0","3LOTDFNYA8LVJLXMU4GOZULJ93BFWL","A6THOSGKI6HQC","3THR0FZ95PF7SK0MYRNAOUHTWA4OLV","","null","<img src=""img/food1.png"" style=""width:200px;border:14px solid red;"">","null","","","","","","","","","",""
"","html-keyboard-response","256","155829","0.0-261.0-0.0","3LOTDFNYA8LVJLXMU4GOZULJ93BFWL","A6THOSGKI6HQC","3THR0FZ95PF7SK0MYRNAOUHTWA4OLV","","","","","","","","","","","","","",""
"","image-keyboard-response","257","156832","0.0-262.0","3LOTDFNYA8LVJLXMU4GOZULJ93BFWL","A6THOSGKI6HQC","3THR0FZ95PF7SK0MYRNAOUHTWA4OLV","","","img/food3.png","","1002.7999997138977","-1","0","3","2","1,0.7,0,1,0.7,0,0.7,0,1","1,0.7,0,1,0.7,0,0.7,0,1","1","true",""
"","html-keyboard-response","258","157134","0.0-263.0","3LOTDFNYA8LVJLXMU4GOZULJ93BFWL","A6THOSGKI6HQC","3THR0FZ95PF7SK0MYRNAOUHTWA4OLV","","null","<img src=""img/food3.png"" style=""width:200px;border:14px solid red;"">","null","","","","","","","","","",""
"","html-keyboard-response","259","158053","0.0-264.0-0.0","3LOTDFNYA8LVJLXMU4GOZULJ93BFWL","A6THOSGKI6HQC","3THR0FZ95PF7SK0MYRNAOUHTWA4OLV","","","","","","","","","","","","","",""
"","image-keyboard-response","260","159056","0.0-265.0","3LOTDFNYA8LVJLXMU4GOZULJ93BFWL","A6THOSGKI6HQC","3THR0FZ95PF7SK0MYRNAOUHTWA4OLV","","","img/food3.png","","1003","-1","0","3","2","1,0.7,0,1,0.7,0,0.7,0,1","1,0.7,0,1,0.7,0,0.7,0,1","1","true",""
"","html-keyboard-response","261","159359","0.0-266.0","3LOTDFNYA8LVJLXMU4GOZULJ93BFWL","A6THOSGKI6HQC","3THR0FZ95PF7SK0MYRNAOUHTWA4OLV","","null","<img src=""img/food3.png"" style=""width:200px;border:14px solid red;"">","null","","","","","","","","","",""
"","html-keyboard-response","262","160389","0.0-267.0-0.0","3LOTDFNYA8LVJLXMU4GOZULJ93BFWL","A6THOSGKI6HQC","3THR0FZ95PF7SK0MYRNAOUHTWA4OLV","","","","","","","","","","","","","",""
"","image-keyboard-response","263","161392","0.0-268.0","3LOTDFNYA8LVJLXMU4GOZULJ93BFWL","A6THOSGKI6HQC","3THR0FZ95PF7SK0MYRNAOUHTWA4OLV","","","img/food2.png","","1002.6999998092651","-1","0","1","2","1,0.7,0,1,0.7,0,0.7,0,1","1,0.7,0,1,0.7,0,0.7,0,1","1","true",""
"","html-keyboard-response","264","161695","0.0-269.0","3LOTDFNYA8LVJLXMU4GOZULJ93BFWL","A6THOSGKI6HQC","3THR0FZ95PF7SK0MYRNAOUHTWA4OLV","","null","<img src=""img/food2.png"" style=""width:200px;border:14px solid red;"">","null","","","","","","","","","",""
"","html-keyboard-response","265","163132","0.0-270.0-0.0","3LOTDFNYA8LVJLXMU4GOZULJ93BFWL","A6THOSGKI6HQC","3THR0FZ95PF7SK0MYRNAOUHTWA4OLV","","","","","","","","","","","","","",""
"","image-keyboard-response","266","164135","0.0-271.0","3LOTDFNYA8LVJLXMU4GOZULJ93BFWL","A6THOSGKI6HQC","3THR0FZ95PF7SK0MYRNAOUHTWA4OLV","","","img/food1.png","","1002.5","-1","0","2","2","1,0.7,0,1,0.7,0,0.7,0,1","1,0.7,0,1,0.7,0,0.7,0,1","1","true",""
"","html-keyboard-response","267","164438","0.0-272.0","3LOTDFNYA8LVJLXMU4GOZULJ93BFWL","A6THOSGKI6HQC","3THR0FZ95PF7SK0MYRNAOUHTWA4OLV","","null","<img src=""img/food1.png"" style=""width:200px;border:14px solid red;"">","null","","","","","","","","","",""
"","html-keyboard-response","268","168317","0.0-273.0-0.0","3LOTDFNYA8LVJLXMU4GOZULJ93BFWL","A6THOSGKI6HQC","3THR0FZ95PF7SK0MYRNAOUHTWA4OLV","","","","","","","","","","","","","",""
"","image-keyboard-response","269","169319","0.0-274.0","3LOTDFNYA8LVJLXMU4GOZULJ93BFWL","A6THOSGKI6HQC","3THR0FZ95PF7SK0MYRNAOUHTWA4OLV","","","img/food2.png","","1002.4000000953674","-1","0","1","2","1,0.7,0,1,0.7,0,0.7,0,1","1,0.7,0,1,0.7,0,0.7,0,1","1","true",""
"","html-keyboard-response","270","169622","0.0-275.0","3LOTDFNYA8LVJLXMU4GOZULJ93BFWL","A6THOSGKI6HQC","3THR0FZ95PF7SK0MYRNAOUHTWA4OLV","","null","<img src=""img/food2.png"" style=""width:200px;border:14px solid red;"">","null","","","","","","","","","",""
"","html-keyboard-response","271","171116","0.0-276.0-0.0","3LOTDFNYA8LVJLXMU4GOZULJ93BFWL","A6THOSGKI6HQC","3THR0FZ95PF7SK0MYRNAOUHTWA4OLV","","","","","","","","","","","","","",""
"","image-keyboard-response","272","172119","0.0-277.0","3LOTDFNYA8LVJLXMU4GOZULJ93BFWL","A6THOSGKI6HQC","3THR0FZ95PF7SK0MYRNAOUHTWA4OLV","","","img/food2.png","","1002.1999998092651","-1","0","1","2","1,0.7,0,1,0.7,0,0.7,0,1","1,0.7,0,1,0.7,0,0.7,0,1","1","true",""
"","html-keyboard-response","273","172421","0.0-278.0","3LOTDFNYA8LVJLXMU4GOZULJ93BFWL","A6THOSGKI6HQC","3THR0FZ95PF7SK0MYRNAOUHTWA4OLV","","null","<img src=""img/food2.png"" style=""width:200px;border:14px solid red;"">","null","","","","","","","","","",""
"","html-keyboard-response","274","173941","0.0-279.0-0.0","3LOTDFNYA8LVJLXMU4GOZULJ93BFWL","A6THOSGKI6HQC","3THR0FZ95PF7SK0MYRNAOUHTWA4OLV","","","","","","","","","","","","","",""
"","image-keyboard-response","275","174944","0.0-280.0","3LOTDFNYA8LVJLXMU4GOZULJ93BFWL","A6THOSGKI6HQC","3THR0FZ95PF7SK0MYRNAOUHTWA4OLV","","","img/food1.png","","1002.7999997138977","-1","0","2","2","1,0.7,0,1,0.7,0,0.7,0,1","1,0.7,0,1,0.7,0,0.7,0,1","1","true",""
"","html-keyboard-response","276","175247","0.0-281.0","3LOTDFNYA8LVJLXMU4GOZULJ93BFWL","A6THOSGKI6HQC","3THR0FZ95PF7SK0MYRNAOUHTWA4OLV","","null","<img src=""img/food1.png"" style=""width:200px;border:14px solid red;"">","null","","","","","","","","","",""
"","html-keyboard-response","277","176100","0.0-282.0-0.0","3LOTDFNYA8LVJLXMU4GOZULJ93BFWL","A6THOSGKI6HQC","3THR0FZ95PF7SK0MYRNAOUHTWA4OLV","","","","","","","","","","","","","",""
"","image-keyboard-response","278","177102","0.0-283.0","3LOTDFNYA8LVJLXMU4GOZULJ93BFWL","A6THOSGKI6HQC","3THR0FZ95PF7SK0MYRNAOUHTWA4OLV","","","img/food2.png","","1002.1999998092651","-1","0","1","2","1,0.7,0,1,0.7,0,0.7,0,1","1,0.7,0,1,0.7,0,0.7,0,1","1","true",""
"","html-keyboard-response","279","177405","0.0-284.0","3LOTDFNYA8LVJLXMU4GOZULJ93BFWL","A6THOSGKI6HQC","3THR0FZ95PF7SK0MYRNAOUHTWA4OLV","","null","<img src=""img/food2.png"" style=""width:200px;border:14px solid red;"">","null","","","","","","","","","",""
"","html-keyboard-response","280","178276","0.0-285.0-0.0","3LOTDFNYA8LVJLXMU4GOZULJ93BFWL","A6THOSGKI6HQC","3THR0FZ95PF7SK0MYRNAOUHTWA4OLV","","","","","","","","","","","","","",""
"","image-keyboard-response","281","179279","0.0-286.0","3LOTDFNYA8LVJLXMU4GOZULJ93BFWL","A6THOSGKI6HQC","3THR0FZ95PF7SK0MYRNAOUHTWA4OLV","","","img/food2.png","","1003","-1","0","1","2","1,0.7,0,1,0.7,0,0.7,0,1","1,0.7,0,1,0.7,0,0.7,0,1","1","true",""
"","html-keyboard-response","282","179582","0.0-287.0","3LOTDFNYA8LVJLXMU4GOZULJ93BFWL","A6THOSGKI6HQC","3THR0FZ95PF7SK0MYRNAOUHTWA4OLV","","null","<img src=""img/food2.png"" style=""width:200px;border:14px solid red;"">","null","","","","","","","","","",""
"","html-keyboard-response","283","180443","0.0-288.0-0.0","3LOTDFNYA8LVJLXMU4GOZULJ93BFWL","A6THOSGKI6HQC","3THR0FZ95PF7SK0MYRNAOUHTWA4OLV","","","","","","","","","","","","","",""
"","image-keyboard-response","284","181447","0.0-289.0","3LOTDFNYA8LVJLXMU4GOZULJ93BFWL","A6THOSGKI6HQC","3THR0FZ95PF7SK0MYRNAOUHTWA4OLV","","","img/food3.png","","1002.8000001907349","-1","0","3","2","1,0.7,0,1,0.7,0,0.7,0,1","1,0.7,0,1,0.7,0,0.7,0,1","1","true",""
"","html-keyboard-response","285","181749","0.0-290.0","3LOTDFNYA8LVJLXMU4GOZULJ93BFWL","A6THOSGKI6HQC","3THR0FZ95PF7SK0MYRNAOUHTWA4OLV","","null","<img src=""img/food3.png"" style=""width:200px;border:14px solid red;"">","null","","","","","","","","","",""
"","html-keyboard-response","286","184300","0.0-291.0-0.0","3LOTDFNYA8LVJLXMU4GOZULJ93BFWL","A6THOSGKI6HQC","3THR0FZ95PF7SK0MYRNAOUHTWA4OLV","","","","","","","","","","","","","",""
"","image-keyboard-response","287","185303","0.0-292.0","3LOTDFNYA8LVJLXMU4GOZULJ93BFWL","A6THOSGKI6HQC","3THR0FZ95PF7SK0MYRNAOUHTWA4OLV","","","img/food1.png","","1002.8000001907349","-1","0","2","2","1,0.7,0,1,0.7,0,0.7,0,1","1,0.7,0,1,0.7,0,0.7,0,1","1","true",""
"","html-keyboard-response","288","185606","0.0-293.0","3LOTDFNYA8LVJLXMU4GOZULJ93BFWL","A6THOSGKI6HQC","3THR0FZ95PF7SK0MYRNAOUHTWA4OLV","","null","<img src=""img/food1.png"" style=""width:200px;border:14px solid red;"">","null","","","","","","","","","",""
"","html-keyboard-response","289","188340","0.0-294.0-0.0","3LOTDFNYA8LVJLXMU4GOZULJ93BFWL","A6THOSGKI6HQC","3THR0FZ95PF7SK0MYRNAOUHTWA4OLV","","","","","","","","","","","","","",""
"","image-keyboard-response","290","189343","0.0-295.0","3LOTDFNYA8LVJLXMU4GOZULJ93BFWL","A6THOSGKI6HQC","3THR0FZ95PF7SK0MYRNAOUHTWA4OLV","","","img/food3.png","","1003.0999999046326","-1","0","3","2","1,0.7,0,1,0.7,0,0.7,0,1","1,0.7,0,1,0.7,0,0.7,0,1","1","true",""
"","html-keyboard-response","291","189646","0.0-296.0","3LOTDFNYA8LVJLXMU4GOZULJ93BFWL","A6THOSGKI6HQC","3THR0FZ95PF7SK0MYRNAOUHTWA4OLV","","null","<img src=""img/food3.png"" style=""width:200px;border:14px solid red;"">","null","","","","","","","","","",""
"","html-keyboard-response","292","190620","0.0-297.0-0.0","3LOTDFNYA8LVJLXMU4GOZULJ93BFWL","A6THOSGKI6HQC","3THR0FZ95PF7SK0MYRNAOUHTWA4OLV","","","","","","","","","","","","","",""
"","image-keyboard-response","293","191622","0.0-298.0","3LOTDFNYA8LVJLXMU4GOZULJ93BFWL","A6THOSGKI6HQC","3THR0FZ95PF7SK0MYRNAOUHTWA4OLV","","","img/food1.png","","1002.4000000953674","-1","0","2","2","1,0.7,0,1,0.7,0,0.7,0,1","1,0.7,0,1,0.7,0,0.7,0,1","1","true",""
"","html-keyboard-response","294","191925","0.0-299.0","3LOTDFNYA8LVJLXMU4GOZULJ93BFWL","A6THOSGKI6HQC","3THR0FZ95PF7SK0MYRNAOUHTWA4OLV","","null","<img src=""img/food1.png"" style=""width:200px;border:14px solid red;"">","null","","","","","","","","","",""
"","html-keyboard-response","295","193572","0.0-300.0-0.0","3LOTDFNYA8LVJLXMU4GOZULJ93BFWL","A6THOSGKI6HQC","3THR0FZ95PF7SK0MYRNAOUHTWA4OLV","","","","","","","","","","","","","",""
"","image-keyboard-response","296","194574","0.0-301.0","3LOTDFNYA8LVJLXMU4GOZULJ93BFWL","A6THOSGKI6HQC","3THR0FZ95PF7SK0MYRNAOUHTWA4OLV","","","img/food1.png","","1002.1000003814697","-1","0","2","2","1,0.7,0,1,0.7,0,0.7,0,1","1,0.7,0,1,0.7,0,0.7,0,1","1","true",""
"","html-keyboard-response","297","194877","0.0-302.0","3LOTDFNYA8LVJLXMU4GOZULJ93BFWL","A6THOSGKI6HQC","3THR0FZ95PF7SK0MYRNAOUHTWA4OLV","","null","<img src=""img/food1.png"" style=""width:200px;border:14px solid red;"">","null","","","","","","","","","",""
"","html-keyboard-response","298","198444","0.0-303.0-0.0","3LOTDFNYA8LVJLXMU4GOZULJ93BFWL","A6THOSGKI6HQC","3THR0FZ95PF7SK0MYRNAOUHTWA4OLV","","","","","","","","","","","","","",""
"","image-keyboard-response","299","199447","0.0-304.0","3LOTDFNYA8LVJLXMU4GOZULJ93BFWL","A6THOSGKI6HQC","3THR0FZ95PF7SK0MYRNAOUHTWA4OLV","","","img/food1.png","","1002.5","-1","0","2","2","1,0.7,0,1,0.7,0,0.7,0,1","1,0.7,0,1,0.7,0,0.7,0,1","1","true",""
"","html-keyboard-response","300","199750","0.0-305.0","3LOTDFNYA8LVJLXMU4GOZULJ93BFWL","A6THOSGKI6HQC","3THR0FZ95PF7SK0MYRNAOUHTWA4OLV","","null","<img src=""img/food1.png"" style=""width:200px;border:14px solid red;"">","null","","","","","","","","","",""
"","html-keyboard-response","301","203891","0.0-306.0-0.0","3LOTDFNYA8LVJLXMU4GOZULJ93BFWL","A6THOSGKI6HQC","3THR0FZ95PF7SK0MYRNAOUHTWA4OLV","","","","","","","","","","","","","",""
"","image-keyboard-response","302","204894","0.0-307.0","3LOTDFNYA8LVJLXMU4GOZULJ93BFWL","A6THOSGKI6HQC","3THR0FZ95PF7SK0MYRNAOUHTWA4OLV","","","img/food3.png","","1002.2999997138977","-1","0","3","2","1,0.7,0,1,0.7,0,0.7,0,1","1,0.7,0,1,0.7,0,0.7,0,1","1","true",""
"","html-keyboard-response","303","205196","0.0-308.0","3LOTDFNYA8LVJLXMU4GOZULJ93BFWL","A6THOSGKI6HQC","3THR0FZ95PF7SK0MYRNAOUHTWA4OLV","","null","<img src=""img/food3.png"" style=""width:200px;border:14px solid red;"">","null","","","","","","","","","",""
"","html-keyboard-response","304","207323","0.0-309.0-0.0","3LOTDFNYA8LVJLXMU4GOZULJ93BFWL","A6THOSGKI6HQC","3THR0FZ95PF7SK0MYRNAOUHTWA4OLV","","","","","","","","","","","","","",""
"","image-keyboard-response","305","208325","0.0-310.0","3LOTDFNYA8LVJLXMU4GOZULJ93BFWL","A6THOSGKI6HQC","3THR0FZ95PF7SK0MYRNAOUHTWA4OLV","","","img/food1.png","","1001.7999997138977","-1","0","2","2","1,0.7,0,1,0.7,0,0.7,0,1","1,0.7,0,1,0.7,0,0.7,0,1","1","true",""
"","html-keyboard-response","306","208627","0.0-311.0","3LOTDFNYA8LVJLXMU4GOZULJ93BFWL","A6THOSGKI6HQC","3THR0FZ95PF7SK0MYRNAOUHTWA4OLV","","null","<img src=""img/food1.png"" style=""width:200px;border:14px solid red;"">","null","","","","","","","","","",""
"","html-keyboard-response","307","212220","0.0-312.0-0.0","3LOTDFNYA8LVJLXMU4GOZULJ93BFWL","A6THOSGKI6HQC","3THR0FZ95PF7SK0MYRNAOUHTWA4OLV","","","","","","","","","","","","","",""
"","image-keyboard-response","308","213222","0.0-313.0","3LOTDFNYA8LVJLXMU4GOZULJ93BFWL","A6THOSGKI6HQC","3THR0FZ95PF7SK0MYRNAOUHTWA4OLV","","","img/food1.png","","1002.2000002861023","-1","0","2","2","1,0.7,0,1,0.7,0,0.7,0,1","1,0.7,0,1,0.7,0,0.7,0,1","1","true",""
"","html-keyboard-response","309","213525","0.0-314.0","3LOTDFNYA8LVJLXMU4GOZULJ93BFWL","A6THOSGKI6HQC","3THR0FZ95PF7SK0MYRNAOUHTWA4OLV","","null","<img src=""img/food1.png"" style=""width:200px;border:14px solid red;"">","null","","","","","","","","","",""
"","html-keyboard-response","310","214340","0.0-315.0-0.0","3LOTDFNYA8LVJLXMU4GOZULJ93BFWL","A6THOSGKI6HQC","3THR0FZ95PF7SK0MYRNAOUHTWA4OLV","","","","","","","","","","","","","",""
"","image-keyboard-response","311","215342","0.0-316.0","3LOTDFNYA8LVJLXMU4GOZULJ93BFWL","A6THOSGKI6HQC","3THR0FZ95PF7SK0MYRNAOUHTWA4OLV","","","img/food2.png","","1002.7000002861023","-1","0","1","2","1,0.7,0,1,0.7,0,0.7,0,1","1,0.7,0,1,0.7,0,0.7,0,1","1","true",""
"","html-keyboard-response","312","215645","0.0-317.0","3LOTDFNYA8LVJLXMU4GOZULJ93BFWL","A6THOSGKI6HQC","3THR0FZ95PF7SK0MYRNAOUHTWA4OLV","","null","<img src=""img/food2.png"" style=""width:200px;border:14px solid red;"">","null","","","","","","","","","",""
"","html-keyboard-response","313","219227","0.0-318.0-0.0","3LOTDFNYA8LVJLXMU4GOZULJ93BFWL","A6THOSGKI6HQC","3THR0FZ95PF7SK0MYRNAOUHTWA4OLV","","","","","","","","","","","","","",""
"","image-keyboard-response","314","220230","0.0-319.0","3LOTDFNYA8LVJLXMU4GOZULJ93BFWL","A6THOSGKI6HQC","3THR0FZ95PF7SK0MYRNAOUHTWA4OLV","","","img/food3.png","","1002.8999996185303","-1","0","3","2","1,0.7,0,1,0.7,0,0.7,0,1","1,0.7,0,1,0.7,0,0.7,0,1","1","true",""
"","html-keyboard-response","315","220533","0.0-320.0","3LOTDFNYA8LVJLXMU4GOZULJ93BFWL","A6THOSGKI6HQC","3THR0FZ95PF7SK0MYRNAOUHTWA4OLV","","null","<img src=""img/food3.png"" style=""width:200px;border:14px solid red;"">","null","","","","","","","","","",""
"","html-keyboard-response","316","225155","0.0-321.0-0.0","3LOTDFNYA8LVJLXMU4GOZULJ93BFWL","A6THOSGKI6HQC","3THR0FZ95PF7SK0MYRNAOUHTWA4OLV","","","","","","","","","","","","","",""
"","image-keyboard-response","317","226158","0.0-322.0","3LOTDFNYA8LVJLXMU4GOZULJ93BFWL","A6THOSGKI6HQC","3THR0FZ95PF7SK0MYRNAOUHTWA4OLV","","","img/food2.png","","1003","-1","0","1","2","1,0.7,0,1,0.7,0,0.7,0,1","1,0.7,0,1,0.7,0,0.7,0,1","1","true",""
"","html-keyboard-response","318","226461","0.0-323.0","3LOTDFNYA8LVJLXMU4GOZULJ93BFWL","A6THOSGKI6HQC","3THR0FZ95PF7SK0MYRNAOUHTWA4OLV","","null","<img src=""img/food2.png"" style=""width:200px;border:14px solid red;"">","null","","","","","","","","","",""
"","html-keyboard-response","319","230819","0.0-324.0-0.0","3LOTDFNYA8LVJLXMU4GOZULJ93BFWL","A6THOSGKI6HQC","3THR0FZ95PF7SK0MYRNAOUHTWA4OLV","","","","","","","","","","","","","",""
"","image-keyboard-response","320","231821","0.0-325.0","3LOTDFNYA8LVJLXMU4GOZULJ93BFWL","A6THOSGKI6HQC","3THR0FZ95PF7SK0MYRNAOUHTWA4OLV","","","img/food2.png","","1002.3999996185303","-1","0","1","2","1,0.7,0,1,0.7,0,0.7,0,1","1,0.7,0,1,0.7,0,0.7,0,1","1","true",""
"","html-keyboard-response","321","232124","0.0-326.0","3LOTDFNYA8LVJLXMU4GOZULJ93BFWL","A6THOSGKI6HQC","3THR0FZ95PF7SK0MYRNAOUHTWA4OLV","","null","<img src=""img/food2.png"" style=""width:200px;border:14px solid red;"">","null","","","","","","","","","",""
"","html-keyboard-response","322","233419","0.0-327.0-0.0","3LOTDFNYA8LVJLXMU4GOZULJ93BFWL","A6THOSGKI6HQC","3THR0FZ95PF7SK0MYRNAOUHTWA4OLV","","","","","","","","","","","","","",""
"","image-keyboard-response","323","234422","0.0-328.0","3LOTDFNYA8LVJLXMU4GOZULJ93BFWL","A6THOSGKI6HQC","3THR0FZ95PF7SK0MYRNAOUHTWA4OLV","","","img/food3.png","","1002.5999999046326","-1","0","3","2","1,0.7,0,1,0.7,0,0.7,0,1","1,0.7,0,1,0.7,0,0.7,0,1","1","true",""
"","html-keyboard-response","324","234725","0.0-329.0","3LOTDFNYA8LVJLXMU4GOZULJ93BFWL","A6THOSGKI6HQC","3THR0FZ95PF7SK0MYRNAOUHTWA4OLV","","null","<img src=""img/food3.png"" style=""width:200px;border:14px solid red;"">","null","","","","","","","","","",""
"","html-keyboard-response","325","236347","0.0-330.0-0.0","3LOTDFNYA8LVJLXMU4GOZULJ93BFWL","A6THOSGKI6HQC","3THR0FZ95PF7SK0MYRNAOUHTWA4OLV","","","","","","","","","","","","","",""
"","image-keyboard-response","326","237350","0.0-331.0","3LOTDFNYA8LVJLXMU4GOZULJ93BFWL","A6THOSGKI6HQC","3THR0FZ95PF7SK0MYRNAOUHTWA4OLV","","","img/food2.png","","1002.7999997138977","-1","0","1","2","1,0.7,0,1,0.7,0,0.7,0,1","1,0.7,0,1,0.7,0,0.7,0,1","1","true",""
"","html-keyboard-response","327","237653","0.0-332.0","3LOTDFNYA8LVJLXMU4GOZULJ93BFWL","A6THOSGKI6HQC","3THR0FZ95PF7SK0MYRNAOUHTWA4OLV","","null","<img src=""img/food2.png"" style=""width:200px;border:14px solid red;"">","null","","","","","","","","","",""
"","html-keyboard-response","328","238786","0.0-333.0-0.0","3LOTDFNYA8LVJLXMU4GOZULJ93BFWL","A6THOSGKI6HQC","3THR0FZ95PF7SK0MYRNAOUHTWA4OLV","","","","","","","","","","","","","",""
"","image-keyboard-response","329","239789","0.0-334.0","3LOTDFNYA8LVJLXMU4GOZULJ93BFWL","A6THOSGKI6HQC","3THR0FZ95PF7SK0MYRNAOUHTWA4OLV","","","img/food1.png","","1002.9000000953674","-1","0","2","2","1,0.7,0,1,0.7,0,0.7,0,1","1,0.7,0,1,0.7,0,0.7,0,1","1","true",""
"","html-keyboard-response","330","240092","0.0-335.0","3LOTDFNYA8LVJLXMU4GOZULJ93BFWL","A6THOSGKI6HQC","3THR0FZ95PF7SK0MYRNAOUHTWA4OLV","","null","<img src=""img/food1.png"" style=""width:200px;border:14px solid red;"">","null","","","","","","","","","",""
"","html-keyboard-response","331","242250","0.0-336.0-0.0","3LOTDFNYA8LVJLXMU4GOZULJ93BFWL","A6THOSGKI6HQC","3THR0FZ95PF7SK0MYRNAOUHTWA4OLV","","","","","","","","","","","","","",""
"","image-keyboard-response","332","243253","0.0-337.0","3LOTDFNYA8LVJLXMU4GOZULJ93BFWL","A6THOSGKI6HQC","3THR0FZ95PF7SK0MYRNAOUHTWA4OLV","","","img/food1.png","","1002.9000000953674","-1","0","2","2","1,0.7,0,1,0.7,0,0.7,0,1","1,0.7,0,1,0.7,0,0.7,0,1","1","true",""
"","html-keyboard-response","333","243556","0.0-338.0","3LOTDFNYA8LVJLXMU4GOZULJ93BFWL","A6THOSGKI6HQC","3THR0FZ95PF7SK0MYRNAOUHTWA4OLV","","null","<img src=""img/food1.png"" style=""width:200px;border:14px solid red;"">","null","","","","","","","","","",""
"","html-keyboard-response","334","244395","0.0-339.0-0.0","3LOTDFNYA8LVJLXMU4GOZULJ93BFWL","A6THOSGKI6HQC","3THR0FZ95PF7SK0MYRNAOUHTWA4OLV","","","","","","","","","","","","","",""
"","image-keyboard-response","335","245398","0.0-340.0","3LOTDFNYA8LVJLXMU4GOZULJ93BFWL","A6THOSGKI6HQC","3THR0FZ95PF7SK0MYRNAOUHTWA4OLV","","","img/food3.png","","1002.6999998092651","-1","0","3","2","1,0.7,0,1,0.7,0,0.7,0,1","1,0.7,0,1,0.7,0,0.7,0,1","1","true",""
"","html-keyboard-response","336","245701","0.0-341.0","3LOTDFNYA8LVJLXMU4GOZULJ93BFWL","A6THOSGKI6HQC","3THR0FZ95PF7SK0MYRNAOUHTWA4OLV","","null","<img src=""img/food3.png"" style=""width:200px;border:14px solid red;"">","null","","","","","","","","","",""
"","html-keyboard-response","337","247347","0.0-342.0-0.0","3LOTDFNYA8LVJLXMU4GOZULJ93BFWL","A6THOSGKI6HQC","3THR0FZ95PF7SK0MYRNAOUHTWA4OLV","","","","","","","","","","","","","",""
"","image-keyboard-response","338","248350","0.0-343.0","3LOTDFNYA8LVJLXMU4GOZULJ93BFWL","A6THOSGKI6HQC","3THR0FZ95PF7SK0MYRNAOUHTWA4OLV","","","img/food2.png","","1002.5999999046326","-1","0","1","2","1,0.7,0,1,0.7,0,0.7,0,1","1,0.7,0,1,0.7,0,0.7,0,1","1","true",""
"","html-keyboard-response","339","248653","0.0-344.0","3LOTDFNYA8LVJLXMU4GOZULJ93BFWL","A6THOSGKI6HQC","3THR0FZ95PF7SK0MYRNAOUHTWA4OLV","","null","<img src=""img/food2.png"" style=""width:200px;border:14px solid red;"">","null","","","","","","","","","",""
"","html-keyboard-response","340","250035","0.0-345.0-0.0","3LOTDFNYA8LVJLXMU4GOZULJ93BFWL","A6THOSGKI6HQC","3THR0FZ95PF7SK0MYRNAOUHTWA4OLV","","","","","","","","","","","","","",""
"","image-keyboard-response","341","251038","0.0-346.0","3LOTDFNYA8LVJLXMU4GOZULJ93BFWL","A6THOSGKI6HQC","3THR0FZ95PF7SK0MYRNAOUHTWA4OLV","","","img/food2.png","","1002.5999999046326","-1","0","1","2","1,0.7,0,1,0.7,0,0.7,0,1","1,0.7,0,1,0.7,0,0.7,0,1","1","true",""
"","html-keyboard-response","342","251341","0.0-347.0","3LOTDFNYA8LVJLXMU4GOZULJ93BFWL","A6THOSGKI6HQC","3THR0FZ95PF7SK0MYRNAOUHTWA4OLV","","null","<img src=""img/food2.png"" style=""width:200px;border:14px solid red;"">","null","","","","","","","","","",""
"","html-keyboard-response","343","253907","0.0-348.0-0.0","3LOTDFNYA8LVJLXMU4GOZULJ93BFWL","A6THOSGKI6HQC","3THR0FZ95PF7SK0MYRNAOUHTWA4OLV","","","","","","","","","","","","","",""
"","image-keyboard-response","344","254911","0.0-349.0","3LOTDFNYA8LVJLXMU4GOZULJ93BFWL","A6THOSGKI6HQC","3THR0FZ95PF7SK0MYRNAOUHTWA4OLV","","","img/food3.png","","1003.0999999046326","-1","0","3","2","1,0.7,0,1,0.7,0,0.7,0,1","1,0.7,0,1,0.7,0,0.7,0,1","1","true",""
"","html-keyboard-response","345","255213","0.0-350.0","3LOTDFNYA8LVJLXMU4GOZULJ93BFWL","A6THOSGKI6HQC","3THR0FZ95PF7SK0MYRNAOUHTWA4OLV","","null","<img src=""img/food3.png"" style=""width:200px;border:14px solid red;"">","null","","","","","","","","","",""
"","html-keyboard-response","346","258587","0.0-351.0-0.0","3LOTDFNYA8LVJLXMU4GOZULJ93BFWL","A6THOSGKI6HQC","3THR0FZ95PF7SK0MYRNAOUHTWA4OLV","","","","","","","","","","","","","",""
"","image-keyboard-response","347","259589","0.0-352.0","3LOTDFNYA8LVJLXMU4GOZULJ93BFWL","A6THOSGKI6HQC","3THR0FZ95PF7SK0MYRNAOUHTWA4OLV","","","img/food3.png","","1002.1999998092651","-1","0","3","2","1,0.7,0,1,0.7,0,0.7,0,1","1,0.7,0,1,0.7,0,0.7,0,1","1","true",""
"","html-keyboard-response","348","259892","0.0-353.0","3LOTDFNYA8LVJLXMU4GOZULJ93BFWL","A6THOSGKI6HQC","3THR0FZ95PF7SK0MYRNAOUHTWA4OLV","","null","<img src=""img/food3.png"" style=""width:200px;border:14px solid red;"">","null","","","","","","","","","",""
"","html-keyboard-response","349","261171","0.0-354.0-0.0","3LOTDFNYA8LVJLXMU4GOZULJ93BFWL","A6THOSGKI6HQC","3THR0FZ95PF7SK0MYRNAOUHTWA4OLV","","","","","","","","","","","","","",""
"","image-keyboard-response","350","262174","0.0-355.0","3LOTDFNYA8LVJLXMU4GOZULJ93BFWL","A6THOSGKI6HQC","3THR0FZ95PF7SK0MYRNAOUHTWA4OLV","","","img/food2.png","","1002.9000000953674","-1","0","1","2","1,0.7,0,1,0.7,0,0.7,0,1","1,0.7,0,1,0.7,0,0.7,0,1","1","true",""
"","html-keyboard-response","351","262476","0.0-356.0","3LOTDFNYA8LVJLXMU4GOZULJ93BFWL","A6THOSGKI6HQC","3THR0FZ95PF7SK0MYRNAOUHTWA4OLV","","null","<img src=""img/food2.png"" style=""width:200px;border:14px solid red;"">","null","","","","","","","","","",""
"","html-keyboard-response","352","264739","0.0-357.0-0.0","3LOTDFNYA8LVJLXMU4GOZULJ93BFWL","A6THOSGKI6HQC","3THR0FZ95PF7SK0MYRNAOUHTWA4OLV","","","","","","","","","","","","","",""
"","image-keyboard-response","353","265741","0.0-358.0","3LOTDFNYA8LVJLXMU4GOZULJ93BFWL","A6THOSGKI6HQC","3THR0FZ95PF7SK0MYRNAOUHTWA4OLV","","","img/food3.png","","1002.0999999046326","-1","0","3","2","1,0.7,0,1,0.7,0,0.7,0,1","1,0.7,0,1,0.7,0,0.7,0,1","1","true",""
"","html-keyboard-response","354","266044","0.0-359.0","3LOTDFNYA8LVJLXMU4GOZULJ93BFWL","A6THOSGKI6HQC","3THR0FZ95PF7SK0MYRNAOUHTWA4OLV","","null","<img src=""img/food3.png"" style=""width:200px;border:14px solid red;"">","null","","","","","","","","","",""
"","html-keyboard-response","355","268331","0.0-360.0-0.0","3LOTDFNYA8LVJLXMU4GOZULJ93BFWL","A6THOSGKI6HQC","3THR0FZ95PF7SK0MYRNAOUHTWA4OLV","","","","","","","","","","","","","",""
"","image-keyboard-response","356","269333","0.0-361.0","3LOTDFNYA8LVJLXMU4GOZULJ93BFWL","A6THOSGKI6HQC","3THR0FZ95PF7SK0MYRNAOUHTWA4OLV","","","img/food1.png","","1002.5","-1","0","2","2","1,0.7,0,1,0.7,0,0.7,0,1","1,0.7,0,1,0.7,0,0.7,0,1","1","true",""
"","html-keyboard-response","357","269636","0.0-362.0","3LOTDFNYA8LVJLXMU4GOZULJ93BFWL","A6THOSGKI6HQC","3THR0FZ95PF7SK0MYRNAOUHTWA4OLV","","null","<img src=""img/food1.png"" style=""width:200px;border:14px solid red;"">","null","","","","","","","","","",""
"","html-keyboard-response","358","279929","0.0-363.0-0.0","3LOTDFNYA8LVJLXMU4GOZULJ93BFWL","A6THOSGKI6HQC","3THR0FZ95PF7SK0MYRNAOUHTWA4OLV","","","","","","","","","","","","","",""
"","image-keyboard-response","359","280932","0.0-364.0","3LOTDFNYA8LVJLXMU4GOZULJ93BFWL","A6THOSGKI6HQC","3THR0FZ95PF7SK0MYRNAOUHTWA4OLV","","","img/food3.png","","1002.8000001907349","-1","0","3","2","1,0.7,0,1,0.7,0,0.7,0,1","1,0.7,0,1,0.7,0,0.7,0,1","1","true",""
"","html-keyboard-response","360","281235","0.0-365.0","3LOTDFNYA8LVJLXMU4GOZULJ93BFWL","A6THOSGKI6HQC","3THR0FZ95PF7SK0MYRNAOUHTWA4OLV","","null","<img src=""img/food3.png"" style=""width:200px;border:14px solid red;"">","null","","","","","","","","","",""
"","html-keyboard-response","361","283634","0.0-366.0-0.0","3LOTDFNYA8LVJLXMU4GOZULJ93BFWL","A6THOSGKI6HQC","3THR0FZ95PF7SK0MYRNAOUHTWA4OLV","","","","","","","","","","","","","",""
"","image-keyboard-response","362","284637","0.0-367.0","3LOTDFNYA8LVJLXMU4GOZULJ93BFWL","A6THOSGKI6HQC","3THR0FZ95PF7SK0MYRNAOUHTWA4OLV","","","img/food1.png","","1002.5999999046326","-1","0","2","2","1,0.7,0,1,0.7,0,0.7,0,1","1,0.7,0,1,0.7,0,0.7,0,1","1","true",""
"","html-keyboard-response","363","284939","0.0-368.0","3LOTDFNYA8LVJLXMU4GOZULJ93BFWL","A6THOSGKI6HQC","3THR0FZ95PF7SK0MYRNAOUHTWA4OLV","","null","<img src=""img/food1.png"" style=""width:200px;border:14px solid red;"">","null","","","","","","","","","",""
"","html-keyboard-response","364","286202","0.0-369.0-0.0","3LOTDFNYA8LVJLXMU4GOZULJ93BFWL","A6THOSGKI6HQC","3THR0FZ95PF7SK0MYRNAOUHTWA4OLV","","","","","","","","","","","","","",""
"","image-keyboard-response","365","287205","0.0-370.0","3LOTDFNYA8LVJLXMU4GOZULJ93BFWL","A6THOSGKI6HQC","3THR0FZ95PF7SK0MYRNAOUHTWA4OLV","","","img/food3.png","","1002.5","-1","0","3","2","1,0.7,0,1,0.7,0,0.7,0,1","1,0.7,0,1,0.7,0,0.7,0,1","1","true",""
"","html-keyboard-response","366","287508","0.0-371.0","3LOTDFNYA8LVJLXMU4GOZULJ93BFWL","A6THOSGKI6HQC","3THR0FZ95PF7SK0MYRNAOUHTWA4OLV","","null","<img src=""img/food3.png"" style=""width:200px;border:14px solid red;"">","null","","","","","","","","","",""
"","html-keyboard-response","367","291938","0.0-372.0-0.0","3LOTDFNYA8LVJLXMU4GOZULJ93BFWL","A6THOSGKI6HQC","3THR0FZ95PF7SK0MYRNAOUHTWA4OLV","","","","","","","","","","","","","",""
"","image-keyboard-response","368","292941","0.0-373.0","3LOTDFNYA8LVJLXMU4GOZULJ93BFWL","A6THOSGKI6HQC","3THR0FZ95PF7SK0MYRNAOUHTWA4OLV","","","img/food2.png","","1002.8000001907349","-1","0","1","2","1,0.7,0,1,0.7,0,0.7,0,1","1,0.7,0,1,0.7,0,0.7,0,1","1","true",""
"","html-keyboard-response","369","293244","0.0-374.0","3LOTDFNYA8LVJLXMU4GOZULJ93BFWL","A6THOSGKI6HQC","3THR0FZ95PF7SK0MYRNAOUHTWA4OLV","","null","<img src=""img/food2.png"" style=""width:200px;border:14px solid red;"">","null","","","","","","","","","",""
"","html-keyboard-response","370","295705","0.0-375.0-0.0","3LOTDFNYA8LVJLXMU4GOZULJ93BFWL","A6THOSGKI6HQC","3THR0FZ95PF7SK0MYRNAOUHTWA4OLV","","","","","","","","","","","","","",""
"","image-keyboard-response","371","296708","0.0-376.0","3LOTDFNYA8LVJLXMU4GOZULJ93BFWL","A6THOSGKI6HQC","3THR0FZ95PF7SK0MYRNAOUHTWA4OLV","","","img/food1.png","","1002.5999999046326","-1","0","2","2","1,0.7,0,1,0.7,0,0.7,0,1","1,0.7,0,1,0.7,0,0.7,0,1","1","true",""
"","html-keyboard-response","372","297011","0.0-377.0","3LOTDFNYA8LVJLXMU4GOZULJ93BFWL","A6THOSGKI6HQC","3THR0FZ95PF7SK0MYRNAOUHTWA4OLV","","null","<img src=""img/food1.png"" style=""width:200px;border:14px solid red;"">","null","","","","","","","","","",""
"","html-keyboard-response","373","298497","0.0-378.0-0.0","3LOTDFNYA8LVJLXMU4GOZULJ93BFWL","A6THOSGKI6HQC","3THR0FZ95PF7SK0MYRNAOUHTWA4OLV","","","","","","","","","","","","","",""
"","image-keyboard-response","374","299500","0.0-379.0","3LOTDFNYA8LVJLXMU4GOZULJ93BFWL","A6THOSGKI6HQC","3THR0FZ95PF7SK0MYRNAOUHTWA4OLV","","","img/food1.png","","1003","-1","0","2","2","1,0.7,0,1,0.7,0,0.7,0,1","1,0.7,0,1,0.7,0,0.7,0,1","1","true",""
"","html-keyboard-response","375","299803","0.0-380.0","3LOTDFNYA8LVJLXMU4GOZULJ93BFWL","A6THOSGKI6HQC","3THR0FZ95PF7SK0MYRNAOUHTWA4OLV","","null","<img src=""img/food1.png"" style=""width:200px;border:14px solid red;"">","null","","","","","","","","","",""
"","html-keyboard-response","376","302138","0.0-381.0-0.0","3LOTDFNYA8LVJLXMU4GOZULJ93BFWL","A6THOSGKI6HQC","3THR0FZ95PF7SK0MYRNAOUHTWA4OLV","","","","","","","","","","","","","",""
"","image-keyboard-response","377","303140","0.0-382.0","3LOTDFNYA8LVJLXMU4GOZULJ93BFWL","A6THOSGKI6HQC","3THR0FZ95PF7SK0MYRNAOUHTWA4OLV","","","img/food1.png","","1002.2999997138977","-1","0","2","2","1,0.7,0,1,0.7,0,0.7,0,1","1,0.7,0,1,0.7,0,0.7,0,1","1","true",""
"","html-keyboard-response","378","303443","0.0-383.0","3LOTDFNYA8LVJLXMU4GOZULJ93BFWL","A6THOSGKI6HQC","3THR0FZ95PF7SK0MYRNAOUHTWA4OLV","","null","<img src=""img/food1.png"" style=""width:200px;border:14px solid red;"">","null","","","","","","","","","",""
"","html-keyboard-response","379","305761","0.0-384.0-0.0","3LOTDFNYA8LVJLXMU4GOZULJ93BFWL","A6THOSGKI6HQC","3THR0FZ95PF7SK0MYRNAOUHTWA4OLV","","","","","","","","","","","","","",""
"","image-keyboard-response","380","306764","0.0-385.0","3LOTDFNYA8LVJLXMU4GOZULJ93BFWL","A6THOSGKI6HQC","3THR0FZ95PF7SK0MYRNAOUHTWA4OLV","","","img/food1.png","","1002.7999997138977","-1","0","2","2","1,0.7,0,1,0.7,0,0.7,0,1","1,0.7,0,1,0.7,0,0.7,0,1","1","true",""
"","html-keyboard-response","381","307067","0.0-386.0","3LOTDFNYA8LVJLXMU4GOZULJ93BFWL","A6THOSGKI6HQC","3THR0FZ95PF7SK0MYRNAOUHTWA4OLV","","null","<img src=""img/food1.png"" style=""width:200px;border:14px solid red;"">","null","","","","","","","","","",""
"","html-keyboard-response","382","308289","0.0-387.0-0.0","3LOTDFNYA8LVJLXMU4GOZULJ93BFWL","A6THOSGKI6HQC","3THR0FZ95PF7SK0MYRNAOUHTWA4OLV","","","","","","","","","","","","","",""
"","image-keyboard-response","383","309292","0.0-388.0","3LOTDFNYA8LVJLXMU4GOZULJ93BFWL","A6THOSGKI6HQC","3THR0FZ95PF7SK0MYRNAOUHTWA4OLV","","","img/food3.png","","1002.6999998092651","-1","0","3","2","1,0.7,0,1,0.7,0,0.7,0,1","1,0.7,0,1,0.7,0,0.7,0,1","1","true",""
"","html-keyboard-response","384","309595","0.0-389.0","3LOTDFNYA8LVJLXMU4GOZULJ93BFWL","A6THOSGKI6HQC","3THR0FZ95PF7SK0MYRNAOUHTWA4OLV","","null","<img src=""img/food3.png"" style=""width:200px;border:14px solid red;"">","null","","","","","","","","","",""
"","html-keyboard-response","385","310857","0.0-390.0-0.0","3LOTDFNYA8LVJLXMU4GOZULJ93BFWL","A6THOSGKI6HQC","3THR0FZ95PF7SK0MYRNAOUHTWA4OLV","","","","","","","","","","","","","",""
"","image-keyboard-response","386","311859","0.0-391.0","3LOTDFNYA8LVJLXMU4GOZULJ93BFWL","A6THOSGKI6HQC","3THR0FZ95PF7SK0MYRNAOUHTWA4OLV","","","img/food3.png","","1002.1000003814697","-1","0","3","2","1,0.7,0,1,0.7,0,0.7,0,1","1,0.7,0,1,0.7,0,0.7,0,1","1","true",""
"","html-keyboard-response","387","312162","0.0-392.0","3LOTDFNYA8LVJLXMU4GOZULJ93BFWL","A6THOSGKI6HQC","3THR0FZ95PF7SK0MYRNAOUHTWA4OLV","","null","<img src=""img/food3.png"" style=""width:200px;border:14px solid red;"">","null","","","","","","","","","",""
"","html-keyboard-response","388","313081","0.0-393.0-0.0","3LOTDFNYA8LVJLXMU4GOZULJ93BFWL","A6THOSGKI6HQC","3THR0FZ95PF7SK0MYRNAOUHTWA4OLV","","","","","","","","","","","","","",""
"","image-keyboard-response","389","314084","0.0-394.0","3LOTDFNYA8LVJLXMU4GOZULJ93BFWL","A6THOSGKI6HQC","3THR0FZ95PF7SK0MYRNAOUHTWA4OLV","","","img/food3.png","","1002.6999998092651","-1","0","3","2","1,0.7,0,1,0.7,0,0.7,0,1","1,0.7,0,1,0.7,0,0.7,0,1","1","true",""
"","html-keyboard-response","390","314386","0.0-395.0","3LOTDFNYA8LVJLXMU4GOZULJ93BFWL","A6THOSGKI6HQC","3THR0FZ95PF7SK0MYRNAOUHTWA4OLV","","null","<img src=""img/food3.png"" style=""width:200px;border:14px solid red;"">","null","","","","","","","","","",""
"","html-keyboard-response","391","315217","0.0-396.0-0.0","3LOTDFNYA8LVJLXMU4GOZULJ93BFWL","A6THOSGKI6HQC","3THR0FZ95PF7SK0MYRNAOUHTWA4OLV","","","","","","","","","","","","","",""
"","image-keyboard-response","392","316220","0.0-397.0","3LOTDFNYA8LVJLXMU4GOZULJ93BFWL","A6THOSGKI6HQC","3THR0FZ95PF7SK0MYRNAOUHTWA4OLV","","","img/food2.png","","1002.5","-1","0","1","2","1,0.7,0,1,0.7,0,0.7,0,1","1,0.7,0,1,0.7,0,0.7,0,1","1","true",""
"","html-keyboard-response","393","316523","0.0-398.0","3LOTDFNYA8LVJLXMU4GOZULJ93BFWL","A6THOSGKI6HQC","3THR0FZ95PF7SK0MYRNAOUHTWA4OLV","","null","<img src=""img/food2.png"" style=""width:200px;border:14px solid red;"">","null","","","","","","","","","",""
"","html-keyboard-response","394","316977","0.0-399.0-0.0","3LOTDFNYA8LVJLXMU4GOZULJ93BFWL","A6THOSGKI6HQC","3THR0FZ95PF7SK0MYRNAOUHTWA4OLV","","","","","","","","","","","","","",""
"","image-keyboard-response","395","317980","0.0-400.0","3LOTDFNYA8LVJLXMU4GOZULJ93BFWL","A6THOSGKI6HQC","3THR0FZ95PF7SK0MYRNAOUHTWA4OLV","","","img/food3.png","","1003","-1","0","3","2","1,0.7,0,1,0.7,0,0.7,0,1","1,0.7,0,1,0.7,0,0.7,0,1","1","true",""
"","html-keyboard-response","396","318283","0.0-401.0","3LOTDFNYA8LVJLXMU4GOZULJ93BFWL","A6THOSGKI6HQC","3THR0FZ95PF7SK0MYRNAOUHTWA4OLV","","null","<img src=""img/food3.png"" style=""width:200px;border:14px solid red;"">","null","","","","","","","","","",""
"","html-keyboard-response","397","319978","0.0-402.0-0.0","3LOTDFNYA8LVJLXMU4GOZULJ93BFWL","A6THOSGKI6HQC","3THR0FZ95PF7SK0MYRNAOUHTWA4OLV","","","","","","","","","","","","","",""
