"success","trial_type","trial_index","time_elapsed","internal_node_id","assignmentID","mturkID","hitID","view_history","rt","stimulus","key_press","reactionTime","a","r","warning","s","cond","reward_cond","reward_cond_actual","reward_matrix_idx","responses"
"true","fullscreen","0","64292","0.0-0.0","3HOSI13XH0AZCVJZM3G8J6TDR8DDDK","A7QAPZ1YVA0K2","3FVBZG9CLJ0K37PD5L6161S4HTM0HN","","","","","","","","","","","","","",""
"","instructions","1","78102","0.0-1.0","3HOSI13XH0AZCVJZM3G8J6TDR8DDDK","A7QAPZ1YVA0K2","3FVBZG9CLJ0K37PD5L6161S4HTM0HN","[{""page_index"":0,""viewing_time"":1352},{""page_index"":1,""viewing_time"":865},{""page_index"":2,""viewing_time"":937},{""page_index"":3,""viewing_time"":2674},{""page_index"":4,""viewing_time"":3217},{""page_index"":5,""viewing_time"":1514},{""page_index"":6,""viewing_time"":3240}]","13803","","","","","","","","","","","",""
"","instructions","2","81433","0.0-2.0","3HOSI13XH0AZCVJZM3G8J6TDR8DDDK","A7QAPZ1YVA0K2","3FVBZG9CLJ0K37PD5L6161S4HTM0HN","[{""page_index"":0,""viewing_time"":1957},{""page_index"":1,""viewing_time"":1368}]","3325","","","","","","","","","","","",""
"","image-keyboard-response","3","82344","0.0-3.0","3HOSI13XH0AZCVJZM3G8J6TDR8DDDK","A7QAPZ1YVA0K2","3FVBZG9CLJ0K37PD5L6161S4HTM0HN","","906","img/food5.png","75","909","2","0","false","3","2","1,0.5,0,1,0.5,0,0.5,0,1","1,0.5,0,1,0.5,0,0.5,0,1","1",""
"","html-keyboard-response","4","82649","0.0-4.0","3HOSI13XH0AZCVJZM3G8J6TDR8DDDK","A7QAPZ1YVA0K2","3FVBZG9CLJ0K37PD5L6161S4HTM0HN","","null","<img src=""img/food5.png"" style=""width:200px;border:14px solid red;"">","null","","","","","","","","","",""
"","image-keyboard-response","5","83378","0.0-6.0","3HOSI13XH0AZCVJZM3G8J6TDR8DDDK","A7QAPZ1YVA0K2","3FVBZG9CLJ0K37PD5L6161S4HTM0HN","","725","img/food5.png","76","726","3","1","false","3","2","1,0.5,0,1,0.5,0,0.5,0,1","1,0.5,0,1,0.5,0,0.5,0,1","1",""
"","html-keyboard-response","6","83682","0.0-7.0","3HOSI13XH0AZCVJZM3G8J6TDR8DDDK","A7QAPZ1YVA0K2","3FVBZG9CLJ0K37PD5L6161S4HTM0HN","","null","<img src=""img/food5.png"" style=""width:200px; border:14px solid green;"">","null","","","","","","","","","",""
"","image-keyboard-response","7","84623","0.0-9.0","3HOSI13XH0AZCVJZM3G8J6TDR8DDDK","A7QAPZ1YVA0K2","3FVBZG9CLJ0K37PD5L6161S4HTM0HN","","938","img/food5.png","76","941","3","1","false","3","2","1,0.5,0,1,0.5,0,0.5,0,1","1,0.5,0,1,0.5,0,0.5,0,1","1",""
"","html-keyboard-response","8","84926","0.0-10.0","3HOSI13XH0AZCVJZM3G8J6TDR8DDDK","A7QAPZ1YVA0K2","3FVBZG9CLJ0K37PD5L6161S4HTM0HN","","null","<img src=""img/food5.png"" style=""width:200px; border:14px solid green;"">","null","","","","","","","","","",""
"","image-keyboard-response","9","85640","0.0-12.0","3HOSI13XH0AZCVJZM3G8J6TDR8DDDK","A7QAPZ1YVA0K2","3FVBZG9CLJ0K37PD5L6161S4HTM0HN","","711","img/food5.png","76","713","3","1","false","3","2","1,0.5,0,1,0.5,0,0.5,0,1","1,0.5,0,1,0.5,0,0.5,0,1","1",""
"","html-keyboard-response","10","85943","0.0-13.0","3HOSI13XH0AZCVJZM3G8J6TDR8DDDK","A7QAPZ1YVA0K2","3FVBZG9CLJ0K37PD5L6161S4HTM0HN","","null","<img src=""img/food5.png"" style=""width:200px; border:14px solid green;"">","null","","","","","","","","","",""
"","image-keyboard-response","11","86539","0.0-15.0","3HOSI13XH0AZCVJZM3G8J6TDR8DDDK","A7QAPZ1YVA0K2","3FVBZG9CLJ0K37PD5L6161S4HTM0HN","","592","img/food5.png","76","594","3","1","false","3","2","1,0.5,0,1,0.5,0,0.5,0,1","1,0.5,0,1,0.5,0,0.5,0,1","1",""
"","html-keyboard-response","12","86843","0.0-16.0","3HOSI13XH0AZCVJZM3G8J6TDR8DDDK","A7QAPZ1YVA0K2","3FVBZG9CLJ0K37PD5L6161S4HTM0HN","","null","<img src=""img/food5.png"" style=""width:200px; border:14px solid green;"">","null","","","","","","","","","",""
"","image-keyboard-response","13","87847","0.0-18.0","3HOSI13XH0AZCVJZM3G8J6TDR8DDDK","A7QAPZ1YVA0K2","3FVBZG9CLJ0K37PD5L6161S4HTM0HN","","999","img/food2.png","75","1002","2","0","false","2","2","1,0.5,0,1,0.5,0,0.5,0,1","1,0.5,0,1,0.5,0,0.5,0,1","1",""
"","html-keyboard-response","14","88151","0.0-19.0","3HOSI13XH0AZCVJZM3G8J6TDR8DDDK","A7QAPZ1YVA0K2","3FVBZG9CLJ0K37PD5L6161S4HTM0HN","","null","<img src=""img/food2.png"" style=""width:200px;border:14px solid red;"">","null","","","","","","","","","",""
"","image-keyboard-response","15","88759","0.0-21.0","3HOSI13XH0AZCVJZM3G8J6TDR8DDDK","A7QAPZ1YVA0K2","3FVBZG9CLJ0K37PD5L6161S4HTM0HN","","605","img/food2.png","74","608","1","1","false","2","2","1,0.5,0,1,0.5,0,0.5,0,1","1,0.5,0,1,0.5,0,0.5,0,1","1",""
"","html-keyboard-response","16","89064","0.0-22.0","3HOSI13XH0AZCVJZM3G8J6TDR8DDDK","A7QAPZ1YVA0K2","3FVBZG9CLJ0K37PD5L6161S4HTM0HN","","null","<img src=""img/food2.png"" style=""width:200px; border:14px solid green;"">","null","","","","","","","","","",""
"","image-keyboard-response","17","89724","0.0-24.0","3HOSI13XH0AZCVJZM3G8J6TDR8DDDK","A7QAPZ1YVA0K2","3FVBZG9CLJ0K37PD5L6161S4HTM0HN","","654","img/food2.png","74","658","1","1","false","2","2","1,0.5,0,1,0.5,0,0.5,0,1","1,0.5,0,1,0.5,0,0.5,0,1","1",""
"","html-keyboard-response","18","90025","0.0-25.0","3HOSI13XH0AZCVJZM3G8J6TDR8DDDK","A7QAPZ1YVA0K2","3FVBZG9CLJ0K37PD5L6161S4HTM0HN","","null","<img src=""img/food2.png"" style=""width:200px; border:14px solid green;"">","null","","","","","","","","","",""
"","image-keyboard-response","19","90675","0.0-27.0","3HOSI13XH0AZCVJZM3G8J6TDR8DDDK","A7QAPZ1YVA0K2","3FVBZG9CLJ0K37PD5L6161S4HTM0HN","","647","img/food2.png","74","649","1","1","false","2","2","1,0.5,0,1,0.5,0,0.5,0,1","1,0.5,0,1,0.5,0,0.5,0,1","1",""
"","html-keyboard-response","20","90981","0.0-28.0","3HOSI13XH0AZCVJZM3G8J6TDR8DDDK","A7QAPZ1YVA0K2","3FVBZG9CLJ0K37PD5L6161S4HTM0HN","","null","<img src=""img/food2.png"" style=""width:200px; border:14px solid green;"">","null","","","","","","","","","",""
"","image-keyboard-response","21","91745","0.0-30.0","3HOSI13XH0AZCVJZM3G8J6TDR8DDDK","A7QAPZ1YVA0K2","3FVBZG9CLJ0K37PD5L6161S4HTM0HN","","761","img/food5.png","76","763","3","1","false","3","2","1,0.5,0,1,0.5,0,0.5,0,1","1,0.5,0,1,0.5,0,0.5,0,1","1",""
"","html-keyboard-response","22","92049","0.0-31.0","3HOSI13XH0AZCVJZM3G8J6TDR8DDDK","A7QAPZ1YVA0K2","3FVBZG9CLJ0K37PD5L6161S4HTM0HN","","null","<img src=""img/food5.png"" style=""width:200px; border:14px solid green;"">","null","","","","","","","","","",""
"","image-keyboard-response","23","93053","0.0-33.0","3HOSI13XH0AZCVJZM3G8J6TDR8DDDK","A7QAPZ1YVA0K2","3FVBZG9CLJ0K37PD5L6161S4HTM0HN","","","img/food2.png","","1002","-1","0","true","2","2","1,0.5,0,1,0.5,0,0.5,0,1","1,0.5,0,1,0.5,0,0.5,0,1","1",""
"","html-keyboard-response","24","93356","0.0-34.0","3HOSI13XH0AZCVJZM3G8J6TDR8DDDK","A7QAPZ1YVA0K2","3FVBZG9CLJ0K37PD5L6161S4HTM0HN","","null","<img src=""img/food2.png"" style=""width:200px;border:14px solid red;"">","null","","","","","","","","","",""
"","html-keyboard-response","25","97065","0.0-35.0-0.0","3HOSI13XH0AZCVJZM3G8J6TDR8DDDK","A7QAPZ1YVA0K2","3FVBZG9CLJ0K37PD5L6161S4HTM0HN","","","","","","","","","","","","","",""
"","image-keyboard-response","26","98072","0.0-36.0","3HOSI13XH0AZCVJZM3G8J6TDR8DDDK","A7QAPZ1YVA0K2","3FVBZG9CLJ0K37PD5L6161S4HTM0HN","","","img/food4.png","","1003","-1","0","true","1","2","1,0.5,0,1,0.5,0,0.5,0,1","1,0.5,0,1,0.5,0,0.5,0,1","1",""
"","html-keyboard-response","27","98375","0.0-37.0","3HOSI13XH0AZCVJZM3G8J6TDR8DDDK","A7QAPZ1YVA0K2","3FVBZG9CLJ0K37PD5L6161S4HTM0HN","","null","<img src=""img/food4.png"" style=""width:200px;border:14px solid red;"">","null","","","","","","","","","",""
"","html-keyboard-response","28","100964","0.0-38.0-0.0","3HOSI13XH0AZCVJZM3G8J6TDR8DDDK","A7QAPZ1YVA0K2","3FVBZG9CLJ0K37PD5L6161S4HTM0HN","","","","","","","","","","","","","",""
"","image-keyboard-response","29","101780","0.0-39.0","3HOSI13XH0AZCVJZM3G8J6TDR8DDDK","A7QAPZ1YVA0K2","3FVBZG9CLJ0K37PD5L6161S4HTM0HN","","813","img/food2.png","74","815","1","1","false","2","2","1,0.5,0,1,0.5,0,0.5,0,1","1,0.5,0,1,0.5,0,0.5,0,1","1",""
"","html-keyboard-response","30","102082","0.0-40.0","3HOSI13XH0AZCVJZM3G8J6TDR8DDDK","A7QAPZ1YVA0K2","3FVBZG9CLJ0K37PD5L6161S4HTM0HN","","null","<img src=""img/food2.png"" style=""width:200px; border:14px solid green;"">","null","","","","","","","","","",""
"","image-keyboard-response","31","103087","0.0-42.0","3HOSI13XH0AZCVJZM3G8J6TDR8DDDK","A7QAPZ1YVA0K2","3FVBZG9CLJ0K37PD5L6161S4HTM0HN","","","img/food4.png","","1004","-1","0","true","1","2","1,0.5,0,1,0.5,0,0.5,0,1","1,0.5,0,1,0.5,0,0.5,0,1","1",""
"","html-keyboard-response","32","103391","0.0-43.0","3HOSI13XH0AZCVJZM3G8J6TDR8DDDK","A7QAPZ1YVA0K2","3FVBZG9CLJ0K37PD5L6161S4HTM0HN","","null","<img src=""img/food4.png"" style=""width:200px;border:14px solid red;"">","null","","","","","","","","","",""
"","html-keyboard-response","33","105443","0.0-44.0-0.0","3HOSI13XH0AZCVJZM3G8J6TDR8DDDK","A7QAPZ1YVA0K2","3FVBZG9CLJ0K37PD5L6161S4HTM0HN","","","","","","","","","","","","","",""
"","image-keyboard-response","34","106448","0.0-45.0","3HOSI13XH0AZCVJZM3G8J6TDR8DDDK","A7QAPZ1YVA0K2","3FVBZG9CLJ0K37PD5L6161S4HTM0HN","","","img/food2.png","","1004","-1","0","true","2","2","1,0.5,0,1,0.5,0,0.5,0,1","1,0.5,0,1,0.5,0,0.5,0,1","1",""
"","html-keyboard-response","35","106753","0.0-46.0","3HOSI13XH0AZCVJZM3G8J6TDR8DDDK","A7QAPZ1YVA0K2","3FVBZG9CLJ0K37PD5L6161S4HTM0HN","","null","<img src=""img/food2.png"" style=""width:200px;border:14px solid red;"">","null","","","","","","","","","",""
"","html-keyboard-response","36","107998","0.0-47.0-0.0","3HOSI13XH0AZCVJZM3G8J6TDR8DDDK","A7QAPZ1YVA0K2","3FVBZG9CLJ0K37PD5L6161S4HTM0HN","","","","","","","","","","","","","",""
"","image-keyboard-response","37","109002","0.0-48.0","3HOSI13XH0AZCVJZM3G8J6TDR8DDDK","A7QAPZ1YVA0K2","3FVBZG9CLJ0K37PD5L6161S4HTM0HN","","","img/food4.png","","1004","-1","0","true","1","2","1,0.5,0,1,0.5,0,0.5,0,1","1,0.5,0,1,0.5,0,0.5,0,1","1",""
"","html-keyboard-response","38","109309","0.0-49.0","3HOSI13XH0AZCVJZM3G8J6TDR8DDDK","A7QAPZ1YVA0K2","3FVBZG9CLJ0K37PD5L6161S4HTM0HN","","null","<img src=""img/food4.png"" style=""width:200px;border:14px solid red;"">","null","","","","","","","","","",""
"","html-keyboard-response","39","110089","0.0-50.0-0.0","3HOSI13XH0AZCVJZM3G8J6TDR8DDDK","A7QAPZ1YVA0K2","3FVBZG9CLJ0K37PD5L6161S4HTM0HN","","","","","","","","","","","","","",""
"","image-keyboard-response","40","111093","0.0-51.0","3HOSI13XH0AZCVJZM3G8J6TDR8DDDK","A7QAPZ1YVA0K2","3FVBZG9CLJ0K37PD5L6161S4HTM0HN","","","img/food5.png","","1004","-1","0","true","3","2","1,0.5,0,1,0.5,0,0.5,0,1","1,0.5,0,1,0.5,0,0.5,0,1","1",""
"","html-keyboard-response","41","111397","0.0-52.0","3HOSI13XH0AZCVJZM3G8J6TDR8DDDK","A7QAPZ1YVA0K2","3FVBZG9CLJ0K37PD5L6161S4HTM0HN","","null","<img src=""img/food5.png"" style=""width:200px;border:14px solid red;"">","null","","","","","","","","","",""
"","html-keyboard-response","42","112186","0.0-53.0-0.0","3HOSI13XH0AZCVJZM3G8J6TDR8DDDK","A7QAPZ1YVA0K2","3FVBZG9CLJ0K37PD5L6161S4HTM0HN","","","","","","","","","","","","","",""
"","image-keyboard-response","43","113068","0.0-54.0","3HOSI13XH0AZCVJZM3G8J6TDR8DDDK","A7QAPZ1YVA0K2","3FVBZG9CLJ0K37PD5L6161S4HTM0HN","","877","img/food4.png","75","881","2","0","false","1","2","1,0.5,0,1,0.5,0,0.5,0,1","1,0.5,0,1,0.5,0,0.5,0,1","1",""
"","html-keyboard-response","44","113390","0.0-55.0","3HOSI13XH0AZCVJZM3G8J6TDR8DDDK","A7QAPZ1YVA0K2","3FVBZG9CLJ0K37PD5L6161S4HTM0HN","","null","<img src=""img/food4.png"" style=""width:200px;border:14px solid red;"">","null","","","","","","","","","",""
"","image-keyboard-response","45","114392","0.0-57.0","3HOSI13XH0AZCVJZM3G8J6TDR8DDDK","A7QAPZ1YVA0K2","3FVBZG9CLJ0K37PD5L6161S4HTM0HN","","","img/food5.png","","1001","-1","0","true","3","2","1,0.5,0,1,0.5,0,0.5,0,1","1,0.5,0,1,0.5,0,0.5,0,1","1",""
"","html-keyboard-response","46","114696","0.0-58.0","3HOSI13XH0AZCVJZM3G8J6TDR8DDDK","A7QAPZ1YVA0K2","3FVBZG9CLJ0K37PD5L6161S4HTM0HN","","null","<img src=""img/food5.png"" style=""width:200px;border:14px solid red;"">","null","","","","","","","","","",""
"","html-keyboard-response","47","115639","0.0-59.0-0.0","3HOSI13XH0AZCVJZM3G8J6TDR8DDDK","A7QAPZ1YVA0K2","3FVBZG9CLJ0K37PD5L6161S4HTM0HN","","","","","","","","","","","","","",""
"","image-keyboard-response","48","116627","0.0-60.0","3HOSI13XH0AZCVJZM3G8J6TDR8DDDK","A7QAPZ1YVA0K2","3FVBZG9CLJ0K37PD5L6161S4HTM0HN","","984","img/food2.png","74","987","1","1","false","2","2","1,0.5,0,1,0.5,0,0.5,0,1","1,0.5,0,1,0.5,0,0.5,0,1","1",""
"","html-keyboard-response","49","116931","0.0-61.0","3HOSI13XH0AZCVJZM3G8J6TDR8DDDK","A7QAPZ1YVA0K2","3FVBZG9CLJ0K37PD5L6161S4HTM0HN","","null","<img src=""img/food2.png"" style=""width:200px; border:14px solid green;"">","null","","","","","","","","","",""
"","image-keyboard-response","50","117873","0.0-63.0","3HOSI13XH0AZCVJZM3G8J6TDR8DDDK","A7QAPZ1YVA0K2","3FVBZG9CLJ0K37PD5L6161S4HTM0HN","","937","img/food2.png","74","940","1","1","false","2","2","1,0.5,0,1,0.5,0,0.5,0,1","1,0.5,0,1,0.5,0,0.5,0,1","1",""
"","html-keyboard-response","51","118176","0.0-64.0","3HOSI13XH0AZCVJZM3G8J6TDR8DDDK","A7QAPZ1YVA0K2","3FVBZG9CLJ0K37PD5L6161S4HTM0HN","","null","<img src=""img/food2.png"" style=""width:200px; border:14px solid green;"">","null","","","","","","","","","",""
"","image-keyboard-response","52","119179","0.0-66.0","3HOSI13XH0AZCVJZM3G8J6TDR8DDDK","A7QAPZ1YVA0K2","3FVBZG9CLJ0K37PD5L6161S4HTM0HN","","","img/food5.png","","1002","-1","0","true","3","2","1,0.5,0,1,0.5,0,0.5,0,1","1,0.5,0,1,0.5,0,0.5,0,1","1",""
"","html-keyboard-response","53","119486","0.0-67.0","3HOSI13XH0AZCVJZM3G8J6TDR8DDDK","A7QAPZ1YVA0K2","3FVBZG9CLJ0K37PD5L6161S4HTM0HN","","null","<img src=""img/food5.png"" style=""width:200px;border:14px solid red;"">","null","","","","","","","","","",""
"","html-keyboard-response","54","120507","0.0-68.0-0.0","3HOSI13XH0AZCVJZM3G8J6TDR8DDDK","A7QAPZ1YVA0K2","3FVBZG9CLJ0K37PD5L6161S4HTM0HN","","","","","","","","","","","","","",""
"","image-keyboard-response","55","121434","0.0-69.0","3HOSI13XH0AZCVJZM3G8J6TDR8DDDK","A7QAPZ1YVA0K2","3FVBZG9CLJ0K37PD5L6161S4HTM0HN","","922","img/food4.png","75","926","2","1","false","1","2","1,0.5,0,1,0.5,0,0.5,0,1","1,0.5,0,1,0.5,0,0.5,0,1","1",""
"","html-keyboard-response","56","121738","0.0-70.0","3HOSI13XH0AZCVJZM3G8J6TDR8DDDK","A7QAPZ1YVA0K2","3FVBZG9CLJ0K37PD5L6161S4HTM0HN","","null","<img src=""img/food4.png"" style=""width:200px; border:14px solid green;"">","null","","","","","","","","","",""
"","image-keyboard-response","57","122758","0.0-72.0","3HOSI13XH0AZCVJZM3G8J6TDR8DDDK","A7QAPZ1YVA0K2","3FVBZG9CLJ0K37PD5L6161S4HTM0HN","","","img/food5.png","","1018","-1","0","true","3","2","1,0.5,0,1,0.5,0,0.5,0,1","1,0.5,0,1,0.5,0,0.5,0,1","1",""
"","html-keyboard-response","58","123059","0.0-73.0","3HOSI13XH0AZCVJZM3G8J6TDR8DDDK","A7QAPZ1YVA0K2","3FVBZG9CLJ0K37PD5L6161S4HTM0HN","","null","<img src=""img/food5.png"" style=""width:200px;border:14px solid red;"">","null","","","","","","","","","",""
"","html-keyboard-response","59","123966","0.0-74.0-0.0","3HOSI13XH0AZCVJZM3G8J6TDR8DDDK","A7QAPZ1YVA0K2","3FVBZG9CLJ0K37PD5L6161S4HTM0HN","","","","","","","","","","","","","",""
"","image-keyboard-response","60","124966","0.0-75.0","3HOSI13XH0AZCVJZM3G8J6TDR8DDDK","A7QAPZ1YVA0K2","3FVBZG9CLJ0K37PD5L6161S4HTM0HN","","995","img/food2.png","75","999","2","0","false","2","2","1,0.5,0,1,0.5,0,0.5,0,1","1,0.5,0,1,0.5,0,0.5,0,1","1",""
"","html-keyboard-response","61","125270","0.0-76.0","3HOSI13XH0AZCVJZM3G8J6TDR8DDDK","A7QAPZ1YVA0K2","3FVBZG9CLJ0K37PD5L6161S4HTM0HN","","null","<img src=""img/food2.png"" style=""width:200px;border:14px solid red;"">","null","","","","","","","","","",""
"","image-keyboard-response","62","126125","0.0-78.0","3HOSI13XH0AZCVJZM3G8J6TDR8DDDK","A7QAPZ1YVA0K2","3FVBZG9CLJ0K37PD5L6161S4HTM0HN","","850","img/food5.png","74","852","1","0","false","3","2","1,0.5,0,1,0.5,0,0.5,0,1","1,0.5,0,1,0.5,0,0.5,0,1","1",""
"","html-keyboard-response","63","126429","0.0-79.0","3HOSI13XH0AZCVJZM3G8J6TDR8DDDK","A7QAPZ1YVA0K2","3FVBZG9CLJ0K37PD5L6161S4HTM0HN","","null","<img src=""img/food5.png"" style=""width:200px;border:14px solid red;"">","null","","","","","","","","","",""
"","image-keyboard-response","64","127433","0.0-81.0","3HOSI13XH0AZCVJZM3G8J6TDR8DDDK","A7QAPZ1YVA0K2","3FVBZG9CLJ0K37PD5L6161S4HTM0HN","","","img/food4.png","","1004","-1","0","true","1","2","1,0.5,0,1,0.5,0,0.5,0,1","1,0.5,0,1,0.5,0,0.5,0,1","1",""
"","html-keyboard-response","65","127737","0.0-82.0","3HOSI13XH0AZCVJZM3G8J6TDR8DDDK","A7QAPZ1YVA0K2","3FVBZG9CLJ0K37PD5L6161S4HTM0HN","","null","<img src=""img/food4.png"" style=""width:200px;border:14px solid red;"">","null","","","","","","","","","",""
"","html-keyboard-response","66","132817","0.0-83.0-0.0","3HOSI13XH0AZCVJZM3G8J6TDR8DDDK","A7QAPZ1YVA0K2","3FVBZG9CLJ0K37PD5L6161S4HTM0HN","","","","","","","","","","","","","",""
"","image-keyboard-response","67","133459","0.0-84.0","3HOSI13XH0AZCVJZM3G8J6TDR8DDDK","A7QAPZ1YVA0K2","3FVBZG9CLJ0K37PD5L6161S4HTM0HN","","637","img/food4.png","75","639","2","1","false","1","2","1,0.5,0,1,0.5,0,0.5,0,1","1,0.5,0,1,0.5,0,0.5,0,1","1",""
"","html-keyboard-response","68","133761","0.0-85.0","3HOSI13XH0AZCVJZM3G8J6TDR8DDDK","A7QAPZ1YVA0K2","3FVBZG9CLJ0K37PD5L6161S4HTM0HN","","null","<img src=""img/food4.png"" style=""width:200px; border:14px solid green;"">","null","","","","","","","","","",""
"","image-keyboard-response","69","134767","0.0-87.0","3HOSI13XH0AZCVJZM3G8J6TDR8DDDK","A7QAPZ1YVA0K2","3FVBZG9CLJ0K37PD5L6161S4HTM0HN","","","img/food2.png","","1005","-1","0","true","2","2","1,0.5,0,1,0.5,0,0.5,0,1","1,0.5,0,1,0.5,0,0.5,0,1","1",""
"","html-keyboard-response","70","135076","0.0-88.0","3HOSI13XH0AZCVJZM3G8J6TDR8DDDK","A7QAPZ1YVA0K2","3FVBZG9CLJ0K37PD5L6161S4HTM0HN","","null","<img src=""img/food2.png"" style=""width:200px;border:14px solid red;"">","null","","","","","","","","","",""
"","html-keyboard-response","71","137451","0.0-89.0-0.0","3HOSI13XH0AZCVJZM3G8J6TDR8DDDK","A7QAPZ1YVA0K2","3FVBZG9CLJ0K37PD5L6161S4HTM0HN","","","","","","","","","","","","","",""
"","image-keyboard-response","72","138048","0.0-90.0","3HOSI13XH0AZCVJZM3G8J6TDR8DDDK","A7QAPZ1YVA0K2","3FVBZG9CLJ0K37PD5L6161S4HTM0HN","","595","img/food4.png","76","596","3","0","false","1","2","1,0.5,0,1,0.5,0,0.5,0,1","1,0.5,0,1,0.5,0,0.5,0,1","1",""
"","html-keyboard-response","73","138351","0.0-91.0","3HOSI13XH0AZCVJZM3G8J6TDR8DDDK","A7QAPZ1YVA0K2","3FVBZG9CLJ0K37PD5L6161S4HTM0HN","","null","<img src=""img/food4.png"" style=""width:200px;border:14px solid red;"">","null","","","","","","","","","",""
"","image-keyboard-response","74","138970","0.0-93.0","3HOSI13XH0AZCVJZM3G8J6TDR8DDDK","A7QAPZ1YVA0K2","3FVBZG9CLJ0K37PD5L6161S4HTM0HN","","614","img/food5.png","75","615","2","0","false","3","2","1,0.5,0,1,0.5,0,0.5,0,1","1,0.5,0,1,0.5,0,0.5,0,1","1",""
"","html-keyboard-response","75","139272","0.0-94.0","3HOSI13XH0AZCVJZM3G8J6TDR8DDDK","A7QAPZ1YVA0K2","3FVBZG9CLJ0K37PD5L6161S4HTM0HN","","null","<img src=""img/food5.png"" style=""width:200px;border:14px solid red;"">","null","","","","","","","","","",""
"","image-keyboard-response","76","139760","0.0-96.0","3HOSI13XH0AZCVJZM3G8J6TDR8DDDK","A7QAPZ1YVA0K2","3FVBZG9CLJ0K37PD5L6161S4HTM0HN","","485","img/food5.png","74","487","1","0","false","3","2","1,0.5,0,1,0.5,0,0.5,0,1","1,0.5,0,1,0.5,0,0.5,0,1","1",""
"","html-keyboard-response","77","140063","0.0-97.0","3HOSI13XH0AZCVJZM3G8J6TDR8DDDK","A7QAPZ1YVA0K2","3FVBZG9CLJ0K37PD5L6161S4HTM0HN","","null","<img src=""img/food5.png"" style=""width:200px;border:14px solid red;"">","null","","","","","","","","","",""
"","image-keyboard-response","78","140562","0.0-99.0","3HOSI13XH0AZCVJZM3G8J6TDR8DDDK","A7QAPZ1YVA0K2","3FVBZG9CLJ0K37PD5L6161S4HTM0HN","","497","img/food5.png","75","498","2","0","false","3","2","1,0.5,0,1,0.5,0,0.5,0,1","1,0.5,0,1,0.5,0,0.5,0,1","1",""
"","html-keyboard-response","79","140864","0.0-100.0","3HOSI13XH0AZCVJZM3G8J6TDR8DDDK","A7QAPZ1YVA0K2","3FVBZG9CLJ0K37PD5L6161S4HTM0HN","","null","<img src=""img/food5.png"" style=""width:200px;border:14px solid red;"">","null","","","","","","","","","",""
"","image-keyboard-response","80","141178","0.0-102.0","3HOSI13XH0AZCVJZM3G8J6TDR8DDDK","A7QAPZ1YVA0K2","3FVBZG9CLJ0K37PD5L6161S4HTM0HN","","311","img/food4.png","76","314","3","0","false","1","2","1,0.5,0,1,0.5,0,0.5,0,1","1,0.5,0,1,0.5,0,0.5,0,1","1",""
"","html-keyboard-response","81","141481","0.0-103.0","3HOSI13XH0AZCVJZM3G8J6TDR8DDDK","A7QAPZ1YVA0K2","3FVBZG9CLJ0K37PD5L6161S4HTM0HN","","null","<img src=""img/food4.png"" style=""width:200px;border:14px solid red;"">","null","","","","","","","","","",""
"","image-keyboard-response","82","142033","0.0-105.0","3HOSI13XH0AZCVJZM3G8J6TDR8DDDK","A7QAPZ1YVA0K2","3FVBZG9CLJ0K37PD5L6161S4HTM0HN","","550","img/food4.png","76","551","3","0","false","1","2","1,0.5,0,1,0.5,0,0.5,0,1","1,0.5,0,1,0.5,0,0.5,0,1","1",""
"","html-keyboard-response","83","142342","0.0-106.0","3HOSI13XH0AZCVJZM3G8J6TDR8DDDK","A7QAPZ1YVA0K2","3FVBZG9CLJ0K37PD5L6161S4HTM0HN","","null","<img src=""img/food4.png"" style=""width:200px;border:14px solid red;"">","null","","","","","","","","","",""
"","image-keyboard-response","84","142579","0.0-108.0","3HOSI13XH0AZCVJZM3G8J6TDR8DDDK","A7QAPZ1YVA0K2","3FVBZG9CLJ0K37PD5L6161S4HTM0HN","","233","img/food4.png","75","235","2","0","false","1","2","1,0.5,0,1,0.5,0,0.5,0,1","1,0.5,0,1,0.5,0,0.5,0,1","1",""
"","html-keyboard-response","85","142884","0.0-109.0","3HOSI13XH0AZCVJZM3G8J6TDR8DDDK","A7QAPZ1YVA0K2","3FVBZG9CLJ0K37PD5L6161S4HTM0HN","","null","<img src=""img/food4.png"" style=""width:200px;border:14px solid red;"">","null","","","","","","","","","",""
"","image-keyboard-response","86","143499","0.0-111.0","3HOSI13XH0AZCVJZM3G8J6TDR8DDDK","A7QAPZ1YVA0K2","3FVBZG9CLJ0K37PD5L6161S4HTM0HN","","613","img/food2.png","74","615","1","1","false","2","2","1,0.5,0,1,0.5,0,0.5,0,1","1,0.5,0,1,0.5,0,0.5,0,1","1",""
"","html-keyboard-response","87","143801","0.0-112.0","3HOSI13XH0AZCVJZM3G8J6TDR8DDDK","A7QAPZ1YVA0K2","3FVBZG9CLJ0K37PD5L6161S4HTM0HN","","null","<img src=""img/food2.png"" style=""width:200px; border:14px solid green;"">","null","","","","","","","","","",""
"","image-keyboard-response","88","144463","0.0-114.0","3HOSI13XH0AZCVJZM3G8J6TDR8DDDK","A7QAPZ1YVA0K2","3FVBZG9CLJ0K37PD5L6161S4HTM0HN","","659","img/food5.png","74","661","1","1","false","3","2","1,0.5,0,1,0.5,0,0.5,0,1","1,0.5,0,1,0.5,0,0.5,0,1","1",""
"","html-keyboard-response","89","144767","0.0-115.0","3HOSI13XH0AZCVJZM3G8J6TDR8DDDK","A7QAPZ1YVA0K2","3FVBZG9CLJ0K37PD5L6161S4HTM0HN","","null","<img src=""img/food5.png"" style=""width:200px; border:14px solid green;"">","null","","","","","","","","","",""
"","image-keyboard-response","90","145387","0.0-117.0","3HOSI13XH0AZCVJZM3G8J6TDR8DDDK","A7QAPZ1YVA0K2","3FVBZG9CLJ0K37PD5L6161S4HTM0HN","","619","img/food5.png","74","619","1","1","false","3","2","1,0.5,0,1,0.5,0,0.5,0,1","1,0.5,0,1,0.5,0,0.5,0,1","1",""
"","html-keyboard-response","91","145689","0.0-118.0","3HOSI13XH0AZCVJZM3G8J6TDR8DDDK","A7QAPZ1YVA0K2","3FVBZG9CLJ0K37PD5L6161S4HTM0HN","","null","<img src=""img/food5.png"" style=""width:200px; border:14px solid green;"">","null","","","","","","","","","",""
"","image-keyboard-response","92","146437","0.0-120.0","3HOSI13XH0AZCVJZM3G8J6TDR8DDDK","A7QAPZ1YVA0K2","3FVBZG9CLJ0K37PD5L6161S4HTM0HN","","744","img/food4.png","75","746","2","0","false","1","2","1,0.5,0,1,0.5,0,0.5,0,1","1,0.5,0,1,0.5,0,0.5,0,1","1",""
"","html-keyboard-response","93","146740","0.0-121.0","3HOSI13XH0AZCVJZM3G8J6TDR8DDDK","A7QAPZ1YVA0K2","3FVBZG9CLJ0K37PD5L6161S4HTM0HN","","null","<img src=""img/food4.png"" style=""width:200px;border:14px solid red;"">","null","","","","","","","","","",""
"","image-keyboard-response","94","147332","0.0-123.0","3HOSI13XH0AZCVJZM3G8J6TDR8DDDK","A7QAPZ1YVA0K2","3FVBZG9CLJ0K37PD5L6161S4HTM0HN","","589","img/food2.png","76","591","3","0","false","2","2","1,0.5,0,1,0.5,0,0.5,0,1","1,0.5,0,1,0.5,0,0.5,0,1","1",""
"","html-keyboard-response","95","147637","0.0-124.0","3HOSI13XH0AZCVJZM3G8J6TDR8DDDK","A7QAPZ1YVA0K2","3FVBZG9CLJ0K37PD5L6161S4HTM0HN","","null","<img src=""img/food2.png"" style=""width:200px;border:14px solid red;"">","null","","","","","","","","","",""
"","image-keyboard-response","96","148086","0.0-126.0","3HOSI13XH0AZCVJZM3G8J6TDR8DDDK","A7QAPZ1YVA0K2","3FVBZG9CLJ0K37PD5L6161S4HTM0HN","","443","img/food5.png","76","446","3","1","false","3","2","1,0.5,0,1,0.5,0,0.5,0,1","1,0.5,0,1,0.5,0,0.5,0,1","1",""
"","html-keyboard-response","97","148389","0.0-127.0","3HOSI13XH0AZCVJZM3G8J6TDR8DDDK","A7QAPZ1YVA0K2","3FVBZG9CLJ0K37PD5L6161S4HTM0HN","","null","<img src=""img/food5.png"" style=""width:200px; border:14px solid green;"">","null","","","","","","","","","",""
"","image-keyboard-response","98","149150","0.0-129.0","3HOSI13XH0AZCVJZM3G8J6TDR8DDDK","A7QAPZ1YVA0K2","3FVBZG9CLJ0K37PD5L6161S4HTM0HN","","756","img/food4.png","75","758","2","1","false","1","2","1,0.5,0,1,0.5,0,0.5,0,1","1,0.5,0,1,0.5,0,0.5,0,1","1",""
"","html-keyboard-response","99","149454","0.0-130.0","3HOSI13XH0AZCVJZM3G8J6TDR8DDDK","A7QAPZ1YVA0K2","3FVBZG9CLJ0K37PD5L6161S4HTM0HN","","null","<img src=""img/food4.png"" style=""width:200px; border:14px solid green;"">","null","","","","","","","","","",""
"","image-keyboard-response","100","150044","0.0-132.0","3HOSI13XH0AZCVJZM3G8J6TDR8DDDK","A7QAPZ1YVA0K2","3FVBZG9CLJ0K37PD5L6161S4HTM0HN","","586","img/food2.png","75","588","2","1","false","2","2","1,0.5,0,1,0.5,0,0.5,0,1","1,0.5,0,1,0.5,0,0.5,0,1","1",""
"","html-keyboard-response","101","150346","0.0-133.0","3HOSI13XH0AZCVJZM3G8J6TDR8DDDK","A7QAPZ1YVA0K2","3FVBZG9CLJ0K37PD5L6161S4HTM0HN","","null","<img src=""img/food2.png"" style=""width:200px; border:14px solid green;"">","null","","","","","","","","","",""
"","image-keyboard-response","102","150788","0.0-135.0","3HOSI13XH0AZCVJZM3G8J6TDR8DDDK","A7QAPZ1YVA0K2","3FVBZG9CLJ0K37PD5L6161S4HTM0HN","","440","img/food2.png","74","441","1","1","false","2","2","1,0.5,0,1,0.5,0,0.5,0,1","1,0.5,0,1,0.5,0,0.5,0,1","1",""
"","html-keyboard-response","103","151093","0.0-136.0","3HOSI13XH0AZCVJZM3G8J6TDR8DDDK","A7QAPZ1YVA0K2","3FVBZG9CLJ0K37PD5L6161S4HTM0HN","","null","<img src=""img/food2.png"" style=""width:200px; border:14px solid green;"">","null","","","","","","","","","",""
"","image-keyboard-response","104","151734","0.0-138.0","3HOSI13XH0AZCVJZM3G8J6TDR8DDDK","A7QAPZ1YVA0K2","3FVBZG9CLJ0K37PD5L6161S4HTM0HN","","638","img/food2.png","75","640","2","0","false","2","2","1,0.5,0,1,0.5,0,0.5,0,1","1,0.5,0,1,0.5,0,0.5,0,1","1",""
"","html-keyboard-response","105","152039","0.0-139.0","3HOSI13XH0AZCVJZM3G8J6TDR8DDDK","A7QAPZ1YVA0K2","3FVBZG9CLJ0K37PD5L6161S4HTM0HN","","null","<img src=""img/food2.png"" style=""width:200px;border:14px solid red;"">","null","","","","","","","","","",""
"","image-keyboard-response","106","152680","0.0-141.0","3HOSI13XH0AZCVJZM3G8J6TDR8DDDK","A7QAPZ1YVA0K2","3FVBZG9CLJ0K37PD5L6161S4HTM0HN","","637","img/food2.png","76","640","3","0","false","2","2","1,0.5,0,1,0.5,0,0.5,0,1","1,0.5,0,1,0.5,0,0.5,0,1","1",""
"","html-keyboard-response","107","152982","0.0-142.0","3HOSI13XH0AZCVJZM3G8J6TDR8DDDK","A7QAPZ1YVA0K2","3FVBZG9CLJ0K37PD5L6161S4HTM0HN","","null","<img src=""img/food2.png"" style=""width:200px;border:14px solid red;"">","null","","","","","","","","","",""
"","image-keyboard-response","108","153707","0.0-144.0","3HOSI13XH0AZCVJZM3G8J6TDR8DDDK","A7QAPZ1YVA0K2","3FVBZG9CLJ0K37PD5L6161S4HTM0HN","","721","img/food4.png","74","722","1","1","false","1","2","1,0.5,0,1,0.5,0,0.5,0,1","1,0.5,0,1,0.5,0,0.5,0,1","1",""
"","html-keyboard-response","109","154014","0.0-145.0","3HOSI13XH0AZCVJZM3G8J6TDR8DDDK","A7QAPZ1YVA0K2","3FVBZG9CLJ0K37PD5L6161S4HTM0HN","","null","<img src=""img/food4.png"" style=""width:200px; border:14px solid green;"">","null","","","","","","","","","",""
"","image-keyboard-response","110","154834","0.0-147.0","3HOSI13XH0AZCVJZM3G8J6TDR8DDDK","A7QAPZ1YVA0K2","3FVBZG9CLJ0K37PD5L6161S4HTM0HN","","817","img/food4.png","75","819","2","1","false","1","2","1,0.5,0,1,0.5,0,0.5,0,1","1,0.5,0,1,0.5,0,0.5,0,1","1",""
"","html-keyboard-response","111","155137","0.0-148.0","3HOSI13XH0AZCVJZM3G8J6TDR8DDDK","A7QAPZ1YVA0K2","3FVBZG9CLJ0K37PD5L6161S4HTM0HN","","null","<img src=""img/food4.png"" style=""width:200px; border:14px solid green;"">","null","","","","","","","","","",""
"","image-keyboard-response","112","156058","0.0-150.0","3HOSI13XH0AZCVJZM3G8J6TDR8DDDK","A7QAPZ1YVA0K2","3FVBZG9CLJ0K37PD5L6161S4HTM0HN","","917","img/food2.png","74","919","1","1","false","2","2","1,0.5,0,1,0.5,0,0.5,0,1","1,0.5,0,1,0.5,0,0.5,0,1","1",""
"","html-keyboard-response","113","156359","0.0-151.0","3HOSI13XH0AZCVJZM3G8J6TDR8DDDK","A7QAPZ1YVA0K2","3FVBZG9CLJ0K37PD5L6161S4HTM0HN","","null","<img src=""img/food2.png"" style=""width:200px; border:14px solid green;"">","null","","","","","","","","","",""
"","image-keyboard-response","114","157019","0.0-153.0","3HOSI13XH0AZCVJZM3G8J6TDR8DDDK","A7QAPZ1YVA0K2","3FVBZG9CLJ0K37PD5L6161S4HTM0HN","","656","img/food4.png","74","659","1","1","false","1","2","1,0.5,0,1,0.5,0,0.5,0,1","1,0.5,0,1,0.5,0,0.5,0,1","1",""
"","html-keyboard-response","115","157320","0.0-154.0","3HOSI13XH0AZCVJZM3G8J6TDR8DDDK","A7QAPZ1YVA0K2","3FVBZG9CLJ0K37PD5L6161S4HTM0HN","","null","<img src=""img/food4.png"" style=""width:200px; border:14px solid green;"">","null","","","","","","","","","",""
"","image-keyboard-response","116","158330","0.0-156.0","3HOSI13XH0AZCVJZM3G8J6TDR8DDDK","A7QAPZ1YVA0K2","3FVBZG9CLJ0K37PD5L6161S4HTM0HN","","","img/food5.png","","1007","-1","0","true","3","2","1,0.5,0,1,0.5,0,0.5,0,1","1,0.5,0,1,0.5,0,0.5,0,1","1",""
"","html-keyboard-response","117","158631","0.0-157.0","3HOSI13XH0AZCVJZM3G8J6TDR8DDDK","A7QAPZ1YVA0K2","3FVBZG9CLJ0K37PD5L6161S4HTM0HN","","null","<img src=""img/food5.png"" style=""width:200px;border:14px solid red;"">","null","","","","","","","","","",""
"","html-keyboard-response","118","161401","0.0-158.0-0.0","3HOSI13XH0AZCVJZM3G8J6TDR8DDDK","A7QAPZ1YVA0K2","3FVBZG9CLJ0K37PD5L6161S4HTM0HN","","","","","","","","","","","","","",""
"","image-keyboard-response","119","161899","0.0-159.0","3HOSI13XH0AZCVJZM3G8J6TDR8DDDK","A7QAPZ1YVA0K2","3FVBZG9CLJ0K37PD5L6161S4HTM0HN","","489","img/food2.png","75","497","2","0","false","2","2","1,0.5,0,1,0.5,0,0.5,0,1","1,0.5,0,1,0.5,0,0.5,0,1","1",""
"","html-keyboard-response","120","162202","0.0-160.0","3HOSI13XH0AZCVJZM3G8J6TDR8DDDK","A7QAPZ1YVA0K2","3FVBZG9CLJ0K37PD5L6161S4HTM0HN","","null","<img src=""img/food2.png"" style=""width:200px;border:14px solid red;"">","null","","","","","","","","","",""
"","image-keyboard-response","121","162643","0.0-162.0","3HOSI13XH0AZCVJZM3G8J6TDR8DDDK","A7QAPZ1YVA0K2","3FVBZG9CLJ0K37PD5L6161S4HTM0HN","","434","img/food4.png","74","436","1","1","false","1","2","1,0.5,0,1,0.5,0,0.5,0,1","1,0.5,0,1,0.5,0,0.5,0,1","1",""
"","html-keyboard-response","122","162946","0.0-163.0","3HOSI13XH0AZCVJZM3G8J6TDR8DDDK","A7QAPZ1YVA0K2","3FVBZG9CLJ0K37PD5L6161S4HTM0HN","","null","<img src=""img/food4.png"" style=""width:200px; border:14px solid green;"">","null","","","","","","","","","",""
"","image-keyboard-response","123","163443","0.0-165.0","3HOSI13XH0AZCVJZM3G8J6TDR8DDDK","A7QAPZ1YVA0K2","3FVBZG9CLJ0K37PD5L6161S4HTM0HN","","489","img/food2.png","74","494","1","1","false","2","2","1,0.5,0,1,0.5,0,0.5,0,1","1,0.5,0,1,0.5,0,0.5,0,1","1",""
"","html-keyboard-response","124","163745","0.0-166.0","3HOSI13XH0AZCVJZM3G8J6TDR8DDDK","A7QAPZ1YVA0K2","3FVBZG9CLJ0K37PD5L6161S4HTM0HN","","null","<img src=""img/food2.png"" style=""width:200px; border:14px solid green;"">","null","","","","","","","","","",""
"","image-keyboard-response","125","164250","0.0-168.0","3HOSI13XH0AZCVJZM3G8J6TDR8DDDK","A7QAPZ1YVA0K2","3FVBZG9CLJ0K37PD5L6161S4HTM0HN","","502","img/food2.png","74","503","1","1","false","2","2","1,0.5,0,1,0.5,0,0.5,0,1","1,0.5,0,1,0.5,0,0.5,0,1","1",""
"","html-keyboard-response","126","164588","0.0-169.0","3HOSI13XH0AZCVJZM3G8J6TDR8DDDK","A7QAPZ1YVA0K2","3FVBZG9CLJ0K37PD5L6161S4HTM0HN","","null","<img src=""img/food2.png"" style=""width:200px; border:14px solid green;"">","null","","","","","","","","","",""
"","image-keyboard-response","127","165210","0.0-171.0","3HOSI13XH0AZCVJZM3G8J6TDR8DDDK","A7QAPZ1YVA0K2","3FVBZG9CLJ0K37PD5L6161S4HTM0HN","","619","img/food2.png","74","621","1","1","false","2","2","1,0.5,0,1,0.5,0,0.5,0,1","1,0.5,0,1,0.5,0,0.5,0,1","1",""
"","html-keyboard-response","128","165512","0.0-172.0","3HOSI13XH0AZCVJZM3G8J6TDR8DDDK","A7QAPZ1YVA0K2","3FVBZG9CLJ0K37PD5L6161S4HTM0HN","","null","<img src=""img/food2.png"" style=""width:200px; border:14px solid green;"">","null","","","","","","","","","",""
"","image-keyboard-response","129","166130","0.0-174.0","3HOSI13XH0AZCVJZM3G8J6TDR8DDDK","A7QAPZ1YVA0K2","3FVBZG9CLJ0K37PD5L6161S4HTM0HN","","616","img/food4.png","74","617","1","1","false","1","2","1,0.5,0,1,0.5,0,0.5,0,1","1,0.5,0,1,0.5,0,0.5,0,1","1",""
"","html-keyboard-response","130","166434","0.0-175.0","3HOSI13XH0AZCVJZM3G8J6TDR8DDDK","A7QAPZ1YVA0K2","3FVBZG9CLJ0K37PD5L6161S4HTM0HN","","null","<img src=""img/food4.png"" style=""width:200px; border:14px solid green;"">","null","","","","","","","","","",""
"","image-keyboard-response","131","166987","0.0-177.0","3HOSI13XH0AZCVJZM3G8J6TDR8DDDK","A7QAPZ1YVA0K2","3FVBZG9CLJ0K37PD5L6161S4HTM0HN","","550","img/food4.png","74","553","1","1","false","1","2","1,0.5,0,1,0.5,0,0.5,0,1","1,0.5,0,1,0.5,0,0.5,0,1","1",""
"","html-keyboard-response","132","167293","0.0-178.0","3HOSI13XH0AZCVJZM3G8J6TDR8DDDK","A7QAPZ1YVA0K2","3FVBZG9CLJ0K37PD5L6161S4HTM0HN","","null","<img src=""img/food4.png"" style=""width:200px; border:14px solid green;"">","null","","","","","","","","","",""
"","image-keyboard-response","133","167631","0.0-180.0","3HOSI13XH0AZCVJZM3G8J6TDR8DDDK","A7QAPZ1YVA0K2","3FVBZG9CLJ0K37PD5L6161S4HTM0HN","","332","img/food4.png","74","334","1","1","false","1","2","1,0.5,0,1,0.5,0,0.5,0,1","1,0.5,0,1,0.5,0,0.5,0,1","1",""
"","html-keyboard-response","134","167937","0.0-181.0","3HOSI13XH0AZCVJZM3G8J6TDR8DDDK","A7QAPZ1YVA0K2","3FVBZG9CLJ0K37PD5L6161S4HTM0HN","","null","<img src=""img/food4.png"" style=""width:200px; border:14px solid green;"">","null","","","","","","","","","",""
"","image-keyboard-response","135","168384","0.0-183.0","3HOSI13XH0AZCVJZM3G8J6TDR8DDDK","A7QAPZ1YVA0K2","3FVBZG9CLJ0K37PD5L6161S4HTM0HN","","443","img/food5.png","74","445","1","1","false","3","2","1,0.5,0,1,0.5,0,0.5,0,1","1,0.5,0,1,0.5,0,0.5,0,1","1",""
"","html-keyboard-response","136","168688","0.0-184.0","3HOSI13XH0AZCVJZM3G8J6TDR8DDDK","A7QAPZ1YVA0K2","3FVBZG9CLJ0K37PD5L6161S4HTM0HN","","null","<img src=""img/food5.png"" style=""width:200px; border:14px solid green;"">","null","","","","","","","","","",""
"","image-keyboard-response","137","169045","0.0-186.0","3HOSI13XH0AZCVJZM3G8J6TDR8DDDK","A7QAPZ1YVA0K2","3FVBZG9CLJ0K37PD5L6161S4HTM0HN","","349","img/food4.png","74","352","1","1","false","1","2","1,0.5,0,1,0.5,0,0.5,0,1","1,0.5,0,1,0.5,0,0.5,0,1","1",""
"","html-keyboard-response","138","169396","0.0-187.0","3HOSI13XH0AZCVJZM3G8J6TDR8DDDK","A7QAPZ1YVA0K2","3FVBZG9CLJ0K37PD5L6161S4HTM0HN","","null","<img src=""img/food4.png"" style=""width:200px; border:14px solid green;"">","null","","","","","","","","","",""
"","image-keyboard-response","139","169725","0.0-189.0","3HOSI13XH0AZCVJZM3G8J6TDR8DDDK","A7QAPZ1YVA0K2","3FVBZG9CLJ0K37PD5L6161S4HTM0HN","","326","img/food2.png","74","328","1","1","false","2","2","1,0.5,0,1,0.5,0,0.5,0,1","1,0.5,0,1,0.5,0,0.5,0,1","1",""
"","html-keyboard-response","140","170027","0.0-190.0","3HOSI13XH0AZCVJZM3G8J6TDR8DDDK","A7QAPZ1YVA0K2","3FVBZG9CLJ0K37PD5L6161S4HTM0HN","","null","<img src=""img/food2.png"" style=""width:200px; border:14px solid green;"">","null","","","","","","","","","",""
"","image-keyboard-response","141","170463","0.0-192.0","3HOSI13XH0AZCVJZM3G8J6TDR8DDDK","A7QAPZ1YVA0K2","3FVBZG9CLJ0K37PD5L6161S4HTM0HN","","434","img/food5.png","74","435","1","1","false","3","2","1,0.5,0,1,0.5,0,0.5,0,1","1,0.5,0,1,0.5,0,0.5,0,1","1",""
"","html-keyboard-response","142","170765","0.0-193.0","3HOSI13XH0AZCVJZM3G8J6TDR8DDDK","A7QAPZ1YVA0K2","3FVBZG9CLJ0K37PD5L6161S4HTM0HN","","null","<img src=""img/food5.png"" style=""width:200px; border:14px solid green;"">","null","","","","","","","","","",""
"","image-keyboard-response","143","171069","0.0-195.0","3HOSI13XH0AZCVJZM3G8J6TDR8DDDK","A7QAPZ1YVA0K2","3FVBZG9CLJ0K37PD5L6161S4HTM0HN","","301","img/food2.png","74","302","1","1","false","2","2","1,0.5,0,1,0.5,0,0.5,0,1","1,0.5,0,1,0.5,0,0.5,0,1","1",""
"","html-keyboard-response","144","171375","0.0-196.0","3HOSI13XH0AZCVJZM3G8J6TDR8DDDK","A7QAPZ1YVA0K2","3FVBZG9CLJ0K37PD5L6161S4HTM0HN","","null","<img src=""img/food2.png"" style=""width:200px; border:14px solid green;"">","null","","","","","","","","","",""
"","image-keyboard-response","145","171683","0.0-198.0","3HOSI13XH0AZCVJZM3G8J6TDR8DDDK","A7QAPZ1YVA0K2","3FVBZG9CLJ0K37PD5L6161S4HTM0HN","","305","img/food5.png","74","307","1","0","false","3","2","1,0.5,0,1,0.5,0,0.5,0,1","1,0.5,0,1,0.5,0,0.5,0,1","1",""
"","html-keyboard-response","146","171987","0.0-199.0","3HOSI13XH0AZCVJZM3G8J6TDR8DDDK","A7QAPZ1YVA0K2","3FVBZG9CLJ0K37PD5L6161S4HTM0HN","","null","<img src=""img/food5.png"" style=""width:200px;border:14px solid red;"">","null","","","","","","","","","",""
"","image-keyboard-response","147","172318","0.0-201.0","3HOSI13XH0AZCVJZM3G8J6TDR8DDDK","A7QAPZ1YVA0K2","3FVBZG9CLJ0K37PD5L6161S4HTM0HN","","329","img/food5.png","74","330","1","0","false","3","2","1,0.5,0,1,0.5,0,0.5,0,1","1,0.5,0,1,0.5,0,0.5,0,1","1",""
"","html-keyboard-response","148","172620","0.0-202.0","3HOSI13XH0AZCVJZM3G8J6TDR8DDDK","A7QAPZ1YVA0K2","3FVBZG9CLJ0K37PD5L6161S4HTM0HN","","null","<img src=""img/food5.png"" style=""width:200px;border:14px solid red;"">","null","","","","","","","","","",""
"","image-keyboard-response","149","172861","0.0-204.0","3HOSI13XH0AZCVJZM3G8J6TDR8DDDK","A7QAPZ1YVA0K2","3FVBZG9CLJ0K37PD5L6161S4HTM0HN","","237","img/food4.png","75","239","2","0","false","1","2","1,0.5,0,1,0.5,0,0.5,0,1","1,0.5,0,1,0.5,0,0.5,0,1","1",""
"","html-keyboard-response","150","173163","0.0-205.0","3HOSI13XH0AZCVJZM3G8J6TDR8DDDK","A7QAPZ1YVA0K2","3FVBZG9CLJ0K37PD5L6161S4HTM0HN","","null","<img src=""img/food4.png"" style=""width:200px;border:14px solid red;"">","null","","","","","","","","","",""
"","image-keyboard-response","151","173508","0.0-207.0","3HOSI13XH0AZCVJZM3G8J6TDR8DDDK","A7QAPZ1YVA0K2","3FVBZG9CLJ0K37PD5L6161S4HTM0HN","","343","img/food2.png","75","344","2","1","false","2","2","1,0.5,0,1,0.5,0,0.5,0,1","1,0.5,0,1,0.5,0,0.5,0,1","1",""
"","html-keyboard-response","152","173810","0.0-208.0","3HOSI13XH0AZCVJZM3G8J6TDR8DDDK","A7QAPZ1YVA0K2","3FVBZG9CLJ0K37PD5L6161S4HTM0HN","","null","<img src=""img/food2.png"" style=""width:200px; border:14px solid green;"">","null","","","","","","","","","",""
"","image-keyboard-response","153","174078","0.0-210.0","3HOSI13XH0AZCVJZM3G8J6TDR8DDDK","A7QAPZ1YVA0K2","3FVBZG9CLJ0K37PD5L6161S4HTM0HN","","266","img/food2.png","76","267","3","0","false","2","2","1,0.5,0,1,0.5,0,0.5,0,1","1,0.5,0,1,0.5,0,0.5,0,1","1",""
"","html-keyboard-response","154","174380","0.0-211.0","3HOSI13XH0AZCVJZM3G8J6TDR8DDDK","A7QAPZ1YVA0K2","3FVBZG9CLJ0K37PD5L6161S4HTM0HN","","null","<img src=""img/food2.png"" style=""width:200px;border:14px solid red;"">","null","","","","","","","","","",""
"","image-keyboard-response","155","175031","0.0-213.0","3HOSI13XH0AZCVJZM3G8J6TDR8DDDK","A7QAPZ1YVA0K2","3FVBZG9CLJ0K37PD5L6161S4HTM0HN","","648","img/food4.png","76","648","3","0","false","1","2","1,0.5,0,1,0.5,0,0.5,0,1","1,0.5,0,1,0.5,0,0.5,0,1","1",""
"","html-keyboard-response","156","175341","0.0-214.0","3HOSI13XH0AZCVJZM3G8J6TDR8DDDK","A7QAPZ1YVA0K2","3FVBZG9CLJ0K37PD5L6161S4HTM0HN","","null","<img src=""img/food4.png"" style=""width:200px;border:14px solid red;"">","null","","","","","","","","","",""
"","image-keyboard-response","157","175523","0.0-216.0","3HOSI13XH0AZCVJZM3G8J6TDR8DDDK","A7QAPZ1YVA0K2","3FVBZG9CLJ0K37PD5L6161S4HTM0HN","","174","img/food2.png","75","177","2","0","false","2","2","1,0.5,0,1,0.5,0,0.5,0,1","1,0.5,0,1,0.5,0,0.5,0,1","1",""
"","html-keyboard-response","158","175825","0.0-217.0","3HOSI13XH0AZCVJZM3G8J6TDR8DDDK","A7QAPZ1YVA0K2","3FVBZG9CLJ0K37PD5L6161S4HTM0HN","","null","<img src=""img/food2.png"" style=""width:200px;border:14px solid red;"">","null","","","","","","","","","",""
"","image-keyboard-response","159","176194","0.0-219.0","3HOSI13XH0AZCVJZM3G8J6TDR8DDDK","A7QAPZ1YVA0K2","3FVBZG9CLJ0K37PD5L6161S4HTM0HN","","365","img/food2.png","75","367","2","0","false","2","2","1,0.5,0,1,0.5,0,0.5,0,1","1,0.5,0,1,0.5,0,0.5,0,1","1",""
"","html-keyboard-response","160","176513","0.0-220.0","3HOSI13XH0AZCVJZM3G8J6TDR8DDDK","A7QAPZ1YVA0K2","3FVBZG9CLJ0K37PD5L6161S4HTM0HN","","null","<img src=""img/food2.png"" style=""width:200px;border:14px solid red;"">","null","","","","","","","","","",""
"","image-keyboard-response","161","176553","0.0-222.0","3HOSI13XH0AZCVJZM3G8J6TDR8DDDK","A7QAPZ1YVA0K2","3FVBZG9CLJ0K37PD5L6161S4HTM0HN","","39","img/food5.png","74","40","1","0","false","3","2","1,0.5,0,1,0.5,0,0.5,0,1","1,0.5,0,1,0.5,0,0.5,0,1","1",""
"","html-keyboard-response","162","176855","0.0-223.0","3HOSI13XH0AZCVJZM3G8J6TDR8DDDK","A7QAPZ1YVA0K2","3FVBZG9CLJ0K37PD5L6161S4HTM0HN","","null","<img src=""img/food5.png"" style=""width:200px;border:14px solid red;"">","null","","","","","","","","","",""
"","image-keyboard-response","163","177219","0.0-225.0","3HOSI13XH0AZCVJZM3G8J6TDR8DDDK","A7QAPZ1YVA0K2","3FVBZG9CLJ0K37PD5L6161S4HTM0HN","","359","img/food5.png","74","362","1","1","false","3","2","1,0.5,0,1,0.5,0,0.5,0,1","1,0.5,0,1,0.5,0,0.5,0,1","1",""
"","html-keyboard-response","164","177523","0.0-226.0","3HOSI13XH0AZCVJZM3G8J6TDR8DDDK","A7QAPZ1YVA0K2","3FVBZG9CLJ0K37PD5L6161S4HTM0HN","","null","<img src=""img/food5.png"" style=""width:200px; border:14px solid green;"">","null","","","","","","","","","",""
"","image-keyboard-response","165","178149","0.0-228.0","3HOSI13XH0AZCVJZM3G8J6TDR8DDDK","A7QAPZ1YVA0K2","3FVBZG9CLJ0K37PD5L6161S4HTM0HN","","621","img/food5.png","74","624","1","1","false","3","2","1,0.5,0,1,0.5,0,0.5,0,1","1,0.5,0,1,0.5,0,0.5,0,1","1",""
"","html-keyboard-response","166","178452","0.0-229.0","3HOSI13XH0AZCVJZM3G8J6TDR8DDDK","A7QAPZ1YVA0K2","3FVBZG9CLJ0K37PD5L6161S4HTM0HN","","null","<img src=""img/food5.png"" style=""width:200px; border:14px solid green;"">","null","","","","","","","","","",""
"","image-keyboard-response","167","178749","0.0-231.0","3HOSI13XH0AZCVJZM3G8J6TDR8DDDK","A7QAPZ1YVA0K2","3FVBZG9CLJ0K37PD5L6161S4HTM0HN","","293","img/food2.png","74","296","1","1","false","2","2","1,0.5,0,1,0.5,0,0.5,0,1","1,0.5,0,1,0.5,0,0.5,0,1","1",""
"","html-keyboard-response","168","179051","0.0-232.0","3HOSI13XH0AZCVJZM3G8J6TDR8DDDK","A7QAPZ1YVA0K2","3FVBZG9CLJ0K37PD5L6161S4HTM0HN","","null","<img src=""img/food2.png"" style=""width:200px; border:14px solid green;"">","null","","","","","","","","","",""
"","image-keyboard-response","169","179422","0.0-234.0","3HOSI13XH0AZCVJZM3G8J6TDR8DDDK","A7QAPZ1YVA0K2","3FVBZG9CLJ0K37PD5L6161S4HTM0HN","","367","img/food4.png","74","369","1","1","false","1","2","1,0.5,0,1,0.5,0,0.5,0,1","1,0.5,0,1,0.5,0,0.5,0,1","1",""
"","html-keyboard-response","170","179727","0.0-235.0","3HOSI13XH0AZCVJZM3G8J6TDR8DDDK","A7QAPZ1YVA0K2","3FVBZG9CLJ0K37PD5L6161S4HTM0HN","","null","<img src=""img/food4.png"" style=""width:200px; border:14px solid green;"">","null","","","","","","","","","",""
"","image-keyboard-response","171","180039","0.0-237.0","3HOSI13XH0AZCVJZM3G8J6TDR8DDDK","A7QAPZ1YVA0K2","3FVBZG9CLJ0K37PD5L6161S4HTM0HN","","293","img/food2.png","74","312","1","1","false","2","2","1,0.5,0,1,0.5,0,0.5,0,1","1,0.5,0,1,0.5,0,0.5,0,1","1",""
"","html-keyboard-response","172","180341","0.0-238.0","3HOSI13XH0AZCVJZM3G8J6TDR8DDDK","A7QAPZ1YVA0K2","3FVBZG9CLJ0K37PD5L6161S4HTM0HN","","null","<img src=""img/food2.png"" style=""width:200px; border:14px solid green;"">","null","","","","","","","","","",""
"","image-keyboard-response","173","180644","0.0-240.0","3HOSI13XH0AZCVJZM3G8J6TDR8DDDK","A7QAPZ1YVA0K2","3FVBZG9CLJ0K37PD5L6161S4HTM0HN","","299","img/food5.png","74","301","1","0","false","3","2","1,0.5,0,1,0.5,0,0.5,0,1","1,0.5,0,1,0.5,0,0.5,0,1","1",""
"","html-keyboard-response","174","180947","0.0-241.0","3HOSI13XH0AZCVJZM3G8J6TDR8DDDK","A7QAPZ1YVA0K2","3FVBZG9CLJ0K37PD5L6161S4HTM0HN","","null","<img src=""img/food5.png"" style=""width:200px;border:14px solid red;"">","null","","","","","","","","","",""
"","image-keyboard-response","175","181314","0.0-243.0","3HOSI13XH0AZCVJZM3G8J6TDR8DDDK","A7QAPZ1YVA0K2","3FVBZG9CLJ0K37PD5L6161S4HTM0HN","","364","img/food4.png","74","366","1","1","false","1","2","1,0.5,0,1,0.5,0,0.5,0,1","1,0.5,0,1,0.5,0,0.5,0,1","1",""
"","html-keyboard-response","176","181616","0.0-244.0","3HOSI13XH0AZCVJZM3G8J6TDR8DDDK","A7QAPZ1YVA0K2","3FVBZG9CLJ0K37PD5L6161S4HTM0HN","","null","<img src=""img/food4.png"" style=""width:200px; border:14px solid green;"">","null","","","","","","","","","",""
"","image-keyboard-response","177","181975","0.0-246.0","3HOSI13XH0AZCVJZM3G8J6TDR8DDDK","A7QAPZ1YVA0K2","3FVBZG9CLJ0K37PD5L6161S4HTM0HN","","358","img/food5.png","74","360","1","1","false","3","2","1,0.5,0,1,0.5,0,0.5,0,1","1,0.5,0,1,0.5,0,0.5,0,1","1",""
"","html-keyboard-response","178","182279","0.0-247.0","3HOSI13XH0AZCVJZM3G8J6TDR8DDDK","A7QAPZ1YVA0K2","3FVBZG9CLJ0K37PD5L6161S4HTM0HN","","null","<img src=""img/food5.png"" style=""width:200px; border:14px solid green;"">","null","","","","","","","","","",""
"","image-keyboard-response","179","182573","0.0-249.0","3HOSI13XH0AZCVJZM3G8J6TDR8DDDK","A7QAPZ1YVA0K2","3FVBZG9CLJ0K37PD5L6161S4HTM0HN","","290","img/food4.png","74","292","1","1","false","1","2","1,0.5,0,1,0.5,0,0.5,0,1","1,0.5,0,1,0.5,0,0.5,0,1","1",""
"","html-keyboard-response","180","182875","0.0-250.0","3HOSI13XH0AZCVJZM3G8J6TDR8DDDK","A7QAPZ1YVA0K2","3FVBZG9CLJ0K37PD5L6161S4HTM0HN","","null","<img src=""img/food4.png"" style=""width:200px; border:14px solid green;"">","null","","","","","","","","","",""
"","image-keyboard-response","181","183272","0.0-252.0","3HOSI13XH0AZCVJZM3G8J6TDR8DDDK","A7QAPZ1YVA0K2","3FVBZG9CLJ0K37PD5L6161S4HTM0HN","","393","img/food4.png","74","394","1","1","false","1","2","1,0.5,0,1,0.5,0,0.5,0,1","1,0.5,0,1,0.5,0,0.5,0,1","1",""
"","html-keyboard-response","182","183575","0.0-253.0","3HOSI13XH0AZCVJZM3G8J6TDR8DDDK","A7QAPZ1YVA0K2","3FVBZG9CLJ0K37PD5L6161S4HTM0HN","","null","<img src=""img/food4.png"" style=""width:200px; border:14px solid green;"">","null","","","","","","","","","",""
"","image-keyboard-response","183","183932","0.0-255.0","3HOSI13XH0AZCVJZM3G8J6TDR8DDDK","A7QAPZ1YVA0K2","3FVBZG9CLJ0K37PD5L6161S4HTM0HN","","351","img/food5.png","74","354","1","1","false","3","2","1,0.5,0,1,0.5,0,0.5,0,1","1,0.5,0,1,0.5,0,0.5,0,1","1",""
"","html-keyboard-response","184","184237","0.0-256.0","3HOSI13XH0AZCVJZM3G8J6TDR8DDDK","A7QAPZ1YVA0K2","3FVBZG9CLJ0K37PD5L6161S4HTM0HN","","null","<img src=""img/food5.png"" style=""width:200px; border:14px solid green;"">","null","","","","","","","","","",""
"","image-keyboard-response","185","184745","0.0-258.0","3HOSI13XH0AZCVJZM3G8J6TDR8DDDK","A7QAPZ1YVA0K2","3FVBZG9CLJ0K37PD5L6161S4HTM0HN","","505","img/food5.png","74","507","1","1","false","3","2","1,0.5,0,1,0.5,0,0.5,0,1","1,0.5,0,1,0.5,0,0.5,0,1","1",""
"","html-keyboard-response","186","185047","0.0-259.0","3HOSI13XH0AZCVJZM3G8J6TDR8DDDK","A7QAPZ1YVA0K2","3FVBZG9CLJ0K37PD5L6161S4HTM0HN","","null","<img src=""img/food5.png"" style=""width:200px; border:14px solid green;"">","null","","","","","","","","","",""
"","image-keyboard-response","187","185412","0.0-261.0","3HOSI13XH0AZCVJZM3G8J6TDR8DDDK","A7QAPZ1YVA0K2","3FVBZG9CLJ0K37PD5L6161S4HTM0HN","","357","img/food4.png","74","359","1","1","false","1","2","1,0.5,0,1,0.5,0,0.5,0,1","1,0.5,0,1,0.5,0,0.5,0,1","1",""
"","html-keyboard-response","188","185714","0.0-262.0","3HOSI13XH0AZCVJZM3G8J6TDR8DDDK","A7QAPZ1YVA0K2","3FVBZG9CLJ0K37PD5L6161S4HTM0HN","","null","<img src=""img/food4.png"" style=""width:200px; border:14px solid green;"">","null","","","","","","","","","",""
"","image-keyboard-response","189","185944","0.0-264.0","3HOSI13XH0AZCVJZM3G8J6TDR8DDDK","A7QAPZ1YVA0K2","3FVBZG9CLJ0K37PD5L6161S4HTM0HN","","225","img/food4.png","74","229","1","1","false","1","2","1,0.5,0,1,0.5,0,0.5,0,1","1,0.5,0,1,0.5,0,0.5,0,1","1",""
"","html-keyboard-response","190","186260","0.0-265.0","3HOSI13XH0AZCVJZM3G8J6TDR8DDDK","A7QAPZ1YVA0K2","3FVBZG9CLJ0K37PD5L6161S4HTM0HN","","null","<img src=""img/food4.png"" style=""width:200px; border:14px solid green;"">","null","","","","","","","","","",""
"","image-keyboard-response","191","186390","0.0-267.0","3HOSI13XH0AZCVJZM3G8J6TDR8DDDK","A7QAPZ1YVA0K2","3FVBZG9CLJ0K37PD5L6161S4HTM0HN","","126","img/food4.png","74","127","1","1","false","1","2","1,0.5,0,1,0.5,0,0.5,0,1","1,0.5,0,1,0.5,0,0.5,0,1","1",""
"","html-keyboard-response","192","186693","0.0-268.0","3HOSI13XH0AZCVJZM3G8J6TDR8DDDK","A7QAPZ1YVA0K2","3FVBZG9CLJ0K37PD5L6161S4HTM0HN","","null","<img src=""img/food4.png"" style=""width:200px; border:14px solid green;"">","null","","","","","","","","","",""
"","image-keyboard-response","193","187304","0.0-270.0","3HOSI13XH0AZCVJZM3G8J6TDR8DDDK","A7QAPZ1YVA0K2","3FVBZG9CLJ0K37PD5L6161S4HTM0HN","","609","img/food5.png","74","611","1","0","false","3","2","1,0.5,0,1,0.5,0,0.5,0,1","1,0.5,0,1,0.5,0,0.5,0,1","1",""
"","html-keyboard-response","194","187607","0.0-271.0","3HOSI13XH0AZCVJZM3G8J6TDR8DDDK","A7QAPZ1YVA0K2","3FVBZG9CLJ0K37PD5L6161S4HTM0HN","","null","<img src=""img/food5.png"" style=""width:200px;border:14px solid red;"">","null","","","","","","","","","",""
"","instructions","195","191663","0.0-273.0","3HOSI13XH0AZCVJZM3G8J6TDR8DDDK","A7QAPZ1YVA0K2","3FVBZG9CLJ0K37PD5L6161S4HTM0HN","[{""page_index"":0,""viewing_time"":3068},{""page_index"":1,""viewing_time"":984}]","4052","","","","","","","","","","","",""
"","image-keyboard-response","196","192540","0.0-274.0","3HOSI13XH0AZCVJZM3G8J6TDR8DDDK","A7QAPZ1YVA0K2","3FVBZG9CLJ0K37PD5L6161S4HTM0HN","","874","img/food3.png","75","877","2","0","","3","1","1,0.5,0,1,0.5,0,0.5,0,1","1,0.5,0,1,0.5,0,0.5,0,1","1",""
"","html-keyboard-response","197","192844","0.0-275.0","3HOSI13XH0AZCVJZM3G8J6TDR8DDDK","A7QAPZ1YVA0K2","3FVBZG9CLJ0K37PD5L6161S4HTM0HN","","null","<img src=""img/food3.png"" style=""width:200px;border:14px solid red;"">","null","","","","","","","","","",""
"","image-keyboard-response","198","193408","0.0-276.0","3HOSI13XH0AZCVJZM3G8J6TDR8DDDK","A7QAPZ1YVA0K2","3FVBZG9CLJ0K37PD5L6161S4HTM0HN","","562","img/food6.png","74","564","1","1","","1","1","1,0.5,0,1,0.5,0,0.5,0,1","1,0.5,0,1,0.5,0,0.5,0,1","1",""
"","html-keyboard-response","199","193712","0.0-277.0","3HOSI13XH0AZCVJZM3G8J6TDR8DDDK","A7QAPZ1YVA0K2","3FVBZG9CLJ0K37PD5L6161S4HTM0HN","","null","<img src=""img/food6.png"" style=""width:200px; border:14px solid green;"">","null","","","","","","","","","",""
"","image-keyboard-response","200","194334","0.0-278.0","3HOSI13XH0AZCVJZM3G8J6TDR8DDDK","A7QAPZ1YVA0K2","3FVBZG9CLJ0K37PD5L6161S4HTM0HN","","619","img/food3.png","74","622","1","0","","3","1","1,0.5,0,1,0.5,0,0.5,0,1","1,0.5,0,1,0.5,0,0.5,0,1","1",""
"","html-keyboard-response","201","194639","0.0-279.0","3HOSI13XH0AZCVJZM3G8J6TDR8DDDK","A7QAPZ1YVA0K2","3FVBZG9CLJ0K37PD5L6161S4HTM0HN","","null","<img src=""img/food3.png"" style=""width:200px;border:14px solid red;"">","null","","","","","","","","","",""
"","image-keyboard-response","202","195169","0.0-280.0","3HOSI13XH0AZCVJZM3G8J6TDR8DDDK","A7QAPZ1YVA0K2","3FVBZG9CLJ0K37PD5L6161S4HTM0HN","","526","img/food1.png","76","529","3","0","","2","1","1,0.5,0,1,0.5,0,0.5,0,1","1,0.5,0,1,0.5,0,0.5,0,1","1",""
"","html-keyboard-response","203","195472","0.0-281.0","3HOSI13XH0AZCVJZM3G8J6TDR8DDDK","A7QAPZ1YVA0K2","3FVBZG9CLJ0K37PD5L6161S4HTM0HN","","null","<img src=""img/food1.png"" style=""width:200px;border:14px solid red;"">","null","","","","","","","","","",""
"","image-keyboard-response","204","196120","0.0-282.0","3HOSI13XH0AZCVJZM3G8J6TDR8DDDK","A7QAPZ1YVA0K2","3FVBZG9CLJ0K37PD5L6161S4HTM0HN","","646","img/food6.png","74","647","1","1","","1","1","1,0.5,0,1,0.5,0,0.5,0,1","1,0.5,0,1,0.5,0,0.5,0,1","1",""
"","html-keyboard-response","205","196423","0.0-283.0","3HOSI13XH0AZCVJZM3G8J6TDR8DDDK","A7QAPZ1YVA0K2","3FVBZG9CLJ0K37PD5L6161S4HTM0HN","","null","<img src=""img/food6.png"" style=""width:200px; border:14px solid green;"">","null","","","","","","","","","",""
"","image-keyboard-response","206","197086","0.0-284.0","3HOSI13XH0AZCVJZM3G8J6TDR8DDDK","A7QAPZ1YVA0K2","3FVBZG9CLJ0K37PD5L6161S4HTM0HN","","659","img/food6.png","75","663","2","0","","1","1","1,0.5,0,1,0.5,0,0.5,0,1","1,0.5,0,1,0.5,0,0.5,0,1","1",""
"","html-keyboard-response","207","197395","0.0-285.0","3HOSI13XH0AZCVJZM3G8J6TDR8DDDK","A7QAPZ1YVA0K2","3FVBZG9CLJ0K37PD5L6161S4HTM0HN","","null","<img src=""img/food6.png"" style=""width:200px;border:14px solid red;"">","null","","","","","","","","","",""
"","image-keyboard-response","208","198150","0.0-286.0","3HOSI13XH0AZCVJZM3G8J6TDR8DDDK","A7QAPZ1YVA0K2","3FVBZG9CLJ0K37PD5L6161S4HTM0HN","","749","img/food6.png","74","752","1","1","","1","1","1,0.5,0,1,0.5,0,0.5,0,1","1,0.5,0,1,0.5,0,0.5,0,1","1",""
"","html-keyboard-response","209","198481","0.0-287.0","3HOSI13XH0AZCVJZM3G8J6TDR8DDDK","A7QAPZ1YVA0K2","3FVBZG9CLJ0K37PD5L6161S4HTM0HN","","null","<img src=""img/food6.png"" style=""width:200px; border:14px solid green;"">","null","","","","","","","","","",""
"","image-keyboard-response","210","198916","0.0-288.0","3HOSI13XH0AZCVJZM3G8J6TDR8DDDK","A7QAPZ1YVA0K2","3FVBZG9CLJ0K37PD5L6161S4HTM0HN","","433","img/food1.png","74","435","1","1","","2","1","1,0.5,0,1,0.5,0,0.5,0,1","1,0.5,0,1,0.5,0,0.5,0,1","1",""
"","html-keyboard-response","211","199218","0.0-289.0","3HOSI13XH0AZCVJZM3G8J6TDR8DDDK","A7QAPZ1YVA0K2","3FVBZG9CLJ0K37PD5L6161S4HTM0HN","","null","<img src=""img/food1.png"" style=""width:200px; border:14px solid green;"">","null","","","","","","","","","",""
"","image-keyboard-response","212","199723","0.0-290.0","3HOSI13XH0AZCVJZM3G8J6TDR8DDDK","A7QAPZ1YVA0K2","3FVBZG9CLJ0K37PD5L6161S4HTM0HN","","502","img/food6.png","74","504","1","1","","1","1","1,0.5,0,1,0.5,0,0.5,0,1","1,0.5,0,1,0.5,0,0.5,0,1","1",""
"","html-keyboard-response","213","200026","0.0-291.0","3HOSI13XH0AZCVJZM3G8J6TDR8DDDK","A7QAPZ1YVA0K2","3FVBZG9CLJ0K37PD5L6161S4HTM0HN","","null","<img src=""img/food6.png"" style=""width:200px; border:14px solid green;"">","null","","","","","","","","","",""
"","image-keyboard-response","214","200636","0.0-292.0","3HOSI13XH0AZCVJZM3G8J6TDR8DDDK","A7QAPZ1YVA0K2","3FVBZG9CLJ0K37PD5L6161S4HTM0HN","","605","img/food6.png","74","608","1","1","","1","1","1,0.5,0,1,0.5,0,0.5,0,1","1,0.5,0,1,0.5,0,0.5,0,1","1",""
"","html-keyboard-response","215","200941","0.0-293.0","3HOSI13XH0AZCVJZM3G8J6TDR8DDDK","A7QAPZ1YVA0K2","3FVBZG9CLJ0K37PD5L6161S4HTM0HN","","null","<img src=""img/food6.png"" style=""width:200px; border:14px solid green;"">","null","","","","","","","","","",""
"","image-keyboard-response","216","201435","0.0-294.0","3HOSI13XH0AZCVJZM3G8J6TDR8DDDK","A7QAPZ1YVA0K2","3FVBZG9CLJ0K37PD5L6161S4HTM0HN","","493","img/food1.png","74","493","1","1","","2","1","1,0.5,0,1,0.5,0,0.5,0,1","1,0.5,0,1,0.5,0,0.5,0,1","1",""
"","html-keyboard-response","217","201739","0.0-295.0","3HOSI13XH0AZCVJZM3G8J6TDR8DDDK","A7QAPZ1YVA0K2","3FVBZG9CLJ0K37PD5L6161S4HTM0HN","","null","<img src=""img/food1.png"" style=""width:200px; border:14px solid green;"">","null","","","","","","","","","",""
"","image-keyboard-response","218","202154","0.0-296.0","3HOSI13XH0AZCVJZM3G8J6TDR8DDDK","A7QAPZ1YVA0K2","3FVBZG9CLJ0K37PD5L6161S4HTM0HN","","412","img/food3.png","74","415","1","0","","3","1","1,0.5,0,1,0.5,0,0.5,0,1","1,0.5,0,1,0.5,0,0.5,0,1","1",""
"","html-keyboard-response","219","202464","0.0-297.0","3HOSI13XH0AZCVJZM3G8J6TDR8DDDK","A7QAPZ1YVA0K2","3FVBZG9CLJ0K37PD5L6161S4HTM0HN","","null","<img src=""img/food3.png"" style=""width:200px;border:14px solid red;"">","null","","","","","","","","","",""
"","image-keyboard-response","220","202874","0.0-298.0","3HOSI13XH0AZCVJZM3G8J6TDR8DDDK","A7QAPZ1YVA0K2","3FVBZG9CLJ0K37PD5L6161S4HTM0HN","","396","img/food3.png","74","401","1","0","","3","1","1,0.5,0,1,0.5,0,0.5,0,1","1,0.5,0,1,0.5,0,0.5,0,1","1",""
"","html-keyboard-response","221","203178","0.0-299.0","3HOSI13XH0AZCVJZM3G8J6TDR8DDDK","A7QAPZ1YVA0K2","3FVBZG9CLJ0K37PD5L6161S4HTM0HN","","null","<img src=""img/food3.png"" style=""width:200px;border:14px solid red;"">","null","","","","","","","","","",""
"","image-keyboard-response","222","203669","0.0-300.0","3HOSI13XH0AZCVJZM3G8J6TDR8DDDK","A7QAPZ1YVA0K2","3FVBZG9CLJ0K37PD5L6161S4HTM0HN","","490","img/food1.png","74","490","1","1","","2","1","1,0.5,0,1,0.5,0,0.5,0,1","1,0.5,0,1,0.5,0,0.5,0,1","1",""
"","html-keyboard-response","223","203972","0.0-301.0","3HOSI13XH0AZCVJZM3G8J6TDR8DDDK","A7QAPZ1YVA0K2","3FVBZG9CLJ0K37PD5L6161S4HTM0HN","","null","<img src=""img/food1.png"" style=""width:200px; border:14px solid green;"">","null","","","","","","","","","",""
"","image-keyboard-response","224","204240","0.0-302.0","3HOSI13XH0AZCVJZM3G8J6TDR8DDDK","A7QAPZ1YVA0K2","3FVBZG9CLJ0K37PD5L6161S4HTM0HN","","266","img/food3.png","75","267","2","0","","3","1","1,0.5,0,1,0.5,0,0.5,0,1","1,0.5,0,1,0.5,0,0.5,0,1","1",""
"","html-keyboard-response","225","204545","0.0-303.0","3HOSI13XH0AZCVJZM3G8J6TDR8DDDK","A7QAPZ1YVA0K2","3FVBZG9CLJ0K37PD5L6161S4HTM0HN","","null","<img src=""img/food3.png"" style=""width:200px;border:14px solid red;"">","null","","","","","","","","","",""
"","image-keyboard-response","226","205169","0.0-304.0","3HOSI13XH0AZCVJZM3G8J6TDR8DDDK","A7QAPZ1YVA0K2","3FVBZG9CLJ0K37PD5L6161S4HTM0HN","","619","img/food6.png","76","623","3","0","","1","1","1,0.5,0,1,0.5,0,0.5,0,1","1,0.5,0,1,0.5,0,0.5,0,1","1",""
"","html-keyboard-response","227","205474","0.0-305.0","3HOSI13XH0AZCVJZM3G8J6TDR8DDDK","A7QAPZ1YVA0K2","3FVBZG9CLJ0K37PD5L6161S4HTM0HN","","null","<img src=""img/food6.png"" style=""width:200px;border:14px solid red;"">","null","","","","","","","","","",""
"","image-keyboard-response","228","206031","0.0-306.0","3HOSI13XH0AZCVJZM3G8J6TDR8DDDK","A7QAPZ1YVA0K2","3FVBZG9CLJ0K37PD5L6161S4HTM0HN","","556","img/food1.png","75","558","2","1","","2","1","1,0.5,0,1,0.5,0,0.5,0,1","1,0.5,0,1,0.5,0,0.5,0,1","1",""
"","html-keyboard-response","229","206335","0.0-307.0","3HOSI13XH0AZCVJZM3G8J6TDR8DDDK","A7QAPZ1YVA0K2","3FVBZG9CLJ0K37PD5L6161S4HTM0HN","","null","<img src=""img/food1.png"" style=""width:200px; border:14px solid green;"">","null","","","","","","","","","",""
"","image-keyboard-response","230","207073","0.0-308.0","3HOSI13XH0AZCVJZM3G8J6TDR8DDDK","A7QAPZ1YVA0K2","3FVBZG9CLJ0K37PD5L6161S4HTM0HN","","736","img/food3.png","75","738","2","0","","3","1","1,0.5,0,1,0.5,0,0.5,0,1","1,0.5,0,1,0.5,0,0.5,0,1","1",""
"","html-keyboard-response","231","207378","0.0-309.0","3HOSI13XH0AZCVJZM3G8J6TDR8DDDK","A7QAPZ1YVA0K2","3FVBZG9CLJ0K37PD5L6161S4HTM0HN","","null","<img src=""img/food3.png"" style=""width:200px;border:14px solid red;"">","null","","","","","","","","","",""
"","image-keyboard-response","232","207885","0.0-310.0","3HOSI13XH0AZCVJZM3G8J6TDR8DDDK","A7QAPZ1YVA0K2","3FVBZG9CLJ0K37PD5L6161S4HTM0HN","","504","img/food6.png","74","506","1","1","","1","1","1,0.5,0,1,0.5,0,0.5,0,1","1,0.5,0,1,0.5,0,0.5,0,1","1",""
"","html-keyboard-response","233","208188","0.0-311.0","3HOSI13XH0AZCVJZM3G8J6TDR8DDDK","A7QAPZ1YVA0K2","3FVBZG9CLJ0K37PD5L6161S4HTM0HN","","null","<img src=""img/food6.png"" style=""width:200px; border:14px solid green;"">","null","","","","","","","","","",""
"","image-keyboard-response","234","208820","0.0-312.0","3HOSI13XH0AZCVJZM3G8J6TDR8DDDK","A7QAPZ1YVA0K2","3FVBZG9CLJ0K37PD5L6161S4HTM0HN","","630","img/food1.png","74","632","1","1","","2","1","1,0.5,0,1,0.5,0,0.5,0,1","1,0.5,0,1,0.5,0,0.5,0,1","1",""
"","html-keyboard-response","235","209124","0.0-313.0","3HOSI13XH0AZCVJZM3G8J6TDR8DDDK","A7QAPZ1YVA0K2","3FVBZG9CLJ0K37PD5L6161S4HTM0HN","","null","<img src=""img/food1.png"" style=""width:200px; border:14px solid green;"">","null","","","","","","","","","",""
"","image-keyboard-response","236","209793","0.0-314.0","3HOSI13XH0AZCVJZM3G8J6TDR8DDDK","A7QAPZ1YVA0K2","3FVBZG9CLJ0K37PD5L6161S4HTM0HN","","664","img/food1.png","74","667","1","1","","2","1","1,0.5,0,1,0.5,0,0.5,0,1","1,0.5,0,1,0.5,0,0.5,0,1","1",""
"","html-keyboard-response","237","210095","0.0-315.0","3HOSI13XH0AZCVJZM3G8J6TDR8DDDK","A7QAPZ1YVA0K2","3FVBZG9CLJ0K37PD5L6161S4HTM0HN","","null","<img src=""img/food1.png"" style=""width:200px; border:14px solid green;"">","null","","","","","","","","","",""
"","image-keyboard-response","238","210762","0.0-316.0","3HOSI13XH0AZCVJZM3G8J6TDR8DDDK","A7QAPZ1YVA0K2","3FVBZG9CLJ0K37PD5L6161S4HTM0HN","","663","img/food6.png","74","666","1","1","","1","1","1,0.5,0,1,0.5,0,0.5,0,1","1,0.5,0,1,0.5,0,0.5,0,1","1",""
"","html-keyboard-response","239","211065","0.0-317.0","3HOSI13XH0AZCVJZM3G8J6TDR8DDDK","A7QAPZ1YVA0K2","3FVBZG9CLJ0K37PD5L6161S4HTM0HN","","null","<img src=""img/food6.png"" style=""width:200px; border:14px solid green;"">","null","","","","","","","","","",""
"","image-keyboard-response","240","211550","0.0-318.0","3HOSI13XH0AZCVJZM3G8J6TDR8DDDK","A7QAPZ1YVA0K2","3FVBZG9CLJ0K37PD5L6161S4HTM0HN","","481","img/food3.png","74","484","1","0","","3","1","1,0.5,0,1,0.5,0,0.5,0,1","1,0.5,0,1,0.5,0,0.5,0,1","1",""
"","html-keyboard-response","241","211854","0.0-319.0","3HOSI13XH0AZCVJZM3G8J6TDR8DDDK","A7QAPZ1YVA0K2","3FVBZG9CLJ0K37PD5L6161S4HTM0HN","","null","<img src=""img/food3.png"" style=""width:200px;border:14px solid red;"">","null","","","","","","","","","",""
"","image-keyboard-response","242","212401","0.0-320.0","3HOSI13XH0AZCVJZM3G8J6TDR8DDDK","A7QAPZ1YVA0K2","3FVBZG9CLJ0K37PD5L6161S4HTM0HN","","544","img/food1.png","75","546","2","1","","2","1","1,0.5,0,1,0.5,0,0.5,0,1","1,0.5,0,1,0.5,0,0.5,0,1","1",""
"","html-keyboard-response","243","212704","0.0-321.0","3HOSI13XH0AZCVJZM3G8J6TDR8DDDK","A7QAPZ1YVA0K2","3FVBZG9CLJ0K37PD5L6161S4HTM0HN","","null","<img src=""img/food1.png"" style=""width:200px; border:14px solid green;"">","null","","","","","","","","","",""
"","image-keyboard-response","244","213293","0.0-322.0","3HOSI13XH0AZCVJZM3G8J6TDR8DDDK","A7QAPZ1YVA0K2","3FVBZG9CLJ0K37PD5L6161S4HTM0HN","","587","img/food3.png","76","588","3","1","","3","1","1,0.5,0,1,0.5,0,0.5,0,1","1,0.5,0,1,0.5,0,0.5,0,1","1",""
"","html-keyboard-response","245","213608","0.0-323.0","3HOSI13XH0AZCVJZM3G8J6TDR8DDDK","A7QAPZ1YVA0K2","3FVBZG9CLJ0K37PD5L6161S4HTM0HN","","null","<img src=""img/food3.png"" style=""width:200px; border:14px solid green;"">","null","","","","","","","","","",""
"","image-keyboard-response","246","214273","0.0-324.0","3HOSI13XH0AZCVJZM3G8J6TDR8DDDK","A7QAPZ1YVA0K2","3FVBZG9CLJ0K37PD5L6161S4HTM0HN","","660","img/food1.png","75","664","2","1","","2","1","1,0.5,0,1,0.5,0,0.5,0,1","1,0.5,0,1,0.5,0,0.5,0,1","1",""
"","html-keyboard-response","247","214577","0.0-325.0","3HOSI13XH0AZCVJZM3G8J6TDR8DDDK","A7QAPZ1YVA0K2","3FVBZG9CLJ0K37PD5L6161S4HTM0HN","","null","<img src=""img/food1.png"" style=""width:200px; border:14px solid green;"">","null","","","","","","","","","",""
"","image-keyboard-response","248","215129","0.0-326.0","3HOSI13XH0AZCVJZM3G8J6TDR8DDDK","A7QAPZ1YVA0K2","3FVBZG9CLJ0K37PD5L6161S4HTM0HN","","549","img/food6.png","76","551","3","0","","1","1","1,0.5,0,1,0.5,0,0.5,0,1","1,0.5,0,1,0.5,0,0.5,0,1","1",""
"","html-keyboard-response","249","215434","0.0-327.0","3HOSI13XH0AZCVJZM3G8J6TDR8DDDK","A7QAPZ1YVA0K2","3FVBZG9CLJ0K37PD5L6161S4HTM0HN","","null","<img src=""img/food6.png"" style=""width:200px;border:14px solid red;"">","null","","","","","","","","","",""
"","image-keyboard-response","250","216030","0.0-328.0","3HOSI13XH0AZCVJZM3G8J6TDR8DDDK","A7QAPZ1YVA0K2","3FVBZG9CLJ0K37PD5L6161S4HTM0HN","","594","img/food3.png","75","596","2","0","","3","1","1,0.5,0,1,0.5,0,0.5,0,1","1,0.5,0,1,0.5,0,0.5,0,1","1",""
"","html-keyboard-response","251","216336","0.0-329.0","3HOSI13XH0AZCVJZM3G8J6TDR8DDDK","A7QAPZ1YVA0K2","3FVBZG9CLJ0K37PD5L6161S4HTM0HN","","null","<img src=""img/food3.png"" style=""width:200px;border:14px solid red;"">","null","","","","","","","","","",""
"","image-keyboard-response","252","216849","0.0-330.0","3HOSI13XH0AZCVJZM3G8J6TDR8DDDK","A7QAPZ1YVA0K2","3FVBZG9CLJ0K37PD5L6161S4HTM0HN","","507","img/food3.png","74","512","1","1","","3","1","1,0.5,0,1,0.5,0,0.5,0,1","1,0.5,0,1,0.5,0,0.5,0,1","1",""
"","html-keyboard-response","253","217156","0.0-331.0","3HOSI13XH0AZCVJZM3G8J6TDR8DDDK","A7QAPZ1YVA0K2","3FVBZG9CLJ0K37PD5L6161S4HTM0HN","","null","<img src=""img/food3.png"" style=""width:200px; border:14px solid green;"">","null","","","","","","","","","",""
"","image-keyboard-response","254","217829","0.0-332.0","3HOSI13XH0AZCVJZM3G8J6TDR8DDDK","A7QAPZ1YVA0K2","3FVBZG9CLJ0K37PD5L6161S4HTM0HN","","671","img/food1.png","75","671","2","1","","2","1","1,0.5,0,1,0.5,0,0.5,0,1","1,0.5,0,1,0.5,0,0.5,0,1","1",""
"","html-keyboard-response","255","218132","0.0-333.0","3HOSI13XH0AZCVJZM3G8J6TDR8DDDK","A7QAPZ1YVA0K2","3FVBZG9CLJ0K37PD5L6161S4HTM0HN","","null","<img src=""img/food1.png"" style=""width:200px; border:14px solid green;"">","null","","","","","","","","","",""
"","image-keyboard-response","256","218636","0.0-334.0","3HOSI13XH0AZCVJZM3G8J6TDR8DDDK","A7QAPZ1YVA0K2","3FVBZG9CLJ0K37PD5L6161S4HTM0HN","","503","img/food6.png","74","504","1","1","","1","1","1,0.5,0,1,0.5,0,0.5,0,1","1,0.5,0,1,0.5,0,0.5,0,1","1",""
"","html-keyboard-response","257","218940","0.0-335.0","3HOSI13XH0AZCVJZM3G8J6TDR8DDDK","A7QAPZ1YVA0K2","3FVBZG9CLJ0K37PD5L6161S4HTM0HN","","null","<img src=""img/food6.png"" style=""width:200px; border:14px solid green;"">","null","","","","","","","","","",""
"","image-keyboard-response","258","219413","0.0-336.0","3HOSI13XH0AZCVJZM3G8J6TDR8DDDK","A7QAPZ1YVA0K2","3FVBZG9CLJ0K37PD5L6161S4HTM0HN","","470","img/food1.png","74","473","1","1","","2","1","1,0.5,0,1,0.5,0,0.5,0,1","1,0.5,0,1,0.5,0,0.5,0,1","1",""
"","html-keyboard-response","259","219716","0.0-337.0","3HOSI13XH0AZCVJZM3G8J6TDR8DDDK","A7QAPZ1YVA0K2","3FVBZG9CLJ0K37PD5L6161S4HTM0HN","","null","<img src=""img/food1.png"" style=""width:200px; border:14px solid green;"">","null","","","","","","","","","",""
"","image-keyboard-response","260","220159","0.0-338.0","3HOSI13XH0AZCVJZM3G8J6TDR8DDDK","A7QAPZ1YVA0K2","3FVBZG9CLJ0K37PD5L6161S4HTM0HN","","440","img/food3.png","74","442","1","0","","3","1","1,0.5,0,1,0.5,0,0.5,0,1","1,0.5,0,1,0.5,0,0.5,0,1","1",""
"","html-keyboard-response","261","220463","0.0-339.0","3HOSI13XH0AZCVJZM3G8J6TDR8DDDK","A7QAPZ1YVA0K2","3FVBZG9CLJ0K37PD5L6161S4HTM0HN","","null","<img src=""img/food3.png"" style=""width:200px;border:14px solid red;"">","null","","","","","","","","","",""
"","image-keyboard-response","262","220824","0.0-340.0","3HOSI13XH0AZCVJZM3G8J6TDR8DDDK","A7QAPZ1YVA0K2","3FVBZG9CLJ0K37PD5L6161S4HTM0HN","","359","img/food3.png","74","361","1","1","","3","1","1,0.5,0,1,0.5,0,0.5,0,1","1,0.5,0,1,0.5,0,0.5,0,1","1",""
"","html-keyboard-response","263","221129","0.0-341.0","3HOSI13XH0AZCVJZM3G8J6TDR8DDDK","A7QAPZ1YVA0K2","3FVBZG9CLJ0K37PD5L6161S4HTM0HN","","null","<img src=""img/food3.png"" style=""width:200px; border:14px solid green;"">","null","","","","","","","","","",""
"","image-keyboard-response","264","221850","0.0-342.0","3HOSI13XH0AZCVJZM3G8J6TDR8DDDK","A7QAPZ1YVA0K2","3FVBZG9CLJ0K37PD5L6161S4HTM0HN","","714","img/food6.png","74","717","1","1","","1","1","1,0.5,0,1,0.5,0,0.5,0,1","1,0.5,0,1,0.5,0,0.5,0,1","1",""
"","html-keyboard-response","265","222174","0.0-343.0","3HOSI13XH0AZCVJZM3G8J6TDR8DDDK","A7QAPZ1YVA0K2","3FVBZG9CLJ0K37PD5L6161S4HTM0HN","","null","<img src=""img/food6.png"" style=""width:200px; border:14px solid green;"">","null","","","","","","","","","",""
"","image-keyboard-response","266","222735","0.0-344.0","3HOSI13XH0AZCVJZM3G8J6TDR8DDDK","A7QAPZ1YVA0K2","3FVBZG9CLJ0K37PD5L6161S4HTM0HN","","559","img/food6.png","74","560","1","1","","1","1","1,0.5,0,1,0.5,0,0.5,0,1","1,0.5,0,1,0.5,0,0.5,0,1","1",""
"","html-keyboard-response","267","223039","0.0-345.0","3HOSI13XH0AZCVJZM3G8J6TDR8DDDK","A7QAPZ1YVA0K2","3FVBZG9CLJ0K37PD5L6161S4HTM0HN","","null","<img src=""img/food6.png"" style=""width:200px; border:14px solid green;"">","null","","","","","","","","","",""
"","image-keyboard-response","268","223528","0.0-346.0","3HOSI13XH0AZCVJZM3G8J6TDR8DDDK","A7QAPZ1YVA0K2","3FVBZG9CLJ0K37PD5L6161S4HTM0HN","","483","img/food1.png","74","487","1","1","","2","1","1,0.5,0,1,0.5,0,0.5,0,1","1,0.5,0,1,0.5,0,0.5,0,1","1",""
"","html-keyboard-response","269","223831","0.0-347.0","3HOSI13XH0AZCVJZM3G8J6TDR8DDDK","A7QAPZ1YVA0K2","3FVBZG9CLJ0K37PD5L6161S4HTM0HN","","null","<img src=""img/food1.png"" style=""width:200px; border:14px solid green;"">","null","","","","","","","","","",""
"","image-keyboard-response","270","224473","0.0-348.0","3HOSI13XH0AZCVJZM3G8J6TDR8DDDK","A7QAPZ1YVA0K2","3FVBZG9CLJ0K37PD5L6161S4HTM0HN","","638","img/food3.png","74","639","1","0","","3","1","1,0.5,0,1,0.5,0,0.5,0,1","1,0.5,0,1,0.5,0,0.5,0,1","1",""
"","html-keyboard-response","271","224776","0.0-349.0","3HOSI13XH0AZCVJZM3G8J6TDR8DDDK","A7QAPZ1YVA0K2","3FVBZG9CLJ0K37PD5L6161S4HTM0HN","","null","<img src=""img/food3.png"" style=""width:200px;border:14px solid red;"">","null","","","","","","","","","",""
"","image-keyboard-response","272","225479","0.0-350.0","3HOSI13XH0AZCVJZM3G8J6TDR8DDDK","A7QAPZ1YVA0K2","3FVBZG9CLJ0K37PD5L6161S4HTM0HN","","699","img/food3.png","75","701","2","0","","3","1","1,0.5,0,1,0.5,0,0.5,0,1","1,0.5,0,1,0.5,0,0.5,0,1","1",""
"","html-keyboard-response","273","225784","0.0-351.0","3HOSI13XH0AZCVJZM3G8J6TDR8DDDK","A7QAPZ1YVA0K2","3FVBZG9CLJ0K37PD5L6161S4HTM0HN","","null","<img src=""img/food3.png"" style=""width:200px;border:14px solid red;"">","null","","","","","","","","","",""
"","image-keyboard-response","274","226320","0.0-352.0","3HOSI13XH0AZCVJZM3G8J6TDR8DDDK","A7QAPZ1YVA0K2","3FVBZG9CLJ0K37PD5L6161S4HTM0HN","","533","img/food3.png","76","534","3","1","","3","1","1,0.5,0,1,0.5,0,0.5,0,1","1,0.5,0,1,0.5,0,0.5,0,1","1",""
"","html-keyboard-response","275","226623","0.0-353.0","3HOSI13XH0AZCVJZM3G8J6TDR8DDDK","A7QAPZ1YVA0K2","3FVBZG9CLJ0K37PD5L6161S4HTM0HN","","null","<img src=""img/food3.png"" style=""width:200px; border:14px solid green;"">","null","","","","","","","","","",""
"","image-keyboard-response","276","227131","0.0-354.0","3HOSI13XH0AZCVJZM3G8J6TDR8DDDK","A7QAPZ1YVA0K2","3FVBZG9CLJ0K37PD5L6161S4HTM0HN","","504","img/food3.png","75","507","2","0","","3","1","1,0.5,0,1,0.5,0,0.5,0,1","1,0.5,0,1,0.5,0,0.5,0,1","1",""
"","html-keyboard-response","277","227437","0.0-355.0","3HOSI13XH0AZCVJZM3G8J6TDR8DDDK","A7QAPZ1YVA0K2","3FVBZG9CLJ0K37PD5L6161S4HTM0HN","","null","<img src=""img/food3.png"" style=""width:200px;border:14px solid red;"">","null","","","","","","","","","",""
"","image-keyboard-response","278","227948","0.0-356.0","3HOSI13XH0AZCVJZM3G8J6TDR8DDDK","A7QAPZ1YVA0K2","3FVBZG9CLJ0K37PD5L6161S4HTM0HN","","508","img/food1.png","74","510","1","1","","2","1","1,0.5,0,1,0.5,0,0.5,0,1","1,0.5,0,1,0.5,0,0.5,0,1","1",""
"","html-keyboard-response","279","228252","0.0-357.0","3HOSI13XH0AZCVJZM3G8J6TDR8DDDK","A7QAPZ1YVA0K2","3FVBZG9CLJ0K37PD5L6161S4HTM0HN","","null","<img src=""img/food1.png"" style=""width:200px; border:14px solid green;"">","null","","","","","","","","","",""
"","image-keyboard-response","280","228829","0.0-358.0","3HOSI13XH0AZCVJZM3G8J6TDR8DDDK","A7QAPZ1YVA0K2","3FVBZG9CLJ0K37PD5L6161S4HTM0HN","","576","img/food6.png","74","578","1","1","","1","1","1,0.5,0,1,0.5,0,0.5,0,1","1,0.5,0,1,0.5,0,0.5,0,1","1",""
"","html-keyboard-response","281","229135","0.0-359.0","3HOSI13XH0AZCVJZM3G8J6TDR8DDDK","A7QAPZ1YVA0K2","3FVBZG9CLJ0K37PD5L6161S4HTM0HN","","null","<img src=""img/food6.png"" style=""width:200px; border:14px solid green;"">","null","","","","","","","","","",""
"","image-keyboard-response","282","229722","0.0-360.0","3HOSI13XH0AZCVJZM3G8J6TDR8DDDK","A7QAPZ1YVA0K2","3FVBZG9CLJ0K37PD5L6161S4HTM0HN","","585","img/food6.png","74","587","1","1","","1","1","1,0.5,0,1,0.5,0,0.5,0,1","1,0.5,0,1,0.5,0,0.5,0,1","1",""
"","html-keyboard-response","283","230025","0.0-361.0","3HOSI13XH0AZCVJZM3G8J6TDR8DDDK","A7QAPZ1YVA0K2","3FVBZG9CLJ0K37PD5L6161S4HTM0HN","","null","<img src=""img/food6.png"" style=""width:200px; border:14px solid green;"">","null","","","","","","","","","",""
"","image-keyboard-response","284","230616","0.0-362.0","3HOSI13XH0AZCVJZM3G8J6TDR8DDDK","A7QAPZ1YVA0K2","3FVBZG9CLJ0K37PD5L6161S4HTM0HN","","587","img/food6.png","74","590","1","1","","1","1","1,0.5,0,1,0.5,0,0.5,0,1","1,0.5,0,1,0.5,0,0.5,0,1","1",""
"","html-keyboard-response","285","230919","0.0-363.0","3HOSI13XH0AZCVJZM3G8J6TDR8DDDK","A7QAPZ1YVA0K2","3FVBZG9CLJ0K37PD5L6161S4HTM0HN","","null","<img src=""img/food6.png"" style=""width:200px; border:14px solid green;"">","null","","","","","","","","","",""
"","image-keyboard-response","286","231511","0.0-364.0","3HOSI13XH0AZCVJZM3G8J6TDR8DDDK","A7QAPZ1YVA0K2","3FVBZG9CLJ0K37PD5L6161S4HTM0HN","","589","img/food1.png","74","591","1","1","","2","1","1,0.5,0,1,0.5,0,0.5,0,1","1,0.5,0,1,0.5,0,0.5,0,1","1",""
"","html-keyboard-response","287","231815","0.0-365.0","3HOSI13XH0AZCVJZM3G8J6TDR8DDDK","A7QAPZ1YVA0K2","3FVBZG9CLJ0K37PD5L6161S4HTM0HN","","null","<img src=""img/food1.png"" style=""width:200px; border:14px solid green;"">","null","","","","","","","","","",""
"","image-keyboard-response","288","232300","0.0-366.0","3HOSI13XH0AZCVJZM3G8J6TDR8DDDK","A7QAPZ1YVA0K2","3FVBZG9CLJ0K37PD5L6161S4HTM0HN","","482","img/food6.png","74","483","1","1","","1","1","1,0.5,0,1,0.5,0,0.5,0,1","1,0.5,0,1,0.5,0,0.5,0,1","1",""
"","html-keyboard-response","289","232603","0.0-367.0","3HOSI13XH0AZCVJZM3G8J6TDR8DDDK","A7QAPZ1YVA0K2","3FVBZG9CLJ0K37PD5L6161S4HTM0HN","","null","<img src=""img/food6.png"" style=""width:200px; border:14px solid green;"">","null","","","","","","","","","",""
"","image-keyboard-response","290","233094","0.0-368.0","3HOSI13XH0AZCVJZM3G8J6TDR8DDDK","A7QAPZ1YVA0K2","3FVBZG9CLJ0K37PD5L6161S4HTM0HN","","486","img/food3.png","74","489","1","0","","3","1","1,0.5,0,1,0.5,0,0.5,0,1","1,0.5,0,1,0.5,0,0.5,0,1","1",""
"","html-keyboard-response","291","233397","0.0-369.0","3HOSI13XH0AZCVJZM3G8J6TDR8DDDK","A7QAPZ1YVA0K2","3FVBZG9CLJ0K37PD5L6161S4HTM0HN","","null","<img src=""img/food3.png"" style=""width:200px;border:14px solid red;"">","null","","","","","","","","","",""
"","image-keyboard-response","292","233901","0.0-370.0","3HOSI13XH0AZCVJZM3G8J6TDR8DDDK","A7QAPZ1YVA0K2","3FVBZG9CLJ0K37PD5L6161S4HTM0HN","","502","img/food3.png","75","504","2","0","","3","1","1,0.5,0,1,0.5,0,0.5,0,1","1,0.5,0,1,0.5,0,0.5,0,1","1",""
"","html-keyboard-response","293","234205","0.0-371.0","3HOSI13XH0AZCVJZM3G8J6TDR8DDDK","A7QAPZ1YVA0K2","3FVBZG9CLJ0K37PD5L6161S4HTM0HN","","null","<img src=""img/food3.png"" style=""width:200px;border:14px solid red;"">","null","","","","","","","","","",""
"","image-keyboard-response","294","234710","0.0-372.0","3HOSI13XH0AZCVJZM3G8J6TDR8DDDK","A7QAPZ1YVA0K2","3FVBZG9CLJ0K37PD5L6161S4HTM0HN","","504","img/food3.png","76","507","3","1","","3","1","1,0.5,0,1,0.5,0,0.5,0,1","1,0.5,0,1,0.5,0,0.5,0,1","1",""
"","html-keyboard-response","295","235017","0.0-373.0","3HOSI13XH0AZCVJZM3G8J6TDR8DDDK","A7QAPZ1YVA0K2","3FVBZG9CLJ0K37PD5L6161S4HTM0HN","","null","<img src=""img/food3.png"" style=""width:200px; border:14px solid green;"">","null","","","","","","","","","",""
"","image-keyboard-response","296","235700","0.0-374.0","3HOSI13XH0AZCVJZM3G8J6TDR8DDDK","A7QAPZ1YVA0K2","3FVBZG9CLJ0K37PD5L6161S4HTM0HN","","678","img/food1.png","75","681","2","0","","2","1","1,0.5,0,1,0.5,0,0.5,0,1","1,0.5,0,1,0.5,0,0.5,0,1","1",""
"","html-keyboard-response","297","236005","0.0-375.0","3HOSI13XH0AZCVJZM3G8J6TDR8DDDK","A7QAPZ1YVA0K2","3FVBZG9CLJ0K37PD5L6161S4HTM0HN","","null","<img src=""img/food1.png"" style=""width:200px;border:14px solid red;"">","null","","","","","","","","","",""
"","image-keyboard-response","298","236490","0.0-376.0","3HOSI13XH0AZCVJZM3G8J6TDR8DDDK","A7QAPZ1YVA0K2","3FVBZG9CLJ0K37PD5L6161S4HTM0HN","","482","img/food1.png","74","485","1","1","","2","1","1,0.5,0,1,0.5,0,0.5,0,1","1,0.5,0,1,0.5,0,0.5,0,1","1",""
"","html-keyboard-response","299","236805","0.0-377.0","3HOSI13XH0AZCVJZM3G8J6TDR8DDDK","A7QAPZ1YVA0K2","3FVBZG9CLJ0K37PD5L6161S4HTM0HN","","null","<img src=""img/food1.png"" style=""width:200px; border:14px solid green;"">","null","","","","","","","","","",""
"","image-keyboard-response","300","237240","0.0-378.0","3HOSI13XH0AZCVJZM3G8J6TDR8DDDK","A7QAPZ1YVA0K2","3FVBZG9CLJ0K37PD5L6161S4HTM0HN","","427","img/food3.png","74","428","1","1","","3","1","1,0.5,0,1,0.5,0,0.5,0,1","1,0.5,0,1,0.5,0,0.5,0,1","1",""
"","html-keyboard-response","301","237542","0.0-379.0","3HOSI13XH0AZCVJZM3G8J6TDR8DDDK","A7QAPZ1YVA0K2","3FVBZG9CLJ0K37PD5L6161S4HTM0HN","","null","<img src=""img/food3.png"" style=""width:200px; border:14px solid green;"">","null","","","","","","","","","",""
"","image-keyboard-response","302","238106","0.0-380.0","3HOSI13XH0AZCVJZM3G8J6TDR8DDDK","A7QAPZ1YVA0K2","3FVBZG9CLJ0K37PD5L6161S4HTM0HN","","560","img/food1.png","74","563","1","1","","2","1","1,0.5,0,1,0.5,0,0.5,0,1","1,0.5,0,1,0.5,0,0.5,0,1","1",""
"","html-keyboard-response","303","238413","0.0-381.0","3HOSI13XH0AZCVJZM3G8J6TDR8DDDK","A7QAPZ1YVA0K2","3FVBZG9CLJ0K37PD5L6161S4HTM0HN","","null","<img src=""img/food1.png"" style=""width:200px; border:14px solid green;"">","null","","","","","","","","","",""
"","image-keyboard-response","304","238952","0.0-382.0","3HOSI13XH0AZCVJZM3G8J6TDR8DDDK","A7QAPZ1YVA0K2","3FVBZG9CLJ0K37PD5L6161S4HTM0HN","","521","img/food6.png","74","528","1","1","","1","1","1,0.5,0,1,0.5,0,0.5,0,1","1,0.5,0,1,0.5,0,0.5,0,1","1",""
"","html-keyboard-response","305","239256","0.0-383.0","3HOSI13XH0AZCVJZM3G8J6TDR8DDDK","A7QAPZ1YVA0K2","3FVBZG9CLJ0K37PD5L6161S4HTM0HN","","null","<img src=""img/food6.png"" style=""width:200px; border:14px solid green;"">","null","","","","","","","","","",""
"","image-keyboard-response","306","239934","0.0-384.0","3HOSI13XH0AZCVJZM3G8J6TDR8DDDK","A7QAPZ1YVA0K2","3FVBZG9CLJ0K37PD5L6161S4HTM0HN","","675","img/food1.png","74","678","1","1","","2","1","1,0.5,0,1,0.5,0,0.5,0,1","1,0.5,0,1,0.5,0,0.5,0,1","1",""
"","html-keyboard-response","307","240237","0.0-385.0","3HOSI13XH0AZCVJZM3G8J6TDR8DDDK","A7QAPZ1YVA0K2","3FVBZG9CLJ0K37PD5L6161S4HTM0HN","","null","<img src=""img/food1.png"" style=""width:200px; border:14px solid green;"">","null","","","","","","","","","",""
"","image-keyboard-response","308","240871","0.0-386.0","3HOSI13XH0AZCVJZM3G8J6TDR8DDDK","A7QAPZ1YVA0K2","3FVBZG9CLJ0K37PD5L6161S4HTM0HN","","630","img/food1.png","74","633","1","1","","2","1","1,0.5,0,1,0.5,0,0.5,0,1","1,0.5,0,1,0.5,0,0.5,0,1","1",""
"","html-keyboard-response","309","241175","0.0-387.0","3HOSI13XH0AZCVJZM3G8J6TDR8DDDK","A7QAPZ1YVA0K2","3FVBZG9CLJ0K37PD5L6161S4HTM0HN","","null","<img src=""img/food1.png"" style=""width:200px; border:14px solid green;"">","null","","","","","","","","","",""
"","image-keyboard-response","310","241776","0.0-388.0","3HOSI13XH0AZCVJZM3G8J6TDR8DDDK","A7QAPZ1YVA0K2","3FVBZG9CLJ0K37PD5L6161S4HTM0HN","","597","img/food1.png","74","600","1","1","","2","1","1,0.5,0,1,0.5,0,0.5,0,1","1,0.5,0,1,0.5,0,0.5,0,1","1",""
"","html-keyboard-response","311","242078","0.0-389.0","3HOSI13XH0AZCVJZM3G8J6TDR8DDDK","A7QAPZ1YVA0K2","3FVBZG9CLJ0K37PD5L6161S4HTM0HN","","null","<img src=""img/food1.png"" style=""width:200px; border:14px solid green;"">","null","","","","","","","","","",""
"","image-keyboard-response","312","242599","0.0-390.0","3HOSI13XH0AZCVJZM3G8J6TDR8DDDK","A7QAPZ1YVA0K2","3FVBZG9CLJ0K37PD5L6161S4HTM0HN","","518","img/food1.png","74","519","1","1","","2","1","1,0.5,0,1,0.5,0,0.5,0,1","1,0.5,0,1,0.5,0,0.5,0,1","1",""
"","html-keyboard-response","313","242903","0.0-391.0","3HOSI13XH0AZCVJZM3G8J6TDR8DDDK","A7QAPZ1YVA0K2","3FVBZG9CLJ0K37PD5L6161S4HTM0HN","","null","<img src=""img/food1.png"" style=""width:200px; border:14px solid green;"">","null","","","","","","","","","",""
"","image-keyboard-response","314","243338","0.0-392.0","3HOSI13XH0AZCVJZM3G8J6TDR8DDDK","A7QAPZ1YVA0K2","3FVBZG9CLJ0K37PD5L6161S4HTM0HN","","430","img/food1.png","74","431","1","1","","2","1","1,0.5,0,1,0.5,0,0.5,0,1","1,0.5,0,1,0.5,0,0.5,0,1","1",""
"","html-keyboard-response","315","243640","0.0-393.0","3HOSI13XH0AZCVJZM3G8J6TDR8DDDK","A7QAPZ1YVA0K2","3FVBZG9CLJ0K37PD5L6161S4HTM0HN","","null","<img src=""img/food1.png"" style=""width:200px; border:14px solid green;"">","null","","","","","","","","","",""
"","image-keyboard-response","316","244224","0.0-394.0","3HOSI13XH0AZCVJZM3G8J6TDR8DDDK","A7QAPZ1YVA0K2","3FVBZG9CLJ0K37PD5L6161S4HTM0HN","","580","img/food6.png","74","582","1","1","","1","1","1,0.5,0,1,0.5,0,0.5,0,1","1,0.5,0,1,0.5,0,0.5,0,1","1",""
"","html-keyboard-response","317","244526","0.0-395.0","3HOSI13XH0AZCVJZM3G8J6TDR8DDDK","A7QAPZ1YVA0K2","3FVBZG9CLJ0K37PD5L6161S4HTM0HN","","null","<img src=""img/food6.png"" style=""width:200px; border:14px solid green;"">","null","","","","","","","","","",""
"","image-keyboard-response","318","244923","0.0-396.0","3HOSI13XH0AZCVJZM3G8J6TDR8DDDK","A7QAPZ1YVA0K2","3FVBZG9CLJ0K37PD5L6161S4HTM0HN","","395","img/food6.png","74","397","1","1","","1","1","1,0.5,0,1,0.5,0,0.5,0,1","1,0.5,0,1,0.5,0,0.5,0,1","1",""
"","html-keyboard-response","319","245225","0.0-397.0","3HOSI13XH0AZCVJZM3G8J6TDR8DDDK","A7QAPZ1YVA0K2","3FVBZG9CLJ0K37PD5L6161S4HTM0HN","","null","<img src=""img/food6.png"" style=""width:200px; border:14px solid green;"">","null","","","","","","","","","",""
"","image-keyboard-response","320","245937","0.0-398.0","3HOSI13XH0AZCVJZM3G8J6TDR8DDDK","A7QAPZ1YVA0K2","3FVBZG9CLJ0K37PD5L6161S4HTM0HN","","709","img/food1.png","74","711","1","1","","2","1","1,0.5,0,1,0.5,0,0.5,0,1","1,0.5,0,1,0.5,0,0.5,0,1","1",""
"","html-keyboard-response","321","246244","0.0-399.0","3HOSI13XH0AZCVJZM3G8J6TDR8DDDK","A7QAPZ1YVA0K2","3FVBZG9CLJ0K37PD5L6161S4HTM0HN","","null","<img src=""img/food1.png"" style=""width:200px; border:14px solid green;"">","null","","","","","","","","","",""
"","image-keyboard-response","322","246786","0.0-400.0","3HOSI13XH0AZCVJZM3G8J6TDR8DDDK","A7QAPZ1YVA0K2","3FVBZG9CLJ0K37PD5L6161S4HTM0HN","","537","img/food6.png","75","541","2","0","","1","1","1,0.5,0,1,0.5,0,0.5,0,1","1,0.5,0,1,0.5,0,0.5,0,1","1",""
"","html-keyboard-response","323","247091","0.0-401.0","3HOSI13XH0AZCVJZM3G8J6TDR8DDDK","A7QAPZ1YVA0K2","3FVBZG9CLJ0K37PD5L6161S4HTM0HN","","null","<img src=""img/food6.png"" style=""width:200px;border:14px solid red;"">","null","","","","","","","","","",""
"","image-keyboard-response","324","247394","0.0-402.0","3HOSI13XH0AZCVJZM3G8J6TDR8DDDK","A7QAPZ1YVA0K2","3FVBZG9CLJ0K37PD5L6161S4HTM0HN","","300","img/food1.png","74","302","1","1","","2","1","1,0.5,0,1,0.5,0,0.5,0,1","1,0.5,0,1,0.5,0,0.5,0,1","1",""
"","html-keyboard-response","325","247696","0.0-403.0","3HOSI13XH0AZCVJZM3G8J6TDR8DDDK","A7QAPZ1YVA0K2","3FVBZG9CLJ0K37PD5L6161S4HTM0HN","","null","<img src=""img/food1.png"" style=""width:200px; border:14px solid green;"">","null","","","","","","","","","",""
"","image-keyboard-response","326","248310","0.0-404.0","3HOSI13XH0AZCVJZM3G8J6TDR8DDDK","A7QAPZ1YVA0K2","3FVBZG9CLJ0K37PD5L6161S4HTM0HN","","610","img/food6.png","74","612","1","1","","1","1","1,0.5,0,1,0.5,0,0.5,0,1","1,0.5,0,1,0.5,0,0.5,0,1","1",""
"","html-keyboard-response","327","248618","0.0-405.0","3HOSI13XH0AZCVJZM3G8J6TDR8DDDK","A7QAPZ1YVA0K2","3FVBZG9CLJ0K37PD5L6161S4HTM0HN","","null","<img src=""img/food6.png"" style=""width:200px; border:14px solid green;"">","null","","","","","","","","","",""
"","image-keyboard-response","328","248960","0.0-406.0","3HOSI13XH0AZCVJZM3G8J6TDR8DDDK","A7QAPZ1YVA0K2","3FVBZG9CLJ0K37PD5L6161S4HTM0HN","","338","img/food6.png","74","340","1","1","","1","1","1,0.5,0,1,0.5,0,0.5,0,1","1,0.5,0,1,0.5,0,0.5,0,1","1",""
"","html-keyboard-response","329","249264","0.0-407.0","3HOSI13XH0AZCVJZM3G8J6TDR8DDDK","A7QAPZ1YVA0K2","3FVBZG9CLJ0K37PD5L6161S4HTM0HN","","null","<img src=""img/food6.png"" style=""width:200px; border:14px solid green;"">","null","","","","","","","","","",""
"","image-keyboard-response","330","249699","0.0-408.0","3HOSI13XH0AZCVJZM3G8J6TDR8DDDK","A7QAPZ1YVA0K2","3FVBZG9CLJ0K37PD5L6161S4HTM0HN","","432","img/food3.png","74","434","1","0","","3","1","1,0.5,0,1,0.5,0,0.5,0,1","1,0.5,0,1,0.5,0,0.5,0,1","1",""
"","html-keyboard-response","331","250002","0.0-409.0","3HOSI13XH0AZCVJZM3G8J6TDR8DDDK","A7QAPZ1YVA0K2","3FVBZG9CLJ0K37PD5L6161S4HTM0HN","","null","<img src=""img/food3.png"" style=""width:200px;border:14px solid red;"">","null","","","","","","","","","",""
"","image-keyboard-response","332","250614","0.0-410.0","3HOSI13XH0AZCVJZM3G8J6TDR8DDDK","A7QAPZ1YVA0K2","3FVBZG9CLJ0K37PD5L6161S4HTM0HN","","608","img/food1.png","74","610","1","1","","2","1","1,0.5,0,1,0.5,0,0.5,0,1","1,0.5,0,1,0.5,0,0.5,0,1","1",""
"","html-keyboard-response","333","250917","0.0-411.0","3HOSI13XH0AZCVJZM3G8J6TDR8DDDK","A7QAPZ1YVA0K2","3FVBZG9CLJ0K37PD5L6161S4HTM0HN","","null","<img src=""img/food1.png"" style=""width:200px; border:14px solid green;"">","null","","","","","","","","","",""
"","image-keyboard-response","334","251421","0.0-412.0","3HOSI13XH0AZCVJZM3G8J6TDR8DDDK","A7QAPZ1YVA0K2","3FVBZG9CLJ0K37PD5L6161S4HTM0HN","","501","img/food6.png","75","503","2","0","","1","1","1,0.5,0,1,0.5,0,0.5,0,1","1,0.5,0,1,0.5,0,0.5,0,1","1",""
"","html-keyboard-response","335","251726","0.0-413.0","3HOSI13XH0AZCVJZM3G8J6TDR8DDDK","A7QAPZ1YVA0K2","3FVBZG9CLJ0K37PD5L6161S4HTM0HN","","null","<img src=""img/food6.png"" style=""width:200px;border:14px solid red;"">","null","","","","","","","","","",""
"","image-keyboard-response","336","252138","0.0-414.0","3HOSI13XH0AZCVJZM3G8J6TDR8DDDK","A7QAPZ1YVA0K2","3FVBZG9CLJ0K37PD5L6161S4HTM0HN","","408","img/food1.png","76","410","3","0","","2","1","1,0.5,0,1,0.5,0,0.5,0,1","1,0.5,0,1,0.5,0,0.5,0,1","1",""
"","html-keyboard-response","337","252477","0.0-415.0","3HOSI13XH0AZCVJZM3G8J6TDR8DDDK","A7QAPZ1YVA0K2","3FVBZG9CLJ0K37PD5L6161S4HTM0HN","","null","<img src=""img/food1.png"" style=""width:200px;border:14px solid red;"">","null","","","","","","","","","",""
"","image-keyboard-response","338","252937","0.0-416.0","3HOSI13XH0AZCVJZM3G8J6TDR8DDDK","A7QAPZ1YVA0K2","3FVBZG9CLJ0K37PD5L6161S4HTM0HN","","459","img/food6.png","74","460","1","1","","1","1","1,0.5,0,1,0.5,0,0.5,0,1","1,0.5,0,1,0.5,0,0.5,0,1","1",""
"","html-keyboard-response","339","253248","0.0-417.0","3HOSI13XH0AZCVJZM3G8J6TDR8DDDK","A7QAPZ1YVA0K2","3FVBZG9CLJ0K37PD5L6161S4HTM0HN","","null","<img src=""img/food6.png"" style=""width:200px; border:14px solid green;"">","null","","","","","","","","","",""
"","image-keyboard-response","340","253871","0.0-418.0","3HOSI13XH0AZCVJZM3G8J6TDR8DDDK","A7QAPZ1YVA0K2","3FVBZG9CLJ0K37PD5L6161S4HTM0HN","","621","img/food3.png","74","622","1","1","","3","1","1,0.5,0,1,0.5,0,0.5,0,1","1,0.5,0,1,0.5,0,0.5,0,1","1",""
"","html-keyboard-response","341","254175","0.0-419.0","3HOSI13XH0AZCVJZM3G8J6TDR8DDDK","A7QAPZ1YVA0K2","3FVBZG9CLJ0K37PD5L6161S4HTM0HN","","null","<img src=""img/food3.png"" style=""width:200px; border:14px solid green;"">","null","","","","","","","","","",""
"","image-keyboard-response","342","254818","0.0-420.0","3HOSI13XH0AZCVJZM3G8J6TDR8DDDK","A7QAPZ1YVA0K2","3FVBZG9CLJ0K37PD5L6161S4HTM0HN","","641","img/food6.png","74","643","1","1","","1","1","1,0.5,0,1,0.5,0,0.5,0,1","1,0.5,0,1,0.5,0,0.5,0,1","1",""
"","html-keyboard-response","343","255122","0.0-421.0","3HOSI13XH0AZCVJZM3G8J6TDR8DDDK","A7QAPZ1YVA0K2","3FVBZG9CLJ0K37PD5L6161S4HTM0HN","","null","<img src=""img/food6.png"" style=""width:200px; border:14px solid green;"">","null","","","","","","","","","",""
"","image-keyboard-response","344","255651","0.0-422.0","3HOSI13XH0AZCVJZM3G8J6TDR8DDDK","A7QAPZ1YVA0K2","3FVBZG9CLJ0K37PD5L6161S4HTM0HN","","524","img/food1.png","74","527","1","1","","2","1","1,0.5,0,1,0.5,0,0.5,0,1","1,0.5,0,1,0.5,0,0.5,0,1","1",""
"","html-keyboard-response","345","255953","0.0-423.0","3HOSI13XH0AZCVJZM3G8J6TDR8DDDK","A7QAPZ1YVA0K2","3FVBZG9CLJ0K37PD5L6161S4HTM0HN","","null","<img src=""img/food1.png"" style=""width:200px; border:14px solid green;"">","null","","","","","","","","","",""
"","image-keyboard-response","346","256627","0.0-424.0","3HOSI13XH0AZCVJZM3G8J6TDR8DDDK","A7QAPZ1YVA0K2","3FVBZG9CLJ0K37PD5L6161S4HTM0HN","","671","img/food6.png","74","673","1","1","","1","1","1,0.5,0,1,0.5,0,0.5,0,1","1,0.5,0,1,0.5,0,0.5,0,1","1",""
"","html-keyboard-response","347","256930","0.0-425.0","3HOSI13XH0AZCVJZM3G8J6TDR8DDDK","A7QAPZ1YVA0K2","3FVBZG9CLJ0K37PD5L6161S4HTM0HN","","null","<img src=""img/food6.png"" style=""width:200px; border:14px solid green;"">","null","","","","","","","","","",""
"","image-keyboard-response","348","257518","0.0-426.0","3HOSI13XH0AZCVJZM3G8J6TDR8DDDK","A7QAPZ1YVA0K2","3FVBZG9CLJ0K37PD5L6161S4HTM0HN","","585","img/food3.png","74","588","1","0","","3","1","1,0.5,0,1,0.5,0,0.5,0,1","1,0.5,0,1,0.5,0,0.5,0,1","1",""
"","html-keyboard-response","349","257820","0.0-427.0","3HOSI13XH0AZCVJZM3G8J6TDR8DDDK","A7QAPZ1YVA0K2","3FVBZG9CLJ0K37PD5L6161S4HTM0HN","","null","<img src=""img/food3.png"" style=""width:200px;border:14px solid red;"">","null","","","","","","","","","",""
"","image-keyboard-response","350","258642","0.0-428.0","3HOSI13XH0AZCVJZM3G8J6TDR8DDDK","A7QAPZ1YVA0K2","3FVBZG9CLJ0K37PD5L6161S4HTM0HN","","818","img/food6.png","75","820","2","0","","1","1","1,0.5,0,1,0.5,0,0.5,0,1","1,0.5,0,1,0.5,0,0.5,0,1","1",""
"","html-keyboard-response","351","258944","0.0-429.0","3HOSI13XH0AZCVJZM3G8J6TDR8DDDK","A7QAPZ1YVA0K2","3FVBZG9CLJ0K37PD5L6161S4HTM0HN","","null","<img src=""img/food6.png"" style=""width:200px;border:14px solid red;"">","null","","","","","","","","","",""
"","image-keyboard-response","352","259343","0.0-430.0","3HOSI13XH0AZCVJZM3G8J6TDR8DDDK","A7QAPZ1YVA0K2","3FVBZG9CLJ0K37PD5L6161S4HTM0HN","","393","img/food3.png","76","395","3","1","","3","1","1,0.5,0,1,0.5,0,0.5,0,1","1,0.5,0,1,0.5,0,0.5,0,1","1",""
"","html-keyboard-response","353","259645","0.0-431.0","3HOSI13XH0AZCVJZM3G8J6TDR8DDDK","A7QAPZ1YVA0K2","3FVBZG9CLJ0K37PD5L6161S4HTM0HN","","null","<img src=""img/food3.png"" style=""width:200px; border:14px solid green;"">","null","","","","","","","","","",""
"","image-keyboard-response","354","260451","0.0-432.0","3HOSI13XH0AZCVJZM3G8J6TDR8DDDK","A7QAPZ1YVA0K2","3FVBZG9CLJ0K37PD5L6161S4HTM0HN","","805","img/food3.png","74","805","1","1","","3","1","1,0.5,0,1,0.5,0,0.5,0,1","1,0.5,0,1,0.5,0,0.5,0,1","1",""
"","html-keyboard-response","355","260761","0.0-433.0","3HOSI13XH0AZCVJZM3G8J6TDR8DDDK","A7QAPZ1YVA0K2","3FVBZG9CLJ0K37PD5L6161S4HTM0HN","","null","<img src=""img/food3.png"" style=""width:200px; border:14px solid green;"">","null","","","","","","","","","",""
"","image-keyboard-response","356","261255","0.0-434.0","3HOSI13XH0AZCVJZM3G8J6TDR8DDDK","A7QAPZ1YVA0K2","3FVBZG9CLJ0K37PD5L6161S4HTM0HN","","492","img/food1.png","74","494","1","1","","2","1","1,0.5,0,1,0.5,0,0.5,0,1","1,0.5,0,1,0.5,0,0.5,0,1","1",""
"","html-keyboard-response","357","261559","0.0-435.0","3HOSI13XH0AZCVJZM3G8J6TDR8DDDK","A7QAPZ1YVA0K2","3FVBZG9CLJ0K37PD5L6161S4HTM0HN","","null","<img src=""img/food1.png"" style=""width:200px; border:14px solid green;"">","null","","","","","","","","","",""
"","image-keyboard-response","358","262230","0.0-436.0","3HOSI13XH0AZCVJZM3G8J6TDR8DDDK","A7QAPZ1YVA0K2","3FVBZG9CLJ0K37PD5L6161S4HTM0HN","","669","img/food3.png","74","671","1","1","","3","1","1,0.5,0,1,0.5,0,0.5,0,1","1,0.5,0,1,0.5,0,0.5,0,1","1",""
"","html-keyboard-response","359","262530","0.0-437.0","3HOSI13XH0AZCVJZM3G8J6TDR8DDDK","A7QAPZ1YVA0K2","3FVBZG9CLJ0K37PD5L6161S4HTM0HN","","null","<img src=""img/food3.png"" style=""width:200px; border:14px solid green;"">","null","","","","","","","","","",""
"","image-keyboard-response","360","263092","0.0-438.0","3HOSI13XH0AZCVJZM3G8J6TDR8DDDK","A7QAPZ1YVA0K2","3FVBZG9CLJ0K37PD5L6161S4HTM0HN","","560","img/food6.png","74","561","1","1","","1","1","1,0.5,0,1,0.5,0,0.5,0,1","1,0.5,0,1,0.5,0,0.5,0,1","1",""
"","html-keyboard-response","361","263394","0.0-439.0","3HOSI13XH0AZCVJZM3G8J6TDR8DDDK","A7QAPZ1YVA0K2","3FVBZG9CLJ0K37PD5L6161S4HTM0HN","","null","<img src=""img/food6.png"" style=""width:200px; border:14px solid green;"">","null","","","","","","","","","",""
"","image-keyboard-response","362","263821","0.0-440.0","3HOSI13XH0AZCVJZM3G8J6TDR8DDDK","A7QAPZ1YVA0K2","3FVBZG9CLJ0K37PD5L6161S4HTM0HN","","425","img/food1.png","74","426","1","1","","2","1","1,0.5,0,1,0.5,0,0.5,0,1","1,0.5,0,1,0.5,0,0.5,0,1","1",""
"","html-keyboard-response","363","264127","0.0-441.0","3HOSI13XH0AZCVJZM3G8J6TDR8DDDK","A7QAPZ1YVA0K2","3FVBZG9CLJ0K37PD5L6161S4HTM0HN","","null","<img src=""img/food1.png"" style=""width:200px; border:14px solid green;"">","null","","","","","","","","","",""
"","image-keyboard-response","364","264732","0.0-442.0","3HOSI13XH0AZCVJZM3G8J6TDR8DDDK","A7QAPZ1YVA0K2","3FVBZG9CLJ0K37PD5L6161S4HTM0HN","","602","img/food3.png","74","604","1","0","","3","1","1,0.5,0,1,0.5,0,0.5,0,1","1,0.5,0,1,0.5,0,0.5,0,1","1",""
"","html-keyboard-response","365","265033","0.0-443.0","3HOSI13XH0AZCVJZM3G8J6TDR8DDDK","A7QAPZ1YVA0K2","3FVBZG9CLJ0K37PD5L6161S4HTM0HN","","null","<img src=""img/food3.png"" style=""width:200px;border:14px solid red;"">","null","","","","","","","","","",""
"","image-keyboard-response","366","265783","0.0-444.0","3HOSI13XH0AZCVJZM3G8J6TDR8DDDK","A7QAPZ1YVA0K2","3FVBZG9CLJ0K37PD5L6161S4HTM0HN","","747","img/food3.png","74","749","1","0","","3","1","1,0.5,0,1,0.5,0,0.5,0,1","1,0.5,0,1,0.5,0,0.5,0,1","1",""
"","html-keyboard-response","367","266088","0.0-445.0","3HOSI13XH0AZCVJZM3G8J6TDR8DDDK","A7QAPZ1YVA0K2","3FVBZG9CLJ0K37PD5L6161S4HTM0HN","","null","<img src=""img/food3.png"" style=""width:200px;border:14px solid red;"">","null","","","","","","","","","",""
"","image-keyboard-response","368","266679","0.0-446.0","3HOSI13XH0AZCVJZM3G8J6TDR8DDDK","A7QAPZ1YVA0K2","3FVBZG9CLJ0K37PD5L6161S4HTM0HN","","587","img/food6.png","75","589","2","0","","1","1","1,0.5,0,1,0.5,0,0.5,0,1","1,0.5,0,1,0.5,0,0.5,0,1","1",""
"","html-keyboard-response","369","266985","0.0-447.0","3HOSI13XH0AZCVJZM3G8J6TDR8DDDK","A7QAPZ1YVA0K2","3FVBZG9CLJ0K37PD5L6161S4HTM0HN","","null","<img src=""img/food6.png"" style=""width:200px;border:14px solid red;"">","null","","","","","","","","","",""
"","image-keyboard-response","370","267363","0.0-448.0","3HOSI13XH0AZCVJZM3G8J6TDR8DDDK","A7QAPZ1YVA0K2","3FVBZG9CLJ0K37PD5L6161S4HTM0HN","","375","img/food3.png","74","377","1","1","","3","1","1,0.5,0,1,0.5,0,0.5,0,1","1,0.5,0,1,0.5,0,0.5,0,1","1",""
"","html-keyboard-response","371","267666","0.0-449.0","3HOSI13XH0AZCVJZM3G8J6TDR8DDDK","A7QAPZ1YVA0K2","3FVBZG9CLJ0K37PD5L6161S4HTM0HN","","null","<img src=""img/food3.png"" style=""width:200px; border:14px solid green;"">","null","","","","","","","","","",""
"","image-keyboard-response","372","268273","0.0-450.0","3HOSI13XH0AZCVJZM3G8J6TDR8DDDK","A7QAPZ1YVA0K2","3FVBZG9CLJ0K37PD5L6161S4HTM0HN","","605","img/food1.png","74","607","1","1","","2","1","1,0.5,0,1,0.5,0,0.5,0,1","1,0.5,0,1,0.5,0,0.5,0,1","1",""
"","html-keyboard-response","373","268610","0.0-451.0","3HOSI13XH0AZCVJZM3G8J6TDR8DDDK","A7QAPZ1YVA0K2","3FVBZG9CLJ0K37PD5L6161S4HTM0HN","","null","<img src=""img/food1.png"" style=""width:200px; border:14px solid green;"">","null","","","","","","","","","",""
"","image-keyboard-response","374","268996","0.0-452.0","3HOSI13XH0AZCVJZM3G8J6TDR8DDDK","A7QAPZ1YVA0K2","3FVBZG9CLJ0K37PD5L6161S4HTM0HN","","370","img/food3.png","74","375","1","0","","3","1","1,0.5,0,1,0.5,0,0.5,0,1","1,0.5,0,1,0.5,0,0.5,0,1","1",""
"","html-keyboard-response","375","269299","0.0-453.0","3HOSI13XH0AZCVJZM3G8J6TDR8DDDK","A7QAPZ1YVA0K2","3FVBZG9CLJ0K37PD5L6161S4HTM0HN","","null","<img src=""img/food3.png"" style=""width:200px;border:14px solid red;"">","null","","","","","","","","","",""
"","html-keyboard-response","376","272684","0.0-454.0","3HOSI13XH0AZCVJZM3G8J6TDR8DDDK","A7QAPZ1YVA0K2","3FVBZG9CLJ0K37PD5L6161S4HTM0HN","","","","","","","","","","","","","",""
"","instructions","377","274153","0.0-455.0","3HOSI13XH0AZCVJZM3G8J6TDR8DDDK","A7QAPZ1YVA0K2","3FVBZG9CLJ0K37PD5L6161S4HTM0HN","[{""page_index"":0,""viewing_time"":1467}]","1467","","","","","","","","","","","",""
"","survey-text","378","281412","0.0-456.0","3HOSI13XH0AZCVJZM3G8J6TDR8DDDK","A7QAPZ1YVA0K2","3FVBZG9CLJ0K37PD5L6161S4HTM0HN","","7242","","","","","","","","","","","","{""Q0"":""A7QAPZ1YVA0K2""}"
