"success","trial_type","trial_index","time_elapsed","internal_node_id","assignmentID","mturkID","hitID","view_history","rt","stimulus","key_press","reactionTime","a","r","s","cond","reward_cond","reward_cond_actual","reward_matrix_idx","warning","responses"
"true","fullscreen","0","3526","0.0-0.0","3U088ZLJVLF4MHIWRMX3WNYF4W30WA","A7VA2Y4H6U31O","3EHVO81VN57KAWAV14A1K6BEMLH1HG","","","","","","","","","","","","","",""
"","instructions","1","13386","0.0-1.0","3U088ZLJVLF4MHIWRMX3WNYF4W30WA","A7VA2Y4H6U31O","3EHVO81VN57KAWAV14A1K6BEMLH1HG","[{""page_index"":0,""viewing_time"":2276.8000000715256},{""page_index"":1,""viewing_time"":1263.3999999761581},{""page_index"":2,""viewing_time"":686.7000000476837},{""page_index"":3,""viewing_time"":2064.2999999523163},{""page_index"":4,""viewing_time"":1285.7999999523163},{""page_index"":5,""viewing_time"":1014.1000000238419},{""page_index"":6,""viewing_time"":1264.8999999761581}]","9856.300000071526","","","","","","","","","","","",""
"","image-keyboard-response","2","14520","0.0-2.0","3U088ZLJVLF4MHIWRMX3WNYF4W30WA","A7VA2Y4H6U31O","3EHVO81VN57KAWAV14A1K6BEMLH1HG","","1132.7000000476837","img/food5.png","74","1133.6999999284744","1","1","3","1","1,0.5,0,1,0.5,0,0.5,0,1","0,1,0.5,0,1,0.5,1,0.5,0","3","",""
"","html-keyboard-response","3","14824","0.0-3.0","3U088ZLJVLF4MHIWRMX3WNYF4W30WA","A7VA2Y4H6U31O","3EHVO81VN57KAWAV14A1K6BEMLH1HG","","null","<img src=""img/food5.png"" style=""width:200px; border:14px solid green;"">","null","","","","","","","","","",""
"","image-keyboard-response","4","15130","0.0-4.0","3U088ZLJVLF4MHIWRMX3WNYF4W30WA","A7VA2Y4H6U31O","3EHVO81VN57KAWAV14A1K6BEMLH1HG","","304","img/food5.png","74","305.5","1","1","3","1","1,0.5,0,1,0.5,0,0.5,0,1","0,1,0.5,0,1,0.5,1,0.5,0","3","",""
"","html-keyboard-response","5","15431","0.0-5.0","3U088ZLJVLF4MHIWRMX3WNYF4W30WA","A7VA2Y4H6U31O","3EHVO81VN57KAWAV14A1K6BEMLH1HG","","null","<img src=""img/food5.png"" style=""width:200px; border:14px solid green;"">","null","","","","","","","","","",""
"","image-keyboard-response","6","15883","0.0-6.0","3U088ZLJVLF4MHIWRMX3WNYF4W30WA","A7VA2Y4H6U31O","3EHVO81VN57KAWAV14A1K6BEMLH1HG","","451.6999999284744","img/food3.png","74","452.60000002384186","1","0","1","1","1,0.5,0,1,0.5,0,0.5,0,1","0,1,0.5,0,1,0.5,1,0.5,0","3","",""
"","html-keyboard-response","7","16190","0.0-7.0","3U088ZLJVLF4MHIWRMX3WNYF4W30WA","A7VA2Y4H6U31O","3EHVO81VN57KAWAV14A1K6BEMLH1HG","","null","<img src=""img/food3.png"" style=""width:200px;border:14px solid red;"">","null","","","","","","","","","",""
"","image-keyboard-response","8","16964","0.0-8.0","3U088ZLJVLF4MHIWRMX3WNYF4W30WA","A7VA2Y4H6U31O","3EHVO81VN57KAWAV14A1K6BEMLH1HG","","772.7000000476837","img/food1.png","74","773.5","1","0","2","1","1,0.5,0,1,0.5,0,0.5,0,1","0,1,0.5,0,1,0.5,1,0.5,0","3","",""
"","html-keyboard-response","9","17267","0.0-9.0","3U088ZLJVLF4MHIWRMX3WNYF4W30WA","A7VA2Y4H6U31O","3EHVO81VN57KAWAV14A1K6BEMLH1HG","","null","<img src=""img/food1.png"" style=""width:200px;border:14px solid red;"">","null","","","","","","","","","",""
"","image-keyboard-response","10","18580","0.0-10.0","3U088ZLJVLF4MHIWRMX3WNYF4W30WA","A7VA2Y4H6U31O","3EHVO81VN57KAWAV14A1K6BEMLH1HG","","1309.8999999761581","img/food5.png","74","1311.5","1","1","3","1","1,0.5,0,1,0.5,0,0.5,0,1","0,1,0.5,0,1,0.5,1,0.5,0","3","",""
"","html-keyboard-response","11","18888","0.0-11.0","3U088ZLJVLF4MHIWRMX3WNYF4W30WA","A7VA2Y4H6U31O","3EHVO81VN57KAWAV14A1K6BEMLH1HG","","null","<img src=""img/food5.png"" style=""width:200px; border:14px solid green;"">","null","","","","","","","","","",""
"","image-keyboard-response","12","19328","0.0-12.0","3U088ZLJVLF4MHIWRMX3WNYF4W30WA","A7VA2Y4H6U31O","3EHVO81VN57KAWAV14A1K6BEMLH1HG","","439.1999999284744","img/food5.png","74","440.5","1","1","3","1","1,0.5,0,1,0.5,0,0.5,0,1","0,1,0.5,0,1,0.5,1,0.5,0","3","",""
"","html-keyboard-response","13","19631","0.0-13.0","3U088ZLJVLF4MHIWRMX3WNYF4W30WA","A7VA2Y4H6U31O","3EHVO81VN57KAWAV14A1K6BEMLH1HG","","null","<img src=""img/food5.png"" style=""width:200px; border:14px solid green;"">","null","","","","","","","","","",""
"","image-keyboard-response","14","20230","0.0-14.0","3U088ZLJVLF4MHIWRMX3WNYF4W30WA","A7VA2Y4H6U31O","3EHVO81VN57KAWAV14A1K6BEMLH1HG","","597.3999999761581","img/food3.png","75","598.5","2","1","1","1","1,0.5,0,1,0.5,0,0.5,0,1","0,1,0.5,0,1,0.5,1,0.5,0","3","",""
"","html-keyboard-response","15","20533","0.0-15.0","3U088ZLJVLF4MHIWRMX3WNYF4W30WA","A7VA2Y4H6U31O","3EHVO81VN57KAWAV14A1K6BEMLH1HG","","null","<img src=""img/food3.png"" style=""width:200px; border:14px solid green;"">","null","","","","","","","","","",""
"","image-keyboard-response","16","20863","0.0-16.0","3U088ZLJVLF4MHIWRMX3WNYF4W30WA","A7VA2Y4H6U31O","3EHVO81VN57KAWAV14A1K6BEMLH1HG","","330","img/food3.png","75","330.8000000715256","2","1","1","1","1,0.5,0,1,0.5,0,0.5,0,1","0,1,0.5,0,1,0.5,1,0.5,0","3","",""
"","html-keyboard-response","17","21170","0.0-17.0","3U088ZLJVLF4MHIWRMX3WNYF4W30WA","A7VA2Y4H6U31O","3EHVO81VN57KAWAV14A1K6BEMLH1HG","","null","<img src=""img/food3.png"" style=""width:200px; border:14px solid green;"">","null","","","","","","","","","",""
"","image-keyboard-response","18","21357","0.0-18.0","3U088ZLJVLF4MHIWRMX3WNYF4W30WA","A7VA2Y4H6U31O","3EHVO81VN57KAWAV14A1K6BEMLH1HG","","186.10000002384186","img/food1.png","75","186.79999995231628","2","1","2","1","1,0.5,0,1,0.5,0,0.5,0,1","0,1,0.5,0,1,0.5,1,0.5,0","3","",""
"","html-keyboard-response","19","21665","0.0-19.0","3U088ZLJVLF4MHIWRMX3WNYF4W30WA","A7VA2Y4H6U31O","3EHVO81VN57KAWAV14A1K6BEMLH1HG","","null","<img src=""img/food1.png"" style=""width:200px; border:14px solid green;"">","null","","","","","","","","","",""
"","image-keyboard-response","20","22478","0.0-20.0","3U088ZLJVLF4MHIWRMX3WNYF4W30WA","A7VA2Y4H6U31O","3EHVO81VN57KAWAV14A1K6BEMLH1HG","","811","img/food3.png","75","812.6000000238419","2","1","1","1","1,0.5,0,1,0.5,0,0.5,0,1","0,1,0.5,0,1,0.5,1,0.5,0","3","",""
"","html-keyboard-response","21","22786","0.0-21.0","3U088ZLJVLF4MHIWRMX3WNYF4W30WA","A7VA2Y4H6U31O","3EHVO81VN57KAWAV14A1K6BEMLH1HG","","null","<img src=""img/food3.png"" style=""width:200px; border:14px solid green;"">","null","","","","","","","","","",""
"","image-keyboard-response","22","23088","0.0-22.0","3U088ZLJVLF4MHIWRMX3WNYF4W30WA","A7VA2Y4H6U31O","3EHVO81VN57KAWAV14A1K6BEMLH1HG","","300.10000002384186","img/food3.png","75","301.1999999284744","2","1","1","1","1,0.5,0,1,0.5,0,0.5,0,1","0,1,0.5,0,1,0.5,1,0.5,0","3","",""
"","html-keyboard-response","23","23392","0.0-23.0","3U088ZLJVLF4MHIWRMX3WNYF4W30WA","A7VA2Y4H6U31O","3EHVO81VN57KAWAV14A1K6BEMLH1HG","","null","<img src=""img/food3.png"" style=""width:200px; border:14px solid green;"">","null","","","","","","","","","",""
"","image-keyboard-response","24","23514","0.0-24.0","3U088ZLJVLF4MHIWRMX3WNYF4W30WA","A7VA2Y4H6U31O","3EHVO81VN57KAWAV14A1K6BEMLH1HG","","120.40000009536743","img/food1.png","75","121.60000002384186","2","1","2","1","1,0.5,0,1,0.5,0,0.5,0,1","0,1,0.5,0,1,0.5,1,0.5,0","3","",""
"","html-keyboard-response","25","23825","0.0-25.0","3U088ZLJVLF4MHIWRMX3WNYF4W30WA","A7VA2Y4H6U31O","3EHVO81VN57KAWAV14A1K6BEMLH1HG","","null","<img src=""img/food1.png"" style=""width:200px; border:14px solid green;"">","null","","","","","","","","","",""
"","image-keyboard-response","26","23967","0.0-26.0","3U088ZLJVLF4MHIWRMX3WNYF4W30WA","A7VA2Y4H6U31O","3EHVO81VN57KAWAV14A1K6BEMLH1HG","","140.10000002384186","img/food5.png","75","141.69999992847443","2","0","3","1","1,0.5,0,1,0.5,0,0.5,0,1","0,1,0.5,0,1,0.5,1,0.5,0","3","",""
"","html-keyboard-response","27","24275","0.0-27.0","3U088ZLJVLF4MHIWRMX3WNYF4W30WA","A7VA2Y4H6U31O","3EHVO81VN57KAWAV14A1K6BEMLH1HG","","null","<img src=""img/food5.png"" style=""width:200px;border:14px solid red;"">","null","","","","","","","","","",""
"","image-keyboard-response","28","24509","0.0-28.0","3U088ZLJVLF4MHIWRMX3WNYF4W30WA","A7VA2Y4H6U31O","3EHVO81VN57KAWAV14A1K6BEMLH1HG","","231.70000004768372","img/food5.png","75","232.90000009536743","2","0","3","1","1,0.5,0,1,0.5,0,0.5,0,1","0,1,0.5,0,1,0.5,1,0.5,0","3","",""
"","html-keyboard-response","29","24820","0.0-29.0","3U088ZLJVLF4MHIWRMX3WNYF4W30WA","A7VA2Y4H6U31O","3EHVO81VN57KAWAV14A1K6BEMLH1HG","","null","<img src=""img/food5.png"" style=""width:200px;border:14px solid red;"">","null","","","","","","","","","",""
"","image-keyboard-response","30","25343","0.0-30.0","3U088ZLJVLF4MHIWRMX3WNYF4W30WA","A7VA2Y4H6U31O","3EHVO81VN57KAWAV14A1K6BEMLH1HG","","521.3999999761581","img/food1.png","75","522.6000000238419","2","1","2","1","1,0.5,0,1,0.5,0,0.5,0,1","0,1,0.5,0,1,0.5,1,0.5,0","3","",""
"","html-keyboard-response","31","25646","0.0-31.0","3U088ZLJVLF4MHIWRMX3WNYF4W30WA","A7VA2Y4H6U31O","3EHVO81VN57KAWAV14A1K6BEMLH1HG","","null","<img src=""img/food1.png"" style=""width:200px; border:14px solid green;"">","null","","","","","","","","","",""
"","image-keyboard-response","32","25820","0.0-32.0","3U088ZLJVLF4MHIWRMX3WNYF4W30WA","A7VA2Y4H6U31O","3EHVO81VN57KAWAV14A1K6BEMLH1HG","","172","img/food5.png","75","173.60000002384186","2","1","3","1","1,0.5,0,1,0.5,0,0.5,0,1","0,1,0.5,0,1,0.5,1,0.5,0","3","",""
"","html-keyboard-response","33","26132","0.0-33.0","3U088ZLJVLF4MHIWRMX3WNYF4W30WA","A7VA2Y4H6U31O","3EHVO81VN57KAWAV14A1K6BEMLH1HG","","null","<img src=""img/food5.png"" style=""width:200px; border:14px solid green;"">","null","","","","","","","","","",""
"","image-keyboard-response","34","26878","0.0-34.0","3U088ZLJVLF4MHIWRMX3WNYF4W30WA","A7VA2Y4H6U31O","3EHVO81VN57KAWAV14A1K6BEMLH1HG","","744.2000000476837","img/food3.png","75","745.5","2","1","1","1","1,0.5,0,1,0.5,0,0.5,0,1","0,1,0.5,0,1,0.5,1,0.5,0","3","",""
"","html-keyboard-response","35","27191","0.0-35.0","3U088ZLJVLF4MHIWRMX3WNYF4W30WA","A7VA2Y4H6U31O","3EHVO81VN57KAWAV14A1K6BEMLH1HG","","null","<img src=""img/food3.png"" style=""width:200px; border:14px solid green;"">","null","","","","","","","","","",""
"","image-keyboard-response","36","27896","0.0-36.0","3U088ZLJVLF4MHIWRMX3WNYF4W30WA","A7VA2Y4H6U31O","3EHVO81VN57KAWAV14A1K6BEMLH1HG","","704.3999999761581","img/food5.png","74","705.1000000238419","1","1","3","1","1,0.5,0,1,0.5,0,0.5,0,1","0,1,0.5,0,1,0.5,1,0.5,0","3","",""
"","html-keyboard-response","37","28201","0.0-37.0","3U088ZLJVLF4MHIWRMX3WNYF4W30WA","A7VA2Y4H6U31O","3EHVO81VN57KAWAV14A1K6BEMLH1HG","","null","<img src=""img/food5.png"" style=""width:200px; border:14px solid green;"">","null","","","","","","","","","",""
"","image-keyboard-response","38","28734","0.0-38.0","3U088ZLJVLF4MHIWRMX3WNYF4W30WA","A7VA2Y4H6U31O","3EHVO81VN57KAWAV14A1K6BEMLH1HG","","532.6999999284744","img/food1.png","75","533.2000000476837","2","1","2","1","1,0.5,0,1,0.5,0,0.5,0,1","0,1,0.5,0,1,0.5,1,0.5,0","3","",""
"","html-keyboard-response","39","29041","0.0-39.0","3U088ZLJVLF4MHIWRMX3WNYF4W30WA","A7VA2Y4H6U31O","3EHVO81VN57KAWAV14A1K6BEMLH1HG","","null","<img src=""img/food1.png"" style=""width:200px; border:14px solid green;"">","null","","","","","","","","","",""
"","image-keyboard-response","40","29225","0.0-40.0","3U088ZLJVLF4MHIWRMX3WNYF4W30WA","A7VA2Y4H6U31O","3EHVO81VN57KAWAV14A1K6BEMLH1HG","","183","img/food1.png","75","184.10000002384186","2","1","2","1","1,0.5,0,1,0.5,0,0.5,0,1","0,1,0.5,0,1,0.5,1,0.5,0","3","",""
"","html-keyboard-response","41","29540","0.0-41.0","3U088ZLJVLF4MHIWRMX3WNYF4W30WA","A7VA2Y4H6U31O","3EHVO81VN57KAWAV14A1K6BEMLH1HG","","null","<img src=""img/food1.png"" style=""width:200px; border:14px solid green;"">","null","","","","","","","","","",""
"","image-keyboard-response","42","29690","0.0-42.0","3U088ZLJVLF4MHIWRMX3WNYF4W30WA","A7VA2Y4H6U31O","3EHVO81VN57KAWAV14A1K6BEMLH1HG","","148.60000002384186","img/food1.png","75","149.89999997615814","2","1","2","1","1,0.5,0,1,0.5,0,0.5,0,1","0,1,0.5,0,1,0.5,1,0.5,0","3","",""
"","html-keyboard-response","43","29991","0.0-43.0","3U088ZLJVLF4MHIWRMX3WNYF4W30WA","A7VA2Y4H6U31O","3EHVO81VN57KAWAV14A1K6BEMLH1HG","","null","<img src=""img/food1.png"" style=""width:200px; border:14px solid green;"">","null","","","","","","","","","",""
"","image-keyboard-response","44","30567","0.0-44.0","3U088ZLJVLF4MHIWRMX3WNYF4W30WA","A7VA2Y4H6U31O","3EHVO81VN57KAWAV14A1K6BEMLH1HG","","575.0999999046326","img/food5.png","74","575.7000000476837","1","1","3","1","1,0.5,0,1,0.5,0,0.5,0,1","0,1,0.5,0,1,0.5,1,0.5,0","3","",""
"","html-keyboard-response","45","30869","0.0-45.0","3U088ZLJVLF4MHIWRMX3WNYF4W30WA","A7VA2Y4H6U31O","3EHVO81VN57KAWAV14A1K6BEMLH1HG","","null","<img src=""img/food5.png"" style=""width:200px; border:14px solid green;"">","null","","","","","","","","","",""
"","image-keyboard-response","46","31354","0.0-46.0","3U088ZLJVLF4MHIWRMX3WNYF4W30WA","A7VA2Y4H6U31O","3EHVO81VN57KAWAV14A1K6BEMLH1HG","","483.39999997615814","img/food5.png","74","484.60000002384186","1","1","3","1","1,0.5,0,1,0.5,0,0.5,0,1","0,1,0.5,0,1,0.5,1,0.5,0","3","",""
"","html-keyboard-response","47","31656","0.0-47.0","3U088ZLJVLF4MHIWRMX3WNYF4W30WA","A7VA2Y4H6U31O","3EHVO81VN57KAWAV14A1K6BEMLH1HG","","null","<img src=""img/food5.png"" style=""width:200px; border:14px solid green;"">","null","","","","","","","","","",""
"","image-keyboard-response","48","32130","0.0-48.0","3U088ZLJVLF4MHIWRMX3WNYF4W30WA","A7VA2Y4H6U31O","3EHVO81VN57KAWAV14A1K6BEMLH1HG","","472.7999999523163","img/food3.png","75","473.6999999284744","2","1","1","1","1,0.5,0,1,0.5,0,0.5,0,1","0,1,0.5,0,1,0.5,1,0.5,0","3","",""
"","html-keyboard-response","49","32432","0.0-49.0","3U088ZLJVLF4MHIWRMX3WNYF4W30WA","A7VA2Y4H6U31O","3EHVO81VN57KAWAV14A1K6BEMLH1HG","","null","<img src=""img/food3.png"" style=""width:200px; border:14px solid green;"">","null","","","","","","","","","",""
"","image-keyboard-response","50","32691","0.0-50.0","3U088ZLJVLF4MHIWRMX3WNYF4W30WA","A7VA2Y4H6U31O","3EHVO81VN57KAWAV14A1K6BEMLH1HG","","257.40000009536743","img/food3.png","75","258.60000002384186","2","1","1","1","1,0.5,0,1,0.5,0,0.5,0,1","0,1,0.5,0,1,0.5,1,0.5,0","3","",""
"","html-keyboard-response","51","32993","0.0-51.0","3U088ZLJVLF4MHIWRMX3WNYF4W30WA","A7VA2Y4H6U31O","3EHVO81VN57KAWAV14A1K6BEMLH1HG","","null","<img src=""img/food3.png"" style=""width:200px; border:14px solid green;"">","null","","","","","","","","","",""
"","image-keyboard-response","52","33100","0.0-52.0","3U088ZLJVLF4MHIWRMX3WNYF4W30WA","A7VA2Y4H6U31O","3EHVO81VN57KAWAV14A1K6BEMLH1HG","","106.10000002384186","img/food1.png","75","107.30000007152557","2","1","2","1","1,0.5,0,1,0.5,0,0.5,0,1","0,1,0.5,0,1,0.5,1,0.5,0","3","",""
"","html-keyboard-response","53","33403","0.0-53.0","3U088ZLJVLF4MHIWRMX3WNYF4W30WA","A7VA2Y4H6U31O","3EHVO81VN57KAWAV14A1K6BEMLH1HG","","null","<img src=""img/food1.png"" style=""width:200px; border:14px solid green;"">","null","","","","","","","","","",""
"","image-keyboard-response","54","33564","0.0-54.0","3U088ZLJVLF4MHIWRMX3WNYF4W30WA","A7VA2Y4H6U31O","3EHVO81VN57KAWAV14A1K6BEMLH1HG","","159.40000009536743","img/food5.png","75","160.60000002384186","2","1","3","1","1,0.5,0,1,0.5,0,0.5,0,1","0,1,0.5,0,1,0.5,1,0.5,0","3","",""
"","html-keyboard-response","55","33866","0.0-55.0","3U088ZLJVLF4MHIWRMX3WNYF4W30WA","A7VA2Y4H6U31O","3EHVO81VN57KAWAV14A1K6BEMLH1HG","","null","<img src=""img/food5.png"" style=""width:200px; border:14px solid green;"">","null","","","","","","","","","",""
"","image-keyboard-response","56","34549","0.0-56.0","3U088ZLJVLF4MHIWRMX3WNYF4W30WA","A7VA2Y4H6U31O","3EHVO81VN57KAWAV14A1K6BEMLH1HG","","682.8999999761581","img/food3.png","75","683.5","2","1","1","1","1,0.5,0,1,0.5,0,0.5,0,1","0,1,0.5,0,1,0.5,1,0.5,0","3","",""
"","html-keyboard-response","57","34852","0.0-57.0","3U088ZLJVLF4MHIWRMX3WNYF4W30WA","A7VA2Y4H6U31O","3EHVO81VN57KAWAV14A1K6BEMLH1HG","","null","<img src=""img/food3.png"" style=""width:200px; border:14px solid green;"">","null","","","","","","","","","",""
"","image-keyboard-response","58","35514","0.0-58.0","3U088ZLJVLF4MHIWRMX3WNYF4W30WA","A7VA2Y4H6U31O","3EHVO81VN57KAWAV14A1K6BEMLH1HG","","660.8999999761581","img/food5.png","74","661.7999999523163","1","1","3","1","1,0.5,0,1,0.5,0,0.5,0,1","0,1,0.5,0,1,0.5,1,0.5,0","3","",""
"","html-keyboard-response","59","35817","0.0-59.0","3U088ZLJVLF4MHIWRMX3WNYF4W30WA","A7VA2Y4H6U31O","3EHVO81VN57KAWAV14A1K6BEMLH1HG","","null","<img src=""img/food5.png"" style=""width:200px; border:14px solid green;"">","null","","","","","","","","","",""
"","image-keyboard-response","60","36796","0.0-60.0","3U088ZLJVLF4MHIWRMX3WNYF4W30WA","A7VA2Y4H6U31O","3EHVO81VN57KAWAV14A1K6BEMLH1HG","","978","img/food1.png","75","978.7000000476837","2","1","2","1","1,0.5,0,1,0.5,0,0.5,0,1","0,1,0.5,0,1,0.5,1,0.5,0","3","",""
"","html-keyboard-response","61","37099","0.0-61.0","3U088ZLJVLF4MHIWRMX3WNYF4W30WA","A7VA2Y4H6U31O","3EHVO81VN57KAWAV14A1K6BEMLH1HG","","null","<img src=""img/food1.png"" style=""width:200px; border:14px solid green;"">","null","","","","","","","","","",""
"","image-keyboard-response","62","37276","0.0-62.0","3U088ZLJVLF4MHIWRMX3WNYF4W30WA","A7VA2Y4H6U31O","3EHVO81VN57KAWAV14A1K6BEMLH1HG","","175.70000004768372","img/food5.png","75","176.89999997615814","2","0","3","1","1,0.5,0,1,0.5,0,0.5,0,1","0,1,0.5,0,1,0.5,1,0.5,0","3","",""
"","html-keyboard-response","63","37578","0.0-63.0","3U088ZLJVLF4MHIWRMX3WNYF4W30WA","A7VA2Y4H6U31O","3EHVO81VN57KAWAV14A1K6BEMLH1HG","","null","<img src=""img/food5.png"" style=""width:200px;border:14px solid red;"">","null","","","","","","","","","",""
"","image-keyboard-response","64","38182","0.0-64.0","3U088ZLJVLF4MHIWRMX3WNYF4W30WA","A7VA2Y4H6U31O","3EHVO81VN57KAWAV14A1K6BEMLH1HG","","604.1999999284744","img/food1.png","75","604.6000000238419","2","1","2","1","1,0.5,0,1,0.5,0,0.5,0,1","0,1,0.5,0,1,0.5,1,0.5,0","3","",""
"","html-keyboard-response","65","38484","0.0-65.0","3U088ZLJVLF4MHIWRMX3WNYF4W30WA","A7VA2Y4H6U31O","3EHVO81VN57KAWAV14A1K6BEMLH1HG","","null","<img src=""img/food1.png"" style=""width:200px; border:14px solid green;"">","null","","","","","","","","","",""
"","image-keyboard-response","66","39141","0.0-66.0","3U088ZLJVLF4MHIWRMX3WNYF4W30WA","A7VA2Y4H6U31O","3EHVO81VN57KAWAV14A1K6BEMLH1HG","","655.0999999046326","img/food5.png","74","656.6000000238419","1","1","3","1","1,0.5,0,1,0.5,0,0.5,0,1","0,1,0.5,0,1,0.5,1,0.5,0","3","",""
"","html-keyboard-response","67","39443","0.0-67.0","3U088ZLJVLF4MHIWRMX3WNYF4W30WA","A7VA2Y4H6U31O","3EHVO81VN57KAWAV14A1K6BEMLH1HG","","null","<img src=""img/food5.png"" style=""width:200px; border:14px solid green;"">","null","","","","","","","","","",""
"","image-keyboard-response","68","39921","0.0-68.0","3U088ZLJVLF4MHIWRMX3WNYF4W30WA","A7VA2Y4H6U31O","3EHVO81VN57KAWAV14A1K6BEMLH1HG","","475.60000002384186","img/food1.png","75","476.7999999523163","2","1","2","1","1,0.5,0,1,0.5,0,0.5,0,1","0,1,0.5,0,1,0.5,1,0.5,0","3","",""
"","html-keyboard-response","69","40223","0.0-69.0","3U088ZLJVLF4MHIWRMX3WNYF4W30WA","A7VA2Y4H6U31O","3EHVO81VN57KAWAV14A1K6BEMLH1HG","","null","<img src=""img/food1.png"" style=""width:200px; border:14px solid green;"">","null","","","","","","","","","",""
"","image-keyboard-response","70","40470","0.0-70.0","3U088ZLJVLF4MHIWRMX3WNYF4W30WA","A7VA2Y4H6U31O","3EHVO81VN57KAWAV14A1K6BEMLH1HG","","246.40000009536743","img/food3.png","75","247","2","1","1","1","1,0.5,0,1,0.5,0,0.5,0,1","0,1,0.5,0,1,0.5,1,0.5,0","3","",""
"","html-keyboard-response","71","40772","0.0-71.0","3U088ZLJVLF4MHIWRMX3WNYF4W30WA","A7VA2Y4H6U31O","3EHVO81VN57KAWAV14A1K6BEMLH1HG","","null","<img src=""img/food3.png"" style=""width:200px; border:14px solid green;"">","null","","","","","","","","","",""
"","image-keyboard-response","72","41147","0.0-72.0","3U088ZLJVLF4MHIWRMX3WNYF4W30WA","A7VA2Y4H6U31O","3EHVO81VN57KAWAV14A1K6BEMLH1HG","","373.60000002384186","img/food3.png","75","374.7999999523163","2","1","1","1","1,0.5,0,1,0.5,0,0.5,0,1","0,1,0.5,0,1,0.5,1,0.5,0","3","",""
"","html-keyboard-response","73","41450","0.0-73.0","3U088ZLJVLF4MHIWRMX3WNYF4W30WA","A7VA2Y4H6U31O","3EHVO81VN57KAWAV14A1K6BEMLH1HG","","null","<img src=""img/food3.png"" style=""width:200px; border:14px solid green;"">","null","","","","","","","","","",""
"","image-keyboard-response","74","41603","0.0-74.0","3U088ZLJVLF4MHIWRMX3WNYF4W30WA","A7VA2Y4H6U31O","3EHVO81VN57KAWAV14A1K6BEMLH1HG","","152.20000004768372","img/food5.png","75","153.30000007152557","2","1","3","1","1,0.5,0,1,0.5,0,0.5,0,1","0,1,0.5,0,1,0.5,1,0.5,0","3","",""
"","html-keyboard-response","75","41905","0.0-75.0","3U088ZLJVLF4MHIWRMX3WNYF4W30WA","A7VA2Y4H6U31O","3EHVO81VN57KAWAV14A1K6BEMLH1HG","","null","<img src=""img/food5.png"" style=""width:200px; border:14px solid green;"">","null","","","","","","","","","",""
"","image-keyboard-response","76","42287","0.0-76.0","3U088ZLJVLF4MHIWRMX3WNYF4W30WA","A7VA2Y4H6U31O","3EHVO81VN57KAWAV14A1K6BEMLH1HG","","380","img/food5.png","75","381.2000000476837","2","0","3","1","1,0.5,0,1,0.5,0,0.5,0,1","0,1,0.5,0,1,0.5,1,0.5,0","3","",""
"","html-keyboard-response","77","42588","0.0-77.0","3U088ZLJVLF4MHIWRMX3WNYF4W30WA","A7VA2Y4H6U31O","3EHVO81VN57KAWAV14A1K6BEMLH1HG","","null","<img src=""img/food5.png"" style=""width:200px;border:14px solid red;"">","null","","","","","","","","","",""
"","image-keyboard-response","78","43038","0.0-78.0","3U088ZLJVLF4MHIWRMX3WNYF4W30WA","A7VA2Y4H6U31O","3EHVO81VN57KAWAV14A1K6BEMLH1HG","","448.90000009536743","img/food5.png","75","449.39999997615814","2","1","3","1","1,0.5,0,1,0.5,0,0.5,0,1","0,1,0.5,0,1,0.5,1,0.5,0","3","",""
"","html-keyboard-response","79","43340","0.0-79.0","3U088ZLJVLF4MHIWRMX3WNYF4W30WA","A7VA2Y4H6U31O","3EHVO81VN57KAWAV14A1K6BEMLH1HG","","null","<img src=""img/food5.png"" style=""width:200px; border:14px solid green;"">","null","","","","","","","","","",""
"","image-keyboard-response","80","43851","0.0-80.0","3U088ZLJVLF4MHIWRMX3WNYF4W30WA","A7VA2Y4H6U31O","3EHVO81VN57KAWAV14A1K6BEMLH1HG","","510.2000000476837","img/food1.png","75","511.3000000715256","2","1","2","1","1,0.5,0,1,0.5,0,0.5,0,1","0,1,0.5,0,1,0.5,1,0.5,0","3","",""
"","html-keyboard-response","81","44153","0.0-81.0","3U088ZLJVLF4MHIWRMX3WNYF4W30WA","A7VA2Y4H6U31O","3EHVO81VN57KAWAV14A1K6BEMLH1HG","","null","<img src=""img/food1.png"" style=""width:200px; border:14px solid green;"">","null","","","","","","","","","",""
"","image-keyboard-response","82","44382","0.0-82.0","3U088ZLJVLF4MHIWRMX3WNYF4W30WA","A7VA2Y4H6U31O","3EHVO81VN57KAWAV14A1K6BEMLH1HG","","228.60000002384186","img/food5.png","75","229.29999995231628","2","1","3","1","1,0.5,0,1,0.5,0,0.5,0,1","0,1,0.5,0,1,0.5,1,0.5,0","3","",""
"","html-keyboard-response","83","44683","0.0-83.0","3U088ZLJVLF4MHIWRMX3WNYF4W30WA","A7VA2Y4H6U31O","3EHVO81VN57KAWAV14A1K6BEMLH1HG","","null","<img src=""img/food5.png"" style=""width:200px; border:14px solid green;"">","null","","","","","","","","","",""
"","image-keyboard-response","84","45256","0.0-84.0","3U088ZLJVLF4MHIWRMX3WNYF4W30WA","A7VA2Y4H6U31O","3EHVO81VN57KAWAV14A1K6BEMLH1HG","","571.5","img/food3.png","75","572.3999999761581","2","1","1","1","1,0.5,0,1,0.5,0,0.5,0,1","0,1,0.5,0,1,0.5,1,0.5,0","3","",""
"","html-keyboard-response","85","45557","0.0-85.0","3U088ZLJVLF4MHIWRMX3WNYF4W30WA","A7VA2Y4H6U31O","3EHVO81VN57KAWAV14A1K6BEMLH1HG","","null","<img src=""img/food3.png"" style=""width:200px; border:14px solid green;"">","null","","","","","","","","","",""
"","image-keyboard-response","86","45774","0.0-86.0","3U088ZLJVLF4MHIWRMX3WNYF4W30WA","A7VA2Y4H6U31O","3EHVO81VN57KAWAV14A1K6BEMLH1HG","","215.60000002384186","img/food3.png","75","216.29999995231628","2","1","1","1","1,0.5,0,1,0.5,0,0.5,0,1","0,1,0.5,0,1,0.5,1,0.5,0","3","",""
"","html-keyboard-response","87","46076","0.0-87.0","3U088ZLJVLF4MHIWRMX3WNYF4W30WA","A7VA2Y4H6U31O","3EHVO81VN57KAWAV14A1K6BEMLH1HG","","null","<img src=""img/food3.png"" style=""width:200px; border:14px solid green;"">","null","","","","","","","","","",""
"","image-keyboard-response","88","46210","0.0-88.0","3U088ZLJVLF4MHIWRMX3WNYF4W30WA","A7VA2Y4H6U31O","3EHVO81VN57KAWAV14A1K6BEMLH1HG","","132.59999990463257","img/food5.png","75","133.89999997615814","2","1","3","1","1,0.5,0,1,0.5,0,0.5,0,1","0,1,0.5,0,1,0.5,1,0.5,0","3","",""
"","html-keyboard-response","89","46511","0.0-89.0","3U088ZLJVLF4MHIWRMX3WNYF4W30WA","A7VA2Y4H6U31O","3EHVO81VN57KAWAV14A1K6BEMLH1HG","","null","<img src=""img/food5.png"" style=""width:200px; border:14px solid green;"">","null","","","","","","","","","",""
"","image-keyboard-response","90","46588","0.0-90.0","3U088ZLJVLF4MHIWRMX3WNYF4W30WA","A7VA2Y4H6U31O","3EHVO81VN57KAWAV14A1K6BEMLH1HG","","74.89999997615814","img/food1.png","75","76.10000002384186","2","1","2","1","1,0.5,0,1,0.5,0,0.5,0,1","0,1,0.5,0,1,0.5,1,0.5,0","3","",""
"","html-keyboard-response","91","46890","0.0-91.0","3U088ZLJVLF4MHIWRMX3WNYF4W30WA","A7VA2Y4H6U31O","3EHVO81VN57KAWAV14A1K6BEMLH1HG","","null","<img src=""img/food1.png"" style=""width:200px; border:14px solid green;"">","null","","","","","","","","","",""
"","image-keyboard-response","92","46959","0.0-92.0","3U088ZLJVLF4MHIWRMX3WNYF4W30WA","A7VA2Y4H6U31O","3EHVO81VN57KAWAV14A1K6BEMLH1HG","","66.79999995231628","img/food1.png","75","68.30000007152557","2","1","2","1","1,0.5,0,1,0.5,0,0.5,0,1","0,1,0.5,0,1,0.5,1,0.5,0","3","",""
"","html-keyboard-response","93","47261","0.0-93.0","3U088ZLJVLF4MHIWRMX3WNYF4W30WA","A7VA2Y4H6U31O","3EHVO81VN57KAWAV14A1K6BEMLH1HG","","null","<img src=""img/food1.png"" style=""width:200px; border:14px solid green;"">","null","","","","","","","","","",""
"","image-keyboard-response","94","47530","0.0-94.0","3U088ZLJVLF4MHIWRMX3WNYF4W30WA","A7VA2Y4H6U31O","3EHVO81VN57KAWAV14A1K6BEMLH1HG","","268","img/food3.png","75","269.1999999284744","2","1","1","1","1,0.5,0,1,0.5,0,0.5,0,1","0,1,0.5,0,1,0.5,1,0.5,0","3","",""
"","html-keyboard-response","95","47832","0.0-95.0","3U088ZLJVLF4MHIWRMX3WNYF4W30WA","A7VA2Y4H6U31O","3EHVO81VN57KAWAV14A1K6BEMLH1HG","","null","<img src=""img/food3.png"" style=""width:200px; border:14px solid green;"">","null","","","","","","","","","",""
"","image-keyboard-response","96","48064","0.0-96.0","3U088ZLJVLF4MHIWRMX3WNYF4W30WA","A7VA2Y4H6U31O","3EHVO81VN57KAWAV14A1K6BEMLH1HG","","229.89999997615814","img/food3.png","75","231.70000004768372","2","1","1","1","1,0.5,0,1,0.5,0,0.5,0,1","0,1,0.5,0,1,0.5,1,0.5,0","3","",""
"","html-keyboard-response","97","48367","0.0-97.0","3U088ZLJVLF4MHIWRMX3WNYF4W30WA","A7VA2Y4H6U31O","3EHVO81VN57KAWAV14A1K6BEMLH1HG","","null","<img src=""img/food3.png"" style=""width:200px; border:14px solid green;"">","null","","","","","","","","","",""
"","image-keyboard-response","98","48441","0.0-98.0","3U088ZLJVLF4MHIWRMX3WNYF4W30WA","A7VA2Y4H6U31O","3EHVO81VN57KAWAV14A1K6BEMLH1HG","","73.39999997615814","img/food3.png","75","74.5","2","1","1","1","1,0.5,0,1,0.5,0,0.5,0,1","0,1,0.5,0,1,0.5,1,0.5,0","3","",""
"","html-keyboard-response","99","48743","0.0-99.0","3U088ZLJVLF4MHIWRMX3WNYF4W30WA","A7VA2Y4H6U31O","3EHVO81VN57KAWAV14A1K6BEMLH1HG","","null","<img src=""img/food3.png"" style=""width:200px; border:14px solid green;"">","null","","","","","","","","","",""
"","image-keyboard-response","100","48776","0.0-100.0","3U088ZLJVLF4MHIWRMX3WNYF4W30WA","A7VA2Y4H6U31O","3EHVO81VN57KAWAV14A1K6BEMLH1HG","","31.199999928474426","img/food3.png","75","32.5","2","1","1","1","1,0.5,0,1,0.5,0,0.5,0,1","0,1,0.5,0,1,0.5,1,0.5,0","3","",""
"","html-keyboard-response","101","49077","0.0-101.0","3U088ZLJVLF4MHIWRMX3WNYF4W30WA","A7VA2Y4H6U31O","3EHVO81VN57KAWAV14A1K6BEMLH1HG","","null","<img src=""img/food3.png"" style=""width:200px; border:14px solid green;"">","null","","","","","","","","","",""
"","image-keyboard-response","102","49088","0.0-102.0","3U088ZLJVLF4MHIWRMX3WNYF4W30WA","A7VA2Y4H6U31O","3EHVO81VN57KAWAV14A1K6BEMLH1HG","","9.300000071525574","img/food1.png","75","10.100000023841858","2","1","2","1","1,0.5,0,1,0.5,0,0.5,0,1","0,1,0.5,0,1,0.5,1,0.5,0","3","",""
"","html-keyboard-response","103","49389","0.0-103.0","3U088ZLJVLF4MHIWRMX3WNYF4W30WA","A7VA2Y4H6U31O","3EHVO81VN57KAWAV14A1K6BEMLH1HG","","null","<img src=""img/food1.png"" style=""width:200px; border:14px solid green;"">","null","","","","","","","","","",""
"","image-keyboard-response","104","49395","0.0-104.0","3U088ZLJVLF4MHIWRMX3WNYF4W30WA","A7VA2Y4H6U31O","3EHVO81VN57KAWAV14A1K6BEMLH1HG","","3.899999976158142","img/food1.png","75","5.399999976158142","2","1","2","1","1,0.5,0,1,0.5,0,0.5,0,1","0,1,0.5,0,1,0.5,1,0.5,0","3","",""
"","html-keyboard-response","105","49698","0.0-105.0","3U088ZLJVLF4MHIWRMX3WNYF4W30WA","A7VA2Y4H6U31O","3EHVO81VN57KAWAV14A1K6BEMLH1HG","","null","<img src=""img/food1.png"" style=""width:200px; border:14px solid green;"">","null","","","","","","","","","",""
"","image-keyboard-response","106","49721","0.0-106.0","3U088ZLJVLF4MHIWRMX3WNYF4W30WA","A7VA2Y4H6U31O","3EHVO81VN57KAWAV14A1K6BEMLH1HG","","22","img/food5.png","75","23","2","1","3","1","1,0.5,0,1,0.5,0,0.5,0,1","0,1,0.5,0,1,0.5,1,0.5,0","3","",""
"","html-keyboard-response","107","50023","0.0-107.0","3U088ZLJVLF4MHIWRMX3WNYF4W30WA","A7VA2Y4H6U31O","3EHVO81VN57KAWAV14A1K6BEMLH1HG","","null","<img src=""img/food5.png"" style=""width:200px; border:14px solid green;"">","null","","","","","","","","","",""
"","image-keyboard-response","108","50156","0.0-108.0","3U088ZLJVLF4MHIWRMX3WNYF4W30WA","A7VA2Y4H6U31O","3EHVO81VN57KAWAV14A1K6BEMLH1HG","","133.09999990463257","img/food3.png","75","133.60000002384186","2","1","1","1","1,0.5,0,1,0.5,0,0.5,0,1","0,1,0.5,0,1,0.5,1,0.5,0","3","",""
"","html-keyboard-response","109","50458","0.0-109.0","3U088ZLJVLF4MHIWRMX3WNYF4W30WA","A7VA2Y4H6U31O","3EHVO81VN57KAWAV14A1K6BEMLH1HG","","null","<img src=""img/food3.png"" style=""width:200px; border:14px solid green;"">","null","","","","","","","","","",""
"","image-keyboard-response","110","50482","0.0-110.0","3U088ZLJVLF4MHIWRMX3WNYF4W30WA","A7VA2Y4H6U31O","3EHVO81VN57KAWAV14A1K6BEMLH1HG","","21.800000071525574","img/food1.png","75","23.199999928474426","2","1","2","1","1,0.5,0,1,0.5,0,0.5,0,1","0,1,0.5,0,1,0.5,1,0.5,0","3","",""
"","html-keyboard-response","111","50783","0.0-111.0","3U088ZLJVLF4MHIWRMX3WNYF4W30WA","A7VA2Y4H6U31O","3EHVO81VN57KAWAV14A1K6BEMLH1HG","","null","<img src=""img/food1.png"" style=""width:200px; border:14px solid green;"">","null","","","","","","","","","",""
"","image-keyboard-response","112","51032","0.0-112.0","3U088ZLJVLF4MHIWRMX3WNYF4W30WA","A7VA2Y4H6U31O","3EHVO81VN57KAWAV14A1K6BEMLH1HG","","247.59999990463257","img/food3.png","75","248.20000004768372","2","1","1","1","1,0.5,0,1,0.5,0,0.5,0,1","0,1,0.5,0,1,0.5,1,0.5,0","3","",""
"","html-keyboard-response","113","51333","0.0-113.0","3U088ZLJVLF4MHIWRMX3WNYF4W30WA","A7VA2Y4H6U31O","3EHVO81VN57KAWAV14A1K6BEMLH1HG","","null","<img src=""img/food3.png"" style=""width:200px; border:14px solid green;"">","null","","","","","","","","","",""
"","image-keyboard-response","114","51595","0.0-114.0","3U088ZLJVLF4MHIWRMX3WNYF4W30WA","A7VA2Y4H6U31O","3EHVO81VN57KAWAV14A1K6BEMLH1HG","","260.2000000476837","img/food5.png","75","261.39999997615814","2","1","3","1","1,0.5,0,1,0.5,0,0.5,0,1","0,1,0.5,0,1,0.5,1,0.5,0","3","",""
"","html-keyboard-response","115","51896","0.0-115.0","3U088ZLJVLF4MHIWRMX3WNYF4W30WA","A7VA2Y4H6U31O","3EHVO81VN57KAWAV14A1K6BEMLH1HG","","null","<img src=""img/food5.png"" style=""width:200px; border:14px solid green;"">","null","","","","","","","","","",""
"","image-keyboard-response","116","51946","0.0-116.0","3U088ZLJVLF4MHIWRMX3WNYF4W30WA","A7VA2Y4H6U31O","3EHVO81VN57KAWAV14A1K6BEMLH1HG","","48.200000047683716","img/food1.png","75","49.700000047683716","2","1","2","1","1,0.5,0,1,0.5,0,0.5,0,1","0,1,0.5,0,1,0.5,1,0.5,0","3","",""
"","html-keyboard-response","117","52249","0.0-117.0","3U088ZLJVLF4MHIWRMX3WNYF4W30WA","A7VA2Y4H6U31O","3EHVO81VN57KAWAV14A1K6BEMLH1HG","","null","<img src=""img/food1.png"" style=""width:200px; border:14px solid green;"">","null","","","","","","","","","",""
"","image-keyboard-response","118","52306","0.0-118.0","3U088ZLJVLF4MHIWRMX3WNYF4W30WA","A7VA2Y4H6U31O","3EHVO81VN57KAWAV14A1K6BEMLH1HG","","55.40000009536743","img/food5.png","75","56.799999952316284","2","0","3","1","1,0.5,0,1,0.5,0,0.5,0,1","0,1,0.5,0,1,0.5,1,0.5,0","3","",""
"","html-keyboard-response","119","52607","0.0-119.0","3U088ZLJVLF4MHIWRMX3WNYF4W30WA","A7VA2Y4H6U31O","3EHVO81VN57KAWAV14A1K6BEMLH1HG","","null","<img src=""img/food5.png"" style=""width:200px;border:14px solid red;"">","null","","","","","","","","","",""
"","image-keyboard-response","120","52910","0.0-120.0","3U088ZLJVLF4MHIWRMX3WNYF4W30WA","A7VA2Y4H6U31O","3EHVO81VN57KAWAV14A1K6BEMLH1HG","","301.7000000476837","img/food1.png","75","302.60000002384186","2","1","2","1","1,0.5,0,1,0.5,0,0.5,0,1","0,1,0.5,0,1,0.5,1,0.5,0","3","",""
"","html-keyboard-response","121","53212","0.0-121.0","3U088ZLJVLF4MHIWRMX3WNYF4W30WA","A7VA2Y4H6U31O","3EHVO81VN57KAWAV14A1K6BEMLH1HG","","null","<img src=""img/food1.png"" style=""width:200px; border:14px solid green;"">","null","","","","","","","","","",""
"","image-keyboard-response","122","53212","0.0-122.0","3U088ZLJVLF4MHIWRMX3WNYF4W30WA","A7VA2Y4H6U31O","3EHVO81VN57KAWAV14A1K6BEMLH1HG","","0.10000002384185791","img/food5.png","75","0.5","2","1","3","1","1,0.5,0,1,0.5,0,0.5,0,1","0,1,0.5,0,1,0.5,1,0.5,0","3","",""
"","html-keyboard-response","123","53514","0.0-123.0","3U088ZLJVLF4MHIWRMX3WNYF4W30WA","A7VA2Y4H6U31O","3EHVO81VN57KAWAV14A1K6BEMLH1HG","","null","<img src=""img/food5.png"" style=""width:200px; border:14px solid green;"">","null","","","","","","","","","",""
"","image-keyboard-response","124","53525","0.0-124.0","3U088ZLJVLF4MHIWRMX3WNYF4W30WA","A7VA2Y4H6U31O","3EHVO81VN57KAWAV14A1K6BEMLH1HG","","9","img/food1.png","75","10.399999976158142","2","1","2","1","1,0.5,0,1,0.5,0,0.5,0,1","0,1,0.5,0,1,0.5,1,0.5,0","3","",""
"","html-keyboard-response","125","53826","0.0-125.0","3U088ZLJVLF4MHIWRMX3WNYF4W30WA","A7VA2Y4H6U31O","3EHVO81VN57KAWAV14A1K6BEMLH1HG","","null","<img src=""img/food1.png"" style=""width:200px; border:14px solid green;"">","null","","","","","","","","","",""
"","image-keyboard-response","126","53877","0.0-126.0","3U088ZLJVLF4MHIWRMX3WNYF4W30WA","A7VA2Y4H6U31O","3EHVO81VN57KAWAV14A1K6BEMLH1HG","","50.90000009536743","img/food5.png","75","51.5","2","1","3","1","1,0.5,0,1,0.5,0,0.5,0,1","0,1,0.5,0,1,0.5,1,0.5,0","3","",""
"","html-keyboard-response","127","54179","0.0-127.0","3U088ZLJVLF4MHIWRMX3WNYF4W30WA","A7VA2Y4H6U31O","3EHVO81VN57KAWAV14A1K6BEMLH1HG","","null","<img src=""img/food5.png"" style=""width:200px; border:14px solid green;"">","null","","","","","","","","","",""
"","image-keyboard-response","128","54181","0.0-128.0","3U088ZLJVLF4MHIWRMX3WNYF4W30WA","A7VA2Y4H6U31O","3EHVO81VN57KAWAV14A1K6BEMLH1HG","","0.5","img/food3.png","75","1.5999999046325684","2","1","1","1","1,0.5,0,1,0.5,0,0.5,0,1","0,1,0.5,0,1,0.5,1,0.5,0","3","",""
"","html-keyboard-response","129","54483","0.0-129.0","3U088ZLJVLF4MHIWRMX3WNYF4W30WA","A7VA2Y4H6U31O","3EHVO81VN57KAWAV14A1K6BEMLH1HG","","null","<img src=""img/food3.png"" style=""width:200px; border:14px solid green;"">","null","","","","","","","","","",""
"","image-keyboard-response","130","54508","0.0-130.0","3U088ZLJVLF4MHIWRMX3WNYF4W30WA","A7VA2Y4H6U31O","3EHVO81VN57KAWAV14A1K6BEMLH1HG","","23.5","img/food3.png","75","24.600000023841858","2","1","1","1","1,0.5,0,1,0.5,0,0.5,0,1","0,1,0.5,0,1,0.5,1,0.5,0","3","",""
"","html-keyboard-response","131","54809","0.0-131.0","3U088ZLJVLF4MHIWRMX3WNYF4W30WA","A7VA2Y4H6U31O","3EHVO81VN57KAWAV14A1K6BEMLH1HG","","null","<img src=""img/food3.png"" style=""width:200px; border:14px solid green;"">","null","","","","","","","","","",""
"","image-keyboard-response","132","55064","0.0-132.0","3U088ZLJVLF4MHIWRMX3WNYF4W30WA","A7VA2Y4H6U31O","3EHVO81VN57KAWAV14A1K6BEMLH1HG","","253.59999990463257","img/food1.png","75","254.80000007152557","2","1","2","1","1,0.5,0,1,0.5,0,0.5,0,1","0,1,0.5,0,1,0.5,1,0.5,0","3","",""
"","html-keyboard-response","133","55367","0.0-133.0","3U088ZLJVLF4MHIWRMX3WNYF4W30WA","A7VA2Y4H6U31O","3EHVO81VN57KAWAV14A1K6BEMLH1HG","","null","<img src=""img/food1.png"" style=""width:200px; border:14px solid green;"">","null","","","","","","","","","",""
"","image-keyboard-response","134","55580","0.0-134.0","3U088ZLJVLF4MHIWRMX3WNYF4W30WA","A7VA2Y4H6U31O","3EHVO81VN57KAWAV14A1K6BEMLH1HG","","211.89999997615814","img/food1.png","75","213.10000002384186","2","1","2","1","1,0.5,0,1,0.5,0,0.5,0,1","0,1,0.5,0,1,0.5,1,0.5,0","3","",""
"","html-keyboard-response","135","55882","0.0-135.0","3U088ZLJVLF4MHIWRMX3WNYF4W30WA","A7VA2Y4H6U31O","3EHVO81VN57KAWAV14A1K6BEMLH1HG","","null","<img src=""img/food1.png"" style=""width:200px; border:14px solid green;"">","null","","","","","","","","","",""
"","image-keyboard-response","136","56145","0.0-136.0","3U088ZLJVLF4MHIWRMX3WNYF4W30WA","A7VA2Y4H6U31O","3EHVO81VN57KAWAV14A1K6BEMLH1HG","","262.5","img/food1.png","75","262.90000009536743","2","1","2","1","1,0.5,0,1,0.5,0,0.5,0,1","0,1,0.5,0,1,0.5,1,0.5,0","3","",""
"","html-keyboard-response","137","56446","0.0-137.0","3U088ZLJVLF4MHIWRMX3WNYF4W30WA","A7VA2Y4H6U31O","3EHVO81VN57KAWAV14A1K6BEMLH1HG","","null","<img src=""img/food1.png"" style=""width:200px; border:14px solid green;"">","null","","","","","","","","","",""
"","image-keyboard-response","138","56739","0.0-138.0","3U088ZLJVLF4MHIWRMX3WNYF4W30WA","A7VA2Y4H6U31O","3EHVO81VN57KAWAV14A1K6BEMLH1HG","","292.40000009536743","img/food5.png","75","292.89999997615814","2","1","3","1","1,0.5,0,1,0.5,0,0.5,0,1","0,1,0.5,0,1,0.5,1,0.5,0","3","",""
"","html-keyboard-response","139","57041","0.0-139.0","3U088ZLJVLF4MHIWRMX3WNYF4W30WA","A7VA2Y4H6U31O","3EHVO81VN57KAWAV14A1K6BEMLH1HG","","null","<img src=""img/food5.png"" style=""width:200px; border:14px solid green;"">","null","","","","","","","","","",""
"","image-keyboard-response","140","57088","0.0-140.0","3U088ZLJVLF4MHIWRMX3WNYF4W30WA","A7VA2Y4H6U31O","3EHVO81VN57KAWAV14A1K6BEMLH1HG","","46.10000002384186","img/food3.png","75","47.200000047683716","2","1","1","1","1,0.5,0,1,0.5,0,0.5,0,1","0,1,0.5,0,1,0.5,1,0.5,0","3","",""
"","html-keyboard-response","141","57390","0.0-141.0","3U088ZLJVLF4MHIWRMX3WNYF4W30WA","A7VA2Y4H6U31O","3EHVO81VN57KAWAV14A1K6BEMLH1HG","","null","<img src=""img/food3.png"" style=""width:200px; border:14px solid green;"">","null","","","","","","","","","",""
"","image-keyboard-response","142","57426","0.0-142.0","3U088ZLJVLF4MHIWRMX3WNYF4W30WA","A7VA2Y4H6U31O","3EHVO81VN57KAWAV14A1K6BEMLH1HG","","35.60000002384186","img/food3.png","75","36.09999990463257","2","1","1","1","1,0.5,0,1,0.5,0,0.5,0,1","0,1,0.5,0,1,0.5,1,0.5,0","3","",""
"","html-keyboard-response","143","57728","0.0-143.0","3U088ZLJVLF4MHIWRMX3WNYF4W30WA","A7VA2Y4H6U31O","3EHVO81VN57KAWAV14A1K6BEMLH1HG","","null","<img src=""img/food3.png"" style=""width:200px; border:14px solid green;"">","null","","","","","","","","","",""
"","image-keyboard-response","144","57737","0.0-144.0","3U088ZLJVLF4MHIWRMX3WNYF4W30WA","A7VA2Y4H6U31O","3EHVO81VN57KAWAV14A1K6BEMLH1HG","","7.299999952316284","img/food5.png","75","8.600000023841858","2","0","3","1","1,0.5,0,1,0.5,0,0.5,0,1","0,1,0.5,0,1,0.5,1,0.5,0","3","",""
"","html-keyboard-response","145","58039","0.0-145.0","3U088ZLJVLF4MHIWRMX3WNYF4W30WA","A7VA2Y4H6U31O","3EHVO81VN57KAWAV14A1K6BEMLH1HG","","null","<img src=""img/food5.png"" style=""width:200px;border:14px solid red;"">","null","","","","","","","","","",""
"","image-keyboard-response","146","58399","0.0-146.0","3U088ZLJVLF4MHIWRMX3WNYF4W30WA","A7VA2Y4H6U31O","3EHVO81VN57KAWAV14A1K6BEMLH1HG","","359.1999999284744","img/food1.png","75","360.39999997615814","2","1","2","1","1,0.5,0,1,0.5,0,0.5,0,1","0,1,0.5,0,1,0.5,1,0.5,0","3","",""
"","html-keyboard-response","147","58703","0.0-147.0","3U088ZLJVLF4MHIWRMX3WNYF4W30WA","A7VA2Y4H6U31O","3EHVO81VN57KAWAV14A1K6BEMLH1HG","","null","<img src=""img/food1.png"" style=""width:200px; border:14px solid green;"">","null","","","","","","","","","",""
"","image-keyboard-response","148","58785","0.0-148.0","3U088ZLJVLF4MHIWRMX3WNYF4W30WA","A7VA2Y4H6U31O","3EHVO81VN57KAWAV14A1K6BEMLH1HG","","81.20000004768372","img/food1.png","75","81.79999995231628","2","1","2","1","1,0.5,0,1,0.5,0,0.5,0,1","0,1,0.5,0,1,0.5,1,0.5,0","3","",""
"","html-keyboard-response","149","59087","0.0-149.0","3U088ZLJVLF4MHIWRMX3WNYF4W30WA","A7VA2Y4H6U31O","3EHVO81VN57KAWAV14A1K6BEMLH1HG","","null","<img src=""img/food1.png"" style=""width:200px; border:14px solid green;"">","null","","","","","","","","","",""
"","image-keyboard-response","150","59150","0.0-150.0","3U088ZLJVLF4MHIWRMX3WNYF4W30WA","A7VA2Y4H6U31O","3EHVO81VN57KAWAV14A1K6BEMLH1HG","","61.700000047683716","img/food5.png","75","63.39999997615814","2","0","3","1","1,0.5,0,1,0.5,0,0.5,0,1","0,1,0.5,0,1,0.5,1,0.5,0","3","",""
"","html-keyboard-response","151","59452","0.0-151.0","3U088ZLJVLF4MHIWRMX3WNYF4W30WA","A7VA2Y4H6U31O","3EHVO81VN57KAWAV14A1K6BEMLH1HG","","null","<img src=""img/food5.png"" style=""width:200px;border:14px solid red;"">","null","","","","","","","","","",""
"","image-keyboard-response","152","59503","0.0-152.0","3U088ZLJVLF4MHIWRMX3WNYF4W30WA","A7VA2Y4H6U31O","3EHVO81VN57KAWAV14A1K6BEMLH1HG","","49.700000047683716","img/food1.png","75","50.10000002384186","2","1","2","1","1,0.5,0,1,0.5,0,0.5,0,1","0,1,0.5,0,1,0.5,1,0.5,0","3","",""
"","html-keyboard-response","153","59804","0.0-153.0","3U088ZLJVLF4MHIWRMX3WNYF4W30WA","A7VA2Y4H6U31O","3EHVO81VN57KAWAV14A1K6BEMLH1HG","","null","<img src=""img/food1.png"" style=""width:200px; border:14px solid green;"">","null","","","","","","","","","",""
"","image-keyboard-response","154","59911","0.0-154.0","3U088ZLJVLF4MHIWRMX3WNYF4W30WA","A7VA2Y4H6U31O","3EHVO81VN57KAWAV14A1K6BEMLH1HG","","106","img/food5.png","75","106.70000004768372","2","0","3","1","1,0.5,0,1,0.5,0,0.5,0,1","0,1,0.5,0,1,0.5,1,0.5,0","3","",""
"","html-keyboard-response","155","60213","0.0-155.0","3U088ZLJVLF4MHIWRMX3WNYF4W30WA","A7VA2Y4H6U31O","3EHVO81VN57KAWAV14A1K6BEMLH1HG","","null","<img src=""img/food5.png"" style=""width:200px;border:14px solid red;"">","null","","","","","","","","","",""
"","image-keyboard-response","156","60289","0.0-156.0","3U088ZLJVLF4MHIWRMX3WNYF4W30WA","A7VA2Y4H6U31O","3EHVO81VN57KAWAV14A1K6BEMLH1HG","","74.69999992847443","img/food3.png","75","76","2","1","1","1","1,0.5,0,1,0.5,0,0.5,0,1","0,1,0.5,0,1,0.5,1,0.5,0","3","",""
"","html-keyboard-response","157","60591","0.0-157.0","3U088ZLJVLF4MHIWRMX3WNYF4W30WA","A7VA2Y4H6U31O","3EHVO81VN57KAWAV14A1K6BEMLH1HG","","null","<img src=""img/food3.png"" style=""width:200px; border:14px solid green;"">","null","","","","","","","","","",""
"","image-keyboard-response","158","60593","0.0-158.0","3U088ZLJVLF4MHIWRMX3WNYF4W30WA","A7VA2Y4H6U31O","3EHVO81VN57KAWAV14A1K6BEMLH1HG","","0.8999999761581421","img/food1.png","75","1.399999976158142","2","1","2","1","1,0.5,0,1,0.5,0,0.5,0,1","0,1,0.5,0,1,0.5,1,0.5,0","3","",""
"","html-keyboard-response","159","60895","0.0-159.0","3U088ZLJVLF4MHIWRMX3WNYF4W30WA","A7VA2Y4H6U31O","3EHVO81VN57KAWAV14A1K6BEMLH1HG","","null","<img src=""img/food1.png"" style=""width:200px; border:14px solid green;"">","null","","","","","","","","","",""
"","image-keyboard-response","160","60942","0.0-160.0","3U088ZLJVLF4MHIWRMX3WNYF4W30WA","A7VA2Y4H6U31O","3EHVO81VN57KAWAV14A1K6BEMLH1HG","","45.299999952316284","img/food3.png","75","46.5","2","1","1","1","1,0.5,0,1,0.5,0,0.5,0,1","0,1,0.5,0,1,0.5,1,0.5,0","3","",""
"","html-keyboard-response","161","61243","0.0-161.0","3U088ZLJVLF4MHIWRMX3WNYF4W30WA","A7VA2Y4H6U31O","3EHVO81VN57KAWAV14A1K6BEMLH1HG","","null","<img src=""img/food3.png"" style=""width:200px; border:14px solid green;"">","null","","","","","","","","","",""
"","image-keyboard-response","162","61257","0.0-162.0","3U088ZLJVLF4MHIWRMX3WNYF4W30WA","A7VA2Y4H6U31O","3EHVO81VN57KAWAV14A1K6BEMLH1HG","","13","img/food1.png","75","13.5","2","1","2","1","1,0.5,0,1,0.5,0,0.5,0,1","0,1,0.5,0,1,0.5,1,0.5,0","3","",""
"","html-keyboard-response","163","61558","0.0-163.0","3U088ZLJVLF4MHIWRMX3WNYF4W30WA","A7VA2Y4H6U31O","3EHVO81VN57KAWAV14A1K6BEMLH1HG","","null","<img src=""img/food1.png"" style=""width:200px; border:14px solid green;"">","null","","","","","","","","","",""
"","image-keyboard-response","164","61735","0.0-164.0","3U088ZLJVLF4MHIWRMX3WNYF4W30WA","A7VA2Y4H6U31O","3EHVO81VN57KAWAV14A1K6BEMLH1HG","","176.39999997615814","img/food3.png","75","177.10000002384186","2","1","1","1","1,0.5,0,1,0.5,0,0.5,0,1","0,1,0.5,0,1,0.5,1,0.5,0","3","",""
"","html-keyboard-response","165","62038","0.0-165.0","3U088ZLJVLF4MHIWRMX3WNYF4W30WA","A7VA2Y4H6U31O","3EHVO81VN57KAWAV14A1K6BEMLH1HG","","null","<img src=""img/food3.png"" style=""width:200px; border:14px solid green;"">","null","","","","","","","","","",""
"","image-keyboard-response","166","62213","0.0-166.0","3U088ZLJVLF4MHIWRMX3WNYF4W30WA","A7VA2Y4H6U31O","3EHVO81VN57KAWAV14A1K6BEMLH1HG","","173.5","img/food3.png","75","174.70000004768372","2","1","1","1","1,0.5,0,1,0.5,0,0.5,0,1","0,1,0.5,0,1,0.5,1,0.5,0","3","",""
"","html-keyboard-response","167","62515","0.0-167.0","3U088ZLJVLF4MHIWRMX3WNYF4W30WA","A7VA2Y4H6U31O","3EHVO81VN57KAWAV14A1K6BEMLH1HG","","null","<img src=""img/food3.png"" style=""width:200px; border:14px solid green;"">","null","","","","","","","","","",""
"","image-keyboard-response","168","62630","0.0-168.0","3U088ZLJVLF4MHIWRMX3WNYF4W30WA","A7VA2Y4H6U31O","3EHVO81VN57KAWAV14A1K6BEMLH1HG","","114.60000002384186","img/food3.png","75","115.09999990463257","2","1","1","1","1,0.5,0,1,0.5,0,0.5,0,1","0,1,0.5,0,1,0.5,1,0.5,0","3","",""
"","html-keyboard-response","169","62932","0.0-169.0","3U088ZLJVLF4MHIWRMX3WNYF4W30WA","A7VA2Y4H6U31O","3EHVO81VN57KAWAV14A1K6BEMLH1HG","","null","<img src=""img/food3.png"" style=""width:200px; border:14px solid green;"">","null","","","","","","","","","",""
"","image-keyboard-response","170","62997","0.0-170.0","3U088ZLJVLF4MHIWRMX3WNYF4W30WA","A7VA2Y4H6U31O","3EHVO81VN57KAWAV14A1K6BEMLH1HG","","64","img/food5.png","75","65.20000004768372","2","0","3","1","1,0.5,0,1,0.5,0,0.5,0,1","0,1,0.5,0,1,0.5,1,0.5,0","3","",""
"","html-keyboard-response","171","63299","0.0-171.0","3U088ZLJVLF4MHIWRMX3WNYF4W30WA","A7VA2Y4H6U31O","3EHVO81VN57KAWAV14A1K6BEMLH1HG","","null","<img src=""img/food5.png"" style=""width:200px;border:14px solid red;"">","null","","","","","","","","","",""
"","image-keyboard-response","172","63321","0.0-172.0","3U088ZLJVLF4MHIWRMX3WNYF4W30WA","A7VA2Y4H6U31O","3EHVO81VN57KAWAV14A1K6BEMLH1HG","","20.100000023841858","img/food3.png","75","21.200000047683716","2","1","1","1","1,0.5,0,1,0.5,0,0.5,0,1","0,1,0.5,0,1,0.5,1,0.5,0","3","",""
"","html-keyboard-response","173","63622","0.0-173.0","3U088ZLJVLF4MHIWRMX3WNYF4W30WA","A7VA2Y4H6U31O","3EHVO81VN57KAWAV14A1K6BEMLH1HG","","null","<img src=""img/food3.png"" style=""width:200px; border:14px solid green;"">","null","","","","","","","","","",""
"","image-keyboard-response","174","63775","0.0-174.0","3U088ZLJVLF4MHIWRMX3WNYF4W30WA","A7VA2Y4H6U31O","3EHVO81VN57KAWAV14A1K6BEMLH1HG","","152.39999997615814","img/food1.png","75","153","2","1","2","1","1,0.5,0,1,0.5,0,0.5,0,1","0,1,0.5,0,1,0.5,1,0.5,0","3","",""
"","html-keyboard-response","175","64078","0.0-175.0","3U088ZLJVLF4MHIWRMX3WNYF4W30WA","A7VA2Y4H6U31O","3EHVO81VN57KAWAV14A1K6BEMLH1HG","","null","<img src=""img/food1.png"" style=""width:200px; border:14px solid green;"">","null","","","","","","","","","",""
"","image-keyboard-response","176","64235","0.0-176.0","3U088ZLJVLF4MHIWRMX3WNYF4W30WA","A7VA2Y4H6U31O","3EHVO81VN57KAWAV14A1K6BEMLH1HG","","155.5","img/food3.png","75","157","2","1","1","1","1,0.5,0,1,0.5,0,0.5,0,1","0,1,0.5,0,1,0.5,1,0.5,0","3","",""
"","html-keyboard-response","177","64538","0.0-177.0","3U088ZLJVLF4MHIWRMX3WNYF4W30WA","A7VA2Y4H6U31O","3EHVO81VN57KAWAV14A1K6BEMLH1HG","","null","<img src=""img/food3.png"" style=""width:200px; border:14px solid green;"">","null","","","","","","","","","",""
"","image-keyboard-response","178","67308","0.0-178.0","3U088ZLJVLF4MHIWRMX3WNYF4W30WA","A7VA2Y4H6U31O","3EHVO81VN57KAWAV14A1K6BEMLH1HG","","2769.100000023842","img/food5.png","75","2770.399999976158","2","1","3","1","1,0.5,0,1,0.5,0,0.5,0,1","0,1,0.5,0,1,0.5,1,0.5,0","3","",""
"","html-keyboard-response","179","67610","0.0-179.0","3U088ZLJVLF4MHIWRMX3WNYF4W30WA","A7VA2Y4H6U31O","3EHVO81VN57KAWAV14A1K6BEMLH1HG","","null","<img src=""img/food5.png"" style=""width:200px; border:14px solid green;"">","null","","","","","","","","","",""
"","image-keyboard-response","180","67787","0.0-180.0","3U088ZLJVLF4MHIWRMX3WNYF4W30WA","A7VA2Y4H6U31O","3EHVO81VN57KAWAV14A1K6BEMLH1HG","","176.60000002384186","img/food1.png","75","177.10000002384186","2","1","2","1","1,0.5,0,1,0.5,0,0.5,0,1","0,1,0.5,0,1,0.5,1,0.5,0","3","",""
"","html-keyboard-response","181","68089","0.0-181.0","3U088ZLJVLF4MHIWRMX3WNYF4W30WA","A7VA2Y4H6U31O","3EHVO81VN57KAWAV14A1K6BEMLH1HG","","null","<img src=""img/food1.png"" style=""width:200px; border:14px solid green;"">","null","","","","","","","","","",""
"","html-keyboard-response","182","72377","0.0-182.0","3U088ZLJVLF4MHIWRMX3WNYF4W30WA","A7VA2Y4H6U31O","3EHVO81VN57KAWAV14A1K6BEMLH1HG","","","","","","","","","","","","","",""
"","instructions","183","86766","0.0-183.0","3U088ZLJVLF4MHIWRMX3WNYF4W30WA","A7VA2Y4H6U31O","3EHVO81VN57KAWAV14A1K6BEMLH1HG","[{""page_index"":0,""viewing_time"":12331.299999952316},{""page_index"":1,""viewing_time"":2056.100000023842}]","14387.600000023842","","","","","","","","","","","",""
"","image-keyboard-response","184","87088","0.0-184.0","3U088ZLJVLF4MHIWRMX3WNYF4W30WA","A7VA2Y4H6U31O","3EHVO81VN57KAWAV14A1K6BEMLH1HG","","321.39999997615814","img/food4.png","74","322.5","1","1","2","2","1,0.5,0,1,0.5,0,0.5,0,1","1,0.5,0,1,0.5,0,0.5,0,1","1","false",""
"","html-keyboard-response","185","87390","0.0-185.0","3U088ZLJVLF4MHIWRMX3WNYF4W30WA","A7VA2Y4H6U31O","3EHVO81VN57KAWAV14A1K6BEMLH1HG","","null","<img src=""img/food4.png"" style=""width:200px; border:14px solid green;"">","null","","","","","","","","","",""
"","image-keyboard-response","186","87656","0.0-187.0","3U088ZLJVLF4MHIWRMX3WNYF4W30WA","A7VA2Y4H6U31O","3EHVO81VN57KAWAV14A1K6BEMLH1HG","","262.7999999523163","img/food4.png","74","264.60000002384186","1","1","2","2","1,0.5,0,1,0.5,0,0.5,0,1","1,0.5,0,1,0.5,0,0.5,0,1","1","false",""
"","html-keyboard-response","187","87959","0.0-188.0","3U088ZLJVLF4MHIWRMX3WNYF4W30WA","A7VA2Y4H6U31O","3EHVO81VN57KAWAV14A1K6BEMLH1HG","","null","<img src=""img/food4.png"" style=""width:200px; border:14px solid green;"">","null","","","","","","","","","",""
"","image-keyboard-response","188","88047","0.0-190.0","3U088ZLJVLF4MHIWRMX3WNYF4W30WA","A7VA2Y4H6U31O","3EHVO81VN57KAWAV14A1K6BEMLH1HG","","86.30000007152557","img/food4.png","74","87.5","1","1","2","2","1,0.5,0,1,0.5,0,0.5,0,1","1,0.5,0,1,0.5,0,0.5,0,1","1","false",""
"","html-keyboard-response","189","88348","0.0-191.0","3U088ZLJVLF4MHIWRMX3WNYF4W30WA","A7VA2Y4H6U31O","3EHVO81VN57KAWAV14A1K6BEMLH1HG","","null","<img src=""img/food4.png"" style=""width:200px; border:14px solid green;"">","null","","","","","","","","","",""
"","image-keyboard-response","190","88420","0.0-193.0","3U088ZLJVLF4MHIWRMX3WNYF4W30WA","A7VA2Y4H6U31O","3EHVO81VN57KAWAV14A1K6BEMLH1HG","","69.40000009536743","img/food2.png","74","70.60000002384186","1","0","3","2","1,0.5,0,1,0.5,0,0.5,0,1","1,0.5,0,1,0.5,0,0.5,0,1","1","false",""
"","html-keyboard-response","191","88722","0.0-194.0","3U088ZLJVLF4MHIWRMX3WNYF4W30WA","A7VA2Y4H6U31O","3EHVO81VN57KAWAV14A1K6BEMLH1HG","","null","<img src=""img/food2.png"" style=""width:200px;border:14px solid red;"">","null","","","","","","","","","",""
"","image-keyboard-response","192","89264","0.0-196.0","3U088ZLJVLF4MHIWRMX3WNYF4W30WA","A7VA2Y4H6U31O","3EHVO81VN57KAWAV14A1K6BEMLH1HG","","541.2999999523163","img/food4.png","74","542.4000000953674","1","1","2","2","1,0.5,0,1,0.5,0,0.5,0,1","1,0.5,0,1,0.5,0,0.5,0,1","1","false",""
"","html-keyboard-response","193","89566","0.0-197.0","3U088ZLJVLF4MHIWRMX3WNYF4W30WA","A7VA2Y4H6U31O","3EHVO81VN57KAWAV14A1K6BEMLH1HG","","null","<img src=""img/food4.png"" style=""width:200px; border:14px solid green;"">","null","","","","","","","","","",""
"","image-keyboard-response","194","89661","0.0-199.0","3U088ZLJVLF4MHIWRMX3WNYF4W30WA","A7VA2Y4H6U31O","3EHVO81VN57KAWAV14A1K6BEMLH1HG","","92.89999997615814","img/food4.png","74","94.10000002384186","1","1","2","2","1,0.5,0,1,0.5,0,0.5,0,1","1,0.5,0,1,0.5,0,0.5,0,1","1","false",""
"","html-keyboard-response","195","89963","0.0-200.0","3U088ZLJVLF4MHIWRMX3WNYF4W30WA","A7VA2Y4H6U31O","3EHVO81VN57KAWAV14A1K6BEMLH1HG","","null","<img src=""img/food4.png"" style=""width:200px; border:14px solid green;"">","null","","","","","","","","","",""
"","image-keyboard-response","196","90109","0.0-202.0","3U088ZLJVLF4MHIWRMX3WNYF4W30WA","A7VA2Y4H6U31O","3EHVO81VN57KAWAV14A1K6BEMLH1HG","","144.5","img/food4.png","74","145.89999997615814","1","1","2","2","1,0.5,0,1,0.5,0,0.5,0,1","1,0.5,0,1,0.5,0,0.5,0,1","1","false",""
"","html-keyboard-response","197","90413","0.0-203.0","3U088ZLJVLF4MHIWRMX3WNYF4W30WA","A7VA2Y4H6U31O","3EHVO81VN57KAWAV14A1K6BEMLH1HG","","null","<img src=""img/food4.png"" style=""width:200px; border:14px solid green;"">","null","","","","","","","","","",""
"","image-keyboard-response","198","90442","0.0-205.0","3U088ZLJVLF4MHIWRMX3WNYF4W30WA","A7VA2Y4H6U31O","3EHVO81VN57KAWAV14A1K6BEMLH1HG","","27.799999952316284","img/food2.png","74","29","1","0","3","2","1,0.5,0,1,0.5,0,0.5,0,1","1,0.5,0,1,0.5,0,0.5,0,1","1","false",""
"","html-keyboard-response","199","90744","0.0-206.0","3U088ZLJVLF4MHIWRMX3WNYF4W30WA","A7VA2Y4H6U31O","3EHVO81VN57KAWAV14A1K6BEMLH1HG","","null","<img src=""img/food2.png"" style=""width:200px;border:14px solid red;"">","null","","","","","","","","","",""
"","image-keyboard-response","200","91505","0.0-208.0","3U088ZLJVLF4MHIWRMX3WNYF4W30WA","A7VA2Y4H6U31O","3EHVO81VN57KAWAV14A1K6BEMLH1HG","","758.8000000715256","img/food2.png","75","759.8999999761581","2","0","3","2","1,0.5,0,1,0.5,0,0.5,0,1","1,0.5,0,1,0.5,0,0.5,0,1","1","false",""
"","html-keyboard-response","201","91806","0.0-209.0","3U088ZLJVLF4MHIWRMX3WNYF4W30WA","A7VA2Y4H6U31O","3EHVO81VN57KAWAV14A1K6BEMLH1HG","","null","<img src=""img/food2.png"" style=""width:200px;border:14px solid red;"">","null","","","","","","","","","",""
"","image-keyboard-response","202","92104","0.0-211.0","3U088ZLJVLF4MHIWRMX3WNYF4W30WA","A7VA2Y4H6U31O","3EHVO81VN57KAWAV14A1K6BEMLH1HG","","295.8000000715256","img/food2.png","75","297","2","0","3","2","1,0.5,0,1,0.5,0,0.5,0,1","1,0.5,0,1,0.5,0,0.5,0,1","1","false",""
"","html-keyboard-response","203","92407","0.0-212.0","3U088ZLJVLF4MHIWRMX3WNYF4W30WA","A7VA2Y4H6U31O","3EHVO81VN57KAWAV14A1K6BEMLH1HG","","null","<img src=""img/food2.png"" style=""width:200px;border:14px solid red;"">","null","","","","","","","","","",""
"","image-keyboard-response","204","92984","0.0-214.0","3U088ZLJVLF4MHIWRMX3WNYF4W30WA","A7VA2Y4H6U31O","3EHVO81VN57KAWAV14A1K6BEMLH1HG","","576.5","img/food4.png","74","577.2000000476837","1","1","2","2","1,0.5,0,1,0.5,0,0.5,0,1","1,0.5,0,1,0.5,0,0.5,0,1","1","false",""
"","html-keyboard-response","205","93288","0.0-215.0","3U088ZLJVLF4MHIWRMX3WNYF4W30WA","A7VA2Y4H6U31O","3EHVO81VN57KAWAV14A1K6BEMLH1HG","","null","<img src=""img/food4.png"" style=""width:200px; border:14px solid green;"">","null","","","","","","","","","",""
"","image-keyboard-response","206","93449","0.0-217.0","3U088ZLJVLF4MHIWRMX3WNYF4W30WA","A7VA2Y4H6U31O","3EHVO81VN57KAWAV14A1K6BEMLH1HG","","158.79999995231628","img/food6.png","74","159.80000007152557","1","1","1","2","1,0.5,0,1,0.5,0,0.5,0,1","1,0.5,0,1,0.5,0,0.5,0,1","1","false",""
"","html-keyboard-response","207","93751","0.0-218.0","3U088ZLJVLF4MHIWRMX3WNYF4W30WA","A7VA2Y4H6U31O","3EHVO81VN57KAWAV14A1K6BEMLH1HG","","null","<img src=""img/food6.png"" style=""width:200px; border:14px solid green;"">","null","","","","","","","","","",""
"","image-keyboard-response","208","94287","0.0-220.0","3U088ZLJVLF4MHIWRMX3WNYF4W30WA","A7VA2Y4H6U31O","3EHVO81VN57KAWAV14A1K6BEMLH1HG","","534.7999999523163","img/food6.png","74","535.6000000238419","1","1","1","2","1,0.5,0,1,0.5,0,0.5,0,1","1,0.5,0,1,0.5,0,0.5,0,1","1","false",""
"","html-keyboard-response","209","94588","0.0-221.0","3U088ZLJVLF4MHIWRMX3WNYF4W30WA","A7VA2Y4H6U31O","3EHVO81VN57KAWAV14A1K6BEMLH1HG","","null","<img src=""img/food6.png"" style=""width:200px; border:14px solid green;"">","null","","","","","","","","","",""
"","image-keyboard-response","210","94955","0.0-223.0","3U088ZLJVLF4MHIWRMX3WNYF4W30WA","A7VA2Y4H6U31O","3EHVO81VN57KAWAV14A1K6BEMLH1HG","","365.5","img/food6.png","74","366.39999997615814","1","1","1","2","1,0.5,0,1,0.5,0,0.5,0,1","1,0.5,0,1,0.5,0,0.5,0,1","1","false",""
"","html-keyboard-response","211","95257","0.0-224.0","3U088ZLJVLF4MHIWRMX3WNYF4W30WA","A7VA2Y4H6U31O","3EHVO81VN57KAWAV14A1K6BEMLH1HG","","null","<img src=""img/food6.png"" style=""width:200px; border:14px solid green;"">","null","","","","","","","","","",""
"","image-keyboard-response","212","95785","0.0-226.0","3U088ZLJVLF4MHIWRMX3WNYF4W30WA","A7VA2Y4H6U31O","3EHVO81VN57KAWAV14A1K6BEMLH1HG","","525.5999999046326","img/food4.png","74","526.7999999523163","1","1","2","2","1,0.5,0,1,0.5,0,0.5,0,1","1,0.5,0,1,0.5,0,0.5,0,1","1","false",""
"","html-keyboard-response","213","96087","0.0-227.0","3U088ZLJVLF4MHIWRMX3WNYF4W30WA","A7VA2Y4H6U31O","3EHVO81VN57KAWAV14A1K6BEMLH1HG","","null","<img src=""img/food4.png"" style=""width:200px; border:14px solid green;"">","null","","","","","","","","","",""
"","image-keyboard-response","214","96333","0.0-229.0","3U088ZLJVLF4MHIWRMX3WNYF4W30WA","A7VA2Y4H6U31O","3EHVO81VN57KAWAV14A1K6BEMLH1HG","","243.90000009536743","img/food6.png","74","245.5","1","1","1","2","1,0.5,0,1,0.5,0,0.5,0,1","1,0.5,0,1,0.5,0,0.5,0,1","1","false",""
"","html-keyboard-response","215","96636","0.0-230.0","3U088ZLJVLF4MHIWRMX3WNYF4W30WA","A7VA2Y4H6U31O","3EHVO81VN57KAWAV14A1K6BEMLH1HG","","null","<img src=""img/food6.png"" style=""width:200px; border:14px solid green;"">","null","","","","","","","","","",""
"","image-keyboard-response","216","96890","0.0-232.0","3U088ZLJVLF4MHIWRMX3WNYF4W30WA","A7VA2Y4H6U31O","3EHVO81VN57KAWAV14A1K6BEMLH1HG","","253.5","img/food2.png","74","254.09999990463257","1","0","3","2","1,0.5,0,1,0.5,0,0.5,0,1","1,0.5,0,1,0.5,0,0.5,0,1","1","false",""
"","html-keyboard-response","217","97192","0.0-233.0","3U088ZLJVLF4MHIWRMX3WNYF4W30WA","A7VA2Y4H6U31O","3EHVO81VN57KAWAV14A1K6BEMLH1HG","","null","<img src=""img/food2.png"" style=""width:200px;border:14px solid red;"">","null","","","","","","","","","",""
"","image-keyboard-response","218","97562","0.0-235.0","3U088ZLJVLF4MHIWRMX3WNYF4W30WA","A7VA2Y4H6U31O","3EHVO81VN57KAWAV14A1K6BEMLH1HG","","368.10000002384186","img/food2.png","74","369.60000002384186","1","0","3","2","1,0.5,0,1,0.5,0,0.5,0,1","1,0.5,0,1,0.5,0,0.5,0,1","1","false",""
"","html-keyboard-response","219","97864","0.0-236.0","3U088ZLJVLF4MHIWRMX3WNYF4W30WA","A7VA2Y4H6U31O","3EHVO81VN57KAWAV14A1K6BEMLH1HG","","null","<img src=""img/food2.png"" style=""width:200px;border:14px solid red;"">","null","","","","","","","","","",""
"","image-keyboard-response","220","98324","0.0-238.0","3U088ZLJVLF4MHIWRMX3WNYF4W30WA","A7VA2Y4H6U31O","3EHVO81VN57KAWAV14A1K6BEMLH1HG","","457.60000002384186","img/food2.png","76","459","3","1","3","2","1,0.5,0,1,0.5,0,0.5,0,1","1,0.5,0,1,0.5,0,0.5,0,1","1","false",""
"","html-keyboard-response","221","98627","0.0-239.0","3U088ZLJVLF4MHIWRMX3WNYF4W30WA","A7VA2Y4H6U31O","3EHVO81VN57KAWAV14A1K6BEMLH1HG","","null","<img src=""img/food2.png"" style=""width:200px; border:14px solid green;"">","null","","","","","","","","","",""
"","image-keyboard-response","222","99124","0.0-241.0","3U088ZLJVLF4MHIWRMX3WNYF4W30WA","A7VA2Y4H6U31O","3EHVO81VN57KAWAV14A1K6BEMLH1HG","","494.60000002384186","img/food2.png","76","496.2999999523163","3","1","3","2","1,0.5,0,1,0.5,0,0.5,0,1","1,0.5,0,1,0.5,0,0.5,0,1","1","false",""
"","html-keyboard-response","223","99428","0.0-242.0","3U088ZLJVLF4MHIWRMX3WNYF4W30WA","A7VA2Y4H6U31O","3EHVO81VN57KAWAV14A1K6BEMLH1HG","","null","<img src=""img/food2.png"" style=""width:200px; border:14px solid green;"">","null","","","","","","","","","",""
"","image-keyboard-response","224","99657","0.0-244.0","3U088ZLJVLF4MHIWRMX3WNYF4W30WA","A7VA2Y4H6U31O","3EHVO81VN57KAWAV14A1K6BEMLH1HG","","226.39999997615814","img/food4.png","76","227.79999995231628","3","0","2","2","1,0.5,0,1,0.5,0,0.5,0,1","1,0.5,0,1,0.5,0,0.5,0,1","1","false",""
"","html-keyboard-response","225","99958","0.0-245.0","3U088ZLJVLF4MHIWRMX3WNYF4W30WA","A7VA2Y4H6U31O","3EHVO81VN57KAWAV14A1K6BEMLH1HG","","null","<img src=""img/food4.png"" style=""width:200px;border:14px solid red;"">","null","","","","","","","","","",""
"","image-keyboard-response","226","100437","0.0-247.0","3U088ZLJVLF4MHIWRMX3WNYF4W30WA","A7VA2Y4H6U31O","3EHVO81VN57KAWAV14A1K6BEMLH1HG","","476.39999997615814","img/food4.png","74","477.89999997615814","1","1","2","2","1,0.5,0,1,0.5,0,0.5,0,1","1,0.5,0,1,0.5,0,0.5,0,1","1","false",""
"","html-keyboard-response","227","100740","0.0-248.0","3U088ZLJVLF4MHIWRMX3WNYF4W30WA","A7VA2Y4H6U31O","3EHVO81VN57KAWAV14A1K6BEMLH1HG","","null","<img src=""img/food4.png"" style=""width:200px; border:14px solid green;"">","null","","","","","","","","","",""
"","image-keyboard-response","228","101387","0.0-250.0","3U088ZLJVLF4MHIWRMX3WNYF4W30WA","A7VA2Y4H6U31O","3EHVO81VN57KAWAV14A1K6BEMLH1HG","","646","img/food6.png","74","646.8000000715256","1","1","1","2","1,0.5,0,1,0.5,0,0.5,0,1","1,0.5,0,1,0.5,0,0.5,0,1","1","false",""
"","html-keyboard-response","229","101689","0.0-251.0","3U088ZLJVLF4MHIWRMX3WNYF4W30WA","A7VA2Y4H6U31O","3EHVO81VN57KAWAV14A1K6BEMLH1HG","","null","<img src=""img/food6.png"" style=""width:200px; border:14px solid green;"">","null","","","","","","","","","",""
"","image-keyboard-response","230","101983","0.0-253.0","3U088ZLJVLF4MHIWRMX3WNYF4W30WA","A7VA2Y4H6U31O","3EHVO81VN57KAWAV14A1K6BEMLH1HG","","291.7000000476837","img/food6.png","74","293.2999999523163","1","1","1","2","1,0.5,0,1,0.5,0,0.5,0,1","1,0.5,0,1,0.5,0,0.5,0,1","1","false",""
"","html-keyboard-response","231","102285","0.0-254.0","3U088ZLJVLF4MHIWRMX3WNYF4W30WA","A7VA2Y4H6U31O","3EHVO81VN57KAWAV14A1K6BEMLH1HG","","null","<img src=""img/food6.png"" style=""width:200px; border:14px solid green;"">","null","","","","","","","","","",""
"","image-keyboard-response","232","102797","0.0-256.0","3U088ZLJVLF4MHIWRMX3WNYF4W30WA","A7VA2Y4H6U31O","3EHVO81VN57KAWAV14A1K6BEMLH1HG","","509.2999999523163","img/food4.png","74","510.40000009536743","1","1","2","2","1,0.5,0,1,0.5,0,0.5,0,1","1,0.5,0,1,0.5,0,0.5,0,1","1","false",""
"","html-keyboard-response","233","103098","0.0-257.0","3U088ZLJVLF4MHIWRMX3WNYF4W30WA","A7VA2Y4H6U31O","3EHVO81VN57KAWAV14A1K6BEMLH1HG","","null","<img src=""img/food4.png"" style=""width:200px; border:14px solid green;"">","null","","","","","","","","","",""
"","image-keyboard-response","234","103382","0.0-259.0","3U088ZLJVLF4MHIWRMX3WNYF4W30WA","A7VA2Y4H6U31O","3EHVO81VN57KAWAV14A1K6BEMLH1HG","","282.5","img/food4.png","74","283.10000002384186","1","1","2","2","1,0.5,0,1,0.5,0,0.5,0,1","1,0.5,0,1,0.5,0,0.5,0,1","1","false",""
"","html-keyboard-response","235","103683","0.0-260.0","3U088ZLJVLF4MHIWRMX3WNYF4W30WA","A7VA2Y4H6U31O","3EHVO81VN57KAWAV14A1K6BEMLH1HG","","null","<img src=""img/food4.png"" style=""width:200px; border:14px solid green;"">","null","","","","","","","","","",""
"","image-keyboard-response","236","103965","0.0-262.0","3U088ZLJVLF4MHIWRMX3WNYF4W30WA","A7VA2Y4H6U31O","3EHVO81VN57KAWAV14A1K6BEMLH1HG","","280.90000009536743","img/food4.png","74","281.8000000715256","1","1","2","2","1,0.5,0,1,0.5,0,0.5,0,1","1,0.5,0,1,0.5,0,0.5,0,1","1","false",""
"","html-keyboard-response","237","104267","0.0-263.0","3U088ZLJVLF4MHIWRMX3WNYF4W30WA","A7VA2Y4H6U31O","3EHVO81VN57KAWAV14A1K6BEMLH1HG","","null","<img src=""img/food4.png"" style=""width:200px; border:14px solid green;"">","null","","","","","","","","","",""
"","image-keyboard-response","238","104827","0.0-265.0","3U088ZLJVLF4MHIWRMX3WNYF4W30WA","A7VA2Y4H6U31O","3EHVO81VN57KAWAV14A1K6BEMLH1HG","","558.5","img/food6.png","74","559.6000000238419","1","1","1","2","1,0.5,0,1,0.5,0,0.5,0,1","1,0.5,0,1,0.5,0,0.5,0,1","1","false",""
"","html-keyboard-response","239","105128","0.0-266.0","3U088ZLJVLF4MHIWRMX3WNYF4W30WA","A7VA2Y4H6U31O","3EHVO81VN57KAWAV14A1K6BEMLH1HG","","null","<img src=""img/food6.png"" style=""width:200px; border:14px solid green;"">","null","","","","","","","","","",""
"","image-keyboard-response","240","105608","0.0-268.0","3U088ZLJVLF4MHIWRMX3WNYF4W30WA","A7VA2Y4H6U31O","3EHVO81VN57KAWAV14A1K6BEMLH1HG","","478.8000000715256","img/food2.png","76","479.40000009536743","3","1","3","2","1,0.5,0,1,0.5,0,0.5,0,1","1,0.5,0,1,0.5,0,0.5,0,1","1","false",""
"","html-keyboard-response","241","105910","0.0-269.0","3U088ZLJVLF4MHIWRMX3WNYF4W30WA","A7VA2Y4H6U31O","3EHVO81VN57KAWAV14A1K6BEMLH1HG","","null","<img src=""img/food2.png"" style=""width:200px; border:14px solid green;"">","null","","","","","","","","","",""
"","image-keyboard-response","242","106348","0.0-271.0","3U088ZLJVLF4MHIWRMX3WNYF4W30WA","A7VA2Y4H6U31O","3EHVO81VN57KAWAV14A1K6BEMLH1HG","","435.7000000476837","img/food6.png","74","437.39999997615814","1","1","1","2","1,0.5,0,1,0.5,0,0.5,0,1","1,0.5,0,1,0.5,0,0.5,0,1","1","false",""
"","html-keyboard-response","243","106650","0.0-272.0","3U088ZLJVLF4MHIWRMX3WNYF4W30WA","A7VA2Y4H6U31O","3EHVO81VN57KAWAV14A1K6BEMLH1HG","","null","<img src=""img/food6.png"" style=""width:200px; border:14px solid green;"">","null","","","","","","","","","",""
"","image-keyboard-response","244","107308","0.0-274.0","3U088ZLJVLF4MHIWRMX3WNYF4W30WA","A7VA2Y4H6U31O","3EHVO81VN57KAWAV14A1K6BEMLH1HG","","656.6000000238419","img/food4.png","74","657.3999999761581","1","1","2","2","1,0.5,0,1,0.5,0,0.5,0,1","1,0.5,0,1,0.5,0,0.5,0,1","1","false",""
"","html-keyboard-response","245","107610","0.0-275.0","3U088ZLJVLF4MHIWRMX3WNYF4W30WA","A7VA2Y4H6U31O","3EHVO81VN57KAWAV14A1K6BEMLH1HG","","null","<img src=""img/food4.png"" style=""width:200px; border:14px solid green;"">","null","","","","","","","","","",""
"","image-keyboard-response","246","107891","0.0-277.0","3U088ZLJVLF4MHIWRMX3WNYF4W30WA","A7VA2Y4H6U31O","3EHVO81VN57KAWAV14A1K6BEMLH1HG","","279","img/food2.png","74","280.39999997615814","1","0","3","2","1,0.5,0,1,0.5,0,0.5,0,1","1,0.5,0,1,0.5,0,0.5,0,1","1","false",""
"","html-keyboard-response","247","108194","0.0-278.0","3U088ZLJVLF4MHIWRMX3WNYF4W30WA","A7VA2Y4H6U31O","3EHVO81VN57KAWAV14A1K6BEMLH1HG","","null","<img src=""img/food2.png"" style=""width:200px;border:14px solid red;"">","null","","","","","","","","","",""
"","image-keyboard-response","248","108660","0.0-280.0","3U088ZLJVLF4MHIWRMX3WNYF4W30WA","A7VA2Y4H6U31O","3EHVO81VN57KAWAV14A1K6BEMLH1HG","","465.3000000715256","img/food2.png","76","466.39999997615814","3","1","3","2","1,0.5,0,1,0.5,0,0.5,0,1","1,0.5,0,1,0.5,0,0.5,0,1","1","false",""
"","html-keyboard-response","249","108963","0.0-281.0","3U088ZLJVLF4MHIWRMX3WNYF4W30WA","A7VA2Y4H6U31O","3EHVO81VN57KAWAV14A1K6BEMLH1HG","","null","<img src=""img/food2.png"" style=""width:200px; border:14px solid green;"">","null","","","","","","","","","",""
"","image-keyboard-response","250","109465","0.0-283.0","3U088ZLJVLF4MHIWRMX3WNYF4W30WA","A7VA2Y4H6U31O","3EHVO81VN57KAWAV14A1K6BEMLH1HG","","500.39999997615814","img/food6.png","74","501.39999997615814","1","1","1","2","1,0.5,0,1,0.5,0,0.5,0,1","1,0.5,0,1,0.5,0,0.5,0,1","1","false",""
"","html-keyboard-response","251","109766","0.0-284.0","3U088ZLJVLF4MHIWRMX3WNYF4W30WA","A7VA2Y4H6U31O","3EHVO81VN57KAWAV14A1K6BEMLH1HG","","null","<img src=""img/food6.png"" style=""width:200px; border:14px solid green;"">","null","","","","","","","","","",""
"","image-keyboard-response","252","110082","0.0-286.0","3U088ZLJVLF4MHIWRMX3WNYF4W30WA","A7VA2Y4H6U31O","3EHVO81VN57KAWAV14A1K6BEMLH1HG","","313.39999997615814","img/food6.png","74","314.7000000476837","1","1","1","2","1,0.5,0,1,0.5,0,0.5,0,1","1,0.5,0,1,0.5,0,0.5,0,1","1","false",""
"","html-keyboard-response","253","110383","0.0-287.0","3U088ZLJVLF4MHIWRMX3WNYF4W30WA","A7VA2Y4H6U31O","3EHVO81VN57KAWAV14A1K6BEMLH1HG","","null","<img src=""img/food6.png"" style=""width:200px; border:14px solid green;"">","null","","","","","","","","","",""
"","image-keyboard-response","254","110588","0.0-289.0","3U088ZLJVLF4MHIWRMX3WNYF4W30WA","A7VA2Y4H6U31O","3EHVO81VN57KAWAV14A1K6BEMLH1HG","","203.89999997615814","img/food2.png","74","204.89999997615814","1","0","3","2","1,0.5,0,1,0.5,0,0.5,0,1","1,0.5,0,1,0.5,0,0.5,0,1","1","false",""
"","html-keyboard-response","255","110890","0.0-290.0","3U088ZLJVLF4MHIWRMX3WNYF4W30WA","A7VA2Y4H6U31O","3EHVO81VN57KAWAV14A1K6BEMLH1HG","","null","<img src=""img/food2.png"" style=""width:200px;border:14px solid red;"">","null","","","","","","","","","",""
"","image-keyboard-response","256","111425","0.0-292.0","3U088ZLJVLF4MHIWRMX3WNYF4W30WA","A7VA2Y4H6U31O","3EHVO81VN57KAWAV14A1K6BEMLH1HG","","533.6000000238419","img/food2.png","76","534.6000000238419","3","1","3","2","1,0.5,0,1,0.5,0,0.5,0,1","1,0.5,0,1,0.5,0,0.5,0,1","1","false",""
"","html-keyboard-response","257","111727","0.0-293.0","3U088ZLJVLF4MHIWRMX3WNYF4W30WA","A7VA2Y4H6U31O","3EHVO81VN57KAWAV14A1K6BEMLH1HG","","null","<img src=""img/food2.png"" style=""width:200px; border:14px solid green;"">","null","","","","","","","","","",""
"","image-keyboard-response","258","112292","0.0-295.0","3U088ZLJVLF4MHIWRMX3WNYF4W30WA","A7VA2Y4H6U31O","3EHVO81VN57KAWAV14A1K6BEMLH1HG","","563.4000000953674","img/food6.png","74","564.5","1","1","1","2","1,0.5,0,1,0.5,0,0.5,0,1","1,0.5,0,1,0.5,0,0.5,0,1","1","false",""
"","html-keyboard-response","259","112594","0.0-296.0","3U088ZLJVLF4MHIWRMX3WNYF4W30WA","A7VA2Y4H6U31O","3EHVO81VN57KAWAV14A1K6BEMLH1HG","","null","<img src=""img/food6.png"" style=""width:200px; border:14px solid green;"">","null","","","","","","","","","",""
"","image-keyboard-response","260","113245","0.0-298.0","3U088ZLJVLF4MHIWRMX3WNYF4W30WA","A7VA2Y4H6U31O","3EHVO81VN57KAWAV14A1K6BEMLH1HG","","649.1999999284744","img/food4.png","74","650.3999999761581","1","1","2","2","1,0.5,0,1,0.5,0,0.5,0,1","1,0.5,0,1,0.5,0,0.5,0,1","1","false",""
"","html-keyboard-response","261","113547","0.0-299.0","3U088ZLJVLF4MHIWRMX3WNYF4W30WA","A7VA2Y4H6U31O","3EHVO81VN57KAWAV14A1K6BEMLH1HG","","null","<img src=""img/food4.png"" style=""width:200px; border:14px solid green;"">","null","","","","","","","","","",""
"","image-keyboard-response","262","114154","0.0-301.0","3U088ZLJVLF4MHIWRMX3WNYF4W30WA","A7VA2Y4H6U31O","3EHVO81VN57KAWAV14A1K6BEMLH1HG","","606.5","img/food2.png","76","607.2999999523163","3","1","3","2","1,0.5,0,1,0.5,0,0.5,0,1","1,0.5,0,1,0.5,0,0.5,0,1","1","false",""
"","html-keyboard-response","263","114456","0.0-302.0","3U088ZLJVLF4MHIWRMX3WNYF4W30WA","A7VA2Y4H6U31O","3EHVO81VN57KAWAV14A1K6BEMLH1HG","","null","<img src=""img/food2.png"" style=""width:200px; border:14px solid green;"">","null","","","","","","","","","",""
"","image-keyboard-response","264","115085","0.0-304.0","3U088ZLJVLF4MHIWRMX3WNYF4W30WA","A7VA2Y4H6U31O","3EHVO81VN57KAWAV14A1K6BEMLH1HG","","626.3999999761581","img/food6.png","74","628.1000000238419","1","1","1","2","1,0.5,0,1,0.5,0,0.5,0,1","1,0.5,0,1,0.5,0,0.5,0,1","1","false",""
"","html-keyboard-response","265","115388","0.0-305.0","3U088ZLJVLF4MHIWRMX3WNYF4W30WA","A7VA2Y4H6U31O","3EHVO81VN57KAWAV14A1K6BEMLH1HG","","null","<img src=""img/food6.png"" style=""width:200px; border:14px solid green;"">","null","","","","","","","","","",""
"","image-keyboard-response","266","115983","0.0-307.0","3U088ZLJVLF4MHIWRMX3WNYF4W30WA","A7VA2Y4H6U31O","3EHVO81VN57KAWAV14A1K6BEMLH1HG","","593.2000000476837","img/food4.png","74","594.6000000238419","1","1","2","2","1,0.5,0,1,0.5,0,0.5,0,1","1,0.5,0,1,0.5,0,0.5,0,1","1","false",""
"","html-keyboard-response","267","116286","0.0-308.0","3U088ZLJVLF4MHIWRMX3WNYF4W30WA","A7VA2Y4H6U31O","3EHVO81VN57KAWAV14A1K6BEMLH1HG","","null","<img src=""img/food4.png"" style=""width:200px; border:14px solid green;"">","null","","","","","","","","","",""
"","image-keyboard-response","268","116596","0.0-310.0","3U088ZLJVLF4MHIWRMX3WNYF4W30WA","A7VA2Y4H6U31O","3EHVO81VN57KAWAV14A1K6BEMLH1HG","","308.39999997615814","img/food2.png","74","310","1","0","3","2","1,0.5,0,1,0.5,0,0.5,0,1","1,0.5,0,1,0.5,0,0.5,0,1","1","false",""
"","html-keyboard-response","269","116899","0.0-311.0","3U088ZLJVLF4MHIWRMX3WNYF4W30WA","A7VA2Y4H6U31O","3EHVO81VN57KAWAV14A1K6BEMLH1HG","","null","<img src=""img/food2.png"" style=""width:200px;border:14px solid red;"">","null","","","","","","","","","",""
"","image-keyboard-response","270","117212","0.0-313.0","3U088ZLJVLF4MHIWRMX3WNYF4W30WA","A7VA2Y4H6U31O","3EHVO81VN57KAWAV14A1K6BEMLH1HG","","311.2000000476837","img/food2.png","76","312.2999999523163","3","1","3","2","1,0.5,0,1,0.5,0,0.5,0,1","1,0.5,0,1,0.5,0,0.5,0,1","1","false",""
"","html-keyboard-response","271","117513","0.0-314.0","3U088ZLJVLF4MHIWRMX3WNYF4W30WA","A7VA2Y4H6U31O","3EHVO81VN57KAWAV14A1K6BEMLH1HG","","null","<img src=""img/food2.png"" style=""width:200px; border:14px solid green;"">","null","","","","","","","","","",""
"","image-keyboard-response","272","117979","0.0-316.0","3U088ZLJVLF4MHIWRMX3WNYF4W30WA","A7VA2Y4H6U31O","3EHVO81VN57KAWAV14A1K6BEMLH1HG","","463.60000002384186","img/food6.png","74","464.6999999284744","1","1","1","2","1,0.5,0,1,0.5,0,0.5,0,1","1,0.5,0,1,0.5,0,0.5,0,1","1","false",""
"","html-keyboard-response","273","118280","0.0-317.0","3U088ZLJVLF4MHIWRMX3WNYF4W30WA","A7VA2Y4H6U31O","3EHVO81VN57KAWAV14A1K6BEMLH1HG","","null","<img src=""img/food6.png"" style=""width:200px; border:14px solid green;"">","null","","","","","","","","","",""
"","image-keyboard-response","274","118669","0.0-319.0","3U088ZLJVLF4MHIWRMX3WNYF4W30WA","A7VA2Y4H6U31O","3EHVO81VN57KAWAV14A1K6BEMLH1HG","","386.60000002384186","img/food6.png","74","387.89999997615814","1","1","1","2","1,0.5,0,1,0.5,0,0.5,0,1","1,0.5,0,1,0.5,0,0.5,0,1","1","false",""
"","html-keyboard-response","275","118970","0.0-320.0","3U088ZLJVLF4MHIWRMX3WNYF4W30WA","A7VA2Y4H6U31O","3EHVO81VN57KAWAV14A1K6BEMLH1HG","","null","<img src=""img/food6.png"" style=""width:200px; border:14px solid green;"">","null","","","","","","","","","",""
"","image-keyboard-response","276","119297","0.0-322.0","3U088ZLJVLF4MHIWRMX3WNYF4W30WA","A7VA2Y4H6U31O","3EHVO81VN57KAWAV14A1K6BEMLH1HG","","325.1999999284744","img/food6.png","74","326.5","1","1","1","2","1,0.5,0,1,0.5,0,0.5,0,1","1,0.5,0,1,0.5,0,0.5,0,1","1","false",""
"","html-keyboard-response","277","119600","0.0-323.0","3U088ZLJVLF4MHIWRMX3WNYF4W30WA","A7VA2Y4H6U31O","3EHVO81VN57KAWAV14A1K6BEMLH1HG","","null","<img src=""img/food6.png"" style=""width:200px; border:14px solid green;"">","null","","","","","","","","","",""
"","image-keyboard-response","278","120108","0.0-325.0","3U088ZLJVLF4MHIWRMX3WNYF4W30WA","A7VA2Y4H6U31O","3EHVO81VN57KAWAV14A1K6BEMLH1HG","","506.10000002384186","img/food2.png","76","507.59999990463257","3","1","3","2","1,0.5,0,1,0.5,0,0.5,0,1","1,0.5,0,1,0.5,0,0.5,0,1","1","false",""
"","html-keyboard-response","279","120416","0.0-326.0","3U088ZLJVLF4MHIWRMX3WNYF4W30WA","A7VA2Y4H6U31O","3EHVO81VN57KAWAV14A1K6BEMLH1HG","","null","<img src=""img/food2.png"" style=""width:200px; border:14px solid green;"">","null","","","","","","","","","",""
"","image-keyboard-response","280","120705","0.0-328.0","3U088ZLJVLF4MHIWRMX3WNYF4W30WA","A7VA2Y4H6U31O","3EHVO81VN57KAWAV14A1K6BEMLH1HG","","288","img/food2.png","76","288.89999997615814","3","1","3","2","1,0.5,0,1,0.5,0,0.5,0,1","1,0.5,0,1,0.5,0,0.5,0,1","1","false",""
"","html-keyboard-response","281","121007","0.0-329.0","3U088ZLJVLF4MHIWRMX3WNYF4W30WA","A7VA2Y4H6U31O","3EHVO81VN57KAWAV14A1K6BEMLH1HG","","null","<img src=""img/food2.png"" style=""width:200px; border:14px solid green;"">","null","","","","","","","","","",""
"","image-keyboard-response","282","121468","0.0-331.0","3U088ZLJVLF4MHIWRMX3WNYF4W30WA","A7VA2Y4H6U31O","3EHVO81VN57KAWAV14A1K6BEMLH1HG","","460.60000002384186","img/food4.png","74","461.1999999284744","1","1","2","2","1,0.5,0,1,0.5,0,0.5,0,1","1,0.5,0,1,0.5,0,0.5,0,1","1","false",""
"","html-keyboard-response","283","121770","0.0-332.0","3U088ZLJVLF4MHIWRMX3WNYF4W30WA","A7VA2Y4H6U31O","3EHVO81VN57KAWAV14A1K6BEMLH1HG","","null","<img src=""img/food4.png"" style=""width:200px; border:14px solid green;"">","null","","","","","","","","","",""
"","image-keyboard-response","284","122443","0.0-334.0","3U088ZLJVLF4MHIWRMX3WNYF4W30WA","A7VA2Y4H6U31O","3EHVO81VN57KAWAV14A1K6BEMLH1HG","","671.5","img/food6.png","74","672.7999999523163","1","1","1","2","1,0.5,0,1,0.5,0,0.5,0,1","1,0.5,0,1,0.5,0,0.5,0,1","1","false",""
"","html-keyboard-response","285","122745","0.0-335.0","3U088ZLJVLF4MHIWRMX3WNYF4W30WA","A7VA2Y4H6U31O","3EHVO81VN57KAWAV14A1K6BEMLH1HG","","null","<img src=""img/food6.png"" style=""width:200px; border:14px solid green;"">","null","","","","","","","","","",""
"","image-keyboard-response","286","123290","0.0-337.0","3U088ZLJVLF4MHIWRMX3WNYF4W30WA","A7VA2Y4H6U31O","3EHVO81VN57KAWAV14A1K6BEMLH1HG","","543.1000000238419","img/food2.png","76","544.3000000715256","3","1","3","2","1,0.5,0,1,0.5,0,0.5,0,1","1,0.5,0,1,0.5,0,0.5,0,1","1","false",""
"","html-keyboard-response","287","123599","0.0-338.0","3U088ZLJVLF4MHIWRMX3WNYF4W30WA","A7VA2Y4H6U31O","3EHVO81VN57KAWAV14A1K6BEMLH1HG","","null","<img src=""img/food2.png"" style=""width:200px; border:14px solid green;"">","null","","","","","","","","","",""
"","image-keyboard-response","288","124141","0.0-340.0","3U088ZLJVLF4MHIWRMX3WNYF4W30WA","A7VA2Y4H6U31O","3EHVO81VN57KAWAV14A1K6BEMLH1HG","","540.5999999046326","img/food6.png","74","541.7999999523163","1","1","1","2","1,0.5,0,1,0.5,0,0.5,0,1","1,0.5,0,1,0.5,0,0.5,0,1","1","false",""
"","html-keyboard-response","289","124442","0.0-341.0","3U088ZLJVLF4MHIWRMX3WNYF4W30WA","A7VA2Y4H6U31O","3EHVO81VN57KAWAV14A1K6BEMLH1HG","","null","<img src=""img/food6.png"" style=""width:200px; border:14px solid green;"">","null","","","","","","","","","",""
"","image-keyboard-response","290","124944","0.0-343.0","3U088ZLJVLF4MHIWRMX3WNYF4W30WA","A7VA2Y4H6U31O","3EHVO81VN57KAWAV14A1K6BEMLH1HG","","499.6999999284744","img/food2.png","76","500.89999997615814","3","1","3","2","1,0.5,0,1,0.5,0,0.5,0,1","1,0.5,0,1,0.5,0,0.5,0,1","1","false",""
"","html-keyboard-response","291","125246","0.0-344.0","3U088ZLJVLF4MHIWRMX3WNYF4W30WA","A7VA2Y4H6U31O","3EHVO81VN57KAWAV14A1K6BEMLH1HG","","null","<img src=""img/food2.png"" style=""width:200px; border:14px solid green;"">","null","","","","","","","","","",""
"","image-keyboard-response","292","125683","0.0-346.0","3U088ZLJVLF4MHIWRMX3WNYF4W30WA","A7VA2Y4H6U31O","3EHVO81VN57KAWAV14A1K6BEMLH1HG","","436.89999997615814","img/food4.png","74","437.40000009536743","1","1","2","2","1,0.5,0,1,0.5,0,0.5,0,1","1,0.5,0,1,0.5,0,0.5,0,1","1","false",""
"","html-keyboard-response","293","125985","0.0-347.0","3U088ZLJVLF4MHIWRMX3WNYF4W30WA","A7VA2Y4H6U31O","3EHVO81VN57KAWAV14A1K6BEMLH1HG","","null","<img src=""img/food4.png"" style=""width:200px; border:14px solid green;"">","null","","","","","","","","","",""
"","image-keyboard-response","294","126502","0.0-349.0","3U088ZLJVLF4MHIWRMX3WNYF4W30WA","A7VA2Y4H6U31O","3EHVO81VN57KAWAV14A1K6BEMLH1HG","","515.8999999761581","img/food2.png","76","516.5","3","1","3","2","1,0.5,0,1,0.5,0,0.5,0,1","1,0.5,0,1,0.5,0,0.5,0,1","1","false",""
"","html-keyboard-response","295","126803","0.0-350.0","3U088ZLJVLF4MHIWRMX3WNYF4W30WA","A7VA2Y4H6U31O","3EHVO81VN57KAWAV14A1K6BEMLH1HG","","null","<img src=""img/food2.png"" style=""width:200px; border:14px solid green;"">","null","","","","","","","","","",""
"","image-keyboard-response","296","127282","0.0-352.0","3U088ZLJVLF4MHIWRMX3WNYF4W30WA","A7VA2Y4H6U31O","3EHVO81VN57KAWAV14A1K6BEMLH1HG","","477.60000002384186","img/food6.png","74","478.7000000476837","1","1","1","2","1,0.5,0,1,0.5,0,0.5,0,1","1,0.5,0,1,0.5,0,0.5,0,1","1","false",""
"","html-keyboard-response","297","127585","0.0-353.0","3U088ZLJVLF4MHIWRMX3WNYF4W30WA","A7VA2Y4H6U31O","3EHVO81VN57KAWAV14A1K6BEMLH1HG","","null","<img src=""img/food6.png"" style=""width:200px; border:14px solid green;"">","null","","","","","","","","","",""
"","image-keyboard-response","298","128227","0.0-355.0","3U088ZLJVLF4MHIWRMX3WNYF4W30WA","A7VA2Y4H6U31O","3EHVO81VN57KAWAV14A1K6BEMLH1HG","","640","img/food4.png","74","641.2999999523163","1","1","2","2","1,0.5,0,1,0.5,0,0.5,0,1","1,0.5,0,1,0.5,0,0.5,0,1","1","false",""
"","html-keyboard-response","299","128528","0.0-356.0","3U088ZLJVLF4MHIWRMX3WNYF4W30WA","A7VA2Y4H6U31O","3EHVO81VN57KAWAV14A1K6BEMLH1HG","","null","<img src=""img/food4.png"" style=""width:200px; border:14px solid green;"">","null","","","","","","","","","",""
"","image-keyboard-response","300","128943","0.0-358.0","3U088ZLJVLF4MHIWRMX3WNYF4W30WA","A7VA2Y4H6U31O","3EHVO81VN57KAWAV14A1K6BEMLH1HG","","412.89999997615814","img/food6.png","74","414","1","1","1","2","1,0.5,0,1,0.5,0,0.5,0,1","1,0.5,0,1,0.5,0,0.5,0,1","1","false",""
"","html-keyboard-response","301","129245","0.0-359.0","3U088ZLJVLF4MHIWRMX3WNYF4W30WA","A7VA2Y4H6U31O","3EHVO81VN57KAWAV14A1K6BEMLH1HG","","null","<img src=""img/food6.png"" style=""width:200px; border:14px solid green;"">","null","","","","","","","","","",""
"","image-keyboard-response","302","129603","0.0-361.0","3U088ZLJVLF4MHIWRMX3WNYF4W30WA","A7VA2Y4H6U31O","3EHVO81VN57KAWAV14A1K6BEMLH1HG","","356.7999999523163","img/food6.png","74","357.7999999523163","1","1","1","2","1,0.5,0,1,0.5,0,0.5,0,1","1,0.5,0,1,0.5,0,0.5,0,1","1","false",""
"","html-keyboard-response","303","129905","0.0-362.0","3U088ZLJVLF4MHIWRMX3WNYF4W30WA","A7VA2Y4H6U31O","3EHVO81VN57KAWAV14A1K6BEMLH1HG","","null","<img src=""img/food6.png"" style=""width:200px; border:14px solid green;"">","null","","","","","","","","","",""
"","image-keyboard-response","304","130411","0.0-364.0","3U088ZLJVLF4MHIWRMX3WNYF4W30WA","A7VA2Y4H6U31O","3EHVO81VN57KAWAV14A1K6BEMLH1HG","","504.10000002384186","img/food2.png","76","505.2000000476837","3","1","3","2","1,0.5,0,1,0.5,0,0.5,0,1","1,0.5,0,1,0.5,0,0.5,0,1","1","false",""
"","html-keyboard-response","305","130712","0.0-365.0","3U088ZLJVLF4MHIWRMX3WNYF4W30WA","A7VA2Y4H6U31O","3EHVO81VN57KAWAV14A1K6BEMLH1HG","","null","<img src=""img/food2.png"" style=""width:200px; border:14px solid green;"">","null","","","","","","","","","",""
"","image-keyboard-response","306","130993","0.0-367.0","3U088ZLJVLF4MHIWRMX3WNYF4W30WA","A7VA2Y4H6U31O","3EHVO81VN57KAWAV14A1K6BEMLH1HG","","279.39999997615814","img/food2.png","76","280.6999999284744","3","1","3","2","1,0.5,0,1,0.5,0,0.5,0,1","1,0.5,0,1,0.5,0,0.5,0,1","1","false",""
"","html-keyboard-response","307","131295","0.0-368.0","3U088ZLJVLF4MHIWRMX3WNYF4W30WA","A7VA2Y4H6U31O","3EHVO81VN57KAWAV14A1K6BEMLH1HG","","null","<img src=""img/food2.png"" style=""width:200px; border:14px solid green;"">","null","","","","","","","","","",""
"","image-keyboard-response","308","131653","0.0-370.0","3U088ZLJVLF4MHIWRMX3WNYF4W30WA","A7VA2Y4H6U31O","3EHVO81VN57KAWAV14A1K6BEMLH1HG","","356.2000000476837","img/food2.png","76","357.3000000715256","3","1","3","2","1,0.5,0,1,0.5,0,0.5,0,1","1,0.5,0,1,0.5,0,0.5,0,1","1","false",""
"","html-keyboard-response","309","131954","0.0-371.0","3U088ZLJVLF4MHIWRMX3WNYF4W30WA","A7VA2Y4H6U31O","3EHVO81VN57KAWAV14A1K6BEMLH1HG","","null","<img src=""img/food2.png"" style=""width:200px; border:14px solid green;"">","null","","","","","","","","","",""
"","image-keyboard-response","310","132303","0.0-373.0","3U088ZLJVLF4MHIWRMX3WNYF4W30WA","A7VA2Y4H6U31O","3EHVO81VN57KAWAV14A1K6BEMLH1HG","","347.39999997615814","img/food2.png","76","348.39999997615814","3","1","3","2","1,0.5,0,1,0.5,0,0.5,0,1","1,0.5,0,1,0.5,0,0.5,0,1","1","false",""
"","html-keyboard-response","311","132604","0.0-374.0","3U088ZLJVLF4MHIWRMX3WNYF4W30WA","A7VA2Y4H6U31O","3EHVO81VN57KAWAV14A1K6BEMLH1HG","","null","<img src=""img/food2.png"" style=""width:200px; border:14px solid green;"">","null","","","","","","","","","",""
"","image-keyboard-response","312","133078","0.0-376.0","3U088ZLJVLF4MHIWRMX3WNYF4W30WA","A7VA2Y4H6U31O","3EHVO81VN57KAWAV14A1K6BEMLH1HG","","473.3000000715256","img/food4.png","74","474","1","1","2","2","1,0.5,0,1,0.5,0,0.5,0,1","1,0.5,0,1,0.5,0,0.5,0,1","1","false",""
"","html-keyboard-response","313","133380","0.0-377.0","3U088ZLJVLF4MHIWRMX3WNYF4W30WA","A7VA2Y4H6U31O","3EHVO81VN57KAWAV14A1K6BEMLH1HG","","null","<img src=""img/food4.png"" style=""width:200px; border:14px solid green;"">","null","","","","","","","","","",""
"","image-keyboard-response","314","133856","0.0-379.0","3U088ZLJVLF4MHIWRMX3WNYF4W30WA","A7VA2Y4H6U31O","3EHVO81VN57KAWAV14A1K6BEMLH1HG","","473.7000000476837","img/food4.png","74","474.7999999523163","1","1","2","2","1,0.5,0,1,0.5,0,0.5,0,1","1,0.5,0,1,0.5,0,0.5,0,1","1","false",""
"","html-keyboard-response","315","134158","0.0-380.0","3U088ZLJVLF4MHIWRMX3WNYF4W30WA","A7VA2Y4H6U31O","3EHVO81VN57KAWAV14A1K6BEMLH1HG","","null","<img src=""img/food4.png"" style=""width:200px; border:14px solid green;"">","null","","","","","","","","","",""
"","image-keyboard-response","316","134488","0.0-382.0","3U088ZLJVLF4MHIWRMX3WNYF4W30WA","A7VA2Y4H6U31O","3EHVO81VN57KAWAV14A1K6BEMLH1HG","","328.7000000476837","img/food4.png","74","329.6999999284744","1","1","2","2","1,0.5,0,1,0.5,0,0.5,0,1","1,0.5,0,1,0.5,0,0.5,0,1","1","false",""
"","html-keyboard-response","317","134791","0.0-383.0","3U088ZLJVLF4MHIWRMX3WNYF4W30WA","A7VA2Y4H6U31O","3EHVO81VN57KAWAV14A1K6BEMLH1HG","","null","<img src=""img/food4.png"" style=""width:200px; border:14px solid green;"">","null","","","","","","","","","",""
"","image-keyboard-response","318","135156","0.0-385.0","3U088ZLJVLF4MHIWRMX3WNYF4W30WA","A7VA2Y4H6U31O","3EHVO81VN57KAWAV14A1K6BEMLH1HG","","362.5","img/food4.png","74","364.2000000476837","1","1","2","2","1,0.5,0,1,0.5,0,0.5,0,1","1,0.5,0,1,0.5,0,0.5,0,1","1","false",""
"","html-keyboard-response","319","135458","0.0-386.0","3U088ZLJVLF4MHIWRMX3WNYF4W30WA","A7VA2Y4H6U31O","3EHVO81VN57KAWAV14A1K6BEMLH1HG","","null","<img src=""img/food4.png"" style=""width:200px; border:14px solid green;"">","null","","","","","","","","","",""
"","image-keyboard-response","320","135905","0.0-388.0","3U088ZLJVLF4MHIWRMX3WNYF4W30WA","A7VA2Y4H6U31O","3EHVO81VN57KAWAV14A1K6BEMLH1HG","","445.2999999523163","img/food2.png","76","446.40000009536743","3","1","3","2","1,0.5,0,1,0.5,0,0.5,0,1","1,0.5,0,1,0.5,0,0.5,0,1","1","false",""
"","html-keyboard-response","321","136206","0.0-389.0","3U088ZLJVLF4MHIWRMX3WNYF4W30WA","A7VA2Y4H6U31O","3EHVO81VN57KAWAV14A1K6BEMLH1HG","","null","<img src=""img/food2.png"" style=""width:200px; border:14px solid green;"">","null","","","","","","","","","",""
"","image-keyboard-response","322","136645","0.0-391.0","3U088ZLJVLF4MHIWRMX3WNYF4W30WA","A7VA2Y4H6U31O","3EHVO81VN57KAWAV14A1K6BEMLH1HG","","438.90000009536743","img/food6.png","74","439.39999997615814","1","1","1","2","1,0.5,0,1,0.5,0,0.5,0,1","1,0.5,0,1,0.5,0,0.5,0,1","1","false",""
"","html-keyboard-response","323","136948","0.0-392.0","3U088ZLJVLF4MHIWRMX3WNYF4W30WA","A7VA2Y4H6U31O","3EHVO81VN57KAWAV14A1K6BEMLH1HG","","null","<img src=""img/food6.png"" style=""width:200px; border:14px solid green;"">","null","","","","","","","","","",""
"","image-keyboard-response","324","137555","0.0-394.0","3U088ZLJVLF4MHIWRMX3WNYF4W30WA","A7VA2Y4H6U31O","3EHVO81VN57KAWAV14A1K6BEMLH1HG","","604.6999999284744","img/food4.png","74","606","1","1","2","2","1,0.5,0,1,0.5,0,0.5,0,1","1,0.5,0,1,0.5,0,0.5,0,1","1","false",""
"","html-keyboard-response","325","137857","0.0-395.0","3U088ZLJVLF4MHIWRMX3WNYF4W30WA","A7VA2Y4H6U31O","3EHVO81VN57KAWAV14A1K6BEMLH1HG","","null","<img src=""img/food4.png"" style=""width:200px; border:14px solid green;"">","null","","","","","","","","","",""
"","image-keyboard-response","326","138167","0.0-397.0","3U088ZLJVLF4MHIWRMX3WNYF4W30WA","A7VA2Y4H6U31O","3EHVO81VN57KAWAV14A1K6BEMLH1HG","","309","img/food4.png","74","310","1","1","2","2","1,0.5,0,1,0.5,0,0.5,0,1","1,0.5,0,1,0.5,0,0.5,0,1","1","false",""
"","html-keyboard-response","327","138469","0.0-398.0","3U088ZLJVLF4MHIWRMX3WNYF4W30WA","A7VA2Y4H6U31O","3EHVO81VN57KAWAV14A1K6BEMLH1HG","","null","<img src=""img/food4.png"" style=""width:200px; border:14px solid green;"">","null","","","","","","","","","",""
"","image-keyboard-response","328","138895","0.0-400.0","3U088ZLJVLF4MHIWRMX3WNYF4W30WA","A7VA2Y4H6U31O","3EHVO81VN57KAWAV14A1K6BEMLH1HG","","424.2999999523163","img/food6.png","76","425.5","3","0","1","2","1,0.5,0,1,0.5,0,0.5,0,1","1,0.5,0,1,0.5,0,0.5,0,1","1","false",""
"","html-keyboard-response","329","139198","0.0-401.0","3U088ZLJVLF4MHIWRMX3WNYF4W30WA","A7VA2Y4H6U31O","3EHVO81VN57KAWAV14A1K6BEMLH1HG","","null","<img src=""img/food6.png"" style=""width:200px;border:14px solid red;"">","null","","","","","","","","","",""
"","image-keyboard-response","330","139480","0.0-403.0","3U088ZLJVLF4MHIWRMX3WNYF4W30WA","A7VA2Y4H6U31O","3EHVO81VN57KAWAV14A1K6BEMLH1HG","","280.7000000476837","img/food4.png","74","282","1","1","2","2","1,0.5,0,1,0.5,0,0.5,0,1","1,0.5,0,1,0.5,0,0.5,0,1","1","false",""
"","html-keyboard-response","331","139781","0.0-404.0","3U088ZLJVLF4MHIWRMX3WNYF4W30WA","A7VA2Y4H6U31O","3EHVO81VN57KAWAV14A1K6BEMLH1HG","","null","<img src=""img/food4.png"" style=""width:200px; border:14px solid green;"">","null","","","","","","","","","",""
"","image-keyboard-response","332","140188","0.0-406.0","3U088ZLJVLF4MHIWRMX3WNYF4W30WA","A7VA2Y4H6U31O","3EHVO81VN57KAWAV14A1K6BEMLH1HG","","404.89999997615814","img/food4.png","74","406.2999999523163","1","1","2","2","1,0.5,0,1,0.5,0,0.5,0,1","1,0.5,0,1,0.5,0,0.5,0,1","1","false",""
"","html-keyboard-response","333","140490","0.0-407.0","3U088ZLJVLF4MHIWRMX3WNYF4W30WA","A7VA2Y4H6U31O","3EHVO81VN57KAWAV14A1K6BEMLH1HG","","null","<img src=""img/food4.png"" style=""width:200px; border:14px solid green;"">","null","","","","","","","","","",""
"","image-keyboard-response","334","141005","0.0-409.0","3U088ZLJVLF4MHIWRMX3WNYF4W30WA","A7VA2Y4H6U31O","3EHVO81VN57KAWAV14A1K6BEMLH1HG","","512.8999999761581","img/food6.png","74","514.3999999761581","1","1","1","2","1,0.5,0,1,0.5,0,0.5,0,1","1,0.5,0,1,0.5,0,0.5,0,1","1","false",""
"","html-keyboard-response","335","141307","0.0-410.0","3U088ZLJVLF4MHIWRMX3WNYF4W30WA","A7VA2Y4H6U31O","3EHVO81VN57KAWAV14A1K6BEMLH1HG","","null","<img src=""img/food6.png"" style=""width:200px; border:14px solid green;"">","null","","","","","","","","","",""
"","image-keyboard-response","336","141614","0.0-412.0","3U088ZLJVLF4MHIWRMX3WNYF4W30WA","A7VA2Y4H6U31O","3EHVO81VN57KAWAV14A1K6BEMLH1HG","","305","img/food6.png","74","306.39999997615814","1","1","1","2","1,0.5,0,1,0.5,0,0.5,0,1","1,0.5,0,1,0.5,0,0.5,0,1","1","false",""
"","html-keyboard-response","337","141916","0.0-413.0","3U088ZLJVLF4MHIWRMX3WNYF4W30WA","A7VA2Y4H6U31O","3EHVO81VN57KAWAV14A1K6BEMLH1HG","","null","<img src=""img/food6.png"" style=""width:200px; border:14px solid green;"">","null","","","","","","","","","",""
"","image-keyboard-response","338","142370","0.0-415.0","3U088ZLJVLF4MHIWRMX3WNYF4W30WA","A7VA2Y4H6U31O","3EHVO81VN57KAWAV14A1K6BEMLH1HG","","451.6999999284744","img/food2.png","76","452.89999997615814","3","1","3","2","1,0.5,0,1,0.5,0,0.5,0,1","1,0.5,0,1,0.5,0,0.5,0,1","1","false",""
"","html-keyboard-response","339","142671","0.0-416.0","3U088ZLJVLF4MHIWRMX3WNYF4W30WA","A7VA2Y4H6U31O","3EHVO81VN57KAWAV14A1K6BEMLH1HG","","null","<img src=""img/food2.png"" style=""width:200px; border:14px solid green;"">","null","","","","","","","","","",""
"","image-keyboard-response","340","143136","0.0-418.0","3U088ZLJVLF4MHIWRMX3WNYF4W30WA","A7VA2Y4H6U31O","3EHVO81VN57KAWAV14A1K6BEMLH1HG","","463.90000009536743","img/food4.png","74","465","1","1","2","2","1,0.5,0,1,0.5,0,0.5,0,1","1,0.5,0,1,0.5,0,0.5,0,1","1","false",""
"","html-keyboard-response","341","143447","0.0-419.0","3U088ZLJVLF4MHIWRMX3WNYF4W30WA","A7VA2Y4H6U31O","3EHVO81VN57KAWAV14A1K6BEMLH1HG","","null","<img src=""img/food4.png"" style=""width:200px; border:14px solid green;"">","null","","","","","","","","","",""
"","image-keyboard-response","342","144005","0.0-421.0","3U088ZLJVLF4MHIWRMX3WNYF4W30WA","A7VA2Y4H6U31O","3EHVO81VN57KAWAV14A1K6BEMLH1HG","","556.6000000238419","img/food6.png","74","557.3999999761581","1","1","1","2","1,0.5,0,1,0.5,0,0.5,0,1","1,0.5,0,1,0.5,0,0.5,0,1","1","false",""
"","html-keyboard-response","343","144309","0.0-422.0","3U088ZLJVLF4MHIWRMX3WNYF4W30WA","A7VA2Y4H6U31O","3EHVO81VN57KAWAV14A1K6BEMLH1HG","","null","<img src=""img/food6.png"" style=""width:200px; border:14px solid green;"">","null","","","","","","","","","",""
"","image-keyboard-response","344","144654","0.0-424.0","3U088ZLJVLF4MHIWRMX3WNYF4W30WA","A7VA2Y4H6U31O","3EHVO81VN57KAWAV14A1K6BEMLH1HG","","343","img/food6.png","74","344.2999999523163","1","1","1","2","1,0.5,0,1,0.5,0,0.5,0,1","1,0.5,0,1,0.5,0,0.5,0,1","1","false",""
"","html-keyboard-response","345","144956","0.0-425.0","3U088ZLJVLF4MHIWRMX3WNYF4W30WA","A7VA2Y4H6U31O","3EHVO81VN57KAWAV14A1K6BEMLH1HG","","null","<img src=""img/food6.png"" style=""width:200px; border:14px solid green;"">","null","","","","","","","","","",""
"","image-keyboard-response","346","145407","0.0-427.0","3U088ZLJVLF4MHIWRMX3WNYF4W30WA","A7VA2Y4H6U31O","3EHVO81VN57KAWAV14A1K6BEMLH1HG","","449","img/food2.png","76","450.2999999523163","3","1","3","2","1,0.5,0,1,0.5,0,0.5,0,1","1,0.5,0,1,0.5,0,0.5,0,1","1","false",""
"","html-keyboard-response","347","145709","0.0-428.0","3U088ZLJVLF4MHIWRMX3WNYF4W30WA","A7VA2Y4H6U31O","3EHVO81VN57KAWAV14A1K6BEMLH1HG","","null","<img src=""img/food2.png"" style=""width:200px; border:14px solid green;"">","null","","","","","","","","","",""
"","image-keyboard-response","348","146153","0.0-430.0","3U088ZLJVLF4MHIWRMX3WNYF4W30WA","A7VA2Y4H6U31O","3EHVO81VN57KAWAV14A1K6BEMLH1HG","","442.10000002384186","img/food6.png","74","443.1999999284744","1","1","1","2","1,0.5,0,1,0.5,0,0.5,0,1","1,0.5,0,1,0.5,0,0.5,0,1","1","false",""
"","html-keyboard-response","349","146455","0.0-431.0","3U088ZLJVLF4MHIWRMX3WNYF4W30WA","A7VA2Y4H6U31O","3EHVO81VN57KAWAV14A1K6BEMLH1HG","","null","<img src=""img/food6.png"" style=""width:200px; border:14px solid green;"">","null","","","","","","","","","",""
"","image-keyboard-response","350","146737","0.0-433.0","3U088ZLJVLF4MHIWRMX3WNYF4W30WA","A7VA2Y4H6U31O","3EHVO81VN57KAWAV14A1K6BEMLH1HG","","279.89999997615814","img/food6.png","74","281.2000000476837","1","1","1","2","1,0.5,0,1,0.5,0,0.5,0,1","1,0.5,0,1,0.5,0,0.5,0,1","1","false",""
"","html-keyboard-response","351","147040","0.0-434.0","3U088ZLJVLF4MHIWRMX3WNYF4W30WA","A7VA2Y4H6U31O","3EHVO81VN57KAWAV14A1K6BEMLH1HG","","null","<img src=""img/food6.png"" style=""width:200px; border:14px solid green;"">","null","","","","","","","","","",""
"","image-keyboard-response","352","147631","0.0-436.0","3U088ZLJVLF4MHIWRMX3WNYF4W30WA","A7VA2Y4H6U31O","3EHVO81VN57KAWAV14A1K6BEMLH1HG","","588.8999999761581","img/food4.png","74","590.2000000476837","1","1","2","2","1,0.5,0,1,0.5,0,0.5,0,1","1,0.5,0,1,0.5,0,0.5,0,1","1","false",""
"","html-keyboard-response","353","147932","0.0-437.0","3U088ZLJVLF4MHIWRMX3WNYF4W30WA","A7VA2Y4H6U31O","3EHVO81VN57KAWAV14A1K6BEMLH1HG","","null","<img src=""img/food4.png"" style=""width:200px; border:14px solid green;"">","null","","","","","","","","","",""
"","image-keyboard-response","354","148421","0.0-439.0","3U088ZLJVLF4MHIWRMX3WNYF4W30WA","A7VA2Y4H6U31O","3EHVO81VN57KAWAV14A1K6BEMLH1HG","","488.2000000476837","img/food2.png","76","488.89999997615814","3","1","3","2","1,0.5,0,1,0.5,0,0.5,0,1","1,0.5,0,1,0.5,0,0.5,0,1","1","false",""
"","html-keyboard-response","355","148723","0.0-440.0","3U088ZLJVLF4MHIWRMX3WNYF4W30WA","A7VA2Y4H6U31O","3EHVO81VN57KAWAV14A1K6BEMLH1HG","","null","<img src=""img/food2.png"" style=""width:200px; border:14px solid green;"">","null","","","","","","","","","",""
"","image-keyboard-response","356","149321","0.0-442.0","3U088ZLJVLF4MHIWRMX3WNYF4W30WA","A7VA2Y4H6U31O","3EHVO81VN57KAWAV14A1K6BEMLH1HG","","596.3000000715256","img/food4.png","74","597.6000000238419","1","1","2","2","1,0.5,0,1,0.5,0,0.5,0,1","1,0.5,0,1,0.5,0,0.5,0,1","1","false",""
"","html-keyboard-response","357","149622","0.0-443.0","3U088ZLJVLF4MHIWRMX3WNYF4W30WA","A7VA2Y4H6U31O","3EHVO81VN57KAWAV14A1K6BEMLH1HG","","null","<img src=""img/food4.png"" style=""width:200px; border:14px solid green;"">","null","","","","","","","","","",""
"","image-keyboard-response","358","149856","0.0-445.0","3U088ZLJVLF4MHIWRMX3WNYF4W30WA","A7VA2Y4H6U31O","3EHVO81VN57KAWAV14A1K6BEMLH1HG","","231.69999992847443","img/food6.png","74","232.70000004768372","1","1","1","2","1,0.5,0,1,0.5,0,0.5,0,1","1,0.5,0,1,0.5,0,0.5,0,1","1","false",""
"","html-keyboard-response","359","150157","0.0-446.0","3U088ZLJVLF4MHIWRMX3WNYF4W30WA","A7VA2Y4H6U31O","3EHVO81VN57KAWAV14A1K6BEMLH1HG","","null","<img src=""img/food6.png"" style=""width:200px; border:14px solid green;"">","null","","","","","","","","","",""
"","image-keyboard-response","360","150662","0.0-448.0","3U088ZLJVLF4MHIWRMX3WNYF4W30WA","A7VA2Y4H6U31O","3EHVO81VN57KAWAV14A1K6BEMLH1HG","","504.5","img/food2.png","76","505.39999997615814","3","1","3","2","1,0.5,0,1,0.5,0,0.5,0,1","1,0.5,0,1,0.5,0,0.5,0,1","1","false",""
"","html-keyboard-response","361","150965","0.0-449.0","3U088ZLJVLF4MHIWRMX3WNYF4W30WA","A7VA2Y4H6U31O","3EHVO81VN57KAWAV14A1K6BEMLH1HG","","null","<img src=""img/food2.png"" style=""width:200px; border:14px solid green;"">","null","","","","","","","","","",""
"","image-keyboard-response","362","151404","0.0-451.0","3U088ZLJVLF4MHIWRMX3WNYF4W30WA","A7VA2Y4H6U31O","3EHVO81VN57KAWAV14A1K6BEMLH1HG","","437.3000000715256","img/food6.png","74","438.5","1","1","1","2","1,0.5,0,1,0.5,0,0.5,0,1","1,0.5,0,1,0.5,0,0.5,0,1","1","false",""
"","html-keyboard-response","363","151706","0.0-452.0","3U088ZLJVLF4MHIWRMX3WNYF4W30WA","A7VA2Y4H6U31O","3EHVO81VN57KAWAV14A1K6BEMLH1HG","","null","<img src=""img/food6.png"" style=""width:200px; border:14px solid green;"">","null","","","","","","","","","",""
"","instructions","364","155698","0.0-454.0","3U088ZLJVLF4MHIWRMX3WNYF4W30WA","A7VA2Y4H6U31O","3EHVO81VN57KAWAV14A1K6BEMLH1HG","[{""page_index"":0,""viewing_time"":3990.100000023842}]","3990.3000000715256","","","","","","","","","","","",""
"","survey-text","365","160990","0.0-455.0","3U088ZLJVLF4MHIWRMX3WNYF4W30WA","A7VA2Y4H6U31O","3EHVO81VN57KAWAV14A1K6BEMLH1HG","","5290","","","","","","","","","","","","{""Q0"":""A7VA2Y4H6U31O""}"
