"success","trial_type","trial_index","time_elapsed","internal_node_id","assignmentID","mturkID","hitID","view_history","rt","stimulus","key_press","reactionTime","a","r","warning","s","cond","reward_cond","reward_cond_actual","reward_matrix_idx","responses"
"true","fullscreen","0","2483","0.0-0.0","31LVTDXBL8WCBHQWHL9G78IME7KRLB","A82Q1HS5CPZ5I","3SA4EMRVJVOCGON1OYE6FAUV3JU0PO","","","","","","","","","","","","","",""
"","instructions","1","25246","0.0-1.0","31LVTDXBL8WCBHQWHL9G78IME7KRLB","A82Q1HS5CPZ5I","3SA4EMRVJVOCGON1OYE6FAUV3JU0PO","[{""page_index"":0,""viewing_time"":1683.7999999970198},{""page_index"":1,""viewing_time"":986.8999999985099},{""page_index"":2,""viewing_time"":1350.8999999985099},{""page_index"":3,""viewing_time"":6436},{""page_index"":4,""viewing_time"":4136.10000000149},{""page_index"":5,""viewing_time"":4874},{""page_index"":6,""viewing_time"":3294}]","22761.89999999851","","","","","","","","","","","",""
"","instructions","2","38156","0.0-2.0","31LVTDXBL8WCBHQWHL9G78IME7KRLB","A82Q1HS5CPZ5I","3SA4EMRVJVOCGON1OYE6FAUV3JU0PO","[{""page_index"":0,""viewing_time"":10306.10000000149},{""page_index"":1,""viewing_time"":2603}]","12909.39999999851","","","","","","","","","","","",""
"","image-keyboard-response","3","39122","0.0-3.0","31LVTDXBL8WCBHQWHL9G78IME7KRLB","A82Q1HS5CPZ5I","3SA4EMRVJVOCGON1OYE6FAUV3JU0PO","","965.2000000029802","img/food3.png","74","966.2000000029802","1","1","false","2","2","1,0.7,0,1,0.7,0,0.7,0,1","1,0.7,0,1,0.7,0,0.7,0,1","1",""
"","html-keyboard-response","4","39424","0.0-4.0","31LVTDXBL8WCBHQWHL9G78IME7KRLB","A82Q1HS5CPZ5I","3SA4EMRVJVOCGON1OYE6FAUV3JU0PO","","null","<img src=""img/food3.png"" style=""width:200px; border:14px solid green;"">","null","","","","","","","","","",""
"","image-keyboard-response","5","40187","0.0-6.0","31LVTDXBL8WCBHQWHL9G78IME7KRLB","A82Q1HS5CPZ5I","3SA4EMRVJVOCGON1OYE6FAUV3JU0PO","","762.6000000014901","img/food1.png","75","763.2999999970198","2","0","false","3","2","1,0.7,0,1,0.7,0,0.7,0,1","1,0.7,0,1,0.7,0,0.7,0,1","1",""
"","html-keyboard-response","6","40489","0.0-7.0","31LVTDXBL8WCBHQWHL9G78IME7KRLB","A82Q1HS5CPZ5I","3SA4EMRVJVOCGON1OYE6FAUV3JU0PO","","null","<img src=""img/food1.png"" style=""width:200px;border:14px solid red;"">","null","","","","","","","","","",""
"","image-keyboard-response","7","40992","0.0-9.0","31LVTDXBL8WCBHQWHL9G78IME7KRLB","A82Q1HS5CPZ5I","3SA4EMRVJVOCGON1OYE6FAUV3JU0PO","","501.79999999701977","img/food1.png","74","502.30000000447035","1","1","false","3","2","1,0.7,0,1,0.7,0,0.7,0,1","1,0.7,0,1,0.7,0,0.7,0,1","1",""
"","html-keyboard-response","8","41292","0.0-10.0","31LVTDXBL8WCBHQWHL9G78IME7KRLB","A82Q1HS5CPZ5I","3SA4EMRVJVOCGON1OYE6FAUV3JU0PO","","null","<img src=""img/food1.png"" style=""width:200px; border:14px solid green;"">","null","","","","","","","","","",""
"","image-keyboard-response","9","42019","0.0-12.0","31LVTDXBL8WCBHQWHL9G78IME7KRLB","A82Q1HS5CPZ5I","3SA4EMRVJVOCGON1OYE6FAUV3JU0PO","","726","img/food2.png","74","726.5999999940395","1","1","false","1","2","1,0.7,0,1,0.7,0,0.7,0,1","1,0.7,0,1,0.7,0,0.7,0,1","1",""
"","html-keyboard-response","10","42321","0.0-13.0","31LVTDXBL8WCBHQWHL9G78IME7KRLB","A82Q1HS5CPZ5I","3SA4EMRVJVOCGON1OYE6FAUV3JU0PO","","null","<img src=""img/food2.png"" style=""width:200px; border:14px solid green;"">","null","","","","","","","","","",""
"","image-keyboard-response","11","42845","0.0-15.0","31LVTDXBL8WCBHQWHL9G78IME7KRLB","A82Q1HS5CPZ5I","3SA4EMRVJVOCGON1OYE6FAUV3JU0PO","","523.6000000014901","img/food1.png","74","524.1000000014901","1","1","false","3","2","1,0.7,0,1,0.7,0,0.7,0,1","1,0.7,0,1,0.7,0,0.7,0,1","1",""
"","html-keyboard-response","12","43147","0.0-16.0","31LVTDXBL8WCBHQWHL9G78IME7KRLB","A82Q1HS5CPZ5I","3SA4EMRVJVOCGON1OYE6FAUV3JU0PO","","null","<img src=""img/food1.png"" style=""width:200px; border:14px solid green;"">","null","","","","","","","","","",""
"","image-keyboard-response","13","43611","0.0-18.0","31LVTDXBL8WCBHQWHL9G78IME7KRLB","A82Q1HS5CPZ5I","3SA4EMRVJVOCGON1OYE6FAUV3JU0PO","","463","img/food2.png","74","463.5","1","1","false","1","2","1,0.7,0,1,0.7,0,0.7,0,1","1,0.7,0,1,0.7,0,0.7,0,1","1",""
"","html-keyboard-response","14","43913","0.0-19.0","31LVTDXBL8WCBHQWHL9G78IME7KRLB","A82Q1HS5CPZ5I","3SA4EMRVJVOCGON1OYE6FAUV3JU0PO","","null","<img src=""img/food2.png"" style=""width:200px; border:14px solid green;"">","null","","","","","","","","","",""
"","image-keyboard-response","15","44255","0.0-21.0","31LVTDXBL8WCBHQWHL9G78IME7KRLB","A82Q1HS5CPZ5I","3SA4EMRVJVOCGON1OYE6FAUV3JU0PO","","341.5","img/food2.png","74","342","1","1","false","1","2","1,0.7,0,1,0.7,0,0.7,0,1","1,0.7,0,1,0.7,0,0.7,0,1","1",""
"","html-keyboard-response","16","44557","0.0-22.0","31LVTDXBL8WCBHQWHL9G78IME7KRLB","A82Q1HS5CPZ5I","3SA4EMRVJVOCGON1OYE6FAUV3JU0PO","","null","<img src=""img/food2.png"" style=""width:200px; border:14px solid green;"">","null","","","","","","","","","",""
"","image-keyboard-response","17","44879","0.0-24.0","31LVTDXBL8WCBHQWHL9G78IME7KRLB","A82Q1HS5CPZ5I","3SA4EMRVJVOCGON1OYE6FAUV3JU0PO","","321.79999999701977","img/food2.png","74","322.29999999701977","1","1","false","1","2","1,0.7,0,1,0.7,0,0.7,0,1","1,0.7,0,1,0.7,0,0.7,0,1","1",""
"","html-keyboard-response","18","45180","0.0-25.0","31LVTDXBL8WCBHQWHL9G78IME7KRLB","A82Q1HS5CPZ5I","3SA4EMRVJVOCGON1OYE6FAUV3JU0PO","","null","<img src=""img/food2.png"" style=""width:200px; border:14px solid green;"">","null","","","","","","","","","",""
"","image-keyboard-response","19","45765","0.0-27.0","31LVTDXBL8WCBHQWHL9G78IME7KRLB","A82Q1HS5CPZ5I","3SA4EMRVJVOCGON1OYE6FAUV3JU0PO","","584.4000000059605","img/food1.png","74","584.8999999985099","1","0","false","3","2","1,0.7,0,1,0.7,0,0.7,0,1","1,0.7,0,1,0.7,0,0.7,0,1","1",""
"","html-keyboard-response","20","46067","0.0-28.0","31LVTDXBL8WCBHQWHL9G78IME7KRLB","A82Q1HS5CPZ5I","3SA4EMRVJVOCGON1OYE6FAUV3JU0PO","","null","<img src=""img/food1.png"" style=""width:200px;border:14px solid red;"">","null","","","","","","","","","",""
"","image-keyboard-response","21","46613","0.0-30.0","31LVTDXBL8WCBHQWHL9G78IME7KRLB","A82Q1HS5CPZ5I","3SA4EMRVJVOCGON1OYE6FAUV3JU0PO","","545.5999999940395","img/food2.png","74","546.2000000029802","1","1","false","1","2","1,0.7,0,1,0.7,0,0.7,0,1","1,0.7,0,1,0.7,0,0.7,0,1","1",""
"","html-keyboard-response","22","46914","0.0-31.0","31LVTDXBL8WCBHQWHL9G78IME7KRLB","A82Q1HS5CPZ5I","3SA4EMRVJVOCGON1OYE6FAUV3JU0PO","","null","<img src=""img/food2.png"" style=""width:200px; border:14px solid green;"">","null","","","","","","","","","",""
"","image-keyboard-response","23","47357","0.0-33.0","31LVTDXBL8WCBHQWHL9G78IME7KRLB","A82Q1HS5CPZ5I","3SA4EMRVJVOCGON1OYE6FAUV3JU0PO","","442.3999999985099","img/food1.png","75","443","2","0","false","3","2","1,0.7,0,1,0.7,0,0.7,0,1","1,0.7,0,1,0.7,0,0.7,0,1","1",""
"","html-keyboard-response","24","47658","0.0-34.0","31LVTDXBL8WCBHQWHL9G78IME7KRLB","A82Q1HS5CPZ5I","3SA4EMRVJVOCGON1OYE6FAUV3JU0PO","","null","<img src=""img/food1.png"" style=""width:200px;border:14px solid red;"">","null","","","","","","","","","",""
"","image-keyboard-response","25","48103","0.0-36.0","31LVTDXBL8WCBHQWHL9G78IME7KRLB","A82Q1HS5CPZ5I","3SA4EMRVJVOCGON1OYE6FAUV3JU0PO","","444","img/food3.png","74","444.5","1","1","false","2","2","1,0.7,0,1,0.7,0,0.7,0,1","1,0.7,0,1,0.7,0,0.7,0,1","1",""
"","html-keyboard-response","26","48404","0.0-37.0","31LVTDXBL8WCBHQWHL9G78IME7KRLB","A82Q1HS5CPZ5I","3SA4EMRVJVOCGON1OYE6FAUV3JU0PO","","null","<img src=""img/food3.png"" style=""width:200px; border:14px solid green;"">","null","","","","","","","","","",""
"","image-keyboard-response","27","49010","0.0-39.0","31LVTDXBL8WCBHQWHL9G78IME7KRLB","A82Q1HS5CPZ5I","3SA4EMRVJVOCGON1OYE6FAUV3JU0PO","","604.8000000044703","img/food1.png","76","605.2999999970198","3","1","false","3","2","1,0.7,0,1,0.7,0,0.7,0,1","1,0.7,0,1,0.7,0,0.7,0,1","1",""
"","html-keyboard-response","28","49311","0.0-40.0","31LVTDXBL8WCBHQWHL9G78IME7KRLB","A82Q1HS5CPZ5I","3SA4EMRVJVOCGON1OYE6FAUV3JU0PO","","null","<img src=""img/food1.png"" style=""width:200px; border:14px solid green;"">","null","","","","","","","","","",""
"","image-keyboard-response","29","49775","0.0-42.0","31LVTDXBL8WCBHQWHL9G78IME7KRLB","A82Q1HS5CPZ5I","3SA4EMRVJVOCGON1OYE6FAUV3JU0PO","","463","img/food1.png","76","463.6000000014901","3","1","false","3","2","1,0.7,0,1,0.7,0,0.7,0,1","1,0.7,0,1,0.7,0,0.7,0,1","1",""
"","html-keyboard-response","30","50077","0.0-43.0","31LVTDXBL8WCBHQWHL9G78IME7KRLB","A82Q1HS5CPZ5I","3SA4EMRVJVOCGON1OYE6FAUV3JU0PO","","null","<img src=""img/food1.png"" style=""width:200px; border:14px solid green;"">","null","","","","","","","","","",""
"","image-keyboard-response","31","50479","0.0-45.0","31LVTDXBL8WCBHQWHL9G78IME7KRLB","A82Q1HS5CPZ5I","3SA4EMRVJVOCGON1OYE6FAUV3JU0PO","","401.6000000014901","img/food3.png","74","402.1000000014901","1","1","false","2","2","1,0.7,0,1,0.7,0,0.7,0,1","1,0.7,0,1,0.7,0,0.7,0,1","1",""
"","html-keyboard-response","32","50781","0.0-46.0","31LVTDXBL8WCBHQWHL9G78IME7KRLB","A82Q1HS5CPZ5I","3SA4EMRVJVOCGON1OYE6FAUV3JU0PO","","null","<img src=""img/food3.png"" style=""width:200px; border:14px solid green;"">","null","","","","","","","","","",""
"","image-keyboard-response","33","51627","0.0-48.0","31LVTDXBL8WCBHQWHL9G78IME7KRLB","A82Q1HS5CPZ5I","3SA4EMRVJVOCGON1OYE6FAUV3JU0PO","","845.7999999970198","img/food2.png","75","846.3999999985099","2","1","false","1","2","1,0.7,0,1,0.7,0,0.7,0,1","1,0.7,0,1,0.7,0,0.7,0,1","1",""
"","html-keyboard-response","34","51928","0.0-49.0","31LVTDXBL8WCBHQWHL9G78IME7KRLB","A82Q1HS5CPZ5I","3SA4EMRVJVOCGON1OYE6FAUV3JU0PO","","null","<img src=""img/food2.png"" style=""width:200px; border:14px solid green;"">","null","","","","","","","","","",""
"","image-keyboard-response","35","52413","0.0-51.0","31LVTDXBL8WCBHQWHL9G78IME7KRLB","A82Q1HS5CPZ5I","3SA4EMRVJVOCGON1OYE6FAUV3JU0PO","","484","img/food3.png","74","484.6000000014901","1","1","false","2","2","1,0.7,0,1,0.7,0,0.7,0,1","1,0.7,0,1,0.7,0,0.7,0,1","1",""
"","html-keyboard-response","36","52714","0.0-52.0","31LVTDXBL8WCBHQWHL9G78IME7KRLB","A82Q1HS5CPZ5I","3SA4EMRVJVOCGON1OYE6FAUV3JU0PO","","null","<img src=""img/food3.png"" style=""width:200px; border:14px solid green;"">","null","","","","","","","","","",""
"","image-keyboard-response","37","53299","0.0-54.0","31LVTDXBL8WCBHQWHL9G78IME7KRLB","A82Q1HS5CPZ5I","3SA4EMRVJVOCGON1OYE6FAUV3JU0PO","","584","img/food1.png","76","584.6000000014901","3","1","false","3","2","1,0.7,0,1,0.7,0,0.7,0,1","1,0.7,0,1,0.7,0,0.7,0,1","1",""
"","html-keyboard-response","38","53600","0.0-55.0","31LVTDXBL8WCBHQWHL9G78IME7KRLB","A82Q1HS5CPZ5I","3SA4EMRVJVOCGON1OYE6FAUV3JU0PO","","null","<img src=""img/food1.png"" style=""width:200px; border:14px solid green;"">","null","","","","","","","","","",""
"","image-keyboard-response","39","54085","0.0-57.0","31LVTDXBL8WCBHQWHL9G78IME7KRLB","A82Q1HS5CPZ5I","3SA4EMRVJVOCGON1OYE6FAUV3JU0PO","","483.8999999985099","img/food1.png","76","484.6000000014901","3","1","false","3","2","1,0.7,0,1,0.7,0,0.7,0,1","1,0.7,0,1,0.7,0,0.7,0,1","1",""
"","html-keyboard-response","40","54386","0.0-58.0","31LVTDXBL8WCBHQWHL9G78IME7KRLB","A82Q1HS5CPZ5I","3SA4EMRVJVOCGON1OYE6FAUV3JU0PO","","null","<img src=""img/food1.png"" style=""width:200px; border:14px solid green;"">","null","","","","","","","","","",""
"","image-keyboard-response","41","54709","0.0-60.0","31LVTDXBL8WCBHQWHL9G78IME7KRLB","A82Q1HS5CPZ5I","3SA4EMRVJVOCGON1OYE6FAUV3JU0PO","","321.79999999701977","img/food1.png","76","322.29999999701977","3","1","false","3","2","1,0.7,0,1,0.7,0,0.7,0,1","1,0.7,0,1,0.7,0,0.7,0,1","1",""
"","html-keyboard-response","42","55010","0.0-61.0","31LVTDXBL8WCBHQWHL9G78IME7KRLB","A82Q1HS5CPZ5I","3SA4EMRVJVOCGON1OYE6FAUV3JU0PO","","null","<img src=""img/food1.png"" style=""width:200px; border:14px solid green;"">","null","","","","","","","","","",""
"","image-keyboard-response","43","55777","0.0-63.0","31LVTDXBL8WCBHQWHL9G78IME7KRLB","A82Q1HS5CPZ5I","3SA4EMRVJVOCGON1OYE6FAUV3JU0PO","","766.8000000044703","img/food2.png","75","767.5","2","1","false","1","2","1,0.7,0,1,0.7,0,0.7,0,1","1,0.7,0,1,0.7,0,0.7,0,1","1",""
"","html-keyboard-response","44","56080","0.0-64.0","31LVTDXBL8WCBHQWHL9G78IME7KRLB","A82Q1HS5CPZ5I","3SA4EMRVJVOCGON1OYE6FAUV3JU0PO","","null","<img src=""img/food2.png"" style=""width:200px; border:14px solid green;"">","null","","","","","","","","","",""
"","image-keyboard-response","45","56543","0.0-66.0","31LVTDXBL8WCBHQWHL9G78IME7KRLB","A82Q1HS5CPZ5I","3SA4EMRVJVOCGON1OYE6FAUV3JU0PO","","461.5","img/food3.png","74","463.1000000014901","1","1","false","2","2","1,0.7,0,1,0.7,0,0.7,0,1","1,0.7,0,1,0.7,0,0.7,0,1","1",""
"","html-keyboard-response","46","56844","0.0-67.0","31LVTDXBL8WCBHQWHL9G78IME7KRLB","A82Q1HS5CPZ5I","3SA4EMRVJVOCGON1OYE6FAUV3JU0PO","","null","<img src=""img/food3.png"" style=""width:200px; border:14px solid green;"">","null","","","","","","","","","",""
"","image-keyboard-response","47","57309","0.0-69.0","31LVTDXBL8WCBHQWHL9G78IME7KRLB","A82Q1HS5CPZ5I","3SA4EMRVJVOCGON1OYE6FAUV3JU0PO","","464.6000000014901","img/food3.png","74","465","1","1","false","2","2","1,0.7,0,1,0.7,0,0.7,0,1","1,0.7,0,1,0.7,0,0.7,0,1","1",""
"","html-keyboard-response","48","57611","0.0-70.0","31LVTDXBL8WCBHQWHL9G78IME7KRLB","A82Q1HS5CPZ5I","3SA4EMRVJVOCGON1OYE6FAUV3JU0PO","","null","<img src=""img/food3.png"" style=""width:200px; border:14px solid green;"">","null","","","","","","","","","",""
"","image-keyboard-response","49","58255","0.0-72.0","31LVTDXBL8WCBHQWHL9G78IME7KRLB","A82Q1HS5CPZ5I","3SA4EMRVJVOCGON1OYE6FAUV3JU0PO","","643.3999999985099","img/food1.png","76","643.8999999985099","3","1","false","3","2","1,0.7,0,1,0.7,0,0.7,0,1","1,0.7,0,1,0.7,0,0.7,0,1","1",""
"","html-keyboard-response","50","58558","0.0-73.0","31LVTDXBL8WCBHQWHL9G78IME7KRLB","A82Q1HS5CPZ5I","3SA4EMRVJVOCGON1OYE6FAUV3JU0PO","","null","<img src=""img/food1.png"" style=""width:200px; border:14px solid green;"">","null","","","","","","","","","",""
"","image-keyboard-response","51","59202","0.0-75.0","31LVTDXBL8WCBHQWHL9G78IME7KRLB","A82Q1HS5CPZ5I","3SA4EMRVJVOCGON1OYE6FAUV3JU0PO","","642.8999999985099","img/food3.png","74","643.6000000014901","1","1","false","2","2","1,0.7,0,1,0.7,0,0.7,0,1","1,0.7,0,1,0.7,0,0.7,0,1","1",""
"","html-keyboard-response","52","59503","0.0-76.0","31LVTDXBL8WCBHQWHL9G78IME7KRLB","A82Q1HS5CPZ5I","3SA4EMRVJVOCGON1OYE6FAUV3JU0PO","","null","<img src=""img/food3.png"" style=""width:200px; border:14px solid green;"">","null","","","","","","","","","",""
"","image-keyboard-response","53","60150","0.0-78.0","31LVTDXBL8WCBHQWHL9G78IME7KRLB","A82Q1HS5CPZ5I","3SA4EMRVJVOCGON1OYE6FAUV3JU0PO","","645.6000000014901","img/food1.png","76","646.2000000029802","3","1","false","3","2","1,0.7,0,1,0.7,0,0.7,0,1","1,0.7,0,1,0.7,0,0.7,0,1","1",""
"","html-keyboard-response","54","60451","0.0-79.0","31LVTDXBL8WCBHQWHL9G78IME7KRLB","A82Q1HS5CPZ5I","3SA4EMRVJVOCGON1OYE6FAUV3JU0PO","","null","<img src=""img/food1.png"" style=""width:200px; border:14px solid green;"">","null","","","","","","","","","",""
"","image-keyboard-response","55","60916","0.0-81.0","31LVTDXBL8WCBHQWHL9G78IME7KRLB","A82Q1HS5CPZ5I","3SA4EMRVJVOCGON1OYE6FAUV3JU0PO","","463.69999999552965","img/food2.png","74","464.29999999701977","1","1","false","1","2","1,0.7,0,1,0.7,0,0.7,0,1","1,0.7,0,1,0.7,0,0.7,0,1","1",""
"","html-keyboard-response","56","61217","0.0-82.0","31LVTDXBL8WCBHQWHL9G78IME7KRLB","A82Q1HS5CPZ5I","3SA4EMRVJVOCGON1OYE6FAUV3JU0PO","","null","<img src=""img/food2.png"" style=""width:200px; border:14px solid green;"">","null","","","","","","","","","",""
"","image-keyboard-response","57","61680","0.0-84.0","31LVTDXBL8WCBHQWHL9G78IME7KRLB","A82Q1HS5CPZ5I","3SA4EMRVJVOCGON1OYE6FAUV3JU0PO","","461.70000000298023","img/food1.png","74","462.20000000298023","1","1","false","3","2","1,0.7,0,1,0.7,0,0.7,0,1","1,0.7,0,1,0.7,0,0.7,0,1","1",""
"","html-keyboard-response","58","61981","0.0-85.0","31LVTDXBL8WCBHQWHL9G78IME7KRLB","A82Q1HS5CPZ5I","3SA4EMRVJVOCGON1OYE6FAUV3JU0PO","","null","<img src=""img/food1.png"" style=""width:200px; border:14px solid green;"">","null","","","","","","","","","",""
"","image-keyboard-response","59","62326","0.0-87.0","31LVTDXBL8WCBHQWHL9G78IME7KRLB","A82Q1HS5CPZ5I","3SA4EMRVJVOCGON1OYE6FAUV3JU0PO","","343.8999999985099","img/food2.png","74","344.5","1","1","false","1","2","1,0.7,0,1,0.7,0,0.7,0,1","1,0.7,0,1,0.7,0,0.7,0,1","1",""
"","html-keyboard-response","60","62627","0.0-88.0","31LVTDXBL8WCBHQWHL9G78IME7KRLB","A82Q1HS5CPZ5I","3SA4EMRVJVOCGON1OYE6FAUV3JU0PO","","null","<img src=""img/food2.png"" style=""width:200px; border:14px solid green;"">","null","","","","","","","","","",""
"","image-keyboard-response","61","63030","0.0-90.0","31LVTDXBL8WCBHQWHL9G78IME7KRLB","A82Q1HS5CPZ5I","3SA4EMRVJVOCGON1OYE6FAUV3JU0PO","","402.3999999985099","img/food1.png","74","403","1","1","false","3","2","1,0.7,0,1,0.7,0,0.7,0,1","1,0.7,0,1,0.7,0,0.7,0,1","1",""
"","html-keyboard-response","62","63332","0.0-91.0","31LVTDXBL8WCBHQWHL9G78IME7KRLB","A82Q1HS5CPZ5I","3SA4EMRVJVOCGON1OYE6FAUV3JU0PO","","null","<img src=""img/food1.png"" style=""width:200px; border:14px solid green;"">","null","","","","","","","","","",""
"","image-keyboard-response","63","63976","0.0-93.0","31LVTDXBL8WCBHQWHL9G78IME7KRLB","A82Q1HS5CPZ5I","3SA4EMRVJVOCGON1OYE6FAUV3JU0PO","","642.8999999985099","img/food3.png","74","643.5","1","1","false","2","2","1,0.7,0,1,0.7,0,0.7,0,1","1,0.7,0,1,0.7,0,0.7,0,1","1",""
"","html-keyboard-response","64","64277","0.0-94.0","31LVTDXBL8WCBHQWHL9G78IME7KRLB","A82Q1HS5CPZ5I","3SA4EMRVJVOCGON1OYE6FAUV3JU0PO","","null","<img src=""img/food3.png"" style=""width:200px; border:14px solid green;"">","null","","","","","","","","","",""
"","image-keyboard-response","65","64702","0.0-96.0","31LVTDXBL8WCBHQWHL9G78IME7KRLB","A82Q1HS5CPZ5I","3SA4EMRVJVOCGON1OYE6FAUV3JU0PO","","424.29999999701977","img/food3.png","74","424.8999999985099","1","1","false","2","2","1,0.7,0,1,0.7,0,0.7,0,1","1,0.7,0,1,0.7,0,0.7,0,1","1",""
"","html-keyboard-response","66","65003","0.0-97.0","31LVTDXBL8WCBHQWHL9G78IME7KRLB","A82Q1HS5CPZ5I","3SA4EMRVJVOCGON1OYE6FAUV3JU0PO","","null","<img src=""img/food3.png"" style=""width:200px; border:14px solid green;"">","null","","","","","","","","","",""
"","image-keyboard-response","67","65346","0.0-99.0","31LVTDXBL8WCBHQWHL9G78IME7KRLB","A82Q1HS5CPZ5I","3SA4EMRVJVOCGON1OYE6FAUV3JU0PO","","342.3999999985099","img/food3.png","74","343","1","1","false","2","2","1,0.7,0,1,0.7,0,0.7,0,1","1,0.7,0,1,0.7,0,0.7,0,1","1",""
"","html-keyboard-response","68","65647","0.0-100.0","31LVTDXBL8WCBHQWHL9G78IME7KRLB","A82Q1HS5CPZ5I","3SA4EMRVJVOCGON1OYE6FAUV3JU0PO","","null","<img src=""img/food3.png"" style=""width:200px; border:14px solid green;"">","null","","","","","","","","","",""
"","image-keyboard-response","69","66112","0.0-102.0","31LVTDXBL8WCBHQWHL9G78IME7KRLB","A82Q1HS5CPZ5I","3SA4EMRVJVOCGON1OYE6FAUV3JU0PO","","464.20000000298023","img/food1.png","76","464.79999999701977","3","1","false","3","2","1,0.7,0,1,0.7,0,0.7,0,1","1,0.7,0,1,0.7,0,0.7,0,1","1",""
"","html-keyboard-response","70","66414","0.0-103.0","31LVTDXBL8WCBHQWHL9G78IME7KRLB","A82Q1HS5CPZ5I","3SA4EMRVJVOCGON1OYE6FAUV3JU0PO","","null","<img src=""img/food1.png"" style=""width:200px; border:14px solid green;"">","null","","","","","","","","","",""
"","image-keyboard-response","71","67160","0.0-105.0","31LVTDXBL8WCBHQWHL9G78IME7KRLB","A82Q1HS5CPZ5I","3SA4EMRVJVOCGON1OYE6FAUV3JU0PO","","745.2999999970198","img/food2.png","75","745.8999999985099","2","0","false","1","2","1,0.7,0,1,0.7,0,0.7,0,1","1,0.7,0,1,0.7,0,0.7,0,1","1",""
"","html-keyboard-response","72","67461","0.0-106.0","31LVTDXBL8WCBHQWHL9G78IME7KRLB","A82Q1HS5CPZ5I","3SA4EMRVJVOCGON1OYE6FAUV3JU0PO","","null","<img src=""img/food2.png"" style=""width:200px;border:14px solid red;"">","null","","","","","","","","","",""
"","image-keyboard-response","73","67824","0.0-108.0","31LVTDXBL8WCBHQWHL9G78IME7KRLB","A82Q1HS5CPZ5I","3SA4EMRVJVOCGON1OYE6FAUV3JU0PO","","362.1000000014901","img/food2.png","74","362.59999999403954","1","1","false","1","2","1,0.7,0,1,0.7,0,0.7,0,1","1,0.7,0,1,0.7,0,0.7,0,1","1",""
"","html-keyboard-response","74","68126","0.0-109.0","31LVTDXBL8WCBHQWHL9G78IME7KRLB","A82Q1HS5CPZ5I","3SA4EMRVJVOCGON1OYE6FAUV3JU0PO","","null","<img src=""img/food2.png"" style=""width:200px; border:14px solid green;"">","null","","","","","","","","","",""
"","image-keyboard-response","75","68650","0.0-111.0","31LVTDXBL8WCBHQWHL9G78IME7KRLB","A82Q1HS5CPZ5I","3SA4EMRVJVOCGON1OYE6FAUV3JU0PO","","523.6000000014901","img/food1.png","74","524.1000000014901","1","1","false","3","2","1,0.7,0,1,0.7,0,0.7,0,1","1,0.7,0,1,0.7,0,0.7,0,1","1",""
"","html-keyboard-response","76","68951","0.0-112.0","31LVTDXBL8WCBHQWHL9G78IME7KRLB","A82Q1HS5CPZ5I","3SA4EMRVJVOCGON1OYE6FAUV3JU0PO","","null","<img src=""img/food1.png"" style=""width:200px; border:14px solid green;"">","null","","","","","","","","","",""
"","image-keyboard-response","77","69356","0.0-114.0","31LVTDXBL8WCBHQWHL9G78IME7KRLB","A82Q1HS5CPZ5I","3SA4EMRVJVOCGON1OYE6FAUV3JU0PO","","404.19999999552965","img/food2.png","74","404.80000000447035","1","1","false","1","2","1,0.7,0,1,0.7,0,0.7,0,1","1,0.7,0,1,0.7,0,0.7,0,1","1",""
"","html-keyboard-response","78","69657","0.0-115.0","31LVTDXBL8WCBHQWHL9G78IME7KRLB","A82Q1HS5CPZ5I","3SA4EMRVJVOCGON1OYE6FAUV3JU0PO","","null","<img src=""img/food2.png"" style=""width:200px; border:14px solid green;"">","null","","","","","","","","","",""
"","image-keyboard-response","79","70040","0.0-117.0","31LVTDXBL8WCBHQWHL9G78IME7KRLB","A82Q1HS5CPZ5I","3SA4EMRVJVOCGON1OYE6FAUV3JU0PO","","381","img/food2.png","74","381.6000000014901","1","1","false","1","2","1,0.7,0,1,0.7,0,0.7,0,1","1,0.7,0,1,0.7,0,0.7,0,1","1",""
"","html-keyboard-response","80","70341","0.0-118.0","31LVTDXBL8WCBHQWHL9G78IME7KRLB","A82Q1HS5CPZ5I","3SA4EMRVJVOCGON1OYE6FAUV3JU0PO","","null","<img src=""img/food2.png"" style=""width:200px; border:14px solid green;"">","null","","","","","","","","","",""
"","image-keyboard-response","81","70846","0.0-120.0","31LVTDXBL8WCBHQWHL9G78IME7KRLB","A82Q1HS5CPZ5I","3SA4EMRVJVOCGON1OYE6FAUV3JU0PO","","503.69999999552965","img/food3.png","74","504.30000000447035","1","1","false","2","2","1,0.7,0,1,0.7,0,0.7,0,1","1,0.7,0,1,0.7,0,0.7,0,1","1",""
"","html-keyboard-response","82","71147","0.0-121.0","31LVTDXBL8WCBHQWHL9G78IME7KRLB","A82Q1HS5CPZ5I","3SA4EMRVJVOCGON1OYE6FAUV3JU0PO","","null","<img src=""img/food3.png"" style=""width:200px; border:14px solid green;"">","null","","","","","","","","","",""
"","image-keyboard-response","83","71490","0.0-123.0","31LVTDXBL8WCBHQWHL9G78IME7KRLB","A82Q1HS5CPZ5I","3SA4EMRVJVOCGON1OYE6FAUV3JU0PO","","341.6000000014901","img/food3.png","74","342.1000000014901","1","1","false","2","2","1,0.7,0,1,0.7,0,0.7,0,1","1,0.7,0,1,0.7,0,0.7,0,1","1",""
"","html-keyboard-response","84","71791","0.0-124.0","31LVTDXBL8WCBHQWHL9G78IME7KRLB","A82Q1HS5CPZ5I","3SA4EMRVJVOCGON1OYE6FAUV3JU0PO","","null","<img src=""img/food3.png"" style=""width:200px; border:14px solid green;"">","null","","","","","","","","","",""
"","image-keyboard-response","85","72176","0.0-126.0","31LVTDXBL8WCBHQWHL9G78IME7KRLB","A82Q1HS5CPZ5I","3SA4EMRVJVOCGON1OYE6FAUV3JU0PO","","383.59999999403954","img/food1.png","74","384.1000000014901","1","1","false","3","2","1,0.7,0,1,0.7,0,0.7,0,1","1,0.7,0,1,0.7,0,0.7,0,1","1",""
"","html-keyboard-response","86","72477","0.0-127.0","31LVTDXBL8WCBHQWHL9G78IME7KRLB","A82Q1HS5CPZ5I","3SA4EMRVJVOCGON1OYE6FAUV3JU0PO","","null","<img src=""img/food1.png"" style=""width:200px; border:14px solid green;"">","null","","","","","","","","","",""
"","image-keyboard-response","87","72820","0.0-129.0","31LVTDXBL8WCBHQWHL9G78IME7KRLB","A82Q1HS5CPZ5I","3SA4EMRVJVOCGON1OYE6FAUV3JU0PO","","342.19999999552965","img/food1.png","74","342.6000000014901","1","1","false","3","2","1,0.7,0,1,0.7,0,0.7,0,1","1,0.7,0,1,0.7,0,0.7,0,1","1",""
"","html-keyboard-response","88","73122","0.0-130.0","31LVTDXBL8WCBHQWHL9G78IME7KRLB","A82Q1HS5CPZ5I","3SA4EMRVJVOCGON1OYE6FAUV3JU0PO","","null","<img src=""img/food1.png"" style=""width:200px; border:14px solid green;"">","null","","","","","","","","","",""
"","image-keyboard-response","89","73908","0.0-132.0","31LVTDXBL8WCBHQWHL9G78IME7KRLB","A82Q1HS5CPZ5I","3SA4EMRVJVOCGON1OYE6FAUV3JU0PO","","784.6000000014901","img/food2.png","74","785.1000000014901","1","1","false","1","2","1,0.7,0,1,0.7,0,0.7,0,1","1,0.7,0,1,0.7,0,0.7,0,1","1",""
"","html-keyboard-response","90","74209","0.0-133.0","31LVTDXBL8WCBHQWHL9G78IME7KRLB","A82Q1HS5CPZ5I","3SA4EMRVJVOCGON1OYE6FAUV3JU0PO","","null","<img src=""img/food2.png"" style=""width:200px; border:14px solid green;"">","null","","","","","","","","","",""
"","image-keyboard-response","91","74894","0.0-135.0","31LVTDXBL8WCBHQWHL9G78IME7KRLB","A82Q1HS5CPZ5I","3SA4EMRVJVOCGON1OYE6FAUV3JU0PO","","684.1000000014901","img/food1.png","74","684.6000000014901","1","1","false","3","2","1,0.7,0,1,0.7,0,0.7,0,1","1,0.7,0,1,0.7,0,0.7,0,1","1",""
"","html-keyboard-response","92","75194","0.0-136.0","31LVTDXBL8WCBHQWHL9G78IME7KRLB","A82Q1HS5CPZ5I","3SA4EMRVJVOCGON1OYE6FAUV3JU0PO","","null","<img src=""img/food1.png"" style=""width:200px; border:14px solid green;"">","null","","","","","","","","","",""
"","image-keyboard-response","93","75560","0.0-138.0","31LVTDXBL8WCBHQWHL9G78IME7KRLB","A82Q1HS5CPZ5I","3SA4EMRVJVOCGON1OYE6FAUV3JU0PO","","364.3999999985099","img/food2.png","74","365","1","1","false","1","2","1,0.7,0,1,0.7,0,0.7,0,1","1,0.7,0,1,0.7,0,0.7,0,1","1",""
"","html-keyboard-response","94","75861","0.0-139.0","31LVTDXBL8WCBHQWHL9G78IME7KRLB","A82Q1HS5CPZ5I","3SA4EMRVJVOCGON1OYE6FAUV3JU0PO","","null","<img src=""img/food2.png"" style=""width:200px; border:14px solid green;"">","null","","","","","","","","","",""
"","image-keyboard-response","95","76244","0.0-141.0","31LVTDXBL8WCBHQWHL9G78IME7KRLB","A82Q1HS5CPZ5I","3SA4EMRVJVOCGON1OYE6FAUV3JU0PO","","382.30000000447035","img/food1.png","74","382.80000000447035","1","0","false","3","2","1,0.7,0,1,0.7,0,0.7,0,1","1,0.7,0,1,0.7,0,0.7,0,1","1",""
"","html-keyboard-response","96","76545","0.0-142.0","31LVTDXBL8WCBHQWHL9G78IME7KRLB","A82Q1HS5CPZ5I","3SA4EMRVJVOCGON1OYE6FAUV3JU0PO","","null","<img src=""img/food1.png"" style=""width:200px;border:14px solid red;"">","null","","","","","","","","","",""
"","image-keyboard-response","97","77372","0.0-144.0","31LVTDXBL8WCBHQWHL9G78IME7KRLB","A82Q1HS5CPZ5I","3SA4EMRVJVOCGON1OYE6FAUV3JU0PO","","826.1999999955297","img/food2.png","74","826.8000000044703","1","1","false","1","2","1,0.7,0,1,0.7,0,0.7,0,1","1,0.7,0,1,0.7,0,0.7,0,1","1",""
"","html-keyboard-response","98","77673","0.0-145.0","31LVTDXBL8WCBHQWHL9G78IME7KRLB","A82Q1HS5CPZ5I","3SA4EMRVJVOCGON1OYE6FAUV3JU0PO","","null","<img src=""img/food2.png"" style=""width:200px; border:14px solid green;"">","null","","","","","","","","","",""
"","image-keyboard-response","99","77998","0.0-147.0","31LVTDXBL8WCBHQWHL9G78IME7KRLB","A82Q1HS5CPZ5I","3SA4EMRVJVOCGON1OYE6FAUV3JU0PO","","323.6000000014901","img/food2.png","74","324.30000000447035","1","1","false","1","2","1,0.7,0,1,0.7,0,0.7,0,1","1,0.7,0,1,0.7,0,0.7,0,1","1",""
"","html-keyboard-response","100","78299","0.0-148.0","31LVTDXBL8WCBHQWHL9G78IME7KRLB","A82Q1HS5CPZ5I","3SA4EMRVJVOCGON1OYE6FAUV3JU0PO","","null","<img src=""img/food2.png"" style=""width:200px; border:14px solid green;"">","null","","","","","","","","","",""
"","image-keyboard-response","101","78822","0.0-150.0","31LVTDXBL8WCBHQWHL9G78IME7KRLB","A82Q1HS5CPZ5I","3SA4EMRVJVOCGON1OYE6FAUV3JU0PO","","521.6000000014901","img/food3.png","74","522.2000000029802","1","1","false","2","2","1,0.7,0,1,0.7,0,0.7,0,1","1,0.7,0,1,0.7,0,0.7,0,1","1",""
"","html-keyboard-response","102","79124","0.0-151.0","31LVTDXBL8WCBHQWHL9G78IME7KRLB","A82Q1HS5CPZ5I","3SA4EMRVJVOCGON1OYE6FAUV3JU0PO","","null","<img src=""img/food3.png"" style=""width:200px; border:14px solid green;"">","null","","","","","","","","","",""
"","image-keyboard-response","103","79428","0.0-153.0","31LVTDXBL8WCBHQWHL9G78IME7KRLB","A82Q1HS5CPZ5I","3SA4EMRVJVOCGON1OYE6FAUV3JU0PO","","302.79999999701977","img/food3.png","74","303.3999999985099","1","1","false","2","2","1,0.7,0,1,0.7,0,0.7,0,1","1,0.7,0,1,0.7,0,0.7,0,1","1",""
"","html-keyboard-response","104","79728","0.0-154.0","31LVTDXBL8WCBHQWHL9G78IME7KRLB","A82Q1HS5CPZ5I","3SA4EMRVJVOCGON1OYE6FAUV3JU0PO","","null","<img src=""img/food3.png"" style=""width:200px; border:14px solid green;"">","null","","","","","","","","","",""
"","image-keyboard-response","105","80072","0.0-156.0","31LVTDXBL8WCBHQWHL9G78IME7KRLB","A82Q1HS5CPZ5I","3SA4EMRVJVOCGON1OYE6FAUV3JU0PO","","342.6000000014901","img/food3.png","74","343.1000000014901","1","1","false","2","2","1,0.7,0,1,0.7,0,0.7,0,1","1,0.7,0,1,0.7,0,0.7,0,1","1",""
"","html-keyboard-response","106","80372","0.0-157.0","31LVTDXBL8WCBHQWHL9G78IME7KRLB","A82Q1HS5CPZ5I","3SA4EMRVJVOCGON1OYE6FAUV3JU0PO","","null","<img src=""img/food3.png"" style=""width:200px; border:14px solid green;"">","null","","","","","","","","","",""
"","image-keyboard-response","107","80676","0.0-159.0","31LVTDXBL8WCBHQWHL9G78IME7KRLB","A82Q1HS5CPZ5I","3SA4EMRVJVOCGON1OYE6FAUV3JU0PO","","302.5","img/food3.png","74","303","1","1","false","2","2","1,0.7,0,1,0.7,0,0.7,0,1","1,0.7,0,1,0.7,0,0.7,0,1","1",""
"","html-keyboard-response","108","80977","0.0-160.0","31LVTDXBL8WCBHQWHL9G78IME7KRLB","A82Q1HS5CPZ5I","3SA4EMRVJVOCGON1OYE6FAUV3JU0PO","","null","<img src=""img/food3.png"" style=""width:200px; border:14px solid green;"">","null","","","","","","","","","",""
"","image-keyboard-response","109","81402","0.0-162.0","31LVTDXBL8WCBHQWHL9G78IME7KRLB","A82Q1HS5CPZ5I","3SA4EMRVJVOCGON1OYE6FAUV3JU0PO","","423.79999999701977","img/food1.png","76","424.40000000596046","3","1","false","3","2","1,0.7,0,1,0.7,0,0.7,0,1","1,0.7,0,1,0.7,0,0.7,0,1","1",""
"","html-keyboard-response","110","81703","0.0-163.0","31LVTDXBL8WCBHQWHL9G78IME7KRLB","A82Q1HS5CPZ5I","3SA4EMRVJVOCGON1OYE6FAUV3JU0PO","","null","<img src=""img/food1.png"" style=""width:200px; border:14px solid green;"">","null","","","","","","","","","",""
"","image-keyboard-response","111","81946","0.0-165.0","31LVTDXBL8WCBHQWHL9G78IME7KRLB","A82Q1HS5CPZ5I","3SA4EMRVJVOCGON1OYE6FAUV3JU0PO","","241.5","img/food3.png","74","242.10000000149012","1","1","false","2","2","1,0.7,0,1,0.7,0,0.7,0,1","1,0.7,0,1,0.7,0,0.7,0,1","1",""
"","html-keyboard-response","112","82247","0.0-166.0","31LVTDXBL8WCBHQWHL9G78IME7KRLB","A82Q1HS5CPZ5I","3SA4EMRVJVOCGON1OYE6FAUV3JU0PO","","null","<img src=""img/food3.png"" style=""width:200px; border:14px solid green;"">","null","","","","","","","","","",""
"","image-keyboard-response","113","82490","0.0-168.0","31LVTDXBL8WCBHQWHL9G78IME7KRLB","A82Q1HS5CPZ5I","3SA4EMRVJVOCGON1OYE6FAUV3JU0PO","","241.5","img/food3.png","74","242.10000000149012","1","1","false","2","2","1,0.7,0,1,0.7,0,0.7,0,1","1,0.7,0,1,0.7,0,0.7,0,1","1",""
"","html-keyboard-response","114","82792","0.0-169.0","31LVTDXBL8WCBHQWHL9G78IME7KRLB","A82Q1HS5CPZ5I","3SA4EMRVJVOCGON1OYE6FAUV3JU0PO","","null","<img src=""img/food3.png"" style=""width:200px; border:14px solid green;"">","null","","","","","","","","","",""
"","image-keyboard-response","115","83054","0.0-171.0","31LVTDXBL8WCBHQWHL9G78IME7KRLB","A82Q1HS5CPZ5I","3SA4EMRVJVOCGON1OYE6FAUV3JU0PO","","260.79999999701977","img/food3.png","74","261.3999999985099","1","1","false","2","2","1,0.7,0,1,0.7,0,0.7,0,1","1,0.7,0,1,0.7,0,0.7,0,1","1",""
"","html-keyboard-response","116","83356","0.0-172.0","31LVTDXBL8WCBHQWHL9G78IME7KRLB","A82Q1HS5CPZ5I","3SA4EMRVJVOCGON1OYE6FAUV3JU0PO","","null","<img src=""img/food3.png"" style=""width:200px; border:14px solid green;"">","null","","","","","","","","","",""
"","image-keyboard-response","117","83858","0.0-174.0","31LVTDXBL8WCBHQWHL9G78IME7KRLB","A82Q1HS5CPZ5I","3SA4EMRVJVOCGON1OYE6FAUV3JU0PO","","501.1000000014901","img/food2.png","76","501.69999999552965","3","0","false","1","2","1,0.7,0,1,0.7,0,0.7,0,1","1,0.7,0,1,0.7,0,0.7,0,1","1",""
"","html-keyboard-response","118","84160","0.0-175.0","31LVTDXBL8WCBHQWHL9G78IME7KRLB","A82Q1HS5CPZ5I","3SA4EMRVJVOCGON1OYE6FAUV3JU0PO","","null","<img src=""img/food2.png"" style=""width:200px;border:14px solid red;"">","null","","","","","","","","","",""
"","image-keyboard-response","119","84444","0.0-177.0","31LVTDXBL8WCBHQWHL9G78IME7KRLB","A82Q1HS5CPZ5I","3SA4EMRVJVOCGON1OYE6FAUV3JU0PO","","283.29999999701977","img/food3.png","74","283.8999999985099","1","1","false","2","2","1,0.7,0,1,0.7,0,0.7,0,1","1,0.7,0,1,0.7,0,0.7,0,1","1",""
"","html-keyboard-response","120","84745","0.0-178.0","31LVTDXBL8WCBHQWHL9G78IME7KRLB","A82Q1HS5CPZ5I","3SA4EMRVJVOCGON1OYE6FAUV3JU0PO","","null","<img src=""img/food3.png"" style=""width:200px; border:14px solid green;"">","null","","","","","","","","","",""
"","image-keyboard-response","121","85006","0.0-180.0","31LVTDXBL8WCBHQWHL9G78IME7KRLB","A82Q1HS5CPZ5I","3SA4EMRVJVOCGON1OYE6FAUV3JU0PO","","260","img/food1.png","74","260.5","1","0","false","3","2","1,0.7,0,1,0.7,0,0.7,0,1","1,0.7,0,1,0.7,0,0.7,0,1","1",""
"","html-keyboard-response","122","85307","0.0-181.0","31LVTDXBL8WCBHQWHL9G78IME7KRLB","A82Q1HS5CPZ5I","3SA4EMRVJVOCGON1OYE6FAUV3JU0PO","","null","<img src=""img/food1.png"" style=""width:200px;border:14px solid red;"">","null","","","","","","","","","",""
"","image-keyboard-response","123","85772","0.0-183.0","31LVTDXBL8WCBHQWHL9G78IME7KRLB","A82Q1HS5CPZ5I","3SA4EMRVJVOCGON1OYE6FAUV3JU0PO","","464.1000000014901","img/food2.png","74","464.70000000298023","1","1","false","1","2","1,0.7,0,1,0.7,0,0.7,0,1","1,0.7,0,1,0.7,0,0.7,0,1","1",""
"","html-keyboard-response","124","86073","0.0-184.0","31LVTDXBL8WCBHQWHL9G78IME7KRLB","A82Q1HS5CPZ5I","3SA4EMRVJVOCGON1OYE6FAUV3JU0PO","","null","<img src=""img/food2.png"" style=""width:200px; border:14px solid green;"">","null","","","","","","","","","",""
"","image-keyboard-response","125","86963","0.0-186.0","31LVTDXBL8WCBHQWHL9G78IME7KRLB","A82Q1HS5CPZ5I","3SA4EMRVJVOCGON1OYE6FAUV3JU0PO","","888.2000000029802","img/food1.png","76","889.6000000014901","3","1","false","3","2","1,0.7,0,1,0.7,0,0.7,0,1","1,0.7,0,1,0.7,0,0.7,0,1","1",""
"","html-keyboard-response","126","87264","0.0-187.0","31LVTDXBL8WCBHQWHL9G78IME7KRLB","A82Q1HS5CPZ5I","3SA4EMRVJVOCGON1OYE6FAUV3JU0PO","","null","<img src=""img/food1.png"" style=""width:200px; border:14px solid green;"">","null","","","","","","","","","",""
"","image-keyboard-response","127","87544","0.0-189.0","31LVTDXBL8WCBHQWHL9G78IME7KRLB","A82Q1HS5CPZ5I","3SA4EMRVJVOCGON1OYE6FAUV3JU0PO","","279.1000000014901","img/food2.png","74","279.6000000014901","1","1","false","1","2","1,0.7,0,1,0.7,0,0.7,0,1","1,0.7,0,1,0.7,0,0.7,0,1","1",""
"","html-keyboard-response","128","87845","0.0-190.0","31LVTDXBL8WCBHQWHL9G78IME7KRLB","A82Q1HS5CPZ5I","3SA4EMRVJVOCGON1OYE6FAUV3JU0PO","","null","<img src=""img/food2.png"" style=""width:200px; border:14px solid green;"">","null","","","","","","","","","",""
"","image-keyboard-response","129","88230","0.0-192.0","31LVTDXBL8WCBHQWHL9G78IME7KRLB","A82Q1HS5CPZ5I","3SA4EMRVJVOCGON1OYE6FAUV3JU0PO","","384.29999999701977","img/food2.png","74","384.80000000447035","1","1","false","1","2","1,0.7,0,1,0.7,0,0.7,0,1","1,0.7,0,1,0.7,0,0.7,0,1","1",""
"","html-keyboard-response","130","88532","0.0-193.0","31LVTDXBL8WCBHQWHL9G78IME7KRLB","A82Q1HS5CPZ5I","3SA4EMRVJVOCGON1OYE6FAUV3JU0PO","","null","<img src=""img/food2.png"" style=""width:200px; border:14px solid green;"">","null","","","","","","","","","",""
"","image-keyboard-response","131","89016","0.0-195.0","31LVTDXBL8WCBHQWHL9G78IME7KRLB","A82Q1HS5CPZ5I","3SA4EMRVJVOCGON1OYE6FAUV3JU0PO","","483.3999999985099","img/food1.png","76","483.70000000298023","3","1","false","3","2","1,0.7,0,1,0.7,0,0.7,0,1","1,0.7,0,1,0.7,0,0.7,0,1","1",""
"","html-keyboard-response","132","89317","0.0-196.0","31LVTDXBL8WCBHQWHL9G78IME7KRLB","A82Q1HS5CPZ5I","3SA4EMRVJVOCGON1OYE6FAUV3JU0PO","","null","<img src=""img/food1.png"" style=""width:200px; border:14px solid green;"">","null","","","","","","","","","",""
"","image-keyboard-response","133","89580","0.0-198.0","31LVTDXBL8WCBHQWHL9G78IME7KRLB","A82Q1HS5CPZ5I","3SA4EMRVJVOCGON1OYE6FAUV3JU0PO","","261.8999999985099","img/food3.png","74","262.3999999985099","1","1","false","2","2","1,0.7,0,1,0.7,0,0.7,0,1","1,0.7,0,1,0.7,0,0.7,0,1","1",""
"","html-keyboard-response","134","89881","0.0-199.0","31LVTDXBL8WCBHQWHL9G78IME7KRLB","A82Q1HS5CPZ5I","3SA4EMRVJVOCGON1OYE6FAUV3JU0PO","","null","<img src=""img/food3.png"" style=""width:200px; border:14px solid green;"">","null","","","","","","","","","",""
"","image-keyboard-response","135","90406","0.0-201.0","31LVTDXBL8WCBHQWHL9G78IME7KRLB","A82Q1HS5CPZ5I","3SA4EMRVJVOCGON1OYE6FAUV3JU0PO","","523.7999999970198","img/food1.png","76","524.3999999985099","3","1","false","3","2","1,0.7,0,1,0.7,0,0.7,0,1","1,0.7,0,1,0.7,0,0.7,0,1","1",""
"","html-keyboard-response","136","90707","0.0-202.0","31LVTDXBL8WCBHQWHL9G78IME7KRLB","A82Q1HS5CPZ5I","3SA4EMRVJVOCGON1OYE6FAUV3JU0PO","","null","<img src=""img/food1.png"" style=""width:200px; border:14px solid green;"">","null","","","","","","","","","",""
"","image-keyboard-response","137","90950","0.0-204.0","31LVTDXBL8WCBHQWHL9G78IME7KRLB","A82Q1HS5CPZ5I","3SA4EMRVJVOCGON1OYE6FAUV3JU0PO","","241.79999999701977","img/food1.png","74","242.39999999850988","1","1","false","3","2","1,0.7,0,1,0.7,0,0.7,0,1","1,0.7,0,1,0.7,0,0.7,0,1","1",""
"","html-keyboard-response","138","91252","0.0-205.0","31LVTDXBL8WCBHQWHL9G78IME7KRLB","A82Q1HS5CPZ5I","3SA4EMRVJVOCGON1OYE6FAUV3JU0PO","","null","<img src=""img/food1.png"" style=""width:200px; border:14px solid green;"">","null","","","","","","","","","",""
"","image-keyboard-response","139","91674","0.0-207.0","31LVTDXBL8WCBHQWHL9G78IME7KRLB","A82Q1HS5CPZ5I","3SA4EMRVJVOCGON1OYE6FAUV3JU0PO","","421.3999999985099","img/food2.png","74","422","1","1","false","1","2","1,0.7,0,1,0.7,0,0.7,0,1","1,0.7,0,1,0.7,0,0.7,0,1","1",""
"","html-keyboard-response","140","91975","0.0-208.0","31LVTDXBL8WCBHQWHL9G78IME7KRLB","A82Q1HS5CPZ5I","3SA4EMRVJVOCGON1OYE6FAUV3JU0PO","","null","<img src=""img/food2.png"" style=""width:200px; border:14px solid green;"">","null","","","","","","","","","",""
"","image-keyboard-response","141","92400","0.0-210.0","31LVTDXBL8WCBHQWHL9G78IME7KRLB","A82Q1HS5CPZ5I","3SA4EMRVJVOCGON1OYE6FAUV3JU0PO","","424.29999999701977","img/food3.png","74","424.80000000447035","1","1","false","2","2","1,0.7,0,1,0.7,0,0.7,0,1","1,0.7,0,1,0.7,0,0.7,0,1","1",""
"","html-keyboard-response","142","92701","0.0-211.0","31LVTDXBL8WCBHQWHL9G78IME7KRLB","A82Q1HS5CPZ5I","3SA4EMRVJVOCGON1OYE6FAUV3JU0PO","","null","<img src=""img/food3.png"" style=""width:200px; border:14px solid green;"">","null","","","","","","","","","",""
"","image-keyboard-response","143","93044","0.0-213.0","31LVTDXBL8WCBHQWHL9G78IME7KRLB","A82Q1HS5CPZ5I","3SA4EMRVJVOCGON1OYE6FAUV3JU0PO","","342.3999999985099","img/food3.png","74","342.80000000447035","1","1","false","2","2","1,0.7,0,1,0.7,0,0.7,0,1","1,0.7,0,1,0.7,0,0.7,0,1","1",""
"","html-keyboard-response","144","93345","0.0-214.0","31LVTDXBL8WCBHQWHL9G78IME7KRLB","A82Q1HS5CPZ5I","3SA4EMRVJVOCGON1OYE6FAUV3JU0PO","","null","<img src=""img/food3.png"" style=""width:200px; border:14px solid green;"">","null","","","","","","","","","",""
"","image-keyboard-response","145","93910","0.0-216.0","31LVTDXBL8WCBHQWHL9G78IME7KRLB","A82Q1HS5CPZ5I","3SA4EMRVJVOCGON1OYE6FAUV3JU0PO","","564.2999999970198","img/food1.png","76","564.8999999985099","3","1","false","3","2","1,0.7,0,1,0.7,0,0.7,0,1","1,0.7,0,1,0.7,0,0.7,0,1","1",""
"","html-keyboard-response","146","94211","0.0-217.0","31LVTDXBL8WCBHQWHL9G78IME7KRLB","A82Q1HS5CPZ5I","3SA4EMRVJVOCGON1OYE6FAUV3JU0PO","","null","<img src=""img/food1.png"" style=""width:200px; border:14px solid green;"">","null","","","","","","","","","",""
"","image-keyboard-response","147","94454","0.0-219.0","31LVTDXBL8WCBHQWHL9G78IME7KRLB","A82Q1HS5CPZ5I","3SA4EMRVJVOCGON1OYE6FAUV3JU0PO","","241.70000000298023","img/food3.png","74","242.40000000596046","1","1","false","2","2","1,0.7,0,1,0.7,0,0.7,0,1","1,0.7,0,1,0.7,0,0.7,0,1","1",""
"","html-keyboard-response","148","94755","0.0-220.0","31LVTDXBL8WCBHQWHL9G78IME7KRLB","A82Q1HS5CPZ5I","3SA4EMRVJVOCGON1OYE6FAUV3JU0PO","","null","<img src=""img/food3.png"" style=""width:200px; border:14px solid green;"">","null","","","","","","","","","",""
"","image-keyboard-response","149","95038","0.0-222.0","31LVTDXBL8WCBHQWHL9G78IME7KRLB","A82Q1HS5CPZ5I","3SA4EMRVJVOCGON1OYE6FAUV3JU0PO","","282","img/food1.png","74","282.5","1","0","false","3","2","1,0.7,0,1,0.7,0,0.7,0,1","1,0.7,0,1,0.7,0,0.7,0,1","1",""
"","html-keyboard-response","150","95339","0.0-223.0","31LVTDXBL8WCBHQWHL9G78IME7KRLB","A82Q1HS5CPZ5I","3SA4EMRVJVOCGON1OYE6FAUV3JU0PO","","null","<img src=""img/food1.png"" style=""width:200px;border:14px solid red;"">","null","","","","","","","","","",""
"","image-keyboard-response","151","95704","0.0-225.0","31LVTDXBL8WCBHQWHL9G78IME7KRLB","A82Q1HS5CPZ5I","3SA4EMRVJVOCGON1OYE6FAUV3JU0PO","","363.6000000014901","img/food2.png","74","364.1000000014901","1","1","false","1","2","1,0.7,0,1,0.7,0,0.7,0,1","1,0.7,0,1,0.7,0,0.7,0,1","1",""
"","html-keyboard-response","152","96005","0.0-226.0","31LVTDXBL8WCBHQWHL9G78IME7KRLB","A82Q1HS5CPZ5I","3SA4EMRVJVOCGON1OYE6FAUV3JU0PO","","null","<img src=""img/food2.png"" style=""width:200px; border:14px solid green;"">","null","","","","","","","","","",""
"","image-keyboard-response","153","96408","0.0-228.0","31LVTDXBL8WCBHQWHL9G78IME7KRLB","A82Q1HS5CPZ5I","3SA4EMRVJVOCGON1OYE6FAUV3JU0PO","","401.69999999552965","img/food2.png","74","402.20000000298023","1","1","false","1","2","1,0.7,0,1,0.7,0,0.7,0,1","1,0.7,0,1,0.7,0,0.7,0,1","1",""
"","html-keyboard-response","154","96709","0.0-229.0","31LVTDXBL8WCBHQWHL9G78IME7KRLB","A82Q1HS5CPZ5I","3SA4EMRVJVOCGON1OYE6FAUV3JU0PO","","null","<img src=""img/food2.png"" style=""width:200px; border:14px solid green;"">","null","","","","","","","","","",""
"","image-keyboard-response","155","97254","0.0-231.0","31LVTDXBL8WCBHQWHL9G78IME7KRLB","A82Q1HS5CPZ5I","3SA4EMRVJVOCGON1OYE6FAUV3JU0PO","","543.8000000044703","img/food3.png","74","544.5","1","1","false","2","2","1,0.7,0,1,0.7,0,0.7,0,1","1,0.7,0,1,0.7,0,0.7,0,1","1",""
"","html-keyboard-response","156","97556","0.0-232.0","31LVTDXBL8WCBHQWHL9G78IME7KRLB","A82Q1HS5CPZ5I","3SA4EMRVJVOCGON1OYE6FAUV3JU0PO","","null","<img src=""img/food3.png"" style=""width:200px; border:14px solid green;"">","null","","","","","","","","","",""
"","image-keyboard-response","157","97858","0.0-234.0","31LVTDXBL8WCBHQWHL9G78IME7KRLB","A82Q1HS5CPZ5I","3SA4EMRVJVOCGON1OYE6FAUV3JU0PO","","301.29999999701977","img/food3.png","74","301.79999999701977","1","1","false","2","2","1,0.7,0,1,0.7,0,0.7,0,1","1,0.7,0,1,0.7,0,0.7,0,1","1",""
"","html-keyboard-response","158","98158","0.0-235.0","31LVTDXBL8WCBHQWHL9G78IME7KRLB","A82Q1HS5CPZ5I","3SA4EMRVJVOCGON1OYE6FAUV3JU0PO","","null","<img src=""img/food3.png"" style=""width:200px; border:14px solid green;"">","null","","","","","","","","","",""
"","image-keyboard-response","159","98586","0.0-237.0","31LVTDXBL8WCBHQWHL9G78IME7KRLB","A82Q1HS5CPZ5I","3SA4EMRVJVOCGON1OYE6FAUV3JU0PO","","426.69999999552965","img/food1.png","76","427.20000000298023","3","1","false","3","2","1,0.7,0,1,0.7,0,0.7,0,1","1,0.7,0,1,0.7,0,0.7,0,1","1",""
"","html-keyboard-response","160","98887","0.0-238.0","31LVTDXBL8WCBHQWHL9G78IME7KRLB","A82Q1HS5CPZ5I","3SA4EMRVJVOCGON1OYE6FAUV3JU0PO","","null","<img src=""img/food1.png"" style=""width:200px; border:14px solid green;"">","null","","","","","","","","","",""
"","image-keyboard-response","161","99208","0.0-240.0","31LVTDXBL8WCBHQWHL9G78IME7KRLB","A82Q1HS5CPZ5I","3SA4EMRVJVOCGON1OYE6FAUV3JU0PO","","320.1000000014901","img/food3.png","74","320.70000000298023","1","1","false","2","2","1,0.7,0,1,0.7,0,0.7,0,1","1,0.7,0,1,0.7,0,0.7,0,1","1",""
"","html-keyboard-response","162","99509","0.0-241.0","31LVTDXBL8WCBHQWHL9G78IME7KRLB","A82Q1HS5CPZ5I","3SA4EMRVJVOCGON1OYE6FAUV3JU0PO","","null","<img src=""img/food3.png"" style=""width:200px; border:14px solid green;"">","null","","","","","","","","","",""
"","image-keyboard-response","163","99794","0.0-243.0","31LVTDXBL8WCBHQWHL9G78IME7KRLB","A82Q1HS5CPZ5I","3SA4EMRVJVOCGON1OYE6FAUV3JU0PO","","284.1000000014901","img/food3.png","74","284.70000000298023","1","1","false","2","2","1,0.7,0,1,0.7,0,0.7,0,1","1,0.7,0,1,0.7,0,0.7,0,1","1",""
"","html-keyboard-response","164","100095","0.0-244.0","31LVTDXBL8WCBHQWHL9G78IME7KRLB","A82Q1HS5CPZ5I","3SA4EMRVJVOCGON1OYE6FAUV3JU0PO","","null","<img src=""img/food3.png"" style=""width:200px; border:14px solid green;"">","null","","","","","","","","","",""
"","image-keyboard-response","165","100376","0.0-246.0","31LVTDXBL8WCBHQWHL9G78IME7KRLB","A82Q1HS5CPZ5I","3SA4EMRVJVOCGON1OYE6FAUV3JU0PO","","280.3999999985099","img/food3.png","74","281.09999999403954","1","1","false","2","2","1,0.7,0,1,0.7,0,0.7,0,1","1,0.7,0,1,0.7,0,0.7,0,1","1",""
"","html-keyboard-response","166","100677","0.0-247.0","31LVTDXBL8WCBHQWHL9G78IME7KRLB","A82Q1HS5CPZ5I","3SA4EMRVJVOCGON1OYE6FAUV3JU0PO","","null","<img src=""img/food3.png"" style=""width:200px; border:14px solid green;"">","null","","","","","","","","","",""
"","image-keyboard-response","167","101062","0.0-249.0","31LVTDXBL8WCBHQWHL9G78IME7KRLB","A82Q1HS5CPZ5I","3SA4EMRVJVOCGON1OYE6FAUV3JU0PO","","383.8999999985099","img/food2.png","74","384.5","1","1","false","1","2","1,0.7,0,1,0.7,0,0.7,0,1","1,0.7,0,1,0.7,0,0.7,0,1","1",""
"","html-keyboard-response","168","101364","0.0-250.0","31LVTDXBL8WCBHQWHL9G78IME7KRLB","A82Q1HS5CPZ5I","3SA4EMRVJVOCGON1OYE6FAUV3JU0PO","","null","<img src=""img/food2.png"" style=""width:200px; border:14px solid green;"">","null","","","","","","","","","",""
"","image-keyboard-response","169","101646","0.0-252.0","31LVTDXBL8WCBHQWHL9G78IME7KRLB","A82Q1HS5CPZ5I","3SA4EMRVJVOCGON1OYE6FAUV3JU0PO","","281.3999999985099","img/food2.png","74","281.8999999985099","1","1","false","1","2","1,0.7,0,1,0.7,0,0.7,0,1","1,0.7,0,1,0.7,0,0.7,0,1","1",""
"","html-keyboard-response","170","101948","0.0-253.0","31LVTDXBL8WCBHQWHL9G78IME7KRLB","A82Q1HS5CPZ5I","3SA4EMRVJVOCGON1OYE6FAUV3JU0PO","","null","<img src=""img/food2.png"" style=""width:200px; border:14px solid green;"">","null","","","","","","","","","",""
"","image-keyboard-response","171","102230","0.0-255.0","31LVTDXBL8WCBHQWHL9G78IME7KRLB","A82Q1HS5CPZ5I","3SA4EMRVJVOCGON1OYE6FAUV3JU0PO","","281","img/food2.png","74","281.6000000014901","1","1","false","1","2","1,0.7,0,1,0.7,0,0.7,0,1","1,0.7,0,1,0.7,0,0.7,0,1","1",""
"","html-keyboard-response","172","102532","0.0-256.0","31LVTDXBL8WCBHQWHL9G78IME7KRLB","A82Q1HS5CPZ5I","3SA4EMRVJVOCGON1OYE6FAUV3JU0PO","","null","<img src=""img/food2.png"" style=""width:200px; border:14px solid green;"">","null","","","","","","","","","",""
"","image-keyboard-response","173","103156","0.0-258.0","31LVTDXBL8WCBHQWHL9G78IME7KRLB","A82Q1HS5CPZ5I","3SA4EMRVJVOCGON1OYE6FAUV3JU0PO","","623.9000000059605","img/food3.png","74","624.5","1","1","false","2","2","1,0.7,0,1,0.7,0,0.7,0,1","1,0.7,0,1,0.7,0,0.7,0,1","1",""
"","html-keyboard-response","174","103458","0.0-259.0","31LVTDXBL8WCBHQWHL9G78IME7KRLB","A82Q1HS5CPZ5I","3SA4EMRVJVOCGON1OYE6FAUV3JU0PO","","null","<img src=""img/food3.png"" style=""width:200px; border:14px solid green;"">","null","","","","","","","","","",""
"","image-keyboard-response","175","103802","0.0-261.0","31LVTDXBL8WCBHQWHL9G78IME7KRLB","A82Q1HS5CPZ5I","3SA4EMRVJVOCGON1OYE6FAUV3JU0PO","","343.29999999701977","img/food2.png","74","343.79999999701977","1","1","false","1","2","1,0.7,0,1,0.7,0,0.7,0,1","1,0.7,0,1,0.7,0,0.7,0,1","1",""
"","html-keyboard-response","176","104103","0.0-262.0","31LVTDXBL8WCBHQWHL9G78IME7KRLB","A82Q1HS5CPZ5I","3SA4EMRVJVOCGON1OYE6FAUV3JU0PO","","null","<img src=""img/food2.png"" style=""width:200px; border:14px solid green;"">","null","","","","","","","","","",""
"","image-keyboard-response","177","104466","0.0-264.0","31LVTDXBL8WCBHQWHL9G78IME7KRLB","A82Q1HS5CPZ5I","3SA4EMRVJVOCGON1OYE6FAUV3JU0PO","","362.3999999985099","img/food2.png","76","363","3","0","false","1","2","1,0.7,0,1,0.7,0,0.7,0,1","1,0.7,0,1,0.7,0,0.7,0,1","1",""
"","html-keyboard-response","178","104768","0.0-265.0","31LVTDXBL8WCBHQWHL9G78IME7KRLB","A82Q1HS5CPZ5I","3SA4EMRVJVOCGON1OYE6FAUV3JU0PO","","null","<img src=""img/food2.png"" style=""width:200px;border:14px solid red;"">","null","","","","","","","","","",""
"","image-keyboard-response","179","105030","0.0-267.0","31LVTDXBL8WCBHQWHL9G78IME7KRLB","A82Q1HS5CPZ5I","3SA4EMRVJVOCGON1OYE6FAUV3JU0PO","","261","img/food1.png","74","261.59999999403954","1","1","false","3","2","1,0.7,0,1,0.7,0,0.7,0,1","1,0.7,0,1,0.7,0,0.7,0,1","1",""
"","html-keyboard-response","180","105332","0.0-268.0","31LVTDXBL8WCBHQWHL9G78IME7KRLB","A82Q1HS5CPZ5I","3SA4EMRVJVOCGON1OYE6FAUV3JU0PO","","null","<img src=""img/food1.png"" style=""width:200px; border:14px solid green;"">","null","","","","","","","","","",""
"","image-keyboard-response","181","105856","0.0-270.0","31LVTDXBL8WCBHQWHL9G78IME7KRLB","A82Q1HS5CPZ5I","3SA4EMRVJVOCGON1OYE6FAUV3JU0PO","","523","img/food2.png","74","523.8000000044703","1","1","false","1","2","1,0.7,0,1,0.7,0,0.7,0,1","1,0.7,0,1,0.7,0,0.7,0,1","1",""
"","html-keyboard-response","182","106157","0.0-271.0","31LVTDXBL8WCBHQWHL9G78IME7KRLB","A82Q1HS5CPZ5I","3SA4EMRVJVOCGON1OYE6FAUV3JU0PO","","null","<img src=""img/food2.png"" style=""width:200px; border:14px solid green;"">","null","","","","","","","","","",""
"","instructions","183","112783","0.0-273.0","31LVTDXBL8WCBHQWHL9G78IME7KRLB","A82Q1HS5CPZ5I","3SA4EMRVJVOCGON1OYE6FAUV3JU0PO","[{""page_index"":0,""viewing_time"":4727.5},{""page_index"":1,""viewing_time"":1898.2000000029802}]","6625.80000000447","","","","","","","","","","","",""
"","image-keyboard-response","184","113672","0.0-274.0","31LVTDXBL8WCBHQWHL9G78IME7KRLB","A82Q1HS5CPZ5I","3SA4EMRVJVOCGON1OYE6FAUV3JU0PO","","888","img/food4.png","74","888.6000000014901","1","0","","2","1","1,0.7,0,1,0.7,0,0.7,0,1","0.7,0,1,0.7,0,1,0,1,0.7","2",""
"","html-keyboard-response","185","113973","0.0-275.0","31LVTDXBL8WCBHQWHL9G78IME7KRLB","A82Q1HS5CPZ5I","3SA4EMRVJVOCGON1OYE6FAUV3JU0PO","","null","<img src=""img/food4.png"" style=""width:200px;border:14px solid red;"">","null","","","","","","","","","",""
"","image-keyboard-response","186","114478","0.0-276.0","31LVTDXBL8WCBHQWHL9G78IME7KRLB","A82Q1HS5CPZ5I","3SA4EMRVJVOCGON1OYE6FAUV3JU0PO","","504","img/food4.png","76","504.5","3","1","","2","1","1,0.7,0,1,0.7,0,0.7,0,1","0.7,0,1,0.7,0,1,0,1,0.7","2",""
"","html-keyboard-response","187","114779","0.0-277.0","31LVTDXBL8WCBHQWHL9G78IME7KRLB","A82Q1HS5CPZ5I","3SA4EMRVJVOCGON1OYE6FAUV3JU0PO","","null","<img src=""img/food4.png"" style=""width:200px; border:14px solid green;"">","null","","","","","","","","","",""
"","image-keyboard-response","188","115666","0.0-278.0","31LVTDXBL8WCBHQWHL9G78IME7KRLB","A82Q1HS5CPZ5I","3SA4EMRVJVOCGON1OYE6FAUV3JU0PO","","886.2000000029802","img/food6.png","74","886.7999999970198","1","0","","3","1","1,0.7,0,1,0.7,0,0.7,0,1","0.7,0,1,0.7,0,1,0,1,0.7","2",""
"","html-keyboard-response","189","115967","0.0-279.0","31LVTDXBL8WCBHQWHL9G78IME7KRLB","A82Q1HS5CPZ5I","3SA4EMRVJVOCGON1OYE6FAUV3JU0PO","","null","<img src=""img/food6.png"" style=""width:200px;border:14px solid red;"">","null","","","","","","","","","",""
"","image-keyboard-response","190","116854","0.0-280.0","31LVTDXBL8WCBHQWHL9G78IME7KRLB","A82Q1HS5CPZ5I","3SA4EMRVJVOCGON1OYE6FAUV3JU0PO","","885.6999999955297","img/food5.png","76","886.5","3","1","","1","1","1,0.7,0,1,0.7,0,0.7,0,1","0.7,0,1,0.7,0,1,0,1,0.7","2",""
"","html-keyboard-response","191","117155","0.0-281.0","31LVTDXBL8WCBHQWHL9G78IME7KRLB","A82Q1HS5CPZ5I","3SA4EMRVJVOCGON1OYE6FAUV3JU0PO","","null","<img src=""img/food5.png"" style=""width:200px; border:14px solid green;"">","null","","","","","","","","","",""
"","image-keyboard-response","192","117720","0.0-282.0","31LVTDXBL8WCBHQWHL9G78IME7KRLB","A82Q1HS5CPZ5I","3SA4EMRVJVOCGON1OYE6FAUV3JU0PO","","564.6000000014901","img/food6.png","75","565.0999999940395","2","1","","3","1","1,0.7,0,1,0.7,0,0.7,0,1","0.7,0,1,0.7,0,1,0,1,0.7","2",""
"","html-keyboard-response","193","118021","0.0-283.0","31LVTDXBL8WCBHQWHL9G78IME7KRLB","A82Q1HS5CPZ5I","3SA4EMRVJVOCGON1OYE6FAUV3JU0PO","","null","<img src=""img/food6.png"" style=""width:200px; border:14px solid green;"">","null","","","","","","","","","",""
"","image-keyboard-response","194","118406","0.0-284.0","31LVTDXBL8WCBHQWHL9G78IME7KRLB","A82Q1HS5CPZ5I","3SA4EMRVJVOCGON1OYE6FAUV3JU0PO","","384.19999999552965","img/food5.png","76","384.70000000298023","3","1","","1","1","1,0.7,0,1,0.7,0,0.7,0,1","0.7,0,1,0.7,0,1,0,1,0.7","2",""
"","html-keyboard-response","195","118708","0.0-285.0","31LVTDXBL8WCBHQWHL9G78IME7KRLB","A82Q1HS5CPZ5I","3SA4EMRVJVOCGON1OYE6FAUV3JU0PO","","null","<img src=""img/food5.png"" style=""width:200px; border:14px solid green;"">","null","","","","","","","","","",""
"","image-keyboard-response","196","119089","0.0-286.0","31LVTDXBL8WCBHQWHL9G78IME7KRLB","A82Q1HS5CPZ5I","3SA4EMRVJVOCGON1OYE6FAUV3JU0PO","","380.69999999552965","img/food4.png","76","381.40000000596046","3","1","","2","1","1,0.7,0,1,0.7,0,0.7,0,1","0.7,0,1,0.7,0,1,0,1,0.7","2",""
"","html-keyboard-response","197","119392","0.0-287.0","31LVTDXBL8WCBHQWHL9G78IME7KRLB","A82Q1HS5CPZ5I","3SA4EMRVJVOCGON1OYE6FAUV3JU0PO","","null","<img src=""img/food4.png"" style=""width:200px; border:14px solid green;"">","null","","","","","","","","","",""
"","image-keyboard-response","198","119835","0.0-288.0","31LVTDXBL8WCBHQWHL9G78IME7KRLB","A82Q1HS5CPZ5I","3SA4EMRVJVOCGON1OYE6FAUV3JU0PO","","443","img/food6.png","75","443.70000000298023","2","1","","3","1","1,0.7,0,1,0.7,0,0.7,0,1","0.7,0,1,0.7,0,1,0,1,0.7","2",""
"","html-keyboard-response","199","120137","0.0-289.0","31LVTDXBL8WCBHQWHL9G78IME7KRLB","A82Q1HS5CPZ5I","3SA4EMRVJVOCGON1OYE6FAUV3JU0PO","","null","<img src=""img/food6.png"" style=""width:200px; border:14px solid green;"">","null","","","","","","","","","",""
"","image-keyboard-response","200","120379","0.0-290.0","31LVTDXBL8WCBHQWHL9G78IME7KRLB","A82Q1HS5CPZ5I","3SA4EMRVJVOCGON1OYE6FAUV3JU0PO","","242.10000000149012","img/food4.png","76","242.60000000149012","3","1","","2","1","1,0.7,0,1,0.7,0,0.7,0,1","0.7,0,1,0.7,0,1,0,1,0.7","2",""
"","html-keyboard-response","201","120682","0.0-291.0","31LVTDXBL8WCBHQWHL9G78IME7KRLB","A82Q1HS5CPZ5I","3SA4EMRVJVOCGON1OYE6FAUV3JU0PO","","null","<img src=""img/food4.png"" style=""width:200px; border:14px solid green;"">","null","","","","","","","","","",""
"","image-keyboard-response","202","121226","0.0-292.0","31LVTDXBL8WCBHQWHL9G78IME7KRLB","A82Q1HS5CPZ5I","3SA4EMRVJVOCGON1OYE6FAUV3JU0PO","","543.1000000014901","img/food6.png","75","543.5999999940395","2","1","","3","1","1,0.7,0,1,0.7,0,0.7,0,1","0.7,0,1,0.7,0,1,0,1,0.7","2",""
"","html-keyboard-response","203","121527","0.0-293.0","31LVTDXBL8WCBHQWHL9G78IME7KRLB","A82Q1HS5CPZ5I","3SA4EMRVJVOCGON1OYE6FAUV3JU0PO","","null","<img src=""img/food6.png"" style=""width:200px; border:14px solid green;"">","null","","","","","","","","","",""
"","image-keyboard-response","204","121769","0.0-294.0","31LVTDXBL8WCBHQWHL9G78IME7KRLB","A82Q1HS5CPZ5I","3SA4EMRVJVOCGON1OYE6FAUV3JU0PO","","241.59999999403954","img/food4.png","76","242.20000000298023","3","1","","2","1","1,0.7,0,1,0.7,0,0.7,0,1","0.7,0,1,0.7,0,1,0,1,0.7","2",""
"","html-keyboard-response","205","122071","0.0-295.0","31LVTDXBL8WCBHQWHL9G78IME7KRLB","A82Q1HS5CPZ5I","3SA4EMRVJVOCGON1OYE6FAUV3JU0PO","","null","<img src=""img/food4.png"" style=""width:200px; border:14px solid green;"">","null","","","","","","","","","",""
"","image-keyboard-response","206","122595","0.0-296.0","31LVTDXBL8WCBHQWHL9G78IME7KRLB","A82Q1HS5CPZ5I","3SA4EMRVJVOCGON1OYE6FAUV3JU0PO","","523.8999999985099","img/food6.png","75","524.5","2","1","","3","1","1,0.7,0,1,0.7,0,0.7,0,1","0.7,0,1,0.7,0,1,0,1,0.7","2",""
"","html-keyboard-response","207","122898","0.0-297.0","31LVTDXBL8WCBHQWHL9G78IME7KRLB","A82Q1HS5CPZ5I","3SA4EMRVJVOCGON1OYE6FAUV3JU0PO","","null","<img src=""img/food6.png"" style=""width:200px; border:14px solid green;"">","null","","","","","","","","","",""
"","image-keyboard-response","208","123159","0.0-298.0","31LVTDXBL8WCBHQWHL9G78IME7KRLB","A82Q1HS5CPZ5I","3SA4EMRVJVOCGON1OYE6FAUV3JU0PO","","261.20000000298023","img/food4.png","76","261.6000000014901","3","1","","2","1","1,0.7,0,1,0.7,0,0.7,0,1","0.7,0,1,0.7,0,1,0,1,0.7","2",""
"","html-keyboard-response","209","123461","0.0-299.0","31LVTDXBL8WCBHQWHL9G78IME7KRLB","A82Q1HS5CPZ5I","3SA4EMRVJVOCGON1OYE6FAUV3JU0PO","","null","<img src=""img/food4.png"" style=""width:200px; border:14px solid green;"">","null","","","","","","","","","",""
"","image-keyboard-response","210","123764","0.0-300.0","31LVTDXBL8WCBHQWHL9G78IME7KRLB","A82Q1HS5CPZ5I","3SA4EMRVJVOCGON1OYE6FAUV3JU0PO","","302.5","img/food5.png","76","303.30000000447035","3","1","","1","1","1,0.7,0,1,0.7,0,0.7,0,1","0.7,0,1,0.7,0,1,0,1,0.7","2",""
"","html-keyboard-response","211","124066","0.0-301.0","31LVTDXBL8WCBHQWHL9G78IME7KRLB","A82Q1HS5CPZ5I","3SA4EMRVJVOCGON1OYE6FAUV3JU0PO","","null","<img src=""img/food5.png"" style=""width:200px; border:14px solid green;"">","null","","","","","","","","","",""
"","image-keyboard-response","212","124428","0.0-302.0","31LVTDXBL8WCBHQWHL9G78IME7KRLB","A82Q1HS5CPZ5I","3SA4EMRVJVOCGON1OYE6FAUV3JU0PO","","361.20000000298023","img/food4.png","76","362","3","1","","2","1","1,0.7,0,1,0.7,0,0.7,0,1","0.7,0,1,0.7,0,1,0,1,0.7","2",""
"","html-keyboard-response","213","124729","0.0-303.0","31LVTDXBL8WCBHQWHL9G78IME7KRLB","A82Q1HS5CPZ5I","3SA4EMRVJVOCGON1OYE6FAUV3JU0PO","","null","<img src=""img/food4.png"" style=""width:200px; border:14px solid green;"">","null","","","","","","","","","",""
"","image-keyboard-response","214","125153","0.0-304.0","31LVTDXBL8WCBHQWHL9G78IME7KRLB","A82Q1HS5CPZ5I","3SA4EMRVJVOCGON1OYE6FAUV3JU0PO","","424.1000000014901","img/food6.png","75","424.70000000298023","2","1","","3","1","1,0.7,0,1,0.7,0,0.7,0,1","0.7,0,1,0.7,0,1,0,1,0.7","2",""
"","html-keyboard-response","215","125455","0.0-305.0","31LVTDXBL8WCBHQWHL9G78IME7KRLB","A82Q1HS5CPZ5I","3SA4EMRVJVOCGON1OYE6FAUV3JU0PO","","null","<img src=""img/food6.png"" style=""width:200px; border:14px solid green;"">","null","","","","","","","","","",""
"","image-keyboard-response","216","125697","0.0-306.0","31LVTDXBL8WCBHQWHL9G78IME7KRLB","A82Q1HS5CPZ5I","3SA4EMRVJVOCGON1OYE6FAUV3JU0PO","","241.5","img/food5.png","76","242.20000000298023","3","1","","1","1","1,0.7,0,1,0.7,0,0.7,0,1","0.7,0,1,0.7,0,1,0,1,0.7","2",""
"","html-keyboard-response","217","125999","0.0-307.0","31LVTDXBL8WCBHQWHL9G78IME7KRLB","A82Q1HS5CPZ5I","3SA4EMRVJVOCGON1OYE6FAUV3JU0PO","","null","<img src=""img/food5.png"" style=""width:200px; border:14px solid green;"">","null","","","","","","","","","",""
"","image-keyboard-response","218","126281","0.0-308.0","31LVTDXBL8WCBHQWHL9G78IME7KRLB","A82Q1HS5CPZ5I","3SA4EMRVJVOCGON1OYE6FAUV3JU0PO","","281.6000000014901","img/food4.png","76","282.20000000298023","3","1","","2","1","1,0.7,0,1,0.7,0,0.7,0,1","0.7,0,1,0.7,0,1,0,1,0.7","2",""
"","html-keyboard-response","219","126583","0.0-309.0","31LVTDXBL8WCBHQWHL9G78IME7KRLB","A82Q1HS5CPZ5I","3SA4EMRVJVOCGON1OYE6FAUV3JU0PO","","null","<img src=""img/food4.png"" style=""width:200px; border:14px solid green;"">","null","","","","","","","","","",""
"","image-keyboard-response","220","126907","0.0-310.0","31LVTDXBL8WCBHQWHL9G78IME7KRLB","A82Q1HS5CPZ5I","3SA4EMRVJVOCGON1OYE6FAUV3JU0PO","","323.69999999552965","img/food4.png","76","324.30000000447035","3","1","","2","1","1,0.7,0,1,0.7,0,0.7,0,1","0.7,0,1,0.7,0,1,0,1,0.7","2",""
"","html-keyboard-response","221","127208","0.0-311.0","31LVTDXBL8WCBHQWHL9G78IME7KRLB","A82Q1HS5CPZ5I","3SA4EMRVJVOCGON1OYE6FAUV3JU0PO","","null","<img src=""img/food4.png"" style=""width:200px; border:14px solid green;"">","null","","","","","","","","","",""
"","image-keyboard-response","222","127732","0.0-312.0","31LVTDXBL8WCBHQWHL9G78IME7KRLB","A82Q1HS5CPZ5I","3SA4EMRVJVOCGON1OYE6FAUV3JU0PO","","523.2999999970198","img/food6.png","75","523.7999999970198","2","1","","3","1","1,0.7,0,1,0.7,0,0.7,0,1","0.7,0,1,0.7,0,1,0,1,0.7","2",""
"","html-keyboard-response","223","128034","0.0-313.0","31LVTDXBL8WCBHQWHL9G78IME7KRLB","A82Q1HS5CPZ5I","3SA4EMRVJVOCGON1OYE6FAUV3JU0PO","","null","<img src=""img/food6.png"" style=""width:200px; border:14px solid green;"">","null","","","","","","","","","",""
"","image-keyboard-response","224","128276","0.0-314.0","31LVTDXBL8WCBHQWHL9G78IME7KRLB","A82Q1HS5CPZ5I","3SA4EMRVJVOCGON1OYE6FAUV3JU0PO","","241.89999999850988","img/food5.png","76","242.5","3","1","","1","1","1,0.7,0,1,0.7,0,0.7,0,1","0.7,0,1,0.7,0,1,0,1,0.7","2",""
"","html-keyboard-response","225","128577","0.0-315.0","31LVTDXBL8WCBHQWHL9G78IME7KRLB","A82Q1HS5CPZ5I","3SA4EMRVJVOCGON1OYE6FAUV3JU0PO","","null","<img src=""img/food5.png"" style=""width:200px; border:14px solid green;"">","null","","","","","","","","","",""
"","image-keyboard-response","226","128879","0.0-316.0","31LVTDXBL8WCBHQWHL9G78IME7KRLB","A82Q1HS5CPZ5I","3SA4EMRVJVOCGON1OYE6FAUV3JU0PO","","301.3999999985099","img/food4.png","76","301.8999999985099","3","1","","2","1","1,0.7,0,1,0.7,0,0.7,0,1","0.7,0,1,0.7,0,1,0,1,0.7","2",""
"","html-keyboard-response","227","129180","0.0-317.0","31LVTDXBL8WCBHQWHL9G78IME7KRLB","A82Q1HS5CPZ5I","3SA4EMRVJVOCGON1OYE6FAUV3JU0PO","","null","<img src=""img/food4.png"" style=""width:200px; border:14px solid green;"">","null","","","","","","","","","",""
"","image-keyboard-response","228","129524","0.0-318.0","31LVTDXBL8WCBHQWHL9G78IME7KRLB","A82Q1HS5CPZ5I","3SA4EMRVJVOCGON1OYE6FAUV3JU0PO","","342.3999999985099","img/food4.png","76","343.80000000447035","3","1","","2","1","1,0.7,0,1,0.7,0,0.7,0,1","0.7,0,1,0.7,0,1,0,1,0.7","2",""
"","html-keyboard-response","229","129826","0.0-319.0","31LVTDXBL8WCBHQWHL9G78IME7KRLB","A82Q1HS5CPZ5I","3SA4EMRVJVOCGON1OYE6FAUV3JU0PO","","null","<img src=""img/food4.png"" style=""width:200px; border:14px solid green;"">","null","","","","","","","","","",""
"","image-keyboard-response","230","130289","0.0-320.0","31LVTDXBL8WCBHQWHL9G78IME7KRLB","A82Q1HS5CPZ5I","3SA4EMRVJVOCGON1OYE6FAUV3JU0PO","","462.8999999985099","img/food6.png","75","463.5","2","1","","3","1","1,0.7,0,1,0.7,0,0.7,0,1","0.7,0,1,0.7,0,1,0,1,0.7","2",""
"","html-keyboard-response","231","130592","0.0-321.0","31LVTDXBL8WCBHQWHL9G78IME7KRLB","A82Q1HS5CPZ5I","3SA4EMRVJVOCGON1OYE6FAUV3JU0PO","","null","<img src=""img/food6.png"" style=""width:200px; border:14px solid green;"">","null","","","","","","","","","",""
"","image-keyboard-response","232","130833","0.0-322.0","31LVTDXBL8WCBHQWHL9G78IME7KRLB","A82Q1HS5CPZ5I","3SA4EMRVJVOCGON1OYE6FAUV3JU0PO","","241","img/food5.png","76","241.70000000298023","3","1","","1","1","1,0.7,0,1,0.7,0,0.7,0,1","0.7,0,1,0.7,0,1,0,1,0.7","2",""
"","html-keyboard-response","233","131135","0.0-323.0","31LVTDXBL8WCBHQWHL9G78IME7KRLB","A82Q1HS5CPZ5I","3SA4EMRVJVOCGON1OYE6FAUV3JU0PO","","null","<img src=""img/food5.png"" style=""width:200px; border:14px solid green;"">","null","","","","","","","","","",""
"","image-keyboard-response","234","131398","0.0-324.0","31LVTDXBL8WCBHQWHL9G78IME7KRLB","A82Q1HS5CPZ5I","3SA4EMRVJVOCGON1OYE6FAUV3JU0PO","","262.20000000298023","img/food4.png","76","262.79999999701977","3","1","","2","1","1,0.7,0,1,0.7,0,0.7,0,1","0.7,0,1,0.7,0,1,0,1,0.7","2",""
"","html-keyboard-response","235","131700","0.0-325.0","31LVTDXBL8WCBHQWHL9G78IME7KRLB","A82Q1HS5CPZ5I","3SA4EMRVJVOCGON1OYE6FAUV3JU0PO","","null","<img src=""img/food4.png"" style=""width:200px; border:14px solid green;"">","null","","","","","","","","","",""
"","image-keyboard-response","236","132183","0.0-326.0","31LVTDXBL8WCBHQWHL9G78IME7KRLB","A82Q1HS5CPZ5I","3SA4EMRVJVOCGON1OYE6FAUV3JU0PO","","482.09999999403954","img/food5.png","76","482.80000000447035","3","1","","1","1","1,0.7,0,1,0.7,0,0.7,0,1","0.7,0,1,0.7,0,1,0,1,0.7","2",""
"","html-keyboard-response","237","132485","0.0-327.0","31LVTDXBL8WCBHQWHL9G78IME7KRLB","A82Q1HS5CPZ5I","3SA4EMRVJVOCGON1OYE6FAUV3JU0PO","","null","<img src=""img/food5.png"" style=""width:200px; border:14px solid green;"">","null","","","","","","","","","",""
"","image-keyboard-response","238","132927","0.0-328.0","31LVTDXBL8WCBHQWHL9G78IME7KRLB","A82Q1HS5CPZ5I","3SA4EMRVJVOCGON1OYE6FAUV3JU0PO","","441.79999999701977","img/food6.png","75","442.5","2","1","","3","1","1,0.7,0,1,0.7,0,0.7,0,1","0.7,0,1,0.7,0,1,0,1,0.7","2",""
"","html-keyboard-response","239","133229","0.0-329.0","31LVTDXBL8WCBHQWHL9G78IME7KRLB","A82Q1HS5CPZ5I","3SA4EMRVJVOCGON1OYE6FAUV3JU0PO","","null","<img src=""img/food6.png"" style=""width:200px; border:14px solid green;"">","null","","","","","","","","","",""
"","image-keyboard-response","240","133511","0.0-330.0","31LVTDXBL8WCBHQWHL9G78IME7KRLB","A82Q1HS5CPZ5I","3SA4EMRVJVOCGON1OYE6FAUV3JU0PO","","282.19999999552965","img/food5.png","76","282.70000000298023","3","1","","1","1","1,0.7,0,1,0.7,0,0.7,0,1","0.7,0,1,0.7,0,1,0,1,0.7","2",""
"","html-keyboard-response","241","133813","0.0-331.0","31LVTDXBL8WCBHQWHL9G78IME7KRLB","A82Q1HS5CPZ5I","3SA4EMRVJVOCGON1OYE6FAUV3JU0PO","","null","<img src=""img/food5.png"" style=""width:200px; border:14px solid green;"">","null","","","","","","","","","",""
"","image-keyboard-response","242","134117","0.0-332.0","31LVTDXBL8WCBHQWHL9G78IME7KRLB","A82Q1HS5CPZ5I","3SA4EMRVJVOCGON1OYE6FAUV3JU0PO","","303.8999999985099","img/food4.png","76","304.5","3","1","","2","1","1,0.7,0,1,0.7,0,0.7,0,1","0.7,0,1,0.7,0,1,0,1,0.7","2",""
"","html-keyboard-response","243","134419","0.0-333.0","31LVTDXBL8WCBHQWHL9G78IME7KRLB","A82Q1HS5CPZ5I","3SA4EMRVJVOCGON1OYE6FAUV3JU0PO","","null","<img src=""img/food4.png"" style=""width:200px; border:14px solid green;"">","null","","","","","","","","","",""
"","image-keyboard-response","244","134964","0.0-334.0","31LVTDXBL8WCBHQWHL9G78IME7KRLB","A82Q1HS5CPZ5I","3SA4EMRVJVOCGON1OYE6FAUV3JU0PO","","542.8999999985099","img/food5.png","76","545.2999999970198","3","1","","1","1","1,0.7,0,1,0.7,0,0.7,0,1","0.7,0,1,0.7,0,1,0,1,0.7","2",""
"","html-keyboard-response","245","135265","0.0-335.0","31LVTDXBL8WCBHQWHL9G78IME7KRLB","A82Q1HS5CPZ5I","3SA4EMRVJVOCGON1OYE6FAUV3JU0PO","","null","<img src=""img/food5.png"" style=""width:200px; border:14px solid green;"">","null","","","","","","","","","",""
"","image-keyboard-response","246","135527","0.0-336.0","31LVTDXBL8WCBHQWHL9G78IME7KRLB","A82Q1HS5CPZ5I","3SA4EMRVJVOCGON1OYE6FAUV3JU0PO","","261.3999999985099","img/food6.png","76","261.80000000447035","3","0","","3","1","1,0.7,0,1,0.7,0,0.7,0,1","0.7,0,1,0.7,0,1,0,1,0.7","2",""
"","html-keyboard-response","247","135828","0.0-337.0","31LVTDXBL8WCBHQWHL9G78IME7KRLB","A82Q1HS5CPZ5I","3SA4EMRVJVOCGON1OYE6FAUV3JU0PO","","null","<img src=""img/food6.png"" style=""width:200px;border:14px solid red;"">","null","","","","","","","","","",""
"","image-keyboard-response","248","136333","0.0-338.0","31LVTDXBL8WCBHQWHL9G78IME7KRLB","A82Q1HS5CPZ5I","3SA4EMRVJVOCGON1OYE6FAUV3JU0PO","","504.3999999985099","img/food6.png","75","504.90000000596046","2","1","","3","1","1,0.7,0,1,0.7,0,0.7,0,1","0.7,0,1,0.7,0,1,0,1,0.7","2",""
"","html-keyboard-response","249","136636","0.0-339.0","31LVTDXBL8WCBHQWHL9G78IME7KRLB","A82Q1HS5CPZ5I","3SA4EMRVJVOCGON1OYE6FAUV3JU0PO","","null","<img src=""img/food6.png"" style=""width:200px; border:14px solid green;"">","null","","","","","","","","","",""
"","image-keyboard-response","250","136957","0.0-340.0","31LVTDXBL8WCBHQWHL9G78IME7KRLB","A82Q1HS5CPZ5I","3SA4EMRVJVOCGON1OYE6FAUV3JU0PO","","320.79999999701977","img/food5.png","76","321.30000000447035","3","1","","1","1","1,0.7,0,1,0.7,0,0.7,0,1","0.7,0,1,0.7,0,1,0,1,0.7","2",""
"","html-keyboard-response","251","137259","0.0-341.0","31LVTDXBL8WCBHQWHL9G78IME7KRLB","A82Q1HS5CPZ5I","3SA4EMRVJVOCGON1OYE6FAUV3JU0PO","","null","<img src=""img/food5.png"" style=""width:200px; border:14px solid green;"">","null","","","","","","","","","",""
"","image-keyboard-response","252","137701","0.0-342.0","31LVTDXBL8WCBHQWHL9G78IME7KRLB","A82Q1HS5CPZ5I","3SA4EMRVJVOCGON1OYE6FAUV3JU0PO","","441.79999999701977","img/food6.png","75","442.5","2","1","","3","1","1,0.7,0,1,0.7,0,0.7,0,1","0.7,0,1,0.7,0,1,0,1,0.7","2",""
"","html-keyboard-response","253","138003","0.0-343.0","31LVTDXBL8WCBHQWHL9G78IME7KRLB","A82Q1HS5CPZ5I","3SA4EMRVJVOCGON1OYE6FAUV3JU0PO","","null","<img src=""img/food6.png"" style=""width:200px; border:14px solid green;"">","null","","","","","","","","","",""
"","image-keyboard-response","254","138287","0.0-344.0","31LVTDXBL8WCBHQWHL9G78IME7KRLB","A82Q1HS5CPZ5I","3SA4EMRVJVOCGON1OYE6FAUV3JU0PO","","283.8999999985099","img/food6.png","76","284.5","3","1","","3","1","1,0.7,0,1,0.7,0,0.7,0,1","0.7,0,1,0.7,0,1,0,1,0.7","2",""
"","html-keyboard-response","255","138589","0.0-345.0","31LVTDXBL8WCBHQWHL9G78IME7KRLB","A82Q1HS5CPZ5I","3SA4EMRVJVOCGON1OYE6FAUV3JU0PO","","null","<img src=""img/food6.png"" style=""width:200px; border:14px solid green;"">","null","","","","","","","","","",""
"","image-keyboard-response","256","139095","0.0-346.0","31LVTDXBL8WCBHQWHL9G78IME7KRLB","A82Q1HS5CPZ5I","3SA4EMRVJVOCGON1OYE6FAUV3JU0PO","","505.19999999552965","img/food6.png","75","505.70000000298023","2","1","","3","1","1,0.7,0,1,0.7,0,0.7,0,1","0.7,0,1,0.7,0,1,0,1,0.7","2",""
"","html-keyboard-response","257","139397","0.0-347.0","31LVTDXBL8WCBHQWHL9G78IME7KRLB","A82Q1HS5CPZ5I","3SA4EMRVJVOCGON1OYE6FAUV3JU0PO","","null","<img src=""img/food6.png"" style=""width:200px; border:14px solid green;"">","null","","","","","","","","","",""
"","image-keyboard-response","258","139817","0.0-348.0","31LVTDXBL8WCBHQWHL9G78IME7KRLB","A82Q1HS5CPZ5I","3SA4EMRVJVOCGON1OYE6FAUV3JU0PO","","420","img/food4.png","76","420.3999999985099","3","1","","2","1","1,0.7,0,1,0.7,0,0.7,0,1","0.7,0,1,0.7,0,1,0,1,0.7","2",""
"","html-keyboard-response","259","140118","0.0-349.0","31LVTDXBL8WCBHQWHL9G78IME7KRLB","A82Q1HS5CPZ5I","3SA4EMRVJVOCGON1OYE6FAUV3JU0PO","","null","<img src=""img/food4.png"" style=""width:200px; border:14px solid green;"">","null","","","","","","","","","",""
"","image-keyboard-response","260","140524","0.0-350.0","31LVTDXBL8WCBHQWHL9G78IME7KRLB","A82Q1HS5CPZ5I","3SA4EMRVJVOCGON1OYE6FAUV3JU0PO","","404.19999999552965","img/food5.png","76","405","3","1","","1","1","1,0.7,0,1,0.7,0,0.7,0,1","0.7,0,1,0.7,0,1,0,1,0.7","2",""
"","html-keyboard-response","261","140826","0.0-351.0","31LVTDXBL8WCBHQWHL9G78IME7KRLB","A82Q1HS5CPZ5I","3SA4EMRVJVOCGON1OYE6FAUV3JU0PO","","null","<img src=""img/food5.png"" style=""width:200px; border:14px solid green;"">","null","","","","","","","","","",""
"","image-keyboard-response","262","141347","0.0-352.0","31LVTDXBL8WCBHQWHL9G78IME7KRLB","A82Q1HS5CPZ5I","3SA4EMRVJVOCGON1OYE6FAUV3JU0PO","","521.2000000029802","img/food6.png","75","521.8000000044703","2","1","","3","1","1,0.7,0,1,0.7,0,0.7,0,1","0.7,0,1,0.7,0,1,0,1,0.7","2",""
"","html-keyboard-response","263","141649","0.0-353.0","31LVTDXBL8WCBHQWHL9G78IME7KRLB","A82Q1HS5CPZ5I","3SA4EMRVJVOCGON1OYE6FAUV3JU0PO","","null","<img src=""img/food6.png"" style=""width:200px; border:14px solid green;"">","null","","","","","","","","","",""
"","image-keyboard-response","264","141954","0.0-354.0","31LVTDXBL8WCBHQWHL9G78IME7KRLB","A82Q1HS5CPZ5I","3SA4EMRVJVOCGON1OYE6FAUV3JU0PO","","304.20000000298023","img/food4.png","76","304.79999999701977","3","1","","2","1","1,0.7,0,1,0.7,0,0.7,0,1","0.7,0,1,0.7,0,1,0,1,0.7","2",""
"","html-keyboard-response","265","142256","0.0-355.0","31LVTDXBL8WCBHQWHL9G78IME7KRLB","A82Q1HS5CPZ5I","3SA4EMRVJVOCGON1OYE6FAUV3JU0PO","","null","<img src=""img/food4.png"" style=""width:200px; border:14px solid green;"">","null","","","","","","","","","",""
"","image-keyboard-response","266","142597","0.0-356.0","31LVTDXBL8WCBHQWHL9G78IME7KRLB","A82Q1HS5CPZ5I","3SA4EMRVJVOCGON1OYE6FAUV3JU0PO","","340.3999999985099","img/food4.png","76","340.8999999985099","3","1","","2","1","1,0.7,0,1,0.7,0,0.7,0,1","0.7,0,1,0.7,0,1,0,1,0.7","2",""
"","html-keyboard-response","267","142898","0.0-357.0","31LVTDXBL8WCBHQWHL9G78IME7KRLB","A82Q1HS5CPZ5I","3SA4EMRVJVOCGON1OYE6FAUV3JU0PO","","null","<img src=""img/food4.png"" style=""width:200px; border:14px solid green;"">","null","","","","","","","","","",""
"","image-keyboard-response","268","143343","0.0-358.0","31LVTDXBL8WCBHQWHL9G78IME7KRLB","A82Q1HS5CPZ5I","3SA4EMRVJVOCGON1OYE6FAUV3JU0PO","","444.29999999701977","img/food5.png","75","445","2","0","","1","1","1,0.7,0,1,0.7,0,0.7,0,1","0.7,0,1,0.7,0,1,0,1,0.7","2",""
"","html-keyboard-response","269","143644","0.0-359.0","31LVTDXBL8WCBHQWHL9G78IME7KRLB","A82Q1HS5CPZ5I","3SA4EMRVJVOCGON1OYE6FAUV3JU0PO","","null","<img src=""img/food5.png"" style=""width:200px;border:14px solid red;"">","null","","","","","","","","","",""
"","image-keyboard-response","270","143927","0.0-360.0","31LVTDXBL8WCBHQWHL9G78IME7KRLB","A82Q1HS5CPZ5I","3SA4EMRVJVOCGON1OYE6FAUV3JU0PO","","282.3999999985099","img/food6.png","76","282.80000000447035","3","1","","3","1","1,0.7,0,1,0.7,0,0.7,0,1","0.7,0,1,0.7,0,1,0,1,0.7","2",""
"","html-keyboard-response","271","144228","0.0-361.0","31LVTDXBL8WCBHQWHL9G78IME7KRLB","A82Q1HS5CPZ5I","3SA4EMRVJVOCGON1OYE6FAUV3JU0PO","","null","<img src=""img/food6.png"" style=""width:200px; border:14px solid green;"">","null","","","","","","","","","",""
"","image-keyboard-response","272","144893","0.0-362.0","31LVTDXBL8WCBHQWHL9G78IME7KRLB","A82Q1HS5CPZ5I","3SA4EMRVJVOCGON1OYE6FAUV3JU0PO","","664.5","img/food4.png","76","665","3","1","","2","1","1,0.7,0,1,0.7,0,0.7,0,1","0.7,0,1,0.7,0,1,0,1,0.7","2",""
"","html-keyboard-response","273","145195","0.0-363.0","31LVTDXBL8WCBHQWHL9G78IME7KRLB","A82Q1HS5CPZ5I","3SA4EMRVJVOCGON1OYE6FAUV3JU0PO","","null","<img src=""img/food4.png"" style=""width:200px; border:14px solid green;"">","null","","","","","","","","","",""
"","image-keyboard-response","274","145537","0.0-364.0","31LVTDXBL8WCBHQWHL9G78IME7KRLB","A82Q1HS5CPZ5I","3SA4EMRVJVOCGON1OYE6FAUV3JU0PO","","341.69999999552965","img/food4.png","76","342.30000000447035","3","1","","2","1","1,0.7,0,1,0.7,0,0.7,0,1","0.7,0,1,0.7,0,1,0,1,0.7","2",""
"","html-keyboard-response","275","145839","0.0-365.0","31LVTDXBL8WCBHQWHL9G78IME7KRLB","A82Q1HS5CPZ5I","3SA4EMRVJVOCGON1OYE6FAUV3JU0PO","","null","<img src=""img/food4.png"" style=""width:200px; border:14px solid green;"">","null","","","","","","","","","",""
"","image-keyboard-response","276","146164","0.0-366.0","31LVTDXBL8WCBHQWHL9G78IME7KRLB","A82Q1HS5CPZ5I","3SA4EMRVJVOCGON1OYE6FAUV3JU0PO","","323.3999999985099","img/food4.png","76","324","3","1","","2","1","1,0.7,0,1,0.7,0,0.7,0,1","0.7,0,1,0.7,0,1,0,1,0.7","2",""
"","html-keyboard-response","277","146465","0.0-367.0","31LVTDXBL8WCBHQWHL9G78IME7KRLB","A82Q1HS5CPZ5I","3SA4EMRVJVOCGON1OYE6FAUV3JU0PO","","null","<img src=""img/food4.png"" style=""width:200px; border:14px solid green;"">","null","","","","","","","","","",""
"","image-keyboard-response","278","146947","0.0-368.0","31LVTDXBL8WCBHQWHL9G78IME7KRLB","A82Q1HS5CPZ5I","3SA4EMRVJVOCGON1OYE6FAUV3JU0PO","","481.3999999985099","img/food5.png","76","481.8999999985099","3","1","","1","1","1,0.7,0,1,0.7,0,0.7,0,1","0.7,0,1,0.7,0,1,0,1,0.7","2",""
"","html-keyboard-response","279","147249","0.0-369.0","31LVTDXBL8WCBHQWHL9G78IME7KRLB","A82Q1HS5CPZ5I","3SA4EMRVJVOCGON1OYE6FAUV3JU0PO","","null","<img src=""img/food5.png"" style=""width:200px; border:14px solid green;"">","null","","","","","","","","","",""
"","image-keyboard-response","280","147695","0.0-370.0","31LVTDXBL8WCBHQWHL9G78IME7KRLB","A82Q1HS5CPZ5I","3SA4EMRVJVOCGON1OYE6FAUV3JU0PO","","446.19999999552965","img/food6.png","75","446.80000000447035","2","1","","3","1","1,0.7,0,1,0.7,0,0.7,0,1","0.7,0,1,0.7,0,1,0,1,0.7","2",""
"","html-keyboard-response","281","147998","0.0-371.0","31LVTDXBL8WCBHQWHL9G78IME7KRLB","A82Q1HS5CPZ5I","3SA4EMRVJVOCGON1OYE6FAUV3JU0PO","","null","<img src=""img/food6.png"" style=""width:200px; border:14px solid green;"">","null","","","","","","","","","",""
"","image-keyboard-response","282","148278","0.0-372.0","31LVTDXBL8WCBHQWHL9G78IME7KRLB","A82Q1HS5CPZ5I","3SA4EMRVJVOCGON1OYE6FAUV3JU0PO","","278.79999999701977","img/food5.png","76","279.30000000447035","3","1","","1","1","1,0.7,0,1,0.7,0,0.7,0,1","0.7,0,1,0.7,0,1,0,1,0.7","2",""
"","html-keyboard-response","283","148579","0.0-373.0","31LVTDXBL8WCBHQWHL9G78IME7KRLB","A82Q1HS5CPZ5I","3SA4EMRVJVOCGON1OYE6FAUV3JU0PO","","null","<img src=""img/food5.png"" style=""width:200px; border:14px solid green;"">","null","","","","","","","","","",""
"","image-keyboard-response","284","148861","0.0-374.0","31LVTDXBL8WCBHQWHL9G78IME7KRLB","A82Q1HS5CPZ5I","3SA4EMRVJVOCGON1OYE6FAUV3JU0PO","","281.6000000014901","img/food5.png","76","282.20000000298023","3","1","","1","1","1,0.7,0,1,0.7,0,0.7,0,1","0.7,0,1,0.7,0,1,0,1,0.7","2",""
"","html-keyboard-response","285","149162","0.0-375.0","31LVTDXBL8WCBHQWHL9G78IME7KRLB","A82Q1HS5CPZ5I","3SA4EMRVJVOCGON1OYE6FAUV3JU0PO","","null","<img src=""img/food5.png"" style=""width:200px; border:14px solid green;"">","null","","","","","","","","","",""
"","image-keyboard-response","286","149547","0.0-376.0","31LVTDXBL8WCBHQWHL9G78IME7KRLB","A82Q1HS5CPZ5I","3SA4EMRVJVOCGON1OYE6FAUV3JU0PO","","384.69999999552965","img/food6.png","75","385.30000000447035","2","1","","3","1","1,0.7,0,1,0.7,0,0.7,0,1","0.7,0,1,0.7,0,1,0,1,0.7","2",""
"","html-keyboard-response","287","149849","0.0-377.0","31LVTDXBL8WCBHQWHL9G78IME7KRLB","A82Q1HS5CPZ5I","3SA4EMRVJVOCGON1OYE6FAUV3JU0PO","","null","<img src=""img/food6.png"" style=""width:200px; border:14px solid green;"">","null","","","","","","","","","",""
"","image-keyboard-response","288","150091","0.0-378.0","31LVTDXBL8WCBHQWHL9G78IME7KRLB","A82Q1HS5CPZ5I","3SA4EMRVJVOCGON1OYE6FAUV3JU0PO","","241.79999999701977","img/food5.png","76","242.40000000596046","3","1","","1","1","1,0.7,0,1,0.7,0,0.7,0,1","0.7,0,1,0.7,0,1,0,1,0.7","2",""
"","html-keyboard-response","289","150393","0.0-379.0","31LVTDXBL8WCBHQWHL9G78IME7KRLB","A82Q1HS5CPZ5I","3SA4EMRVJVOCGON1OYE6FAUV3JU0PO","","null","<img src=""img/food5.png"" style=""width:200px; border:14px solid green;"">","null","","","","","","","","","",""
"","image-keyboard-response","290","150675","0.0-380.0","31LVTDXBL8WCBHQWHL9G78IME7KRLB","A82Q1HS5CPZ5I","3SA4EMRVJVOCGON1OYE6FAUV3JU0PO","","281.6000000014901","img/food4.png","76","282.1000000014901","3","1","","2","1","1,0.7,0,1,0.7,0,0.7,0,1","0.7,0,1,0.7,0,1,0,1,0.7","2",""
"","html-keyboard-response","291","150978","0.0-381.0","31LVTDXBL8WCBHQWHL9G78IME7KRLB","A82Q1HS5CPZ5I","3SA4EMRVJVOCGON1OYE6FAUV3JU0PO","","null","<img src=""img/food4.png"" style=""width:200px; border:14px solid green;"">","null","","","","","","","","","",""
"","image-keyboard-response","292","151400","0.0-382.0","31LVTDXBL8WCBHQWHL9G78IME7KRLB","A82Q1HS5CPZ5I","3SA4EMRVJVOCGON1OYE6FAUV3JU0PO","","421.20000000298023","img/food6.png","76","421.79999999701977","3","1","","3","1","1,0.7,0,1,0.7,0,0.7,0,1","0.7,0,1,0.7,0,1,0,1,0.7","2",""
"","html-keyboard-response","293","151701","0.0-383.0","31LVTDXBL8WCBHQWHL9G78IME7KRLB","A82Q1HS5CPZ5I","3SA4EMRVJVOCGON1OYE6FAUV3JU0PO","","null","<img src=""img/food6.png"" style=""width:200px; border:14px solid green;"">","null","","","","","","","","","",""
"","image-keyboard-response","294","152044","0.0-384.0","31LVTDXBL8WCBHQWHL9G78IME7KRLB","A82Q1HS5CPZ5I","3SA4EMRVJVOCGON1OYE6FAUV3JU0PO","","341.90000000596046","img/food5.png","76","342.6000000014901","3","1","","1","1","1,0.7,0,1,0.7,0,0.7,0,1","0.7,0,1,0.7,0,1,0,1,0.7","2",""
"","html-keyboard-response","295","152345","0.0-385.0","31LVTDXBL8WCBHQWHL9G78IME7KRLB","A82Q1HS5CPZ5I","3SA4EMRVJVOCGON1OYE6FAUV3JU0PO","","null","<img src=""img/food5.png"" style=""width:200px; border:14px solid green;"">","null","","","","","","","","","",""
"","image-keyboard-response","296","152669","0.0-386.0","31LVTDXBL8WCBHQWHL9G78IME7KRLB","A82Q1HS5CPZ5I","3SA4EMRVJVOCGON1OYE6FAUV3JU0PO","","324.19999999552965","img/food5.png","76","324.70000000298023","3","1","","1","1","1,0.7,0,1,0.7,0,0.7,0,1","0.7,0,1,0.7,0,1,0,1,0.7","2",""
"","html-keyboard-response","297","152971","0.0-387.0","31LVTDXBL8WCBHQWHL9G78IME7KRLB","A82Q1HS5CPZ5I","3SA4EMRVJVOCGON1OYE6FAUV3JU0PO","","null","<img src=""img/food5.png"" style=""width:200px; border:14px solid green;"">","null","","","","","","","","","",""
"","image-keyboard-response","298","153274","0.0-388.0","31LVTDXBL8WCBHQWHL9G78IME7KRLB","A82Q1HS5CPZ5I","3SA4EMRVJVOCGON1OYE6FAUV3JU0PO","","302.30000000447035","img/food5.png","76","302.79999999701977","3","1","","1","1","1,0.7,0,1,0.7,0,0.7,0,1","0.7,0,1,0.7,0,1,0,1,0.7","2",""
"","html-keyboard-response","299","153575","0.0-389.0","31LVTDXBL8WCBHQWHL9G78IME7KRLB","A82Q1HS5CPZ5I","3SA4EMRVJVOCGON1OYE6FAUV3JU0PO","","null","<img src=""img/food5.png"" style=""width:200px; border:14px solid green;"">","null","","","","","","","","","",""
"","image-keyboard-response","300","153977","0.0-390.0","31LVTDXBL8WCBHQWHL9G78IME7KRLB","A82Q1HS5CPZ5I","3SA4EMRVJVOCGON1OYE6FAUV3JU0PO","","402.20000000298023","img/food6.png","76","402.80000000447035","3","0","","3","1","1,0.7,0,1,0.7,0,0.7,0,1","0.7,0,1,0.7,0,1,0,1,0.7","2",""
"","html-keyboard-response","301","154279","0.0-391.0","31LVTDXBL8WCBHQWHL9G78IME7KRLB","A82Q1HS5CPZ5I","3SA4EMRVJVOCGON1OYE6FAUV3JU0PO","","null","<img src=""img/food6.png"" style=""width:200px;border:14px solid red;"">","null","","","","","","","","","",""
"","image-keyboard-response","302","154664","0.0-392.0","31LVTDXBL8WCBHQWHL9G78IME7KRLB","A82Q1HS5CPZ5I","3SA4EMRVJVOCGON1OYE6FAUV3JU0PO","","383.79999999701977","img/food6.png","75","384.3999999985099","2","1","","3","1","1,0.7,0,1,0.7,0,0.7,0,1","0.7,0,1,0.7,0,1,0,1,0.7","2",""
"","html-keyboard-response","303","154966","0.0-393.0","31LVTDXBL8WCBHQWHL9G78IME7KRLB","A82Q1HS5CPZ5I","3SA4EMRVJVOCGON1OYE6FAUV3JU0PO","","null","<img src=""img/food6.png"" style=""width:200px; border:14px solid green;"">","null","","","","","","","","","",""
"","image-keyboard-response","304","155227","0.0-394.0","31LVTDXBL8WCBHQWHL9G78IME7KRLB","A82Q1HS5CPZ5I","3SA4EMRVJVOCGON1OYE6FAUV3JU0PO","","260.5","img/food5.png","76","261.30000000447035","3","1","","1","1","1,0.7,0,1,0.7,0,0.7,0,1","0.7,0,1,0.7,0,1,0,1,0.7","2",""
"","html-keyboard-response","305","155529","0.0-395.0","31LVTDXBL8WCBHQWHL9G78IME7KRLB","A82Q1HS5CPZ5I","3SA4EMRVJVOCGON1OYE6FAUV3JU0PO","","null","<img src=""img/food5.png"" style=""width:200px; border:14px solid green;"">","null","","","","","","","","","",""
"","image-keyboard-response","306","156034","0.0-396.0","31LVTDXBL8WCBHQWHL9G78IME7KRLB","A82Q1HS5CPZ5I","3SA4EMRVJVOCGON1OYE6FAUV3JU0PO","","503.8999999985099","img/food6.png","75","504.59999999403954","2","1","","3","1","1,0.7,0,1,0.7,0,0.7,0,1","0.7,0,1,0.7,0,1,0,1,0.7","2",""
"","html-keyboard-response","307","156335","0.0-397.0","31LVTDXBL8WCBHQWHL9G78IME7KRLB","A82Q1HS5CPZ5I","3SA4EMRVJVOCGON1OYE6FAUV3JU0PO","","null","<img src=""img/food6.png"" style=""width:200px; border:14px solid green;"">","null","","","","","","","","","",""
"","image-keyboard-response","308","156577","0.0-398.0","31LVTDXBL8WCBHQWHL9G78IME7KRLB","A82Q1HS5CPZ5I","3SA4EMRVJVOCGON1OYE6FAUV3JU0PO","","242.19999999552965","img/food4.png","76","242.80000000447035","3","1","","2","1","1,0.7,0,1,0.7,0,0.7,0,1","0.7,0,1,0.7,0,1,0,1,0.7","2",""
"","html-keyboard-response","309","156879","0.0-399.0","31LVTDXBL8WCBHQWHL9G78IME7KRLB","A82Q1HS5CPZ5I","3SA4EMRVJVOCGON1OYE6FAUV3JU0PO","","null","<img src=""img/food4.png"" style=""width:200px; border:14px solid green;"">","null","","","","","","","","","",""
"","image-keyboard-response","310","157161","0.0-400.0","31LVTDXBL8WCBHQWHL9G78IME7KRLB","A82Q1HS5CPZ5I","3SA4EMRVJVOCGON1OYE6FAUV3JU0PO","","281.5","img/food4.png","76","282","3","1","","2","1","1,0.7,0,1,0.7,0,0.7,0,1","0.7,0,1,0.7,0,1,0,1,0.7","2",""
"","html-keyboard-response","311","157463","0.0-401.0","31LVTDXBL8WCBHQWHL9G78IME7KRLB","A82Q1HS5CPZ5I","3SA4EMRVJVOCGON1OYE6FAUV3JU0PO","","null","<img src=""img/food4.png"" style=""width:200px; border:14px solid green;"">","null","","","","","","","","","",""
"","image-keyboard-response","312","157885","0.0-402.0","31LVTDXBL8WCBHQWHL9G78IME7KRLB","A82Q1HS5CPZ5I","3SA4EMRVJVOCGON1OYE6FAUV3JU0PO","","421.8999999985099","img/food5.png","76","422.3999999985099","3","1","","1","1","1,0.7,0,1,0.7,0,0.7,0,1","0.7,0,1,0.7,0,1,0,1,0.7","2",""
"","html-keyboard-response","313","158188","0.0-403.0","31LVTDXBL8WCBHQWHL9G78IME7KRLB","A82Q1HS5CPZ5I","3SA4EMRVJVOCGON1OYE6FAUV3JU0PO","","null","<img src=""img/food5.png"" style=""width:200px; border:14px solid green;"">","null","","","","","","","","","",""
"","image-keyboard-response","314","158551","0.0-404.0","31LVTDXBL8WCBHQWHL9G78IME7KRLB","A82Q1HS5CPZ5I","3SA4EMRVJVOCGON1OYE6FAUV3JU0PO","","363.1000000014901","img/food6.png","75","363.80000000447035","2","1","","3","1","1,0.7,0,1,0.7,0,0.7,0,1","0.7,0,1,0.7,0,1,0,1,0.7","2",""
"","html-keyboard-response","315","158854","0.0-405.0","31LVTDXBL8WCBHQWHL9G78IME7KRLB","A82Q1HS5CPZ5I","3SA4EMRVJVOCGON1OYE6FAUV3JU0PO","","null","<img src=""img/food6.png"" style=""width:200px; border:14px solid green;"">","null","","","","","","","","","",""
"","image-keyboard-response","316","159115","0.0-406.0","31LVTDXBL8WCBHQWHL9G78IME7KRLB","A82Q1HS5CPZ5I","3SA4EMRVJVOCGON1OYE6FAUV3JU0PO","","260.8999999985099","img/food5.png","76","261.40000000596046","3","1","","1","1","1,0.7,0,1,0.7,0,0.7,0,1","0.7,0,1,0.7,0,1,0,1,0.7","2",""
"","html-keyboard-response","317","159417","0.0-407.0","31LVTDXBL8WCBHQWHL9G78IME7KRLB","A82Q1HS5CPZ5I","3SA4EMRVJVOCGON1OYE6FAUV3JU0PO","","null","<img src=""img/food5.png"" style=""width:200px; border:14px solid green;"">","null","","","","","","","","","",""
"","image-keyboard-response","318","159719","0.0-408.0","31LVTDXBL8WCBHQWHL9G78IME7KRLB","A82Q1HS5CPZ5I","3SA4EMRVJVOCGON1OYE6FAUV3JU0PO","","301.8999999985099","img/food5.png","76","302.5","3","1","","1","1","1,0.7,0,1,0.7,0,0.7,0,1","0.7,0,1,0.7,0,1,0,1,0.7","2",""
"","html-keyboard-response","319","160021","0.0-409.0","31LVTDXBL8WCBHQWHL9G78IME7KRLB","A82Q1HS5CPZ5I","3SA4EMRVJVOCGON1OYE6FAUV3JU0PO","","null","<img src=""img/food5.png"" style=""width:200px; border:14px solid green;"">","null","","","","","","","","","",""
"","image-keyboard-response","320","160465","0.0-410.0","31LVTDXBL8WCBHQWHL9G78IME7KRLB","A82Q1HS5CPZ5I","3SA4EMRVJVOCGON1OYE6FAUV3JU0PO","","443.5","img/food6.png","75","444.1000000014901","2","1","","3","1","1,0.7,0,1,0.7,0,0.7,0,1","0.7,0,1,0.7,0,1,0,1,0.7","2",""
"","html-keyboard-response","321","160768","0.0-411.0","31LVTDXBL8WCBHQWHL9G78IME7KRLB","A82Q1HS5CPZ5I","3SA4EMRVJVOCGON1OYE6FAUV3JU0PO","","null","<img src=""img/food6.png"" style=""width:200px; border:14px solid green;"">","null","","","","","","","","","",""
"","image-keyboard-response","322","160987","0.0-412.0","31LVTDXBL8WCBHQWHL9G78IME7KRLB","A82Q1HS5CPZ5I","3SA4EMRVJVOCGON1OYE6FAUV3JU0PO","","219","img/food6.png","76","219.70000000298023","3","0","","3","1","1,0.7,0,1,0.7,0,0.7,0,1","0.7,0,1,0.7,0,1,0,1,0.7","2",""
"","html-keyboard-response","323","161290","0.0-413.0","31LVTDXBL8WCBHQWHL9G78IME7KRLB","A82Q1HS5CPZ5I","3SA4EMRVJVOCGON1OYE6FAUV3JU0PO","","null","<img src=""img/food6.png"" style=""width:200px;border:14px solid red;"">","null","","","","","","","","","",""
"","image-keyboard-response","324","161572","0.0-414.0","31LVTDXBL8WCBHQWHL9G78IME7KRLB","A82Q1HS5CPZ5I","3SA4EMRVJVOCGON1OYE6FAUV3JU0PO","","281.3999999985099","img/food6.png","75","282.1000000014901","2","1","","3","1","1,0.7,0,1,0.7,0,0.7,0,1","0.7,0,1,0.7,0,1,0,1,0.7","2",""
"","html-keyboard-response","325","161874","0.0-415.0","31LVTDXBL8WCBHQWHL9G78IME7KRLB","A82Q1HS5CPZ5I","3SA4EMRVJVOCGON1OYE6FAUV3JU0PO","","null","<img src=""img/food6.png"" style=""width:200px; border:14px solid green;"">","null","","","","","","","","","",""
"","image-keyboard-response","326","162378","0.0-416.0","31LVTDXBL8WCBHQWHL9G78IME7KRLB","A82Q1HS5CPZ5I","3SA4EMRVJVOCGON1OYE6FAUV3JU0PO","","503.20000000298023","img/food6.png","75","503.69999999552965","2","1","","3","1","1,0.7,0,1,0.7,0,0.7,0,1","0.7,0,1,0.7,0,1,0,1,0.7","2",""
"","html-keyboard-response","327","162679","0.0-417.0","31LVTDXBL8WCBHQWHL9G78IME7KRLB","A82Q1HS5CPZ5I","3SA4EMRVJVOCGON1OYE6FAUV3JU0PO","","null","<img src=""img/food6.png"" style=""width:200px; border:14px solid green;"">","null","","","","","","","","","",""
"","image-keyboard-response","328","163003","0.0-418.0","31LVTDXBL8WCBHQWHL9G78IME7KRLB","A82Q1HS5CPZ5I","3SA4EMRVJVOCGON1OYE6FAUV3JU0PO","","323.6000000014901","img/food4.png","76","324.20000000298023","3","1","","2","1","1,0.7,0,1,0.7,0,0.7,0,1","0.7,0,1,0.7,0,1,0,1,0.7","2",""
"","html-keyboard-response","329","163304","0.0-419.0","31LVTDXBL8WCBHQWHL9G78IME7KRLB","A82Q1HS5CPZ5I","3SA4EMRVJVOCGON1OYE6FAUV3JU0PO","","null","<img src=""img/food4.png"" style=""width:200px; border:14px solid green;"">","null","","","","","","","","","",""
"","image-keyboard-response","330","163607","0.0-420.0","31LVTDXBL8WCBHQWHL9G78IME7KRLB","A82Q1HS5CPZ5I","3SA4EMRVJVOCGON1OYE6FAUV3JU0PO","","302.3999999985099","img/food5.png","76","303","3","1","","1","1","1,0.7,0,1,0.7,0,0.7,0,1","0.7,0,1,0.7,0,1,0,1,0.7","2",""
"","html-keyboard-response","331","163908","0.0-421.0","31LVTDXBL8WCBHQWHL9G78IME7KRLB","A82Q1HS5CPZ5I","3SA4EMRVJVOCGON1OYE6FAUV3JU0PO","","null","<img src=""img/food5.png"" style=""width:200px; border:14px solid green;"">","null","","","","","","","","","",""
"","image-keyboard-response","332","164211","0.0-422.0","31LVTDXBL8WCBHQWHL9G78IME7KRLB","A82Q1HS5CPZ5I","3SA4EMRVJVOCGON1OYE6FAUV3JU0PO","","302.5","img/food5.png","76","303.1000000014901","3","1","","1","1","1,0.7,0,1,0.7,0,0.7,0,1","0.7,0,1,0.7,0,1,0,1,0.7","2",""
"","html-keyboard-response","333","164513","0.0-423.0","31LVTDXBL8WCBHQWHL9G78IME7KRLB","A82Q1HS5CPZ5I","3SA4EMRVJVOCGON1OYE6FAUV3JU0PO","","null","<img src=""img/food5.png"" style=""width:200px; border:14px solid green;"">","null","","","","","","","","","",""
"","image-keyboard-response","334","164875","0.0-424.0","31LVTDXBL8WCBHQWHL9G78IME7KRLB","A82Q1HS5CPZ5I","3SA4EMRVJVOCGON1OYE6FAUV3JU0PO","","362.1000000014901","img/food4.png","76","362.70000000298023","3","1","","2","1","1,0.7,0,1,0.7,0,0.7,0,1","0.7,0,1,0.7,0,1,0,1,0.7","2",""
"","html-keyboard-response","335","165177","0.0-425.0","31LVTDXBL8WCBHQWHL9G78IME7KRLB","A82Q1HS5CPZ5I","3SA4EMRVJVOCGON1OYE6FAUV3JU0PO","","null","<img src=""img/food4.png"" style=""width:200px; border:14px solid green;"">","null","","","","","","","","","",""
"","image-keyboard-response","336","165479","0.0-426.0","31LVTDXBL8WCBHQWHL9G78IME7KRLB","A82Q1HS5CPZ5I","3SA4EMRVJVOCGON1OYE6FAUV3JU0PO","","301.6000000014901","img/food5.png","76","302.30000000447035","3","1","","1","1","1,0.7,0,1,0.7,0,0.7,0,1","0.7,0,1,0.7,0,1,0,1,0.7","2",""
"","html-keyboard-response","337","165781","0.0-427.0","31LVTDXBL8WCBHQWHL9G78IME7KRLB","A82Q1HS5CPZ5I","3SA4EMRVJVOCGON1OYE6FAUV3JU0PO","","null","<img src=""img/food5.png"" style=""width:200px; border:14px solid green;"">","null","","","","","","","","","",""
"","image-keyboard-response","338","166105","0.0-428.0","31LVTDXBL8WCBHQWHL9G78IME7KRLB","A82Q1HS5CPZ5I","3SA4EMRVJVOCGON1OYE6FAUV3JU0PO","","323.6000000014901","img/food5.png","76","324.20000000298023","3","1","","1","1","1,0.7,0,1,0.7,0,0.7,0,1","0.7,0,1,0.7,0,1,0,1,0.7","2",""
"","html-keyboard-response","339","166407","0.0-429.0","31LVTDXBL8WCBHQWHL9G78IME7KRLB","A82Q1HS5CPZ5I","3SA4EMRVJVOCGON1OYE6FAUV3JU0PO","","null","<img src=""img/food5.png"" style=""width:200px; border:14px solid green;"">","null","","","","","","","","","",""
"","image-keyboard-response","340","166749","0.0-430.0","31LVTDXBL8WCBHQWHL9G78IME7KRLB","A82Q1HS5CPZ5I","3SA4EMRVJVOCGON1OYE6FAUV3JU0PO","","341.79999999701977","img/food5.png","76","342.5","3","1","","1","1","1,0.7,0,1,0.7,0,0.7,0,1","0.7,0,1,0.7,0,1,0,1,0.7","2",""
"","html-keyboard-response","341","167051","0.0-431.0","31LVTDXBL8WCBHQWHL9G78IME7KRLB","A82Q1HS5CPZ5I","3SA4EMRVJVOCGON1OYE6FAUV3JU0PO","","null","<img src=""img/food5.png"" style=""width:200px; border:14px solid green;"">","null","","","","","","","","","",""
"","image-keyboard-response","342","167356","0.0-432.0","31LVTDXBL8WCBHQWHL9G78IME7KRLB","A82Q1HS5CPZ5I","3SA4EMRVJVOCGON1OYE6FAUV3JU0PO","","303.79999999701977","img/food5.png","76","304.40000000596046","3","1","","1","1","1,0.7,0,1,0.7,0,0.7,0,1","0.7,0,1,0.7,0,1,0,1,0.7","2",""
"","html-keyboard-response","343","167658","0.0-433.0","31LVTDXBL8WCBHQWHL9G78IME7KRLB","A82Q1HS5CPZ5I","3SA4EMRVJVOCGON1OYE6FAUV3JU0PO","","null","<img src=""img/food5.png"" style=""width:200px; border:14px solid green;"">","null","","","","","","","","","",""
"","image-keyboard-response","344","168099","0.0-434.0","31LVTDXBL8WCBHQWHL9G78IME7KRLB","A82Q1HS5CPZ5I","3SA4EMRVJVOCGON1OYE6FAUV3JU0PO","","440.79999999701977","img/food4.png","76","441.40000000596046","3","1","","2","1","1,0.7,0,1,0.7,0,0.7,0,1","0.7,0,1,0.7,0,1,0,1,0.7","2",""
"","html-keyboard-response","345","168401","0.0-435.0","31LVTDXBL8WCBHQWHL9G78IME7KRLB","A82Q1HS5CPZ5I","3SA4EMRVJVOCGON1OYE6FAUV3JU0PO","","null","<img src=""img/food4.png"" style=""width:200px; border:14px solid green;"">","null","","","","","","","","","",""
"","image-keyboard-response","346","168683","0.0-436.0","31LVTDXBL8WCBHQWHL9G78IME7KRLB","A82Q1HS5CPZ5I","3SA4EMRVJVOCGON1OYE6FAUV3JU0PO","","281.70000000298023","img/food5.png","76","282.40000000596046","3","1","","1","1","1,0.7,0,1,0.7,0,0.7,0,1","0.7,0,1,0.7,0,1,0,1,0.7","2",""
"","html-keyboard-response","347","168984","0.0-437.0","31LVTDXBL8WCBHQWHL9G78IME7KRLB","A82Q1HS5CPZ5I","3SA4EMRVJVOCGON1OYE6FAUV3JU0PO","","null","<img src=""img/food5.png"" style=""width:200px; border:14px solid green;"">","null","","","","","","","","","",""
"","image-keyboard-response","348","169327","0.0-438.0","31LVTDXBL8WCBHQWHL9G78IME7KRLB","A82Q1HS5CPZ5I","3SA4EMRVJVOCGON1OYE6FAUV3JU0PO","","342.3999999985099","img/food4.png","76","343","3","1","","2","1","1,0.7,0,1,0.7,0,0.7,0,1","0.7,0,1,0.7,0,1,0,1,0.7","2",""
"","html-keyboard-response","349","169629","0.0-439.0","31LVTDXBL8WCBHQWHL9G78IME7KRLB","A82Q1HS5CPZ5I","3SA4EMRVJVOCGON1OYE6FAUV3JU0PO","","null","<img src=""img/food4.png"" style=""width:200px; border:14px solid green;"">","null","","","","","","","","","",""
"","image-keyboard-response","350","170053","0.0-440.0","31LVTDXBL8WCBHQWHL9G78IME7KRLB","A82Q1HS5CPZ5I","3SA4EMRVJVOCGON1OYE6FAUV3JU0PO","","424","img/food6.png","75","424.6000000014901","2","1","","3","1","1,0.7,0,1,0.7,0,0.7,0,1","0.7,0,1,0.7,0,1,0,1,0.7","2",""
"","html-keyboard-response","351","170354","0.0-441.0","31LVTDXBL8WCBHQWHL9G78IME7KRLB","A82Q1HS5CPZ5I","3SA4EMRVJVOCGON1OYE6FAUV3JU0PO","","null","<img src=""img/food6.png"" style=""width:200px; border:14px solid green;"">","null","","","","","","","","","",""
"","image-keyboard-response","352","170737","0.0-442.0","31LVTDXBL8WCBHQWHL9G78IME7KRLB","A82Q1HS5CPZ5I","3SA4EMRVJVOCGON1OYE6FAUV3JU0PO","","382.3999999985099","img/food6.png","75","383","2","1","","3","1","1,0.7,0,1,0.7,0,0.7,0,1","0.7,0,1,0.7,0,1,0,1,0.7","2",""
"","html-keyboard-response","353","171038","0.0-443.0","31LVTDXBL8WCBHQWHL9G78IME7KRLB","A82Q1HS5CPZ5I","3SA4EMRVJVOCGON1OYE6FAUV3JU0PO","","null","<img src=""img/food6.png"" style=""width:200px; border:14px solid green;"">","null","","","","","","","","","",""
"","image-keyboard-response","354","171423","0.0-444.0","31LVTDXBL8WCBHQWHL9G78IME7KRLB","A82Q1HS5CPZ5I","3SA4EMRVJVOCGON1OYE6FAUV3JU0PO","","384.3999999985099","img/food4.png","76","385","3","1","","2","1","1,0.7,0,1,0.7,0,0.7,0,1","0.7,0,1,0.7,0,1,0,1,0.7","2",""
"","html-keyboard-response","355","171725","0.0-445.0","31LVTDXBL8WCBHQWHL9G78IME7KRLB","A82Q1HS5CPZ5I","3SA4EMRVJVOCGON1OYE6FAUV3JU0PO","","null","<img src=""img/food4.png"" style=""width:200px; border:14px solid green;"">","null","","","","","","","","","",""
"","image-keyboard-response","356","172067","0.0-446.0","31LVTDXBL8WCBHQWHL9G78IME7KRLB","A82Q1HS5CPZ5I","3SA4EMRVJVOCGON1OYE6FAUV3JU0PO","","341.6000000014901","img/food4.png","76","342.1000000014901","3","1","","2","1","1,0.7,0,1,0.7,0,0.7,0,1","0.7,0,1,0.7,0,1,0,1,0.7","2",""
"","html-keyboard-response","357","172369","0.0-447.0","31LVTDXBL8WCBHQWHL9G78IME7KRLB","A82Q1HS5CPZ5I","3SA4EMRVJVOCGON1OYE6FAUV3JU0PO","","null","<img src=""img/food4.png"" style=""width:200px; border:14px solid green;"">","null","","","","","","","","","",""
"","image-keyboard-response","358","172712","0.0-448.0","31LVTDXBL8WCBHQWHL9G78IME7KRLB","A82Q1HS5CPZ5I","3SA4EMRVJVOCGON1OYE6FAUV3JU0PO","","342.30000000447035","img/food4.png","76","342.79999999701977","3","1","","2","1","1,0.7,0,1,0.7,0,0.7,0,1","0.7,0,1,0.7,0,1,0,1,0.7","2",""
"","html-keyboard-response","359","173013","0.0-449.0","31LVTDXBL8WCBHQWHL9G78IME7KRLB","A82Q1HS5CPZ5I","3SA4EMRVJVOCGON1OYE6FAUV3JU0PO","","null","<img src=""img/food4.png"" style=""width:200px; border:14px solid green;"">","null","","","","","","","","","",""
"","image-keyboard-response","360","173399","0.0-450.0","31LVTDXBL8WCBHQWHL9G78IME7KRLB","A82Q1HS5CPZ5I","3SA4EMRVJVOCGON1OYE6FAUV3JU0PO","","384.1000000014901","img/food6.png","75","385.09999999403954","2","1","","3","1","1,0.7,0,1,0.7,0,0.7,0,1","0.7,0,1,0.7,0,1,0,1,0.7","2",""
"","html-keyboard-response","361","173700","0.0-451.0","31LVTDXBL8WCBHQWHL9G78IME7KRLB","A82Q1HS5CPZ5I","3SA4EMRVJVOCGON1OYE6FAUV3JU0PO","","null","<img src=""img/food6.png"" style=""width:200px; border:14px solid green;"">","null","","","","","","","","","",""
"","image-keyboard-response","362","174181","0.0-452.0","31LVTDXBL8WCBHQWHL9G78IME7KRLB","A82Q1HS5CPZ5I","3SA4EMRVJVOCGON1OYE6FAUV3JU0PO","","480.6000000014901","img/food4.png","76","481.30000000447035","3","1","","2","1","1,0.7,0,1,0.7,0,0.7,0,1","0.7,0,1,0.7,0,1,0,1,0.7","2",""
"","html-keyboard-response","363","174482","0.0-453.0","31LVTDXBL8WCBHQWHL9G78IME7KRLB","A82Q1HS5CPZ5I","3SA4EMRVJVOCGON1OYE6FAUV3JU0PO","","null","<img src=""img/food4.png"" style=""width:200px; border:14px solid green;"">","null","","","","","","","","","",""
"","html-keyboard-response","364","176454","0.0-454.0","31LVTDXBL8WCBHQWHL9G78IME7KRLB","A82Q1HS5CPZ5I","3SA4EMRVJVOCGON1OYE6FAUV3JU0PO","","","","","","","","","","","","","",""
"","instructions","365","182976","0.0-455.0","31LVTDXBL8WCBHQWHL9G78IME7KRLB","A82Q1HS5CPZ5I","3SA4EMRVJVOCGON1OYE6FAUV3JU0PO","[{""page_index"":0,""viewing_time"":6520.30000000447}]","6520.60000000149","","","","","","","","","","","",""
"","survey-text","366","186748","0.0-456.0","31LVTDXBL8WCBHQWHL9G78IME7KRLB","A82Q1HS5CPZ5I","3SA4EMRVJVOCGON1OYE6FAUV3JU0PO","","3770","","","","","","","","","","","","{""Q0"":""A82Q1HS5CPZ5I""}"
