"success","trial_type","trial_index","time_elapsed","internal_node_id","assignmentID","mturkID","hitID","view_history","rt","stimulus","key_press","reactionTime","a","r","warning","s","cond","reward_cond","reward_cond_actual","reward_matrix_idx","responses"
"true","fullscreen","0","8425","0.0-0.0","3J88R45B2HKMZYR6IC8FD7DUL8OXPE","A8EWC86OH91I2","3MXX6RQ9EVRTFC527Z18RDK8KW6P4R","","","","","","","","","","","","","",""
"","instructions","1","48030","0.0-1.0","3J88R45B2HKMZYR6IC8FD7DUL8OXPE","A8EWC86OH91I2","3MXX6RQ9EVRTFC527Z18RDK8KW6P4R","[{""page_index"":0,""viewing_time"":5471.29999999702},{""page_index"":1,""viewing_time"":9567.39999999851},{""page_index"":2,""viewing_time"":7442.30000000447},{""page_index"":3,""viewing_time"":6835},{""page_index"":4,""viewing_time"":2421.5},{""page_index"":5,""viewing_time"":3137.5},{""page_index"":6,""viewing_time"":4727}]","39602.59999999404","","","","","","","","","","","",""
"","instructions","2","61795","0.0-2.0","3J88R45B2HKMZYR6IC8FD7DUL8OXPE","A8EWC86OH91I2","3MXX6RQ9EVRTFC527Z18RDK8KW6P4R","[{""page_index"":0,""viewing_time"":11457.70000000298},{""page_index"":1,""viewing_time"":2306.89999999851}]","13764.89999999851","","","","","","","","","","","",""
"","image-keyboard-response","3","62241","0.0-3.0","3J88R45B2HKMZYR6IC8FD7DUL8OXPE","A8EWC86OH91I2","3MXX6RQ9EVRTFC527Z18RDK8KW6P4R","","443.69999999552965","img/food5.png","74","445.3999999985099","1","0","false","2","2","1,0.5,0,1,0.5,0,0.5,0,1","0,1,0.5,0,1,0.5,1,0.5,0","3",""
"","html-keyboard-response","4","62558","0.0-4.0","3J88R45B2HKMZYR6IC8FD7DUL8OXPE","A8EWC86OH91I2","3MXX6RQ9EVRTFC527Z18RDK8KW6P4R","","null","<img src=""img/food5.png"" style=""width:200px;border:14px solid red;"">","null","","","","","","","","","",""
"","image-keyboard-response","5","62690","0.0-6.0","3J88R45B2HKMZYR6IC8FD7DUL8OXPE","A8EWC86OH91I2","3MXX6RQ9EVRTFC527Z18RDK8KW6P4R","","130.59999999403954","img/food1.png","75","131.60000000149012","2","1","false","1","2","1,0.5,0,1,0.5,0,0.5,0,1","0,1,0.5,0,1,0.5,1,0.5,0","3",""
"","html-keyboard-response","6","62993","0.0-7.0","3J88R45B2HKMZYR6IC8FD7DUL8OXPE","A8EWC86OH91I2","3MXX6RQ9EVRTFC527Z18RDK8KW6P4R","","null","<img src=""img/food1.png"" style=""width:200px; border:14px solid green;"">","null","","","","","","","","","",""
"","image-keyboard-response","7","63371","0.0-9.0","3J88R45B2HKMZYR6IC8FD7DUL8OXPE","A8EWC86OH91I2","3MXX6RQ9EVRTFC527Z18RDK8KW6P4R","","376.20000000298023","img/food5.png","76","377.5","3","1","false","2","2","1,0.5,0,1,0.5,0,0.5,0,1","0,1,0.5,0,1,0.5,1,0.5,0","3",""
"","html-keyboard-response","8","63673","0.0-10.0","3J88R45B2HKMZYR6IC8FD7DUL8OXPE","A8EWC86OH91I2","3MXX6RQ9EVRTFC527Z18RDK8KW6P4R","","null","<img src=""img/food5.png"" style=""width:200px; border:14px solid green;"">","null","","","","","","","","","",""
"","image-keyboard-response","9","63886","0.0-12.0","3J88R45B2HKMZYR6IC8FD7DUL8OXPE","A8EWC86OH91I2","3MXX6RQ9EVRTFC527Z18RDK8KW6P4R","","210.89999999850988","img/food1.png","75","212.10000000149012","2","1","false","1","2","1,0.5,0,1,0.5,0,0.5,0,1","0,1,0.5,0,1,0.5,1,0.5,0","3",""
"","html-keyboard-response","10","64188","0.0-13.0","3J88R45B2HKMZYR6IC8FD7DUL8OXPE","A8EWC86OH91I2","3MXX6RQ9EVRTFC527Z18RDK8KW6P4R","","null","<img src=""img/food1.png"" style=""width:200px; border:14px solid green;"">","null","","","","","","","","","",""
"","image-keyboard-response","11","64487","0.0-15.0","3J88R45B2HKMZYR6IC8FD7DUL8OXPE","A8EWC86OH91I2","3MXX6RQ9EVRTFC527Z18RDK8KW6P4R","","298.1000000014901","img/food4.png","75","299.3999999985099","2","1","false","3","2","1,0.5,0,1,0.5,0,0.5,0,1","0,1,0.5,0,1,0.5,1,0.5,0","3",""
"","html-keyboard-response","12","64790","0.0-16.0","3J88R45B2HKMZYR6IC8FD7DUL8OXPE","A8EWC86OH91I2","3MXX6RQ9EVRTFC527Z18RDK8KW6P4R","","null","<img src=""img/food4.png"" style=""width:200px; border:14px solid green;"">","null","","","","","","","","","",""
"","image-keyboard-response","13","64883","0.0-18.0","3J88R45B2HKMZYR6IC8FD7DUL8OXPE","A8EWC86OH91I2","3MXX6RQ9EVRTFC527Z18RDK8KW6P4R","","92","img/food1.png","75","93.10000000149012","2","1","false","1","2","1,0.5,0,1,0.5,0,0.5,0,1","0,1,0.5,0,1,0.5,1,0.5,0","3",""
"","html-keyboard-response","14","65185","0.0-19.0","3J88R45B2HKMZYR6IC8FD7DUL8OXPE","A8EWC86OH91I2","3MXX6RQ9EVRTFC527Z18RDK8KW6P4R","","null","<img src=""img/food1.png"" style=""width:200px; border:14px solid green;"">","null","","","","","","","","","",""
"","image-keyboard-response","15","65233","0.0-21.0","3J88R45B2HKMZYR6IC8FD7DUL8OXPE","A8EWC86OH91I2","3MXX6RQ9EVRTFC527Z18RDK8KW6P4R","","45.79999999701977","img/food1.png","74","46.899999998509884","1","0","false","1","2","1,0.5,0,1,0.5,0,0.5,0,1","0,1,0.5,0,1,0.5,1,0.5,0","3",""
"","html-keyboard-response","16","65540","0.0-22.0","3J88R45B2HKMZYR6IC8FD7DUL8OXPE","A8EWC86OH91I2","3MXX6RQ9EVRTFC527Z18RDK8KW6P4R","","null","<img src=""img/food1.png"" style=""width:200px;border:14px solid red;"">","null","","","","","","","","","",""
"","image-keyboard-response","17","65758","0.0-24.0","3J88R45B2HKMZYR6IC8FD7DUL8OXPE","A8EWC86OH91I2","3MXX6RQ9EVRTFC527Z18RDK8KW6P4R","","216.60000000149012","img/food4.png","76","217.69999999552965","3","0","false","3","2","1,0.5,0,1,0.5,0,0.5,0,1","0,1,0.5,0,1,0.5,1,0.5,0","3",""
"","html-keyboard-response","18","66060","0.0-25.0","3J88R45B2HKMZYR6IC8FD7DUL8OXPE","A8EWC86OH91I2","3MXX6RQ9EVRTFC527Z18RDK8KW6P4R","","null","<img src=""img/food4.png"" style=""width:200px;border:14px solid red;"">","null","","","","","","","","","",""
"","image-keyboard-response","19","66101","0.0-27.0","3J88R45B2HKMZYR6IC8FD7DUL8OXPE","A8EWC86OH91I2","3MXX6RQ9EVRTFC527Z18RDK8KW6P4R","","39.5","img/food5.png","75","40.69999999552965","2","1","false","2","2","1,0.5,0,1,0.5,0,0.5,0,1","0,1,0.5,0,1,0.5,1,0.5,0","3",""
"","html-keyboard-response","20","66403","0.0-28.0","3J88R45B2HKMZYR6IC8FD7DUL8OXPE","A8EWC86OH91I2","3MXX6RQ9EVRTFC527Z18RDK8KW6P4R","","null","<img src=""img/food5.png"" style=""width:200px; border:14px solid green;"">","null","","","","","","","","","",""
"","image-keyboard-response","21","66451","0.0-30.0","3J88R45B2HKMZYR6IC8FD7DUL8OXPE","A8EWC86OH91I2","3MXX6RQ9EVRTFC527Z18RDK8KW6P4R","","45.600000001490116","img/food4.png","74","46.899999998509884","1","1","false","3","2","1,0.5,0,1,0.5,0,0.5,0,1","0,1,0.5,0,1,0.5,1,0.5,0","3",""
"","html-keyboard-response","22","66753","0.0-31.0","3J88R45B2HKMZYR6IC8FD7DUL8OXPE","A8EWC86OH91I2","3MXX6RQ9EVRTFC527Z18RDK8KW6P4R","","null","<img src=""img/food4.png"" style=""width:200px; border:14px solid green;"">","null","","","","","","","","","",""
"","image-keyboard-response","23","67081","0.0-33.0","3J88R45B2HKMZYR6IC8FD7DUL8OXPE","A8EWC86OH91I2","3MXX6RQ9EVRTFC527Z18RDK8KW6P4R","","327.1000000014901","img/food4.png","76","328","3","0","false","3","2","1,0.5,0,1,0.5,0,0.5,0,1","0,1,0.5,0,1,0.5,1,0.5,0","3",""
"","html-keyboard-response","24","67384","0.0-34.0","3J88R45B2HKMZYR6IC8FD7DUL8OXPE","A8EWC86OH91I2","3MXX6RQ9EVRTFC527Z18RDK8KW6P4R","","null","<img src=""img/food4.png"" style=""width:200px;border:14px solid red;"">","null","","","","","","","","","",""
"","image-keyboard-response","25","67426","0.0-36.0","3J88R45B2HKMZYR6IC8FD7DUL8OXPE","A8EWC86OH91I2","3MXX6RQ9EVRTFC527Z18RDK8KW6P4R","","41.100000001490116","img/food5.png","75","42.29999999701977","2","1","false","2","2","1,0.5,0,1,0.5,0,0.5,0,1","0,1,0.5,0,1,0.5,1,0.5,0","3",""
"","html-keyboard-response","26","67728","0.0-37.0","3J88R45B2HKMZYR6IC8FD7DUL8OXPE","A8EWC86OH91I2","3MXX6RQ9EVRTFC527Z18RDK8KW6P4R","","null","<img src=""img/food5.png"" style=""width:200px; border:14px solid green;"">","null","","","","","","","","","",""
"","image-keyboard-response","27","67751","0.0-39.0","3J88R45B2HKMZYR6IC8FD7DUL8OXPE","A8EWC86OH91I2","3MXX6RQ9EVRTFC527Z18RDK8KW6P4R","","21.799999997019768","img/food5.png","74","22.700000002980232","1","0","false","2","2","1,0.5,0,1,0.5,0,0.5,0,1","0,1,0.5,0,1,0.5,1,0.5,0","3",""
"","html-keyboard-response","28","68053","0.0-40.0","3J88R45B2HKMZYR6IC8FD7DUL8OXPE","A8EWC86OH91I2","3MXX6RQ9EVRTFC527Z18RDK8KW6P4R","","null","<img src=""img/food5.png"" style=""width:200px;border:14px solid red;"">","null","","","","","","","","","",""
"","image-keyboard-response","29","68068","0.0-42.0","3J88R45B2HKMZYR6IC8FD7DUL8OXPE","A8EWC86OH91I2","3MXX6RQ9EVRTFC527Z18RDK8KW6P4R","","13.900000005960464","img/food5.png","75","14.799999997019768","2","1","false","2","2","1,0.5,0,1,0.5,0,0.5,0,1","0,1,0.5,0,1,0.5,1,0.5,0","3",""
"","html-keyboard-response","30","68370","0.0-43.0","3J88R45B2HKMZYR6IC8FD7DUL8OXPE","A8EWC86OH91I2","3MXX6RQ9EVRTFC527Z18RDK8KW6P4R","","null","<img src=""img/food5.png"" style=""width:200px; border:14px solid green;"">","null","","","","","","","","","",""
"","image-keyboard-response","31","68459","0.0-45.0","3J88R45B2HKMZYR6IC8FD7DUL8OXPE","A8EWC86OH91I2","3MXX6RQ9EVRTFC527Z18RDK8KW6P4R","","88","img/food5.png","76","89.10000000149012","3","0","false","2","2","1,0.5,0,1,0.5,0,0.5,0,1","0,1,0.5,0,1,0.5,1,0.5,0","3",""
"","html-keyboard-response","32","68761","0.0-46.0","3J88R45B2HKMZYR6IC8FD7DUL8OXPE","A8EWC86OH91I2","3MXX6RQ9EVRTFC527Z18RDK8KW6P4R","","null","<img src=""img/food5.png"" style=""width:200px;border:14px solid red;"">","null","","","","","","","","","",""
"","image-keyboard-response","33","68769","0.0-48.0","3J88R45B2HKMZYR6IC8FD7DUL8OXPE","A8EWC86OH91I2","3MXX6RQ9EVRTFC527Z18RDK8KW6P4R","","7.399999998509884","img/food1.png","75","8.300000004470348","2","1","false","1","2","1,0.5,0,1,0.5,0,0.5,0,1","0,1,0.5,0,1,0.5,1,0.5,0","3",""
"","html-keyboard-response","34","69072","0.0-49.0","3J88R45B2HKMZYR6IC8FD7DUL8OXPE","A8EWC86OH91I2","3MXX6RQ9EVRTFC527Z18RDK8KW6P4R","","null","<img src=""img/food1.png"" style=""width:200px; border:14px solid green;"">","null","","","","","","","","","",""
"","image-keyboard-response","35","69082","0.0-51.0","3J88R45B2HKMZYR6IC8FD7DUL8OXPE","A8EWC86OH91I2","3MXX6RQ9EVRTFC527Z18RDK8KW6P4R","","9.200000002980232","img/food4.png","74","10.299999997019768","1","1","false","3","2","1,0.5,0,1,0.5,0,0.5,0,1","0,1,0.5,0,1,0.5,1,0.5,0","3",""
"","html-keyboard-response","36","69384","0.0-52.0","3J88R45B2HKMZYR6IC8FD7DUL8OXPE","A8EWC86OH91I2","3MXX6RQ9EVRTFC527Z18RDK8KW6P4R","","null","<img src=""img/food4.png"" style=""width:200px; border:14px solid green;"">","null","","","","","","","","","",""
"","image-keyboard-response","37","69458","0.0-54.0","3J88R45B2HKMZYR6IC8FD7DUL8OXPE","A8EWC86OH91I2","3MXX6RQ9EVRTFC527Z18RDK8KW6P4R","","72.29999999701977","img/food1.png","74","73.39999999850988","1","0","false","1","2","1,0.5,0,1,0.5,0,0.5,0,1","0,1,0.5,0,1,0.5,1,0.5,0","3",""
"","html-keyboard-response","38","69760","0.0-55.0","3J88R45B2HKMZYR6IC8FD7DUL8OXPE","A8EWC86OH91I2","3MXX6RQ9EVRTFC527Z18RDK8KW6P4R","","null","<img src=""img/food1.png"" style=""width:200px;border:14px solid red;"">","null","","","","","","","","","",""
"","image-keyboard-response","39","69765","0.0-57.0","3J88R45B2HKMZYR6IC8FD7DUL8OXPE","A8EWC86OH91I2","3MXX6RQ9EVRTFC527Z18RDK8KW6P4R","","3.8000000044703484","img/food5.png","75","4.899999998509884","2","1","false","2","2","1,0.5,0,1,0.5,0,0.5,0,1","0,1,0.5,0,1,0.5,1,0.5,0","3",""
"","html-keyboard-response","40","70067","0.0-58.0","3J88R45B2HKMZYR6IC8FD7DUL8OXPE","A8EWC86OH91I2","3MXX6RQ9EVRTFC527Z18RDK8KW6P4R","","null","<img src=""img/food5.png"" style=""width:200px; border:14px solid green;"">","null","","","","","","","","","",""
"","image-keyboard-response","41","70105","0.0-60.0","3J88R45B2HKMZYR6IC8FD7DUL8OXPE","A8EWC86OH91I2","3MXX6RQ9EVRTFC527Z18RDK8KW6P4R","","36.19999999552965","img/food4.png","76","37.20000000298023","3","0","false","3","2","1,0.5,0,1,0.5,0,0.5,0,1","0,1,0.5,0,1,0.5,1,0.5,0","3",""
"","html-keyboard-response","42","70407","0.0-61.0","3J88R45B2HKMZYR6IC8FD7DUL8OXPE","A8EWC86OH91I2","3MXX6RQ9EVRTFC527Z18RDK8KW6P4R","","null","<img src=""img/food4.png"" style=""width:200px;border:14px solid red;"">","null","","","","","","","","","",""
"","image-keyboard-response","43","70759","0.0-63.0","3J88R45B2HKMZYR6IC8FD7DUL8OXPE","A8EWC86OH91I2","3MXX6RQ9EVRTFC527Z18RDK8KW6P4R","","350.70000000298023","img/food4.png","74","351.79999999701977","1","1","false","3","2","1,0.5,0,1,0.5,0,0.5,0,1","0,1,0.5,0,1,0.5,1,0.5,0","3",""
"","html-keyboard-response","44","71061","0.0-64.0","3J88R45B2HKMZYR6IC8FD7DUL8OXPE","A8EWC86OH91I2","3MXX6RQ9EVRTFC527Z18RDK8KW6P4R","","null","<img src=""img/food4.png"" style=""width:200px; border:14px solid green;"">","null","","","","","","","","","",""
"","image-keyboard-response","45","71089","0.0-66.0","3J88R45B2HKMZYR6IC8FD7DUL8OXPE","A8EWC86OH91I2","3MXX6RQ9EVRTFC527Z18RDK8KW6P4R","","26.69999999552965","img/food5.png","74","27.80000000447035","1","0","false","2","2","1,0.5,0,1,0.5,0,0.5,0,1","0,1,0.5,0,1,0.5,1,0.5,0","3",""
"","html-keyboard-response","46","71391","0.0-67.0","3J88R45B2HKMZYR6IC8FD7DUL8OXPE","A8EWC86OH91I2","3MXX6RQ9EVRTFC527Z18RDK8KW6P4R","","null","<img src=""img/food5.png"" style=""width:200px;border:14px solid red;"">","null","","","","","","","","","",""
"","image-keyboard-response","47","71459","0.0-69.0","3J88R45B2HKMZYR6IC8FD7DUL8OXPE","A8EWC86OH91I2","3MXX6RQ9EVRTFC527Z18RDK8KW6P4R","","66.30000000447035","img/food4.png","75","67.39999999850988","2","1","false","3","2","1,0.5,0,1,0.5,0,0.5,0,1","0,1,0.5,0,1,0.5,1,0.5,0","3",""
"","html-keyboard-response","48","71761","0.0-70.0","3J88R45B2HKMZYR6IC8FD7DUL8OXPE","A8EWC86OH91I2","3MXX6RQ9EVRTFC527Z18RDK8KW6P4R","","null","<img src=""img/food4.png"" style=""width:200px; border:14px solid green;"">","null","","","","","","","","","",""
"","image-keyboard-response","49","71773","0.0-72.0","3J88R45B2HKMZYR6IC8FD7DUL8OXPE","A8EWC86OH91I2","3MXX6RQ9EVRTFC527Z18RDK8KW6P4R","","11","img/food1.png","76","12","3","1","false","1","2","1,0.5,0,1,0.5,0,0.5,0,1","0,1,0.5,0,1,0.5,1,0.5,0","3",""
"","html-keyboard-response","50","72075","0.0-73.0","3J88R45B2HKMZYR6IC8FD7DUL8OXPE","A8EWC86OH91I2","3MXX6RQ9EVRTFC527Z18RDK8KW6P4R","","null","<img src=""img/food1.png"" style=""width:200px; border:14px solid green;"">","null","","","","","","","","","",""
"","image-keyboard-response","51","72360","0.0-75.0","3J88R45B2HKMZYR6IC8FD7DUL8OXPE","A8EWC86OH91I2","3MXX6RQ9EVRTFC527Z18RDK8KW6P4R","","284.20000000298023","img/food4.png","74","285.19999999552965","1","1","false","3","2","1,0.5,0,1,0.5,0,0.5,0,1","0,1,0.5,0,1,0.5,1,0.5,0","3",""
"","html-keyboard-response","52","72662","0.0-76.0","3J88R45B2HKMZYR6IC8FD7DUL8OXPE","A8EWC86OH91I2","3MXX6RQ9EVRTFC527Z18RDK8KW6P4R","","null","<img src=""img/food4.png"" style=""width:200px; border:14px solid green;"">","null","","","","","","","","","",""
"","image-keyboard-response","53","72925","0.0-78.0","3J88R45B2HKMZYR6IC8FD7DUL8OXPE","A8EWC86OH91I2","3MXX6RQ9EVRTFC527Z18RDK8KW6P4R","","261.29999999701977","img/food5.png","76","262.3999999985099","3","1","false","2","2","1,0.5,0,1,0.5,0,0.5,0,1","0,1,0.5,0,1,0.5,1,0.5,0","3",""
"","html-keyboard-response","54","73227","0.0-79.0","3J88R45B2HKMZYR6IC8FD7DUL8OXPE","A8EWC86OH91I2","3MXX6RQ9EVRTFC527Z18RDK8KW6P4R","","null","<img src=""img/food5.png"" style=""width:200px; border:14px solid green;"">","null","","","","","","","","","",""
"","image-keyboard-response","55","73237","0.0-81.0","3J88R45B2HKMZYR6IC8FD7DUL8OXPE","A8EWC86OH91I2","3MXX6RQ9EVRTFC527Z18RDK8KW6P4R","","8.899999998509884","img/food4.png","75","9.899999998509884","2","0","false","3","2","1,0.5,0,1,0.5,0,0.5,0,1","0,1,0.5,0,1,0.5,1,0.5,0","3",""
"","html-keyboard-response","56","73538","0.0-82.0","3J88R45B2HKMZYR6IC8FD7DUL8OXPE","A8EWC86OH91I2","3MXX6RQ9EVRTFC527Z18RDK8KW6P4R","","null","<img src=""img/food4.png"" style=""width:200px;border:14px solid red;"">","null","","","","","","","","","",""
"","image-keyboard-response","57","73549","0.0-84.0","3J88R45B2HKMZYR6IC8FD7DUL8OXPE","A8EWC86OH91I2","3MXX6RQ9EVRTFC527Z18RDK8KW6P4R","","9.600000001490116","img/food1.png","74","10.5","1","0","false","1","2","1,0.5,0,1,0.5,0,0.5,0,1","0,1,0.5,0,1,0.5,1,0.5,0","3",""
"","html-keyboard-response","58","73851","0.0-85.0","3J88R45B2HKMZYR6IC8FD7DUL8OXPE","A8EWC86OH91I2","3MXX6RQ9EVRTFC527Z18RDK8KW6P4R","","null","<img src=""img/food1.png"" style=""width:200px;border:14px solid red;"">","null","","","","","","","","","",""
"","image-keyboard-response","59","74165","0.0-87.0","3J88R45B2HKMZYR6IC8FD7DUL8OXPE","A8EWC86OH91I2","3MXX6RQ9EVRTFC527Z18RDK8KW6P4R","","312.6000000014901","img/food5.png","75","313.6000000014901","2","1","false","2","2","1,0.5,0,1,0.5,0,0.5,0,1","0,1,0.5,0,1,0.5,1,0.5,0","3",""
"","html-keyboard-response","60","74467","0.0-88.0","3J88R45B2HKMZYR6IC8FD7DUL8OXPE","A8EWC86OH91I2","3MXX6RQ9EVRTFC527Z18RDK8KW6P4R","","null","<img src=""img/food5.png"" style=""width:200px; border:14px solid green;"">","null","","","","","","","","","",""
"","image-keyboard-response","61","74482","0.0-90.0","3J88R45B2HKMZYR6IC8FD7DUL8OXPE","A8EWC86OH91I2","3MXX6RQ9EVRTFC527Z18RDK8KW6P4R","","13.600000001490116","img/food5.png","75","14.5","2","1","false","2","2","1,0.5,0,1,0.5,0,0.5,0,1","0,1,0.5,0,1,0.5,1,0.5,0","3",""
"","html-keyboard-response","62","74783","0.0-91.0","3J88R45B2HKMZYR6IC8FD7DUL8OXPE","A8EWC86OH91I2","3MXX6RQ9EVRTFC527Z18RDK8KW6P4R","","null","<img src=""img/food5.png"" style=""width:200px; border:14px solid green;"">","null","","","","","","","","","",""
"","image-keyboard-response","63","75065","0.0-93.0","3J88R45B2HKMZYR6IC8FD7DUL8OXPE","A8EWC86OH91I2","3MXX6RQ9EVRTFC527Z18RDK8KW6P4R","","280.6000000014901","img/food5.png","75","281.80000000447035","2","1","false","2","2","1,0.5,0,1,0.5,0,0.5,0,1","0,1,0.5,0,1,0.5,1,0.5,0","3",""
"","html-keyboard-response","64","75367","0.0-94.0","3J88R45B2HKMZYR6IC8FD7DUL8OXPE","A8EWC86OH91I2","3MXX6RQ9EVRTFC527Z18RDK8KW6P4R","","null","<img src=""img/food5.png"" style=""width:200px; border:14px solid green;"">","null","","","","","","","","","",""
"","image-keyboard-response","65","75640","0.0-96.0","3J88R45B2HKMZYR6IC8FD7DUL8OXPE","A8EWC86OH91I2","3MXX6RQ9EVRTFC527Z18RDK8KW6P4R","","271.79999999701977","img/food4.png","75","272.80000000447035","2","0","false","3","2","1,0.5,0,1,0.5,0,0.5,0,1","0,1,0.5,0,1,0.5,1,0.5,0","3",""
"","html-keyboard-response","66","75942","0.0-97.0","3J88R45B2HKMZYR6IC8FD7DUL8OXPE","A8EWC86OH91I2","3MXX6RQ9EVRTFC527Z18RDK8KW6P4R","","null","<img src=""img/food4.png"" style=""width:200px;border:14px solid red;"">","null","","","","","","","","","",""
"","image-keyboard-response","67","76268","0.0-99.0","3J88R45B2HKMZYR6IC8FD7DUL8OXPE","A8EWC86OH91I2","3MXX6RQ9EVRTFC527Z18RDK8KW6P4R","","324.90000000596046","img/food1.png","74","326.1000000014901","1","0","false","1","2","1,0.5,0,1,0.5,0,0.5,0,1","0,1,0.5,0,1,0.5,1,0.5,0","3",""
"","html-keyboard-response","68","76570","0.0-100.0","3J88R45B2HKMZYR6IC8FD7DUL8OXPE","A8EWC86OH91I2","3MXX6RQ9EVRTFC527Z18RDK8KW6P4R","","null","<img src=""img/food1.png"" style=""width:200px;border:14px solid red;"">","null","","","","","","","","","",""
"","image-keyboard-response","69","76655","0.0-102.0","3J88R45B2HKMZYR6IC8FD7DUL8OXPE","A8EWC86OH91I2","3MXX6RQ9EVRTFC527Z18RDK8KW6P4R","","83","img/food5.png","76","84.10000000149012","3","1","false","2","2","1,0.5,0,1,0.5,0,0.5,0,1","0,1,0.5,0,1,0.5,1,0.5,0","3",""
"","html-keyboard-response","70","76959","0.0-103.0","3J88R45B2HKMZYR6IC8FD7DUL8OXPE","A8EWC86OH91I2","3MXX6RQ9EVRTFC527Z18RDK8KW6P4R","","null","<img src=""img/food5.png"" style=""width:200px; border:14px solid green;"">","null","","","","","","","","","",""
"","image-keyboard-response","71","77256","0.0-105.0","3J88R45B2HKMZYR6IC8FD7DUL8OXPE","A8EWC86OH91I2","3MXX6RQ9EVRTFC527Z18RDK8KW6P4R","","296.29999999701977","img/food5.png","76","297.29999999701977","3","1","false","2","2","1,0.5,0,1,0.5,0,0.5,0,1","0,1,0.5,0,1,0.5,1,0.5,0","3",""
"","html-keyboard-response","72","77559","0.0-106.0","3J88R45B2HKMZYR6IC8FD7DUL8OXPE","A8EWC86OH91I2","3MXX6RQ9EVRTFC527Z18RDK8KW6P4R","","null","<img src=""img/food5.png"" style=""width:200px; border:14px solid green;"">","null","","","","","","","","","",""
"","image-keyboard-response","73","77572","0.0-108.0","3J88R45B2HKMZYR6IC8FD7DUL8OXPE","A8EWC86OH91I2","3MXX6RQ9EVRTFC527Z18RDK8KW6P4R","","12.300000004470348","img/food5.png","76","13.299999997019768","3","1","false","2","2","1,0.5,0,1,0.5,0,0.5,0,1","0,1,0.5,0,1,0.5,1,0.5,0","3",""
"","html-keyboard-response","74","77874","0.0-109.0","3J88R45B2HKMZYR6IC8FD7DUL8OXPE","A8EWC86OH91I2","3MXX6RQ9EVRTFC527Z18RDK8KW6P4R","","null","<img src=""img/food5.png"" style=""width:200px; border:14px solid green;"">","null","","","","","","","","","",""
"","image-keyboard-response","75","78149","0.0-111.0","3J88R45B2HKMZYR6IC8FD7DUL8OXPE","A8EWC86OH91I2","3MXX6RQ9EVRTFC527Z18RDK8KW6P4R","","273.79999999701977","img/food1.png","76","275","3","0","false","1","2","1,0.5,0,1,0.5,0,0.5,0,1","0,1,0.5,0,1,0.5,1,0.5,0","3",""
"","html-keyboard-response","76","78451","0.0-112.0","3J88R45B2HKMZYR6IC8FD7DUL8OXPE","A8EWC86OH91I2","3MXX6RQ9EVRTFC527Z18RDK8KW6P4R","","null","<img src=""img/food1.png"" style=""width:200px;border:14px solid red;"">","null","","","","","","","","","",""
"","image-keyboard-response","77","78469","0.0-114.0","3J88R45B2HKMZYR6IC8FD7DUL8OXPE","A8EWC86OH91I2","3MXX6RQ9EVRTFC527Z18RDK8KW6P4R","","16.80000000447035","img/food1.png","75","17.899999998509884","2","1","false","1","2","1,0.5,0,1,0.5,0,0.5,0,1","0,1,0.5,0,1,0.5,1,0.5,0","3",""
"","html-keyboard-response","78","78770","0.0-115.0","3J88R45B2HKMZYR6IC8FD7DUL8OXPE","A8EWC86OH91I2","3MXX6RQ9EVRTFC527Z18RDK8KW6P4R","","null","<img src=""img/food1.png"" style=""width:200px; border:14px solid green;"">","null","","","","","","","","","",""
"","image-keyboard-response","79","79042","0.0-117.0","3J88R45B2HKMZYR6IC8FD7DUL8OXPE","A8EWC86OH91I2","3MXX6RQ9EVRTFC527Z18RDK8KW6P4R","","270.1000000014901","img/food1.png","75","271.1000000014901","2","1","false","1","2","1,0.5,0,1,0.5,0,0.5,0,1","0,1,0.5,0,1,0.5,1,0.5,0","3",""
"","html-keyboard-response","80","79344","0.0-118.0","3J88R45B2HKMZYR6IC8FD7DUL8OXPE","A8EWC86OH91I2","3MXX6RQ9EVRTFC527Z18RDK8KW6P4R","","null","<img src=""img/food1.png"" style=""width:200px; border:14px solid green;"">","null","","","","","","","","","",""
"","image-keyboard-response","81","79367","0.0-120.0","3J88R45B2HKMZYR6IC8FD7DUL8OXPE","A8EWC86OH91I2","3MXX6RQ9EVRTFC527Z18RDK8KW6P4R","","22.100000001490116","img/food1.png","76","23.19999999552965","3","0","false","1","2","1,0.5,0,1,0.5,0,0.5,0,1","0,1,0.5,0,1,0.5,1,0.5,0","3",""
"","html-keyboard-response","82","79668","0.0-121.0","3J88R45B2HKMZYR6IC8FD7DUL8OXPE","A8EWC86OH91I2","3MXX6RQ9EVRTFC527Z18RDK8KW6P4R","","null","<img src=""img/food1.png"" style=""width:200px;border:14px solid red;"">","null","","","","","","","","","",""
"","image-keyboard-response","83","79966","0.0-123.0","3J88R45B2HKMZYR6IC8FD7DUL8OXPE","A8EWC86OH91I2","3MXX6RQ9EVRTFC527Z18RDK8KW6P4R","","296.5","img/food5.png","74","297.40000000596046","1","0","false","2","2","1,0.5,0,1,0.5,0,0.5,0,1","0,1,0.5,0,1,0.5,1,0.5,0","3",""
"","html-keyboard-response","84","80268","0.0-124.0","3J88R45B2HKMZYR6IC8FD7DUL8OXPE","A8EWC86OH91I2","3MXX6RQ9EVRTFC527Z18RDK8KW6P4R","","null","<img src=""img/food5.png"" style=""width:200px;border:14px solid red;"">","null","","","","","","","","","",""
"","image-keyboard-response","85","80300","0.0-126.0","3J88R45B2HKMZYR6IC8FD7DUL8OXPE","A8EWC86OH91I2","3MXX6RQ9EVRTFC527Z18RDK8KW6P4R","","30.399999998509884","img/food1.png","74","31.30000000447035","1","0","false","1","2","1,0.5,0,1,0.5,0,0.5,0,1","0,1,0.5,0,1,0.5,1,0.5,0","3",""
"","html-keyboard-response","86","80602","0.0-127.0","3J88R45B2HKMZYR6IC8FD7DUL8OXPE","A8EWC86OH91I2","3MXX6RQ9EVRTFC527Z18RDK8KW6P4R","","null","<img src=""img/food1.png"" style=""width:200px;border:14px solid red;"">","null","","","","","","","","","",""
"","image-keyboard-response","87","80873","0.0-129.0","3J88R45B2HKMZYR6IC8FD7DUL8OXPE","A8EWC86OH91I2","3MXX6RQ9EVRTFC527Z18RDK8KW6P4R","","270","img/food4.png","75","271.09999999403954","2","1","false","3","2","1,0.5,0,1,0.5,0,0.5,0,1","0,1,0.5,0,1,0.5,1,0.5,0","3",""
"","html-keyboard-response","88","81175","0.0-130.0","3J88R45B2HKMZYR6IC8FD7DUL8OXPE","A8EWC86OH91I2","3MXX6RQ9EVRTFC527Z18RDK8KW6P4R","","null","<img src=""img/food4.png"" style=""width:200px; border:14px solid green;"">","null","","","","","","","","","",""
"","image-keyboard-response","89","81512","0.0-132.0","3J88R45B2HKMZYR6IC8FD7DUL8OXPE","A8EWC86OH91I2","3MXX6RQ9EVRTFC527Z18RDK8KW6P4R","","335.8999999985099","img/food4.png","75","337.1000000014901","2","0","false","3","2","1,0.5,0,1,0.5,0,0.5,0,1","0,1,0.5,0,1,0.5,1,0.5,0","3",""
"","html-keyboard-response","90","81814","0.0-133.0","3J88R45B2HKMZYR6IC8FD7DUL8OXPE","A8EWC86OH91I2","3MXX6RQ9EVRTFC527Z18RDK8KW6P4R","","null","<img src=""img/food4.png"" style=""width:200px;border:14px solid red;"">","null","","","","","","","","","",""
"","image-keyboard-response","91","81816","0.0-135.0","3J88R45B2HKMZYR6IC8FD7DUL8OXPE","A8EWC86OH91I2","3MXX6RQ9EVRTFC527Z18RDK8KW6P4R","","0.20000000298023224","img/food1.png","76","1.1000000014901161","3","0","false","1","2","1,0.5,0,1,0.5,0,0.5,0,1","0,1,0.5,0,1,0.5,1,0.5,0","3",""
"","html-keyboard-response","92","82118","0.0-136.0","3J88R45B2HKMZYR6IC8FD7DUL8OXPE","A8EWC86OH91I2","3MXX6RQ9EVRTFC527Z18RDK8KW6P4R","","null","<img src=""img/food1.png"" style=""width:200px;border:14px solid red;"">","null","","","","","","","","","",""
"","image-keyboard-response","93","82383","0.0-138.0","3J88R45B2HKMZYR6IC8FD7DUL8OXPE","A8EWC86OH91I2","3MXX6RQ9EVRTFC527Z18RDK8KW6P4R","","264","img/food4.png","74","265.20000000298023","1","1","false","3","2","1,0.5,0,1,0.5,0,0.5,0,1","0,1,0.5,0,1,0.5,1,0.5,0","3",""
"","html-keyboard-response","94","82691","0.0-139.0","3J88R45B2HKMZYR6IC8FD7DUL8OXPE","A8EWC86OH91I2","3MXX6RQ9EVRTFC527Z18RDK8KW6P4R","","null","<img src=""img/food4.png"" style=""width:200px; border:14px solid green;"">","null","","","","","","","","","",""
"","image-keyboard-response","95","82728","0.0-141.0","3J88R45B2HKMZYR6IC8FD7DUL8OXPE","A8EWC86OH91I2","3MXX6RQ9EVRTFC527Z18RDK8KW6P4R","","35.399999998509884","img/food1.png","74","36.5","1","0","false","1","2","1,0.5,0,1,0.5,0,0.5,0,1","0,1,0.5,0,1,0.5,1,0.5,0","3",""
"","html-keyboard-response","96","83030","0.0-142.0","3J88R45B2HKMZYR6IC8FD7DUL8OXPE","A8EWC86OH91I2","3MXX6RQ9EVRTFC527Z18RDK8KW6P4R","","null","<img src=""img/food1.png"" style=""width:200px;border:14px solid red;"">","null","","","","","","","","","",""
"","image-keyboard-response","97","83322","0.0-144.0","3J88R45B2HKMZYR6IC8FD7DUL8OXPE","A8EWC86OH91I2","3MXX6RQ9EVRTFC527Z18RDK8KW6P4R","","290.69999999552965","img/food4.png","74","291.70000000298023","1","1","false","3","2","1,0.5,0,1,0.5,0,0.5,0,1","0,1,0.5,0,1,0.5,1,0.5,0","3",""
"","html-keyboard-response","98","83624","0.0-145.0","3J88R45B2HKMZYR6IC8FD7DUL8OXPE","A8EWC86OH91I2","3MXX6RQ9EVRTFC527Z18RDK8KW6P4R","","null","<img src=""img/food4.png"" style=""width:200px; border:14px solid green;"">","null","","","","","","","","","",""
"","image-keyboard-response","99","83639","0.0-147.0","3J88R45B2HKMZYR6IC8FD7DUL8OXPE","A8EWC86OH91I2","3MXX6RQ9EVRTFC527Z18RDK8KW6P4R","","14.200000002980232","img/food1.png","75","15.199999995529652","2","1","false","1","2","1,0.5,0,1,0.5,0,0.5,0,1","0,1,0.5,0,1,0.5,1,0.5,0","3",""
"","html-keyboard-response","100","83941","0.0-148.0","3J88R45B2HKMZYR6IC8FD7DUL8OXPE","A8EWC86OH91I2","3MXX6RQ9EVRTFC527Z18RDK8KW6P4R","","null","<img src=""img/food1.png"" style=""width:200px; border:14px solid green;"">","null","","","","","","","","","",""
"","image-keyboard-response","101","83967","0.0-150.0","3J88R45B2HKMZYR6IC8FD7DUL8OXPE","A8EWC86OH91I2","3MXX6RQ9EVRTFC527Z18RDK8KW6P4R","","23.799999997019768","img/food1.png","74","25","1","0","false","1","2","1,0.5,0,1,0.5,0,0.5,0,1","0,1,0.5,0,1,0.5,1,0.5,0","3",""
"","html-keyboard-response","102","84268","0.0-151.0","3J88R45B2HKMZYR6IC8FD7DUL8OXPE","A8EWC86OH91I2","3MXX6RQ9EVRTFC527Z18RDK8KW6P4R","","null","<img src=""img/food1.png"" style=""width:200px;border:14px solid red;"">","null","","","","","","","","","",""
"","image-keyboard-response","103","84303","0.0-153.0","3J88R45B2HKMZYR6IC8FD7DUL8OXPE","A8EWC86OH91I2","3MXX6RQ9EVRTFC527Z18RDK8KW6P4R","","33.20000000298023","img/food5.png","75","34.399999998509884","2","1","false","2","2","1,0.5,0,1,0.5,0,0.5,0,1","0,1,0.5,0,1,0.5,1,0.5,0","3",""
"","html-keyboard-response","104","84605","0.0-154.0","3J88R45B2HKMZYR6IC8FD7DUL8OXPE","A8EWC86OH91I2","3MXX6RQ9EVRTFC527Z18RDK8KW6P4R","","null","<img src=""img/food5.png"" style=""width:200px; border:14px solid green;"">","null","","","","","","","","","",""
"","image-keyboard-response","105","84814","0.0-156.0","3J88R45B2HKMZYR6IC8FD7DUL8OXPE","A8EWC86OH91I2","3MXX6RQ9EVRTFC527Z18RDK8KW6P4R","","207.60000000149012","img/food1.png","75","208.60000000149012","2","1","false","1","2","1,0.5,0,1,0.5,0,0.5,0,1","0,1,0.5,0,1,0.5,1,0.5,0","3",""
"","html-keyboard-response","106","85117","0.0-157.0","3J88R45B2HKMZYR6IC8FD7DUL8OXPE","A8EWC86OH91I2","3MXX6RQ9EVRTFC527Z18RDK8KW6P4R","","null","<img src=""img/food1.png"" style=""width:200px; border:14px solid green;"">","null","","","","","","","","","",""
"","image-keyboard-response","107","85337","0.0-159.0","3J88R45B2HKMZYR6IC8FD7DUL8OXPE","A8EWC86OH91I2","3MXX6RQ9EVRTFC527Z18RDK8KW6P4R","","218.5","img/food4.png","75","219.69999999552965","2","0","false","3","2","1,0.5,0,1,0.5,0,0.5,0,1","0,1,0.5,0,1,0.5,1,0.5,0","3",""
"","html-keyboard-response","108","85639","0.0-160.0","3J88R45B2HKMZYR6IC8FD7DUL8OXPE","A8EWC86OH91I2","3MXX6RQ9EVRTFC527Z18RDK8KW6P4R","","null","<img src=""img/food4.png"" style=""width:200px;border:14px solid red;"">","null","","","","","","","","","",""
"","image-keyboard-response","109","85875","0.0-162.0","3J88R45B2HKMZYR6IC8FD7DUL8OXPE","A8EWC86OH91I2","3MXX6RQ9EVRTFC527Z18RDK8KW6P4R","","234.60000000149012","img/food4.png","75","235.70000000298023","2","0","false","3","2","1,0.5,0,1,0.5,0,0.5,0,1","0,1,0.5,0,1,0.5,1,0.5,0","3",""
"","html-keyboard-response","110","86177","0.0-163.0","3J88R45B2HKMZYR6IC8FD7DUL8OXPE","A8EWC86OH91I2","3MXX6RQ9EVRTFC527Z18RDK8KW6P4R","","null","<img src=""img/food4.png"" style=""width:200px;border:14px solid red;"">","null","","","","","","","","","",""
"","image-keyboard-response","111","86470","0.0-165.0","3J88R45B2HKMZYR6IC8FD7DUL8OXPE","A8EWC86OH91I2","3MXX6RQ9EVRTFC527Z18RDK8KW6P4R","","291.29999999701977","img/food4.png","75","292.40000000596046","2","1","false","3","2","1,0.5,0,1,0.5,0,0.5,0,1","0,1,0.5,0,1,0.5,1,0.5,0","3",""
"","html-keyboard-response","112","86772","0.0-166.0","3J88R45B2HKMZYR6IC8FD7DUL8OXPE","A8EWC86OH91I2","3MXX6RQ9EVRTFC527Z18RDK8KW6P4R","","null","<img src=""img/food4.png"" style=""width:200px; border:14px solid green;"">","null","","","","","","","","","",""
"","image-keyboard-response","113","86803","0.0-168.0","3J88R45B2HKMZYR6IC8FD7DUL8OXPE","A8EWC86OH91I2","3MXX6RQ9EVRTFC527Z18RDK8KW6P4R","","29.299999997019768","img/food4.png","76","30.400000005960464","3","0","false","3","2","1,0.5,0,1,0.5,0,0.5,0,1","0,1,0.5,0,1,0.5,1,0.5,0","3",""
"","html-keyboard-response","114","87105","0.0-169.0","3J88R45B2HKMZYR6IC8FD7DUL8OXPE","A8EWC86OH91I2","3MXX6RQ9EVRTFC527Z18RDK8KW6P4R","","null","<img src=""img/food4.png"" style=""width:200px;border:14px solid red;"">","null","","","","","","","","","",""
"","image-keyboard-response","115","87109","0.0-171.0","3J88R45B2HKMZYR6IC8FD7DUL8OXPE","A8EWC86OH91I2","3MXX6RQ9EVRTFC527Z18RDK8KW6P4R","","2.5","img/food5.png","76","3.5","3","1","false","2","2","1,0.5,0,1,0.5,0,0.5,0,1","0,1,0.5,0,1,0.5,1,0.5,0","3",""
"","html-keyboard-response","116","87410","0.0-172.0","3J88R45B2HKMZYR6IC8FD7DUL8OXPE","A8EWC86OH91I2","3MXX6RQ9EVRTFC527Z18RDK8KW6P4R","","null","<img src=""img/food5.png"" style=""width:200px; border:14px solid green;"">","null","","","","","","","","","",""
"","image-keyboard-response","117","87412","0.0-174.0","3J88R45B2HKMZYR6IC8FD7DUL8OXPE","A8EWC86OH91I2","3MXX6RQ9EVRTFC527Z18RDK8KW6P4R","","0.19999999552965164","img/food4.png","75","1.1000000014901161","2","0","false","3","2","1,0.5,0,1,0.5,0,0.5,0,1","0,1,0.5,0,1,0.5,1,0.5,0","3",""
"","html-keyboard-response","118","87715","0.0-175.0","3J88R45B2HKMZYR6IC8FD7DUL8OXPE","A8EWC86OH91I2","3MXX6RQ9EVRTFC527Z18RDK8KW6P4R","","null","<img src=""img/food4.png"" style=""width:200px;border:14px solid red;"">","null","","","","","","","","","",""
"","image-keyboard-response","119","87754","0.0-177.0","3J88R45B2HKMZYR6IC8FD7DUL8OXPE","A8EWC86OH91I2","3MXX6RQ9EVRTFC527Z18RDK8KW6P4R","","39","img/food1.png","75","39.5","2","1","false","1","2","1,0.5,0,1,0.5,0,0.5,0,1","0,1,0.5,0,1,0.5,1,0.5,0","3",""
"","html-keyboard-response","120","88056","0.0-178.0","3J88R45B2HKMZYR6IC8FD7DUL8OXPE","A8EWC86OH91I2","3MXX6RQ9EVRTFC527Z18RDK8KW6P4R","","null","<img src=""img/food1.png"" style=""width:200px; border:14px solid green;"">","null","","","","","","","","","",""
"","image-keyboard-response","121","88150","0.0-180.0","3J88R45B2HKMZYR6IC8FD7DUL8OXPE","A8EWC86OH91I2","3MXX6RQ9EVRTFC527Z18RDK8KW6P4R","","92.19999999552965","img/food4.png","74","93.30000000447035","1","1","false","3","2","1,0.5,0,1,0.5,0,0.5,0,1","0,1,0.5,0,1,0.5,1,0.5,0","3",""
"","html-keyboard-response","122","88453","0.0-181.0","3J88R45B2HKMZYR6IC8FD7DUL8OXPE","A8EWC86OH91I2","3MXX6RQ9EVRTFC527Z18RDK8KW6P4R","","null","<img src=""img/food4.png"" style=""width:200px; border:14px solid green;"">","null","","","","","","","","","",""
"","image-keyboard-response","123","88658","0.0-183.0","3J88R45B2HKMZYR6IC8FD7DUL8OXPE","A8EWC86OH91I2","3MXX6RQ9EVRTFC527Z18RDK8KW6P4R","","203.39999999850988","img/food5.png","74","204.39999999850988","1","0","false","2","2","1,0.5,0,1,0.5,0,0.5,0,1","0,1,0.5,0,1,0.5,1,0.5,0","3",""
"","html-keyboard-response","124","88960","0.0-184.0","3J88R45B2HKMZYR6IC8FD7DUL8OXPE","A8EWC86OH91I2","3MXX6RQ9EVRTFC527Z18RDK8KW6P4R","","null","<img src=""img/food5.png"" style=""width:200px;border:14px solid red;"">","null","","","","","","","","","",""
"","image-keyboard-response","125","89203","0.0-186.0","3J88R45B2HKMZYR6IC8FD7DUL8OXPE","A8EWC86OH91I2","3MXX6RQ9EVRTFC527Z18RDK8KW6P4R","","241.60000000149012","img/food5.png","75","242.79999999701977","2","1","false","2","2","1,0.5,0,1,0.5,0,0.5,0,1","0,1,0.5,0,1,0.5,1,0.5,0","3",""
"","html-keyboard-response","126","89506","0.0-187.0","3J88R45B2HKMZYR6IC8FD7DUL8OXPE","A8EWC86OH91I2","3MXX6RQ9EVRTFC527Z18RDK8KW6P4R","","null","<img src=""img/food5.png"" style=""width:200px; border:14px solid green;"">","null","","","","","","","","","",""
"","image-keyboard-response","127","89731","0.0-189.0","3J88R45B2HKMZYR6IC8FD7DUL8OXPE","A8EWC86OH91I2","3MXX6RQ9EVRTFC527Z18RDK8KW6P4R","","223.80000000447035","img/food5.png","75","224.89999999850988","2","1","false","2","2","1,0.5,0,1,0.5,0,0.5,0,1","0,1,0.5,0,1,0.5,1,0.5,0","3",""
"","html-keyboard-response","128","90032","0.0-190.0","3J88R45B2HKMZYR6IC8FD7DUL8OXPE","A8EWC86OH91I2","3MXX6RQ9EVRTFC527Z18RDK8KW6P4R","","null","<img src=""img/food5.png"" style=""width:200px; border:14px solid green;"">","null","","","","","","","","","",""
"","image-keyboard-response","129","90039","0.0-192.0","3J88R45B2HKMZYR6IC8FD7DUL8OXPE","A8EWC86OH91I2","3MXX6RQ9EVRTFC527Z18RDK8KW6P4R","","5.699999995529652","img/food1.png","75","6.600000001490116","2","1","false","1","2","1,0.5,0,1,0.5,0,0.5,0,1","0,1,0.5,0,1,0.5,1,0.5,0","3",""
"","html-keyboard-response","130","90341","0.0-193.0","3J88R45B2HKMZYR6IC8FD7DUL8OXPE","A8EWC86OH91I2","3MXX6RQ9EVRTFC527Z18RDK8KW6P4R","","null","<img src=""img/food1.png"" style=""width:200px; border:14px solid green;"">","null","","","","","","","","","",""
"","image-keyboard-response","131","90609","0.0-195.0","3J88R45B2HKMZYR6IC8FD7DUL8OXPE","A8EWC86OH91I2","3MXX6RQ9EVRTFC527Z18RDK8KW6P4R","","267.1000000014901","img/food1.png","75","268.19999999552965","2","1","false","1","2","1,0.5,0,1,0.5,0,0.5,0,1","0,1,0.5,0,1,0.5,1,0.5,0","3",""
"","html-keyboard-response","132","90912","0.0-196.0","3J88R45B2HKMZYR6IC8FD7DUL8OXPE","A8EWC86OH91I2","3MXX6RQ9EVRTFC527Z18RDK8KW6P4R","","null","<img src=""img/food1.png"" style=""width:200px; border:14px solid green;"">","null","","","","","","","","","",""
"","image-keyboard-response","133","90922","0.0-198.0","3J88R45B2HKMZYR6IC8FD7DUL8OXPE","A8EWC86OH91I2","3MXX6RQ9EVRTFC527Z18RDK8KW6P4R","","9","img/food5.png","75","10","2","1","false","2","2","1,0.5,0,1,0.5,0,0.5,0,1","0,1,0.5,0,1,0.5,1,0.5,0","3",""
"","html-keyboard-response","134","91224","0.0-199.0","3J88R45B2HKMZYR6IC8FD7DUL8OXPE","A8EWC86OH91I2","3MXX6RQ9EVRTFC527Z18RDK8KW6P4R","","null","<img src=""img/food5.png"" style=""width:200px; border:14px solid green;"">","null","","","","","","","","","",""
"","image-keyboard-response","135","91505","0.0-201.0","3J88R45B2HKMZYR6IC8FD7DUL8OXPE","A8EWC86OH91I2","3MXX6RQ9EVRTFC527Z18RDK8KW6P4R","","279.6000000014901","img/food4.png","75","280.70000000298023","2","0","false","3","2","1,0.5,0,1,0.5,0,0.5,0,1","0,1,0.5,0,1,0.5,1,0.5,0","3",""
"","html-keyboard-response","136","91806","0.0-202.0","3J88R45B2HKMZYR6IC8FD7DUL8OXPE","A8EWC86OH91I2","3MXX6RQ9EVRTFC527Z18RDK8KW6P4R","","null","<img src=""img/food4.png"" style=""width:200px;border:14px solid red;"">","null","","","","","","","","","",""
"","image-keyboard-response","137","92055","0.0-204.0","3J88R45B2HKMZYR6IC8FD7DUL8OXPE","A8EWC86OH91I2","3MXX6RQ9EVRTFC527Z18RDK8KW6P4R","","246.89999999850988","img/food1.png","75","248","2","1","false","1","2","1,0.5,0,1,0.5,0,0.5,0,1","0,1,0.5,0,1,0.5,1,0.5,0","3",""
"","html-keyboard-response","138","92356","0.0-205.0","3J88R45B2HKMZYR6IC8FD7DUL8OXPE","A8EWC86OH91I2","3MXX6RQ9EVRTFC527Z18RDK8KW6P4R","","null","<img src=""img/food1.png"" style=""width:200px; border:14px solid green;"">","null","","","","","","","","","",""
"","image-keyboard-response","139","92372","0.0-207.0","3J88R45B2HKMZYR6IC8FD7DUL8OXPE","A8EWC86OH91I2","3MXX6RQ9EVRTFC527Z18RDK8KW6P4R","","13.699999995529652","img/food1.png","75","14.700000002980232","2","1","false","1","2","1,0.5,0,1,0.5,0,0.5,0,1","0,1,0.5,0,1,0.5,1,0.5,0","3",""
"","html-keyboard-response","140","92674","0.0-208.0","3J88R45B2HKMZYR6IC8FD7DUL8OXPE","A8EWC86OH91I2","3MXX6RQ9EVRTFC527Z18RDK8KW6P4R","","null","<img src=""img/food1.png"" style=""width:200px; border:14px solid green;"">","null","","","","","","","","","",""
"","image-keyboard-response","141","92917","0.0-210.0","3J88R45B2HKMZYR6IC8FD7DUL8OXPE","A8EWC86OH91I2","3MXX6RQ9EVRTFC527Z18RDK8KW6P4R","","242.10000000149012","img/food1.png","75","243.09999999403954","2","1","false","1","2","1,0.5,0,1,0.5,0,0.5,0,1","0,1,0.5,0,1,0.5,1,0.5,0","3",""
"","html-keyboard-response","142","93219","0.0-211.0","3J88R45B2HKMZYR6IC8FD7DUL8OXPE","A8EWC86OH91I2","3MXX6RQ9EVRTFC527Z18RDK8KW6P4R","","null","<img src=""img/food1.png"" style=""width:200px; border:14px solid green;"">","null","","","","","","","","","",""
"","image-keyboard-response","143","93488","0.0-213.0","3J88R45B2HKMZYR6IC8FD7DUL8OXPE","A8EWC86OH91I2","3MXX6RQ9EVRTFC527Z18RDK8KW6P4R","","267.8999999985099","img/food4.png","75","268.8999999985099","2","0","false","3","2","1,0.5,0,1,0.5,0,0.5,0,1","0,1,0.5,0,1,0.5,1,0.5,0","3",""
"","html-keyboard-response","144","93791","0.0-214.0","3J88R45B2HKMZYR6IC8FD7DUL8OXPE","A8EWC86OH91I2","3MXX6RQ9EVRTFC527Z18RDK8KW6P4R","","null","<img src=""img/food4.png"" style=""width:200px;border:14px solid red;"">","null","","","","","","","","","",""
"","image-keyboard-response","145","93793","0.0-216.0","3J88R45B2HKMZYR6IC8FD7DUL8OXPE","A8EWC86OH91I2","3MXX6RQ9EVRTFC527Z18RDK8KW6P4R","","0.20000000298023224","img/food5.png","75","1.1000000014901161","2","1","false","2","2","1,0.5,0,1,0.5,0,0.5,0,1","0,1,0.5,0,1,0.5,1,0.5,0","3",""
"","html-keyboard-response","146","94095","0.0-217.0","3J88R45B2HKMZYR6IC8FD7DUL8OXPE","A8EWC86OH91I2","3MXX6RQ9EVRTFC527Z18RDK8KW6P4R","","null","<img src=""img/food5.png"" style=""width:200px; border:14px solid green;"">","null","","","","","","","","","",""
"","image-keyboard-response","147","94356","0.0-219.0","3J88R45B2HKMZYR6IC8FD7DUL8OXPE","A8EWC86OH91I2","3MXX6RQ9EVRTFC527Z18RDK8KW6P4R","","259.80000000447035","img/food4.png","75","260.79999999701977","2","1","false","3","2","1,0.5,0,1,0.5,0,0.5,0,1","0,1,0.5,0,1,0.5,1,0.5,0","3",""
"","html-keyboard-response","148","94658","0.0-220.0","3J88R45B2HKMZYR6IC8FD7DUL8OXPE","A8EWC86OH91I2","3MXX6RQ9EVRTFC527Z18RDK8KW6P4R","","null","<img src=""img/food4.png"" style=""width:200px; border:14px solid green;"">","null","","","","","","","","","",""
"","image-keyboard-response","149","94716","0.0-222.0","3J88R45B2HKMZYR6IC8FD7DUL8OXPE","A8EWC86OH91I2","3MXX6RQ9EVRTFC527Z18RDK8KW6P4R","","56.5","img/food4.png","74","57.400000005960464","1","1","false","3","2","1,0.5,0,1,0.5,0,0.5,0,1","0,1,0.5,0,1,0.5,1,0.5,0","3",""
"","html-keyboard-response","150","95018","0.0-223.0","3J88R45B2HKMZYR6IC8FD7DUL8OXPE","A8EWC86OH91I2","3MXX6RQ9EVRTFC527Z18RDK8KW6P4R","","null","<img src=""img/food4.png"" style=""width:200px; border:14px solid green;"">","null","","","","","","","","","",""
"","image-keyboard-response","151","95243","0.0-225.0","3J88R45B2HKMZYR6IC8FD7DUL8OXPE","A8EWC86OH91I2","3MXX6RQ9EVRTFC527Z18RDK8KW6P4R","","223","img/food1.png","76","224.09999999403954","3","0","false","1","2","1,0.5,0,1,0.5,0,0.5,0,1","0,1,0.5,0,1,0.5,1,0.5,0","3",""
"","html-keyboard-response","152","95544","0.0-226.0","3J88R45B2HKMZYR6IC8FD7DUL8OXPE","A8EWC86OH91I2","3MXX6RQ9EVRTFC527Z18RDK8KW6P4R","","null","<img src=""img/food1.png"" style=""width:200px;border:14px solid red;"">","null","","","","","","","","","",""
"","image-keyboard-response","153","95798","0.0-228.0","3J88R45B2HKMZYR6IC8FD7DUL8OXPE","A8EWC86OH91I2","3MXX6RQ9EVRTFC527Z18RDK8KW6P4R","","252.89999999850988","img/food5.png","75","253.60000000149012","2","1","false","2","2","1,0.5,0,1,0.5,0,0.5,0,1","0,1,0.5,0,1,0.5,1,0.5,0","3",""
"","html-keyboard-response","154","96100","0.0-229.0","3J88R45B2HKMZYR6IC8FD7DUL8OXPE","A8EWC86OH91I2","3MXX6RQ9EVRTFC527Z18RDK8KW6P4R","","null","<img src=""img/food5.png"" style=""width:200px; border:14px solid green;"">","null","","","","","","","","","",""
"","image-keyboard-response","155","96138","0.0-231.0","3J88R45B2HKMZYR6IC8FD7DUL8OXPE","A8EWC86OH91I2","3MXX6RQ9EVRTFC527Z18RDK8KW6P4R","","37","img/food4.png","74","37.899999998509884","1","1","false","3","2","1,0.5,0,1,0.5,0,0.5,0,1","0,1,0.5,0,1,0.5,1,0.5,0","3",""
"","html-keyboard-response","156","96440","0.0-232.0","3J88R45B2HKMZYR6IC8FD7DUL8OXPE","A8EWC86OH91I2","3MXX6RQ9EVRTFC527Z18RDK8KW6P4R","","null","<img src=""img/food4.png"" style=""width:200px; border:14px solid green;"">","null","","","","","","","","","",""
"","image-keyboard-response","157","96711","0.0-234.0","3J88R45B2HKMZYR6IC8FD7DUL8OXPE","A8EWC86OH91I2","3MXX6RQ9EVRTFC527Z18RDK8KW6P4R","","270.29999999701977","img/food4.png","74","271.1000000014901","1","1","false","3","2","1,0.5,0,1,0.5,0,0.5,0,1","0,1,0.5,0,1,0.5,1,0.5,0","3",""
"","html-keyboard-response","158","97013","0.0-235.0","3J88R45B2HKMZYR6IC8FD7DUL8OXPE","A8EWC86OH91I2","3MXX6RQ9EVRTFC527Z18RDK8KW6P4R","","null","<img src=""img/food4.png"" style=""width:200px; border:14px solid green;"">","null","","","","","","","","","",""
"","image-keyboard-response","159","97298","0.0-237.0","3J88R45B2HKMZYR6IC8FD7DUL8OXPE","A8EWC86OH91I2","3MXX6RQ9EVRTFC527Z18RDK8KW6P4R","","284","img/food4.png","74","284.80000000447035","1","1","false","3","2","1,0.5,0,1,0.5,0,0.5,0,1","0,1,0.5,0,1,0.5,1,0.5,0","3",""
"","html-keyboard-response","160","97600","0.0-238.0","3J88R45B2HKMZYR6IC8FD7DUL8OXPE","A8EWC86OH91I2","3MXX6RQ9EVRTFC527Z18RDK8KW6P4R","","null","<img src=""img/food4.png"" style=""width:200px; border:14px solid green;"">","null","","","","","","","","","",""
"","image-keyboard-response","161","97606","0.0-240.0","3J88R45B2HKMZYR6IC8FD7DUL8OXPE","A8EWC86OH91I2","3MXX6RQ9EVRTFC527Z18RDK8KW6P4R","","5.200000002980232","img/food1.png","74","5.899999998509884","1","0","false","1","2","1,0.5,0,1,0.5,0,0.5,0,1","0,1,0.5,0,1,0.5,1,0.5,0","3",""
"","html-keyboard-response","162","97909","0.0-241.0","3J88R45B2HKMZYR6IC8FD7DUL8OXPE","A8EWC86OH91I2","3MXX6RQ9EVRTFC527Z18RDK8KW6P4R","","null","<img src=""img/food1.png"" style=""width:200px;border:14px solid red;"">","null","","","","","","","","","",""
"","image-keyboard-response","163","97915","0.0-243.0","3J88R45B2HKMZYR6IC8FD7DUL8OXPE","A8EWC86OH91I2","3MXX6RQ9EVRTFC527Z18RDK8KW6P4R","","4","img/food1.png","74","4.899999998509884","1","0","false","1","2","1,0.5,0,1,0.5,0,0.5,0,1","0,1,0.5,0,1,0.5,1,0.5,0","3",""
"","html-keyboard-response","164","98216","0.0-244.0","3J88R45B2HKMZYR6IC8FD7DUL8OXPE","A8EWC86OH91I2","3MXX6RQ9EVRTFC527Z18RDK8KW6P4R","","null","<img src=""img/food1.png"" style=""width:200px;border:14px solid red;"">","null","","","","","","","","","",""
"","image-keyboard-response","165","98462","0.0-246.0","3J88R45B2HKMZYR6IC8FD7DUL8OXPE","A8EWC86OH91I2","3MXX6RQ9EVRTFC527Z18RDK8KW6P4R","","244.60000000149012","img/food5.png","75","245.5","2","1","false","2","2","1,0.5,0,1,0.5,0,0.5,0,1","0,1,0.5,0,1,0.5,1,0.5,0","3",""
"","html-keyboard-response","166","98764","0.0-247.0","3J88R45B2HKMZYR6IC8FD7DUL8OXPE","A8EWC86OH91I2","3MXX6RQ9EVRTFC527Z18RDK8KW6P4R","","null","<img src=""img/food5.png"" style=""width:200px; border:14px solid green;"">","null","","","","","","","","","",""
"","image-keyboard-response","167","98783","0.0-249.0","3J88R45B2HKMZYR6IC8FD7DUL8OXPE","A8EWC86OH91I2","3MXX6RQ9EVRTFC527Z18RDK8KW6P4R","","17.399999998509884","img/food5.png","75","18.5","2","1","false","2","2","1,0.5,0,1,0.5,0,0.5,0,1","0,1,0.5,0,1,0.5,1,0.5,0","3",""
"","html-keyboard-response","168","99094","0.0-250.0","3J88R45B2HKMZYR6IC8FD7DUL8OXPE","A8EWC86OH91I2","3MXX6RQ9EVRTFC527Z18RDK8KW6P4R","","null","<img src=""img/food5.png"" style=""width:200px; border:14px solid green;"">","null","","","","","","","","","",""
"","image-keyboard-response","169","99400","0.0-252.0","3J88R45B2HKMZYR6IC8FD7DUL8OXPE","A8EWC86OH91I2","3MXX6RQ9EVRTFC527Z18RDK8KW6P4R","","304.5","img/food4.png","75","305.5","2","0","false","3","2","1,0.5,0,1,0.5,0,0.5,0,1","0,1,0.5,0,1,0.5,1,0.5,0","3",""
"","html-keyboard-response","170","99702","0.0-253.0","3J88R45B2HKMZYR6IC8FD7DUL8OXPE","A8EWC86OH91I2","3MXX6RQ9EVRTFC527Z18RDK8KW6P4R","","null","<img src=""img/food4.png"" style=""width:200px;border:14px solid red;"">","null","","","","","","","","","",""
"","image-keyboard-response","171","100064","0.0-255.0","3J88R45B2HKMZYR6IC8FD7DUL8OXPE","A8EWC86OH91I2","3MXX6RQ9EVRTFC527Z18RDK8KW6P4R","","360.5","img/food4.png","74","361.5","1","1","false","3","2","1,0.5,0,1,0.5,0,0.5,0,1","0,1,0.5,0,1,0.5,1,0.5,0","3",""
"","html-keyboard-response","172","100366","0.0-256.0","3J88R45B2HKMZYR6IC8FD7DUL8OXPE","A8EWC86OH91I2","3MXX6RQ9EVRTFC527Z18RDK8KW6P4R","","null","<img src=""img/food4.png"" style=""width:200px; border:14px solid green;"">","null","","","","","","","","","",""
"","image-keyboard-response","173","100374","0.0-258.0","3J88R45B2HKMZYR6IC8FD7DUL8OXPE","A8EWC86OH91I2","3MXX6RQ9EVRTFC527Z18RDK8KW6P4R","","6.800000004470348","img/food1.png","74","7.699999995529652","1","0","false","1","2","1,0.5,0,1,0.5,0,0.5,0,1","0,1,0.5,0,1,0.5,1,0.5,0","3",""
"","html-keyboard-response","174","100676","0.0-259.0","3J88R45B2HKMZYR6IC8FD7DUL8OXPE","A8EWC86OH91I2","3MXX6RQ9EVRTFC527Z18RDK8KW6P4R","","null","<img src=""img/food1.png"" style=""width:200px;border:14px solid red;"">","null","","","","","","","","","",""
"","image-keyboard-response","175","100704","0.0-261.0","3J88R45B2HKMZYR6IC8FD7DUL8OXPE","A8EWC86OH91I2","3MXX6RQ9EVRTFC527Z18RDK8KW6P4R","","26.299999997019768","img/food5.png","74","27.5","1","0","false","2","2","1,0.5,0,1,0.5,0,0.5,0,1","0,1,0.5,0,1,0.5,1,0.5,0","3",""
"","html-keyboard-response","176","101006","0.0-262.0","3J88R45B2HKMZYR6IC8FD7DUL8OXPE","A8EWC86OH91I2","3MXX6RQ9EVRTFC527Z18RDK8KW6P4R","","null","<img src=""img/food5.png"" style=""width:200px;border:14px solid red;"">","null","","","","","","","","","",""
"","image-keyboard-response","177","101274","0.0-264.0","3J88R45B2HKMZYR6IC8FD7DUL8OXPE","A8EWC86OH91I2","3MXX6RQ9EVRTFC527Z18RDK8KW6P4R","","266.70000000298023","img/food1.png","75","267.8999999985099","2","1","false","1","2","1,0.5,0,1,0.5,0,0.5,0,1","0,1,0.5,0,1,0.5,1,0.5,0","3",""
"","html-keyboard-response","178","101576","0.0-265.0","3J88R45B2HKMZYR6IC8FD7DUL8OXPE","A8EWC86OH91I2","3MXX6RQ9EVRTFC527Z18RDK8KW6P4R","","null","<img src=""img/food1.png"" style=""width:200px; border:14px solid green;"">","null","","","","","","","","","",""
"","image-keyboard-response","179","101668","0.0-267.0","3J88R45B2HKMZYR6IC8FD7DUL8OXPE","A8EWC86OH91I2","3MXX6RQ9EVRTFC527Z18RDK8KW6P4R","","90.20000000298023","img/food5.png","76","91.20000000298023","3","1","false","2","2","1,0.5,0,1,0.5,0,0.5,0,1","0,1,0.5,0,1,0.5,1,0.5,0","3",""
"","html-keyboard-response","180","101981","0.0-268.0","3J88R45B2HKMZYR6IC8FD7DUL8OXPE","A8EWC86OH91I2","3MXX6RQ9EVRTFC527Z18RDK8KW6P4R","","null","<img src=""img/food5.png"" style=""width:200px; border:14px solid green;"">","null","","","","","","","","","",""
"","image-keyboard-response","181","101985","0.0-270.0","3J88R45B2HKMZYR6IC8FD7DUL8OXPE","A8EWC86OH91I2","3MXX6RQ9EVRTFC527Z18RDK8KW6P4R","","3.3000000044703484","img/food5.png","76","4.299999997019768","3","0","false","2","2","1,0.5,0,1,0.5,0,0.5,0,1","0,1,0.5,0,1,0.5,1,0.5,0","3",""
"","html-keyboard-response","182","102287","0.0-271.0","3J88R45B2HKMZYR6IC8FD7DUL8OXPE","A8EWC86OH91I2","3MXX6RQ9EVRTFC527Z18RDK8KW6P4R","","null","<img src=""img/food5.png"" style=""width:200px;border:14px solid red;"">","null","","","","","","","","","",""
"","instructions","183","109885","0.0-273.0","3J88R45B2HKMZYR6IC8FD7DUL8OXPE","A8EWC86OH91I2","3MXX6RQ9EVRTFC527Z18RDK8KW6P4R","[{""page_index"":0,""viewing_time"":5668.69999999553},{""page_index"":1,""viewing_time"":1927.7000000029802}]","7596.79999999702","","","","","","","","","","","",""
"","image-keyboard-response","184","110248","0.0-274.0","3J88R45B2HKMZYR6IC8FD7DUL8OXPE","A8EWC86OH91I2","3MXX6RQ9EVRTFC527Z18RDK8KW6P4R","","361.8999999985099","img/food2.png","74","363.1000000014901","1","1","","1","1","1,0.5,0,1,0.5,0,0.5,0,1","1,0.5,0,1,0.5,0,0.5,0,1","1",""
"","html-keyboard-response","185","110551","0.0-275.0","3J88R45B2HKMZYR6IC8FD7DUL8OXPE","A8EWC86OH91I2","3MXX6RQ9EVRTFC527Z18RDK8KW6P4R","","null","<img src=""img/food2.png"" style=""width:200px; border:14px solid green;"">","null","","","","","","","","","",""
"","image-keyboard-response","186","110851","0.0-276.0","3J88R45B2HKMZYR6IC8FD7DUL8OXPE","A8EWC86OH91I2","3MXX6RQ9EVRTFC527Z18RDK8KW6P4R","","299.20000000298023","img/food6.png","74","300.29999999701977","1","1","","2","1","1,0.5,0,1,0.5,0,0.5,0,1","1,0.5,0,1,0.5,0,0.5,0,1","1",""
"","html-keyboard-response","187","111153","0.0-277.0","3J88R45B2HKMZYR6IC8FD7DUL8OXPE","A8EWC86OH91I2","3MXX6RQ9EVRTFC527Z18RDK8KW6P4R","","null","<img src=""img/food6.png"" style=""width:200px; border:14px solid green;"">","null","","","","","","","","","",""
"","image-keyboard-response","188","111168","0.0-278.0","3J88R45B2HKMZYR6IC8FD7DUL8OXPE","A8EWC86OH91I2","3MXX6RQ9EVRTFC527Z18RDK8KW6P4R","","13.800000004470348","img/food2.png","75","14.699999995529652","2","1","","1","1","1,0.5,0,1,0.5,0,0.5,0,1","1,0.5,0,1,0.5,0,0.5,0,1","1",""
"","html-keyboard-response","189","111470","0.0-279.0","3J88R45B2HKMZYR6IC8FD7DUL8OXPE","A8EWC86OH91I2","3MXX6RQ9EVRTFC527Z18RDK8KW6P4R","","null","<img src=""img/food2.png"" style=""width:200px; border:14px solid green;"">","null","","","","","","","","","",""
"","image-keyboard-response","190","111492","0.0-280.0","3J88R45B2HKMZYR6IC8FD7DUL8OXPE","A8EWC86OH91I2","3MXX6RQ9EVRTFC527Z18RDK8KW6P4R","","21.200000002980232","img/food2.png","74","22.200000002980232","1","1","","1","1","1,0.5,0,1,0.5,0,0.5,0,1","1,0.5,0,1,0.5,0,0.5,0,1","1",""
"","html-keyboard-response","191","111793","0.0-281.0","3J88R45B2HKMZYR6IC8FD7DUL8OXPE","A8EWC86OH91I2","3MXX6RQ9EVRTFC527Z18RDK8KW6P4R","","null","<img src=""img/food2.png"" style=""width:200px; border:14px solid green;"">","null","","","","","","","","","",""
"","image-keyboard-response","192","111816","0.0-282.0","3J88R45B2HKMZYR6IC8FD7DUL8OXPE","A8EWC86OH91I2","3MXX6RQ9EVRTFC527Z18RDK8KW6P4R","","21.200000002980232","img/food6.png","74","22.200000002980232","1","1","","2","1","1,0.5,0,1,0.5,0,0.5,0,1","1,0.5,0,1,0.5,0,0.5,0,1","1",""
"","html-keyboard-response","193","112117","0.0-283.0","3J88R45B2HKMZYR6IC8FD7DUL8OXPE","A8EWC86OH91I2","3MXX6RQ9EVRTFC527Z18RDK8KW6P4R","","null","<img src=""img/food6.png"" style=""width:200px; border:14px solid green;"">","null","","","","","","","","","",""
"","image-keyboard-response","194","112161","0.0-284.0","3J88R45B2HKMZYR6IC8FD7DUL8OXPE","A8EWC86OH91I2","3MXX6RQ9EVRTFC527Z18RDK8KW6P4R","","42.100000001490116","img/food3.png","74","43.30000000447035","1","0","","3","1","1,0.5,0,1,0.5,0,0.5,0,1","1,0.5,0,1,0.5,0,0.5,0,1","1",""
"","html-keyboard-response","195","112463","0.0-285.0","3J88R45B2HKMZYR6IC8FD7DUL8OXPE","A8EWC86OH91I2","3MXX6RQ9EVRTFC527Z18RDK8KW6P4R","","null","<img src=""img/food3.png"" style=""width:200px;border:14px solid red;"">","null","","","","","","","","","",""
"","image-keyboard-response","196","112466","0.0-286.0","3J88R45B2HKMZYR6IC8FD7DUL8OXPE","A8EWC86OH91I2","3MXX6RQ9EVRTFC527Z18RDK8KW6P4R","","1.5","img/food6.png","74","2.5","1","1","","2","1","1,0.5,0,1,0.5,0,0.5,0,1","1,0.5,0,1,0.5,0,0.5,0,1","1",""
"","html-keyboard-response","197","112767","0.0-287.0","3J88R45B2HKMZYR6IC8FD7DUL8OXPE","A8EWC86OH91I2","3MXX6RQ9EVRTFC527Z18RDK8KW6P4R","","null","<img src=""img/food6.png"" style=""width:200px; border:14px solid green;"">","null","","","","","","","","","",""
"","image-keyboard-response","198","113090","0.0-288.0","3J88R45B2HKMZYR6IC8FD7DUL8OXPE","A8EWC86OH91I2","3MXX6RQ9EVRTFC527Z18RDK8KW6P4R","","321.5","img/food3.png","75","322.6000000014901","2","0","","3","1","1,0.5,0,1,0.5,0,0.5,0,1","1,0.5,0,1,0.5,0,0.5,0,1","1",""
"","html-keyboard-response","199","113393","0.0-289.0","3J88R45B2HKMZYR6IC8FD7DUL8OXPE","A8EWC86OH91I2","3MXX6RQ9EVRTFC527Z18RDK8KW6P4R","","null","<img src=""img/food3.png"" style=""width:200px;border:14px solid red;"">","null","","","","","","","","","",""
"","image-keyboard-response","200","113413","0.0-290.0","3J88R45B2HKMZYR6IC8FD7DUL8OXPE","A8EWC86OH91I2","3MXX6RQ9EVRTFC527Z18RDK8KW6P4R","","18.899999998509884","img/food2.png","75","20.100000001490116","2","0","","1","1","1,0.5,0,1,0.5,0,0.5,0,1","1,0.5,0,1,0.5,0,0.5,0,1","1",""
"","html-keyboard-response","201","113715","0.0-291.0","3J88R45B2HKMZYR6IC8FD7DUL8OXPE","A8EWC86OH91I2","3MXX6RQ9EVRTFC527Z18RDK8KW6P4R","","null","<img src=""img/food2.png"" style=""width:200px;border:14px solid red;"">","null","","","","","","","","","",""
"","image-keyboard-response","202","113926","0.0-292.0","3J88R45B2HKMZYR6IC8FD7DUL8OXPE","A8EWC86OH91I2","3MXX6RQ9EVRTFC527Z18RDK8KW6P4R","","210.19999999552965","img/food6.png","74","211.39999999850988","1","1","","2","1","1,0.5,0,1,0.5,0,0.5,0,1","1,0.5,0,1,0.5,0,0.5,0,1","1",""
"","html-keyboard-response","203","114229","0.0-293.0","3J88R45B2HKMZYR6IC8FD7DUL8OXPE","A8EWC86OH91I2","3MXX6RQ9EVRTFC527Z18RDK8KW6P4R","","null","<img src=""img/food6.png"" style=""width:200px; border:14px solid green;"">","null","","","","","","","","","",""
"","image-keyboard-response","204","114261","0.0-294.0","3J88R45B2HKMZYR6IC8FD7DUL8OXPE","A8EWC86OH91I2","3MXX6RQ9EVRTFC527Z18RDK8KW6P4R","","30.799999997019768","img/food3.png","74","31.899999998509884","1","0","","3","1","1,0.5,0,1,0.5,0,0.5,0,1","1,0.5,0,1,0.5,0,0.5,0,1","1",""
"","html-keyboard-response","205","114563","0.0-295.0","3J88R45B2HKMZYR6IC8FD7DUL8OXPE","A8EWC86OH91I2","3MXX6RQ9EVRTFC527Z18RDK8KW6P4R","","null","<img src=""img/food3.png"" style=""width:200px;border:14px solid red;"">","null","","","","","","","","","",""
"","image-keyboard-response","206","114587","0.0-296.0","3J88R45B2HKMZYR6IC8FD7DUL8OXPE","A8EWC86OH91I2","3MXX6RQ9EVRTFC527Z18RDK8KW6P4R","","22.69999999552965","img/food2.png","74","23.700000002980232","1","1","","1","1","1,0.5,0,1,0.5,0,0.5,0,1","1,0.5,0,1,0.5,0,0.5,0,1","1",""
"","html-keyboard-response","207","114889","0.0-297.0","3J88R45B2HKMZYR6IC8FD7DUL8OXPE","A8EWC86OH91I2","3MXX6RQ9EVRTFC527Z18RDK8KW6P4R","","null","<img src=""img/food2.png"" style=""width:200px; border:14px solid green;"">","null","","","","","","","","","",""
"","image-keyboard-response","208","114915","0.0-298.0","3J88R45B2HKMZYR6IC8FD7DUL8OXPE","A8EWC86OH91I2","3MXX6RQ9EVRTFC527Z18RDK8KW6P4R","","24.799999997019768","img/food6.png","74","25.80000000447035","1","1","","2","1","1,0.5,0,1,0.5,0,0.5,0,1","1,0.5,0,1,0.5,0,0.5,0,1","1",""
"","html-keyboard-response","209","115217","0.0-299.0","3J88R45B2HKMZYR6IC8FD7DUL8OXPE","A8EWC86OH91I2","3MXX6RQ9EVRTFC527Z18RDK8KW6P4R","","null","<img src=""img/food6.png"" style=""width:200px; border:14px solid green;"">","null","","","","","","","","","",""
"","image-keyboard-response","210","115529","0.0-300.0","3J88R45B2HKMZYR6IC8FD7DUL8OXPE","A8EWC86OH91I2","3MXX6RQ9EVRTFC527Z18RDK8KW6P4R","","311.40000000596046","img/food3.png","74","312.5","1","1","","3","1","1,0.5,0,1,0.5,0,0.5,0,1","1,0.5,0,1,0.5,0,0.5,0,1","1",""
"","html-keyboard-response","211","115832","0.0-301.0","3J88R45B2HKMZYR6IC8FD7DUL8OXPE","A8EWC86OH91I2","3MXX6RQ9EVRTFC527Z18RDK8KW6P4R","","null","<img src=""img/food3.png"" style=""width:200px; border:14px solid green;"">","null","","","","","","","","","",""
"","image-keyboard-response","212","115835","0.0-302.0","3J88R45B2HKMZYR6IC8FD7DUL8OXPE","A8EWC86OH91I2","3MXX6RQ9EVRTFC527Z18RDK8KW6P4R","","1.6999999955296516","img/food2.png","74","2.8000000044703484","1","1","","1","1","1,0.5,0,1,0.5,0,0.5,0,1","1,0.5,0,1,0.5,0,0.5,0,1","1",""
"","html-keyboard-response","213","116137","0.0-303.0","3J88R45B2HKMZYR6IC8FD7DUL8OXPE","A8EWC86OH91I2","3MXX6RQ9EVRTFC527Z18RDK8KW6P4R","","null","<img src=""img/food2.png"" style=""width:200px; border:14px solid green;"">","null","","","","","","","","","",""
"","image-keyboard-response","214","116419","0.0-304.0","3J88R45B2HKMZYR6IC8FD7DUL8OXPE","A8EWC86OH91I2","3MXX6RQ9EVRTFC527Z18RDK8KW6P4R","","280.3999999985099","img/food2.png","74","281.70000000298023","1","1","","1","1","1,0.5,0,1,0.5,0,0.5,0,1","1,0.5,0,1,0.5,0,0.5,0,1","1",""
"","html-keyboard-response","215","116721","0.0-305.0","3J88R45B2HKMZYR6IC8FD7DUL8OXPE","A8EWC86OH91I2","3MXX6RQ9EVRTFC527Z18RDK8KW6P4R","","null","<img src=""img/food2.png"" style=""width:200px; border:14px solid green;"">","null","","","","","","","","","",""
"","image-keyboard-response","216","116739","0.0-306.0","3J88R45B2HKMZYR6IC8FD7DUL8OXPE","A8EWC86OH91I2","3MXX6RQ9EVRTFC527Z18RDK8KW6P4R","","16.5","img/food3.png","74","17.600000001490116","1","1","","3","1","1,0.5,0,1,0.5,0,0.5,0,1","1,0.5,0,1,0.5,0,0.5,0,1","1",""
"","html-keyboard-response","217","117040","0.0-307.0","3J88R45B2HKMZYR6IC8FD7DUL8OXPE","A8EWC86OH91I2","3MXX6RQ9EVRTFC527Z18RDK8KW6P4R","","null","<img src=""img/food3.png"" style=""width:200px; border:14px solid green;"">","null","","","","","","","","","",""
"","image-keyboard-response","218","117374","0.0-308.0","3J88R45B2HKMZYR6IC8FD7DUL8OXPE","A8EWC86OH91I2","3MXX6RQ9EVRTFC527Z18RDK8KW6P4R","","332.70000000298023","img/food6.png","74","333.79999999701977","1","1","","2","1","1,0.5,0,1,0.5,0,0.5,0,1","1,0.5,0,1,0.5,0,0.5,0,1","1",""
"","html-keyboard-response","219","117676","0.0-309.0","3J88R45B2HKMZYR6IC8FD7DUL8OXPE","A8EWC86OH91I2","3MXX6RQ9EVRTFC527Z18RDK8KW6P4R","","null","<img src=""img/food6.png"" style=""width:200px; border:14px solid green;"">","null","","","","","","","","","",""
"","image-keyboard-response","220","117986","0.0-310.0","3J88R45B2HKMZYR6IC8FD7DUL8OXPE","A8EWC86OH91I2","3MXX6RQ9EVRTFC527Z18RDK8KW6P4R","","308.3999999985099","img/food3.png","74","309.6000000014901","1","1","","3","1","1,0.5,0,1,0.5,0,0.5,0,1","1,0.5,0,1,0.5,0,0.5,0,1","1",""
"","html-keyboard-response","221","118288","0.0-311.0","3J88R45B2HKMZYR6IC8FD7DUL8OXPE","A8EWC86OH91I2","3MXX6RQ9EVRTFC527Z18RDK8KW6P4R","","null","<img src=""img/food3.png"" style=""width:200px; border:14px solid green;"">","null","","","","","","","","","",""
"","image-keyboard-response","222","118289","0.0-312.0","3J88R45B2HKMZYR6IC8FD7DUL8OXPE","A8EWC86OH91I2","3MXX6RQ9EVRTFC527Z18RDK8KW6P4R","","0.19999999552965164","img/food3.png","74","1.1000000014901161","1","0","","3","1","1,0.5,0,1,0.5,0,0.5,0,1","1,0.5,0,1,0.5,0,0.5,0,1","1",""
"","html-keyboard-response","223","118593","0.0-313.0","3J88R45B2HKMZYR6IC8FD7DUL8OXPE","A8EWC86OH91I2","3MXX6RQ9EVRTFC527Z18RDK8KW6P4R","","null","<img src=""img/food3.png"" style=""width:200px;border:14px solid red;"">","null","","","","","","","","","",""
"","image-keyboard-response","224","118599","0.0-314.0","3J88R45B2HKMZYR6IC8FD7DUL8OXPE","A8EWC86OH91I2","3MXX6RQ9EVRTFC527Z18RDK8KW6P4R","","5","img/food3.png","74","5.700000002980232","1","1","","3","1","1,0.5,0,1,0.5,0,0.5,0,1","1,0.5,0,1,0.5,0,0.5,0,1","1",""
"","html-keyboard-response","225","118901","0.0-315.0","3J88R45B2HKMZYR6IC8FD7DUL8OXPE","A8EWC86OH91I2","3MXX6RQ9EVRTFC527Z18RDK8KW6P4R","","null","<img src=""img/food3.png"" style=""width:200px; border:14px solid green;"">","null","","","","","","","","","",""
"","image-keyboard-response","226","118902","0.0-316.0","3J88R45B2HKMZYR6IC8FD7DUL8OXPE","A8EWC86OH91I2","3MXX6RQ9EVRTFC527Z18RDK8KW6P4R","","0.09999999403953552","img/food3.png","75","1","2","0","","3","1","1,0.5,0,1,0.5,0,0.5,0,1","1,0.5,0,1,0.5,0,0.5,0,1","1",""
"","html-keyboard-response","227","119204","0.0-317.0","3J88R45B2HKMZYR6IC8FD7DUL8OXPE","A8EWC86OH91I2","3MXX6RQ9EVRTFC527Z18RDK8KW6P4R","","null","<img src=""img/food3.png"" style=""width:200px;border:14px solid red;"">","null","","","","","","","","","",""
"","image-keyboard-response","228","119212","0.0-318.0","3J88R45B2HKMZYR6IC8FD7DUL8OXPE","A8EWC86OH91I2","3MXX6RQ9EVRTFC527Z18RDK8KW6P4R","","7.299999997019768","img/food6.png","75","7.700000002980232","2","0","","2","1","1,0.5,0,1,0.5,0,0.5,0,1","1,0.5,0,1,0.5,0,0.5,0,1","1",""
"","html-keyboard-response","229","119514","0.0-319.0","3J88R45B2HKMZYR6IC8FD7DUL8OXPE","A8EWC86OH91I2","3MXX6RQ9EVRTFC527Z18RDK8KW6P4R","","null","<img src=""img/food6.png"" style=""width:200px;border:14px solid red;"">","null","","","","","","","","","",""
"","image-keyboard-response","230","119538","0.0-320.0","3J88R45B2HKMZYR6IC8FD7DUL8OXPE","A8EWC86OH91I2","3MXX6RQ9EVRTFC527Z18RDK8KW6P4R","","23.100000001490116","img/food6.png","75","24","2","1","","2","1","1,0.5,0,1,0.5,0,0.5,0,1","1,0.5,0,1,0.5,0,0.5,0,1","1",""
"","html-keyboard-response","231","119841","0.0-321.0","3J88R45B2HKMZYR6IC8FD7DUL8OXPE","A8EWC86OH91I2","3MXX6RQ9EVRTFC527Z18RDK8KW6P4R","","null","<img src=""img/food6.png"" style=""width:200px; border:14px solid green;"">","null","","","","","","","","","",""
"","image-keyboard-response","232","119842","0.0-322.0","3J88R45B2HKMZYR6IC8FD7DUL8OXPE","A8EWC86OH91I2","3MXX6RQ9EVRTFC527Z18RDK8KW6P4R","","0.20000000298023224","img/food6.png","75","1.1999999955296516","2","1","","2","1","1,0.5,0,1,0.5,0,0.5,0,1","1,0.5,0,1,0.5,0,0.5,0,1","1",""
"","html-keyboard-response","233","120144","0.0-323.0","3J88R45B2HKMZYR6IC8FD7DUL8OXPE","A8EWC86OH91I2","3MXX6RQ9EVRTFC527Z18RDK8KW6P4R","","null","<img src=""img/food6.png"" style=""width:200px; border:14px solid green;"">","null","","","","","","","","","",""
"","image-keyboard-response","234","120437","0.0-324.0","3J88R45B2HKMZYR6IC8FD7DUL8OXPE","A8EWC86OH91I2","3MXX6RQ9EVRTFC527Z18RDK8KW6P4R","","292","img/food6.png","75","293.20000000298023","2","1","","2","1","1,0.5,0,1,0.5,0,0.5,0,1","1,0.5,0,1,0.5,0,0.5,0,1","1",""
"","html-keyboard-response","235","120738","0.0-325.0","3J88R45B2HKMZYR6IC8FD7DUL8OXPE","A8EWC86OH91I2","3MXX6RQ9EVRTFC527Z18RDK8KW6P4R","","null","<img src=""img/food6.png"" style=""width:200px; border:14px solid green;"">","null","","","","","","","","","",""
"","image-keyboard-response","236","120777","0.0-326.0","3J88R45B2HKMZYR6IC8FD7DUL8OXPE","A8EWC86OH91I2","3MXX6RQ9EVRTFC527Z18RDK8KW6P4R","","37.29999999701977","img/food2.png","75","38.29999999701977","2","1","","1","1","1,0.5,0,1,0.5,0,0.5,0,1","1,0.5,0,1,0.5,0,0.5,0,1","1",""
"","html-keyboard-response","237","121079","0.0-327.0","3J88R45B2HKMZYR6IC8FD7DUL8OXPE","A8EWC86OH91I2","3MXX6RQ9EVRTFC527Z18RDK8KW6P4R","","null","<img src=""img/food2.png"" style=""width:200px; border:14px solid green;"">","null","","","","","","","","","",""
"","image-keyboard-response","238","121083","0.0-328.0","3J88R45B2HKMZYR6IC8FD7DUL8OXPE","A8EWC86OH91I2","3MXX6RQ9EVRTFC527Z18RDK8KW6P4R","","2.8000000044703484","img/food2.png","75","3.7999999970197678","2","1","","1","1","1,0.5,0,1,0.5,0,0.5,0,1","1,0.5,0,1,0.5,0,0.5,0,1","1",""
"","html-keyboard-response","239","121385","0.0-329.0","3J88R45B2HKMZYR6IC8FD7DUL8OXPE","A8EWC86OH91I2","3MXX6RQ9EVRTFC527Z18RDK8KW6P4R","","null","<img src=""img/food2.png"" style=""width:200px; border:14px solid green;"">","null","","","","","","","","","",""
"","image-keyboard-response","240","121710","0.0-330.0","3J88R45B2HKMZYR6IC8FD7DUL8OXPE","A8EWC86OH91I2","3MXX6RQ9EVRTFC527Z18RDK8KW6P4R","","323.8999999985099","img/food6.png","74","325.20000000298023","1","1","","2","1","1,0.5,0,1,0.5,0,0.5,0,1","1,0.5,0,1,0.5,0,0.5,0,1","1",""
"","html-keyboard-response","241","122013","0.0-331.0","3J88R45B2HKMZYR6IC8FD7DUL8OXPE","A8EWC86OH91I2","3MXX6RQ9EVRTFC527Z18RDK8KW6P4R","","null","<img src=""img/food6.png"" style=""width:200px; border:14px solid green;"">","null","","","","","","","","","",""
"","image-keyboard-response","242","122047","0.0-332.0","3J88R45B2HKMZYR6IC8FD7DUL8OXPE","A8EWC86OH91I2","3MXX6RQ9EVRTFC527Z18RDK8KW6P4R","","33.20000000298023","img/food2.png","74","34.29999999701977","1","1","","1","1","1,0.5,0,1,0.5,0,0.5,0,1","1,0.5,0,1,0.5,0,0.5,0,1","1",""
"","html-keyboard-response","243","122349","0.0-333.0","3J88R45B2HKMZYR6IC8FD7DUL8OXPE","A8EWC86OH91I2","3MXX6RQ9EVRTFC527Z18RDK8KW6P4R","","null","<img src=""img/food2.png"" style=""width:200px; border:14px solid green;"">","null","","","","","","","","","",""
"","image-keyboard-response","244","122390","0.0-334.0","3J88R45B2HKMZYR6IC8FD7DUL8OXPE","A8EWC86OH91I2","3MXX6RQ9EVRTFC527Z18RDK8KW6P4R","","39.20000000298023","img/food3.png","74","40.20000000298023","1","1","","3","1","1,0.5,0,1,0.5,0,0.5,0,1","1,0.5,0,1,0.5,0,0.5,0,1","1",""
"","html-keyboard-response","245","122691","0.0-335.0","3J88R45B2HKMZYR6IC8FD7DUL8OXPE","A8EWC86OH91I2","3MXX6RQ9EVRTFC527Z18RDK8KW6P4R","","null","<img src=""img/food3.png"" style=""width:200px; border:14px solid green;"">","null","","","","","","","","","",""
"","image-keyboard-response","246","123011","0.0-336.0","3J88R45B2HKMZYR6IC8FD7DUL8OXPE","A8EWC86OH91I2","3MXX6RQ9EVRTFC527Z18RDK8KW6P4R","","318.79999999701977","img/food2.png","74","319.59999999403954","1","1","","1","1","1,0.5,0,1,0.5,0,0.5,0,1","1,0.5,0,1,0.5,0,0.5,0,1","1",""
"","html-keyboard-response","247","123313","0.0-337.0","3J88R45B2HKMZYR6IC8FD7DUL8OXPE","A8EWC86OH91I2","3MXX6RQ9EVRTFC527Z18RDK8KW6P4R","","null","<img src=""img/food2.png"" style=""width:200px; border:14px solid green;"">","null","","","","","","","","","",""
"","image-keyboard-response","248","123343","0.0-338.0","3J88R45B2HKMZYR6IC8FD7DUL8OXPE","A8EWC86OH91I2","3MXX6RQ9EVRTFC527Z18RDK8KW6P4R","","29","img/food6.png","75","29.899999998509884","2","1","","2","1","1,0.5,0,1,0.5,0,0.5,0,1","1,0.5,0,1,0.5,0,0.5,0,1","1",""
"","html-keyboard-response","249","123645","0.0-339.0","3J88R45B2HKMZYR6IC8FD7DUL8OXPE","A8EWC86OH91I2","3MXX6RQ9EVRTFC527Z18RDK8KW6P4R","","null","<img src=""img/food6.png"" style=""width:200px; border:14px solid green;"">","null","","","","","","","","","",""
"","image-keyboard-response","250","123656","0.0-340.0","3J88R45B2HKMZYR6IC8FD7DUL8OXPE","A8EWC86OH91I2","3MXX6RQ9EVRTFC527Z18RDK8KW6P4R","","9.600000001490116","img/food3.png","74","10.600000001490116","1","1","","3","1","1,0.5,0,1,0.5,0,0.5,0,1","1,0.5,0,1,0.5,0,0.5,0,1","1",""
"","html-keyboard-response","251","123957","0.0-341.0","3J88R45B2HKMZYR6IC8FD7DUL8OXPE","A8EWC86OH91I2","3MXX6RQ9EVRTFC527Z18RDK8KW6P4R","","null","<img src=""img/food3.png"" style=""width:200px; border:14px solid green;"">","null","","","","","","","","","",""
"","image-keyboard-response","252","124002","0.0-342.0","3J88R45B2HKMZYR6IC8FD7DUL8OXPE","A8EWC86OH91I2","3MXX6RQ9EVRTFC527Z18RDK8KW6P4R","","44.100000001490116","img/food6.png","76","44.899999998509884","3","0","","2","1","1,0.5,0,1,0.5,0,0.5,0,1","1,0.5,0,1,0.5,0,0.5,0,1","1",""
"","html-keyboard-response","253","124304","0.0-343.0","3J88R45B2HKMZYR6IC8FD7DUL8OXPE","A8EWC86OH91I2","3MXX6RQ9EVRTFC527Z18RDK8KW6P4R","","null","<img src=""img/food6.png"" style=""width:200px;border:14px solid red;"">","null","","","","","","","","","",""
"","image-keyboard-response","254","124332","0.0-344.0","3J88R45B2HKMZYR6IC8FD7DUL8OXPE","A8EWC86OH91I2","3MXX6RQ9EVRTFC527Z18RDK8KW6P4R","","27.5","img/food3.png","74","28.5","1","0","","3","1","1,0.5,0,1,0.5,0,0.5,0,1","1,0.5,0,1,0.5,0,0.5,0,1","1",""
"","html-keyboard-response","255","124649","0.0-345.0","3J88R45B2HKMZYR6IC8FD7DUL8OXPE","A8EWC86OH91I2","3MXX6RQ9EVRTFC527Z18RDK8KW6P4R","","null","<img src=""img/food3.png"" style=""width:200px;border:14px solid red;"">","null","","","","","","","","","",""
"","image-keyboard-response","256","124698","0.0-346.0","3J88R45B2HKMZYR6IC8FD7DUL8OXPE","A8EWC86OH91I2","3MXX6RQ9EVRTFC527Z18RDK8KW6P4R","","48","img/food6.png","75","49.100000001490116","2","0","","2","1","1,0.5,0,1,0.5,0,0.5,0,1","1,0.5,0,1,0.5,0,0.5,0,1","1",""
"","html-keyboard-response","257","125000","0.0-347.0","3J88R45B2HKMZYR6IC8FD7DUL8OXPE","A8EWC86OH91I2","3MXX6RQ9EVRTFC527Z18RDK8KW6P4R","","null","<img src=""img/food6.png"" style=""width:200px;border:14px solid red;"">","null","","","","","","","","","",""
"","image-keyboard-response","258","125018","0.0-348.0","3J88R45B2HKMZYR6IC8FD7DUL8OXPE","A8EWC86OH91I2","3MXX6RQ9EVRTFC527Z18RDK8KW6P4R","","16.700000002980232","img/food6.png","74","17.69999999552965","1","1","","2","1","1,0.5,0,1,0.5,0,0.5,0,1","1,0.5,0,1,0.5,0,0.5,0,1","1",""
"","html-keyboard-response","259","125321","0.0-349.0","3J88R45B2HKMZYR6IC8FD7DUL8OXPE","A8EWC86OH91I2","3MXX6RQ9EVRTFC527Z18RDK8KW6P4R","","null","<img src=""img/food6.png"" style=""width:200px; border:14px solid green;"">","null","","","","","","","","","",""
"","image-keyboard-response","260","125476","0.0-350.0","3J88R45B2HKMZYR6IC8FD7DUL8OXPE","A8EWC86OH91I2","3MXX6RQ9EVRTFC527Z18RDK8KW6P4R","","153.79999999701977","img/food3.png","76","154.89999999850988","3","1","","3","1","1,0.5,0,1,0.5,0,0.5,0,1","1,0.5,0,1,0.5,0,0.5,0,1","1",""
"","html-keyboard-response","261","125778","0.0-351.0","3J88R45B2HKMZYR6IC8FD7DUL8OXPE","A8EWC86OH91I2","3MXX6RQ9EVRTFC527Z18RDK8KW6P4R","","null","<img src=""img/food3.png"" style=""width:200px; border:14px solid green;"">","null","","","","","","","","","",""
"","image-keyboard-response","262","125819","0.0-352.0","3J88R45B2HKMZYR6IC8FD7DUL8OXPE","A8EWC86OH91I2","3MXX6RQ9EVRTFC527Z18RDK8KW6P4R","","39.5","img/food2.png","76","40.899999998509884","3","0","","1","1","1,0.5,0,1,0.5,0,0.5,0,1","1,0.5,0,1,0.5,0,0.5,0,1","1",""
"","html-keyboard-response","263","126122","0.0-353.0","3J88R45B2HKMZYR6IC8FD7DUL8OXPE","A8EWC86OH91I2","3MXX6RQ9EVRTFC527Z18RDK8KW6P4R","","null","<img src=""img/food2.png"" style=""width:200px;border:14px solid red;"">","null","","","","","","","","","",""
"","image-keyboard-response","264","126141","0.0-354.0","3J88R45B2HKMZYR6IC8FD7DUL8OXPE","A8EWC86OH91I2","3MXX6RQ9EVRTFC527Z18RDK8KW6P4R","","18","img/food6.png","74","18.899999998509884","1","1","","2","1","1,0.5,0,1,0.5,0,0.5,0,1","1,0.5,0,1,0.5,0,0.5,0,1","1",""
"","html-keyboard-response","265","126443","0.0-355.0","3J88R45B2HKMZYR6IC8FD7DUL8OXPE","A8EWC86OH91I2","3MXX6RQ9EVRTFC527Z18RDK8KW6P4R","","null","<img src=""img/food6.png"" style=""width:200px; border:14px solid green;"">","null","","","","","","","","","",""
"","image-keyboard-response","266","126796","0.0-356.0","3J88R45B2HKMZYR6IC8FD7DUL8OXPE","A8EWC86OH91I2","3MXX6RQ9EVRTFC527Z18RDK8KW6P4R","","351.29999999701977","img/food3.png","76","352.5","3","1","","3","1","1,0.5,0,1,0.5,0,0.5,0,1","1,0.5,0,1,0.5,0,0.5,0,1","1",""
"","html-keyboard-response","267","127098","0.0-357.0","3J88R45B2HKMZYR6IC8FD7DUL8OXPE","A8EWC86OH91I2","3MXX6RQ9EVRTFC527Z18RDK8KW6P4R","","null","<img src=""img/food3.png"" style=""width:200px; border:14px solid green;"">","null","","","","","","","","","",""
"","image-keyboard-response","268","127113","0.0-358.0","3J88R45B2HKMZYR6IC8FD7DUL8OXPE","A8EWC86OH91I2","3MXX6RQ9EVRTFC527Z18RDK8KW6P4R","","14.200000002980232","img/food2.png","76","15.399999998509884","3","0","","1","1","1,0.5,0,1,0.5,0,0.5,0,1","1,0.5,0,1,0.5,0,0.5,0,1","1",""
"","html-keyboard-response","269","127415","0.0-359.0","3J88R45B2HKMZYR6IC8FD7DUL8OXPE","A8EWC86OH91I2","3MXX6RQ9EVRTFC527Z18RDK8KW6P4R","","null","<img src=""img/food2.png"" style=""width:200px;border:14px solid red;"">","null","","","","","","","","","",""
"","image-keyboard-response","270","127424","0.0-360.0","3J88R45B2HKMZYR6IC8FD7DUL8OXPE","A8EWC86OH91I2","3MXX6RQ9EVRTFC527Z18RDK8KW6P4R","","6.899999998509884","img/food2.png","76","8.100000001490116","3","0","","1","1","1,0.5,0,1,0.5,0,0.5,0,1","1,0.5,0,1,0.5,0,0.5,0,1","1",""
"","html-keyboard-response","271","127740","0.0-361.0","3J88R45B2HKMZYR6IC8FD7DUL8OXPE","A8EWC86OH91I2","3MXX6RQ9EVRTFC527Z18RDK8KW6P4R","","null","<img src=""img/food2.png"" style=""width:200px;border:14px solid red;"">","null","","","","","","","","","",""
"","image-keyboard-response","272","128060","0.0-362.0","3J88R45B2HKMZYR6IC8FD7DUL8OXPE","A8EWC86OH91I2","3MXX6RQ9EVRTFC527Z18RDK8KW6P4R","","318.1000000014901","img/food2.png","76","319.29999999701977","3","0","","1","1","1,0.5,0,1,0.5,0,0.5,0,1","1,0.5,0,1,0.5,0,0.5,0,1","1",""
"","html-keyboard-response","273","128362","0.0-363.0","3J88R45B2HKMZYR6IC8FD7DUL8OXPE","A8EWC86OH91I2","3MXX6RQ9EVRTFC527Z18RDK8KW6P4R","","null","<img src=""img/food2.png"" style=""width:200px;border:14px solid red;"">","null","","","","","","","","","",""
"","image-keyboard-response","274","128648","0.0-364.0","3J88R45B2HKMZYR6IC8FD7DUL8OXPE","A8EWC86OH91I2","3MXX6RQ9EVRTFC527Z18RDK8KW6P4R","","285.5","img/food2.png","74","286.29999999701977","1","1","","1","1","1,0.5,0,1,0.5,0,0.5,0,1","1,0.5,0,1,0.5,0,0.5,0,1","1",""
"","html-keyboard-response","275","128950","0.0-365.0","3J88R45B2HKMZYR6IC8FD7DUL8OXPE","A8EWC86OH91I2","3MXX6RQ9EVRTFC527Z18RDK8KW6P4R","","null","<img src=""img/food2.png"" style=""width:200px; border:14px solid green;"">","null","","","","","","","","","",""
"","image-keyboard-response","276","128984","0.0-366.0","3J88R45B2HKMZYR6IC8FD7DUL8OXPE","A8EWC86OH91I2","3MXX6RQ9EVRTFC527Z18RDK8KW6P4R","","32.5","img/food6.png","75","33.600000001490116","2","0","","2","1","1,0.5,0,1,0.5,0,0.5,0,1","1,0.5,0,1,0.5,0,0.5,0,1","1",""
"","html-keyboard-response","277","129293","0.0-367.0","3J88R45B2HKMZYR6IC8FD7DUL8OXPE","A8EWC86OH91I2","3MXX6RQ9EVRTFC527Z18RDK8KW6P4R","","null","<img src=""img/food6.png"" style=""width:200px;border:14px solid red;"">","null","","","","","","","","","",""
"","image-keyboard-response","278","129301","0.0-368.0","3J88R45B2HKMZYR6IC8FD7DUL8OXPE","A8EWC86OH91I2","3MXX6RQ9EVRTFC527Z18RDK8KW6P4R","","6.899999998509884","img/food2.png","74","7.399999998509884","1","1","","1","1","1,0.5,0,1,0.5,0,0.5,0,1","1,0.5,0,1,0.5,0,0.5,0,1","1",""
"","html-keyboard-response","279","129602","0.0-369.0","3J88R45B2HKMZYR6IC8FD7DUL8OXPE","A8EWC86OH91I2","3MXX6RQ9EVRTFC527Z18RDK8KW6P4R","","null","<img src=""img/food2.png"" style=""width:200px; border:14px solid green;"">","null","","","","","","","","","",""
"","image-keyboard-response","280","129959","0.0-370.0","3J88R45B2HKMZYR6IC8FD7DUL8OXPE","A8EWC86OH91I2","3MXX6RQ9EVRTFC527Z18RDK8KW6P4R","","355.80000000447035","img/food3.png","76","357.1000000014901","3","1","","3","1","1,0.5,0,1,0.5,0,0.5,0,1","1,0.5,0,1,0.5,0,0.5,0,1","1",""
"","html-keyboard-response","281","130260","0.0-371.0","3J88R45B2HKMZYR6IC8FD7DUL8OXPE","A8EWC86OH91I2","3MXX6RQ9EVRTFC527Z18RDK8KW6P4R","","null","<img src=""img/food3.png"" style=""width:200px; border:14px solid green;"">","null","","","","","","","","","",""
"","image-keyboard-response","282","130283","0.0-372.0","3J88R45B2HKMZYR6IC8FD7DUL8OXPE","A8EWC86OH91I2","3MXX6RQ9EVRTFC527Z18RDK8KW6P4R","","21.600000001490116","img/food6.png","75","22.700000002980232","2","0","","2","1","1,0.5,0,1,0.5,0,0.5,0,1","1,0.5,0,1,0.5,0,0.5,0,1","1",""
"","html-keyboard-response","283","130585","0.0-373.0","3J88R45B2HKMZYR6IC8FD7DUL8OXPE","A8EWC86OH91I2","3MXX6RQ9EVRTFC527Z18RDK8KW6P4R","","null","<img src=""img/food6.png"" style=""width:200px;border:14px solid red;"">","null","","","","","","","","","",""
"","image-keyboard-response","284","130626","0.0-374.0","3J88R45B2HKMZYR6IC8FD7DUL8OXPE","A8EWC86OH91I2","3MXX6RQ9EVRTFC527Z18RDK8KW6P4R","","39.20000000298023","img/food3.png","74","40.29999999701977","1","0","","3","1","1,0.5,0,1,0.5,0,0.5,0,1","1,0.5,0,1,0.5,0,0.5,0,1","1",""
"","html-keyboard-response","285","130928","0.0-375.0","3J88R45B2HKMZYR6IC8FD7DUL8OXPE","A8EWC86OH91I2","3MXX6RQ9EVRTFC527Z18RDK8KW6P4R","","null","<img src=""img/food3.png"" style=""width:200px;border:14px solid red;"">","null","","","","","","","","","",""
"","image-keyboard-response","286","130963","0.0-376.0","3J88R45B2HKMZYR6IC8FD7DUL8OXPE","A8EWC86OH91I2","3MXX6RQ9EVRTFC527Z18RDK8KW6P4R","","33.599999994039536","img/food3.png","74","34.70000000298023","1","0","","3","1","1,0.5,0,1,0.5,0,0.5,0,1","1,0.5,0,1,0.5,0,0.5,0,1","1",""
"","html-keyboard-response","287","131265","0.0-377.0","3J88R45B2HKMZYR6IC8FD7DUL8OXPE","A8EWC86OH91I2","3MXX6RQ9EVRTFC527Z18RDK8KW6P4R","","null","<img src=""img/food3.png"" style=""width:200px;border:14px solid red;"">","null","","","","","","","","","",""
"","image-keyboard-response","288","131309","0.0-378.0","3J88R45B2HKMZYR6IC8FD7DUL8OXPE","A8EWC86OH91I2","3MXX6RQ9EVRTFC527Z18RDK8KW6P4R","","42.70000000298023","img/food2.png","75","43.899999998509884","2","0","","1","1","1,0.5,0,1,0.5,0,0.5,0,1","1,0.5,0,1,0.5,0,0.5,0,1","1",""
"","html-keyboard-response","289","131611","0.0-379.0","3J88R45B2HKMZYR6IC8FD7DUL8OXPE","A8EWC86OH91I2","3MXX6RQ9EVRTFC527Z18RDK8KW6P4R","","null","<img src=""img/food2.png"" style=""width:200px;border:14px solid red;"">","null","","","","","","","","","",""
"","image-keyboard-response","290","131720","0.0-380.0","3J88R45B2HKMZYR6IC8FD7DUL8OXPE","A8EWC86OH91I2","3MXX6RQ9EVRTFC527Z18RDK8KW6P4R","","107.90000000596046","img/food6.png","75","108.69999999552965","2","0","","2","1","1,0.5,0,1,0.5,0,0.5,0,1","1,0.5,0,1,0.5,0,0.5,0,1","1",""
"","html-keyboard-response","291","132022","0.0-381.0","3J88R45B2HKMZYR6IC8FD7DUL8OXPE","A8EWC86OH91I2","3MXX6RQ9EVRTFC527Z18RDK8KW6P4R","","null","<img src=""img/food6.png"" style=""width:200px;border:14px solid red;"">","null","","","","","","","","","",""
"","image-keyboard-response","292","132141","0.0-382.0","3J88R45B2HKMZYR6IC8FD7DUL8OXPE","A8EWC86OH91I2","3MXX6RQ9EVRTFC527Z18RDK8KW6P4R","","117.70000000298023","img/food3.png","76","118.59999999403954","3","1","","3","1","1,0.5,0,1,0.5,0,0.5,0,1","1,0.5,0,1,0.5,0,0.5,0,1","1",""
"","html-keyboard-response","293","132443","0.0-383.0","3J88R45B2HKMZYR6IC8FD7DUL8OXPE","A8EWC86OH91I2","3MXX6RQ9EVRTFC527Z18RDK8KW6P4R","","null","<img src=""img/food3.png"" style=""width:200px; border:14px solid green;"">","null","","","","","","","","","",""
"","image-keyboard-response","294","132473","0.0-384.0","3J88R45B2HKMZYR6IC8FD7DUL8OXPE","A8EWC86OH91I2","3MXX6RQ9EVRTFC527Z18RDK8KW6P4R","","28.899999998509884","img/food3.png","76","30.099999994039536","3","1","","3","1","1,0.5,0,1,0.5,0,0.5,0,1","1,0.5,0,1,0.5,0,0.5,0,1","1",""
"","html-keyboard-response","295","132775","0.0-385.0","3J88R45B2HKMZYR6IC8FD7DUL8OXPE","A8EWC86OH91I2","3MXX6RQ9EVRTFC527Z18RDK8KW6P4R","","null","<img src=""img/food3.png"" style=""width:200px; border:14px solid green;"">","null","","","","","","","","","",""
"","image-keyboard-response","296","132777","0.0-386.0","3J88R45B2HKMZYR6IC8FD7DUL8OXPE","A8EWC86OH91I2","3MXX6RQ9EVRTFC527Z18RDK8KW6P4R","","1.1000000014901161","img/food2.png","75","2.399999998509884","2","1","","1","1","1,0.5,0,1,0.5,0,0.5,0,1","1,0.5,0,1,0.5,0,0.5,0,1","1",""
"","html-keyboard-response","297","133079","0.0-387.0","3J88R45B2HKMZYR6IC8FD7DUL8OXPE","A8EWC86OH91I2","3MXX6RQ9EVRTFC527Z18RDK8KW6P4R","","null","<img src=""img/food2.png"" style=""width:200px; border:14px solid green;"">","null","","","","","","","","","",""
"","image-keyboard-response","298","133202","0.0-388.0","3J88R45B2HKMZYR6IC8FD7DUL8OXPE","A8EWC86OH91I2","3MXX6RQ9EVRTFC527Z18RDK8KW6P4R","","122","img/food3.png","75","123","2","0","","3","1","1,0.5,0,1,0.5,0,0.5,0,1","1,0.5,0,1,0.5,0,0.5,0,1","1",""
"","html-keyboard-response","299","133504","0.0-389.0","3J88R45B2HKMZYR6IC8FD7DUL8OXPE","A8EWC86OH91I2","3MXX6RQ9EVRTFC527Z18RDK8KW6P4R","","null","<img src=""img/food3.png"" style=""width:200px;border:14px solid red;"">","null","","","","","","","","","",""
"","image-keyboard-response","300","133565","0.0-390.0","3J88R45B2HKMZYR6IC8FD7DUL8OXPE","A8EWC86OH91I2","3MXX6RQ9EVRTFC527Z18RDK8KW6P4R","","59.399999998509884","img/food3.png","74","60.30000000447035","1","0","","3","1","1,0.5,0,1,0.5,0,0.5,0,1","1,0.5,0,1,0.5,0,0.5,0,1","1",""
"","html-keyboard-response","301","133867","0.0-391.0","3J88R45B2HKMZYR6IC8FD7DUL8OXPE","A8EWC86OH91I2","3MXX6RQ9EVRTFC527Z18RDK8KW6P4R","","null","<img src=""img/food3.png"" style=""width:200px;border:14px solid red;"">","null","","","","","","","","","",""
"","image-keyboard-response","302","133963","0.0-392.0","3J88R45B2HKMZYR6IC8FD7DUL8OXPE","A8EWC86OH91I2","3MXX6RQ9EVRTFC527Z18RDK8KW6P4R","","95.20000000298023","img/food2.png","74","96.19999999552965","1","1","","1","1","1,0.5,0,1,0.5,0,0.5,0,1","1,0.5,0,1,0.5,0,0.5,0,1","1",""
"","html-keyboard-response","303","134265","0.0-393.0","3J88R45B2HKMZYR6IC8FD7DUL8OXPE","A8EWC86OH91I2","3MXX6RQ9EVRTFC527Z18RDK8KW6P4R","","null","<img src=""img/food2.png"" style=""width:200px; border:14px solid green;"">","null","","","","","","","","","",""
"","image-keyboard-response","304","134292","0.0-394.0","3J88R45B2HKMZYR6IC8FD7DUL8OXPE","A8EWC86OH91I2","3MXX6RQ9EVRTFC527Z18RDK8KW6P4R","","25","img/food2.png","75","26.19999999552965","2","1","","1","1","1,0.5,0,1,0.5,0,0.5,0,1","1,0.5,0,1,0.5,0,0.5,0,1","1",""
"","html-keyboard-response","305","134594","0.0-395.0","3J88R45B2HKMZYR6IC8FD7DUL8OXPE","A8EWC86OH91I2","3MXX6RQ9EVRTFC527Z18RDK8KW6P4R","","null","<img src=""img/food2.png"" style=""width:200px; border:14px solid green;"">","null","","","","","","","","","",""
"","image-keyboard-response","306","134615","0.0-396.0","3J88R45B2HKMZYR6IC8FD7DUL8OXPE","A8EWC86OH91I2","3MXX6RQ9EVRTFC527Z18RDK8KW6P4R","","19.799999997019768","img/food6.png","74","20.5","1","1","","2","1","1,0.5,0,1,0.5,0,0.5,0,1","1,0.5,0,1,0.5,0,0.5,0,1","1",""
"","html-keyboard-response","307","134916","0.0-397.0","3J88R45B2HKMZYR6IC8FD7DUL8OXPE","A8EWC86OH91I2","3MXX6RQ9EVRTFC527Z18RDK8KW6P4R","","null","<img src=""img/food6.png"" style=""width:200px; border:14px solid green;"">","null","","","","","","","","","",""
"","image-keyboard-response","308","135208","0.0-398.0","3J88R45B2HKMZYR6IC8FD7DUL8OXPE","A8EWC86OH91I2","3MXX6RQ9EVRTFC527Z18RDK8KW6P4R","","290.29999999701977","img/food6.png","76","291.5","3","0","","2","1","1,0.5,0,1,0.5,0,0.5,0,1","1,0.5,0,1,0.5,0,0.5,0,1","1",""
"","html-keyboard-response","309","135510","0.0-399.0","3J88R45B2HKMZYR6IC8FD7DUL8OXPE","A8EWC86OH91I2","3MXX6RQ9EVRTFC527Z18RDK8KW6P4R","","null","<img src=""img/food6.png"" style=""width:200px;border:14px solid red;"">","null","","","","","","","","","",""
"","image-keyboard-response","310","135575","0.0-400.0","3J88R45B2HKMZYR6IC8FD7DUL8OXPE","A8EWC86OH91I2","3MXX6RQ9EVRTFC527Z18RDK8KW6P4R","","63.600000001490116","img/food6.png","76","64.59999999403954","3","0","","2","1","1,0.5,0,1,0.5,0,0.5,0,1","1,0.5,0,1,0.5,0,0.5,0,1","1",""
"","html-keyboard-response","311","135881","0.0-401.0","3J88R45B2HKMZYR6IC8FD7DUL8OXPE","A8EWC86OH91I2","3MXX6RQ9EVRTFC527Z18RDK8KW6P4R","","null","<img src=""img/food6.png"" style=""width:200px;border:14px solid red;"">","null","","","","","","","","","",""
"","image-keyboard-response","312","136075","0.0-402.0","3J88R45B2HKMZYR6IC8FD7DUL8OXPE","A8EWC86OH91I2","3MXX6RQ9EVRTFC527Z18RDK8KW6P4R","","192.09999999403954","img/food3.png","74","193","1","0","","3","1","1,0.5,0,1,0.5,0,0.5,0,1","1,0.5,0,1,0.5,0,0.5,0,1","1",""
"","html-keyboard-response","313","136377","0.0-403.0","3J88R45B2HKMZYR6IC8FD7DUL8OXPE","A8EWC86OH91I2","3MXX6RQ9EVRTFC527Z18RDK8KW6P4R","","null","<img src=""img/food3.png"" style=""width:200px;border:14px solid red;"">","null","","","","","","","","","",""
"","image-keyboard-response","314","136590","0.0-404.0","3J88R45B2HKMZYR6IC8FD7DUL8OXPE","A8EWC86OH91I2","3MXX6RQ9EVRTFC527Z18RDK8KW6P4R","","212.39999999850988","img/food3.png","74","213.5","1","0","","3","1","1,0.5,0,1,0.5,0,0.5,0,1","1,0.5,0,1,0.5,0,0.5,0,1","1",""
"","html-keyboard-response","315","136892","0.0-405.0","3J88R45B2HKMZYR6IC8FD7DUL8OXPE","A8EWC86OH91I2","3MXX6RQ9EVRTFC527Z18RDK8KW6P4R","","null","<img src=""img/food3.png"" style=""width:200px;border:14px solid red;"">","null","","","","","","","","","",""
"","image-keyboard-response","316","137144","0.0-406.0","3J88R45B2HKMZYR6IC8FD7DUL8OXPE","A8EWC86OH91I2","3MXX6RQ9EVRTFC527Z18RDK8KW6P4R","","250.5","img/food3.png","75","251.39999999850988","2","0","","3","1","1,0.5,0,1,0.5,0,0.5,0,1","1,0.5,0,1,0.5,0,0.5,0,1","1",""
"","html-keyboard-response","317","137445","0.0-407.0","3J88R45B2HKMZYR6IC8FD7DUL8OXPE","A8EWC86OH91I2","3MXX6RQ9EVRTFC527Z18RDK8KW6P4R","","null","<img src=""img/food3.png"" style=""width:200px;border:14px solid red;"">","null","","","","","","","","","",""
"","image-keyboard-response","318","137621","0.0-408.0","3J88R45B2HKMZYR6IC8FD7DUL8OXPE","A8EWC86OH91I2","3MXX6RQ9EVRTFC527Z18RDK8KW6P4R","","175","img/food2.png","75","175.90000000596046","2","0","","1","1","1,0.5,0,1,0.5,0,0.5,0,1","1,0.5,0,1,0.5,0,0.5,0,1","1",""
"","html-keyboard-response","319","137923","0.0-409.0","3J88R45B2HKMZYR6IC8FD7DUL8OXPE","A8EWC86OH91I2","3MXX6RQ9EVRTFC527Z18RDK8KW6P4R","","null","<img src=""img/food2.png"" style=""width:200px;border:14px solid red;"">","null","","","","","","","","","",""
"","image-keyboard-response","320","138119","0.0-410.0","3J88R45B2HKMZYR6IC8FD7DUL8OXPE","A8EWC86OH91I2","3MXX6RQ9EVRTFC527Z18RDK8KW6P4R","","194.70000000298023","img/food2.png","75","195.89999999850988","2","1","","1","1","1,0.5,0,1,0.5,0,0.5,0,1","1,0.5,0,1,0.5,0,0.5,0,1","1",""
"","html-keyboard-response","321","138422","0.0-411.0","3J88R45B2HKMZYR6IC8FD7DUL8OXPE","A8EWC86OH91I2","3MXX6RQ9EVRTFC527Z18RDK8KW6P4R","","null","<img src=""img/food2.png"" style=""width:200px; border:14px solid green;"">","null","","","","","","","","","",""
"","image-keyboard-response","322","138580","0.0-412.0","3J88R45B2HKMZYR6IC8FD7DUL8OXPE","A8EWC86OH91I2","3MXX6RQ9EVRTFC527Z18RDK8KW6P4R","","156.89999999850988","img/food2.png","75","158.19999999552965","2","0","","1","1","1,0.5,0,1,0.5,0,0.5,0,1","1,0.5,0,1,0.5,0,0.5,0,1","1",""
"","html-keyboard-response","323","138882","0.0-413.0","3J88R45B2HKMZYR6IC8FD7DUL8OXPE","A8EWC86OH91I2","3MXX6RQ9EVRTFC527Z18RDK8KW6P4R","","null","<img src=""img/food2.png"" style=""width:200px;border:14px solid red;"">","null","","","","","","","","","",""
"","image-keyboard-response","324","139090","0.0-414.0","3J88R45B2HKMZYR6IC8FD7DUL8OXPE","A8EWC86OH91I2","3MXX6RQ9EVRTFC527Z18RDK8KW6P4R","","206.20000000298023","img/food3.png","75","207.29999999701977","2","0","","3","1","1,0.5,0,1,0.5,0,0.5,0,1","1,0.5,0,1,0.5,0,0.5,0,1","1",""
"","html-keyboard-response","325","139392","0.0-415.0","3J88R45B2HKMZYR6IC8FD7DUL8OXPE","A8EWC86OH91I2","3MXX6RQ9EVRTFC527Z18RDK8KW6P4R","","null","<img src=""img/food3.png"" style=""width:200px;border:14px solid red;"">","null","","","","","","","","","",""
"","image-keyboard-response","326","139579","0.0-416.0","3J88R45B2HKMZYR6IC8FD7DUL8OXPE","A8EWC86OH91I2","3MXX6RQ9EVRTFC527Z18RDK8KW6P4R","","186.10000000149012","img/food6.png","74","187.29999999701977","1","1","","2","1","1,0.5,0,1,0.5,0,0.5,0,1","1,0.5,0,1,0.5,0,0.5,0,1","1",""
"","html-keyboard-response","327","139881","0.0-417.0","3J88R45B2HKMZYR6IC8FD7DUL8OXPE","A8EWC86OH91I2","3MXX6RQ9EVRTFC527Z18RDK8KW6P4R","","null","<img src=""img/food6.png"" style=""width:200px; border:14px solid green;"">","null","","","","","","","","","",""
"","image-keyboard-response","328","140117","0.0-418.0","3J88R45B2HKMZYR6IC8FD7DUL8OXPE","A8EWC86OH91I2","3MXX6RQ9EVRTFC527Z18RDK8KW6P4R","","234.59999999403954","img/food2.png","74","235.5","1","1","","1","1","1,0.5,0,1,0.5,0,0.5,0,1","1,0.5,0,1,0.5,0,0.5,0,1","1",""
"","html-keyboard-response","329","140419","0.0-419.0","3J88R45B2HKMZYR6IC8FD7DUL8OXPE","A8EWC86OH91I2","3MXX6RQ9EVRTFC527Z18RDK8KW6P4R","","null","<img src=""img/food2.png"" style=""width:200px; border:14px solid green;"">","null","","","","","","","","","",""
"","image-keyboard-response","330","140688","0.0-420.0","3J88R45B2HKMZYR6IC8FD7DUL8OXPE","A8EWC86OH91I2","3MXX6RQ9EVRTFC527Z18RDK8KW6P4R","","268.29999999701977","img/food3.png","74","269.3999999985099","1","0","","3","1","1,0.5,0,1,0.5,0,0.5,0,1","1,0.5,0,1,0.5,0,0.5,0,1","1",""
"","html-keyboard-response","331","140990","0.0-421.0","3J88R45B2HKMZYR6IC8FD7DUL8OXPE","A8EWC86OH91I2","3MXX6RQ9EVRTFC527Z18RDK8KW6P4R","","null","<img src=""img/food3.png"" style=""width:200px;border:14px solid red;"">","null","","","","","","","","","",""
"","image-keyboard-response","332","141181","0.0-422.0","3J88R45B2HKMZYR6IC8FD7DUL8OXPE","A8EWC86OH91I2","3MXX6RQ9EVRTFC527Z18RDK8KW6P4R","","189.89999999850988","img/food2.png","76","191","3","0","","1","1","1,0.5,0,1,0.5,0,0.5,0,1","1,0.5,0,1,0.5,0,0.5,0,1","1",""
"","html-keyboard-response","333","141483","0.0-423.0","3J88R45B2HKMZYR6IC8FD7DUL8OXPE","A8EWC86OH91I2","3MXX6RQ9EVRTFC527Z18RDK8KW6P4R","","null","<img src=""img/food2.png"" style=""width:200px;border:14px solid red;"">","null","","","","","","","","","",""
"","image-keyboard-response","334","141744","0.0-424.0","3J88R45B2HKMZYR6IC8FD7DUL8OXPE","A8EWC86OH91I2","3MXX6RQ9EVRTFC527Z18RDK8KW6P4R","","259.90000000596046","img/food6.png","75","261.1000000014901","2","1","","2","1","1,0.5,0,1,0.5,0,0.5,0,1","1,0.5,0,1,0.5,0,0.5,0,1","1",""
"","html-keyboard-response","335","142048","0.0-425.0","3J88R45B2HKMZYR6IC8FD7DUL8OXPE","A8EWC86OH91I2","3MXX6RQ9EVRTFC527Z18RDK8KW6P4R","","null","<img src=""img/food6.png"" style=""width:200px; border:14px solid green;"">","null","","","","","","","","","",""
"","image-keyboard-response","336","142336","0.0-426.0","3J88R45B2HKMZYR6IC8FD7DUL8OXPE","A8EWC86OH91I2","3MXX6RQ9EVRTFC527Z18RDK8KW6P4R","","286.8999999985099","img/food3.png","74","287.79999999701977","1","1","","3","1","1,0.5,0,1,0.5,0,0.5,0,1","1,0.5,0,1,0.5,0,0.5,0,1","1",""
"","html-keyboard-response","337","142638","0.0-427.0","3J88R45B2HKMZYR6IC8FD7DUL8OXPE","A8EWC86OH91I2","3MXX6RQ9EVRTFC527Z18RDK8KW6P4R","","null","<img src=""img/food3.png"" style=""width:200px; border:14px solid green;"">","null","","","","","","","","","",""
"","image-keyboard-response","338","142842","0.0-428.0","3J88R45B2HKMZYR6IC8FD7DUL8OXPE","A8EWC86OH91I2","3MXX6RQ9EVRTFC527Z18RDK8KW6P4R","","203.20000000298023","img/food3.png","74","204.60000000149012","1","0","","3","1","1,0.5,0,1,0.5,0,0.5,0,1","1,0.5,0,1,0.5,0,0.5,0,1","1",""
"","html-keyboard-response","339","143145","0.0-429.0","3J88R45B2HKMZYR6IC8FD7DUL8OXPE","A8EWC86OH91I2","3MXX6RQ9EVRTFC527Z18RDK8KW6P4R","","null","<img src=""img/food3.png"" style=""width:200px;border:14px solid red;"">","null","","","","","","","","","",""
"","image-keyboard-response","340","143338","0.0-430.0","3J88R45B2HKMZYR6IC8FD7DUL8OXPE","A8EWC86OH91I2","3MXX6RQ9EVRTFC527Z18RDK8KW6P4R","","191.80000000447035","img/food2.png","75","192.89999999850988","2","0","","1","1","1,0.5,0,1,0.5,0,0.5,0,1","1,0.5,0,1,0.5,0,0.5,0,1","1",""
"","html-keyboard-response","341","143639","0.0-431.0","3J88R45B2HKMZYR6IC8FD7DUL8OXPE","A8EWC86OH91I2","3MXX6RQ9EVRTFC527Z18RDK8KW6P4R","","null","<img src=""img/food2.png"" style=""width:200px;border:14px solid red;"">","null","","","","","","","","","",""
"","image-keyboard-response","342","143657","0.0-432.0","3J88R45B2HKMZYR6IC8FD7DUL8OXPE","A8EWC86OH91I2","3MXX6RQ9EVRTFC527Z18RDK8KW6P4R","","16.5","img/food6.png","75","17.5","2","1","","2","1","1,0.5,0,1,0.5,0,0.5,0,1","1,0.5,0,1,0.5,0,0.5,0,1","1",""
"","html-keyboard-response","343","143959","0.0-433.0","3J88R45B2HKMZYR6IC8FD7DUL8OXPE","A8EWC86OH91I2","3MXX6RQ9EVRTFC527Z18RDK8KW6P4R","","null","<img src=""img/food6.png"" style=""width:200px; border:14px solid green;"">","null","","","","","","","","","",""
"","image-keyboard-response","344","144199","0.0-434.0","3J88R45B2HKMZYR6IC8FD7DUL8OXPE","A8EWC86OH91I2","3MXX6RQ9EVRTFC527Z18RDK8KW6P4R","","239.20000000298023","img/food6.png","75","240.20000000298023","2","1","","2","1","1,0.5,0,1,0.5,0,0.5,0,1","1,0.5,0,1,0.5,0,0.5,0,1","1",""
"","html-keyboard-response","345","144502","0.0-435.0","3J88R45B2HKMZYR6IC8FD7DUL8OXPE","A8EWC86OH91I2","3MXX6RQ9EVRTFC527Z18RDK8KW6P4R","","null","<img src=""img/food6.png"" style=""width:200px; border:14px solid green;"">","null","","","","","","","","","",""
"","image-keyboard-response","346","144530","0.0-436.0","3J88R45B2HKMZYR6IC8FD7DUL8OXPE","A8EWC86OH91I2","3MXX6RQ9EVRTFC527Z18RDK8KW6P4R","","27.30000000447035","img/food6.png","74","28.399999998509884","1","1","","2","1","1,0.5,0,1,0.5,0,0.5,0,1","1,0.5,0,1,0.5,0,0.5,0,1","1",""
"","html-keyboard-response","347","144833","0.0-437.0","3J88R45B2HKMZYR6IC8FD7DUL8OXPE","A8EWC86OH91I2","3MXX6RQ9EVRTFC527Z18RDK8KW6P4R","","null","<img src=""img/food6.png"" style=""width:200px; border:14px solid green;"">","null","","","","","","","","","",""
"","image-keyboard-response","348","145064","0.0-438.0","3J88R45B2HKMZYR6IC8FD7DUL8OXPE","A8EWC86OH91I2","3MXX6RQ9EVRTFC527Z18RDK8KW6P4R","","229.69999999552965","img/food6.png","74","230.89999999850988","1","1","","2","1","1,0.5,0,1,0.5,0,0.5,0,1","1,0.5,0,1,0.5,0,0.5,0,1","1",""
"","html-keyboard-response","349","145365","0.0-439.0","3J88R45B2HKMZYR6IC8FD7DUL8OXPE","A8EWC86OH91I2","3MXX6RQ9EVRTFC527Z18RDK8KW6P4R","","null","<img src=""img/food6.png"" style=""width:200px; border:14px solid green;"">","null","","","","","","","","","",""
"","image-keyboard-response","350","145612","0.0-440.0","3J88R45B2HKMZYR6IC8FD7DUL8OXPE","A8EWC86OH91I2","3MXX6RQ9EVRTFC527Z18RDK8KW6P4R","","245.70000000298023","img/food2.png","74","246.60000000149012","1","1","","1","1","1,0.5,0,1,0.5,0,0.5,0,1","1,0.5,0,1,0.5,0,0.5,0,1","1",""
"","html-keyboard-response","351","145914","0.0-441.0","3J88R45B2HKMZYR6IC8FD7DUL8OXPE","A8EWC86OH91I2","3MXX6RQ9EVRTFC527Z18RDK8KW6P4R","","null","<img src=""img/food2.png"" style=""width:200px; border:14px solid green;"">","null","","","","","","","","","",""
"","image-keyboard-response","352","146151","0.0-442.0","3J88R45B2HKMZYR6IC8FD7DUL8OXPE","A8EWC86OH91I2","3MXX6RQ9EVRTFC527Z18RDK8KW6P4R","","235","img/food2.png","74","236.09999999403954","1","1","","1","1","1,0.5,0,1,0.5,0,0.5,0,1","1,0.5,0,1,0.5,0,0.5,0,1","1",""
"","html-keyboard-response","353","146453","0.0-443.0","3J88R45B2HKMZYR6IC8FD7DUL8OXPE","A8EWC86OH91I2","3MXX6RQ9EVRTFC527Z18RDK8KW6P4R","","null","<img src=""img/food2.png"" style=""width:200px; border:14px solid green;"">","null","","","","","","","","","",""
"","image-keyboard-response","354","146731","0.0-444.0","3J88R45B2HKMZYR6IC8FD7DUL8OXPE","A8EWC86OH91I2","3MXX6RQ9EVRTFC527Z18RDK8KW6P4R","","276","img/food6.png","74","277.1000000014901","1","1","","2","1","1,0.5,0,1,0.5,0,0.5,0,1","1,0.5,0,1,0.5,0,0.5,0,1","1",""
"","html-keyboard-response","355","147033","0.0-445.0","3J88R45B2HKMZYR6IC8FD7DUL8OXPE","A8EWC86OH91I2","3MXX6RQ9EVRTFC527Z18RDK8KW6P4R","","null","<img src=""img/food6.png"" style=""width:200px; border:14px solid green;"">","null","","","","","","","","","",""
"","image-keyboard-response","356","147263","0.0-446.0","3J88R45B2HKMZYR6IC8FD7DUL8OXPE","A8EWC86OH91I2","3MXX6RQ9EVRTFC527Z18RDK8KW6P4R","","228.89999999850988","img/food3.png","74","229.89999999850988","1","0","","3","1","1,0.5,0,1,0.5,0,0.5,0,1","1,0.5,0,1,0.5,0,0.5,0,1","1",""
"","html-keyboard-response","357","147565","0.0-447.0","3J88R45B2HKMZYR6IC8FD7DUL8OXPE","A8EWC86OH91I2","3MXX6RQ9EVRTFC527Z18RDK8KW6P4R","","null","<img src=""img/food3.png"" style=""width:200px;border:14px solid red;"">","null","","","","","","","","","",""
"","image-keyboard-response","358","147569","0.0-448.0","3J88R45B2HKMZYR6IC8FD7DUL8OXPE","A8EWC86OH91I2","3MXX6RQ9EVRTFC527Z18RDK8KW6P4R","","2.9000000059604645","img/food6.png","74","3.6999999955296516","1","1","","2","1","1,0.5,0,1,0.5,0,0.5,0,1","1,0.5,0,1,0.5,0,0.5,0,1","1",""
"","html-keyboard-response","359","147870","0.0-449.0","3J88R45B2HKMZYR6IC8FD7DUL8OXPE","A8EWC86OH91I2","3MXX6RQ9EVRTFC527Z18RDK8KW6P4R","","null","<img src=""img/food6.png"" style=""width:200px; border:14px solid green;"">","null","","","","","","","","","",""
"","image-keyboard-response","360","148080","0.0-450.0","3J88R45B2HKMZYR6IC8FD7DUL8OXPE","A8EWC86OH91I2","3MXX6RQ9EVRTFC527Z18RDK8KW6P4R","","208.30000000447035","img/food3.png","75","209.39999999850988","2","0","","3","1","1,0.5,0,1,0.5,0,0.5,0,1","1,0.5,0,1,0.5,0,0.5,0,1","1",""
"","html-keyboard-response","361","148382","0.0-451.0","3J88R45B2HKMZYR6IC8FD7DUL8OXPE","A8EWC86OH91I2","3MXX6RQ9EVRTFC527Z18RDK8KW6P4R","","null","<img src=""img/food3.png"" style=""width:200px;border:14px solid red;"">","null","","","","","","","","","",""
"","image-keyboard-response","362","148643","0.0-452.0","3J88R45B2HKMZYR6IC8FD7DUL8OXPE","A8EWC86OH91I2","3MXX6RQ9EVRTFC527Z18RDK8KW6P4R","","259.80000000447035","img/food2.png","74","260.8999999985099","1","1","","1","1","1,0.5,0,1,0.5,0,0.5,0,1","1,0.5,0,1,0.5,0,0.5,0,1","1",""
"","html-keyboard-response","363","148945","0.0-453.0","3J88R45B2HKMZYR6IC8FD7DUL8OXPE","A8EWC86OH91I2","3MXX6RQ9EVRTFC527Z18RDK8KW6P4R","","null","<img src=""img/food2.png"" style=""width:200px; border:14px solid green;"">","null","","","","","","","","","",""
"","html-keyboard-response","364","153214","0.0-454.0","3J88R45B2HKMZYR6IC8FD7DUL8OXPE","A8EWC86OH91I2","3MXX6RQ9EVRTFC527Z18RDK8KW6P4R","","","","","","","","","","","","","",""
"","instructions","365","161191","0.0-455.0","3J88R45B2HKMZYR6IC8FD7DUL8OXPE","A8EWC86OH91I2","3MXX6RQ9EVRTFC527Z18RDK8KW6P4R","[{""page_index"":0,""viewing_time"":7975.5}]","7975.89999999851","","","","","","","","","","","",""
"","survey-text","366","212288","0.0-456.0","3J88R45B2HKMZYR6IC8FD7DUL8OXPE","A8EWC86OH91I2","3MXX6RQ9EVRTFC527Z18RDK8KW6P4R","","51092.5","","","","","","","","","","","","{""Q0"":""A8EWC86OH91I2""}"
