"success","trial_type","trial_index","time_elapsed","internal_node_id","assignmentID","mturkID","hitID","view_history","rt","stimulus","key_press","reactionTime","a","r","s","cond","reward_cond","reward_cond_actual","reward_matrix_idx","warning","responses"
"true","fullscreen","0","2988","0.0-0.0","3FE7TXL1LJ96YUPOU02BNM98DWCQ2S","A8KX1HFH8NE2Q","382GHPVPHSDM8N0F9141EAH7F0K34Z","","","","","","","","","","","","","",""
"","instructions","1","28012","0.0-1.0","3FE7TXL1LJ96YUPOU02BNM98DWCQ2S","A8KX1HFH8NE2Q","382GHPVPHSDM8N0F9141EAH7F0K34Z","[{""page_index"":0,""viewing_time"":3841.2999999523163},{""page_index"":1,""viewing_time"":2892},{""page_index"":2,""viewing_time"":3560},{""page_index"":3,""viewing_time"":5159.800000011921},{""page_index"":4,""viewing_time"":1984},{""page_index"":5,""viewing_time"":5034.100000023842},{""page_index"":6,""viewing_time"":2548}]","25019.599999964237","","","","","","","","","","","",""
"","image-keyboard-response","2","29691","0.0-2.0","3FE7TXL1LJ96YUPOU02BNM98DWCQ2S","A8KX1HFH8NE2Q","382GHPVPHSDM8N0F9141EAH7F0K34Z","","1677.800000011921","img/food5.png","75","1678.7999999523163","2","0","3","1","1,0.5,0,1,0.5,0,0.5,0,1","0,1,0.5,0,1,0.5,1,0.5,0","3","",""
"","html-keyboard-response","3","30008","0.0-3.0","3FE7TXL1LJ96YUPOU02BNM98DWCQ2S","A8KX1HFH8NE2Q","382GHPVPHSDM8N0F9141EAH7F0K34Z","","null","<img src=""img/food5.png"" style=""width:200px;border:14px solid red;"">","null","","","","","","","","","",""
"","image-keyboard-response","4","31369","0.0-4.0","3FE7TXL1LJ96YUPOU02BNM98DWCQ2S","A8KX1HFH8NE2Q","382GHPVPHSDM8N0F9141EAH7F0K34Z","","1358.199999988079","img/food6.png","76","1360.800000011921","3","0","1","1","1,0.5,0,1,0.5,0,0.5,0,1","0,1,0.5,0,1,0.5,1,0.5,0","3","",""
"","html-keyboard-response","5","31671","0.0-5.0","3FE7TXL1LJ96YUPOU02BNM98DWCQ2S","A8KX1HFH8NE2Q","382GHPVPHSDM8N0F9141EAH7F0K34Z","","null","<img src=""img/food6.png"" style=""width:200px;border:14px solid red;"">","null","","","","","","","","","",""
"","image-keyboard-response","6","32916","0.0-6.0","3FE7TXL1LJ96YUPOU02BNM98DWCQ2S","A8KX1HFH8NE2Q","382GHPVPHSDM8N0F9141EAH7F0K34Z","","1242.3999999761581","img/food5.png","76","1244.199999988079","3","0","3","1","1,0.5,0,1,0.5,0,0.5,0,1","0,1,0.5,0,1,0.5,1,0.5,0","3","",""
"","html-keyboard-response","7","33218","0.0-7.0","3FE7TXL1LJ96YUPOU02BNM98DWCQ2S","A8KX1HFH8NE2Q","382GHPVPHSDM8N0F9141EAH7F0K34Z","","null","<img src=""img/food5.png"" style=""width:200px;border:14px solid red;"">","null","","","","","","","","","",""
"","image-keyboard-response","8","35146","0.0-8.0","3FE7TXL1LJ96YUPOU02BNM98DWCQ2S","A8KX1HFH8NE2Q","382GHPVPHSDM8N0F9141EAH7F0K34Z","","1926.5","img/food1.png","76","1927.699999988079","3","0","2","1","1,0.5,0,1,0.5,0,0.5,0,1","0,1,0.5,0,1,0.5,1,0.5,0","3","",""
"","html-keyboard-response","9","35449","0.0-9.0","3FE7TXL1LJ96YUPOU02BNM98DWCQ2S","A8KX1HFH8NE2Q","382GHPVPHSDM8N0F9141EAH7F0K34Z","","null","<img src=""img/food1.png"" style=""width:200px;border:14px solid red;"">","null","","","","","","","","","",""
"","image-keyboard-response","10","36476","0.0-10.0","3FE7TXL1LJ96YUPOU02BNM98DWCQ2S","A8KX1HFH8NE2Q","382GHPVPHSDM8N0F9141EAH7F0K34Z","","1025.699999988079","img/food5.png","74","1027","1","1","3","1","1,0.5,0,1,0.5,0,0.5,0,1","0,1,0.5,0,1,0.5,1,0.5,0","3","",""
"","html-keyboard-response","11","36779","0.0-11.0","3FE7TXL1LJ96YUPOU02BNM98DWCQ2S","A8KX1HFH8NE2Q","382GHPVPHSDM8N0F9141EAH7F0K34Z","","null","<img src=""img/food5.png"" style=""width:200px; border:14px solid green;"">","null","","","","","","","","","",""
"","image-keyboard-response","12","38393","0.0-12.0","3FE7TXL1LJ96YUPOU02BNM98DWCQ2S","A8KX1HFH8NE2Q","382GHPVPHSDM8N0F9141EAH7F0K34Z","","1612.300000011921","img/food1.png","76","1613.6000000238419","3","0","2","1","1,0.5,0,1,0.5,0,0.5,0,1","0,1,0.5,0,1,0.5,1,0.5,0","3","",""
"","html-keyboard-response","13","38695","0.0-13.0","3FE7TXL1LJ96YUPOU02BNM98DWCQ2S","A8KX1HFH8NE2Q","382GHPVPHSDM8N0F9141EAH7F0K34Z","","null","<img src=""img/food1.png"" style=""width:200px;border:14px solid red;"">","null","","","","","","","","","",""
"","image-keyboard-response","14","39707","0.0-14.0","3FE7TXL1LJ96YUPOU02BNM98DWCQ2S","A8KX1HFH8NE2Q","382GHPVPHSDM8N0F9141EAH7F0K34Z","","1010.3000000119209","img/food5.png","74","1012.1000000238419","1","1","3","1","1,0.5,0,1,0.5,0,0.5,0,1","0,1,0.5,0,1,0.5,1,0.5,0","3","",""
"","html-keyboard-response","15","40010","0.0-15.0","3FE7TXL1LJ96YUPOU02BNM98DWCQ2S","A8KX1HFH8NE2Q","382GHPVPHSDM8N0F9141EAH7F0K34Z","","null","<img src=""img/food5.png"" style=""width:200px; border:14px solid green;"">","null","","","","","","","","","",""
"","image-keyboard-response","16","41487","0.0-16.0","3FE7TXL1LJ96YUPOU02BNM98DWCQ2S","A8KX1HFH8NE2Q","382GHPVPHSDM8N0F9141EAH7F0K34Z","","1472.6000000238419","img/food1.png","75","1476.5","2","1","2","1","1,0.5,0,1,0.5,0,0.5,0,1","0,1,0.5,0,1,0.5,1,0.5,0","3","",""
"","html-keyboard-response","17","41792","0.0-17.0","3FE7TXL1LJ96YUPOU02BNM98DWCQ2S","A8KX1HFH8NE2Q","382GHPVPHSDM8N0F9141EAH7F0K34Z","","null","<img src=""img/food1.png"" style=""width:200px; border:14px solid green;"">","null","","","","","","","","","",""
"","image-keyboard-response","18","42916","0.0-18.0","3FE7TXL1LJ96YUPOU02BNM98DWCQ2S","A8KX1HFH8NE2Q","382GHPVPHSDM8N0F9141EAH7F0K34Z","","1122.300000011921","img/food6.png","76","1124.1000000238419","3","1","1","1","1,0.5,0,1,0.5,0,0.5,0,1","0,1,0.5,0,1,0.5,1,0.5,0","3","",""
"","html-keyboard-response","19","43219","0.0-19.0","3FE7TXL1LJ96YUPOU02BNM98DWCQ2S","A8KX1HFH8NE2Q","382GHPVPHSDM8N0F9141EAH7F0K34Z","","null","<img src=""img/food6.png"" style=""width:200px; border:14px solid green;"">","null","","","","","","","","","",""
"","image-keyboard-response","20","44434","0.0-20.0","3FE7TXL1LJ96YUPOU02BNM98DWCQ2S","A8KX1HFH8NE2Q","382GHPVPHSDM8N0F9141EAH7F0K34Z","","1213.699999988079","img/food1.png","75","1215.1000000238419","2","1","2","1","1,0.5,0,1,0.5,0,0.5,0,1","0,1,0.5,0,1,0.5,1,0.5,0","3","",""
"","html-keyboard-response","21","44739","0.0-21.0","3FE7TXL1LJ96YUPOU02BNM98DWCQ2S","A8KX1HFH8NE2Q","382GHPVPHSDM8N0F9141EAH7F0K34Z","","null","<img src=""img/food1.png"" style=""width:200px; border:14px solid green;"">","null","","","","","","","","","",""
"","image-keyboard-response","22","45324","0.0-22.0","3FE7TXL1LJ96YUPOU02BNM98DWCQ2S","A8KX1HFH8NE2Q","382GHPVPHSDM8N0F9141EAH7F0K34Z","","583.3000000119209","img/food6.png","76","584.6999999880791","3","1","1","1","1,0.5,0,1,0.5,0,0.5,0,1","0,1,0.5,0,1,0.5,1,0.5,0","3","",""
"","html-keyboard-response","23","45625","0.0-23.0","3FE7TXL1LJ96YUPOU02BNM98DWCQ2S","A8KX1HFH8NE2Q","382GHPVPHSDM8N0F9141EAH7F0K34Z","","null","<img src=""img/food6.png"" style=""width:200px; border:14px solid green;"">","null","","","","","","","","","",""
"","image-keyboard-response","24","46203","0.0-24.0","3FE7TXL1LJ96YUPOU02BNM98DWCQ2S","A8KX1HFH8NE2Q","382GHPVPHSDM8N0F9141EAH7F0K34Z","","576.0999999642372","img/food5.png","74","577.5","1","1","3","1","1,0.5,0,1,0.5,0,0.5,0,1","0,1,0.5,0,1,0.5,1,0.5,0","3","",""
"","html-keyboard-response","25","46505","0.0-25.0","3FE7TXL1LJ96YUPOU02BNM98DWCQ2S","A8KX1HFH8NE2Q","382GHPVPHSDM8N0F9141EAH7F0K34Z","","null","<img src=""img/food5.png"" style=""width:200px; border:14px solid green;"">","null","","","","","","","","","",""
"","image-keyboard-response","26","47511","0.0-26.0","3FE7TXL1LJ96YUPOU02BNM98DWCQ2S","A8KX1HFH8NE2Q","382GHPVPHSDM8N0F9141EAH7F0K34Z","","1004","img/food6.png","76","1005.8000000119209","3","0","1","1","1,0.5,0,1,0.5,0,0.5,0,1","0,1,0.5,0,1,0.5,1,0.5,0","3","",""
"","html-keyboard-response","27","47815","0.0-27.0","3FE7TXL1LJ96YUPOU02BNM98DWCQ2S","A8KX1HFH8NE2Q","382GHPVPHSDM8N0F9141EAH7F0K34Z","","null","<img src=""img/food6.png"" style=""width:200px;border:14px solid red;"">","null","","","","","","","","","",""
"","image-keyboard-response","28","49043","0.0-28.0","3FE7TXL1LJ96YUPOU02BNM98DWCQ2S","A8KX1HFH8NE2Q","382GHPVPHSDM8N0F9141EAH7F0K34Z","","1225.199999988079","img/food1.png","75","1226.8999999761581","2","1","2","1","1,0.5,0,1,0.5,0,0.5,0,1","0,1,0.5,0,1,0.5,1,0.5,0","3","",""
"","html-keyboard-response","29","49345","0.0-29.0","3FE7TXL1LJ96YUPOU02BNM98DWCQ2S","A8KX1HFH8NE2Q","382GHPVPHSDM8N0F9141EAH7F0K34Z","","null","<img src=""img/food1.png"" style=""width:200px; border:14px solid green;"">","null","","","","","","","","","",""
"","image-keyboard-response","30","50861","0.0-30.0","3FE7TXL1LJ96YUPOU02BNM98DWCQ2S","A8KX1HFH8NE2Q","382GHPVPHSDM8N0F9141EAH7F0K34Z","","1514.7999999523163","img/food1.png","75","1516","2","1","2","1","1,0.5,0,1,0.5,0,0.5,0,1","0,1,0.5,0,1,0.5,1,0.5,0","3","",""
"","html-keyboard-response","31","51164","0.0-31.0","3FE7TXL1LJ96YUPOU02BNM98DWCQ2S","A8KX1HFH8NE2Q","382GHPVPHSDM8N0F9141EAH7F0K34Z","","null","<img src=""img/food1.png"" style=""width:200px; border:14px solid green;"">","null","","","","","","","","","",""
"","image-keyboard-response","32","51711","0.0-32.0","3FE7TXL1LJ96YUPOU02BNM98DWCQ2S","A8KX1HFH8NE2Q","382GHPVPHSDM8N0F9141EAH7F0K34Z","","545.1999999880791","img/food1.png","75","547.3000000119209","2","1","2","1","1,0.5,0,1,0.5,0,0.5,0,1","0,1,0.5,0,1,0.5,1,0.5,0","3","",""
"","html-keyboard-response","33","52015","0.0-33.0","3FE7TXL1LJ96YUPOU02BNM98DWCQ2S","A8KX1HFH8NE2Q","382GHPVPHSDM8N0F9141EAH7F0K34Z","","null","<img src=""img/food1.png"" style=""width:200px; border:14px solid green;"">","null","","","","","","","","","",""
"","image-keyboard-response","34","52805","0.0-34.0","3FE7TXL1LJ96YUPOU02BNM98DWCQ2S","A8KX1HFH8NE2Q","382GHPVPHSDM8N0F9141EAH7F0K34Z","","788.2000000476837","img/food6.png","76","789.9000000357628","3","0","1","1","1,0.5,0,1,0.5,0,0.5,0,1","0,1,0.5,0,1,0.5,1,0.5,0","3","",""
"","html-keyboard-response","35","53113","0.0-35.0","3FE7TXL1LJ96YUPOU02BNM98DWCQ2S","A8KX1HFH8NE2Q","382GHPVPHSDM8N0F9141EAH7F0K34Z","","null","<img src=""img/food6.png"" style=""width:200px;border:14px solid red;"">","null","","","","","","","","","",""
"","image-keyboard-response","36","53799","0.0-36.0","3FE7TXL1LJ96YUPOU02BNM98DWCQ2S","A8KX1HFH8NE2Q","382GHPVPHSDM8N0F9141EAH7F0K34Z","","684.3000000119209","img/food5.png","74","685.8000000119209","1","1","3","1","1,0.5,0,1,0.5,0,0.5,0,1","0,1,0.5,0,1,0.5,1,0.5,0","3","",""
"","html-keyboard-response","37","54101","0.0-37.0","3FE7TXL1LJ96YUPOU02BNM98DWCQ2S","A8KX1HFH8NE2Q","382GHPVPHSDM8N0F9141EAH7F0K34Z","","null","<img src=""img/food5.png"" style=""width:200px; border:14px solid green;"">","null","","","","","","","","","",""
"","image-keyboard-response","38","55365","0.0-38.0","3FE7TXL1LJ96YUPOU02BNM98DWCQ2S","A8KX1HFH8NE2Q","382GHPVPHSDM8N0F9141EAH7F0K34Z","","1261.4000000357628","img/food6.png","76","1262.800000011921","3","1","1","1","1,0.5,0,1,0.5,0,0.5,0,1","0,1,0.5,0,1,0.5,1,0.5,0","3","",""
"","html-keyboard-response","39","55666","0.0-39.0","3FE7TXL1LJ96YUPOU02BNM98DWCQ2S","A8KX1HFH8NE2Q","382GHPVPHSDM8N0F9141EAH7F0K34Z","","null","<img src=""img/food6.png"" style=""width:200px; border:14px solid green;"">","null","","","","","","","","","",""
"","image-keyboard-response","40","56447","0.0-40.0","3FE7TXL1LJ96YUPOU02BNM98DWCQ2S","A8KX1HFH8NE2Q","382GHPVPHSDM8N0F9141EAH7F0K34Z","","779.5","img/food1.png","75","780.6999999880791","2","1","2","1","1,0.5,0,1,0.5,0,0.5,0,1","0,1,0.5,0,1,0.5,1,0.5,0","3","",""
"","html-keyboard-response","41","56750","0.0-41.0","3FE7TXL1LJ96YUPOU02BNM98DWCQ2S","A8KX1HFH8NE2Q","382GHPVPHSDM8N0F9141EAH7F0K34Z","","null","<img src=""img/food1.png"" style=""width:200px; border:14px solid green;"">","null","","","","","","","","","",""
"","image-keyboard-response","42","57255","0.0-42.0","3FE7TXL1LJ96YUPOU02BNM98DWCQ2S","A8KX1HFH8NE2Q","382GHPVPHSDM8N0F9141EAH7F0K34Z","","503.69999998807907","img/food6.png","76","505.0999999642372","3","1","1","1","1,0.5,0,1,0.5,0,0.5,0,1","0,1,0.5,0,1,0.5,1,0.5,0","3","",""
"","html-keyboard-response","43","57557","0.0-43.0","3FE7TXL1LJ96YUPOU02BNM98DWCQ2S","A8KX1HFH8NE2Q","382GHPVPHSDM8N0F9141EAH7F0K34Z","","null","<img src=""img/food6.png"" style=""width:200px; border:14px solid green;"">","null","","","","","","","","","",""
"","image-keyboard-response","44","58270","0.0-44.0","3FE7TXL1LJ96YUPOU02BNM98DWCQ2S","A8KX1HFH8NE2Q","382GHPVPHSDM8N0F9141EAH7F0K34Z","","710.3000000119209","img/food5.png","74","712","1","1","3","1","1,0.5,0,1,0.5,0,0.5,0,1","0,1,0.5,0,1,0.5,1,0.5,0","3","",""
"","html-keyboard-response","45","58573","0.0-45.0","3FE7TXL1LJ96YUPOU02BNM98DWCQ2S","A8KX1HFH8NE2Q","382GHPVPHSDM8N0F9141EAH7F0K34Z","","null","<img src=""img/food5.png"" style=""width:200px; border:14px solid green;"">","null","","","","","","","","","",""
"","image-keyboard-response","46","59174","0.0-46.0","3FE7TXL1LJ96YUPOU02BNM98DWCQ2S","A8KX1HFH8NE2Q","382GHPVPHSDM8N0F9141EAH7F0K34Z","","597.3000000119209","img/food5.png","74","608.1000000238419","1","1","3","1","1,0.5,0,1,0.5,0,0.5,0,1","0,1,0.5,0,1,0.5,1,0.5,0","3","",""
"","html-keyboard-response","47","59483","0.0-47.0","3FE7TXL1LJ96YUPOU02BNM98DWCQ2S","A8KX1HFH8NE2Q","382GHPVPHSDM8N0F9141EAH7F0K34Z","","null","<img src=""img/food5.png"" style=""width:200px; border:14px solid green;"">","null","","","","","","","","","",""
"","image-keyboard-response","48","60255","0.0-48.0","3FE7TXL1LJ96YUPOU02BNM98DWCQ2S","A8KX1HFH8NE2Q","382GHPVPHSDM8N0F9141EAH7F0K34Z","","770.1000000238419","img/food6.png","76","771.3000000119209","3","0","1","1","1,0.5,0,1,0.5,0,0.5,0,1","0,1,0.5,0,1,0.5,1,0.5,0","3","",""
"","html-keyboard-response","49","60557","0.0-49.0","3FE7TXL1LJ96YUPOU02BNM98DWCQ2S","A8KX1HFH8NE2Q","382GHPVPHSDM8N0F9141EAH7F0K34Z","","null","<img src=""img/food6.png"" style=""width:200px;border:14px solid red;"">","null","","","","","","","","","",""
"","image-keyboard-response","50","61183","0.0-50.0","3FE7TXL1LJ96YUPOU02BNM98DWCQ2S","A8KX1HFH8NE2Q","382GHPVPHSDM8N0F9141EAH7F0K34Z","","623.8999999761581","img/food1.png","75","625.7999999523163","2","1","2","1","1,0.5,0,1,0.5,0,0.5,0,1","0,1,0.5,0,1,0.5,1,0.5,0","3","",""
"","html-keyboard-response","51","61486","0.0-51.0","3FE7TXL1LJ96YUPOU02BNM98DWCQ2S","A8KX1HFH8NE2Q","382GHPVPHSDM8N0F9141EAH7F0K34Z","","null","<img src=""img/food1.png"" style=""width:200px; border:14px solid green;"">","null","","","","","","","","","",""
"","image-keyboard-response","52","61932","0.0-52.0","3FE7TXL1LJ96YUPOU02BNM98DWCQ2S","A8KX1HFH8NE2Q","382GHPVPHSDM8N0F9141EAH7F0K34Z","","444.30000001192093","img/food1.png","75","445.5","2","1","2","1","1,0.5,0,1,0.5,0,0.5,0,1","0,1,0.5,0,1,0.5,1,0.5,0","3","",""
"","html-keyboard-response","53","62234","0.0-53.0","3FE7TXL1LJ96YUPOU02BNM98DWCQ2S","A8KX1HFH8NE2Q","382GHPVPHSDM8N0F9141EAH7F0K34Z","","null","<img src=""img/food1.png"" style=""width:200px; border:14px solid green;"">","null","","","","","","","","","",""
"","image-keyboard-response","54","62859","0.0-54.0","3FE7TXL1LJ96YUPOU02BNM98DWCQ2S","A8KX1HFH8NE2Q","382GHPVPHSDM8N0F9141EAH7F0K34Z","","623.9000000357628","img/food6.png","76","625","3","1","1","1","1,0.5,0,1,0.5,0,0.5,0,1","0,1,0.5,0,1,0.5,1,0.5,0","3","",""
"","html-keyboard-response","55","63163","0.0-55.0","3FE7TXL1LJ96YUPOU02BNM98DWCQ2S","A8KX1HFH8NE2Q","382GHPVPHSDM8N0F9141EAH7F0K34Z","","null","<img src=""img/food6.png"" style=""width:200px; border:14px solid green;"">","null","","","","","","","","","",""
"","image-keyboard-response","56","63774","0.0-56.0","3FE7TXL1LJ96YUPOU02BNM98DWCQ2S","A8KX1HFH8NE2Q","382GHPVPHSDM8N0F9141EAH7F0K34Z","","609.1999999880791","img/food5.png","74","610.8999999761581","1","1","3","1","1,0.5,0,1,0.5,0,0.5,0,1","0,1,0.5,0,1,0.5,1,0.5,0","3","",""
"","html-keyboard-response","57","64077","0.0-57.0","3FE7TXL1LJ96YUPOU02BNM98DWCQ2S","A8KX1HFH8NE2Q","382GHPVPHSDM8N0F9141EAH7F0K34Z","","null","<img src=""img/food5.png"" style=""width:200px; border:14px solid green;"">","null","","","","","","","","","",""
"","image-keyboard-response","58","64505","0.0-58.0","3FE7TXL1LJ96YUPOU02BNM98DWCQ2S","A8KX1HFH8NE2Q","382GHPVPHSDM8N0F9141EAH7F0K34Z","","426","img/food5.png","74","427.69999998807907","1","1","3","1","1,0.5,0,1,0.5,0,0.5,0,1","0,1,0.5,0,1,0.5,1,0.5,0","3","",""
"","html-keyboard-response","59","64821","0.0-59.0","3FE7TXL1LJ96YUPOU02BNM98DWCQ2S","A8KX1HFH8NE2Q","382GHPVPHSDM8N0F9141EAH7F0K34Z","","null","<img src=""img/food5.png"" style=""width:200px; border:14px solid green;"">","null","","","","","","","","","",""
"","image-keyboard-response","60","65450","0.0-60.0","3FE7TXL1LJ96YUPOU02BNM98DWCQ2S","A8KX1HFH8NE2Q","382GHPVPHSDM8N0F9141EAH7F0K34Z","","626.8999999761581","img/food6.png","75","628.5","2","1","1","1","1,0.5,0,1,0.5,0,0.5,0,1","0,1,0.5,0,1,0.5,1,0.5,0","3","",""
"","html-keyboard-response","61","65752","0.0-61.0","3FE7TXL1LJ96YUPOU02BNM98DWCQ2S","A8KX1HFH8NE2Q","382GHPVPHSDM8N0F9141EAH7F0K34Z","","null","<img src=""img/food6.png"" style=""width:200px; border:14px solid green;"">","null","","","","","","","","","",""
"","image-keyboard-response","62","67124","0.0-62.0","3FE7TXL1LJ96YUPOU02BNM98DWCQ2S","A8KX1HFH8NE2Q","382GHPVPHSDM8N0F9141EAH7F0K34Z","","1369.2999999523163","img/food5.png","74","1371.1000000238419","1","1","3","1","1,0.5,0,1,0.5,0,0.5,0,1","0,1,0.5,0,1,0.5,1,0.5,0","3","",""
"","html-keyboard-response","63","67427","0.0-63.0","3FE7TXL1LJ96YUPOU02BNM98DWCQ2S","A8KX1HFH8NE2Q","382GHPVPHSDM8N0F9141EAH7F0K34Z","","null","<img src=""img/food5.png"" style=""width:200px; border:14px solid green;"">","null","","","","","","","","","",""
"","image-keyboard-response","64","67856","0.0-64.0","3FE7TXL1LJ96YUPOU02BNM98DWCQ2S","A8KX1HFH8NE2Q","382GHPVPHSDM8N0F9141EAH7F0K34Z","","426.80000001192093","img/food6.png","75","428.60000002384186","2","1","1","1","1,0.5,0,1,0.5,0,0.5,0,1","0,1,0.5,0,1,0.5,1,0.5,0","3","",""
"","html-keyboard-response","65","68158","0.0-65.0","3FE7TXL1LJ96YUPOU02BNM98DWCQ2S","A8KX1HFH8NE2Q","382GHPVPHSDM8N0F9141EAH7F0K34Z","","null","<img src=""img/food6.png"" style=""width:200px; border:14px solid green;"">","null","","","","","","","","","",""
"","image-keyboard-response","66","68615","0.0-66.0","3FE7TXL1LJ96YUPOU02BNM98DWCQ2S","A8KX1HFH8NE2Q","382GHPVPHSDM8N0F9141EAH7F0K34Z","","453.9000000357628","img/food6.png","75","455.60000002384186","2","1","1","1","1,0.5,0,1,0.5,0,0.5,0,1","0,1,0.5,0,1,0.5,1,0.5,0","3","",""
"","html-keyboard-response","67","68919","0.0-67.0","3FE7TXL1LJ96YUPOU02BNM98DWCQ2S","A8KX1HFH8NE2Q","382GHPVPHSDM8N0F9141EAH7F0K34Z","","null","<img src=""img/food6.png"" style=""width:200px; border:14px solid green;"">","null","","","","","","","","","",""
"","image-keyboard-response","68","69276","0.0-68.0","3FE7TXL1LJ96YUPOU02BNM98DWCQ2S","A8KX1HFH8NE2Q","382GHPVPHSDM8N0F9141EAH7F0K34Z","","355","img/food6.png","75","356.39999997615814","2","1","1","1","1,0.5,0,1,0.5,0,0.5,0,1","0,1,0.5,0,1,0.5,1,0.5,0","3","",""
"","html-keyboard-response","69","69577","0.0-69.0","3FE7TXL1LJ96YUPOU02BNM98DWCQ2S","A8KX1HFH8NE2Q","382GHPVPHSDM8N0F9141EAH7F0K34Z","","null","<img src=""img/food6.png"" style=""width:200px; border:14px solid green;"">","null","","","","","","","","","",""
"","image-keyboard-response","70","70198","0.0-70.0","3FE7TXL1LJ96YUPOU02BNM98DWCQ2S","A8KX1HFH8NE2Q","382GHPVPHSDM8N0F9141EAH7F0K34Z","","620","img/food1.png","75","620.8000000119209","2","1","2","1","1,0.5,0,1,0.5,0,0.5,0,1","0,1,0.5,0,1,0.5,1,0.5,0","3","",""
"","html-keyboard-response","71","70501","0.0-71.0","3FE7TXL1LJ96YUPOU02BNM98DWCQ2S","A8KX1HFH8NE2Q","382GHPVPHSDM8N0F9141EAH7F0K34Z","","null","<img src=""img/food1.png"" style=""width:200px; border:14px solid green;"">","null","","","","","","","","","",""
"","image-keyboard-response","72","71183","0.0-72.0","3FE7TXL1LJ96YUPOU02BNM98DWCQ2S","A8KX1HFH8NE2Q","382GHPVPHSDM8N0F9141EAH7F0K34Z","","681.5999999642372","img/food5.png","74","682.3999999761581","1","1","3","1","1,0.5,0,1,0.5,0,0.5,0,1","0,1,0.5,0,1,0.5,1,0.5,0","3","",""
"","html-keyboard-response","73","71488","0.0-73.0","3FE7TXL1LJ96YUPOU02BNM98DWCQ2S","A8KX1HFH8NE2Q","382GHPVPHSDM8N0F9141EAH7F0K34Z","","null","<img src=""img/food5.png"" style=""width:200px; border:14px solid green;"">","null","","","","","","","","","",""
"","image-keyboard-response","74","71838","0.0-74.0","3FE7TXL1LJ96YUPOU02BNM98DWCQ2S","A8KX1HFH8NE2Q","382GHPVPHSDM8N0F9141EAH7F0K34Z","","347.30000001192093","img/food5.png","74","349","1","1","3","1","1,0.5,0,1,0.5,0,0.5,0,1","0,1,0.5,0,1,0.5,1,0.5,0","3","",""
"","html-keyboard-response","75","72141","0.0-75.0","3FE7TXL1LJ96YUPOU02BNM98DWCQ2S","A8KX1HFH8NE2Q","382GHPVPHSDM8N0F9141EAH7F0K34Z","","null","<img src=""img/food5.png"" style=""width:200px; border:14px solid green;"">","null","","","","","","","","","",""
"","image-keyboard-response","76","72623","0.0-76.0","3FE7TXL1LJ96YUPOU02BNM98DWCQ2S","A8KX1HFH8NE2Q","382GHPVPHSDM8N0F9141EAH7F0K34Z","","480.2000000476837","img/food6.png","75","481.9000000357628","2","1","1","1","1,0.5,0,1,0.5,0,0.5,0,1","0,1,0.5,0,1,0.5,1,0.5,0","3","",""
"","html-keyboard-response","77","72926","0.0-77.0","3FE7TXL1LJ96YUPOU02BNM98DWCQ2S","A8KX1HFH8NE2Q","382GHPVPHSDM8N0F9141EAH7F0K34Z","","null","<img src=""img/food6.png"" style=""width:200px; border:14px solid green;"">","null","","","","","","","","","",""
"","image-keyboard-response","78","73442","0.0-78.0","3FE7TXL1LJ96YUPOU02BNM98DWCQ2S","A8KX1HFH8NE2Q","382GHPVPHSDM8N0F9141EAH7F0K34Z","","514.3000000119209","img/food1.png","75","515.5","2","1","2","1","1,0.5,0,1,0.5,0,0.5,0,1","0,1,0.5,0,1,0.5,1,0.5,0","3","",""
"","html-keyboard-response","79","73744","0.0-79.0","3FE7TXL1LJ96YUPOU02BNM98DWCQ2S","A8KX1HFH8NE2Q","382GHPVPHSDM8N0F9141EAH7F0K34Z","","null","<img src=""img/food1.png"" style=""width:200px; border:14px solid green;"">","null","","","","","","","","","",""
"","image-keyboard-response","80","74056","0.0-80.0","3FE7TXL1LJ96YUPOU02BNM98DWCQ2S","A8KX1HFH8NE2Q","382GHPVPHSDM8N0F9141EAH7F0K34Z","","309.7000000476837","img/food1.png","75","311.5","2","1","2","1","1,0.5,0,1,0.5,0,0.5,0,1","0,1,0.5,0,1,0.5,1,0.5,0","3","",""
"","html-keyboard-response","81","74359","0.0-81.0","3FE7TXL1LJ96YUPOU02BNM98DWCQ2S","A8KX1HFH8NE2Q","382GHPVPHSDM8N0F9141EAH7F0K34Z","","null","<img src=""img/food1.png"" style=""width:200px; border:14px solid green;"">","null","","","","","","","","","",""
"","image-keyboard-response","82","74655","0.0-82.0","3FE7TXL1LJ96YUPOU02BNM98DWCQ2S","A8KX1HFH8NE2Q","382GHPVPHSDM8N0F9141EAH7F0K34Z","","294.19999998807907","img/food1.png","75","295.60000002384186","2","1","2","1","1,0.5,0,1,0.5,0,0.5,0,1","0,1,0.5,0,1,0.5,1,0.5,0","3","",""
"","html-keyboard-response","83","74970","0.0-83.0","3FE7TXL1LJ96YUPOU02BNM98DWCQ2S","A8KX1HFH8NE2Q","382GHPVPHSDM8N0F9141EAH7F0K34Z","","null","<img src=""img/food1.png"" style=""width:200px; border:14px solid green;"">","null","","","","","","","","","",""
"","image-keyboard-response","84","75654","0.0-84.0","3FE7TXL1LJ96YUPOU02BNM98DWCQ2S","A8KX1HFH8NE2Q","382GHPVPHSDM8N0F9141EAH7F0K34Z","","682","img/food5.png","74","683.6999999880791","1","1","3","1","1,0.5,0,1,0.5,0,0.5,0,1","0,1,0.5,0,1,0.5,1,0.5,0","3","",""
"","html-keyboard-response","85","75958","0.0-85.0","3FE7TXL1LJ96YUPOU02BNM98DWCQ2S","A8KX1HFH8NE2Q","382GHPVPHSDM8N0F9141EAH7F0K34Z","","null","<img src=""img/food5.png"" style=""width:200px; border:14px solid green;"">","null","","","","","","","","","",""
"","image-keyboard-response","86","76516","0.0-86.0","3FE7TXL1LJ96YUPOU02BNM98DWCQ2S","A8KX1HFH8NE2Q","382GHPVPHSDM8N0F9141EAH7F0K34Z","","555.8000000119209","img/food1.png","75","557.3000000119209","2","1","2","1","1,0.5,0,1,0.5,0,0.5,0,1","0,1,0.5,0,1,0.5,1,0.5,0","3","",""
"","html-keyboard-response","87","76820","0.0-87.0","3FE7TXL1LJ96YUPOU02BNM98DWCQ2S","A8KX1HFH8NE2Q","382GHPVPHSDM8N0F9141EAH7F0K34Z","","null","<img src=""img/food1.png"" style=""width:200px; border:14px solid green;"">","null","","","","","","","","","",""
"","image-keyboard-response","88","77171","0.0-88.0","3FE7TXL1LJ96YUPOU02BNM98DWCQ2S","A8KX1HFH8NE2Q","382GHPVPHSDM8N0F9141EAH7F0K34Z","","348.10000002384186","img/food1.png","75","349.89999997615814","2","1","2","1","1,0.5,0,1,0.5,0,0.5,0,1","0,1,0.5,0,1,0.5,1,0.5,0","3","",""
"","html-keyboard-response","89","77474","0.0-89.0","3FE7TXL1LJ96YUPOU02BNM98DWCQ2S","A8KX1HFH8NE2Q","382GHPVPHSDM8N0F9141EAH7F0K34Z","","null","<img src=""img/food1.png"" style=""width:200px; border:14px solid green;"">","null","","","","","","","","","",""
"","image-keyboard-response","90","78115","0.0-90.0","3FE7TXL1LJ96YUPOU02BNM98DWCQ2S","A8KX1HFH8NE2Q","382GHPVPHSDM8N0F9141EAH7F0K34Z","","639.8000000119209","img/food5.png","74","641.3000000119209","1","1","3","1","1,0.5,0,1,0.5,0,0.5,0,1","0,1,0.5,0,1,0.5,1,0.5,0","3","",""
"","html-keyboard-response","91","78418","0.0-91.0","3FE7TXL1LJ96YUPOU02BNM98DWCQ2S","A8KX1HFH8NE2Q","382GHPVPHSDM8N0F9141EAH7F0K34Z","","null","<img src=""img/food5.png"" style=""width:200px; border:14px solid green;"">","null","","","","","","","","","",""
"","image-keyboard-response","92","78927","0.0-92.0","3FE7TXL1LJ96YUPOU02BNM98DWCQ2S","A8KX1HFH8NE2Q","382GHPVPHSDM8N0F9141EAH7F0K34Z","","508.39999997615814","img/food6.png","75","509.4000000357628","2","1","1","1","1,0.5,0,1,0.5,0,0.5,0,1","0,1,0.5,0,1,0.5,1,0.5,0","3","",""
"","html-keyboard-response","93","79230","0.0-93.0","3FE7TXL1LJ96YUPOU02BNM98DWCQ2S","A8KX1HFH8NE2Q","382GHPVPHSDM8N0F9141EAH7F0K34Z","","null","<img src=""img/food6.png"" style=""width:200px; border:14px solid green;"">","null","","","","","","","","","",""
"","image-keyboard-response","94","79929","0.0-94.0","3FE7TXL1LJ96YUPOU02BNM98DWCQ2S","A8KX1HFH8NE2Q","382GHPVPHSDM8N0F9141EAH7F0K34Z","","698.3000000119209","img/food1.png","75","699.6000000238419","2","1","2","1","1,0.5,0,1,0.5,0,0.5,0,1","0,1,0.5,0,1,0.5,1,0.5,0","3","",""
"","html-keyboard-response","95","80232","0.0-95.0","3FE7TXL1LJ96YUPOU02BNM98DWCQ2S","A8KX1HFH8NE2Q","382GHPVPHSDM8N0F9141EAH7F0K34Z","","null","<img src=""img/food1.png"" style=""width:200px; border:14px solid green;"">","null","","","","","","","","","",""
"","image-keyboard-response","96","80746","0.0-96.0","3FE7TXL1LJ96YUPOU02BNM98DWCQ2S","A8KX1HFH8NE2Q","382GHPVPHSDM8N0F9141EAH7F0K34Z","","512.5","img/food1.png","75","513.8000000119209","2","1","2","1","1,0.5,0,1,0.5,0,0.5,0,1","0,1,0.5,0,1,0.5,1,0.5,0","3","",""
"","html-keyboard-response","97","81048","0.0-97.0","3FE7TXL1LJ96YUPOU02BNM98DWCQ2S","A8KX1HFH8NE2Q","382GHPVPHSDM8N0F9141EAH7F0K34Z","","null","<img src=""img/food1.png"" style=""width:200px; border:14px solid green;"">","null","","","","","","","","","",""
"","image-keyboard-response","98","81771","0.0-98.0","3FE7TXL1LJ96YUPOU02BNM98DWCQ2S","A8KX1HFH8NE2Q","382GHPVPHSDM8N0F9141EAH7F0K34Z","","720.5","img/food5.png","74","722.1999999880791","1","1","3","1","1,0.5,0,1,0.5,0,0.5,0,1","0,1,0.5,0,1,0.5,1,0.5,0","3","",""
"","html-keyboard-response","99","82074","0.0-99.0","3FE7TXL1LJ96YUPOU02BNM98DWCQ2S","A8KX1HFH8NE2Q","382GHPVPHSDM8N0F9141EAH7F0K34Z","","null","<img src=""img/food5.png"" style=""width:200px; border:14px solid green;"">","null","","","","","","","","","",""
"","image-keyboard-response","100","82775","0.0-100.0","3FE7TXL1LJ96YUPOU02BNM98DWCQ2S","A8KX1HFH8NE2Q","382GHPVPHSDM8N0F9141EAH7F0K34Z","","699.1999999880791","img/food6.png","75","701","2","1","1","1","1,0.5,0,1,0.5,0,0.5,0,1","0,1,0.5,0,1,0.5,1,0.5,0","3","",""
"","html-keyboard-response","101","83089","0.0-101.0","3FE7TXL1LJ96YUPOU02BNM98DWCQ2S","A8KX1HFH8NE2Q","382GHPVPHSDM8N0F9141EAH7F0K34Z","","null","<img src=""img/food6.png"" style=""width:200px; border:14px solid green;"">","null","","","","","","","","","",""
"","image-keyboard-response","102","83700","0.0-102.0","3FE7TXL1LJ96YUPOU02BNM98DWCQ2S","A8KX1HFH8NE2Q","382GHPVPHSDM8N0F9141EAH7F0K34Z","","609.2999999523163","img/food5.png","74","613.3999999761581","1","1","3","1","1,0.5,0,1,0.5,0,0.5,0,1","0,1,0.5,0,1,0.5,1,0.5,0","3","",""
"","html-keyboard-response","103","84007","0.0-103.0","3FE7TXL1LJ96YUPOU02BNM98DWCQ2S","A8KX1HFH8NE2Q","382GHPVPHSDM8N0F9141EAH7F0K34Z","","null","<img src=""img/food5.png"" style=""width:200px; border:14px solid green;"">","null","","","","","","","","","",""
"","image-keyboard-response","104","84533","0.0-104.0","3FE7TXL1LJ96YUPOU02BNM98DWCQ2S","A8KX1HFH8NE2Q","382GHPVPHSDM8N0F9141EAH7F0K34Z","","523.2999999523163","img/food1.png","75","525.7000000476837","2","1","2","1","1,0.5,0,1,0.5,0,0.5,0,1","0,1,0.5,0,1,0.5,1,0.5,0","3","",""
"","html-keyboard-response","105","84835","0.0-105.0","3FE7TXL1LJ96YUPOU02BNM98DWCQ2S","A8KX1HFH8NE2Q","382GHPVPHSDM8N0F9141EAH7F0K34Z","","null","<img src=""img/food1.png"" style=""width:200px; border:14px solid green;"">","null","","","","","","","","","",""
"","image-keyboard-response","106","85323","0.0-106.0","3FE7TXL1LJ96YUPOU02BNM98DWCQ2S","A8KX1HFH8NE2Q","382GHPVPHSDM8N0F9141EAH7F0K34Z","","485.2000000476837","img/food1.png","75","487","2","1","2","1","1,0.5,0,1,0.5,0,0.5,0,1","0,1,0.5,0,1,0.5,1,0.5,0","3","",""
"","html-keyboard-response","107","85626","0.0-107.0","3FE7TXL1LJ96YUPOU02BNM98DWCQ2S","A8KX1HFH8NE2Q","382GHPVPHSDM8N0F9141EAH7F0K34Z","","null","<img src=""img/food1.png"" style=""width:200px; border:14px solid green;"">","null","","","","","","","","","",""
"","image-keyboard-response","108","86236","0.0-108.0","3FE7TXL1LJ96YUPOU02BNM98DWCQ2S","A8KX1HFH8NE2Q","382GHPVPHSDM8N0F9141EAH7F0K34Z","","608.3000000119209","img/food5.png","74","609.6000000238419","1","1","3","1","1,0.5,0,1,0.5,0,0.5,0,1","0,1,0.5,0,1,0.5,1,0.5,0","3","",""
"","html-keyboard-response","109","86539","0.0-109.0","3FE7TXL1LJ96YUPOU02BNM98DWCQ2S","A8KX1HFH8NE2Q","382GHPVPHSDM8N0F9141EAH7F0K34Z","","null","<img src=""img/food5.png"" style=""width:200px; border:14px solid green;"">","null","","","","","","","","","",""
"","image-keyboard-response","110","87263","0.0-110.0","3FE7TXL1LJ96YUPOU02BNM98DWCQ2S","A8KX1HFH8NE2Q","382GHPVPHSDM8N0F9141EAH7F0K34Z","","722.5","img/food1.png","75","723.7000000476837","2","1","2","1","1,0.5,0,1,0.5,0,0.5,0,1","0,1,0.5,0,1,0.5,1,0.5,0","3","",""
"","html-keyboard-response","111","87565","0.0-111.0","3FE7TXL1LJ96YUPOU02BNM98DWCQ2S","A8KX1HFH8NE2Q","382GHPVPHSDM8N0F9141EAH7F0K34Z","","null","<img src=""img/food1.png"" style=""width:200px; border:14px solid green;"">","null","","","","","","","","","",""
"","image-keyboard-response","112","88147","0.0-112.0","3FE7TXL1LJ96YUPOU02BNM98DWCQ2S","A8KX1HFH8NE2Q","382GHPVPHSDM8N0F9141EAH7F0K34Z","","579.8999999761581","img/food5.png","74","581.3999999761581","1","1","3","1","1,0.5,0,1,0.5,0,0.5,0,1","0,1,0.5,0,1,0.5,1,0.5,0","3","",""
"","html-keyboard-response","113","88452","0.0-113.0","3FE7TXL1LJ96YUPOU02BNM98DWCQ2S","A8KX1HFH8NE2Q","382GHPVPHSDM8N0F9141EAH7F0K34Z","","null","<img src=""img/food5.png"" style=""width:200px; border:14px solid green;"">","null","","","","","","","","","",""
"","image-keyboard-response","114","89717","0.0-114.0","3FE7TXL1LJ96YUPOU02BNM98DWCQ2S","A8KX1HFH8NE2Q","382GHPVPHSDM8N0F9141EAH7F0K34Z","","1263.1000000238419","img/food1.png","75","1264.9000000357628","2","1","2","1","1,0.5,0,1,0.5,0,0.5,0,1","0,1,0.5,0,1,0.5,1,0.5,0","3","",""
"","html-keyboard-response","115","90019","0.0-115.0","3FE7TXL1LJ96YUPOU02BNM98DWCQ2S","A8KX1HFH8NE2Q","382GHPVPHSDM8N0F9141EAH7F0K34Z","","null","<img src=""img/food1.png"" style=""width:200px; border:14px solid green;"">","null","","","","","","","","","",""
"","image-keyboard-response","116","90514","0.0-116.0","3FE7TXL1LJ96YUPOU02BNM98DWCQ2S","A8KX1HFH8NE2Q","382GHPVPHSDM8N0F9141EAH7F0K34Z","","492.9000000357628","img/food6.png","75","494.60000002384186","2","1","1","1","1,0.5,0,1,0.5,0,0.5,0,1","0,1,0.5,0,1,0.5,1,0.5,0","3","",""
"","html-keyboard-response","117","90817","0.0-117.0","3FE7TXL1LJ96YUPOU02BNM98DWCQ2S","A8KX1HFH8NE2Q","382GHPVPHSDM8N0F9141EAH7F0K34Z","","null","<img src=""img/food6.png"" style=""width:200px; border:14px solid green;"">","null","","","","","","","","","",""
"","image-keyboard-response","118","91282","0.0-118.0","3FE7TXL1LJ96YUPOU02BNM98DWCQ2S","A8KX1HFH8NE2Q","382GHPVPHSDM8N0F9141EAH7F0K34Z","","463.10000002384186","img/food6.png","75","464.10000002384186","2","1","1","1","1,0.5,0,1,0.5,0,0.5,0,1","0,1,0.5,0,1,0.5,1,0.5,0","3","",""
"","html-keyboard-response","119","91584","0.0-119.0","3FE7TXL1LJ96YUPOU02BNM98DWCQ2S","A8KX1HFH8NE2Q","382GHPVPHSDM8N0F9141EAH7F0K34Z","","null","<img src=""img/food6.png"" style=""width:200px; border:14px solid green;"">","null","","","","","","","","","",""
"","image-keyboard-response","120","92169","0.0-120.0","3FE7TXL1LJ96YUPOU02BNM98DWCQ2S","A8KX1HFH8NE2Q","382GHPVPHSDM8N0F9141EAH7F0K34Z","","582.6000000238419","img/food5.png","74","584.3000000119209","1","1","3","1","1,0.5,0,1,0.5,0,0.5,0,1","0,1,0.5,0,1,0.5,1,0.5,0","3","",""
"","html-keyboard-response","121","92477","0.0-121.0","3FE7TXL1LJ96YUPOU02BNM98DWCQ2S","A8KX1HFH8NE2Q","382GHPVPHSDM8N0F9141EAH7F0K34Z","","null","<img src=""img/food5.png"" style=""width:200px; border:14px solid green;"">","null","","","","","","","","","",""
"","image-keyboard-response","122","93244","0.0-122.0","3FE7TXL1LJ96YUPOU02BNM98DWCQ2S","A8KX1HFH8NE2Q","382GHPVPHSDM8N0F9141EAH7F0K34Z","","765.1999999880791","img/food1.png","75","766.5999999642372","2","1","2","1","1,0.5,0,1,0.5,0,0.5,0,1","0,1,0.5,0,1,0.5,1,0.5,0","3","",""
"","html-keyboard-response","123","93546","0.0-123.0","3FE7TXL1LJ96YUPOU02BNM98DWCQ2S","A8KX1HFH8NE2Q","382GHPVPHSDM8N0F9141EAH7F0K34Z","","null","<img src=""img/food1.png"" style=""width:200px; border:14px solid green;"">","null","","","","","","","","","",""
"","image-keyboard-response","124","94166","0.0-124.0","3FE7TXL1LJ96YUPOU02BNM98DWCQ2S","A8KX1HFH8NE2Q","382GHPVPHSDM8N0F9141EAH7F0K34Z","","617.3999999761581","img/food5.png","74","619.1999999880791","1","1","3","1","1,0.5,0,1,0.5,0,0.5,0,1","0,1,0.5,0,1,0.5,1,0.5,0","3","",""
"","html-keyboard-response","125","94470","0.0-125.0","3FE7TXL1LJ96YUPOU02BNM98DWCQ2S","A8KX1HFH8NE2Q","382GHPVPHSDM8N0F9141EAH7F0K34Z","","null","<img src=""img/food5.png"" style=""width:200px; border:14px solid green;"">","null","","","","","","","","","",""
"","image-keyboard-response","126","95011","0.0-126.0","3FE7TXL1LJ96YUPOU02BNM98DWCQ2S","A8KX1HFH8NE2Q","382GHPVPHSDM8N0F9141EAH7F0K34Z","","540.1000000238419","img/food6.png","75","541.3000000119209","2","1","1","1","1,0.5,0,1,0.5,0,0.5,0,1","0,1,0.5,0,1,0.5,1,0.5,0","3","",""
"","html-keyboard-response","127","95314","0.0-127.0","3FE7TXL1LJ96YUPOU02BNM98DWCQ2S","A8KX1HFH8NE2Q","382GHPVPHSDM8N0F9141EAH7F0K34Z","","null","<img src=""img/food6.png"" style=""width:200px; border:14px solid green;"">","null","","","","","","","","","",""
"","image-keyboard-response","128","95908","0.0-128.0","3FE7TXL1LJ96YUPOU02BNM98DWCQ2S","A8KX1HFH8NE2Q","382GHPVPHSDM8N0F9141EAH7F0K34Z","","592.2999999523163","img/food5.png","74","593.6999999880791","1","1","3","1","1,0.5,0,1,0.5,0,0.5,0,1","0,1,0.5,0,1,0.5,1,0.5,0","3","",""
"","html-keyboard-response","129","96211","0.0-129.0","3FE7TXL1LJ96YUPOU02BNM98DWCQ2S","A8KX1HFH8NE2Q","382GHPVPHSDM8N0F9141EAH7F0K34Z","","null","<img src=""img/food5.png"" style=""width:200px; border:14px solid green;"">","null","","","","","","","","","",""
"","image-keyboard-response","130","96770","0.0-130.0","3FE7TXL1LJ96YUPOU02BNM98DWCQ2S","A8KX1HFH8NE2Q","382GHPVPHSDM8N0F9141EAH7F0K34Z","","557.6000000238419","img/food1.png","75","558.8000000119209","2","1","2","1","1,0.5,0,1,0.5,0,0.5,0,1","0,1,0.5,0,1,0.5,1,0.5,0","3","",""
"","html-keyboard-response","131","97073","0.0-131.0","3FE7TXL1LJ96YUPOU02BNM98DWCQ2S","A8KX1HFH8NE2Q","382GHPVPHSDM8N0F9141EAH7F0K34Z","","null","<img src=""img/food1.png"" style=""width:200px; border:14px solid green;"">","null","","","","","","","","","",""
"","image-keyboard-response","132","97639","0.0-132.0","3FE7TXL1LJ96YUPOU02BNM98DWCQ2S","A8KX1HFH8NE2Q","382GHPVPHSDM8N0F9141EAH7F0K34Z","","564.1999999880791","img/food5.png","74","565.3000000119209","1","1","3","1","1,0.5,0,1,0.5,0,0.5,0,1","0,1,0.5,0,1,0.5,1,0.5,0","3","",""
"","html-keyboard-response","133","97942","0.0-133.0","3FE7TXL1LJ96YUPOU02BNM98DWCQ2S","A8KX1HFH8NE2Q","382GHPVPHSDM8N0F9141EAH7F0K34Z","","null","<img src=""img/food5.png"" style=""width:200px; border:14px solid green;"">","null","","","","","","","","","",""
"","image-keyboard-response","134","98417","0.0-134.0","3FE7TXL1LJ96YUPOU02BNM98DWCQ2S","A8KX1HFH8NE2Q","382GHPVPHSDM8N0F9141EAH7F0K34Z","","472.9000000357628","img/food6.png","75","474.69999998807907","2","1","1","1","1,0.5,0,1,0.5,0,0.5,0,1","0,1,0.5,0,1,0.5,1,0.5,0","3","",""
"","html-keyboard-response","135","98720","0.0-135.0","3FE7TXL1LJ96YUPOU02BNM98DWCQ2S","A8KX1HFH8NE2Q","382GHPVPHSDM8N0F9141EAH7F0K34Z","","null","<img src=""img/food6.png"" style=""width:200px; border:14px solid green;"">","null","","","","","","","","","",""
"","image-keyboard-response","136","99258","0.0-136.0","3FE7TXL1LJ96YUPOU02BNM98DWCQ2S","A8KX1HFH8NE2Q","382GHPVPHSDM8N0F9141EAH7F0K34Z","","536.5","img/food1.png","75","537.8000000119209","2","1","2","1","1,0.5,0,1,0.5,0,0.5,0,1","0,1,0.5,0,1,0.5,1,0.5,0","3","",""
"","html-keyboard-response","137","99561","0.0-137.0","3FE7TXL1LJ96YUPOU02BNM98DWCQ2S","A8KX1HFH8NE2Q","382GHPVPHSDM8N0F9141EAH7F0K34Z","","null","<img src=""img/food1.png"" style=""width:200px; border:14px solid green;"">","null","","","","","","","","","",""
"","image-keyboard-response","138","100213","0.0-138.0","3FE7TXL1LJ96YUPOU02BNM98DWCQ2S","A8KX1HFH8NE2Q","382GHPVPHSDM8N0F9141EAH7F0K34Z","","649.9000000357628","img/food5.png","74","651.5","1","1","3","1","1,0.5,0,1,0.5,0,0.5,0,1","0,1,0.5,0,1,0.5,1,0.5,0","3","",""
"","html-keyboard-response","139","100516","0.0-139.0","3FE7TXL1LJ96YUPOU02BNM98DWCQ2S","A8KX1HFH8NE2Q","382GHPVPHSDM8N0F9141EAH7F0K34Z","","null","<img src=""img/food5.png"" style=""width:200px; border:14px solid green;"">","null","","","","","","","","","",""
"","image-keyboard-response","140","100981","0.0-140.0","3FE7TXL1LJ96YUPOU02BNM98DWCQ2S","A8KX1HFH8NE2Q","382GHPVPHSDM8N0F9141EAH7F0K34Z","","463.7999999523163","img/food6.png","75","464.80000001192093","2","1","1","1","1,0.5,0,1,0.5,0,0.5,0,1","0,1,0.5,0,1,0.5,1,0.5,0","3","",""
"","html-keyboard-response","141","101296","0.0-141.0","3FE7TXL1LJ96YUPOU02BNM98DWCQ2S","A8KX1HFH8NE2Q","382GHPVPHSDM8N0F9141EAH7F0K34Z","","null","<img src=""img/food6.png"" style=""width:200px; border:14px solid green;"">","null","","","","","","","","","",""
"","image-keyboard-response","142","101807","0.0-142.0","3FE7TXL1LJ96YUPOU02BNM98DWCQ2S","A8KX1HFH8NE2Q","382GHPVPHSDM8N0F9141EAH7F0K34Z","","509","img/food1.png","75","510.19999998807907","2","1","2","1","1,0.5,0,1,0.5,0,0.5,0,1","0,1,0.5,0,1,0.5,1,0.5,0","3","",""
"","html-keyboard-response","143","102110","0.0-143.0","3FE7TXL1LJ96YUPOU02BNM98DWCQ2S","A8KX1HFH8NE2Q","382GHPVPHSDM8N0F9141EAH7F0K34Z","","null","<img src=""img/food1.png"" style=""width:200px; border:14px solid green;"">","null","","","","","","","","","",""
"","image-keyboard-response","144","102542","0.0-144.0","3FE7TXL1LJ96YUPOU02BNM98DWCQ2S","A8KX1HFH8NE2Q","382GHPVPHSDM8N0F9141EAH7F0K34Z","","429.89999997615814","img/food5.png","74","431.39999997615814","1","1","3","1","1,0.5,0,1,0.5,0,0.5,0,1","0,1,0.5,0,1,0.5,1,0.5,0","3","",""
"","html-keyboard-response","145","102845","0.0-145.0","3FE7TXL1LJ96YUPOU02BNM98DWCQ2S","A8KX1HFH8NE2Q","382GHPVPHSDM8N0F9141EAH7F0K34Z","","null","<img src=""img/food5.png"" style=""width:200px; border:14px solid green;"">","null","","","","","","","","","",""
"","image-keyboard-response","146","103357","0.0-146.0","3FE7TXL1LJ96YUPOU02BNM98DWCQ2S","A8KX1HFH8NE2Q","382GHPVPHSDM8N0F9141EAH7F0K34Z","","510.80000001192093","img/food6.png","75","512","2","1","1","1","1,0.5,0,1,0.5,0,0.5,0,1","0,1,0.5,0,1,0.5,1,0.5,0","3","",""
"","html-keyboard-response","147","103659","0.0-147.0","3FE7TXL1LJ96YUPOU02BNM98DWCQ2S","A8KX1HFH8NE2Q","382GHPVPHSDM8N0F9141EAH7F0K34Z","","null","<img src=""img/food6.png"" style=""width:200px; border:14px solid green;"">","null","","","","","","","","","",""
"","image-keyboard-response","148","104073","0.0-148.0","3FE7TXL1LJ96YUPOU02BNM98DWCQ2S","A8KX1HFH8NE2Q","382GHPVPHSDM8N0F9141EAH7F0K34Z","","411.80000001192093","img/food6.png","75","413.39999997615814","2","1","1","1","1,0.5,0,1,0.5,0,0.5,0,1","0,1,0.5,0,1,0.5,1,0.5,0","3","",""
"","html-keyboard-response","149","104376","0.0-149.0","3FE7TXL1LJ96YUPOU02BNM98DWCQ2S","A8KX1HFH8NE2Q","382GHPVPHSDM8N0F9141EAH7F0K34Z","","null","<img src=""img/food6.png"" style=""width:200px; border:14px solid green;"">","null","","","","","","","","","",""
"","image-keyboard-response","150","104766","0.0-150.0","3FE7TXL1LJ96YUPOU02BNM98DWCQ2S","A8KX1HFH8NE2Q","382GHPVPHSDM8N0F9141EAH7F0K34Z","","388.5","img/food6.png","75","390","2","1","1","1","1,0.5,0,1,0.5,0,0.5,0,1","0,1,0.5,0,1,0.5,1,0.5,0","3","",""
"","html-keyboard-response","151","105070","0.0-151.0","3FE7TXL1LJ96YUPOU02BNM98DWCQ2S","A8KX1HFH8NE2Q","382GHPVPHSDM8N0F9141EAH7F0K34Z","","null","<img src=""img/food6.png"" style=""width:200px; border:14px solid green;"">","null","","","","","","","","","",""
"","image-keyboard-response","152","105575","0.0-152.0","3FE7TXL1LJ96YUPOU02BNM98DWCQ2S","A8KX1HFH8NE2Q","382GHPVPHSDM8N0F9141EAH7F0K34Z","","503.80000001192093","img/food5.png","74","505.19999998807907","1","1","3","1","1,0.5,0,1,0.5,0,0.5,0,1","0,1,0.5,0,1,0.5,1,0.5,0","3","",""
"","html-keyboard-response","153","105893","0.0-153.0","3FE7TXL1LJ96YUPOU02BNM98DWCQ2S","A8KX1HFH8NE2Q","382GHPVPHSDM8N0F9141EAH7F0K34Z","","null","<img src=""img/food5.png"" style=""width:200px; border:14px solid green;"">","null","","","","","","","","","",""
"","image-keyboard-response","154","106915","0.0-154.0","3FE7TXL1LJ96YUPOU02BNM98DWCQ2S","A8KX1HFH8NE2Q","382GHPVPHSDM8N0F9141EAH7F0K34Z","","1020.1999999880791","img/food6.png","75","1021.8999999761581","2","1","1","1","1,0.5,0,1,0.5,0,0.5,0,1","0,1,0.5,0,1,0.5,1,0.5,0","3","",""
"","html-keyboard-response","155","107218","0.0-155.0","3FE7TXL1LJ96YUPOU02BNM98DWCQ2S","A8KX1HFH8NE2Q","382GHPVPHSDM8N0F9141EAH7F0K34Z","","null","<img src=""img/food6.png"" style=""width:200px; border:14px solid green;"">","null","","","","","","","","","",""
"","image-keyboard-response","156","107763","0.0-156.0","3FE7TXL1LJ96YUPOU02BNM98DWCQ2S","A8KX1HFH8NE2Q","382GHPVPHSDM8N0F9141EAH7F0K34Z","","543.1999999880791","img/food6.png","75","544.3000000119209","2","1","1","1","1,0.5,0,1,0.5,0,0.5,0,1","0,1,0.5,0,1,0.5,1,0.5,0","3","",""
"","html-keyboard-response","157","108066","0.0-157.0","3FE7TXL1LJ96YUPOU02BNM98DWCQ2S","A8KX1HFH8NE2Q","382GHPVPHSDM8N0F9141EAH7F0K34Z","","null","<img src=""img/food6.png"" style=""width:200px; border:14px solid green;"">","null","","","","","","","","","",""
"","image-keyboard-response","158","108420","0.0-158.0","3FE7TXL1LJ96YUPOU02BNM98DWCQ2S","A8KX1HFH8NE2Q","382GHPVPHSDM8N0F9141EAH7F0K34Z","","351.89999997615814","img/food6.png","75","353.39999997615814","2","1","1","1","1,0.5,0,1,0.5,0,0.5,0,1","0,1,0.5,0,1,0.5,1,0.5,0","3","",""
"","html-keyboard-response","159","108722","0.0-159.0","3FE7TXL1LJ96YUPOU02BNM98DWCQ2S","A8KX1HFH8NE2Q","382GHPVPHSDM8N0F9141EAH7F0K34Z","","null","<img src=""img/food6.png"" style=""width:200px; border:14px solid green;"">","null","","","","","","","","","",""
"","image-keyboard-response","160","109246","0.0-160.0","3FE7TXL1LJ96YUPOU02BNM98DWCQ2S","A8KX1HFH8NE2Q","382GHPVPHSDM8N0F9141EAH7F0K34Z","","522.7000000476837","img/food1.png","74","523.6000000238419","1","0","2","1","1,0.5,0,1,0.5,0,0.5,0,1","0,1,0.5,0,1,0.5,1,0.5,0","3","",""
"","html-keyboard-response","161","109549","0.0-161.0","3FE7TXL1LJ96YUPOU02BNM98DWCQ2S","A8KX1HFH8NE2Q","382GHPVPHSDM8N0F9141EAH7F0K34Z","","null","<img src=""img/food1.png"" style=""width:200px;border:14px solid red;"">","null","","","","","","","","","",""
"","image-keyboard-response","162","110371","0.0-162.0","3FE7TXL1LJ96YUPOU02BNM98DWCQ2S","A8KX1HFH8NE2Q","382GHPVPHSDM8N0F9141EAH7F0K34Z","","818.7000000476837","img/food5.png","74","820.8999999761581","1","1","3","1","1,0.5,0,1,0.5,0,0.5,0,1","0,1,0.5,0,1,0.5,1,0.5,0","3","",""
"","html-keyboard-response","163","110673","0.0-163.0","3FE7TXL1LJ96YUPOU02BNM98DWCQ2S","A8KX1HFH8NE2Q","382GHPVPHSDM8N0F9141EAH7F0K34Z","","null","<img src=""img/food5.png"" style=""width:200px; border:14px solid green;"">","null","","","","","","","","","",""
"","image-keyboard-response","164","111225","0.0-164.0","3FE7TXL1LJ96YUPOU02BNM98DWCQ2S","A8KX1HFH8NE2Q","382GHPVPHSDM8N0F9141EAH7F0K34Z","","550.8000000119209","img/food5.png","74","552.1000000238419","1","1","3","1","1,0.5,0,1,0.5,0,0.5,0,1","0,1,0.5,0,1,0.5,1,0.5,0","3","",""
"","html-keyboard-response","165","111527","0.0-165.0","3FE7TXL1LJ96YUPOU02BNM98DWCQ2S","A8KX1HFH8NE2Q","382GHPVPHSDM8N0F9141EAH7F0K34Z","","null","<img src=""img/food5.png"" style=""width:200px; border:14px solid green;"">","null","","","","","","","","","",""
"","image-keyboard-response","166","112061","0.0-166.0","3FE7TXL1LJ96YUPOU02BNM98DWCQ2S","A8KX1HFH8NE2Q","382GHPVPHSDM8N0F9141EAH7F0K34Z","","532.3999999761581","img/food6.png","75","533.8000000119209","2","1","1","1","1,0.5,0,1,0.5,0,0.5,0,1","0,1,0.5,0,1,0.5,1,0.5,0","3","",""
"","html-keyboard-response","167","112367","0.0-167.0","3FE7TXL1LJ96YUPOU02BNM98DWCQ2S","A8KX1HFH8NE2Q","382GHPVPHSDM8N0F9141EAH7F0K34Z","","null","<img src=""img/food6.png"" style=""width:200px; border:14px solid green;"">","null","","","","","","","","","",""
"","image-keyboard-response","168","112845","0.0-168.0","3FE7TXL1LJ96YUPOU02BNM98DWCQ2S","A8KX1HFH8NE2Q","382GHPVPHSDM8N0F9141EAH7F0K34Z","","475.19999998807907","img/food6.png","75","476.30000001192093","2","1","1","1","1,0.5,0,1,0.5,0,0.5,0,1","0,1,0.5,0,1,0.5,1,0.5,0","3","",""
"","html-keyboard-response","169","113152","0.0-169.0","3FE7TXL1LJ96YUPOU02BNM98DWCQ2S","A8KX1HFH8NE2Q","382GHPVPHSDM8N0F9141EAH7F0K34Z","","null","<img src=""img/food6.png"" style=""width:200px; border:14px solid green;"">","null","","","","","","","","","",""
"","image-keyboard-response","170","113621","0.0-170.0","3FE7TXL1LJ96YUPOU02BNM98DWCQ2S","A8KX1HFH8NE2Q","382GHPVPHSDM8N0F9141EAH7F0K34Z","","460.5","img/food1.png","75","466.30000001192093","2","1","2","1","1,0.5,0,1,0.5,0,0.5,0,1","0,1,0.5,0,1,0.5,1,0.5,0","3","",""
"","html-keyboard-response","171","113923","0.0-171.0","3FE7TXL1LJ96YUPOU02BNM98DWCQ2S","A8KX1HFH8NE2Q","382GHPVPHSDM8N0F9141EAH7F0K34Z","","null","<img src=""img/food1.png"" style=""width:200px; border:14px solid green;"">","null","","","","","","","","","",""
"","image-keyboard-response","172","114516","0.0-172.0","3FE7TXL1LJ96YUPOU02BNM98DWCQ2S","A8KX1HFH8NE2Q","382GHPVPHSDM8N0F9141EAH7F0K34Z","","590.7999999523163","img/food5.png","74","592.4000000357628","1","1","3","1","1,0.5,0,1,0.5,0,0.5,0,1","0,1,0.5,0,1,0.5,1,0.5,0","3","",""
"","html-keyboard-response","173","114833","0.0-173.0","3FE7TXL1LJ96YUPOU02BNM98DWCQ2S","A8KX1HFH8NE2Q","382GHPVPHSDM8N0F9141EAH7F0K34Z","","null","<img src=""img/food5.png"" style=""width:200px; border:14px solid green;"">","null","","","","","","","","","",""
"","image-keyboard-response","174","115461","0.0-174.0","3FE7TXL1LJ96YUPOU02BNM98DWCQ2S","A8KX1HFH8NE2Q","382GHPVPHSDM8N0F9141EAH7F0K34Z","","626.6999999880791","img/food1.png","75","628.2999999523163","2","1","2","1","1,0.5,0,1,0.5,0,0.5,0,1","0,1,0.5,0,1,0.5,1,0.5,0","3","",""
"","html-keyboard-response","175","115765","0.0-175.0","3FE7TXL1LJ96YUPOU02BNM98DWCQ2S","A8KX1HFH8NE2Q","382GHPVPHSDM8N0F9141EAH7F0K34Z","","null","<img src=""img/food1.png"" style=""width:200px; border:14px solid green;"">","null","","","","","","","","","",""
"","image-keyboard-response","176","116195","0.0-176.0","3FE7TXL1LJ96YUPOU02BNM98DWCQ2S","A8KX1HFH8NE2Q","382GHPVPHSDM8N0F9141EAH7F0K34Z","","428.60000002384186","img/food5.png","75","430.30000001192093","2","0","3","1","1,0.5,0,1,0.5,0,0.5,0,1","0,1,0.5,0,1,0.5,1,0.5,0","3","",""
"","html-keyboard-response","177","116505","0.0-177.0","3FE7TXL1LJ96YUPOU02BNM98DWCQ2S","A8KX1HFH8NE2Q","382GHPVPHSDM8N0F9141EAH7F0K34Z","","null","<img src=""img/food5.png"" style=""width:200px;border:14px solid red;"">","null","","","","","","","","","",""
"","image-keyboard-response","178","117702","0.0-178.0","3FE7TXL1LJ96YUPOU02BNM98DWCQ2S","A8KX1HFH8NE2Q","382GHPVPHSDM8N0F9141EAH7F0K34Z","","1195.6000000238419","img/food6.png","75","1196.800000011921","2","1","1","1","1,0.5,0,1,0.5,0,0.5,0,1","0,1,0.5,0,1,0.5,1,0.5,0","3","",""
"","html-keyboard-response","179","118004","0.0-179.0","3FE7TXL1LJ96YUPOU02BNM98DWCQ2S","A8KX1HFH8NE2Q","382GHPVPHSDM8N0F9141EAH7F0K34Z","","null","<img src=""img/food6.png"" style=""width:200px; border:14px solid green;"">","null","","","","","","","","","",""
"","image-keyboard-response","180","118436","0.0-180.0","3FE7TXL1LJ96YUPOU02BNM98DWCQ2S","A8KX1HFH8NE2Q","382GHPVPHSDM8N0F9141EAH7F0K34Z","","429.10000002384186","img/food1.png","74","430.69999998807907","1","0","2","1","1,0.5,0,1,0.5,0,0.5,0,1","0,1,0.5,0,1,0.5,1,0.5,0","3","",""
"","html-keyboard-response","181","118738","0.0-181.0","3FE7TXL1LJ96YUPOU02BNM98DWCQ2S","A8KX1HFH8NE2Q","382GHPVPHSDM8N0F9141EAH7F0K34Z","","null","<img src=""img/food1.png"" style=""width:200px;border:14px solid red;"">","null","","","","","","","","","",""
"","html-keyboard-response","182","122360","0.0-182.0","3FE7TXL1LJ96YUPOU02BNM98DWCQ2S","A8KX1HFH8NE2Q","382GHPVPHSDM8N0F9141EAH7F0K34Z","","","","","","","","","","","","","",""
"","instructions","183","134071","0.0-183.0","3FE7TXL1LJ96YUPOU02BNM98DWCQ2S","A8KX1HFH8NE2Q","382GHPVPHSDM8N0F9141EAH7F0K34Z","[{""page_index"":0,""viewing_time"":9199.5},{""page_index"":1,""viewing_time"":2509.800000011921}]","11709.599999964237","","","","","","","","","","","",""
"","image-keyboard-response","184","134807","0.0-184.0","3FE7TXL1LJ96YUPOU02BNM98DWCQ2S","A8KX1HFH8NE2Q","382GHPVPHSDM8N0F9141EAH7F0K34Z","","734.6999999880791","img/food3.png","74","736.4000000357628","1","0","2","2","1,0.5,0,1,0.5,0,0.5,0,1","0.5,0,1,0.5,0,1,0,1,0.5","2","false",""
"","html-keyboard-response","185","135110","0.0-185.0","3FE7TXL1LJ96YUPOU02BNM98DWCQ2S","A8KX1HFH8NE2Q","382GHPVPHSDM8N0F9141EAH7F0K34Z","","null","<img src=""img/food3.png"" style=""width:200px;border:14px solid red;"">","null","","","","","","","","","",""
"","image-keyboard-response","186","135570","0.0-187.0","3FE7TXL1LJ96YUPOU02BNM98DWCQ2S","A8KX1HFH8NE2Q","382GHPVPHSDM8N0F9141EAH7F0K34Z","","456.80000001192093","img/food3.png","76","458.69999998807907","3","1","2","2","1,0.5,0,1,0.5,0,0.5,0,1","0.5,0,1,0.5,0,1,0,1,0.5","2","false",""
"","html-keyboard-response","187","135873","0.0-188.0","3FE7TXL1LJ96YUPOU02BNM98DWCQ2S","A8KX1HFH8NE2Q","382GHPVPHSDM8N0F9141EAH7F0K34Z","","null","<img src=""img/food3.png"" style=""width:200px; border:14px solid green;"">","null","","","","","","","","","",""
"","image-keyboard-response","188","136141","0.0-190.0","3FE7TXL1LJ96YUPOU02BNM98DWCQ2S","A8KX1HFH8NE2Q","382GHPVPHSDM8N0F9141EAH7F0K34Z","","264.80000001192093","img/food4.png","76","266.19999998807907","3","1","1","2","1,0.5,0,1,0.5,0,0.5,0,1","0.5,0,1,0.5,0,1,0,1,0.5","2","false",""
"","html-keyboard-response","189","136442","0.0-191.0","3FE7TXL1LJ96YUPOU02BNM98DWCQ2S","A8KX1HFH8NE2Q","382GHPVPHSDM8N0F9141EAH7F0K34Z","","null","<img src=""img/food4.png"" style=""width:200px; border:14px solid green;"">","null","","","","","","","","","",""
"","image-keyboard-response","190","136800","0.0-193.0","3FE7TXL1LJ96YUPOU02BNM98DWCQ2S","A8KX1HFH8NE2Q","382GHPVPHSDM8N0F9141EAH7F0K34Z","","354.80000001192093","img/food3.png","76","356.89999997615814","3","1","2","2","1,0.5,0,1,0.5,0,0.5,0,1","0.5,0,1,0.5,0,1,0,1,0.5","2","false",""
"","html-keyboard-response","191","137103","0.0-194.0","3FE7TXL1LJ96YUPOU02BNM98DWCQ2S","A8KX1HFH8NE2Q","382GHPVPHSDM8N0F9141EAH7F0K34Z","","null","<img src=""img/food3.png"" style=""width:200px; border:14px solid green;"">","null","","","","","","","","","",""
"","image-keyboard-response","192","137487","0.0-196.0","3FE7TXL1LJ96YUPOU02BNM98DWCQ2S","A8KX1HFH8NE2Q","382GHPVPHSDM8N0F9141EAH7F0K34Z","","381.30000001192093","img/food3.png","76","382.7999999523163","3","1","2","2","1,0.5,0,1,0.5,0,0.5,0,1","0.5,0,1,0.5,0,1,0,1,0.5","2","false",""
"","html-keyboard-response","193","137789","0.0-197.0","3FE7TXL1LJ96YUPOU02BNM98DWCQ2S","A8KX1HFH8NE2Q","382GHPVPHSDM8N0F9141EAH7F0K34Z","","null","<img src=""img/food3.png"" style=""width:200px; border:14px solid green;"">","null","","","","","","","","","",""
"","image-keyboard-response","194","138227","0.0-199.0","3FE7TXL1LJ96YUPOU02BNM98DWCQ2S","A8KX1HFH8NE2Q","382GHPVPHSDM8N0F9141EAH7F0K34Z","","434.89999997615814","img/food4.png","76","436.7999999523163","3","1","1","2","1,0.5,0,1,0.5,0,0.5,0,1","0.5,0,1,0.5,0,1,0,1,0.5","2","false",""
"","html-keyboard-response","195","138530","0.0-200.0","3FE7TXL1LJ96YUPOU02BNM98DWCQ2S","A8KX1HFH8NE2Q","382GHPVPHSDM8N0F9141EAH7F0K34Z","","null","<img src=""img/food4.png"" style=""width:200px; border:14px solid green;"">","null","","","","","","","","","",""
"","image-keyboard-response","196","138942","0.0-202.0","3FE7TXL1LJ96YUPOU02BNM98DWCQ2S","A8KX1HFH8NE2Q","382GHPVPHSDM8N0F9141EAH7F0K34Z","","408","img/food2.png","76","410.2000000476837","3","1","3","2","1,0.5,0,1,0.5,0,0.5,0,1","0.5,0,1,0.5,0,1,0,1,0.5","2","false",""
"","html-keyboard-response","197","139245","0.0-203.0","3FE7TXL1LJ96YUPOU02BNM98DWCQ2S","A8KX1HFH8NE2Q","382GHPVPHSDM8N0F9141EAH7F0K34Z","","null","<img src=""img/food2.png"" style=""width:200px; border:14px solid green;"">","null","","","","","","","","","",""
"","image-keyboard-response","198","139562","0.0-205.0","3FE7TXL1LJ96YUPOU02BNM98DWCQ2S","A8KX1HFH8NE2Q","382GHPVPHSDM8N0F9141EAH7F0K34Z","","316","img/food2.png","76","317","3","1","3","2","1,0.5,0,1,0.5,0,0.5,0,1","0.5,0,1,0.5,0,1,0,1,0.5","2","false",""
"","html-keyboard-response","199","139865","0.0-206.0","3FE7TXL1LJ96YUPOU02BNM98DWCQ2S","A8KX1HFH8NE2Q","382GHPVPHSDM8N0F9141EAH7F0K34Z","","null","<img src=""img/food2.png"" style=""width:200px; border:14px solid green;"">","null","","","","","","","","","",""
"","image-keyboard-response","200","140232","0.0-208.0","3FE7TXL1LJ96YUPOU02BNM98DWCQ2S","A8KX1HFH8NE2Q","382GHPVPHSDM8N0F9141EAH7F0K34Z","","365.10000002384186","img/food4.png","76","366.39999997615814","3","1","1","2","1,0.5,0,1,0.5,0,0.5,0,1","0.5,0,1,0.5,0,1,0,1,0.5","2","false",""
"","html-keyboard-response","201","140533","0.0-209.0","3FE7TXL1LJ96YUPOU02BNM98DWCQ2S","A8KX1HFH8NE2Q","382GHPVPHSDM8N0F9141EAH7F0K34Z","","null","<img src=""img/food4.png"" style=""width:200px; border:14px solid green;"">","null","","","","","","","","","",""
"","image-keyboard-response","202","140796","0.0-211.0","3FE7TXL1LJ96YUPOU02BNM98DWCQ2S","A8KX1HFH8NE2Q","382GHPVPHSDM8N0F9141EAH7F0K34Z","","261.19999998807907","img/food3.png","76","262.5","3","1","2","2","1,0.5,0,1,0.5,0,0.5,0,1","0.5,0,1,0.5,0,1,0,1,0.5","2","false",""
"","html-keyboard-response","203","141099","0.0-212.0","3FE7TXL1LJ96YUPOU02BNM98DWCQ2S","A8KX1HFH8NE2Q","382GHPVPHSDM8N0F9141EAH7F0K34Z","","null","<img src=""img/food3.png"" style=""width:200px; border:14px solid green;"">","null","","","","","","","","","",""
"","image-keyboard-response","204","141354","0.0-214.0","3FE7TXL1LJ96YUPOU02BNM98DWCQ2S","A8KX1HFH8NE2Q","382GHPVPHSDM8N0F9141EAH7F0K34Z","","252.19999998807907","img/food2.png","76","254","3","0","3","2","1,0.5,0,1,0.5,0,0.5,0,1","0.5,0,1,0.5,0,1,0,1,0.5","2","false",""
"","html-keyboard-response","205","141658","0.0-215.0","3FE7TXL1LJ96YUPOU02BNM98DWCQ2S","A8KX1HFH8NE2Q","382GHPVPHSDM8N0F9141EAH7F0K34Z","","null","<img src=""img/food2.png"" style=""width:200px;border:14px solid red;"">","null","","","","","","","","","",""
"","image-keyboard-response","206","142056","0.0-217.0","3FE7TXL1LJ96YUPOU02BNM98DWCQ2S","A8KX1HFH8NE2Q","382GHPVPHSDM8N0F9141EAH7F0K34Z","","395.80000001192093","img/food3.png","76","397.7000000476837","3","1","2","2","1,0.5,0,1,0.5,0,0.5,0,1","0.5,0,1,0.5,0,1,0,1,0.5","2","false",""
"","html-keyboard-response","207","142359","0.0-218.0","3FE7TXL1LJ96YUPOU02BNM98DWCQ2S","A8KX1HFH8NE2Q","382GHPVPHSDM8N0F9141EAH7F0K34Z","","null","<img src=""img/food3.png"" style=""width:200px; border:14px solid green;"">","null","","","","","","","","","",""
"","image-keyboard-response","208","142675","0.0-220.0","3FE7TXL1LJ96YUPOU02BNM98DWCQ2S","A8KX1HFH8NE2Q","382GHPVPHSDM8N0F9141EAH7F0K34Z","","314.80000001192093","img/food3.png","76","315.9000000357628","3","1","2","2","1,0.5,0,1,0.5,0,0.5,0,1","0.5,0,1,0.5,0,1,0,1,0.5","2","false",""
"","html-keyboard-response","209","142977","0.0-221.0","3FE7TXL1LJ96YUPOU02BNM98DWCQ2S","A8KX1HFH8NE2Q","382GHPVPHSDM8N0F9141EAH7F0K34Z","","null","<img src=""img/food3.png"" style=""width:200px; border:14px solid green;"">","null","","","","","","","","","",""
"","image-keyboard-response","210","143289","0.0-223.0","3FE7TXL1LJ96YUPOU02BNM98DWCQ2S","A8KX1HFH8NE2Q","382GHPVPHSDM8N0F9141EAH7F0K34Z","","310.10000002384186","img/food3.png","76","311.60000002384186","3","1","2","2","1,0.5,0,1,0.5,0,0.5,0,1","0.5,0,1,0.5,0,1,0,1,0.5","2","false",""
"","html-keyboard-response","211","143592","0.0-224.0","3FE7TXL1LJ96YUPOU02BNM98DWCQ2S","A8KX1HFH8NE2Q","382GHPVPHSDM8N0F9141EAH7F0K34Z","","null","<img src=""img/food3.png"" style=""width:200px; border:14px solid green;"">","null","","","","","","","","","",""
"","image-keyboard-response","212","143939","0.0-226.0","3FE7TXL1LJ96YUPOU02BNM98DWCQ2S","A8KX1HFH8NE2Q","382GHPVPHSDM8N0F9141EAH7F0K34Z","","345.5","img/food3.png","76","346.80000001192093","3","1","2","2","1,0.5,0,1,0.5,0,0.5,0,1","0.5,0,1,0.5,0,1,0,1,0.5","2","false",""
"","html-keyboard-response","213","144241","0.0-227.0","3FE7TXL1LJ96YUPOU02BNM98DWCQ2S","A8KX1HFH8NE2Q","382GHPVPHSDM8N0F9141EAH7F0K34Z","","null","<img src=""img/food3.png"" style=""width:200px; border:14px solid green;"">","null","","","","","","","","","",""
"","image-keyboard-response","214","144565","0.0-229.0","3FE7TXL1LJ96YUPOU02BNM98DWCQ2S","A8KX1HFH8NE2Q","382GHPVPHSDM8N0F9141EAH7F0K34Z","","322.30000001192093","img/food2.png","76","323.19999998807907","3","0","3","2","1,0.5,0,1,0.5,0,0.5,0,1","0.5,0,1,0.5,0,1,0,1,0.5","2","false",""
"","html-keyboard-response","215","144869","0.0-230.0","3FE7TXL1LJ96YUPOU02BNM98DWCQ2S","A8KX1HFH8NE2Q","382GHPVPHSDM8N0F9141EAH7F0K34Z","","null","<img src=""img/food2.png"" style=""width:200px;border:14px solid red;"">","null","","","","","","","","","",""
"","image-keyboard-response","216","145238","0.0-232.0","3FE7TXL1LJ96YUPOU02BNM98DWCQ2S","A8KX1HFH8NE2Q","382GHPVPHSDM8N0F9141EAH7F0K34Z","","367.19999998807907","img/food2.png","76","368.4000000357628","3","1","3","2","1,0.5,0,1,0.5,0,0.5,0,1","0.5,0,1,0.5,0,1,0,1,0.5","2","false",""
"","html-keyboard-response","217","145541","0.0-233.0","3FE7TXL1LJ96YUPOU02BNM98DWCQ2S","A8KX1HFH8NE2Q","382GHPVPHSDM8N0F9141EAH7F0K34Z","","null","<img src=""img/food2.png"" style=""width:200px; border:14px solid green;"">","null","","","","","","","","","",""
"","image-keyboard-response","218","145925","0.0-235.0","3FE7TXL1LJ96YUPOU02BNM98DWCQ2S","A8KX1HFH8NE2Q","382GHPVPHSDM8N0F9141EAH7F0K34Z","","381.19999998807907","img/food3.png","76","382.5999999642372","3","1","2","2","1,0.5,0,1,0.5,0,0.5,0,1","0.5,0,1,0.5,0,1,0,1,0.5","2","false",""
"","html-keyboard-response","219","146228","0.0-236.0","3FE7TXL1LJ96YUPOU02BNM98DWCQ2S","A8KX1HFH8NE2Q","382GHPVPHSDM8N0F9141EAH7F0K34Z","","null","<img src=""img/food3.png"" style=""width:200px; border:14px solid green;"">","null","","","","","","","","","",""
"","image-keyboard-response","220","146594","0.0-238.0","3FE7TXL1LJ96YUPOU02BNM98DWCQ2S","A8KX1HFH8NE2Q","382GHPVPHSDM8N0F9141EAH7F0K34Z","","364.0999999642372","img/food4.png","76","365.30000001192093","3","1","1","2","1,0.5,0,1,0.5,0,0.5,0,1","0.5,0,1,0.5,0,1,0,1,0.5","2","false",""
"","html-keyboard-response","221","146896","0.0-239.0","3FE7TXL1LJ96YUPOU02BNM98DWCQ2S","A8KX1HFH8NE2Q","382GHPVPHSDM8N0F9141EAH7F0K34Z","","null","<img src=""img/food4.png"" style=""width:200px; border:14px solid green;"">","null","","","","","","","","","",""
"","image-keyboard-response","222","147224","0.0-241.0","3FE7TXL1LJ96YUPOU02BNM98DWCQ2S","A8KX1HFH8NE2Q","382GHPVPHSDM8N0F9141EAH7F0K34Z","","325.7999999523163","img/food4.png","76","327.10000002384186","3","1","1","2","1,0.5,0,1,0.5,0,0.5,0,1","0.5,0,1,0.5,0,1,0,1,0.5","2","false",""
"","html-keyboard-response","223","147525","0.0-242.0","3FE7TXL1LJ96YUPOU02BNM98DWCQ2S","A8KX1HFH8NE2Q","382GHPVPHSDM8N0F9141EAH7F0K34Z","","null","<img src=""img/food4.png"" style=""width:200px; border:14px solid green;"">","null","","","","","","","","","",""
"","image-keyboard-response","224","147884","0.0-244.0","3FE7TXL1LJ96YUPOU02BNM98DWCQ2S","A8KX1HFH8NE2Q","382GHPVPHSDM8N0F9141EAH7F0K34Z","","356.9000000357628","img/food2.png","76","358.19999998807907","3","0","3","2","1,0.5,0,1,0.5,0,0.5,0,1","0.5,0,1,0.5,0,1,0,1,0.5","2","false",""
"","html-keyboard-response","225","148188","0.0-245.0","3FE7TXL1LJ96YUPOU02BNM98DWCQ2S","A8KX1HFH8NE2Q","382GHPVPHSDM8N0F9141EAH7F0K34Z","","null","<img src=""img/food2.png"" style=""width:200px;border:14px solid red;"">","null","","","","","","","","","",""
"","image-keyboard-response","226","148581","0.0-247.0","3FE7TXL1LJ96YUPOU02BNM98DWCQ2S","A8KX1HFH8NE2Q","382GHPVPHSDM8N0F9141EAH7F0K34Z","","391","img/food2.png","76","392.69999998807907","3","1","3","2","1,0.5,0,1,0.5,0,0.5,0,1","0.5,0,1,0.5,0,1,0,1,0.5","2","false",""
"","html-keyboard-response","227","148884","0.0-248.0","3FE7TXL1LJ96YUPOU02BNM98DWCQ2S","A8KX1HFH8NE2Q","382GHPVPHSDM8N0F9141EAH7F0K34Z","","null","<img src=""img/food2.png"" style=""width:200px; border:14px solid green;"">","null","","","","","","","","","",""
"","image-keyboard-response","228","149232","0.0-250.0","3FE7TXL1LJ96YUPOU02BNM98DWCQ2S","A8KX1HFH8NE2Q","382GHPVPHSDM8N0F9141EAH7F0K34Z","","345.60000002384186","img/food2.png","76","346.9000000357628","3","0","3","2","1,0.5,0,1,0.5,0,0.5,0,1","0.5,0,1,0.5,0,1,0,1,0.5","2","false",""
"","html-keyboard-response","229","149533","0.0-251.0","3FE7TXL1LJ96YUPOU02BNM98DWCQ2S","A8KX1HFH8NE2Q","382GHPVPHSDM8N0F9141EAH7F0K34Z","","null","<img src=""img/food2.png"" style=""width:200px;border:14px solid red;"">","null","","","","","","","","","",""
"","image-keyboard-response","230","149979","0.0-253.0","3FE7TXL1LJ96YUPOU02BNM98DWCQ2S","A8KX1HFH8NE2Q","382GHPVPHSDM8N0F9141EAH7F0K34Z","","444.5","img/food3.png","76","445.69999998807907","3","1","2","2","1,0.5,0,1,0.5,0,0.5,0,1","0.5,0,1,0.5,0,1,0,1,0.5","2","false",""
"","html-keyboard-response","231","150282","0.0-254.0","3FE7TXL1LJ96YUPOU02BNM98DWCQ2S","A8KX1HFH8NE2Q","382GHPVPHSDM8N0F9141EAH7F0K34Z","","null","<img src=""img/food3.png"" style=""width:200px; border:14px solid green;"">","null","","","","","","","","","",""
"","image-keyboard-response","232","150590","0.0-256.0","3FE7TXL1LJ96YUPOU02BNM98DWCQ2S","A8KX1HFH8NE2Q","382GHPVPHSDM8N0F9141EAH7F0K34Z","","307.19999998807907","img/food4.png","76","308.5","3","1","1","2","1,0.5,0,1,0.5,0,0.5,0,1","0.5,0,1,0.5,0,1,0,1,0.5","2","false",""
"","html-keyboard-response","233","150894","0.0-257.0","3FE7TXL1LJ96YUPOU02BNM98DWCQ2S","A8KX1HFH8NE2Q","382GHPVPHSDM8N0F9141EAH7F0K34Z","","null","<img src=""img/food4.png"" style=""width:200px; border:14px solid green;"">","null","","","","","","","","","",""
"","image-keyboard-response","234","151253","0.0-259.0","3FE7TXL1LJ96YUPOU02BNM98DWCQ2S","A8KX1HFH8NE2Q","382GHPVPHSDM8N0F9141EAH7F0K34Z","","358.0999999642372","img/food3.png","76","358.89999997615814","3","1","2","2","1,0.5,0,1,0.5,0,0.5,0,1","0.5,0,1,0.5,0,1,0,1,0.5","2","false",""
"","html-keyboard-response","235","151554","0.0-260.0","3FE7TXL1LJ96YUPOU02BNM98DWCQ2S","A8KX1HFH8NE2Q","382GHPVPHSDM8N0F9141EAH7F0K34Z","","null","<img src=""img/food3.png"" style=""width:200px; border:14px solid green;"">","null","","","","","","","","","",""
"","image-keyboard-response","236","151912","0.0-262.0","3FE7TXL1LJ96YUPOU02BNM98DWCQ2S","A8KX1HFH8NE2Q","382GHPVPHSDM8N0F9141EAH7F0K34Z","","355.5","img/food2.png","76","357.19999998807907","3","1","3","2","1,0.5,0,1,0.5,0,0.5,0,1","0.5,0,1,0.5,0,1,0,1,0.5","2","false",""
"","html-keyboard-response","237","152215","0.0-263.0","3FE7TXL1LJ96YUPOU02BNM98DWCQ2S","A8KX1HFH8NE2Q","382GHPVPHSDM8N0F9141EAH7F0K34Z","","null","<img src=""img/food2.png"" style=""width:200px; border:14px solid green;"">","null","","","","","","","","","",""
"","image-keyboard-response","238","152670","0.0-265.0","3FE7TXL1LJ96YUPOU02BNM98DWCQ2S","A8KX1HFH8NE2Q","382GHPVPHSDM8N0F9141EAH7F0K34Z","","453.9000000357628","img/food4.png","76","454.80000001192093","3","1","1","2","1,0.5,0,1,0.5,0,0.5,0,1","0.5,0,1,0.5,0,1,0,1,0.5","2","false",""
"","html-keyboard-response","239","152973","0.0-266.0","3FE7TXL1LJ96YUPOU02BNM98DWCQ2S","A8KX1HFH8NE2Q","382GHPVPHSDM8N0F9141EAH7F0K34Z","","null","<img src=""img/food4.png"" style=""width:200px; border:14px solid green;"">","null","","","","","","","","","",""
"","image-keyboard-response","240","153372","0.0-268.0","3FE7TXL1LJ96YUPOU02BNM98DWCQ2S","A8KX1HFH8NE2Q","382GHPVPHSDM8N0F9141EAH7F0K34Z","","395.69999998807907","img/food4.png","76","397.19999998807907","3","1","1","2","1,0.5,0,1,0.5,0,0.5,0,1","0.5,0,1,0.5,0,1,0,1,0.5","2","false",""
"","html-keyboard-response","241","153674","0.0-269.0","3FE7TXL1LJ96YUPOU02BNM98DWCQ2S","A8KX1HFH8NE2Q","382GHPVPHSDM8N0F9141EAH7F0K34Z","","null","<img src=""img/food4.png"" style=""width:200px; border:14px solid green;"">","null","","","","","","","","","",""
"","image-keyboard-response","242","154051","0.0-271.0","3FE7TXL1LJ96YUPOU02BNM98DWCQ2S","A8KX1HFH8NE2Q","382GHPVPHSDM8N0F9141EAH7F0K34Z","","375.2999999523163","img/food2.png","76","376.39999997615814","3","0","3","2","1,0.5,0,1,0.5,0,0.5,0,1","0.5,0,1,0.5,0,1,0,1,0.5","2","false",""
"","html-keyboard-response","243","154353","0.0-272.0","3FE7TXL1LJ96YUPOU02BNM98DWCQ2S","A8KX1HFH8NE2Q","382GHPVPHSDM8N0F9141EAH7F0K34Z","","null","<img src=""img/food2.png"" style=""width:200px;border:14px solid red;"">","null","","","","","","","","","",""
"","image-keyboard-response","244","154688","0.0-274.0","3FE7TXL1LJ96YUPOU02BNM98DWCQ2S","A8KX1HFH8NE2Q","382GHPVPHSDM8N0F9141EAH7F0K34Z","","334.0999999642372","img/food3.png","76","335.19999998807907","3","1","2","2","1,0.5,0,1,0.5,0,0.5,0,1","0.5,0,1,0.5,0,1,0,1,0.5","2","false",""
"","html-keyboard-response","245","154992","0.0-275.0","3FE7TXL1LJ96YUPOU02BNM98DWCQ2S","A8KX1HFH8NE2Q","382GHPVPHSDM8N0F9141EAH7F0K34Z","","null","<img src=""img/food3.png"" style=""width:200px; border:14px solid green;"">","null","","","","","","","","","",""
"","image-keyboard-response","246","155355","0.0-277.0","3FE7TXL1LJ96YUPOU02BNM98DWCQ2S","A8KX1HFH8NE2Q","382GHPVPHSDM8N0F9141EAH7F0K34Z","","361.0999999642372","img/food4.png","76","362.39999997615814","3","1","1","2","1,0.5,0,1,0.5,0,0.5,0,1","0.5,0,1,0.5,0,1,0,1,0.5","2","false",""
"","html-keyboard-response","247","155657","0.0-278.0","3FE7TXL1LJ96YUPOU02BNM98DWCQ2S","A8KX1HFH8NE2Q","382GHPVPHSDM8N0F9141EAH7F0K34Z","","null","<img src=""img/food4.png"" style=""width:200px; border:14px solid green;"">","null","","","","","","","","","",""
"","image-keyboard-response","248","156000","0.0-280.0","3FE7TXL1LJ96YUPOU02BNM98DWCQ2S","A8KX1HFH8NE2Q","382GHPVPHSDM8N0F9141EAH7F0K34Z","","341.0999999642372","img/food2.png","76","342.7999999523163","3","0","3","2","1,0.5,0,1,0.5,0,0.5,0,1","0.5,0,1,0.5,0,1,0,1,0.5","2","false",""
"","html-keyboard-response","249","156303","0.0-281.0","3FE7TXL1LJ96YUPOU02BNM98DWCQ2S","A8KX1HFH8NE2Q","382GHPVPHSDM8N0F9141EAH7F0K34Z","","null","<img src=""img/food2.png"" style=""width:200px;border:14px solid red;"">","null","","","","","","","","","",""
"","image-keyboard-response","250","156679","0.0-283.0","3FE7TXL1LJ96YUPOU02BNM98DWCQ2S","A8KX1HFH8NE2Q","382GHPVPHSDM8N0F9141EAH7F0K34Z","","373.19999998807907","img/food4.png","76","375.0999999642372","3","1","1","2","1,0.5,0,1,0.5,0,0.5,0,1","0.5,0,1,0.5,0,1,0,1,0.5","2","false",""
"","html-keyboard-response","251","156982","0.0-284.0","3FE7TXL1LJ96YUPOU02BNM98DWCQ2S","A8KX1HFH8NE2Q","382GHPVPHSDM8N0F9141EAH7F0K34Z","","null","<img src=""img/food4.png"" style=""width:200px; border:14px solid green;"">","null","","","","","","","","","",""
"","image-keyboard-response","252","157303","0.0-286.0","3FE7TXL1LJ96YUPOU02BNM98DWCQ2S","A8KX1HFH8NE2Q","382GHPVPHSDM8N0F9141EAH7F0K34Z","","318.5","img/food4.png","76","319.7000000476837","3","1","1","2","1,0.5,0,1,0.5,0,0.5,0,1","0.5,0,1,0.5,0,1,0,1,0.5","2","false",""
"","html-keyboard-response","253","157605","0.0-287.0","3FE7TXL1LJ96YUPOU02BNM98DWCQ2S","A8KX1HFH8NE2Q","382GHPVPHSDM8N0F9141EAH7F0K34Z","","null","<img src=""img/food4.png"" style=""width:200px; border:14px solid green;"">","null","","","","","","","","","",""
"","image-keyboard-response","254","157993","0.0-289.0","3FE7TXL1LJ96YUPOU02BNM98DWCQ2S","A8KX1HFH8NE2Q","382GHPVPHSDM8N0F9141EAH7F0K34Z","","386","img/food2.png","76","387.19999998807907","3","0","3","2","1,0.5,0,1,0.5,0,0.5,0,1","0.5,0,1,0.5,0,1,0,1,0.5","2","false",""
"","html-keyboard-response","255","158296","0.0-290.0","3FE7TXL1LJ96YUPOU02BNM98DWCQ2S","A8KX1HFH8NE2Q","382GHPVPHSDM8N0F9141EAH7F0K34Z","","null","<img src=""img/food2.png"" style=""width:200px;border:14px solid red;"">","null","","","","","","","","","",""
"","image-keyboard-response","256","158642","0.0-292.0","3FE7TXL1LJ96YUPOU02BNM98DWCQ2S","A8KX1HFH8NE2Q","382GHPVPHSDM8N0F9141EAH7F0K34Z","","343.89999997615814","img/food4.png","76","345.5","3","1","1","2","1,0.5,0,1,0.5,0,0.5,0,1","0.5,0,1,0.5,0,1,0,1,0.5","2","false",""
"","html-keyboard-response","257","158944","0.0-293.0","3FE7TXL1LJ96YUPOU02BNM98DWCQ2S","A8KX1HFH8NE2Q","382GHPVPHSDM8N0F9141EAH7F0K34Z","","null","<img src=""img/food4.png"" style=""width:200px; border:14px solid green;"">","null","","","","","","","","","",""
"","image-keyboard-response","258","159302","0.0-295.0","3FE7TXL1LJ96YUPOU02BNM98DWCQ2S","A8KX1HFH8NE2Q","382GHPVPHSDM8N0F9141EAH7F0K34Z","","356.7999999523163","img/food4.png","76","358.10000002384186","3","1","1","2","1,0.5,0,1,0.5,0,0.5,0,1","0.5,0,1,0.5,0,1,0,1,0.5","2","false",""
"","html-keyboard-response","259","159605","0.0-296.0","3FE7TXL1LJ96YUPOU02BNM98DWCQ2S","A8KX1HFH8NE2Q","382GHPVPHSDM8N0F9141EAH7F0K34Z","","null","<img src=""img/food4.png"" style=""width:200px; border:14px solid green;"">","null","","","","","","","","","",""
"","image-keyboard-response","260","160107","0.0-298.0","3FE7TXL1LJ96YUPOU02BNM98DWCQ2S","A8KX1HFH8NE2Q","382GHPVPHSDM8N0F9141EAH7F0K34Z","","500.5","img/food2.png","75","502","2","1","3","2","1,0.5,0,1,0.5,0,0.5,0,1","0.5,0,1,0.5,0,1,0,1,0.5","2","false",""
"","html-keyboard-response","261","160410","0.0-299.0","3FE7TXL1LJ96YUPOU02BNM98DWCQ2S","A8KX1HFH8NE2Q","382GHPVPHSDM8N0F9141EAH7F0K34Z","","null","<img src=""img/food2.png"" style=""width:200px; border:14px solid green;"">","null","","","","","","","","","",""
"","image-keyboard-response","262","160671","0.0-301.0","3FE7TXL1LJ96YUPOU02BNM98DWCQ2S","A8KX1HFH8NE2Q","382GHPVPHSDM8N0F9141EAH7F0K34Z","","257.39999997615814","img/food4.png","75","259.60000002384186","2","0","1","2","1,0.5,0,1,0.5,0,0.5,0,1","0.5,0,1,0.5,0,1,0,1,0.5","2","false",""
"","html-keyboard-response","263","160974","0.0-302.0","3FE7TXL1LJ96YUPOU02BNM98DWCQ2S","A8KX1HFH8NE2Q","382GHPVPHSDM8N0F9141EAH7F0K34Z","","null","<img src=""img/food4.png"" style=""width:200px;border:14px solid red;"">","null","","","","","","","","","",""
"","image-keyboard-response","264","161181","0.0-304.0","3FE7TXL1LJ96YUPOU02BNM98DWCQ2S","A8KX1HFH8NE2Q","382GHPVPHSDM8N0F9141EAH7F0K34Z","","204.19999998807907","img/food2.png","76","205.30000001192093","3","1","3","2","1,0.5,0,1,0.5,0,0.5,0,1","0.5,0,1,0.5,0,1,0,1,0.5","2","false",""
"","html-keyboard-response","265","161483","0.0-305.0","3FE7TXL1LJ96YUPOU02BNM98DWCQ2S","A8KX1HFH8NE2Q","382GHPVPHSDM8N0F9141EAH7F0K34Z","","null","<img src=""img/food2.png"" style=""width:200px; border:14px solid green;"">","null","","","","","","","","","",""
"","image-keyboard-response","266","161814","0.0-307.0","3FE7TXL1LJ96YUPOU02BNM98DWCQ2S","A8KX1HFH8NE2Q","382GHPVPHSDM8N0F9141EAH7F0K34Z","","329.89999997615814","img/food2.png","76","331.19999998807907","3","1","3","2","1,0.5,0,1,0.5,0,0.5,0,1","0.5,0,1,0.5,0,1,0,1,0.5","2","false",""
"","html-keyboard-response","267","162117","0.0-308.0","3FE7TXL1LJ96YUPOU02BNM98DWCQ2S","A8KX1HFH8NE2Q","382GHPVPHSDM8N0F9141EAH7F0K34Z","","null","<img src=""img/food2.png"" style=""width:200px; border:14px solid green;"">","null","","","","","","","","","",""
"","image-keyboard-response","268","162511","0.0-310.0","3FE7TXL1LJ96YUPOU02BNM98DWCQ2S","A8KX1HFH8NE2Q","382GHPVPHSDM8N0F9141EAH7F0K34Z","","389.69999998807907","img/food4.png","76","392.2000000476837","3","1","1","2","1,0.5,0,1,0.5,0,0.5,0,1","0.5,0,1,0.5,0,1,0,1,0.5","2","false",""
"","html-keyboard-response","269","162815","0.0-311.0","3FE7TXL1LJ96YUPOU02BNM98DWCQ2S","A8KX1HFH8NE2Q","382GHPVPHSDM8N0F9141EAH7F0K34Z","","null","<img src=""img/food4.png"" style=""width:200px; border:14px solid green;"">","null","","","","","","","","","",""
"","image-keyboard-response","270","163260","0.0-313.0","3FE7TXL1LJ96YUPOU02BNM98DWCQ2S","A8KX1HFH8NE2Q","382GHPVPHSDM8N0F9141EAH7F0K34Z","","443","img/food3.png","76","444.0999999642372","3","1","2","2","1,0.5,0,1,0.5,0,0.5,0,1","0.5,0,1,0.5,0,1,0,1,0.5","2","false",""
"","html-keyboard-response","271","163562","0.0-314.0","3FE7TXL1LJ96YUPOU02BNM98DWCQ2S","A8KX1HFH8NE2Q","382GHPVPHSDM8N0F9141EAH7F0K34Z","","null","<img src=""img/food3.png"" style=""width:200px; border:14px solid green;"">","null","","","","","","","","","",""
"","image-keyboard-response","272","164009","0.0-316.0","3FE7TXL1LJ96YUPOU02BNM98DWCQ2S","A8KX1HFH8NE2Q","382GHPVPHSDM8N0F9141EAH7F0K34Z","","443.89999997615814","img/food2.png","75","445.9000000357628","2","1","3","2","1,0.5,0,1,0.5,0,0.5,0,1","0.5,0,1,0.5,0,1,0,1,0.5","2","false",""
"","html-keyboard-response","273","164312","0.0-317.0","3FE7TXL1LJ96YUPOU02BNM98DWCQ2S","A8KX1HFH8NE2Q","382GHPVPHSDM8N0F9141EAH7F0K34Z","","null","<img src=""img/food2.png"" style=""width:200px; border:14px solid green;"">","null","","","","","","","","","",""
"","image-keyboard-response","274","164657","0.0-319.0","3FE7TXL1LJ96YUPOU02BNM98DWCQ2S","A8KX1HFH8NE2Q","382GHPVPHSDM8N0F9141EAH7F0K34Z","","344.10000002384186","img/food4.png","76","345.19999998807907","3","1","1","2","1,0.5,0,1,0.5,0,0.5,0,1","0.5,0,1,0.5,0,1,0,1,0.5","2","false",""
"","html-keyboard-response","275","164961","0.0-320.0","3FE7TXL1LJ96YUPOU02BNM98DWCQ2S","A8KX1HFH8NE2Q","382GHPVPHSDM8N0F9141EAH7F0K34Z","","null","<img src=""img/food4.png"" style=""width:200px; border:14px solid green;"">","null","","","","","","","","","",""
"","image-keyboard-response","276","165259","0.0-322.0","3FE7TXL1LJ96YUPOU02BNM98DWCQ2S","A8KX1HFH8NE2Q","382GHPVPHSDM8N0F9141EAH7F0K34Z","","295.60000002384186","img/food4.png","76","296.89999997615814","3","1","1","2","1,0.5,0,1,0.5,0,0.5,0,1","0.5,0,1,0.5,0,1,0,1,0.5","2","false",""
"","html-keyboard-response","277","165562","0.0-323.0","3FE7TXL1LJ96YUPOU02BNM98DWCQ2S","A8KX1HFH8NE2Q","382GHPVPHSDM8N0F9141EAH7F0K34Z","","null","<img src=""img/food4.png"" style=""width:200px; border:14px solid green;"">","null","","","","","","","","","",""
"","image-keyboard-response","278","165920","0.0-325.0","3FE7TXL1LJ96YUPOU02BNM98DWCQ2S","A8KX1HFH8NE2Q","382GHPVPHSDM8N0F9141EAH7F0K34Z","","356.7000000476837","img/food4.png","76","357.80000001192093","3","1","1","2","1,0.5,0,1,0.5,0,0.5,0,1","0.5,0,1,0.5,0,1,0,1,0.5","2","false",""
"","html-keyboard-response","279","166222","0.0-326.0","3FE7TXL1LJ96YUPOU02BNM98DWCQ2S","A8KX1HFH8NE2Q","382GHPVPHSDM8N0F9141EAH7F0K34Z","","null","<img src=""img/food4.png"" style=""width:200px; border:14px solid green;"">","null","","","","","","","","","",""
"","image-keyboard-response","280","166770","0.0-328.0","3FE7TXL1LJ96YUPOU02BNM98DWCQ2S","A8KX1HFH8NE2Q","382GHPVPHSDM8N0F9141EAH7F0K34Z","","546.3000000119209","img/food3.png","76","547.4000000357628","3","1","2","2","1,0.5,0,1,0.5,0,0.5,0,1","0.5,0,1,0.5,0,1,0,1,0.5","2","false",""
"","html-keyboard-response","281","167072","0.0-329.0","3FE7TXL1LJ96YUPOU02BNM98DWCQ2S","A8KX1HFH8NE2Q","382GHPVPHSDM8N0F9141EAH7F0K34Z","","null","<img src=""img/food3.png"" style=""width:200px; border:14px solid green;"">","null","","","","","","","","","",""
"","image-keyboard-response","282","167511","0.0-331.0","3FE7TXL1LJ96YUPOU02BNM98DWCQ2S","A8KX1HFH8NE2Q","382GHPVPHSDM8N0F9141EAH7F0K34Z","","438.2000000476837","img/food4.png","76","438.89999997615814","3","1","1","2","1,0.5,0,1,0.5,0,0.5,0,1","0.5,0,1,0.5,0,1,0,1,0.5","2","false",""
"","html-keyboard-response","283","167813","0.0-332.0","3FE7TXL1LJ96YUPOU02BNM98DWCQ2S","A8KX1HFH8NE2Q","382GHPVPHSDM8N0F9141EAH7F0K34Z","","null","<img src=""img/food4.png"" style=""width:200px; border:14px solid green;"">","null","","","","","","","","","",""
"","image-keyboard-response","284","168253","0.0-334.0","3FE7TXL1LJ96YUPOU02BNM98DWCQ2S","A8KX1HFH8NE2Q","382GHPVPHSDM8N0F9141EAH7F0K34Z","","438.30000001192093","img/food3.png","76","439.39999997615814","3","1","2","2","1,0.5,0,1,0.5,0,0.5,0,1","0.5,0,1,0.5,0,1,0,1,0.5","2","false",""
"","html-keyboard-response","285","168556","0.0-335.0","3FE7TXL1LJ96YUPOU02BNM98DWCQ2S","A8KX1HFH8NE2Q","382GHPVPHSDM8N0F9141EAH7F0K34Z","","null","<img src=""img/food3.png"" style=""width:200px; border:14px solid green;"">","null","","","","","","","","","",""
"","image-keyboard-response","286","168986","0.0-337.0","3FE7TXL1LJ96YUPOU02BNM98DWCQ2S","A8KX1HFH8NE2Q","382GHPVPHSDM8N0F9141EAH7F0K34Z","","428.0999999642372","img/food4.png","76","429.9000000357628","3","1","1","2","1,0.5,0,1,0.5,0,0.5,0,1","0.5,0,1,0.5,0,1,0,1,0.5","2","false",""
"","html-keyboard-response","287","169289","0.0-338.0","3FE7TXL1LJ96YUPOU02BNM98DWCQ2S","A8KX1HFH8NE2Q","382GHPVPHSDM8N0F9141EAH7F0K34Z","","null","<img src=""img/food4.png"" style=""width:200px; border:14px solid green;"">","null","","","","","","","","","",""
"","image-keyboard-response","288","169786","0.0-340.0","3FE7TXL1LJ96YUPOU02BNM98DWCQ2S","A8KX1HFH8NE2Q","382GHPVPHSDM8N0F9141EAH7F0K34Z","","495.19999998807907","img/food2.png","75","496.60000002384186","2","1","3","2","1,0.5,0,1,0.5,0,0.5,0,1","0.5,0,1,0.5,0,1,0,1,0.5","2","false",""
"","html-keyboard-response","289","170088","0.0-341.0","3FE7TXL1LJ96YUPOU02BNM98DWCQ2S","A8KX1HFH8NE2Q","382GHPVPHSDM8N0F9141EAH7F0K34Z","","null","<img src=""img/food2.png"" style=""width:200px; border:14px solid green;"">","null","","","","","","","","","",""
"","image-keyboard-response","290","170451","0.0-343.0","3FE7TXL1LJ96YUPOU02BNM98DWCQ2S","A8KX1HFH8NE2Q","382GHPVPHSDM8N0F9141EAH7F0K34Z","","360.5","img/food2.png","75","361.9000000357628","2","1","3","2","1,0.5,0,1,0.5,0,0.5,0,1","0.5,0,1,0.5,0,1,0,1,0.5","2","false",""
"","html-keyboard-response","291","170753","0.0-344.0","3FE7TXL1LJ96YUPOU02BNM98DWCQ2S","A8KX1HFH8NE2Q","382GHPVPHSDM8N0F9141EAH7F0K34Z","","null","<img src=""img/food2.png"" style=""width:200px; border:14px solid green;"">","null","","","","","","","","","",""
"","image-keyboard-response","292","171092","0.0-346.0","3FE7TXL1LJ96YUPOU02BNM98DWCQ2S","A8KX1HFH8NE2Q","382GHPVPHSDM8N0F9141EAH7F0K34Z","","336.4000000357628","img/food2.png","75","337.89999997615814","2","1","3","2","1,0.5,0,1,0.5,0,0.5,0,1","0.5,0,1,0.5,0,1,0,1,0.5","2","false",""
"","html-keyboard-response","293","171394","0.0-347.0","3FE7TXL1LJ96YUPOU02BNM98DWCQ2S","A8KX1HFH8NE2Q","382GHPVPHSDM8N0F9141EAH7F0K34Z","","null","<img src=""img/food2.png"" style=""width:200px; border:14px solid green;"">","null","","","","","","","","","",""
"","image-keyboard-response","294","171794","0.0-349.0","3FE7TXL1LJ96YUPOU02BNM98DWCQ2S","A8KX1HFH8NE2Q","382GHPVPHSDM8N0F9141EAH7F0K34Z","","397.5","img/food4.png","76","399.19999998807907","3","1","1","2","1,0.5,0,1,0.5,0,0.5,0,1","0.5,0,1,0.5,0,1,0,1,0.5","2","false",""
"","html-keyboard-response","295","172097","0.0-350.0","3FE7TXL1LJ96YUPOU02BNM98DWCQ2S","A8KX1HFH8NE2Q","382GHPVPHSDM8N0F9141EAH7F0K34Z","","null","<img src=""img/food4.png"" style=""width:200px; border:14px solid green;"">","null","","","","","","","","","",""
"","image-keyboard-response","296","172435","0.0-352.0","3FE7TXL1LJ96YUPOU02BNM98DWCQ2S","A8KX1HFH8NE2Q","382GHPVPHSDM8N0F9141EAH7F0K34Z","","335.30000001192093","img/food2.png","76","337.4000000357628","3","0","3","2","1,0.5,0,1,0.5,0,0.5,0,1","0.5,0,1,0.5,0,1,0,1,0.5","2","false",""
"","html-keyboard-response","297","172747","0.0-353.0","3FE7TXL1LJ96YUPOU02BNM98DWCQ2S","A8KX1HFH8NE2Q","382GHPVPHSDM8N0F9141EAH7F0K34Z","","null","<img src=""img/food2.png"" style=""width:200px;border:14px solid red;"">","null","","","","","","","","","",""
"","image-keyboard-response","298","173312","0.0-355.0","3FE7TXL1LJ96YUPOU02BNM98DWCQ2S","A8KX1HFH8NE2Q","382GHPVPHSDM8N0F9141EAH7F0K34Z","","563","img/food4.png","76","564.6999999880791","3","1","1","2","1,0.5,0,1,0.5,0,0.5,0,1","0.5,0,1,0.5,0,1,0,1,0.5","2","false",""
"","html-keyboard-response","299","173615","0.0-356.0","3FE7TXL1LJ96YUPOU02BNM98DWCQ2S","A8KX1HFH8NE2Q","382GHPVPHSDM8N0F9141EAH7F0K34Z","","null","<img src=""img/food4.png"" style=""width:200px; border:14px solid green;"">","null","","","","","","","","","",""
"","image-keyboard-response","300","174108","0.0-358.0","3FE7TXL1LJ96YUPOU02BNM98DWCQ2S","A8KX1HFH8NE2Q","382GHPVPHSDM8N0F9141EAH7F0K34Z","","490.19999998807907","img/food3.png","75","492.0999999642372","2","0","2","2","1,0.5,0,1,0.5,0,0.5,0,1","0.5,0,1,0.5,0,1,0,1,0.5","2","false",""
"","html-keyboard-response","301","174411","0.0-359.0","3FE7TXL1LJ96YUPOU02BNM98DWCQ2S","A8KX1HFH8NE2Q","382GHPVPHSDM8N0F9141EAH7F0K34Z","","null","<img src=""img/food3.png"" style=""width:200px;border:14px solid red;"">","null","","","","","","","","","",""
"","image-keyboard-response","302","174872","0.0-361.0","3FE7TXL1LJ96YUPOU02BNM98DWCQ2S","A8KX1HFH8NE2Q","382GHPVPHSDM8N0F9141EAH7F0K34Z","","458.4000000357628","img/food2.png","76","460.30000001192093","3","1","3","2","1,0.5,0,1,0.5,0,0.5,0,1","0.5,0,1,0.5,0,1,0,1,0.5","2","false",""
"","html-keyboard-response","303","175175","0.0-362.0","3FE7TXL1LJ96YUPOU02BNM98DWCQ2S","A8KX1HFH8NE2Q","382GHPVPHSDM8N0F9141EAH7F0K34Z","","null","<img src=""img/food2.png"" style=""width:200px; border:14px solid green;"">","null","","","","","","","","","",""
"","image-keyboard-response","304","175628","0.0-364.0","3FE7TXL1LJ96YUPOU02BNM98DWCQ2S","A8KX1HFH8NE2Q","382GHPVPHSDM8N0F9141EAH7F0K34Z","","450.5999999642372","img/food2.png","76","452.5","3","0","3","2","1,0.5,0,1,0.5,0,0.5,0,1","0.5,0,1,0.5,0,1,0,1,0.5","2","false",""
"","html-keyboard-response","305","175931","0.0-365.0","3FE7TXL1LJ96YUPOU02BNM98DWCQ2S","A8KX1HFH8NE2Q","382GHPVPHSDM8N0F9141EAH7F0K34Z","","null","<img src=""img/food2.png"" style=""width:200px;border:14px solid red;"">","null","","","","","","","","","",""
"","image-keyboard-response","306","176458","0.0-367.0","3FE7TXL1LJ96YUPOU02BNM98DWCQ2S","A8KX1HFH8NE2Q","382GHPVPHSDM8N0F9141EAH7F0K34Z","","523.9000000357628","img/food2.png","75","525.5999999642372","2","1","3","2","1,0.5,0,1,0.5,0,0.5,0,1","0.5,0,1,0.5,0,1,0,1,0.5","2","false",""
"","html-keyboard-response","307","176760","0.0-368.0","3FE7TXL1LJ96YUPOU02BNM98DWCQ2S","A8KX1HFH8NE2Q","382GHPVPHSDM8N0F9141EAH7F0K34Z","","null","<img src=""img/food2.png"" style=""width:200px; border:14px solid green;"">","null","","","","","","","","","",""
"","image-keyboard-response","308","177247","0.0-370.0","3FE7TXL1LJ96YUPOU02BNM98DWCQ2S","A8KX1HFH8NE2Q","382GHPVPHSDM8N0F9141EAH7F0K34Z","","485","img/food4.png","76","486.19999998807907","3","1","1","2","1,0.5,0,1,0.5,0,0.5,0,1","0.5,0,1,0.5,0,1,0,1,0.5","2","false",""
"","html-keyboard-response","309","177550","0.0-371.0","3FE7TXL1LJ96YUPOU02BNM98DWCQ2S","A8KX1HFH8NE2Q","382GHPVPHSDM8N0F9141EAH7F0K34Z","","null","<img src=""img/food4.png"" style=""width:200px; border:14px solid green;"">","null","","","","","","","","","",""
"","image-keyboard-response","310","178033","0.0-373.0","3FE7TXL1LJ96YUPOU02BNM98DWCQ2S","A8KX1HFH8NE2Q","382GHPVPHSDM8N0F9141EAH7F0K34Z","","480.69999998807907","img/food3.png","76","482.39999997615814","3","1","2","2","1,0.5,0,1,0.5,0,0.5,0,1","0.5,0,1,0.5,0,1,0,1,0.5","2","false",""
"","html-keyboard-response","311","178334","0.0-374.0","3FE7TXL1LJ96YUPOU02BNM98DWCQ2S","A8KX1HFH8NE2Q","382GHPVPHSDM8N0F9141EAH7F0K34Z","","null","<img src=""img/food3.png"" style=""width:200px; border:14px solid green;"">","null","","","","","","","","","",""
"","image-keyboard-response","312","178823","0.0-376.0","3FE7TXL1LJ96YUPOU02BNM98DWCQ2S","A8KX1HFH8NE2Q","382GHPVPHSDM8N0F9141EAH7F0K34Z","","487.60000002384186","img/food2.png","75","488.7999999523163","2","1","3","2","1,0.5,0,1,0.5,0,0.5,0,1","0.5,0,1,0.5,0,1,0,1,0.5","2","false",""
"","html-keyboard-response","313","179126","0.0-377.0","3FE7TXL1LJ96YUPOU02BNM98DWCQ2S","A8KX1HFH8NE2Q","382GHPVPHSDM8N0F9141EAH7F0K34Z","","null","<img src=""img/food2.png"" style=""width:200px; border:14px solid green;"">","null","","","","","","","","","",""
"","image-keyboard-response","314","179710","0.0-379.0","3FE7TXL1LJ96YUPOU02BNM98DWCQ2S","A8KX1HFH8NE2Q","382GHPVPHSDM8N0F9141EAH7F0K34Z","","581.6000000238419","img/food4.png","76","583.3000000119209","3","1","1","2","1,0.5,0,1,0.5,0,0.5,0,1","0.5,0,1,0.5,0,1,0,1,0.5","2","false",""
"","html-keyboard-response","315","180014","0.0-380.0","3FE7TXL1LJ96YUPOU02BNM98DWCQ2S","A8KX1HFH8NE2Q","382GHPVPHSDM8N0F9141EAH7F0K34Z","","null","<img src=""img/food4.png"" style=""width:200px; border:14px solid green;"">","null","","","","","","","","","",""
"","image-keyboard-response","316","180578","0.0-382.0","3FE7TXL1LJ96YUPOU02BNM98DWCQ2S","A8KX1HFH8NE2Q","382GHPVPHSDM8N0F9141EAH7F0K34Z","","561.7000000476837","img/food3.png","76","563.7000000476837","3","1","2","2","1,0.5,0,1,0.5,0,0.5,0,1","0.5,0,1,0.5,0,1,0,1,0.5","2","false",""
"","html-keyboard-response","317","180882","0.0-383.0","3FE7TXL1LJ96YUPOU02BNM98DWCQ2S","A8KX1HFH8NE2Q","382GHPVPHSDM8N0F9141EAH7F0K34Z","","null","<img src=""img/food3.png"" style=""width:200px; border:14px solid green;"">","null","","","","","","","","","",""
"","image-keyboard-response","318","181396","0.0-385.0","3FE7TXL1LJ96YUPOU02BNM98DWCQ2S","A8KX1HFH8NE2Q","382GHPVPHSDM8N0F9141EAH7F0K34Z","","512.1999999880791","img/food4.png","76","513.3999999761581","3","1","1","2","1,0.5,0,1,0.5,0,0.5,0,1","0.5,0,1,0.5,0,1,0,1,0.5","2","false",""
"","html-keyboard-response","319","181698","0.0-386.0","3FE7TXL1LJ96YUPOU02BNM98DWCQ2S","A8KX1HFH8NE2Q","382GHPVPHSDM8N0F9141EAH7F0K34Z","","null","<img src=""img/food4.png"" style=""width:200px; border:14px solid green;"">","null","","","","","","","","","",""
"","image-keyboard-response","320","182191","0.0-388.0","3FE7TXL1LJ96YUPOU02BNM98DWCQ2S","A8KX1HFH8NE2Q","382GHPVPHSDM8N0F9141EAH7F0K34Z","","490.80000001192093","img/food3.png","76","492.69999998807907","3","1","2","2","1,0.5,0,1,0.5,0,0.5,0,1","0.5,0,1,0.5,0,1,0,1,0.5","2","false",""
"","html-keyboard-response","321","182494","0.0-389.0","3FE7TXL1LJ96YUPOU02BNM98DWCQ2S","A8KX1HFH8NE2Q","382GHPVPHSDM8N0F9141EAH7F0K34Z","","null","<img src=""img/food3.png"" style=""width:200px; border:14px solid green;"">","null","","","","","","","","","",""
"","image-keyboard-response","322","183047","0.0-391.0","3FE7TXL1LJ96YUPOU02BNM98DWCQ2S","A8KX1HFH8NE2Q","382GHPVPHSDM8N0F9141EAH7F0K34Z","","551.3000000119209","img/food2.png","75","552.8000000119209","2","1","3","2","1,0.5,0,1,0.5,0,0.5,0,1","0.5,0,1,0.5,0,1,0,1,0.5","2","false",""
"","html-keyboard-response","323","183351","0.0-392.0","3FE7TXL1LJ96YUPOU02BNM98DWCQ2S","A8KX1HFH8NE2Q","382GHPVPHSDM8N0F9141EAH7F0K34Z","","null","<img src=""img/food2.png"" style=""width:200px; border:14px solid green;"">","null","","","","","","","","","",""
"","image-keyboard-response","324","183952","0.0-394.0","3FE7TXL1LJ96YUPOU02BNM98DWCQ2S","A8KX1HFH8NE2Q","382GHPVPHSDM8N0F9141EAH7F0K34Z","","599.8999999761581","img/food3.png","76","601.3000000119209","3","1","2","2","1,0.5,0,1,0.5,0,0.5,0,1","0.5,0,1,0.5,0,1,0,1,0.5","2","false",""
"","html-keyboard-response","325","184255","0.0-395.0","3FE7TXL1LJ96YUPOU02BNM98DWCQ2S","A8KX1HFH8NE2Q","382GHPVPHSDM8N0F9141EAH7F0K34Z","","null","<img src=""img/food3.png"" style=""width:200px; border:14px solid green;"">","null","","","","","","","","","",""
"","image-keyboard-response","326","184600","0.0-397.0","3FE7TXL1LJ96YUPOU02BNM98DWCQ2S","A8KX1HFH8NE2Q","382GHPVPHSDM8N0F9141EAH7F0K34Z","","343.30000001192093","img/food3.png","76","344.39999997615814","3","1","2","2","1,0.5,0,1,0.5,0,0.5,0,1","0.5,0,1,0.5,0,1,0,1,0.5","2","false",""
"","html-keyboard-response","327","184903","0.0-398.0","3FE7TXL1LJ96YUPOU02BNM98DWCQ2S","A8KX1HFH8NE2Q","382GHPVPHSDM8N0F9141EAH7F0K34Z","","null","<img src=""img/food3.png"" style=""width:200px; border:14px solid green;"">","null","","","","","","","","","",""
"","image-keyboard-response","328","185579","0.0-400.0","3FE7TXL1LJ96YUPOU02BNM98DWCQ2S","A8KX1HFH8NE2Q","382GHPVPHSDM8N0F9141EAH7F0K34Z","","672.5999999642372","img/food4.png","76","674.5","3","1","1","2","1,0.5,0,1,0.5,0,0.5,0,1","0.5,0,1,0.5,0,1,0,1,0.5","2","false",""
"","html-keyboard-response","329","185882","0.0-401.0","3FE7TXL1LJ96YUPOU02BNM98DWCQ2S","A8KX1HFH8NE2Q","382GHPVPHSDM8N0F9141EAH7F0K34Z","","null","<img src=""img/food4.png"" style=""width:200px; border:14px solid green;"">","null","","","","","","","","","",""
"","image-keyboard-response","330","186418","0.0-403.0","3FE7TXL1LJ96YUPOU02BNM98DWCQ2S","A8KX1HFH8NE2Q","382GHPVPHSDM8N0F9141EAH7F0K34Z","","533.8000000119209","img/food3.png","76","535.1000000238419","3","1","2","2","1,0.5,0,1,0.5,0,0.5,0,1","0.5,0,1,0.5,0,1,0,1,0.5","2","false",""
"","html-keyboard-response","331","186721","0.0-404.0","3FE7TXL1LJ96YUPOU02BNM98DWCQ2S","A8KX1HFH8NE2Q","382GHPVPHSDM8N0F9141EAH7F0K34Z","","null","<img src=""img/food3.png"" style=""width:200px; border:14px solid green;"">","null","","","","","","","","","",""
"","image-keyboard-response","332","187370","0.0-406.0","3FE7TXL1LJ96YUPOU02BNM98DWCQ2S","A8KX1HFH8NE2Q","382GHPVPHSDM8N0F9141EAH7F0K34Z","","645.5","img/food4.png","76","648.0999999642372","3","1","1","2","1,0.5,0,1,0.5,0,0.5,0,1","0.5,0,1,0.5,0,1,0,1,0.5","2","false",""
"","html-keyboard-response","333","187672","0.0-407.0","3FE7TXL1LJ96YUPOU02BNM98DWCQ2S","A8KX1HFH8NE2Q","382GHPVPHSDM8N0F9141EAH7F0K34Z","","null","<img src=""img/food4.png"" style=""width:200px; border:14px solid green;"">","null","","","","","","","","","",""
"","image-keyboard-response","334","188038","0.0-409.0","3FE7TXL1LJ96YUPOU02BNM98DWCQ2S","A8KX1HFH8NE2Q","382GHPVPHSDM8N0F9141EAH7F0K34Z","","363.7000000476837","img/food3.png","76","364.9000000357628","3","1","2","2","1,0.5,0,1,0.5,0,0.5,0,1","0.5,0,1,0.5,0,1,0,1,0.5","2","false",""
"","html-keyboard-response","335","188340","0.0-410.0","3FE7TXL1LJ96YUPOU02BNM98DWCQ2S","A8KX1HFH8NE2Q","382GHPVPHSDM8N0F9141EAH7F0K34Z","","null","<img src=""img/food3.png"" style=""width:200px; border:14px solid green;"">","null","","","","","","","","","",""
"","image-keyboard-response","336","188674","0.0-412.0","3FE7TXL1LJ96YUPOU02BNM98DWCQ2S","A8KX1HFH8NE2Q","382GHPVPHSDM8N0F9141EAH7F0K34Z","","331.60000002384186","img/food3.png","76","333.19999998807907","3","1","2","2","1,0.5,0,1,0.5,0,0.5,0,1","0.5,0,1,0.5,0,1,0,1,0.5","2","false",""
"","html-keyboard-response","337","188977","0.0-413.0","3FE7TXL1LJ96YUPOU02BNM98DWCQ2S","A8KX1HFH8NE2Q","382GHPVPHSDM8N0F9141EAH7F0K34Z","","null","<img src=""img/food3.png"" style=""width:200px; border:14px solid green;"">","null","","","","","","","","","",""
"","image-keyboard-response","338","189353","0.0-415.0","3FE7TXL1LJ96YUPOU02BNM98DWCQ2S","A8KX1HFH8NE2Q","382GHPVPHSDM8N0F9141EAH7F0K34Z","","373.60000002384186","img/food3.png","76","375.5","3","1","2","2","1,0.5,0,1,0.5,0,0.5,0,1","0.5,0,1,0.5,0,1,0,1,0.5","2","false",""
"","html-keyboard-response","339","189656","0.0-416.0","3FE7TXL1LJ96YUPOU02BNM98DWCQ2S","A8KX1HFH8NE2Q","382GHPVPHSDM8N0F9141EAH7F0K34Z","","null","<img src=""img/food3.png"" style=""width:200px; border:14px solid green;"">","null","","","","","","","","","",""
"","image-keyboard-response","340","190109","0.0-418.0","3FE7TXL1LJ96YUPOU02BNM98DWCQ2S","A8KX1HFH8NE2Q","382GHPVPHSDM8N0F9141EAH7F0K34Z","","450.39999997615814","img/food4.png","76","452","3","1","1","2","1,0.5,0,1,0.5,0,0.5,0,1","0.5,0,1,0.5,0,1,0,1,0.5","2","false",""
"","html-keyboard-response","341","190412","0.0-419.0","3FE7TXL1LJ96YUPOU02BNM98DWCQ2S","A8KX1HFH8NE2Q","382GHPVPHSDM8N0F9141EAH7F0K34Z","","null","<img src=""img/food4.png"" style=""width:200px; border:14px solid green;"">","null","","","","","","","","","",""
"","image-keyboard-response","342","191045","0.0-421.0","3FE7TXL1LJ96YUPOU02BNM98DWCQ2S","A8KX1HFH8NE2Q","382GHPVPHSDM8N0F9141EAH7F0K34Z","","631.5","img/food2.png","75","633.1000000238419","2","1","3","2","1,0.5,0,1,0.5,0,0.5,0,1","0.5,0,1,0.5,0,1,0,1,0.5","2","false",""
"","html-keyboard-response","343","191348","0.0-422.0","3FE7TXL1LJ96YUPOU02BNM98DWCQ2S","A8KX1HFH8NE2Q","382GHPVPHSDM8N0F9141EAH7F0K34Z","","null","<img src=""img/food2.png"" style=""width:200px; border:14px solid green;"">","null","","","","","","","","","",""
"","image-keyboard-response","344","191685","0.0-424.0","3FE7TXL1LJ96YUPOU02BNM98DWCQ2S","A8KX1HFH8NE2Q","382GHPVPHSDM8N0F9141EAH7F0K34Z","","335.5","img/food2.png","75","336.7000000476837","2","1","3","2","1,0.5,0,1,0.5,0,0.5,0,1","0.5,0,1,0.5,0,1,0,1,0.5","2","false",""
"","html-keyboard-response","345","191988","0.0-425.0","3FE7TXL1LJ96YUPOU02BNM98DWCQ2S","A8KX1HFH8NE2Q","382GHPVPHSDM8N0F9141EAH7F0K34Z","","null","<img src=""img/food2.png"" style=""width:200px; border:14px solid green;"">","null","","","","","","","","","",""
"","image-keyboard-response","346","192452","0.0-427.0","3FE7TXL1LJ96YUPOU02BNM98DWCQ2S","A8KX1HFH8NE2Q","382GHPVPHSDM8N0F9141EAH7F0K34Z","","461.69999998807907","img/food4.png","76","463","3","1","1","2","1,0.5,0,1,0.5,0,0.5,0,1","0.5,0,1,0.5,0,1,0,1,0.5","2","false",""
"","html-keyboard-response","347","192754","0.0-428.0","3FE7TXL1LJ96YUPOU02BNM98DWCQ2S","A8KX1HFH8NE2Q","382GHPVPHSDM8N0F9141EAH7F0K34Z","","null","<img src=""img/food4.png"" style=""width:200px; border:14px solid green;"">","null","","","","","","","","","",""
"","image-keyboard-response","348","193065","0.0-430.0","3FE7TXL1LJ96YUPOU02BNM98DWCQ2S","A8KX1HFH8NE2Q","382GHPVPHSDM8N0F9141EAH7F0K34Z","","307.60000002384186","img/food4.png","76","309.69999998807907","3","1","1","2","1,0.5,0,1,0.5,0,0.5,0,1","0.5,0,1,0.5,0,1,0,1,0.5","2","false",""
"","html-keyboard-response","349","193367","0.0-431.0","3FE7TXL1LJ96YUPOU02BNM98DWCQ2S","A8KX1HFH8NE2Q","382GHPVPHSDM8N0F9141EAH7F0K34Z","","null","<img src=""img/food4.png"" style=""width:200px; border:14px solid green;"">","null","","","","","","","","","",""
"","image-keyboard-response","350","193936","0.0-433.0","3FE7TXL1LJ96YUPOU02BNM98DWCQ2S","A8KX1HFH8NE2Q","382GHPVPHSDM8N0F9141EAH7F0K34Z","","568.2000000476837","img/food2.png","75","569","2","1","3","2","1,0.5,0,1,0.5,0,0.5,0,1","0.5,0,1,0.5,0,1,0,1,0.5","2","false",""
"","html-keyboard-response","351","194237","0.0-434.0","3FE7TXL1LJ96YUPOU02BNM98DWCQ2S","A8KX1HFH8NE2Q","382GHPVPHSDM8N0F9141EAH7F0K34Z","","null","<img src=""img/food2.png"" style=""width:200px; border:14px solid green;"">","null","","","","","","","","","",""
"","image-keyboard-response","352","194682","0.0-436.0","3FE7TXL1LJ96YUPOU02BNM98DWCQ2S","A8KX1HFH8NE2Q","382GHPVPHSDM8N0F9141EAH7F0K34Z","","443.10000002384186","img/food3.png","76","444.30000001192093","3","1","2","2","1,0.5,0,1,0.5,0,0.5,0,1","0.5,0,1,0.5,0,1,0,1,0.5","2","false",""
"","html-keyboard-response","353","194984","0.0-437.0","3FE7TXL1LJ96YUPOU02BNM98DWCQ2S","A8KX1HFH8NE2Q","382GHPVPHSDM8N0F9141EAH7F0K34Z","","null","<img src=""img/food3.png"" style=""width:200px; border:14px solid green;"">","null","","","","","","","","","",""
"","image-keyboard-response","354","195291","0.0-439.0","3FE7TXL1LJ96YUPOU02BNM98DWCQ2S","A8KX1HFH8NE2Q","382GHPVPHSDM8N0F9141EAH7F0K34Z","","305.5999999642372","img/food3.png","76","306.60000002384186","3","1","2","2","1,0.5,0,1,0.5,0,0.5,0,1","0.5,0,1,0.5,0,1,0,1,0.5","2","false",""
"","html-keyboard-response","355","195593","0.0-440.0","3FE7TXL1LJ96YUPOU02BNM98DWCQ2S","A8KX1HFH8NE2Q","382GHPVPHSDM8N0F9141EAH7F0K34Z","","null","<img src=""img/food3.png"" style=""width:200px; border:14px solid green;"">","null","","","","","","","","","",""
"","image-keyboard-response","356","196144","0.0-442.0","3FE7TXL1LJ96YUPOU02BNM98DWCQ2S","A8KX1HFH8NE2Q","382GHPVPHSDM8N0F9141EAH7F0K34Z","","548","img/food3.png","76","549.1999999880791","3","1","2","2","1,0.5,0,1,0.5,0,0.5,0,1","0.5,0,1,0.5,0,1,0,1,0.5","2","false",""
"","html-keyboard-response","357","196445","0.0-443.0","3FE7TXL1LJ96YUPOU02BNM98DWCQ2S","A8KX1HFH8NE2Q","382GHPVPHSDM8N0F9141EAH7F0K34Z","","null","<img src=""img/food3.png"" style=""width:200px; border:14px solid green;"">","null","","","","","","","","","",""
"","image-keyboard-response","358","196773","0.0-445.0","3FE7TXL1LJ96YUPOU02BNM98DWCQ2S","A8KX1HFH8NE2Q","382GHPVPHSDM8N0F9141EAH7F0K34Z","","327.10000002384186","img/food3.png","76","328.30000001192093","3","1","2","2","1,0.5,0,1,0.5,0,0.5,0,1","0.5,0,1,0.5,0,1,0,1,0.5","2","false",""
"","html-keyboard-response","359","197077","0.0-446.0","3FE7TXL1LJ96YUPOU02BNM98DWCQ2S","A8KX1HFH8NE2Q","382GHPVPHSDM8N0F9141EAH7F0K34Z","","null","<img src=""img/food3.png"" style=""width:200px; border:14px solid green;"">","null","","","","","","","","","",""
"","image-keyboard-response","360","197488","0.0-448.0","3FE7TXL1LJ96YUPOU02BNM98DWCQ2S","A8KX1HFH8NE2Q","382GHPVPHSDM8N0F9141EAH7F0K34Z","","408.39999997615814","img/food2.png","76","410.19999998807907","3","1","3","2","1,0.5,0,1,0.5,0,0.5,0,1","0.5,0,1,0.5,0,1,0,1,0.5","2","false",""
"","html-keyboard-response","361","197791","0.0-449.0","3FE7TXL1LJ96YUPOU02BNM98DWCQ2S","A8KX1HFH8NE2Q","382GHPVPHSDM8N0F9141EAH7F0K34Z","","null","<img src=""img/food2.png"" style=""width:200px; border:14px solid green;"">","null","","","","","","","","","",""
"","image-keyboard-response","362","198274","0.0-451.0","3FE7TXL1LJ96YUPOU02BNM98DWCQ2S","A8KX1HFH8NE2Q","382GHPVPHSDM8N0F9141EAH7F0K34Z","","481.4000000357628","img/food2.png","75","482.5","2","1","3","2","1,0.5,0,1,0.5,0,0.5,0,1","0.5,0,1,0.5,0,1,0,1,0.5","2","false",""
"","html-keyboard-response","363","198576","0.0-452.0","3FE7TXL1LJ96YUPOU02BNM98DWCQ2S","A8KX1HFH8NE2Q","382GHPVPHSDM8N0F9141EAH7F0K34Z","","null","<img src=""img/food2.png"" style=""width:200px; border:14px solid green;"">","null","","","","","","","","","",""
"","instructions","364","201390","0.0-454.0","3FE7TXL1LJ96YUPOU02BNM98DWCQ2S","A8KX1HFH8NE2Q","382GHPVPHSDM8N0F9141EAH7F0K34Z","[{""page_index"":0,""viewing_time"":2813.699999988079}]","2813.800000011921","","","","","","","","","","","",""
"","survey-text","365","233377","0.0-455.0","3FE7TXL1LJ96YUPOU02BNM98DWCQ2S","A8KX1HFH8NE2Q","382GHPVPHSDM8N0F9141EAH7F0K34Z","","31983.69999998808","","","","","","","","","","","","{""Q0"":""A8KX1HFH8NE2Q""}"
