"success","trial_type","trial_index","time_elapsed","internal_node_id","assignmentID","mturkID","hitID","view_history","rt","stimulus","key_press","reactionTime","a","r","warning","s","cond","reward_cond","reward_cond_actual","reward_matrix_idx","responses"
"true","fullscreen","0","3371","0.0-0.0","3G2UL9A02E0KAD3AL358D89POC367A","ACAJFF4MF5S5X","3ECKRY5B1QIH1N6NFX1ECCW5ZDKIZQ","","","","","","","","","","","","","",""
"","instructions","1","49755","0.0-1.0","3G2UL9A02E0KAD3AL358D89POC367A","ACAJFF4MF5S5X","3ECKRY5B1QIH1N6NFX1ECCW5ZDKIZQ","[{""page_index"":0,""viewing_time"":5996.5999999940395},{""page_index"":1,""viewing_time"":5823.70000000298},{""page_index"":2,""viewing_time"":6889.79999999702},{""page_index"":3,""viewing_time"":7246.10000000149},{""page_index"":4,""viewing_time"":2182.2000000029802},{""page_index"":5,""viewing_time"":8975.89999999851},{""page_index"":6,""viewing_time"":9266.70000000298}]","46381.5","","","","","","","","","","","",""
"","instructions","2","75725","0.0-2.0","3G2UL9A02E0KAD3AL358D89POC367A","ACAJFF4MF5S5X","3ECKRY5B1QIH1N6NFX1ECCW5ZDKIZQ","[{""page_index"":0,""viewing_time"":22018.29999999702},{""page_index"":1,""viewing_time"":3949.7000000029802}]","25968.29999999702","","","","","","","","","","","",""
"","image-keyboard-response","3","76129","0.0-3.0","3G2UL9A02E0KAD3AL358D89POC367A","ACAJFF4MF5S5X","3ECKRY5B1QIH1N6NFX1ECCW5ZDKIZQ","","403","img/food4.png","74","404.29999999701977","1","0","false","1","2","1,0.5,0,1,0.5,0,0.5,0,1","0,1,0.5,0,1,0.5,1,0.5,0","3",""
"","html-keyboard-response","4","76432","0.0-4.0","3G2UL9A02E0KAD3AL358D89POC367A","ACAJFF4MF5S5X","3ECKRY5B1QIH1N6NFX1ECCW5ZDKIZQ","","null","<img src=""img/food4.png"" style=""width:200px;border:14px solid red;"">","null","","","","","","","","","",""
"","image-keyboard-response","5","76736","0.0-6.0","3G2UL9A02E0KAD3AL358D89POC367A","ACAJFF4MF5S5X","3ECKRY5B1QIH1N6NFX1ECCW5ZDKIZQ","","302.79999999701977","img/food3.png","74","304","1","0","false","2","2","1,0.5,0,1,0.5,0,0.5,0,1","0,1,0.5,0,1,0.5,1,0.5,0","3",""
"","html-keyboard-response","6","77039","0.0-7.0","3G2UL9A02E0KAD3AL358D89POC367A","ACAJFF4MF5S5X","3ECKRY5B1QIH1N6NFX1ECCW5ZDKIZQ","","null","<img src=""img/food3.png"" style=""width:200px;border:14px solid red;"">","null","","","","","","","","","",""
"","image-keyboard-response","7","77624","0.0-9.0","3G2UL9A02E0KAD3AL358D89POC367A","ACAJFF4MF5S5X","3ECKRY5B1QIH1N6NFX1ECCW5ZDKIZQ","","583.7000000029802","img/food4.png","74","584.7999999970198","1","0","false","1","2","1,0.5,0,1,0.5,0,0.5,0,1","0,1,0.5,0,1,0.5,1,0.5,0","3",""
"","html-keyboard-response","8","77927","0.0-10.0","3G2UL9A02E0KAD3AL358D89POC367A","ACAJFF4MF5S5X","3ECKRY5B1QIH1N6NFX1ECCW5ZDKIZQ","","null","<img src=""img/food4.png"" style=""width:200px;border:14px solid red;"">","null","","","","","","","","","",""
"","image-keyboard-response","9","78504","0.0-12.0","3G2UL9A02E0KAD3AL358D89POC367A","ACAJFF4MF5S5X","3ECKRY5B1QIH1N6NFX1ECCW5ZDKIZQ","","575.6999999955297","img/food1.png","74","577","1","1","false","3","2","1,0.5,0,1,0.5,0,0.5,0,1","0,1,0.5,0,1,0.5,1,0.5,0","3",""
"","html-keyboard-response","10","78806","0.0-13.0","3G2UL9A02E0KAD3AL358D89POC367A","ACAJFF4MF5S5X","3ECKRY5B1QIH1N6NFX1ECCW5ZDKIZQ","","null","<img src=""img/food1.png"" style=""width:200px; border:14px solid green;"">","null","","","","","","","","","",""
"","image-keyboard-response","11","79448","0.0-15.0","3G2UL9A02E0KAD3AL358D89POC367A","ACAJFF4MF5S5X","3ECKRY5B1QIH1N6NFX1ECCW5ZDKIZQ","","639.7999999970198","img/food4.png","75","641","2","1","false","1","2","1,0.5,0,1,0.5,0,0.5,0,1","0,1,0.5,0,1,0.5,1,0.5,0","3",""
"","html-keyboard-response","12","79750","0.0-16.0","3G2UL9A02E0KAD3AL358D89POC367A","ACAJFF4MF5S5X","3ECKRY5B1QIH1N6NFX1ECCW5ZDKIZQ","","null","<img src=""img/food4.png"" style=""width:200px; border:14px solid green;"">","null","","","","","","","","","",""
"","image-keyboard-response","13","80272","0.0-18.0","3G2UL9A02E0KAD3AL358D89POC367A","ACAJFF4MF5S5X","3ECKRY5B1QIH1N6NFX1ECCW5ZDKIZQ","","521.1999999955297","img/food3.png","76","522.3000000044703","3","0","false","2","2","1,0.5,0,1,0.5,0,0.5,0,1","0,1,0.5,0,1,0.5,1,0.5,0","3",""
"","html-keyboard-response","14","80575","0.0-19.0","3G2UL9A02E0KAD3AL358D89POC367A","ACAJFF4MF5S5X","3ECKRY5B1QIH1N6NFX1ECCW5ZDKIZQ","","null","<img src=""img/food3.png"" style=""width:200px;border:14px solid red;"">","null","","","","","","","","","",""
"","image-keyboard-response","15","81368","0.0-21.0","3G2UL9A02E0KAD3AL358D89POC367A","ACAJFF4MF5S5X","3ECKRY5B1QIH1N6NFX1ECCW5ZDKIZQ","","791.5999999940395","img/food4.png","75","792.7000000029802","2","1","false","1","2","1,0.5,0,1,0.5,0,0.5,0,1","0,1,0.5,0,1,0.5,1,0.5,0","3",""
"","html-keyboard-response","16","81670","0.0-22.0","3G2UL9A02E0KAD3AL358D89POC367A","ACAJFF4MF5S5X","3ECKRY5B1QIH1N6NFX1ECCW5ZDKIZQ","","null","<img src=""img/food4.png"" style=""width:200px; border:14px solid green;"">","null","","","","","","","","","",""
"","image-keyboard-response","17","82163","0.0-24.0","3G2UL9A02E0KAD3AL358D89POC367A","ACAJFF4MF5S5X","3ECKRY5B1QIH1N6NFX1ECCW5ZDKIZQ","","491.3999999985099","img/food1.png","74","492.6000000014901","1","1","false","3","2","1,0.5,0,1,0.5,0,0.5,0,1","0,1,0.5,0,1,0.5,1,0.5,0","3",""
"","html-keyboard-response","18","82465","0.0-25.0","3G2UL9A02E0KAD3AL358D89POC367A","ACAJFF4MF5S5X","3ECKRY5B1QIH1N6NFX1ECCW5ZDKIZQ","","null","<img src=""img/food1.png"" style=""width:200px; border:14px solid green;"">","null","","","","","","","","","",""
"","image-keyboard-response","19","83144","0.0-27.0","3G2UL9A02E0KAD3AL358D89POC367A","ACAJFF4MF5S5X","3ECKRY5B1QIH1N6NFX1ECCW5ZDKIZQ","","677.6999999955297","img/food1.png","74","678.8999999985099","1","1","false","3","2","1,0.5,0,1,0.5,0,0.5,0,1","0,1,0.5,0,1,0.5,1,0.5,0","3",""
"","html-keyboard-response","20","83446","0.0-28.0","3G2UL9A02E0KAD3AL358D89POC367A","ACAJFF4MF5S5X","3ECKRY5B1QIH1N6NFX1ECCW5ZDKIZQ","","null","<img src=""img/food1.png"" style=""width:200px; border:14px solid green;"">","null","","","","","","","","","",""
"","image-keyboard-response","21","83920","0.0-30.0","3G2UL9A02E0KAD3AL358D89POC367A","ACAJFF4MF5S5X","3ECKRY5B1QIH1N6NFX1ECCW5ZDKIZQ","","472.69999999552965","img/food4.png","75","474","2","1","false","1","2","1,0.5,0,1,0.5,0,0.5,0,1","0,1,0.5,0,1,0.5,1,0.5,0","3",""
"","html-keyboard-response","22","84222","0.0-31.0","3G2UL9A02E0KAD3AL358D89POC367A","ACAJFF4MF5S5X","3ECKRY5B1QIH1N6NFX1ECCW5ZDKIZQ","","null","<img src=""img/food4.png"" style=""width:200px; border:14px solid green;"">","null","","","","","","","","","",""
"","image-keyboard-response","23","84656","0.0-33.0","3G2UL9A02E0KAD3AL358D89POC367A","ACAJFF4MF5S5X","3ECKRY5B1QIH1N6NFX1ECCW5ZDKIZQ","","432.69999999552965","img/food4.png","75","433.70000000298023","2","1","false","1","2","1,0.5,0,1,0.5,0,0.5,0,1","0,1,0.5,0,1,0.5,1,0.5,0","3",""
"","html-keyboard-response","24","84959","0.0-34.0","3G2UL9A02E0KAD3AL358D89POC367A","ACAJFF4MF5S5X","3ECKRY5B1QIH1N6NFX1ECCW5ZDKIZQ","","null","<img src=""img/food4.png"" style=""width:200px; border:14px solid green;"">","null","","","","","","","","","",""
"","image-keyboard-response","25","85312","0.0-36.0","3G2UL9A02E0KAD3AL358D89POC367A","ACAJFF4MF5S5X","3ECKRY5B1QIH1N6NFX1ECCW5ZDKIZQ","","352.19999999552965","img/food4.png","75","353.30000000447035","2","1","false","1","2","1,0.5,0,1,0.5,0,0.5,0,1","0,1,0.5,0,1,0.5,1,0.5,0","3",""
"","html-keyboard-response","26","85615","0.0-37.0","3G2UL9A02E0KAD3AL358D89POC367A","ACAJFF4MF5S5X","3ECKRY5B1QIH1N6NFX1ECCW5ZDKIZQ","","null","<img src=""img/food4.png"" style=""width:200px; border:14px solid green;"">","null","","","","","","","","","",""
"","image-keyboard-response","27","86041","0.0-39.0","3G2UL9A02E0KAD3AL358D89POC367A","ACAJFF4MF5S5X","3ECKRY5B1QIH1N6NFX1ECCW5ZDKIZQ","","424.30000000447035","img/food3.png","76","425.3999999985099","3","0","false","2","2","1,0.5,0,1,0.5,0,0.5,0,1","0,1,0.5,0,1,0.5,1,0.5,0","3",""
"","html-keyboard-response","28","86343","0.0-40.0","3G2UL9A02E0KAD3AL358D89POC367A","ACAJFF4MF5S5X","3ECKRY5B1QIH1N6NFX1ECCW5ZDKIZQ","","null","<img src=""img/food3.png"" style=""width:200px;border:14px solid red;"">","null","","","","","","","","","",""
"","image-keyboard-response","29","86984","0.0-42.0","3G2UL9A02E0KAD3AL358D89POC367A","ACAJFF4MF5S5X","3ECKRY5B1QIH1N6NFX1ECCW5ZDKIZQ","","639.6999999955297","img/food4.png","75","640.8999999985099","2","1","false","1","2","1,0.5,0,1,0.5,0,0.5,0,1","0,1,0.5,0,1,0.5,1,0.5,0","3",""
"","html-keyboard-response","30","87287","0.0-43.0","3G2UL9A02E0KAD3AL358D89POC367A","ACAJFF4MF5S5X","3ECKRY5B1QIH1N6NFX1ECCW5ZDKIZQ","","null","<img src=""img/food4.png"" style=""width:200px; border:14px solid green;"">","null","","","","","","","","","",""
"","image-keyboard-response","31","87696","0.0-45.0","3G2UL9A02E0KAD3AL358D89POC367A","ACAJFF4MF5S5X","3ECKRY5B1QIH1N6NFX1ECCW5ZDKIZQ","","407.09999999403954","img/food4.png","75","408.29999999701977","2","1","false","1","2","1,0.5,0,1,0.5,0,0.5,0,1","0,1,0.5,0,1,0.5,1,0.5,0","3",""
"","html-keyboard-response","32","88009","0.0-46.0","3G2UL9A02E0KAD3AL358D89POC367A","ACAJFF4MF5S5X","3ECKRY5B1QIH1N6NFX1ECCW5ZDKIZQ","","null","<img src=""img/food4.png"" style=""width:200px; border:14px solid green;"">","null","","","","","","","","","",""
"","image-keyboard-response","33","88424","0.0-48.0","3G2UL9A02E0KAD3AL358D89POC367A","ACAJFF4MF5S5X","3ECKRY5B1QIH1N6NFX1ECCW5ZDKIZQ","","413.5","img/food4.png","75","414.6000000014901","2","1","false","1","2","1,0.5,0,1,0.5,0,0.5,0,1","0,1,0.5,0,1,0.5,1,0.5,0","3",""
"","html-keyboard-response","34","88726","0.0-49.0","3G2UL9A02E0KAD3AL358D89POC367A","ACAJFF4MF5S5X","3ECKRY5B1QIH1N6NFX1ECCW5ZDKIZQ","","null","<img src=""img/food4.png"" style=""width:200px; border:14px solid green;"">","null","","","","","","","","","",""
"","image-keyboard-response","35","89256","0.0-51.0","3G2UL9A02E0KAD3AL358D89POC367A","ACAJFF4MF5S5X","3ECKRY5B1QIH1N6NFX1ECCW5ZDKIZQ","","528.7999999970198","img/food1.png","74","529.7999999970198","1","1","false","3","2","1,0.5,0,1,0.5,0,0.5,0,1","0,1,0.5,0,1,0.5,1,0.5,0","3",""
"","html-keyboard-response","36","89559","0.0-52.0","3G2UL9A02E0KAD3AL358D89POC367A","ACAJFF4MF5S5X","3ECKRY5B1QIH1N6NFX1ECCW5ZDKIZQ","","null","<img src=""img/food1.png"" style=""width:200px; border:14px solid green;"">","null","","","","","","","","","",""
"","image-keyboard-response","37","90240","0.0-54.0","3G2UL9A02E0KAD3AL358D89POC367A","ACAJFF4MF5S5X","3ECKRY5B1QIH1N6NFX1ECCW5ZDKIZQ","","679.8999999985099","img/food3.png","75","680.8999999985099","2","1","false","2","2","1,0.5,0,1,0.5,0,0.5,0,1","0,1,0.5,0,1,0.5,1,0.5,0","3",""
"","html-keyboard-response","38","90543","0.0-55.0","3G2UL9A02E0KAD3AL358D89POC367A","ACAJFF4MF5S5X","3ECKRY5B1QIH1N6NFX1ECCW5ZDKIZQ","","null","<img src=""img/food3.png"" style=""width:200px; border:14px solid green;"">","null","","","","","","","","","",""
"","image-keyboard-response","39","91280","0.0-57.0","3G2UL9A02E0KAD3AL358D89POC367A","ACAJFF4MF5S5X","3ECKRY5B1QIH1N6NFX1ECCW5ZDKIZQ","","735.8999999985099","img/food4.png","75","737.1000000014901","2","1","false","1","2","1,0.5,0,1,0.5,0,0.5,0,1","0,1,0.5,0,1,0.5,1,0.5,0","3",""
"","html-keyboard-response","40","91582","0.0-58.0","3G2UL9A02E0KAD3AL358D89POC367A","ACAJFF4MF5S5X","3ECKRY5B1QIH1N6NFX1ECCW5ZDKIZQ","","null","<img src=""img/food4.png"" style=""width:200px; border:14px solid green;"">","null","","","","","","","","","",""
"","image-keyboard-response","41","92227","0.0-60.0","3G2UL9A02E0KAD3AL358D89POC367A","ACAJFF4MF5S5X","3ECKRY5B1QIH1N6NFX1ECCW5ZDKIZQ","","643.4000000059605","img/food1.png","74","644.6000000014901","1","1","false","3","2","1,0.5,0,1,0.5,0,0.5,0,1","0,1,0.5,0,1,0.5,1,0.5,0","3",""
"","html-keyboard-response","42","92529","0.0-61.0","3G2UL9A02E0KAD3AL358D89POC367A","ACAJFF4MF5S5X","3ECKRY5B1QIH1N6NFX1ECCW5ZDKIZQ","","null","<img src=""img/food1.png"" style=""width:200px; border:14px solid green;"">","null","","","","","","","","","",""
"","image-keyboard-response","43","93224","0.0-63.0","3G2UL9A02E0KAD3AL358D89POC367A","ACAJFF4MF5S5X","3ECKRY5B1QIH1N6NFX1ECCW5ZDKIZQ","","693.1000000014901","img/food1.png","74","694.1000000014901","1","1","false","3","2","1,0.5,0,1,0.5,0,0.5,0,1","0,1,0.5,0,1,0.5,1,0.5,0","3",""
"","html-keyboard-response","44","93527","0.0-64.0","3G2UL9A02E0KAD3AL358D89POC367A","ACAJFF4MF5S5X","3ECKRY5B1QIH1N6NFX1ECCW5ZDKIZQ","","null","<img src=""img/food1.png"" style=""width:200px; border:14px solid green;"">","null","","","","","","","","","",""
"","image-keyboard-response","45","94032","0.0-66.0","3G2UL9A02E0KAD3AL358D89POC367A","ACAJFF4MF5S5X","3ECKRY5B1QIH1N6NFX1ECCW5ZDKIZQ","","504","img/food3.png","75","505.1000000014901","2","1","false","2","2","1,0.5,0,1,0.5,0,0.5,0,1","0,1,0.5,0,1,0.5,1,0.5,0","3",""
"","html-keyboard-response","46","94335","0.0-67.0","3G2UL9A02E0KAD3AL358D89POC367A","ACAJFF4MF5S5X","3ECKRY5B1QIH1N6NFX1ECCW5ZDKIZQ","","null","<img src=""img/food3.png"" style=""width:200px; border:14px solid green;"">","null","","","","","","","","","",""
"","image-keyboard-response","47","94775","0.0-69.0","3G2UL9A02E0KAD3AL358D89POC367A","ACAJFF4MF5S5X","3ECKRY5B1QIH1N6NFX1ECCW5ZDKIZQ","","439.5","img/food3.png","75","440.6000000014901","2","1","false","2","2","1,0.5,0,1,0.5,0,0.5,0,1","0,1,0.5,0,1,0.5,1,0.5,0","3",""
"","html-keyboard-response","48","95078","0.0-70.0","3G2UL9A02E0KAD3AL358D89POC367A","ACAJFF4MF5S5X","3ECKRY5B1QIH1N6NFX1ECCW5ZDKIZQ","","null","<img src=""img/food3.png"" style=""width:200px; border:14px solid green;"">","null","","","","","","","","","",""
"","image-keyboard-response","49","95592","0.0-72.0","3G2UL9A02E0KAD3AL358D89POC367A","ACAJFF4MF5S5X","3ECKRY5B1QIH1N6NFX1ECCW5ZDKIZQ","","512.5999999940395","img/food1.png","74","513.7000000029802","1","1","false","3","2","1,0.5,0,1,0.5,0,0.5,0,1","0,1,0.5,0,1,0.5,1,0.5,0","3",""
"","html-keyboard-response","50","95894","0.0-73.0","3G2UL9A02E0KAD3AL358D89POC367A","ACAJFF4MF5S5X","3ECKRY5B1QIH1N6NFX1ECCW5ZDKIZQ","","null","<img src=""img/food1.png"" style=""width:200px; border:14px solid green;"">","null","","","","","","","","","",""
"","image-keyboard-response","51","96504","0.0-75.0","3G2UL9A02E0KAD3AL358D89POC367A","ACAJFF4MF5S5X","3ECKRY5B1QIH1N6NFX1ECCW5ZDKIZQ","","609","img/food4.png","74","609.8999999985099","1","0","false","1","2","1,0.5,0,1,0.5,0,0.5,0,1","0,1,0.5,0,1,0.5,1,0.5,0","3",""
"","html-keyboard-response","52","96807","0.0-76.0","3G2UL9A02E0KAD3AL358D89POC367A","ACAJFF4MF5S5X","3ECKRY5B1QIH1N6NFX1ECCW5ZDKIZQ","","null","<img src=""img/food4.png"" style=""width:200px;border:14px solid red;"">","null","","","","","","","","","",""
"","image-keyboard-response","53","97376","0.0-78.0","3G2UL9A02E0KAD3AL358D89POC367A","ACAJFF4MF5S5X","3ECKRY5B1QIH1N6NFX1ECCW5ZDKIZQ","","567.6000000014901","img/food3.png","75","568.6000000014901","2","1","false","2","2","1,0.5,0,1,0.5,0,0.5,0,1","0,1,0.5,0,1,0.5,1,0.5,0","3",""
"","html-keyboard-response","54","97678","0.0-79.0","3G2UL9A02E0KAD3AL358D89POC367A","ACAJFF4MF5S5X","3ECKRY5B1QIH1N6NFX1ECCW5ZDKIZQ","","null","<img src=""img/food3.png"" style=""width:200px; border:14px solid green;"">","null","","","","","","","","","",""
"","image-keyboard-response","55","98087","0.0-81.0","3G2UL9A02E0KAD3AL358D89POC367A","ACAJFF4MF5S5X","3ECKRY5B1QIH1N6NFX1ECCW5ZDKIZQ","","407.5","img/food3.png","75","408.6000000014901","2","1","false","2","2","1,0.5,0,1,0.5,0,0.5,0,1","0,1,0.5,0,1,0.5,1,0.5,0","3",""
"","html-keyboard-response","56","98390","0.0-82.0","3G2UL9A02E0KAD3AL358D89POC367A","ACAJFF4MF5S5X","3ECKRY5B1QIH1N6NFX1ECCW5ZDKIZQ","","null","<img src=""img/food3.png"" style=""width:200px; border:14px solid green;"">","null","","","","","","","","","",""
"","image-keyboard-response","57","99064","0.0-84.0","3G2UL9A02E0KAD3AL358D89POC367A","ACAJFF4MF5S5X","3ECKRY5B1QIH1N6NFX1ECCW5ZDKIZQ","","672.3999999985099","img/food1.png","74","673.4000000059605","1","1","false","3","2","1,0.5,0,1,0.5,0,0.5,0,1","0,1,0.5,0,1,0.5,1,0.5,0","3",""
"","html-keyboard-response","58","99366","0.0-85.0","3G2UL9A02E0KAD3AL358D89POC367A","ACAJFF4MF5S5X","3ECKRY5B1QIH1N6NFX1ECCW5ZDKIZQ","","null","<img src=""img/food1.png"" style=""width:200px; border:14px solid green;"">","null","","","","","","","","","",""
"","image-keyboard-response","59","99680","0.0-87.0","3G2UL9A02E0KAD3AL358D89POC367A","ACAJFF4MF5S5X","3ECKRY5B1QIH1N6NFX1ECCW5ZDKIZQ","","312.6000000014901","img/food1.png","74","313.69999999552965","1","1","false","3","2","1,0.5,0,1,0.5,0,0.5,0,1","0,1,0.5,0,1,0.5,1,0.5,0","3",""
"","html-keyboard-response","60","99982","0.0-88.0","3G2UL9A02E0KAD3AL358D89POC367A","ACAJFF4MF5S5X","3ECKRY5B1QIH1N6NFX1ECCW5ZDKIZQ","","null","<img src=""img/food1.png"" style=""width:200px; border:14px solid green;"">","null","","","","","","","","","",""
"","image-keyboard-response","61","100320","0.0-90.0","3G2UL9A02E0KAD3AL358D89POC367A","ACAJFF4MF5S5X","3ECKRY5B1QIH1N6NFX1ECCW5ZDKIZQ","","337.29999999701977","img/food1.png","74","338.5","1","1","false","3","2","1,0.5,0,1,0.5,0,0.5,0,1","0,1,0.5,0,1,0.5,1,0.5,0","3",""
"","html-keyboard-response","62","100622","0.0-91.0","3G2UL9A02E0KAD3AL358D89POC367A","ACAJFF4MF5S5X","3ECKRY5B1QIH1N6NFX1ECCW5ZDKIZQ","","null","<img src=""img/food1.png"" style=""width:200px; border:14px solid green;"">","null","","","","","","","","","",""
"","image-keyboard-response","63","101032","0.0-93.0","3G2UL9A02E0KAD3AL358D89POC367A","ACAJFF4MF5S5X","3ECKRY5B1QIH1N6NFX1ECCW5ZDKIZQ","","408.20000000298023","img/food3.png","74","409.19999999552965","1","0","false","2","2","1,0.5,0,1,0.5,0,0.5,0,1","0,1,0.5,0,1,0.5,1,0.5,0","3",""
"","html-keyboard-response","64","101334","0.0-94.0","3G2UL9A02E0KAD3AL358D89POC367A","ACAJFF4MF5S5X","3ECKRY5B1QIH1N6NFX1ECCW5ZDKIZQ","","null","<img src=""img/food3.png"" style=""width:200px;border:14px solid red;"">","null","","","","","","","","","",""
"","image-keyboard-response","65","101608","0.0-96.0","3G2UL9A02E0KAD3AL358D89POC367A","ACAJFF4MF5S5X","3ECKRY5B1QIH1N6NFX1ECCW5ZDKIZQ","","272.69999999552965","img/food3.png","75","273.90000000596046","2","1","false","2","2","1,0.5,0,1,0.5,0,0.5,0,1","0,1,0.5,0,1,0.5,1,0.5,0","3",""
"","html-keyboard-response","66","101909","0.0-97.0","3G2UL9A02E0KAD3AL358D89POC367A","ACAJFF4MF5S5X","3ECKRY5B1QIH1N6NFX1ECCW5ZDKIZQ","","null","<img src=""img/food3.png"" style=""width:200px; border:14px solid green;"">","null","","","","","","","","","",""
"","image-keyboard-response","67","102274","0.0-99.0","3G2UL9A02E0KAD3AL358D89POC367A","ACAJFF4MF5S5X","3ECKRY5B1QIH1N6NFX1ECCW5ZDKIZQ","","363.8999999985099","img/food3.png","75","364.69999999552965","2","1","false","2","2","1,0.5,0,1,0.5,0,0.5,0,1","0,1,0.5,0,1,0.5,1,0.5,0","3",""
"","html-keyboard-response","68","102577","0.0-100.0","3G2UL9A02E0KAD3AL358D89POC367A","ACAJFF4MF5S5X","3ECKRY5B1QIH1N6NFX1ECCW5ZDKIZQ","","null","<img src=""img/food3.png"" style=""width:200px; border:14px solid green;"">","null","","","","","","","","","",""
"","image-keyboard-response","69","103272","0.0-102.0","3G2UL9A02E0KAD3AL358D89POC367A","ACAJFF4MF5S5X","3ECKRY5B1QIH1N6NFX1ECCW5ZDKIZQ","","692.8999999985099","img/food4.png","75","694.2000000029802","2","1","false","1","2","1,0.5,0,1,0.5,0,0.5,0,1","0,1,0.5,0,1,0.5,1,0.5,0","3",""
"","html-keyboard-response","70","103574","0.0-103.0","3G2UL9A02E0KAD3AL358D89POC367A","ACAJFF4MF5S5X","3ECKRY5B1QIH1N6NFX1ECCW5ZDKIZQ","","null","<img src=""img/food4.png"" style=""width:200px; border:14px solid green;"">","null","","","","","","","","","",""
"","image-keyboard-response","71","104080","0.0-105.0","3G2UL9A02E0KAD3AL358D89POC367A","ACAJFF4MF5S5X","3ECKRY5B1QIH1N6NFX1ECCW5ZDKIZQ","","504.79999999701977","img/food4.png","75","505.70000000298023","2","1","false","1","2","1,0.5,0,1,0.5,0,0.5,0,1","0,1,0.5,0,1,0.5,1,0.5,0","3",""
"","html-keyboard-response","72","104382","0.0-106.0","3G2UL9A02E0KAD3AL358D89POC367A","ACAJFF4MF5S5X","3ECKRY5B1QIH1N6NFX1ECCW5ZDKIZQ","","null","<img src=""img/food4.png"" style=""width:200px; border:14px solid green;"">","null","","","","","","","","","",""
"","image-keyboard-response","73","104904","0.0-108.0","3G2UL9A02E0KAD3AL358D89POC367A","ACAJFF4MF5S5X","3ECKRY5B1QIH1N6NFX1ECCW5ZDKIZQ","","520.1999999955297","img/food1.png","74","521.2000000029802","1","1","false","3","2","1,0.5,0,1,0.5,0,0.5,0,1","0,1,0.5,0,1,0.5,1,0.5,0","3",""
"","html-keyboard-response","74","105207","0.0-109.0","3G2UL9A02E0KAD3AL358D89POC367A","ACAJFF4MF5S5X","3ECKRY5B1QIH1N6NFX1ECCW5ZDKIZQ","","null","<img src=""img/food1.png"" style=""width:200px; border:14px solid green;"">","null","","","","","","","","","",""
"","image-keyboard-response","75","105536","0.0-111.0","3G2UL9A02E0KAD3AL358D89POC367A","ACAJFF4MF5S5X","3ECKRY5B1QIH1N6NFX1ECCW5ZDKIZQ","","328","img/food1.png","74","329.1000000014901","1","1","false","3","2","1,0.5,0,1,0.5,0,0.5,0,1","0,1,0.5,0,1,0.5,1,0.5,0","3",""
"","html-keyboard-response","76","105838","0.0-112.0","3G2UL9A02E0KAD3AL358D89POC367A","ACAJFF4MF5S5X","3ECKRY5B1QIH1N6NFX1ECCW5ZDKIZQ","","null","<img src=""img/food1.png"" style=""width:200px; border:14px solid green;"">","null","","","","","","","","","",""
"","image-keyboard-response","77","106287","0.0-114.0","3G2UL9A02E0KAD3AL358D89POC367A","ACAJFF4MF5S5X","3ECKRY5B1QIH1N6NFX1ECCW5ZDKIZQ","","448","img/food4.png","75","449","2","1","false","1","2","1,0.5,0,1,0.5,0,0.5,0,1","0,1,0.5,0,1,0.5,1,0.5,0","3",""
"","html-keyboard-response","78","106589","0.0-115.0","3G2UL9A02E0KAD3AL358D89POC367A","ACAJFF4MF5S5X","3ECKRY5B1QIH1N6NFX1ECCW5ZDKIZQ","","null","<img src=""img/food4.png"" style=""width:200px; border:14px solid green;"">","null","","","","","","","","","",""
"","image-keyboard-response","79","107047","0.0-117.0","3G2UL9A02E0KAD3AL358D89POC367A","ACAJFF4MF5S5X","3ECKRY5B1QIH1N6NFX1ECCW5ZDKIZQ","","456.6000000014901","img/food3.png","75","457.5","2","1","false","2","2","1,0.5,0,1,0.5,0,0.5,0,1","0,1,0.5,0,1,0.5,1,0.5,0","3",""
"","html-keyboard-response","80","107349","0.0-118.0","3G2UL9A02E0KAD3AL358D89POC367A","ACAJFF4MF5S5X","3ECKRY5B1QIH1N6NFX1ECCW5ZDKIZQ","","null","<img src=""img/food3.png"" style=""width:200px; border:14px solid green;"">","null","","","","","","","","","",""
"","image-keyboard-response","81","107792","0.0-120.0","3G2UL9A02E0KAD3AL358D89POC367A","ACAJFF4MF5S5X","3ECKRY5B1QIH1N6NFX1ECCW5ZDKIZQ","","440.80000000447035","img/food1.png","75","442","2","0","false","3","2","1,0.5,0,1,0.5,0,0.5,0,1","0,1,0.5,0,1,0.5,1,0.5,0","3",""
"","html-keyboard-response","82","108093","0.0-121.0","3G2UL9A02E0KAD3AL358D89POC367A","ACAJFF4MF5S5X","3ECKRY5B1QIH1N6NFX1ECCW5ZDKIZQ","","null","<img src=""img/food1.png"" style=""width:200px;border:14px solid red;"">","null","","","","","","","","","",""
"","image-keyboard-response","83","108744","0.0-123.0","3G2UL9A02E0KAD3AL358D89POC367A","ACAJFF4MF5S5X","3ECKRY5B1QIH1N6NFX1ECCW5ZDKIZQ","","648.6999999955297","img/food4.png","75","649.8000000044703","2","1","false","1","2","1,0.5,0,1,0.5,0,0.5,0,1","0,1,0.5,0,1,0.5,1,0.5,0","3",""
"","html-keyboard-response","84","109046","0.0-124.0","3G2UL9A02E0KAD3AL358D89POC367A","ACAJFF4MF5S5X","3ECKRY5B1QIH1N6NFX1ECCW5ZDKIZQ","","null","<img src=""img/food4.png"" style=""width:200px; border:14px solid green;"">","null","","","","","","","","","",""
"","image-keyboard-response","85","109416","0.0-126.0","3G2UL9A02E0KAD3AL358D89POC367A","ACAJFF4MF5S5X","3ECKRY5B1QIH1N6NFX1ECCW5ZDKIZQ","","368.29999999701977","img/food4.png","75","369.3999999985099","2","1","false","1","2","1,0.5,0,1,0.5,0,0.5,0,1","0,1,0.5,0,1,0.5,1,0.5,0","3",""
"","html-keyboard-response","86","109718","0.0-127.0","3G2UL9A02E0KAD3AL358D89POC367A","ACAJFF4MF5S5X","3ECKRY5B1QIH1N6NFX1ECCW5ZDKIZQ","","null","<img src=""img/food4.png"" style=""width:200px; border:14px solid green;"">","null","","","","","","","","","",""
"","image-keyboard-response","87","110096","0.0-129.0","3G2UL9A02E0KAD3AL358D89POC367A","ACAJFF4MF5S5X","3ECKRY5B1QIH1N6NFX1ECCW5ZDKIZQ","","376.30000000447035","img/food3.png","75","377.6000000014901","2","1","false","2","2","1,0.5,0,1,0.5,0,0.5,0,1","0,1,0.5,0,1,0.5,1,0.5,0","3",""
"","html-keyboard-response","88","110398","0.0-130.0","3G2UL9A02E0KAD3AL358D89POC367A","ACAJFF4MF5S5X","3ECKRY5B1QIH1N6NFX1ECCW5ZDKIZQ","","null","<img src=""img/food3.png"" style=""width:200px; border:14px solid green;"">","null","","","","","","","","","",""
"","image-keyboard-response","89","110767","0.0-132.0","3G2UL9A02E0KAD3AL358D89POC367A","ACAJFF4MF5S5X","3ECKRY5B1QIH1N6NFX1ECCW5ZDKIZQ","","367.69999999552965","img/food3.png","75","368.90000000596046","2","1","false","2","2","1,0.5,0,1,0.5,0,0.5,0,1","0,1,0.5,0,1,0.5,1,0.5,0","3",""
"","html-keyboard-response","90","111070","0.0-133.0","3G2UL9A02E0KAD3AL358D89POC367A","ACAJFF4MF5S5X","3ECKRY5B1QIH1N6NFX1ECCW5ZDKIZQ","","null","<img src=""img/food3.png"" style=""width:200px; border:14px solid green;"">","null","","","","","","","","","",""
"","image-keyboard-response","91","111432","0.0-135.0","3G2UL9A02E0KAD3AL358D89POC367A","ACAJFF4MF5S5X","3ECKRY5B1QIH1N6NFX1ECCW5ZDKIZQ","","360.69999999552965","img/food1.png","74","361.80000000447035","1","1","false","3","2","1,0.5,0,1,0.5,0,0.5,0,1","0,1,0.5,0,1,0.5,1,0.5,0","3",""
"","html-keyboard-response","92","111734","0.0-136.0","3G2UL9A02E0KAD3AL358D89POC367A","ACAJFF4MF5S5X","3ECKRY5B1QIH1N6NFX1ECCW5ZDKIZQ","","null","<img src=""img/food1.png"" style=""width:200px; border:14px solid green;"">","null","","","","","","","","","",""
"","image-keyboard-response","93","112016","0.0-138.0","3G2UL9A02E0KAD3AL358D89POC367A","ACAJFF4MF5S5X","3ECKRY5B1QIH1N6NFX1ECCW5ZDKIZQ","","280.69999999552965","img/food1.png","75","281.80000000447035","2","1","false","3","2","1,0.5,0,1,0.5,0,0.5,0,1","0,1,0.5,0,1,0.5,1,0.5,0","3",""
"","html-keyboard-response","94","112318","0.0-139.0","3G2UL9A02E0KAD3AL358D89POC367A","ACAJFF4MF5S5X","3ECKRY5B1QIH1N6NFX1ECCW5ZDKIZQ","","null","<img src=""img/food1.png"" style=""width:200px; border:14px solid green;"">","null","","","","","","","","","",""
"","image-keyboard-response","95","112890","0.0-141.0","3G2UL9A02E0KAD3AL358D89POC367A","ACAJFF4MF5S5X","3ECKRY5B1QIH1N6NFX1ECCW5ZDKIZQ","","571","img/food3.png","75","572.2000000029802","2","1","false","2","2","1,0.5,0,1,0.5,0,0.5,0,1","0,1,0.5,0,1,0.5,1,0.5,0","3",""
"","html-keyboard-response","96","113192","0.0-142.0","3G2UL9A02E0KAD3AL358D89POC367A","ACAJFF4MF5S5X","3ECKRY5B1QIH1N6NFX1ECCW5ZDKIZQ","","null","<img src=""img/food3.png"" style=""width:200px; border:14px solid green;"">","null","","","","","","","","","",""
"","image-keyboard-response","97","113744","0.0-144.0","3G2UL9A02E0KAD3AL358D89POC367A","ACAJFF4MF5S5X","3ECKRY5B1QIH1N6NFX1ECCW5ZDKIZQ","","550","img/food1.png","74","551.1000000014901","1","1","false","3","2","1,0.5,0,1,0.5,0,0.5,0,1","0,1,0.5,0,1,0.5,1,0.5,0","3",""
"","html-keyboard-response","98","114046","0.0-145.0","3G2UL9A02E0KAD3AL358D89POC367A","ACAJFF4MF5S5X","3ECKRY5B1QIH1N6NFX1ECCW5ZDKIZQ","","null","<img src=""img/food1.png"" style=""width:200px; border:14px solid green;"">","null","","","","","","","","","",""
"","image-keyboard-response","99","114552","0.0-147.0","3G2UL9A02E0KAD3AL358D89POC367A","ACAJFF4MF5S5X","3ECKRY5B1QIH1N6NFX1ECCW5ZDKIZQ","","504.20000000298023","img/food4.png","75","505.29999999701977","2","1","false","1","2","1,0.5,0,1,0.5,0,0.5,0,1","0,1,0.5,0,1,0.5,1,0.5,0","3",""
"","html-keyboard-response","100","114853","0.0-148.0","3G2UL9A02E0KAD3AL358D89POC367A","ACAJFF4MF5S5X","3ECKRY5B1QIH1N6NFX1ECCW5ZDKIZQ","","null","<img src=""img/food4.png"" style=""width:200px; border:14px solid green;"">","null","","","","","","","","","",""
"","image-keyboard-response","101","115136","0.0-150.0","3G2UL9A02E0KAD3AL358D89POC367A","ACAJFF4MF5S5X","3ECKRY5B1QIH1N6NFX1ECCW5ZDKIZQ","","278.80000000447035","img/food3.png","75","279.8999999985099","2","1","false","2","2","1,0.5,0,1,0.5,0,0.5,0,1","0,1,0.5,0,1,0.5,1,0.5,0","3",""
"","html-keyboard-response","102","115437","0.0-151.0","3G2UL9A02E0KAD3AL358D89POC367A","ACAJFF4MF5S5X","3ECKRY5B1QIH1N6NFX1ECCW5ZDKIZQ","","null","<img src=""img/food3.png"" style=""width:200px; border:14px solid green;"">","null","","","","","","","","","",""
"","image-keyboard-response","103","115840","0.0-153.0","3G2UL9A02E0KAD3AL358D89POC367A","ACAJFF4MF5S5X","3ECKRY5B1QIH1N6NFX1ECCW5ZDKIZQ","","401.8999999985099","img/food4.png","75","402.59999999403954","2","1","false","1","2","1,0.5,0,1,0.5,0,0.5,0,1","0,1,0.5,0,1,0.5,1,0.5,0","3",""
"","html-keyboard-response","104","116142","0.0-154.0","3G2UL9A02E0KAD3AL358D89POC367A","ACAJFF4MF5S5X","3ECKRY5B1QIH1N6NFX1ECCW5ZDKIZQ","","null","<img src=""img/food4.png"" style=""width:200px; border:14px solid green;"">","null","","","","","","","","","",""
"","image-keyboard-response","105","116432","0.0-156.0","3G2UL9A02E0KAD3AL358D89POC367A","ACAJFF4MF5S5X","3ECKRY5B1QIH1N6NFX1ECCW5ZDKIZQ","","288.8999999985099","img/food4.png","75","289.80000000447035","2","1","false","1","2","1,0.5,0,1,0.5,0,0.5,0,1","0,1,0.5,0,1,0.5,1,0.5,0","3",""
"","html-keyboard-response","106","116734","0.0-157.0","3G2UL9A02E0KAD3AL358D89POC367A","ACAJFF4MF5S5X","3ECKRY5B1QIH1N6NFX1ECCW5ZDKIZQ","","null","<img src=""img/food4.png"" style=""width:200px; border:14px solid green;"">","null","","","","","","","","","",""
"","image-keyboard-response","107","117160","0.0-159.0","3G2UL9A02E0KAD3AL358D89POC367A","ACAJFF4MF5S5X","3ECKRY5B1QIH1N6NFX1ECCW5ZDKIZQ","","424.5","img/food1.png","74","425.59999999403954","1","1","false","3","2","1,0.5,0,1,0.5,0,0.5,0,1","0,1,0.5,0,1,0.5,1,0.5,0","3",""
"","html-keyboard-response","108","117462","0.0-160.0","3G2UL9A02E0KAD3AL358D89POC367A","ACAJFF4MF5S5X","3ECKRY5B1QIH1N6NFX1ECCW5ZDKIZQ","","null","<img src=""img/food1.png"" style=""width:200px; border:14px solid green;"">","null","","","","","","","","","",""
"","image-keyboard-response","109","117807","0.0-162.0","3G2UL9A02E0KAD3AL358D89POC367A","ACAJFF4MF5S5X","3ECKRY5B1QIH1N6NFX1ECCW5ZDKIZQ","","344.30000000447035","img/food3.png","75","345.3999999985099","2","1","false","2","2","1,0.5,0,1,0.5,0,0.5,0,1","0,1,0.5,0,1,0.5,1,0.5,0","3",""
"","html-keyboard-response","110","118110","0.0-163.0","3G2UL9A02E0KAD3AL358D89POC367A","ACAJFF4MF5S5X","3ECKRY5B1QIH1N6NFX1ECCW5ZDKIZQ","","null","<img src=""img/food3.png"" style=""width:200px; border:14px solid green;"">","null","","","","","","","","","",""
"","image-keyboard-response","111","118472","0.0-165.0","3G2UL9A02E0KAD3AL358D89POC367A","ACAJFF4MF5S5X","3ECKRY5B1QIH1N6NFX1ECCW5ZDKIZQ","","360.90000000596046","img/food1.png","75","361.79999999701977","2","1","false","3","2","1,0.5,0,1,0.5,0,0.5,0,1","0,1,0.5,0,1,0.5,1,0.5,0","3",""
"","html-keyboard-response","112","118774","0.0-166.0","3G2UL9A02E0KAD3AL358D89POC367A","ACAJFF4MF5S5X","3ECKRY5B1QIH1N6NFX1ECCW5ZDKIZQ","","null","<img src=""img/food1.png"" style=""width:200px; border:14px solid green;"">","null","","","","","","","","","",""
"","image-keyboard-response","113","119384","0.0-168.0","3G2UL9A02E0KAD3AL358D89POC367A","ACAJFF4MF5S5X","3ECKRY5B1QIH1N6NFX1ECCW5ZDKIZQ","","608.3999999985099","img/food1.png","74","609.5","1","1","false","3","2","1,0.5,0,1,0.5,0,0.5,0,1","0,1,0.5,0,1,0.5,1,0.5,0","3",""
"","html-keyboard-response","114","119685","0.0-169.0","3G2UL9A02E0KAD3AL358D89POC367A","ACAJFF4MF5S5X","3ECKRY5B1QIH1N6NFX1ECCW5ZDKIZQ","","null","<img src=""img/food1.png"" style=""width:200px; border:14px solid green;"">","null","","","","","","","","","",""
"","image-keyboard-response","115","120240","0.0-171.0","3G2UL9A02E0KAD3AL358D89POC367A","ACAJFF4MF5S5X","3ECKRY5B1QIH1N6NFX1ECCW5ZDKIZQ","","552.5","img/food4.png","75","554","2","1","false","1","2","1,0.5,0,1,0.5,0,0.5,0,1","0,1,0.5,0,1,0.5,1,0.5,0","3",""
"","html-keyboard-response","116","120542","0.0-172.0","3G2UL9A02E0KAD3AL358D89POC367A","ACAJFF4MF5S5X","3ECKRY5B1QIH1N6NFX1ECCW5ZDKIZQ","","null","<img src=""img/food4.png"" style=""width:200px; border:14px solid green;"">","null","","","","","","","","","",""
"","image-keyboard-response","117","120936","0.0-174.0","3G2UL9A02E0KAD3AL358D89POC367A","ACAJFF4MF5S5X","3ECKRY5B1QIH1N6NFX1ECCW5ZDKIZQ","","392.5","img/food3.png","75","393.6000000014901","2","1","false","2","2","1,0.5,0,1,0.5,0,0.5,0,1","0,1,0.5,0,1,0.5,1,0.5,0","3",""
"","html-keyboard-response","118","121238","0.0-175.0","3G2UL9A02E0KAD3AL358D89POC367A","ACAJFF4MF5S5X","3ECKRY5B1QIH1N6NFX1ECCW5ZDKIZQ","","null","<img src=""img/food3.png"" style=""width:200px; border:14px solid green;"">","null","","","","","","","","","",""
"","image-keyboard-response","119","121687","0.0-177.0","3G2UL9A02E0KAD3AL358D89POC367A","ACAJFF4MF5S5X","3ECKRY5B1QIH1N6NFX1ECCW5ZDKIZQ","","447.5","img/food1.png","74","448.6000000014901","1","1","false","3","2","1,0.5,0,1,0.5,0,0.5,0,1","0,1,0.5,0,1,0.5,1,0.5,0","3",""
"","html-keyboard-response","120","121989","0.0-178.0","3G2UL9A02E0KAD3AL358D89POC367A","ACAJFF4MF5S5X","3ECKRY5B1QIH1N6NFX1ECCW5ZDKIZQ","","null","<img src=""img/food1.png"" style=""width:200px; border:14px solid green;"">","null","","","","","","","","","",""
"","image-keyboard-response","121","122464","0.0-180.0","3G2UL9A02E0KAD3AL358D89POC367A","ACAJFF4MF5S5X","3ECKRY5B1QIH1N6NFX1ECCW5ZDKIZQ","","473.3999999985099","img/food4.png","75","474.6000000014901","2","1","false","1","2","1,0.5,0,1,0.5,0,0.5,0,1","0,1,0.5,0,1,0.5,1,0.5,0","3",""
"","html-keyboard-response","122","122766","0.0-181.0","3G2UL9A02E0KAD3AL358D89POC367A","ACAJFF4MF5S5X","3ECKRY5B1QIH1N6NFX1ECCW5ZDKIZQ","","null","<img src=""img/food4.png"" style=""width:200px; border:14px solid green;"">","null","","","","","","","","","",""
"","image-keyboard-response","123","123250","0.0-183.0","3G2UL9A02E0KAD3AL358D89POC367A","ACAJFF4MF5S5X","3ECKRY5B1QIH1N6NFX1ECCW5ZDKIZQ","","482.30000000447035","img/food3.png","75","483.6000000014901","2","1","false","2","2","1,0.5,0,1,0.5,0,0.5,0,1","0,1,0.5,0,1,0.5,1,0.5,0","3",""
"","html-keyboard-response","124","123552","0.0-184.0","3G2UL9A02E0KAD3AL358D89POC367A","ACAJFF4MF5S5X","3ECKRY5B1QIH1N6NFX1ECCW5ZDKIZQ","","null","<img src=""img/food3.png"" style=""width:200px; border:14px solid green;"">","null","","","","","","","","","",""
"","image-keyboard-response","125","124072","0.0-186.0","3G2UL9A02E0KAD3AL358D89POC367A","ACAJFF4MF5S5X","3ECKRY5B1QIH1N6NFX1ECCW5ZDKIZQ","","518.3000000044703","img/food1.png","74","519.5","1","1","false","3","2","1,0.5,0,1,0.5,0,0.5,0,1","0,1,0.5,0,1,0.5,1,0.5,0","3",""
"","html-keyboard-response","126","124374","0.0-187.0","3G2UL9A02E0KAD3AL358D89POC367A","ACAJFF4MF5S5X","3ECKRY5B1QIH1N6NFX1ECCW5ZDKIZQ","","null","<img src=""img/food1.png"" style=""width:200px; border:14px solid green;"">","null","","","","","","","","","",""
"","image-keyboard-response","127","124926","0.0-189.0","3G2UL9A02E0KAD3AL358D89POC367A","ACAJFF4MF5S5X","3ECKRY5B1QIH1N6NFX1ECCW5ZDKIZQ","","551","img/food3.png","75","552","2","1","false","2","2","1,0.5,0,1,0.5,0,0.5,0,1","0,1,0.5,0,1,0.5,1,0.5,0","3",""
"","html-keyboard-response","128","125228","0.0-190.0","3G2UL9A02E0KAD3AL358D89POC367A","ACAJFF4MF5S5X","3ECKRY5B1QIH1N6NFX1ECCW5ZDKIZQ","","null","<img src=""img/food3.png"" style=""width:200px; border:14px solid green;"">","null","","","","","","","","","",""
"","image-keyboard-response","129","125680","0.0-192.0","3G2UL9A02E0KAD3AL358D89POC367A","ACAJFF4MF5S5X","3ECKRY5B1QIH1N6NFX1ECCW5ZDKIZQ","","449.90000000596046","img/food3.png","75","451.1000000014901","2","1","false","2","2","1,0.5,0,1,0.5,0,0.5,0,1","0,1,0.5,0,1,0.5,1,0.5,0","3",""
"","html-keyboard-response","130","125981","0.0-193.0","3G2UL9A02E0KAD3AL358D89POC367A","ACAJFF4MF5S5X","3ECKRY5B1QIH1N6NFX1ECCW5ZDKIZQ","","null","<img src=""img/food3.png"" style=""width:200px; border:14px solid green;"">","null","","","","","","","","","",""
"","image-keyboard-response","131","126480","0.0-195.0","3G2UL9A02E0KAD3AL358D89POC367A","ACAJFF4MF5S5X","3ECKRY5B1QIH1N6NFX1ECCW5ZDKIZQ","","496.90000000596046","img/food1.png","74","498","1","1","false","3","2","1,0.5,0,1,0.5,0,0.5,0,1","0,1,0.5,0,1,0.5,1,0.5,0","3",""
"","html-keyboard-response","132","126781","0.0-196.0","3G2UL9A02E0KAD3AL358D89POC367A","ACAJFF4MF5S5X","3ECKRY5B1QIH1N6NFX1ECCW5ZDKIZQ","","null","<img src=""img/food1.png"" style=""width:200px; border:14px solid green;"">","null","","","","","","","","","",""
"","image-keyboard-response","133","127231","0.0-198.0","3G2UL9A02E0KAD3AL358D89POC367A","ACAJFF4MF5S5X","3ECKRY5B1QIH1N6NFX1ECCW5ZDKIZQ","","448.6000000014901","img/food3.png","75","449.79999999701977","2","1","false","2","2","1,0.5,0,1,0.5,0,0.5,0,1","0,1,0.5,0,1,0.5,1,0.5,0","3",""
"","html-keyboard-response","134","127533","0.0-199.0","3G2UL9A02E0KAD3AL358D89POC367A","ACAJFF4MF5S5X","3ECKRY5B1QIH1N6NFX1ECCW5ZDKIZQ","","null","<img src=""img/food3.png"" style=""width:200px; border:14px solid green;"">","null","","","","","","","","","",""
"","image-keyboard-response","135","128536","0.0-201.0","3G2UL9A02E0KAD3AL358D89POC367A","ACAJFF4MF5S5X","3ECKRY5B1QIH1N6NFX1ECCW5ZDKIZQ","","","img/food4.png","","1002.8999999985099","-1","0","true","1","2","1,0.5,0,1,0.5,0,0.5,0,1","0,1,0.5,0,1,0.5,1,0.5,0","3",""
"","html-keyboard-response","136","128839","0.0-202.0","3G2UL9A02E0KAD3AL358D89POC367A","ACAJFF4MF5S5X","3ECKRY5B1QIH1N6NFX1ECCW5ZDKIZQ","","null","<img src=""img/food4.png"" style=""width:200px;border:14px solid red;"">","null","","","","","","","","","",""
"","html-keyboard-response","137","132876","0.0-203.0-0.0","3G2UL9A02E0KAD3AL358D89POC367A","ACAJFF4MF5S5X","3ECKRY5B1QIH1N6NFX1ECCW5ZDKIZQ","","","","","","","","","","","","","",""
"","image-keyboard-response","138","133879","0.0-204.0","3G2UL9A02E0KAD3AL358D89POC367A","ACAJFF4MF5S5X","3ECKRY5B1QIH1N6NFX1ECCW5ZDKIZQ","","","img/food4.png","","1002.6999999955297","-1","0","true","1","2","1,0.5,0,1,0.5,0,0.5,0,1","0,1,0.5,0,1,0.5,1,0.5,0","3",""
"","html-keyboard-response","139","134181","0.0-205.0","3G2UL9A02E0KAD3AL358D89POC367A","ACAJFF4MF5S5X","3ECKRY5B1QIH1N6NFX1ECCW5ZDKIZQ","","null","<img src=""img/food4.png"" style=""width:200px;border:14px solid red;"">","null","","","","","","","","","",""
"","html-keyboard-response","140","138334","0.0-206.0-0.0","3G2UL9A02E0KAD3AL358D89POC367A","ACAJFF4MF5S5X","3ECKRY5B1QIH1N6NFX1ECCW5ZDKIZQ","","","","","","","","","","","","","",""
"","image-keyboard-response","141","138623","0.0-207.0","3G2UL9A02E0KAD3AL358D89POC367A","ACAJFF4MF5S5X","3ECKRY5B1QIH1N6NFX1ECCW5ZDKIZQ","","287.90000000596046","img/food4.png","75","288.79999999701977","2","1","false","1","2","1,0.5,0,1,0.5,0,0.5,0,1","0,1,0.5,0,1,0.5,1,0.5,0","3",""
"","html-keyboard-response","142","138925","0.0-208.0","3G2UL9A02E0KAD3AL358D89POC367A","ACAJFF4MF5S5X","3ECKRY5B1QIH1N6NFX1ECCW5ZDKIZQ","","null","<img src=""img/food4.png"" style=""width:200px; border:14px solid green;"">","null","","","","","","","","","",""
"","image-keyboard-response","143","139279","0.0-210.0","3G2UL9A02E0KAD3AL358D89POC367A","ACAJFF4MF5S5X","3ECKRY5B1QIH1N6NFX1ECCW5ZDKIZQ","","353.3999999985099","img/food1.png","75","354.5","2","1","false","3","2","1,0.5,0,1,0.5,0,0.5,0,1","0,1,0.5,0,1,0.5,1,0.5,0","3",""
"","html-keyboard-response","144","139581","0.0-211.0","3G2UL9A02E0KAD3AL358D89POC367A","ACAJFF4MF5S5X","3ECKRY5B1QIH1N6NFX1ECCW5ZDKIZQ","","null","<img src=""img/food1.png"" style=""width:200px; border:14px solid green;"">","null","","","","","","","","","",""
"","image-keyboard-response","145","139976","0.0-213.0","3G2UL9A02E0KAD3AL358D89POC367A","ACAJFF4MF5S5X","3ECKRY5B1QIH1N6NFX1ECCW5ZDKIZQ","","392.5","img/food1.png","75","393.70000000298023","2","0","false","3","2","1,0.5,0,1,0.5,0,0.5,0,1","0,1,0.5,0,1,0.5,1,0.5,0","3",""
"","html-keyboard-response","146","140278","0.0-214.0","3G2UL9A02E0KAD3AL358D89POC367A","ACAJFF4MF5S5X","3ECKRY5B1QIH1N6NFX1ECCW5ZDKIZQ","","null","<img src=""img/food1.png"" style=""width:200px;border:14px solid red;"">","null","","","","","","","","","",""
"","image-keyboard-response","147","140711","0.0-216.0","3G2UL9A02E0KAD3AL358D89POC367A","ACAJFF4MF5S5X","3ECKRY5B1QIH1N6NFX1ECCW5ZDKIZQ","","432","img/food1.png","74","433.09999999403954","1","1","false","3","2","1,0.5,0,1,0.5,0,0.5,0,1","0,1,0.5,0,1,0.5,1,0.5,0","3",""
"","html-keyboard-response","148","141013","0.0-217.0","3G2UL9A02E0KAD3AL358D89POC367A","ACAJFF4MF5S5X","3ECKRY5B1QIH1N6NFX1ECCW5ZDKIZQ","","null","<img src=""img/food1.png"" style=""width:200px; border:14px solid green;"">","null","","","","","","","","","",""
"","image-keyboard-response","149","141440","0.0-219.0","3G2UL9A02E0KAD3AL358D89POC367A","ACAJFF4MF5S5X","3ECKRY5B1QIH1N6NFX1ECCW5ZDKIZQ","","424.80000000447035","img/food3.png","75","425.79999999701977","2","1","false","2","2","1,0.5,0,1,0.5,0,0.5,0,1","0,1,0.5,0,1,0.5,1,0.5,0","3",""
"","html-keyboard-response","150","141742","0.0-220.0","3G2UL9A02E0KAD3AL358D89POC367A","ACAJFF4MF5S5X","3ECKRY5B1QIH1N6NFX1ECCW5ZDKIZQ","","null","<img src=""img/food3.png"" style=""width:200px; border:14px solid green;"">","null","","","","","","","","","",""
"","image-keyboard-response","151","142240","0.0-222.0","3G2UL9A02E0KAD3AL358D89POC367A","ACAJFF4MF5S5X","3ECKRY5B1QIH1N6NFX1ECCW5ZDKIZQ","","495.8999999985099","img/food4.png","74","497","1","0","false","1","2","1,0.5,0,1,0.5,0,0.5,0,1","0,1,0.5,0,1,0.5,1,0.5,0","3",""
"","html-keyboard-response","152","142542","0.0-223.0","3G2UL9A02E0KAD3AL358D89POC367A","ACAJFF4MF5S5X","3ECKRY5B1QIH1N6NFX1ECCW5ZDKIZQ","","null","<img src=""img/food4.png"" style=""width:200px;border:14px solid red;"">","null","","","","","","","","","",""
"","image-keyboard-response","153","142768","0.0-225.0","3G2UL9A02E0KAD3AL358D89POC367A","ACAJFF4MF5S5X","3ECKRY5B1QIH1N6NFX1ECCW5ZDKIZQ","","224.19999999552965","img/food4.png","75","225.30000000447035","2","1","false","1","2","1,0.5,0,1,0.5,0,0.5,0,1","0,1,0.5,0,1,0.5,1,0.5,0","3",""
"","html-keyboard-response","154","143069","0.0-226.0","3G2UL9A02E0KAD3AL358D89POC367A","ACAJFF4MF5S5X","3ECKRY5B1QIH1N6NFX1ECCW5ZDKIZQ","","null","<img src=""img/food4.png"" style=""width:200px; border:14px solid green;"">","null","","","","","","","","","",""
"","image-keyboard-response","155","143575","0.0-228.0","3G2UL9A02E0KAD3AL358D89POC367A","ACAJFF4MF5S5X","3ECKRY5B1QIH1N6NFX1ECCW5ZDKIZQ","","504.5","img/food1.png","74","505.70000000298023","1","1","false","3","2","1,0.5,0,1,0.5,0,0.5,0,1","0,1,0.5,0,1,0.5,1,0.5,0","3",""
"","html-keyboard-response","156","143878","0.0-229.0","3G2UL9A02E0KAD3AL358D89POC367A","ACAJFF4MF5S5X","3ECKRY5B1QIH1N6NFX1ECCW5ZDKIZQ","","null","<img src=""img/food1.png"" style=""width:200px; border:14px solid green;"">","null","","","","","","","","","",""
"","image-keyboard-response","157","144178","0.0-231.0","3G2UL9A02E0KAD3AL358D89POC367A","ACAJFF4MF5S5X","3ECKRY5B1QIH1N6NFX1ECCW5ZDKIZQ","","299","img/food3.png","75","300.09999999403954","2","1","false","2","2","1,0.5,0,1,0.5,0,0.5,0,1","0,1,0.5,0,1,0.5,1,0.5,0","3",""
"","html-keyboard-response","158","144481","0.0-232.0","3G2UL9A02E0KAD3AL358D89POC367A","ACAJFF4MF5S5X","3ECKRY5B1QIH1N6NFX1ECCW5ZDKIZQ","","null","<img src=""img/food3.png"" style=""width:200px; border:14px solid green;"">","null","","","","","","","","","",""
"","image-keyboard-response","159","144839","0.0-234.0","3G2UL9A02E0KAD3AL358D89POC367A","ACAJFF4MF5S5X","3ECKRY5B1QIH1N6NFX1ECCW5ZDKIZQ","","357.30000000447035","img/food4.png","75","358.3999999985099","2","1","false","1","2","1,0.5,0,1,0.5,0,0.5,0,1","0,1,0.5,0,1,0.5,1,0.5,0","3",""
"","html-keyboard-response","160","145141","0.0-235.0","3G2UL9A02E0KAD3AL358D89POC367A","ACAJFF4MF5S5X","3ECKRY5B1QIH1N6NFX1ECCW5ZDKIZQ","","null","<img src=""img/food4.png"" style=""width:200px; border:14px solid green;"">","null","","","","","","","","","",""
"","image-keyboard-response","161","145519","0.0-237.0","3G2UL9A02E0KAD3AL358D89POC367A","ACAJFF4MF5S5X","3ECKRY5B1QIH1N6NFX1ECCW5ZDKIZQ","","376.80000000447035","img/food1.png","75","377.8999999985099","2","0","false","3","2","1,0.5,0,1,0.5,0,0.5,0,1","0,1,0.5,0,1,0.5,1,0.5,0","3",""
"","html-keyboard-response","162","145822","0.0-238.0","3G2UL9A02E0KAD3AL358D89POC367A","ACAJFF4MF5S5X","3ECKRY5B1QIH1N6NFX1ECCW5ZDKIZQ","","null","<img src=""img/food1.png"" style=""width:200px;border:14px solid red;"">","null","","","","","","","","","",""
"","image-keyboard-response","163","146287","0.0-240.0","3G2UL9A02E0KAD3AL358D89POC367A","ACAJFF4MF5S5X","3ECKRY5B1QIH1N6NFX1ECCW5ZDKIZQ","","464.3999999985099","img/food3.png","74","465.3999999985099","1","0","false","2","2","1,0.5,0,1,0.5,0,0.5,0,1","0,1,0.5,0,1,0.5,1,0.5,0","3",""
"","html-keyboard-response","164","146590","0.0-241.0","3G2UL9A02E0KAD3AL358D89POC367A","ACAJFF4MF5S5X","3ECKRY5B1QIH1N6NFX1ECCW5ZDKIZQ","","null","<img src=""img/food3.png"" style=""width:200px;border:14px solid red;"">","null","","","","","","","","","",""
"","image-keyboard-response","165","147064","0.0-243.0","3G2UL9A02E0KAD3AL358D89POC367A","ACAJFF4MF5S5X","3ECKRY5B1QIH1N6NFX1ECCW5ZDKIZQ","","472.20000000298023","img/food3.png","75","473.20000000298023","2","1","false","2","2","1,0.5,0,1,0.5,0,0.5,0,1","0,1,0.5,0,1,0.5,1,0.5,0","3",""
"","html-keyboard-response","166","147366","0.0-244.0","3G2UL9A02E0KAD3AL358D89POC367A","ACAJFF4MF5S5X","3ECKRY5B1QIH1N6NFX1ECCW5ZDKIZQ","","null","<img src=""img/food3.png"" style=""width:200px; border:14px solid green;"">","null","","","","","","","","","",""
"","image-keyboard-response","167","147752","0.0-246.0","3G2UL9A02E0KAD3AL358D89POC367A","ACAJFF4MF5S5X","3ECKRY5B1QIH1N6NFX1ECCW5ZDKIZQ","","384","img/food3.png","75","385","2","1","false","2","2","1,0.5,0,1,0.5,0,0.5,0,1","0,1,0.5,0,1,0.5,1,0.5,0","3",""
"","html-keyboard-response","168","148053","0.0-247.0","3G2UL9A02E0KAD3AL358D89POC367A","ACAJFF4MF5S5X","3ECKRY5B1QIH1N6NFX1ECCW5ZDKIZQ","","null","<img src=""img/food3.png"" style=""width:200px; border:14px solid green;"">","null","","","","","","","","","",""
"","image-keyboard-response","169","148496","0.0-249.0","3G2UL9A02E0KAD3AL358D89POC367A","ACAJFF4MF5S5X","3ECKRY5B1QIH1N6NFX1ECCW5ZDKIZQ","","441.40000000596046","img/food1.png","74","442.5","1","1","false","3","2","1,0.5,0,1,0.5,0,0.5,0,1","0,1,0.5,0,1,0.5,1,0.5,0","3",""
"","html-keyboard-response","170","148799","0.0-250.0","3G2UL9A02E0KAD3AL358D89POC367A","ACAJFF4MF5S5X","3ECKRY5B1QIH1N6NFX1ECCW5ZDKIZQ","","null","<img src=""img/food1.png"" style=""width:200px; border:14px solid green;"">","null","","","","","","","","","",""
"","image-keyboard-response","171","149304","0.0-252.0","3G2UL9A02E0KAD3AL358D89POC367A","ACAJFF4MF5S5X","3ECKRY5B1QIH1N6NFX1ECCW5ZDKIZQ","","503.3999999985099","img/food3.png","74","504.5","1","0","false","2","2","1,0.5,0,1,0.5,0,0.5,0,1","0,1,0.5,0,1,0.5,1,0.5,0","3",""
"","html-keyboard-response","172","149606","0.0-253.0","3G2UL9A02E0KAD3AL358D89POC367A","ACAJFF4MF5S5X","3ECKRY5B1QIH1N6NFX1ECCW5ZDKIZQ","","null","<img src=""img/food3.png"" style=""width:200px;border:14px solid red;"">","null","","","","","","","","","",""
"","image-keyboard-response","173","150263","0.0-255.0","3G2UL9A02E0KAD3AL358D89POC367A","ACAJFF4MF5S5X","3ECKRY5B1QIH1N6NFX1ECCW5ZDKIZQ","","655.7000000029802","img/food1.png","74","657.1000000014901","1","1","false","3","2","1,0.5,0,1,0.5,0,0.5,0,1","0,1,0.5,0,1,0.5,1,0.5,0","3",""
"","html-keyboard-response","174","150567","0.0-256.0","3G2UL9A02E0KAD3AL358D89POC367A","ACAJFF4MF5S5X","3ECKRY5B1QIH1N6NFX1ECCW5ZDKIZQ","","null","<img src=""img/food1.png"" style=""width:200px; border:14px solid green;"">","null","","","","","","","","","",""
"","image-keyboard-response","175","150936","0.0-258.0","3G2UL9A02E0KAD3AL358D89POC367A","ACAJFF4MF5S5X","3ECKRY5B1QIH1N6NFX1ECCW5ZDKIZQ","","367.6000000014901","img/food3.png","75","368.69999999552965","2","1","false","2","2","1,0.5,0,1,0.5,0,0.5,0,1","0,1,0.5,0,1,0.5,1,0.5,0","3",""
"","html-keyboard-response","176","151238","0.0-259.0","3G2UL9A02E0KAD3AL358D89POC367A","ACAJFF4MF5S5X","3ECKRY5B1QIH1N6NFX1ECCW5ZDKIZQ","","null","<img src=""img/food3.png"" style=""width:200px; border:14px solid green;"">","null","","","","","","","","","",""
"","image-keyboard-response","177","151520","0.0-261.0","3G2UL9A02E0KAD3AL358D89POC367A","ACAJFF4MF5S5X","3ECKRY5B1QIH1N6NFX1ECCW5ZDKIZQ","","279.79999999701977","img/food4.png","75","280.79999999701977","2","1","false","1","2","1,0.5,0,1,0.5,0,0.5,0,1","0,1,0.5,0,1,0.5,1,0.5,0","3",""
"","html-keyboard-response","178","151822","0.0-262.0","3G2UL9A02E0KAD3AL358D89POC367A","ACAJFF4MF5S5X","3ECKRY5B1QIH1N6NFX1ECCW5ZDKIZQ","","null","<img src=""img/food4.png"" style=""width:200px; border:14px solid green;"">","null","","","","","","","","","",""
"","image-keyboard-response","179","152136","0.0-264.0","3G2UL9A02E0KAD3AL358D89POC367A","ACAJFF4MF5S5X","3ECKRY5B1QIH1N6NFX1ECCW5ZDKIZQ","","312.1000000014901","img/food3.png","75","313.20000000298023","2","1","false","2","2","1,0.5,0,1,0.5,0,0.5,0,1","0,1,0.5,0,1,0.5,1,0.5,0","3",""
"","html-keyboard-response","180","152438","0.0-265.0","3G2UL9A02E0KAD3AL358D89POC367A","ACAJFF4MF5S5X","3ECKRY5B1QIH1N6NFX1ECCW5ZDKIZQ","","null","<img src=""img/food3.png"" style=""width:200px; border:14px solid green;"">","null","","","","","","","","","",""
"","image-keyboard-response","181","152983","0.0-267.0","3G2UL9A02E0KAD3AL358D89POC367A","ACAJFF4MF5S5X","3ECKRY5B1QIH1N6NFX1ECCW5ZDKIZQ","","544.2000000029802","img/food1.png","74","545.3999999985099","1","1","false","3","2","1,0.5,0,1,0.5,0,0.5,0,1","0,1,0.5,0,1,0.5,1,0.5,0","3",""
"","html-keyboard-response","182","153286","0.0-268.0","3G2UL9A02E0KAD3AL358D89POC367A","ACAJFF4MF5S5X","3ECKRY5B1QIH1N6NFX1ECCW5ZDKIZQ","","null","<img src=""img/food1.png"" style=""width:200px; border:14px solid green;"">","null","","","","","","","","","",""
"","image-keyboard-response","183","153592","0.0-270.0","3G2UL9A02E0KAD3AL358D89POC367A","ACAJFF4MF5S5X","3ECKRY5B1QIH1N6NFX1ECCW5ZDKIZQ","","304.70000000298023","img/food4.png","75","305.70000000298023","2","1","false","1","2","1,0.5,0,1,0.5,0,0.5,0,1","0,1,0.5,0,1,0.5,1,0.5,0","3",""
"","html-keyboard-response","184","153895","0.0-271.0","3G2UL9A02E0KAD3AL358D89POC367A","ACAJFF4MF5S5X","3ECKRY5B1QIH1N6NFX1ECCW5ZDKIZQ","","null","<img src=""img/food4.png"" style=""width:200px; border:14px solid green;"">","null","","","","","","","","","",""
"","instructions","185","164280","0.0-273.0","3G2UL9A02E0KAD3AL358D89POC367A","ACAJFF4MF5S5X","3ECKRY5B1QIH1N6NFX1ECCW5ZDKIZQ","[{""page_index"":0,""viewing_time"":9532.60000000149},{""page_index"":1,""viewing_time"":851.5999999940395}]","10384.5","","","","","","","","","","","",""
"","image-keyboard-response","186","165792","0.0-274.0","3G2UL9A02E0KAD3AL358D89POC367A","ACAJFF4MF5S5X","3ECKRY5B1QIH1N6NFX1ECCW5ZDKIZQ","","1510.7000000029802","img/food2.png","74","1511.7000000029802","1","1","","2","1","1,0.5,0,1,0.5,0,0.5,0,1","1,0.5,0,1,0.5,0,0.5,0,1","1",""
"","html-keyboard-response","187","166095","0.0-275.0","3G2UL9A02E0KAD3AL358D89POC367A","ACAJFF4MF5S5X","3ECKRY5B1QIH1N6NFX1ECCW5ZDKIZQ","","null","<img src=""img/food2.png"" style=""width:200px; border:14px solid green;"">","null","","","","","","","","","",""
"","image-keyboard-response","188","166584","0.0-276.0","3G2UL9A02E0KAD3AL358D89POC367A","ACAJFF4MF5S5X","3ECKRY5B1QIH1N6NFX1ECCW5ZDKIZQ","","487.3999999985099","img/food2.png","74","488.3999999985099","1","1","","2","1","1,0.5,0,1,0.5,0,0.5,0,1","1,0.5,0,1,0.5,0,0.5,0,1","1",""
"","html-keyboard-response","189","166886","0.0-277.0","3G2UL9A02E0KAD3AL358D89POC367A","ACAJFF4MF5S5X","3ECKRY5B1QIH1N6NFX1ECCW5ZDKIZQ","","null","<img src=""img/food2.png"" style=""width:200px; border:14px solid green;"">","null","","","","","","","","","",""
"","image-keyboard-response","190","167575","0.0-278.0","3G2UL9A02E0KAD3AL358D89POC367A","ACAJFF4MF5S5X","3ECKRY5B1QIH1N6NFX1ECCW5ZDKIZQ","","687.8999999985099","img/food6.png","75","689","2","1","","1","1","1,0.5,0,1,0.5,0,0.5,0,1","1,0.5,0,1,0.5,0,0.5,0,1","1",""
"","html-keyboard-response","191","167878","0.0-279.0","3G2UL9A02E0KAD3AL358D89POC367A","ACAJFF4MF5S5X","3ECKRY5B1QIH1N6NFX1ECCW5ZDKIZQ","","null","<img src=""img/food6.png"" style=""width:200px; border:14px solid green;"">","null","","","","","","","","","",""
"","image-keyboard-response","192","168543","0.0-280.0","3G2UL9A02E0KAD3AL358D89POC367A","ACAJFF4MF5S5X","3ECKRY5B1QIH1N6NFX1ECCW5ZDKIZQ","","664","img/food2.png","74","665.1000000014901","1","1","","2","1","1,0.5,0,1,0.5,0,0.5,0,1","1,0.5,0,1,0.5,0,0.5,0,1","1",""
"","html-keyboard-response","193","168845","0.0-281.0","3G2UL9A02E0KAD3AL358D89POC367A","ACAJFF4MF5S5X","3ECKRY5B1QIH1N6NFX1ECCW5ZDKIZQ","","null","<img src=""img/food2.png"" style=""width:200px; border:14px solid green;"">","null","","","","","","","","","",""
"","image-keyboard-response","194","169679","0.0-282.0","3G2UL9A02E0KAD3AL358D89POC367A","ACAJFF4MF5S5X","3ECKRY5B1QIH1N6NFX1ECCW5ZDKIZQ","","832.2000000029802","img/food5.png","76","833.3999999985099","3","1","","3","1","1,0.5,0,1,0.5,0,0.5,0,1","1,0.5,0,1,0.5,0,0.5,0,1","1",""
"","html-keyboard-response","195","169981","0.0-283.0","3G2UL9A02E0KAD3AL358D89POC367A","ACAJFF4MF5S5X","3ECKRY5B1QIH1N6NFX1ECCW5ZDKIZQ","","null","<img src=""img/food5.png"" style=""width:200px; border:14px solid green;"">","null","","","","","","","","","",""
"","image-keyboard-response","196","170848","0.0-284.0","3G2UL9A02E0KAD3AL358D89POC367A","ACAJFF4MF5S5X","3ECKRY5B1QIH1N6NFX1ECCW5ZDKIZQ","","865.6999999955297","img/food6.png","75","866.9000000059605","2","0","","1","1","1,0.5,0,1,0.5,0,0.5,0,1","1,0.5,0,1,0.5,0,0.5,0,1","1",""
"","html-keyboard-response","197","171150","0.0-285.0","3G2UL9A02E0KAD3AL358D89POC367A","ACAJFF4MF5S5X","3ECKRY5B1QIH1N6NFX1ECCW5ZDKIZQ","","null","<img src=""img/food6.png"" style=""width:200px;border:14px solid red;"">","null","","","","","","","","","",""
"","image-keyboard-response","198","171935","0.0-286.0","3G2UL9A02E0KAD3AL358D89POC367A","ACAJFF4MF5S5X","3ECKRY5B1QIH1N6NFX1ECCW5ZDKIZQ","","784.7000000029802","img/food2.png","74","785.5","1","1","","2","1","1,0.5,0,1,0.5,0,0.5,0,1","1,0.5,0,1,0.5,0,0.5,0,1","1",""
"","html-keyboard-response","199","172238","0.0-287.0","3G2UL9A02E0KAD3AL358D89POC367A","ACAJFF4MF5S5X","3ECKRY5B1QIH1N6NFX1ECCW5ZDKIZQ","","null","<img src=""img/food2.png"" style=""width:200px; border:14px solid green;"">","null","","","","","","","","","",""
"","image-keyboard-response","200","172622","0.0-288.0","3G2UL9A02E0KAD3AL358D89POC367A","ACAJFF4MF5S5X","3ECKRY5B1QIH1N6NFX1ECCW5ZDKIZQ","","383.5","img/food2.png","74","384.6000000014901","1","1","","2","1","1,0.5,0,1,0.5,0,0.5,0,1","1,0.5,0,1,0.5,0,0.5,0,1","1",""
"","html-keyboard-response","201","172925","0.0-289.0","3G2UL9A02E0KAD3AL358D89POC367A","ACAJFF4MF5S5X","3ECKRY5B1QIH1N6NFX1ECCW5ZDKIZQ","","null","<img src=""img/food2.png"" style=""width:200px; border:14px solid green;"">","null","","","","","","","","","",""
"","image-keyboard-response","202","173362","0.0-290.0","3G2UL9A02E0KAD3AL358D89POC367A","ACAJFF4MF5S5X","3ECKRY5B1QIH1N6NFX1ECCW5ZDKIZQ","","435.1000000014901","img/food2.png","74","436.20000000298023","1","1","","2","1","1,0.5,0,1,0.5,0,0.5,0,1","1,0.5,0,1,0.5,0,0.5,0,1","1",""
"","html-keyboard-response","203","173664","0.0-291.0","3G2UL9A02E0KAD3AL358D89POC367A","ACAJFF4MF5S5X","3ECKRY5B1QIH1N6NFX1ECCW5ZDKIZQ","","null","<img src=""img/food2.png"" style=""width:200px; border:14px solid green;"">","null","","","","","","","","","",""
"","image-keyboard-response","204","174343","0.0-292.0","3G2UL9A02E0KAD3AL358D89POC367A","ACAJFF4MF5S5X","3ECKRY5B1QIH1N6NFX1ECCW5ZDKIZQ","","677.8999999985099","img/food6.png","76","678.7999999970198","3","0","","1","1","1,0.5,0,1,0.5,0,0.5,0,1","1,0.5,0,1,0.5,0,0.5,0,1","1",""
"","html-keyboard-response","205","174646","0.0-293.0","3G2UL9A02E0KAD3AL358D89POC367A","ACAJFF4MF5S5X","3ECKRY5B1QIH1N6NFX1ECCW5ZDKIZQ","","null","<img src=""img/food6.png"" style=""width:200px;border:14px solid red;"">","null","","","","","","","","","",""
"","image-keyboard-response","206","175263","0.0-294.0","3G2UL9A02E0KAD3AL358D89POC367A","ACAJFF4MF5S5X","3ECKRY5B1QIH1N6NFX1ECCW5ZDKIZQ","","616.1000000014901","img/food6.png","74","617.2999999970198","1","1","","1","1","1,0.5,0,1,0.5,0,0.5,0,1","1,0.5,0,1,0.5,0,0.5,0,1","1",""
"","html-keyboard-response","207","175567","0.0-295.0","3G2UL9A02E0KAD3AL358D89POC367A","ACAJFF4MF5S5X","3ECKRY5B1QIH1N6NFX1ECCW5ZDKIZQ","","null","<img src=""img/food6.png"" style=""width:200px; border:14px solid green;"">","null","","","","","","","","","",""
"","image-keyboard-response","208","176160","0.0-296.0","3G2UL9A02E0KAD3AL358D89POC367A","ACAJFF4MF5S5X","3ECKRY5B1QIH1N6NFX1ECCW5ZDKIZQ","","591.6999999955297","img/food6.png","74","592.7000000029802","1","1","","1","1","1,0.5,0,1,0.5,0,0.5,0,1","1,0.5,0,1,0.5,0,0.5,0,1","1",""
"","html-keyboard-response","209","176462","0.0-297.0","3G2UL9A02E0KAD3AL358D89POC367A","ACAJFF4MF5S5X","3ECKRY5B1QIH1N6NFX1ECCW5ZDKIZQ","","null","<img src=""img/food6.png"" style=""width:200px; border:14px solid green;"">","null","","","","","","","","","",""
"","image-keyboard-response","210","176983","0.0-298.0","3G2UL9A02E0KAD3AL358D89POC367A","ACAJFF4MF5S5X","3ECKRY5B1QIH1N6NFX1ECCW5ZDKIZQ","","520.3999999985099","img/food2.png","74","521.3999999985099","1","1","","2","1","1,0.5,0,1,0.5,0,0.5,0,1","1,0.5,0,1,0.5,0,0.5,0,1","1",""
"","html-keyboard-response","211","177286","0.0-299.0","3G2UL9A02E0KAD3AL358D89POC367A","ACAJFF4MF5S5X","3ECKRY5B1QIH1N6NFX1ECCW5ZDKIZQ","","null","<img src=""img/food2.png"" style=""width:200px; border:14px solid green;"">","null","","","","","","","","","",""
"","image-keyboard-response","212","177792","0.0-300.0","3G2UL9A02E0KAD3AL358D89POC367A","ACAJFF4MF5S5X","3ECKRY5B1QIH1N6NFX1ECCW5ZDKIZQ","","504.5","img/food2.png","74","505.5","1","1","","2","1","1,0.5,0,1,0.5,0,0.5,0,1","1,0.5,0,1,0.5,0,0.5,0,1","1",""
"","html-keyboard-response","213","178094","0.0-301.0","3G2UL9A02E0KAD3AL358D89POC367A","ACAJFF4MF5S5X","3ECKRY5B1QIH1N6NFX1ECCW5ZDKIZQ","","null","<img src=""img/food2.png"" style=""width:200px; border:14px solid green;"">","null","","","","","","","","","",""
"","image-keyboard-response","214","179360","0.0-302.0","3G2UL9A02E0KAD3AL358D89POC367A","ACAJFF4MF5S5X","3ECKRY5B1QIH1N6NFX1ECCW5ZDKIZQ","","1264.6000000014901","img/food5.png","76","1265.5999999940395","3","1","","3","1","1,0.5,0,1,0.5,0,0.5,0,1","1,0.5,0,1,0.5,0,0.5,0,1","1",""
"","html-keyboard-response","215","179662","0.0-303.0","3G2UL9A02E0KAD3AL358D89POC367A","ACAJFF4MF5S5X","3ECKRY5B1QIH1N6NFX1ECCW5ZDKIZQ","","null","<img src=""img/food5.png"" style=""width:200px; border:14px solid green;"">","null","","","","","","","","","",""
"","image-keyboard-response","216","180239","0.0-304.0","3G2UL9A02E0KAD3AL358D89POC367A","ACAJFF4MF5S5X","3ECKRY5B1QIH1N6NFX1ECCW5ZDKIZQ","","575.5999999940395","img/food5.png","76","576.8000000044703","3","1","","3","1","1,0.5,0,1,0.5,0,0.5,0,1","1,0.5,0,1,0.5,0,0.5,0,1","1",""
"","html-keyboard-response","217","180541","0.0-305.0","3G2UL9A02E0KAD3AL358D89POC367A","ACAJFF4MF5S5X","3ECKRY5B1QIH1N6NFX1ECCW5ZDKIZQ","","null","<img src=""img/food5.png"" style=""width:200px; border:14px solid green;"">","null","","","","","","","","","",""
"","image-keyboard-response","218","181119","0.0-306.0","3G2UL9A02E0KAD3AL358D89POC367A","ACAJFF4MF5S5X","3ECKRY5B1QIH1N6NFX1ECCW5ZDKIZQ","","577.1000000014901","img/food6.png","74","578.1999999955297","1","1","","1","1","1,0.5,0,1,0.5,0,0.5,0,1","1,0.5,0,1,0.5,0,0.5,0,1","1",""
"","html-keyboard-response","219","181421","0.0-307.0","3G2UL9A02E0KAD3AL358D89POC367A","ACAJFF4MF5S5X","3ECKRY5B1QIH1N6NFX1ECCW5ZDKIZQ","","null","<img src=""img/food6.png"" style=""width:200px; border:14px solid green;"">","null","","","","","","","","","",""
"","image-keyboard-response","220","181855","0.0-308.0","3G2UL9A02E0KAD3AL358D89POC367A","ACAJFF4MF5S5X","3ECKRY5B1QIH1N6NFX1ECCW5ZDKIZQ","","432.80000000447035","img/food6.png","74","434","1","1","","1","1","1,0.5,0,1,0.5,0,0.5,0,1","1,0.5,0,1,0.5,0,0.5,0,1","1",""
"","html-keyboard-response","221","182157","0.0-309.0","3G2UL9A02E0KAD3AL358D89POC367A","ACAJFF4MF5S5X","3ECKRY5B1QIH1N6NFX1ECCW5ZDKIZQ","","null","<img src=""img/food6.png"" style=""width:200px; border:14px solid green;"">","null","","","","","","","","","",""
"","image-keyboard-response","222","182728","0.0-310.0","3G2UL9A02E0KAD3AL358D89POC367A","ACAJFF4MF5S5X","3ECKRY5B1QIH1N6NFX1ECCW5ZDKIZQ","","569.6000000014901","img/food2.png","76","570.5999999940395","3","0","","2","1","1,0.5,0,1,0.5,0,0.5,0,1","1,0.5,0,1,0.5,0,0.5,0,1","1",""
"","html-keyboard-response","223","183029","0.0-311.0","3G2UL9A02E0KAD3AL358D89POC367A","ACAJFF4MF5S5X","3ECKRY5B1QIH1N6NFX1ECCW5ZDKIZQ","","null","<img src=""img/food2.png"" style=""width:200px;border:14px solid red;"">","null","","","","","","","","","",""
"","image-keyboard-response","224","183682","0.0-312.0","3G2UL9A02E0KAD3AL358D89POC367A","ACAJFF4MF5S5X","3ECKRY5B1QIH1N6NFX1ECCW5ZDKIZQ","","651.3000000044703","img/food6.png","76","652.5","3","0","","1","1","1,0.5,0,1,0.5,0,0.5,0,1","1,0.5,0,1,0.5,0,0.5,0,1","1",""
"","html-keyboard-response","225","183984","0.0-313.0","3G2UL9A02E0KAD3AL358D89POC367A","ACAJFF4MF5S5X","3ECKRY5B1QIH1N6NFX1ECCW5ZDKIZQ","","null","<img src=""img/food6.png"" style=""width:200px;border:14px solid red;"">","null","","","","","","","","","",""
"","image-keyboard-response","226","184576","0.0-314.0","3G2UL9A02E0KAD3AL358D89POC367A","ACAJFF4MF5S5X","3ECKRY5B1QIH1N6NFX1ECCW5ZDKIZQ","","590.4000000059605","img/food2.png","74","591.5","1","1","","2","1","1,0.5,0,1,0.5,0,0.5,0,1","1,0.5,0,1,0.5,0,0.5,0,1","1",""
"","html-keyboard-response","227","184878","0.0-315.0","3G2UL9A02E0KAD3AL358D89POC367A","ACAJFF4MF5S5X","3ECKRY5B1QIH1N6NFX1ECCW5ZDKIZQ","","null","<img src=""img/food2.png"" style=""width:200px; border:14px solid green;"">","null","","","","","","","","","",""
"","image-keyboard-response","228","185255","0.0-316.0","3G2UL9A02E0KAD3AL358D89POC367A","ACAJFF4MF5S5X","3ECKRY5B1QIH1N6NFX1ECCW5ZDKIZQ","","376.3999999985099","img/food2.png","74","377.59999999403954","1","1","","2","1","1,0.5,0,1,0.5,0,0.5,0,1","1,0.5,0,1,0.5,0,0.5,0,1","1",""
"","html-keyboard-response","229","185558","0.0-317.0","3G2UL9A02E0KAD3AL358D89POC367A","ACAJFF4MF5S5X","3ECKRY5B1QIH1N6NFX1ECCW5ZDKIZQ","","null","<img src=""img/food2.png"" style=""width:200px; border:14px solid green;"">","null","","","","","","","","","",""
"","image-keyboard-response","230","186111","0.0-318.0","3G2UL9A02E0KAD3AL358D89POC367A","ACAJFF4MF5S5X","3ECKRY5B1QIH1N6NFX1ECCW5ZDKIZQ","","552.1000000014901","img/food5.png","76","553.2000000029802","3","1","","3","1","1,0.5,0,1,0.5,0,0.5,0,1","1,0.5,0,1,0.5,0,0.5,0,1","1",""
"","html-keyboard-response","231","186414","0.0-319.0","3G2UL9A02E0KAD3AL358D89POC367A","ACAJFF4MF5S5X","3ECKRY5B1QIH1N6NFX1ECCW5ZDKIZQ","","null","<img src=""img/food5.png"" style=""width:200px; border:14px solid green;"">","null","","","","","","","","","",""
"","image-keyboard-response","232","186879","0.0-320.0","3G2UL9A02E0KAD3AL358D89POC367A","ACAJFF4MF5S5X","3ECKRY5B1QIH1N6NFX1ECCW5ZDKIZQ","","464","img/food6.png","74","465.20000000298023","1","1","","1","1","1,0.5,0,1,0.5,0,0.5,0,1","1,0.5,0,1,0.5,0,0.5,0,1","1",""
"","html-keyboard-response","233","187181","0.0-321.0","3G2UL9A02E0KAD3AL358D89POC367A","ACAJFF4MF5S5X","3ECKRY5B1QIH1N6NFX1ECCW5ZDKIZQ","","null","<img src=""img/food6.png"" style=""width:200px; border:14px solid green;"">","null","","","","","","","","","",""
"","image-keyboard-response","234","187511","0.0-322.0","3G2UL9A02E0KAD3AL358D89POC367A","ACAJFF4MF5S5X","3ECKRY5B1QIH1N6NFX1ECCW5ZDKIZQ","","328.8999999985099","img/food2.png","74","330","1","1","","2","1","1,0.5,0,1,0.5,0,0.5,0,1","1,0.5,0,1,0.5,0,0.5,0,1","1",""
"","html-keyboard-response","235","187813","0.0-323.0","3G2UL9A02E0KAD3AL358D89POC367A","ACAJFF4MF5S5X","3ECKRY5B1QIH1N6NFX1ECCW5ZDKIZQ","","null","<img src=""img/food2.png"" style=""width:200px; border:14px solid green;"">","null","","","","","","","","","",""
"","image-keyboard-response","236","188336","0.0-324.0","3G2UL9A02E0KAD3AL358D89POC367A","ACAJFF4MF5S5X","3ECKRY5B1QIH1N6NFX1ECCW5ZDKIZQ","","520.9000000059605","img/food5.png","76","522.1000000014901","3","1","","3","1","1,0.5,0,1,0.5,0,0.5,0,1","1,0.5,0,1,0.5,0,0.5,0,1","1",""
"","html-keyboard-response","237","188638","0.0-325.0","3G2UL9A02E0KAD3AL358D89POC367A","ACAJFF4MF5S5X","3ECKRY5B1QIH1N6NFX1ECCW5ZDKIZQ","","null","<img src=""img/food5.png"" style=""width:200px; border:14px solid green;"">","null","","","","","","","","","",""
"","image-keyboard-response","238","189287","0.0-326.0","3G2UL9A02E0KAD3AL358D89POC367A","ACAJFF4MF5S5X","3ECKRY5B1QIH1N6NFX1ECCW5ZDKIZQ","","648.1000000014901","img/food5.png","76","649.2000000029802","3","1","","3","1","1,0.5,0,1,0.5,0,0.5,0,1","1,0.5,0,1,0.5,0,0.5,0,1","1",""
"","html-keyboard-response","239","189599","0.0-327.0","3G2UL9A02E0KAD3AL358D89POC367A","ACAJFF4MF5S5X","3ECKRY5B1QIH1N6NFX1ECCW5ZDKIZQ","","null","<img src=""img/food5.png"" style=""width:200px; border:14px solid green;"">","null","","","","","","","","","",""
"","image-keyboard-response","240","190831","0.0-328.0","3G2UL9A02E0KAD3AL358D89POC367A","ACAJFF4MF5S5X","3ECKRY5B1QIH1N6NFX1ECCW5ZDKIZQ","","1230.9000000059605","img/food6.png","74","1232.1000000014901","1","1","","1","1","1,0.5,0,1,0.5,0,0.5,0,1","1,0.5,0,1,0.5,0,0.5,0,1","1",""
"","html-keyboard-response","241","191133","0.0-329.0","3G2UL9A02E0KAD3AL358D89POC367A","ACAJFF4MF5S5X","3ECKRY5B1QIH1N6NFX1ECCW5ZDKIZQ","","null","<img src=""img/food6.png"" style=""width:200px; border:14px solid green;"">","null","","","","","","","","","",""
"","image-keyboard-response","242","192007","0.0-330.0","3G2UL9A02E0KAD3AL358D89POC367A","ACAJFF4MF5S5X","3ECKRY5B1QIH1N6NFX1ECCW5ZDKIZQ","","872.2000000029802","img/food6.png","74","873.3000000044703","1","1","","1","1","1,0.5,0,1,0.5,0,0.5,0,1","1,0.5,0,1,0.5,0,0.5,0,1","1",""
"","html-keyboard-response","243","192309","0.0-331.0","3G2UL9A02E0KAD3AL358D89POC367A","ACAJFF4MF5S5X","3ECKRY5B1QIH1N6NFX1ECCW5ZDKIZQ","","null","<img src=""img/food6.png"" style=""width:200px; border:14px solid green;"">","null","","","","","","","","","",""
"","image-keyboard-response","244","195297","0.0-332.0","3G2UL9A02E0KAD3AL358D89POC367A","ACAJFF4MF5S5X","3ECKRY5B1QIH1N6NFX1ECCW5ZDKIZQ","","2986.0999999940395","img/food5.png","76","2987.10000000149","3","1","","3","1","1,0.5,0,1,0.5,0,0.5,0,1","1,0.5,0,1,0.5,0,0.5,0,1","1",""
"","html-keyboard-response","245","195598","0.0-333.0","3G2UL9A02E0KAD3AL358D89POC367A","ACAJFF4MF5S5X","3ECKRY5B1QIH1N6NFX1ECCW5ZDKIZQ","","null","<img src=""img/food5.png"" style=""width:200px; border:14px solid green;"">","null","","","","","","","","","",""
"","image-keyboard-response","246","196504","0.0-334.0","3G2UL9A02E0KAD3AL358D89POC367A","ACAJFF4MF5S5X","3ECKRY5B1QIH1N6NFX1ECCW5ZDKIZQ","","904.5","img/food2.png","74","905.6000000014901","1","1","","2","1","1,0.5,0,1,0.5,0,0.5,0,1","1,0.5,0,1,0.5,0,0.5,0,1","1",""
"","html-keyboard-response","247","196807","0.0-335.0","3G2UL9A02E0KAD3AL358D89POC367A","ACAJFF4MF5S5X","3ECKRY5B1QIH1N6NFX1ECCW5ZDKIZQ","","null","<img src=""img/food2.png"" style=""width:200px; border:14px solid green;"">","null","","","","","","","","","",""
"","image-keyboard-response","248","197488","0.0-336.0","3G2UL9A02E0KAD3AL358D89POC367A","ACAJFF4MF5S5X","3ECKRY5B1QIH1N6NFX1ECCW5ZDKIZQ","","679.6000000014901","img/food5.png","76","680.8000000044703","3","1","","3","1","1,0.5,0,1,0.5,0,0.5,0,1","1,0.5,0,1,0.5,0,0.5,0,1","1",""
"","html-keyboard-response","249","197789","0.0-337.0","3G2UL9A02E0KAD3AL358D89POC367A","ACAJFF4MF5S5X","3ECKRY5B1QIH1N6NFX1ECCW5ZDKIZQ","","null","<img src=""img/food5.png"" style=""width:200px; border:14px solid green;"">","null","","","","","","","","","",""
"","image-keyboard-response","250","198336","0.0-338.0","3G2UL9A02E0KAD3AL358D89POC367A","ACAJFF4MF5S5X","3ECKRY5B1QIH1N6NFX1ECCW5ZDKIZQ","","545.3000000044703","img/food6.png","74","546.5","1","1","","1","1","1,0.5,0,1,0.5,0,0.5,0,1","1,0.5,0,1,0.5,0,0.5,0,1","1",""
"","html-keyboard-response","251","198638","0.0-339.0","3G2UL9A02E0KAD3AL358D89POC367A","ACAJFF4MF5S5X","3ECKRY5B1QIH1N6NFX1ECCW5ZDKIZQ","","null","<img src=""img/food6.png"" style=""width:200px; border:14px solid green;"">","null","","","","","","","","","",""
"","image-keyboard-response","252","199368","0.0-340.0","3G2UL9A02E0KAD3AL358D89POC367A","ACAJFF4MF5S5X","3ECKRY5B1QIH1N6NFX1ECCW5ZDKIZQ","","727.7000000029802","img/food2.png","74","728.8000000044703","1","1","","2","1","1,0.5,0,1,0.5,0,0.5,0,1","1,0.5,0,1,0.5,0,0.5,0,1","1",""
"","html-keyboard-response","253","199670","0.0-341.0","3G2UL9A02E0KAD3AL358D89POC367A","ACAJFF4MF5S5X","3ECKRY5B1QIH1N6NFX1ECCW5ZDKIZQ","","null","<img src=""img/food2.png"" style=""width:200px; border:14px solid green;"">","null","","","","","","","","","",""
"","image-keyboard-response","254","200263","0.0-342.0","3G2UL9A02E0KAD3AL358D89POC367A","ACAJFF4MF5S5X","3ECKRY5B1QIH1N6NFX1ECCW5ZDKIZQ","","592.2999999970198","img/food5.png","76","593.3999999985099","3","1","","3","1","1,0.5,0,1,0.5,0,0.5,0,1","1,0.5,0,1,0.5,0,0.5,0,1","1",""
"","html-keyboard-response","255","200565","0.0-343.0","3G2UL9A02E0KAD3AL358D89POC367A","ACAJFF4MF5S5X","3ECKRY5B1QIH1N6NFX1ECCW5ZDKIZQ","","null","<img src=""img/food5.png"" style=""width:200px; border:14px solid green;"">","null","","","","","","","","","",""
"","image-keyboard-response","256","201039","0.0-344.0","3G2UL9A02E0KAD3AL358D89POC367A","ACAJFF4MF5S5X","3ECKRY5B1QIH1N6NFX1ECCW5ZDKIZQ","","472.3999999985099","img/food6.png","74","473.3999999985099","1","1","","1","1","1,0.5,0,1,0.5,0,0.5,0,1","1,0.5,0,1,0.5,0,0.5,0,1","1",""
"","html-keyboard-response","257","201340","0.0-345.0","3G2UL9A02E0KAD3AL358D89POC367A","ACAJFF4MF5S5X","3ECKRY5B1QIH1N6NFX1ECCW5ZDKIZQ","","null","<img src=""img/food6.png"" style=""width:200px; border:14px solid green;"">","null","","","","","","","","","",""
"","image-keyboard-response","258","201959","0.0-346.0","3G2UL9A02E0KAD3AL358D89POC367A","ACAJFF4MF5S5X","3ECKRY5B1QIH1N6NFX1ECCW5ZDKIZQ","","618.1000000014901","img/food6.png","74","618.8999999985099","1","1","","1","1","1,0.5,0,1,0.5,0,0.5,0,1","1,0.5,0,1,0.5,0,0.5,0,1","1",""
"","html-keyboard-response","259","202261","0.0-347.0","3G2UL9A02E0KAD3AL358D89POC367A","ACAJFF4MF5S5X","3ECKRY5B1QIH1N6NFX1ECCW5ZDKIZQ","","null","<img src=""img/food6.png"" style=""width:200px; border:14px solid green;"">","null","","","","","","","","","",""
"","image-keyboard-response","260","203007","0.0-348.0","3G2UL9A02E0KAD3AL358D89POC367A","ACAJFF4MF5S5X","3ECKRY5B1QIH1N6NFX1ECCW5ZDKIZQ","","744.6000000014901","img/food2.png","74","745.7999999970198","1","1","","2","1","1,0.5,0,1,0.5,0,0.5,0,1","1,0.5,0,1,0.5,0,0.5,0,1","1",""
"","html-keyboard-response","261","203312","0.0-349.0","3G2UL9A02E0KAD3AL358D89POC367A","ACAJFF4MF5S5X","3ECKRY5B1QIH1N6NFX1ECCW5ZDKIZQ","","null","<img src=""img/food2.png"" style=""width:200px; border:14px solid green;"">","null","","","","","","","","","",""
"","image-keyboard-response","262","203800","0.0-350.0","3G2UL9A02E0KAD3AL358D89POC367A","ACAJFF4MF5S5X","3ECKRY5B1QIH1N6NFX1ECCW5ZDKIZQ","","486.29999999701977","img/food2.png","74","487.5","1","1","","2","1","1,0.5,0,1,0.5,0,0.5,0,1","1,0.5,0,1,0.5,0,0.5,0,1","1",""
"","html-keyboard-response","263","204102","0.0-351.0","3G2UL9A02E0KAD3AL358D89POC367A","ACAJFF4MF5S5X","3ECKRY5B1QIH1N6NFX1ECCW5ZDKIZQ","","null","<img src=""img/food2.png"" style=""width:200px; border:14px solid green;"">","null","","","","","","","","","",""
"","image-keyboard-response","264","204615","0.0-352.0","3G2UL9A02E0KAD3AL358D89POC367A","ACAJFF4MF5S5X","3ECKRY5B1QIH1N6NFX1ECCW5ZDKIZQ","","511.59999999403954","img/food5.png","76","512.8000000044703","3","1","","3","1","1,0.5,0,1,0.5,0,0.5,0,1","1,0.5,0,1,0.5,0,0.5,0,1","1",""
"","html-keyboard-response","265","204917","0.0-353.0","3G2UL9A02E0KAD3AL358D89POC367A","ACAJFF4MF5S5X","3ECKRY5B1QIH1N6NFX1ECCW5ZDKIZQ","","null","<img src=""img/food5.png"" style=""width:200px; border:14px solid green;"">","null","","","","","","","","","",""
"","image-keyboard-response","266","205418","0.0-354.0","3G2UL9A02E0KAD3AL358D89POC367A","ACAJFF4MF5S5X","3ECKRY5B1QIH1N6NFX1ECCW5ZDKIZQ","","499.5","img/food6.png","74","500.6000000014901","1","1","","1","1","1,0.5,0,1,0.5,0,0.5,0,1","1,0.5,0,1,0.5,0,0.5,0,1","1",""
"","html-keyboard-response","267","205720","0.0-355.0","3G2UL9A02E0KAD3AL358D89POC367A","ACAJFF4MF5S5X","3ECKRY5B1QIH1N6NFX1ECCW5ZDKIZQ","","null","<img src=""img/food6.png"" style=""width:200px; border:14px solid green;"">","null","","","","","","","","","",""
"","image-keyboard-response","268","206064","0.0-356.0","3G2UL9A02E0KAD3AL358D89POC367A","ACAJFF4MF5S5X","3ECKRY5B1QIH1N6NFX1ECCW5ZDKIZQ","","342.59999999403954","img/food6.png","74","343.69999999552965","1","1","","1","1","1,0.5,0,1,0.5,0,0.5,0,1","1,0.5,0,1,0.5,0,0.5,0,1","1",""
"","html-keyboard-response","269","206366","0.0-357.0","3G2UL9A02E0KAD3AL358D89POC367A","ACAJFF4MF5S5X","3ECKRY5B1QIH1N6NFX1ECCW5ZDKIZQ","","null","<img src=""img/food6.png"" style=""width:200px; border:14px solid green;"">","null","","","","","","","","","",""
"","image-keyboard-response","270","207015","0.0-358.0","3G2UL9A02E0KAD3AL358D89POC367A","ACAJFF4MF5S5X","3ECKRY5B1QIH1N6NFX1ECCW5ZDKIZQ","","647.7999999970198","img/food5.png","76","650.8999999985099","3","1","","3","1","1,0.5,0,1,0.5,0,0.5,0,1","1,0.5,0,1,0.5,0,0.5,0,1","1",""
"","html-keyboard-response","271","207320","0.0-359.0","3G2UL9A02E0KAD3AL358D89POC367A","ACAJFF4MF5S5X","3ECKRY5B1QIH1N6NFX1ECCW5ZDKIZQ","","null","<img src=""img/food5.png"" style=""width:200px; border:14px solid green;"">","null","","","","","","","","","",""
"","image-keyboard-response","272","207687","0.0-360.0","3G2UL9A02E0KAD3AL358D89POC367A","ACAJFF4MF5S5X","3ECKRY5B1QIH1N6NFX1ECCW5ZDKIZQ","","366.29999999701977","img/food2.png","74","367.3999999985099","1","1","","2","1","1,0.5,0,1,0.5,0,0.5,0,1","1,0.5,0,1,0.5,0,0.5,0,1","1",""
"","html-keyboard-response","273","207990","0.0-361.0","3G2UL9A02E0KAD3AL358D89POC367A","ACAJFF4MF5S5X","3ECKRY5B1QIH1N6NFX1ECCW5ZDKIZQ","","null","<img src=""img/food2.png"" style=""width:200px; border:14px solid green;"">","null","","","","","","","","","",""
"","image-keyboard-response","274","208399","0.0-362.0","3G2UL9A02E0KAD3AL358D89POC367A","ACAJFF4MF5S5X","3ECKRY5B1QIH1N6NFX1ECCW5ZDKIZQ","","408.3999999985099","img/food2.png","74","409.5","1","1","","2","1","1,0.5,0,1,0.5,0,0.5,0,1","1,0.5,0,1,0.5,0,0.5,0,1","1",""
"","html-keyboard-response","275","208702","0.0-363.0","3G2UL9A02E0KAD3AL358D89POC367A","ACAJFF4MF5S5X","3ECKRY5B1QIH1N6NFX1ECCW5ZDKIZQ","","null","<img src=""img/food2.png"" style=""width:200px; border:14px solid green;"">","null","","","","","","","","","",""
"","image-keyboard-response","276","209479","0.0-364.0","3G2UL9A02E0KAD3AL358D89POC367A","ACAJFF4MF5S5X","3ECKRY5B1QIH1N6NFX1ECCW5ZDKIZQ","","776.2000000029802","img/food5.png","76","777.1999999955297","3","1","","3","1","1,0.5,0,1,0.5,0,0.5,0,1","1,0.5,0,1,0.5,0,0.5,0,1","1",""
"","html-keyboard-response","277","209781","0.0-365.0","3G2UL9A02E0KAD3AL358D89POC367A","ACAJFF4MF5S5X","3ECKRY5B1QIH1N6NFX1ECCW5ZDKIZQ","","null","<img src=""img/food5.png"" style=""width:200px; border:14px solid green;"">","null","","","","","","","","","",""
"","image-keyboard-response","278","210264","0.0-366.0","3G2UL9A02E0KAD3AL358D89POC367A","ACAJFF4MF5S5X","3ECKRY5B1QIH1N6NFX1ECCW5ZDKIZQ","","481.1000000014901","img/food6.png","74","482.5","1","1","","1","1","1,0.5,0,1,0.5,0,0.5,0,1","1,0.5,0,1,0.5,0,0.5,0,1","1",""
"","html-keyboard-response","279","210566","0.0-367.0","3G2UL9A02E0KAD3AL358D89POC367A","ACAJFF4MF5S5X","3ECKRY5B1QIH1N6NFX1ECCW5ZDKIZQ","","null","<img src=""img/food6.png"" style=""width:200px; border:14px solid green;"">","null","","","","","","","","","",""
"","image-keyboard-response","280","211071","0.0-368.0","3G2UL9A02E0KAD3AL358D89POC367A","ACAJFF4MF5S5X","3ECKRY5B1QIH1N6NFX1ECCW5ZDKIZQ","","503.5","img/food5.png","74","504.80000000447035","1","0","","3","1","1,0.5,0,1,0.5,0,0.5,0,1","1,0.5,0,1,0.5,0,0.5,0,1","1",""
"","html-keyboard-response","281","211373","0.0-369.0","3G2UL9A02E0KAD3AL358D89POC367A","ACAJFF4MF5S5X","3ECKRY5B1QIH1N6NFX1ECCW5ZDKIZQ","","null","<img src=""img/food5.png"" style=""width:200px;border:14px solid red;"">","null","","","","","","","","","",""
"","image-keyboard-response","282","211935","0.0-370.0","3G2UL9A02E0KAD3AL358D89POC367A","ACAJFF4MF5S5X","3ECKRY5B1QIH1N6NFX1ECCW5ZDKIZQ","","560.6000000014901","img/food5.png","76","561.5999999940395","3","1","","3","1","1,0.5,0,1,0.5,0,0.5,0,1","1,0.5,0,1,0.5,0,0.5,0,1","1",""
"","html-keyboard-response","283","212251","0.0-371.0","3G2UL9A02E0KAD3AL358D89POC367A","ACAJFF4MF5S5X","3ECKRY5B1QIH1N6NFX1ECCW5ZDKIZQ","","null","<img src=""img/food5.png"" style=""width:200px; border:14px solid green;"">","null","","","","","","","","","",""
"","image-keyboard-response","284","212839","0.0-372.0","3G2UL9A02E0KAD3AL358D89POC367A","ACAJFF4MF5S5X","3ECKRY5B1QIH1N6NFX1ECCW5ZDKIZQ","","587.3999999985099","img/food6.png","74","588.5","1","1","","1","1","1,0.5,0,1,0.5,0,0.5,0,1","1,0.5,0,1,0.5,0,0.5,0,1","1",""
"","html-keyboard-response","285","213141","0.0-373.0","3G2UL9A02E0KAD3AL358D89POC367A","ACAJFF4MF5S5X","3ECKRY5B1QIH1N6NFX1ECCW5ZDKIZQ","","null","<img src=""img/food6.png"" style=""width:200px; border:14px solid green;"">","null","","","","","","","","","",""
"","image-keyboard-response","286","213784","0.0-374.0","3G2UL9A02E0KAD3AL358D89POC367A","ACAJFF4MF5S5X","3ECKRY5B1QIH1N6NFX1ECCW5ZDKIZQ","","641.3999999985099","img/food2.png","74","642.6000000014901","1","1","","2","1","1,0.5,0,1,0.5,0,0.5,0,1","1,0.5,0,1,0.5,0,0.5,0,1","1",""
"","html-keyboard-response","287","214087","0.0-375.0","3G2UL9A02E0KAD3AL358D89POC367A","ACAJFF4MF5S5X","3ECKRY5B1QIH1N6NFX1ECCW5ZDKIZQ","","null","<img src=""img/food2.png"" style=""width:200px; border:14px solid green;"">","null","","","","","","","","","",""
"","image-keyboard-response","288","214607","0.0-376.0","3G2UL9A02E0KAD3AL358D89POC367A","ACAJFF4MF5S5X","3ECKRY5B1QIH1N6NFX1ECCW5ZDKIZQ","","519.1000000014901","img/food6.png","74","520.1000000014901","1","1","","1","1","1,0.5,0,1,0.5,0,0.5,0,1","1,0.5,0,1,0.5,0,0.5,0,1","1",""
"","html-keyboard-response","289","214909","0.0-377.0","3G2UL9A02E0KAD3AL358D89POC367A","ACAJFF4MF5S5X","3ECKRY5B1QIH1N6NFX1ECCW5ZDKIZQ","","null","<img src=""img/food6.png"" style=""width:200px; border:14px solid green;"">","null","","","","","","","","","",""
"","image-keyboard-response","290","215360","0.0-378.0","3G2UL9A02E0KAD3AL358D89POC367A","ACAJFF4MF5S5X","3ECKRY5B1QIH1N6NFX1ECCW5ZDKIZQ","","449.6000000014901","img/food5.png","76","450.80000000447035","3","1","","3","1","1,0.5,0,1,0.5,0,0.5,0,1","1,0.5,0,1,0.5,0,0.5,0,1","1",""
"","html-keyboard-response","291","215662","0.0-379.0","3G2UL9A02E0KAD3AL358D89POC367A","ACAJFF4MF5S5X","3ECKRY5B1QIH1N6NFX1ECCW5ZDKIZQ","","null","<img src=""img/food5.png"" style=""width:200px; border:14px solid green;"">","null","","","","","","","","","",""
"","image-keyboard-response","292","216139","0.0-380.0","3G2UL9A02E0KAD3AL358D89POC367A","ACAJFF4MF5S5X","3ECKRY5B1QIH1N6NFX1ECCW5ZDKIZQ","","475","img/food6.png","74","476.20000000298023","1","1","","1","1","1,0.5,0,1,0.5,0,0.5,0,1","1,0.5,0,1,0.5,0,0.5,0,1","1",""
"","html-keyboard-response","293","216441","0.0-381.0","3G2UL9A02E0KAD3AL358D89POC367A","ACAJFF4MF5S5X","3ECKRY5B1QIH1N6NFX1ECCW5ZDKIZQ","","null","<img src=""img/food6.png"" style=""width:200px; border:14px solid green;"">","null","","","","","","","","","",""
"","image-keyboard-response","294","217039","0.0-382.0","3G2UL9A02E0KAD3AL358D89POC367A","ACAJFF4MF5S5X","3ECKRY5B1QIH1N6NFX1ECCW5ZDKIZQ","","596.6000000014901","img/food5.png","76","597.6999999955297","3","1","","3","1","1,0.5,0,1,0.5,0,0.5,0,1","1,0.5,0,1,0.5,0,0.5,0,1","1",""
"","html-keyboard-response","295","217343","0.0-383.0","3G2UL9A02E0KAD3AL358D89POC367A","ACAJFF4MF5S5X","3ECKRY5B1QIH1N6NFX1ECCW5ZDKIZQ","","null","<img src=""img/food5.png"" style=""width:200px; border:14px solid green;"">","null","","","","","","","","","",""
"","image-keyboard-response","296","217751","0.0-384.0","3G2UL9A02E0KAD3AL358D89POC367A","ACAJFF4MF5S5X","3ECKRY5B1QIH1N6NFX1ECCW5ZDKIZQ","","407.6000000014901","img/food5.png","76","408.6000000014901","3","1","","3","1","1,0.5,0,1,0.5,0,0.5,0,1","1,0.5,0,1,0.5,0,0.5,0,1","1",""
"","html-keyboard-response","297","218054","0.0-385.0","3G2UL9A02E0KAD3AL358D89POC367A","ACAJFF4MF5S5X","3ECKRY5B1QIH1N6NFX1ECCW5ZDKIZQ","","null","<img src=""img/food5.png"" style=""width:200px; border:14px solid green;"">","null","","","","","","","","","",""
"","image-keyboard-response","298","218511","0.0-386.0","3G2UL9A02E0KAD3AL358D89POC367A","ACAJFF4MF5S5X","3ECKRY5B1QIH1N6NFX1ECCW5ZDKIZQ","","455.8999999985099","img/food2.png","74","457.09999999403954","1","1","","2","1","1,0.5,0,1,0.5,0,0.5,0,1","1,0.5,0,1,0.5,0,0.5,0,1","1",""
"","html-keyboard-response","299","218814","0.0-387.0","3G2UL9A02E0KAD3AL358D89POC367A","ACAJFF4MF5S5X","3ECKRY5B1QIH1N6NFX1ECCW5ZDKIZQ","","null","<img src=""img/food2.png"" style=""width:200px; border:14px solid green;"">","null","","","","","","","","","",""
"","image-keyboard-response","300","219231","0.0-388.0","3G2UL9A02E0KAD3AL358D89POC367A","ACAJFF4MF5S5X","3ECKRY5B1QIH1N6NFX1ECCW5ZDKIZQ","","416","img/food6.png","74","417.1000000014901","1","1","","1","1","1,0.5,0,1,0.5,0,0.5,0,1","1,0.5,0,1,0.5,0,0.5,0,1","1",""
"","html-keyboard-response","301","219533","0.0-389.0","3G2UL9A02E0KAD3AL358D89POC367A","ACAJFF4MF5S5X","3ECKRY5B1QIH1N6NFX1ECCW5ZDKIZQ","","null","<img src=""img/food6.png"" style=""width:200px; border:14px solid green;"">","null","","","","","","","","","",""
"","image-keyboard-response","302","219952","0.0-390.0","3G2UL9A02E0KAD3AL358D89POC367A","ACAJFF4MF5S5X","3ECKRY5B1QIH1N6NFX1ECCW5ZDKIZQ","","417.3999999985099","img/food6.png","74","418.59999999403954","1","1","","1","1","1,0.5,0,1,0.5,0,0.5,0,1","1,0.5,0,1,0.5,0,0.5,0,1","1",""
"","html-keyboard-response","303","220254","0.0-391.0","3G2UL9A02E0KAD3AL358D89POC367A","ACAJFF4MF5S5X","3ECKRY5B1QIH1N6NFX1ECCW5ZDKIZQ","","null","<img src=""img/food6.png"" style=""width:200px; border:14px solid green;"">","null","","","","","","","","","",""
"","image-keyboard-response","304","220696","0.0-392.0","3G2UL9A02E0KAD3AL358D89POC367A","ACAJFF4MF5S5X","3ECKRY5B1QIH1N6NFX1ECCW5ZDKIZQ","","440.3999999985099","img/food5.png","76","441.5","3","1","","3","1","1,0.5,0,1,0.5,0,0.5,0,1","1,0.5,0,1,0.5,0,0.5,0,1","1",""
"","html-keyboard-response","305","220998","0.0-393.0","3G2UL9A02E0KAD3AL358D89POC367A","ACAJFF4MF5S5X","3ECKRY5B1QIH1N6NFX1ECCW5ZDKIZQ","","null","<img src=""img/food5.png"" style=""width:200px; border:14px solid green;"">","null","","","","","","","","","",""
"","image-keyboard-response","306","221511","0.0-394.0","3G2UL9A02E0KAD3AL358D89POC367A","ACAJFF4MF5S5X","3ECKRY5B1QIH1N6NFX1ECCW5ZDKIZQ","","511.69999999552965","img/food6.png","74","512.9000000059605","1","1","","1","1","1,0.5,0,1,0.5,0,0.5,0,1","1,0.5,0,1,0.5,0,0.5,0,1","1",""
"","html-keyboard-response","307","221814","0.0-395.0","3G2UL9A02E0KAD3AL358D89POC367A","ACAJFF4MF5S5X","3ECKRY5B1QIH1N6NFX1ECCW5ZDKIZQ","","null","<img src=""img/food6.png"" style=""width:200px; border:14px solid green;"">","null","","","","","","","","","",""
"","image-keyboard-response","308","222288","0.0-396.0","3G2UL9A02E0KAD3AL358D89POC367A","ACAJFF4MF5S5X","3ECKRY5B1QIH1N6NFX1ECCW5ZDKIZQ","","472.40000000596046","img/food5.png","76","473.6000000014901","3","1","","3","1","1,0.5,0,1,0.5,0,0.5,0,1","1,0.5,0,1,0.5,0,0.5,0,1","1",""
"","html-keyboard-response","309","222590","0.0-397.0","3G2UL9A02E0KAD3AL358D89POC367A","ACAJFF4MF5S5X","3ECKRY5B1QIH1N6NFX1ECCW5ZDKIZQ","","null","<img src=""img/food5.png"" style=""width:200px; border:14px solid green;"">","null","","","","","","","","","",""
"","image-keyboard-response","310","223031","0.0-398.0","3G2UL9A02E0KAD3AL358D89POC367A","ACAJFF4MF5S5X","3ECKRY5B1QIH1N6NFX1ECCW5ZDKIZQ","","439.5","img/food6.png","74","440.69999999552965","1","1","","1","1","1,0.5,0,1,0.5,0,0.5,0,1","1,0.5,0,1,0.5,0,0.5,0,1","1",""
"","html-keyboard-response","311","223333","0.0-399.0","3G2UL9A02E0KAD3AL358D89POC367A","ACAJFF4MF5S5X","3ECKRY5B1QIH1N6NFX1ECCW5ZDKIZQ","","null","<img src=""img/food6.png"" style=""width:200px; border:14px solid green;"">","null","","","","","","","","","",""
"","image-keyboard-response","312","223783","0.0-400.0","3G2UL9A02E0KAD3AL358D89POC367A","ACAJFF4MF5S5X","3ECKRY5B1QIH1N6NFX1ECCW5ZDKIZQ","","449.1000000014901","img/food5.png","76","450.29999999701977","3","1","","3","1","1,0.5,0,1,0.5,0,0.5,0,1","1,0.5,0,1,0.5,0,0.5,0,1","1",""
"","html-keyboard-response","313","224086","0.0-401.0","3G2UL9A02E0KAD3AL358D89POC367A","ACAJFF4MF5S5X","3ECKRY5B1QIH1N6NFX1ECCW5ZDKIZQ","","null","<img src=""img/food5.png"" style=""width:200px; border:14px solid green;"">","null","","","","","","","","","",""
"","image-keyboard-response","314","224824","0.0-402.0","3G2UL9A02E0KAD3AL358D89POC367A","ACAJFF4MF5S5X","3ECKRY5B1QIH1N6NFX1ECCW5ZDKIZQ","","736.1999999955297","img/food2.png","74","737.3999999985099","1","1","","2","1","1,0.5,0,1,0.5,0,0.5,0,1","1,0.5,0,1,0.5,0,0.5,0,1","1",""
"","html-keyboard-response","315","225126","0.0-403.0","3G2UL9A02E0KAD3AL358D89POC367A","ACAJFF4MF5S5X","3ECKRY5B1QIH1N6NFX1ECCW5ZDKIZQ","","null","<img src=""img/food2.png"" style=""width:200px; border:14px solid green;"">","null","","","","","","","","","",""
"","image-keyboard-response","316","225519","0.0-404.0","3G2UL9A02E0KAD3AL358D89POC367A","ACAJFF4MF5S5X","3ECKRY5B1QIH1N6NFX1ECCW5ZDKIZQ","","391.5","img/food2.png","74","392.6000000014901","1","1","","2","1","1,0.5,0,1,0.5,0,0.5,0,1","1,0.5,0,1,0.5,0,0.5,0,1","1",""
"","html-keyboard-response","317","225821","0.0-405.0","3G2UL9A02E0KAD3AL358D89POC367A","ACAJFF4MF5S5X","3ECKRY5B1QIH1N6NFX1ECCW5ZDKIZQ","","null","<img src=""img/food2.png"" style=""width:200px; border:14px solid green;"">","null","","","","","","","","","",""
"","image-keyboard-response","318","226418","0.0-406.0","3G2UL9A02E0KAD3AL358D89POC367A","ACAJFF4MF5S5X","3ECKRY5B1QIH1N6NFX1ECCW5ZDKIZQ","","595.3000000044703","img/food5.png","76","596.5","3","1","","3","1","1,0.5,0,1,0.5,0,0.5,0,1","1,0.5,0,1,0.5,0,0.5,0,1","1",""
"","html-keyboard-response","319","226720","0.0-407.0","3G2UL9A02E0KAD3AL358D89POC367A","ACAJFF4MF5S5X","3ECKRY5B1QIH1N6NFX1ECCW5ZDKIZQ","","null","<img src=""img/food5.png"" style=""width:200px; border:14px solid green;"">","null","","","","","","","","","",""
"","image-keyboard-response","320","227255","0.0-408.0","3G2UL9A02E0KAD3AL358D89POC367A","ACAJFF4MF5S5X","3ECKRY5B1QIH1N6NFX1ECCW5ZDKIZQ","","533.5","img/food6.png","74","534.7000000029802","1","1","","1","1","1,0.5,0,1,0.5,0,0.5,0,1","1,0.5,0,1,0.5,0,0.5,0,1","1",""
"","html-keyboard-response","321","227557","0.0-409.0","3G2UL9A02E0KAD3AL358D89POC367A","ACAJFF4MF5S5X","3ECKRY5B1QIH1N6NFX1ECCW5ZDKIZQ","","null","<img src=""img/food6.png"" style=""width:200px; border:14px solid green;"">","null","","","","","","","","","",""
"","image-keyboard-response","322","228239","0.0-410.0","3G2UL9A02E0KAD3AL358D89POC367A","ACAJFF4MF5S5X","3ECKRY5B1QIH1N6NFX1ECCW5ZDKIZQ","","680.5","img/food5.png","76","681.6999999955297","3","1","","3","1","1,0.5,0,1,0.5,0,0.5,0,1","1,0.5,0,1,0.5,0,0.5,0,1","1",""
"","html-keyboard-response","323","228542","0.0-411.0","3G2UL9A02E0KAD3AL358D89POC367A","ACAJFF4MF5S5X","3ECKRY5B1QIH1N6NFX1ECCW5ZDKIZQ","","null","<img src=""img/food5.png"" style=""width:200px; border:14px solid green;"">","null","","","","","","","","","",""
"","image-keyboard-response","324","229127","0.0-412.0","3G2UL9A02E0KAD3AL358D89POC367A","ACAJFF4MF5S5X","3ECKRY5B1QIH1N6NFX1ECCW5ZDKIZQ","","583.8999999985099","img/food2.png","74","585","1","1","","2","1","1,0.5,0,1,0.5,0,0.5,0,1","1,0.5,0,1,0.5,0,0.5,0,1","1",""
"","html-keyboard-response","325","229429","0.0-413.0","3G2UL9A02E0KAD3AL358D89POC367A","ACAJFF4MF5S5X","3ECKRY5B1QIH1N6NFX1ECCW5ZDKIZQ","","null","<img src=""img/food2.png"" style=""width:200px; border:14px solid green;"">","null","","","","","","","","","",""
"","image-keyboard-response","326","229912","0.0-414.0","3G2UL9A02E0KAD3AL358D89POC367A","ACAJFF4MF5S5X","3ECKRY5B1QIH1N6NFX1ECCW5ZDKIZQ","","481.3999999985099","img/food2.png","74","482.30000000447035","1","1","","2","1","1,0.5,0,1,0.5,0,0.5,0,1","1,0.5,0,1,0.5,0,0.5,0,1","1",""
"","html-keyboard-response","327","230214","0.0-415.0","3G2UL9A02E0KAD3AL358D89POC367A","ACAJFF4MF5S5X","3ECKRY5B1QIH1N6NFX1ECCW5ZDKIZQ","","null","<img src=""img/food2.png"" style=""width:200px; border:14px solid green;"">","null","","","","","","","","","",""
"","image-keyboard-response","328","231056","0.0-416.0","3G2UL9A02E0KAD3AL358D89POC367A","ACAJFF4MF5S5X","3ECKRY5B1QIH1N6NFX1ECCW5ZDKIZQ","","840.5999999940395","img/food5.png","74","841.7000000029802","1","1","","3","1","1,0.5,0,1,0.5,0,0.5,0,1","1,0.5,0,1,0.5,0,0.5,0,1","1",""
"","html-keyboard-response","329","231358","0.0-417.0","3G2UL9A02E0KAD3AL358D89POC367A","ACAJFF4MF5S5X","3ECKRY5B1QIH1N6NFX1ECCW5ZDKIZQ","","null","<img src=""img/food5.png"" style=""width:200px; border:14px solid green;"">","null","","","","","","","","","",""
"","image-keyboard-response","330","233319","0.0-418.0","3G2UL9A02E0KAD3AL358D89POC367A","ACAJFF4MF5S5X","3ECKRY5B1QIH1N6NFX1ECCW5ZDKIZQ","","1959.8000000044703","img/food5.png","76","1961","3","1","","3","1","1,0.5,0,1,0.5,0,0.5,0,1","1,0.5,0,1,0.5,0,0.5,0,1","1",""
"","html-keyboard-response","331","233622","0.0-419.0","3G2UL9A02E0KAD3AL358D89POC367A","ACAJFF4MF5S5X","3ECKRY5B1QIH1N6NFX1ECCW5ZDKIZQ","","null","<img src=""img/food5.png"" style=""width:200px; border:14px solid green;"">","null","","","","","","","","","",""
"","image-keyboard-response","332","234472","0.0-420.0","3G2UL9A02E0KAD3AL358D89POC367A","ACAJFF4MF5S5X","3ECKRY5B1QIH1N6NFX1ECCW5ZDKIZQ","","848.5","img/food5.png","75","849.7000000029802","2","0","","3","1","1,0.5,0,1,0.5,0,0.5,0,1","1,0.5,0,1,0.5,0,0.5,0,1","1",""
"","html-keyboard-response","333","234774","0.0-421.0","3G2UL9A02E0KAD3AL358D89POC367A","ACAJFF4MF5S5X","3ECKRY5B1QIH1N6NFX1ECCW5ZDKIZQ","","null","<img src=""img/food5.png"" style=""width:200px;border:14px solid red;"">","null","","","","","","","","","",""
"","image-keyboard-response","334","235407","0.0-422.0","3G2UL9A02E0KAD3AL358D89POC367A","ACAJFF4MF5S5X","3ECKRY5B1QIH1N6NFX1ECCW5ZDKIZQ","","631.3999999985099","img/food6.png","74","632.6999999955297","1","1","","1","1","1,0.5,0,1,0.5,0,0.5,0,1","1,0.5,0,1,0.5,0,0.5,0,1","1",""
"","html-keyboard-response","335","235709","0.0-423.0","3G2UL9A02E0KAD3AL358D89POC367A","ACAJFF4MF5S5X","3ECKRY5B1QIH1N6NFX1ECCW5ZDKIZQ","","null","<img src=""img/food6.png"" style=""width:200px; border:14px solid green;"">","null","","","","","","","","","",""
"","image-keyboard-response","336","236072","0.0-424.0","3G2UL9A02E0KAD3AL358D89POC367A","ACAJFF4MF5S5X","3ECKRY5B1QIH1N6NFX1ECCW5ZDKIZQ","","360.8999999985099","img/food6.png","74","362.29999999701977","1","1","","1","1","1,0.5,0,1,0.5,0,0.5,0,1","1,0.5,0,1,0.5,0,0.5,0,1","1",""
"","html-keyboard-response","337","236374","0.0-425.0","3G2UL9A02E0KAD3AL358D89POC367A","ACAJFF4MF5S5X","3ECKRY5B1QIH1N6NFX1ECCW5ZDKIZQ","","null","<img src=""img/food6.png"" style=""width:200px; border:14px solid green;"">","null","","","","","","","","","",""
"","image-keyboard-response","338","237282","0.0-426.0","3G2UL9A02E0KAD3AL358D89POC367A","ACAJFF4MF5S5X","3ECKRY5B1QIH1N6NFX1ECCW5ZDKIZQ","","906.0999999940395","img/food5.png","75","907.2000000029802","2","0","","3","1","1,0.5,0,1,0.5,0,0.5,0,1","1,0.5,0,1,0.5,0,0.5,0,1","1",""
"","html-keyboard-response","339","237584","0.0-427.0","3G2UL9A02E0KAD3AL358D89POC367A","ACAJFF4MF5S5X","3ECKRY5B1QIH1N6NFX1ECCW5ZDKIZQ","","null","<img src=""img/food5.png"" style=""width:200px;border:14px solid red;"">","null","","","","","","","","","",""
"","image-keyboard-response","340","237880","0.0-428.0","3G2UL9A02E0KAD3AL358D89POC367A","ACAJFF4MF5S5X","3ECKRY5B1QIH1N6NFX1ECCW5ZDKIZQ","","294.19999999552965","img/food6.png","76","295.29999999701977","3","0","","1","1","1,0.5,0,1,0.5,0,0.5,0,1","1,0.5,0,1,0.5,0,0.5,0,1","1",""
"","html-keyboard-response","341","238182","0.0-429.0","3G2UL9A02E0KAD3AL358D89POC367A","ACAJFF4MF5S5X","3ECKRY5B1QIH1N6NFX1ECCW5ZDKIZQ","","null","<img src=""img/food6.png"" style=""width:200px;border:14px solid red;"">","null","","","","","","","","","",""
"","image-keyboard-response","342","239287","0.0-430.0","3G2UL9A02E0KAD3AL358D89POC367A","ACAJFF4MF5S5X","3ECKRY5B1QIH1N6NFX1ECCW5ZDKIZQ","","1103.5","img/food5.png","75","1104.8999999985099","2","0","","3","1","1,0.5,0,1,0.5,0,0.5,0,1","1,0.5,0,1,0.5,0,0.5,0,1","1",""
"","html-keyboard-response","343","239590","0.0-431.0","3G2UL9A02E0KAD3AL358D89POC367A","ACAJFF4MF5S5X","3ECKRY5B1QIH1N6NFX1ECCW5ZDKIZQ","","null","<img src=""img/food5.png"" style=""width:200px;border:14px solid red;"">","null","","","","","","","","","",""
"","image-keyboard-response","344","240167","0.0-432.0","3G2UL9A02E0KAD3AL358D89POC367A","ACAJFF4MF5S5X","3ECKRY5B1QIH1N6NFX1ECCW5ZDKIZQ","","576.1000000014901","img/food2.png","75","577.2999999970198","2","0","","2","1","1,0.5,0,1,0.5,0,0.5,0,1","1,0.5,0,1,0.5,0,0.5,0,1","1",""
"","html-keyboard-response","345","240469","0.0-433.0","3G2UL9A02E0KAD3AL358D89POC367A","ACAJFF4MF5S5X","3ECKRY5B1QIH1N6NFX1ECCW5ZDKIZQ","","null","<img src=""img/food2.png"" style=""width:200px;border:14px solid red;"">","null","","","","","","","","","",""
"","image-keyboard-response","346","241343","0.0-434.0","3G2UL9A02E0KAD3AL358D89POC367A","ACAJFF4MF5S5X","3ECKRY5B1QIH1N6NFX1ECCW5ZDKIZQ","","872.5","img/food2.png","74","873.3999999985099","1","1","","2","1","1,0.5,0,1,0.5,0,0.5,0,1","1,0.5,0,1,0.5,0,0.5,0,1","1",""
"","html-keyboard-response","347","241645","0.0-435.0","3G2UL9A02E0KAD3AL358D89POC367A","ACAJFF4MF5S5X","3ECKRY5B1QIH1N6NFX1ECCW5ZDKIZQ","","null","<img src=""img/food2.png"" style=""width:200px; border:14px solid green;"">","null","","","","","","","","","",""
"","image-keyboard-response","348","242519","0.0-436.0","3G2UL9A02E0KAD3AL358D89POC367A","ACAJFF4MF5S5X","3ECKRY5B1QIH1N6NFX1ECCW5ZDKIZQ","","873.2999999970198","img/food5.png","76","874.3999999985099","3","1","","3","1","1,0.5,0,1,0.5,0,0.5,0,1","1,0.5,0,1,0.5,0,0.5,0,1","1",""
"","html-keyboard-response","349","242821","0.0-437.0","3G2UL9A02E0KAD3AL358D89POC367A","ACAJFF4MF5S5X","3ECKRY5B1QIH1N6NFX1ECCW5ZDKIZQ","","null","<img src=""img/food5.png"" style=""width:200px; border:14px solid green;"">","null","","","","","","","","","",""
"","image-keyboard-response","350","243567","0.0-438.0","3G2UL9A02E0KAD3AL358D89POC367A","ACAJFF4MF5S5X","3ECKRY5B1QIH1N6NFX1ECCW5ZDKIZQ","","744.6000000014901","img/food2.png","74","745.8999999985099","1","1","","2","1","1,0.5,0,1,0.5,0,0.5,0,1","1,0.5,0,1,0.5,0,0.5,0,1","1",""
"","html-keyboard-response","351","243871","0.0-439.0","3G2UL9A02E0KAD3AL358D89POC367A","ACAJFF4MF5S5X","3ECKRY5B1QIH1N6NFX1ECCW5ZDKIZQ","","null","<img src=""img/food2.png"" style=""width:200px; border:14px solid green;"">","null","","","","","","","","","",""
"","image-keyboard-response","352","244710","0.0-440.0","3G2UL9A02E0KAD3AL358D89POC367A","ACAJFF4MF5S5X","3ECKRY5B1QIH1N6NFX1ECCW5ZDKIZQ","","838.3999999985099","img/food5.png","76","839.3000000044703","3","1","","3","1","1,0.5,0,1,0.5,0,0.5,0,1","1,0.5,0,1,0.5,0,0.5,0,1","1",""
"","html-keyboard-response","353","245012","0.0-441.0","3G2UL9A02E0KAD3AL358D89POC367A","ACAJFF4MF5S5X","3ECKRY5B1QIH1N6NFX1ECCW5ZDKIZQ","","null","<img src=""img/food5.png"" style=""width:200px; border:14px solid green;"">","null","","","","","","","","","",""
"","image-keyboard-response","354","245656","0.0-442.0","3G2UL9A02E0KAD3AL358D89POC367A","ACAJFF4MF5S5X","3ECKRY5B1QIH1N6NFX1ECCW5ZDKIZQ","","642.5","img/food6.png","75","643.7000000029802","2","0","","1","1","1,0.5,0,1,0.5,0,0.5,0,1","1,0.5,0,1,0.5,0,0.5,0,1","1",""
"","html-keyboard-response","355","245958","0.0-443.0","3G2UL9A02E0KAD3AL358D89POC367A","ACAJFF4MF5S5X","3ECKRY5B1QIH1N6NFX1ECCW5ZDKIZQ","","null","<img src=""img/food6.png"" style=""width:200px;border:14px solid red;"">","null","","","","","","","","","",""
"","image-keyboard-response","356","246287","0.0-444.0","3G2UL9A02E0KAD3AL358D89POC367A","ACAJFF4MF5S5X","3ECKRY5B1QIH1N6NFX1ECCW5ZDKIZQ","","328.1000000014901","img/food2.png","74","329.20000000298023","1","1","","2","1","1,0.5,0,1,0.5,0,0.5,0,1","1,0.5,0,1,0.5,0,0.5,0,1","1",""
"","html-keyboard-response","357","246590","0.0-445.0","3G2UL9A02E0KAD3AL358D89POC367A","ACAJFF4MF5S5X","3ECKRY5B1QIH1N6NFX1ECCW5ZDKIZQ","","null","<img src=""img/food2.png"" style=""width:200px; border:14px solid green;"">","null","","","","","","","","","",""
"","image-keyboard-response","358","247255","0.0-446.0","3G2UL9A02E0KAD3AL358D89POC367A","ACAJFF4MF5S5X","3ECKRY5B1QIH1N6NFX1ECCW5ZDKIZQ","","664.1999999955297","img/food5.png","74","665.3000000044703","1","1","","3","1","1,0.5,0,1,0.5,0,0.5,0,1","1,0.5,0,1,0.5,0,0.5,0,1","1",""
"","html-keyboard-response","359","247557","0.0-447.0","3G2UL9A02E0KAD3AL358D89POC367A","ACAJFF4MF5S5X","3ECKRY5B1QIH1N6NFX1ECCW5ZDKIZQ","","null","<img src=""img/food5.png"" style=""width:200px; border:14px solid green;"">","null","","","","","","","","","",""
"","image-keyboard-response","360","248363","0.0-448.0","3G2UL9A02E0KAD3AL358D89POC367A","ACAJFF4MF5S5X","3ECKRY5B1QIH1N6NFX1ECCW5ZDKIZQ","","804.3999999985099","img/food2.png","74","805.4000000059605","1","1","","2","1","1,0.5,0,1,0.5,0,0.5,0,1","1,0.5,0,1,0.5,0,0.5,0,1","1",""
"","html-keyboard-response","361","248665","0.0-449.0","3G2UL9A02E0KAD3AL358D89POC367A","ACAJFF4MF5S5X","3ECKRY5B1QIH1N6NFX1ECCW5ZDKIZQ","","null","<img src=""img/food2.png"" style=""width:200px; border:14px solid green;"">","null","","","","","","","","","",""
"","image-keyboard-response","362","249775","0.0-450.0","3G2UL9A02E0KAD3AL358D89POC367A","ACAJFF4MF5S5X","3ECKRY5B1QIH1N6NFX1ECCW5ZDKIZQ","","1109.2999999970198","img/food6.png","74","1110.2999999970198","1","1","","1","1","1,0.5,0,1,0.5,0,0.5,0,1","1,0.5,0,1,0.5,0,0.5,0,1","1",""
"","html-keyboard-response","363","250077","0.0-451.0","3G2UL9A02E0KAD3AL358D89POC367A","ACAJFF4MF5S5X","3ECKRY5B1QIH1N6NFX1ECCW5ZDKIZQ","","null","<img src=""img/food6.png"" style=""width:200px; border:14px solid green;"">","null","","","","","","","","","",""
"","image-keyboard-response","364","250623","0.0-452.0","3G2UL9A02E0KAD3AL358D89POC367A","ACAJFF4MF5S5X","3ECKRY5B1QIH1N6NFX1ECCW5ZDKIZQ","","545","img/food2.png","76","546.1000000014901","3","0","","2","1","1,0.5,0,1,0.5,0,0.5,0,1","1,0.5,0,1,0.5,0,0.5,0,1","1",""
"","html-keyboard-response","365","250926","0.0-453.0","3G2UL9A02E0KAD3AL358D89POC367A","ACAJFF4MF5S5X","3ECKRY5B1QIH1N6NFX1ECCW5ZDKIZQ","","null","<img src=""img/food2.png"" style=""width:200px;border:14px solid red;"">","null","","","","","","","","","",""
"","html-keyboard-response","366","254636","0.0-454.0","3G2UL9A02E0KAD3AL358D89POC367A","ACAJFF4MF5S5X","3ECKRY5B1QIH1N6NFX1ECCW5ZDKIZQ","","","","","","","","","","","","","",""
"","instructions","367","258000","0.0-455.0","3G2UL9A02E0KAD3AL358D89POC367A","ACAJFF4MF5S5X","3ECKRY5B1QIH1N6NFX1ECCW5ZDKIZQ","[{""page_index"":0,""viewing_time"":3362.9000000059605}]","3363.10000000149","","","","","","","","","","","",""
"","survey-text","368","262856","0.0-456.0","3G2UL9A02E0KAD3AL358D89POC367A","ACAJFF4MF5S5X","3ECKRY5B1QIH1N6NFX1ECCW5ZDKIZQ","","4853.69999999553","","","","","","","","","","","","{""Q0"":""ACAJFF4MF5S5X""}"
