"success","trial_type","trial_index","time_elapsed","internal_node_id","assignmentID","mturkID","hitID","view_history","rt","stimulus","key_press","reactionTime","a","r","s","cond","reward_cond","reward_cond_actual","reward_matrix_idx","warning","responses"
"true","fullscreen","0","3821","0.0-0.0","3DI28L7YXB0AC6HN257XOMAP2KM1EG","ACJNWSBIVI46H","3TKXBROM5TWR181JXBYSOI8FGFVJIU","","","","","","","","","","","","","",""
"","instructions","1","14204","0.0-1.0","3DI28L7YXB0AC6HN257XOMAP2KM1EG","ACJNWSBIVI46H","3TKXBROM5TWR181JXBYSOI8FGFVJIU","[{""page_index"":0,""viewing_time"":3857.4000000953674},{""page_index"":1,""viewing_time"":683},{""page_index"":2,""viewing_time"":588.8999998569489},{""page_index"":3,""viewing_time"":1664},{""page_index"":4,""viewing_time"":908.3000001907349},{""page_index"":5,""viewing_time"":1002.6999998092651},{""page_index"":6,""viewing_time"":1673}]","10378.299999952316","","","","","","","","","","","",""
"","image-keyboard-response","2","14793","0.0-2.0","3DI28L7YXB0AC6HN257XOMAP2KM1EG","ACJNWSBIVI46H","3TKXBROM5TWR181JXBYSOI8FGFVJIU","","583.5999999046326","img/food2.png","74","587.2000000476837","1","1","2","1","1,0.5,0,1,0.5,0,0.5,0,1","1,0.5,0,1,0.5,0,0.5,0,1","1","",""
"","html-keyboard-response","3","15104","0.0-3.0","3DI28L7YXB0AC6HN257XOMAP2KM1EG","ACJNWSBIVI46H","3TKXBROM5TWR181JXBYSOI8FGFVJIU","","null","<img src=""img/food2.png"" style=""width:200px; border:14px solid green;"">","null","","","","","","","","","",""
"","image-keyboard-response","4","15416","0.0-4.0","3DI28L7YXB0AC6HN257XOMAP2KM1EG","ACJNWSBIVI46H","3TKXBROM5TWR181JXBYSOI8FGFVJIU","","309.10000014305115","img/food2.png","74","311.5","1","1","2","1","1,0.5,0,1,0.5,0,0.5,0,1","1,0.5,0,1,0.5,0,0.5,0,1","1","",""
"","html-keyboard-response","5","15727","0.0-5.0","3DI28L7YXB0AC6HN257XOMAP2KM1EG","ACJNWSBIVI46H","3TKXBROM5TWR181JXBYSOI8FGFVJIU","","null","<img src=""img/food2.png"" style=""width:200px; border:14px solid green;"">","null","","","","","","","","","",""
"","image-keyboard-response","6","16282","0.0-6.0","3DI28L7YXB0AC6HN257XOMAP2KM1EG","ACJNWSBIVI46H","3TKXBROM5TWR181JXBYSOI8FGFVJIU","","551.7999999523163","img/food4.png","75","554","2","0","3","1","1,0.5,0,1,0.5,0,0.5,0,1","1,0.5,0,1,0.5,0,0.5,0,1","1","",""
"","html-keyboard-response","7","16594","0.0-7.0","3DI28L7YXB0AC6HN257XOMAP2KM1EG","ACJNWSBIVI46H","3TKXBROM5TWR181JXBYSOI8FGFVJIU","","null","<img src=""img/food4.png"" style=""width:200px;border:14px solid red;"">","null","","","","","","","","","",""
"","image-keyboard-response","8","16912","0.0-8.0","3DI28L7YXB0AC6HN257XOMAP2KM1EG","ACJNWSBIVI46H","3TKXBROM5TWR181JXBYSOI8FGFVJIU","","314.90000009536743","img/food4.png","76","317.10000014305115","3","1","3","1","1,0.5,0,1,0.5,0,0.5,0,1","1,0.5,0,1,0.5,0,0.5,0,1","1","",""
"","html-keyboard-response","9","17230","0.0-9.0","3DI28L7YXB0AC6HN257XOMAP2KM1EG","ACJNWSBIVI46H","3TKXBROM5TWR181JXBYSOI8FGFVJIU","","null","<img src=""img/food4.png"" style=""width:200px; border:14px solid green;"">","null","","","","","","","","","",""
"","image-keyboard-response","10","17941","0.0-10.0","3DI28L7YXB0AC6HN257XOMAP2KM1EG","ACJNWSBIVI46H","3TKXBROM5TWR181JXBYSOI8FGFVJIU","","707.1999998092651","img/food6.png","75","709.8000001907349","2","0","1","1","1,0.5,0,1,0.5,0,0.5,0,1","1,0.5,0,1,0.5,0,0.5,0,1","1","",""
"","html-keyboard-response","11","18254","0.0-11.0","3DI28L7YXB0AC6HN257XOMAP2KM1EG","ACJNWSBIVI46H","3TKXBROM5TWR181JXBYSOI8FGFVJIU","","null","<img src=""img/food6.png"" style=""width:200px;border:14px solid red;"">","null","","","","","","","","","",""
"","image-keyboard-response","12","18675","0.0-12.0","3DI28L7YXB0AC6HN257XOMAP2KM1EG","ACJNWSBIVI46H","3TKXBROM5TWR181JXBYSOI8FGFVJIU","","418.40000009536743","img/food6.png","76","420.5","3","0","1","1","1,0.5,0,1,0.5,0,0.5,0,1","1,0.5,0,1,0.5,0,0.5,0,1","1","",""
"","html-keyboard-response","13","18988","0.0-13.0","3DI28L7YXB0AC6HN257XOMAP2KM1EG","ACJNWSBIVI46H","3TKXBROM5TWR181JXBYSOI8FGFVJIU","","null","<img src=""img/food6.png"" style=""width:200px;border:14px solid red;"">","null","","","","","","","","","",""
"","image-keyboard-response","14","19330","0.0-14.0","3DI28L7YXB0AC6HN257XOMAP2KM1EG","ACJNWSBIVI46H","3TKXBROM5TWR181JXBYSOI8FGFVJIU","","339.10000014305115","img/food6.png","74","341.5","1","1","1","1","1,0.5,0,1,0.5,0,0.5,0,1","1,0.5,0,1,0.5,0,0.5,0,1","1","",""
"","html-keyboard-response","15","19643","0.0-15.0","3DI28L7YXB0AC6HN257XOMAP2KM1EG","ACJNWSBIVI46H","3TKXBROM5TWR181JXBYSOI8FGFVJIU","","null","<img src=""img/food6.png"" style=""width:200px; border:14px solid green;"">","null","","","","","","","","","",""
"","image-keyboard-response","16","20237","0.0-16.0","3DI28L7YXB0AC6HN257XOMAP2KM1EG","ACJNWSBIVI46H","3TKXBROM5TWR181JXBYSOI8FGFVJIU","","592","img/food2.png","74","593.9000000953674","1","1","2","1","1,0.5,0,1,0.5,0,0.5,0,1","1,0.5,0,1,0.5,0,0.5,0,1","1","",""
"","html-keyboard-response","17","20546","0.0-17.0","3DI28L7YXB0AC6HN257XOMAP2KM1EG","ACJNWSBIVI46H","3TKXBROM5TWR181JXBYSOI8FGFVJIU","","null","<img src=""img/food2.png"" style=""width:200px; border:14px solid green;"">","null","","","","","","","","","",""
"","image-keyboard-response","18","20958","0.0-18.0","3DI28L7YXB0AC6HN257XOMAP2KM1EG","ACJNWSBIVI46H","3TKXBROM5TWR181JXBYSOI8FGFVJIU","","409.59999990463257","img/food6.png","74","411.7999999523163","1","1","1","1","1,0.5,0,1,0.5,0,0.5,0,1","1,0.5,0,1,0.5,0,0.5,0,1","1","",""
"","html-keyboard-response","19","21273","0.0-19.0","3DI28L7YXB0AC6HN257XOMAP2KM1EG","ACJNWSBIVI46H","3TKXBROM5TWR181JXBYSOI8FGFVJIU","","null","<img src=""img/food6.png"" style=""width:200px; border:14px solid green;"">","null","","","","","","","","","",""
"","image-keyboard-response","20","21547","0.0-20.0","3DI28L7YXB0AC6HN257XOMAP2KM1EG","ACJNWSBIVI46H","3TKXBROM5TWR181JXBYSOI8FGFVJIU","","271.2999999523163","img/food6.png","74","273.40000009536743","1","1","1","1","1,0.5,0,1,0.5,0,0.5,0,1","1,0.5,0,1,0.5,0,0.5,0,1","1","",""
"","html-keyboard-response","21","21863","0.0-21.0","3DI28L7YXB0AC6HN257XOMAP2KM1EG","ACJNWSBIVI46H","3TKXBROM5TWR181JXBYSOI8FGFVJIU","","null","<img src=""img/food6.png"" style=""width:200px; border:14px solid green;"">","null","","","","","","","","","",""
"","image-keyboard-response","22","22409","0.0-22.0","3DI28L7YXB0AC6HN257XOMAP2KM1EG","ACJNWSBIVI46H","3TKXBROM5TWR181JXBYSOI8FGFVJIU","","543.5999999046326","img/food2.png","74","545.5","1","1","2","1","1,0.5,0,1,0.5,0,0.5,0,1","1,0.5,0,1,0.5,0,0.5,0,1","1","",""
"","html-keyboard-response","23","22714","0.0-23.0","3DI28L7YXB0AC6HN257XOMAP2KM1EG","ACJNWSBIVI46H","3TKXBROM5TWR181JXBYSOI8FGFVJIU","","null","<img src=""img/food2.png"" style=""width:200px; border:14px solid green;"">","null","","","","","","","","","",""
"","image-keyboard-response","24","23104","0.0-24.0","3DI28L7YXB0AC6HN257XOMAP2KM1EG","ACJNWSBIVI46H","3TKXBROM5TWR181JXBYSOI8FGFVJIU","","387.89999985694885","img/food6.png","74","390","1","1","1","1","1,0.5,0,1,0.5,0,0.5,0,1","1,0.5,0,1,0.5,0,0.5,0,1","1","",""
"","html-keyboard-response","25","23411","0.0-25.0","3DI28L7YXB0AC6HN257XOMAP2KM1EG","ACJNWSBIVI46H","3TKXBROM5TWR181JXBYSOI8FGFVJIU","","null","<img src=""img/food6.png"" style=""width:200px; border:14px solid green;"">","null","","","","","","","","","",""
"","image-keyboard-response","26","23865","0.0-26.0","3DI28L7YXB0AC6HN257XOMAP2KM1EG","ACJNWSBIVI46H","3TKXBROM5TWR181JXBYSOI8FGFVJIU","","452.09999990463257","img/food4.png","76","454.2000000476837","3","1","3","1","1,0.5,0,1,0.5,0,0.5,0,1","1,0.5,0,1,0.5,0,0.5,0,1","1","",""
"","html-keyboard-response","27","24173","0.0-27.0","3DI28L7YXB0AC6HN257XOMAP2KM1EG","ACJNWSBIVI46H","3TKXBROM5TWR181JXBYSOI8FGFVJIU","","null","<img src=""img/food4.png"" style=""width:200px; border:14px solid green;"">","null","","","","","","","","","",""
"","image-keyboard-response","28","24510","0.0-28.0","3DI28L7YXB0AC6HN257XOMAP2KM1EG","ACJNWSBIVI46H","3TKXBROM5TWR181JXBYSOI8FGFVJIU","","335.2999999523163","img/food4.png","76","337.2000000476837","3","1","3","1","1,0.5,0,1,0.5,0,0.5,0,1","1,0.5,0,1,0.5,0,0.5,0,1","1","",""
"","html-keyboard-response","29","24822","0.0-29.0","3DI28L7YXB0AC6HN257XOMAP2KM1EG","ACJNWSBIVI46H","3TKXBROM5TWR181JXBYSOI8FGFVJIU","","null","<img src=""img/food4.png"" style=""width:200px; border:14px solid green;"">","null","","","","","","","","","",""
"","image-keyboard-response","30","25236","0.0-30.0","3DI28L7YXB0AC6HN257XOMAP2KM1EG","ACJNWSBIVI46H","3TKXBROM5TWR181JXBYSOI8FGFVJIU","","411.5","img/food6.png","74","413.40000009536743","1","1","1","1","1,0.5,0,1,0.5,0,0.5,0,1","1,0.5,0,1,0.5,0,0.5,0,1","1","",""
"","html-keyboard-response","31","25553","0.0-31.0","3DI28L7YXB0AC6HN257XOMAP2KM1EG","ACJNWSBIVI46H","3TKXBROM5TWR181JXBYSOI8FGFVJIU","","null","<img src=""img/food6.png"" style=""width:200px; border:14px solid green;"">","null","","","","","","","","","",""
"","image-keyboard-response","32","25962","0.0-32.0","3DI28L7YXB0AC6HN257XOMAP2KM1EG","ACJNWSBIVI46H","3TKXBROM5TWR181JXBYSOI8FGFVJIU","","406.30000019073486","img/food2.png","74","408.2999999523163","1","1","2","1","1,0.5,0,1,0.5,0,0.5,0,1","1,0.5,0,1,0.5,0,0.5,0,1","1","",""
"","html-keyboard-response","33","26268","0.0-33.0","3DI28L7YXB0AC6HN257XOMAP2KM1EG","ACJNWSBIVI46H","3TKXBROM5TWR181JXBYSOI8FGFVJIU","","null","<img src=""img/food2.png"" style=""width:200px; border:14px solid green;"">","null","","","","","","","","","",""
"","image-keyboard-response","34","26687","0.0-34.0","3DI28L7YXB0AC6HN257XOMAP2KM1EG","ACJNWSBIVI46H","3TKXBROM5TWR181JXBYSOI8FGFVJIU","","416.10000014305115","img/food6.png","74","418.09999990463257","1","1","1","1","1,0.5,0,1,0.5,0,0.5,0,1","1,0.5,0,1,0.5,0,0.5,0,1","1","",""
"","html-keyboard-response","35","26995","0.0-35.0","3DI28L7YXB0AC6HN257XOMAP2KM1EG","ACJNWSBIVI46H","3TKXBROM5TWR181JXBYSOI8FGFVJIU","","null","<img src=""img/food6.png"" style=""width:200px; border:14px solid green;"">","null","","","","","","","","","",""
"","image-keyboard-response","36","27377","0.0-36.0","3DI28L7YXB0AC6HN257XOMAP2KM1EG","ACJNWSBIVI46H","3TKXBROM5TWR181JXBYSOI8FGFVJIU","","379.2999999523163","img/food2.png","74","381.09999990463257","1","1","2","1","1,0.5,0,1,0.5,0,0.5,0,1","1,0.5,0,1,0.5,0,0.5,0,1","1","",""
"","html-keyboard-response","37","27692","0.0-37.0","3DI28L7YXB0AC6HN257XOMAP2KM1EG","ACJNWSBIVI46H","3TKXBROM5TWR181JXBYSOI8FGFVJIU","","null","<img src=""img/food2.png"" style=""width:200px; border:14px solid green;"">","null","","","","","","","","","",""
"","image-keyboard-response","38","28154","0.0-38.0","3DI28L7YXB0AC6HN257XOMAP2KM1EG","ACJNWSBIVI46H","3TKXBROM5TWR181JXBYSOI8FGFVJIU","","458.7000000476837","img/food6.png","74","460.59999990463257","1","1","1","1","1,0.5,0,1,0.5,0,0.5,0,1","1,0.5,0,1,0.5,0,0.5,0,1","1","",""
"","html-keyboard-response","39","28457","0.0-39.0","3DI28L7YXB0AC6HN257XOMAP2KM1EG","ACJNWSBIVI46H","3TKXBROM5TWR181JXBYSOI8FGFVJIU","","null","<img src=""img/food6.png"" style=""width:200px; border:14px solid green;"">","null","","","","","","","","","",""
"","image-keyboard-response","40","28773","0.0-40.0","3DI28L7YXB0AC6HN257XOMAP2KM1EG","ACJNWSBIVI46H","3TKXBROM5TWR181JXBYSOI8FGFVJIU","","313.90000009536743","img/food6.png","74","315.90000009536743","1","1","1","1","1,0.5,0,1,0.5,0,0.5,0,1","1,0.5,0,1,0.5,0,0.5,0,1","1","",""
"","html-keyboard-response","41","29077","0.0-41.0","3DI28L7YXB0AC6HN257XOMAP2KM1EG","ACJNWSBIVI46H","3TKXBROM5TWR181JXBYSOI8FGFVJIU","","null","<img src=""img/food6.png"" style=""width:200px; border:14px solid green;"">","null","","","","","","","","","",""
"","image-keyboard-response","42","29388","0.0-42.0","3DI28L7YXB0AC6HN257XOMAP2KM1EG","ACJNWSBIVI46H","3TKXBROM5TWR181JXBYSOI8FGFVJIU","","308.7999999523163","img/food6.png","74","310.7999999523163","1","1","1","1","1,0.5,0,1,0.5,0,0.5,0,1","1,0.5,0,1,0.5,0,0.5,0,1","1","",""
"","html-keyboard-response","43","29691","0.0-43.0","3DI28L7YXB0AC6HN257XOMAP2KM1EG","ACJNWSBIVI46H","3TKXBROM5TWR181JXBYSOI8FGFVJIU","","null","<img src=""img/food6.png"" style=""width:200px; border:14px solid green;"">","null","","","","","","","","","",""
"","image-keyboard-response","44","30038","0.0-44.0","3DI28L7YXB0AC6HN257XOMAP2KM1EG","ACJNWSBIVI46H","3TKXBROM5TWR181JXBYSOI8FGFVJIU","","345.2000000476837","img/food4.png","76","347.09999990463257","3","1","3","1","1,0.5,0,1,0.5,0,0.5,0,1","1,0.5,0,1,0.5,0,0.5,0,1","1","",""
"","html-keyboard-response","45","30341","0.0-45.0","3DI28L7YXB0AC6HN257XOMAP2KM1EG","ACJNWSBIVI46H","3TKXBROM5TWR181JXBYSOI8FGFVJIU","","null","<img src=""img/food4.png"" style=""width:200px; border:14px solid green;"">","null","","","","","","","","","",""
"","image-keyboard-response","46","30678","0.0-46.0","3DI28L7YXB0AC6HN257XOMAP2KM1EG","ACJNWSBIVI46H","3TKXBROM5TWR181JXBYSOI8FGFVJIU","","334.7999999523163","img/food4.png","76","336.7999999523163","3","1","3","1","1,0.5,0,1,0.5,0,0.5,0,1","1,0.5,0,1,0.5,0,0.5,0,1","1","",""
"","html-keyboard-response","47","30982","0.0-47.0","3DI28L7YXB0AC6HN257XOMAP2KM1EG","ACJNWSBIVI46H","3TKXBROM5TWR181JXBYSOI8FGFVJIU","","null","<img src=""img/food4.png"" style=""width:200px; border:14px solid green;"">","null","","","","","","","","","",""
"","image-keyboard-response","48","31364","0.0-48.0","3DI28L7YXB0AC6HN257XOMAP2KM1EG","ACJNWSBIVI46H","3TKXBROM5TWR181JXBYSOI8FGFVJIU","","379.59999990463257","img/food6.png","74","381.5","1","1","1","1","1,0.5,0,1,0.5,0,0.5,0,1","1,0.5,0,1,0.5,0,0.5,0,1","1","",""
"","html-keyboard-response","49","31667","0.0-49.0","3DI28L7YXB0AC6HN257XOMAP2KM1EG","ACJNWSBIVI46H","3TKXBROM5TWR181JXBYSOI8FGFVJIU","","null","<img src=""img/food6.png"" style=""width:200px; border:14px solid green;"">","null","","","","","","","","","",""
"","image-keyboard-response","50","32069","0.0-50.0","3DI28L7YXB0AC6HN257XOMAP2KM1EG","ACJNWSBIVI46H","3TKXBROM5TWR181JXBYSOI8FGFVJIU","","399.5","img/food2.png","74","401.5","1","1","2","1","1,0.5,0,1,0.5,0,0.5,0,1","1,0.5,0,1,0.5,0,0.5,0,1","1","",""
"","html-keyboard-response","51","32372","0.0-51.0","3DI28L7YXB0AC6HN257XOMAP2KM1EG","ACJNWSBIVI46H","3TKXBROM5TWR181JXBYSOI8FGFVJIU","","null","<img src=""img/food2.png"" style=""width:200px; border:14px solid green;"">","null","","","","","","","","","",""
"","image-keyboard-response","52","32835","0.0-52.0","3DI28L7YXB0AC6HN257XOMAP2KM1EG","ACJNWSBIVI46H","3TKXBROM5TWR181JXBYSOI8FGFVJIU","","460.5","img/food4.png","76","462.5","3","1","3","1","1,0.5,0,1,0.5,0,0.5,0,1","1,0.5,0,1,0.5,0,0.5,0,1","1","",""
"","html-keyboard-response","53","33138","0.0-53.0","3DI28L7YXB0AC6HN257XOMAP2KM1EG","ACJNWSBIVI46H","3TKXBROM5TWR181JXBYSOI8FGFVJIU","","null","<img src=""img/food4.png"" style=""width:200px; border:14px solid green;"">","null","","","","","","","","","",""
"","image-keyboard-response","54","33551","0.0-54.0","3DI28L7YXB0AC6HN257XOMAP2KM1EG","ACJNWSBIVI46H","3TKXBROM5TWR181JXBYSOI8FGFVJIU","","410.5","img/food6.png","74","412.5","1","1","1","1","1,0.5,0,1,0.5,0,0.5,0,1","1,0.5,0,1,0.5,0,0.5,0,1","1","",""
"","html-keyboard-response","55","33855","0.0-55.0","3DI28L7YXB0AC6HN257XOMAP2KM1EG","ACJNWSBIVI46H","3TKXBROM5TWR181JXBYSOI8FGFVJIU","","null","<img src=""img/food6.png"" style=""width:200px; border:14px solid green;"">","null","","","","","","","","","",""
"","image-keyboard-response","56","34231","0.0-56.0","3DI28L7YXB0AC6HN257XOMAP2KM1EG","ACJNWSBIVI46H","3TKXBROM5TWR181JXBYSOI8FGFVJIU","","374","img/food4.png","76","375.89999985694885","3","1","3","1","1,0.5,0,1,0.5,0,0.5,0,1","1,0.5,0,1,0.5,0,0.5,0,1","1","",""
"","html-keyboard-response","57","34535","0.0-57.0","3DI28L7YXB0AC6HN257XOMAP2KM1EG","ACJNWSBIVI46H","3TKXBROM5TWR181JXBYSOI8FGFVJIU","","null","<img src=""img/food4.png"" style=""width:200px; border:14px solid green;"">","null","","","","","","","","","",""
"","image-keyboard-response","58","35003","0.0-58.0","3DI28L7YXB0AC6HN257XOMAP2KM1EG","ACJNWSBIVI46H","3TKXBROM5TWR181JXBYSOI8FGFVJIU","","465.80000019073486","img/food2.png","74","467.60000014305115","1","1","2","1","1,0.5,0,1,0.5,0,0.5,0,1","1,0.5,0,1,0.5,0,0.5,0,1","1","",""
"","html-keyboard-response","59","35306","0.0-59.0","3DI28L7YXB0AC6HN257XOMAP2KM1EG","ACJNWSBIVI46H","3TKXBROM5TWR181JXBYSOI8FGFVJIU","","null","<img src=""img/food2.png"" style=""width:200px; border:14px solid green;"">","null","","","","","","","","","",""
"","image-keyboard-response","60","35774","0.0-60.0","3DI28L7YXB0AC6HN257XOMAP2KM1EG","ACJNWSBIVI46H","3TKXBROM5TWR181JXBYSOI8FGFVJIU","","465.69999980926514","img/food6.png","76","467.7999999523163","3","0","1","1","1,0.5,0,1,0.5,0,0.5,0,1","1,0.5,0,1,0.5,0,0.5,0,1","1","",""
"","html-keyboard-response","61","36077","0.0-61.0","3DI28L7YXB0AC6HN257XOMAP2KM1EG","ACJNWSBIVI46H","3TKXBROM5TWR181JXBYSOI8FGFVJIU","","null","<img src=""img/food6.png"" style=""width:200px;border:14px solid red;"">","null","","","","","","","","","",""
"","image-keyboard-response","62","36756","0.0-62.0","3DI28L7YXB0AC6HN257XOMAP2KM1EG","ACJNWSBIVI46H","3TKXBROM5TWR181JXBYSOI8FGFVJIU","","676.6999998092651","img/food4.png","76","678.6000001430511","3","1","3","1","1,0.5,0,1,0.5,0,0.5,0,1","1,0.5,0,1,0.5,0,0.5,0,1","1","",""
"","html-keyboard-response","63","37059","0.0-63.0","3DI28L7YXB0AC6HN257XOMAP2KM1EG","ACJNWSBIVI46H","3TKXBROM5TWR181JXBYSOI8FGFVJIU","","null","<img src=""img/food4.png"" style=""width:200px; border:14px solid green;"">","null","","","","","","","","","",""
"","image-keyboard-response","64","37493","0.0-64.0","3DI28L7YXB0AC6HN257XOMAP2KM1EG","ACJNWSBIVI46H","3TKXBROM5TWR181JXBYSOI8FGFVJIU","","431.5","img/food2.png","74","433.40000009536743","1","1","2","1","1,0.5,0,1,0.5,0,0.5,0,1","1,0.5,0,1,0.5,0,0.5,0,1","1","",""
"","html-keyboard-response","65","37796","0.0-65.0","3DI28L7YXB0AC6HN257XOMAP2KM1EG","ACJNWSBIVI46H","3TKXBROM5TWR181JXBYSOI8FGFVJIU","","null","<img src=""img/food2.png"" style=""width:200px; border:14px solid green;"">","null","","","","","","","","","",""
"","image-keyboard-response","66","38062","0.0-66.0","3DI28L7YXB0AC6HN257XOMAP2KM1EG","ACJNWSBIVI46H","3TKXBROM5TWR181JXBYSOI8FGFVJIU","","262.7999999523163","img/food2.png","74","264.7999999523163","1","1","2","1","1,0.5,0,1,0.5,0,0.5,0,1","1,0.5,0,1,0.5,0,0.5,0,1","1","",""
"","html-keyboard-response","67","38365","0.0-67.0","3DI28L7YXB0AC6HN257XOMAP2KM1EG","ACJNWSBIVI46H","3TKXBROM5TWR181JXBYSOI8FGFVJIU","","null","<img src=""img/food2.png"" style=""width:200px; border:14px solid green;"">","null","","","","","","","","","",""
"","image-keyboard-response","68","38672","0.0-68.0","3DI28L7YXB0AC6HN257XOMAP2KM1EG","ACJNWSBIVI46H","3TKXBROM5TWR181JXBYSOI8FGFVJIU","","304.60000014305115","img/food2.png","74","306.7000000476837","1","1","2","1","1,0.5,0,1,0.5,0,0.5,0,1","1,0.5,0,1,0.5,0,0.5,0,1","1","",""
"","html-keyboard-response","69","38976","0.0-69.0","3DI28L7YXB0AC6HN257XOMAP2KM1EG","ACJNWSBIVI46H","3TKXBROM5TWR181JXBYSOI8FGFVJIU","","null","<img src=""img/food2.png"" style=""width:200px; border:14px solid green;"">","null","","","","","","","","","",""
"","image-keyboard-response","70","39578","0.0-70.0","3DI28L7YXB0AC6HN257XOMAP2KM1EG","ACJNWSBIVI46H","3TKXBROM5TWR181JXBYSOI8FGFVJIU","","599.7999999523163","img/food4.png","76","601.9000000953674","3","1","3","1","1,0.5,0,1,0.5,0,0.5,0,1","1,0.5,0,1,0.5,0,0.5,0,1","1","",""
"","html-keyboard-response","71","39881","0.0-71.0","3DI28L7YXB0AC6HN257XOMAP2KM1EG","ACJNWSBIVI46H","3TKXBROM5TWR181JXBYSOI8FGFVJIU","","null","<img src=""img/food4.png"" style=""width:200px; border:14px solid green;"">","null","","","","","","","","","",""
"","image-keyboard-response","72","40319","0.0-72.0","3DI28L7YXB0AC6HN257XOMAP2KM1EG","ACJNWSBIVI46H","3TKXBROM5TWR181JXBYSOI8FGFVJIU","","435.7000000476837","img/food6.png","74","437.59999990463257","1","1","1","1","1,0.5,0,1,0.5,0,0.5,0,1","1,0.5,0,1,0.5,0,0.5,0,1","1","",""
"","html-keyboard-response","73","40622","0.0-73.0","3DI28L7YXB0AC6HN257XOMAP2KM1EG","ACJNWSBIVI46H","3TKXBROM5TWR181JXBYSOI8FGFVJIU","","null","<img src=""img/food6.png"" style=""width:200px; border:14px solid green;"">","null","","","","","","","","","",""
"","image-keyboard-response","74","40913","0.0-74.0","3DI28L7YXB0AC6HN257XOMAP2KM1EG","ACJNWSBIVI46H","3TKXBROM5TWR181JXBYSOI8FGFVJIU","","288.89999985694885","img/food2.png","74","290.7999999523163","1","1","2","1","1,0.5,0,1,0.5,0,0.5,0,1","1,0.5,0,1,0.5,0,0.5,0,1","1","",""
"","html-keyboard-response","75","41217","0.0-75.0","3DI28L7YXB0AC6HN257XOMAP2KM1EG","ACJNWSBIVI46H","3TKXBROM5TWR181JXBYSOI8FGFVJIU","","null","<img src=""img/food2.png"" style=""width:200px; border:14px solid green;"">","null","","","","","","","","","",""
"","image-keyboard-response","76","41628","0.0-76.0","3DI28L7YXB0AC6HN257XOMAP2KM1EG","ACJNWSBIVI46H","3TKXBROM5TWR181JXBYSOI8FGFVJIU","","408.90000009536743","img/food4.png","74","410.89999985694885","1","0","3","1","1,0.5,0,1,0.5,0,0.5,0,1","1,0.5,0,1,0.5,0,0.5,0,1","1","",""
"","html-keyboard-response","77","41932","0.0-77.0","3DI28L7YXB0AC6HN257XOMAP2KM1EG","ACJNWSBIVI46H","3TKXBROM5TWR181JXBYSOI8FGFVJIU","","null","<img src=""img/food4.png"" style=""width:200px;border:14px solid red;"">","null","","","","","","","","","",""
"","image-keyboard-response","78","42273","0.0-78.0","3DI28L7YXB0AC6HN257XOMAP2KM1EG","ACJNWSBIVI46H","3TKXBROM5TWR181JXBYSOI8FGFVJIU","","339.10000014305115","img/food4.png","76","341.09999990463257","3","1","3","1","1,0.5,0,1,0.5,0,0.5,0,1","1,0.5,0,1,0.5,0,0.5,0,1","1","",""
"","html-keyboard-response","79","42576","0.0-79.0","3DI28L7YXB0AC6HN257XOMAP2KM1EG","ACJNWSBIVI46H","3TKXBROM5TWR181JXBYSOI8FGFVJIU","","null","<img src=""img/food4.png"" style=""width:200px; border:14px solid green;"">","null","","","","","","","","","",""
"","image-keyboard-response","80","43085","0.0-80.0","3DI28L7YXB0AC6HN257XOMAP2KM1EG","ACJNWSBIVI46H","3TKXBROM5TWR181JXBYSOI8FGFVJIU","","506","img/food6.png","74","507.90000009536743","1","1","1","1","1,0.5,0,1,0.5,0,0.5,0,1","1,0.5,0,1,0.5,0,0.5,0,1","1","",""
"","html-keyboard-response","81","43388","0.0-81.0","3DI28L7YXB0AC6HN257XOMAP2KM1EG","ACJNWSBIVI46H","3TKXBROM5TWR181JXBYSOI8FGFVJIU","","null","<img src=""img/food6.png"" style=""width:200px; border:14px solid green;"">","null","","","","","","","","","",""
"","image-keyboard-response","82","43719","0.0-82.0","3DI28L7YXB0AC6HN257XOMAP2KM1EG","ACJNWSBIVI46H","3TKXBROM5TWR181JXBYSOI8FGFVJIU","","328.59999990463257","img/food6.png","74","330.80000019073486","1","1","1","1","1,0.5,0,1,0.5,0,0.5,0,1","1,0.5,0,1,0.5,0,0.5,0,1","1","",""
"","html-keyboard-response","83","44023","0.0-83.0","3DI28L7YXB0AC6HN257XOMAP2KM1EG","ACJNWSBIVI46H","3TKXBROM5TWR181JXBYSOI8FGFVJIU","","null","<img src=""img/food6.png"" style=""width:200px; border:14px solid green;"">","null","","","","","","","","","",""
"","image-keyboard-response","84","44500","0.0-84.0","3DI28L7YXB0AC6HN257XOMAP2KM1EG","ACJNWSBIVI46H","3TKXBROM5TWR181JXBYSOI8FGFVJIU","","474.89999985694885","img/food4.png","76","476.7999999523163","3","1","3","1","1,0.5,0,1,0.5,0,0.5,0,1","1,0.5,0,1,0.5,0,0.5,0,1","1","",""
"","html-keyboard-response","85","44804","0.0-85.0","3DI28L7YXB0AC6HN257XOMAP2KM1EG","ACJNWSBIVI46H","3TKXBROM5TWR181JXBYSOI8FGFVJIU","","null","<img src=""img/food4.png"" style=""width:200px; border:14px solid green;"">","null","","","","","","","","","",""
"","image-keyboard-response","86","45261","0.0-86.0","3DI28L7YXB0AC6HN257XOMAP2KM1EG","ACJNWSBIVI46H","3TKXBROM5TWR181JXBYSOI8FGFVJIU","","454.39999985694885","img/food2.png","74","456.40000009536743","1","1","2","1","1,0.5,0,1,0.5,0,0.5,0,1","1,0.5,0,1,0.5,0,0.5,0,1","1","",""
"","html-keyboard-response","87","45564","0.0-87.0","3DI28L7YXB0AC6HN257XOMAP2KM1EG","ACJNWSBIVI46H","3TKXBROM5TWR181JXBYSOI8FGFVJIU","","null","<img src=""img/food2.png"" style=""width:200px; border:14px solid green;"">","null","","","","","","","","","",""
"","image-keyboard-response","88","46002","0.0-88.0","3DI28L7YXB0AC6HN257XOMAP2KM1EG","ACJNWSBIVI46H","3TKXBROM5TWR181JXBYSOI8FGFVJIU","","434.5","img/food4.png","74","436.7999999523163","1","1","3","1","1,0.5,0,1,0.5,0,0.5,0,1","1,0.5,0,1,0.5,0,0.5,0,1","1","",""
"","html-keyboard-response","89","46306","0.0-89.0","3DI28L7YXB0AC6HN257XOMAP2KM1EG","ACJNWSBIVI46H","3TKXBROM5TWR181JXBYSOI8FGFVJIU","","null","<img src=""img/food4.png"" style=""width:200px; border:14px solid green;"">","null","","","","","","","","","",""
"","image-keyboard-response","90","47054","0.0-90.0","3DI28L7YXB0AC6HN257XOMAP2KM1EG","ACJNWSBIVI46H","3TKXBROM5TWR181JXBYSOI8FGFVJIU","","746.5","img/food2.png","74","748.2999999523163","1","1","2","1","1,0.5,0,1,0.5,0,0.5,0,1","1,0.5,0,1,0.5,0,0.5,0,1","1","",""
"","html-keyboard-response","91","47357","0.0-91.0","3DI28L7YXB0AC6HN257XOMAP2KM1EG","ACJNWSBIVI46H","3TKXBROM5TWR181JXBYSOI8FGFVJIU","","null","<img src=""img/food2.png"" style=""width:200px; border:14px solid green;"">","null","","","","","","","","","",""
"","image-keyboard-response","92","47684","0.0-92.0","3DI28L7YXB0AC6HN257XOMAP2KM1EG","ACJNWSBIVI46H","3TKXBROM5TWR181JXBYSOI8FGFVJIU","","324","img/food2.png","74","326","1","1","2","1","1,0.5,0,1,0.5,0,0.5,0,1","1,0.5,0,1,0.5,0,0.5,0,1","1","",""
"","html-keyboard-response","93","47987","0.0-93.0","3DI28L7YXB0AC6HN257XOMAP2KM1EG","ACJNWSBIVI46H","3TKXBROM5TWR181JXBYSOI8FGFVJIU","","null","<img src=""img/food2.png"" style=""width:200px; border:14px solid green;"">","null","","","","","","","","","",""
"","image-keyboard-response","94","48364","0.0-94.0","3DI28L7YXB0AC6HN257XOMAP2KM1EG","ACJNWSBIVI46H","3TKXBROM5TWR181JXBYSOI8FGFVJIU","","374.2000000476837","img/food4.png","74","376.2000000476837","1","0","3","1","1,0.5,0,1,0.5,0,0.5,0,1","1,0.5,0,1,0.5,0,0.5,0,1","1","",""
"","html-keyboard-response","95","48668","0.0-95.0","3DI28L7YXB0AC6HN257XOMAP2KM1EG","ACJNWSBIVI46H","3TKXBROM5TWR181JXBYSOI8FGFVJIU","","null","<img src=""img/food4.png"" style=""width:200px;border:14px solid red;"">","null","","","","","","","","","",""
"","image-keyboard-response","96","49266","0.0-96.0","3DI28L7YXB0AC6HN257XOMAP2KM1EG","ACJNWSBIVI46H","3TKXBROM5TWR181JXBYSOI8FGFVJIU","","596","img/food2.png","74","597.9000000953674","1","1","2","1","1,0.5,0,1,0.5,0,0.5,0,1","1,0.5,0,1,0.5,0,0.5,0,1","1","",""
"","html-keyboard-response","97","49569","0.0-97.0","3DI28L7YXB0AC6HN257XOMAP2KM1EG","ACJNWSBIVI46H","3TKXBROM5TWR181JXBYSOI8FGFVJIU","","null","<img src=""img/food2.png"" style=""width:200px; border:14px solid green;"">","null","","","","","","","","","",""
"","image-keyboard-response","98","50042","0.0-98.0","3DI28L7YXB0AC6HN257XOMAP2KM1EG","ACJNWSBIVI46H","3TKXBROM5TWR181JXBYSOI8FGFVJIU","","470.5","img/food4.png","76","472.40000009536743","3","1","3","1","1,0.5,0,1,0.5,0,0.5,0,1","1,0.5,0,1,0.5,0,0.5,0,1","1","",""
"","html-keyboard-response","99","50345","0.0-99.0","3DI28L7YXB0AC6HN257XOMAP2KM1EG","ACJNWSBIVI46H","3TKXBROM5TWR181JXBYSOI8FGFVJIU","","null","<img src=""img/food4.png"" style=""width:200px; border:14px solid green;"">","null","","","","","","","","","",""
"","image-keyboard-response","100","50702","0.0-100.0","3DI28L7YXB0AC6HN257XOMAP2KM1EG","ACJNWSBIVI46H","3TKXBROM5TWR181JXBYSOI8FGFVJIU","","354.2999999523163","img/food4.png","76","356.2999999523163","3","1","3","1","1,0.5,0,1,0.5,0,0.5,0,1","1,0.5,0,1,0.5,0,0.5,0,1","1","",""
"","html-keyboard-response","101","51005","0.0-101.0","3DI28L7YXB0AC6HN257XOMAP2KM1EG","ACJNWSBIVI46H","3TKXBROM5TWR181JXBYSOI8FGFVJIU","","null","<img src=""img/food4.png"" style=""width:200px; border:14px solid green;"">","null","","","","","","","","","",""
"","image-keyboard-response","102","51443","0.0-102.0","3DI28L7YXB0AC6HN257XOMAP2KM1EG","ACJNWSBIVI46H","3TKXBROM5TWR181JXBYSOI8FGFVJIU","","435.2999999523163","img/food6.png","74","437.5","1","1","1","1","1,0.5,0,1,0.5,0,0.5,0,1","1,0.5,0,1,0.5,0,0.5,0,1","1","",""
"","html-keyboard-response","103","51746","0.0-103.0","3DI28L7YXB0AC6HN257XOMAP2KM1EG","ACJNWSBIVI46H","3TKXBROM5TWR181JXBYSOI8FGFVJIU","","null","<img src=""img/food6.png"" style=""width:200px; border:14px solid green;"">","null","","","","","","","","","",""
"","image-keyboard-response","104","52259","0.0-104.0","3DI28L7YXB0AC6HN257XOMAP2KM1EG","ACJNWSBIVI46H","3TKXBROM5TWR181JXBYSOI8FGFVJIU","","510.40000009536743","img/food2.png","74","512.2999999523163","1","1","2","1","1,0.5,0,1,0.5,0,0.5,0,1","1,0.5,0,1,0.5,0,0.5,0,1","1","",""
"","html-keyboard-response","105","52563","0.0-105.0","3DI28L7YXB0AC6HN257XOMAP2KM1EG","ACJNWSBIVI46H","3TKXBROM5TWR181JXBYSOI8FGFVJIU","","null","<img src=""img/food2.png"" style=""width:200px; border:14px solid green;"">","null","","","","","","","","","",""
"","image-keyboard-response","106","53015","0.0-106.0","3DI28L7YXB0AC6HN257XOMAP2KM1EG","ACJNWSBIVI46H","3TKXBROM5TWR181JXBYSOI8FGFVJIU","","449.5","img/food4.png","76","451.5","3","1","3","1","1,0.5,0,1,0.5,0,0.5,0,1","1,0.5,0,1,0.5,0,0.5,0,1","1","",""
"","html-keyboard-response","107","53319","0.0-107.0","3DI28L7YXB0AC6HN257XOMAP2KM1EG","ACJNWSBIVI46H","3TKXBROM5TWR181JXBYSOI8FGFVJIU","","null","<img src=""img/food4.png"" style=""width:200px; border:14px solid green;"">","null","","","","","","","","","",""
"","image-keyboard-response","108","53655","0.0-108.0","3DI28L7YXB0AC6HN257XOMAP2KM1EG","ACJNWSBIVI46H","3TKXBROM5TWR181JXBYSOI8FGFVJIU","","333.90000009536743","img/food4.png","76","335.7999999523163","3","1","3","1","1,0.5,0,1,0.5,0,0.5,0,1","1,0.5,0,1,0.5,0,0.5,0,1","1","",""
"","html-keyboard-response","109","53958","0.0-109.0","3DI28L7YXB0AC6HN257XOMAP2KM1EG","ACJNWSBIVI46H","3TKXBROM5TWR181JXBYSOI8FGFVJIU","","null","<img src=""img/food4.png"" style=""width:200px; border:14px solid green;"">","null","","","","","","","","","",""
"","image-keyboard-response","110","54366","0.0-110.0","3DI28L7YXB0AC6HN257XOMAP2KM1EG","ACJNWSBIVI46H","3TKXBROM5TWR181JXBYSOI8FGFVJIU","","405.39999985694885","img/food2.png","74","407.40000009536743","1","1","2","1","1,0.5,0,1,0.5,0,0.5,0,1","1,0.5,0,1,0.5,0,0.5,0,1","1","",""
"","html-keyboard-response","111","54669","0.0-111.0","3DI28L7YXB0AC6HN257XOMAP2KM1EG","ACJNWSBIVI46H","3TKXBROM5TWR181JXBYSOI8FGFVJIU","","null","<img src=""img/food2.png"" style=""width:200px; border:14px solid green;"">","null","","","","","","","","","",""
"","image-keyboard-response","112","54965","0.0-112.0","3DI28L7YXB0AC6HN257XOMAP2KM1EG","ACJNWSBIVI46H","3TKXBROM5TWR181JXBYSOI8FGFVJIU","","293.40000009536743","img/food2.png","74","295.2000000476837","1","1","2","1","1,0.5,0,1,0.5,0,0.5,0,1","1,0.5,0,1,0.5,0,0.5,0,1","1","",""
"","html-keyboard-response","113","55268","0.0-113.0","3DI28L7YXB0AC6HN257XOMAP2KM1EG","ACJNWSBIVI46H","3TKXBROM5TWR181JXBYSOI8FGFVJIU","","null","<img src=""img/food2.png"" style=""width:200px; border:14px solid green;"">","null","","","","","","","","","",""
"","image-keyboard-response","114","55559","0.0-114.0","3DI28L7YXB0AC6HN257XOMAP2KM1EG","ACJNWSBIVI46H","3TKXBROM5TWR181JXBYSOI8FGFVJIU","","288.7999999523163","img/food2.png","74","290.59999990463257","1","1","2","1","1,0.5,0,1,0.5,0,0.5,0,1","1,0.5,0,1,0.5,0,0.5,0,1","1","",""
"","html-keyboard-response","115","55862","0.0-115.0","3DI28L7YXB0AC6HN257XOMAP2KM1EG","ACJNWSBIVI46H","3TKXBROM5TWR181JXBYSOI8FGFVJIU","","null","<img src=""img/food2.png"" style=""width:200px; border:14px solid green;"">","null","","","","","","","","","",""
"","image-keyboard-response","116","56325","0.0-116.0","3DI28L7YXB0AC6HN257XOMAP2KM1EG","ACJNWSBIVI46H","3TKXBROM5TWR181JXBYSOI8FGFVJIU","","460.59999990463257","img/food6.png","74","462.5","1","1","1","1","1,0.5,0,1,0.5,0,0.5,0,1","1,0.5,0,1,0.5,0,0.5,0,1","1","",""
"","html-keyboard-response","117","56628","0.0-117.0","3DI28L7YXB0AC6HN257XOMAP2KM1EG","ACJNWSBIVI46H","3TKXBROM5TWR181JXBYSOI8FGFVJIU","","null","<img src=""img/food6.png"" style=""width:200px; border:14px solid green;"">","null","","","","","","","","","",""
"","image-keyboard-response","118","57026","0.0-118.0","3DI28L7YXB0AC6HN257XOMAP2KM1EG","ACJNWSBIVI46H","3TKXBROM5TWR181JXBYSOI8FGFVJIU","","395.09999990463257","img/food4.png","74","397.10000014305115","1","0","3","1","1,0.5,0,1,0.5,0,0.5,0,1","1,0.5,0,1,0.5,0,0.5,0,1","1","",""
"","html-keyboard-response","119","57329","0.0-119.0","3DI28L7YXB0AC6HN257XOMAP2KM1EG","ACJNWSBIVI46H","3TKXBROM5TWR181JXBYSOI8FGFVJIU","","null","<img src=""img/food4.png"" style=""width:200px;border:14px solid red;"">","null","","","","","","","","","",""
"","image-keyboard-response","120","57590","0.0-120.0","3DI28L7YXB0AC6HN257XOMAP2KM1EG","ACJNWSBIVI46H","3TKXBROM5TWR181JXBYSOI8FGFVJIU","","258.80000019073486","img/food2.png","76","260.7000000476837","3","0","2","1","1,0.5,0,1,0.5,0,0.5,0,1","1,0.5,0,1,0.5,0,0.5,0,1","1","",""
"","html-keyboard-response","121","57893","0.0-121.0","3DI28L7YXB0AC6HN257XOMAP2KM1EG","ACJNWSBIVI46H","3TKXBROM5TWR181JXBYSOI8FGFVJIU","","null","<img src=""img/food2.png"" style=""width:200px;border:14px solid red;"">","null","","","","","","","","","",""
"","image-keyboard-response","122","58281","0.0-122.0","3DI28L7YXB0AC6HN257XOMAP2KM1EG","ACJNWSBIVI46H","3TKXBROM5TWR181JXBYSOI8FGFVJIU","","385.2999999523163","img/food2.png","74","387.2000000476837","1","1","2","1","1,0.5,0,1,0.5,0,0.5,0,1","1,0.5,0,1,0.5,0,0.5,0,1","1","",""
"","html-keyboard-response","123","58584","0.0-123.0","3DI28L7YXB0AC6HN257XOMAP2KM1EG","ACJNWSBIVI46H","3TKXBROM5TWR181JXBYSOI8FGFVJIU","","null","<img src=""img/food2.png"" style=""width:200px; border:14px solid green;"">","null","","","","","","","","","",""
"","image-keyboard-response","124","59096","0.0-124.0","3DI28L7YXB0AC6HN257XOMAP2KM1EG","ACJNWSBIVI46H","3TKXBROM5TWR181JXBYSOI8FGFVJIU","","509.7000000476837","img/food6.png","74","511.7000000476837","1","1","1","1","1,0.5,0,1,0.5,0,0.5,0,1","1,0.5,0,1,0.5,0,0.5,0,1","1","",""
"","html-keyboard-response","125","59400","0.0-125.0","3DI28L7YXB0AC6HN257XOMAP2KM1EG","ACJNWSBIVI46H","3TKXBROM5TWR181JXBYSOI8FGFVJIU","","null","<img src=""img/food6.png"" style=""width:200px; border:14px solid green;"">","null","","","","","","","","","",""
"","image-keyboard-response","126","59741","0.0-126.0","3DI28L7YXB0AC6HN257XOMAP2KM1EG","ACJNWSBIVI46H","3TKXBROM5TWR181JXBYSOI8FGFVJIU","","339.30000019073486","img/food6.png","74","341.2999999523163","1","1","1","1","1,0.5,0,1,0.5,0,0.5,0,1","1,0.5,0,1,0.5,0,0.5,0,1","1","",""
"","html-keyboard-response","127","60045","0.0-127.0","3DI28L7YXB0AC6HN257XOMAP2KM1EG","ACJNWSBIVI46H","3TKXBROM5TWR181JXBYSOI8FGFVJIU","","null","<img src=""img/food6.png"" style=""width:200px; border:14px solid green;"">","null","","","","","","","","","",""
"","image-keyboard-response","128","60456","0.0-128.0","3DI28L7YXB0AC6HN257XOMAP2KM1EG","ACJNWSBIVI46H","3TKXBROM5TWR181JXBYSOI8FGFVJIU","","408.39999985694885","img/food4.png","76","410.40000009536743","3","1","3","1","1,0.5,0,1,0.5,0,0.5,0,1","1,0.5,0,1,0.5,0,0.5,0,1","1","",""
"","html-keyboard-response","129","60759","0.0-129.0","3DI28L7YXB0AC6HN257XOMAP2KM1EG","ACJNWSBIVI46H","3TKXBROM5TWR181JXBYSOI8FGFVJIU","","null","<img src=""img/food4.png"" style=""width:200px; border:14px solid green;"">","null","","","","","","","","","",""
"","image-keyboard-response","130","61121","0.0-130.0","3DI28L7YXB0AC6HN257XOMAP2KM1EG","ACJNWSBIVI46H","3TKXBROM5TWR181JXBYSOI8FGFVJIU","","359.60000014305115","img/food4.png","76","361.69999980926514","3","1","3","1","1,0.5,0,1,0.5,0,0.5,0,1","1,0.5,0,1,0.5,0,0.5,0,1","1","",""
"","html-keyboard-response","131","61425","0.0-131.0","3DI28L7YXB0AC6HN257XOMAP2KM1EG","ACJNWSBIVI46H","3TKXBROM5TWR181JXBYSOI8FGFVJIU","","null","<img src=""img/food4.png"" style=""width:200px; border:14px solid green;"">","null","","","","","","","","","",""
"","image-keyboard-response","132","61901","0.0-132.0","3DI28L7YXB0AC6HN257XOMAP2KM1EG","ACJNWSBIVI46H","3TKXBROM5TWR181JXBYSOI8FGFVJIU","","474.39999985694885","img/food6.png","74","476.40000009536743","1","1","1","1","1,0.5,0,1,0.5,0,0.5,0,1","1,0.5,0,1,0.5,0,0.5,0,1","1","",""
"","html-keyboard-response","133","62205","0.0-133.0","3DI28L7YXB0AC6HN257XOMAP2KM1EG","ACJNWSBIVI46H","3TKXBROM5TWR181JXBYSOI8FGFVJIU","","null","<img src=""img/food6.png"" style=""width:200px; border:14px solid green;"">","null","","","","","","","","","",""
"","image-keyboard-response","134","62743","0.0-134.0","3DI28L7YXB0AC6HN257XOMAP2KM1EG","ACJNWSBIVI46H","3TKXBROM5TWR181JXBYSOI8FGFVJIU","","535.6000001430511","img/food2.png","74","537.7000000476837","1","1","2","1","1,0.5,0,1,0.5,0,0.5,0,1","1,0.5,0,1,0.5,0,0.5,0,1","1","",""
"","html-keyboard-response","135","63046","0.0-135.0","3DI28L7YXB0AC6HN257XOMAP2KM1EG","ACJNWSBIVI46H","3TKXBROM5TWR181JXBYSOI8FGFVJIU","","null","<img src=""img/food2.png"" style=""width:200px; border:14px solid green;"">","null","","","","","","","","","",""
"","image-keyboard-response","136","63372","0.0-136.0","3DI28L7YXB0AC6HN257XOMAP2KM1EG","ACJNWSBIVI46H","3TKXBROM5TWR181JXBYSOI8FGFVJIU","","324.2000000476837","img/food2.png","74","326.2999999523163","1","1","2","1","1,0.5,0,1,0.5,0,0.5,0,1","1,0.5,0,1,0.5,0,0.5,0,1","1","",""
"","html-keyboard-response","137","63676","0.0-137.0","3DI28L7YXB0AC6HN257XOMAP2KM1EG","ACJNWSBIVI46H","3TKXBROM5TWR181JXBYSOI8FGFVJIU","","null","<img src=""img/food2.png"" style=""width:200px; border:14px solid green;"">","null","","","","","","","","","",""
"","image-keyboard-response","138","64274","0.0-138.0","3DI28L7YXB0AC6HN257XOMAP2KM1EG","ACJNWSBIVI46H","3TKXBROM5TWR181JXBYSOI8FGFVJIU","","595.5999999046326","img/food4.png","76","597.5","3","1","3","1","1,0.5,0,1,0.5,0,0.5,0,1","1,0.5,0,1,0.5,0,0.5,0,1","1","",""
"","html-keyboard-response","139","64578","0.0-139.0","3DI28L7YXB0AC6HN257XOMAP2KM1EG","ACJNWSBIVI46H","3TKXBROM5TWR181JXBYSOI8FGFVJIU","","null","<img src=""img/food4.png"" style=""width:200px; border:14px solid green;"">","null","","","","","","","","","",""
"","image-keyboard-response","140","65080","0.0-140.0","3DI28L7YXB0AC6HN257XOMAP2KM1EG","ACJNWSBIVI46H","3TKXBROM5TWR181JXBYSOI8FGFVJIU","","499.5","img/food6.png","74","501.39999985694885","1","1","1","1","1,0.5,0,1,0.5,0,0.5,0,1","1,0.5,0,1,0.5,0,0.5,0,1","1","",""
"","html-keyboard-response","141","65383","0.0-141.0","3DI28L7YXB0AC6HN257XOMAP2KM1EG","ACJNWSBIVI46H","3TKXBROM5TWR181JXBYSOI8FGFVJIU","","null","<img src=""img/food6.png"" style=""width:200px; border:14px solid green;"">","null","","","","","","","","","",""
"","image-keyboard-response","142","65835","0.0-142.0","3DI28L7YXB0AC6HN257XOMAP2KM1EG","ACJNWSBIVI46H","3TKXBROM5TWR181JXBYSOI8FGFVJIU","","449.7000000476837","img/food4.png","74","451.7999999523163","1","0","3","1","1,0.5,0,1,0.5,0,0.5,0,1","1,0.5,0,1,0.5,0,0.5,0,1","1","",""
"","html-keyboard-response","143","66138","0.0-143.0","3DI28L7YXB0AC6HN257XOMAP2KM1EG","ACJNWSBIVI46H","3TKXBROM5TWR181JXBYSOI8FGFVJIU","","null","<img src=""img/food4.png"" style=""width:200px;border:14px solid red;"">","null","","","","","","","","","",""
"","image-keyboard-response","144","66480","0.0-144.0","3DI28L7YXB0AC6HN257XOMAP2KM1EG","ACJNWSBIVI46H","3TKXBROM5TWR181JXBYSOI8FGFVJIU","","338.90000009536743","img/food4.png","76","340.7999999523163","3","1","3","1","1,0.5,0,1,0.5,0,0.5,0,1","1,0.5,0,1,0.5,0,0.5,0,1","1","",""
"","html-keyboard-response","145","66783","0.0-145.0","3DI28L7YXB0AC6HN257XOMAP2KM1EG","ACJNWSBIVI46H","3TKXBROM5TWR181JXBYSOI8FGFVJIU","","null","<img src=""img/food4.png"" style=""width:200px; border:14px solid green;"">","null","","","","","","","","","",""
"","image-keyboard-response","146","67180","0.0-146.0","3DI28L7YXB0AC6HN257XOMAP2KM1EG","ACJNWSBIVI46H","3TKXBROM5TWR181JXBYSOI8FGFVJIU","","394.89999985694885","img/food2.png","74","396.90000009536743","1","1","2","1","1,0.5,0,1,0.5,0,0.5,0,1","1,0.5,0,1,0.5,0,0.5,0,1","1","",""
"","html-keyboard-response","147","67484","0.0-147.0","3DI28L7YXB0AC6HN257XOMAP2KM1EG","ACJNWSBIVI46H","3TKXBROM5TWR181JXBYSOI8FGFVJIU","","null","<img src=""img/food2.png"" style=""width:200px; border:14px solid green;"">","null","","","","","","","","","",""
"","image-keyboard-response","148","68016","0.0-148.0","3DI28L7YXB0AC6HN257XOMAP2KM1EG","ACJNWSBIVI46H","3TKXBROM5TWR181JXBYSOI8FGFVJIU","","529.7000000476837","img/food4.png","76","531.6000001430511","3","1","3","1","1,0.5,0,1,0.5,0,0.5,0,1","1,0.5,0,1,0.5,0,0.5,0,1","1","",""
"","html-keyboard-response","149","68319","0.0-149.0","3DI28L7YXB0AC6HN257XOMAP2KM1EG","ACJNWSBIVI46H","3TKXBROM5TWR181JXBYSOI8FGFVJIU","","null","<img src=""img/food4.png"" style=""width:200px; border:14px solid green;"">","null","","","","","","","","","",""
"","image-keyboard-response","150","68736","0.0-150.0","3DI28L7YXB0AC6HN257XOMAP2KM1EG","ACJNWSBIVI46H","3TKXBROM5TWR181JXBYSOI8FGFVJIU","","415.10000014305115","img/food2.png","74","417","1","1","2","1","1,0.5,0,1,0.5,0,0.5,0,1","1,0.5,0,1,0.5,0,0.5,0,1","1","",""
"","html-keyboard-response","151","69049","0.0-151.0","3DI28L7YXB0AC6HN257XOMAP2KM1EG","ACJNWSBIVI46H","3TKXBROM5TWR181JXBYSOI8FGFVJIU","","null","<img src=""img/food2.png"" style=""width:200px; border:14px solid green;"">","null","","","","","","","","","",""
"","image-keyboard-response","152","69461","0.0-152.0","3DI28L7YXB0AC6HN257XOMAP2KM1EG","ACJNWSBIVI46H","3TKXBROM5TWR181JXBYSOI8FGFVJIU","","409.89999985694885","img/food6.png","74","412","1","1","1","1","1,0.5,0,1,0.5,0,0.5,0,1","1,0.5,0,1,0.5,0,0.5,0,1","1","",""
"","html-keyboard-response","153","69764","0.0-153.0","3DI28L7YXB0AC6HN257XOMAP2KM1EG","ACJNWSBIVI46H","3TKXBROM5TWR181JXBYSOI8FGFVJIU","","null","<img src=""img/food6.png"" style=""width:200px; border:14px solid green;"">","null","","","","","","","","","",""
"","image-keyboard-response","154","70111","0.0-154.0","3DI28L7YXB0AC6HN257XOMAP2KM1EG","ACJNWSBIVI46H","3TKXBROM5TWR181JXBYSOI8FGFVJIU","","344.60000014305115","img/food6.png","74","346.59999990463257","1","1","1","1","1,0.5,0,1,0.5,0,0.5,0,1","1,0.5,0,1,0.5,0,0.5,0,1","1","",""
"","html-keyboard-response","155","70419","0.0-155.0","3DI28L7YXB0AC6HN257XOMAP2KM1EG","ACJNWSBIVI46H","3TKXBROM5TWR181JXBYSOI8FGFVJIU","","null","<img src=""img/food6.png"" style=""width:200px; border:14px solid green;"">","null","","","","","","","","","",""
"","image-keyboard-response","156","70921","0.0-156.0","3DI28L7YXB0AC6HN257XOMAP2KM1EG","ACJNWSBIVI46H","3TKXBROM5TWR181JXBYSOI8FGFVJIU","","500.30000019073486","img/food2.png","74","502.2999999523163","1","1","2","1","1,0.5,0,1,0.5,0,0.5,0,1","1,0.5,0,1,0.5,0,0.5,0,1","1","",""
"","html-keyboard-response","157","71225","0.0-157.0","3DI28L7YXB0AC6HN257XOMAP2KM1EG","ACJNWSBIVI46H","3TKXBROM5TWR181JXBYSOI8FGFVJIU","","null","<img src=""img/food2.png"" style=""width:200px; border:14px solid green;"">","null","","","","","","","","","",""
"","image-keyboard-response","158","71606","0.0-158.0","3DI28L7YXB0AC6HN257XOMAP2KM1EG","ACJNWSBIVI46H","3TKXBROM5TWR181JXBYSOI8FGFVJIU","","378.90000009536743","img/food6.png","74","380.89999985694885","1","1","1","1","1,0.5,0,1,0.5,0,0.5,0,1","1,0.5,0,1,0.5,0,0.5,0,1","1","",""
"","html-keyboard-response","159","71910","0.0-159.0","3DI28L7YXB0AC6HN257XOMAP2KM1EG","ACJNWSBIVI46H","3TKXBROM5TWR181JXBYSOI8FGFVJIU","","null","<img src=""img/food6.png"" style=""width:200px; border:14px solid green;"">","null","","","","","","","","","",""
"","image-keyboard-response","160","72206","0.0-160.0","3DI28L7YXB0AC6HN257XOMAP2KM1EG","ACJNWSBIVI46H","3TKXBROM5TWR181JXBYSOI8FGFVJIU","","293.7000000476837","img/food2.png","74","295.7999999523163","1","1","2","1","1,0.5,0,1,0.5,0,0.5,0,1","1,0.5,0,1,0.5,0,0.5,0,1","1","",""
"","html-keyboard-response","161","72523","0.0-161.0","3DI28L7YXB0AC6HN257XOMAP2KM1EG","ACJNWSBIVI46H","3TKXBROM5TWR181JXBYSOI8FGFVJIU","","null","<img src=""img/food2.png"" style=""width:200px; border:14px solid green;"">","null","","","","","","","","","",""
"","image-keyboard-response","162","72957","0.0-162.0","3DI28L7YXB0AC6HN257XOMAP2KM1EG","ACJNWSBIVI46H","3TKXBROM5TWR181JXBYSOI8FGFVJIU","","431.09999990463257","img/food6.png","74","433","1","1","1","1","1,0.5,0,1,0.5,0,0.5,0,1","1,0.5,0,1,0.5,0,0.5,0,1","1","",""
"","html-keyboard-response","163","73260","0.0-163.0","3DI28L7YXB0AC6HN257XOMAP2KM1EG","ACJNWSBIVI46H","3TKXBROM5TWR181JXBYSOI8FGFVJIU","","null","<img src=""img/food6.png"" style=""width:200px; border:14px solid green;"">","null","","","","","","","","","",""
"","image-keyboard-response","164","73601","0.0-164.0","3DI28L7YXB0AC6HN257XOMAP2KM1EG","ACJNWSBIVI46H","3TKXBROM5TWR181JXBYSOI8FGFVJIU","","338.5","img/food6.png","74","340.39999985694885","1","1","1","1","1,0.5,0,1,0.5,0,0.5,0,1","1,0.5,0,1,0.5,0,0.5,0,1","1","",""
"","html-keyboard-response","165","73904","0.0-165.0","3DI28L7YXB0AC6HN257XOMAP2KM1EG","ACJNWSBIVI46H","3TKXBROM5TWR181JXBYSOI8FGFVJIU","","null","<img src=""img/food6.png"" style=""width:200px; border:14px solid green;"">","null","","","","","","","","","",""
"","image-keyboard-response","166","74327","0.0-166.0","3DI28L7YXB0AC6HN257XOMAP2KM1EG","ACJNWSBIVI46H","3TKXBROM5TWR181JXBYSOI8FGFVJIU","","420.30000019073486","img/food4.png","74","422.2000000476837","1","0","3","1","1,0.5,0,1,0.5,0,0.5,0,1","1,0.5,0,1,0.5,0,0.5,0,1","1","",""
"","html-keyboard-response","167","74630","0.0-167.0","3DI28L7YXB0AC6HN257XOMAP2KM1EG","ACJNWSBIVI46H","3TKXBROM5TWR181JXBYSOI8FGFVJIU","","null","<img src=""img/food4.png"" style=""width:200px;border:14px solid red;"">","null","","","","","","","","","",""
"","image-keyboard-response","168","74921","0.0-168.0","3DI28L7YXB0AC6HN257XOMAP2KM1EG","ACJNWSBIVI46H","3TKXBROM5TWR181JXBYSOI8FGFVJIU","","289.30000019073486","img/food4.png","76","291.2999999523163","3","1","3","1","1,0.5,0,1,0.5,0,0.5,0,1","1,0.5,0,1,0.5,0,0.5,0,1","1","",""
"","html-keyboard-response","169","75224","0.0-169.0","3DI28L7YXB0AC6HN257XOMAP2KM1EG","ACJNWSBIVI46H","3TKXBROM5TWR181JXBYSOI8FGFVJIU","","null","<img src=""img/food4.png"" style=""width:200px; border:14px solid green;"">","null","","","","","","","","","",""
"","image-keyboard-response","170","75596","0.0-170.0","3DI28L7YXB0AC6HN257XOMAP2KM1EG","ACJNWSBIVI46H","3TKXBROM5TWR181JXBYSOI8FGFVJIU","","369.2000000476837","img/food4.png","76","371.30000019073486","3","1","3","1","1,0.5,0,1,0.5,0,0.5,0,1","1,0.5,0,1,0.5,0,0.5,0,1","1","",""
"","html-keyboard-response","171","75900","0.0-171.0","3DI28L7YXB0AC6HN257XOMAP2KM1EG","ACJNWSBIVI46H","3TKXBROM5TWR181JXBYSOI8FGFVJIU","","null","<img src=""img/food4.png"" style=""width:200px; border:14px solid green;"">","null","","","","","","","","","",""
"","image-keyboard-response","172","76326","0.0-172.0","3DI28L7YXB0AC6HN257XOMAP2KM1EG","ACJNWSBIVI46H","3TKXBROM5TWR181JXBYSOI8FGFVJIU","","424.40000009536743","img/food6.png","74","426.39999985694885","1","1","1","1","1,0.5,0,1,0.5,0,0.5,0,1","1,0.5,0,1,0.5,0,0.5,0,1","1","",""
"","html-keyboard-response","173","76630","0.0-173.0","3DI28L7YXB0AC6HN257XOMAP2KM1EG","ACJNWSBIVI46H","3TKXBROM5TWR181JXBYSOI8FGFVJIU","","null","<img src=""img/food6.png"" style=""width:200px; border:14px solid green;"">","null","","","","","","","","","",""
"","image-keyboard-response","174","77207","0.0-174.0","3DI28L7YXB0AC6HN257XOMAP2KM1EG","ACJNWSBIVI46H","3TKXBROM5TWR181JXBYSOI8FGFVJIU","","575.2000000476837","img/food2.png","74","577.0999999046326","1","1","2","1","1,0.5,0,1,0.5,0,0.5,0,1","1,0.5,0,1,0.5,0,0.5,0,1","1","",""
"","html-keyboard-response","175","77511","0.0-175.0","3DI28L7YXB0AC6HN257XOMAP2KM1EG","ACJNWSBIVI46H","3TKXBROM5TWR181JXBYSOI8FGFVJIU","","null","<img src=""img/food2.png"" style=""width:200px; border:14px solid green;"">","null","","","","","","","","","",""
"","image-keyboard-response","176","77922","0.0-176.0","3DI28L7YXB0AC6HN257XOMAP2KM1EG","ACJNWSBIVI46H","3TKXBROM5TWR181JXBYSOI8FGFVJIU","","408.89999985694885","img/food6.png","74","410.7999999523163","1","1","1","1","1,0.5,0,1,0.5,0,0.5,0,1","1,0.5,0,1,0.5,0,0.5,0,1","1","",""
"","html-keyboard-response","177","78225","0.0-177.0","3DI28L7YXB0AC6HN257XOMAP2KM1EG","ACJNWSBIVI46H","3TKXBROM5TWR181JXBYSOI8FGFVJIU","","null","<img src=""img/food6.png"" style=""width:200px; border:14px solid green;"">","null","","","","","","","","","",""
"","image-keyboard-response","178","78778","0.0-178.0","3DI28L7YXB0AC6HN257XOMAP2KM1EG","ACJNWSBIVI46H","3TKXBROM5TWR181JXBYSOI8FGFVJIU","","550.7000000476837","img/food4.png","76","552.7999999523163","3","1","3","1","1,0.5,0,1,0.5,0,0.5,0,1","1,0.5,0,1,0.5,0,0.5,0,1","1","",""
"","html-keyboard-response","179","79082","0.0-179.0","3DI28L7YXB0AC6HN257XOMAP2KM1EG","ACJNWSBIVI46H","3TKXBROM5TWR181JXBYSOI8FGFVJIU","","null","<img src=""img/food4.png"" style=""width:200px; border:14px solid green;"">","null","","","","","","","","","",""
"","image-keyboard-response","180","79524","0.0-180.0","3DI28L7YXB0AC6HN257XOMAP2KM1EG","ACJNWSBIVI46H","3TKXBROM5TWR181JXBYSOI8FGFVJIU","","439.59999990463257","img/food2.png","74","441.7000000476837","1","1","2","1","1,0.5,0,1,0.5,0,0.5,0,1","1,0.5,0,1,0.5,0,0.5,0,1","1","",""
"","html-keyboard-response","181","79827","0.0-181.0","3DI28L7YXB0AC6HN257XOMAP2KM1EG","ACJNWSBIVI46H","3TKXBROM5TWR181JXBYSOI8FGFVJIU","","null","<img src=""img/food2.png"" style=""width:200px; border:14px solid green;"">","null","","","","","","","","","",""
"","html-keyboard-response","182","83684","0.0-182.0","3DI28L7YXB0AC6HN257XOMAP2KM1EG","ACJNWSBIVI46H","3TKXBROM5TWR181JXBYSOI8FGFVJIU","","","","","","","","","","","","","",""
"","instructions","183","95392","0.0-183.0","3DI28L7YXB0AC6HN257XOMAP2KM1EG","ACJNWSBIVI46H","3TKXBROM5TWR181JXBYSOI8FGFVJIU","[{""page_index"":0,""viewing_time"":10613.5},{""page_index"":1,""viewing_time"":1090.9000000953674}]","11705","","","","","","","","","","","",""
"","image-keyboard-response","184","95862","0.0-184.0","3DI28L7YXB0AC6HN257XOMAP2KM1EG","ACJNWSBIVI46H","3TKXBROM5TWR181JXBYSOI8FGFVJIU","","467.2999999523163","img/food3.png","74","470.2999999523163","1","0","2","2","1,0.5,0,1,0.5,0,0.5,0,1","0.5,0,1,0.5,0,1,0,1,0.5","2","false",""
"","html-keyboard-response","185","96167","0.0-185.0","3DI28L7YXB0AC6HN257XOMAP2KM1EG","ACJNWSBIVI46H","3TKXBROM5TWR181JXBYSOI8FGFVJIU","","null","<img src=""img/food3.png"" style=""width:200px;border:14px solid red;"">","null","","","","","","","","","",""
"","image-keyboard-response","186","96528","0.0-187.0","3DI28L7YXB0AC6HN257XOMAP2KM1EG","ACJNWSBIVI46H","3TKXBROM5TWR181JXBYSOI8FGFVJIU","","356.7000000476837","img/food5.png","76","358.90000009536743","3","1","3","2","1,0.5,0,1,0.5,0,0.5,0,1","0.5,0,1,0.5,0,1,0,1,0.5","2","false",""
"","html-keyboard-response","187","96831","0.0-188.0","3DI28L7YXB0AC6HN257XOMAP2KM1EG","ACJNWSBIVI46H","3TKXBROM5TWR181JXBYSOI8FGFVJIU","","null","<img src=""img/food5.png"" style=""width:200px; border:14px solid green;"">","null","","","","","","","","","",""
"","image-keyboard-response","188","97142","0.0-190.0","3DI28L7YXB0AC6HN257XOMAP2KM1EG","ACJNWSBIVI46H","3TKXBROM5TWR181JXBYSOI8FGFVJIU","","308","img/food5.png","76","310","3","1","3","2","1,0.5,0,1,0.5,0,0.5,0,1","0.5,0,1,0.5,0,1,0,1,0.5","2","false",""
"","html-keyboard-response","189","97446","0.0-191.0","3DI28L7YXB0AC6HN257XOMAP2KM1EG","ACJNWSBIVI46H","3TKXBROM5TWR181JXBYSOI8FGFVJIU","","null","<img src=""img/food5.png"" style=""width:200px; border:14px solid green;"">","null","","","","","","","","","",""
"","image-keyboard-response","190","97888","0.0-193.0","3DI28L7YXB0AC6HN257XOMAP2KM1EG","ACJNWSBIVI46H","3TKXBROM5TWR181JXBYSOI8FGFVJIU","","438.80000019073486","img/food3.png","74","441","1","0","2","2","1,0.5,0,1,0.5,0,0.5,0,1","0.5,0,1,0.5,0,1,0,1,0.5","2","false",""
"","html-keyboard-response","191","98191","0.0-194.0","3DI28L7YXB0AC6HN257XOMAP2KM1EG","ACJNWSBIVI46H","3TKXBROM5TWR181JXBYSOI8FGFVJIU","","null","<img src=""img/food3.png"" style=""width:200px;border:14px solid red;"">","null","","","","","","","","","",""
"","image-keyboard-response","192","98412","0.0-196.0","3DI28L7YXB0AC6HN257XOMAP2KM1EG","ACJNWSBIVI46H","3TKXBROM5TWR181JXBYSOI8FGFVJIU","","217.59999990463257","img/food3.png","75","219.59999990463257","2","0","2","2","1,0.5,0,1,0.5,0,0.5,0,1","0.5,0,1,0.5,0,1,0,1,0.5","2","false",""
"","html-keyboard-response","193","98716","0.0-197.0","3DI28L7YXB0AC6HN257XOMAP2KM1EG","ACJNWSBIVI46H","3TKXBROM5TWR181JXBYSOI8FGFVJIU","","null","<img src=""img/food3.png"" style=""width:200px;border:14px solid red;"">","null","","","","","","","","","",""
"","image-keyboard-response","194","98925","0.0-199.0","3DI28L7YXB0AC6HN257XOMAP2KM1EG","ACJNWSBIVI46H","3TKXBROM5TWR181JXBYSOI8FGFVJIU","","206.69999980926514","img/food3.png","75","208.79999995231628","2","0","2","2","1,0.5,0,1,0.5,0,0.5,0,1","0.5,0,1,0.5,0,1,0,1,0.5","2","false",""
"","html-keyboard-response","195","99229","0.0-200.0","3DI28L7YXB0AC6HN257XOMAP2KM1EG","ACJNWSBIVI46H","3TKXBROM5TWR181JXBYSOI8FGFVJIU","","null","<img src=""img/food3.png"" style=""width:200px;border:14px solid red;"">","null","","","","","","","","","",""
"","image-keyboard-response","196","99308","0.0-202.0","3DI28L7YXB0AC6HN257XOMAP2KM1EG","ACJNWSBIVI46H","3TKXBROM5TWR181JXBYSOI8FGFVJIU","","76.59999990463257","img/food3.png","76","78.70000004768372","3","1","2","2","1,0.5,0,1,0.5,0,0.5,0,1","0.5,0,1,0.5,0,1,0,1,0.5","2","false",""
"","html-keyboard-response","197","99612","0.0-203.0","3DI28L7YXB0AC6HN257XOMAP2KM1EG","ACJNWSBIVI46H","3TKXBROM5TWR181JXBYSOI8FGFVJIU","","null","<img src=""img/food3.png"" style=""width:200px; border:14px solid green;"">","null","","","","","","","","","",""
"","image-keyboard-response","198","100190","0.0-205.0","3DI28L7YXB0AC6HN257XOMAP2KM1EG","ACJNWSBIVI46H","3TKXBROM5TWR181JXBYSOI8FGFVJIU","","575.7000000476837","img/food1.png","76","577.7000000476837","3","1","1","2","1,0.5,0,1,0.5,0,0.5,0,1","0.5,0,1,0.5,0,1,0,1,0.5","2","false",""
"","html-keyboard-response","199","100494","0.0-206.0","3DI28L7YXB0AC6HN257XOMAP2KM1EG","ACJNWSBIVI46H","3TKXBROM5TWR181JXBYSOI8FGFVJIU","","null","<img src=""img/food1.png"" style=""width:200px; border:14px solid green;"">","null","","","","","","","","","",""
"","image-keyboard-response","200","100724","0.0-208.0","3DI28L7YXB0AC6HN257XOMAP2KM1EG","ACJNWSBIVI46H","3TKXBROM5TWR181JXBYSOI8FGFVJIU","","227.79999995231628","img/food5.png","76","229.79999995231628","3","1","3","2","1,0.5,0,1,0.5,0,0.5,0,1","0.5,0,1,0.5,0,1,0,1,0.5","2","false",""
"","html-keyboard-response","201","101028","0.0-209.0","3DI28L7YXB0AC6HN257XOMAP2KM1EG","ACJNWSBIVI46H","3TKXBROM5TWR181JXBYSOI8FGFVJIU","","null","<img src=""img/food5.png"" style=""width:200px; border:14px solid green;"">","null","","","","","","","","","",""
"","image-keyboard-response","202","101334","0.0-211.0","3DI28L7YXB0AC6HN257XOMAP2KM1EG","ACJNWSBIVI46H","3TKXBROM5TWR181JXBYSOI8FGFVJIU","","303","img/food3.png","76","305.10000014305115","3","1","2","2","1,0.5,0,1,0.5,0,0.5,0,1","0.5,0,1,0.5,0,1,0,1,0.5","2","false",""
"","html-keyboard-response","203","101638","0.0-212.0","3DI28L7YXB0AC6HN257XOMAP2KM1EG","ACJNWSBIVI46H","3TKXBROM5TWR181JXBYSOI8FGFVJIU","","null","<img src=""img/food3.png"" style=""width:200px; border:14px solid green;"">","null","","","","","","","","","",""
"","image-keyboard-response","204","101843","0.0-214.0","3DI28L7YXB0AC6HN257XOMAP2KM1EG","ACJNWSBIVI46H","3TKXBROM5TWR181JXBYSOI8FGFVJIU","","198.30000019073486","img/food5.png","76","200.70000004768372","3","0","3","2","1,0.5,0,1,0.5,0,0.5,0,1","0.5,0,1,0.5,0,1,0,1,0.5","2","false",""
"","html-keyboard-response","205","102147","0.0-215.0","3DI28L7YXB0AC6HN257XOMAP2KM1EG","ACJNWSBIVI46H","3TKXBROM5TWR181JXBYSOI8FGFVJIU","","null","<img src=""img/food5.png"" style=""width:200px;border:14px solid red;"">","null","","","","","","","","","",""
"","image-keyboard-response","206","102729","0.0-217.0","3DI28L7YXB0AC6HN257XOMAP2KM1EG","ACJNWSBIVI46H","3TKXBROM5TWR181JXBYSOI8FGFVJIU","","579.8999998569489","img/food1.png","76","581.8000001907349","3","1","1","2","1,0.5,0,1,0.5,0,0.5,0,1","0.5,0,1,0.5,0,1,0,1,0.5","2","false",""
"","html-keyboard-response","207","103032","0.0-218.0","3DI28L7YXB0AC6HN257XOMAP2KM1EG","ACJNWSBIVI46H","3TKXBROM5TWR181JXBYSOI8FGFVJIU","","null","<img src=""img/food1.png"" style=""width:200px; border:14px solid green;"">","null","","","","","","","","","",""
"","image-keyboard-response","208","103389","0.0-220.0","3DI28L7YXB0AC6HN257XOMAP2KM1EG","ACJNWSBIVI46H","3TKXBROM5TWR181JXBYSOI8FGFVJIU","","354.30000019073486","img/food3.png","76","356.39999985694885","3","1","2","2","1,0.5,0,1,0.5,0,0.5,0,1","0.5,0,1,0.5,0,1,0,1,0.5","2","false",""
"","html-keyboard-response","209","103693","0.0-221.0","3DI28L7YXB0AC6HN257XOMAP2KM1EG","ACJNWSBIVI46H","3TKXBROM5TWR181JXBYSOI8FGFVJIU","","null","<img src=""img/food3.png"" style=""width:200px; border:14px solid green;"">","null","","","","","","","","","",""
"","image-keyboard-response","210","103913","0.0-223.0","3DI28L7YXB0AC6HN257XOMAP2KM1EG","ACJNWSBIVI46H","3TKXBROM5TWR181JXBYSOI8FGFVJIU","","218","img/food1.png","76","220","3","1","1","2","1,0.5,0,1,0.5,0,0.5,0,1","0.5,0,1,0.5,0,1,0,1,0.5","2","false",""
"","html-keyboard-response","211","104217","0.0-224.0","3DI28L7YXB0AC6HN257XOMAP2KM1EG","ACJNWSBIVI46H","3TKXBROM5TWR181JXBYSOI8FGFVJIU","","null","<img src=""img/food1.png"" style=""width:200px; border:14px solid green;"">","null","","","","","","","","","",""
"","image-keyboard-response","212","104468","0.0-226.0","3DI28L7YXB0AC6HN257XOMAP2KM1EG","ACJNWSBIVI46H","3TKXBROM5TWR181JXBYSOI8FGFVJIU","","247.79999995231628","img/food1.png","76","250.10000014305115","3","1","1","2","1,0.5,0,1,0.5,0,0.5,0,1","0.5,0,1,0.5,0,1,0,1,0.5","2","false",""
"","html-keyboard-response","213","104771","0.0-227.0","3DI28L7YXB0AC6HN257XOMAP2KM1EG","ACJNWSBIVI46H","3TKXBROM5TWR181JXBYSOI8FGFVJIU","","null","<img src=""img/food1.png"" style=""width:200px; border:14px solid green;"">","null","","","","","","","","","",""
"","image-keyboard-response","214","105142","0.0-229.0","3DI28L7YXB0AC6HN257XOMAP2KM1EG","ACJNWSBIVI46H","3TKXBROM5TWR181JXBYSOI8FGFVJIU","","368.40000009536743","img/food5.png","76","370.2999999523163","3","0","3","2","1,0.5,0,1,0.5,0,0.5,0,1","0.5,0,1,0.5,0,1,0,1,0.5","2","false",""
"","html-keyboard-response","215","105446","0.0-230.0","3DI28L7YXB0AC6HN257XOMAP2KM1EG","ACJNWSBIVI46H","3TKXBROM5TWR181JXBYSOI8FGFVJIU","","null","<img src=""img/food5.png"" style=""width:200px;border:14px solid red;"">","null","","","","","","","","","",""
"","image-keyboard-response","216","105757","0.0-232.0","3DI28L7YXB0AC6HN257XOMAP2KM1EG","ACJNWSBIVI46H","3TKXBROM5TWR181JXBYSOI8FGFVJIU","","308.5","img/food5.png","75","310.39999985694885","2","1","3","2","1,0.5,0,1,0.5,0,0.5,0,1","0.5,0,1,0.5,0,1,0,1,0.5","2","false",""
"","html-keyboard-response","217","106074","0.0-233.0","3DI28L7YXB0AC6HN257XOMAP2KM1EG","ACJNWSBIVI46H","3TKXBROM5TWR181JXBYSOI8FGFVJIU","","null","<img src=""img/food5.png"" style=""width:200px; border:14px solid green;"">","null","","","","","","","","","",""
"","image-keyboard-response","218","106261","0.0-235.0","3DI28L7YXB0AC6HN257XOMAP2KM1EG","ACJNWSBIVI46H","3TKXBROM5TWR181JXBYSOI8FGFVJIU","","183.89999985694885","img/food1.png","75","185.79999995231628","2","0","1","2","1,0.5,0,1,0.5,0,0.5,0,1","0.5,0,1,0.5,0,1,0,1,0.5","2","false",""
"","html-keyboard-response","219","106564","0.0-236.0","3DI28L7YXB0AC6HN257XOMAP2KM1EG","ACJNWSBIVI46H","3TKXBROM5TWR181JXBYSOI8FGFVJIU","","null","<img src=""img/food1.png"" style=""width:200px;border:14px solid red;"">","null","","","","","","","","","",""
"","image-keyboard-response","220","106850","0.0-238.0","3DI28L7YXB0AC6HN257XOMAP2KM1EG","ACJNWSBIVI46H","3TKXBROM5TWR181JXBYSOI8FGFVJIU","","282.5","img/food5.png","76","284.59999990463257","3","0","3","2","1,0.5,0,1,0.5,0,0.5,0,1","0.5,0,1,0.5,0,1,0,1,0.5","2","false",""
"","html-keyboard-response","221","107153","0.0-239.0","3DI28L7YXB0AC6HN257XOMAP2KM1EG","ACJNWSBIVI46H","3TKXBROM5TWR181JXBYSOI8FGFVJIU","","null","<img src=""img/food5.png"" style=""width:200px;border:14px solid red;"">","null","","","","","","","","","",""
"","image-keyboard-response","222","107470","0.0-241.0","3DI28L7YXB0AC6HN257XOMAP2KM1EG","ACJNWSBIVI46H","3TKXBROM5TWR181JXBYSOI8FGFVJIU","","313.7000000476837","img/food3.png","75","315.7999999523163","2","0","2","2","1,0.5,0,1,0.5,0,0.5,0,1","0.5,0,1,0.5,0,1,0,1,0.5","2","false",""
"","html-keyboard-response","223","107774","0.0-242.0","3DI28L7YXB0AC6HN257XOMAP2KM1EG","ACJNWSBIVI46H","3TKXBROM5TWR181JXBYSOI8FGFVJIU","","null","<img src=""img/food3.png"" style=""width:200px;border:14px solid red;"">","null","","","","","","","","","",""
"","image-keyboard-response","224","108044","0.0-244.0","3DI28L7YXB0AC6HN257XOMAP2KM1EG","ACJNWSBIVI46H","3TKXBROM5TWR181JXBYSOI8FGFVJIU","","266.7000000476837","img/food5.png","76","268.5","3","0","3","2","1,0.5,0,1,0.5,0,0.5,0,1","0.5,0,1,0.5,0,1,0,1,0.5","2","false",""
"","html-keyboard-response","225","108347","0.0-245.0","3DI28L7YXB0AC6HN257XOMAP2KM1EG","ACJNWSBIVI46H","3TKXBROM5TWR181JXBYSOI8FGFVJIU","","null","<img src=""img/food5.png"" style=""width:200px;border:14px solid red;"">","null","","","","","","","","","",""
"","image-keyboard-response","226","108956","0.0-247.0","3DI28L7YXB0AC6HN257XOMAP2KM1EG","ACJNWSBIVI46H","3TKXBROM5TWR181JXBYSOI8FGFVJIU","","605.7999999523163","img/food1.png","76","607.7999999523163","3","1","1","2","1,0.5,0,1,0.5,0,0.5,0,1","0.5,0,1,0.5,0,1,0,1,0.5","2","false",""
"","html-keyboard-response","227","109259","0.0-248.0","3DI28L7YXB0AC6HN257XOMAP2KM1EG","ACJNWSBIVI46H","3TKXBROM5TWR181JXBYSOI8FGFVJIU","","null","<img src=""img/food1.png"" style=""width:200px; border:14px solid green;"">","null","","","","","","","","","",""
"","image-keyboard-response","228","109535","0.0-250.0","3DI28L7YXB0AC6HN257XOMAP2KM1EG","ACJNWSBIVI46H","3TKXBROM5TWR181JXBYSOI8FGFVJIU","","273.40000009536743","img/food1.png","76","275.60000014305115","3","1","1","2","1,0.5,0,1,0.5,0,0.5,0,1","0.5,0,1,0.5,0,1,0,1,0.5","2","false",""
"","html-keyboard-response","229","109838","0.0-251.0","3DI28L7YXB0AC6HN257XOMAP2KM1EG","ACJNWSBIVI46H","3TKXBROM5TWR181JXBYSOI8FGFVJIU","","null","<img src=""img/food1.png"" style=""width:200px; border:14px solid green;"">","null","","","","","","","","","",""
"","image-keyboard-response","230","110270","0.0-253.0","3DI28L7YXB0AC6HN257XOMAP2KM1EG","ACJNWSBIVI46H","3TKXBROM5TWR181JXBYSOI8FGFVJIU","","429.7999999523163","img/food3.png","76","431.7999999523163","3","1","2","2","1,0.5,0,1,0.5,0,0.5,0,1","0.5,0,1,0.5,0,1,0,1,0.5","2","false",""
"","html-keyboard-response","231","110573","0.0-254.0","3DI28L7YXB0AC6HN257XOMAP2KM1EG","ACJNWSBIVI46H","3TKXBROM5TWR181JXBYSOI8FGFVJIU","","null","<img src=""img/food3.png"" style=""width:200px; border:14px solid green;"">","null","","","","","","","","","",""
"","image-keyboard-response","232","110835","0.0-256.0","3DI28L7YXB0AC6HN257XOMAP2KM1EG","ACJNWSBIVI46H","3TKXBROM5TWR181JXBYSOI8FGFVJIU","","259","img/food5.png","76","261.09999990463257","3","0","3","2","1,0.5,0,1,0.5,0,0.5,0,1","0.5,0,1,0.5,0,1,0,1,0.5","2","false",""
"","html-keyboard-response","233","111138","0.0-257.0","3DI28L7YXB0AC6HN257XOMAP2KM1EG","ACJNWSBIVI46H","3TKXBROM5TWR181JXBYSOI8FGFVJIU","","null","<img src=""img/food5.png"" style=""width:200px;border:14px solid red;"">","null","","","","","","","","","",""
"","image-keyboard-response","234","111464","0.0-259.0","3DI28L7YXB0AC6HN257XOMAP2KM1EG","ACJNWSBIVI46H","3TKXBROM5TWR181JXBYSOI8FGFVJIU","","323.30000019073486","img/food5.png","75","325.2000000476837","2","1","3","2","1,0.5,0,1,0.5,0,0.5,0,1","0.5,0,1,0.5,0,1,0,1,0.5","2","false",""
"","html-keyboard-response","235","111768","0.0-260.0","3DI28L7YXB0AC6HN257XOMAP2KM1EG","ACJNWSBIVI46H","3TKXBROM5TWR181JXBYSOI8FGFVJIU","","null","<img src=""img/food5.png"" style=""width:200px; border:14px solid green;"">","null","","","","","","","","","",""
"","image-keyboard-response","236","112094","0.0-262.0","3DI28L7YXB0AC6HN257XOMAP2KM1EG","ACJNWSBIVI46H","3TKXBROM5TWR181JXBYSOI8FGFVJIU","","323.39999985694885","img/food5.png","75","325.39999985694885","2","1","3","2","1,0.5,0,1,0.5,0,0.5,0,1","0.5,0,1,0.5,0,1,0,1,0.5","2","false",""
"","html-keyboard-response","237","112397","0.0-263.0","3DI28L7YXB0AC6HN257XOMAP2KM1EG","ACJNWSBIVI46H","3TKXBROM5TWR181JXBYSOI8FGFVJIU","","null","<img src=""img/food5.png"" style=""width:200px; border:14px solid green;"">","null","","","","","","","","","",""
"","image-keyboard-response","238","112759","0.0-265.0","3DI28L7YXB0AC6HN257XOMAP2KM1EG","ACJNWSBIVI46H","3TKXBROM5TWR181JXBYSOI8FGFVJIU","","359","img/food1.png","76","361","3","1","1","2","1,0.5,0,1,0.5,0,0.5,0,1","0.5,0,1,0.5,0,1,0,1,0.5","2","false",""
"","html-keyboard-response","239","113062","0.0-266.0","3DI28L7YXB0AC6HN257XOMAP2KM1EG","ACJNWSBIVI46H","3TKXBROM5TWR181JXBYSOI8FGFVJIU","","null","<img src=""img/food1.png"" style=""width:200px; border:14px solid green;"">","null","","","","","","","","","",""
"","image-keyboard-response","240","113455","0.0-268.0","3DI28L7YXB0AC6HN257XOMAP2KM1EG","ACJNWSBIVI46H","3TKXBROM5TWR181JXBYSOI8FGFVJIU","","390.59999990463257","img/food3.png","76","392.39999985694885","3","1","2","2","1,0.5,0,1,0.5,0,0.5,0,1","0.5,0,1,0.5,0,1,0,1,0.5","2","false",""
"","html-keyboard-response","241","113759","0.0-269.0","3DI28L7YXB0AC6HN257XOMAP2KM1EG","ACJNWSBIVI46H","3TKXBROM5TWR181JXBYSOI8FGFVJIU","","null","<img src=""img/food3.png"" style=""width:200px; border:14px solid green;"">","null","","","","","","","","","",""
"","image-keyboard-response","242","114089","0.0-271.0","3DI28L7YXB0AC6HN257XOMAP2KM1EG","ACJNWSBIVI46H","3TKXBROM5TWR181JXBYSOI8FGFVJIU","","327.59999990463257","img/food3.png","76","329.5","3","1","2","2","1,0.5,0,1,0.5,0,0.5,0,1","0.5,0,1,0.5,0,1,0,1,0.5","2","false",""
"","html-keyboard-response","243","114392","0.0-272.0","3DI28L7YXB0AC6HN257XOMAP2KM1EG","ACJNWSBIVI46H","3TKXBROM5TWR181JXBYSOI8FGFVJIU","","null","<img src=""img/food3.png"" style=""width:200px; border:14px solid green;"">","null","","","","","","","","","",""
"","image-keyboard-response","244","114876","0.0-274.0","3DI28L7YXB0AC6HN257XOMAP2KM1EG","ACJNWSBIVI46H","3TKXBROM5TWR181JXBYSOI8FGFVJIU","","481.2000000476837","img/food1.png","76","483.09999990463257","3","1","1","2","1,0.5,0,1,0.5,0,0.5,0,1","0.5,0,1,0.5,0,1,0,1,0.5","2","false",""
"","html-keyboard-response","245","115180","0.0-275.0","3DI28L7YXB0AC6HN257XOMAP2KM1EG","ACJNWSBIVI46H","3TKXBROM5TWR181JXBYSOI8FGFVJIU","","null","<img src=""img/food1.png"" style=""width:200px; border:14px solid green;"">","null","","","","","","","","","",""
"","image-keyboard-response","246","115521","0.0-277.0","3DI28L7YXB0AC6HN257XOMAP2KM1EG","ACJNWSBIVI46H","3TKXBROM5TWR181JXBYSOI8FGFVJIU","","337.80000019073486","img/food1.png","76","339.7000000476837","3","1","1","2","1,0.5,0,1,0.5,0,0.5,0,1","0.5,0,1,0.5,0,1,0,1,0.5","2","false",""
"","html-keyboard-response","247","115824","0.0-278.0","3DI28L7YXB0AC6HN257XOMAP2KM1EG","ACJNWSBIVI46H","3TKXBROM5TWR181JXBYSOI8FGFVJIU","","null","<img src=""img/food1.png"" style=""width:200px; border:14px solid green;"">","null","","","","","","","","","",""
"","image-keyboard-response","248","116211","0.0-280.0","3DI28L7YXB0AC6HN257XOMAP2KM1EG","ACJNWSBIVI46H","3TKXBROM5TWR181JXBYSOI8FGFVJIU","","384.2999999523163","img/food5.png","75","386.2999999523163","2","1","3","2","1,0.5,0,1,0.5,0,0.5,0,1","0.5,0,1,0.5,0,1,0,1,0.5","2","false",""
"","html-keyboard-response","249","116513","0.0-281.0","3DI28L7YXB0AC6HN257XOMAP2KM1EG","ACJNWSBIVI46H","3TKXBROM5TWR181JXBYSOI8FGFVJIU","","null","<img src=""img/food5.png"" style=""width:200px; border:14px solid green;"">","null","","","","","","","","","",""
"","image-keyboard-response","250","116916","0.0-283.0","3DI28L7YXB0AC6HN257XOMAP2KM1EG","ACJNWSBIVI46H","3TKXBROM5TWR181JXBYSOI8FGFVJIU","","400.2000000476837","img/food3.png","76","402.2000000476837","3","1","2","2","1,0.5,0,1,0.5,0,0.5,0,1","0.5,0,1,0.5,0,1,0,1,0.5","2","false",""
"","html-keyboard-response","251","117220","0.0-284.0","3DI28L7YXB0AC6HN257XOMAP2KM1EG","ACJNWSBIVI46H","3TKXBROM5TWR181JXBYSOI8FGFVJIU","","null","<img src=""img/food3.png"" style=""width:200px; border:14px solid green;"">","null","","","","","","","","","",""
"","image-keyboard-response","252","117506","0.0-286.0","3DI28L7YXB0AC6HN257XOMAP2KM1EG","ACJNWSBIVI46H","3TKXBROM5TWR181JXBYSOI8FGFVJIU","","281.2000000476837","img/food5.png","76","283.2000000476837","3","0","3","2","1,0.5,0,1,0.5,0,0.5,0,1","0.5,0,1,0.5,0,1,0,1,0.5","2","false",""
"","html-keyboard-response","253","117810","0.0-287.0","3DI28L7YXB0AC6HN257XOMAP2KM1EG","ACJNWSBIVI46H","3TKXBROM5TWR181JXBYSOI8FGFVJIU","","null","<img src=""img/food5.png"" style=""width:200px;border:14px solid red;"">","null","","","","","","","","","",""
"","image-keyboard-response","254","118111","0.0-289.0","3DI28L7YXB0AC6HN257XOMAP2KM1EG","ACJNWSBIVI46H","3TKXBROM5TWR181JXBYSOI8FGFVJIU","","297.7000000476837","img/food3.png","75","300","2","0","2","2","1,0.5,0,1,0.5,0,0.5,0,1","0.5,0,1,0.5,0,1,0,1,0.5","2","false",""
"","html-keyboard-response","255","118414","0.0-290.0","3DI28L7YXB0AC6HN257XOMAP2KM1EG","ACJNWSBIVI46H","3TKXBROM5TWR181JXBYSOI8FGFVJIU","","null","<img src=""img/food3.png"" style=""width:200px;border:14px solid red;"">","null","","","","","","","","","",""
"","image-keyboard-response","256","119128","0.0-292.0","3DI28L7YXB0AC6HN257XOMAP2KM1EG","ACJNWSBIVI46H","3TKXBROM5TWR181JXBYSOI8FGFVJIU","","710.8000001907349","img/food1.png","76","712.6000001430511","3","1","1","2","1,0.5,0,1,0.5,0,0.5,0,1","0.5,0,1,0.5,0,1,0,1,0.5","2","false",""
"","html-keyboard-response","257","119431","0.0-293.0","3DI28L7YXB0AC6HN257XOMAP2KM1EG","ACJNWSBIVI46H","3TKXBROM5TWR181JXBYSOI8FGFVJIU","","null","<img src=""img/food1.png"" style=""width:200px; border:14px solid green;"">","null","","","","","","","","","",""
"","image-keyboard-response","258","119818","0.0-295.0","3DI28L7YXB0AC6HN257XOMAP2KM1EG","ACJNWSBIVI46H","3TKXBROM5TWR181JXBYSOI8FGFVJIU","","384.2000000476837","img/food3.png","76","386.2999999523163","3","1","2","2","1,0.5,0,1,0.5,0,0.5,0,1","0.5,0,1,0.5,0,1,0,1,0.5","2","false",""
"","html-keyboard-response","259","120121","0.0-296.0","3DI28L7YXB0AC6HN257XOMAP2KM1EG","ACJNWSBIVI46H","3TKXBROM5TWR181JXBYSOI8FGFVJIU","","null","<img src=""img/food3.png"" style=""width:200px; border:14px solid green;"">","null","","","","","","","","","",""
"","image-keyboard-response","260","120382","0.0-298.0","3DI28L7YXB0AC6HN257XOMAP2KM1EG","ACJNWSBIVI46H","3TKXBROM5TWR181JXBYSOI8FGFVJIU","","258.7000000476837","img/food5.png","76","260.80000019073486","3","1","3","2","1,0.5,0,1,0.5,0,0.5,0,1","0.5,0,1,0.5,0,1,0,1,0.5","2","false",""
"","html-keyboard-response","261","120686","0.0-299.0","3DI28L7YXB0AC6HN257XOMAP2KM1EG","ACJNWSBIVI46H","3TKXBROM5TWR181JXBYSOI8FGFVJIU","","null","<img src=""img/food5.png"" style=""width:200px; border:14px solid green;"">","null","","","","","","","","","",""
"","image-keyboard-response","262","121249","0.0-301.0","3DI28L7YXB0AC6HN257XOMAP2KM1EG","ACJNWSBIVI46H","3TKXBROM5TWR181JXBYSOI8FGFVJIU","","559.7999999523163","img/food1.png","76","561.8999998569489","3","1","1","2","1,0.5,0,1,0.5,0,0.5,0,1","0.5,0,1,0.5,0,1,0,1,0.5","2","false",""
"","html-keyboard-response","263","121552","0.0-302.0","3DI28L7YXB0AC6HN257XOMAP2KM1EG","ACJNWSBIVI46H","3TKXBROM5TWR181JXBYSOI8FGFVJIU","","null","<img src=""img/food1.png"" style=""width:200px; border:14px solid green;"">","null","","","","","","","","","",""
"","image-keyboard-response","264","121773","0.0-304.0","3DI28L7YXB0AC6HN257XOMAP2KM1EG","ACJNWSBIVI46H","3TKXBROM5TWR181JXBYSOI8FGFVJIU","","218.29999995231628","img/food5.png","76","220.40000009536743","3","1","3","2","1,0.5,0,1,0.5,0,0.5,0,1","0.5,0,1,0.5,0,1,0,1,0.5","2","false",""
"","html-keyboard-response","265","122076","0.0-305.0","3DI28L7YXB0AC6HN257XOMAP2KM1EG","ACJNWSBIVI46H","3TKXBROM5TWR181JXBYSOI8FGFVJIU","","null","<img src=""img/food5.png"" style=""width:200px; border:14px solid green;"">","null","","","","","","","","","",""
"","image-keyboard-response","266","122453","0.0-307.0","3DI28L7YXB0AC6HN257XOMAP2KM1EG","ACJNWSBIVI46H","3TKXBROM5TWR181JXBYSOI8FGFVJIU","","374.2000000476837","img/food3.png","76","376.09999990463257","3","1","2","2","1,0.5,0,1,0.5,0,0.5,0,1","0.5,0,1,0.5,0,1,0,1,0.5","2","false",""
"","html-keyboard-response","267","122756","0.0-308.0","3DI28L7YXB0AC6HN257XOMAP2KM1EG","ACJNWSBIVI46H","3TKXBROM5TWR181JXBYSOI8FGFVJIU","","null","<img src=""img/food3.png"" style=""width:200px; border:14px solid green;"">","null","","","","","","","","","",""
"","image-keyboard-response","268","123289","0.0-310.0","3DI28L7YXB0AC6HN257XOMAP2KM1EG","ACJNWSBIVI46H","3TKXBROM5TWR181JXBYSOI8FGFVJIU","","530.5999999046326","img/food1.png","76","532.7000000476837","3","1","1","2","1,0.5,0,1,0.5,0,0.5,0,1","0.5,0,1,0.5,0,1,0,1,0.5","2","false",""
"","html-keyboard-response","269","123593","0.0-311.0","3DI28L7YXB0AC6HN257XOMAP2KM1EG","ACJNWSBIVI46H","3TKXBROM5TWR181JXBYSOI8FGFVJIU","","null","<img src=""img/food1.png"" style=""width:200px; border:14px solid green;"">","null","","","","","","","","","",""
"","image-keyboard-response","270","124025","0.0-313.0","3DI28L7YXB0AC6HN257XOMAP2KM1EG","ACJNWSBIVI46H","3TKXBROM5TWR181JXBYSOI8FGFVJIU","","429.60000014305115","img/food3.png","76","431.5","3","1","2","2","1,0.5,0,1,0.5,0,0.5,0,1","0.5,0,1,0.5,0,1,0,1,0.5","2","false",""
"","html-keyboard-response","271","124328","0.0-314.0","3DI28L7YXB0AC6HN257XOMAP2KM1EG","ACJNWSBIVI46H","3TKXBROM5TWR181JXBYSOI8FGFVJIU","","null","<img src=""img/food3.png"" style=""width:200px; border:14px solid green;"">","null","","","","","","","","","",""
"","image-keyboard-response","272","124736","0.0-316.0","3DI28L7YXB0AC6HN257XOMAP2KM1EG","ACJNWSBIVI46H","3TKXBROM5TWR181JXBYSOI8FGFVJIU","","405","img/food1.png","76","406.89999985694885","3","1","1","2","1,0.5,0,1,0.5,0,0.5,0,1","0.5,0,1,0.5,0,1,0,1,0.5","2","false",""
"","html-keyboard-response","273","125039","0.0-317.0","3DI28L7YXB0AC6HN257XOMAP2KM1EG","ACJNWSBIVI46H","3TKXBROM5TWR181JXBYSOI8FGFVJIU","","null","<img src=""img/food1.png"" style=""width:200px; border:14px solid green;"">","null","","","","","","","","","",""
"","image-keyboard-response","274","125416","0.0-319.0","3DI28L7YXB0AC6HN257XOMAP2KM1EG","ACJNWSBIVI46H","3TKXBROM5TWR181JXBYSOI8FGFVJIU","","374.7000000476837","img/food1.png","76","376.80000019073486","3","1","1","2","1,0.5,0,1,0.5,0,0.5,0,1","0.5,0,1,0.5,0,1,0,1,0.5","2","false",""
"","html-keyboard-response","275","125721","0.0-320.0","3DI28L7YXB0AC6HN257XOMAP2KM1EG","ACJNWSBIVI46H","3TKXBROM5TWR181JXBYSOI8FGFVJIU","","null","<img src=""img/food1.png"" style=""width:200px; border:14px solid green;"">","null","","","","","","","","","",""
"","image-keyboard-response","276","126146","0.0-322.0","3DI28L7YXB0AC6HN257XOMAP2KM1EG","ACJNWSBIVI46H","3TKXBROM5TWR181JXBYSOI8FGFVJIU","","422.90000009536743","img/food5.png","75","425.09999990463257","2","1","3","2","1,0.5,0,1,0.5,0,0.5,0,1","0.5,0,1,0.5,0,1,0,1,0.5","2","false",""
"","html-keyboard-response","277","126449","0.0-323.0","3DI28L7YXB0AC6HN257XOMAP2KM1EG","ACJNWSBIVI46H","3TKXBROM5TWR181JXBYSOI8FGFVJIU","","null","<img src=""img/food5.png"" style=""width:200px; border:14px solid green;"">","null","","","","","","","","","",""
"","image-keyboard-response","278","126776","0.0-325.0","3DI28L7YXB0AC6HN257XOMAP2KM1EG","ACJNWSBIVI46H","3TKXBROM5TWR181JXBYSOI8FGFVJIU","","324.2999999523163","img/food5.png","75","326.2000000476837","2","1","3","2","1,0.5,0,1,0.5,0,0.5,0,1","0.5,0,1,0.5,0,1,0,1,0.5","2","false",""
"","html-keyboard-response","279","127079","0.0-326.0","3DI28L7YXB0AC6HN257XOMAP2KM1EG","ACJNWSBIVI46H","3TKXBROM5TWR181JXBYSOI8FGFVJIU","","null","<img src=""img/food5.png"" style=""width:200px; border:14px solid green;"">","null","","","","","","","","","",""
"","image-keyboard-response","280","127477","0.0-328.0","3DI28L7YXB0AC6HN257XOMAP2KM1EG","ACJNWSBIVI46H","3TKXBROM5TWR181JXBYSOI8FGFVJIU","","394.5","img/food3.png","76","396.7000000476837","3","1","2","2","1,0.5,0,1,0.5,0,0.5,0,1","0.5,0,1,0.5,0,1,0,1,0.5","2","false",""
"","html-keyboard-response","281","127781","0.0-329.0","3DI28L7YXB0AC6HN257XOMAP2KM1EG","ACJNWSBIVI46H","3TKXBROM5TWR181JXBYSOI8FGFVJIU","","null","<img src=""img/food3.png"" style=""width:200px; border:14px solid green;"">","null","","","","","","","","","",""
"","image-keyboard-response","282","128212","0.0-331.0","3DI28L7YXB0AC6HN257XOMAP2KM1EG","ACJNWSBIVI46H","3TKXBROM5TWR181JXBYSOI8FGFVJIU","","429.09999990463257","img/food5.png","75","431.19999980926514","2","1","3","2","1,0.5,0,1,0.5,0,0.5,0,1","0.5,0,1,0.5,0,1,0,1,0.5","2","false",""
"","html-keyboard-response","283","128516","0.0-332.0","3DI28L7YXB0AC6HN257XOMAP2KM1EG","ACJNWSBIVI46H","3TKXBROM5TWR181JXBYSOI8FGFVJIU","","null","<img src=""img/food5.png"" style=""width:200px; border:14px solid green;"">","null","","","","","","","","","",""
"","image-keyboard-response","284","128897","0.0-334.0","3DI28L7YXB0AC6HN257XOMAP2KM1EG","ACJNWSBIVI46H","3TKXBROM5TWR181JXBYSOI8FGFVJIU","","378.7999999523163","img/food3.png","76","380.89999985694885","3","1","2","2","1,0.5,0,1,0.5,0,0.5,0,1","0.5,0,1,0.5,0,1,0,1,0.5","2","false",""
"","html-keyboard-response","285","129200","0.0-335.0","3DI28L7YXB0AC6HN257XOMAP2KM1EG","ACJNWSBIVI46H","3TKXBROM5TWR181JXBYSOI8FGFVJIU","","null","<img src=""img/food3.png"" style=""width:200px; border:14px solid green;"">","null","","","","","","","","","",""
"","image-keyboard-response","286","129568","0.0-337.0","3DI28L7YXB0AC6HN257XOMAP2KM1EG","ACJNWSBIVI46H","3TKXBROM5TWR181JXBYSOI8FGFVJIU","","364.59999990463257","img/food3.png","76","366.59999990463257","3","1","2","2","1,0.5,0,1,0.5,0,0.5,0,1","0.5,0,1,0.5,0,1,0,1,0.5","2","false",""
"","html-keyboard-response","287","129871","0.0-338.0","3DI28L7YXB0AC6HN257XOMAP2KM1EG","ACJNWSBIVI46H","3TKXBROM5TWR181JXBYSOI8FGFVJIU","","null","<img src=""img/food3.png"" style=""width:200px; border:14px solid green;"">","null","","","","","","","","","",""
"","image-keyboard-response","288","130353","0.0-340.0","3DI28L7YXB0AC6HN257XOMAP2KM1EG","ACJNWSBIVI46H","3TKXBROM5TWR181JXBYSOI8FGFVJIU","","479.7000000476837","img/food5.png","75","481.7000000476837","2","1","3","2","1,0.5,0,1,0.5,0,0.5,0,1","0.5,0,1,0.5,0,1,0,1,0.5","2","false",""
"","html-keyboard-response","289","130656","0.0-341.0","3DI28L7YXB0AC6HN257XOMAP2KM1EG","ACJNWSBIVI46H","3TKXBROM5TWR181JXBYSOI8FGFVJIU","","null","<img src=""img/food5.png"" style=""width:200px; border:14px solid green;"">","null","","","","","","","","","",""
"","image-keyboard-response","290","131059","0.0-343.0","3DI28L7YXB0AC6HN257XOMAP2KM1EG","ACJNWSBIVI46H","3TKXBROM5TWR181JXBYSOI8FGFVJIU","","399.5","img/food1.png","76","401.5","3","1","1","2","1,0.5,0,1,0.5,0,0.5,0,1","0.5,0,1,0.5,0,1,0,1,0.5","2","false",""
"","html-keyboard-response","291","131362","0.0-344.0","3DI28L7YXB0AC6HN257XOMAP2KM1EG","ACJNWSBIVI46H","3TKXBROM5TWR181JXBYSOI8FGFVJIU","","null","<img src=""img/food1.png"" style=""width:200px; border:14px solid green;"">","null","","","","","","","","","",""
"","image-keyboard-response","292","131699","0.0-346.0","3DI28L7YXB0AC6HN257XOMAP2KM1EG","ACJNWSBIVI46H","3TKXBROM5TWR181JXBYSOI8FGFVJIU","","333.59999990463257","img/food1.png","76","335.80000019073486","3","1","1","2","1,0.5,0,1,0.5,0,0.5,0,1","0.5,0,1,0.5,0,1,0,1,0.5","2","false",""
"","html-keyboard-response","293","132003","0.0-347.0","3DI28L7YXB0AC6HN257XOMAP2KM1EG","ACJNWSBIVI46H","3TKXBROM5TWR181JXBYSOI8FGFVJIU","","null","<img src=""img/food1.png"" style=""width:200px; border:14px solid green;"">","null","","","","","","","","","",""
"","image-keyboard-response","294","132425","0.0-349.0","3DI28L7YXB0AC6HN257XOMAP2KM1EG","ACJNWSBIVI46H","3TKXBROM5TWR181JXBYSOI8FGFVJIU","","419.09999990463257","img/food5.png","75","421.09999990463257","2","1","3","2","1,0.5,0,1,0.5,0,0.5,0,1","0.5,0,1,0.5,0,1,0,1,0.5","2","false",""
"","html-keyboard-response","295","132728","0.0-350.0","3DI28L7YXB0AC6HN257XOMAP2KM1EG","ACJNWSBIVI46H","3TKXBROM5TWR181JXBYSOI8FGFVJIU","","null","<img src=""img/food5.png"" style=""width:200px; border:14px solid green;"">","null","","","","","","","","","",""
"","image-keyboard-response","296","133115","0.0-352.0","3DI28L7YXB0AC6HN257XOMAP2KM1EG","ACJNWSBIVI46H","3TKXBROM5TWR181JXBYSOI8FGFVJIU","","383.80000019073486","img/food3.png","76","386","3","1","2","2","1,0.5,0,1,0.5,0,0.5,0,1","0.5,0,1,0.5,0,1,0,1,0.5","2","false",""
"","html-keyboard-response","297","133418","0.0-353.0","3DI28L7YXB0AC6HN257XOMAP2KM1EG","ACJNWSBIVI46H","3TKXBROM5TWR181JXBYSOI8FGFVJIU","","null","<img src=""img/food3.png"" style=""width:200px; border:14px solid green;"">","null","","","","","","","","","",""
"","image-keyboard-response","298","133885","0.0-355.0","3DI28L7YXB0AC6HN257XOMAP2KM1EG","ACJNWSBIVI46H","3TKXBROM5TWR181JXBYSOI8FGFVJIU","","463.2000000476837","img/food5.png","75","465.2000000476837","2","1","3","2","1,0.5,0,1,0.5,0,0.5,0,1","0.5,0,1,0.5,0,1,0,1,0.5","2","false",""
"","html-keyboard-response","299","134189","0.0-356.0","3DI28L7YXB0AC6HN257XOMAP2KM1EG","ACJNWSBIVI46H","3TKXBROM5TWR181JXBYSOI8FGFVJIU","","null","<img src=""img/food5.png"" style=""width:200px; border:14px solid green;"">","null","","","","","","","","","",""
"","image-keyboard-response","300","134516","0.0-358.0","3DI28L7YXB0AC6HN257XOMAP2KM1EG","ACJNWSBIVI46H","3TKXBROM5TWR181JXBYSOI8FGFVJIU","","323.90000009536743","img/food1.png","76","326","3","1","1","2","1,0.5,0,1,0.5,0,0.5,0,1","0.5,0,1,0.5,0,1,0,1,0.5","2","false",""
"","html-keyboard-response","301","134819","0.0-359.0","3DI28L7YXB0AC6HN257XOMAP2KM1EG","ACJNWSBIVI46H","3TKXBROM5TWR181JXBYSOI8FGFVJIU","","null","<img src=""img/food1.png"" style=""width:200px; border:14px solid green;"">","null","","","","","","","","","",""
"","image-keyboard-response","302","135250","0.0-361.0","3DI28L7YXB0AC6HN257XOMAP2KM1EG","ACJNWSBIVI46H","3TKXBROM5TWR181JXBYSOI8FGFVJIU","","428.7000000476837","img/food5.png","75","430.89999985694885","2","1","3","2","1,0.5,0,1,0.5,0,0.5,0,1","0.5,0,1,0.5,0,1,0,1,0.5","2","false",""
"","html-keyboard-response","303","135555","0.0-362.0","3DI28L7YXB0AC6HN257XOMAP2KM1EG","ACJNWSBIVI46H","3TKXBROM5TWR181JXBYSOI8FGFVJIU","","null","<img src=""img/food5.png"" style=""width:200px; border:14px solid green;"">","null","","","","","","","","","",""
"","image-keyboard-response","304","135866","0.0-364.0","3DI28L7YXB0AC6HN257XOMAP2KM1EG","ACJNWSBIVI46H","3TKXBROM5TWR181JXBYSOI8FGFVJIU","","308.2999999523163","img/food3.png","76","310.39999985694885","3","1","2","2","1,0.5,0,1,0.5,0,0.5,0,1","0.5,0,1,0.5,0,1,0,1,0.5","2","false",""
"","html-keyboard-response","305","136169","0.0-365.0","3DI28L7YXB0AC6HN257XOMAP2KM1EG","ACJNWSBIVI46H","3TKXBROM5TWR181JXBYSOI8FGFVJIU","","null","<img src=""img/food3.png"" style=""width:200px; border:14px solid green;"">","null","","","","","","","","","",""
"","image-keyboard-response","306","136522","0.0-367.0","3DI28L7YXB0AC6HN257XOMAP2KM1EG","ACJNWSBIVI46H","3TKXBROM5TWR181JXBYSOI8FGFVJIU","","350","img/food3.png","76","352.10000014305115","3","1","2","2","1,0.5,0,1,0.5,0,0.5,0,1","0.5,0,1,0.5,0,1,0,1,0.5","2","false",""
"","html-keyboard-response","307","136826","0.0-368.0","3DI28L7YXB0AC6HN257XOMAP2KM1EG","ACJNWSBIVI46H","3TKXBROM5TWR181JXBYSOI8FGFVJIU","","null","<img src=""img/food3.png"" style=""width:200px; border:14px solid green;"">","null","","","","","","","","","",""
"","image-keyboard-response","308","137215","0.0-370.0","3DI28L7YXB0AC6HN257XOMAP2KM1EG","ACJNWSBIVI46H","3TKXBROM5TWR181JXBYSOI8FGFVJIU","","386.59999990463257","img/food1.png","75","388.7000000476837","2","0","1","2","1,0.5,0,1,0.5,0,0.5,0,1","0.5,0,1,0.5,0,1,0,1,0.5","2","false",""
"","html-keyboard-response","309","137519","0.0-371.0","3DI28L7YXB0AC6HN257XOMAP2KM1EG","ACJNWSBIVI46H","3TKXBROM5TWR181JXBYSOI8FGFVJIU","","null","<img src=""img/food1.png"" style=""width:200px;border:14px solid red;"">","null","","","","","","","","","",""
"","image-keyboard-response","310","137856","0.0-373.0","3DI28L7YXB0AC6HN257XOMAP2KM1EG","ACJNWSBIVI46H","3TKXBROM5TWR181JXBYSOI8FGFVJIU","","333.90000009536743","img/food5.png","76","336.2000000476837","3","1","3","2","1,0.5,0,1,0.5,0,0.5,0,1","0.5,0,1,0.5,0,1,0,1,0.5","2","false",""
"","html-keyboard-response","311","138159","0.0-374.0","3DI28L7YXB0AC6HN257XOMAP2KM1EG","ACJNWSBIVI46H","3TKXBROM5TWR181JXBYSOI8FGFVJIU","","null","<img src=""img/food5.png"" style=""width:200px; border:14px solid green;"">","null","","","","","","","","","",""
"","image-keyboard-response","312","138833","0.0-376.0","3DI28L7YXB0AC6HN257XOMAP2KM1EG","ACJNWSBIVI46H","3TKXBROM5TWR181JXBYSOI8FGFVJIU","","671.1000001430511","img/food1.png","76","673.0999999046326","3","1","1","2","1,0.5,0,1,0.5,0,0.5,0,1","0.5,0,1,0.5,0,1,0,1,0.5","2","false",""
"","html-keyboard-response","313","139136","0.0-377.0","3DI28L7YXB0AC6HN257XOMAP2KM1EG","ACJNWSBIVI46H","3TKXBROM5TWR181JXBYSOI8FGFVJIU","","null","<img src=""img/food1.png"" style=""width:200px; border:14px solid green;"">","null","","","","","","","","","",""
"","image-keyboard-response","314","139614","0.0-379.0","3DI28L7YXB0AC6HN257XOMAP2KM1EG","ACJNWSBIVI46H","3TKXBROM5TWR181JXBYSOI8FGFVJIU","","474.80000019073486","img/food3.png","76","477","3","1","2","2","1,0.5,0,1,0.5,0,0.5,0,1","0.5,0,1,0.5,0,1,0,1,0.5","2","false",""
"","html-keyboard-response","315","139931","0.0-380.0","3DI28L7YXB0AC6HN257XOMAP2KM1EG","ACJNWSBIVI46H","3TKXBROM5TWR181JXBYSOI8FGFVJIU","","null","<img src=""img/food3.png"" style=""width:200px; border:14px solid green;"">","null","","","","","","","","","",""
"","image-keyboard-response","316","140345","0.0-382.0","3DI28L7YXB0AC6HN257XOMAP2KM1EG","ACJNWSBIVI46H","3TKXBROM5TWR181JXBYSOI8FGFVJIU","","411.2999999523163","img/food5.png","75","413.2999999523163","2","1","3","2","1,0.5,0,1,0.5,0,0.5,0,1","0.5,0,1,0.5,0,1,0,1,0.5","2","false",""
"","html-keyboard-response","317","140647","0.0-383.0","3DI28L7YXB0AC6HN257XOMAP2KM1EG","ACJNWSBIVI46H","3TKXBROM5TWR181JXBYSOI8FGFVJIU","","null","<img src=""img/food5.png"" style=""width:200px; border:14px solid green;"">","null","","","","","","","","","",""
"","image-keyboard-response","318","141020","0.0-385.0","3DI28L7YXB0AC6HN257XOMAP2KM1EG","ACJNWSBIVI46H","3TKXBROM5TWR181JXBYSOI8FGFVJIU","","369.90000009536743","img/food1.png","76","372","3","1","1","2","1,0.5,0,1,0.5,0,0.5,0,1","0.5,0,1,0.5,0,1,0,1,0.5","2","false",""
"","html-keyboard-response","319","141323","0.0-386.0","3DI28L7YXB0AC6HN257XOMAP2KM1EG","ACJNWSBIVI46H","3TKXBROM5TWR181JXBYSOI8FGFVJIU","","null","<img src=""img/food1.png"" style=""width:200px; border:14px solid green;"">","null","","","","","","","","","",""
"","image-keyboard-response","320","141665","0.0-388.0","3DI28L7YXB0AC6HN257XOMAP2KM1EG","ACJNWSBIVI46H","3TKXBROM5TWR181JXBYSOI8FGFVJIU","","339.10000014305115","img/food1.png","76","341.2999999523163","3","1","1","2","1,0.5,0,1,0.5,0,0.5,0,1","0.5,0,1,0.5,0,1,0,1,0.5","2","false",""
"","html-keyboard-response","321","141969","0.0-389.0","3DI28L7YXB0AC6HN257XOMAP2KM1EG","ACJNWSBIVI46H","3TKXBROM5TWR181JXBYSOI8FGFVJIU","","null","<img src=""img/food1.png"" style=""width:200px; border:14px solid green;"">","null","","","","","","","","","",""
"","image-keyboard-response","322","142416","0.0-391.0","3DI28L7YXB0AC6HN257XOMAP2KM1EG","ACJNWSBIVI46H","3TKXBROM5TWR181JXBYSOI8FGFVJIU","","444.59999990463257","img/food3.png","76","446.7000000476837","3","1","2","2","1,0.5,0,1,0.5,0,0.5,0,1","0.5,0,1,0.5,0,1,0,1,0.5","2","false",""
"","html-keyboard-response","323","142720","0.0-392.0","3DI28L7YXB0AC6HN257XOMAP2KM1EG","ACJNWSBIVI46H","3TKXBROM5TWR181JXBYSOI8FGFVJIU","","null","<img src=""img/food3.png"" style=""width:200px; border:14px solid green;"">","null","","","","","","","","","",""
"","image-keyboard-response","324","143132","0.0-394.0","3DI28L7YXB0AC6HN257XOMAP2KM1EG","ACJNWSBIVI46H","3TKXBROM5TWR181JXBYSOI8FGFVJIU","","409.40000009536743","img/food1.png","76","411.7000000476837","3","1","1","2","1,0.5,0,1,0.5,0,0.5,0,1","0.5,0,1,0.5,0,1,0,1,0.5","2","false",""
"","html-keyboard-response","325","143435","0.0-395.0","3DI28L7YXB0AC6HN257XOMAP2KM1EG","ACJNWSBIVI46H","3TKXBROM5TWR181JXBYSOI8FGFVJIU","","null","<img src=""img/food1.png"" style=""width:200px; border:14px solid green;"">","null","","","","","","","","","",""
"","image-keyboard-response","326","143822","0.0-397.0","3DI28L7YXB0AC6HN257XOMAP2KM1EG","ACJNWSBIVI46H","3TKXBROM5TWR181JXBYSOI8FGFVJIU","","384.2000000476837","img/food5.png","75","386.5","2","1","3","2","1,0.5,0,1,0.5,0,0.5,0,1","0.5,0,1,0.5,0,1,0,1,0.5","2","false",""
"","html-keyboard-response","327","144126","0.0-398.0","3DI28L7YXB0AC6HN257XOMAP2KM1EG","ACJNWSBIVI46H","3TKXBROM5TWR181JXBYSOI8FGFVJIU","","null","<img src=""img/food5.png"" style=""width:200px; border:14px solid green;"">","null","","","","","","","","","",""
"","image-keyboard-response","328","144387","0.0-400.0","3DI28L7YXB0AC6HN257XOMAP2KM1EG","ACJNWSBIVI46H","3TKXBROM5TWR181JXBYSOI8FGFVJIU","","258.2999999523163","img/food5.png","75","260.2999999523163","2","1","3","2","1,0.5,0,1,0.5,0,0.5,0,1","0.5,0,1,0.5,0,1,0,1,0.5","2","false",""
"","html-keyboard-response","329","144690","0.0-401.0","3DI28L7YXB0AC6HN257XOMAP2KM1EG","ACJNWSBIVI46H","3TKXBROM5TWR181JXBYSOI8FGFVJIU","","null","<img src=""img/food5.png"" style=""width:200px; border:14px solid green;"">","null","","","","","","","","","",""
"","image-keyboard-response","330","145087","0.0-403.0","3DI28L7YXB0AC6HN257XOMAP2KM1EG","ACJNWSBIVI46H","3TKXBROM5TWR181JXBYSOI8FGFVJIU","","394","img/food1.png","76","396.2000000476837","3","1","1","2","1,0.5,0,1,0.5,0,0.5,0,1","0.5,0,1,0.5,0,1,0,1,0.5","2","false",""
"","html-keyboard-response","331","145391","0.0-404.0","3DI28L7YXB0AC6HN257XOMAP2KM1EG","ACJNWSBIVI46H","3TKXBROM5TWR181JXBYSOI8FGFVJIU","","null","<img src=""img/food1.png"" style=""width:200px; border:14px solid green;"">","null","","","","","","","","","",""
"","image-keyboard-response","332","145677","0.0-406.0","3DI28L7YXB0AC6HN257XOMAP2KM1EG","ACJNWSBIVI46H","3TKXBROM5TWR181JXBYSOI8FGFVJIU","","282.7999999523163","img/food1.png","76","284.90000009536743","3","1","1","2","1,0.5,0,1,0.5,0,0.5,0,1","0.5,0,1,0.5,0,1,0,1,0.5","2","false",""
"","html-keyboard-response","333","145980","0.0-407.0","3DI28L7YXB0AC6HN257XOMAP2KM1EG","ACJNWSBIVI46H","3TKXBROM5TWR181JXBYSOI8FGFVJIU","","null","<img src=""img/food1.png"" style=""width:200px; border:14px solid green;"">","null","","","","","","","","","",""
"","image-keyboard-response","334","146383","0.0-409.0","3DI28L7YXB0AC6HN257XOMAP2KM1EG","ACJNWSBIVI46H","3TKXBROM5TWR181JXBYSOI8FGFVJIU","","399.7000000476837","img/food5.png","75","402","2","1","3","2","1,0.5,0,1,0.5,0,0.5,0,1","0.5,0,1,0.5,0,1,0,1,0.5","2","false",""
"","html-keyboard-response","335","146686","0.0-410.0","3DI28L7YXB0AC6HN257XOMAP2KM1EG","ACJNWSBIVI46H","3TKXBROM5TWR181JXBYSOI8FGFVJIU","","null","<img src=""img/food5.png"" style=""width:200px; border:14px solid green;"">","null","","","","","","","","","",""
"","image-keyboard-response","336","147083","0.0-412.0","3DI28L7YXB0AC6HN257XOMAP2KM1EG","ACJNWSBIVI46H","3TKXBROM5TWR181JXBYSOI8FGFVJIU","","394","img/food1.png","76","396.10000014305115","3","1","1","2","1,0.5,0,1,0.5,0,0.5,0,1","0.5,0,1,0.5,0,1,0,1,0.5","2","false",""
"","html-keyboard-response","337","147386","0.0-413.0","3DI28L7YXB0AC6HN257XOMAP2KM1EG","ACJNWSBIVI46H","3TKXBROM5TWR181JXBYSOI8FGFVJIU","","null","<img src=""img/food1.png"" style=""width:200px; border:14px solid green;"">","null","","","","","","","","","",""
"","image-keyboard-response","338","147848","0.0-415.0","3DI28L7YXB0AC6HN257XOMAP2KM1EG","ACJNWSBIVI46H","3TKXBROM5TWR181JXBYSOI8FGFVJIU","","459.7000000476837","img/food5.png","75","461.90000009536743","2","1","3","2","1,0.5,0,1,0.5,0,0.5,0,1","0.5,0,1,0.5,0,1,0,1,0.5","2","false",""
"","html-keyboard-response","339","148151","0.0-416.0","3DI28L7YXB0AC6HN257XOMAP2KM1EG","ACJNWSBIVI46H","3TKXBROM5TWR181JXBYSOI8FGFVJIU","","null","<img src=""img/food5.png"" style=""width:200px; border:14px solid green;"">","null","","","","","","","","","",""
"","image-keyboard-response","340","148518","0.0-418.0","3DI28L7YXB0AC6HN257XOMAP2KM1EG","ACJNWSBIVI46H","3TKXBROM5TWR181JXBYSOI8FGFVJIU","","364.2999999523163","img/food3.png","76","366.30000019073486","3","1","2","2","1,0.5,0,1,0.5,0,0.5,0,1","0.5,0,1,0.5,0,1,0,1,0.5","2","false",""
"","html-keyboard-response","341","148821","0.0-419.0","3DI28L7YXB0AC6HN257XOMAP2KM1EG","ACJNWSBIVI46H","3TKXBROM5TWR181JXBYSOI8FGFVJIU","","null","<img src=""img/food3.png"" style=""width:200px; border:14px solid green;"">","null","","","","","","","","","",""
"","image-keyboard-response","342","149123","0.0-421.0","3DI28L7YXB0AC6HN257XOMAP2KM1EG","ACJNWSBIVI46H","3TKXBROM5TWR181JXBYSOI8FGFVJIU","","298.5","img/food3.png","76","300.40000009536743","3","1","2","2","1,0.5,0,1,0.5,0,0.5,0,1","0.5,0,1,0.5,0,1,0,1,0.5","2","false",""
"","html-keyboard-response","343","149426","0.0-422.0","3DI28L7YXB0AC6HN257XOMAP2KM1EG","ACJNWSBIVI46H","3TKXBROM5TWR181JXBYSOI8FGFVJIU","","null","<img src=""img/food3.png"" style=""width:200px; border:14px solid green;"">","null","","","","","","","","","",""
"","image-keyboard-response","344","149788","0.0-424.0","3DI28L7YXB0AC6HN257XOMAP2KM1EG","ACJNWSBIVI46H","3TKXBROM5TWR181JXBYSOI8FGFVJIU","","359.39999985694885","img/food3.png","76","361.59999990463257","3","1","2","2","1,0.5,0,1,0.5,0,0.5,0,1","0.5,0,1,0.5,0,1,0,1,0.5","2","false",""
"","html-keyboard-response","345","150092","0.0-425.0","3DI28L7YXB0AC6HN257XOMAP2KM1EG","ACJNWSBIVI46H","3TKXBROM5TWR181JXBYSOI8FGFVJIU","","null","<img src=""img/food3.png"" style=""width:200px; border:14px solid green;"">","null","","","","","","","","","",""
"","image-keyboard-response","346","150715","0.0-427.0","3DI28L7YXB0AC6HN257XOMAP2KM1EG","ACJNWSBIVI46H","3TKXBROM5TWR181JXBYSOI8FGFVJIU","","620.7999999523163","img/food1.png","76","623","3","1","1","2","1,0.5,0,1,0.5,0,0.5,0,1","0.5,0,1,0.5,0,1,0,1,0.5","2","false",""
"","html-keyboard-response","347","151018","0.0-428.0","3DI28L7YXB0AC6HN257XOMAP2KM1EG","ACJNWSBIVI46H","3TKXBROM5TWR181JXBYSOI8FGFVJIU","","null","<img src=""img/food1.png"" style=""width:200px; border:14px solid green;"">","null","","","","","","","","","",""
"","image-keyboard-response","348","151718","0.0-430.0","3DI28L7YXB0AC6HN257XOMAP2KM1EG","ACJNWSBIVI46H","3TKXBROM5TWR181JXBYSOI8FGFVJIU","","696.8999998569489","img/food5.png","75","699","2","1","3","2","1,0.5,0,1,0.5,0,0.5,0,1","0.5,0,1,0.5,0,1,0,1,0.5","2","false",""
"","html-keyboard-response","349","152021","0.0-431.0","3DI28L7YXB0AC6HN257XOMAP2KM1EG","ACJNWSBIVI46H","3TKXBROM5TWR181JXBYSOI8FGFVJIU","","null","<img src=""img/food5.png"" style=""width:200px; border:14px solid green;"">","null","","","","","","","","","",""
"","image-keyboard-response","350","152424","0.0-433.0","3DI28L7YXB0AC6HN257XOMAP2KM1EG","ACJNWSBIVI46H","3TKXBROM5TWR181JXBYSOI8FGFVJIU","","400.09999990463257","img/food3.png","76","402","3","1","2","2","1,0.5,0,1,0.5,0,0.5,0,1","0.5,0,1,0.5,0,1,0,1,0.5","2","false",""
"","html-keyboard-response","351","152727","0.0-434.0","3DI28L7YXB0AC6HN257XOMAP2KM1EG","ACJNWSBIVI46H","3TKXBROM5TWR181JXBYSOI8FGFVJIU","","null","<img src=""img/food3.png"" style=""width:200px; border:14px solid green;"">","null","","","","","","","","","",""
"","image-keyboard-response","352","153195","0.0-436.0","3DI28L7YXB0AC6HN257XOMAP2KM1EG","ACJNWSBIVI46H","3TKXBROM5TWR181JXBYSOI8FGFVJIU","","464.7999999523163","img/food1.png","76","467","3","1","1","2","1,0.5,0,1,0.5,0,0.5,0,1","0.5,0,1,0.5,0,1,0,1,0.5","2","false",""
"","html-keyboard-response","353","153498","0.0-437.0","3DI28L7YXB0AC6HN257XOMAP2KM1EG","ACJNWSBIVI46H","3TKXBROM5TWR181JXBYSOI8FGFVJIU","","null","<img src=""img/food1.png"" style=""width:200px; border:14px solid green;"">","null","","","","","","","","","",""
"","image-keyboard-response","354","153935","0.0-439.0","3DI28L7YXB0AC6HN257XOMAP2KM1EG","ACJNWSBIVI46H","3TKXBROM5TWR181JXBYSOI8FGFVJIU","","435.10000014305115","img/food3.png","76","437","3","1","2","2","1,0.5,0,1,0.5,0,0.5,0,1","0.5,0,1,0.5,0,1,0,1,0.5","2","false",""
"","html-keyboard-response","355","154238","0.0-440.0","3DI28L7YXB0AC6HN257XOMAP2KM1EG","ACJNWSBIVI46H","3TKXBROM5TWR181JXBYSOI8FGFVJIU","","null","<img src=""img/food3.png"" style=""width:200px; border:14px solid green;"">","null","","","","","","","","","",""
"","image-keyboard-response","356","154515","0.0-442.0","3DI28L7YXB0AC6HN257XOMAP2KM1EG","ACJNWSBIVI46H","3TKXBROM5TWR181JXBYSOI8FGFVJIU","","273.89999985694885","img/food3.png","76","276.09999990463257","3","1","2","2","1,0.5,0,1,0.5,0,0.5,0,1","0.5,0,1,0.5,0,1,0,1,0.5","2","false",""
"","html-keyboard-response","357","154818","0.0-443.0","3DI28L7YXB0AC6HN257XOMAP2KM1EG","ACJNWSBIVI46H","3TKXBROM5TWR181JXBYSOI8FGFVJIU","","null","<img src=""img/food3.png"" style=""width:200px; border:14px solid green;"">","null","","","","","","","","","",""
"","image-keyboard-response","358","155251","0.0-445.0","3DI28L7YXB0AC6HN257XOMAP2KM1EG","ACJNWSBIVI46H","3TKXBROM5TWR181JXBYSOI8FGFVJIU","","429.39999985694885","img/food1.png","76","431.39999985694885","3","1","1","2","1,0.5,0,1,0.5,0,0.5,0,1","0.5,0,1,0.5,0,1,0,1,0.5","2","false",""
"","html-keyboard-response","359","155555","0.0-446.0","3DI28L7YXB0AC6HN257XOMAP2KM1EG","ACJNWSBIVI46H","3TKXBROM5TWR181JXBYSOI8FGFVJIU","","null","<img src=""img/food1.png"" style=""width:200px; border:14px solid green;"">","null","","","","","","","","","",""
"","image-keyboard-response","360","155890","0.0-448.0","3DI28L7YXB0AC6HN257XOMAP2KM1EG","ACJNWSBIVI46H","3TKXBROM5TWR181JXBYSOI8FGFVJIU","","332.59999990463257","img/food5.png","76","334.7999999523163","3","0","3","2","1,0.5,0,1,0.5,0,0.5,0,1","0.5,0,1,0.5,0,1,0,1,0.5","2","false",""
"","html-keyboard-response","361","156194","0.0-449.0","3DI28L7YXB0AC6HN257XOMAP2KM1EG","ACJNWSBIVI46H","3TKXBROM5TWR181JXBYSOI8FGFVJIU","","null","<img src=""img/food5.png"" style=""width:200px;border:14px solid red;"">","null","","","","","","","","","",""
"","image-keyboard-response","362","156688","0.0-451.0","3DI28L7YXB0AC6HN257XOMAP2KM1EG","ACJNWSBIVI46H","3TKXBROM5TWR181JXBYSOI8FGFVJIU","","490.5","img/food1.png","76","492.5","3","1","1","2","1,0.5,0,1,0.5,0,0.5,0,1","0.5,0,1,0.5,0,1,0,1,0.5","2","false",""
"","html-keyboard-response","363","156991","0.0-452.0","3DI28L7YXB0AC6HN257XOMAP2KM1EG","ACJNWSBIVI46H","3TKXBROM5TWR181JXBYSOI8FGFVJIU","","null","<img src=""img/food1.png"" style=""width:200px; border:14px solid green;"">","null","","","","","","","","","",""
"","instructions","364","160578","0.0-454.0","3DI28L7YXB0AC6HN257XOMAP2KM1EG","ACJNWSBIVI46H","3TKXBROM5TWR181JXBYSOI8FGFVJIU","[{""page_index"":0,""viewing_time"":3584.7999999523163}]","3585.399999856949","","","","","","","","","","","",""
"","survey-text","365","173911","0.0-455.0","3DI28L7YXB0AC6HN257XOMAP2KM1EG","ACJNWSBIVI46H","3TKXBROM5TWR181JXBYSOI8FGFVJIU","","13320.799999952316","","","","","","","","","","","","{""Q0"":""ACJNWSBIVI46H""}"
