"success","trial_type","trial_index","time_elapsed","internal_node_id","assignmentID","mturkID","hitID","view_history","rt","stimulus","key_press","reactionTime","a","r","warning","s","cond","reward_cond","reward_cond_actual","reward_matrix_idx","responses"
"true","fullscreen","0","2349","0.0-0.0","3PMBY0YE28PD4D04ARGVD4S5FNN9C0","ACON9O9NMFOHE","30UZJB2POHY4464FN6NBJ2NLFWF354","","","","","","","","","","","","","",""
"","instructions","1","19256","0.0-1.0","3PMBY0YE28PD4D04ARGVD4S5FNN9C0","ACON9O9NMFOHE","30UZJB2POHY4464FN6NBJ2NLFWF354","[{""page_index"":0,""viewing_time"":3977.2999999523163},{""page_index"":1,""viewing_time"":1559.8000001907349},{""page_index"":2,""viewing_time"":1696.1999998092651},{""page_index"":3,""viewing_time"":3343.9000000953674},{""page_index"":4,""viewing_time"":2896},{""page_index"":5,""viewing_time"":1143.7999999523163},{""page_index"":6,""viewing_time"":2288.100000143051}]","16905.400000095367","","","","","","","","","","","",""
"","instructions","2","25752","0.0-2.0","3PMBY0YE28PD4D04ARGVD4S5FNN9C0","ACON9O9NMFOHE","30UZJB2POHY4464FN6NBJ2NLFWF354","[{""page_index"":0,""viewing_time"":5470.5},{""page_index"":1,""viewing_time"":1024}]","6494.799999952316","","","","","","","","","","","",""
"","image-keyboard-response","3","26484","0.0-3.0","3PMBY0YE28PD4D04ARGVD4S5FNN9C0","ACON9O9NMFOHE","30UZJB2POHY4464FN6NBJ2NLFWF354","","731","img/food6.png","74","732.2999999523163","1","0","false","3","2","1,0.5,0,1,0.5,0,0.5,0,1","1,0.5,0,1,0.5,0,0.5,0,1","1",""
"","html-keyboard-response","4","26795","0.0-4.0","3PMBY0YE28PD4D04ARGVD4S5FNN9C0","ACON9O9NMFOHE","30UZJB2POHY4464FN6NBJ2NLFWF354","","null","<img src=""img/food6.png"" style=""width:200px;border:14px solid red;"">","null","","","","","","","","","",""
"","image-keyboard-response","5","27391","0.0-6.0","3PMBY0YE28PD4D04ARGVD4S5FNN9C0","ACON9O9NMFOHE","30UZJB2POHY4464FN6NBJ2NLFWF354","","594.9000000953674","img/food4.png","75","595.9000000953674","2","0","false","1","2","1,0.5,0,1,0.5,0,0.5,0,1","1,0.5,0,1,0.5,0,0.5,0,1","1",""
"","html-keyboard-response","6","27695","0.0-7.0","3PMBY0YE28PD4D04ARGVD4S5FNN9C0","ACON9O9NMFOHE","30UZJB2POHY4464FN6NBJ2NLFWF354","","null","<img src=""img/food4.png"" style=""width:200px;border:14px solid red;"">","null","","","","","","","","","",""
"","image-keyboard-response","7","28079","0.0-9.0","3PMBY0YE28PD4D04ARGVD4S5FNN9C0","ACON9O9NMFOHE","30UZJB2POHY4464FN6NBJ2NLFWF354","","383.2000000476837","img/food4.png","76","384","3","0","false","1","2","1,0.5,0,1,0.5,0,0.5,0,1","1,0.5,0,1,0.5,0,0.5,0,1","1",""
"","html-keyboard-response","8","28394","0.0-10.0","3PMBY0YE28PD4D04ARGVD4S5FNN9C0","ACON9O9NMFOHE","30UZJB2POHY4464FN6NBJ2NLFWF354","","null","<img src=""img/food4.png"" style=""width:200px;border:14px solid red;"">","null","","","","","","","","","",""
"","image-keyboard-response","9","28991","0.0-12.0","3PMBY0YE28PD4D04ARGVD4S5FNN9C0","ACON9O9NMFOHE","30UZJB2POHY4464FN6NBJ2NLFWF354","","596","img/food6.png","74","596.9000000953674","1","1","false","3","2","1,0.5,0,1,0.5,0,0.5,0,1","1,0.5,0,1,0.5,0,0.5,0,1","1",""
"","html-keyboard-response","10","29294","0.0-13.0","3PMBY0YE28PD4D04ARGVD4S5FNN9C0","ACON9O9NMFOHE","30UZJB2POHY4464FN6NBJ2NLFWF354","","null","<img src=""img/food6.png"" style=""width:200px; border:14px solid green;"">","null","","","","","","","","","",""
"","image-keyboard-response","11","29807","0.0-15.0","3PMBY0YE28PD4D04ARGVD4S5FNN9C0","ACON9O9NMFOHE","30UZJB2POHY4464FN6NBJ2NLFWF354","","512.1999998092651","img/food5.png","75","513.2000000476837","2","0","false","2","2","1,0.5,0,1,0.5,0,0.5,0,1","1,0.5,0,1,0.5,0,0.5,0,1","1",""
"","html-keyboard-response","12","30110","0.0-16.0","3PMBY0YE28PD4D04ARGVD4S5FNN9C0","ACON9O9NMFOHE","30UZJB2POHY4464FN6NBJ2NLFWF354","","null","<img src=""img/food5.png"" style=""width:200px;border:14px solid red;"">","null","","","","","","","","","",""
"","image-keyboard-response","13","30735","0.0-18.0","3PMBY0YE28PD4D04ARGVD4S5FNN9C0","ACON9O9NMFOHE","30UZJB2POHY4464FN6NBJ2NLFWF354","","624.1000001430511","img/food6.png","74","624.9000000953674","1","0","false","3","2","1,0.5,0,1,0.5,0,0.5,0,1","1,0.5,0,1,0.5,0,0.5,0,1","1",""
"","html-keyboard-response","14","31036","0.0-19.0","3PMBY0YE28PD4D04ARGVD4S5FNN9C0","ACON9O9NMFOHE","30UZJB2POHY4464FN6NBJ2NLFWF354","","null","<img src=""img/food6.png"" style=""width:200px;border:14px solid red;"">","null","","","","","","","","","",""
"","image-keyboard-response","15","31455","0.0-21.0","3PMBY0YE28PD4D04ARGVD4S5FNN9C0","ACON9O9NMFOHE","30UZJB2POHY4464FN6NBJ2NLFWF354","","417.7999999523163","img/food4.png","74","418.90000009536743","1","1","false","1","2","1,0.5,0,1,0.5,0,0.5,0,1","1,0.5,0,1,0.5,0,0.5,0,1","1",""
"","html-keyboard-response","16","31762","0.0-22.0","3PMBY0YE28PD4D04ARGVD4S5FNN9C0","ACON9O9NMFOHE","30UZJB2POHY4464FN6NBJ2NLFWF354","","null","<img src=""img/food4.png"" style=""width:200px; border:14px solid green;"">","null","","","","","","","","","",""
"","image-keyboard-response","17","32271","0.0-24.0","3PMBY0YE28PD4D04ARGVD4S5FNN9C0","ACON9O9NMFOHE","30UZJB2POHY4464FN6NBJ2NLFWF354","","507.30000019073486","img/food6.png","74","508.5","1","1","false","3","2","1,0.5,0,1,0.5,0,0.5,0,1","1,0.5,0,1,0.5,0,0.5,0,1","1",""
"","html-keyboard-response","18","32573","0.0-25.0","3PMBY0YE28PD4D04ARGVD4S5FNN9C0","ACON9O9NMFOHE","30UZJB2POHY4464FN6NBJ2NLFWF354","","null","<img src=""img/food6.png"" style=""width:200px; border:14px solid green;"">","null","","","","","","","","","",""
"","image-keyboard-response","19","32895","0.0-27.0","3PMBY0YE28PD4D04ARGVD4S5FNN9C0","ACON9O9NMFOHE","30UZJB2POHY4464FN6NBJ2NLFWF354","","321.10000014305115","img/food4.png","75","322.10000014305115","2","0","false","1","2","1,0.5,0,1,0.5,0,0.5,0,1","1,0.5,0,1,0.5,0,0.5,0,1","1",""
"","html-keyboard-response","20","33197","0.0-28.0","3PMBY0YE28PD4D04ARGVD4S5FNN9C0","ACON9O9NMFOHE","30UZJB2POHY4464FN6NBJ2NLFWF354","","null","<img src=""img/food4.png"" style=""width:200px;border:14px solid red;"">","null","","","","","","","","","",""
"","image-keyboard-response","21","33503","0.0-30.0","3PMBY0YE28PD4D04ARGVD4S5FNN9C0","ACON9O9NMFOHE","30UZJB2POHY4464FN6NBJ2NLFWF354","","305.2000000476837","img/food6.png","76","306.10000014305115","3","1","false","3","2","1,0.5,0,1,0.5,0,0.5,0,1","1,0.5,0,1,0.5,0,0.5,0,1","1",""
"","html-keyboard-response","22","33806","0.0-31.0","3PMBY0YE28PD4D04ARGVD4S5FNN9C0","ACON9O9NMFOHE","30UZJB2POHY4464FN6NBJ2NLFWF354","","null","<img src=""img/food6.png"" style=""width:200px; border:14px solid green;"">","null","","","","","","","","","",""
"","image-keyboard-response","23","34223","0.0-33.0","3PMBY0YE28PD4D04ARGVD4S5FNN9C0","ACON9O9NMFOHE","30UZJB2POHY4464FN6NBJ2NLFWF354","","415.89999985694885","img/food4.png","76","417","3","0","false","1","2","1,0.5,0,1,0.5,0,0.5,0,1","1,0.5,0,1,0.5,0,0.5,0,1","1",""
"","html-keyboard-response","24","34539","0.0-34.0","3PMBY0YE28PD4D04ARGVD4S5FNN9C0","ACON9O9NMFOHE","30UZJB2POHY4464FN6NBJ2NLFWF354","","null","<img src=""img/food4.png"" style=""width:200px;border:14px solid red;"">","null","","","","","","","","","",""
"","image-keyboard-response","25","34784","0.0-36.0","3PMBY0YE28PD4D04ARGVD4S5FNN9C0","ACON9O9NMFOHE","30UZJB2POHY4464FN6NBJ2NLFWF354","","244.70000004768372","img/food5.png","74","245.40000009536743","1","1","false","2","2","1,0.5,0,1,0.5,0,0.5,0,1","1,0.5,0,1,0.5,0,0.5,0,1","1",""
"","html-keyboard-response","26","35087","0.0-37.0","3PMBY0YE28PD4D04ARGVD4S5FNN9C0","ACON9O9NMFOHE","30UZJB2POHY4464FN6NBJ2NLFWF354","","null","<img src=""img/food5.png"" style=""width:200px; border:14px solid green;"">","null","","","","","","","","","",""
"","image-keyboard-response","27","35551","0.0-39.0","3PMBY0YE28PD4D04ARGVD4S5FNN9C0","ACON9O9NMFOHE","30UZJB2POHY4464FN6NBJ2NLFWF354","","463.40000009536743","img/food6.png","74","464.2999999523163","1","0","false","3","2","1,0.5,0,1,0.5,0,0.5,0,1","1,0.5,0,1,0.5,0,0.5,0,1","1",""
"","html-keyboard-response","28","35852","0.0-40.0","3PMBY0YE28PD4D04ARGVD4S5FNN9C0","ACON9O9NMFOHE","30UZJB2POHY4464FN6NBJ2NLFWF354","","null","<img src=""img/food6.png"" style=""width:200px;border:14px solid red;"">","null","","","","","","","","","",""
"","image-keyboard-response","29","36111","0.0-42.0","3PMBY0YE28PD4D04ARGVD4S5FNN9C0","ACON9O9NMFOHE","30UZJB2POHY4464FN6NBJ2NLFWF354","","257.7000000476837","img/food6.png","75","258.60000014305115","2","0","false","3","2","1,0.5,0,1,0.5,0,0.5,0,1","1,0.5,0,1,0.5,0,0.5,0,1","1",""
"","html-keyboard-response","30","36413","0.0-43.0","3PMBY0YE28PD4D04ARGVD4S5FNN9C0","ACON9O9NMFOHE","30UZJB2POHY4464FN6NBJ2NLFWF354","","null","<img src=""img/food6.png"" style=""width:200px;border:14px solid red;"">","null","","","","","","","","","",""
"","image-keyboard-response","31","36671","0.0-45.0","3PMBY0YE28PD4D04ARGVD4S5FNN9C0","ACON9O9NMFOHE","30UZJB2POHY4464FN6NBJ2NLFWF354","","256.7000000476837","img/food5.png","74","257.7000000476837","1","1","false","2","2","1,0.5,0,1,0.5,0,0.5,0,1","1,0.5,0,1,0.5,0,0.5,0,1","1",""
"","html-keyboard-response","32","36973","0.0-46.0","3PMBY0YE28PD4D04ARGVD4S5FNN9C0","ACON9O9NMFOHE","30UZJB2POHY4464FN6NBJ2NLFWF354","","null","<img src=""img/food5.png"" style=""width:200px; border:14px solid green;"">","null","","","","","","","","","",""
"","image-keyboard-response","33","37295","0.0-48.0","3PMBY0YE28PD4D04ARGVD4S5FNN9C0","ACON9O9NMFOHE","30UZJB2POHY4464FN6NBJ2NLFWF354","","321.2000000476837","img/food6.png","74","322.09999990463257","1","0","false","3","2","1,0.5,0,1,0.5,0,0.5,0,1","1,0.5,0,1,0.5,0,0.5,0,1","1",""
"","html-keyboard-response","34","37598","0.0-49.0","3PMBY0YE28PD4D04ARGVD4S5FNN9C0","ACON9O9NMFOHE","30UZJB2POHY4464FN6NBJ2NLFWF354","","null","<img src=""img/food6.png"" style=""width:200px;border:14px solid red;"">","null","","","","","","","","","",""
"","image-keyboard-response","35","38095","0.0-51.0","3PMBY0YE28PD4D04ARGVD4S5FNN9C0","ACON9O9NMFOHE","30UZJB2POHY4464FN6NBJ2NLFWF354","","496.30000019073486","img/food4.png","75","497.2000000476837","2","0","false","1","2","1,0.5,0,1,0.5,0,0.5,0,1","1,0.5,0,1,0.5,0,0.5,0,1","1",""
"","html-keyboard-response","36","38397","0.0-52.0","3PMBY0YE28PD4D04ARGVD4S5FNN9C0","ACON9O9NMFOHE","30UZJB2POHY4464FN6NBJ2NLFWF354","","null","<img src=""img/food4.png"" style=""width:200px;border:14px solid red;"">","null","","","","","","","","","",""
"","image-keyboard-response","37","39359","0.0-54.0","3PMBY0YE28PD4D04ARGVD4S5FNN9C0","ACON9O9NMFOHE","30UZJB2POHY4464FN6NBJ2NLFWF354","","960.7999999523163","img/food6.png","74","961.5999999046326","1","0","false","3","2","1,0.5,0,1,0.5,0,0.5,0,1","1,0.5,0,1,0.5,0,0.5,0,1","1",""
"","html-keyboard-response","38","39661","0.0-55.0","3PMBY0YE28PD4D04ARGVD4S5FNN9C0","ACON9O9NMFOHE","30UZJB2POHY4464FN6NBJ2NLFWF354","","null","<img src=""img/food6.png"" style=""width:200px;border:14px solid red;"">","null","","","","","","","","","",""
"","image-keyboard-response","39","40047","0.0-57.0","3PMBY0YE28PD4D04ARGVD4S5FNN9C0","ACON9O9NMFOHE","30UZJB2POHY4464FN6NBJ2NLFWF354","","385.59999990463257","img/food5.png","74","386.2000000476837","1","1","false","2","2","1,0.5,0,1,0.5,0,0.5,0,1","1,0.5,0,1,0.5,0,0.5,0,1","1",""
"","html-keyboard-response","40","40350","0.0-58.0","3PMBY0YE28PD4D04ARGVD4S5FNN9C0","ACON9O9NMFOHE","30UZJB2POHY4464FN6NBJ2NLFWF354","","null","<img src=""img/food5.png"" style=""width:200px; border:14px solid green;"">","null","","","","","","","","","",""
"","image-keyboard-response","41","40687","0.0-60.0","3PMBY0YE28PD4D04ARGVD4S5FNN9C0","ACON9O9NMFOHE","30UZJB2POHY4464FN6NBJ2NLFWF354","","336.30000019073486","img/food5.png","75","337.10000014305115","2","0","false","2","2","1,0.5,0,1,0.5,0,0.5,0,1","1,0.5,0,1,0.5,0,0.5,0,1","1",""
"","html-keyboard-response","42","40989","0.0-61.0","3PMBY0YE28PD4D04ARGVD4S5FNN9C0","ACON9O9NMFOHE","30UZJB2POHY4464FN6NBJ2NLFWF354","","null","<img src=""img/food5.png"" style=""width:200px;border:14px solid red;"">","null","","","","","","","","","",""
"","image-keyboard-response","43","41215","0.0-63.0","3PMBY0YE28PD4D04ARGVD4S5FNN9C0","ACON9O9NMFOHE","30UZJB2POHY4464FN6NBJ2NLFWF354","","225.09999990463257","img/food4.png","74","225.79999995231628","1","1","false","1","2","1,0.5,0,1,0.5,0,0.5,0,1","1,0.5,0,1,0.5,0,0.5,0,1","1",""
"","html-keyboard-response","44","41517","0.0-64.0","3PMBY0YE28PD4D04ARGVD4S5FNN9C0","ACON9O9NMFOHE","30UZJB2POHY4464FN6NBJ2NLFWF354","","null","<img src=""img/food4.png"" style=""width:200px; border:14px solid green;"">","null","","","","","","","","","",""
"","image-keyboard-response","45","41816","0.0-66.0","3PMBY0YE28PD4D04ARGVD4S5FNN9C0","ACON9O9NMFOHE","30UZJB2POHY4464FN6NBJ2NLFWF354","","298","img/food6.png","76","299","3","1","false","3","2","1,0.5,0,1,0.5,0,0.5,0,1","1,0.5,0,1,0.5,0,0.5,0,1","1",""
"","html-keyboard-response","46","42122","0.0-67.0","3PMBY0YE28PD4D04ARGVD4S5FNN9C0","ACON9O9NMFOHE","30UZJB2POHY4464FN6NBJ2NLFWF354","","null","<img src=""img/food6.png"" style=""width:200px; border:14px solid green;"">","null","","","","","","","","","",""
"","image-keyboard-response","47","42431","0.0-69.0","3PMBY0YE28PD4D04ARGVD4S5FNN9C0","ACON9O9NMFOHE","30UZJB2POHY4464FN6NBJ2NLFWF354","","306.5","img/food4.png","74","308","1","1","false","1","2","1,0.5,0,1,0.5,0,0.5,0,1","1,0.5,0,1,0.5,0,0.5,0,1","1",""
"","html-keyboard-response","48","42732","0.0-70.0","3PMBY0YE28PD4D04ARGVD4S5FNN9C0","ACON9O9NMFOHE","30UZJB2POHY4464FN6NBJ2NLFWF354","","null","<img src=""img/food4.png"" style=""width:200px; border:14px solid green;"">","null","","","","","","","","","",""
"","image-keyboard-response","49","42975","0.0-72.0","3PMBY0YE28PD4D04ARGVD4S5FNN9C0","ACON9O9NMFOHE","30UZJB2POHY4464FN6NBJ2NLFWF354","","242","img/food6.png","76","242.80000019073486","3","1","false","3","2","1,0.5,0,1,0.5,0,0.5,0,1","1,0.5,0,1,0.5,0,0.5,0,1","1",""
"","html-keyboard-response","50","43277","0.0-73.0","3PMBY0YE28PD4D04ARGVD4S5FNN9C0","ACON9O9NMFOHE","30UZJB2POHY4464FN6NBJ2NLFWF354","","null","<img src=""img/food6.png"" style=""width:200px; border:14px solid green;"">","null","","","","","","","","","",""
"","image-keyboard-response","51","43503","0.0-75.0","3PMBY0YE28PD4D04ARGVD4S5FNN9C0","ACON9O9NMFOHE","30UZJB2POHY4464FN6NBJ2NLFWF354","","225","img/food6.png","75","225.69999980926514","2","0","false","3","2","1,0.5,0,1,0.5,0,0.5,0,1","1,0.5,0,1,0.5,0,0.5,0,1","1",""
"","html-keyboard-response","52","43805","0.0-76.0","3PMBY0YE28PD4D04ARGVD4S5FNN9C0","ACON9O9NMFOHE","30UZJB2POHY4464FN6NBJ2NLFWF354","","null","<img src=""img/food6.png"" style=""width:200px;border:14px solid red;"">","null","","","","","","","","","",""
"","image-keyboard-response","53","44047","0.0-78.0","3PMBY0YE28PD4D04ARGVD4S5FNN9C0","ACON9O9NMFOHE","30UZJB2POHY4464FN6NBJ2NLFWF354","","241.29999995231628","img/food5.png","74","242","1","1","false","2","2","1,0.5,0,1,0.5,0,0.5,0,1","1,0.5,0,1,0.5,0,0.5,0,1","1",""
"","html-keyboard-response","54","44359","0.0-79.0","3PMBY0YE28PD4D04ARGVD4S5FNN9C0","ACON9O9NMFOHE","30UZJB2POHY4464FN6NBJ2NLFWF354","","null","<img src=""img/food5.png"" style=""width:200px; border:14px solid green;"">","null","","","","","","","","","",""
"","image-keyboard-response","55","44591","0.0-81.0","3PMBY0YE28PD4D04ARGVD4S5FNN9C0","ACON9O9NMFOHE","30UZJB2POHY4464FN6NBJ2NLFWF354","","231.40000009536743","img/food5.png","76","232.09999990463257","3","0","false","2","2","1,0.5,0,1,0.5,0,0.5,0,1","1,0.5,0,1,0.5,0,0.5,0,1","1",""
"","html-keyboard-response","56","44892","0.0-82.0","3PMBY0YE28PD4D04ARGVD4S5FNN9C0","ACON9O9NMFOHE","30UZJB2POHY4464FN6NBJ2NLFWF354","","null","<img src=""img/food5.png"" style=""width:200px;border:14px solid red;"">","null","","","","","","","","","",""
"","image-keyboard-response","57","45136","0.0-84.0","3PMBY0YE28PD4D04ARGVD4S5FNN9C0","ACON9O9NMFOHE","30UZJB2POHY4464FN6NBJ2NLFWF354","","243.10000014305115","img/food5.png","74","243.79999995231628","1","1","false","2","2","1,0.5,0,1,0.5,0,0.5,0,1","1,0.5,0,1,0.5,0,0.5,0,1","1",""
"","html-keyboard-response","58","45439","0.0-85.0","3PMBY0YE28PD4D04ARGVD4S5FNN9C0","ACON9O9NMFOHE","30UZJB2POHY4464FN6NBJ2NLFWF354","","null","<img src=""img/food5.png"" style=""width:200px; border:14px solid green;"">","null","","","","","","","","","",""
"","image-keyboard-response","59","45679","0.0-87.0","3PMBY0YE28PD4D04ARGVD4S5FNN9C0","ACON9O9NMFOHE","30UZJB2POHY4464FN6NBJ2NLFWF354","","239.40000009536743","img/food5.png","75","240.39999985694885","2","0","false","2","2","1,0.5,0,1,0.5,0,0.5,0,1","1,0.5,0,1,0.5,0,0.5,0,1","1",""
"","html-keyboard-response","60","45981","0.0-88.0","3PMBY0YE28PD4D04ARGVD4S5FNN9C0","ACON9O9NMFOHE","30UZJB2POHY4464FN6NBJ2NLFWF354","","null","<img src=""img/food5.png"" style=""width:200px;border:14px solid red;"">","null","","","","","","","","","",""
"","image-keyboard-response","61","46303","0.0-90.0","3PMBY0YE28PD4D04ARGVD4S5FNN9C0","ACON9O9NMFOHE","30UZJB2POHY4464FN6NBJ2NLFWF354","","321","img/food4.png","74","321.90000009536743","1","1","false","1","2","1,0.5,0,1,0.5,0,0.5,0,1","1,0.5,0,1,0.5,0,0.5,0,1","1",""
"","html-keyboard-response","62","46608","0.0-91.0","3PMBY0YE28PD4D04ARGVD4S5FNN9C0","ACON9O9NMFOHE","30UZJB2POHY4464FN6NBJ2NLFWF354","","null","<img src=""img/food4.png"" style=""width:200px; border:14px solid green;"">","null","","","","","","","","","",""
"","image-keyboard-response","63","47055","0.0-93.0","3PMBY0YE28PD4D04ARGVD4S5FNN9C0","ACON9O9NMFOHE","30UZJB2POHY4464FN6NBJ2NLFWF354","","446","img/food5.png","74","446.7999999523163","1","1","false","2","2","1,0.5,0,1,0.5,0,0.5,0,1","1,0.5,0,1,0.5,0,0.5,0,1","1",""
"","html-keyboard-response","64","47357","0.0-94.0","3PMBY0YE28PD4D04ARGVD4S5FNN9C0","ACON9O9NMFOHE","30UZJB2POHY4464FN6NBJ2NLFWF354","","null","<img src=""img/food5.png"" style=""width:200px; border:14px solid green;"">","null","","","","","","","","","",""
"","image-keyboard-response","65","47727","0.0-96.0","3PMBY0YE28PD4D04ARGVD4S5FNN9C0","ACON9O9NMFOHE","30UZJB2POHY4464FN6NBJ2NLFWF354","","368.59999990463257","img/food6.png","76","369.5","3","1","false","3","2","1,0.5,0,1,0.5,0,0.5,0,1","1,0.5,0,1,0.5,0,0.5,0,1","1",""
"","html-keyboard-response","66","48029","0.0-97.0","3PMBY0YE28PD4D04ARGVD4S5FNN9C0","ACON9O9NMFOHE","30UZJB2POHY4464FN6NBJ2NLFWF354","","null","<img src=""img/food6.png"" style=""width:200px; border:14px solid green;"">","null","","","","","","","","","",""
"","image-keyboard-response","67","48287","0.0-99.0","3PMBY0YE28PD4D04ARGVD4S5FNN9C0","ACON9O9NMFOHE","30UZJB2POHY4464FN6NBJ2NLFWF354","","256.90000009536743","img/food4.png","74","257.60000014305115","1","1","false","1","2","1,0.5,0,1,0.5,0,0.5,0,1","1,0.5,0,1,0.5,0,0.5,0,1","1",""
"","html-keyboard-response","68","48589","0.0-100.0","3PMBY0YE28PD4D04ARGVD4S5FNN9C0","ACON9O9NMFOHE","30UZJB2POHY4464FN6NBJ2NLFWF354","","null","<img src=""img/food4.png"" style=""width:200px; border:14px solid green;"">","null","","","","","","","","","",""
"","image-keyboard-response","69","48927","0.0-102.0","3PMBY0YE28PD4D04ARGVD4S5FNN9C0","ACON9O9NMFOHE","30UZJB2POHY4464FN6NBJ2NLFWF354","","336.59999990463257","img/food5.png","75","337.2999999523163","2","1","false","2","2","1,0.5,0,1,0.5,0,0.5,0,1","1,0.5,0,1,0.5,0,0.5,0,1","1",""
"","html-keyboard-response","70","49228","0.0-103.0","3PMBY0YE28PD4D04ARGVD4S5FNN9C0","ACON9O9NMFOHE","30UZJB2POHY4464FN6NBJ2NLFWF354","","null","<img src=""img/food5.png"" style=""width:200px; border:14px solid green;"">","null","","","","","","","","","",""
"","image-keyboard-response","71","49503","0.0-105.0","3PMBY0YE28PD4D04ARGVD4S5FNN9C0","ACON9O9NMFOHE","30UZJB2POHY4464FN6NBJ2NLFWF354","","273.7000000476837","img/food6.png","76","274.2999999523163","3","1","false","3","2","1,0.5,0,1,0.5,0,0.5,0,1","1,0.5,0,1,0.5,0,0.5,0,1","1",""
"","html-keyboard-response","72","49813","0.0-106.0","3PMBY0YE28PD4D04ARGVD4S5FNN9C0","ACON9O9NMFOHE","30UZJB2POHY4464FN6NBJ2NLFWF354","","null","<img src=""img/food6.png"" style=""width:200px; border:14px solid green;"">","null","","","","","","","","","",""
"","image-keyboard-response","73","49999","0.0-108.0","3PMBY0YE28PD4D04ARGVD4S5FNN9C0","ACON9O9NMFOHE","30UZJB2POHY4464FN6NBJ2NLFWF354","","184.90000009536743","img/food4.png","74","185.5","1","1","false","1","2","1,0.5,0,1,0.5,0,0.5,0,1","1,0.5,0,1,0.5,0,0.5,0,1","1",""
"","html-keyboard-response","74","50300","0.0-109.0","3PMBY0YE28PD4D04ARGVD4S5FNN9C0","ACON9O9NMFOHE","30UZJB2POHY4464FN6NBJ2NLFWF354","","null","<img src=""img/food4.png"" style=""width:200px; border:14px solid green;"">","null","","","","","","","","","",""
"","image-keyboard-response","75","50543","0.0-111.0","3PMBY0YE28PD4D04ARGVD4S5FNN9C0","ACON9O9NMFOHE","30UZJB2POHY4464FN6NBJ2NLFWF354","","242","img/food4.png","75","242.79999995231628","2","1","false","1","2","1,0.5,0,1,0.5,0,0.5,0,1","1,0.5,0,1,0.5,0,0.5,0,1","1",""
"","html-keyboard-response","76","50845","0.0-112.0","3PMBY0YE28PD4D04ARGVD4S5FNN9C0","ACON9O9NMFOHE","30UZJB2POHY4464FN6NBJ2NLFWF354","","null","<img src=""img/food4.png"" style=""width:200px; border:14px solid green;"">","null","","","","","","","","","",""
"","image-keyboard-response","77","51087","0.0-114.0","3PMBY0YE28PD4D04ARGVD4S5FNN9C0","ACON9O9NMFOHE","30UZJB2POHY4464FN6NBJ2NLFWF354","","241","img/food5.png","76","241.89999985694885","3","0","false","2","2","1,0.5,0,1,0.5,0,0.5,0,1","1,0.5,0,1,0.5,0,0.5,0,1","1",""
"","html-keyboard-response","78","51389","0.0-115.0","3PMBY0YE28PD4D04ARGVD4S5FNN9C0","ACON9O9NMFOHE","30UZJB2POHY4464FN6NBJ2NLFWF354","","null","<img src=""img/food5.png"" style=""width:200px;border:14px solid red;"">","null","","","","","","","","","",""
"","image-keyboard-response","79","51663","0.0-117.0","3PMBY0YE28PD4D04ARGVD4S5FNN9C0","ACON9O9NMFOHE","30UZJB2POHY4464FN6NBJ2NLFWF354","","272.7999999523163","img/food5.png","74","273.39999985694885","1","1","false","2","2","1,0.5,0,1,0.5,0,0.5,0,1","1,0.5,0,1,0.5,0,0.5,0,1","1",""
"","html-keyboard-response","80","51975","0.0-118.0","3PMBY0YE28PD4D04ARGVD4S5FNN9C0","ACON9O9NMFOHE","30UZJB2POHY4464FN6NBJ2NLFWF354","","null","<img src=""img/food5.png"" style=""width:200px; border:14px solid green;"">","null","","","","","","","","","",""
"","image-keyboard-response","81","52255","0.0-120.0","3PMBY0YE28PD4D04ARGVD4S5FNN9C0","ACON9O9NMFOHE","30UZJB2POHY4464FN6NBJ2NLFWF354","","279.2999999523163","img/food4.png","74","280.09999990463257","1","1","false","1","2","1,0.5,0,1,0.5,0,0.5,0,1","1,0.5,0,1,0.5,0,0.5,0,1","1",""
"","html-keyboard-response","82","52564","0.0-121.0","3PMBY0YE28PD4D04ARGVD4S5FNN9C0","ACON9O9NMFOHE","30UZJB2POHY4464FN6NBJ2NLFWF354","","null","<img src=""img/food4.png"" style=""width:200px; border:14px solid green;"">","null","","","","","","","","","",""
"","image-keyboard-response","83","52911","0.0-123.0","3PMBY0YE28PD4D04ARGVD4S5FNN9C0","ACON9O9NMFOHE","30UZJB2POHY4464FN6NBJ2NLFWF354","","346","img/food5.png","75","347","2","0","false","2","2","1,0.5,0,1,0.5,0,0.5,0,1","1,0.5,0,1,0.5,0,0.5,0,1","1",""
"","html-keyboard-response","84","53213","0.0-124.0","3PMBY0YE28PD4D04ARGVD4S5FNN9C0","ACON9O9NMFOHE","30UZJB2POHY4464FN6NBJ2NLFWF354","","null","<img src=""img/food5.png"" style=""width:200px;border:14px solid red;"">","null","","","","","","","","","",""
"","image-keyboard-response","85","53487","0.0-126.0","3PMBY0YE28PD4D04ARGVD4S5FNN9C0","ACON9O9NMFOHE","30UZJB2POHY4464FN6NBJ2NLFWF354","","273.40000009536743","img/food4.png","74","274.09999990463257","1","1","false","1","2","1,0.5,0,1,0.5,0,0.5,0,1","1,0.5,0,1,0.5,0,0.5,0,1","1",""
"","html-keyboard-response","86","53790","0.0-127.0","3PMBY0YE28PD4D04ARGVD4S5FNN9C0","ACON9O9NMFOHE","30UZJB2POHY4464FN6NBJ2NLFWF354","","null","<img src=""img/food4.png"" style=""width:200px; border:14px solid green;"">","null","","","","","","","","","",""
"","image-keyboard-response","87","54079","0.0-129.0","3PMBY0YE28PD4D04ARGVD4S5FNN9C0","ACON9O9NMFOHE","30UZJB2POHY4464FN6NBJ2NLFWF354","","287.7000000476837","img/food6.png","74","288.7999999523163","1","1","false","3","2","1,0.5,0,1,0.5,0,0.5,0,1","1,0.5,0,1,0.5,0,0.5,0,1","1",""
"","html-keyboard-response","88","54381","0.0-130.0","3PMBY0YE28PD4D04ARGVD4S5FNN9C0","ACON9O9NMFOHE","30UZJB2POHY4464FN6NBJ2NLFWF354","","null","<img src=""img/food6.png"" style=""width:200px; border:14px solid green;"">","null","","","","","","","","","",""
"","image-keyboard-response","89","54591","0.0-132.0","3PMBY0YE28PD4D04ARGVD4S5FNN9C0","ACON9O9NMFOHE","30UZJB2POHY4464FN6NBJ2NLFWF354","","208.79999995231628","img/food5.png","76","209.69999980926514","3","0","false","2","2","1,0.5,0,1,0.5,0,0.5,0,1","1,0.5,0,1,0.5,0,0.5,0,1","1",""
"","html-keyboard-response","90","54893","0.0-133.0","3PMBY0YE28PD4D04ARGVD4S5FNN9C0","ACON9O9NMFOHE","30UZJB2POHY4464FN6NBJ2NLFWF354","","null","<img src=""img/food5.png"" style=""width:200px;border:14px solid red;"">","null","","","","","","","","","",""
"","image-keyboard-response","91","55103","0.0-135.0","3PMBY0YE28PD4D04ARGVD4S5FNN9C0","ACON9O9NMFOHE","30UZJB2POHY4464FN6NBJ2NLFWF354","","209.20000004768372","img/food5.png","74","209.79999995231628","1","1","false","2","2","1,0.5,0,1,0.5,0,0.5,0,1","1,0.5,0,1,0.5,0,0.5,0,1","1",""
"","html-keyboard-response","92","55404","0.0-136.0","3PMBY0YE28PD4D04ARGVD4S5FNN9C0","ACON9O9NMFOHE","30UZJB2POHY4464FN6NBJ2NLFWF354","","null","<img src=""img/food5.png"" style=""width:200px; border:14px solid green;"">","null","","","","","","","","","",""
"","image-keyboard-response","93","55776","0.0-138.0","3PMBY0YE28PD4D04ARGVD4S5FNN9C0","ACON9O9NMFOHE","30UZJB2POHY4464FN6NBJ2NLFWF354","","370.89999985694885","img/food6.png","75","371.69999980926514","2","0","false","3","2","1,0.5,0,1,0.5,0,0.5,0,1","1,0.5,0,1,0.5,0,0.5,0,1","1",""
"","html-keyboard-response","94","56079","0.0-139.0","3PMBY0YE28PD4D04ARGVD4S5FNN9C0","ACON9O9NMFOHE","30UZJB2POHY4464FN6NBJ2NLFWF354","","null","<img src=""img/food6.png"" style=""width:200px;border:14px solid red;"">","null","","","","","","","","","",""
"","image-keyboard-response","95","56303","0.0-141.0","3PMBY0YE28PD4D04ARGVD4S5FNN9C0","ACON9O9NMFOHE","30UZJB2POHY4464FN6NBJ2NLFWF354","","223.29999995231628","img/food4.png","74","224.29999995231628","1","1","false","1","2","1,0.5,0,1,0.5,0,0.5,0,1","1,0.5,0,1,0.5,0,0.5,0,1","1",""
"","html-keyboard-response","96","56609","0.0-142.0","3PMBY0YE28PD4D04ARGVD4S5FNN9C0","ACON9O9NMFOHE","30UZJB2POHY4464FN6NBJ2NLFWF354","","null","<img src=""img/food4.png"" style=""width:200px; border:14px solid green;"">","null","","","","","","","","","",""
"","image-keyboard-response","97","56767","0.0-144.0","3PMBY0YE28PD4D04ARGVD4S5FNN9C0","ACON9O9NMFOHE","30UZJB2POHY4464FN6NBJ2NLFWF354","","156.89999985694885","img/food6.png","76","157.80000019073486","3","1","false","3","2","1,0.5,0,1,0.5,0,0.5,0,1","1,0.5,0,1,0.5,0,0.5,0,1","1",""
"","html-keyboard-response","98","57070","0.0-145.0","3PMBY0YE28PD4D04ARGVD4S5FNN9C0","ACON9O9NMFOHE","30UZJB2POHY4464FN6NBJ2NLFWF354","","null","<img src=""img/food6.png"" style=""width:200px; border:14px solid green;"">","null","","","","","","","","","",""
"","image-keyboard-response","99","57423","0.0-147.0","3PMBY0YE28PD4D04ARGVD4S5FNN9C0","ACON9O9NMFOHE","30UZJB2POHY4464FN6NBJ2NLFWF354","","352.2000000476837","img/food4.png","76","353","3","0","false","1","2","1,0.5,0,1,0.5,0,0.5,0,1","1,0.5,0,1,0.5,0,0.5,0,1","1",""
"","html-keyboard-response","100","57726","0.0-148.0","3PMBY0YE28PD4D04ARGVD4S5FNN9C0","ACON9O9NMFOHE","30UZJB2POHY4464FN6NBJ2NLFWF354","","null","<img src=""img/food4.png"" style=""width:200px;border:14px solid red;"">","null","","","","","","","","","",""
"","image-keyboard-response","101","57967","0.0-150.0","3PMBY0YE28PD4D04ARGVD4S5FNN9C0","ACON9O9NMFOHE","30UZJB2POHY4464FN6NBJ2NLFWF354","","240.29999995231628","img/food5.png","75","241.20000004768372","2","1","false","2","2","1,0.5,0,1,0.5,0,0.5,0,1","1,0.5,0,1,0.5,0,0.5,0,1","1",""
"","html-keyboard-response","102","58269","0.0-151.0","3PMBY0YE28PD4D04ARGVD4S5FNN9C0","ACON9O9NMFOHE","30UZJB2POHY4464FN6NBJ2NLFWF354","","null","<img src=""img/food5.png"" style=""width:200px; border:14px solid green;"">","null","","","","","","","","","",""
"","image-keyboard-response","103","58527","0.0-153.0","3PMBY0YE28PD4D04ARGVD4S5FNN9C0","ACON9O9NMFOHE","30UZJB2POHY4464FN6NBJ2NLFWF354","","256.7999999523163","img/food6.png","75","258.60000014305115","2","0","false","3","2","1,0.5,0,1,0.5,0,0.5,0,1","1,0.5,0,1,0.5,0,0.5,0,1","1",""
"","html-keyboard-response","104","58830","0.0-154.0","3PMBY0YE28PD4D04ARGVD4S5FNN9C0","ACON9O9NMFOHE","30UZJB2POHY4464FN6NBJ2NLFWF354","","null","<img src=""img/food6.png"" style=""width:200px;border:14px solid red;"">","null","","","","","","","","","",""
"","image-keyboard-response","105","59007","0.0-156.0","3PMBY0YE28PD4D04ARGVD4S5FNN9C0","ACON9O9NMFOHE","30UZJB2POHY4464FN6NBJ2NLFWF354","","176.29999995231628","img/food5.png","74","177","1","1","false","2","2","1,0.5,0,1,0.5,0,0.5,0,1","1,0.5,0,1,0.5,0,0.5,0,1","1",""
"","html-keyboard-response","106","59310","0.0-157.0","3PMBY0YE28PD4D04ARGVD4S5FNN9C0","ACON9O9NMFOHE","30UZJB2POHY4464FN6NBJ2NLFWF354","","null","<img src=""img/food5.png"" style=""width:200px; border:14px solid green;"">","null","","","","","","","","","",""
"","image-keyboard-response","107","59631","0.0-159.0","3PMBY0YE28PD4D04ARGVD4S5FNN9C0","ACON9O9NMFOHE","30UZJB2POHY4464FN6NBJ2NLFWF354","","320.5","img/food4.png","74","321.2999999523163","1","1","false","1","2","1,0.5,0,1,0.5,0,0.5,0,1","1,0.5,0,1,0.5,0,0.5,0,1","1",""
"","html-keyboard-response","108","59933","0.0-160.0","3PMBY0YE28PD4D04ARGVD4S5FNN9C0","ACON9O9NMFOHE","30UZJB2POHY4464FN6NBJ2NLFWF354","","null","<img src=""img/food4.png"" style=""width:200px; border:14px solid green;"">","null","","","","","","","","","",""
"","image-keyboard-response","109","60239","0.0-162.0","3PMBY0YE28PD4D04ARGVD4S5FNN9C0","ACON9O9NMFOHE","30UZJB2POHY4464FN6NBJ2NLFWF354","","304.7000000476837","img/food6.png","74","305.59999990463257","1","0","false","3","2","1,0.5,0,1,0.5,0,0.5,0,1","1,0.5,0,1,0.5,0,0.5,0,1","1",""
"","html-keyboard-response","110","60541","0.0-163.0","3PMBY0YE28PD4D04ARGVD4S5FNN9C0","ACON9O9NMFOHE","30UZJB2POHY4464FN6NBJ2NLFWF354","","null","<img src=""img/food6.png"" style=""width:200px;border:14px solid red;"">","null","","","","","","","","","",""
"","image-keyboard-response","111","60719","0.0-165.0","3PMBY0YE28PD4D04ARGVD4S5FNN9C0","ACON9O9NMFOHE","30UZJB2POHY4464FN6NBJ2NLFWF354","","176.89999985694885","img/food6.png","75","177.69999980926514","2","0","false","3","2","1,0.5,0,1,0.5,0,0.5,0,1","1,0.5,0,1,0.5,0,0.5,0,1","1",""
"","html-keyboard-response","112","61021","0.0-166.0","3PMBY0YE28PD4D04ARGVD4S5FNN9C0","ACON9O9NMFOHE","30UZJB2POHY4464FN6NBJ2NLFWF354","","null","<img src=""img/food6.png"" style=""width:200px;border:14px solid red;"">","null","","","","","","","","","",""
"","image-keyboard-response","113","61423","0.0-168.0","3PMBY0YE28PD4D04ARGVD4S5FNN9C0","ACON9O9NMFOHE","30UZJB2POHY4464FN6NBJ2NLFWF354","","401","img/food5.png","76","401.90000009536743","3","0","false","2","2","1,0.5,0,1,0.5,0,0.5,0,1","1,0.5,0,1,0.5,0,0.5,0,1","1",""
"","html-keyboard-response","114","61726","0.0-169.0","3PMBY0YE28PD4D04ARGVD4S5FNN9C0","ACON9O9NMFOHE","30UZJB2POHY4464FN6NBJ2NLFWF354","","null","<img src=""img/food5.png"" style=""width:200px;border:14px solid red;"">","null","","","","","","","","","",""
"","image-keyboard-response","115","62415","0.0-171.0","3PMBY0YE28PD4D04ARGVD4S5FNN9C0","ACON9O9NMFOHE","30UZJB2POHY4464FN6NBJ2NLFWF354","","688.5","img/food4.png","75","689.2999999523163","2","0","false","1","2","1,0.5,0,1,0.5,0,0.5,0,1","1,0.5,0,1,0.5,0,0.5,0,1","1",""
"","html-keyboard-response","116","62718","0.0-172.0","3PMBY0YE28PD4D04ARGVD4S5FNN9C0","ACON9O9NMFOHE","30UZJB2POHY4464FN6NBJ2NLFWF354","","null","<img src=""img/food4.png"" style=""width:200px;border:14px solid red;"">","null","","","","","","","","","",""
"","image-keyboard-response","117","62975","0.0-174.0","3PMBY0YE28PD4D04ARGVD4S5FNN9C0","ACON9O9NMFOHE","30UZJB2POHY4464FN6NBJ2NLFWF354","","256.40000009536743","img/food5.png","74","257.2999999523163","1","1","false","2","2","1,0.5,0,1,0.5,0,0.5,0,1","1,0.5,0,1,0.5,0,0.5,0,1","1",""
"","html-keyboard-response","118","63278","0.0-175.0","3PMBY0YE28PD4D04ARGVD4S5FNN9C0","ACON9O9NMFOHE","30UZJB2POHY4464FN6NBJ2NLFWF354","","null","<img src=""img/food5.png"" style=""width:200px; border:14px solid green;"">","null","","","","","","","","","",""
"","image-keyboard-response","119","63615","0.0-177.0","3PMBY0YE28PD4D04ARGVD4S5FNN9C0","ACON9O9NMFOHE","30UZJB2POHY4464FN6NBJ2NLFWF354","","336.59999990463257","img/food5.png","74","337.40000009536743","1","1","false","2","2","1,0.5,0,1,0.5,0,0.5,0,1","1,0.5,0,1,0.5,0,0.5,0,1","1",""
"","html-keyboard-response","120","63918","0.0-178.0","3PMBY0YE28PD4D04ARGVD4S5FNN9C0","ACON9O9NMFOHE","30UZJB2POHY4464FN6NBJ2NLFWF354","","null","<img src=""img/food5.png"" style=""width:200px; border:14px solid green;"">","null","","","","","","","","","",""
"","image-keyboard-response","121","64383","0.0-180.0","3PMBY0YE28PD4D04ARGVD4S5FNN9C0","ACON9O9NMFOHE","30UZJB2POHY4464FN6NBJ2NLFWF354","","463.39999985694885","img/food4.png","74","464.2999999523163","1","1","false","1","2","1,0.5,0,1,0.5,0,0.5,0,1","1,0.5,0,1,0.5,0,0.5,0,1","1",""
"","html-keyboard-response","122","64692","0.0-181.0","3PMBY0YE28PD4D04ARGVD4S5FNN9C0","ACON9O9NMFOHE","30UZJB2POHY4464FN6NBJ2NLFWF354","","null","<img src=""img/food4.png"" style=""width:200px; border:14px solid green;"">","null","","","","","","","","","",""
"","image-keyboard-response","123","64975","0.0-183.0","3PMBY0YE28PD4D04ARGVD4S5FNN9C0","ACON9O9NMFOHE","30UZJB2POHY4464FN6NBJ2NLFWF354","","281.90000009536743","img/food4.png","74","282.7000000476837","1","1","false","1","2","1,0.5,0,1,0.5,0,0.5,0,1","1,0.5,0,1,0.5,0,0.5,0,1","1",""
"","html-keyboard-response","124","65277","0.0-184.0","3PMBY0YE28PD4D04ARGVD4S5FNN9C0","ACON9O9NMFOHE","30UZJB2POHY4464FN6NBJ2NLFWF354","","null","<img src=""img/food4.png"" style=""width:200px; border:14px solid green;"">","null","","","","","","","","","",""
"","image-keyboard-response","125","65743","0.0-186.0","3PMBY0YE28PD4D04ARGVD4S5FNN9C0","ACON9O9NMFOHE","30UZJB2POHY4464FN6NBJ2NLFWF354","","464.5","img/food6.png","75","465.39999985694885","2","0","false","3","2","1,0.5,0,1,0.5,0,0.5,0,1","1,0.5,0,1,0.5,0,0.5,0,1","1",""
"","html-keyboard-response","126","66045","0.0-187.0","3PMBY0YE28PD4D04ARGVD4S5FNN9C0","ACON9O9NMFOHE","30UZJB2POHY4464FN6NBJ2NLFWF354","","null","<img src=""img/food6.png"" style=""width:200px;border:14px solid red;"">","null","","","","","","","","","",""
"","image-keyboard-response","127","66400","0.0-189.0","3PMBY0YE28PD4D04ARGVD4S5FNN9C0","ACON9O9NMFOHE","30UZJB2POHY4464FN6NBJ2NLFWF354","","353.39999985694885","img/food6.png","74","354.40000009536743","1","1","false","3","2","1,0.5,0,1,0.5,0,0.5,0,1","1,0.5,0,1,0.5,0,0.5,0,1","1",""
"","html-keyboard-response","128","66703","0.0-190.0","3PMBY0YE28PD4D04ARGVD4S5FNN9C0","ACON9O9NMFOHE","30UZJB2POHY4464FN6NBJ2NLFWF354","","null","<img src=""img/food6.png"" style=""width:200px; border:14px solid green;"">","null","","","","","","","","","",""
"","image-keyboard-response","129","67151","0.0-192.0","3PMBY0YE28PD4D04ARGVD4S5FNN9C0","ACON9O9NMFOHE","30UZJB2POHY4464FN6NBJ2NLFWF354","","447.39999985694885","img/food4.png","76","448.09999990463257","3","0","false","1","2","1,0.5,0,1,0.5,0,0.5,0,1","1,0.5,0,1,0.5,0,0.5,0,1","1",""
"","html-keyboard-response","130","67453","0.0-193.0","3PMBY0YE28PD4D04ARGVD4S5FNN9C0","ACON9O9NMFOHE","30UZJB2POHY4464FN6NBJ2NLFWF354","","null","<img src=""img/food4.png"" style=""width:200px;border:14px solid red;"">","null","","","","","","","","","",""
"","image-keyboard-response","131","67807","0.0-195.0","3PMBY0YE28PD4D04ARGVD4S5FNN9C0","ACON9O9NMFOHE","30UZJB2POHY4464FN6NBJ2NLFWF354","","353.40000009536743","img/food5.png","74","354.2999999523163","1","1","false","2","2","1,0.5,0,1,0.5,0,0.5,0,1","1,0.5,0,1,0.5,0,0.5,0,1","1",""
"","html-keyboard-response","132","68110","0.0-196.0","3PMBY0YE28PD4D04ARGVD4S5FNN9C0","ACON9O9NMFOHE","30UZJB2POHY4464FN6NBJ2NLFWF354","","null","<img src=""img/food5.png"" style=""width:200px; border:14px solid green;"">","null","","","","","","","","","",""
"","image-keyboard-response","133","68399","0.0-198.0","3PMBY0YE28PD4D04ARGVD4S5FNN9C0","ACON9O9NMFOHE","30UZJB2POHY4464FN6NBJ2NLFWF354","","287.7999999523163","img/food6.png","74","288.7000000476837","1","1","false","3","2","1,0.5,0,1,0.5,0,0.5,0,1","1,0.5,0,1,0.5,0,0.5,0,1","1",""
"","html-keyboard-response","134","68702","0.0-199.0","3PMBY0YE28PD4D04ARGVD4S5FNN9C0","ACON9O9NMFOHE","30UZJB2POHY4464FN6NBJ2NLFWF354","","null","<img src=""img/food6.png"" style=""width:200px; border:14px solid green;"">","null","","","","","","","","","",""
"","image-keyboard-response","135","69343","0.0-201.0","3PMBY0YE28PD4D04ARGVD4S5FNN9C0","ACON9O9NMFOHE","30UZJB2POHY4464FN6NBJ2NLFWF354","","640.7000000476837","img/food4.png","74","641.5","1","1","false","1","2","1,0.5,0,1,0.5,0,0.5,0,1","1,0.5,0,1,0.5,0,0.5,0,1","1",""
"","html-keyboard-response","136","69645","0.0-202.0","3PMBY0YE28PD4D04ARGVD4S5FNN9C0","ACON9O9NMFOHE","30UZJB2POHY4464FN6NBJ2NLFWF354","","null","<img src=""img/food4.png"" style=""width:200px; border:14px solid green;"">","null","","","","","","","","","",""
"","image-keyboard-response","137","70127","0.0-204.0","3PMBY0YE28PD4D04ARGVD4S5FNN9C0","ACON9O9NMFOHE","30UZJB2POHY4464FN6NBJ2NLFWF354","","480.60000014305115","img/food6.png","74","481.40000009536743","1","0","false","3","2","1,0.5,0,1,0.5,0,0.5,0,1","1,0.5,0,1,0.5,0,0.5,0,1","1",""
"","html-keyboard-response","138","70429","0.0-205.0","3PMBY0YE28PD4D04ARGVD4S5FNN9C0","ACON9O9NMFOHE","30UZJB2POHY4464FN6NBJ2NLFWF354","","null","<img src=""img/food6.png"" style=""width:200px;border:14px solid red;"">","null","","","","","","","","","",""
"","image-keyboard-response","139","70687","0.0-207.0","3PMBY0YE28PD4D04ARGVD4S5FNN9C0","ACON9O9NMFOHE","30UZJB2POHY4464FN6NBJ2NLFWF354","","257.2000000476837","img/food6.png","75","258","2","0","false","3","2","1,0.5,0,1,0.5,0,0.5,0,1","1,0.5,0,1,0.5,0,0.5,0,1","1",""
"","html-keyboard-response","140","70989","0.0-208.0","3PMBY0YE28PD4D04ARGVD4S5FNN9C0","ACON9O9NMFOHE","30UZJB2POHY4464FN6NBJ2NLFWF354","","null","<img src=""img/food6.png"" style=""width:200px;border:14px solid red;"">","null","","","","","","","","","",""
"","image-keyboard-response","141","71279","0.0-210.0","3PMBY0YE28PD4D04ARGVD4S5FNN9C0","ACON9O9NMFOHE","30UZJB2POHY4464FN6NBJ2NLFWF354","","289.2999999523163","img/food5.png","76","290","3","0","false","2","2","1,0.5,0,1,0.5,0,0.5,0,1","1,0.5,0,1,0.5,0,0.5,0,1","1",""
"","html-keyboard-response","142","71581","0.0-211.0","3PMBY0YE28PD4D04ARGVD4S5FNN9C0","ACON9O9NMFOHE","30UZJB2POHY4464FN6NBJ2NLFWF354","","null","<img src=""img/food5.png"" style=""width:200px;border:14px solid red;"">","null","","","","","","","","","",""
"","image-keyboard-response","143","71887","0.0-213.0","3PMBY0YE28PD4D04ARGVD4S5FNN9C0","ACON9O9NMFOHE","30UZJB2POHY4464FN6NBJ2NLFWF354","","304.7999999523163","img/food4.png","74","305.59999990463257","1","1","false","1","2","1,0.5,0,1,0.5,0,0.5,0,1","1,0.5,0,1,0.5,0,0.5,0,1","1",""
"","html-keyboard-response","144","72190","0.0-214.0","3PMBY0YE28PD4D04ARGVD4S5FNN9C0","ACON9O9NMFOHE","30UZJB2POHY4464FN6NBJ2NLFWF354","","null","<img src=""img/food4.png"" style=""width:200px; border:14px solid green;"">","null","","","","","","","","","",""
"","image-keyboard-response","145","72399","0.0-216.0","3PMBY0YE28PD4D04ARGVD4S5FNN9C0","ACON9O9NMFOHE","30UZJB2POHY4464FN6NBJ2NLFWF354","","208.5","img/food6.png","75","209.10000014305115","2","0","false","3","2","1,0.5,0,1,0.5,0,0.5,0,1","1,0.5,0,1,0.5,0,0.5,0,1","1",""
"","html-keyboard-response","146","72701","0.0-217.0","3PMBY0YE28PD4D04ARGVD4S5FNN9C0","ACON9O9NMFOHE","30UZJB2POHY4464FN6NBJ2NLFWF354","","null","<img src=""img/food6.png"" style=""width:200px;border:14px solid red;"">","null","","","","","","","","","",""
"","image-keyboard-response","147","72911","0.0-219.0","3PMBY0YE28PD4D04ARGVD4S5FNN9C0","ACON9O9NMFOHE","30UZJB2POHY4464FN6NBJ2NLFWF354","","208.89999985694885","img/food5.png","74","209.59999990463257","1","1","false","2","2","1,0.5,0,1,0.5,0,0.5,0,1","1,0.5,0,1,0.5,0,0.5,0,1","1",""
"","html-keyboard-response","148","73213","0.0-220.0","3PMBY0YE28PD4D04ARGVD4S5FNN9C0","ACON9O9NMFOHE","30UZJB2POHY4464FN6NBJ2NLFWF354","","null","<img src=""img/food5.png"" style=""width:200px; border:14px solid green;"">","null","","","","","","","","","",""
"","image-keyboard-response","149","73471","0.0-222.0","3PMBY0YE28PD4D04ARGVD4S5FNN9C0","ACON9O9NMFOHE","30UZJB2POHY4464FN6NBJ2NLFWF354","","257","img/food4.png","76","257.7000000476837","3","0","false","1","2","1,0.5,0,1,0.5,0,0.5,0,1","1,0.5,0,1,0.5,0,0.5,0,1","1",""
"","html-keyboard-response","150","73773","0.0-223.0","3PMBY0YE28PD4D04ARGVD4S5FNN9C0","ACON9O9NMFOHE","30UZJB2POHY4464FN6NBJ2NLFWF354","","null","<img src=""img/food4.png"" style=""width:200px;border:14px solid red;"">","null","","","","","","","","","",""
"","image-keyboard-response","151","74031","0.0-225.0","3PMBY0YE28PD4D04ARGVD4S5FNN9C0","ACON9O9NMFOHE","30UZJB2POHY4464FN6NBJ2NLFWF354","","256.59999990463257","img/food4.png","75","257.40000009536743","2","1","false","1","2","1,0.5,0,1,0.5,0,0.5,0,1","1,0.5,0,1,0.5,0,0.5,0,1","1",""
"","html-keyboard-response","152","74333","0.0-226.0","3PMBY0YE28PD4D04ARGVD4S5FNN9C0","ACON9O9NMFOHE","30UZJB2POHY4464FN6NBJ2NLFWF354","","null","<img src=""img/food4.png"" style=""width:200px; border:14px solid green;"">","null","","","","","","","","","",""
"","image-keyboard-response","153","74591","0.0-228.0","3PMBY0YE28PD4D04ARGVD4S5FNN9C0","ACON9O9NMFOHE","30UZJB2POHY4464FN6NBJ2NLFWF354","","257.2000000476837","img/food5.png","74","258.09999990463257","1","1","false","2","2","1,0.5,0,1,0.5,0,0.5,0,1","1,0.5,0,1,0.5,0,0.5,0,1","1",""
"","html-keyboard-response","154","74893","0.0-229.0","3PMBY0YE28PD4D04ARGVD4S5FNN9C0","ACON9O9NMFOHE","30UZJB2POHY4464FN6NBJ2NLFWF354","","null","<img src=""img/food5.png"" style=""width:200px; border:14px solid green;"">","null","","","","","","","","","",""
"","image-keyboard-response","155","75199","0.0-231.0","3PMBY0YE28PD4D04ARGVD4S5FNN9C0","ACON9O9NMFOHE","30UZJB2POHY4464FN6NBJ2NLFWF354","","304.89999985694885","img/food4.png","74","305.59999990463257","1","1","false","1","2","1,0.5,0,1,0.5,0,0.5,0,1","1,0.5,0,1,0.5,0,0.5,0,1","1",""
"","html-keyboard-response","156","75500","0.0-232.0","3PMBY0YE28PD4D04ARGVD4S5FNN9C0","ACON9O9NMFOHE","30UZJB2POHY4464FN6NBJ2NLFWF354","","null","<img src=""img/food4.png"" style=""width:200px; border:14px solid green;"">","null","","","","","","","","","",""
"","image-keyboard-response","157","75775","0.0-234.0","3PMBY0YE28PD4D04ARGVD4S5FNN9C0","ACON9O9NMFOHE","30UZJB2POHY4464FN6NBJ2NLFWF354","","274.2000000476837","img/food4.png","75","275.09999990463257","2","1","false","1","2","1,0.5,0,1,0.5,0,0.5,0,1","1,0.5,0,1,0.5,0,0.5,0,1","1",""
"","html-keyboard-response","158","76077","0.0-235.0","3PMBY0YE28PD4D04ARGVD4S5FNN9C0","ACON9O9NMFOHE","30UZJB2POHY4464FN6NBJ2NLFWF354","","null","<img src=""img/food4.png"" style=""width:200px; border:14px solid green;"">","null","","","","","","","","","",""
"","image-keyboard-response","159","76255","0.0-237.0","3PMBY0YE28PD4D04ARGVD4S5FNN9C0","ACON9O9NMFOHE","30UZJB2POHY4464FN6NBJ2NLFWF354","","176.39999985694885","img/food6.png","74","177.10000014305115","1","1","false","3","2","1,0.5,0,1,0.5,0,0.5,0,1","1,0.5,0,1,0.5,0,0.5,0,1","1",""
"","html-keyboard-response","160","76557","0.0-238.0","3PMBY0YE28PD4D04ARGVD4S5FNN9C0","ACON9O9NMFOHE","30UZJB2POHY4464FN6NBJ2NLFWF354","","null","<img src=""img/food6.png"" style=""width:200px; border:14px solid green;"">","null","","","","","","","","","",""
"","image-keyboard-response","161","77345","0.0-240.0","3PMBY0YE28PD4D04ARGVD4S5FNN9C0","ACON9O9NMFOHE","30UZJB2POHY4464FN6NBJ2NLFWF354","","786.2999999523163","img/food4.png","74","787.2000000476837","1","1","false","1","2","1,0.5,0,1,0.5,0,0.5,0,1","1,0.5,0,1,0.5,0,0.5,0,1","1",""
"","html-keyboard-response","162","77648","0.0-241.0","3PMBY0YE28PD4D04ARGVD4S5FNN9C0","ACON9O9NMFOHE","30UZJB2POHY4464FN6NBJ2NLFWF354","","null","<img src=""img/food4.png"" style=""width:200px; border:14px solid green;"">","null","","","","","","","","","",""
"","image-keyboard-response","163","78015","0.0-243.0","3PMBY0YE28PD4D04ARGVD4S5FNN9C0","ACON9O9NMFOHE","30UZJB2POHY4464FN6NBJ2NLFWF354","","366.5","img/food6.png","74","367.40000009536743","1","1","false","3","2","1,0.5,0,1,0.5,0,0.5,0,1","1,0.5,0,1,0.5,0,0.5,0,1","1",""
"","html-keyboard-response","164","78318","0.0-244.0","3PMBY0YE28PD4D04ARGVD4S5FNN9C0","ACON9O9NMFOHE","30UZJB2POHY4464FN6NBJ2NLFWF354","","null","<img src=""img/food6.png"" style=""width:200px; border:14px solid green;"">","null","","","","","","","","","",""
"","image-keyboard-response","165","78751","0.0-246.0","3PMBY0YE28PD4D04ARGVD4S5FNN9C0","ACON9O9NMFOHE","30UZJB2POHY4464FN6NBJ2NLFWF354","","432.30000019073486","img/food4.png","75","433","2","1","false","1","2","1,0.5,0,1,0.5,0,0.5,0,1","1,0.5,0,1,0.5,0,0.5,0,1","1",""
"","html-keyboard-response","166","79053","0.0-247.0","3PMBY0YE28PD4D04ARGVD4S5FNN9C0","ACON9O9NMFOHE","30UZJB2POHY4464FN6NBJ2NLFWF354","","null","<img src=""img/food4.png"" style=""width:200px; border:14px solid green;"">","null","","","","","","","","","",""
"","image-keyboard-response","167","79455","0.0-249.0","3PMBY0YE28PD4D04ARGVD4S5FNN9C0","ACON9O9NMFOHE","30UZJB2POHY4464FN6NBJ2NLFWF354","","400.90000009536743","img/food5.png","74","401.59999990463257","1","1","false","2","2","1,0.5,0,1,0.5,0,0.5,0,1","1,0.5,0,1,0.5,0,0.5,0,1","1",""
"","html-keyboard-response","168","79757","0.0-250.0","3PMBY0YE28PD4D04ARGVD4S5FNN9C0","ACON9O9NMFOHE","30UZJB2POHY4464FN6NBJ2NLFWF354","","null","<img src=""img/food5.png"" style=""width:200px; border:14px solid green;"">","null","","","","","","","","","",""
"","image-keyboard-response","169","79999","0.0-252.0","3PMBY0YE28PD4D04ARGVD4S5FNN9C0","ACON9O9NMFOHE","30UZJB2POHY4464FN6NBJ2NLFWF354","","240.79999995231628","img/food5.png","75","241.69999980926514","2","0","false","2","2","1,0.5,0,1,0.5,0,0.5,0,1","1,0.5,0,1,0.5,0,0.5,0,1","1",""
"","html-keyboard-response","170","80301","0.0-253.0","3PMBY0YE28PD4D04ARGVD4S5FNN9C0","ACON9O9NMFOHE","30UZJB2POHY4464FN6NBJ2NLFWF354","","null","<img src=""img/food5.png"" style=""width:200px;border:14px solid red;"">","null","","","","","","","","","",""
"","image-keyboard-response","171","80559","0.0-255.0","3PMBY0YE28PD4D04ARGVD4S5FNN9C0","ACON9O9NMFOHE","30UZJB2POHY4464FN6NBJ2NLFWF354","","256.7000000476837","img/food5.png","74","257.30000019073486","1","1","false","2","2","1,0.5,0,1,0.5,0,0.5,0,1","1,0.5,0,1,0.5,0,0.5,0,1","1",""
"","html-keyboard-response","172","80868","0.0-256.0","3PMBY0YE28PD4D04ARGVD4S5FNN9C0","ACON9O9NMFOHE","30UZJB2POHY4464FN6NBJ2NLFWF354","","null","<img src=""img/food5.png"" style=""width:200px; border:14px solid green;"">","null","","","","","","","","","",""
"","image-keyboard-response","173","81439","0.0-258.0","3PMBY0YE28PD4D04ARGVD4S5FNN9C0","ACON9O9NMFOHE","30UZJB2POHY4464FN6NBJ2NLFWF354","","570.6000001430511","img/food6.png","76","571.4000000953674","3","1","false","3","2","1,0.5,0,1,0.5,0,0.5,0,1","1,0.5,0,1,0.5,0,0.5,0,1","1",""
"","html-keyboard-response","174","81741","0.0-259.0","3PMBY0YE28PD4D04ARGVD4S5FNN9C0","ACON9O9NMFOHE","30UZJB2POHY4464FN6NBJ2NLFWF354","","null","<img src=""img/food6.png"" style=""width:200px; border:14px solid green;"">","null","","","","","","","","","",""
"","image-keyboard-response","175","82180","0.0-261.0","3PMBY0YE28PD4D04ARGVD4S5FNN9C0","ACON9O9NMFOHE","30UZJB2POHY4464FN6NBJ2NLFWF354","","437.7999999523163","img/food5.png","74","438.69999980926514","1","1","false","2","2","1,0.5,0,1,0.5,0,0.5,0,1","1,0.5,0,1,0.5,0,0.5,0,1","1",""
"","html-keyboard-response","176","82483","0.0-262.0","3PMBY0YE28PD4D04ARGVD4S5FNN9C0","ACON9O9NMFOHE","30UZJB2POHY4464FN6NBJ2NLFWF354","","null","<img src=""img/food5.png"" style=""width:200px; border:14px solid green;"">","null","","","","","","","","","",""
"","image-keyboard-response","177","83103","0.0-264.0","3PMBY0YE28PD4D04ARGVD4S5FNN9C0","ACON9O9NMFOHE","30UZJB2POHY4464FN6NBJ2NLFWF354","","619.1000001430511","img/food6.png","74","620","1","1","false","3","2","1,0.5,0,1,0.5,0,0.5,0,1","1,0.5,0,1,0.5,0,0.5,0,1","1",""
"","html-keyboard-response","178","83405","0.0-265.0","3PMBY0YE28PD4D04ARGVD4S5FNN9C0","ACON9O9NMFOHE","30UZJB2POHY4464FN6NBJ2NLFWF354","","null","<img src=""img/food6.png"" style=""width:200px; border:14px solid green;"">","null","","","","","","","","","",""
"","image-keyboard-response","179","84047","0.0-267.0","3PMBY0YE28PD4D04ARGVD4S5FNN9C0","ACON9O9NMFOHE","30UZJB2POHY4464FN6NBJ2NLFWF354","","640.9000000953674","img/food4.png","75","641.7999999523163","2","1","false","1","2","1,0.5,0,1,0.5,0,0.5,0,1","1,0.5,0,1,0.5,0,0.5,0,1","1",""
"","html-keyboard-response","180","84348","0.0-268.0","3PMBY0YE28PD4D04ARGVD4S5FNN9C0","ACON9O9NMFOHE","30UZJB2POHY4464FN6NBJ2NLFWF354","","null","<img src=""img/food4.png"" style=""width:200px; border:14px solid green;"">","null","","","","","","","","","",""
"","image-keyboard-response","181","84607","0.0-270.0","3PMBY0YE28PD4D04ARGVD4S5FNN9C0","ACON9O9NMFOHE","30UZJB2POHY4464FN6NBJ2NLFWF354","","257.80000019073486","img/food5.png","74","258.59999990463257","1","1","false","2","2","1,0.5,0,1,0.5,0,0.5,0,1","1,0.5,0,1,0.5,0,0.5,0,1","1",""
"","html-keyboard-response","182","84909","0.0-271.0","3PMBY0YE28PD4D04ARGVD4S5FNN9C0","ACON9O9NMFOHE","30UZJB2POHY4464FN6NBJ2NLFWF354","","null","<img src=""img/food5.png"" style=""width:200px; border:14px solid green;"">","null","","","","","","","","","",""
"","instructions","183","88639","0.0-273.0","3PMBY0YE28PD4D04ARGVD4S5FNN9C0","ACON9O9NMFOHE","30UZJB2POHY4464FN6NBJ2NLFWF354","[{""page_index"":0,""viewing_time"":2857.600000143051},{""page_index"":1,""viewing_time"":872.1999998092651}]","3730","","","","","","","","","","","",""
"","image-keyboard-response","184","89471","0.0-274.0","3PMBY0YE28PD4D04ARGVD4S5FNN9C0","ACON9O9NMFOHE","30UZJB2POHY4464FN6NBJ2NLFWF354","","830","img/food3.png","74","831.1999998092651","1","0","","2","1","1,0.5,0,1,0.5,0,0.5,0,1","0.5,0,1,0.5,0,1,0,1,0.5","2",""
"","html-keyboard-response","185","89773","0.0-275.0","3PMBY0YE28PD4D04ARGVD4S5FNN9C0","ACON9O9NMFOHE","30UZJB2POHY4464FN6NBJ2NLFWF354","","null","<img src=""img/food3.png"" style=""width:200px;border:14px solid red;"">","null","","","","","","","","","",""
"","image-keyboard-response","186","90399","0.0-276.0","3PMBY0YE28PD4D04ARGVD4S5FNN9C0","ACON9O9NMFOHE","30UZJB2POHY4464FN6NBJ2NLFWF354","","624.1999998092651","img/food3.png","75","625.2999999523163","2","0","","2","1","1,0.5,0,1,0.5,0,0.5,0,1","0.5,0,1,0.5,0,1,0,1,0.5","2",""
"","html-keyboard-response","187","90701","0.0-277.0","3PMBY0YE28PD4D04ARGVD4S5FNN9C0","ACON9O9NMFOHE","30UZJB2POHY4464FN6NBJ2NLFWF354","","null","<img src=""img/food3.png"" style=""width:200px;border:14px solid red;"">","null","","","","","","","","","",""
"","image-keyboard-response","188","92223","0.0-278.0","3PMBY0YE28PD4D04ARGVD4S5FNN9C0","ACON9O9NMFOHE","30UZJB2POHY4464FN6NBJ2NLFWF354","","1521.6000001430511","img/food1.png","76","1522.5","3","1","","3","1","1,0.5,0,1,0.5,0,0.5,0,1","0.5,0,1,0.5,0,1,0,1,0.5","2",""
"","html-keyboard-response","189","92537","0.0-279.0","3PMBY0YE28PD4D04ARGVD4S5FNN9C0","ACON9O9NMFOHE","30UZJB2POHY4464FN6NBJ2NLFWF354","","null","<img src=""img/food1.png"" style=""width:200px; border:14px solid green;"">","null","","","","","","","","","",""
"","image-keyboard-response","190","93007","0.0-280.0","3PMBY0YE28PD4D04ARGVD4S5FNN9C0","ACON9O9NMFOHE","30UZJB2POHY4464FN6NBJ2NLFWF354","","468.2999999523163","img/food1.png","76","469.2000000476837","3","1","","3","1","1,0.5,0,1,0.5,0,0.5,0,1","0.5,0,1,0.5,0,1,0,1,0.5","2",""
"","html-keyboard-response","191","93309","0.0-281.0","3PMBY0YE28PD4D04ARGVD4S5FNN9C0","ACON9O9NMFOHE","30UZJB2POHY4464FN6NBJ2NLFWF354","","null","<img src=""img/food1.png"" style=""width:200px; border:14px solid green;"">","null","","","","","","","","","",""
"","image-keyboard-response","192","94143","0.0-282.0","3PMBY0YE28PD4D04ARGVD4S5FNN9C0","ACON9O9NMFOHE","30UZJB2POHY4464FN6NBJ2NLFWF354","","832.5","img/food3.png","75","833.2999999523163","2","0","","2","1","1,0.5,0,1,0.5,0,0.5,0,1","0.5,0,1,0.5,0,1,0,1,0.5","2",""
"","html-keyboard-response","193","94445","0.0-283.0","3PMBY0YE28PD4D04ARGVD4S5FNN9C0","ACON9O9NMFOHE","30UZJB2POHY4464FN6NBJ2NLFWF354","","null","<img src=""img/food3.png"" style=""width:200px;border:14px solid red;"">","null","","","","","","","","","",""
"","image-keyboard-response","194","94863","0.0-284.0","3PMBY0YE28PD4D04ARGVD4S5FNN9C0","ACON9O9NMFOHE","30UZJB2POHY4464FN6NBJ2NLFWF354","","417","img/food3.png","75","418","2","0","","2","1","1,0.5,0,1,0.5,0,0.5,0,1","0.5,0,1,0.5,0,1,0,1,0.5","2",""
"","html-keyboard-response","195","95165","0.0-285.0","3PMBY0YE28PD4D04ARGVD4S5FNN9C0","ACON9O9NMFOHE","30UZJB2POHY4464FN6NBJ2NLFWF354","","null","<img src=""img/food3.png"" style=""width:200px;border:14px solid red;"">","null","","","","","","","","","",""
"","image-keyboard-response","196","96095","0.0-286.0","3PMBY0YE28PD4D04ARGVD4S5FNN9C0","ACON9O9NMFOHE","30UZJB2POHY4464FN6NBJ2NLFWF354","","928.9000000953674","img/food2.png","75","929.7000000476837","2","0","","1","1","1,0.5,0,1,0.5,0,0.5,0,1","0.5,0,1,0.5,0,1,0,1,0.5","2",""
"","html-keyboard-response","197","96398","0.0-287.0","3PMBY0YE28PD4D04ARGVD4S5FNN9C0","ACON9O9NMFOHE","30UZJB2POHY4464FN6NBJ2NLFWF354","","null","<img src=""img/food2.png"" style=""width:200px;border:14px solid red;"">","null","","","","","","","","","",""
"","image-keyboard-response","198","97311","0.0-288.0","3PMBY0YE28PD4D04ARGVD4S5FNN9C0","ACON9O9NMFOHE","30UZJB2POHY4464FN6NBJ2NLFWF354","","911.3999998569489","img/food3.png","74","912.4000000953674","1","1","","2","1","1,0.5,0,1,0.5,0,0.5,0,1","0.5,0,1,0.5,0,1,0,1,0.5","2",""
"","html-keyboard-response","199","97613","0.0-289.0","3PMBY0YE28PD4D04ARGVD4S5FNN9C0","ACON9O9NMFOHE","30UZJB2POHY4464FN6NBJ2NLFWF354","","null","<img src=""img/food3.png"" style=""width:200px; border:14px solid green;"">","null","","","","","","","","","",""
"","image-keyboard-response","200","97967","0.0-290.0","3PMBY0YE28PD4D04ARGVD4S5FNN9C0","ACON9O9NMFOHE","30UZJB2POHY4464FN6NBJ2NLFWF354","","353.39999985694885","img/food3.png","74","354.7999999523163","1","1","","2","1","1,0.5,0,1,0.5,0,0.5,0,1","0.5,0,1,0.5,0,1,0,1,0.5","2",""
"","html-keyboard-response","201","98270","0.0-291.0","3PMBY0YE28PD4D04ARGVD4S5FNN9C0","ACON9O9NMFOHE","30UZJB2POHY4464FN6NBJ2NLFWF354","","null","<img src=""img/food3.png"" style=""width:200px; border:14px solid green;"">","null","","","","","","","","","",""
"","image-keyboard-response","202","98593","0.0-292.0","3PMBY0YE28PD4D04ARGVD4S5FNN9C0","ACON9O9NMFOHE","30UZJB2POHY4464FN6NBJ2NLFWF354","","321.39999985694885","img/food3.png","74","322.2000000476837","1","0","","2","1","1,0.5,0,1,0.5,0,0.5,0,1","0.5,0,1,0.5,0,1,0,1,0.5","2",""
"","html-keyboard-response","203","98896","0.0-293.0","3PMBY0YE28PD4D04ARGVD4S5FNN9C0","ACON9O9NMFOHE","30UZJB2POHY4464FN6NBJ2NLFWF354","","null","<img src=""img/food3.png"" style=""width:200px;border:14px solid red;"">","null","","","","","","","","","",""
"","image-keyboard-response","204","99647","0.0-294.0","3PMBY0YE28PD4D04ARGVD4S5FNN9C0","ACON9O9NMFOHE","30UZJB2POHY4464FN6NBJ2NLFWF354","","750.2000000476837","img/food2.png","75","751","2","0","","1","1","1,0.5,0,1,0.5,0,0.5,0,1","0.5,0,1,0.5,0,1,0,1,0.5","2",""
"","html-keyboard-response","205","99949","0.0-295.0","3PMBY0YE28PD4D04ARGVD4S5FNN9C0","ACON9O9NMFOHE","30UZJB2POHY4464FN6NBJ2NLFWF354","","null","<img src=""img/food2.png"" style=""width:200px;border:14px solid red;"">","null","","","","","","","","","",""
"","image-keyboard-response","206","101615","0.0-296.0","3PMBY0YE28PD4D04ARGVD4S5FNN9C0","ACON9O9NMFOHE","30UZJB2POHY4464FN6NBJ2NLFWF354","","1664.5","img/food3.png","75","1665.4000000953674","2","0","","2","1","1,0.5,0,1,0.5,0,0.5,0,1","0.5,0,1,0.5,0,1,0,1,0.5","2",""
"","html-keyboard-response","207","101925","0.0-297.0","3PMBY0YE28PD4D04ARGVD4S5FNN9C0","ACON9O9NMFOHE","30UZJB2POHY4464FN6NBJ2NLFWF354","","null","<img src=""img/food3.png"" style=""width:200px;border:14px solid red;"">","null","","","","","","","","","",""
"","image-keyboard-response","208","102373","0.0-298.0","3PMBY0YE28PD4D04ARGVD4S5FNN9C0","ACON9O9NMFOHE","30UZJB2POHY4464FN6NBJ2NLFWF354","","446.2000000476837","img/food3.png","75","447.2000000476837","2","0","","2","1","1,0.5,0,1,0.5,0,0.5,0,1","0.5,0,1,0.5,0,1,0,1,0.5","2",""
"","html-keyboard-response","209","102675","0.0-299.0","3PMBY0YE28PD4D04ARGVD4S5FNN9C0","ACON9O9NMFOHE","30UZJB2POHY4464FN6NBJ2NLFWF354","","null","<img src=""img/food3.png"" style=""width:200px;border:14px solid red;"">","null","","","","","","","","","",""
"","image-keyboard-response","210","103567","0.0-300.0","3PMBY0YE28PD4D04ARGVD4S5FNN9C0","ACON9O9NMFOHE","30UZJB2POHY4464FN6NBJ2NLFWF354","","890.9000000953674","img/food1.png","76","891.6000001430511","3","1","","3","1","1,0.5,0,1,0.5,0,0.5,0,1","0.5,0,1,0.5,0,1,0,1,0.5","2",""
"","html-keyboard-response","211","103868","0.0-301.0","3PMBY0YE28PD4D04ARGVD4S5FNN9C0","ACON9O9NMFOHE","30UZJB2POHY4464FN6NBJ2NLFWF354","","null","<img src=""img/food1.png"" style=""width:200px; border:14px solid green;"">","null","","","","","","","","","",""
"","image-keyboard-response","212","104911","0.0-302.0","3PMBY0YE28PD4D04ARGVD4S5FNN9C0","ACON9O9NMFOHE","30UZJB2POHY4464FN6NBJ2NLFWF354","","1042.1000001430511","img/food2.png","76","1043","3","1","","1","1","1,0.5,0,1,0.5,0,0.5,0,1","0.5,0,1,0.5,0,1,0,1,0.5","2",""
"","html-keyboard-response","213","105213","0.0-303.0","3PMBY0YE28PD4D04ARGVD4S5FNN9C0","ACON9O9NMFOHE","30UZJB2POHY4464FN6NBJ2NLFWF354","","null","<img src=""img/food2.png"" style=""width:200px; border:14px solid green;"">","null","","","","","","","","","",""
"","image-keyboard-response","214","106047","0.0-304.0","3PMBY0YE28PD4D04ARGVD4S5FNN9C0","ACON9O9NMFOHE","30UZJB2POHY4464FN6NBJ2NLFWF354","","832.7000000476837","img/food1.png","74","833.2999999523163","1","0","","3","1","1,0.5,0,1,0.5,0,0.5,0,1","0.5,0,1,0.5,0,1,0,1,0.5","2",""
"","html-keyboard-response","215","106348","0.0-305.0","3PMBY0YE28PD4D04ARGVD4S5FNN9C0","ACON9O9NMFOHE","30UZJB2POHY4464FN6NBJ2NLFWF354","","null","<img src=""img/food1.png"" style=""width:200px;border:14px solid red;"">","null","","","","","","","","","",""
"","image-keyboard-response","216","107199","0.0-306.0","3PMBY0YE28PD4D04ARGVD4S5FNN9C0","ACON9O9NMFOHE","30UZJB2POHY4464FN6NBJ2NLFWF354","","849.6999998092651","img/food1.png","76","850.3999998569489","3","0","","3","1","1,0.5,0,1,0.5,0,0.5,0,1","0.5,0,1,0.5,0,1,0,1,0.5","2",""
"","html-keyboard-response","217","107501","0.0-307.0","3PMBY0YE28PD4D04ARGVD4S5FNN9C0","ACON9O9NMFOHE","30UZJB2POHY4464FN6NBJ2NLFWF354","","null","<img src=""img/food1.png"" style=""width:200px;border:14px solid red;"">","null","","","","","","","","","",""
"","image-keyboard-response","218","108704","0.0-308.0","3PMBY0YE28PD4D04ARGVD4S5FNN9C0","ACON9O9NMFOHE","30UZJB2POHY4464FN6NBJ2NLFWF354","","1201.9000000953674","img/food2.png","74","1202.5","1","1","","1","1","1,0.5,0,1,0.5,0,0.5,0,1","0.5,0,1,0.5,0,1,0,1,0.5","2",""
"","html-keyboard-response","219","109006","0.0-309.0","3PMBY0YE28PD4D04ARGVD4S5FNN9C0","ACON9O9NMFOHE","30UZJB2POHY4464FN6NBJ2NLFWF354","","null","<img src=""img/food2.png"" style=""width:200px; border:14px solid green;"">","null","","","","","","","","","",""
"","image-keyboard-response","220","109327","0.0-310.0","3PMBY0YE28PD4D04ARGVD4S5FNN9C0","ACON9O9NMFOHE","30UZJB2POHY4464FN6NBJ2NLFWF354","","319.40000009536743","img/food2.png","74","320.2000000476837","1","1","","1","1","1,0.5,0,1,0.5,0,0.5,0,1","0.5,0,1,0.5,0,1,0,1,0.5","2",""
"","html-keyboard-response","221","109629","0.0-311.0","3PMBY0YE28PD4D04ARGVD4S5FNN9C0","ACON9O9NMFOHE","30UZJB2POHY4464FN6NBJ2NLFWF354","","null","<img src=""img/food2.png"" style=""width:200px; border:14px solid green;"">","null","","","","","","","","","",""
"","image-keyboard-response","222","111327","0.0-312.0","3PMBY0YE28PD4D04ARGVD4S5FNN9C0","ACON9O9NMFOHE","30UZJB2POHY4464FN6NBJ2NLFWF354","","1696.7000000476837","img/food3.png","74","1697.7999999523163","1","0","","2","1","1,0.5,0,1,0.5,0,0.5,0,1","0.5,0,1,0.5,0,1,0,1,0.5","2",""
"","html-keyboard-response","223","111629","0.0-313.0","3PMBY0YE28PD4D04ARGVD4S5FNN9C0","ACON9O9NMFOHE","30UZJB2POHY4464FN6NBJ2NLFWF354","","null","<img src=""img/food3.png"" style=""width:200px;border:14px solid red;"">","null","","","","","","","","","",""
"","image-keyboard-response","224","111999","0.0-314.0","3PMBY0YE28PD4D04ARGVD4S5FNN9C0","ACON9O9NMFOHE","30UZJB2POHY4464FN6NBJ2NLFWF354","","368.7999999523163","img/food3.png","74","369.40000009536743","1","1","","2","1","1,0.5,0,1,0.5,0,0.5,0,1","0.5,0,1,0.5,0,1,0,1,0.5","2",""
"","html-keyboard-response","225","112301","0.0-315.0","3PMBY0YE28PD4D04ARGVD4S5FNN9C0","ACON9O9NMFOHE","30UZJB2POHY4464FN6NBJ2NLFWF354","","null","<img src=""img/food3.png"" style=""width:200px; border:14px solid green;"">","null","","","","","","","","","",""
"","image-keyboard-response","226","113855","0.0-316.0","3PMBY0YE28PD4D04ARGVD4S5FNN9C0","ACON9O9NMFOHE","30UZJB2POHY4464FN6NBJ2NLFWF354","","1552.2999999523163","img/food2.png","74","1553.2999999523163","1","1","","1","1","1,0.5,0,1,0.5,0,0.5,0,1","0.5,0,1,0.5,0,1,0,1,0.5","2",""
"","html-keyboard-response","227","114157","0.0-317.0","3PMBY0YE28PD4D04ARGVD4S5FNN9C0","ACON9O9NMFOHE","30UZJB2POHY4464FN6NBJ2NLFWF354","","null","<img src=""img/food2.png"" style=""width:200px; border:14px solid green;"">","null","","","","","","","","","",""
"","image-keyboard-response","228","115519","0.0-318.0","3PMBY0YE28PD4D04ARGVD4S5FNN9C0","ACON9O9NMFOHE","30UZJB2POHY4464FN6NBJ2NLFWF354","","1360.7999999523163","img/food3.png","74","1361.7000000476837","1","1","","2","1","1,0.5,0,1,0.5,0,0.5,0,1","0.5,0,1,0.5,0,1,0,1,0.5","2",""
"","html-keyboard-response","229","115821","0.0-319.0","3PMBY0YE28PD4D04ARGVD4S5FNN9C0","ACON9O9NMFOHE","30UZJB2POHY4464FN6NBJ2NLFWF354","","null","<img src=""img/food3.png"" style=""width:200px; border:14px solid green;"">","null","","","","","","","","","",""
"","image-keyboard-response","230","116527","0.0-320.0","3PMBY0YE28PD4D04ARGVD4S5FNN9C0","ACON9O9NMFOHE","30UZJB2POHY4464FN6NBJ2NLFWF354","","704.0999999046326","img/food2.png","74","705.2000000476837","1","1","","1","1","1,0.5,0,1,0.5,0,0.5,0,1","0.5,0,1,0.5,0,1,0,1,0.5","2",""
"","html-keyboard-response","231","116829","0.0-321.0","3PMBY0YE28PD4D04ARGVD4S5FNN9C0","ACON9O9NMFOHE","30UZJB2POHY4464FN6NBJ2NLFWF354","","null","<img src=""img/food2.png"" style=""width:200px; border:14px solid green;"">","null","","","","","","","","","",""
"","image-keyboard-response","232","117631","0.0-322.0","3PMBY0YE28PD4D04ARGVD4S5FNN9C0","ACON9O9NMFOHE","30UZJB2POHY4464FN6NBJ2NLFWF354","","801.1999998092651","img/food1.png","76","802","3","0","","3","1","1,0.5,0,1,0.5,0,0.5,0,1","0.5,0,1,0.5,0,1,0,1,0.5","2",""
"","html-keyboard-response","233","117933","0.0-323.0","3PMBY0YE28PD4D04ARGVD4S5FNN9C0","ACON9O9NMFOHE","30UZJB2POHY4464FN6NBJ2NLFWF354","","null","<img src=""img/food1.png"" style=""width:200px;border:14px solid red;"">","null","","","","","","","","","",""
"","image-keyboard-response","234","118768","0.0-324.0","3PMBY0YE28PD4D04ARGVD4S5FNN9C0","ACON9O9NMFOHE","30UZJB2POHY4464FN6NBJ2NLFWF354","","833.5999999046326","img/food2.png","74","834.3999998569489","1","1","","1","1","1,0.5,0,1,0.5,0,0.5,0,1","0.5,0,1,0.5,0,1,0,1,0.5","2",""
"","html-keyboard-response","235","119070","0.0-325.0","3PMBY0YE28PD4D04ARGVD4S5FNN9C0","ACON9O9NMFOHE","30UZJB2POHY4464FN6NBJ2NLFWF354","","null","<img src=""img/food2.png"" style=""width:200px; border:14px solid green;"">","null","","","","","","","","","",""
"","image-keyboard-response","236","119407","0.0-326.0","3PMBY0YE28PD4D04ARGVD4S5FNN9C0","ACON9O9NMFOHE","30UZJB2POHY4464FN6NBJ2NLFWF354","","336.2000000476837","img/food2.png","74","337","1","1","","1","1","1,0.5,0,1,0.5,0,0.5,0,1","0.5,0,1,0.5,0,1,0,1,0.5","2",""
"","html-keyboard-response","237","119710","0.0-327.0","3PMBY0YE28PD4D04ARGVD4S5FNN9C0","ACON9O9NMFOHE","30UZJB2POHY4464FN6NBJ2NLFWF354","","null","<img src=""img/food2.png"" style=""width:200px; border:14px solid green;"">","null","","","","","","","","","",""
"","image-keyboard-response","238","120031","0.0-328.0","3PMBY0YE28PD4D04ARGVD4S5FNN9C0","ACON9O9NMFOHE","30UZJB2POHY4464FN6NBJ2NLFWF354","","320.10000014305115","img/food2.png","74","321","1","1","","1","1","1,0.5,0,1,0.5,0,0.5,0,1","0.5,0,1,0.5,0,1,0,1,0.5","2",""
"","html-keyboard-response","239","120334","0.0-329.0","3PMBY0YE28PD4D04ARGVD4S5FNN9C0","ACON9O9NMFOHE","30UZJB2POHY4464FN6NBJ2NLFWF354","","null","<img src=""img/food2.png"" style=""width:200px; border:14px solid green;"">","null","","","","","","","","","",""
"","image-keyboard-response","240","121823","0.0-330.0","3PMBY0YE28PD4D04ARGVD4S5FNN9C0","ACON9O9NMFOHE","30UZJB2POHY4464FN6NBJ2NLFWF354","","1487.9000000953674","img/food1.png","76","1488.7999999523163","3","1","","3","1","1,0.5,0,1,0.5,0,0.5,0,1","0.5,0,1,0.5,0,1,0,1,0.5","2",""
"","html-keyboard-response","241","122125","0.0-331.0","3PMBY0YE28PD4D04ARGVD4S5FNN9C0","ACON9O9NMFOHE","30UZJB2POHY4464FN6NBJ2NLFWF354","","null","<img src=""img/food1.png"" style=""width:200px; border:14px solid green;"">","null","","","","","","","","","",""
"","image-keyboard-response","242","123087","0.0-332.0","3PMBY0YE28PD4D04ARGVD4S5FNN9C0","ACON9O9NMFOHE","30UZJB2POHY4464FN6NBJ2NLFWF354","","960.7000000476837","img/food2.png","75","961.5","2","0","","1","1","1,0.5,0,1,0.5,0,0.5,0,1","0.5,0,1,0.5,0,1,0,1,0.5","2",""
"","html-keyboard-response","243","123388","0.0-333.0","3PMBY0YE28PD4D04ARGVD4S5FNN9C0","ACON9O9NMFOHE","30UZJB2POHY4464FN6NBJ2NLFWF354","","null","<img src=""img/food2.png"" style=""width:200px;border:14px solid red;"">","null","","","","","","","","","",""
"","image-keyboard-response","244","123878","0.0-334.0","3PMBY0YE28PD4D04ARGVD4S5FNN9C0","ACON9O9NMFOHE","30UZJB2POHY4464FN6NBJ2NLFWF354","","489","img/food2.png","75","489.90000009536743","2","0","","1","1","1,0.5,0,1,0.5,0,0.5,0,1","0.5,0,1,0.5,0,1,0,1,0.5","2",""
"","html-keyboard-response","245","124181","0.0-335.0","3PMBY0YE28PD4D04ARGVD4S5FNN9C0","ACON9O9NMFOHE","30UZJB2POHY4464FN6NBJ2NLFWF354","","null","<img src=""img/food2.png"" style=""width:200px;border:14px solid red;"">","null","","","","","","","","","",""
"","image-keyboard-response","246","124943","0.0-336.0","3PMBY0YE28PD4D04ARGVD4S5FNN9C0","ACON9O9NMFOHE","30UZJB2POHY4464FN6NBJ2NLFWF354","","761.0999999046326","img/food1.png","76","762","3","0","","3","1","1,0.5,0,1,0.5,0,0.5,0,1","0.5,0,1,0.5,0,1,0,1,0.5","2",""
"","html-keyboard-response","247","125246","0.0-337.0","3PMBY0YE28PD4D04ARGVD4S5FNN9C0","ACON9O9NMFOHE","30UZJB2POHY4464FN6NBJ2NLFWF354","","null","<img src=""img/food1.png"" style=""width:200px;border:14px solid red;"">","null","","","","","","","","","",""
"","image-keyboard-response","248","126079","0.0-338.0","3PMBY0YE28PD4D04ARGVD4S5FNN9C0","ACON9O9NMFOHE","30UZJB2POHY4464FN6NBJ2NLFWF354","","832.5","img/food2.png","76","833.2999999523163","3","1","","1","1","1,0.5,0,1,0.5,0,0.5,0,1","0.5,0,1,0.5,0,1,0,1,0.5","2",""
"","html-keyboard-response","249","126381","0.0-339.0","3PMBY0YE28PD4D04ARGVD4S5FNN9C0","ACON9O9NMFOHE","30UZJB2POHY4464FN6NBJ2NLFWF354","","null","<img src=""img/food2.png"" style=""width:200px; border:14px solid green;"">","null","","","","","","","","","",""
"","image-keyboard-response","250","127407","0.0-340.0","3PMBY0YE28PD4D04ARGVD4S5FNN9C0","ACON9O9NMFOHE","30UZJB2POHY4464FN6NBJ2NLFWF354","","1024.7000000476837","img/food3.png","74","1025.5","1","0","","2","1","1,0.5,0,1,0.5,0,0.5,0,1","0.5,0,1,0.5,0,1,0,1,0.5","2",""
"","html-keyboard-response","251","127710","0.0-341.0","3PMBY0YE28PD4D04ARGVD4S5FNN9C0","ACON9O9NMFOHE","30UZJB2POHY4464FN6NBJ2NLFWF354","","null","<img src=""img/food3.png"" style=""width:200px;border:14px solid red;"">","null","","","","","","","","","",""
"","image-keyboard-response","252","128303","0.0-342.0","3PMBY0YE28PD4D04ARGVD4S5FNN9C0","ACON9O9NMFOHE","30UZJB2POHY4464FN6NBJ2NLFWF354","","592.2999999523163","img/food1.png","76","593.2999999523163","3","0","","3","1","1,0.5,0,1,0.5,0,0.5,0,1","0.5,0,1,0.5,0,1,0,1,0.5","2",""
"","html-keyboard-response","253","128606","0.0-343.0","3PMBY0YE28PD4D04ARGVD4S5FNN9C0","ACON9O9NMFOHE","30UZJB2POHY4464FN6NBJ2NLFWF354","","null","<img src=""img/food1.png"" style=""width:200px;border:14px solid red;"">","null","","","","","","","","","",""
"","image-keyboard-response","254","129824","0.0-344.0","3PMBY0YE28PD4D04ARGVD4S5FNN9C0","ACON9O9NMFOHE","30UZJB2POHY4464FN6NBJ2NLFWF354","","1217.2000000476837","img/food2.png","76","1218.1999998092651","3","1","","1","1","1,0.5,0,1,0.5,0,0.5,0,1","0.5,0,1,0.5,0,1,0,1,0.5","2",""
"","html-keyboard-response","255","130134","0.0-345.0","3PMBY0YE28PD4D04ARGVD4S5FNN9C0","ACON9O9NMFOHE","30UZJB2POHY4464FN6NBJ2NLFWF354","","null","<img src=""img/food2.png"" style=""width:200px; border:14px solid green;"">","null","","","","","","","","","",""
"","image-keyboard-response","256","130463","0.0-346.0","3PMBY0YE28PD4D04ARGVD4S5FNN9C0","ACON9O9NMFOHE","30UZJB2POHY4464FN6NBJ2NLFWF354","","327.5","img/food2.png","76","328.59999990463257","3","1","","1","1","1,0.5,0,1,0.5,0,0.5,0,1","0.5,0,1,0.5,0,1,0,1,0.5","2",""
"","html-keyboard-response","257","130766","0.0-347.0","3PMBY0YE28PD4D04ARGVD4S5FNN9C0","ACON9O9NMFOHE","30UZJB2POHY4464FN6NBJ2NLFWF354","","null","<img src=""img/food2.png"" style=""width:200px; border:14px solid green;"">","null","","","","","","","","","",""
"","image-keyboard-response","258","131071","0.0-348.0","3PMBY0YE28PD4D04ARGVD4S5FNN9C0","ACON9O9NMFOHE","30UZJB2POHY4464FN6NBJ2NLFWF354","","304.40000009536743","img/food2.png","76","305.30000019073486","3","1","","1","1","1,0.5,0,1,0.5,0,0.5,0,1","0.5,0,1,0.5,0,1,0,1,0.5","2",""
"","html-keyboard-response","259","131373","0.0-349.0","3PMBY0YE28PD4D04ARGVD4S5FNN9C0","ACON9O9NMFOHE","30UZJB2POHY4464FN6NBJ2NLFWF354","","null","<img src=""img/food2.png"" style=""width:200px; border:14px solid green;"">","null","","","","","","","","","",""
"","image-keyboard-response","260","131999","0.0-350.0","3PMBY0YE28PD4D04ARGVD4S5FNN9C0","ACON9O9NMFOHE","30UZJB2POHY4464FN6NBJ2NLFWF354","","624.7000000476837","img/food3.png","74","625.5999999046326","1","0","","2","1","1,0.5,0,1,0.5,0,0.5,0,1","0.5,0,1,0.5,0,1,0,1,0.5","2",""
"","html-keyboard-response","261","132301","0.0-351.0","3PMBY0YE28PD4D04ARGVD4S5FNN9C0","ACON9O9NMFOHE","30UZJB2POHY4464FN6NBJ2NLFWF354","","null","<img src=""img/food3.png"" style=""width:200px;border:14px solid red;"">","null","","","","","","","","","",""
"","image-keyboard-response","262","133071","0.0-352.0","3PMBY0YE28PD4D04ARGVD4S5FNN9C0","ACON9O9NMFOHE","30UZJB2POHY4464FN6NBJ2NLFWF354","","768.6000001430511","img/food1.png","76","769.5","3","1","","3","1","1,0.5,0,1,0.5,0,0.5,0,1","0.5,0,1,0.5,0,1,0,1,0.5","2",""
"","html-keyboard-response","263","133373","0.0-353.0","3PMBY0YE28PD4D04ARGVD4S5FNN9C0","ACON9O9NMFOHE","30UZJB2POHY4464FN6NBJ2NLFWF354","","null","<img src=""img/food1.png"" style=""width:200px; border:14px solid green;"">","null","","","","","","","","","",""
"","image-keyboard-response","264","133695","0.0-354.0","3PMBY0YE28PD4D04ARGVD4S5FNN9C0","ACON9O9NMFOHE","30UZJB2POHY4464FN6NBJ2NLFWF354","","321.5","img/food1.png","76","322.2999999523163","3","0","","3","1","1,0.5,0,1,0.5,0,0.5,0,1","0.5,0,1,0.5,0,1,0,1,0.5","2",""
"","html-keyboard-response","265","133997","0.0-355.0","3PMBY0YE28PD4D04ARGVD4S5FNN9C0","ACON9O9NMFOHE","30UZJB2POHY4464FN6NBJ2NLFWF354","","null","<img src=""img/food1.png"" style=""width:200px;border:14px solid red;"">","null","","","","","","","","","",""
"","image-keyboard-response","266","135007","0.0-356.0","3PMBY0YE28PD4D04ARGVD4S5FNN9C0","ACON9O9NMFOHE","30UZJB2POHY4464FN6NBJ2NLFWF354","","1009.5","img/food2.png","74","1010.3000001907349","1","0","","1","1","1,0.5,0,1,0.5,0,0.5,0,1","0.5,0,1,0.5,0,1,0,1,0.5","2",""
"","html-keyboard-response","267","135308","0.0-357.0","3PMBY0YE28PD4D04ARGVD4S5FNN9C0","ACON9O9NMFOHE","30UZJB2POHY4464FN6NBJ2NLFWF354","","null","<img src=""img/food2.png"" style=""width:200px;border:14px solid red;"">","null","","","","","","","","","",""
"","image-keyboard-response","268","135887","0.0-358.0","3PMBY0YE28PD4D04ARGVD4S5FNN9C0","ACON9O9NMFOHE","30UZJB2POHY4464FN6NBJ2NLFWF354","","577.8000001907349","img/food1.png","76","578.7000000476837","3","1","","3","1","1,0.5,0,1,0.5,0,0.5,0,1","0.5,0,1,0.5,0,1,0,1,0.5","2",""
"","html-keyboard-response","269","136190","0.0-359.0","3PMBY0YE28PD4D04ARGVD4S5FNN9C0","ACON9O9NMFOHE","30UZJB2POHY4464FN6NBJ2NLFWF354","","null","<img src=""img/food1.png"" style=""width:200px; border:14px solid green;"">","null","","","","","","","","","",""
"","image-keyboard-response","270","136879","0.0-360.0","3PMBY0YE28PD4D04ARGVD4S5FNN9C0","ACON9O9NMFOHE","30UZJB2POHY4464FN6NBJ2NLFWF354","","688.5","img/food3.png","74","689.2999999523163","1","1","","2","1","1,0.5,0,1,0.5,0,0.5,0,1","0.5,0,1,0.5,0,1,0,1,0.5","2",""
"","html-keyboard-response","271","137191","0.0-361.0","3PMBY0YE28PD4D04ARGVD4S5FNN9C0","ACON9O9NMFOHE","30UZJB2POHY4464FN6NBJ2NLFWF354","","null","<img src=""img/food3.png"" style=""width:200px; border:14px solid green;"">","null","","","","","","","","","",""
"","image-keyboard-response","272","138063","0.0-362.0","3PMBY0YE28PD4D04ARGVD4S5FNN9C0","ACON9O9NMFOHE","30UZJB2POHY4464FN6NBJ2NLFWF354","","871.2999999523163","img/food2.png","74","872.0999999046326","1","1","","1","1","1,0.5,0,1,0.5,0,0.5,0,1","0.5,0,1,0.5,0,1,0,1,0.5","2",""
"","html-keyboard-response","273","138366","0.0-363.0","3PMBY0YE28PD4D04ARGVD4S5FNN9C0","ACON9O9NMFOHE","30UZJB2POHY4464FN6NBJ2NLFWF354","","null","<img src=""img/food2.png"" style=""width:200px; border:14px solid green;"">","null","","","","","","","","","",""
"","image-keyboard-response","274","138959","0.0-364.0","3PMBY0YE28PD4D04ARGVD4S5FNN9C0","ACON9O9NMFOHE","30UZJB2POHY4464FN6NBJ2NLFWF354","","592.0999999046326","img/food1.png","76","592.7999999523163","3","1","","3","1","1,0.5,0,1,0.5,0,0.5,0,1","0.5,0,1,0.5,0,1,0,1,0.5","2",""
"","html-keyboard-response","275","139262","0.0-365.0","3PMBY0YE28PD4D04ARGVD4S5FNN9C0","ACON9O9NMFOHE","30UZJB2POHY4464FN6NBJ2NLFWF354","","null","<img src=""img/food1.png"" style=""width:200px; border:14px solid green;"">","null","","","","","","","","","",""
"","image-keyboard-response","276","139615","0.0-366.0","3PMBY0YE28PD4D04ARGVD4S5FNN9C0","ACON9O9NMFOHE","30UZJB2POHY4464FN6NBJ2NLFWF354","","352.60000014305115","img/food1.png","76","353.5","3","0","","3","1","1,0.5,0,1,0.5,0,0.5,0,1","0.5,0,1,0.5,0,1,0,1,0.5","2",""
"","html-keyboard-response","277","139918","0.0-367.0","3PMBY0YE28PD4D04ARGVD4S5FNN9C0","ACON9O9NMFOHE","30UZJB2POHY4464FN6NBJ2NLFWF354","","null","<img src=""img/food1.png"" style=""width:200px;border:14px solid red;"">","null","","","","","","","","","",""
"","image-keyboard-response","278","140560","0.0-368.0","3PMBY0YE28PD4D04ARGVD4S5FNN9C0","ACON9O9NMFOHE","30UZJB2POHY4464FN6NBJ2NLFWF354","","641","img/food2.png","74","641.8999998569489","1","0","","1","1","1,0.5,0,1,0.5,0,0.5,0,1","0.5,0,1,0.5,0,1,0,1,0.5","2",""
"","html-keyboard-response","279","140862","0.0-369.0","3PMBY0YE28PD4D04ARGVD4S5FNN9C0","ACON9O9NMFOHE","30UZJB2POHY4464FN6NBJ2NLFWF354","","null","<img src=""img/food2.png"" style=""width:200px;border:14px solid red;"">","null","","","","","","","","","",""
"","image-keyboard-response","280","141647","0.0-370.0","3PMBY0YE28PD4D04ARGVD4S5FNN9C0","ACON9O9NMFOHE","30UZJB2POHY4464FN6NBJ2NLFWF354","","784","img/food2.png","76","784.7000000476837","3","1","","1","1","1,0.5,0,1,0.5,0,0.5,0,1","0.5,0,1,0.5,0,1,0,1,0.5","2",""
"","html-keyboard-response","281","141949","0.0-371.0","3PMBY0YE28PD4D04ARGVD4S5FNN9C0","ACON9O9NMFOHE","30UZJB2POHY4464FN6NBJ2NLFWF354","","null","<img src=""img/food2.png"" style=""width:200px; border:14px solid green;"">","null","","","","","","","","","",""
"","image-keyboard-response","282","142543","0.0-372.0","3PMBY0YE28PD4D04ARGVD4S5FNN9C0","ACON9O9NMFOHE","30UZJB2POHY4464FN6NBJ2NLFWF354","","592.9000000953674","img/food1.png","74","593.7999999523163","1","0","","3","1","1,0.5,0,1,0.5,0,0.5,0,1","0.5,0,1,0.5,0,1,0,1,0.5","2",""
"","html-keyboard-response","283","142845","0.0-373.0","3PMBY0YE28PD4D04ARGVD4S5FNN9C0","ACON9O9NMFOHE","30UZJB2POHY4464FN6NBJ2NLFWF354","","null","<img src=""img/food1.png"" style=""width:200px;border:14px solid red;"">","null","","","","","","","","","",""
"","image-keyboard-response","284","143199","0.0-374.0","3PMBY0YE28PD4D04ARGVD4S5FNN9C0","ACON9O9NMFOHE","30UZJB2POHY4464FN6NBJ2NLFWF354","","353.5","img/food1.png","76","354.2000000476837","3","1","","3","1","1,0.5,0,1,0.5,0,0.5,0,1","0.5,0,1,0.5,0,1,0,1,0.5","2",""
"","html-keyboard-response","285","143501","0.0-375.0","3PMBY0YE28PD4D04ARGVD4S5FNN9C0","ACON9O9NMFOHE","30UZJB2POHY4464FN6NBJ2NLFWF354","","null","<img src=""img/food1.png"" style=""width:200px; border:14px solid green;"">","null","","","","","","","","","",""
"","image-keyboard-response","286","144591","0.0-376.0","3PMBY0YE28PD4D04ARGVD4S5FNN9C0","ACON9O9NMFOHE","30UZJB2POHY4464FN6NBJ2NLFWF354","","1089.0999999046326","img/food2.png","76","1090.0999999046326","3","1","","1","1","1,0.5,0,1,0.5,0,0.5,0,1","0.5,0,1,0.5,0,1,0,1,0.5","2",""
"","html-keyboard-response","287","144894","0.0-377.0","3PMBY0YE28PD4D04ARGVD4S5FNN9C0","ACON9O9NMFOHE","30UZJB2POHY4464FN6NBJ2NLFWF354","","null","<img src=""img/food2.png"" style=""width:200px; border:14px solid green;"">","null","","","","","","","","","",""
"","image-keyboard-response","288","145583","0.0-378.0","3PMBY0YE28PD4D04ARGVD4S5FNN9C0","ACON9O9NMFOHE","30UZJB2POHY4464FN6NBJ2NLFWF354","","688.5999999046326","img/food3.png","74","689.4000000953674","1","0","","2","1","1,0.5,0,1,0.5,0,0.5,0,1","0.5,0,1,0.5,0,1,0,1,0.5","2",""
"","html-keyboard-response","289","145885","0.0-379.0","3PMBY0YE28PD4D04ARGVD4S5FNN9C0","ACON9O9NMFOHE","30UZJB2POHY4464FN6NBJ2NLFWF354","","null","<img src=""img/food3.png"" style=""width:200px;border:14px solid red;"">","null","","","","","","","","","",""
"","image-keyboard-response","290","146303","0.0-380.0","3PMBY0YE28PD4D04ARGVD4S5FNN9C0","ACON9O9NMFOHE","30UZJB2POHY4464FN6NBJ2NLFWF354","","416.7999999523163","img/food3.png","76","417.7999999523163","3","1","","2","1","1,0.5,0,1,0.5,0,0.5,0,1","0.5,0,1,0.5,0,1,0,1,0.5","2",""
"","html-keyboard-response","291","146605","0.0-381.0","3PMBY0YE28PD4D04ARGVD4S5FNN9C0","ACON9O9NMFOHE","30UZJB2POHY4464FN6NBJ2NLFWF354","","null","<img src=""img/food3.png"" style=""width:200px; border:14px solid green;"">","null","","","","","","","","","",""
"","image-keyboard-response","292","147263","0.0-382.0","3PMBY0YE28PD4D04ARGVD4S5FNN9C0","ACON9O9NMFOHE","30UZJB2POHY4464FN6NBJ2NLFWF354","","657.2999999523163","img/food1.png","76","658.2000000476837","3","1","","3","1","1,0.5,0,1,0.5,0,0.5,0,1","0.5,0,1,0.5,0,1,0,1,0.5","2",""
"","html-keyboard-response","293","147565","0.0-383.0","3PMBY0YE28PD4D04ARGVD4S5FNN9C0","ACON9O9NMFOHE","30UZJB2POHY4464FN6NBJ2NLFWF354","","null","<img src=""img/food1.png"" style=""width:200px; border:14px solid green;"">","null","","","","","","","","","",""
"","image-keyboard-response","294","147887","0.0-384.0","3PMBY0YE28PD4D04ARGVD4S5FNN9C0","ACON9O9NMFOHE","30UZJB2POHY4464FN6NBJ2NLFWF354","","321.09999990463257","img/food1.png","76","322","3","0","","3","1","1,0.5,0,1,0.5,0,0.5,0,1","0.5,0,1,0.5,0,1,0,1,0.5","2",""
"","html-keyboard-response","295","148190","0.0-385.0","3PMBY0YE28PD4D04ARGVD4S5FNN9C0","ACON9O9NMFOHE","30UZJB2POHY4464FN6NBJ2NLFWF354","","null","<img src=""img/food1.png"" style=""width:200px;border:14px solid red;"">","null","","","","","","","","","",""
"","image-keyboard-response","296","148687","0.0-386.0","3PMBY0YE28PD4D04ARGVD4S5FNN9C0","ACON9O9NMFOHE","30UZJB2POHY4464FN6NBJ2NLFWF354","","496.2999999523163","img/food1.png","76","497.19999980926514","3","0","","3","1","1,0.5,0,1,0.5,0,0.5,0,1","0.5,0,1,0.5,0,1,0,1,0.5","2",""
"","html-keyboard-response","297","148989","0.0-387.0","3PMBY0YE28PD4D04ARGVD4S5FNN9C0","ACON9O9NMFOHE","30UZJB2POHY4464FN6NBJ2NLFWF354","","null","<img src=""img/food1.png"" style=""width:200px;border:14px solid red;"">","null","","","","","","","","","",""
"","image-keyboard-response","298","149679","0.0-388.0","3PMBY0YE28PD4D04ARGVD4S5FNN9C0","ACON9O9NMFOHE","30UZJB2POHY4464FN6NBJ2NLFWF354","","689.2000000476837","img/food2.png","76","690","3","1","","1","1","1,0.5,0,1,0.5,0,0.5,0,1","0.5,0,1,0.5,0,1,0,1,0.5","2",""
"","html-keyboard-response","299","149981","0.0-389.0","3PMBY0YE28PD4D04ARGVD4S5FNN9C0","ACON9O9NMFOHE","30UZJB2POHY4464FN6NBJ2NLFWF354","","null","<img src=""img/food2.png"" style=""width:200px; border:14px solid green;"">","null","","","","","","","","","",""
"","image-keyboard-response","300","150992","0.0-390.0","3PMBY0YE28PD4D04ARGVD4S5FNN9C0","ACON9O9NMFOHE","30UZJB2POHY4464FN6NBJ2NLFWF354","","1010","img/food3.png","76","1011","3","1","","2","1","1,0.5,0,1,0.5,0,0.5,0,1","0.5,0,1,0.5,0,1,0,1,0.5","2",""
"","html-keyboard-response","301","151294","0.0-391.0","3PMBY0YE28PD4D04ARGVD4S5FNN9C0","ACON9O9NMFOHE","30UZJB2POHY4464FN6NBJ2NLFWF354","","null","<img src=""img/food3.png"" style=""width:200px; border:14px solid green;"">","null","","","","","","","","","",""
"","image-keyboard-response","302","152607","0.0-392.0","3PMBY0YE28PD4D04ARGVD4S5FNN9C0","ACON9O9NMFOHE","30UZJB2POHY4464FN6NBJ2NLFWF354","","1311.5","img/food1.png","76","1312.3999998569489","3","0","","3","1","1,0.5,0,1,0.5,0,0.5,0,1","0.5,0,1,0.5,0,1,0,1,0.5","2",""
"","html-keyboard-response","303","152909","0.0-393.0","3PMBY0YE28PD4D04ARGVD4S5FNN9C0","ACON9O9NMFOHE","30UZJB2POHY4464FN6NBJ2NLFWF354","","null","<img src=""img/food1.png"" style=""width:200px;border:14px solid red;"">","null","","","","","","","","","",""
"","image-keyboard-response","304","153375","0.0-394.0","3PMBY0YE28PD4D04ARGVD4S5FNN9C0","ACON9O9NMFOHE","30UZJB2POHY4464FN6NBJ2NLFWF354","","465.2999999523163","img/food1.png","74","466.10000014305115","1","0","","3","1","1,0.5,0,1,0.5,0,0.5,0,1","0.5,0,1,0.5,0,1,0,1,0.5","2",""
"","html-keyboard-response","305","153687","0.0-395.0","3PMBY0YE28PD4D04ARGVD4S5FNN9C0","ACON9O9NMFOHE","30UZJB2POHY4464FN6NBJ2NLFWF354","","null","<img src=""img/food1.png"" style=""width:200px;border:14px solid red;"">","null","","","","","","","","","",""
"","image-keyboard-response","306","154063","0.0-396.0","3PMBY0YE28PD4D04ARGVD4S5FNN9C0","ACON9O9NMFOHE","30UZJB2POHY4464FN6NBJ2NLFWF354","","375.10000014305115","img/food1.png","76","376.10000014305115","3","0","","3","1","1,0.5,0,1,0.5,0,0.5,0,1","0.5,0,1,0.5,0,1,0,1,0.5","2",""
"","html-keyboard-response","307","154366","0.0-397.0","3PMBY0YE28PD4D04ARGVD4S5FNN9C0","ACON9O9NMFOHE","30UZJB2POHY4464FN6NBJ2NLFWF354","","null","<img src=""img/food1.png"" style=""width:200px;border:14px solid red;"">","null","","","","","","","","","",""
"","image-keyboard-response","308","154991","0.0-398.0","3PMBY0YE28PD4D04ARGVD4S5FNN9C0","ACON9O9NMFOHE","30UZJB2POHY4464FN6NBJ2NLFWF354","","623.9000000953674","img/food1.png","76","624.8999998569489","3","1","","3","1","1,0.5,0,1,0.5,0,0.5,0,1","0.5,0,1,0.5,0,1,0,1,0.5","2",""
"","html-keyboard-response","309","155293","0.0-399.0","3PMBY0YE28PD4D04ARGVD4S5FNN9C0","ACON9O9NMFOHE","30UZJB2POHY4464FN6NBJ2NLFWF354","","null","<img src=""img/food1.png"" style=""width:200px; border:14px solid green;"">","null","","","","","","","","","",""
"","image-keyboard-response","310","155599","0.0-400.0","3PMBY0YE28PD4D04ARGVD4S5FNN9C0","ACON9O9NMFOHE","30UZJB2POHY4464FN6NBJ2NLFWF354","","304.7999999523163","img/food1.png","76","305.59999990463257","3","1","","3","1","1,0.5,0,1,0.5,0,0.5,0,1","0.5,0,1,0.5,0,1,0,1,0.5","2",""
"","html-keyboard-response","311","155902","0.0-401.0","3PMBY0YE28PD4D04ARGVD4S5FNN9C0","ACON9O9NMFOHE","30UZJB2POHY4464FN6NBJ2NLFWF354","","null","<img src=""img/food1.png"" style=""width:200px; border:14px solid green;"">","null","","","","","","","","","",""
"","image-keyboard-response","312","157007","0.0-402.0","3PMBY0YE28PD4D04ARGVD4S5FNN9C0","ACON9O9NMFOHE","30UZJB2POHY4464FN6NBJ2NLFWF354","","1103.5999999046326","img/food2.png","74","1104.6999998092651","1","1","","1","1","1,0.5,0,1,0.5,0,0.5,0,1","0.5,0,1,0.5,0,1,0,1,0.5","2",""
"","html-keyboard-response","313","157310","0.0-403.0","3PMBY0YE28PD4D04ARGVD4S5FNN9C0","ACON9O9NMFOHE","30UZJB2POHY4464FN6NBJ2NLFWF354","","null","<img src=""img/food2.png"" style=""width:200px; border:14px solid green;"">","null","","","","","","","","","",""
"","image-keyboard-response","314","157791","0.0-404.0","3PMBY0YE28PD4D04ARGVD4S5FNN9C0","ACON9O9NMFOHE","30UZJB2POHY4464FN6NBJ2NLFWF354","","480.2000000476837","img/food1.png","76","481","3","0","","3","1","1,0.5,0,1,0.5,0,0.5,0,1","0.5,0,1,0.5,0,1,0,1,0.5","2",""
"","html-keyboard-response","315","158093","0.0-405.0","3PMBY0YE28PD4D04ARGVD4S5FNN9C0","ACON9O9NMFOHE","30UZJB2POHY4464FN6NBJ2NLFWF354","","null","<img src=""img/food1.png"" style=""width:200px;border:14px solid red;"">","null","","","","","","","","","",""
"","image-keyboard-response","316","159183","0.0-406.0","3PMBY0YE28PD4D04ARGVD4S5FNN9C0","ACON9O9NMFOHE","30UZJB2POHY4464FN6NBJ2NLFWF354","","1088.7999999523163","img/food3.png","74","1089.5999999046326","1","1","","2","1","1,0.5,0,1,0.5,0,0.5,0,1","0.5,0,1,0.5,0,1,0,1,0.5","2",""
"","html-keyboard-response","317","159486","0.0-407.0","3PMBY0YE28PD4D04ARGVD4S5FNN9C0","ACON9O9NMFOHE","30UZJB2POHY4464FN6NBJ2NLFWF354","","null","<img src=""img/food3.png"" style=""width:200px; border:14px solid green;"">","null","","","","","","","","","",""
"","image-keyboard-response","318","160047","0.0-408.0","3PMBY0YE28PD4D04ARGVD4S5FNN9C0","ACON9O9NMFOHE","30UZJB2POHY4464FN6NBJ2NLFWF354","","560.2999999523163","img/food1.png","76","561.0999999046326","3","0","","3","1","1,0.5,0,1,0.5,0,0.5,0,1","0.5,0,1,0.5,0,1,0,1,0.5","2",""
"","html-keyboard-response","319","160350","0.0-409.0","3PMBY0YE28PD4D04ARGVD4S5FNN9C0","ACON9O9NMFOHE","30UZJB2POHY4464FN6NBJ2NLFWF354","","null","<img src=""img/food1.png"" style=""width:200px;border:14px solid red;"">","null","","","","","","","","","",""
"","image-keyboard-response","320","161393","0.0-410.0","3PMBY0YE28PD4D04ARGVD4S5FNN9C0","ACON9O9NMFOHE","30UZJB2POHY4464FN6NBJ2NLFWF354","","1042.2999999523163","img/food3.png","74","1043.1999998092651","1","0","","2","1","1,0.5,0,1,0.5,0,0.5,0,1","0.5,0,1,0.5,0,1,0,1,0.5","2",""
"","html-keyboard-response","321","161695","0.0-411.0","3PMBY0YE28PD4D04ARGVD4S5FNN9C0","ACON9O9NMFOHE","30UZJB2POHY4464FN6NBJ2NLFWF354","","null","<img src=""img/food3.png"" style=""width:200px;border:14px solid red;"">","null","","","","","","","","","",""
"","image-keyboard-response","322","162127","0.0-412.0","3PMBY0YE28PD4D04ARGVD4S5FNN9C0","ACON9O9NMFOHE","30UZJB2POHY4464FN6NBJ2NLFWF354","","430.7000000476837","img/food1.png","76","431.60000014305115","3","0","","3","1","1,0.5,0,1,0.5,0,0.5,0,1","0.5,0,1,0.5,0,1,0,1,0.5","2",""
"","html-keyboard-response","323","162443","0.0-413.0","3PMBY0YE28PD4D04ARGVD4S5FNN9C0","ACON9O9NMFOHE","30UZJB2POHY4464FN6NBJ2NLFWF354","","null","<img src=""img/food1.png"" style=""width:200px;border:14px solid red;"">","null","","","","","","","","","",""
"","image-keyboard-response","324","163343","0.0-414.0","3PMBY0YE28PD4D04ARGVD4S5FNN9C0","ACON9O9NMFOHE","30UZJB2POHY4464FN6NBJ2NLFWF354","","898.6999998092651","img/food3.png","74","899.7000000476837","1","0","","2","1","1,0.5,0,1,0.5,0,0.5,0,1","0.5,0,1,0.5,0,1,0,1,0.5","2",""
"","html-keyboard-response","325","163646","0.0-415.0","3PMBY0YE28PD4D04ARGVD4S5FNN9C0","ACON9O9NMFOHE","30UZJB2POHY4464FN6NBJ2NLFWF354","","null","<img src=""img/food3.png"" style=""width:200px;border:14px solid red;"">","null","","","","","","","","","",""
"","image-keyboard-response","326","164111","0.0-416.0","3PMBY0YE28PD4D04ARGVD4S5FNN9C0","ACON9O9NMFOHE","30UZJB2POHY4464FN6NBJ2NLFWF354","","463.90000009536743","img/food3.png","76","464.7999999523163","3","1","","2","1","1,0.5,0,1,0.5,0,0.5,0,1","0.5,0,1,0.5,0,1,0,1,0.5","2",""
"","html-keyboard-response","327","164413","0.0-417.0","3PMBY0YE28PD4D04ARGVD4S5FNN9C0","ACON9O9NMFOHE","30UZJB2POHY4464FN6NBJ2NLFWF354","","null","<img src=""img/food3.png"" style=""width:200px; border:14px solid green;"">","null","","","","","","","","","",""
"","image-keyboard-response","328","165455","0.0-418.0","3PMBY0YE28PD4D04ARGVD4S5FNN9C0","ACON9O9NMFOHE","30UZJB2POHY4464FN6NBJ2NLFWF354","","1041","img/food2.png","74","1041.9000000953674","1","1","","1","1","1,0.5,0,1,0.5,0,0.5,0,1","0.5,0,1,0.5,0,1,0,1,0.5","2",""
"","html-keyboard-response","329","165764","0.0-419.0","3PMBY0YE28PD4D04ARGVD4S5FNN9C0","ACON9O9NMFOHE","30UZJB2POHY4464FN6NBJ2NLFWF354","","null","<img src=""img/food2.png"" style=""width:200px; border:14px solid green;"">","null","","","","","","","","","",""
"","image-keyboard-response","330","166079","0.0-420.0","3PMBY0YE28PD4D04ARGVD4S5FNN9C0","ACON9O9NMFOHE","30UZJB2POHY4464FN6NBJ2NLFWF354","","313.7999999523163","img/food2.png","74","314.7999999523163","1","1","","1","1","1,0.5,0,1,0.5,0,0.5,0,1","0.5,0,1,0.5,0,1,0,1,0.5","2",""
"","html-keyboard-response","331","166380","0.0-421.0","3PMBY0YE28PD4D04ARGVD4S5FNN9C0","ACON9O9NMFOHE","30UZJB2POHY4464FN6NBJ2NLFWF354","","null","<img src=""img/food2.png"" style=""width:200px; border:14px solid green;"">","null","","","","","","","","","",""
"","image-keyboard-response","332","167119","0.0-422.0","3PMBY0YE28PD4D04ARGVD4S5FNN9C0","ACON9O9NMFOHE","30UZJB2POHY4464FN6NBJ2NLFWF354","","737.7999999523163","img/food3.png","76","738.7000000476837","3","1","","2","1","1,0.5,0,1,0.5,0,0.5,0,1","0.5,0,1,0.5,0,1,0,1,0.5","2",""
"","html-keyboard-response","333","167421","0.0-423.0","3PMBY0YE28PD4D04ARGVD4S5FNN9C0","ACON9O9NMFOHE","30UZJB2POHY4464FN6NBJ2NLFWF354","","null","<img src=""img/food3.png"" style=""width:200px; border:14px solid green;"">","null","","","","","","","","","",""
"","image-keyboard-response","334","167743","0.0-424.0","3PMBY0YE28PD4D04ARGVD4S5FNN9C0","ACON9O9NMFOHE","30UZJB2POHY4464FN6NBJ2NLFWF354","","320.2999999523163","img/food3.png","76","321.10000014305115","3","1","","2","1","1,0.5,0,1,0.5,0,0.5,0,1","0.5,0,1,0.5,0,1,0,1,0.5","2",""
"","html-keyboard-response","335","168045","0.0-425.0","3PMBY0YE28PD4D04ARGVD4S5FNN9C0","ACON9O9NMFOHE","30UZJB2POHY4464FN6NBJ2NLFWF354","","null","<img src=""img/food3.png"" style=""width:200px; border:14px solid green;"">","null","","","","","","","","","",""
"","image-keyboard-response","336","168639","0.0-426.0","3PMBY0YE28PD4D04ARGVD4S5FNN9C0","ACON9O9NMFOHE","30UZJB2POHY4464FN6NBJ2NLFWF354","","592.7999999523163","img/food1.png","76","593.7000000476837","3","1","","3","1","1,0.5,0,1,0.5,0,0.5,0,1","0.5,0,1,0.5,0,1,0,1,0.5","2",""
"","html-keyboard-response","337","168942","0.0-427.0","3PMBY0YE28PD4D04ARGVD4S5FNN9C0","ACON9O9NMFOHE","30UZJB2POHY4464FN6NBJ2NLFWF354","","null","<img src=""img/food1.png"" style=""width:200px; border:14px solid green;"">","null","","","","","","","","","",""
"","image-keyboard-response","338","169887","0.0-428.0","3PMBY0YE28PD4D04ARGVD4S5FNN9C0","ACON9O9NMFOHE","30UZJB2POHY4464FN6NBJ2NLFWF354","","944.5","img/food2.png","75","945.4000000953674","2","0","","1","1","1,0.5,0,1,0.5,0,0.5,0,1","0.5,0,1,0.5,0,1,0,1,0.5","2",""
"","html-keyboard-response","339","170189","0.0-429.0","3PMBY0YE28PD4D04ARGVD4S5FNN9C0","ACON9O9NMFOHE","30UZJB2POHY4464FN6NBJ2NLFWF354","","null","<img src=""img/food2.png"" style=""width:200px;border:14px solid red;"">","null","","","","","","","","","",""
"","image-keyboard-response","340","170895","0.0-430.0","3PMBY0YE28PD4D04ARGVD4S5FNN9C0","ACON9O9NMFOHE","30UZJB2POHY4464FN6NBJ2NLFWF354","","704.2999999523163","img/food3.png","76","705.2000000476837","3","1","","2","1","1,0.5,0,1,0.5,0,0.5,0,1","0.5,0,1,0.5,0,1,0,1,0.5","2",""
"","html-keyboard-response","341","171198","0.0-431.0","3PMBY0YE28PD4D04ARGVD4S5FNN9C0","ACON9O9NMFOHE","30UZJB2POHY4464FN6NBJ2NLFWF354","","null","<img src=""img/food3.png"" style=""width:200px; border:14px solid green;"">","null","","","","","","","","","",""
"","image-keyboard-response","342","171504","0.0-432.0","3PMBY0YE28PD4D04ARGVD4S5FNN9C0","ACON9O9NMFOHE","30UZJB2POHY4464FN6NBJ2NLFWF354","","305.5","img/food3.png","76","306.5","3","1","","2","1","1,0.5,0,1,0.5,0,0.5,0,1","0.5,0,1,0.5,0,1,0,1,0.5","2",""
"","html-keyboard-response","343","171820","0.0-433.0","3PMBY0YE28PD4D04ARGVD4S5FNN9C0","ACON9O9NMFOHE","30UZJB2POHY4464FN6NBJ2NLFWF354","","null","<img src=""img/food3.png"" style=""width:200px; border:14px solid green;"">","null","","","","","","","","","",""
"","image-keyboard-response","344","172127","0.0-434.0","3PMBY0YE28PD4D04ARGVD4S5FNN9C0","ACON9O9NMFOHE","30UZJB2POHY4464FN6NBJ2NLFWF354","","306","img/food3.png","76","307","3","1","","2","1","1,0.5,0,1,0.5,0,0.5,0,1","0.5,0,1,0.5,0,1,0,1,0.5","2",""
"","html-keyboard-response","345","172429","0.0-435.0","3PMBY0YE28PD4D04ARGVD4S5FNN9C0","ACON9O9NMFOHE","30UZJB2POHY4464FN6NBJ2NLFWF354","","null","<img src=""img/food3.png"" style=""width:200px; border:14px solid green;"">","null","","","","","","","","","",""
"","image-keyboard-response","346","173503","0.0-436.0","3PMBY0YE28PD4D04ARGVD4S5FNN9C0","ACON9O9NMFOHE","30UZJB2POHY4464FN6NBJ2NLFWF354","","1073.0999999046326","img/food2.png","74","1073.8999998569489","1","1","","1","1","1,0.5,0,1,0.5,0,0.5,0,1","0.5,0,1,0.5,0,1,0,1,0.5","2",""
"","html-keyboard-response","347","173806","0.0-437.0","3PMBY0YE28PD4D04ARGVD4S5FNN9C0","ACON9O9NMFOHE","30UZJB2POHY4464FN6NBJ2NLFWF354","","null","<img src=""img/food2.png"" style=""width:200px; border:14px solid green;"">","null","","","","","","","","","",""
"","image-keyboard-response","348","174399","0.0-438.0","3PMBY0YE28PD4D04ARGVD4S5FNN9C0","ACON9O9NMFOHE","30UZJB2POHY4464FN6NBJ2NLFWF354","","592.3999998569489","img/food1.png","76","593.2999999523163","3","1","","3","1","1,0.5,0,1,0.5,0,0.5,0,1","0.5,0,1,0.5,0,1,0,1,0.5","2",""
"","html-keyboard-response","349","174701","0.0-439.0","3PMBY0YE28PD4D04ARGVD4S5FNN9C0","ACON9O9NMFOHE","30UZJB2POHY4464FN6NBJ2NLFWF354","","null","<img src=""img/food1.png"" style=""width:200px; border:14px solid green;"">","null","","","","","","","","","",""
"","image-keyboard-response","350","175711","0.0-440.0","3PMBY0YE28PD4D04ARGVD4S5FNN9C0","ACON9O9NMFOHE","30UZJB2POHY4464FN6NBJ2NLFWF354","","1009.2000000476837","img/food3.png","76","1009.8999998569489","3","1","","2","1","1,0.5,0,1,0.5,0,0.5,0,1","0.5,0,1,0.5,0,1,0,1,0.5","2",""
"","html-keyboard-response","351","176013","0.0-441.0","3PMBY0YE28PD4D04ARGVD4S5FNN9C0","ACON9O9NMFOHE","30UZJB2POHY4464FN6NBJ2NLFWF354","","null","<img src=""img/food3.png"" style=""width:200px; border:14px solid green;"">","null","","","","","","","","","",""
"","image-keyboard-response","352","176351","0.0-442.0","3PMBY0YE28PD4D04ARGVD4S5FNN9C0","ACON9O9NMFOHE","30UZJB2POHY4464FN6NBJ2NLFWF354","","336.60000014305115","img/food3.png","76","337.59999990463257","3","1","","2","1","1,0.5,0,1,0.5,0,0.5,0,1","0.5,0,1,0.5,0,1,0,1,0.5","2",""
"","html-keyboard-response","353","176653","0.0-443.0","3PMBY0YE28PD4D04ARGVD4S5FNN9C0","ACON9O9NMFOHE","30UZJB2POHY4464FN6NBJ2NLFWF354","","null","<img src=""img/food3.png"" style=""width:200px; border:14px solid green;"">","null","","","","","","","","","",""
"","image-keyboard-response","354","176975","0.0-444.0","3PMBY0YE28PD4D04ARGVD4S5FNN9C0","ACON9O9NMFOHE","30UZJB2POHY4464FN6NBJ2NLFWF354","","320.7999999523163","img/food3.png","76","321.7999999523163","3","1","","2","1","1,0.5,0,1,0.5,0,0.5,0,1","0.5,0,1,0.5,0,1,0,1,0.5","2",""
"","html-keyboard-response","355","177277","0.0-445.0","3PMBY0YE28PD4D04ARGVD4S5FNN9C0","ACON9O9NMFOHE","30UZJB2POHY4464FN6NBJ2NLFWF354","","null","<img src=""img/food3.png"" style=""width:200px; border:14px solid green;"">","null","","","","","","","","","",""
"","image-keyboard-response","356","178127","0.0-446.0","3PMBY0YE28PD4D04ARGVD4S5FNN9C0","ACON9O9NMFOHE","30UZJB2POHY4464FN6NBJ2NLFWF354","","849","img/food2.png","76","849.7000000476837","3","1","","1","1","1,0.5,0,1,0.5,0,0.5,0,1","0.5,0,1,0.5,0,1,0,1,0.5","2",""
"","html-keyboard-response","357","178430","0.0-447.0","3PMBY0YE28PD4D04ARGVD4S5FNN9C0","ACON9O9NMFOHE","30UZJB2POHY4464FN6NBJ2NLFWF354","","null","<img src=""img/food2.png"" style=""width:200px; border:14px solid green;"">","null","","","","","","","","","",""
"","image-keyboard-response","358","178719","0.0-448.0","3PMBY0YE28PD4D04ARGVD4S5FNN9C0","ACON9O9NMFOHE","30UZJB2POHY4464FN6NBJ2NLFWF354","","287.5","img/food2.png","76","288.30000019073486","3","1","","1","1","1,0.5,0,1,0.5,0,0.5,0,1","0.5,0,1,0.5,0,1,0,1,0.5","2",""
"","html-keyboard-response","359","179020","0.0-449.0","3PMBY0YE28PD4D04ARGVD4S5FNN9C0","ACON9O9NMFOHE","30UZJB2POHY4464FN6NBJ2NLFWF354","","null","<img src=""img/food2.png"" style=""width:200px; border:14px solid green;"">","null","","","","","","","","","",""
"","image-keyboard-response","360","179310","0.0-450.0","3PMBY0YE28PD4D04ARGVD4S5FNN9C0","ACON9O9NMFOHE","30UZJB2POHY4464FN6NBJ2NLFWF354","","289.7999999523163","img/food2.png","76","290.60000014305115","3","1","","1","1","1,0.5,0,1,0.5,0,0.5,0,1","0.5,0,1,0.5,0,1,0,1,0.5","2",""
"","html-keyboard-response","361","179612","0.0-451.0","3PMBY0YE28PD4D04ARGVD4S5FNN9C0","ACON9O9NMFOHE","30UZJB2POHY4464FN6NBJ2NLFWF354","","null","<img src=""img/food2.png"" style=""width:200px; border:14px solid green;"">","null","","","","","","","","","",""
"","image-keyboard-response","362","180494","0.0-452.0","3PMBY0YE28PD4D04ARGVD4S5FNN9C0","ACON9O9NMFOHE","30UZJB2POHY4464FN6NBJ2NLFWF354","","880.5","img/food1.png","76","881.5","3","0","","3","1","1,0.5,0,1,0.5,0,0.5,0,1","0.5,0,1,0.5,0,1,0,1,0.5","2",""
"","html-keyboard-response","363","180797","0.0-453.0","3PMBY0YE28PD4D04ARGVD4S5FNN9C0","ACON9O9NMFOHE","30UZJB2POHY4464FN6NBJ2NLFWF354","","null","<img src=""img/food1.png"" style=""width:200px;border:14px solid red;"">","null","","","","","","","","","",""
"","html-keyboard-response","364","183790","0.0-454.0","3PMBY0YE28PD4D04ARGVD4S5FNN9C0","ACON9O9NMFOHE","30UZJB2POHY4464FN6NBJ2NLFWF354","","","","","","","","","","","","","",""
"","instructions","365","186022","0.0-455.0","3PMBY0YE28PD4D04ARGVD4S5FNN9C0","ACON9O9NMFOHE","30UZJB2POHY4464FN6NBJ2NLFWF354","[{""page_index"":0,""viewing_time"":2231}]","2231.4000000953674","","","","","","","","","","","",""
"","survey-text","366","188015","0.0-456.0","3PMBY0YE28PD4D04ARGVD4S5FNN9C0","ACON9O9NMFOHE","30UZJB2POHY4464FN6NBJ2NLFWF354","","1989","","","","","","","","","","","","{""Q0"":""ACON9O9NMFOHE""}"
