"success","trial_type","trial_index","time_elapsed","internal_node_id","assignmentID","mturkID","hitID","view_history","rt","stimulus","key_press","reactionTime","a","r","s","cond","reward_cond","reward_cond_actual","reward_matrix_idx","warning","responses"
"true","fullscreen","0","2294","0.0-0.0","","","","","","","","","","","","","","","","",""
"","instructions","1","18514","0.0-1.0","","","","[{""page_index"":0,""viewing_time"":1588.6999999284744},{""page_index"":1,""viewing_time"":851.4000000953674},{""page_index"":2,""viewing_time"":570.1999999284744},{""page_index"":3,""viewing_time"":5829.100000023842},{""page_index"":4,""viewing_time"":2065.7999999523163},{""page_index"":5,""viewing_time"":3720.9000000953674},{""page_index"":6,""viewing_time"":1588.3999999761581}]","16215.299999952316","","","","","","","","","","","",""
"","image-keyboard-response","2","19148","0.0-2.0","","","","","631.6999999284744","img/food4.png","74","634.2000000476837","1","1","2","1","1,0.7,0,1,0.7,0,0.7,0,1","1,0.7,0,1,0.7,0,0.7,0,1","1","",""
"","html-keyboard-response","3","19461","0.0-3.0","","","","","null","<img src=""img/food4.png"" style=""width:200px; border:14px solid green;"">","null","","","","","","","","","",""
"","image-keyboard-response","4","20260","0.0-4.0","","","","","798","img/food4.png","74","799.3999999761581","1","1","2","1","1,0.7,0,1,0.7,0,0.7,0,1","1,0.7,0,1,0.7,0,0.7,0,1","1","",""
"","html-keyboard-response","5","20574","0.0-5.0","","","","","null","<img src=""img/food4.png"" style=""width:200px; border:14px solid green;"">","null","","","","","","","","","",""
"","image-keyboard-response","6","21037","0.0-6.0","","","","","462","img/food4.png","74","463.2000000476837","1","1","2","1","1,0.7,0,1,0.7,0,0.7,0,1","1,0.7,0,1,0.7,0,0.7,0,1","1","",""
"","html-keyboard-response","7","21354","0.0-7.0","","","","","null","<img src=""img/food4.png"" style=""width:200px; border:14px solid green;"">","null","","","","","","","","","",""
"","image-keyboard-response","8","22092","0.0-8.0","","","","","735.5999999046326","img/food6.png","75","737","2","1","1","1","1,0.7,0,1,0.7,0,0.7,0,1","1,0.7,0,1,0.7,0,0.7,0,1","1","",""
"","html-keyboard-response","9","22400","0.0-9.0","","","","","null","<img src=""img/food6.png"" style=""width:200px; border:14px solid green;"">","null","","","","","","","","","",""
"","image-keyboard-response","10","22829","0.0-10.0","","","","","427","img/food6.png","75","428.2999999523163","2","1","1","1","1,0.7,0,1,0.7,0,0.7,0,1","1,0.7,0,1,0.7,0,0.7,0,1","1","",""
"","html-keyboard-response","11","23132","0.0-11.0","","","","","null","<img src=""img/food6.png"" style=""width:200px; border:14px solid green;"">","null","","","","","","","","","",""
"","image-keyboard-response","12","23708","0.0-12.0","","","","","574","img/food6.png","75","575.6000000238419","2","0","1","1","1,0.7,0,1,0.7,0,0.7,0,1","1,0.7,0,1,0.7,0,0.7,0,1","1","",""
"","html-keyboard-response","13","24012","0.0-13.0","","","","","null","<img src=""img/food6.png"" style=""width:200px;border:14px solid red;"">","null","","","","","","","","","",""
"","image-keyboard-response","14","24732","0.0-14.0","","","","","718.1000000238419","img/food3.png","76","719.8000000715256","3","1","3","1","1,0.7,0,1,0.7,0,0.7,0,1","1,0.7,0,1,0.7,0,0.7,0,1","1","",""
"","html-keyboard-response","15","25054","0.0-15.0","","","","","null","<img src=""img/food3.png"" style=""width:200px; border:14px solid green;"">","null","","","","","","","","","",""
"","image-keyboard-response","16","25804","0.0-16.0","","","","","748.1000000238419","img/food6.png","75","749.8999999761581","2","1","1","1","1,0.7,0,1,0.7,0,0.7,0,1","1,0.7,0,1,0.7,0,0.7,0,1","1","",""
"","html-keyboard-response","17","26114","0.0-17.0","","","","","null","<img src=""img/food6.png"" style=""width:200px; border:14px solid green;"">","null","","","","","","","","","",""
"","image-keyboard-response","18","26788","0.0-18.0","","","","","671.8000000715256","img/food4.png","74","673.3000000715256","1","1","2","1","1,0.7,0,1,0.7,0,0.7,0,1","1,0.7,0,1,0.7,0,0.7,0,1","1","",""
"","html-keyboard-response","19","27094","0.0-19.0","","","","","null","<img src=""img/food4.png"" style=""width:200px; border:14px solid green;"">","null","","","","","","","","","",""
"","image-keyboard-response","20","27685","0.0-20.0","","","","","588.7000000476837","img/food4.png","74","590.3999999761581","1","1","2","1","1,0.7,0,1,0.7,0,0.7,0,1","1,0.7,0,1,0.7,0,0.7,0,1","1","",""
"","html-keyboard-response","21","27988","0.0-21.0","","","","","null","<img src=""img/food4.png"" style=""width:200px; border:14px solid green;"">","null","","","","","","","","","",""
"","image-keyboard-response","22","28604","0.0-22.0","","","","","614.6000000238419","img/food6.png","75","615.9000000953674","2","1","1","1","1,0.7,0,1,0.7,0,0.7,0,1","1,0.7,0,1,0.7,0,0.7,0,1","1","",""
"","html-keyboard-response","23","28906","0.0-23.0","","","","","null","<img src=""img/food6.png"" style=""width:200px; border:14px solid green;"">","null","","","","","","","","","",""
"","image-keyboard-response","24","29580","0.0-24.0","","","","","672.9000000953674","img/food4.png","74","674.1000000238419","1","1","2","1","1,0.7,0,1,0.7,0,0.7,0,1","1,0.7,0,1,0.7,0,0.7,0,1","1","",""
"","html-keyboard-response","25","29882","0.0-25.0","","","","","null","<img src=""img/food4.png"" style=""width:200px; border:14px solid green;"">","null","","","","","","","","","",""
"","image-keyboard-response","26","30260","0.0-26.0","","","","","376.60000002384186","img/food4.png","74","377.90000009536743","1","1","2","1","1,0.7,0,1,0.7,0,0.7,0,1","1,0.7,0,1,0.7,0,0.7,0,1","1","",""
"","html-keyboard-response","27","30564","0.0-27.0","","","","","null","<img src=""img/food4.png"" style=""width:200px; border:14px solid green;"">","null","","","","","","","","","",""
"","image-keyboard-response","28","31269","0.0-28.0","","","","","703.6000000238419","img/food3.png","76","705","3","1","3","1","1,0.7,0,1,0.7,0,0.7,0,1","1,0.7,0,1,0.7,0,0.7,0,1","1","",""
"","html-keyboard-response","29","31571","0.0-29.0","","","","","null","<img src=""img/food3.png"" style=""width:200px; border:14px solid green;"">","null","","","","","","","","","",""
"","image-keyboard-response","30","32100","0.0-30.0","","","","","527.7000000476837","img/food4.png","74","529","1","1","2","1","1,0.7,0,1,0.7,0,0.7,0,1","1,0.7,0,1,0.7,0,0.7,0,1","1","",""
"","html-keyboard-response","31","32402","0.0-31.0","","","","","null","<img src=""img/food4.png"" style=""width:200px; border:14px solid green;"">","null","","","","","","","","","",""
"","image-keyboard-response","32","33188","0.0-32.0","","","","","785","img/food3.png","76","786","3","1","3","1","1,0.7,0,1,0.7,0,0.7,0,1","1,0.7,0,1,0.7,0,0.7,0,1","1","",""
"","html-keyboard-response","33","33491","0.0-33.0","","","","","null","<img src=""img/food3.png"" style=""width:200px; border:14px solid green;"">","null","","","","","","","","","",""
"","image-keyboard-response","34","33852","0.0-34.0","","","","","359.8000000715256","img/food3.png","76","361","3","1","3","1","1,0.7,0,1,0.7,0,0.7,0,1","1,0.7,0,1,0.7,0,0.7,0,1","1","",""
"","html-keyboard-response","35","34154","0.0-35.0","","","","","null","<img src=""img/food3.png"" style=""width:200px; border:14px solid green;"">","null","","","","","","","","","",""
"","image-keyboard-response","36","34500","0.0-36.0","","","","","343.7000000476837","img/food3.png","76","345.10000002384186","3","1","3","1","1,0.7,0,1,0.7,0,0.7,0,1","1,0.7,0,1,0.7,0,0.7,0,1","1","",""
"","html-keyboard-response","37","34802","0.0-37.0","","","","","null","<img src=""img/food3.png"" style=""width:200px; border:14px solid green;"">","null","","","","","","","","","",""
"","image-keyboard-response","38","35444","0.0-38.0","","","","","640.6000000238419","img/food4.png","74","642.1000000238419","1","1","2","1","1,0.7,0,1,0.7,0,0.7,0,1","1,0.7,0,1,0.7,0,0.7,0,1","1","",""
"","html-keyboard-response","39","35747","0.0-39.0","","","","","null","<img src=""img/food4.png"" style=""width:200px; border:14px solid green;"">","null","","","","","","","","","",""
"","image-keyboard-response","40","36060","0.0-40.0","","","","","311.89999997615814","img/food4.png","74","313.10000002384186","1","1","2","1","1,0.7,0,1,0.7,0,0.7,0,1","1,0.7,0,1,0.7,0,0.7,0,1","1","",""
"","html-keyboard-response","41","36363","0.0-41.0","","","","","null","<img src=""img/food4.png"" style=""width:200px; border:14px solid green;"">","null","","","","","","","","","",""
"","image-keyboard-response","42","36900","0.0-42.0","","","","","536.1000000238419","img/food6.png","75","537.2999999523163","2","1","1","1","1,0.7,0,1,0.7,0,0.7,0,1","1,0.7,0,1,0.7,0,0.7,0,1","1","",""
"","html-keyboard-response","43","37202","0.0-43.0","","","","","null","<img src=""img/food6.png"" style=""width:200px; border:14px solid green;"">","null","","","","","","","","","",""
"","image-keyboard-response","44","37508","0.0-44.0","","","","","305.2000000476837","img/food4.png","75","306.2999999523163","2","1","2","1","1,0.7,0,1,0.7,0,0.7,0,1","1,0.7,0,1,0.7,0,0.7,0,1","1","",""
"","html-keyboard-response","45","37811","0.0-45.0","","","","","null","<img src=""img/food4.png"" style=""width:200px; border:14px solid green;"">","null","","","","","","","","","",""
"","image-keyboard-response","46","38724","0.0-46.0","","","","","911.1000000238419","img/food3.png","76","912.3999999761581","3","1","3","1","1,0.7,0,1,0.7,0,0.7,0,1","1,0.7,0,1,0.7,0,0.7,0,1","1","",""
"","html-keyboard-response","47","39027","0.0-47.0","","","","","null","<img src=""img/food3.png"" style=""width:200px; border:14px solid green;"">","null","","","","","","","","","",""
"","image-keyboard-response","48","39444","0.0-48.0","","","","","415.60000002384186","img/food3.png","76","416.7999999523163","3","1","3","1","1,0.7,0,1,0.7,0,0.7,0,1","1,0.7,0,1,0.7,0,0.7,0,1","1","",""
"","html-keyboard-response","49","39746","0.0-49.0","","","","","null","<img src=""img/food3.png"" style=""width:200px; border:14px solid green;"">","null","","","","","","","","","",""
"","image-keyboard-response","50","40413","0.0-50.0","","","","","665.5999999046326","img/food6.png","75","666.5","2","0","1","1","1,0.7,0,1,0.7,0,0.7,0,1","1,0.7,0,1,0.7,0,0.7,0,1","1","",""
"","html-keyboard-response","51","40715","0.0-51.0","","","","","null","<img src=""img/food6.png"" style=""width:200px;border:14px solid red;"">","null","","","","","","","","","",""
"","image-keyboard-response","52","41549","0.0-52.0","","","","","832.3999999761581","img/food3.png","76","833.5","3","1","3","1","1,0.7,0,1,0.7,0,0.7,0,1","1,0.7,0,1,0.7,0,0.7,0,1","1","",""
"","html-keyboard-response","53","41851","0.0-53.0","","","","","null","<img src=""img/food3.png"" style=""width:200px; border:14px solid green;"">","null","","","","","","","","","",""
"","image-keyboard-response","54","42404","0.0-54.0","","","","","551.6000000238419","img/food4.png","74","552.7000000476837","1","1","2","1","1,0.7,0,1,0.7,0,0.7,0,1","1,0.7,0,1,0.7,0,0.7,0,1","1","",""
"","html-keyboard-response","55","42708","0.0-55.0","","","","","null","<img src=""img/food4.png"" style=""width:200px; border:14px solid green;"">","null","","","","","","","","","",""
"","image-keyboard-response","56","43564","0.0-56.0","","","","","855","img/food6.png","75","856.5","2","0","1","1","1,0.7,0,1,0.7,0,0.7,0,1","1,0.7,0,1,0.7,0,0.7,0,1","1","",""
"","html-keyboard-response","57","43867","0.0-57.0","","","","","null","<img src=""img/food6.png"" style=""width:200px;border:14px solid red;"">","null","","","","","","","","","",""
"","image-keyboard-response","58","44571","0.0-58.0","","","","","703.3999999761581","img/food4.png","74","704.5999999046326","1","1","2","1","1,0.7,0,1,0.7,0,0.7,0,1","1,0.7,0,1,0.7,0,0.7,0,1","1","",""
"","html-keyboard-response","59","44874","0.0-59.0","","","","","null","<img src=""img/food4.png"" style=""width:200px; border:14px solid green;"">","null","","","","","","","","","",""
"","image-keyboard-response","60","45612","0.0-60.0","","","","","737.1000000238419","img/food6.png","76","738.2000000476837","3","0","1","1","1,0.7,0,1,0.7,0,0.7,0,1","1,0.7,0,1,0.7,0,0.7,0,1","1","",""
"","html-keyboard-response","61","45915","0.0-61.0","","","","","null","<img src=""img/food6.png"" style=""width:200px;border:14px solid red;"">","null","","","","","","","","","",""
"","image-keyboard-response","62","46500","0.0-62.0","","","","","582.9000000953674","img/food6.png","75","584.1000000238419","2","0","1","1","1,0.7,0,1,0.7,0,0.7,0,1","1,0.7,0,1,0.7,0,0.7,0,1","1","",""
"","html-keyboard-response","63","46801","0.0-63.0","","","","","null","<img src=""img/food6.png"" style=""width:200px;border:14px solid red;"">","null","","","","","","","","","",""
"","image-keyboard-response","64","47060","0.0-64.0","","","","","256.89999997615814","img/food6.png","74","258.39999997615814","1","1","1","1","1,0.7,0,1,0.7,0,0.7,0,1","1,0.7,0,1,0.7,0,0.7,0,1","1","",""
"","html-keyboard-response","65","47363","0.0-65.0","","","","","null","<img src=""img/food6.png"" style=""width:200px; border:14px solid green;"">","null","","","","","","","","","",""
"","image-keyboard-response","66","48429","0.0-66.0","","","","","1064.7000000476837","img/food3.png","76","1065.7999999523163","3","1","3","1","1,0.7,0,1,0.7,0,0.7,0,1","1,0.7,0,1,0.7,0,0.7,0,1","1","",""
"","html-keyboard-response","67","48731","0.0-67.0","","","","","null","<img src=""img/food3.png"" style=""width:200px; border:14px solid green;"">","null","","","","","","","","","",""
"","image-keyboard-response","68","49276","0.0-68.0","","","","","543.6000000238419","img/food3.png","76","544.6000000238419","3","1","3","1","1,0.7,0,1,0.7,0,0.7,0,1","1,0.7,0,1,0.7,0,0.7,0,1","1","",""
"","html-keyboard-response","69","49578","0.0-69.0","","","","","null","<img src=""img/food3.png"" style=""width:200px; border:14px solid green;"">","null","","","","","","","","","",""
"","image-keyboard-response","70","50148","0.0-70.0","","","","","568.6000000238419","img/food4.png","74","569.8999999761581","1","1","2","1","1,0.7,0,1,0.7,0,0.7,0,1","1,0.7,0,1,0.7,0,0.7,0,1","1","",""
"","html-keyboard-response","71","50459","0.0-71.0","","","","","null","<img src=""img/food4.png"" style=""width:200px; border:14px solid green;"">","null","","","","","","","","","",""
"","image-keyboard-response","72","51076","0.0-72.0","","","","","616.2999999523163","img/food3.png","74","617.2999999523163","1","0","3","1","1,0.7,0,1,0.7,0,0.7,0,1","1,0.7,0,1,0.7,0,0.7,0,1","1","",""
"","html-keyboard-response","73","51379","0.0-73.0","","","","","null","<img src=""img/food3.png"" style=""width:200px;border:14px solid red;"">","null","","","","","","","","","",""
"","image-keyboard-response","74","52037","0.0-74.0","","","","","656.1999999284744","img/food3.png","76","657.5","3","1","3","1","1,0.7,0,1,0.7,0,0.7,0,1","1,0.7,0,1,0.7,0,0.7,0,1","1","",""
"","html-keyboard-response","75","52339","0.0-75.0","","","","","null","<img src=""img/food3.png"" style=""width:200px; border:14px solid green;"">","null","","","","","","","","","",""
"","image-keyboard-response","76","52820","0.0-76.0","","","","","479.7000000476837","img/food3.png","76","481.2000000476837","3","1","3","1","1,0.7,0,1,0.7,0,0.7,0,1","1,0.7,0,1,0.7,0,0.7,0,1","1","",""
"","html-keyboard-response","77","53123","0.0-77.0","","","","","null","<img src=""img/food3.png"" style=""width:200px; border:14px solid green;"">","null","","","","","","","","","",""
"","image-keyboard-response","78","54324","0.0-78.0","","","","","1199.7999999523163","img/food6.png","75","1201.1000000238419","2","0","1","1","1,0.7,0,1,0.7,0,0.7,0,1","1,0.7,0,1,0.7,0,0.7,0,1","1","",""
"","html-keyboard-response","79","54627","0.0-79.0","","","","","null","<img src=""img/food6.png"" style=""width:200px;border:14px solid red;"">","null","","","","","","","","","",""
"","image-keyboard-response","80","55268","0.0-80.0","","","","","638","img/food4.png","74","640.3999999761581","1","1","2","1","1,0.7,0,1,0.7,0,0.7,0,1","1,0.7,0,1,0.7,0,0.7,0,1","1","",""
"","html-keyboard-response","81","55570","0.0-81.0","","","","","null","<img src=""img/food4.png"" style=""width:200px; border:14px solid green;"">","null","","","","","","","","","",""
"","image-keyboard-response","82","56252","0.0-82.0","","","","","680","img/food3.png","76","681.3999999761581","3","1","3","1","1,0.7,0,1,0.7,0,0.7,0,1","1,0.7,0,1,0.7,0,0.7,0,1","1","",""
"","html-keyboard-response","83","56555","0.0-83.0","","","","","null","<img src=""img/food3.png"" style=""width:200px; border:14px solid green;"">","null","","","","","","","","","",""
"","image-keyboard-response","84","57651","0.0-84.0","","","","","1095.3999999761581","img/food3.png","76","1096.3999999761581","3","1","3","1","1,0.7,0,1,0.7,0,0.7,0,1","1,0.7,0,1,0.7,0,0.7,0,1","1","",""
"","html-keyboard-response","85","57954","0.0-85.0","","","","","null","<img src=""img/food3.png"" style=""width:200px; border:14px solid green;"">","null","","","","","","","","","",""
"","image-keyboard-response","86","59123","0.0-86.0","","","","","1167.7000000476837","img/food6.png","74","1168.6999999284744","1","1","1","1","1,0.7,0,1,0.7,0,0.7,0,1","1,0.7,0,1,0.7,0,0.7,0,1","1","",""
"","html-keyboard-response","87","59425","0.0-87.0","","","","","null","<img src=""img/food6.png"" style=""width:200px; border:14px solid green;"">","null","","","","","","","","","",""
"","image-keyboard-response","88","60196","0.0-88.0","","","","","769.1000000238419","img/food3.png","76","770.8999999761581","3","1","3","1","1,0.7,0,1,0.7,0,0.7,0,1","1,0.7,0,1,0.7,0,0.7,0,1","1","",""
"","html-keyboard-response","89","60509","0.0-89.0","","","","","null","<img src=""img/food3.png"" style=""width:200px; border:14px solid green;"">","null","","","","","","","","","",""
"","image-keyboard-response","90","61339","0.0-90.0","","","","","828.7999999523163","img/food6.png","74","830.1000000238419","1","1","1","1","1,0.7,0,1,0.7,0,0.7,0,1","1,0.7,0,1,0.7,0,0.7,0,1","1","",""
"","html-keyboard-response","91","61642","0.0-91.0","","","","","null","<img src=""img/food6.png"" style=""width:200px; border:14px solid green;"">","null","","","","","","","","","",""
"","image-keyboard-response","92","62675","0.0-92.0","","","","","1031.3999999761581","img/food3.png","76","1032.6000000238419","3","1","3","1","1,0.7,0,1,0.7,0,0.7,0,1","1,0.7,0,1,0.7,0,0.7,0,1","1","",""
"","html-keyboard-response","93","62977","0.0-93.0","","","","","null","<img src=""img/food3.png"" style=""width:200px; border:14px solid green;"">","null","","","","","","","","","",""
"","image-keyboard-response","94","63579","0.0-94.0","","","","","600.8999999761581","img/food3.png","76","602.2999999523163","3","1","3","1","1,0.7,0,1,0.7,0,0.7,0,1","1,0.7,0,1,0.7,0,0.7,0,1","1","",""
"","html-keyboard-response","95","63882","0.0-95.0","","","","","null","<img src=""img/food3.png"" style=""width:200px; border:14px solid green;"">","null","","","","","","","","","",""
"","image-keyboard-response","96","64291","0.0-96.0","","","","","407.89999997615814","img/food3.png","76","409.39999997615814","3","1","3","1","1,0.7,0,1,0.7,0,0.7,0,1","1,0.7,0,1,0.7,0,0.7,0,1","1","",""
"","html-keyboard-response","97","64605","0.0-97.0","","","","","null","<img src=""img/food3.png"" style=""width:200px; border:14px solid green;"">","null","","","","","","","","","",""
"","image-keyboard-response","98","64947","0.0-98.0","","","","","340.2999999523163","img/food3.png","76","341.7999999523163","3","1","3","1","1,0.7,0,1,0.7,0,0.7,0,1","1,0.7,0,1,0.7,0,0.7,0,1","1","",""
"","html-keyboard-response","99","65250","0.0-99.0","","","","","null","<img src=""img/food3.png"" style=""width:200px; border:14px solid green;"">","null","","","","","","","","","",""
"","image-keyboard-response","100","65652","0.0-100.0","","","","","400","img/food3.png","76","401.3000000715256","3","1","3","1","1,0.7,0,1,0.7,0,0.7,0,1","1,0.7,0,1,0.7,0,0.7,0,1","1","",""
"","html-keyboard-response","101","65954","0.0-101.0","","","","","null","<img src=""img/food3.png"" style=""width:200px; border:14px solid green;"">","null","","","","","","","","","",""
"","image-keyboard-response","102","66387","0.0-102.0","","","","","431.2999999523163","img/food4.png","74","432.59999990463257","1","1","2","1","1,0.7,0,1,0.7,0,0.7,0,1","1,0.7,0,1,0.7,0,0.7,0,1","1","",""
"","html-keyboard-response","103","66689","0.0-103.0","","","","","null","<img src=""img/food4.png"" style=""width:200px; border:14px solid green;"">","null","","","","","","","","","",""
"","image-keyboard-response","104","67419","0.0-104.0","","","","","728.6000000238419","img/food3.png","76","729.6999999284744","3","1","3","1","1,0.7,0,1,0.7,0,0.7,0,1","1,0.7,0,1,0.7,0,0.7,0,1","1","",""
"","html-keyboard-response","105","67721","0.0-105.0","","","","","null","<img src=""img/food3.png"" style=""width:200px; border:14px solid green;"">","null","","","","","","","","","",""
"","image-keyboard-response","106","68411","0.0-106.0","","","","","687.8999999761581","img/food6.png","74","689.1000000238419","1","1","1","1","1,0.7,0,1,0.7,0,0.7,0,1","1,0.7,0,1,0.7,0,0.7,0,1","1","",""
"","html-keyboard-response","107","68721","0.0-107.0","","","","","null","<img src=""img/food6.png"" style=""width:200px; border:14px solid green;"">","null","","","","","","","","","",""
"","image-keyboard-response","108","69171","0.0-108.0","","","","","449.09999990463257","img/food4.png","74","450.2000000476837","1","1","2","1","1,0.7,0,1,0.7,0,0.7,0,1","1,0.7,0,1,0.7,0,0.7,0,1","1","",""
"","html-keyboard-response","109","69478","0.0-109.0","","","","","null","<img src=""img/food4.png"" style=""width:200px; border:14px solid green;"">","null","","","","","","","","","",""
"","image-keyboard-response","110","69843","0.0-110.0","","","","","363.5","img/food4.png","74","364.7000000476837","1","1","2","1","1,0.7,0,1,0.7,0,0.7,0,1","1,0.7,0,1,0.7,0,0.7,0,1","1","",""
"","html-keyboard-response","111","70146","0.0-111.0","","","","","null","<img src=""img/food4.png"" style=""width:200px; border:14px solid green;"">","null","","","","","","","","","",""
"","image-keyboard-response","112","70715","0.0-112.0","","","","","567.5","img/food3.png","76","568.7000000476837","3","1","3","1","1,0.7,0,1,0.7,0,0.7,0,1","1,0.7,0,1,0.7,0,0.7,0,1","1","",""
"","html-keyboard-response","113","71018","0.0-113.0","","","","","null","<img src=""img/food3.png"" style=""width:200px; border:14px solid green;"">","null","","","","","","","","","",""
"","image-keyboard-response","114","71395","0.0-114.0","","","","","376.1999999284744","img/food6.png","74","377.5","1","1","1","1","1,0.7,0,1,0.7,0,0.7,0,1","1,0.7,0,1,0.7,0,0.7,0,1","1","",""
"","html-keyboard-response","115","71697","0.0-115.0","","","","","null","<img src=""img/food6.png"" style=""width:200px; border:14px solid green;"">","null","","","","","","","","","",""
"","image-keyboard-response","116","72172","0.0-116.0","","","","","472.7999999523163","img/food6.png","74","474.1999999284744","1","1","1","1","1,0.7,0,1,0.7,0,0.7,0,1","1,0.7,0,1,0.7,0,0.7,0,1","1","",""
"","html-keyboard-response","117","72475","0.0-117.0","","","","","null","<img src=""img/food6.png"" style=""width:200px; border:14px solid green;"">","null","","","","","","","","","",""
"","image-keyboard-response","118","72876","0.0-118.0","","","","","399.60000002384186","img/food4.png","74","400.7000000476837","1","1","2","1","1,0.7,0,1,0.7,0,0.7,0,1","1,0.7,0,1,0.7,0,0.7,0,1","1","",""
"","html-keyboard-response","119","73178","0.0-119.0","","","","","null","<img src=""img/food4.png"" style=""width:200px; border:14px solid green;"">","null","","","","","","","","","",""
"","image-keyboard-response","120","73635","0.0-120.0","","","","","455.6999999284744","img/food6.png","74","457.09999990463257","1","1","1","1","1,0.7,0,1,0.7,0,0.7,0,1","1,0.7,0,1,0.7,0,0.7,0,1","1","",""
"","html-keyboard-response","121","73937","0.0-121.0","","","","","null","<img src=""img/food6.png"" style=""width:200px; border:14px solid green;"">","null","","","","","","","","","",""
"","image-keyboard-response","122","74243","0.0-122.0","","","","","304.09999990463257","img/food6.png","74","305.5","1","1","1","1","1,0.7,0,1,0.7,0,0.7,0,1","1,0.7,0,1,0.7,0,0.7,0,1","1","",""
"","html-keyboard-response","123","74546","0.0-123.0","","","","","null","<img src=""img/food6.png"" style=""width:200px; border:14px solid green;"">","null","","","","","","","","","",""
"","image-keyboard-response","124","74931","0.0-124.0","","","","","383.90000009536743","img/food4.png","74","385.1999999284744","1","1","2","1","1,0.7,0,1,0.7,0,0.7,0,1","1,0.7,0,1,0.7,0,0.7,0,1","1","",""
"","html-keyboard-response","125","75233","0.0-125.0","","","","","null","<img src=""img/food4.png"" style=""width:200px; border:14px solid green;"">","null","","","","","","","","","",""
"","image-keyboard-response","126","75691","0.0-126.0","","","","","456.10000002384186","img/food4.png","74","457.40000009536743","1","1","2","1","1,0.7,0,1,0.7,0,0.7,0,1","1,0.7,0,1,0.7,0,0.7,0,1","1","",""
"","html-keyboard-response","127","75993","0.0-127.0","","","","","null","<img src=""img/food4.png"" style=""width:200px; border:14px solid green;"">","null","","","","","","","","","",""
"","image-keyboard-response","128","76483","0.0-128.0","","","","","488.09999990463257","img/food6.png","74","489.3000000715256","1","1","1","1","1,0.7,0,1,0.7,0,0.7,0,1","1,0.7,0,1,0.7,0,0.7,0,1","1","",""
"","html-keyboard-response","129","76784","0.0-129.0","","","","","null","<img src=""img/food6.png"" style=""width:200px; border:14px solid green;"">","null","","","","","","","","","",""
"","image-keyboard-response","130","77155","0.0-130.0","","","","","369.3000000715256","img/food4.png","74","370.60000002384186","1","1","2","1","1,0.7,0,1,0.7,0,0.7,0,1","1,0.7,0,1,0.7,0,0.7,0,1","1","",""
"","html-keyboard-response","131","77458","0.0-131.0","","","","","null","<img src=""img/food4.png"" style=""width:200px; border:14px solid green;"">","null","","","","","","","","","",""
"","image-keyboard-response","132","77883","0.0-132.0","","","","","423.7999999523163","img/food6.png","74","425.1999999284744","1","1","1","1","1,0.7,0,1,0.7,0,0.7,0,1","1,0.7,0,1,0.7,0,0.7,0,1","1","",""
"","html-keyboard-response","133","78186","0.0-133.0","","","","","null","<img src=""img/food6.png"" style=""width:200px; border:14px solid green;"">","null","","","","","","","","","",""
"","image-keyboard-response","134","78411","0.0-134.0","","","","","223.80000007152557","img/food3.png","74","225.30000007152557","1","1","3","1","1,0.7,0,1,0.7,0,0.7,0,1","1,0.7,0,1,0.7,0,0.7,0,1","1","",""
"","html-keyboard-response","135","78714","0.0-135.0","","","","","null","<img src=""img/food3.png"" style=""width:200px; border:14px solid green;"">","null","","","","","","","","","",""
"","image-keyboard-response","136","79587","0.0-136.0","","","","","872.3999999761581","img/food3.png","76","873.5","3","1","3","1","1,0.7,0,1,0.7,0,0.7,0,1","1,0.7,0,1,0.7,0,0.7,0,1","1","",""
"","html-keyboard-response","137","79890","0.0-137.0","","","","","null","<img src=""img/food3.png"" style=""width:200px; border:14px solid green;"">","null","","","","","","","","","",""
"","image-keyboard-response","138","80307","0.0-138.0","","","","","415.90000009536743","img/food4.png","74","417.2999999523163","1","1","2","1","1,0.7,0,1,0.7,0,0.7,0,1","1,0.7,0,1,0.7,0,0.7,0,1","1","",""
"","html-keyboard-response","139","80625","0.0-139.0","","","","","null","<img src=""img/food4.png"" style=""width:200px; border:14px solid green;"">","null","","","","","","","","","",""
"","image-keyboard-response","140","80947","0.0-140.0","","","","","321","img/food4.png","74","322","1","1","2","1","1,0.7,0,1,0.7,0,0.7,0,1","1,0.7,0,1,0.7,0,0.7,0,1","1","",""
"","html-keyboard-response","141","81249","0.0-141.0","","","","","null","<img src=""img/food4.png"" style=""width:200px; border:14px solid green;"">","null","","","","","","","","","",""
"","image-keyboard-response","142","81627","0.0-142.0","","","","","376.40000009536743","img/food6.png","74","377.60000002384186","1","1","1","1","1,0.7,0,1,0.7,0,0.7,0,1","1,0.7,0,1,0.7,0,0.7,0,1","1","",""
"","html-keyboard-response","143","81929","0.0-143.0","","","","","null","<img src=""img/food6.png"" style=""width:200px; border:14px solid green;"">","null","","","","","","","","","",""
"","image-keyboard-response","144","82339","0.0-144.0","","","","","408.2999999523163","img/food3.png","74","409.5","1","0","3","1","1,0.7,0,1,0.7,0,0.7,0,1","1,0.7,0,1,0.7,0,0.7,0,1","1","",""
"","html-keyboard-response","145","82641","0.0-145.0","","","","","null","<img src=""img/food3.png"" style=""width:200px;border:14px solid red;"">","null","","","","","","","","","",""
"","image-keyboard-response","146","84663","0.0-146.0","","","","","","img/food6.png","","2021","-1","0","1","1","1,0.7,0,1,0.7,0,0.7,0,1","1,0.7,0,1,0.7,0,0.7,0,1","1","",""
"","html-keyboard-response","147","84964","0.0-147.0","","","","","null","<img src=""img/food6.png"" style=""width:200px;border:14px solid red;"">","null","","","","","","","","","",""
"","image-keyboard-response","148","85795","0.0-148.0","","","","","829.6000000238419","img/food4.png","74","830.8999999761581","1","1","2","1","1,0.7,0,1,0.7,0,0.7,0,1","1,0.7,0,1,0.7,0,0.7,0,1","1","",""
"","html-keyboard-response","149","86098","0.0-149.0","","","","","null","<img src=""img/food4.png"" style=""width:200px; border:14px solid green;"">","null","","","","","","","","","",""
"","image-keyboard-response","150","86547","0.0-150.0","","","","","447.7000000476837","img/food4.png","74","449","1","1","2","1","1,0.7,0,1,0.7,0,0.7,0,1","1,0.7,0,1,0.7,0,0.7,0,1","1","",""
"","html-keyboard-response","151","86850","0.0-151.0","","","","","null","<img src=""img/food4.png"" style=""width:200px; border:14px solid green;"">","null","","","","","","","","","",""
"","image-keyboard-response","152","87379","0.0-152.0","","","","","528","img/food3.png","76","529.1000000238419","3","1","3","1","1,0.7,0,1,0.7,0,0.7,0,1","1,0.7,0,1,0.7,0,0.7,0,1","1","",""
"","html-keyboard-response","153","87681","0.0-153.0","","","","","null","<img src=""img/food3.png"" style=""width:200px; border:14px solid green;"">","null","","","","","","","","","",""
"","image-keyboard-response","154","88155","0.0-154.0","","","","","471.89999997615814","img/food4.png","74","473.3000000715256","1","1","2","1","1,0.7,0,1,0.7,0,0.7,0,1","1,0.7,0,1,0.7,0,0.7,0,1","1","",""
"","html-keyboard-response","155","88458","0.0-155.0","","","","","null","<img src=""img/food4.png"" style=""width:200px; border:14px solid green;"">","null","","","","","","","","","",""
"","image-keyboard-response","156","89059","0.0-156.0","","","","","599.2000000476837","img/food6.png","74","600.8999999761581","1","1","1","1","1,0.7,0,1,0.7,0,0.7,0,1","1,0.7,0,1,0.7,0,0.7,0,1","1","",""
"","html-keyboard-response","157","89362","0.0-157.0","","","","","null","<img src=""img/food6.png"" style=""width:200px; border:14px solid green;"">","null","","","","","","","","","",""
"","image-keyboard-response","158","89659","0.0-158.0","","","","","295.8000000715256","img/food6.png","74","297.10000002384186","1","1","1","1","1,0.7,0,1,0.7,0,0.7,0,1","1,0.7,0,1,0.7,0,0.7,0,1","1","",""
"","html-keyboard-response","159","89961","0.0-159.0","","","","","null","<img src=""img/food6.png"" style=""width:200px; border:14px solid green;"">","null","","","","","","","","","",""
"","image-keyboard-response","160","90602","0.0-160.0","","","","","640.2000000476837","img/food4.png","74","641.3999999761581","1","1","2","1","1,0.7,0,1,0.7,0,0.7,0,1","1,0.7,0,1,0.7,0,0.7,0,1","1","",""
"","html-keyboard-response","161","90905","0.0-161.0","","","","","null","<img src=""img/food4.png"" style=""width:200px; border:14px solid green;"">","null","","","","","","","","","",""
"","image-keyboard-response","162","91363","0.0-162.0","","","","","457.2000000476837","img/food6.png","74","458.3000000715256","1","1","1","1","1,0.7,0,1,0.7,0,0.7,0,1","1,0.7,0,1,0.7,0,0.7,0,1","1","",""
"","html-keyboard-response","163","91666","0.0-163.0","","","","","null","<img src=""img/food6.png"" style=""width:200px; border:14px solid green;"">","null","","","","","","","","","",""
"","image-keyboard-response","164","92291","0.0-164.0","","","","","623.8999999761581","img/food3.png","76","625.3000000715256","3","1","3","1","1,0.7,0,1,0.7,0,0.7,0,1","1,0.7,0,1,0.7,0,0.7,0,1","1","",""
"","html-keyboard-response","165","92593","0.0-165.0","","","","","null","<img src=""img/food3.png"" style=""width:200px; border:14px solid green;"">","null","","","","","","","","","",""
"","image-keyboard-response","166","93051","0.0-166.0","","","","","456.3000000715256","img/food6.png","74","457.60000002384186","1","1","1","1","1,0.7,0,1,0.7,0,0.7,0,1","1,0.7,0,1,0.7,0,0.7,0,1","1","",""
"","html-keyboard-response","167","93354","0.0-167.0","","","","","null","<img src=""img/food6.png"" style=""width:200px; border:14px solid green;"">","null","","","","","","","","","",""
"","image-keyboard-response","168","93746","0.0-168.0","","","","","390.89999997615814","img/food4.png","74","392.10000002384186","1","1","2","1","1,0.7,0,1,0.7,0,0.7,0,1","1,0.7,0,1,0.7,0,0.7,0,1","1","",""
"","html-keyboard-response","169","94048","0.0-169.0","","","","","null","<img src=""img/food4.png"" style=""width:200px; border:14px solid green;"">","null","","","","","","","","","",""
"","image-keyboard-response","170","94299","0.0-170.0","","","","","249.60000002384186","img/food4.png","74","250.80000007152557","1","1","2","1","1,0.7,0,1,0.7,0,0.7,0,1","1,0.7,0,1,0.7,0,0.7,0,1","1","",""
"","html-keyboard-response","171","94602","0.0-171.0","","","","","null","<img src=""img/food4.png"" style=""width:200px; border:14px solid green;"">","null","","","","","","","","","",""
"","image-keyboard-response","172","94995","0.0-172.0","","","","","391.39999997615814","img/food6.png","74","392.89999997615814","1","1","1","1","1,0.7,0,1,0.7,0,0.7,0,1","1,0.7,0,1,0.7,0,0.7,0,1","1","",""
"","html-keyboard-response","173","95298","0.0-173.0","","","","","null","<img src=""img/food6.png"" style=""width:200px; border:14px solid green;"">","null","","","","","","","","","",""
"","image-keyboard-response","174","95707","0.0-174.0","","","","","407.5","img/food3.png","76","408.5","3","1","3","1","1,0.7,0,1,0.7,0,0.7,0,1","1,0.7,0,1,0.7,0,0.7,0,1","1","",""
"","html-keyboard-response","175","96009","0.0-175.0","","","","","null","<img src=""img/food3.png"" style=""width:200px; border:14px solid green;"">","null","","","","","","","","","",""
"","image-keyboard-response","176","96371","0.0-176.0","","","","","361.1999999284744","img/food6.png","74","362.5","1","1","1","1","1,0.7,0,1,0.7,0,0.7,0,1","1,0.7,0,1,0.7,0,0.7,0,1","1","",""
"","html-keyboard-response","177","96674","0.0-177.0","","","","","null","<img src=""img/food6.png"" style=""width:200px; border:14px solid green;"">","null","","","","","","","","","",""
"","image-keyboard-response","178","97003","0.0-178.0","","","","","327.5","img/food6.png","74","328.8000000715256","1","1","1","1","1,0.7,0,1,0.7,0,0.7,0,1","1,0.7,0,1,0.7,0,0.7,0,1","1","",""
"","html-keyboard-response","179","97306","0.0-179.0","","","","","null","<img src=""img/food6.png"" style=""width:200px; border:14px solid green;"">","null","","","","","","","","","",""
"","image-keyboard-response","180","97675","0.0-180.0","","","","","367.39999997615814","img/food3.png","74","368.5","1","1","3","1","1,0.7,0,1,0.7,0,0.7,0,1","1,0.7,0,1,0.7,0,0.7,0,1","1","",""
"","html-keyboard-response","181","97977","0.0-181.0","","","","","null","<img src=""img/food3.png"" style=""width:200px; border:14px solid green;"">","null","","","","","","","","","",""
"","html-keyboard-response","182","100217","0.0-182.0","","","","","","","","","","","","","","","","",""
"","instructions","183","109732","0.0-183.0","","","","[{""page_index"":0,""viewing_time"":8192},{""page_index"":1,""viewing_time"":1321.3000000715256}]","9513.700000047684","","","","","","","","","","","",""
"","image-keyboard-response","184","110299","0.0-184.0","","","","","565.1000000238419","img/food5.png","74","566.7999999523163","1","1","3","2","1,0.7,0,1,0.7,0,0.7,0,1","0,1,0.7,0,1,0.7,1,0.7,0","3","false",""
"","html-keyboard-response","185","110602","0.0-185.0","","","","","null","<img src=""img/food5.png"" style=""width:200px; border:14px solid green;"">","null","","","","","","","","","",""
"","image-keyboard-response","186","110731","0.0-187.0","","","","","126.19999992847443","img/food5.png","74","127.5","1","1","3","2","1,0.7,0,1,0.7,0,0.7,0,1","0,1,0.7,0,1,0.7,1,0.7,0","3","false",""
"","html-keyboard-response","187","111036","0.0-188.0","","","","","null","<img src=""img/food5.png"" style=""width:200px; border:14px solid green;"">","null","","","","","","","","","",""
"","image-keyboard-response","188","111139","0.0-190.0","","","","","101.10000002384186","img/food1.png","74","102.39999997615814","1","0","1","2","1,0.7,0,1,0.7,0,0.7,0,1","0,1,0.7,0,1,0.7,1,0.7,0","3","false",""
"","html-keyboard-response","189","111441","0.0-191.0","","","","","null","<img src=""img/food1.png"" style=""width:200px;border:14px solid red;"">","null","","","","","","","","","",""
"","image-keyboard-response","190","111523","0.0-193.0","","","","","79.79999995231628","img/food1.png","75","81","2","1","1","2","1,0.7,0,1,0.7,0,0.7,0,1","0,1,0.7,0,1,0.7,1,0.7,0","3","false",""
"","html-keyboard-response","191","111826","0.0-194.0","","","","","null","<img src=""img/food1.png"" style=""width:200px; border:14px solid green;"">","null","","","","","","","","","",""
"","image-keyboard-response","192","111970","0.0-196.0","","","","","142.60000002384186","img/food5.png","75","144.10000002384186","2","1","3","2","1,0.7,0,1,0.7,0,0.7,0,1","0,1,0.7,0,1,0.7,1,0.7,0","3","false",""
"","html-keyboard-response","193","112273","0.0-197.0","","","","","null","<img src=""img/food5.png"" style=""width:200px; border:14px solid green;"">","null","","","","","","","","","",""
"","image-keyboard-response","194","112323","0.0-199.0","","","","","47.60000002384186","img/food2.png","76","49","3","1","2","2","1,0.7,0,1,0.7,0,0.7,0,1","0,1,0.7,0,1,0.7,1,0.7,0","3","false",""
"","html-keyboard-response","195","112625","0.0-200.0","","","","","null","<img src=""img/food2.png"" style=""width:200px; border:14px solid green;"">","null","","","","","","","","","",""
"","image-keyboard-response","196","112720","0.0-202.0","","","","","93.80000007152557","img/food2.png","76","94.60000002384186","3","1","2","2","1,0.7,0,1,0.7,0,0.7,0,1","0,1,0.7,0,1,0.7,1,0.7,0","3","false",""
"","html-keyboard-response","197","113022","0.0-203.0","","","","","null","<img src=""img/food2.png"" style=""width:200px; border:14px solid green;"">","null","","","","","","","","","",""
"","image-keyboard-response","198","113083","0.0-205.0","","","","","59.10000002384186","img/food5.png","76","60.5","3","0","3","2","1,0.7,0,1,0.7,0,0.7,0,1","0,1,0.7,0,1,0.7,1,0.7,0","3","false",""
"","html-keyboard-response","199","113386","0.0-206.0","","","","","null","<img src=""img/food5.png"" style=""width:200px;border:14px solid red;"">","null","","","","","","","","","",""
"","image-keyboard-response","200","113490","0.0-208.0","","","","","102.80000007152557","img/food2.png","76","103.69999992847443","3","1","2","2","1,0.7,0,1,0.7,0,0.7,0,1","0,1,0.7,0,1,0.7,1,0.7,0","3","false",""
"","html-keyboard-response","201","113793","0.0-209.0","","","","","null","<img src=""img/food2.png"" style=""width:200px; border:14px solid green;"">","null","","","","","","","","","",""
"","image-keyboard-response","202","113795","0.0-211.0","","","","","0.19999992847442627","img/food2.png","74","1.7000000476837158","1","0","2","2","1,0.7,0,1,0.7,0,0.7,0,1","0,1,0.7,0,1,0.7,1,0.7,0","3","false",""
"","html-keyboard-response","203","114098","0.0-212.0","","","","","null","<img src=""img/food2.png"" style=""width:200px;border:14px solid red;"">","null","","","","","","","","","",""
"","image-keyboard-response","204","114187","0.0-214.0","","","","","87.29999995231628","img/food5.png","74","88.79999995231628","1","1","3","2","1,0.7,0,1,0.7,0,0.7,0,1","0,1,0.7,0,1,0.7,1,0.7,0","3","false",""
"","html-keyboard-response","205","114490","0.0-215.0","","","","","null","<img src=""img/food5.png"" style=""width:200px; border:14px solid green;"">","null","","","","","","","","","",""
"","image-keyboard-response","206","114595","0.0-217.0","","","","","102.79999995231628","img/food5.png","74","104.5","1","1","3","2","1,0.7,0,1,0.7,0,0.7,0,1","0,1,0.7,0,1,0.7,1,0.7,0","3","false",""
"","html-keyboard-response","207","114898","0.0-218.0","","","","","null","<img src=""img/food5.png"" style=""width:200px; border:14px solid green;"">","null","","","","","","","","","",""
"","image-keyboard-response","208","114955","0.0-220.0","","","","","55.299999952316284","img/food2.png","74","56.799999952316284","1","0","2","2","1,0.7,0,1,0.7,0,0.7,0,1","0,1,0.7,0,1,0.7,1,0.7,0","3","false",""
"","html-keyboard-response","209","115257","0.0-221.0","","","","","null","<img src=""img/food2.png"" style=""width:200px;border:14px solid red;"">","null","","","","","","","","","",""
"","image-keyboard-response","210","115323","0.0-223.0","","","","","63.89999997615814","img/food2.png","75","66.39999997615814","2","1","2","2","1,0.7,0,1,0.7,0,0.7,0,1","0,1,0.7,0,1,0.7,1,0.7,0","3","false",""
"","html-keyboard-response","211","115626","0.0-224.0","","","","","null","<img src=""img/food2.png"" style=""width:200px; border:14px solid green;"">","null","","","","","","","","","",""
"","image-keyboard-response","212","115667","0.0-226.0","","","","","39.299999952316284","img/food5.png","75","40.5","2","0","3","2","1,0.7,0,1,0.7,0,0.7,0,1","0,1,0.7,0,1,0.7,1,0.7,0","3","false",""
"","html-keyboard-response","213","115970","0.0-227.0","","","","","null","<img src=""img/food5.png"" style=""width:200px;border:14px solid red;"">","null","","","","","","","","","",""
"","image-keyboard-response","214","115995","0.0-229.0","","","","","23.399999976158142","img/food5.png","75","24.699999928474426","2","0","3","2","1,0.7,0,1,0.7,0,0.7,0,1","0,1,0.7,0,1,0.7,1,0.7,0","3","false",""
"","html-keyboard-response","215","116298","0.0-230.0","","","","","null","<img src=""img/food5.png"" style=""width:200px;border:14px solid red;"">","null","","","","","","","","","",""
"","image-keyboard-response","216","116554","0.0-232.0","","","","","255.20000004768372","img/food5.png","76","256.5","3","0","3","2","1,0.7,0,1,0.7,0,0.7,0,1","0,1,0.7,0,1,0.7,1,0.7,0","3","false",""
"","html-keyboard-response","217","116866","0.0-233.0","","","","","null","<img src=""img/food5.png"" style=""width:200px;border:14px solid red;"">","null","","","","","","","","","",""
"","image-keyboard-response","218","117251","0.0-235.0","","","","","382.6999999284744","img/food1.png","74","384.2999999523163","1","0","1","2","1,0.7,0,1,0.7,0,0.7,0,1","0,1,0.7,0,1,0.7,1,0.7,0","3","false",""
"","html-keyboard-response","219","117572","0.0-236.0","","","","","null","<img src=""img/food1.png"" style=""width:200px;border:14px solid red;"">","null","","","","","","","","","",""
"","image-keyboard-response","220","117675","0.0-238.0","","","","","101.5","img/food5.png","74","102.60000002384186","1","1","3","2","1,0.7,0,1,0.7,0,0.7,0,1","0,1,0.7,0,1,0.7,1,0.7,0","3","false",""
"","html-keyboard-response","221","117977","0.0-239.0","","","","","null","<img src=""img/food5.png"" style=""width:200px; border:14px solid green;"">","null","","","","","","","","","",""
"","image-keyboard-response","222","118051","0.0-241.0","","","","","72.59999990463257","img/food5.png","74","73.89999997615814","1","1","3","2","1,0.7,0,1,0.7,0,0.7,0,1","0,1,0.7,0,1,0.7,1,0.7,0","3","false",""
"","html-keyboard-response","223","118354","0.0-242.0","","","","","null","<img src=""img/food5.png"" style=""width:200px; border:14px solid green;"">","null","","","","","","","","","",""
"","image-keyboard-response","224","118635","0.0-244.0","","","","","279.3000000715256","img/food5.png","75","280.39999997615814","2","1","3","2","1,0.7,0,1,0.7,0,0.7,0,1","0,1,0.7,0,1,0.7,1,0.7,0","3","false",""
"","html-keyboard-response","225","118938","0.0-245.0","","","","","null","<img src=""img/food5.png"" style=""width:200px; border:14px solid green;"">","null","","","","","","","","","",""
"","image-keyboard-response","226","118987","0.0-247.0","","","","","47.5","img/food1.png","75","48.59999990463257","2","1","1","2","1,0.7,0,1,0.7,0,0.7,0,1","0,1,0.7,0,1,0.7,1,0.7,0","3","false",""
"","html-keyboard-response","227","119289","0.0-248.0","","","","","null","<img src=""img/food1.png"" style=""width:200px; border:14px solid green;"">","null","","","","","","","","","",""
"","image-keyboard-response","228","119302","0.0-250.0","","","","","11.5","img/food2.png","75","12.5","2","1","2","2","1,0.7,0,1,0.7,0,0.7,0,1","0,1,0.7,0,1,0.7,1,0.7,0","3","false",""
"","html-keyboard-response","229","119604","0.0-251.0","","","","","null","<img src=""img/food2.png"" style=""width:200px; border:14px solid green;"">","null","","","","","","","","","",""
"","image-keyboard-response","230","119619","0.0-253.0","","","","","13.899999976158142","img/food1.png","75","15","2","1","1","2","1,0.7,0,1,0.7,0,0.7,0,1","0,1,0.7,0,1,0.7,1,0.7,0","3","false",""
"","html-keyboard-response","231","119921","0.0-254.0","","","","","null","<img src=""img/food1.png"" style=""width:200px; border:14px solid green;"">","null","","","","","","","","","",""
"","image-keyboard-response","232","120155","0.0-256.0","","","","","232.30000007152557","img/food2.png","74","233.60000002384186","1","0","2","2","1,0.7,0,1,0.7,0,0.7,0,1","0,1,0.7,0,1,0.7,1,0.7,0","3","false",""
"","html-keyboard-response","233","120458","0.0-257.0","","","","","null","<img src=""img/food2.png"" style=""width:200px;border:14px solid red;"">","null","","","","","","","","","",""
"","image-keyboard-response","234","120507","0.0-259.0","","","","","46.5","img/food5.png","74","48.199999928474426","1","1","3","2","1,0.7,0,1,0.7,0,0.7,0,1","0,1,0.7,0,1,0.7,1,0.7,0","3","false",""
"","html-keyboard-response","235","120809","0.0-260.0","","","","","null","<img src=""img/food5.png"" style=""width:200px; border:14px solid green;"">","null","","","","","","","","","",""
"","image-keyboard-response","236","121099","0.0-262.0","","","","","288.5","img/food1.png","75","289.7999999523163","2","1","1","2","1,0.7,0,1,0.7,0,0.7,0,1","0,1,0.7,0,1,0.7,1,0.7,0","3","false",""
"","html-keyboard-response","237","121401","0.0-263.0","","","","","null","<img src=""img/food1.png"" style=""width:200px; border:14px solid green;"">","null","","","","","","","","","",""
"","image-keyboard-response","238","121739","0.0-265.0","","","","","336.10000002384186","img/food1.png","75","337.2999999523163","2","1","1","2","1,0.7,0,1,0.7,0,0.7,0,1","0,1,0.7,0,1,0.7,1,0.7,0","3","false",""
"","html-keyboard-response","239","122041","0.0-266.0","","","","","null","<img src=""img/food1.png"" style=""width:200px; border:14px solid green;"">","null","","","","","","","","","",""
"","image-keyboard-response","240","122107","0.0-268.0","","","","","64.29999995231628","img/food1.png","76","65.60000002384186","3","0","1","2","1,0.7,0,1,0.7,0,0.7,0,1","0,1,0.7,0,1,0.7,1,0.7,0","3","false",""
"","html-keyboard-response","241","122409","0.0-269.0","","","","","null","<img src=""img/food1.png"" style=""width:200px;border:14px solid red;"">","null","","","","","","","","","",""
"","image-keyboard-response","242","122451","0.0-271.0","","","","","40.200000047683716","img/food5.png","76","41","3","0","3","2","1,0.7,0,1,0.7,0,0.7,0,1","0,1,0.7,0,1,0.7,1,0.7,0","3","false",""
"","html-keyboard-response","243","122769","0.0-272.0","","","","","null","<img src=""img/food5.png"" style=""width:200px;border:14px solid red;"">","null","","","","","","","","","",""
"","image-keyboard-response","244","122812","0.0-274.0","","","","","41.300000071525574","img/food2.png","76","42.60000002384186","3","1","2","2","1,0.7,0,1,0.7,0,0.7,0,1","0,1,0.7,0,1,0.7,1,0.7,0","3","false",""
"","html-keyboard-response","245","123114","0.0-275.0","","","","","null","<img src=""img/food2.png"" style=""width:200px; border:14px solid green;"">","null","","","","","","","","","",""
"","image-keyboard-response","246","123155","0.0-277.0","","","","","39.5","img/food5.png","76","40.89999997615814","3","0","3","2","1,0.7,0,1,0.7,0,0.7,0,1","0,1,0.7,0,1,0.7,1,0.7,0","3","false",""
"","html-keyboard-response","247","123466","0.0-278.0","","","","","null","<img src=""img/food5.png"" style=""width:200px;border:14px solid red;"">","null","","","","","","","","","",""
"","image-keyboard-response","248","123499","0.0-280.0","","","","","31.5","img/food2.png","76","32.60000002384186","3","1","2","2","1,0.7,0,1,0.7,0,0.7,0,1","0,1,0.7,0,1,0.7,1,0.7,0","3","false",""
"","html-keyboard-response","249","123801","0.0-281.0","","","","","null","<img src=""img/food2.png"" style=""width:200px; border:14px solid green;"">","null","","","","","","","","","",""
"","image-keyboard-response","250","124075","0.0-283.0","","","","","272.59999990463257","img/food1.png","75","273.89999997615814","2","1","1","2","1,0.7,0,1,0.7,0,0.7,0,1","0,1,0.7,0,1,0.7,1,0.7,0","3","false",""
"","html-keyboard-response","251","124378","0.0-284.0","","","","","null","<img src=""img/food1.png"" style=""width:200px; border:14px solid green;"">","null","","","","","","","","","",""
"","image-keyboard-response","252","124404","0.0-286.0","","","","","24.09999990463257","img/food1.png","75","25.5","2","1","1","2","1,0.7,0,1,0.7,0,0.7,0,1","0,1,0.7,0,1,0.7,1,0.7,0","3","false",""
"","html-keyboard-response","253","124706","0.0-287.0","","","","","null","<img src=""img/food1.png"" style=""width:200px; border:14px solid green;"">","null","","","","","","","","","",""
"","image-keyboard-response","254","124987","0.0-289.0","","","","","279.10000002384186","img/food1.png","75","280.5","2","1","1","2","1,0.7,0,1,0.7,0,0.7,0,1","0,1,0.7,0,1,0.7,1,0.7,0","3","false",""
"","html-keyboard-response","255","125290","0.0-290.0","","","","","null","<img src=""img/food1.png"" style=""width:200px; border:14px solid green;"">","null","","","","","","","","","",""
"","image-keyboard-response","256","125316","0.0-292.0","","","","","23","img/food1.png","75","24.600000023841858","2","1","1","2","1,0.7,0,1,0.7,0,0.7,0,1","0,1,0.7,0,1,0.7,1,0.7,0","3","false",""
"","html-keyboard-response","257","125619","0.0-293.0","","","","","null","<img src=""img/food1.png"" style=""width:200px; border:14px solid green;"">","null","","","","","","","","","",""
"","image-keyboard-response","258","125628","0.0-295.0","","","","","8.099999904632568","img/food2.png","75","9.600000023841858","2","1","2","2","1,0.7,0,1,0.7,0,0.7,0,1","0,1,0.7,0,1,0.7,1,0.7,0","3","false",""
"","html-keyboard-response","259","125931","0.0-296.0","","","","","null","<img src=""img/food2.png"" style=""width:200px; border:14px solid green;"">","null","","","","","","","","","",""
"","image-keyboard-response","260","126163","0.0-298.0","","","","","230.5","img/food1.png","74","231.80000007152557","1","0","1","2","1,0.7,0,1,0.7,0,0.7,0,1","0,1,0.7,0,1,0.7,1,0.7,0","3","false",""
"","html-keyboard-response","261","126466","0.0-299.0","","","","","null","<img src=""img/food1.png"" style=""width:200px;border:14px solid red;"">","null","","","","","","","","","",""
"","image-keyboard-response","262","126483","0.0-301.0","","","","","13.799999952316284","img/food2.png","74","15.899999976158142","1","0","2","2","1,0.7,0,1,0.7,0,0.7,0,1","0,1,0.7,0,1,0.7,1,0.7,0","3","false",""
"","html-keyboard-response","263","126784","0.0-302.0","","","","","null","<img src=""img/food2.png"" style=""width:200px;border:14px solid red;"">","null","","","","","","","","","",""
"","image-keyboard-response","264","126852","0.0-304.0","","","","","65.29999995231628","img/food1.png","74","66.80000007152557","1","0","1","2","1,0.7,0,1,0.7,0,0.7,0,1","0,1,0.7,0,1,0.7,1,0.7,0","3","false",""
"","html-keyboard-response","265","127154","0.0-305.0","","","","","null","<img src=""img/food1.png"" style=""width:200px;border:14px solid red;"">","null","","","","","","","","","",""
"","image-keyboard-response","266","127443","0.0-307.0","","","","","287.7000000476837","img/food1.png","76","289","3","0","1","2","1,0.7,0,1,0.7,0,0.7,0,1","0,1,0.7,0,1,0.7,1,0.7,0","3","false",""
"","html-keyboard-response","267","127745","0.0-308.0","","","","","null","<img src=""img/food1.png"" style=""width:200px;border:14px solid red;"">","null","","","","","","","","","",""
"","image-keyboard-response","268","127758","0.0-310.0","","","","","10.5","img/food2.png","76","11.900000095367432","3","1","2","2","1,0.7,0,1,0.7,0,0.7,0,1","0,1,0.7,0,1,0.7,1,0.7,0","3","false",""
"","html-keyboard-response","269","128061","0.0-311.0","","","","","null","<img src=""img/food2.png"" style=""width:200px; border:14px solid green;"">","null","","","","","","","","","",""
"","image-keyboard-response","270","128332","0.0-313.0","","","","","268.89999997615814","img/food5.png","76","270.3000000715256","3","0","3","2","1,0.7,0,1,0.7,0,0.7,0,1","0,1,0.7,0,1,0.7,1,0.7,0","3","false",""
"","html-keyboard-response","271","128644","0.0-314.0","","","","","null","<img src=""img/food5.png"" style=""width:200px;border:14px solid red;"">","null","","","","","","","","","",""
"","image-keyboard-response","272","129107","0.0-316.0","","","","","462.09999990463257","img/food5.png","75","463.2000000476837","2","1","3","2","1,0.7,0,1,0.7,0,0.7,0,1","0,1,0.7,0,1,0.7,1,0.7,0","3","false",""
"","html-keyboard-response","273","129410","0.0-317.0","","","","","null","<img src=""img/food5.png"" style=""width:200px; border:14px solid green;"">","null","","","","","","","","","",""
"","image-keyboard-response","274","129627","0.0-319.0","","","","","215.30000007152557","img/food2.png","75","216.80000007152557","2","1","2","2","1,0.7,0,1,0.7,0,0.7,0,1","0,1,0.7,0,1,0.7,1,0.7,0","3","false",""
"","html-keyboard-response","275","129929","0.0-320.0","","","","","null","<img src=""img/food2.png"" style=""width:200px; border:14px solid green;"">","null","","","","","","","","","",""
"","image-keyboard-response","276","129947","0.0-322.0","","","","","16.300000071525574","img/food1.png","75","17.600000023841858","2","1","1","2","1,0.7,0,1,0.7,0,0.7,0,1","0,1,0.7,0,1,0.7,1,0.7,0","3","false",""
"","html-keyboard-response","277","130249","0.0-323.0","","","","","null","<img src=""img/food1.png"" style=""width:200px; border:14px solid green;"">","null","","","","","","","","","",""
"","image-keyboard-response","278","130276","0.0-325.0","","","","","25.399999976158142","img/food2.png","75","26.800000071525574","2","1","2","2","1,0.7,0,1,0.7,0,0.7,0,1","0,1,0.7,0,1,0.7,1,0.7,0","3","false",""
"","html-keyboard-response","279","130578","0.0-326.0","","","","","null","<img src=""img/food2.png"" style=""width:200px; border:14px solid green;"">","null","","","","","","","","","",""
"","image-keyboard-response","280","130588","0.0-328.0","","","","","8.100000023841858","img/food2.png","75","9.600000023841858","2","1","2","2","1,0.7,0,1,0.7,0,0.7,0,1","0,1,0.7,0,1,0.7,1,0.7,0","3","false",""
"","html-keyboard-response","281","130893","0.0-329.0","","","","","null","<img src=""img/food2.png"" style=""width:200px; border:14px solid green;"">","null","","","","","","","","","",""
"","image-keyboard-response","282","131123","0.0-331.0","","","","","228.39999997615814","img/food1.png","75","229.59999990463257","2","1","1","2","1,0.7,0,1,0.7,0,0.7,0,1","0,1,0.7,0,1,0.7,1,0.7,0","3","false",""
"","html-keyboard-response","283","131427","0.0-332.0","","","","","null","<img src=""img/food1.png"" style=""width:200px; border:14px solid green;"">","null","","","","","","","","","",""
"","image-keyboard-response","284","131453","0.0-334.0","","","","","22.399999976158142","img/food5.png","75","24.5","2","1","3","2","1,0.7,0,1,0.7,0,0.7,0,1","0,1,0.7,0,1,0.7,1,0.7,0","3","false",""
"","html-keyboard-response","285","131756","0.0-335.0","","","","","null","<img src=""img/food5.png"" style=""width:200px; border:14px solid green;"">","null","","","","","","","","","",""
"","image-keyboard-response","286","131771","0.0-337.0","","","","","13.700000047683716","img/food2.png","75","14.600000023841858","2","1","2","2","1,0.7,0,1,0.7,0,0.7,0,1","0,1,0.7,0,1,0.7,1,0.7,0","3","false",""
"","html-keyboard-response","287","132075","0.0-338.0","","","","","null","<img src=""img/food2.png"" style=""width:200px; border:14px solid green;"">","null","","","","","","","","","",""
"","image-keyboard-response","288","132355","0.0-340.0","","","","","277.90000009536743","img/food2.png","75","279.2999999523163","2","1","2","2","1,0.7,0,1,0.7,0,0.7,0,1","0,1,0.7,0,1,0.7,1,0.7,0","3","false",""
"","html-keyboard-response","289","132657","0.0-341.0","","","","","null","<img src=""img/food2.png"" style=""width:200px; border:14px solid green;"">","null","","","","","","","","","",""
"","image-keyboard-response","290","132669","0.0-343.0","","","","","10.099999904632568","img/food1.png","75","11.200000047683716","2","1","1","2","1,0.7,0,1,0.7,0,0.7,0,1","0,1,0.7,0,1,0.7,1,0.7,0","3","false",""
"","html-keyboard-response","291","132971","0.0-344.0","","","","","null","<img src=""img/food1.png"" style=""width:200px; border:14px solid green;"">","null","","","","","","","","","",""
"","image-keyboard-response","292","133219","0.0-346.0","","","","","246.40000009536743","img/food5.png","75","248","2","0","3","2","1,0.7,0,1,0.7,0,0.7,0,1","0,1,0.7,0,1,0.7,1,0.7,0","3","false",""
"","html-keyboard-response","293","133521","0.0-347.0","","","","","null","<img src=""img/food5.png"" style=""width:200px;border:14px solid red;"">","null","","","","","","","","","",""
"","image-keyboard-response","294","133891","0.0-349.0","","","","","368.3000000715256","img/food1.png","75","369.7999999523163","2","1","1","2","1,0.7,0,1,0.7,0,0.7,0,1","0,1,0.7,0,1,0.7,1,0.7,0","3","false",""
"","html-keyboard-response","295","134194","0.0-350.0","","","","","null","<img src=""img/food1.png"" style=""width:200px; border:14px solid green;"">","null","","","","","","","","","",""
"","image-keyboard-response","296","134204","0.0-352.0","","","","","9","img/food5.png","75","10.399999976158142","2","1","3","2","1,0.7,0,1,0.7,0,0.7,0,1","0,1,0.7,0,1,0.7,1,0.7,0","3","false",""
"","html-keyboard-response","297","134507","0.0-353.0","","","","","null","<img src=""img/food5.png"" style=""width:200px; border:14px solid green;"">","null","","","","","","","","","",""
"","image-keyboard-response","298","134764","0.0-355.0","","","","","254.89999997615814","img/food5.png","75","256.10000002384186","2","1","3","2","1,0.7,0,1,0.7,0,0.7,0,1","0,1,0.7,0,1,0.7,1,0.7,0","3","false",""
"","html-keyboard-response","299","135066","0.0-356.0","","","","","null","<img src=""img/food5.png"" style=""width:200px; border:14px solid green;"">","null","","","","","","","","","",""
"","image-keyboard-response","300","135361","0.0-358.0","","","","","291.3000000715256","img/food1.png","75","292.60000002384186","2","1","1","2","1,0.7,0,1,0.7,0,0.7,0,1","0,1,0.7,0,1,0.7,1,0.7,0","3","false",""
"","html-keyboard-response","301","135664","0.0-359.0","","","","","null","<img src=""img/food1.png"" style=""width:200px; border:14px solid green;"">","null","","","","","","","","","",""
"","image-keyboard-response","302","135939","0.0-361.0","","","","","273.7000000476837","img/food1.png","75","275","2","1","1","2","1,0.7,0,1,0.7,0,0.7,0,1","0,1,0.7,0,1,0.7,1,0.7,0","3","false",""
"","html-keyboard-response","303","136242","0.0-362.0","","","","","null","<img src=""img/food1.png"" style=""width:200px; border:14px solid green;"">","null","","","","","","","","","",""
"","image-keyboard-response","304","136523","0.0-364.0","","","","","279.2999999523163","img/food2.png","75","281","2","1","2","2","1,0.7,0,1,0.7,0,0.7,0,1","0,1,0.7,0,1,0.7,1,0.7,0","3","false",""
"","html-keyboard-response","305","136826","0.0-365.0","","","","","null","<img src=""img/food2.png"" style=""width:200px; border:14px solid green;"">","null","","","","","","","","","",""
"","image-keyboard-response","306","137067","0.0-367.0","","","","","239.39999997615814","img/food1.png","75","240.70000004768372","2","1","1","2","1,0.7,0,1,0.7,0,0.7,0,1","0,1,0.7,0,1,0.7,1,0.7,0","3","false",""
"","html-keyboard-response","307","137370","0.0-368.0","","","","","null","<img src=""img/food1.png"" style=""width:200px; border:14px solid green;"">","null","","","","","","","","","",""
"","image-keyboard-response","308","137611","0.0-370.0","","","","","239.60000002384186","img/food2.png","75","240.89999997615814","2","1","2","2","1,0.7,0,1,0.7,0,0.7,0,1","0,1,0.7,0,1,0.7,1,0.7,0","3","false",""
"","html-keyboard-response","309","137922","0.0-371.0","","","","","null","<img src=""img/food2.png"" style=""width:200px; border:14px solid green;"">","null","","","","","","","","","",""
"","image-keyboard-response","310","138139","0.0-373.0","","","","","215.70000004768372","img/food2.png","75","217","2","1","2","2","1,0.7,0,1,0.7,0,0.7,0,1","0,1,0.7,0,1,0.7,1,0.7,0","3","false",""
"","html-keyboard-response","311","138443","0.0-374.0","","","","","null","<img src=""img/food2.png"" style=""width:200px; border:14px solid green;"">","null","","","","","","","","","",""
"","image-keyboard-response","312","138651","0.0-376.0","","","","","206.19999992847443","img/food2.png","75","207.20000004768372","2","1","2","2","1,0.7,0,1,0.7,0,0.7,0,1","0,1,0.7,0,1,0.7,1,0.7,0","3","false",""
"","html-keyboard-response","313","138953","0.0-377.0","","","","","null","<img src=""img/food2.png"" style=""width:200px; border:14px solid green;"">","null","","","","","","","","","",""
"","image-keyboard-response","314","139179","0.0-379.0","","","","","224.20000004768372","img/food1.png","75","225.5","2","1","1","2","1,0.7,0,1,0.7,0,0.7,0,1","0,1,0.7,0,1,0.7,1,0.7,0","3","false",""
"","html-keyboard-response","315","139481","0.0-380.0","","","","","null","<img src=""img/food1.png"" style=""width:200px; border:14px solid green;"">","null","","","","","","","","","",""
"","image-keyboard-response","316","139747","0.0-382.0","","","","","264","img/food1.png","75","265.10000002384186","2","1","1","2","1,0.7,0,1,0.7,0,0.7,0,1","0,1,0.7,0,1,0.7,1,0.7,0","3","false",""
"","html-keyboard-response","317","140049","0.0-383.0","","","","","null","<img src=""img/food1.png"" style=""width:200px; border:14px solid green;"">","null","","","","","","","","","",""
"","image-keyboard-response","318","140252","0.0-385.0","","","","","200.90000009536743","img/food1.png","75","202.20000004768372","2","1","1","2","1,0.7,0,1,0.7,0,0.7,0,1","0,1,0.7,0,1,0.7,1,0.7,0","3","false",""
"","html-keyboard-response","319","140555","0.0-386.0","","","","","null","<img src=""img/food1.png"" style=""width:200px; border:14px solid green;"">","null","","","","","","","","","",""
"","image-keyboard-response","320","140811","0.0-388.0","","","","","254.59999990463257","img/food2.png","75","255.89999997615814","2","1","2","2","1,0.7,0,1,0.7,0,0.7,0,1","0,1,0.7,0,1,0.7,1,0.7,0","3","false",""
"","html-keyboard-response","321","141114","0.0-389.0","","","","","null","<img src=""img/food2.png"" style=""width:200px; border:14px solid green;"">","null","","","","","","","","","",""
"","image-keyboard-response","322","141323","0.0-391.0","","","","","207.19999992847443","img/food5.png","75","208.30000007152557","2","1","3","2","1,0.7,0,1,0.7,0,0.7,0,1","0,1,0.7,0,1,0.7,1,0.7,0","3","false",""
"","html-keyboard-response","323","141625","0.0-392.0","","","","","null","<img src=""img/food5.png"" style=""width:200px; border:14px solid green;"">","null","","","","","","","","","",""
"","image-keyboard-response","324","141851","0.0-394.0","","","","","224.40000009536743","img/food5.png","75","225.60000002384186","2","0","3","2","1,0.7,0,1,0.7,0,0.7,0,1","0,1,0.7,0,1,0.7,1,0.7,0","3","false",""
"","html-keyboard-response","325","142154","0.0-395.0","","","","","null","<img src=""img/food5.png"" style=""width:200px;border:14px solid red;"">","null","","","","","","","","","",""
"","image-keyboard-response","326","142539","0.0-397.0","","","","","384.2999999523163","img/food2.png","75","385.2999999523163","2","1","2","2","1,0.7,0,1,0.7,0,0.7,0,1","0,1,0.7,0,1,0.7,1,0.7,0","3","false",""
"","html-keyboard-response","327","142841","0.0-398.0","","","","","null","<img src=""img/food2.png"" style=""width:200px; border:14px solid green;"">","null","","","","","","","","","",""
"","image-keyboard-response","328","143027","0.0-400.0","","","","","183.90000009536743","img/food2.png","75","185.30000007152557","2","1","2","2","1,0.7,0,1,0.7,0,0.7,0,1","0,1,0.7,0,1,0.7,1,0.7,0","3","false",""
"","html-keyboard-response","329","143329","0.0-401.0","","","","","null","<img src=""img/food2.png"" style=""width:200px; border:14px solid green;"">","null","","","","","","","","","",""
"","image-keyboard-response","330","143491","0.0-403.0","","","","","160.39999997615814","img/food2.png","75","161.80000007152557","2","1","2","2","1,0.7,0,1,0.7,0,0.7,0,1","0,1,0.7,0,1,0.7,1,0.7,0","3","false",""
"","html-keyboard-response","331","143794","0.0-404.0","","","","","null","<img src=""img/food2.png"" style=""width:200px; border:14px solid green;"">","null","","","","","","","","","",""
"","image-keyboard-response","332","144051","0.0-406.0","","","","","255.90000009536743","img/food5.png","75","257.2000000476837","2","0","3","2","1,0.7,0,1,0.7,0,0.7,0,1","0,1,0.7,0,1,0.7,1,0.7,0","3","false",""
"","html-keyboard-response","333","144354","0.0-407.0","","","","","null","<img src=""img/food5.png"" style=""width:200px;border:14px solid red;"">","null","","","","","","","","","",""
"","image-keyboard-response","334","144651","0.0-409.0","","","","","295.8000000715256","img/food2.png","75","296.90000009536743","2","1","2","2","1,0.7,0,1,0.7,0,0.7,0,1","0,1,0.7,0,1,0.7,1,0.7,0","3","false",""
"","html-keyboard-response","335","144954","0.0-410.0","","","","","null","<img src=""img/food2.png"" style=""width:200px; border:14px solid green;"">","null","","","","","","","","","",""
"","image-keyboard-response","336","145187","0.0-412.0","","","","","231.39999997615814","img/food2.png","75","232.80000007152557","2","1","2","2","1,0.7,0,1,0.7,0,0.7,0,1","0,1,0.7,0,1,0.7,1,0.7,0","3","false",""
"","html-keyboard-response","337","145489","0.0-413.0","","","","","null","<img src=""img/food2.png"" style=""width:200px; border:14px solid green;"">","null","","","","","","","","","",""
"","image-keyboard-response","338","145748","0.0-415.0","","","","","257.2000000476837","img/food5.png","75","258.40000009536743","2","0","3","2","1,0.7,0,1,0.7,0,0.7,0,1","0,1,0.7,0,1,0.7,1,0.7,0","3","false",""
"","html-keyboard-response","339","146050","0.0-416.0","","","","","null","<img src=""img/food5.png"" style=""width:200px;border:14px solid red;"">","null","","","","","","","","","",""
"","image-keyboard-response","340","146315","0.0-418.0","","","","","262.89999997615814","img/food5.png","75","264.3000000715256","2","1","3","2","1,0.7,0,1,0.7,0,0.7,0,1","0,1,0.7,0,1,0.7,1,0.7,0","3","false",""
"","html-keyboard-response","341","146628","0.0-419.0","","","","","null","<img src=""img/food5.png"" style=""width:200px; border:14px solid green;"">","null","","","","","","","","","",""
"","image-keyboard-response","342","146860","0.0-421.0","","","","","230.59999990463257","img/food1.png","75","231.59999990463257","2","1","1","2","1,0.7,0,1,0.7,0,0.7,0,1","0,1,0.7,0,1,0.7,1,0.7,0","3","false",""
"","html-keyboard-response","343","147163","0.0-422.0","","","","","null","<img src=""img/food1.png"" style=""width:200px; border:14px solid green;"">","null","","","","","","","","","",""
"","image-keyboard-response","344","147387","0.0-424.0","","","","","222.30000007152557","img/food5.png","75","223.70000004768372","2","1","3","2","1,0.7,0,1,0.7,0,0.7,0,1","0,1,0.7,0,1,0.7,1,0.7,0","3","false",""
"","html-keyboard-response","345","147689","0.0-425.0","","","","","null","<img src=""img/food5.png"" style=""width:200px; border:14px solid green;"">","null","","","","","","","","","",""
"","image-keyboard-response","346","147923","0.0-427.0","","","","","232.29999995231628","img/food5.png","75","233.70000004768372","2","1","3","2","1,0.7,0,1,0.7,0,0.7,0,1","0,1,0.7,0,1,0.7,1,0.7,0","3","false",""
"","html-keyboard-response","347","148225","0.0-428.0","","","","","null","<img src=""img/food5.png"" style=""width:200px; border:14px solid green;"">","null","","","","","","","","","",""
"","image-keyboard-response","348","148467","0.0-430.0","","","","","240.5","img/food1.png","75","241.60000002384186","2","1","1","2","1,0.7,0,1,0.7,0,0.7,0,1","0,1,0.7,0,1,0.7,1,0.7,0","3","false",""
"","html-keyboard-response","349","148768","0.0-431.0","","","","","null","<img src=""img/food1.png"" style=""width:200px; border:14px solid green;"">","null","","","","","","","","","",""
"","image-keyboard-response","350","149019","0.0-433.0","","","","","249","img/food5.png","75","250.30000007152557","2","0","3","2","1,0.7,0,1,0.7,0,0.7,0,1","0,1,0.7,0,1,0.7,1,0.7,0","3","false",""
"","html-keyboard-response","351","149321","0.0-434.0","","","","","null","<img src=""img/food5.png"" style=""width:200px;border:14px solid red;"">","null","","","","","","","","","",""
"","image-keyboard-response","352","149523","0.0-436.0","","","","","200.30000007152557","img/food1.png","75","201.60000002384186","2","1","1","2","1,0.7,0,1,0.7,0,0.7,0,1","0,1,0.7,0,1,0.7,1,0.7,0","3","false",""
"","html-keyboard-response","353","149827","0.0-437.0","","","","","null","<img src=""img/food1.png"" style=""width:200px; border:14px solid green;"">","null","","","","","","","","","",""
"","image-keyboard-response","354","150027","0.0-439.0","","","","","198.30000007152557","img/food2.png","75","199.70000004768372","2","1","2","2","1,0.7,0,1,0.7,0,0.7,0,1","0,1,0.7,0,1,0.7,1,0.7,0","3","false",""
"","html-keyboard-response","355","150330","0.0-440.0","","","","","null","<img src=""img/food2.png"" style=""width:200px; border:14px solid green;"">","null","","","","","","","","","",""
"","image-keyboard-response","356","150523","0.0-442.0","","","","","191.10000002384186","img/food5.png","75","192","2","1","3","2","1,0.7,0,1,0.7,0,0.7,0,1","0,1,0.7,0,1,0.7,1,0.7,0","3","false",""
"","html-keyboard-response","357","150825","0.0-443.0","","","","","null","<img src=""img/food5.png"" style=""width:200px; border:14px solid green;"">","null","","","","","","","","","",""
"","image-keyboard-response","358","151067","0.0-445.0","","","","","240.39999997615814","img/food1.png","75","243","2","1","1","2","1,0.7,0,1,0.7,0,0.7,0,1","0,1,0.7,0,1,0.7,1,0.7,0","3","false",""
"","html-keyboard-response","359","151371","0.0-446.0","","","","","null","<img src=""img/food1.png"" style=""width:200px; border:14px solid green;"">","null","","","","","","","","","",""
"","image-keyboard-response","360","151555","0.0-448.0","","","","","182.5","img/food1.png","75","183.80000007152557","2","1","1","2","1,0.7,0,1,0.7,0,0.7,0,1","0,1,0.7,0,1,0.7,1,0.7,0","3","false",""
"","html-keyboard-response","361","151858","0.0-449.0","","","","","null","<img src=""img/food1.png"" style=""width:200px; border:14px solid green;"">","null","","","","","","","","","",""
"","image-keyboard-response","362","152075","0.0-451.0","","","","","215.5","img/food2.png","75","216.70000004768372","2","1","2","2","1,0.7,0,1,0.7,0,0.7,0,1","0,1,0.7,0,1,0.7,1,0.7,0","3","false",""
"","html-keyboard-response","363","152377","0.0-452.0","","","","","null","<img src=""img/food2.png"" style=""width:200px; border:14px solid green;"">","null","","","","","","","","","",""
"","instructions","364","154640","0.0-454.0","","","","[{""page_index"":0,""viewing_time"":2261.2999999523163}]","2261.5999999046326","","","","","","","","","","","",""
"","survey-text","365","157968","0.0-455.0","","","","","3318.4000000953674","","","","","","","","","","","","{""Q0"":""AD3V6XGQWRD6E""}"
