"success","trial_type","trial_index","time_elapsed","internal_node_id","assignmentID","mturkID","hitID","view_history","rt","stimulus","key_press","reactionTime","a","r","warning","s","cond","reward_cond","reward_cond_actual","reward_matrix_idx","responses"
"true","fullscreen","0","4809","0.0-0.0","33M4IA01QHN7BB7LV4C4I2D9MLCRXQ","AFEPFMO9863WA","3JUDR1D0D6D4CARU3YX9Y3DK5DJ2QK","","","","","","","","","","","","","",""
"","instructions","1","28318","0.0-1.0","33M4IA01QHN7BB7LV4C4I2D9MLCRXQ","AFEPFMO9863WA","3JUDR1D0D6D4CARU3YX9Y3DK5DJ2QK","[{""page_index"":0,""viewing_time"":1611.6000001430511},{""page_index"":1,""viewing_time"":1193.2000000476837},{""page_index"":2,""viewing_time"":540.6999998092651},{""page_index"":3,""viewing_time"":3805},{""page_index"":4,""viewing_time"":3603.7000000476837},{""page_index"":5,""viewing_time"":9274.799999952316},{""page_index"":6,""viewing_time"":3476.300000190735}]","23505.900000095367","","","","","","","","","","","",""
"","instructions","2","44124","0.0-2.0","33M4IA01QHN7BB7LV4C4I2D9MLCRXQ","AFEPFMO9863WA","3JUDR1D0D6D4CARU3YX9Y3DK5DJ2QK","[{""page_index"":0,""viewing_time"":11642},{""page_index"":1,""viewing_time"":4161.899999856949}]","15804.199999809265","","","","","","","","","","","",""
"","image-keyboard-response","3","44157","0.0-3.0","33M4IA01QHN7BB7LV4C4I2D9MLCRXQ","AFEPFMO9863WA","3JUDR1D0D6D4CARU3YX9Y3DK5DJ2QK","","30.199999809265137","img/food3.png","75","32.30000019073486","2","1","false","2","2","1,0.5,0,1,0.5,0,0.5,0,1","1,0.5,0,1,0.5,0,0.5,0,1","1",""
"","html-keyboard-response","4","44465","0.0-4.0","33M4IA01QHN7BB7LV4C4I2D9MLCRXQ","AFEPFMO9863WA","3JUDR1D0D6D4CARU3YX9Y3DK5DJ2QK","","null","<img src=""img/food3.png"" style=""width:200px; border:14px solid green;"">","null","","","","","","","","","",""
"","image-keyboard-response","5","44513","0.0-6.0","33M4IA01QHN7BB7LV4C4I2D9MLCRXQ","AFEPFMO9863WA","3JUDR1D0D6D4CARU3YX9Y3DK5DJ2QK","","45.200000047683716","img/food4.png","75","46.90000009536743","2","0","false","3","2","1,0.5,0,1,0.5,0,0.5,0,1","1,0.5,0,1,0.5,0,0.5,0,1","1",""
"","html-keyboard-response","6","44817","0.0-7.0","33M4IA01QHN7BB7LV4C4I2D9MLCRXQ","AFEPFMO9863WA","3JUDR1D0D6D4CARU3YX9Y3DK5DJ2QK","","null","<img src=""img/food4.png"" style=""width:200px;border:14px solid red;"">","null","","","","","","","","","",""
"","image-keyboard-response","7","44906","0.0-9.0","33M4IA01QHN7BB7LV4C4I2D9MLCRXQ","AFEPFMO9863WA","3JUDR1D0D6D4CARU3YX9Y3DK5DJ2QK","","87.40000009536743","img/food4.png","74","89","1","1","false","3","2","1,0.5,0,1,0.5,0,0.5,0,1","1,0.5,0,1,0.5,0,0.5,0,1","1",""
"","html-keyboard-response","8","45209","0.0-10.0","33M4IA01QHN7BB7LV4C4I2D9MLCRXQ","AFEPFMO9863WA","3JUDR1D0D6D4CARU3YX9Y3DK5DJ2QK","","null","<img src=""img/food4.png"" style=""width:200px; border:14px solid green;"">","null","","","","","","","","","",""
"","image-keyboard-response","9","45225","0.0-12.0","33M4IA01QHN7BB7LV4C4I2D9MLCRXQ","AFEPFMO9863WA","3JUDR1D0D6D4CARU3YX9Y3DK5DJ2QK","","14.300000190734863","img/food4.png","75","15.599999904632568","2","0","false","3","2","1,0.5,0,1,0.5,0,0.5,0,1","1,0.5,0,1,0.5,0,0.5,0,1","1",""
"","html-keyboard-response","10","45528","0.0-13.0","33M4IA01QHN7BB7LV4C4I2D9MLCRXQ","AFEPFMO9863WA","3JUDR1D0D6D4CARU3YX9Y3DK5DJ2QK","","null","<img src=""img/food4.png"" style=""width:200px;border:14px solid red;"">","null","","","","","","","","","",""
"","image-keyboard-response","11","45562","0.0-15.0","33M4IA01QHN7BB7LV4C4I2D9MLCRXQ","AFEPFMO9863WA","3JUDR1D0D6D4CARU3YX9Y3DK5DJ2QK","","32.10000014305115","img/food1.png","74","33.799999952316284","1","1","false","1","2","1,0.5,0,1,0.5,0,0.5,0,1","1,0.5,0,1,0.5,0,0.5,0,1","1",""
"","html-keyboard-response","12","45865","0.0-16.0","33M4IA01QHN7BB7LV4C4I2D9MLCRXQ","AFEPFMO9863WA","3JUDR1D0D6D4CARU3YX9Y3DK5DJ2QK","","null","<img src=""img/food1.png"" style=""width:200px; border:14px solid green;"">","null","","","","","","","","","",""
"","image-keyboard-response","13","46119","0.0-18.0","33M4IA01QHN7BB7LV4C4I2D9MLCRXQ","AFEPFMO9863WA","3JUDR1D0D6D4CARU3YX9Y3DK5DJ2QK","","252.09999990463257","img/food4.png","75","253.5","2","0","false","3","2","1,0.5,0,1,0.5,0,0.5,0,1","1,0.5,0,1,0.5,0,0.5,0,1","1",""
"","html-keyboard-response","14","46425","0.0-19.0","33M4IA01QHN7BB7LV4C4I2D9MLCRXQ","AFEPFMO9863WA","3JUDR1D0D6D4CARU3YX9Y3DK5DJ2QK","","null","<img src=""img/food4.png"" style=""width:200px;border:14px solid red;"">","null","","","","","","","","","",""
"","image-keyboard-response","15","46744","0.0-21.0","33M4IA01QHN7BB7LV4C4I2D9MLCRXQ","AFEPFMO9863WA","3JUDR1D0D6D4CARU3YX9Y3DK5DJ2QK","","317.5","img/food4.png","74","319","1","0","false","3","2","1,0.5,0,1,0.5,0,0.5,0,1","1,0.5,0,1,0.5,0,0.5,0,1","1",""
"","html-keyboard-response","16","47048","0.0-22.0","33M4IA01QHN7BB7LV4C4I2D9MLCRXQ","AFEPFMO9863WA","3JUDR1D0D6D4CARU3YX9Y3DK5DJ2QK","","null","<img src=""img/food4.png"" style=""width:200px;border:14px solid red;"">","null","","","","","","","","","",""
"","image-keyboard-response","17","47100","0.0-24.0","33M4IA01QHN7BB7LV4C4I2D9MLCRXQ","AFEPFMO9863WA","3JUDR1D0D6D4CARU3YX9Y3DK5DJ2QK","","49.5","img/food1.png","75","51.09999990463257","2","1","false","1","2","1,0.5,0,1,0.5,0,0.5,0,1","1,0.5,0,1,0.5,0,0.5,0,1","1",""
"","html-keyboard-response","18","47409","0.0-25.0","33M4IA01QHN7BB7LV4C4I2D9MLCRXQ","AFEPFMO9863WA","3JUDR1D0D6D4CARU3YX9Y3DK5DJ2QK","","null","<img src=""img/food1.png"" style=""width:200px; border:14px solid green;"">","null","","","","","","","","","",""
"","image-keyboard-response","19","47450","0.0-27.0","33M4IA01QHN7BB7LV4C4I2D9MLCRXQ","AFEPFMO9863WA","3JUDR1D0D6D4CARU3YX9Y3DK5DJ2QK","","39","img/food1.png","75","40.799999952316284","2","0","false","1","2","1,0.5,0,1,0.5,0,0.5,0,1","1,0.5,0,1,0.5,0,0.5,0,1","1",""
"","html-keyboard-response","20","47752","0.0-28.0","33M4IA01QHN7BB7LV4C4I2D9MLCRXQ","AFEPFMO9863WA","3JUDR1D0D6D4CARU3YX9Y3DK5DJ2QK","","null","<img src=""img/food1.png"" style=""width:200px;border:14px solid red;"">","null","","","","","","","","","",""
"","image-keyboard-response","21","47764","0.0-30.0","33M4IA01QHN7BB7LV4C4I2D9MLCRXQ","AFEPFMO9863WA","3JUDR1D0D6D4CARU3YX9Y3DK5DJ2QK","","9.799999952316284","img/food1.png","75","11.200000047683716","2","0","false","1","2","1,0.5,0,1,0.5,0,0.5,0,1","1,0.5,0,1,0.5,0,0.5,0,1","1",""
"","html-keyboard-response","22","48073","0.0-31.0","33M4IA01QHN7BB7LV4C4I2D9MLCRXQ","AFEPFMO9863WA","3JUDR1D0D6D4CARU3YX9Y3DK5DJ2QK","","null","<img src=""img/food1.png"" style=""width:200px;border:14px solid red;"">","null","","","","","","","","","",""
"","image-keyboard-response","23","48320","0.0-33.0","33M4IA01QHN7BB7LV4C4I2D9MLCRXQ","AFEPFMO9863WA","3JUDR1D0D6D4CARU3YX9Y3DK5DJ2QK","","245.20000004768372","img/food1.png","74","246.80000019073486","1","1","false","1","2","1,0.5,0,1,0.5,0,0.5,0,1","1,0.5,0,1,0.5,0,0.5,0,1","1",""
"","html-keyboard-response","24","48625","0.0-34.0","33M4IA01QHN7BB7LV4C4I2D9MLCRXQ","AFEPFMO9863WA","3JUDR1D0D6D4CARU3YX9Y3DK5DJ2QK","","null","<img src=""img/food1.png"" style=""width:200px; border:14px solid green;"">","null","","","","","","","","","",""
"","image-keyboard-response","25","48919","0.0-36.0","33M4IA01QHN7BB7LV4C4I2D9MLCRXQ","AFEPFMO9863WA","3JUDR1D0D6D4CARU3YX9Y3DK5DJ2QK","","292.10000014305115","img/food4.png","75","293.2999999523163","2","0","false","3","2","1,0.5,0,1,0.5,0,0.5,0,1","1,0.5,0,1,0.5,0,0.5,0,1","1",""
"","html-keyboard-response","26","49224","0.0-37.0","33M4IA01QHN7BB7LV4C4I2D9MLCRXQ","AFEPFMO9863WA","3JUDR1D0D6D4CARU3YX9Y3DK5DJ2QK","","null","<img src=""img/food4.png"" style=""width:200px;border:14px solid red;"">","null","","","","","","","","","",""
"","image-keyboard-response","27","49308","0.0-39.0","33M4IA01QHN7BB7LV4C4I2D9MLCRXQ","AFEPFMO9863WA","3JUDR1D0D6D4CARU3YX9Y3DK5DJ2QK","","80.70000004768372","img/food4.png","75","82.39999985694885","2","0","false","3","2","1,0.5,0,1,0.5,0,0.5,0,1","1,0.5,0,1,0.5,0,0.5,0,1","1",""
"","html-keyboard-response","28","49617","0.0-40.0","33M4IA01QHN7BB7LV4C4I2D9MLCRXQ","AFEPFMO9863WA","3JUDR1D0D6D4CARU3YX9Y3DK5DJ2QK","","null","<img src=""img/food4.png"" style=""width:200px;border:14px solid red;"">","null","","","","","","","","","",""
"","image-keyboard-response","29","49634","0.0-42.0","33M4IA01QHN7BB7LV4C4I2D9MLCRXQ","AFEPFMO9863WA","3JUDR1D0D6D4CARU3YX9Y3DK5DJ2QK","","15.400000095367432","img/food4.png","76","16.600000143051147","3","1","false","3","2","1,0.5,0,1,0.5,0,0.5,0,1","1,0.5,0,1,0.5,0,0.5,0,1","1",""
"","html-keyboard-response","30","49937","0.0-43.0","33M4IA01QHN7BB7LV4C4I2D9MLCRXQ","AFEPFMO9863WA","3JUDR1D0D6D4CARU3YX9Y3DK5DJ2QK","","null","<img src=""img/food4.png"" style=""width:200px; border:14px solid green;"">","null","","","","","","","","","",""
"","image-keyboard-response","31","50051","0.0-45.0","33M4IA01QHN7BB7LV4C4I2D9MLCRXQ","AFEPFMO9863WA","3JUDR1D0D6D4CARU3YX9Y3DK5DJ2QK","","112.40000009536743","img/food3.png","74","113.90000009536743","1","1","false","2","2","1,0.5,0,1,0.5,0,0.5,0,1","1,0.5,0,1,0.5,0,0.5,0,1","1",""
"","html-keyboard-response","32","50361","0.0-46.0","33M4IA01QHN7BB7LV4C4I2D9MLCRXQ","AFEPFMO9863WA","3JUDR1D0D6D4CARU3YX9Y3DK5DJ2QK","","null","<img src=""img/food3.png"" style=""width:200px; border:14px solid green;"">","null","","","","","","","","","",""
"","image-keyboard-response","33","50719","0.0-48.0","33M4IA01QHN7BB7LV4C4I2D9MLCRXQ","AFEPFMO9863WA","3JUDR1D0D6D4CARU3YX9Y3DK5DJ2QK","","356.5","img/food1.png","75","358","2","1","false","1","2","1,0.5,0,1,0.5,0,0.5,0,1","1,0.5,0,1,0.5,0,0.5,0,1","1",""
"","html-keyboard-response","34","51024","0.0-49.0","33M4IA01QHN7BB7LV4C4I2D9MLCRXQ","AFEPFMO9863WA","3JUDR1D0D6D4CARU3YX9Y3DK5DJ2QK","","null","<img src=""img/food1.png"" style=""width:200px; border:14px solid green;"">","null","","","","","","","","","",""
"","image-keyboard-response","35","51096","0.0-51.0","33M4IA01QHN7BB7LV4C4I2D9MLCRXQ","AFEPFMO9863WA","3JUDR1D0D6D4CARU3YX9Y3DK5DJ2QK","","69","img/food1.png","74","70.59999990463257","1","1","false","1","2","1,0.5,0,1,0.5,0,0.5,0,1","1,0.5,0,1,0.5,0,0.5,0,1","1",""
"","html-keyboard-response","36","51400","0.0-52.0","33M4IA01QHN7BB7LV4C4I2D9MLCRXQ","AFEPFMO9863WA","3JUDR1D0D6D4CARU3YX9Y3DK5DJ2QK","","null","<img src=""img/food1.png"" style=""width:200px; border:14px solid green;"">","null","","","","","","","","","",""
"","image-keyboard-response","37","51441","0.0-54.0","33M4IA01QHN7BB7LV4C4I2D9MLCRXQ","AFEPFMO9863WA","3JUDR1D0D6D4CARU3YX9Y3DK5DJ2QK","","38.90000009536743","img/food4.png","74","40.5","1","0","false","3","2","1,0.5,0,1,0.5,0,0.5,0,1","1,0.5,0,1,0.5,0,0.5,0,1","1",""
"","html-keyboard-response","38","51745","0.0-55.0","33M4IA01QHN7BB7LV4C4I2D9MLCRXQ","AFEPFMO9863WA","3JUDR1D0D6D4CARU3YX9Y3DK5DJ2QK","","null","<img src=""img/food4.png"" style=""width:200px;border:14px solid red;"">","null","","","","","","","","","",""
"","image-keyboard-response","39","52074","0.0-57.0","33M4IA01QHN7BB7LV4C4I2D9MLCRXQ","AFEPFMO9863WA","3JUDR1D0D6D4CARU3YX9Y3DK5DJ2QK","","327.7000000476837","img/food4.png","76","329.39999985694885","3","1","false","3","2","1,0.5,0,1,0.5,0,0.5,0,1","1,0.5,0,1,0.5,0,0.5,0,1","1",""
"","html-keyboard-response","40","52376","0.0-58.0","33M4IA01QHN7BB7LV4C4I2D9MLCRXQ","AFEPFMO9863WA","3JUDR1D0D6D4CARU3YX9Y3DK5DJ2QK","","null","<img src=""img/food4.png"" style=""width:200px; border:14px solid green;"">","null","","","","","","","","","",""
"","image-keyboard-response","41","52443","0.0-60.0","33M4IA01QHN7BB7LV4C4I2D9MLCRXQ","AFEPFMO9863WA","3JUDR1D0D6D4CARU3YX9Y3DK5DJ2QK","","64.20000004768372","img/food3.png","75","66.10000014305115","2","0","false","2","2","1,0.5,0,1,0.5,0,0.5,0,1","1,0.5,0,1,0.5,0,0.5,0,1","1",""
"","html-keyboard-response","42","52753","0.0-61.0","33M4IA01QHN7BB7LV4C4I2D9MLCRXQ","AFEPFMO9863WA","3JUDR1D0D6D4CARU3YX9Y3DK5DJ2QK","","null","<img src=""img/food3.png"" style=""width:200px;border:14px solid red;"">","null","","","","","","","","","",""
"","image-keyboard-response","43","53109","0.0-63.0","33M4IA01QHN7BB7LV4C4I2D9MLCRXQ","AFEPFMO9863WA","3JUDR1D0D6D4CARU3YX9Y3DK5DJ2QK","","354.59999990463257","img/food4.png","76","356","3","1","false","3","2","1,0.5,0,1,0.5,0,0.5,0,1","1,0.5,0,1,0.5,0,0.5,0,1","1",""
"","html-keyboard-response","44","53416","0.0-64.0","33M4IA01QHN7BB7LV4C4I2D9MLCRXQ","AFEPFMO9863WA","3JUDR1D0D6D4CARU3YX9Y3DK5DJ2QK","","null","<img src=""img/food4.png"" style=""width:200px; border:14px solid green;"">","null","","","","","","","","","",""
"","image-keyboard-response","45","53530","0.0-66.0","33M4IA01QHN7BB7LV4C4I2D9MLCRXQ","AFEPFMO9863WA","3JUDR1D0D6D4CARU3YX9Y3DK5DJ2QK","","111.09999990463257","img/food3.png","74","112.29999995231628","1","1","false","2","2","1,0.5,0,1,0.5,0,0.5,0,1","1,0.5,0,1,0.5,0,0.5,0,1","1",""
"","html-keyboard-response","46","53832","0.0-67.0","33M4IA01QHN7BB7LV4C4I2D9MLCRXQ","AFEPFMO9863WA","3JUDR1D0D6D4CARU3YX9Y3DK5DJ2QK","","null","<img src=""img/food3.png"" style=""width:200px; border:14px solid green;"">","null","","","","","","","","","",""
"","image-keyboard-response","47","54128","0.0-69.0","33M4IA01QHN7BB7LV4C4I2D9MLCRXQ","AFEPFMO9863WA","3JUDR1D0D6D4CARU3YX9Y3DK5DJ2QK","","293.09999990463257","img/food1.png","76","294.39999985694885","3","0","false","1","2","1,0.5,0,1,0.5,0,0.5,0,1","1,0.5,0,1,0.5,0,0.5,0,1","1",""
"","html-keyboard-response","48","54432","0.0-70.0","33M4IA01QHN7BB7LV4C4I2D9MLCRXQ","AFEPFMO9863WA","3JUDR1D0D6D4CARU3YX9Y3DK5DJ2QK","","null","<img src=""img/food1.png"" style=""width:200px;border:14px solid red;"">","null","","","","","","","","","",""
"","image-keyboard-response","49","54480","0.0-72.0","33M4IA01QHN7BB7LV4C4I2D9MLCRXQ","AFEPFMO9863WA","3JUDR1D0D6D4CARU3YX9Y3DK5DJ2QK","","45.39999985694885","img/food4.png","75","46.89999985694885","2","0","false","3","2","1,0.5,0,1,0.5,0,0.5,0,1","1,0.5,0,1,0.5,0,0.5,0,1","1",""
"","html-keyboard-response","50","54784","0.0-73.0","33M4IA01QHN7BB7LV4C4I2D9MLCRXQ","AFEPFMO9863WA","3JUDR1D0D6D4CARU3YX9Y3DK5DJ2QK","","null","<img src=""img/food4.png"" style=""width:200px;border:14px solid red;"">","null","","","","","","","","","",""
"","image-keyboard-response","51","54820","0.0-75.0","33M4IA01QHN7BB7LV4C4I2D9MLCRXQ","AFEPFMO9863WA","3JUDR1D0D6D4CARU3YX9Y3DK5DJ2QK","","33.299999952316284","img/food3.png","74","35","1","1","false","2","2","1,0.5,0,1,0.5,0,0.5,0,1","1,0.5,0,1,0.5,0,0.5,0,1","1",""
"","html-keyboard-response","52","55129","0.0-76.0","33M4IA01QHN7BB7LV4C4I2D9MLCRXQ","AFEPFMO9863WA","3JUDR1D0D6D4CARU3YX9Y3DK5DJ2QK","","null","<img src=""img/food3.png"" style=""width:200px; border:14px solid green;"">","null","","","","","","","","","",""
"","image-keyboard-response","53","55470","0.0-78.0","33M4IA01QHN7BB7LV4C4I2D9MLCRXQ","AFEPFMO9863WA","3JUDR1D0D6D4CARU3YX9Y3DK5DJ2QK","","339","img/food3.png","76","340.2999999523163","3","0","false","2","2","1,0.5,0,1,0.5,0,0.5,0,1","1,0.5,0,1,0.5,0,0.5,0,1","1",""
"","html-keyboard-response","54","55777","0.0-79.0","33M4IA01QHN7BB7LV4C4I2D9MLCRXQ","AFEPFMO9863WA","3JUDR1D0D6D4CARU3YX9Y3DK5DJ2QK","","null","<img src=""img/food3.png"" style=""width:200px;border:14px solid red;"">","null","","","","","","","","","",""
"","image-keyboard-response","55","55787","0.0-81.0","33M4IA01QHN7BB7LV4C4I2D9MLCRXQ","AFEPFMO9863WA","3JUDR1D0D6D4CARU3YX9Y3DK5DJ2QK","","8.599999904632568","img/food4.png","76","10","3","1","false","3","2","1,0.5,0,1,0.5,0,0.5,0,1","1,0.5,0,1,0.5,0,0.5,0,1","1",""
"","html-keyboard-response","56","56096","0.0-82.0","33M4IA01QHN7BB7LV4C4I2D9MLCRXQ","AFEPFMO9863WA","3JUDR1D0D6D4CARU3YX9Y3DK5DJ2QK","","null","<img src=""img/food4.png"" style=""width:200px; border:14px solid green;"">","null","","","","","","","","","",""
"","image-keyboard-response","57","56120","0.0-84.0","33M4IA01QHN7BB7LV4C4I2D9MLCRXQ","AFEPFMO9863WA","3JUDR1D0D6D4CARU3YX9Y3DK5DJ2QK","","21.5","img/food1.png","75","23.899999856948853","2","1","false","1","2","1,0.5,0,1,0.5,0,0.5,0,1","1,0.5,0,1,0.5,0,0.5,0,1","1",""
"","html-keyboard-response","58","56424","0.0-85.0","33M4IA01QHN7BB7LV4C4I2D9MLCRXQ","AFEPFMO9863WA","3JUDR1D0D6D4CARU3YX9Y3DK5DJ2QK","","null","<img src=""img/food1.png"" style=""width:200px; border:14px solid green;"">","null","","","","","","","","","",""
"","image-keyboard-response","59","56527","0.0-87.0","33M4IA01QHN7BB7LV4C4I2D9MLCRXQ","AFEPFMO9863WA","3JUDR1D0D6D4CARU3YX9Y3DK5DJ2QK","","99.90000009536743","img/food3.png","74","101.5","1","1","false","2","2","1,0.5,0,1,0.5,0,0.5,0,1","1,0.5,0,1,0.5,0,0.5,0,1","1",""
"","html-keyboard-response","60","56833","0.0-88.0","33M4IA01QHN7BB7LV4C4I2D9MLCRXQ","AFEPFMO9863WA","3JUDR1D0D6D4CARU3YX9Y3DK5DJ2QK","","null","<img src=""img/food3.png"" style=""width:200px; border:14px solid green;"">","null","","","","","","","","","",""
"","image-keyboard-response","61","56895","0.0-90.0","33M4IA01QHN7BB7LV4C4I2D9MLCRXQ","AFEPFMO9863WA","3JUDR1D0D6D4CARU3YX9Y3DK5DJ2QK","","60.09999990463257","img/food3.png","75","61.700000047683716","2","0","false","2","2","1,0.5,0,1,0.5,0,0.5,0,1","1,0.5,0,1,0.5,0,0.5,0,1","1",""
"","html-keyboard-response","62","57201","0.0-91.0","33M4IA01QHN7BB7LV4C4I2D9MLCRXQ","AFEPFMO9863WA","3JUDR1D0D6D4CARU3YX9Y3DK5DJ2QK","","null","<img src=""img/food3.png"" style=""width:200px;border:14px solid red;"">","null","","","","","","","","","",""
"","image-keyboard-response","63","57242","0.0-93.0","33M4IA01QHN7BB7LV4C4I2D9MLCRXQ","AFEPFMO9863WA","3JUDR1D0D6D4CARU3YX9Y3DK5DJ2QK","","39.299999952316284","img/food4.png","75","41.09999990463257","2","0","false","3","2","1,0.5,0,1,0.5,0,0.5,0,1","1,0.5,0,1,0.5,0,0.5,0,1","1",""
"","html-keyboard-response","64","57546","0.0-94.0","33M4IA01QHN7BB7LV4C4I2D9MLCRXQ","AFEPFMO9863WA","3JUDR1D0D6D4CARU3YX9Y3DK5DJ2QK","","null","<img src=""img/food4.png"" style=""width:200px;border:14px solid red;"">","null","","","","","","","","","",""
"","image-keyboard-response","65","57890","0.0-96.0","33M4IA01QHN7BB7LV4C4I2D9MLCRXQ","AFEPFMO9863WA","3JUDR1D0D6D4CARU3YX9Y3DK5DJ2QK","","330.19999980926514","img/food3.png","74","331.80000019073486","1","1","false","2","2","1,0.5,0,1,0.5,0,0.5,0,1","1,0.5,0,1,0.5,0,0.5,0,1","1",""
"","html-keyboard-response","66","58193","0.0-97.0","33M4IA01QHN7BB7LV4C4I2D9MLCRXQ","AFEPFMO9863WA","3JUDR1D0D6D4CARU3YX9Y3DK5DJ2QK","","null","<img src=""img/food3.png"" style=""width:200px; border:14px solid green;"">","null","","","","","","","","","",""
"","image-keyboard-response","67","58219","0.0-99.0","33M4IA01QHN7BB7LV4C4I2D9MLCRXQ","AFEPFMO9863WA","3JUDR1D0D6D4CARU3YX9Y3DK5DJ2QK","","24.699999809265137","img/food4.png","76","26","3","1","false","3","2","1,0.5,0,1,0.5,0,0.5,0,1","1,0.5,0,1,0.5,0,0.5,0,1","1",""
"","html-keyboard-response","68","58528","0.0-100.0","33M4IA01QHN7BB7LV4C4I2D9MLCRXQ","AFEPFMO9863WA","3JUDR1D0D6D4CARU3YX9Y3DK5DJ2QK","","null","<img src=""img/food4.png"" style=""width:200px; border:14px solid green;"">","null","","","","","","","","","",""
"","image-keyboard-response","69","58567","0.0-102.0","33M4IA01QHN7BB7LV4C4I2D9MLCRXQ","AFEPFMO9863WA","3JUDR1D0D6D4CARU3YX9Y3DK5DJ2QK","","37.19999980926514","img/food4.png","74","38.59999990463257","1","0","false","3","2","1,0.5,0,1,0.5,0,0.5,0,1","1,0.5,0,1,0.5,0,0.5,0,1","1",""
"","html-keyboard-response","70","58873","0.0-103.0","33M4IA01QHN7BB7LV4C4I2D9MLCRXQ","AFEPFMO9863WA","3JUDR1D0D6D4CARU3YX9Y3DK5DJ2QK","","null","<img src=""img/food4.png"" style=""width:200px;border:14px solid red;"">","null","","","","","","","","","",""
"","image-keyboard-response","71","59222","0.0-105.0","33M4IA01QHN7BB7LV4C4I2D9MLCRXQ","AFEPFMO9863WA","3JUDR1D0D6D4CARU3YX9Y3DK5DJ2QK","","347.40000009536743","img/food1.png","76","348.7000000476837","3","0","false","1","2","1,0.5,0,1,0.5,0,0.5,0,1","1,0.5,0,1,0.5,0,0.5,0,1","1",""
"","html-keyboard-response","72","59529","0.0-106.0","33M4IA01QHN7BB7LV4C4I2D9MLCRXQ","AFEPFMO9863WA","3JUDR1D0D6D4CARU3YX9Y3DK5DJ2QK","","null","<img src=""img/food1.png"" style=""width:200px;border:14px solid red;"">","null","","","","","","","","","",""
"","image-keyboard-response","73","59552","0.0-108.0","33M4IA01QHN7BB7LV4C4I2D9MLCRXQ","AFEPFMO9863WA","3JUDR1D0D6D4CARU3YX9Y3DK5DJ2QK","","21.700000047683716","img/food1.png","76","23.09999990463257","3","0","false","1","2","1,0.5,0,1,0.5,0,0.5,0,1","1,0.5,0,1,0.5,0,0.5,0,1","1",""
"","html-keyboard-response","74","59857","0.0-109.0","33M4IA01QHN7BB7LV4C4I2D9MLCRXQ","AFEPFMO9863WA","3JUDR1D0D6D4CARU3YX9Y3DK5DJ2QK","","null","<img src=""img/food1.png"" style=""width:200px;border:14px solid red;"">","null","","","","","","","","","",""
"","image-keyboard-response","75","59872","0.0-111.0","33M4IA01QHN7BB7LV4C4I2D9MLCRXQ","AFEPFMO9863WA","3JUDR1D0D6D4CARU3YX9Y3DK5DJ2QK","","13.099999904632568","img/food1.png","74","14.399999856948853","1","1","false","1","2","1,0.5,0,1,0.5,0,0.5,0,1","1,0.5,0,1,0.5,0,0.5,0,1","1",""
"","html-keyboard-response","76","60176","0.0-112.0","33M4IA01QHN7BB7LV4C4I2D9MLCRXQ","AFEPFMO9863WA","3JUDR1D0D6D4CARU3YX9Y3DK5DJ2QK","","null","<img src=""img/food1.png"" style=""width:200px; border:14px solid green;"">","null","","","","","","","","","",""
"","image-keyboard-response","77","60245","0.0-114.0","33M4IA01QHN7BB7LV4C4I2D9MLCRXQ","AFEPFMO9863WA","3JUDR1D0D6D4CARU3YX9Y3DK5DJ2QK","","66.20000004768372","img/food3.png","74","67.70000004768372","1","1","false","2","2","1,0.5,0,1,0.5,0,0.5,0,1","1,0.5,0,1,0.5,0,0.5,0,1","1",""
"","html-keyboard-response","78","60553","0.0-115.0","33M4IA01QHN7BB7LV4C4I2D9MLCRXQ","AFEPFMO9863WA","3JUDR1D0D6D4CARU3YX9Y3DK5DJ2QK","","null","<img src=""img/food3.png"" style=""width:200px; border:14px solid green;"">","null","","","","","","","","","",""
"","image-keyboard-response","79","60823","0.0-117.0","33M4IA01QHN7BB7LV4C4I2D9MLCRXQ","AFEPFMO9863WA","3JUDR1D0D6D4CARU3YX9Y3DK5DJ2QK","","268.2999999523163","img/food4.png","75","270","2","0","false","3","2","1,0.5,0,1,0.5,0,0.5,0,1","1,0.5,0,1,0.5,0,0.5,0,1","1",""
"","html-keyboard-response","80","61129","0.0-118.0","33M4IA01QHN7BB7LV4C4I2D9MLCRXQ","AFEPFMO9863WA","3JUDR1D0D6D4CARU3YX9Y3DK5DJ2QK","","null","<img src=""img/food4.png"" style=""width:200px;border:14px solid red;"">","null","","","","","","","","","",""
"","image-keyboard-response","81","61163","0.0-120.0","33M4IA01QHN7BB7LV4C4I2D9MLCRXQ","AFEPFMO9863WA","3JUDR1D0D6D4CARU3YX9Y3DK5DJ2QK","","32.5","img/food1.png","74","33.80000019073486","1","1","false","1","2","1,0.5,0,1,0.5,0,0.5,0,1","1,0.5,0,1,0.5,0,0.5,0,1","1",""
"","html-keyboard-response","82","61473","0.0-121.0","33M4IA01QHN7BB7LV4C4I2D9MLCRXQ","AFEPFMO9863WA","3JUDR1D0D6D4CARU3YX9Y3DK5DJ2QK","","null","<img src=""img/food1.png"" style=""width:200px; border:14px solid green;"">","null","","","","","","","","","",""
"","image-keyboard-response","83","61729","0.0-123.0","33M4IA01QHN7BB7LV4C4I2D9MLCRXQ","AFEPFMO9863WA","3JUDR1D0D6D4CARU3YX9Y3DK5DJ2QK","","254.5","img/food3.png","76","256","3","0","false","2","2","1,0.5,0,1,0.5,0,0.5,0,1","1,0.5,0,1,0.5,0,0.5,0,1","1",""
"","html-keyboard-response","84","62033","0.0-124.0","33M4IA01QHN7BB7LV4C4I2D9MLCRXQ","AFEPFMO9863WA","3JUDR1D0D6D4CARU3YX9Y3DK5DJ2QK","","null","<img src=""img/food3.png"" style=""width:200px;border:14px solid red;"">","null","","","","","","","","","",""
"","image-keyboard-response","85","62103","0.0-126.0","33M4IA01QHN7BB7LV4C4I2D9MLCRXQ","AFEPFMO9863WA","3JUDR1D0D6D4CARU3YX9Y3DK5DJ2QK","","68.09999990463257","img/food4.png","74","69.5","1","1","false","3","2","1,0.5,0,1,0.5,0,0.5,0,1","1,0.5,0,1,0.5,0,0.5,0,1","1",""
"","html-keyboard-response","86","62408","0.0-127.0","33M4IA01QHN7BB7LV4C4I2D9MLCRXQ","AFEPFMO9863WA","3JUDR1D0D6D4CARU3YX9Y3DK5DJ2QK","","null","<img src=""img/food4.png"" style=""width:200px; border:14px solid green;"">","null","","","","","","","","","",""
"","image-keyboard-response","87","62446","0.0-129.0","33M4IA01QHN7BB7LV4C4I2D9MLCRXQ","AFEPFMO9863WA","3JUDR1D0D6D4CARU3YX9Y3DK5DJ2QK","","32.59999990463257","img/food1.png","75","34.10000014305115","2","1","false","1","2","1,0.5,0,1,0.5,0,0.5,0,1","1,0.5,0,1,0.5,0,0.5,0,1","1",""
"","html-keyboard-response","88","62753","0.0-130.0","33M4IA01QHN7BB7LV4C4I2D9MLCRXQ","AFEPFMO9863WA","3JUDR1D0D6D4CARU3YX9Y3DK5DJ2QK","","null","<img src=""img/food1.png"" style=""width:200px; border:14px solid green;"">","null","","","","","","","","","",""
"","image-keyboard-response","89","62819","0.0-132.0","33M4IA01QHN7BB7LV4C4I2D9MLCRXQ","AFEPFMO9863WA","3JUDR1D0D6D4CARU3YX9Y3DK5DJ2QK","","64","img/food1.png","74","65.79999995231628","1","1","false","1","2","1,0.5,0,1,0.5,0,0.5,0,1","1,0.5,0,1,0.5,0,0.5,0,1","1",""
"","html-keyboard-response","90","63129","0.0-133.0","33M4IA01QHN7BB7LV4C4I2D9MLCRXQ","AFEPFMO9863WA","3JUDR1D0D6D4CARU3YX9Y3DK5DJ2QK","","null","<img src=""img/food1.png"" style=""width:200px; border:14px solid green;"">","null","","","","","","","","","",""
"","image-keyboard-response","91","63148","0.0-135.0","33M4IA01QHN7BB7LV4C4I2D9MLCRXQ","AFEPFMO9863WA","3JUDR1D0D6D4CARU3YX9Y3DK5DJ2QK","","13","img/food3.png","75","18.399999856948853","2","0","false","2","2","1,0.5,0,1,0.5,0,0.5,0,1","1,0.5,0,1,0.5,0,0.5,0,1","1",""
"","html-keyboard-response","92","63454","0.0-136.0","33M4IA01QHN7BB7LV4C4I2D9MLCRXQ","AFEPFMO9863WA","3JUDR1D0D6D4CARU3YX9Y3DK5DJ2QK","","null","<img src=""img/food3.png"" style=""width:200px;border:14px solid red;"">","null","","","","","","","","","",""
"","image-keyboard-response","93","63762","0.0-138.0","33M4IA01QHN7BB7LV4C4I2D9MLCRXQ","AFEPFMO9863WA","3JUDR1D0D6D4CARU3YX9Y3DK5DJ2QK","","305.59999990463257","img/food1.png","76","307.09999990463257","3","0","false","1","2","1,0.5,0,1,0.5,0,0.5,0,1","1,0.5,0,1,0.5,0,0.5,0,1","1",""
"","html-keyboard-response","94","64065","0.0-139.0","33M4IA01QHN7BB7LV4C4I2D9MLCRXQ","AFEPFMO9863WA","3JUDR1D0D6D4CARU3YX9Y3DK5DJ2QK","","null","<img src=""img/food1.png"" style=""width:200px;border:14px solid red;"">","null","","","","","","","","","",""
"","image-keyboard-response","95","64174","0.0-141.0","33M4IA01QHN7BB7LV4C4I2D9MLCRXQ","AFEPFMO9863WA","3JUDR1D0D6D4CARU3YX9Y3DK5DJ2QK","","107.59999990463257","img/food1.png","74","109","1","1","false","1","2","1,0.5,0,1,0.5,0,0.5,0,1","1,0.5,0,1,0.5,0,0.5,0,1","1",""
"","html-keyboard-response","96","64481","0.0-142.0","33M4IA01QHN7BB7LV4C4I2D9MLCRXQ","AFEPFMO9863WA","3JUDR1D0D6D4CARU3YX9Y3DK5DJ2QK","","null","<img src=""img/food1.png"" style=""width:200px; border:14px solid green;"">","null","","","","","","","","","",""
"","image-keyboard-response","97","64546","0.0-144.0","33M4IA01QHN7BB7LV4C4I2D9MLCRXQ","AFEPFMO9863WA","3JUDR1D0D6D4CARU3YX9Y3DK5DJ2QK","","63.40000009536743","img/food3.png","75","64.70000004768372","2","0","false","2","2","1,0.5,0,1,0.5,0,0.5,0,1","1,0.5,0,1,0.5,0,0.5,0,1","1",""
"","html-keyboard-response","98","64848","0.0-145.0","33M4IA01QHN7BB7LV4C4I2D9MLCRXQ","AFEPFMO9863WA","3JUDR1D0D6D4CARU3YX9Y3DK5DJ2QK","","null","<img src=""img/food3.png"" style=""width:200px;border:14px solid red;"">","null","","","","","","","","","",""
"","image-keyboard-response","99","64941","0.0-147.0","33M4IA01QHN7BB7LV4C4I2D9MLCRXQ","AFEPFMO9863WA","3JUDR1D0D6D4CARU3YX9Y3DK5DJ2QK","","89","img/food3.png","75","92","2","0","false","2","2","1,0.5,0,1,0.5,0,0.5,0,1","1,0.5,0,1,0.5,0,0.5,0,1","1",""
"","html-keyboard-response","100","65248","0.0-148.0","33M4IA01QHN7BB7LV4C4I2D9MLCRXQ","AFEPFMO9863WA","3JUDR1D0D6D4CARU3YX9Y3DK5DJ2QK","","null","<img src=""img/food3.png"" style=""width:200px;border:14px solid red;"">","null","","","","","","","","","",""
"","image-keyboard-response","101","65262","0.0-150.0","33M4IA01QHN7BB7LV4C4I2D9MLCRXQ","AFEPFMO9863WA","3JUDR1D0D6D4CARU3YX9Y3DK5DJ2QK","","12","img/food1.png","76","13.200000047683716","3","0","false","1","2","1,0.5,0,1,0.5,0,0.5,0,1","1,0.5,0,1,0.5,0,0.5,0,1","1",""
"","html-keyboard-response","102","65569","0.0-151.0","33M4IA01QHN7BB7LV4C4I2D9MLCRXQ","AFEPFMO9863WA","3JUDR1D0D6D4CARU3YX9Y3DK5DJ2QK","","null","<img src=""img/food1.png"" style=""width:200px;border:14px solid red;"">","null","","","","","","","","","",""
"","image-keyboard-response","103","65658","0.0-153.0","33M4IA01QHN7BB7LV4C4I2D9MLCRXQ","AFEPFMO9863WA","3JUDR1D0D6D4CARU3YX9Y3DK5DJ2QK","","87.59999990463257","img/food1.png","74","89.20000004768372","1","1","false","1","2","1,0.5,0,1,0.5,0,0.5,0,1","1,0.5,0,1,0.5,0,0.5,0,1","1",""
"","html-keyboard-response","104","65960","0.0-154.0","33M4IA01QHN7BB7LV4C4I2D9MLCRXQ","AFEPFMO9863WA","3JUDR1D0D6D4CARU3YX9Y3DK5DJ2QK","","null","<img src=""img/food1.png"" style=""width:200px; border:14px solid green;"">","null","","","","","","","","","",""
"","image-keyboard-response","105","66022","0.0-156.0","33M4IA01QHN7BB7LV4C4I2D9MLCRXQ","AFEPFMO9863WA","3JUDR1D0D6D4CARU3YX9Y3DK5DJ2QK","","59.5","img/food3.png","76","61","3","0","false","2","2","1,0.5,0,1,0.5,0,0.5,0,1","1,0.5,0,1,0.5,0,0.5,0,1","1",""
"","html-keyboard-response","106","66328","0.0-157.0","33M4IA01QHN7BB7LV4C4I2D9MLCRXQ","AFEPFMO9863WA","3JUDR1D0D6D4CARU3YX9Y3DK5DJ2QK","","null","<img src=""img/food3.png"" style=""width:200px;border:14px solid red;"">","null","","","","","","","","","",""
"","image-keyboard-response","107","66374","0.0-159.0","33M4IA01QHN7BB7LV4C4I2D9MLCRXQ","AFEPFMO9863WA","3JUDR1D0D6D4CARU3YX9Y3DK5DJ2QK","","43.5","img/food4.png","74","44.90000009536743","1","0","false","3","2","1,0.5,0,1,0.5,0,0.5,0,1","1,0.5,0,1,0.5,0,0.5,0,1","1",""
"","html-keyboard-response","108","66680","0.0-160.0","33M4IA01QHN7BB7LV4C4I2D9MLCRXQ","AFEPFMO9863WA","3JUDR1D0D6D4CARU3YX9Y3DK5DJ2QK","","null","<img src=""img/food4.png"" style=""width:200px;border:14px solid red;"">","null","","","","","","","","","",""
"","image-keyboard-response","109","66703","0.0-162.0","33M4IA01QHN7BB7LV4C4I2D9MLCRXQ","AFEPFMO9863WA","3JUDR1D0D6D4CARU3YX9Y3DK5DJ2QK","","20.40000009536743","img/food1.png","76","21.899999856948853","3","0","false","1","2","1,0.5,0,1,0.5,0,0.5,0,1","1,0.5,0,1,0.5,0,0.5,0,1","1",""
"","html-keyboard-response","110","67009","0.0-163.0","33M4IA01QHN7BB7LV4C4I2D9MLCRXQ","AFEPFMO9863WA","3JUDR1D0D6D4CARU3YX9Y3DK5DJ2QK","","null","<img src=""img/food1.png"" style=""width:200px;border:14px solid red;"">","null","","","","","","","","","",""
"","image-keyboard-response","111","67060","0.0-165.0","33M4IA01QHN7BB7LV4C4I2D9MLCRXQ","AFEPFMO9863WA","3JUDR1D0D6D4CARU3YX9Y3DK5DJ2QK","","49.60000014305115","img/food4.png","76","51.200000047683716","3","1","false","3","2","1,0.5,0,1,0.5,0,0.5,0,1","1,0.5,0,1,0.5,0,0.5,0,1","1",""
"","html-keyboard-response","112","67369","0.0-166.0","33M4IA01QHN7BB7LV4C4I2D9MLCRXQ","AFEPFMO9863WA","3JUDR1D0D6D4CARU3YX9Y3DK5DJ2QK","","null","<img src=""img/food4.png"" style=""width:200px; border:14px solid green;"">","null","","","","","","","","","",""
"","image-keyboard-response","113","67420","0.0-168.0","33M4IA01QHN7BB7LV4C4I2D9MLCRXQ","AFEPFMO9863WA","3JUDR1D0D6D4CARU3YX9Y3DK5DJ2QK","","49.299999952316284","img/food3.png","76","50.59999990463257","3","0","false","2","2","1,0.5,0,1,0.5,0,0.5,0,1","1,0.5,0,1,0.5,0,0.5,0,1","1",""
"","html-keyboard-response","114","67732","0.0-169.0","33M4IA01QHN7BB7LV4C4I2D9MLCRXQ","AFEPFMO9863WA","3JUDR1D0D6D4CARU3YX9Y3DK5DJ2QK","","null","<img src=""img/food3.png"" style=""width:200px;border:14px solid red;"">","null","","","","","","","","","",""
"","image-keyboard-response","115","67798","0.0-171.0","33M4IA01QHN7BB7LV4C4I2D9MLCRXQ","AFEPFMO9863WA","3JUDR1D0D6D4CARU3YX9Y3DK5DJ2QK","","63.39999985694885","img/food4.png","75","65","2","0","false","3","2","1,0.5,0,1,0.5,0,0.5,0,1","1,0.5,0,1,0.5,0,0.5,0,1","1",""
"","html-keyboard-response","116","68104","0.0-172.0","33M4IA01QHN7BB7LV4C4I2D9MLCRXQ","AFEPFMO9863WA","3JUDR1D0D6D4CARU3YX9Y3DK5DJ2QK","","null","<img src=""img/food4.png"" style=""width:200px;border:14px solid red;"">","null","","","","","","","","","",""
"","image-keyboard-response","117","68173","0.0-174.0","33M4IA01QHN7BB7LV4C4I2D9MLCRXQ","AFEPFMO9863WA","3JUDR1D0D6D4CARU3YX9Y3DK5DJ2QK","","66.40000009536743","img/food4.png","75","67.80000019073486","2","0","false","3","2","1,0.5,0,1,0.5,0,0.5,0,1","1,0.5,0,1,0.5,0,0.5,0,1","1",""
"","html-keyboard-response","118","68481","0.0-175.0","33M4IA01QHN7BB7LV4C4I2D9MLCRXQ","AFEPFMO9863WA","3JUDR1D0D6D4CARU3YX9Y3DK5DJ2QK","","null","<img src=""img/food4.png"" style=""width:200px;border:14px solid red;"">","null","","","","","","","","","",""
"","image-keyboard-response","119","68551","0.0-177.0","33M4IA01QHN7BB7LV4C4I2D9MLCRXQ","AFEPFMO9863WA","3JUDR1D0D6D4CARU3YX9Y3DK5DJ2QK","","68.09999990463257","img/food4.png","76","71.29999995231628","3","1","false","3","2","1,0.5,0,1,0.5,0,0.5,0,1","1,0.5,0,1,0.5,0,0.5,0,1","1",""
"","html-keyboard-response","120","68857","0.0-178.0","33M4IA01QHN7BB7LV4C4I2D9MLCRXQ","AFEPFMO9863WA","3JUDR1D0D6D4CARU3YX9Y3DK5DJ2QK","","null","<img src=""img/food4.png"" style=""width:200px; border:14px solid green;"">","null","","","","","","","","","",""
"","image-keyboard-response","121","68958","0.0-180.0","33M4IA01QHN7BB7LV4C4I2D9MLCRXQ","AFEPFMO9863WA","3JUDR1D0D6D4CARU3YX9Y3DK5DJ2QK","","98.89999985694885","img/food3.png","74","100.5","1","1","false","2","2","1,0.5,0,1,0.5,0,0.5,0,1","1,0.5,0,1,0.5,0,0.5,0,1","1",""
"","html-keyboard-response","122","69265","0.0-181.0","33M4IA01QHN7BB7LV4C4I2D9MLCRXQ","AFEPFMO9863WA","3JUDR1D0D6D4CARU3YX9Y3DK5DJ2QK","","null","<img src=""img/food3.png"" style=""width:200px; border:14px solid green;"">","null","","","","","","","","","",""
"","image-keyboard-response","123","69368","0.0-183.0","33M4IA01QHN7BB7LV4C4I2D9MLCRXQ","AFEPFMO9863WA","3JUDR1D0D6D4CARU3YX9Y3DK5DJ2QK","","101.69999980926514","img/food1.png","74","103.10000014305115","1","1","false","1","2","1,0.5,0,1,0.5,0,0.5,0,1","1,0.5,0,1,0.5,0,0.5,0,1","1",""
"","html-keyboard-response","124","69673","0.0-184.0","33M4IA01QHN7BB7LV4C4I2D9MLCRXQ","AFEPFMO9863WA","3JUDR1D0D6D4CARU3YX9Y3DK5DJ2QK","","null","<img src=""img/food1.png"" style=""width:200px; border:14px solid green;"">","null","","","","","","","","","",""
"","image-keyboard-response","125","69740","0.0-186.0","33M4IA01QHN7BB7LV4C4I2D9MLCRXQ","AFEPFMO9863WA","3JUDR1D0D6D4CARU3YX9Y3DK5DJ2QK","","65.40000009536743","img/food4.png","74","67","1","0","false","3","2","1,0.5,0,1,0.5,0,0.5,0,1","1,0.5,0,1,0.5,0,0.5,0,1","1",""
"","html-keyboard-response","126","70049","0.0-187.0","33M4IA01QHN7BB7LV4C4I2D9MLCRXQ","AFEPFMO9863WA","3JUDR1D0D6D4CARU3YX9Y3DK5DJ2QK","","null","<img src=""img/food4.png"" style=""width:200px;border:14px solid red;"">","null","","","","","","","","","",""
"","image-keyboard-response","127","70070","0.0-189.0","33M4IA01QHN7BB7LV4C4I2D9MLCRXQ","AFEPFMO9863WA","3JUDR1D0D6D4CARU3YX9Y3DK5DJ2QK","","18.59999990463257","img/food1.png","76","20","3","0","false","1","2","1,0.5,0,1,0.5,0,0.5,0,1","1,0.5,0,1,0.5,0,0.5,0,1","1",""
"","html-keyboard-response","128","70376","0.0-190.0","33M4IA01QHN7BB7LV4C4I2D9MLCRXQ","AFEPFMO9863WA","3JUDR1D0D6D4CARU3YX9Y3DK5DJ2QK","","null","<img src=""img/food1.png"" style=""width:200px;border:14px solid red;"">","null","","","","","","","","","",""
"","image-keyboard-response","129","70498","0.0-192.0","33M4IA01QHN7BB7LV4C4I2D9MLCRXQ","AFEPFMO9863WA","3JUDR1D0D6D4CARU3YX9Y3DK5DJ2QK","","119.59999990463257","img/food1.png","74","121.09999990463257","1","1","false","1","2","1,0.5,0,1,0.5,0,0.5,0,1","1,0.5,0,1,0.5,0,0.5,0,1","1",""
"","html-keyboard-response","130","70808","0.0-193.0","33M4IA01QHN7BB7LV4C4I2D9MLCRXQ","AFEPFMO9863WA","3JUDR1D0D6D4CARU3YX9Y3DK5DJ2QK","","null","<img src=""img/food1.png"" style=""width:200px; border:14px solid green;"">","null","","","","","","","","","",""
"","image-keyboard-response","131","70820","0.0-195.0","33M4IA01QHN7BB7LV4C4I2D9MLCRXQ","AFEPFMO9863WA","3JUDR1D0D6D4CARU3YX9Y3DK5DJ2QK","","9.799999952316284","img/food1.png","76","11.099999904632568","3","0","false","1","2","1,0.5,0,1,0.5,0,0.5,0,1","1,0.5,0,1,0.5,0,0.5,0,1","1",""
"","html-keyboard-response","132","71128","0.0-196.0","33M4IA01QHN7BB7LV4C4I2D9MLCRXQ","AFEPFMO9863WA","3JUDR1D0D6D4CARU3YX9Y3DK5DJ2QK","","null","<img src=""img/food1.png"" style=""width:200px;border:14px solid red;"">","null","","","","","","","","","",""
"","image-keyboard-response","133","71223","0.0-198.0","33M4IA01QHN7BB7LV4C4I2D9MLCRXQ","AFEPFMO9863WA","3JUDR1D0D6D4CARU3YX9Y3DK5DJ2QK","","93","img/food4.png","74","94.29999995231628","1","1","false","3","2","1,0.5,0,1,0.5,0,0.5,0,1","1,0.5,0,1,0.5,0,0.5,0,1","1",""
"","html-keyboard-response","134","71528","0.0-199.0","33M4IA01QHN7BB7LV4C4I2D9MLCRXQ","AFEPFMO9863WA","3JUDR1D0D6D4CARU3YX9Y3DK5DJ2QK","","null","<img src=""img/food4.png"" style=""width:200px; border:14px solid green;"">","null","","","","","","","","","",""
"","image-keyboard-response","135","71538","0.0-201.0","33M4IA01QHN7BB7LV4C4I2D9MLCRXQ","AFEPFMO9863WA","3JUDR1D0D6D4CARU3YX9Y3DK5DJ2QK","","6.8999998569488525","img/food4.png","76","8.200000047683716","3","1","false","3","2","1,0.5,0,1,0.5,0,0.5,0,1","1,0.5,0,1,0.5,0,0.5,0,1","1",""
"","html-keyboard-response","136","71840","0.0-202.0","33M4IA01QHN7BB7LV4C4I2D9MLCRXQ","AFEPFMO9863WA","3JUDR1D0D6D4CARU3YX9Y3DK5DJ2QK","","null","<img src=""img/food4.png"" style=""width:200px; border:14px solid green;"">","null","","","","","","","","","",""
"","image-keyboard-response","137","71967","0.0-204.0","33M4IA01QHN7BB7LV4C4I2D9MLCRXQ","AFEPFMO9863WA","3JUDR1D0D6D4CARU3YX9Y3DK5DJ2QK","","125.40000009536743","img/food1.png","74","126.59999990463257","1","1","false","1","2","1,0.5,0,1,0.5,0,0.5,0,1","1,0.5,0,1,0.5,0,0.5,0,1","1",""
"","html-keyboard-response","138","72272","0.0-205.0","33M4IA01QHN7BB7LV4C4I2D9MLCRXQ","AFEPFMO9863WA","3JUDR1D0D6D4CARU3YX9Y3DK5DJ2QK","","null","<img src=""img/food1.png"" style=""width:200px; border:14px solid green;"">","null","","","","","","","","","",""
"","image-keyboard-response","139","72314","0.0-207.0","33M4IA01QHN7BB7LV4C4I2D9MLCRXQ","AFEPFMO9863WA","3JUDR1D0D6D4CARU3YX9Y3DK5DJ2QK","","39.60000014305115","img/food3.png","75","41.09999990463257","2","1","false","2","2","1,0.5,0,1,0.5,0,0.5,0,1","1,0.5,0,1,0.5,0,0.5,0,1","1",""
"","html-keyboard-response","140","72616","0.0-208.0","33M4IA01QHN7BB7LV4C4I2D9MLCRXQ","AFEPFMO9863WA","3JUDR1D0D6D4CARU3YX9Y3DK5DJ2QK","","null","<img src=""img/food3.png"" style=""width:200px; border:14px solid green;"">","null","","","","","","","","","",""
"","image-keyboard-response","141","72689","0.0-210.0","33M4IA01QHN7BB7LV4C4I2D9MLCRXQ","AFEPFMO9863WA","3JUDR1D0D6D4CARU3YX9Y3DK5DJ2QK","","70.10000014305115","img/food3.png","75","72","2","0","false","2","2","1,0.5,0,1,0.5,0,0.5,0,1","1,0.5,0,1,0.5,0,0.5,0,1","1",""
"","html-keyboard-response","142","72992","0.0-211.0","33M4IA01QHN7BB7LV4C4I2D9MLCRXQ","AFEPFMO9863WA","3JUDR1D0D6D4CARU3YX9Y3DK5DJ2QK","","null","<img src=""img/food3.png"" style=""width:200px;border:14px solid red;"">","null","","","","","","","","","",""
"","image-keyboard-response","143","73046","0.0-213.0","33M4IA01QHN7BB7LV4C4I2D9MLCRXQ","AFEPFMO9863WA","3JUDR1D0D6D4CARU3YX9Y3DK5DJ2QK","","50.799999952316284","img/food1.png","74","52.5","1","1","false","1","2","1,0.5,0,1,0.5,0,0.5,0,1","1,0.5,0,1,0.5,0,0.5,0,1","1",""
"","html-keyboard-response","144","73352","0.0-214.0","33M4IA01QHN7BB7LV4C4I2D9MLCRXQ","AFEPFMO9863WA","3JUDR1D0D6D4CARU3YX9Y3DK5DJ2QK","","null","<img src=""img/food1.png"" style=""width:200px; border:14px solid green;"">","null","","","","","","","","","",""
"","image-keyboard-response","145","73386","0.0-216.0","33M4IA01QHN7BB7LV4C4I2D9MLCRXQ","AFEPFMO9863WA","3JUDR1D0D6D4CARU3YX9Y3DK5DJ2QK","","31.800000190734863","img/food3.png","76","33.39999985694885","3","0","false","2","2","1,0.5,0,1,0.5,0,0.5,0,1","1,0.5,0,1,0.5,0,0.5,0,1","1",""
"","html-keyboard-response","146","73689","0.0-217.0","33M4IA01QHN7BB7LV4C4I2D9MLCRXQ","AFEPFMO9863WA","3JUDR1D0D6D4CARU3YX9Y3DK5DJ2QK","","null","<img src=""img/food3.png"" style=""width:200px;border:14px solid red;"">","null","","","","","","","","","",""
"","image-keyboard-response","147","73710","0.0-219.0","33M4IA01QHN7BB7LV4C4I2D9MLCRXQ","AFEPFMO9863WA","3JUDR1D0D6D4CARU3YX9Y3DK5DJ2QK","","19.5","img/food4.png","74","20.899999856948853","1","1","false","3","2","1,0.5,0,1,0.5,0,0.5,0,1","1,0.5,0,1,0.5,0,0.5,0,1","1",""
"","html-keyboard-response","148","74016","0.0-220.0","33M4IA01QHN7BB7LV4C4I2D9MLCRXQ","AFEPFMO9863WA","3JUDR1D0D6D4CARU3YX9Y3DK5DJ2QK","","null","<img src=""img/food4.png"" style=""width:200px; border:14px solid green;"">","null","","","","","","","","","",""
"","image-keyboard-response","149","74026","0.0-222.0","33M4IA01QHN7BB7LV4C4I2D9MLCRXQ","AFEPFMO9863WA","3JUDR1D0D6D4CARU3YX9Y3DK5DJ2QK","","7.700000047683716","img/food1.png","76","9.300000190734863","3","0","false","1","2","1,0.5,0,1,0.5,0,0.5,0,1","1,0.5,0,1,0.5,0,0.5,0,1","1",""
"","html-keyboard-response","150","74329","0.0-223.0","33M4IA01QHN7BB7LV4C4I2D9MLCRXQ","AFEPFMO9863WA","3JUDR1D0D6D4CARU3YX9Y3DK5DJ2QK","","null","<img src=""img/food1.png"" style=""width:200px;border:14px solid red;"">","null","","","","","","","","","",""
"","image-keyboard-response","151","74371","0.0-225.0","33M4IA01QHN7BB7LV4C4I2D9MLCRXQ","AFEPFMO9863WA","3JUDR1D0D6D4CARU3YX9Y3DK5DJ2QK","","40.10000014305115","img/food3.png","74","41.60000014305115","1","1","false","2","2","1,0.5,0,1,0.5,0,0.5,0,1","1,0.5,0,1,0.5,0,0.5,0,1","1",""
"","html-keyboard-response","152","74680","0.0-226.0","33M4IA01QHN7BB7LV4C4I2D9MLCRXQ","AFEPFMO9863WA","3JUDR1D0D6D4CARU3YX9Y3DK5DJ2QK","","null","<img src=""img/food3.png"" style=""width:200px; border:14px solid green;"">","null","","","","","","","","","",""
"","image-keyboard-response","153","75063","0.0-228.0","33M4IA01QHN7BB7LV4C4I2D9MLCRXQ","AFEPFMO9863WA","3JUDR1D0D6D4CARU3YX9Y3DK5DJ2QK","","380.09999990463257","img/food3.png","75","381.5","2","1","false","2","2","1,0.5,0,1,0.5,0,0.5,0,1","1,0.5,0,1,0.5,0,0.5,0,1","1",""
"","html-keyboard-response","154","75369","0.0-229.0","33M4IA01QHN7BB7LV4C4I2D9MLCRXQ","AFEPFMO9863WA","3JUDR1D0D6D4CARU3YX9Y3DK5DJ2QK","","null","<img src=""img/food3.png"" style=""width:200px; border:14px solid green;"">","null","","","","","","","","","",""
"","image-keyboard-response","155","75437","0.0-231.0","33M4IA01QHN7BB7LV4C4I2D9MLCRXQ","AFEPFMO9863WA","3JUDR1D0D6D4CARU3YX9Y3DK5DJ2QK","","66.5","img/food4.png","74","68.09999990463257","1","1","false","3","2","1,0.5,0,1,0.5,0,0.5,0,1","1,0.5,0,1,0.5,0,0.5,0,1","1",""
"","html-keyboard-response","156","75745","0.0-232.0","33M4IA01QHN7BB7LV4C4I2D9MLCRXQ","AFEPFMO9863WA","3JUDR1D0D6D4CARU3YX9Y3DK5DJ2QK","","null","<img src=""img/food4.png"" style=""width:200px; border:14px solid green;"">","null","","","","","","","","","",""
"","image-keyboard-response","157","75764","0.0-234.0","33M4IA01QHN7BB7LV4C4I2D9MLCRXQ","AFEPFMO9863WA","3JUDR1D0D6D4CARU3YX9Y3DK5DJ2QK","","17.699999809265137","img/food4.png","75","19.199999809265137","2","0","false","3","2","1,0.5,0,1,0.5,0,0.5,0,1","1,0.5,0,1,0.5,0,0.5,0,1","1",""
"","html-keyboard-response","158","76073","0.0-235.0","33M4IA01QHN7BB7LV4C4I2D9MLCRXQ","AFEPFMO9863WA","3JUDR1D0D6D4CARU3YX9Y3DK5DJ2QK","","null","<img src=""img/food4.png"" style=""width:200px;border:14px solid red;"">","null","","","","","","","","","",""
"","image-keyboard-response","159","76107","0.0-237.0","33M4IA01QHN7BB7LV4C4I2D9MLCRXQ","AFEPFMO9863WA","3JUDR1D0D6D4CARU3YX9Y3DK5DJ2QK","","32.299999952316284","img/food3.png","75","34","2","1","false","2","2","1,0.5,0,1,0.5,0,0.5,0,1","1,0.5,0,1,0.5,0,0.5,0,1","1",""
"","html-keyboard-response","160","76417","0.0-238.0","33M4IA01QHN7BB7LV4C4I2D9MLCRXQ","AFEPFMO9863WA","3JUDR1D0D6D4CARU3YX9Y3DK5DJ2QK","","null","<img src=""img/food3.png"" style=""width:200px; border:14px solid green;"">","null","","","","","","","","","",""
"","image-keyboard-response","161","76460","0.0-240.0","33M4IA01QHN7BB7LV4C4I2D9MLCRXQ","AFEPFMO9863WA","3JUDR1D0D6D4CARU3YX9Y3DK5DJ2QK","","40.700000047683716","img/food3.png","74","42.60000014305115","1","1","false","2","2","1,0.5,0,1,0.5,0,0.5,0,1","1,0.5,0,1,0.5,0,0.5,0,1","1",""
"","html-keyboard-response","162","76769","0.0-241.0","33M4IA01QHN7BB7LV4C4I2D9MLCRXQ","AFEPFMO9863WA","3JUDR1D0D6D4CARU3YX9Y3DK5DJ2QK","","null","<img src=""img/food3.png"" style=""width:200px; border:14px solid green;"">","null","","","","","","","","","",""
"","image-keyboard-response","163","76797","0.0-243.0","33M4IA01QHN7BB7LV4C4I2D9MLCRXQ","AFEPFMO9863WA","3JUDR1D0D6D4CARU3YX9Y3DK5DJ2QK","","26.40000009536743","img/food3.png","75","27.700000047683716","2","0","false","2","2","1,0.5,0,1,0.5,0,0.5,0,1","1,0.5,0,1,0.5,0,0.5,0,1","1",""
"","html-keyboard-response","164","77105","0.0-244.0","33M4IA01QHN7BB7LV4C4I2D9MLCRXQ","AFEPFMO9863WA","3JUDR1D0D6D4CARU3YX9Y3DK5DJ2QK","","null","<img src=""img/food3.png"" style=""width:200px;border:14px solid red;"">","null","","","","","","","","","",""
"","image-keyboard-response","165","77148","0.0-246.0","33M4IA01QHN7BB7LV4C4I2D9MLCRXQ","AFEPFMO9863WA","3JUDR1D0D6D4CARU3YX9Y3DK5DJ2QK","","41","img/food1.png","74","42.40000009536743","1","1","false","1","2","1,0.5,0,1,0.5,0,0.5,0,1","1,0.5,0,1,0.5,0,0.5,0,1","1",""
"","html-keyboard-response","166","77457","0.0-247.0","33M4IA01QHN7BB7LV4C4I2D9MLCRXQ","AFEPFMO9863WA","3JUDR1D0D6D4CARU3YX9Y3DK5DJ2QK","","null","<img src=""img/food1.png"" style=""width:200px; border:14px solid green;"">","null","","","","","","","","","",""
"","image-keyboard-response","167","77805","0.0-249.0","33M4IA01QHN7BB7LV4C4I2D9MLCRXQ","AFEPFMO9863WA","3JUDR1D0D6D4CARU3YX9Y3DK5DJ2QK","","346.39999985694885","img/food3.png","74","347.90000009536743","1","1","false","2","2","1,0.5,0,1,0.5,0,0.5,0,1","1,0.5,0,1,0.5,0,0.5,0,1","1",""
"","html-keyboard-response","168","78108","0.0-250.0","33M4IA01QHN7BB7LV4C4I2D9MLCRXQ","AFEPFMO9863WA","3JUDR1D0D6D4CARU3YX9Y3DK5DJ2QK","","null","<img src=""img/food3.png"" style=""width:200px; border:14px solid green;"">","null","","","","","","","","","",""
"","image-keyboard-response","169","78483","0.0-252.0","33M4IA01QHN7BB7LV4C4I2D9MLCRXQ","AFEPFMO9863WA","3JUDR1D0D6D4CARU3YX9Y3DK5DJ2QK","","372.09999990463257","img/food3.png","75","373.60000014305115","2","0","false","2","2","1,0.5,0,1,0.5,0,0.5,0,1","1,0.5,0,1,0.5,0,0.5,0,1","1",""
"","html-keyboard-response","170","78785","0.0-253.0","33M4IA01QHN7BB7LV4C4I2D9MLCRXQ","AFEPFMO9863WA","3JUDR1D0D6D4CARU3YX9Y3DK5DJ2QK","","null","<img src=""img/food3.png"" style=""width:200px;border:14px solid red;"">","null","","","","","","","","","",""
"","image-keyboard-response","171","78826","0.0-255.0","33M4IA01QHN7BB7LV4C4I2D9MLCRXQ","AFEPFMO9863WA","3JUDR1D0D6D4CARU3YX9Y3DK5DJ2QK","","38.60000014305115","img/food3.png","74","40.299999952316284","1","1","false","2","2","1,0.5,0,1,0.5,0,0.5,0,1","1,0.5,0,1,0.5,0,0.5,0,1","1",""
"","html-keyboard-response","172","79129","0.0-256.0","33M4IA01QHN7BB7LV4C4I2D9MLCRXQ","AFEPFMO9863WA","3JUDR1D0D6D4CARU3YX9Y3DK5DJ2QK","","null","<img src=""img/food3.png"" style=""width:200px; border:14px solid green;"">","null","","","","","","","","","",""
"","image-keyboard-response","173","79190","0.0-258.0","33M4IA01QHN7BB7LV4C4I2D9MLCRXQ","AFEPFMO9863WA","3JUDR1D0D6D4CARU3YX9Y3DK5DJ2QK","","58.799999952316284","img/food1.png","74","60.200000047683716","1","1","false","1","2","1,0.5,0,1,0.5,0,0.5,0,1","1,0.5,0,1,0.5,0,0.5,0,1","1",""
"","html-keyboard-response","174","79496","0.0-259.0","33M4IA01QHN7BB7LV4C4I2D9MLCRXQ","AFEPFMO9863WA","3JUDR1D0D6D4CARU3YX9Y3DK5DJ2QK","","null","<img src=""img/food1.png"" style=""width:200px; border:14px solid green;"">","null","","","","","","","","","",""
"","image-keyboard-response","175","79534","0.0-261.0","33M4IA01QHN7BB7LV4C4I2D9MLCRXQ","AFEPFMO9863WA","3JUDR1D0D6D4CARU3YX9Y3DK5DJ2QK","","35.700000047683716","img/food3.png","76","37","3","0","false","2","2","1,0.5,0,1,0.5,0,0.5,0,1","1,0.5,0,1,0.5,0,0.5,0,1","1",""
"","html-keyboard-response","176","79841","0.0-262.0","33M4IA01QHN7BB7LV4C4I2D9MLCRXQ","AFEPFMO9863WA","3JUDR1D0D6D4CARU3YX9Y3DK5DJ2QK","","null","<img src=""img/food3.png"" style=""width:200px;border:14px solid red;"">","null","","","","","","","","","",""
"","image-keyboard-response","177","79923","0.0-264.0","33M4IA01QHN7BB7LV4C4I2D9MLCRXQ","AFEPFMO9863WA","3JUDR1D0D6D4CARU3YX9Y3DK5DJ2QK","","79.60000014305115","img/food3.png","74","81.10000014305115","1","1","false","2","2","1,0.5,0,1,0.5,0,0.5,0,1","1,0.5,0,1,0.5,0,0.5,0,1","1",""
"","html-keyboard-response","178","80225","0.0-265.0","33M4IA01QHN7BB7LV4C4I2D9MLCRXQ","AFEPFMO9863WA","3JUDR1D0D6D4CARU3YX9Y3DK5DJ2QK","","null","<img src=""img/food3.png"" style=""width:200px; border:14px solid green;"">","null","","","","","","","","","",""
"","image-keyboard-response","179","80273","0.0-267.0","33M4IA01QHN7BB7LV4C4I2D9MLCRXQ","AFEPFMO9863WA","3JUDR1D0D6D4CARU3YX9Y3DK5DJ2QK","","46.5","img/food4.png","76","48.10000014305115","3","1","false","3","2","1,0.5,0,1,0.5,0,0.5,0,1","1,0.5,0,1,0.5,0,0.5,0,1","1",""
"","html-keyboard-response","180","80577","0.0-268.0","33M4IA01QHN7BB7LV4C4I2D9MLCRXQ","AFEPFMO9863WA","3JUDR1D0D6D4CARU3YX9Y3DK5DJ2QK","","null","<img src=""img/food4.png"" style=""width:200px; border:14px solid green;"">","null","","","","","","","","","",""
"","image-keyboard-response","181","80658","0.0-270.0","33M4IA01QHN7BB7LV4C4I2D9MLCRXQ","AFEPFMO9863WA","3JUDR1D0D6D4CARU3YX9Y3DK5DJ2QK","","79.70000004768372","img/food1.png","74","81.20000004768372","1","1","false","1","2","1,0.5,0,1,0.5,0,0.5,0,1","1,0.5,0,1,0.5,0,0.5,0,1","1",""
"","html-keyboard-response","182","80964","0.0-271.0","33M4IA01QHN7BB7LV4C4I2D9MLCRXQ","AFEPFMO9863WA","3JUDR1D0D6D4CARU3YX9Y3DK5DJ2QK","","null","<img src=""img/food1.png"" style=""width:200px; border:14px solid green;"">","null","","","","","","","","","",""
"","instructions","183","117700","0.0-273.0","33M4IA01QHN7BB7LV4C4I2D9MLCRXQ","AFEPFMO9863WA","3JUDR1D0D6D4CARU3YX9Y3DK5DJ2QK","[{""page_index"":0,""viewing_time"":33795.300000190735},{""page_index"":1,""viewing_time"":2938.699999809265}]","36734.300000190735","","","","","","","","","","","",""
"","image-keyboard-response","184","117985","0.0-274.0","33M4IA01QHN7BB7LV4C4I2D9MLCRXQ","AFEPFMO9863WA","3JUDR1D0D6D4CARU3YX9Y3DK5DJ2QK","","284","img/food6.png","74","285.5","1","0","","2","1","1,0.5,0,1,0.5,0,0.5,0,1","0,1,0.5,0,1,0.5,1,0.5,0","3",""
"","html-keyboard-response","185","118289","0.0-275.0","33M4IA01QHN7BB7LV4C4I2D9MLCRXQ","AFEPFMO9863WA","3JUDR1D0D6D4CARU3YX9Y3DK5DJ2QK","","null","<img src=""img/food6.png"" style=""width:200px;border:14px solid red;"">","null","","","","","","","","","",""
"","image-keyboard-response","186","118590","0.0-276.0","33M4IA01QHN7BB7LV4C4I2D9MLCRXQ","AFEPFMO9863WA","3JUDR1D0D6D4CARU3YX9Y3DK5DJ2QK","","300.2000000476837","img/food6.png","75","301.7999999523163","2","1","","2","1","1,0.5,0,1,0.5,0,0.5,0,1","0,1,0.5,0,1,0.5,1,0.5,0","3",""
"","html-keyboard-response","187","118897","0.0-277.0","33M4IA01QHN7BB7LV4C4I2D9MLCRXQ","AFEPFMO9863WA","3JUDR1D0D6D4CARU3YX9Y3DK5DJ2QK","","null","<img src=""img/food6.png"" style=""width:200px; border:14px solid green;"">","null","","","","","","","","","",""
"","image-keyboard-response","188","118966","0.0-278.0","33M4IA01QHN7BB7LV4C4I2D9MLCRXQ","AFEPFMO9863WA","3JUDR1D0D6D4CARU3YX9Y3DK5DJ2QK","","67.20000004768372","img/food5.png","76","68.90000009536743","3","0","","3","1","1,0.5,0,1,0.5,0,0.5,0,1","0,1,0.5,0,1,0.5,1,0.5,0","3",""
"","html-keyboard-response","189","119273","0.0-279.0","33M4IA01QHN7BB7LV4C4I2D9MLCRXQ","AFEPFMO9863WA","3JUDR1D0D6D4CARU3YX9Y3DK5DJ2QK","","null","<img src=""img/food5.png"" style=""width:200px;border:14px solid red;"">","null","","","","","","","","","",""
"","image-keyboard-response","190","119315","0.0-280.0","33M4IA01QHN7BB7LV4C4I2D9MLCRXQ","AFEPFMO9863WA","3JUDR1D0D6D4CARU3YX9Y3DK5DJ2QK","","41.19999980926514","img/food2.png","75","42.700000047683716","2","1","","1","1","1,0.5,0,1,0.5,0,0.5,0,1","0,1,0.5,0,1,0.5,1,0.5,0","3",""
"","html-keyboard-response","191","119625","0.0-281.0","33M4IA01QHN7BB7LV4C4I2D9MLCRXQ","AFEPFMO9863WA","3JUDR1D0D6D4CARU3YX9Y3DK5DJ2QK","","null","<img src=""img/food2.png"" style=""width:200px; border:14px solid green;"">","null","","","","","","","","","",""
"","image-keyboard-response","192","119701","0.0-282.0","33M4IA01QHN7BB7LV4C4I2D9MLCRXQ","AFEPFMO9863WA","3JUDR1D0D6D4CARU3YX9Y3DK5DJ2QK","","74.59999990463257","img/food6.png","75","76","2","1","","2","1","1,0.5,0,1,0.5,0,0.5,0,1","0,1,0.5,0,1,0.5,1,0.5,0","3",""
"","html-keyboard-response","193","120009","0.0-283.0","33M4IA01QHN7BB7LV4C4I2D9MLCRXQ","AFEPFMO9863WA","3JUDR1D0D6D4CARU3YX9Y3DK5DJ2QK","","null","<img src=""img/food6.png"" style=""width:200px; border:14px solid green;"">","null","","","","","","","","","",""
"","image-keyboard-response","194","120291","0.0-284.0","33M4IA01QHN7BB7LV4C4I2D9MLCRXQ","AFEPFMO9863WA","3JUDR1D0D6D4CARU3YX9Y3DK5DJ2QK","","280.7999999523163","img/food2.png","74","282.30000019073486","1","0","","1","1","1,0.5,0,1,0.5,0,0.5,0,1","0,1,0.5,0,1,0.5,1,0.5,0","3",""
"","html-keyboard-response","195","120600","0.0-285.0","33M4IA01QHN7BB7LV4C4I2D9MLCRXQ","AFEPFMO9863WA","3JUDR1D0D6D4CARU3YX9Y3DK5DJ2QK","","null","<img src=""img/food2.png"" style=""width:200px;border:14px solid red;"">","null","","","","","","","","","",""
"","image-keyboard-response","196","120650","0.0-286.0","33M4IA01QHN7BB7LV4C4I2D9MLCRXQ","AFEPFMO9863WA","3JUDR1D0D6D4CARU3YX9Y3DK5DJ2QK","","47.40000009536743","img/food2.png","75","48.89999985694885","2","1","","1","1","1,0.5,0,1,0.5,0,0.5,0,1","0,1,0.5,0,1,0.5,1,0.5,0","3",""
"","html-keyboard-response","197","120952","0.0-287.0","33M4IA01QHN7BB7LV4C4I2D9MLCRXQ","AFEPFMO9863WA","3JUDR1D0D6D4CARU3YX9Y3DK5DJ2QK","","null","<img src=""img/food2.png"" style=""width:200px; border:14px solid green;"">","null","","","","","","","","","",""
"","image-keyboard-response","198","121067","0.0-288.0","33M4IA01QHN7BB7LV4C4I2D9MLCRXQ","AFEPFMO9863WA","3JUDR1D0D6D4CARU3YX9Y3DK5DJ2QK","","112.09999990463257","img/food2.png","75","113.79999995231628","2","1","","1","1","1,0.5,0,1,0.5,0,0.5,0,1","0,1,0.5,0,1,0.5,1,0.5,0","3",""
"","html-keyboard-response","199","121376","0.0-289.0","33M4IA01QHN7BB7LV4C4I2D9MLCRXQ","AFEPFMO9863WA","3JUDR1D0D6D4CARU3YX9Y3DK5DJ2QK","","null","<img src=""img/food2.png"" style=""width:200px; border:14px solid green;"">","null","","","","","","","","","",""
"","image-keyboard-response","200","121435","0.0-290.0","33M4IA01QHN7BB7LV4C4I2D9MLCRXQ","AFEPFMO9863WA","3JUDR1D0D6D4CARU3YX9Y3DK5DJ2QK","","56.60000014305115","img/food2.png","75","57.90000009536743","2","1","","1","1","1,0.5,0,1,0.5,0,0.5,0,1","0,1,0.5,0,1,0.5,1,0.5,0","3",""
"","html-keyboard-response","201","121745","0.0-291.0","33M4IA01QHN7BB7LV4C4I2D9MLCRXQ","AFEPFMO9863WA","3JUDR1D0D6D4CARU3YX9Y3DK5DJ2QK","","null","<img src=""img/food2.png"" style=""width:200px; border:14px solid green;"">","null","","","","","","","","","",""
"","image-keyboard-response","202","121820","0.0-292.0","33M4IA01QHN7BB7LV4C4I2D9MLCRXQ","AFEPFMO9863WA","3JUDR1D0D6D4CARU3YX9Y3DK5DJ2QK","","73.79999995231628","img/food2.png","75","75.29999995231628","2","1","","1","1","1,0.5,0,1,0.5,0,0.5,0,1","0,1,0.5,0,1,0.5,1,0.5,0","3",""
"","html-keyboard-response","203","122128","0.0-293.0","33M4IA01QHN7BB7LV4C4I2D9MLCRXQ","AFEPFMO9863WA","3JUDR1D0D6D4CARU3YX9Y3DK5DJ2QK","","null","<img src=""img/food2.png"" style=""width:200px; border:14px solid green;"">","null","","","","","","","","","",""
"","image-keyboard-response","204","122182","0.0-294.0","33M4IA01QHN7BB7LV4C4I2D9MLCRXQ","AFEPFMO9863WA","3JUDR1D0D6D4CARU3YX9Y3DK5DJ2QK","","52.299999952316284","img/food5.png","75","53.69999980926514","2","1","","3","1","1,0.5,0,1,0.5,0,0.5,0,1","0,1,0.5,0,1,0.5,1,0.5,0","3",""
"","html-keyboard-response","205","122489","0.0-295.0","33M4IA01QHN7BB7LV4C4I2D9MLCRXQ","AFEPFMO9863WA","3JUDR1D0D6D4CARU3YX9Y3DK5DJ2QK","","null","<img src=""img/food5.png"" style=""width:200px; border:14px solid green;"">","null","","","","","","","","","",""
"","image-keyboard-response","206","122520","0.0-296.0","33M4IA01QHN7BB7LV4C4I2D9MLCRXQ","AFEPFMO9863WA","3JUDR1D0D6D4CARU3YX9Y3DK5DJ2QK","","29.199999809265137","img/food6.png","74","30.90000009536743","1","0","","2","1","1,0.5,0,1,0.5,0,0.5,0,1","0,1,0.5,0,1,0.5,1,0.5,0","3",""
"","html-keyboard-response","207","122825","0.0-297.0","33M4IA01QHN7BB7LV4C4I2D9MLCRXQ","AFEPFMO9863WA","3JUDR1D0D6D4CARU3YX9Y3DK5DJ2QK","","null","<img src=""img/food6.png"" style=""width:200px;border:14px solid red;"">","null","","","","","","","","","",""
"","image-keyboard-response","208","122945","0.0-298.0","33M4IA01QHN7BB7LV4C4I2D9MLCRXQ","AFEPFMO9863WA","3JUDR1D0D6D4CARU3YX9Y3DK5DJ2QK","","118.29999995231628","img/food5.png","74","119.89999985694885","1","1","","3","1","1,0.5,0,1,0.5,0,0.5,0,1","0,1,0.5,0,1,0.5,1,0.5,0","3",""
"","html-keyboard-response","209","123257","0.0-299.0","33M4IA01QHN7BB7LV4C4I2D9MLCRXQ","AFEPFMO9863WA","3JUDR1D0D6D4CARU3YX9Y3DK5DJ2QK","","null","<img src=""img/food5.png"" style=""width:200px; border:14px solid green;"">","null","","","","","","","","","",""
"","image-keyboard-response","210","123298","0.0-300.0","33M4IA01QHN7BB7LV4C4I2D9MLCRXQ","AFEPFMO9863WA","3JUDR1D0D6D4CARU3YX9Y3DK5DJ2QK","","39.799999952316284","img/food6.png","74","41.40000009536743","1","0","","2","1","1,0.5,0,1,0.5,0,0.5,0,1","0,1,0.5,0,1,0.5,1,0.5,0","3",""
"","html-keyboard-response","211","123601","0.0-301.0","33M4IA01QHN7BB7LV4C4I2D9MLCRXQ","AFEPFMO9863WA","3JUDR1D0D6D4CARU3YX9Y3DK5DJ2QK","","null","<img src=""img/food6.png"" style=""width:200px;border:14px solid red;"">","null","","","","","","","","","",""
"","image-keyboard-response","212","123668","0.0-302.0","33M4IA01QHN7BB7LV4C4I2D9MLCRXQ","AFEPFMO9863WA","3JUDR1D0D6D4CARU3YX9Y3DK5DJ2QK","","65.29999995231628","img/food6.png","75","66.70000004768372","2","1","","2","1","1,0.5,0,1,0.5,0,0.5,0,1","0,1,0.5,0,1,0.5,1,0.5,0","3",""
"","html-keyboard-response","213","123976","0.0-303.0","33M4IA01QHN7BB7LV4C4I2D9MLCRXQ","AFEPFMO9863WA","3JUDR1D0D6D4CARU3YX9Y3DK5DJ2QK","","null","<img src=""img/food6.png"" style=""width:200px; border:14px solid green;"">","null","","","","","","","","","",""
"","image-keyboard-response","214","124079","0.0-304.0","33M4IA01QHN7BB7LV4C4I2D9MLCRXQ","AFEPFMO9863WA","3JUDR1D0D6D4CARU3YX9Y3DK5DJ2QK","","100.80000019073486","img/food5.png","75","102","2","1","","3","1","1,0.5,0,1,0.5,0,0.5,0,1","0,1,0.5,0,1,0.5,1,0.5,0","3",""
"","html-keyboard-response","215","124384","0.0-305.0","33M4IA01QHN7BB7LV4C4I2D9MLCRXQ","AFEPFMO9863WA","3JUDR1D0D6D4CARU3YX9Y3DK5DJ2QK","","null","<img src=""img/food5.png"" style=""width:200px; border:14px solid green;"">","null","","","","","","","","","",""
"","image-keyboard-response","216","124417","0.0-306.0","33M4IA01QHN7BB7LV4C4I2D9MLCRXQ","AFEPFMO9863WA","3JUDR1D0D6D4CARU3YX9Y3DK5DJ2QK","","30.59999990463257","img/food2.png","76","32.200000047683716","3","1","","1","1","1,0.5,0,1,0.5,0,0.5,0,1","0,1,0.5,0,1,0.5,1,0.5,0","3",""
"","html-keyboard-response","217","124721","0.0-307.0","33M4IA01QHN7BB7LV4C4I2D9MLCRXQ","AFEPFMO9863WA","3JUDR1D0D6D4CARU3YX9Y3DK5DJ2QK","","null","<img src=""img/food2.png"" style=""width:200px; border:14px solid green;"">","null","","","","","","","","","",""
"","image-keyboard-response","218","124791","0.0-308.0","33M4IA01QHN7BB7LV4C4I2D9MLCRXQ","AFEPFMO9863WA","3JUDR1D0D6D4CARU3YX9Y3DK5DJ2QK","","68.20000004768372","img/food6.png","75","69.70000004768372","2","1","","2","1","1,0.5,0,1,0.5,0,0.5,0,1","0,1,0.5,0,1,0.5,1,0.5,0","3",""
"","html-keyboard-response","219","125097","0.0-309.0","33M4IA01QHN7BB7LV4C4I2D9MLCRXQ","AFEPFMO9863WA","3JUDR1D0D6D4CARU3YX9Y3DK5DJ2QK","","null","<img src=""img/food6.png"" style=""width:200px; border:14px solid green;"">","null","","","","","","","","","",""
"","image-keyboard-response","220","125152","0.0-310.0","33M4IA01QHN7BB7LV4C4I2D9MLCRXQ","AFEPFMO9863WA","3JUDR1D0D6D4CARU3YX9Y3DK5DJ2QK","","52.799999952316284","img/food6.png","75","54.80000019073486","2","1","","2","1","1,0.5,0,1,0.5,0,0.5,0,1","0,1,0.5,0,1,0.5,1,0.5,0","3",""
"","html-keyboard-response","221","125457","0.0-311.0","33M4IA01QHN7BB7LV4C4I2D9MLCRXQ","AFEPFMO9863WA","3JUDR1D0D6D4CARU3YX9Y3DK5DJ2QK","","null","<img src=""img/food6.png"" style=""width:200px; border:14px solid green;"">","null","","","","","","","","","",""
"","image-keyboard-response","222","125550","0.0-312.0","33M4IA01QHN7BB7LV4C4I2D9MLCRXQ","AFEPFMO9863WA","3JUDR1D0D6D4CARU3YX9Y3DK5DJ2QK","","91.60000014305115","img/food5.png","74","93","1","1","","3","1","1,0.5,0,1,0.5,0,0.5,0,1","0,1,0.5,0,1,0.5,1,0.5,0","3",""
"","html-keyboard-response","223","125856","0.0-313.0","33M4IA01QHN7BB7LV4C4I2D9MLCRXQ","AFEPFMO9863WA","3JUDR1D0D6D4CARU3YX9Y3DK5DJ2QK","","null","<img src=""img/food5.png"" style=""width:200px; border:14px solid green;"">","null","","","","","","","","","",""
"","image-keyboard-response","224","125885","0.0-314.0","33M4IA01QHN7BB7LV4C4I2D9MLCRXQ","AFEPFMO9863WA","3JUDR1D0D6D4CARU3YX9Y3DK5DJ2QK","","26.59999990463257","img/food2.png","75","28.200000047683716","2","1","","1","1","1,0.5,0,1,0.5,0,0.5,0,1","0,1,0.5,0,1,0.5,1,0.5,0","3",""
"","html-keyboard-response","225","126192","0.0-315.0","33M4IA01QHN7BB7LV4C4I2D9MLCRXQ","AFEPFMO9863WA","3JUDR1D0D6D4CARU3YX9Y3DK5DJ2QK","","null","<img src=""img/food2.png"" style=""width:200px; border:14px solid green;"">","null","","","","","","","","","",""
"","image-keyboard-response","226","126293","0.0-316.0","33M4IA01QHN7BB7LV4C4I2D9MLCRXQ","AFEPFMO9863WA","3JUDR1D0D6D4CARU3YX9Y3DK5DJ2QK","","98.5","img/food2.png","74","100.29999995231628","1","0","","1","1","1,0.5,0,1,0.5,0,0.5,0,1","0,1,0.5,0,1,0.5,1,0.5,0","3",""
"","html-keyboard-response","227","126611","0.0-317.0","33M4IA01QHN7BB7LV4C4I2D9MLCRXQ","AFEPFMO9863WA","3JUDR1D0D6D4CARU3YX9Y3DK5DJ2QK","","null","<img src=""img/food2.png"" style=""width:200px;border:14px solid red;"">","null","","","","","","","","","",""
"","image-keyboard-response","228","126689","0.0-318.0","33M4IA01QHN7BB7LV4C4I2D9MLCRXQ","AFEPFMO9863WA","3JUDR1D0D6D4CARU3YX9Y3DK5DJ2QK","","75.70000004768372","img/food5.png","76","77","3","0","","3","1","1,0.5,0,1,0.5,0,0.5,0,1","0,1,0.5,0,1,0.5,1,0.5,0","3",""
"","html-keyboard-response","229","126993","0.0-319.0","33M4IA01QHN7BB7LV4C4I2D9MLCRXQ","AFEPFMO9863WA","3JUDR1D0D6D4CARU3YX9Y3DK5DJ2QK","","null","<img src=""img/food5.png"" style=""width:200px;border:14px solid red;"">","null","","","","","","","","","",""
"","image-keyboard-response","230","127070","0.0-320.0","33M4IA01QHN7BB7LV4C4I2D9MLCRXQ","AFEPFMO9863WA","3JUDR1D0D6D4CARU3YX9Y3DK5DJ2QK","","75.29999995231628","img/food2.png","75","76.69999980926514","2","1","","1","1","1,0.5,0,1,0.5,0,0.5,0,1","0,1,0.5,0,1,0.5,1,0.5,0","3",""
"","html-keyboard-response","231","127376","0.0-321.0","33M4IA01QHN7BB7LV4C4I2D9MLCRXQ","AFEPFMO9863WA","3JUDR1D0D6D4CARU3YX9Y3DK5DJ2QK","","null","<img src=""img/food2.png"" style=""width:200px; border:14px solid green;"">","null","","","","","","","","","",""
"","image-keyboard-response","232","127476","0.0-322.0","33M4IA01QHN7BB7LV4C4I2D9MLCRXQ","AFEPFMO9863WA","3JUDR1D0D6D4CARU3YX9Y3DK5DJ2QK","","98.20000004768372","img/food6.png","75","99.60000014305115","2","1","","2","1","1,0.5,0,1,0.5,0,0.5,0,1","0,1,0.5,0,1,0.5,1,0.5,0","3",""
"","html-keyboard-response","233","127784","0.0-323.0","33M4IA01QHN7BB7LV4C4I2D9MLCRXQ","AFEPFMO9863WA","3JUDR1D0D6D4CARU3YX9Y3DK5DJ2QK","","null","<img src=""img/food6.png"" style=""width:200px; border:14px solid green;"">","null","","","","","","","","","",""
"","image-keyboard-response","234","127912","0.0-324.0","33M4IA01QHN7BB7LV4C4I2D9MLCRXQ","AFEPFMO9863WA","3JUDR1D0D6D4CARU3YX9Y3DK5DJ2QK","","126.20000004768372","img/food2.png","75","127.5","2","1","","1","1","1,0.5,0,1,0.5,0,0.5,0,1","0,1,0.5,0,1,0.5,1,0.5,0","3",""
"","html-keyboard-response","235","128216","0.0-325.0","33M4IA01QHN7BB7LV4C4I2D9MLCRXQ","AFEPFMO9863WA","3JUDR1D0D6D4CARU3YX9Y3DK5DJ2QK","","null","<img src=""img/food2.png"" style=""width:200px; border:14px solid green;"">","null","","","","","","","","","",""
"","image-keyboard-response","236","128331","0.0-326.0","33M4IA01QHN7BB7LV4C4I2D9MLCRXQ","AFEPFMO9863WA","3JUDR1D0D6D4CARU3YX9Y3DK5DJ2QK","","112.80000019073486","img/food5.png","75","114.29999995231628","2","1","","3","1","1,0.5,0,1,0.5,0,0.5,0,1","0,1,0.5,0,1,0.5,1,0.5,0","3",""
"","html-keyboard-response","237","128640","0.0-327.0","33M4IA01QHN7BB7LV4C4I2D9MLCRXQ","AFEPFMO9863WA","3JUDR1D0D6D4CARU3YX9Y3DK5DJ2QK","","null","<img src=""img/food5.png"" style=""width:200px; border:14px solid green;"">","null","","","","","","","","","",""
"","image-keyboard-response","238","128754","0.0-328.0","33M4IA01QHN7BB7LV4C4I2D9MLCRXQ","AFEPFMO9863WA","3JUDR1D0D6D4CARU3YX9Y3DK5DJ2QK","","112.30000019073486","img/food2.png","74","113.70000004768372","1","0","","1","1","1,0.5,0,1,0.5,0,0.5,0,1","0,1,0.5,0,1,0.5,1,0.5,0","3",""
"","html-keyboard-response","239","129056","0.0-329.0","33M4IA01QHN7BB7LV4C4I2D9MLCRXQ","AFEPFMO9863WA","3JUDR1D0D6D4CARU3YX9Y3DK5DJ2QK","","null","<img src=""img/food2.png"" style=""width:200px;border:14px solid red;"">","null","","","","","","","","","",""
"","image-keyboard-response","240","129073","0.0-330.0","33M4IA01QHN7BB7LV4C4I2D9MLCRXQ","AFEPFMO9863WA","3JUDR1D0D6D4CARU3YX9Y3DK5DJ2QK","","15.400000095367432","img/food5.png","75","16.700000047683716","2","0","","3","1","1,0.5,0,1,0.5,0,0.5,0,1","0,1,0.5,0,1,0.5,1,0.5,0","3",""
"","html-keyboard-response","241","129376","0.0-331.0","33M4IA01QHN7BB7LV4C4I2D9MLCRXQ","AFEPFMO9863WA","3JUDR1D0D6D4CARU3YX9Y3DK5DJ2QK","","null","<img src=""img/food5.png"" style=""width:200px;border:14px solid red;"">","null","","","","","","","","","",""
"","image-keyboard-response","242","129500","0.0-332.0","33M4IA01QHN7BB7LV4C4I2D9MLCRXQ","AFEPFMO9863WA","3JUDR1D0D6D4CARU3YX9Y3DK5DJ2QK","","121.79999995231628","img/food6.png","75","123.29999995231628","2","1","","2","1","1,0.5,0,1,0.5,0,0.5,0,1","0,1,0.5,0,1,0.5,1,0.5,0","3",""
"","html-keyboard-response","243","129808","0.0-333.0","33M4IA01QHN7BB7LV4C4I2D9MLCRXQ","AFEPFMO9863WA","3JUDR1D0D6D4CARU3YX9Y3DK5DJ2QK","","null","<img src=""img/food6.png"" style=""width:200px; border:14px solid green;"">","null","","","","","","","","","",""
"","image-keyboard-response","244","129892","0.0-334.0","33M4IA01QHN7BB7LV4C4I2D9MLCRXQ","AFEPFMO9863WA","3JUDR1D0D6D4CARU3YX9Y3DK5DJ2QK","","82.10000014305115","img/food5.png","75","83.60000014305115","2","1","","3","1","1,0.5,0,1,0.5,0,0.5,0,1","0,1,0.5,0,1,0.5,1,0.5,0","3",""
"","html-keyboard-response","245","130200","0.0-335.0","33M4IA01QHN7BB7LV4C4I2D9MLCRXQ","AFEPFMO9863WA","3JUDR1D0D6D4CARU3YX9Y3DK5DJ2QK","","null","<img src=""img/food5.png"" style=""width:200px; border:14px solid green;"">","null","","","","","","","","","",""
"","image-keyboard-response","246","130318","0.0-336.0","33M4IA01QHN7BB7LV4C4I2D9MLCRXQ","AFEPFMO9863WA","3JUDR1D0D6D4CARU3YX9Y3DK5DJ2QK","","115.5","img/food2.png","75","117","2","1","","1","1","1,0.5,0,1,0.5,0,0.5,0,1","0,1,0.5,0,1,0.5,1,0.5,0","3",""
"","html-keyboard-response","247","130625","0.0-337.0","33M4IA01QHN7BB7LV4C4I2D9MLCRXQ","AFEPFMO9863WA","3JUDR1D0D6D4CARU3YX9Y3DK5DJ2QK","","null","<img src=""img/food2.png"" style=""width:200px; border:14px solid green;"">","null","","","","","","","","","",""
"","image-keyboard-response","248","130686","0.0-338.0","33M4IA01QHN7BB7LV4C4I2D9MLCRXQ","AFEPFMO9863WA","3JUDR1D0D6D4CARU3YX9Y3DK5DJ2QK","","59.19999980926514","img/food6.png","76","60.90000009536743","3","1","","2","1","1,0.5,0,1,0.5,0,0.5,0,1","0,1,0.5,0,1,0.5,1,0.5,0","3",""
"","html-keyboard-response","249","130993","0.0-339.0","33M4IA01QHN7BB7LV4C4I2D9MLCRXQ","AFEPFMO9863WA","3JUDR1D0D6D4CARU3YX9Y3DK5DJ2QK","","null","<img src=""img/food6.png"" style=""width:200px; border:14px solid green;"">","null","","","","","","","","","",""
"","image-keyboard-response","250","131038","0.0-340.0","33M4IA01QHN7BB7LV4C4I2D9MLCRXQ","AFEPFMO9863WA","3JUDR1D0D6D4CARU3YX9Y3DK5DJ2QK","","43.5","img/food2.png","75","45.10000014305115","2","1","","1","1","1,0.5,0,1,0.5,0,0.5,0,1","0,1,0.5,0,1,0.5,1,0.5,0","3",""
"","html-keyboard-response","251","131345","0.0-341.0","33M4IA01QHN7BB7LV4C4I2D9MLCRXQ","AFEPFMO9863WA","3JUDR1D0D6D4CARU3YX9Y3DK5DJ2QK","","null","<img src=""img/food2.png"" style=""width:200px; border:14px solid green;"">","null","","","","","","","","","",""
"","image-keyboard-response","252","131413","0.0-342.0","33M4IA01QHN7BB7LV4C4I2D9MLCRXQ","AFEPFMO9863WA","3JUDR1D0D6D4CARU3YX9Y3DK5DJ2QK","","66.39999985694885","img/food2.png","75","67.89999985694885","2","1","","1","1","1,0.5,0,1,0.5,0,0.5,0,1","0,1,0.5,0,1,0.5,1,0.5,0","3",""
"","html-keyboard-response","253","131720","0.0-343.0","33M4IA01QHN7BB7LV4C4I2D9MLCRXQ","AFEPFMO9863WA","3JUDR1D0D6D4CARU3YX9Y3DK5DJ2QK","","null","<img src=""img/food2.png"" style=""width:200px; border:14px solid green;"">","null","","","","","","","","","",""
"","image-keyboard-response","254","131764","0.0-344.0","33M4IA01QHN7BB7LV4C4I2D9MLCRXQ","AFEPFMO9863WA","3JUDR1D0D6D4CARU3YX9Y3DK5DJ2QK","","41.90000009536743","img/food6.png","76","43.39999985694885","3","1","","2","1","1,0.5,0,1,0.5,0,0.5,0,1","0,1,0.5,0,1,0.5,1,0.5,0","3",""
"","html-keyboard-response","255","132072","0.0-345.0","33M4IA01QHN7BB7LV4C4I2D9MLCRXQ","AFEPFMO9863WA","3JUDR1D0D6D4CARU3YX9Y3DK5DJ2QK","","null","<img src=""img/food6.png"" style=""width:200px; border:14px solid green;"">","null","","","","","","","","","",""
"","image-keyboard-response","256","132126","0.0-346.0","33M4IA01QHN7BB7LV4C4I2D9MLCRXQ","AFEPFMO9863WA","3JUDR1D0D6D4CARU3YX9Y3DK5DJ2QK","","52.09999990463257","img/food5.png","75","53.5","2","1","","3","1","1,0.5,0,1,0.5,0,0.5,0,1","0,1,0.5,0,1,0.5,1,0.5,0","3",""
"","html-keyboard-response","257","132432","0.0-347.0","33M4IA01QHN7BB7LV4C4I2D9MLCRXQ","AFEPFMO9863WA","3JUDR1D0D6D4CARU3YX9Y3DK5DJ2QK","","null","<img src=""img/food5.png"" style=""width:200px; border:14px solid green;"">","null","","","","","","","","","",""
"","image-keyboard-response","258","132536","0.0-348.0","33M4IA01QHN7BB7LV4C4I2D9MLCRXQ","AFEPFMO9863WA","3JUDR1D0D6D4CARU3YX9Y3DK5DJ2QK","","102.10000014305115","img/food6.png","75","103.89999985694885","2","1","","2","1","1,0.5,0,1,0.5,0,0.5,0,1","0,1,0.5,0,1,0.5,1,0.5,0","3",""
"","html-keyboard-response","259","132841","0.0-349.0","33M4IA01QHN7BB7LV4C4I2D9MLCRXQ","AFEPFMO9863WA","3JUDR1D0D6D4CARU3YX9Y3DK5DJ2QK","","null","<img src=""img/food6.png"" style=""width:200px; border:14px solid green;"">","null","","","","","","","","","",""
"","image-keyboard-response","260","132901","0.0-350.0","33M4IA01QHN7BB7LV4C4I2D9MLCRXQ","AFEPFMO9863WA","3JUDR1D0D6D4CARU3YX9Y3DK5DJ2QK","","57.19999980926514","img/food5.png","76","58.80000019073486","3","0","","3","1","1,0.5,0,1,0.5,0,0.5,0,1","0,1,0.5,0,1,0.5,1,0.5,0","3",""
"","html-keyboard-response","261","133208","0.0-351.0","33M4IA01QHN7BB7LV4C4I2D9MLCRXQ","AFEPFMO9863WA","3JUDR1D0D6D4CARU3YX9Y3DK5DJ2QK","","null","<img src=""img/food5.png"" style=""width:200px;border:14px solid red;"">","null","","","","","","","","","",""
"","image-keyboard-response","262","133274","0.0-352.0","33M4IA01QHN7BB7LV4C4I2D9MLCRXQ","AFEPFMO9863WA","3JUDR1D0D6D4CARU3YX9Y3DK5DJ2QK","","64.09999990463257","img/food5.png","75","65.59999990463257","2","0","","3","1","1,0.5,0,1,0.5,0,0.5,0,1","0,1,0.5,0,1,0.5,1,0.5,0","3",""
"","html-keyboard-response","263","133577","0.0-353.0","33M4IA01QHN7BB7LV4C4I2D9MLCRXQ","AFEPFMO9863WA","3JUDR1D0D6D4CARU3YX9Y3DK5DJ2QK","","null","<img src=""img/food5.png"" style=""width:200px;border:14px solid red;"">","null","","","","","","","","","",""
"","image-keyboard-response","264","133705","0.0-354.0","33M4IA01QHN7BB7LV4C4I2D9MLCRXQ","AFEPFMO9863WA","3JUDR1D0D6D4CARU3YX9Y3DK5DJ2QK","","126.59999990463257","img/food2.png","75","128.20000004768372","2","1","","1","1","1,0.5,0,1,0.5,0,0.5,0,1","0,1,0.5,0,1,0.5,1,0.5,0","3",""
"","html-keyboard-response","265","134009","0.0-355.0","33M4IA01QHN7BB7LV4C4I2D9MLCRXQ","AFEPFMO9863WA","3JUDR1D0D6D4CARU3YX9Y3DK5DJ2QK","","null","<img src=""img/food2.png"" style=""width:200px; border:14px solid green;"">","null","","","","","","","","","",""
"","image-keyboard-response","266","134071","0.0-356.0","33M4IA01QHN7BB7LV4C4I2D9MLCRXQ","AFEPFMO9863WA","3JUDR1D0D6D4CARU3YX9Y3DK5DJ2QK","","61.299999952316284","img/food2.png","75","62.69999980926514","2","1","","1","1","1,0.5,0,1,0.5,0,0.5,0,1","0,1,0.5,0,1,0.5,1,0.5,0","3",""
"","html-keyboard-response","267","134377","0.0-357.0","33M4IA01QHN7BB7LV4C4I2D9MLCRXQ","AFEPFMO9863WA","3JUDR1D0D6D4CARU3YX9Y3DK5DJ2QK","","null","<img src=""img/food2.png"" style=""width:200px; border:14px solid green;"">","null","","","","","","","","","",""
"","image-keyboard-response","268","134439","0.0-358.0","33M4IA01QHN7BB7LV4C4I2D9MLCRXQ","AFEPFMO9863WA","3JUDR1D0D6D4CARU3YX9Y3DK5DJ2QK","","60.40000009536743","img/food2.png","75","62.10000014305115","2","1","","1","1","1,0.5,0,1,0.5,0,0.5,0,1","0,1,0.5,0,1,0.5,1,0.5,0","3",""
"","html-keyboard-response","269","134744","0.0-359.0","33M4IA01QHN7BB7LV4C4I2D9MLCRXQ","AFEPFMO9863WA","3JUDR1D0D6D4CARU3YX9Y3DK5DJ2QK","","null","<img src=""img/food2.png"" style=""width:200px; border:14px solid green;"">","null","","","","","","","","","",""
"","image-keyboard-response","270","134787","0.0-360.0","33M4IA01QHN7BB7LV4C4I2D9MLCRXQ","AFEPFMO9863WA","3JUDR1D0D6D4CARU3YX9Y3DK5DJ2QK","","40.09999990463257","img/food5.png","75","41.90000009536743","2","1","","3","1","1,0.5,0,1,0.5,0,0.5,0,1","0,1,0.5,0,1,0.5,1,0.5,0","3",""
"","html-keyboard-response","271","135088","0.0-361.0","33M4IA01QHN7BB7LV4C4I2D9MLCRXQ","AFEPFMO9863WA","3JUDR1D0D6D4CARU3YX9Y3DK5DJ2QK","","null","<img src=""img/food5.png"" style=""width:200px; border:14px solid green;"">","null","","","","","","","","","",""
"","image-keyboard-response","272","135264","0.0-362.0","33M4IA01QHN7BB7LV4C4I2D9MLCRXQ","AFEPFMO9863WA","3JUDR1D0D6D4CARU3YX9Y3DK5DJ2QK","","173.30000019073486","img/food2.png","76","175","3","0","","1","1","1,0.5,0,1,0.5,0,0.5,0,1","0,1,0.5,0,1,0.5,1,0.5,0","3",""
"","html-keyboard-response","273","135568","0.0-363.0","33M4IA01QHN7BB7LV4C4I2D9MLCRXQ","AFEPFMO9863WA","3JUDR1D0D6D4CARU3YX9Y3DK5DJ2QK","","null","<img src=""img/food2.png"" style=""width:200px;border:14px solid red;"">","null","","","","","","","","","",""
"","image-keyboard-response","274","135590","0.0-364.0","33M4IA01QHN7BB7LV4C4I2D9MLCRXQ","AFEPFMO9863WA","3JUDR1D0D6D4CARU3YX9Y3DK5DJ2QK","","19.5","img/food5.png","75","20.90000009536743","2","1","","3","1","1,0.5,0,1,0.5,0,0.5,0,1","0,1,0.5,0,1,0.5,1,0.5,0","3",""
"","html-keyboard-response","275","135896","0.0-365.0","33M4IA01QHN7BB7LV4C4I2D9MLCRXQ","AFEPFMO9863WA","3JUDR1D0D6D4CARU3YX9Y3DK5DJ2QK","","null","<img src=""img/food5.png"" style=""width:200px; border:14px solid green;"">","null","","","","","","","","","",""
"","image-keyboard-response","276","135989","0.0-366.0","33M4IA01QHN7BB7LV4C4I2D9MLCRXQ","AFEPFMO9863WA","3JUDR1D0D6D4CARU3YX9Y3DK5DJ2QK","","91.20000004768372","img/food6.png","75","92.90000009536743","2","1","","2","1","1,0.5,0,1,0.5,0,0.5,0,1","0,1,0.5,0,1,0.5,1,0.5,0","3",""
"","html-keyboard-response","277","136297","0.0-367.0","33M4IA01QHN7BB7LV4C4I2D9MLCRXQ","AFEPFMO9863WA","3JUDR1D0D6D4CARU3YX9Y3DK5DJ2QK","","null","<img src=""img/food6.png"" style=""width:200px; border:14px solid green;"">","null","","","","","","","","","",""
"","image-keyboard-response","278","136355","0.0-368.0","33M4IA01QHN7BB7LV4C4I2D9MLCRXQ","AFEPFMO9863WA","3JUDR1D0D6D4CARU3YX9Y3DK5DJ2QK","","56.39999985694885","img/food5.png","75","58","2","1","","3","1","1,0.5,0,1,0.5,0,0.5,0,1","0,1,0.5,0,1,0.5,1,0.5,0","3",""
"","html-keyboard-response","279","136665","0.0-369.0","33M4IA01QHN7BB7LV4C4I2D9MLCRXQ","AFEPFMO9863WA","3JUDR1D0D6D4CARU3YX9Y3DK5DJ2QK","","null","<img src=""img/food5.png"" style=""width:200px; border:14px solid green;"">","null","","","","","","","","","",""
"","image-keyboard-response","280","136688","0.0-370.0","33M4IA01QHN7BB7LV4C4I2D9MLCRXQ","AFEPFMO9863WA","3JUDR1D0D6D4CARU3YX9Y3DK5DJ2QK","","21.700000047683716","img/food5.png","75","22.899999856948853","2","0","","3","1","1,0.5,0,1,0.5,0,0.5,0,1","0,1,0.5,0,1,0.5,1,0.5,0","3",""
"","html-keyboard-response","281","136999","0.0-371.0","33M4IA01QHN7BB7LV4C4I2D9MLCRXQ","AFEPFMO9863WA","3JUDR1D0D6D4CARU3YX9Y3DK5DJ2QK","","null","<img src=""img/food5.png"" style=""width:200px;border:14px solid red;"">","null","","","","","","","","","",""
"","image-keyboard-response","282","137054","0.0-372.0","33M4IA01QHN7BB7LV4C4I2D9MLCRXQ","AFEPFMO9863WA","3JUDR1D0D6D4CARU3YX9Y3DK5DJ2QK","","47.39999985694885","img/food6.png","76","54.69999980926514","3","0","","2","1","1,0.5,0,1,0.5,0,0.5,0,1","0,1,0.5,0,1,0.5,1,0.5,0","3",""
"","html-keyboard-response","283","137361","0.0-373.0","33M4IA01QHN7BB7LV4C4I2D9MLCRXQ","AFEPFMO9863WA","3JUDR1D0D6D4CARU3YX9Y3DK5DJ2QK","","null","<img src=""img/food6.png"" style=""width:200px;border:14px solid red;"">","null","","","","","","","","","",""
"","image-keyboard-response","284","137405","0.0-374.0","33M4IA01QHN7BB7LV4C4I2D9MLCRXQ","AFEPFMO9863WA","3JUDR1D0D6D4CARU3YX9Y3DK5DJ2QK","","42","img/food6.png","76","43.80000019073486","3","0","","2","1","1,0.5,0,1,0.5,0,0.5,0,1","0,1,0.5,0,1,0.5,1,0.5,0","3",""
"","html-keyboard-response","285","137713","0.0-375.0","33M4IA01QHN7BB7LV4C4I2D9MLCRXQ","AFEPFMO9863WA","3JUDR1D0D6D4CARU3YX9Y3DK5DJ2QK","","null","<img src=""img/food6.png"" style=""width:200px;border:14px solid red;"">","null","","","","","","","","","",""
"","image-keyboard-response","286","137733","0.0-376.0","33M4IA01QHN7BB7LV4C4I2D9MLCRXQ","AFEPFMO9863WA","3JUDR1D0D6D4CARU3YX9Y3DK5DJ2QK","","18.40000009536743","img/food6.png","75","19.799999952316284","2","1","","2","1","1,0.5,0,1,0.5,0,0.5,0,1","0,1,0.5,0,1,0.5,1,0.5,0","3",""
"","html-keyboard-response","287","138042","0.0-377.0","33M4IA01QHN7BB7LV4C4I2D9MLCRXQ","AFEPFMO9863WA","3JUDR1D0D6D4CARU3YX9Y3DK5DJ2QK","","null","<img src=""img/food6.png"" style=""width:200px; border:14px solid green;"">","null","","","","","","","","","",""
"","image-keyboard-response","288","138102","0.0-378.0","33M4IA01QHN7BB7LV4C4I2D9MLCRXQ","AFEPFMO9863WA","3JUDR1D0D6D4CARU3YX9Y3DK5DJ2QK","","58.5","img/food2.png","75","60.09999990463257","2","1","","1","1","1,0.5,0,1,0.5,0,0.5,0,1","0,1,0.5,0,1,0.5,1,0.5,0","3",""
"","html-keyboard-response","289","138408","0.0-379.0","33M4IA01QHN7BB7LV4C4I2D9MLCRXQ","AFEPFMO9863WA","3JUDR1D0D6D4CARU3YX9Y3DK5DJ2QK","","null","<img src=""img/food2.png"" style=""width:200px; border:14px solid green;"">","null","","","","","","","","","",""
"","image-keyboard-response","290","138439","0.0-380.0","33M4IA01QHN7BB7LV4C4I2D9MLCRXQ","AFEPFMO9863WA","3JUDR1D0D6D4CARU3YX9Y3DK5DJ2QK","","28.5","img/food6.png","75","30.299999952316284","2","1","","2","1","1,0.5,0,1,0.5,0,0.5,0,1","0,1,0.5,0,1,0.5,1,0.5,0","3",""
"","html-keyboard-response","291","138744","0.0-381.0","33M4IA01QHN7BB7LV4C4I2D9MLCRXQ","AFEPFMO9863WA","3JUDR1D0D6D4CARU3YX9Y3DK5DJ2QK","","null","<img src=""img/food6.png"" style=""width:200px; border:14px solid green;"">","null","","","","","","","","","",""
"","image-keyboard-response","292","138753","0.0-382.0","33M4IA01QHN7BB7LV4C4I2D9MLCRXQ","AFEPFMO9863WA","3JUDR1D0D6D4CARU3YX9Y3DK5DJ2QK","","6.700000047683716","img/food5.png","75","8.200000047683716","2","1","","3","1","1,0.5,0,1,0.5,0,0.5,0,1","0,1,0.5,0,1,0.5,1,0.5,0","3",""
"","html-keyboard-response","293","139057","0.0-383.0","33M4IA01QHN7BB7LV4C4I2D9MLCRXQ","AFEPFMO9863WA","3JUDR1D0D6D4CARU3YX9Y3DK5DJ2QK","","null","<img src=""img/food5.png"" style=""width:200px; border:14px solid green;"">","null","","","","","","","","","",""
"","image-keyboard-response","294","139102","0.0-384.0","33M4IA01QHN7BB7LV4C4I2D9MLCRXQ","AFEPFMO9863WA","3JUDR1D0D6D4CARU3YX9Y3DK5DJ2QK","","43.799999952316284","img/food6.png","75","45.30000019073486","2","1","","2","1","1,0.5,0,1,0.5,0,0.5,0,1","0,1,0.5,0,1,0.5,1,0.5,0","3",""
"","html-keyboard-response","295","139409","0.0-385.0","33M4IA01QHN7BB7LV4C4I2D9MLCRXQ","AFEPFMO9863WA","3JUDR1D0D6D4CARU3YX9Y3DK5DJ2QK","","null","<img src=""img/food6.png"" style=""width:200px; border:14px solid green;"">","null","","","","","","","","","",""
"","image-keyboard-response","296","139467","0.0-386.0","33M4IA01QHN7BB7LV4C4I2D9MLCRXQ","AFEPFMO9863WA","3JUDR1D0D6D4CARU3YX9Y3DK5DJ2QK","","56.09999990463257","img/food5.png","75","57.700000047683716","2","0","","3","1","1,0.5,0,1,0.5,0,0.5,0,1","0,1,0.5,0,1,0.5,1,0.5,0","3",""
"","html-keyboard-response","297","139768","0.0-387.0","33M4IA01QHN7BB7LV4C4I2D9MLCRXQ","AFEPFMO9863WA","3JUDR1D0D6D4CARU3YX9Y3DK5DJ2QK","","null","<img src=""img/food5.png"" style=""width:200px;border:14px solid red;"">","null","","","","","","","","","",""
"","image-keyboard-response","298","139822","0.0-388.0","33M4IA01QHN7BB7LV4C4I2D9MLCRXQ","AFEPFMO9863WA","3JUDR1D0D6D4CARU3YX9Y3DK5DJ2QK","","52.299999952316284","img/food5.png","76","53.69999980926514","3","0","","3","1","1,0.5,0,1,0.5,0,0.5,0,1","0,1,0.5,0,1,0.5,1,0.5,0","3",""
"","html-keyboard-response","299","140129","0.0-389.0","33M4IA01QHN7BB7LV4C4I2D9MLCRXQ","AFEPFMO9863WA","3JUDR1D0D6D4CARU3YX9Y3DK5DJ2QK","","null","<img src=""img/food5.png"" style=""width:200px;border:14px solid red;"">","null","","","","","","","","","",""
"","image-keyboard-response","300","140192","0.0-390.0","33M4IA01QHN7BB7LV4C4I2D9MLCRXQ","AFEPFMO9863WA","3JUDR1D0D6D4CARU3YX9Y3DK5DJ2QK","","61.39999985694885","img/food2.png","75","62.90000009536743","2","1","","1","1","1,0.5,0,1,0.5,0,0.5,0,1","0,1,0.5,0,1,0.5,1,0.5,0","3",""
"","html-keyboard-response","301","140497","0.0-391.0","33M4IA01QHN7BB7LV4C4I2D9MLCRXQ","AFEPFMO9863WA","3JUDR1D0D6D4CARU3YX9Y3DK5DJ2QK","","null","<img src=""img/food2.png"" style=""width:200px; border:14px solid green;"">","null","","","","","","","","","",""
"","image-keyboard-response","302","140559","0.0-392.0","33M4IA01QHN7BB7LV4C4I2D9MLCRXQ","AFEPFMO9863WA","3JUDR1D0D6D4CARU3YX9Y3DK5DJ2QK","","60","img/food6.png","75","61.799999952316284","2","1","","2","1","1,0.5,0,1,0.5,0,0.5,0,1","0,1,0.5,0,1,0.5,1,0.5,0","3",""
"","html-keyboard-response","303","140865","0.0-393.0","33M4IA01QHN7BB7LV4C4I2D9MLCRXQ","AFEPFMO9863WA","3JUDR1D0D6D4CARU3YX9Y3DK5DJ2QK","","null","<img src=""img/food6.png"" style=""width:200px; border:14px solid green;"">","null","","","","","","","","","",""
"","image-keyboard-response","304","141179","0.0-394.0","33M4IA01QHN7BB7LV4C4I2D9MLCRXQ","AFEPFMO9863WA","3JUDR1D0D6D4CARU3YX9Y3DK5DJ2QK","","310.90000009536743","img/food5.png","75","313.7999999523163","2","0","","3","1","1,0.5,0,1,0.5,0,0.5,0,1","0,1,0.5,0,1,0.5,1,0.5,0","3",""
"","html-keyboard-response","305","141488","0.0-395.0","33M4IA01QHN7BB7LV4C4I2D9MLCRXQ","AFEPFMO9863WA","3JUDR1D0D6D4CARU3YX9Y3DK5DJ2QK","","null","<img src=""img/food5.png"" style=""width:200px;border:14px solid red;"">","null","","","","","","","","","",""
"","image-keyboard-response","306","141496","0.0-396.0","33M4IA01QHN7BB7LV4C4I2D9MLCRXQ","AFEPFMO9863WA","3JUDR1D0D6D4CARU3YX9Y3DK5DJ2QK","","6.599999904632568","img/food5.png","75","7.8999998569488525","2","0","","3","1","1,0.5,0,1,0.5,0,0.5,0,1","0,1,0.5,0,1,0.5,1,0.5,0","3",""
"","html-keyboard-response","307","141800","0.0-397.0","33M4IA01QHN7BB7LV4C4I2D9MLCRXQ","AFEPFMO9863WA","3JUDR1D0D6D4CARU3YX9Y3DK5DJ2QK","","null","<img src=""img/food5.png"" style=""width:200px;border:14px solid red;"">","null","","","","","","","","","",""
"","image-keyboard-response","308","141808","0.0-398.0","33M4IA01QHN7BB7LV4C4I2D9MLCRXQ","AFEPFMO9863WA","3JUDR1D0D6D4CARU3YX9Y3DK5DJ2QK","","6.099999904632568","img/food5.png","76","7.5","3","0","","3","1","1,0.5,0,1,0.5,0,0.5,0,1","0,1,0.5,0,1,0.5,1,0.5,0","3",""
"","html-keyboard-response","309","142113","0.0-399.0","33M4IA01QHN7BB7LV4C4I2D9MLCRXQ","AFEPFMO9863WA","3JUDR1D0D6D4CARU3YX9Y3DK5DJ2QK","","null","<img src=""img/food5.png"" style=""width:200px;border:14px solid red;"">","null","","","","","","","","","",""
"","image-keyboard-response","310","142149","0.0-400.0","33M4IA01QHN7BB7LV4C4I2D9MLCRXQ","AFEPFMO9863WA","3JUDR1D0D6D4CARU3YX9Y3DK5DJ2QK","","35.299999952316284","img/food5.png","76","36.799999952316284","3","0","","3","1","1,0.5,0,1,0.5,0,0.5,0,1","0,1,0.5,0,1,0.5,1,0.5,0","3",""
"","html-keyboard-response","311","142456","0.0-401.0","33M4IA01QHN7BB7LV4C4I2D9MLCRXQ","AFEPFMO9863WA","3JUDR1D0D6D4CARU3YX9Y3DK5DJ2QK","","null","<img src=""img/food5.png"" style=""width:200px;border:14px solid red;"">","null","","","","","","","","","",""
"","image-keyboard-response","312","142718","0.0-402.0","33M4IA01QHN7BB7LV4C4I2D9MLCRXQ","AFEPFMO9863WA","3JUDR1D0D6D4CARU3YX9Y3DK5DJ2QK","","259.7000000476837","img/food6.png","75","261.09999990463257","2","1","","2","1","1,0.5,0,1,0.5,0,0.5,0,1","0,1,0.5,0,1,0.5,1,0.5,0","3",""
"","html-keyboard-response","313","143025","0.0-403.0","33M4IA01QHN7BB7LV4C4I2D9MLCRXQ","AFEPFMO9863WA","3JUDR1D0D6D4CARU3YX9Y3DK5DJ2QK","","null","<img src=""img/food6.png"" style=""width:200px; border:14px solid green;"">","null","","","","","","","","","",""
"","image-keyboard-response","314","143342","0.0-404.0","33M4IA01QHN7BB7LV4C4I2D9MLCRXQ","AFEPFMO9863WA","3JUDR1D0D6D4CARU3YX9Y3DK5DJ2QK","","315.7999999523163","img/food5.png","75","317.5","2","0","","3","1","1,0.5,0,1,0.5,0,0.5,0,1","0,1,0.5,0,1,0.5,1,0.5,0","3",""
"","html-keyboard-response","315","143648","0.0-405.0","33M4IA01QHN7BB7LV4C4I2D9MLCRXQ","AFEPFMO9863WA","3JUDR1D0D6D4CARU3YX9Y3DK5DJ2QK","","null","<img src=""img/food5.png"" style=""width:200px;border:14px solid red;"">","null","","","","","","","","","",""
"","image-keyboard-response","316","143669","0.0-406.0","33M4IA01QHN7BB7LV4C4I2D9MLCRXQ","AFEPFMO9863WA","3JUDR1D0D6D4CARU3YX9Y3DK5DJ2QK","","18.700000047683716","img/food5.png","75","20.09999990463257","2","1","","3","1","1,0.5,0,1,0.5,0,0.5,0,1","0,1,0.5,0,1,0.5,1,0.5,0","3",""
"","html-keyboard-response","317","143977","0.0-407.0","33M4IA01QHN7BB7LV4C4I2D9MLCRXQ","AFEPFMO9863WA","3JUDR1D0D6D4CARU3YX9Y3DK5DJ2QK","","null","<img src=""img/food5.png"" style=""width:200px; border:14px solid green;"">","null","","","","","","","","","",""
"","image-keyboard-response","318","143991","0.0-408.0","33M4IA01QHN7BB7LV4C4I2D9MLCRXQ","AFEPFMO9863WA","3JUDR1D0D6D4CARU3YX9Y3DK5DJ2QK","","13.200000047683716","img/food6.png","76","14.599999904632568","3","0","","2","1","1,0.5,0,1,0.5,0,0.5,0,1","0,1,0.5,0,1,0.5,1,0.5,0","3",""
"","html-keyboard-response","319","144297","0.0-409.0","33M4IA01QHN7BB7LV4C4I2D9MLCRXQ","AFEPFMO9863WA","3JUDR1D0D6D4CARU3YX9Y3DK5DJ2QK","","null","<img src=""img/food6.png"" style=""width:200px;border:14px solid red;"">","null","","","","","","","","","",""
"","image-keyboard-response","320","144626","0.0-410.0","33M4IA01QHN7BB7LV4C4I2D9MLCRXQ","AFEPFMO9863WA","3JUDR1D0D6D4CARU3YX9Y3DK5DJ2QK","","327.69999980926514","img/food2.png","75","329.2999999523163","2","1","","1","1","1,0.5,0,1,0.5,0,0.5,0,1","0,1,0.5,0,1,0.5,1,0.5,0","3",""
"","html-keyboard-response","321","144928","0.0-411.0","33M4IA01QHN7BB7LV4C4I2D9MLCRXQ","AFEPFMO9863WA","3JUDR1D0D6D4CARU3YX9Y3DK5DJ2QK","","null","<img src=""img/food2.png"" style=""width:200px; border:14px solid green;"">","null","","","","","","","","","",""
"","image-keyboard-response","322","145189","0.0-412.0","33M4IA01QHN7BB7LV4C4I2D9MLCRXQ","AFEPFMO9863WA","3JUDR1D0D6D4CARU3YX9Y3DK5DJ2QK","","259.09999990463257","img/food2.png","74","260.7000000476837","1","0","","1","1","1,0.5,0,1,0.5,0,0.5,0,1","0,1,0.5,0,1,0.5,1,0.5,0","3",""
"","html-keyboard-response","323","145497","0.0-413.0","33M4IA01QHN7BB7LV4C4I2D9MLCRXQ","AFEPFMO9863WA","3JUDR1D0D6D4CARU3YX9Y3DK5DJ2QK","","null","<img src=""img/food2.png"" style=""width:200px;border:14px solid red;"">","null","","","","","","","","","",""
"","image-keyboard-response","324","145530","0.0-414.0","33M4IA01QHN7BB7LV4C4I2D9MLCRXQ","AFEPFMO9863WA","3JUDR1D0D6D4CARU3YX9Y3DK5DJ2QK","","32.09999990463257","img/food2.png","75","33.5","2","1","","1","1","1,0.5,0,1,0.5,0,0.5,0,1","0,1,0.5,0,1,0.5,1,0.5,0","3",""
"","html-keyboard-response","325","145841","0.0-415.0","33M4IA01QHN7BB7LV4C4I2D9MLCRXQ","AFEPFMO9863WA","3JUDR1D0D6D4CARU3YX9Y3DK5DJ2QK","","null","<img src=""img/food2.png"" style=""width:200px; border:14px solid green;"">","null","","","","","","","","","",""
"","image-keyboard-response","326","145941","0.0-416.0","33M4IA01QHN7BB7LV4C4I2D9MLCRXQ","AFEPFMO9863WA","3JUDR1D0D6D4CARU3YX9Y3DK5DJ2QK","","98.39999985694885","img/food5.png","74","99.70000004768372","1","1","","3","1","1,0.5,0,1,0.5,0,0.5,0,1","0,1,0.5,0,1,0.5,1,0.5,0","3",""
"","html-keyboard-response","327","146249","0.0-417.0","33M4IA01QHN7BB7LV4C4I2D9MLCRXQ","AFEPFMO9863WA","3JUDR1D0D6D4CARU3YX9Y3DK5DJ2QK","","null","<img src=""img/food5.png"" style=""width:200px; border:14px solid green;"">","null","","","","","","","","","",""
"","image-keyboard-response","328","146255","0.0-418.0","33M4IA01QHN7BB7LV4C4I2D9MLCRXQ","AFEPFMO9863WA","3JUDR1D0D6D4CARU3YX9Y3DK5DJ2QK","","3.6999998092651367","img/food6.png","74","6.400000095367432","1","0","","2","1","1,0.5,0,1,0.5,0,0.5,0,1","0,1,0.5,0,1,0.5,1,0.5,0","3",""
"","html-keyboard-response","329","146561","0.0-419.0","33M4IA01QHN7BB7LV4C4I2D9MLCRXQ","AFEPFMO9863WA","3JUDR1D0D6D4CARU3YX9Y3DK5DJ2QK","","null","<img src=""img/food6.png"" style=""width:200px;border:14px solid red;"">","null","","","","","","","","","",""
"","image-keyboard-response","330","146642","0.0-420.0","33M4IA01QHN7BB7LV4C4I2D9MLCRXQ","AFEPFMO9863WA","3JUDR1D0D6D4CARU3YX9Y3DK5DJ2QK","","77.70000004768372","img/food2.png","75","81.10000014305115","2","1","","1","1","1,0.5,0,1,0.5,0,0.5,0,1","0,1,0.5,0,1,0.5,1,0.5,0","3",""
"","html-keyboard-response","331","146945","0.0-421.0","33M4IA01QHN7BB7LV4C4I2D9MLCRXQ","AFEPFMO9863WA","3JUDR1D0D6D4CARU3YX9Y3DK5DJ2QK","","null","<img src=""img/food2.png"" style=""width:200px; border:14px solid green;"">","null","","","","","","","","","",""
"","image-keyboard-response","332","146966","0.0-422.0","33M4IA01QHN7BB7LV4C4I2D9MLCRXQ","AFEPFMO9863WA","3JUDR1D0D6D4CARU3YX9Y3DK5DJ2QK","","15.700000047683716","img/food5.png","74","17","1","1","","3","1","1,0.5,0,1,0.5,0,0.5,0,1","0,1,0.5,0,1,0.5,1,0.5,0","3",""
"","html-keyboard-response","333","147273","0.0-423.0","33M4IA01QHN7BB7LV4C4I2D9MLCRXQ","AFEPFMO9863WA","3JUDR1D0D6D4CARU3YX9Y3DK5DJ2QK","","null","<img src=""img/food5.png"" style=""width:200px; border:14px solid green;"">","null","","","","","","","","","",""
"","image-keyboard-response","334","147321","0.0-424.0","33M4IA01QHN7BB7LV4C4I2D9MLCRXQ","AFEPFMO9863WA","3JUDR1D0D6D4CARU3YX9Y3DK5DJ2QK","","46","img/food6.png","75","47.799999952316284","2","1","","2","1","1,0.5,0,1,0.5,0,0.5,0,1","0,1,0.5,0,1,0.5,1,0.5,0","3",""
"","html-keyboard-response","335","147625","0.0-425.0","33M4IA01QHN7BB7LV4C4I2D9MLCRXQ","AFEPFMO9863WA","3JUDR1D0D6D4CARU3YX9Y3DK5DJ2QK","","null","<img src=""img/food6.png"" style=""width:200px; border:14px solid green;"">","null","","","","","","","","","",""
"","image-keyboard-response","336","147669","0.0-426.0","33M4IA01QHN7BB7LV4C4I2D9MLCRXQ","AFEPFMO9863WA","3JUDR1D0D6D4CARU3YX9Y3DK5DJ2QK","","42.5","img/food6.png","75","44.10000014305115","2","1","","2","1","1,0.5,0,1,0.5,0,0.5,0,1","0,1,0.5,0,1,0.5,1,0.5,0","3",""
"","html-keyboard-response","337","147977","0.0-427.0","33M4IA01QHN7BB7LV4C4I2D9MLCRXQ","AFEPFMO9863WA","3JUDR1D0D6D4CARU3YX9Y3DK5DJ2QK","","null","<img src=""img/food6.png"" style=""width:200px; border:14px solid green;"">","null","","","","","","","","","",""
"","image-keyboard-response","338","148010","0.0-428.0","33M4IA01QHN7BB7LV4C4I2D9MLCRXQ","AFEPFMO9863WA","3JUDR1D0D6D4CARU3YX9Y3DK5DJ2QK","","31.399999856948853","img/food2.png","74","32.90000009536743","1","0","","1","1","1,0.5,0,1,0.5,0,0.5,0,1","0,1,0.5,0,1,0.5,1,0.5,0","3",""
"","html-keyboard-response","339","148313","0.0-429.0","33M4IA01QHN7BB7LV4C4I2D9MLCRXQ","AFEPFMO9863WA","3JUDR1D0D6D4CARU3YX9Y3DK5DJ2QK","","null","<img src=""img/food2.png"" style=""width:200px;border:14px solid red;"">","null","","","","","","","","","",""
"","image-keyboard-response","340","148609","0.0-430.0","33M4IA01QHN7BB7LV4C4I2D9MLCRXQ","AFEPFMO9863WA","3JUDR1D0D6D4CARU3YX9Y3DK5DJ2QK","","295","img/food2.png","75","296.59999990463257","2","1","","1","1","1,0.5,0,1,0.5,0,0.5,0,1","0,1,0.5,0,1,0.5,1,0.5,0","3",""
"","html-keyboard-response","341","148913","0.0-431.0","33M4IA01QHN7BB7LV4C4I2D9MLCRXQ","AFEPFMO9863WA","3JUDR1D0D6D4CARU3YX9Y3DK5DJ2QK","","null","<img src=""img/food2.png"" style=""width:200px; border:14px solid green;"">","null","","","","","","","","","",""
"","image-keyboard-response","342","148943","0.0-432.0","33M4IA01QHN7BB7LV4C4I2D9MLCRXQ","AFEPFMO9863WA","3JUDR1D0D6D4CARU3YX9Y3DK5DJ2QK","","28.5","img/food5.png","76","30","3","0","","3","1","1,0.5,0,1,0.5,0,0.5,0,1","0,1,0.5,0,1,0.5,1,0.5,0","3",""
"","html-keyboard-response","343","149248","0.0-433.0","33M4IA01QHN7BB7LV4C4I2D9MLCRXQ","AFEPFMO9863WA","3JUDR1D0D6D4CARU3YX9Y3DK5DJ2QK","","null","<img src=""img/food5.png"" style=""width:200px;border:14px solid red;"">","null","","","","","","","","","",""
"","image-keyboard-response","344","149268","0.0-434.0","33M4IA01QHN7BB7LV4C4I2D9MLCRXQ","AFEPFMO9863WA","3JUDR1D0D6D4CARU3YX9Y3DK5DJ2QK","","18","img/food6.png","75","19.59999990463257","2","1","","2","1","1,0.5,0,1,0.5,0,0.5,0,1","0,1,0.5,0,1,0.5,1,0.5,0","3",""
"","html-keyboard-response","345","149577","0.0-435.0","33M4IA01QHN7BB7LV4C4I2D9MLCRXQ","AFEPFMO9863WA","3JUDR1D0D6D4CARU3YX9Y3DK5DJ2QK","","null","<img src=""img/food6.png"" style=""width:200px; border:14px solid green;"">","null","","","","","","","","","",""
"","image-keyboard-response","346","149612","0.0-436.0","33M4IA01QHN7BB7LV4C4I2D9MLCRXQ","AFEPFMO9863WA","3JUDR1D0D6D4CARU3YX9Y3DK5DJ2QK","","33.40000009536743","img/food2.png","75","35","2","1","","1","1","1,0.5,0,1,0.5,0,0.5,0,1","0,1,0.5,0,1,0.5,1,0.5,0","3",""
"","html-keyboard-response","347","149921","0.0-437.0","33M4IA01QHN7BB7LV4C4I2D9MLCRXQ","AFEPFMO9863WA","3JUDR1D0D6D4CARU3YX9Y3DK5DJ2QK","","null","<img src=""img/food2.png"" style=""width:200px; border:14px solid green;"">","null","","","","","","","","","",""
"","image-keyboard-response","348","149928","0.0-438.0","33M4IA01QHN7BB7LV4C4I2D9MLCRXQ","AFEPFMO9863WA","3JUDR1D0D6D4CARU3YX9Y3DK5DJ2QK","","5.799999952316284","img/food6.png","74","7.200000047683716","1","0","","2","1","1,0.5,0,1,0.5,0,0.5,0,1","0,1,0.5,0,1,0.5,1,0.5,0","3",""
"","html-keyboard-response","349","150232","0.0-439.0","33M4IA01QHN7BB7LV4C4I2D9MLCRXQ","AFEPFMO9863WA","3JUDR1D0D6D4CARU3YX9Y3DK5DJ2QK","","null","<img src=""img/food6.png"" style=""width:200px;border:14px solid red;"">","null","","","","","","","","","",""
"","image-keyboard-response","350","150308","0.0-440.0","33M4IA01QHN7BB7LV4C4I2D9MLCRXQ","AFEPFMO9863WA","3JUDR1D0D6D4CARU3YX9Y3DK5DJ2QK","","73.60000014305115","img/food2.png","75","74.90000009536743","2","1","","1","1","1,0.5,0,1,0.5,0,0.5,0,1","0,1,0.5,0,1,0.5,1,0.5,0","3",""
"","html-keyboard-response","351","150612","0.0-441.0","33M4IA01QHN7BB7LV4C4I2D9MLCRXQ","AFEPFMO9863WA","3JUDR1D0D6D4CARU3YX9Y3DK5DJ2QK","","null","<img src=""img/food2.png"" style=""width:200px; border:14px solid green;"">","null","","","","","","","","","",""
"","image-keyboard-response","352","150885","0.0-442.0","33M4IA01QHN7BB7LV4C4I2D9MLCRXQ","AFEPFMO9863WA","3JUDR1D0D6D4CARU3YX9Y3DK5DJ2QK","","270.7999999523163","img/food6.png","75","272.2999999523163","2","1","","2","1","1,0.5,0,1,0.5,0,0.5,0,1","0,1,0.5,0,1,0.5,1,0.5,0","3",""
"","html-keyboard-response","353","151193","0.0-443.0","33M4IA01QHN7BB7LV4C4I2D9MLCRXQ","AFEPFMO9863WA","3JUDR1D0D6D4CARU3YX9Y3DK5DJ2QK","","null","<img src=""img/food6.png"" style=""width:200px; border:14px solid green;"">","null","","","","","","","","","",""
"","image-keyboard-response","354","151437","0.0-444.0","33M4IA01QHN7BB7LV4C4I2D9MLCRXQ","AFEPFMO9863WA","3JUDR1D0D6D4CARU3YX9Y3DK5DJ2QK","","242.70000004768372","img/food6.png","75","244.20000004768372","2","1","","2","1","1,0.5,0,1,0.5,0,0.5,0,1","0,1,0.5,0,1,0.5,1,0.5,0","3",""
"","html-keyboard-response","355","151744","0.0-445.0","33M4IA01QHN7BB7LV4C4I2D9MLCRXQ","AFEPFMO9863WA","3JUDR1D0D6D4CARU3YX9Y3DK5DJ2QK","","null","<img src=""img/food6.png"" style=""width:200px; border:14px solid green;"">","null","","","","","","","","","",""
"","image-keyboard-response","356","151789","0.0-446.0","33M4IA01QHN7BB7LV4C4I2D9MLCRXQ","AFEPFMO9863WA","3JUDR1D0D6D4CARU3YX9Y3DK5DJ2QK","","43.200000047683716","img/food5.png","74","44.69999980926514","1","1","","3","1","1,0.5,0,1,0.5,0,0.5,0,1","0,1,0.5,0,1,0.5,1,0.5,0","3",""
"","html-keyboard-response","357","152097","0.0-447.0","33M4IA01QHN7BB7LV4C4I2D9MLCRXQ","AFEPFMO9863WA","3JUDR1D0D6D4CARU3YX9Y3DK5DJ2QK","","null","<img src=""img/food5.png"" style=""width:200px; border:14px solid green;"">","null","","","","","","","","","",""
"","image-keyboard-response","358","152461","0.0-448.0","33M4IA01QHN7BB7LV4C4I2D9MLCRXQ","AFEPFMO9863WA","3JUDR1D0D6D4CARU3YX9Y3DK5DJ2QK","","362.90000009536743","img/food6.png","75","364.7000000476837","2","1","","2","1","1,0.5,0,1,0.5,0,0.5,0,1","0,1,0.5,0,1,0.5,1,0.5,0","3",""
"","html-keyboard-response","359","152769","0.0-449.0","33M4IA01QHN7BB7LV4C4I2D9MLCRXQ","AFEPFMO9863WA","3JUDR1D0D6D4CARU3YX9Y3DK5DJ2QK","","null","<img src=""img/food6.png"" style=""width:200px; border:14px solid green;"">","null","","","","","","","","","",""
"","image-keyboard-response","360","152934","0.0-450.0","33M4IA01QHN7BB7LV4C4I2D9MLCRXQ","AFEPFMO9863WA","3JUDR1D0D6D4CARU3YX9Y3DK5DJ2QK","","163.59999990463257","img/food2.png","75","165.20000004768372","2","1","","1","1","1,0.5,0,1,0.5,0,0.5,0,1","0,1,0.5,0,1,0.5,1,0.5,0","3",""
"","html-keyboard-response","361","153240","0.0-451.0","33M4IA01QHN7BB7LV4C4I2D9MLCRXQ","AFEPFMO9863WA","3JUDR1D0D6D4CARU3YX9Y3DK5DJ2QK","","null","<img src=""img/food2.png"" style=""width:200px; border:14px solid green;"">","null","","","","","","","","","",""
"","image-keyboard-response","362","153316","0.0-452.0","33M4IA01QHN7BB7LV4C4I2D9MLCRXQ","AFEPFMO9863WA","3JUDR1D0D6D4CARU3YX9Y3DK5DJ2QK","","73.79999995231628","img/food5.png","74","75.19999980926514","1","1","","3","1","1,0.5,0,1,0.5,0,0.5,0,1","0,1,0.5,0,1,0.5,1,0.5,0","3",""
"","html-keyboard-response","363","153624","0.0-453.0","33M4IA01QHN7BB7LV4C4I2D9MLCRXQ","AFEPFMO9863WA","3JUDR1D0D6D4CARU3YX9Y3DK5DJ2QK","","null","<img src=""img/food5.png"" style=""width:200px; border:14px solid green;"">","null","","","","","","","","","",""
"","html-keyboard-response","364","233921","0.0-454.0","33M4IA01QHN7BB7LV4C4I2D9MLCRXQ","AFEPFMO9863WA","3JUDR1D0D6D4CARU3YX9Y3DK5DJ2QK","","","","","","","","","","","","","",""
"","instructions","365","235693","0.0-455.0","33M4IA01QHN7BB7LV4C4I2D9MLCRXQ","AFEPFMO9863WA","3JUDR1D0D6D4CARU3YX9Y3DK5DJ2QK","[{""page_index"":0,""viewing_time"":1768.5}]","1769.2000000476837","","","","","","","","","","","",""
"","survey-text","366","335192","0.0-456.0","33M4IA01QHN7BB7LV4C4I2D9MLCRXQ","AFEPFMO9863WA","3JUDR1D0D6D4CARU3YX9Y3DK5DJ2QK","","99487.39999985695","","","","","","","","","","","","{""Q0"":""AFEPFMO9863WA""}"
