"success","trial_type","trial_index","time_elapsed","internal_node_id","assignmentID","mturkID","hitID","view_history","rt","stimulus","key_press","reactionTime","a","r","warning","s","cond","reward_cond","reward_cond_actual","reward_matrix_idx","responses"
"true","fullscreen","0","14505","0.0-0.0","3WMINLGALCPR9WA92XUV9Z3PL6ICAX","AG1SOUG1P7J76","3WRBLBQ2GRU63BU2LFOJL1G32T90GO","","","","","","","","","","","","","",""
"","instructions","1","145380","0.0-1.0","3WMINLGALCPR9WA92XUV9Z3PL6ICAX","AG1SOUG1P7J76","3WRBLBQ2GRU63BU2LFOJL1G32T90GO","[{""page_index"":0,""viewing_time"":31126},{""page_index"":1,""viewing_time"":5655.70000000298},{""page_index"":2,""viewing_time"":19160.20000000298},{""page_index"":3,""viewing_time"":25968.09999999404},{""page_index"":4,""viewing_time"":20319.90000000596},{""page_index"":5,""viewing_time"":20863.90000000596},{""page_index"":6,""viewing_time"":7767.899999991059}]","130862.70000000298","","","","","","","","","","","",""
"","instructions","2","186532","0.0-2.0","3WMINLGALCPR9WA92XUV9Z3PL6ICAX","AG1SOUG1P7J76","3WRBLBQ2GRU63BU2LFOJL1G32T90GO","[{""page_index"":0,""viewing_time"":38598.09999999404},{""page_index"":1,""viewing_time"":2552.0999999940395}]","41150.5","","","","","","","","","","","",""
"","image-keyboard-response","3","187050","0.0-3.0","3WMINLGALCPR9WA92XUV9Z3PL6ICAX","AG1SOUG1P7J76","3WRBLBQ2GRU63BU2LFOJL1G32T90GO","","514.7999999970198","img/food1.png","75","518.9000000059605","2","1","false","3","2","1,0.5,0,1,0.5,0,0.5,0,1","0.5,0,1,0.5,0,1,0,1,0.5","2",""
"","html-keyboard-response","4","187358","0.0-4.0","3WMINLGALCPR9WA92XUV9Z3PL6ICAX","AG1SOUG1P7J76","3WRBLBQ2GRU63BU2LFOJL1G32T90GO","","null","<img src=""img/food1.png"" style=""width:200px; border:14px solid green;"">","null","","","","","","","","","",""
"","image-keyboard-response","5","188128","0.0-6.0","3WMINLGALCPR9WA92XUV9Z3PL6ICAX","AG1SOUG1P7J76","3WRBLBQ2GRU63BU2LFOJL1G32T90GO","","764.7000000029802","img/food3.png","76","768","3","1","false","1","2","1,0.5,0,1,0.5,0,0.5,0,1","0.5,0,1,0.5,0,1,0,1,0.5","2",""
"","html-keyboard-response","6","188433","0.0-7.0","3WMINLGALCPR9WA92XUV9Z3PL6ICAX","AG1SOUG1P7J76","3WRBLBQ2GRU63BU2LFOJL1G32T90GO","","null","<img src=""img/food3.png"" style=""width:200px; border:14px solid green;"">","null","","","","","","","","","",""
"","image-keyboard-response","7","189438","0.0-9.0","3WMINLGALCPR9WA92XUV9Z3PL6ICAX","AG1SOUG1P7J76","3WRBLBQ2GRU63BU2LFOJL1G32T90GO","","","img/food2.png","","1003.7999999970198","-1","0","true","2","2","1,0.5,0,1,0.5,0,0.5,0,1","0.5,0,1,0.5,0,1,0,1,0.5","2",""
"","html-keyboard-response","8","189750","0.0-10.0","3WMINLGALCPR9WA92XUV9Z3PL6ICAX","AG1SOUG1P7J76","3WRBLBQ2GRU63BU2LFOJL1G32T90GO","","null","<img src=""img/food2.png"" style=""width:200px;border:14px solid red;"">","null","","","","","","","","","",""
"","html-keyboard-response","9","196283","0.0-11.0-0.0","3WMINLGALCPR9WA92XUV9Z3PL6ICAX","AG1SOUG1P7J76","3WRBLBQ2GRU63BU2LFOJL1G32T90GO","","","","","","","","","","","","","",""
"","image-keyboard-response","10","196837","0.0-12.0","3WMINLGALCPR9WA92XUV9Z3PL6ICAX","AG1SOUG1P7J76","3WRBLBQ2GRU63BU2LFOJL1G32T90GO","","551.7000000029802","img/food1.png","75","554","2","1","false","3","2","1,0.5,0,1,0.5,0,0.5,0,1","0.5,0,1,0.5,0,1,0,1,0.5","2",""
"","html-keyboard-response","11","197143","0.0-13.0","3WMINLGALCPR9WA92XUV9Z3PL6ICAX","AG1SOUG1P7J76","3WRBLBQ2GRU63BU2LFOJL1G32T90GO","","null","<img src=""img/food1.png"" style=""width:200px; border:14px solid green;"">","null","","","","","","","","","",""
"","image-keyboard-response","12","197548","0.0-15.0","3WMINLGALCPR9WA92XUV9Z3PL6ICAX","AG1SOUG1P7J76","3WRBLBQ2GRU63BU2LFOJL1G32T90GO","","401.40000000596046","img/food3.png","76","404","3","1","false","1","2","1,0.5,0,1,0.5,0,0.5,0,1","0.5,0,1,0.5,0,1,0,1,0.5","2",""
"","html-keyboard-response","13","197851","0.0-16.0","3WMINLGALCPR9WA92XUV9Z3PL6ICAX","AG1SOUG1P7J76","3WRBLBQ2GRU63BU2LFOJL1G32T90GO","","null","<img src=""img/food3.png"" style=""width:200px; border:14px solid green;"">","null","","","","","","","","","",""
"","image-keyboard-response","14","198013","0.0-18.0","3WMINLGALCPR9WA92XUV9Z3PL6ICAX","AG1SOUG1P7J76","3WRBLBQ2GRU63BU2LFOJL1G32T90GO","","158.5","img/food3.png","75","160.70000000298023","2","0","false","1","2","1,0.5,0,1,0.5,0,0.5,0,1","0.5,0,1,0.5,0,1,0,1,0.5","2",""
"","html-keyboard-response","15","198318","0.0-19.0","3WMINLGALCPR9WA92XUV9Z3PL6ICAX","AG1SOUG1P7J76","3WRBLBQ2GRU63BU2LFOJL1G32T90GO","","null","<img src=""img/food3.png"" style=""width:200px;border:14px solid red;"">","null","","","","","","","","","",""
"","image-keyboard-response","16","198401","0.0-21.0","3WMINLGALCPR9WA92XUV9Z3PL6ICAX","AG1SOUG1P7J76","3WRBLBQ2GRU63BU2LFOJL1G32T90GO","","78.30000001192093","img/food3.png","75","81.09999999403954","2","0","false","1","2","1,0.5,0,1,0.5,0,0.5,0,1","0.5,0,1,0.5,0,1,0,1,0.5","2",""
"","html-keyboard-response","17","198706","0.0-22.0","3WMINLGALCPR9WA92XUV9Z3PL6ICAX","AG1SOUG1P7J76","3WRBLBQ2GRU63BU2LFOJL1G32T90GO","","null","<img src=""img/food3.png"" style=""width:200px;border:14px solid red;"">","null","","","","","","","","","",""
"","image-keyboard-response","18","198788","0.0-24.0","3WMINLGALCPR9WA92XUV9Z3PL6ICAX","AG1SOUG1P7J76","3WRBLBQ2GRU63BU2LFOJL1G32T90GO","","76.70000000298023","img/food3.png","75","79.3999999910593","2","0","false","1","2","1,0.5,0,1,0.5,0,0.5,0,1","0.5,0,1,0.5,0,1,0,1,0.5","2",""
"","html-keyboard-response","19","199093","0.0-25.0","3WMINLGALCPR9WA92XUV9Z3PL6ICAX","AG1SOUG1P7J76","3WRBLBQ2GRU63BU2LFOJL1G32T90GO","","null","<img src=""img/food3.png"" style=""width:200px;border:14px solid red;"">","null","","","","","","","","","",""
"","image-keyboard-response","20","199214","0.0-27.0","3WMINLGALCPR9WA92XUV9Z3PL6ICAX","AG1SOUG1P7J76","3WRBLBQ2GRU63BU2LFOJL1G32T90GO","","116.40000000596046","img/food2.png","76","119","3","1","false","2","2","1,0.5,0,1,0.5,0,0.5,0,1","0.5,0,1,0.5,0,1,0,1,0.5","2",""
"","html-keyboard-response","21","199519","0.0-28.0","3WMINLGALCPR9WA92XUV9Z3PL6ICAX","AG1SOUG1P7J76","3WRBLBQ2GRU63BU2LFOJL1G32T90GO","","null","<img src=""img/food2.png"" style=""width:200px; border:14px solid green;"">","null","","","","","","","","","",""
"","image-keyboard-response","22","199756","0.0-30.0","3WMINLGALCPR9WA92XUV9Z3PL6ICAX","AG1SOUG1P7J76","3WRBLBQ2GRU63BU2LFOJL1G32T90GO","","232.79999999701977","img/food1.png","76","235.6000000089407","3","1","false","3","2","1,0.5,0,1,0.5,0,0.5,0,1","0.5,0,1,0.5,0,1,0,1,0.5","2",""
"","html-keyboard-response","23","200062","0.0-31.0","3WMINLGALCPR9WA92XUV9Z3PL6ICAX","AG1SOUG1P7J76","3WRBLBQ2GRU63BU2LFOJL1G32T90GO","","null","<img src=""img/food1.png"" style=""width:200px; border:14px solid green;"">","null","","","","","","","","","",""
"","image-keyboard-response","24","200105","0.0-33.0","3WMINLGALCPR9WA92XUV9Z3PL6ICAX","AG1SOUG1P7J76","3WRBLBQ2GRU63BU2LFOJL1G32T90GO","","40.20000000298023","img/food2.png","75","42.400000005960464","2","0","false","2","2","1,0.5,0,1,0.5,0,0.5,0,1","0.5,0,1,0.5,0,1,0,1,0.5","2",""
"","html-keyboard-response","25","200410","0.0-34.0","3WMINLGALCPR9WA92XUV9Z3PL6ICAX","AG1SOUG1P7J76","3WRBLBQ2GRU63BU2LFOJL1G32T90GO","","null","<img src=""img/food2.png"" style=""width:200px;border:14px solid red;"">","null","","","","","","","","","",""
"","image-keyboard-response","26","200418","0.0-36.0","3WMINLGALCPR9WA92XUV9Z3PL6ICAX","AG1SOUG1P7J76","3WRBLBQ2GRU63BU2LFOJL1G32T90GO","","2","img/food1.png","75","5.799999997019768","2","1","false","3","2","1,0.5,0,1,0.5,0,0.5,0,1","0.5,0,1,0.5,0,1,0,1,0.5","2",""
"","html-keyboard-response","27","200723","0.0-37.0","3WMINLGALCPR9WA92XUV9Z3PL6ICAX","AG1SOUG1P7J76","3WRBLBQ2GRU63BU2LFOJL1G32T90GO","","null","<img src=""img/food1.png"" style=""width:200px; border:14px solid green;"">","null","","","","","","","","","",""
"","image-keyboard-response","28","200844","0.0-39.0","3WMINLGALCPR9WA92XUV9Z3PL6ICAX","AG1SOUG1P7J76","3WRBLBQ2GRU63BU2LFOJL1G32T90GO","","116.79999999701977","img/food3.png","76","119.5","3","1","false","1","2","1,0.5,0,1,0.5,0,0.5,0,1","0.5,0,1,0.5,0,1,0,1,0.5","2",""
"","html-keyboard-response","29","201150","0.0-40.0","3WMINLGALCPR9WA92XUV9Z3PL6ICAX","AG1SOUG1P7J76","3WRBLBQ2GRU63BU2LFOJL1G32T90GO","","null","<img src=""img/food3.png"" style=""width:200px; border:14px solid green;"">","null","","","","","","","","","",""
"","image-keyboard-response","30","201190","0.0-42.0","3WMINLGALCPR9WA92XUV9Z3PL6ICAX","AG1SOUG1P7J76","3WRBLBQ2GRU63BU2LFOJL1G32T90GO","","36.80000001192093","img/food3.png","75","38.599999994039536","2","0","false","1","2","1,0.5,0,1,0.5,0,0.5,0,1","0.5,0,1,0.5,0,1,0,1,0.5","2",""
"","html-keyboard-response","31","201493","0.0-43.0","3WMINLGALCPR9WA92XUV9Z3PL6ICAX","AG1SOUG1P7J76","3WRBLBQ2GRU63BU2LFOJL1G32T90GO","","null","<img src=""img/food3.png"" style=""width:200px;border:14px solid red;"">","null","","","","","","","","","",""
"","image-keyboard-response","32","201579","0.0-45.0","3WMINLGALCPR9WA92XUV9Z3PL6ICAX","AG1SOUG1P7J76","3WRBLBQ2GRU63BU2LFOJL1G32T90GO","","83","img/food2.png","74","85.40000000596046","1","0","false","2","2","1,0.5,0,1,0.5,0,0.5,0,1","0.5,0,1,0.5,0,1,0,1,0.5","2",""
"","html-keyboard-response","33","201884","0.0-46.0","3WMINLGALCPR9WA92XUV9Z3PL6ICAX","AG1SOUG1P7J76","3WRBLBQ2GRU63BU2LFOJL1G32T90GO","","null","<img src=""img/food2.png"" style=""width:200px;border:14px solid red;"">","null","","","","","","","","","",""
"","image-keyboard-response","34","201967","0.0-48.0","3WMINLGALCPR9WA92XUV9Z3PL6ICAX","AG1SOUG1P7J76","3WRBLBQ2GRU63BU2LFOJL1G32T90GO","","79.20000000298023","img/food1.png","75","81.59999999403954","2","1","false","3","2","1,0.5,0,1,0.5,0,0.5,0,1","0.5,0,1,0.5,0,1,0,1,0.5","2",""
"","html-keyboard-response","35","202271","0.0-49.0","3WMINLGALCPR9WA92XUV9Z3PL6ICAX","AG1SOUG1P7J76","3WRBLBQ2GRU63BU2LFOJL1G32T90GO","","null","<img src=""img/food1.png"" style=""width:200px; border:14px solid green;"">","null","","","","","","","","","",""
"","image-keyboard-response","36","202278","0.0-51.0","3WMINLGALCPR9WA92XUV9Z3PL6ICAX","AG1SOUG1P7J76","3WRBLBQ2GRU63BU2LFOJL1G32T90GO","","3.7999999970197678","img/food3.png","76","6.300000011920929","3","1","false","1","2","1,0.5,0,1,0.5,0,0.5,0,1","0.5,0,1,0.5,0,1,0,1,0.5","2",""
"","html-keyboard-response","37","202583","0.0-52.0","3WMINLGALCPR9WA92XUV9Z3PL6ICAX","AG1SOUG1P7J76","3WRBLBQ2GRU63BU2LFOJL1G32T90GO","","null","<img src=""img/food3.png"" style=""width:200px; border:14px solid green;"">","null","","","","","","","","","",""
"","image-keyboard-response","38","202744","0.0-54.0","3WMINLGALCPR9WA92XUV9Z3PL6ICAX","AG1SOUG1P7J76","3WRBLBQ2GRU63BU2LFOJL1G32T90GO","","157.19999998807907","img/food3.png","75","160","2","0","false","1","2","1,0.5,0,1,0.5,0,0.5,0,1","0.5,0,1,0.5,0,1,0,1,0.5","2",""
"","html-keyboard-response","39","203049","0.0-55.0","3WMINLGALCPR9WA92XUV9Z3PL6ICAX","AG1SOUG1P7J76","3WRBLBQ2GRU63BU2LFOJL1G32T90GO","","null","<img src=""img/food3.png"" style=""width:200px;border:14px solid red;"">","null","","","","","","","","","",""
"","image-keyboard-response","40","203092","0.0-57.0","3WMINLGALCPR9WA92XUV9Z3PL6ICAX","AG1SOUG1P7J76","3WRBLBQ2GRU63BU2LFOJL1G32T90GO","","39.6000000089407","img/food1.png","75","42","2","1","false","3","2","1,0.5,0,1,0.5,0,0.5,0,1","0.5,0,1,0.5,0,1,0,1,0.5","2",""
"","html-keyboard-response","41","203396","0.0-58.0","3WMINLGALCPR9WA92XUV9Z3PL6ICAX","AG1SOUG1P7J76","3WRBLBQ2GRU63BU2LFOJL1G32T90GO","","null","<img src=""img/food1.png"" style=""width:200px; border:14px solid green;"">","null","","","","","","","","","",""
"","image-keyboard-response","42","203753","0.0-60.0","3WMINLGALCPR9WA92XUV9Z3PL6ICAX","AG1SOUG1P7J76","3WRBLBQ2GRU63BU2LFOJL1G32T90GO","","353","img/food3.png","75","355.70000000298023","2","0","false","1","2","1,0.5,0,1,0.5,0,0.5,0,1","0.5,0,1,0.5,0,1,0,1,0.5","2",""
"","html-keyboard-response","43","204057","0.0-61.0","3WMINLGALCPR9WA92XUV9Z3PL6ICAX","AG1SOUG1P7J76","3WRBLBQ2GRU63BU2LFOJL1G32T90GO","","null","<img src=""img/food3.png"" style=""width:200px;border:14px solid red;"">","null","","","","","","","","","",""
"","image-keyboard-response","44","204101","0.0-63.0","3WMINLGALCPR9WA92XUV9Z3PL6ICAX","AG1SOUG1P7J76","3WRBLBQ2GRU63BU2LFOJL1G32T90GO","","40.79999999701977","img/food2.png","76","43.099999994039536","3","1","false","2","2","1,0.5,0,1,0.5,0,0.5,0,1","0.5,0,1,0.5,0,1,0,1,0.5","2",""
"","html-keyboard-response","45","204406","0.0-64.0","3WMINLGALCPR9WA92XUV9Z3PL6ICAX","AG1SOUG1P7J76","3WRBLBQ2GRU63BU2LFOJL1G32T90GO","","null","<img src=""img/food2.png"" style=""width:200px; border:14px solid green;"">","null","","","","","","","","","",""
"","image-keyboard-response","46","204528","0.0-66.0","3WMINLGALCPR9WA92XUV9Z3PL6ICAX","AG1SOUG1P7J76","3WRBLBQ2GRU63BU2LFOJL1G32T90GO","","117.80000001192093","img/food3.png","75","120.20000000298023","2","0","false","1","2","1,0.5,0,1,0.5,0,0.5,0,1","0.5,0,1,0.5,0,1,0,1,0.5","2",""
"","html-keyboard-response","47","204833","0.0-67.0","3WMINLGALCPR9WA92XUV9Z3PL6ICAX","AG1SOUG1P7J76","3WRBLBQ2GRU63BU2LFOJL1G32T90GO","","null","<img src=""img/food3.png"" style=""width:200px;border:14px solid red;"">","null","","","","","","","","","",""
"","image-keyboard-response","48","204957","0.0-69.0","3WMINLGALCPR9WA92XUV9Z3PL6ICAX","AG1SOUG1P7J76","3WRBLBQ2GRU63BU2LFOJL1G32T90GO","","119.40000000596046","img/food2.png","75","122","2","0","false","2","2","1,0.5,0,1,0.5,0,0.5,0,1","0.5,0,1,0.5,0,1,0,1,0.5","2",""
"","html-keyboard-response","49","205262","0.0-70.0","3WMINLGALCPR9WA92XUV9Z3PL6ICAX","AG1SOUG1P7J76","3WRBLBQ2GRU63BU2LFOJL1G32T90GO","","null","<img src=""img/food2.png"" style=""width:200px;border:14px solid red;"">","null","","","","","","","","","",""
"","image-keyboard-response","50","205344","0.0-72.0","3WMINLGALCPR9WA92XUV9Z3PL6ICAX","AG1SOUG1P7J76","3WRBLBQ2GRU63BU2LFOJL1G32T90GO","","78.20000000298023","img/food1.png","76","80.79999999701977","3","1","false","3","2","1,0.5,0,1,0.5,0,0.5,0,1","0.5,0,1,0.5,0,1,0,1,0.5","2",""
"","html-keyboard-response","51","205650","0.0-73.0","3WMINLGALCPR9WA92XUV9Z3PL6ICAX","AG1SOUG1P7J76","3WRBLBQ2GRU63BU2LFOJL1G32T90GO","","null","<img src=""img/food1.png"" style=""width:200px; border:14px solid green;"">","null","","","","","","","","","",""
"","image-keyboard-response","52","206081","0.0-75.0","3WMINLGALCPR9WA92XUV9Z3PL6ICAX","AG1SOUG1P7J76","3WRBLBQ2GRU63BU2LFOJL1G32T90GO","","428.29999999701977","img/food2.png","74","430.70000000298023","1","0","false","2","2","1,0.5,0,1,0.5,0,0.5,0,1","0.5,0,1,0.5,0,1,0,1,0.5","2",""
"","html-keyboard-response","53","206386","0.0-76.0","3WMINLGALCPR9WA92XUV9Z3PL6ICAX","AG1SOUG1P7J76","3WRBLBQ2GRU63BU2LFOJL1G32T90GO","","null","<img src=""img/food2.png"" style=""width:200px;border:14px solid red;"">","null","","","","","","","","","",""
"","image-keyboard-response","54","206550","0.0-78.0","3WMINLGALCPR9WA92XUV9Z3PL6ICAX","AG1SOUG1P7J76","3WRBLBQ2GRU63BU2LFOJL1G32T90GO","","160.1000000089407","img/food3.png","75","163","2","0","false","1","2","1,0.5,0,1,0.5,0,0.5,0,1","0.5,0,1,0.5,0,1,0,1,0.5","2",""
"","html-keyboard-response","55","206855","0.0-79.0","3WMINLGALCPR9WA92XUV9Z3PL6ICAX","AG1SOUG1P7J76","3WRBLBQ2GRU63BU2LFOJL1G32T90GO","","null","<img src=""img/food3.png"" style=""width:200px;border:14px solid red;"">","null","","","","","","","","","",""
"","image-keyboard-response","56","207058","0.0-81.0","3WMINLGALCPR9WA92XUV9Z3PL6ICAX","AG1SOUG1P7J76","3WRBLBQ2GRU63BU2LFOJL1G32T90GO","","199.20000000298023","img/food1.png","75","201.90000000596046","2","1","false","3","2","1,0.5,0,1,0.5,0,0.5,0,1","0.5,0,1,0.5,0,1,0,1,0.5","2",""
"","html-keyboard-response","57","207362","0.0-82.0","3WMINLGALCPR9WA92XUV9Z3PL6ICAX","AG1SOUG1P7J76","3WRBLBQ2GRU63BU2LFOJL1G32T90GO","","null","<img src=""img/food1.png"" style=""width:200px; border:14px solid green;"">","null","","","","","","","","","",""
"","image-keyboard-response","58","207445","0.0-84.0","3WMINLGALCPR9WA92XUV9Z3PL6ICAX","AG1SOUG1P7J76","3WRBLBQ2GRU63BU2LFOJL1G32T90GO","","79.79999999701977","img/food2.png","74","82.59999999403954","1","0","false","2","2","1,0.5,0,1,0.5,0,0.5,0,1","0.5,0,1,0.5,0,1,0,1,0.5","2",""
"","html-keyboard-response","59","207750","0.0-85.0","3WMINLGALCPR9WA92XUV9Z3PL6ICAX","AG1SOUG1P7J76","3WRBLBQ2GRU63BU2LFOJL1G32T90GO","","null","<img src=""img/food2.png"" style=""width:200px;border:14px solid red;"">","null","","","","","","","","","",""
"","image-keyboard-response","60","208028","0.0-87.0","3WMINLGALCPR9WA92XUV9Z3PL6ICAX","AG1SOUG1P7J76","3WRBLBQ2GRU63BU2LFOJL1G32T90GO","","274.40000000596046","img/food3.png","75","277.20000000298023","2","0","false","1","2","1,0.5,0,1,0.5,0,0.5,0,1","0.5,0,1,0.5,0,1,0,1,0.5","2",""
"","html-keyboard-response","61","208332","0.0-88.0","3WMINLGALCPR9WA92XUV9Z3PL6ICAX","AG1SOUG1P7J76","3WRBLBQ2GRU63BU2LFOJL1G32T90GO","","null","<img src=""img/food3.png"" style=""width:200px;border:14px solid red;"">","null","","","","","","","","","",""
"","image-keyboard-response","62","208354","0.0-90.0","3WMINLGALCPR9WA92XUV9Z3PL6ICAX","AG1SOUG1P7J76","3WRBLBQ2GRU63BU2LFOJL1G32T90GO","","19.099999994039536","img/food1.png","76","21.299999997019768","3","1","false","3","2","1,0.5,0,1,0.5,0,0.5,0,1","0.5,0,1,0.5,0,1,0,1,0.5","2",""
"","html-keyboard-response","63","208659","0.0-91.0","3WMINLGALCPR9WA92XUV9Z3PL6ICAX","AG1SOUG1P7J76","3WRBLBQ2GRU63BU2LFOJL1G32T90GO","","null","<img src=""img/food1.png"" style=""width:200px; border:14px solid green;"">","null","","","","","","","","","",""
"","image-keyboard-response","64","208989","0.0-93.0","3WMINLGALCPR9WA92XUV9Z3PL6ICAX","AG1SOUG1P7J76","3WRBLBQ2GRU63BU2LFOJL1G32T90GO","","325.40000000596046","img/food2.png","75","328.19999998807907","2","0","false","2","2","1,0.5,0,1,0.5,0,0.5,0,1","0.5,0,1,0.5,0,1,0,1,0.5","2",""
"","html-keyboard-response","65","209294","0.0-94.0","3WMINLGALCPR9WA92XUV9Z3PL6ICAX","AG1SOUG1P7J76","3WRBLBQ2GRU63BU2LFOJL1G32T90GO","","null","<img src=""img/food2.png"" style=""width:200px;border:14px solid red;"">","null","","","","","","","","","",""
"","image-keyboard-response","66","209496","0.0-96.0","3WMINLGALCPR9WA92XUV9Z3PL6ICAX","AG1SOUG1P7J76","3WRBLBQ2GRU63BU2LFOJL1G32T90GO","","197.79999999701977","img/food3.png","75","200.5","2","0","false","1","2","1,0.5,0,1,0.5,0,0.5,0,1","0.5,0,1,0.5,0,1,0,1,0.5","2",""
"","html-keyboard-response","67","209800","0.0-97.0","3WMINLGALCPR9WA92XUV9Z3PL6ICAX","AG1SOUG1P7J76","3WRBLBQ2GRU63BU2LFOJL1G32T90GO","","null","<img src=""img/food3.png"" style=""width:200px;border:14px solid red;"">","null","","","","","","","","","",""
"","image-keyboard-response","68","209805","0.0-99.0","3WMINLGALCPR9WA92XUV9Z3PL6ICAX","AG1SOUG1P7J76","3WRBLBQ2GRU63BU2LFOJL1G32T90GO","","2","img/food1.png","75","4","2","1","false","3","2","1,0.5,0,1,0.5,0,0.5,0,1","0.5,0,1,0.5,0,1,0,1,0.5","2",""
"","html-keyboard-response","69","210109","0.0-100.0","3WMINLGALCPR9WA92XUV9Z3PL6ICAX","AG1SOUG1P7J76","3WRBLBQ2GRU63BU2LFOJL1G32T90GO","","null","<img src=""img/food1.png"" style=""width:200px; border:14px solid green;"">","null","","","","","","","","","",""
"","image-keyboard-response","70","210157","0.0-102.0","3WMINLGALCPR9WA92XUV9Z3PL6ICAX","AG1SOUG1P7J76","3WRBLBQ2GRU63BU2LFOJL1G32T90GO","","45","img/food1.png","75","47.5","2","1","false","3","2","1,0.5,0,1,0.5,0,0.5,0,1","0.5,0,1,0.5,0,1,0,1,0.5","2",""
"","html-keyboard-response","71","210461","0.0-103.0","3WMINLGALCPR9WA92XUV9Z3PL6ICAX","AG1SOUG1P7J76","3WRBLBQ2GRU63BU2LFOJL1G32T90GO","","null","<img src=""img/food1.png"" style=""width:200px; border:14px solid green;"">","null","","","","","","","","","",""
"","image-keyboard-response","72","210699","0.0-105.0","3WMINLGALCPR9WA92XUV9Z3PL6ICAX","AG1SOUG1P7J76","3WRBLBQ2GRU63BU2LFOJL1G32T90GO","","234","img/food3.png","74","236.40000000596046","1","0","false","1","2","1,0.5,0,1,0.5,0,0.5,0,1","0.5,0,1,0.5,0,1,0,1,0.5","2",""
"","html-keyboard-response","73","211003","0.0-106.0","3WMINLGALCPR9WA92XUV9Z3PL6ICAX","AG1SOUG1P7J76","3WRBLBQ2GRU63BU2LFOJL1G32T90GO","","null","<img src=""img/food3.png"" style=""width:200px;border:14px solid red;"">","null","","","","","","","","","",""
"","image-keyboard-response","74","211363","0.0-108.0","3WMINLGALCPR9WA92XUV9Z3PL6ICAX","AG1SOUG1P7J76","3WRBLBQ2GRU63BU2LFOJL1G32T90GO","","356.09999999403954","img/food1.png","75","359.09999999403954","2","1","false","3","2","1,0.5,0,1,0.5,0,0.5,0,1","0.5,0,1,0.5,0,1,0,1,0.5","2",""
"","html-keyboard-response","75","211667","0.0-109.0","3WMINLGALCPR9WA92XUV9Z3PL6ICAX","AG1SOUG1P7J76","3WRBLBQ2GRU63BU2LFOJL1G32T90GO","","null","<img src=""img/food1.png"" style=""width:200px; border:14px solid green;"">","null","","","","","","","","","",""
"","image-keyboard-response","76","211872","0.0-111.0","3WMINLGALCPR9WA92XUV9Z3PL6ICAX","AG1SOUG1P7J76","3WRBLBQ2GRU63BU2LFOJL1G32T90GO","","201.20000000298023","img/food1.png","76","203.70000000298023","3","1","false","3","2","1,0.5,0,1,0.5,0,0.5,0,1","0.5,0,1,0.5,0,1,0,1,0.5","2",""
"","html-keyboard-response","77","212178","0.0-112.0","3WMINLGALCPR9WA92XUV9Z3PL6ICAX","AG1SOUG1P7J76","3WRBLBQ2GRU63BU2LFOJL1G32T90GO","","null","<img src=""img/food1.png"" style=""width:200px; border:14px solid green;"">","null","","","","","","","","","",""
"","image-keyboard-response","78","212374","0.0-114.0","3WMINLGALCPR9WA92XUV9Z3PL6ICAX","AG1SOUG1P7J76","3WRBLBQ2GRU63BU2LFOJL1G32T90GO","","188.59999999403954","img/food2.png","75","191.09999999403954","2","0","false","2","2","1,0.5,0,1,0.5,0,0.5,0,1","0.5,0,1,0.5,0,1,0,1,0.5","2",""
"","html-keyboard-response","79","212679","0.0-115.0","3WMINLGALCPR9WA92XUV9Z3PL6ICAX","AG1SOUG1P7J76","3WRBLBQ2GRU63BU2LFOJL1G32T90GO","","null","<img src=""img/food2.png"" style=""width:200px;border:14px solid red;"">","null","","","","","","","","","",""
"","image-keyboard-response","80","212880","0.0-117.0","3WMINLGALCPR9WA92XUV9Z3PL6ICAX","AG1SOUG1P7J76","3WRBLBQ2GRU63BU2LFOJL1G32T90GO","","197.6000000089407","img/food3.png","74","200.1000000089407","1","1","false","1","2","1,0.5,0,1,0.5,0,0.5,0,1","0.5,0,1,0.5,0,1,0,1,0.5","2",""
"","html-keyboard-response","81","213184","0.0-118.0","3WMINLGALCPR9WA92XUV9Z3PL6ICAX","AG1SOUG1P7J76","3WRBLBQ2GRU63BU2LFOJL1G32T90GO","","null","<img src=""img/food3.png"" style=""width:200px; border:14px solid green;"">","null","","","","","","","","","",""
"","image-keyboard-response","82","213191","0.0-120.0","3WMINLGALCPR9WA92XUV9Z3PL6ICAX","AG1SOUG1P7J76","3WRBLBQ2GRU63BU2LFOJL1G32T90GO","","4","img/food2.png","74","5.899999991059303","1","0","false","2","2","1,0.5,0,1,0.5,0,0.5,0,1","0.5,0,1,0.5,0,1,0,1,0.5","2",""
"","html-keyboard-response","83","213495","0.0-121.0","3WMINLGALCPR9WA92XUV9Z3PL6ICAX","AG1SOUG1P7J76","3WRBLBQ2GRU63BU2LFOJL1G32T90GO","","null","<img src=""img/food2.png"" style=""width:200px;border:14px solid red;"">","null","","","","","","","","","",""
"","image-keyboard-response","84","213696","0.0-123.0","3WMINLGALCPR9WA92XUV9Z3PL6ICAX","AG1SOUG1P7J76","3WRBLBQ2GRU63BU2LFOJL1G32T90GO","","198.80000001192093","img/food3.png","75","200.6000000089407","2","0","false","1","2","1,0.5,0,1,0.5,0,0.5,0,1","0.5,0,1,0.5,0,1,0,1,0.5","2",""
"","html-keyboard-response","85","214000","0.0-124.0","3WMINLGALCPR9WA92XUV9Z3PL6ICAX","AG1SOUG1P7J76","3WRBLBQ2GRU63BU2LFOJL1G32T90GO","","null","<img src=""img/food3.png"" style=""width:200px;border:14px solid red;"">","null","","","","","","","","","",""
"","image-keyboard-response","86","214245","0.0-126.0","3WMINLGALCPR9WA92XUV9Z3PL6ICAX","AG1SOUG1P7J76","3WRBLBQ2GRU63BU2LFOJL1G32T90GO","","240.79999999701977","img/food2.png","75","243.70000000298023","2","0","false","2","2","1,0.5,0,1,0.5,0,0.5,0,1","0.5,0,1,0.5,0,1,0,1,0.5","2",""
"","html-keyboard-response","87","214551","0.0-127.0","3WMINLGALCPR9WA92XUV9Z3PL6ICAX","AG1SOUG1P7J76","3WRBLBQ2GRU63BU2LFOJL1G32T90GO","","null","<img src=""img/food2.png"" style=""width:200px;border:14px solid red;"">","null","","","","","","","","","",""
"","image-keyboard-response","88","214751","0.0-129.0","3WMINLGALCPR9WA92XUV9Z3PL6ICAX","AG1SOUG1P7J76","3WRBLBQ2GRU63BU2LFOJL1G32T90GO","","196.29999999701977","img/food1.png","75","199.20000000298023","2","1","false","3","2","1,0.5,0,1,0.5,0,0.5,0,1","0.5,0,1,0.5,0,1,0,1,0.5","2",""
"","html-keyboard-response","89","215055","0.0-130.0","3WMINLGALCPR9WA92XUV9Z3PL6ICAX","AG1SOUG1P7J76","3WRBLBQ2GRU63BU2LFOJL1G32T90GO","","null","<img src=""img/food1.png"" style=""width:200px; border:14px solid green;"">","null","","","","","","","","","",""
"","image-keyboard-response","90","215257","0.0-132.0","3WMINLGALCPR9WA92XUV9Z3PL6ICAX","AG1SOUG1P7J76","3WRBLBQ2GRU63BU2LFOJL1G32T90GO","","198.6000000089407","img/food2.png","76","201.5","3","1","false","2","2","1,0.5,0,1,0.5,0,0.5,0,1","0.5,0,1,0.5,0,1,0,1,0.5","2",""
"","html-keyboard-response","91","215562","0.0-133.0","3WMINLGALCPR9WA92XUV9Z3PL6ICAX","AG1SOUG1P7J76","3WRBLBQ2GRU63BU2LFOJL1G32T90GO","","null","<img src=""img/food2.png"" style=""width:200px; border:14px solid green;"">","null","","","","","","","","","",""
"","image-keyboard-response","92","215837","0.0-135.0","3WMINLGALCPR9WA92XUV9Z3PL6ICAX","AG1SOUG1P7J76","3WRBLBQ2GRU63BU2LFOJL1G32T90GO","","271.40000000596046","img/food1.png","74","273.8999999910593","1","0","false","3","2","1,0.5,0,1,0.5,0,0.5,0,1","0.5,0,1,0.5,0,1,0,1,0.5","2",""
"","html-keyboard-response","93","216142","0.0-136.0","3WMINLGALCPR9WA92XUV9Z3PL6ICAX","AG1SOUG1P7J76","3WRBLBQ2GRU63BU2LFOJL1G32T90GO","","null","<img src=""img/food1.png"" style=""width:200px;border:14px solid red;"">","null","","","","","","","","","",""
"","image-keyboard-response","94","216188","0.0-138.0","3WMINLGALCPR9WA92XUV9Z3PL6ICAX","AG1SOUG1P7J76","3WRBLBQ2GRU63BU2LFOJL1G32T90GO","","43.099999994039536","img/food1.png","74","45.400000005960464","1","0","false","3","2","1,0.5,0,1,0.5,0,0.5,0,1","0.5,0,1,0.5,0,1,0,1,0.5","2",""
"","html-keyboard-response","95","216492","0.0-139.0","3WMINLGALCPR9WA92XUV9Z3PL6ICAX","AG1SOUG1P7J76","3WRBLBQ2GRU63BU2LFOJL1G32T90GO","","null","<img src=""img/food1.png"" style=""width:200px;border:14px solid red;"">","null","","","","","","","","","",""
"","image-keyboard-response","96","216577","0.0-141.0","3WMINLGALCPR9WA92XUV9Z3PL6ICAX","AG1SOUG1P7J76","3WRBLBQ2GRU63BU2LFOJL1G32T90GO","","81.59999999403954","img/food2.png","74","84.09999999403954","1","0","false","2","2","1,0.5,0,1,0.5,0,0.5,0,1","0.5,0,1,0.5,0,1,0,1,0.5","2",""
"","html-keyboard-response","97","216881","0.0-142.0","3WMINLGALCPR9WA92XUV9Z3PL6ICAX","AG1SOUG1P7J76","3WRBLBQ2GRU63BU2LFOJL1G32T90GO","","null","<img src=""img/food2.png"" style=""width:200px;border:14px solid red;"">","null","","","","","","","","","",""
"","image-keyboard-response","98","216926","0.0-144.0","3WMINLGALCPR9WA92XUV9Z3PL6ICAX","AG1SOUG1P7J76","3WRBLBQ2GRU63BU2LFOJL1G32T90GO","","41.900000005960464","img/food3.png","74","44.1000000089407","1","0","false","1","2","1,0.5,0,1,0.5,0,0.5,0,1","0.5,0,1,0.5,0,1,0,1,0.5","2",""
"","html-keyboard-response","99","217230","0.0-145.0","3WMINLGALCPR9WA92XUV9Z3PL6ICAX","AG1SOUG1P7J76","3WRBLBQ2GRU63BU2LFOJL1G32T90GO","","null","<img src=""img/food3.png"" style=""width:200px;border:14px solid red;"">","null","","","","","","","","","",""
"","image-keyboard-response","100","217277","0.0-147.0","3WMINLGALCPR9WA92XUV9Z3PL6ICAX","AG1SOUG1P7J76","3WRBLBQ2GRU63BU2LFOJL1G32T90GO","","43.29999999701977","img/food2.png","75","45.099999994039536","2","0","false","2","2","1,0.5,0,1,0.5,0,0.5,0,1","0.5,0,1,0.5,0,1,0,1,0.5","2",""
"","html-keyboard-response","101","217582","0.0-148.0","3WMINLGALCPR9WA92XUV9Z3PL6ICAX","AG1SOUG1P7J76","3WRBLBQ2GRU63BU2LFOJL1G32T90GO","","null","<img src=""img/food2.png"" style=""width:200px;border:14px solid red;"">","null","","","","","","","","","",""
"","image-keyboard-response","102","217707","0.0-150.0","3WMINLGALCPR9WA92XUV9Z3PL6ICAX","AG1SOUG1P7J76","3WRBLBQ2GRU63BU2LFOJL1G32T90GO","","122","img/food2.png","76","124.79999999701977","3","1","false","2","2","1,0.5,0,1,0.5,0,0.5,0,1","0.5,0,1,0.5,0,1,0,1,0.5","2",""
"","html-keyboard-response","103","218013","0.0-151.0","3WMINLGALCPR9WA92XUV9Z3PL6ICAX","AG1SOUG1P7J76","3WRBLBQ2GRU63BU2LFOJL1G32T90GO","","null","<img src=""img/food2.png"" style=""width:200px; border:14px solid green;"">","null","","","","","","","","","",""
"","image-keyboard-response","104","218214","0.0-153.0","3WMINLGALCPR9WA92XUV9Z3PL6ICAX","AG1SOUG1P7J76","3WRBLBQ2GRU63BU2LFOJL1G32T90GO","","197.70000000298023","img/food1.png","75","200.29999999701977","2","1","false","3","2","1,0.5,0,1,0.5,0,0.5,0,1","0.5,0,1,0.5,0,1,0,1,0.5","2",""
"","html-keyboard-response","105","218519","0.0-154.0","3WMINLGALCPR9WA92XUV9Z3PL6ICAX","AG1SOUG1P7J76","3WRBLBQ2GRU63BU2LFOJL1G32T90GO","","null","<img src=""img/food1.png"" style=""width:200px; border:14px solid green;"">","null","","","","","","","","","",""
"","image-keyboard-response","106","218684","0.0-156.0","3WMINLGALCPR9WA92XUV9Z3PL6ICAX","AG1SOUG1P7J76","3WRBLBQ2GRU63BU2LFOJL1G32T90GO","","160.5","img/food3.png","76","163.40000000596046","3","1","false","1","2","1,0.5,0,1,0.5,0,0.5,0,1","0.5,0,1,0.5,0,1,0,1,0.5","2",""
"","html-keyboard-response","107","218989","0.0-157.0","3WMINLGALCPR9WA92XUV9Z3PL6ICAX","AG1SOUG1P7J76","3WRBLBQ2GRU63BU2LFOJL1G32T90GO","","null","<img src=""img/food3.png"" style=""width:200px; border:14px solid green;"">","null","","","","","","","","","",""
"","image-keyboard-response","108","219114","0.0-159.0","3WMINLGALCPR9WA92XUV9Z3PL6ICAX","AG1SOUG1P7J76","3WRBLBQ2GRU63BU2LFOJL1G32T90GO","","121.09999999403954","img/food2.png","75","123.90000000596046","2","0","false","2","2","1,0.5,0,1,0.5,0,0.5,0,1","0.5,0,1,0.5,0,1,0,1,0.5","2",""
"","html-keyboard-response","109","219419","0.0-160.0","3WMINLGALCPR9WA92XUV9Z3PL6ICAX","AG1SOUG1P7J76","3WRBLBQ2GRU63BU2LFOJL1G32T90GO","","null","<img src=""img/food2.png"" style=""width:200px;border:14px solid red;"">","null","","","","","","","","","",""
"","image-keyboard-response","110","219643","0.0-162.0","3WMINLGALCPR9WA92XUV9Z3PL6ICAX","AG1SOUG1P7J76","3WRBLBQ2GRU63BU2LFOJL1G32T90GO","","220.80000001192093","img/food3.png","74","223.5","1","0","false","1","2","1,0.5,0,1,0.5,0,0.5,0,1","0.5,0,1,0.5,0,1,0,1,0.5","2",""
"","html-keyboard-response","111","219948","0.0-163.0","3WMINLGALCPR9WA92XUV9Z3PL6ICAX","AG1SOUG1P7J76","3WRBLBQ2GRU63BU2LFOJL1G32T90GO","","null","<img src=""img/food3.png"" style=""width:200px;border:14px solid red;"">","null","","","","","","","","","",""
"","image-keyboard-response","112","220109","0.0-165.0","3WMINLGALCPR9WA92XUV9Z3PL6ICAX","AG1SOUG1P7J76","3WRBLBQ2GRU63BU2LFOJL1G32T90GO","","158.20000000298023","img/food2.png","74","160.59999999403954","1","0","false","2","2","1,0.5,0,1,0.5,0,0.5,0,1","0.5,0,1,0.5,0,1,0,1,0.5","2",""
"","html-keyboard-response","113","220415","0.0-166.0","3WMINLGALCPR9WA92XUV9Z3PL6ICAX","AG1SOUG1P7J76","3WRBLBQ2GRU63BU2LFOJL1G32T90GO","","null","<img src=""img/food2.png"" style=""width:200px;border:14px solid red;"">","null","","","","","","","","","",""
"","image-keyboard-response","114","220516","0.0-168.0","3WMINLGALCPR9WA92XUV9Z3PL6ICAX","AG1SOUG1P7J76","3WRBLBQ2GRU63BU2LFOJL1G32T90GO","","97.80000001192093","img/food3.png","75","100.5","2","0","false","1","2","1,0.5,0,1,0.5,0,0.5,0,1","0.5,0,1,0.5,0,1,0,1,0.5","2",""
"","html-keyboard-response","115","220821","0.0-169.0","3WMINLGALCPR9WA92XUV9Z3PL6ICAX","AG1SOUG1P7J76","3WRBLBQ2GRU63BU2LFOJL1G32T90GO","","null","<img src=""img/food3.png"" style=""width:200px;border:14px solid red;"">","null","","","","","","","","","",""
"","image-keyboard-response","116","220839","0.0-171.0","3WMINLGALCPR9WA92XUV9Z3PL6ICAX","AG1SOUG1P7J76","3WRBLBQ2GRU63BU2LFOJL1G32T90GO","","14.100000008940697","img/food1.png","76","16.399999991059303","3","1","false","3","2","1,0.5,0,1,0.5,0,0.5,0,1","0.5,0,1,0.5,0,1,0,1,0.5","2",""
"","html-keyboard-response","117","221144","0.0-172.0","3WMINLGALCPR9WA92XUV9Z3PL6ICAX","AG1SOUG1P7J76","3WRBLBQ2GRU63BU2LFOJL1G32T90GO","","null","<img src=""img/food1.png"" style=""width:200px; border:14px solid green;"">","null","","","","","","","","","",""
"","image-keyboard-response","118","221307","0.0-174.0","3WMINLGALCPR9WA92XUV9Z3PL6ICAX","AG1SOUG1P7J76","3WRBLBQ2GRU63BU2LFOJL1G32T90GO","","159.09999999403954","img/food3.png","75","162","2","0","false","1","2","1,0.5,0,1,0.5,0,0.5,0,1","0.5,0,1,0.5,0,1,0,1,0.5","2",""
"","html-keyboard-response","119","221612","0.0-175.0","3WMINLGALCPR9WA92XUV9Z3PL6ICAX","AG1SOUG1P7J76","3WRBLBQ2GRU63BU2LFOJL1G32T90GO","","null","<img src=""img/food3.png"" style=""width:200px;border:14px solid red;"">","null","","","","","","","","","",""
"","image-keyboard-response","120","221732","0.0-177.0","3WMINLGALCPR9WA92XUV9Z3PL6ICAX","AG1SOUG1P7J76","3WRBLBQ2GRU63BU2LFOJL1G32T90GO","","113.59999999403954","img/food2.png","75","116.6000000089407","2","0","false","2","2","1,0.5,0,1,0.5,0,0.5,0,1","0.5,0,1,0.5,0,1,0,1,0.5","2",""
"","html-keyboard-response","121","222037","0.0-178.0","3WMINLGALCPR9WA92XUV9Z3PL6ICAX","AG1SOUG1P7J76","3WRBLBQ2GRU63BU2LFOJL1G32T90GO","","null","<img src=""img/food2.png"" style=""width:200px;border:14px solid red;"">","null","","","","","","","","","",""
"","image-keyboard-response","122","222197","0.0-180.0","3WMINLGALCPR9WA92XUV9Z3PL6ICAX","AG1SOUG1P7J76","3WRBLBQ2GRU63BU2LFOJL1G32T90GO","","155.59999999403954","img/food3.png","74","158.69999998807907","1","0","false","1","2","1,0.5,0,1,0.5,0,0.5,0,1","0.5,0,1,0.5,0,1,0,1,0.5","2",""
"","html-keyboard-response","123","222501","0.0-181.0","3WMINLGALCPR9WA92XUV9Z3PL6ICAX","AG1SOUG1P7J76","3WRBLBQ2GRU63BU2LFOJL1G32T90GO","","null","<img src=""img/food3.png"" style=""width:200px;border:14px solid red;"">","null","","","","","","","","","",""
"","image-keyboard-response","124","222565","0.0-183.0","3WMINLGALCPR9WA92XUV9Z3PL6ICAX","AG1SOUG1P7J76","3WRBLBQ2GRU63BU2LFOJL1G32T90GO","","61.400000005960464","img/food2.png","75","63.5","2","0","false","2","2","1,0.5,0,1,0.5,0,0.5,0,1","0.5,0,1,0.5,0,1,0,1,0.5","2",""
"","html-keyboard-response","125","222869","0.0-184.0","3WMINLGALCPR9WA92XUV9Z3PL6ICAX","AG1SOUG1P7J76","3WRBLBQ2GRU63BU2LFOJL1G32T90GO","","null","<img src=""img/food2.png"" style=""width:200px;border:14px solid red;"">","null","","","","","","","","","",""
"","image-keyboard-response","126","222898","0.0-186.0","3WMINLGALCPR9WA92XUV9Z3PL6ICAX","AG1SOUG1P7J76","3WRBLBQ2GRU63BU2LFOJL1G32T90GO","","25.200000002980232","img/food3.png","75","27.099999994039536","2","0","false","1","2","1,0.5,0,1,0.5,0,0.5,0,1","0.5,0,1,0.5,0,1,0,1,0.5","2",""
"","html-keyboard-response","127","223200","0.0-187.0","3WMINLGALCPR9WA92XUV9Z3PL6ICAX","AG1SOUG1P7J76","3WRBLBQ2GRU63BU2LFOJL1G32T90GO","","null","<img src=""img/food3.png"" style=""width:200px;border:14px solid red;"">","null","","","","","","","","","",""
"","image-keyboard-response","128","223268","0.0-189.0","3WMINLGALCPR9WA92XUV9Z3PL6ICAX","AG1SOUG1P7J76","3WRBLBQ2GRU63BU2LFOJL1G32T90GO","","63.5","img/food1.png","76","66.29999999701977","3","0","false","3","2","1,0.5,0,1,0.5,0,0.5,0,1","0.5,0,1,0.5,0,1,0,1,0.5","2",""
"","html-keyboard-response","129","223572","0.0-190.0","3WMINLGALCPR9WA92XUV9Z3PL6ICAX","AG1SOUG1P7J76","3WRBLBQ2GRU63BU2LFOJL1G32T90GO","","null","<img src=""img/food1.png"" style=""width:200px;border:14px solid red;"">","null","","","","","","","","","",""
"","image-keyboard-response","130","223712","0.0-192.0","3WMINLGALCPR9WA92XUV9Z3PL6ICAX","AG1SOUG1P7J76","3WRBLBQ2GRU63BU2LFOJL1G32T90GO","","136.79999999701977","img/food2.png","75","139.59999999403954","2","0","false","2","2","1,0.5,0,1,0.5,0,0.5,0,1","0.5,0,1,0.5,0,1,0,1,0.5","2",""
"","html-keyboard-response","131","224017","0.0-193.0","3WMINLGALCPR9WA92XUV9Z3PL6ICAX","AG1SOUG1P7J76","3WRBLBQ2GRU63BU2LFOJL1G32T90GO","","null","<img src=""img/food2.png"" style=""width:200px;border:14px solid red;"">","null","","","","","","","","","",""
"","image-keyboard-response","132","224151","0.0-195.0","3WMINLGALCPR9WA92XUV9Z3PL6ICAX","AG1SOUG1P7J76","3WRBLBQ2GRU63BU2LFOJL1G32T90GO","","130.6000000089407","img/food1.png","75","132.90000000596046","2","1","false","3","2","1,0.5,0,1,0.5,0,0.5,0,1","0.5,0,1,0.5,0,1,0,1,0.5","2",""
"","html-keyboard-response","133","224456","0.0-196.0","3WMINLGALCPR9WA92XUV9Z3PL6ICAX","AG1SOUG1P7J76","3WRBLBQ2GRU63BU2LFOJL1G32T90GO","","null","<img src=""img/food1.png"" style=""width:200px; border:14px solid green;"">","null","","","","","","","","","",""
"","image-keyboard-response","134","224505","0.0-198.0","3WMINLGALCPR9WA92XUV9Z3PL6ICAX","AG1SOUG1P7J76","3WRBLBQ2GRU63BU2LFOJL1G32T90GO","","45.400000005960464","img/food1.png","75","47.20000000298023","2","1","false","3","2","1,0.5,0,1,0.5,0,0.5,0,1","0.5,0,1,0.5,0,1,0,1,0.5","2",""
"","html-keyboard-response","135","224809","0.0-199.0","3WMINLGALCPR9WA92XUV9Z3PL6ICAX","AG1SOUG1P7J76","3WRBLBQ2GRU63BU2LFOJL1G32T90GO","","null","<img src=""img/food1.png"" style=""width:200px; border:14px solid green;"">","null","","","","","","","","","",""
"","image-keyboard-response","136","224973","0.0-201.0","3WMINLGALCPR9WA92XUV9Z3PL6ICAX","AG1SOUG1P7J76","3WRBLBQ2GRU63BU2LFOJL1G32T90GO","","158.59999999403954","img/food3.png","74","162","1","1","false","1","2","1,0.5,0,1,0.5,0,0.5,0,1","0.5,0,1,0.5,0,1,0,1,0.5","2",""
"","html-keyboard-response","137","225277","0.0-202.0","3WMINLGALCPR9WA92XUV9Z3PL6ICAX","AG1SOUG1P7J76","3WRBLBQ2GRU63BU2LFOJL1G32T90GO","","null","<img src=""img/food3.png"" style=""width:200px; border:14px solid green;"">","null","","","","","","","","","",""
"","image-keyboard-response","138","225285","0.0-204.0","3WMINLGALCPR9WA92XUV9Z3PL6ICAX","AG1SOUG1P7J76","3WRBLBQ2GRU63BU2LFOJL1G32T90GO","","4.4000000059604645","img/food2.png","74","6.5999999940395355","1","1","false","2","2","1,0.5,0,1,0.5,0,0.5,0,1","0.5,0,1,0.5,0,1,0,1,0.5","2",""
"","html-keyboard-response","139","225589","0.0-205.0","3WMINLGALCPR9WA92XUV9Z3PL6ICAX","AG1SOUG1P7J76","3WRBLBQ2GRU63BU2LFOJL1G32T90GO","","null","<img src=""img/food2.png"" style=""width:200px; border:14px solid green;"">","null","","","","","","","","","",""
"","image-keyboard-response","140","225682","0.0-207.0","3WMINLGALCPR9WA92XUV9Z3PL6ICAX","AG1SOUG1P7J76","3WRBLBQ2GRU63BU2LFOJL1G32T90GO","","89.80000001192093","img/food2.png","75","92.3999999910593","2","0","false","2","2","1,0.5,0,1,0.5,0,0.5,0,1","0.5,0,1,0.5,0,1,0,1,0.5","2",""
"","html-keyboard-response","141","225986","0.0-208.0","3WMINLGALCPR9WA92XUV9Z3PL6ICAX","AG1SOUG1P7J76","3WRBLBQ2GRU63BU2LFOJL1G32T90GO","","null","<img src=""img/food2.png"" style=""width:200px;border:14px solid red;"">","null","","","","","","","","","",""
"","image-keyboard-response","142","226104","0.0-210.0","3WMINLGALCPR9WA92XUV9Z3PL6ICAX","AG1SOUG1P7J76","3WRBLBQ2GRU63BU2LFOJL1G32T90GO","","115.40000000596046","img/food2.png","76","117.70000000298023","3","1","false","2","2","1,0.5,0,1,0.5,0,0.5,0,1","0.5,0,1,0.5,0,1,0,1,0.5","2",""
"","html-keyboard-response","143","226409","0.0-211.0","3WMINLGALCPR9WA92XUV9Z3PL6ICAX","AG1SOUG1P7J76","3WRBLBQ2GRU63BU2LFOJL1G32T90GO","","null","<img src=""img/food2.png"" style=""width:200px; border:14px solid green;"">","null","","","","","","","","","",""
"","image-keyboard-response","144","226730","0.0-213.0","3WMINLGALCPR9WA92XUV9Z3PL6ICAX","AG1SOUG1P7J76","3WRBLBQ2GRU63BU2LFOJL1G32T90GO","","317.40000000596046","img/food3.png","75","320.20000000298023","2","0","false","1","2","1,0.5,0,1,0.5,0,0.5,0,1","0.5,0,1,0.5,0,1,0,1,0.5","2",""
"","html-keyboard-response","145","227036","0.0-214.0","3WMINLGALCPR9WA92XUV9Z3PL6ICAX","AG1SOUG1P7J76","3WRBLBQ2GRU63BU2LFOJL1G32T90GO","","null","<img src=""img/food3.png"" style=""width:200px;border:14px solid red;"">","null","","","","","","","","","",""
"","image-keyboard-response","146","227164","0.0-216.0","3WMINLGALCPR9WA92XUV9Z3PL6ICAX","AG1SOUG1P7J76","3WRBLBQ2GRU63BU2LFOJL1G32T90GO","","124","img/food3.png","76","127.09999999403954","3","1","false","1","2","1,0.5,0,1,0.5,0,0.5,0,1","0.5,0,1,0.5,0,1,0,1,0.5","2",""
"","html-keyboard-response","147","227469","0.0-217.0","3WMINLGALCPR9WA92XUV9Z3PL6ICAX","AG1SOUG1P7J76","3WRBLBQ2GRU63BU2LFOJL1G32T90GO","","null","<img src=""img/food3.png"" style=""width:200px; border:14px solid green;"">","null","","","","","","","","","",""
"","image-keyboard-response","148","227555","0.0-219.0","3WMINLGALCPR9WA92XUV9Z3PL6ICAX","AG1SOUG1P7J76","3WRBLBQ2GRU63BU2LFOJL1G32T90GO","","82.20000000298023","img/food1.png","75","85.1000000089407","2","1","false","3","2","1,0.5,0,1,0.5,0,0.5,0,1","0.5,0,1,0.5,0,1,0,1,0.5","2",""
"","html-keyboard-response","149","227859","0.0-220.0","3WMINLGALCPR9WA92XUV9Z3PL6ICAX","AG1SOUG1P7J76","3WRBLBQ2GRU63BU2LFOJL1G32T90GO","","null","<img src=""img/food1.png"" style=""width:200px; border:14px solid green;"">","null","","","","","","","","","",""
"","image-keyboard-response","150","227879","0.0-222.0","3WMINLGALCPR9WA92XUV9Z3PL6ICAX","AG1SOUG1P7J76","3WRBLBQ2GRU63BU2LFOJL1G32T90GO","","17.80000001192093","img/food1.png","75","19.299999997019768","2","1","false","3","2","1,0.5,0,1,0.5,0,0.5,0,1","0.5,0,1,0.5,0,1,0,1,0.5","2",""
"","html-keyboard-response","151","228183","0.0-223.0","3WMINLGALCPR9WA92XUV9Z3PL6ICAX","AG1SOUG1P7J76","3WRBLBQ2GRU63BU2LFOJL1G32T90GO","","null","<img src=""img/food1.png"" style=""width:200px; border:14px solid green;"">","null","","","","","","","","","",""
"","image-keyboard-response","152","228231","0.0-225.0","3WMINLGALCPR9WA92XUV9Z3PL6ICAX","AG1SOUG1P7J76","3WRBLBQ2GRU63BU2LFOJL1G32T90GO","","44.599999994039536","img/food1.png","75","46.79999999701977","2","1","false","3","2","1,0.5,0,1,0.5,0,0.5,0,1","0.5,0,1,0.5,0,1,0,1,0.5","2",""
"","html-keyboard-response","153","228535","0.0-226.0","3WMINLGALCPR9WA92XUV9Z3PL6ICAX","AG1SOUG1P7J76","3WRBLBQ2GRU63BU2LFOJL1G32T90GO","","null","<img src=""img/food1.png"" style=""width:200px; border:14px solid green;"">","null","","","","","","","","","",""
"","image-keyboard-response","154","228546","0.0-228.0","3WMINLGALCPR9WA92XUV9Z3PL6ICAX","AG1SOUG1P7J76","3WRBLBQ2GRU63BU2LFOJL1G32T90GO","","8.299999997019768","img/food1.png","76","10.5","3","0","false","3","2","1,0.5,0,1,0.5,0,0.5,0,1","0.5,0,1,0.5,0,1,0,1,0.5","2",""
"","html-keyboard-response","155","228851","0.0-229.0","3WMINLGALCPR9WA92XUV9Z3PL6ICAX","AG1SOUG1P7J76","3WRBLBQ2GRU63BU2LFOJL1G32T90GO","","null","<img src=""img/food1.png"" style=""width:200px;border:14px solid red;"">","null","","","","","","","","","",""
"","image-keyboard-response","156","228975","0.0-231.0","3WMINLGALCPR9WA92XUV9Z3PL6ICAX","AG1SOUG1P7J76","3WRBLBQ2GRU63BU2LFOJL1G32T90GO","","120.5","img/food2.png","76","123.09999999403954","3","1","false","2","2","1,0.5,0,1,0.5,0,0.5,0,1","0.5,0,1,0.5,0,1,0,1,0.5","2",""
"","html-keyboard-response","157","229279","0.0-232.0","3WMINLGALCPR9WA92XUV9Z3PL6ICAX","AG1SOUG1P7J76","3WRBLBQ2GRU63BU2LFOJL1G32T90GO","","null","<img src=""img/food2.png"" style=""width:200px; border:14px solid green;"">","null","","","","","","","","","",""
"","image-keyboard-response","158","229365","0.0-234.0","3WMINLGALCPR9WA92XUV9Z3PL6ICAX","AG1SOUG1P7J76","3WRBLBQ2GRU63BU2LFOJL1G32T90GO","","82.20000000298023","img/food3.png","75","84.6000000089407","2","0","false","1","2","1,0.5,0,1,0.5,0,0.5,0,1","0.5,0,1,0.5,0,1,0,1,0.5","2",""
"","html-keyboard-response","159","229669","0.0-235.0","3WMINLGALCPR9WA92XUV9Z3PL6ICAX","AG1SOUG1P7J76","3WRBLBQ2GRU63BU2LFOJL1G32T90GO","","null","<img src=""img/food3.png"" style=""width:200px;border:14px solid red;"">","null","","","","","","","","","",""
"","image-keyboard-response","160","229759","0.0-237.0","3WMINLGALCPR9WA92XUV9Z3PL6ICAX","AG1SOUG1P7J76","3WRBLBQ2GRU63BU2LFOJL1G32T90GO","","86.90000000596046","img/food1.png","74","89.59999999403954","1","0","false","3","2","1,0.5,0,1,0.5,0,0.5,0,1","0.5,0,1,0.5,0,1,0,1,0.5","2",""
"","html-keyboard-response","161","230066","0.0-238.0","3WMINLGALCPR9WA92XUV9Z3PL6ICAX","AG1SOUG1P7J76","3WRBLBQ2GRU63BU2LFOJL1G32T90GO","","null","<img src=""img/food1.png"" style=""width:200px;border:14px solid red;"">","null","","","","","","","","","",""
"","image-keyboard-response","162","230110","0.0-240.0","3WMINLGALCPR9WA92XUV9Z3PL6ICAX","AG1SOUG1P7J76","3WRBLBQ2GRU63BU2LFOJL1G32T90GO","","41.29999999701977","img/food1.png","74","43.6000000089407","1","0","false","3","2","1,0.5,0,1,0.5,0,0.5,0,1","0.5,0,1,0.5,0,1,0,1,0.5","2",""
"","html-keyboard-response","163","230415","0.0-241.0","3WMINLGALCPR9WA92XUV9Z3PL6ICAX","AG1SOUG1P7J76","3WRBLBQ2GRU63BU2LFOJL1G32T90GO","","null","<img src=""img/food1.png"" style=""width:200px;border:14px solid red;"">","null","","","","","","","","","",""
"","image-keyboard-response","164","230464","0.0-243.0","3WMINLGALCPR9WA92XUV9Z3PL6ICAX","AG1SOUG1P7J76","3WRBLBQ2GRU63BU2LFOJL1G32T90GO","","45.70000000298023","img/food1.png","74","48.29999999701977","1","0","false","3","2","1,0.5,0,1,0.5,0,0.5,0,1","0.5,0,1,0.5,0,1,0,1,0.5","2",""
"","html-keyboard-response","165","230769","0.0-244.0","3WMINLGALCPR9WA92XUV9Z3PL6ICAX","AG1SOUG1P7J76","3WRBLBQ2GRU63BU2LFOJL1G32T90GO","","null","<img src=""img/food1.png"" style=""width:200px;border:14px solid red;"">","null","","","","","","","","","",""
"","image-keyboard-response","166","230815","0.0-246.0","3WMINLGALCPR9WA92XUV9Z3PL6ICAX","AG1SOUG1P7J76","3WRBLBQ2GRU63BU2LFOJL1G32T90GO","","42","img/food3.png","75","44.20000000298023","2","0","false","1","2","1,0.5,0,1,0.5,0,0.5,0,1","0.5,0,1,0.5,0,1,0,1,0.5","2",""
"","html-keyboard-response","167","231119","0.0-247.0","3WMINLGALCPR9WA92XUV9Z3PL6ICAX","AG1SOUG1P7J76","3WRBLBQ2GRU63BU2LFOJL1G32T90GO","","null","<img src=""img/food3.png"" style=""width:200px;border:14px solid red;"">","null","","","","","","","","","",""
"","image-keyboard-response","168","231206","0.0-249.0","3WMINLGALCPR9WA92XUV9Z3PL6ICAX","AG1SOUG1P7J76","3WRBLBQ2GRU63BU2LFOJL1G32T90GO","","83","img/food2.png","75","85.79999999701977","2","0","false","2","2","1,0.5,0,1,0.5,0,0.5,0,1","0.5,0,1,0.5,0,1,0,1,0.5","2",""
"","html-keyboard-response","169","231511","0.0-250.0","3WMINLGALCPR9WA92XUV9Z3PL6ICAX","AG1SOUG1P7J76","3WRBLBQ2GRU63BU2LFOJL1G32T90GO","","null","<img src=""img/food2.png"" style=""width:200px;border:14px solid red;"">","null","","","","","","","","","",""
"","image-keyboard-response","170","231557","0.0-252.0","3WMINLGALCPR9WA92XUV9Z3PL6ICAX","AG1SOUG1P7J76","3WRBLBQ2GRU63BU2LFOJL1G32T90GO","","42.80000001192093","img/food2.png","76","45.099999994039536","3","1","false","2","2","1,0.5,0,1,0.5,0,0.5,0,1","0.5,0,1,0.5,0,1,0,1,0.5","2",""
"","html-keyboard-response","171","231860","0.0-253.0","3WMINLGALCPR9WA92XUV9Z3PL6ICAX","AG1SOUG1P7J76","3WRBLBQ2GRU63BU2LFOJL1G32T90GO","","null","<img src=""img/food2.png"" style=""width:200px; border:14px solid green;"">","null","","","","","","","","","",""
"","image-keyboard-response","172","231908","0.0-255.0","3WMINLGALCPR9WA92XUV9Z3PL6ICAX","AG1SOUG1P7J76","3WRBLBQ2GRU63BU2LFOJL1G32T90GO","","44.900000005960464","img/food1.png","76","46.19999998807907","3","0","false","3","2","1,0.5,0,1,0.5,0,0.5,0,1","0.5,0,1,0.5,0,1,0,1,0.5","2",""
"","html-keyboard-response","173","232212","0.0-256.0","3WMINLGALCPR9WA92XUV9Z3PL6ICAX","AG1SOUG1P7J76","3WRBLBQ2GRU63BU2LFOJL1G32T90GO","","null","<img src=""img/food1.png"" style=""width:200px;border:14px solid red;"">","null","","","","","","","","","",""
"","image-keyboard-response","174","232262","0.0-258.0","3WMINLGALCPR9WA92XUV9Z3PL6ICAX","AG1SOUG1P7J76","3WRBLBQ2GRU63BU2LFOJL1G32T90GO","","45.400000005960464","img/food1.png","75","48.29999999701977","2","1","false","3","2","1,0.5,0,1,0.5,0,0.5,0,1","0.5,0,1,0.5,0,1,0,1,0.5","2",""
"","html-keyboard-response","175","232568","0.0-259.0","3WMINLGALCPR9WA92XUV9Z3PL6ICAX","AG1SOUG1P7J76","3WRBLBQ2GRU63BU2LFOJL1G32T90GO","","null","<img src=""img/food1.png"" style=""width:200px; border:14px solid green;"">","null","","","","","","","","","",""
"","image-keyboard-response","176","232691","0.0-261.0","3WMINLGALCPR9WA92XUV9Z3PL6ICAX","AG1SOUG1P7J76","3WRBLBQ2GRU63BU2LFOJL1G32T90GO","","118.70000000298023","img/food2.png","75","121.69999998807907","2","0","false","2","2","1,0.5,0,1,0.5,0,0.5,0,1","0.5,0,1,0.5,0,1,0,1,0.5","2",""
"","html-keyboard-response","177","232996","0.0-262.0","3WMINLGALCPR9WA92XUV9Z3PL6ICAX","AG1SOUG1P7J76","3WRBLBQ2GRU63BU2LFOJL1G32T90GO","","null","<img src=""img/food2.png"" style=""width:200px;border:14px solid red;"">","null","","","","","","","","","",""
"","image-keyboard-response","178","233081","0.0-264.0","3WMINLGALCPR9WA92XUV9Z3PL6ICAX","AG1SOUG1P7J76","3WRBLBQ2GRU63BU2LFOJL1G32T90GO","","81.6000000089407","img/food3.png","74","83.80000001192093","1","0","false","1","2","1,0.5,0,1,0.5,0,0.5,0,1","0.5,0,1,0.5,0,1,0,1,0.5","2",""
"","html-keyboard-response","179","233386","0.0-265.0","3WMINLGALCPR9WA92XUV9Z3PL6ICAX","AG1SOUG1P7J76","3WRBLBQ2GRU63BU2LFOJL1G32T90GO","","null","<img src=""img/food3.png"" style=""width:200px;border:14px solid red;"">","null","","","","","","","","","",""
"","image-keyboard-response","180","233464","0.0-267.0","3WMINLGALCPR9WA92XUV9Z3PL6ICAX","AG1SOUG1P7J76","3WRBLBQ2GRU63BU2LFOJL1G32T90GO","","73.8999999910593","img/food2.png","74","75.90000000596046","1","1","false","2","2","1,0.5,0,1,0.5,0,0.5,0,1","0.5,0,1,0.5,0,1,0,1,0.5","2",""
"","html-keyboard-response","181","233767","0.0-268.0","3WMINLGALCPR9WA92XUV9Z3PL6ICAX","AG1SOUG1P7J76","3WRBLBQ2GRU63BU2LFOJL1G32T90GO","","null","<img src=""img/food2.png"" style=""width:200px; border:14px solid green;"">","null","","","","","","","","","",""
"","image-keyboard-response","182","233969","0.0-270.0","3WMINLGALCPR9WA92XUV9Z3PL6ICAX","AG1SOUG1P7J76","3WRBLBQ2GRU63BU2LFOJL1G32T90GO","","197.29999999701977","img/food2.png","76","199.79999999701977","3","1","false","2","2","1,0.5,0,1,0.5,0,0.5,0,1","0.5,0,1,0.5,0,1,0,1,0.5","2",""
"","html-keyboard-response","183","234273","0.0-271.0","3WMINLGALCPR9WA92XUV9Z3PL6ICAX","AG1SOUG1P7J76","3WRBLBQ2GRU63BU2LFOJL1G32T90GO","","null","<img src=""img/food2.png"" style=""width:200px; border:14px solid green;"">","null","","","","","","","","","",""
"","instructions","184","245211","0.0-273.0","3WMINLGALCPR9WA92XUV9Z3PL6ICAX","AG1SOUG1P7J76","3WRBLBQ2GRU63BU2LFOJL1G32T90GO","[{""page_index"":0,""viewing_time"":9088.10000000894},{""page_index"":1,""viewing_time"":1848.2000000029802}]","10936.800000011921","","","","","","","","","","","",""
"","image-keyboard-response","185","245795","0.0-274.0","3WMINLGALCPR9WA92XUV9Z3PL6ICAX","AG1SOUG1P7J76","3WRBLBQ2GRU63BU2LFOJL1G32T90GO","","581.4000000059605","img/food4.png","75","584.3000000119209","2","1","","2","1","1,0.5,0,1,0.5,0,0.5,0,1","0,1,0.5,0,1,0.5,1,0.5,0","3",""
"","html-keyboard-response","186","246102","0.0-275.0","3WMINLGALCPR9WA92XUV9Z3PL6ICAX","AG1SOUG1P7J76","3WRBLBQ2GRU63BU2LFOJL1G32T90GO","","null","<img src=""img/food4.png"" style=""width:200px; border:14px solid green;"">","null","","","","","","","","","",""
"","image-keyboard-response","187","246606","0.0-276.0","3WMINLGALCPR9WA92XUV9Z3PL6ICAX","AG1SOUG1P7J76","3WRBLBQ2GRU63BU2LFOJL1G32T90GO","","501.79999999701977","img/food5.png","76","504.5","3","0","","3","1","1,0.5,0,1,0.5,0,0.5,0,1","0,1,0.5,0,1,0.5,1,0.5,0","3",""
"","html-keyboard-response","188","246911","0.0-277.0","3WMINLGALCPR9WA92XUV9Z3PL6ICAX","AG1SOUG1P7J76","3WRBLBQ2GRU63BU2LFOJL1G32T90GO","","null","<img src=""img/food5.png"" style=""width:200px;border:14px solid red;"">","null","","","","","","","","","",""
"","image-keyboard-response","189","247149","0.0-278.0","3WMINLGALCPR9WA92XUV9Z3PL6ICAX","AG1SOUG1P7J76","3WRBLBQ2GRU63BU2LFOJL1G32T90GO","","234","img/food6.png","75","236.59999999403954","2","1","","1","1","1,0.5,0,1,0.5,0,0.5,0,1","0,1,0.5,0,1,0.5,1,0.5,0","3",""
"","html-keyboard-response","190","247454","0.0-279.0","3WMINLGALCPR9WA92XUV9Z3PL6ICAX","AG1SOUG1P7J76","3WRBLBQ2GRU63BU2LFOJL1G32T90GO","","null","<img src=""img/food6.png"" style=""width:200px; border:14px solid green;"">","null","","","","","","","","","",""
"","image-keyboard-response","191","247729","0.0-280.0","3WMINLGALCPR9WA92XUV9Z3PL6ICAX","AG1SOUG1P7J76","3WRBLBQ2GRU63BU2LFOJL1G32T90GO","","272.3999999910593","img/food5.png","74","274.90000000596046","1","1","","3","1","1,0.5,0,1,0.5,0,0.5,0,1","0,1,0.5,0,1,0.5,1,0.5,0","3",""
"","html-keyboard-response","192","248033","0.0-281.0","3WMINLGALCPR9WA92XUV9Z3PL6ICAX","AG1SOUG1P7J76","3WRBLBQ2GRU63BU2LFOJL1G32T90GO","","null","<img src=""img/food5.png"" style=""width:200px; border:14px solid green;"">","null","","","","","","","","","",""
"","image-keyboard-response","193","248232","0.0-282.0","3WMINLGALCPR9WA92XUV9Z3PL6ICAX","AG1SOUG1P7J76","3WRBLBQ2GRU63BU2LFOJL1G32T90GO","","196.40000000596046","img/food6.png","75","198.8999999910593","2","1","","1","1","1,0.5,0,1,0.5,0,0.5,0,1","0,1,0.5,0,1,0.5,1,0.5,0","3",""
"","html-keyboard-response","194","248538","0.0-283.0","3WMINLGALCPR9WA92XUV9Z3PL6ICAX","AG1SOUG1P7J76","3WRBLBQ2GRU63BU2LFOJL1G32T90GO","","null","<img src=""img/food6.png"" style=""width:200px; border:14px solid green;"">","null","","","","","","","","","",""
"","image-keyboard-response","195","248712","0.0-284.0","3WMINLGALCPR9WA92XUV9Z3PL6ICAX","AG1SOUG1P7J76","3WRBLBQ2GRU63BU2LFOJL1G32T90GO","","170.90000000596046","img/food5.png","76","173.5","3","0","","3","1","1,0.5,0,1,0.5,0,0.5,0,1","0,1,0.5,0,1,0.5,1,0.5,0","3",""
"","html-keyboard-response","196","249017","0.0-285.0","3WMINLGALCPR9WA92XUV9Z3PL6ICAX","AG1SOUG1P7J76","3WRBLBQ2GRU63BU2LFOJL1G32T90GO","","null","<img src=""img/food5.png"" style=""width:200px;border:14px solid red;"">","null","","","","","","","","","",""
"","image-keyboard-response","197","249153","0.0-286.0","3WMINLGALCPR9WA92XUV9Z3PL6ICAX","AG1SOUG1P7J76","3WRBLBQ2GRU63BU2LFOJL1G32T90GO","","133.1000000089407","img/food4.png","75","135.69999998807907","2","1","","2","1","1,0.5,0,1,0.5,0,0.5,0,1","0,1,0.5,0,1,0.5,1,0.5,0","3",""
"","html-keyboard-response","198","249460","0.0-287.0","3WMINLGALCPR9WA92XUV9Z3PL6ICAX","AG1SOUG1P7J76","3WRBLBQ2GRU63BU2LFOJL1G32T90GO","","null","<img src=""img/food4.png"" style=""width:200px; border:14px solid green;"">","null","","","","","","","","","",""
"","image-keyboard-response","199","249618","0.0-288.0","3WMINLGALCPR9WA92XUV9Z3PL6ICAX","AG1SOUG1P7J76","3WRBLBQ2GRU63BU2LFOJL1G32T90GO","","153.59999999403954","img/food6.png","74","156.79999999701977","1","0","","1","1","1,0.5,0,1,0.5,0,0.5,0,1","0,1,0.5,0,1,0.5,1,0.5,0","3",""
"","html-keyboard-response","200","249922","0.0-289.0","3WMINLGALCPR9WA92XUV9Z3PL6ICAX","AG1SOUG1P7J76","3WRBLBQ2GRU63BU2LFOJL1G32T90GO","","null","<img src=""img/food6.png"" style=""width:200px;border:14px solid red;"">","null","","","","","","","","","",""
"","image-keyboard-response","201","250083","0.0-290.0","3WMINLGALCPR9WA92XUV9Z3PL6ICAX","AG1SOUG1P7J76","3WRBLBQ2GRU63BU2LFOJL1G32T90GO","","158","img/food6.png","75","160.6000000089407","2","1","","1","1","1,0.5,0,1,0.5,0,0.5,0,1","0,1,0.5,0,1,0.5,1,0.5,0","3",""
"","html-keyboard-response","202","250386","0.0-291.0","3WMINLGALCPR9WA92XUV9Z3PL6ICAX","AG1SOUG1P7J76","3WRBLBQ2GRU63BU2LFOJL1G32T90GO","","null","<img src=""img/food6.png"" style=""width:200px; border:14px solid green;"">","null","","","","","","","","","",""
"","image-keyboard-response","203","250509","0.0-292.0","3WMINLGALCPR9WA92XUV9Z3PL6ICAX","AG1SOUG1P7J76","3WRBLBQ2GRU63BU2LFOJL1G32T90GO","","119.19999998807907","img/food4.png","75","121.90000000596046","2","1","","2","1","1,0.5,0,1,0.5,0,0.5,0,1","0,1,0.5,0,1,0.5,1,0.5,0","3",""
"","html-keyboard-response","204","250813","0.0-293.0","3WMINLGALCPR9WA92XUV9Z3PL6ICAX","AG1SOUG1P7J76","3WRBLBQ2GRU63BU2LFOJL1G32T90GO","","null","<img src=""img/food4.png"" style=""width:200px; border:14px solid green;"">","null","","","","","","","","","",""
"","image-keyboard-response","205","250973","0.0-294.0","3WMINLGALCPR9WA92XUV9Z3PL6ICAX","AG1SOUG1P7J76","3WRBLBQ2GRU63BU2LFOJL1G32T90GO","","157.5","img/food6.png","76","159.90000000596046","3","0","","1","1","1,0.5,0,1,0.5,0,0.5,0,1","0,1,0.5,0,1,0.5,1,0.5,0","3",""
"","html-keyboard-response","206","251279","0.0-295.0","3WMINLGALCPR9WA92XUV9Z3PL6ICAX","AG1SOUG1P7J76","3WRBLBQ2GRU63BU2LFOJL1G32T90GO","","null","<img src=""img/food6.png"" style=""width:200px;border:14px solid red;"">","null","","","","","","","","","",""
"","image-keyboard-response","207","251415","0.0-296.0","3WMINLGALCPR9WA92XUV9Z3PL6ICAX","AG1SOUG1P7J76","3WRBLBQ2GRU63BU2LFOJL1G32T90GO","","132.90000000596046","img/food4.png","75","135.5","2","1","","2","1","1,0.5,0,1,0.5,0,0.5,0,1","0,1,0.5,0,1,0.5,1,0.5,0","3",""
"","html-keyboard-response","208","251720","0.0-297.0","3WMINLGALCPR9WA92XUV9Z3PL6ICAX","AG1SOUG1P7J76","3WRBLBQ2GRU63BU2LFOJL1G32T90GO","","null","<img src=""img/food4.png"" style=""width:200px; border:14px solid green;"">","null","","","","","","","","","",""
"","image-keyboard-response","209","251841","0.0-298.0","3WMINLGALCPR9WA92XUV9Z3PL6ICAX","AG1SOUG1P7J76","3WRBLBQ2GRU63BU2LFOJL1G32T90GO","","118.1000000089407","img/food5.png","74","120.5","1","1","","3","1","1,0.5,0,1,0.5,0,0.5,0,1","0,1,0.5,0,1,0.5,1,0.5,0","3",""
"","html-keyboard-response","210","252146","0.0-299.0","3WMINLGALCPR9WA92XUV9Z3PL6ICAX","AG1SOUG1P7J76","3WRBLBQ2GRU63BU2LFOJL1G32T90GO","","null","<img src=""img/food5.png"" style=""width:200px; border:14px solid green;"">","null","","","","","","","","","",""
"","image-keyboard-response","211","252239","0.0-300.0","3WMINLGALCPR9WA92XUV9Z3PL6ICAX","AG1SOUG1P7J76","3WRBLBQ2GRU63BU2LFOJL1G32T90GO","","90.59999999403954","img/food6.png","74","93.1000000089407","1","0","","1","1","1,0.5,0,1,0.5,0,0.5,0,1","0,1,0.5,0,1,0.5,1,0.5,0","3",""
"","html-keyboard-response","212","252545","0.0-301.0","3WMINLGALCPR9WA92XUV9Z3PL6ICAX","AG1SOUG1P7J76","3WRBLBQ2GRU63BU2LFOJL1G32T90GO","","null","<img src=""img/food6.png"" style=""width:200px;border:14px solid red;"">","null","","","","","","","","","",""
"","image-keyboard-response","213","252627","0.0-302.0","3WMINLGALCPR9WA92XUV9Z3PL6ICAX","AG1SOUG1P7J76","3WRBLBQ2GRU63BU2LFOJL1G32T90GO","","79.20000000298023","img/food6.png","75","81.90000000596046","2","1","","1","1","1,0.5,0,1,0.5,0,0.5,0,1","0,1,0.5,0,1,0.5,1,0.5,0","3",""
"","html-keyboard-response","214","252932","0.0-303.0","3WMINLGALCPR9WA92XUV9Z3PL6ICAX","AG1SOUG1P7J76","3WRBLBQ2GRU63BU2LFOJL1G32T90GO","","null","<img src=""img/food6.png"" style=""width:200px; border:14px solid green;"">","null","","","","","","","","","",""
"","image-keyboard-response","215","253069","0.0-304.0","3WMINLGALCPR9WA92XUV9Z3PL6ICAX","AG1SOUG1P7J76","3WRBLBQ2GRU63BU2LFOJL1G32T90GO","","133.70000000298023","img/food5.png","76","136.40000000596046","3","0","","3","1","1,0.5,0,1,0.5,0,0.5,0,1","0,1,0.5,0,1,0.5,1,0.5,0","3",""
"","html-keyboard-response","216","253375","0.0-305.0","3WMINLGALCPR9WA92XUV9Z3PL6ICAX","AG1SOUG1P7J76","3WRBLBQ2GRU63BU2LFOJL1G32T90GO","","null","<img src=""img/food5.png"" style=""width:200px;border:14px solid red;"">","null","","","","","","","","","",""
"","image-keyboard-response","217","253495","0.0-306.0","3WMINLGALCPR9WA92XUV9Z3PL6ICAX","AG1SOUG1P7J76","3WRBLBQ2GRU63BU2LFOJL1G32T90GO","","117.20000000298023","img/food4.png","75","119.80000001192093","2","1","","2","1","1,0.5,0,1,0.5,0,0.5,0,1","0,1,0.5,0,1,0.5,1,0.5,0","3",""
"","html-keyboard-response","218","253799","0.0-307.0","3WMINLGALCPR9WA92XUV9Z3PL6ICAX","AG1SOUG1P7J76","3WRBLBQ2GRU63BU2LFOJL1G32T90GO","","null","<img src=""img/food4.png"" style=""width:200px; border:14px solid green;"">","null","","","","","","","","","",""
"","image-keyboard-response","219","253842","0.0-308.0","3WMINLGALCPR9WA92XUV9Z3PL6ICAX","AG1SOUG1P7J76","3WRBLBQ2GRU63BU2LFOJL1G32T90GO","","40.6000000089407","img/food6.png","75","42.5","2","1","","1","1","1,0.5,0,1,0.5,0,0.5,0,1","0,1,0.5,0,1,0.5,1,0.5,0","3",""
"","html-keyboard-response","220","254145","0.0-309.0","3WMINLGALCPR9WA92XUV9Z3PL6ICAX","AG1SOUG1P7J76","3WRBLBQ2GRU63BU2LFOJL1G32T90GO","","null","<img src=""img/food6.png"" style=""width:200px; border:14px solid green;"">","null","","","","","","","","","",""
"","image-keyboard-response","221","254271","0.0-310.0","3WMINLGALCPR9WA92XUV9Z3PL6ICAX","AG1SOUG1P7J76","3WRBLBQ2GRU63BU2LFOJL1G32T90GO","","122","img/food4.png","76","125","3","0","","2","1","1,0.5,0,1,0.5,0,0.5,0,1","0,1,0.5,0,1,0.5,1,0.5,0","3",""
"","html-keyboard-response","222","254576","0.0-311.0","3WMINLGALCPR9WA92XUV9Z3PL6ICAX","AG1SOUG1P7J76","3WRBLBQ2GRU63BU2LFOJL1G32T90GO","","null","<img src=""img/food4.png"" style=""width:200px;border:14px solid red;"">","null","","","","","","","","","",""
"","image-keyboard-response","223","254658","0.0-312.0","3WMINLGALCPR9WA92XUV9Z3PL6ICAX","AG1SOUG1P7J76","3WRBLBQ2GRU63BU2LFOJL1G32T90GO","","79","img/food5.png","75","81.5","2","1","","3","1","1,0.5,0,1,0.5,0,0.5,0,1","0,1,0.5,0,1,0.5,1,0.5,0","3",""
"","html-keyboard-response","224","254963","0.0-313.0","3WMINLGALCPR9WA92XUV9Z3PL6ICAX","AG1SOUG1P7J76","3WRBLBQ2GRU63BU2LFOJL1G32T90GO","","null","<img src=""img/food5.png"" style=""width:200px; border:14px solid green;"">","null","","","","","","","","","",""
"","image-keyboard-response","225","255046","0.0-314.0","3WMINLGALCPR9WA92XUV9Z3PL6ICAX","AG1SOUG1P7J76","3WRBLBQ2GRU63BU2LFOJL1G32T90GO","","79","img/food5.png","75","81.69999998807907","2","1","","3","1","1,0.5,0,1,0.5,0,0.5,0,1","0,1,0.5,0,1,0.5,1,0.5,0","3",""
"","html-keyboard-response","226","255350","0.0-315.0","3WMINLGALCPR9WA92XUV9Z3PL6ICAX","AG1SOUG1P7J76","3WRBLBQ2GRU63BU2LFOJL1G32T90GO","","null","<img src=""img/food5.png"" style=""width:200px; border:14px solid green;"">","null","","","","","","","","","",""
"","image-keyboard-response","227","255433","0.0-316.0","3WMINLGALCPR9WA92XUV9Z3PL6ICAX","AG1SOUG1P7J76","3WRBLBQ2GRU63BU2LFOJL1G32T90GO","","80.1000000089407","img/food5.png","74","82.59999999403954","1","1","","3","1","1,0.5,0,1,0.5,0,0.5,0,1","0,1,0.5,0,1,0.5,1,0.5,0","3",""
"","html-keyboard-response","228","255737","0.0-317.0","3WMINLGALCPR9WA92XUV9Z3PL6ICAX","AG1SOUG1P7J76","3WRBLBQ2GRU63BU2LFOJL1G32T90GO","","null","<img src=""img/food5.png"" style=""width:200px; border:14px solid green;"">","null","","","","","","","","","",""
"","image-keyboard-response","229","255860","0.0-318.0","3WMINLGALCPR9WA92XUV9Z3PL6ICAX","AG1SOUG1P7J76","3WRBLBQ2GRU63BU2LFOJL1G32T90GO","","118.3999999910593","img/food4.png","74","121.29999999701977","1","0","","2","1","1,0.5,0,1,0.5,0,0.5,0,1","0,1,0.5,0,1,0.5,1,0.5,0","3",""
"","html-keyboard-response","230","256164","0.0-319.0","3WMINLGALCPR9WA92XUV9Z3PL6ICAX","AG1SOUG1P7J76","3WRBLBQ2GRU63BU2LFOJL1G32T90GO","","null","<img src=""img/food4.png"" style=""width:200px;border:14px solid red;"">","null","","","","","","","","","",""
"","image-keyboard-response","231","256208","0.0-320.0","3WMINLGALCPR9WA92XUV9Z3PL6ICAX","AG1SOUG1P7J76","3WRBLBQ2GRU63BU2LFOJL1G32T90GO","","40.8999999910593","img/food6.png","75","43.29999999701977","2","1","","1","1","1,0.5,0,1,0.5,0,0.5,0,1","0,1,0.5,0,1,0.5,1,0.5,0","3",""
"","html-keyboard-response","232","256513","0.0-321.0","3WMINLGALCPR9WA92XUV9Z3PL6ICAX","AG1SOUG1P7J76","3WRBLBQ2GRU63BU2LFOJL1G32T90GO","","null","<img src=""img/food6.png"" style=""width:200px; border:14px solid green;"">","null","","","","","","","","","",""
"","image-keyboard-response","233","256597","0.0-322.0","3WMINLGALCPR9WA92XUV9Z3PL6ICAX","AG1SOUG1P7J76","3WRBLBQ2GRU63BU2LFOJL1G32T90GO","","81","img/food5.png","76","83.5","3","0","","3","1","1,0.5,0,1,0.5,0,0.5,0,1","0,1,0.5,0,1,0.5,1,0.5,0","3",""
"","html-keyboard-response","234","256902","0.0-323.0","3WMINLGALCPR9WA92XUV9Z3PL6ICAX","AG1SOUG1P7J76","3WRBLBQ2GRU63BU2LFOJL1G32T90GO","","null","<img src=""img/food5.png"" style=""width:200px;border:14px solid red;"">","null","","","","","","","","","",""
"","image-keyboard-response","235","257023","0.0-324.0","3WMINLGALCPR9WA92XUV9Z3PL6ICAX","AG1SOUG1P7J76","3WRBLBQ2GRU63BU2LFOJL1G32T90GO","","117.70000000298023","img/food6.png","75","120.19999998807907","2","1","","1","1","1,0.5,0,1,0.5,0,0.5,0,1","0,1,0.5,0,1,0.5,1,0.5,0","3",""
"","html-keyboard-response","236","257328","0.0-325.0","3WMINLGALCPR9WA92XUV9Z3PL6ICAX","AG1SOUG1P7J76","3WRBLBQ2GRU63BU2LFOJL1G32T90GO","","null","<img src=""img/food6.png"" style=""width:200px; border:14px solid green;"">","null","","","","","","","","","",""
"","image-keyboard-response","237","257450","0.0-326.0","3WMINLGALCPR9WA92XUV9Z3PL6ICAX","AG1SOUG1P7J76","3WRBLBQ2GRU63BU2LFOJL1G32T90GO","","118","img/food5.png","74","120.8999999910593","1","1","","3","1","1,0.5,0,1,0.5,0,0.5,0,1","0,1,0.5,0,1,0.5,1,0.5,0","3",""
"","html-keyboard-response","238","257755","0.0-327.0","3WMINLGALCPR9WA92XUV9Z3PL6ICAX","AG1SOUG1P7J76","3WRBLBQ2GRU63BU2LFOJL1G32T90GO","","null","<img src=""img/food5.png"" style=""width:200px; border:14px solid green;"">","null","","","","","","","","","",""
"","image-keyboard-response","239","257847","0.0-328.0","3WMINLGALCPR9WA92XUV9Z3PL6ICAX","AG1SOUG1P7J76","3WRBLBQ2GRU63BU2LFOJL1G32T90GO","","88.5","img/food5.png","75","91.20000000298023","2","0","","3","1","1,0.5,0,1,0.5,0,0.5,0,1","0,1,0.5,0,1,0.5,1,0.5,0","3",""
"","html-keyboard-response","240","258152","0.0-329.0","3WMINLGALCPR9WA92XUV9Z3PL6ICAX","AG1SOUG1P7J76","3WRBLBQ2GRU63BU2LFOJL1G32T90GO","","null","<img src=""img/food5.png"" style=""width:200px;border:14px solid red;"">","null","","","","","","","","","",""
"","image-keyboard-response","241","258197","0.0-330.0","3WMINLGALCPR9WA92XUV9Z3PL6ICAX","AG1SOUG1P7J76","3WRBLBQ2GRU63BU2LFOJL1G32T90GO","","42.20000000298023","img/food5.png","75","44.400000005960464","2","1","","3","1","1,0.5,0,1,0.5,0,0.5,0,1","0,1,0.5,0,1,0.5,1,0.5,0","3",""
"","html-keyboard-response","242","258502","0.0-331.0","3WMINLGALCPR9WA92XUV9Z3PL6ICAX","AG1SOUG1P7J76","3WRBLBQ2GRU63BU2LFOJL1G32T90GO","","null","<img src=""img/food5.png"" style=""width:200px; border:14px solid green;"">","null","","","","","","","","","",""
"","image-keyboard-response","243","258547","0.0-332.0","3WMINLGALCPR9WA92XUV9Z3PL6ICAX","AG1SOUG1P7J76","3WRBLBQ2GRU63BU2LFOJL1G32T90GO","","41.599999994039536","img/food6.png","75","44.70000000298023","2","1","","1","1","1,0.5,0,1,0.5,0,0.5,0,1","0,1,0.5,0,1,0.5,1,0.5,0","3",""
"","html-keyboard-response","244","258850","0.0-333.0","3WMINLGALCPR9WA92XUV9Z3PL6ICAX","AG1SOUG1P7J76","3WRBLBQ2GRU63BU2LFOJL1G32T90GO","","null","<img src=""img/food6.png"" style=""width:200px; border:14px solid green;"">","null","","","","","","","","","",""
"","image-keyboard-response","245","258934","0.0-334.0","3WMINLGALCPR9WA92XUV9Z3PL6ICAX","AG1SOUG1P7J76","3WRBLBQ2GRU63BU2LFOJL1G32T90GO","","80.1000000089407","img/food6.png","76","82.5","3","0","","1","1","1,0.5,0,1,0.5,0,0.5,0,1","0,1,0.5,0,1,0.5,1,0.5,0","3",""
"","html-keyboard-response","246","259237","0.0-335.0","3WMINLGALCPR9WA92XUV9Z3PL6ICAX","AG1SOUG1P7J76","3WRBLBQ2GRU63BU2LFOJL1G32T90GO","","null","<img src=""img/food6.png"" style=""width:200px;border:14px solid red;"">","null","","","","","","","","","",""
"","image-keyboard-response","247","259245","0.0-336.0","3WMINLGALCPR9WA92XUV9Z3PL6ICAX","AG1SOUG1P7J76","3WRBLBQ2GRU63BU2LFOJL1G32T90GO","","4.600000008940697","img/food6.png","75","6.700000002980232","2","1","","1","1","1,0.5,0,1,0.5,0,0.5,0,1","0,1,0.5,0,1,0.5,1,0.5,0","3",""
"","html-keyboard-response","248","259551","0.0-337.0","3WMINLGALCPR9WA92XUV9Z3PL6ICAX","AG1SOUG1P7J76","3WRBLBQ2GRU63BU2LFOJL1G32T90GO","","null","<img src=""img/food6.png"" style=""width:200px; border:14px solid green;"">","null","","","","","","","","","",""
"","image-keyboard-response","249","259632","0.0-338.0","3WMINLGALCPR9WA92XUV9Z3PL6ICAX","AG1SOUG1P7J76","3WRBLBQ2GRU63BU2LFOJL1G32T90GO","","78.3999999910593","img/food5.png","75","80.79999999701977","2","1","","3","1","1,0.5,0,1,0.5,0,0.5,0,1","0,1,0.5,0,1,0.5,1,0.5,0","3",""
"","html-keyboard-response","250","259936","0.0-339.0","3WMINLGALCPR9WA92XUV9Z3PL6ICAX","AG1SOUG1P7J76","3WRBLBQ2GRU63BU2LFOJL1G32T90GO","","null","<img src=""img/food5.png"" style=""width:200px; border:14px solid green;"">","null","","","","","","","","","",""
"","image-keyboard-response","251","260020","0.0-340.0","3WMINLGALCPR9WA92XUV9Z3PL6ICAX","AG1SOUG1P7J76","3WRBLBQ2GRU63BU2LFOJL1G32T90GO","","80.90000000596046","img/food6.png","74","83.70000000298023","1","0","","1","1","1,0.5,0,1,0.5,0,0.5,0,1","0,1,0.5,0,1,0.5,1,0.5,0","3",""
"","html-keyboard-response","252","260324","0.0-341.0","3WMINLGALCPR9WA92XUV9Z3PL6ICAX","AG1SOUG1P7J76","3WRBLBQ2GRU63BU2LFOJL1G32T90GO","","null","<img src=""img/food6.png"" style=""width:200px;border:14px solid red;"">","null","","","","","","","","","",""
"","image-keyboard-response","253","260409","0.0-342.0","3WMINLGALCPR9WA92XUV9Z3PL6ICAX","AG1SOUG1P7J76","3WRBLBQ2GRU63BU2LFOJL1G32T90GO","","80.79999999701977","img/food4.png","74","83.70000000298023","1","0","","2","1","1,0.5,0,1,0.5,0,0.5,0,1","0,1,0.5,0,1,0.5,1,0.5,0","3",""
"","html-keyboard-response","254","260715","0.0-343.0","3WMINLGALCPR9WA92XUV9Z3PL6ICAX","AG1SOUG1P7J76","3WRBLBQ2GRU63BU2LFOJL1G32T90GO","","null","<img src=""img/food4.png"" style=""width:200px;border:14px solid red;"">","null","","","","","","","","","",""
"","image-keyboard-response","255","260834","0.0-344.0","3WMINLGALCPR9WA92XUV9Z3PL6ICAX","AG1SOUG1P7J76","3WRBLBQ2GRU63BU2LFOJL1G32T90GO","","115.3999999910593","img/food5.png","74","117.79999999701977","1","1","","3","1","1,0.5,0,1,0.5,0,0.5,0,1","0,1,0.5,0,1,0.5,1,0.5,0","3",""
"","html-keyboard-response","256","261138","0.0-345.0","3WMINLGALCPR9WA92XUV9Z3PL6ICAX","AG1SOUG1P7J76","3WRBLBQ2GRU63BU2LFOJL1G32T90GO","","null","<img src=""img/food5.png"" style=""width:200px; border:14px solid green;"">","null","","","","","","","","","",""
"","image-keyboard-response","257","261183","0.0-346.0","3WMINLGALCPR9WA92XUV9Z3PL6ICAX","AG1SOUG1P7J76","3WRBLBQ2GRU63BU2LFOJL1G32T90GO","","41.6000000089407","img/food4.png","74","44.599999994039536","1","0","","2","1","1,0.5,0,1,0.5,0,0.5,0,1","0,1,0.5,0,1,0.5,1,0.5,0","3",""
"","html-keyboard-response","258","261488","0.0-347.0","3WMINLGALCPR9WA92XUV9Z3PL6ICAX","AG1SOUG1P7J76","3WRBLBQ2GRU63BU2LFOJL1G32T90GO","","null","<img src=""img/food4.png"" style=""width:200px;border:14px solid red;"">","null","","","","","","","","","",""
"","image-keyboard-response","259","261572","0.0-348.0","3WMINLGALCPR9WA92XUV9Z3PL6ICAX","AG1SOUG1P7J76","3WRBLBQ2GRU63BU2LFOJL1G32T90GO","","80.70000000298023","img/food6.png","75","83.40000000596046","2","1","","1","1","1,0.5,0,1,0.5,0,0.5,0,1","0,1,0.5,0,1,0.5,1,0.5,0","3",""
"","html-keyboard-response","260","261878","0.0-349.0","3WMINLGALCPR9WA92XUV9Z3PL6ICAX","AG1SOUG1P7J76","3WRBLBQ2GRU63BU2LFOJL1G32T90GO","","null","<img src=""img/food6.png"" style=""width:200px; border:14px solid green;"">","null","","","","","","","","","",""
"","image-keyboard-response","261","261997","0.0-350.0","3WMINLGALCPR9WA92XUV9Z3PL6ICAX","AG1SOUG1P7J76","3WRBLBQ2GRU63BU2LFOJL1G32T90GO","","115.90000000596046","img/food6.png","75","118.70000000298023","2","1","","1","1","1,0.5,0,1,0.5,0,0.5,0,1","0,1,0.5,0,1,0.5,1,0.5,0","3",""
"","html-keyboard-response","262","262301","0.0-351.0","3WMINLGALCPR9WA92XUV9Z3PL6ICAX","AG1SOUG1P7J76","3WRBLBQ2GRU63BU2LFOJL1G32T90GO","","null","<img src=""img/food6.png"" style=""width:200px; border:14px solid green;"">","null","","","","","","","","","",""
"","image-keyboard-response","263","262423","0.0-352.0","3WMINLGALCPR9WA92XUV9Z3PL6ICAX","AG1SOUG1P7J76","3WRBLBQ2GRU63BU2LFOJL1G32T90GO","","119.29999999701977","img/food6.png","74","121.70000000298023","1","0","","1","1","1,0.5,0,1,0.5,0,0.5,0,1","0,1,0.5,0,1,0.5,1,0.5,0","3",""
"","html-keyboard-response","264","262729","0.0-353.0","3WMINLGALCPR9WA92XUV9Z3PL6ICAX","AG1SOUG1P7J76","3WRBLBQ2GRU63BU2LFOJL1G32T90GO","","null","<img src=""img/food6.png"" style=""width:200px;border:14px solid red;"">","null","","","","","","","","","",""
"","image-keyboard-response","265","262811","0.0-354.0","3WMINLGALCPR9WA92XUV9Z3PL6ICAX","AG1SOUG1P7J76","3WRBLBQ2GRU63BU2LFOJL1G32T90GO","","78.5","img/food5.png","76","81.20000000298023","3","0","","3","1","1,0.5,0,1,0.5,0,0.5,0,1","0,1,0.5,0,1,0.5,1,0.5,0","3",""
"","html-keyboard-response","266","263117","0.0-355.0","3WMINLGALCPR9WA92XUV9Z3PL6ICAX","AG1SOUG1P7J76","3WRBLBQ2GRU63BU2LFOJL1G32T90GO","","null","<img src=""img/food5.png"" style=""width:200px;border:14px solid red;"">","null","","","","","","","","","",""
"","image-keyboard-response","267","263175","0.0-356.0","3WMINLGALCPR9WA92XUV9Z3PL6ICAX","AG1SOUG1P7J76","3WRBLBQ2GRU63BU2LFOJL1G32T90GO","","55","img/food4.png","76","57.6000000089407","3","0","","2","1","1,0.5,0,1,0.5,0,0.5,0,1","0,1,0.5,0,1,0.5,1,0.5,0","3",""
"","html-keyboard-response","268","263481","0.0-357.0","3WMINLGALCPR9WA92XUV9Z3PL6ICAX","AG1SOUG1P7J76","3WRBLBQ2GRU63BU2LFOJL1G32T90GO","","null","<img src=""img/food4.png"" style=""width:200px;border:14px solid red;"">","null","","","","","","","","","",""
"","image-keyboard-response","269","263523","0.0-358.0","3WMINLGALCPR9WA92XUV9Z3PL6ICAX","AG1SOUG1P7J76","3WRBLBQ2GRU63BU2LFOJL1G32T90GO","","39.70000000298023","img/food6.png","75","41.70000000298023","2","1","","1","1","1,0.5,0,1,0.5,0,0.5,0,1","0,1,0.5,0,1,0.5,1,0.5,0","3",""
"","html-keyboard-response","270","263827","0.0-359.0","3WMINLGALCPR9WA92XUV9Z3PL6ICAX","AG1SOUG1P7J76","3WRBLBQ2GRU63BU2LFOJL1G32T90GO","","null","<img src=""img/food6.png"" style=""width:200px; border:14px solid green;"">","null","","","","","","","","","",""
"","image-keyboard-response","271","263914","0.0-360.0","3WMINLGALCPR9WA92XUV9Z3PL6ICAX","AG1SOUG1P7J76","3WRBLBQ2GRU63BU2LFOJL1G32T90GO","","83","img/food4.png","74","86.3999999910593","1","0","","2","1","1,0.5,0,1,0.5,0,0.5,0,1","0,1,0.5,0,1,0.5,1,0.5,0","3",""
"","html-keyboard-response","272","264219","0.0-361.0","3WMINLGALCPR9WA92XUV9Z3PL6ICAX","AG1SOUG1P7J76","3WRBLBQ2GRU63BU2LFOJL1G32T90GO","","null","<img src=""img/food4.png"" style=""width:200px;border:14px solid red;"">","null","","","","","","","","","",""
"","image-keyboard-response","273","264261","0.0-362.0","3WMINLGALCPR9WA92XUV9Z3PL6ICAX","AG1SOUG1P7J76","3WRBLBQ2GRU63BU2LFOJL1G32T90GO","","39.6000000089407","img/food4.png","75","42.20000000298023","2","1","","2","1","1,0.5,0,1,0.5,0,0.5,0,1","0,1,0.5,0,1,0.5,1,0.5,0","3",""
"","html-keyboard-response","274","264567","0.0-363.0","3WMINLGALCPR9WA92XUV9Z3PL6ICAX","AG1SOUG1P7J76","3WRBLBQ2GRU63BU2LFOJL1G32T90GO","","null","<img src=""img/food4.png"" style=""width:200px; border:14px solid green;"">","null","","","","","","","","","",""
"","image-keyboard-response","275","264650","0.0-364.0","3WMINLGALCPR9WA92XUV9Z3PL6ICAX","AG1SOUG1P7J76","3WRBLBQ2GRU63BU2LFOJL1G32T90GO","","79.79999999701977","img/food5.png","76","82.6000000089407","3","0","","3","1","1,0.5,0,1,0.5,0,0.5,0,1","0,1,0.5,0,1,0.5,1,0.5,0","3",""
"","html-keyboard-response","276","264955","0.0-365.0","3WMINLGALCPR9WA92XUV9Z3PL6ICAX","AG1SOUG1P7J76","3WRBLBQ2GRU63BU2LFOJL1G32T90GO","","null","<img src=""img/food5.png"" style=""width:200px;border:14px solid red;"">","null","","","","","","","","","",""
"","image-keyboard-response","277","264998","0.0-366.0","3WMINLGALCPR9WA92XUV9Z3PL6ICAX","AG1SOUG1P7J76","3WRBLBQ2GRU63BU2LFOJL1G32T90GO","","40.3999999910593","img/food4.png","75","42.400000005960464","2","1","","2","1","1,0.5,0,1,0.5,0,0.5,0,1","0,1,0.5,0,1,0.5,1,0.5,0","3",""
"","html-keyboard-response","278","265301","0.0-367.0","3WMINLGALCPR9WA92XUV9Z3PL6ICAX","AG1SOUG1P7J76","3WRBLBQ2GRU63BU2LFOJL1G32T90GO","","null","<img src=""img/food4.png"" style=""width:200px; border:14px solid green;"">","null","","","","","","","","","",""
"","image-keyboard-response","279","265387","0.0-368.0","3WMINLGALCPR9WA92XUV9Z3PL6ICAX","AG1SOUG1P7J76","3WRBLBQ2GRU63BU2LFOJL1G32T90GO","","82.19999998807907","img/food5.png","75","85.20000000298023","2","0","","3","1","1,0.5,0,1,0.5,0,0.5,0,1","0,1,0.5,0,1,0.5,1,0.5,0","3",""
"","html-keyboard-response","280","265691","0.0-369.0","3WMINLGALCPR9WA92XUV9Z3PL6ICAX","AG1SOUG1P7J76","3WRBLBQ2GRU63BU2LFOJL1G32T90GO","","null","<img src=""img/food5.png"" style=""width:200px;border:14px solid red;"">","null","","","","","","","","","",""
"","image-keyboard-response","281","265697","0.0-370.0","3WMINLGALCPR9WA92XUV9Z3PL6ICAX","AG1SOUG1P7J76","3WRBLBQ2GRU63BU2LFOJL1G32T90GO","","3.2000000029802322","img/food5.png","75","5.5","2","1","","3","1","1,0.5,0,1,0.5,0,0.5,0,1","0,1,0.5,0,1,0.5,1,0.5,0","3",""
"","html-keyboard-response","282","266002","0.0-371.0","3WMINLGALCPR9WA92XUV9Z3PL6ICAX","AG1SOUG1P7J76","3WRBLBQ2GRU63BU2LFOJL1G32T90GO","","null","<img src=""img/food5.png"" style=""width:200px; border:14px solid green;"">","null","","","","","","","","","",""
"","image-keyboard-response","283","266086","0.0-372.0","3WMINLGALCPR9WA92XUV9Z3PL6ICAX","AG1SOUG1P7J76","3WRBLBQ2GRU63BU2LFOJL1G32T90GO","","80.8999999910593","img/food4.png","76","83.70000000298023","3","1","","2","1","1,0.5,0,1,0.5,0,0.5,0,1","0,1,0.5,0,1,0.5,1,0.5,0","3",""
"","html-keyboard-response","284","266392","0.0-373.0","3WMINLGALCPR9WA92XUV9Z3PL6ICAX","AG1SOUG1P7J76","3WRBLBQ2GRU63BU2LFOJL1G32T90GO","","null","<img src=""img/food4.png"" style=""width:200px; border:14px solid green;"">","null","","","","","","","","","",""
"","image-keyboard-response","285","266434","0.0-374.0","3WMINLGALCPR9WA92XUV9Z3PL6ICAX","AG1SOUG1P7J76","3WRBLBQ2GRU63BU2LFOJL1G32T90GO","","38.8999999910593","img/food5.png","75","41.20000000298023","2","1","","3","1","1,0.5,0,1,0.5,0,0.5,0,1","0,1,0.5,0,1,0.5,1,0.5,0","3",""
"","html-keyboard-response","286","266738","0.0-375.0","3WMINLGALCPR9WA92XUV9Z3PL6ICAX","AG1SOUG1P7J76","3WRBLBQ2GRU63BU2LFOJL1G32T90GO","","null","<img src=""img/food5.png"" style=""width:200px; border:14px solid green;"">","null","","","","","","","","","",""
"","image-keyboard-response","287","266860","0.0-376.0","3WMINLGALCPR9WA92XUV9Z3PL6ICAX","AG1SOUG1P7J76","3WRBLBQ2GRU63BU2LFOJL1G32T90GO","","119.70000000298023","img/food5.png","74","122.1000000089407","1","1","","3","1","1,0.5,0,1,0.5,0,0.5,0,1","0,1,0.5,0,1,0.5,1,0.5,0","3",""
"","html-keyboard-response","288","267166","0.0-377.0","3WMINLGALCPR9WA92XUV9Z3PL6ICAX","AG1SOUG1P7J76","3WRBLBQ2GRU63BU2LFOJL1G32T90GO","","null","<img src=""img/food5.png"" style=""width:200px; border:14px solid green;"">","null","","","","","","","","","",""
"","image-keyboard-response","289","267220","0.0-378.0","3WMINLGALCPR9WA92XUV9Z3PL6ICAX","AG1SOUG1P7J76","3WRBLBQ2GRU63BU2LFOJL1G32T90GO","","51.20000000298023","img/food6.png","74","53.69999998807907","1","0","","1","1","1,0.5,0,1,0.5,0,0.5,0,1","0,1,0.5,0,1,0.5,1,0.5,0","3",""
"","html-keyboard-response","290","267526","0.0-379.0","3WMINLGALCPR9WA92XUV9Z3PL6ICAX","AG1SOUG1P7J76","3WRBLBQ2GRU63BU2LFOJL1G32T90GO","","null","<img src=""img/food6.png"" style=""width:200px;border:14px solid red;"">","null","","","","","","","","","",""
"","image-keyboard-response","291","267609","0.0-380.0","3WMINLGALCPR9WA92XUV9Z3PL6ICAX","AG1SOUG1P7J76","3WRBLBQ2GRU63BU2LFOJL1G32T90GO","","79.5","img/food6.png","74","82.1000000089407","1","0","","1","1","1,0.5,0,1,0.5,0,0.5,0,1","0,1,0.5,0,1,0.5,1,0.5,0","3",""
"","html-keyboard-response","292","267915","0.0-381.0","3WMINLGALCPR9WA92XUV9Z3PL6ICAX","AG1SOUG1P7J76","3WRBLBQ2GRU63BU2LFOJL1G32T90GO","","null","<img src=""img/food6.png"" style=""width:200px;border:14px solid red;"">","null","","","","","","","","","",""
"","image-keyboard-response","293","267995","0.0-382.0","3WMINLGALCPR9WA92XUV9Z3PL6ICAX","AG1SOUG1P7J76","3WRBLBQ2GRU63BU2LFOJL1G32T90GO","","77.79999999701977","img/food5.png","74","80.20000000298023","1","1","","3","1","1,0.5,0,1,0.5,0,0.5,0,1","0,1,0.5,0,1,0.5,1,0.5,0","3",""
"","html-keyboard-response","294","268301","0.0-383.0","3WMINLGALCPR9WA92XUV9Z3PL6ICAX","AG1SOUG1P7J76","3WRBLBQ2GRU63BU2LFOJL1G32T90GO","","null","<img src=""img/food5.png"" style=""width:200px; border:14px solid green;"">","null","","","","","","","","","",""
"","image-keyboard-response","295","268422","0.0-384.0","3WMINLGALCPR9WA92XUV9Z3PL6ICAX","AG1SOUG1P7J76","3WRBLBQ2GRU63BU2LFOJL1G32T90GO","","117.69999998807907","img/food4.png","75","120.20000000298023","2","1","","2","1","1,0.5,0,1,0.5,0,0.5,0,1","0,1,0.5,0,1,0.5,1,0.5,0","3",""
"","html-keyboard-response","296","268726","0.0-385.0","3WMINLGALCPR9WA92XUV9Z3PL6ICAX","AG1SOUG1P7J76","3WRBLBQ2GRU63BU2LFOJL1G32T90GO","","null","<img src=""img/food4.png"" style=""width:200px; border:14px solid green;"">","null","","","","","","","","","",""
"","image-keyboard-response","297","268810","0.0-386.0","3WMINLGALCPR9WA92XUV9Z3PL6ICAX","AG1SOUG1P7J76","3WRBLBQ2GRU63BU2LFOJL1G32T90GO","","80.5","img/food4.png","76","82.8999999910593","3","1","","2","1","1,0.5,0,1,0.5,0,0.5,0,1","0,1,0.5,0,1,0.5,1,0.5,0","3",""
"","html-keyboard-response","298","269114","0.0-387.0","3WMINLGALCPR9WA92XUV9Z3PL6ICAX","AG1SOUG1P7J76","3WRBLBQ2GRU63BU2LFOJL1G32T90GO","","null","<img src=""img/food4.png"" style=""width:200px; border:14px solid green;"">","null","","","","","","","","","",""
"","image-keyboard-response","299","269149","0.0-388.0","3WMINLGALCPR9WA92XUV9Z3PL6ICAX","AG1SOUG1P7J76","3WRBLBQ2GRU63BU2LFOJL1G32T90GO","","32.20000000298023","img/food4.png","75","34.5","2","1","","2","1","1,0.5,0,1,0.5,0,0.5,0,1","0,1,0.5,0,1,0.5,1,0.5,0","3",""
"","html-keyboard-response","300","269460","0.0-389.0","3WMINLGALCPR9WA92XUV9Z3PL6ICAX","AG1SOUG1P7J76","3WRBLBQ2GRU63BU2LFOJL1G32T90GO","","null","<img src=""img/food4.png"" style=""width:200px; border:14px solid green;"">","null","","","","","","","","","",""
"","image-keyboard-response","301","269537","0.0-390.0","3WMINLGALCPR9WA92XUV9Z3PL6ICAX","AG1SOUG1P7J76","3WRBLBQ2GRU63BU2LFOJL1G32T90GO","","72.79999999701977","img/food6.png","74","76.29999999701977","1","0","","1","1","1,0.5,0,1,0.5,0,0.5,0,1","0,1,0.5,0,1,0.5,1,0.5,0","3",""
"","html-keyboard-response","302","269843","0.0-391.0","3WMINLGALCPR9WA92XUV9Z3PL6ICAX","AG1SOUG1P7J76","3WRBLBQ2GRU63BU2LFOJL1G32T90GO","","null","<img src=""img/food6.png"" style=""width:200px;border:14px solid red;"">","null","","","","","","","","","",""
"","image-keyboard-response","303","269898","0.0-392.0","3WMINLGALCPR9WA92XUV9Z3PL6ICAX","AG1SOUG1P7J76","3WRBLBQ2GRU63BU2LFOJL1G32T90GO","","51.900000005960464","img/food6.png","75","54.5","2","1","","1","1","1,0.5,0,1,0.5,0,0.5,0,1","0,1,0.5,0,1,0.5,1,0.5,0","3",""
"","html-keyboard-response","304","270202","0.0-393.0","3WMINLGALCPR9WA92XUV9Z3PL6ICAX","AG1SOUG1P7J76","3WRBLBQ2GRU63BU2LFOJL1G32T90GO","","null","<img src=""img/food6.png"" style=""width:200px; border:14px solid green;"">","null","","","","","","","","","",""
"","image-keyboard-response","305","270285","0.0-394.0","3WMINLGALCPR9WA92XUV9Z3PL6ICAX","AG1SOUG1P7J76","3WRBLBQ2GRU63BU2LFOJL1G32T90GO","","80.70000000298023","img/food6.png","76","83.40000000596046","3","0","","1","1","1,0.5,0,1,0.5,0,0.5,0,1","0,1,0.5,0,1,0.5,1,0.5,0","3",""
"","html-keyboard-response","306","270590","0.0-395.0","3WMINLGALCPR9WA92XUV9Z3PL6ICAX","AG1SOUG1P7J76","3WRBLBQ2GRU63BU2LFOJL1G32T90GO","","null","<img src=""img/food6.png"" style=""width:200px;border:14px solid red;"">","null","","","","","","","","","",""
"","image-keyboard-response","307","270985","0.0-396.0","3WMINLGALCPR9WA92XUV9Z3PL6ICAX","AG1SOUG1P7J76","3WRBLBQ2GRU63BU2LFOJL1G32T90GO","","391.5","img/food6.png","74","394.5","1","0","","1","1","1,0.5,0,1,0.5,0,0.5,0,1","0,1,0.5,0,1,0.5,1,0.5,0","3",""
"","html-keyboard-response","308","271291","0.0-397.0","3WMINLGALCPR9WA92XUV9Z3PL6ICAX","AG1SOUG1P7J76","3WRBLBQ2GRU63BU2LFOJL1G32T90GO","","null","<img src=""img/food6.png"" style=""width:200px;border:14px solid red;"">","null","","","","","","","","","",""
"","image-keyboard-response","309","271295","0.0-398.0","3WMINLGALCPR9WA92XUV9Z3PL6ICAX","AG1SOUG1P7J76","3WRBLBQ2GRU63BU2LFOJL1G32T90GO","","1.2999999970197678","img/food4.png","75","4","2","1","","2","1","1,0.5,0,1,0.5,0,0.5,0,1","0,1,0.5,0,1,0.5,1,0.5,0","3",""
"","html-keyboard-response","310","271600","0.0-399.0","3WMINLGALCPR9WA92XUV9Z3PL6ICAX","AG1SOUG1P7J76","3WRBLBQ2GRU63BU2LFOJL1G32T90GO","","null","<img src=""img/food4.png"" style=""width:200px; border:14px solid green;"">","null","","","","","","","","","",""
"","image-keyboard-response","311","271682","0.0-400.0","3WMINLGALCPR9WA92XUV9Z3PL6ICAX","AG1SOUG1P7J76","3WRBLBQ2GRU63BU2LFOJL1G32T90GO","","78.8999999910593","img/food5.png","75","81.5","2","0","","3","1","1,0.5,0,1,0.5,0,0.5,0,1","0,1,0.5,0,1,0.5,1,0.5,0","3",""
"","html-keyboard-response","312","271987","0.0-401.0","3WMINLGALCPR9WA92XUV9Z3PL6ICAX","AG1SOUG1P7J76","3WRBLBQ2GRU63BU2LFOJL1G32T90GO","","null","<img src=""img/food5.png"" style=""width:200px;border:14px solid red;"">","null","","","","","","","","","",""
"","image-keyboard-response","313","271993","0.0-402.0","3WMINLGALCPR9WA92XUV9Z3PL6ICAX","AG1SOUG1P7J76","3WRBLBQ2GRU63BU2LFOJL1G32T90GO","","3.2999999970197678","img/food6.png","75","5.300000011920929","2","1","","1","1","1,0.5,0,1,0.5,0,0.5,0,1","0,1,0.5,0,1,0.5,1,0.5,0","3",""
"","html-keyboard-response","314","272297","0.0-403.0","3WMINLGALCPR9WA92XUV9Z3PL6ICAX","AG1SOUG1P7J76","3WRBLBQ2GRU63BU2LFOJL1G32T90GO","","null","<img src=""img/food6.png"" style=""width:200px; border:14px solid green;"">","null","","","","","","","","","",""
"","image-keyboard-response","315","272341","0.0-404.0","3WMINLGALCPR9WA92XUV9Z3PL6ICAX","AG1SOUG1P7J76","3WRBLBQ2GRU63BU2LFOJL1G32T90GO","","41.70000000298023","img/food4.png","75","43.6000000089407","2","1","","2","1","1,0.5,0,1,0.5,0,0.5,0,1","0,1,0.5,0,1,0.5,1,0.5,0","3",""
"","html-keyboard-response","316","272646","0.0-405.0","3WMINLGALCPR9WA92XUV9Z3PL6ICAX","AG1SOUG1P7J76","3WRBLBQ2GRU63BU2LFOJL1G32T90GO","","null","<img src=""img/food4.png"" style=""width:200px; border:14px solid green;"">","null","","","","","","","","","",""
"","image-keyboard-response","317","272706","0.0-406.0","3WMINLGALCPR9WA92XUV9Z3PL6ICAX","AG1SOUG1P7J76","3WRBLBQ2GRU63BU2LFOJL1G32T90GO","","56.20000000298023","img/food4.png","76","59","3","1","","2","1","1,0.5,0,1,0.5,0,0.5,0,1","0,1,0.5,0,1,0.5,1,0.5,0","3",""
"","html-keyboard-response","318","273010","0.0-407.0","3WMINLGALCPR9WA92XUV9Z3PL6ICAX","AG1SOUG1P7J76","3WRBLBQ2GRU63BU2LFOJL1G32T90GO","","null","<img src=""img/food4.png"" style=""width:200px; border:14px solid green;"">","null","","","","","","","","","",""
"","image-keyboard-response","319","273092","0.0-408.0","3WMINLGALCPR9WA92XUV9Z3PL6ICAX","AG1SOUG1P7J76","3WRBLBQ2GRU63BU2LFOJL1G32T90GO","","79.59999999403954","img/food5.png","76","82.1000000089407","3","0","","3","1","1,0.5,0,1,0.5,0,0.5,0,1","0,1,0.5,0,1,0.5,1,0.5,0","3",""
"","html-keyboard-response","320","273396","0.0-409.0","3WMINLGALCPR9WA92XUV9Z3PL6ICAX","AG1SOUG1P7J76","3WRBLBQ2GRU63BU2LFOJL1G32T90GO","","null","<img src=""img/food5.png"" style=""width:200px;border:14px solid red;"">","null","","","","","","","","","",""
"","image-keyboard-response","321","273442","0.0-410.0","3WMINLGALCPR9WA92XUV9Z3PL6ICAX","AG1SOUG1P7J76","3WRBLBQ2GRU63BU2LFOJL1G32T90GO","","42","img/food4.png","75","44.5","2","1","","2","1","1,0.5,0,1,0.5,0,0.5,0,1","0,1,0.5,0,1,0.5,1,0.5,0","3",""
"","html-keyboard-response","322","273747","0.0-411.0","3WMINLGALCPR9WA92XUV9Z3PL6ICAX","AG1SOUG1P7J76","3WRBLBQ2GRU63BU2LFOJL1G32T90GO","","null","<img src=""img/food4.png"" style=""width:200px; border:14px solid green;"">","null","","","","","","","","","",""
"","image-keyboard-response","323","273790","0.0-412.0","3WMINLGALCPR9WA92XUV9Z3PL6ICAX","AG1SOUG1P7J76","3WRBLBQ2GRU63BU2LFOJL1G32T90GO","","40.29999999701977","img/food5.png","74","42.29999999701977","1","1","","3","1","1,0.5,0,1,0.5,0,0.5,0,1","0,1,0.5,0,1,0.5,1,0.5,0","3",""
"","html-keyboard-response","324","274093","0.0-413.0","3WMINLGALCPR9WA92XUV9Z3PL6ICAX","AG1SOUG1P7J76","3WRBLBQ2GRU63BU2LFOJL1G32T90GO","","null","<img src=""img/food5.png"" style=""width:200px; border:14px solid green;"">","null","","","","","","","","","",""
"","image-keyboard-response","325","274178","0.0-414.0","3WMINLGALCPR9WA92XUV9Z3PL6ICAX","AG1SOUG1P7J76","3WRBLBQ2GRU63BU2LFOJL1G32T90GO","","82.79999999701977","img/food4.png","74","85.20000000298023","1","0","","2","1","1,0.5,0,1,0.5,0,0.5,0,1","0,1,0.5,0,1,0.5,1,0.5,0","3",""
"","html-keyboard-response","326","274483","0.0-415.0","3WMINLGALCPR9WA92XUV9Z3PL6ICAX","AG1SOUG1P7J76","3WRBLBQ2GRU63BU2LFOJL1G32T90GO","","null","<img src=""img/food4.png"" style=""width:200px;border:14px solid red;"">","null","","","","","","","","","",""
"","image-keyboard-response","327","274528","0.0-416.0","3WMINLGALCPR9WA92XUV9Z3PL6ICAX","AG1SOUG1P7J76","3WRBLBQ2GRU63BU2LFOJL1G32T90GO","","42","img/food4.png","75","44.3999999910593","2","1","","2","1","1,0.5,0,1,0.5,0,0.5,0,1","0,1,0.5,0,1,0.5,1,0.5,0","3",""
"","html-keyboard-response","328","274833","0.0-417.0","3WMINLGALCPR9WA92XUV9Z3PL6ICAX","AG1SOUG1P7J76","3WRBLBQ2GRU63BU2LFOJL1G32T90GO","","null","<img src=""img/food4.png"" style=""width:200px; border:14px solid green;"">","null","","","","","","","","","",""
"","image-keyboard-response","329","274915","0.0-418.0","3WMINLGALCPR9WA92XUV9Z3PL6ICAX","AG1SOUG1P7J76","3WRBLBQ2GRU63BU2LFOJL1G32T90GO","","79.90000000596046","img/food4.png","75","82.30000001192093","2","1","","2","1","1,0.5,0,1,0.5,0,0.5,0,1","0,1,0.5,0,1,0.5,1,0.5,0","3",""
"","html-keyboard-response","330","275221","0.0-419.0","3WMINLGALCPR9WA92XUV9Z3PL6ICAX","AG1SOUG1P7J76","3WRBLBQ2GRU63BU2LFOJL1G32T90GO","","null","<img src=""img/food4.png"" style=""width:200px; border:14px solid green;"">","null","","","","","","","","","",""
"","image-keyboard-response","331","275265","0.0-420.0","3WMINLGALCPR9WA92XUV9Z3PL6ICAX","AG1SOUG1P7J76","3WRBLBQ2GRU63BU2LFOJL1G32T90GO","","41.69999998807907","img/food6.png","76","43.900000005960464","3","0","","1","1","1,0.5,0,1,0.5,0,0.5,0,1","0,1,0.5,0,1,0.5,1,0.5,0","3",""
"","html-keyboard-response","332","275569","0.0-421.0","3WMINLGALCPR9WA92XUV9Z3PL6ICAX","AG1SOUG1P7J76","3WRBLBQ2GRU63BU2LFOJL1G32T90GO","","null","<img src=""img/food6.png"" style=""width:200px;border:14px solid red;"">","null","","","","","","","","","",""
"","image-keyboard-response","333","275614","0.0-422.0","3WMINLGALCPR9WA92XUV9Z3PL6ICAX","AG1SOUG1P7J76","3WRBLBQ2GRU63BU2LFOJL1G32T90GO","","43","img/food6.png","75","44.900000005960464","2","1","","1","1","1,0.5,0,1,0.5,0,0.5,0,1","0,1,0.5,0,1,0.5,1,0.5,0","3",""
"","html-keyboard-response","334","275920","0.0-423.0","3WMINLGALCPR9WA92XUV9Z3PL6ICAX","AG1SOUG1P7J76","3WRBLBQ2GRU63BU2LFOJL1G32T90GO","","null","<img src=""img/food6.png"" style=""width:200px; border:14px solid green;"">","null","","","","","","","","","",""
"","image-keyboard-response","335","276002","0.0-424.0","3WMINLGALCPR9WA92XUV9Z3PL6ICAX","AG1SOUG1P7J76","3WRBLBQ2GRU63BU2LFOJL1G32T90GO","","79","img/food5.png","74","81.5","1","1","","3","1","1,0.5,0,1,0.5,0,0.5,0,1","0,1,0.5,0,1,0.5,1,0.5,0","3",""
"","html-keyboard-response","336","276306","0.0-425.0","3WMINLGALCPR9WA92XUV9Z3PL6ICAX","AG1SOUG1P7J76","3WRBLBQ2GRU63BU2LFOJL1G32T90GO","","null","<img src=""img/food5.png"" style=""width:200px; border:14px solid green;"">","null","","","","","","","","","",""
"","image-keyboard-response","337","276351","0.0-426.0","3WMINLGALCPR9WA92XUV9Z3PL6ICAX","AG1SOUG1P7J76","3WRBLBQ2GRU63BU2LFOJL1G32T90GO","","41.19999998807907","img/food4.png","75","43.599999994039536","2","1","","2","1","1,0.5,0,1,0.5,0,0.5,0,1","0,1,0.5,0,1,0.5,1,0.5,0","3",""
"","html-keyboard-response","338","276656","0.0-427.0","3WMINLGALCPR9WA92XUV9Z3PL6ICAX","AG1SOUG1P7J76","3WRBLBQ2GRU63BU2LFOJL1G32T90GO","","null","<img src=""img/food4.png"" style=""width:200px; border:14px solid green;"">","null","","","","","","","","","",""
"","image-keyboard-response","339","276699","0.0-428.0","3WMINLGALCPR9WA92XUV9Z3PL6ICAX","AG1SOUG1P7J76","3WRBLBQ2GRU63BU2LFOJL1G32T90GO","","40.599999994039536","img/food4.png","76","42.599999994039536","3","1","","2","1","1,0.5,0,1,0.5,0,0.5,0,1","0,1,0.5,0,1,0.5,1,0.5,0","3",""
"","html-keyboard-response","340","277003","0.0-429.0","3WMINLGALCPR9WA92XUV9Z3PL6ICAX","AG1SOUG1P7J76","3WRBLBQ2GRU63BU2LFOJL1G32T90GO","","null","<img src=""img/food4.png"" style=""width:200px; border:14px solid green;"">","null","","","","","","","","","",""
"","image-keyboard-response","341","277048","0.0-430.0","3WMINLGALCPR9WA92XUV9Z3PL6ICAX","AG1SOUG1P7J76","3WRBLBQ2GRU63BU2LFOJL1G32T90GO","","42.29999999701977","img/food4.png","75","44.400000005960464","2","1","","2","1","1,0.5,0,1,0.5,0,0.5,0,1","0,1,0.5,0,1,0.5,1,0.5,0","3",""
"","html-keyboard-response","342","277353","0.0-431.0","3WMINLGALCPR9WA92XUV9Z3PL6ICAX","AG1SOUG1P7J76","3WRBLBQ2GRU63BU2LFOJL1G32T90GO","","null","<img src=""img/food4.png"" style=""width:200px; border:14px solid green;"">","null","","","","","","","","","",""
"","image-keyboard-response","343","277439","0.0-432.0","3WMINLGALCPR9WA92XUV9Z3PL6ICAX","AG1SOUG1P7J76","3WRBLBQ2GRU63BU2LFOJL1G32T90GO","","82.19999998807907","img/food6.png","74","85.70000000298023","1","0","","1","1","1,0.5,0,1,0.5,0,0.5,0,1","0,1,0.5,0,1,0.5,1,0.5,0","3",""
"","html-keyboard-response","344","277744","0.0-433.0","3WMINLGALCPR9WA92XUV9Z3PL6ICAX","AG1SOUG1P7J76","3WRBLBQ2GRU63BU2LFOJL1G32T90GO","","null","<img src=""img/food6.png"" style=""width:200px;border:14px solid red;"">","null","","","","","","","","","",""
"","image-keyboard-response","345","277832","0.0-434.0","3WMINLGALCPR9WA92XUV9Z3PL6ICAX","AG1SOUG1P7J76","3WRBLBQ2GRU63BU2LFOJL1G32T90GO","","84.29999999701977","img/food4.png","74","87.40000000596046","1","0","","2","1","1,0.5,0,1,0.5,0,0.5,0,1","0,1,0.5,0,1,0.5,1,0.5,0","3",""
"","html-keyboard-response","346","278137","0.0-435.0","3WMINLGALCPR9WA92XUV9Z3PL6ICAX","AG1SOUG1P7J76","3WRBLBQ2GRU63BU2LFOJL1G32T90GO","","null","<img src=""img/food4.png"" style=""width:200px;border:14px solid red;"">","null","","","","","","","","","",""
"","image-keyboard-response","347","278523","0.0-436.0","3WMINLGALCPR9WA92XUV9Z3PL6ICAX","AG1SOUG1P7J76","3WRBLBQ2GRU63BU2LFOJL1G32T90GO","","383.40000000596046","img/food6.png","75","386.09999999403954","2","1","","1","1","1,0.5,0,1,0.5,0,0.5,0,1","0,1,0.5,0,1,0.5,1,0.5,0","3",""
"","html-keyboard-response","348","278828","0.0-437.0","3WMINLGALCPR9WA92XUV9Z3PL6ICAX","AG1SOUG1P7J76","3WRBLBQ2GRU63BU2LFOJL1G32T90GO","","null","<img src=""img/food6.png"" style=""width:200px; border:14px solid green;"">","null","","","","","","","","","",""
"","image-keyboard-response","349","278911","0.0-438.0","3WMINLGALCPR9WA92XUV9Z3PL6ICAX","AG1SOUG1P7J76","3WRBLBQ2GRU63BU2LFOJL1G32T90GO","","79.80000001192093","img/food4.png","75","82.5","2","1","","2","1","1,0.5,0,1,0.5,0,0.5,0,1","0,1,0.5,0,1,0.5,1,0.5,0","3",""
"","html-keyboard-response","350","279216","0.0-439.0","3WMINLGALCPR9WA92XUV9Z3PL6ICAX","AG1SOUG1P7J76","3WRBLBQ2GRU63BU2LFOJL1G32T90GO","","null","<img src=""img/food4.png"" style=""width:200px; border:14px solid green;"">","null","","","","","","","","","",""
"","image-keyboard-response","351","279264","0.0-440.0","3WMINLGALCPR9WA92XUV9Z3PL6ICAX","AG1SOUG1P7J76","3WRBLBQ2GRU63BU2LFOJL1G32T90GO","","45.1000000089407","img/food5.png","75","47.29999999701977","2","0","","3","1","1,0.5,0,1,0.5,0,0.5,0,1","0,1,0.5,0,1,0.5,1,0.5,0","3",""
"","html-keyboard-response","352","279567","0.0-441.0","3WMINLGALCPR9WA92XUV9Z3PL6ICAX","AG1SOUG1P7J76","3WRBLBQ2GRU63BU2LFOJL1G32T90GO","","null","<img src=""img/food5.png"" style=""width:200px;border:14px solid red;"">","null","","","","","","","","","",""
"","image-keyboard-response","353","279612","0.0-442.0","3WMINLGALCPR9WA92XUV9Z3PL6ICAX","AG1SOUG1P7J76","3WRBLBQ2GRU63BU2LFOJL1G32T90GO","","42","img/food6.png","74","45.20000000298023","1","0","","1","1","1,0.5,0,1,0.5,0,0.5,0,1","0,1,0.5,0,1,0.5,1,0.5,0","3",""
"","html-keyboard-response","354","279918","0.0-443.0","3WMINLGALCPR9WA92XUV9Z3PL6ICAX","AG1SOUG1P7J76","3WRBLBQ2GRU63BU2LFOJL1G32T90GO","","null","<img src=""img/food6.png"" style=""width:200px;border:14px solid red;"">","null","","","","","","","","","",""
"","image-keyboard-response","355","280000","0.0-444.0","3WMINLGALCPR9WA92XUV9Z3PL6ICAX","AG1SOUG1P7J76","3WRBLBQ2GRU63BU2LFOJL1G32T90GO","","79.69999998807907","img/food5.png","74","82.09999999403954","1","1","","3","1","1,0.5,0,1,0.5,0,0.5,0,1","0,1,0.5,0,1,0.5,1,0.5,0","3",""
"","html-keyboard-response","356","280306","0.0-445.0","3WMINLGALCPR9WA92XUV9Z3PL6ICAX","AG1SOUG1P7J76","3WRBLBQ2GRU63BU2LFOJL1G32T90GO","","null","<img src=""img/food5.png"" style=""width:200px; border:14px solid green;"">","null","","","","","","","","","",""
"","image-keyboard-response","357","280351","0.0-446.0","3WMINLGALCPR9WA92XUV9Z3PL6ICAX","AG1SOUG1P7J76","3WRBLBQ2GRU63BU2LFOJL1G32T90GO","","42.20000000298023","img/food5.png","74","44.79999999701977","1","1","","3","1","1,0.5,0,1,0.5,0,0.5,0,1","0,1,0.5,0,1,0.5,1,0.5,0","3",""
"","html-keyboard-response","358","280657","0.0-447.0","3WMINLGALCPR9WA92XUV9Z3PL6ICAX","AG1SOUG1P7J76","3WRBLBQ2GRU63BU2LFOJL1G32T90GO","","null","<img src=""img/food5.png"" style=""width:200px; border:14px solid green;"">","null","","","","","","","","","",""
"","image-keyboard-response","359","280699","0.0-448.0","3WMINLGALCPR9WA92XUV9Z3PL6ICAX","AG1SOUG1P7J76","3WRBLBQ2GRU63BU2LFOJL1G32T90GO","","39.400000005960464","img/food4.png","74","41.900000005960464","1","0","","2","1","1,0.5,0,1,0.5,0,0.5,0,1","0,1,0.5,0,1,0.5,1,0.5,0","3",""
"","html-keyboard-response","360","281003","0.0-449.0","3WMINLGALCPR9WA92XUV9Z3PL6ICAX","AG1SOUG1P7J76","3WRBLBQ2GRU63BU2LFOJL1G32T90GO","","null","<img src=""img/food4.png"" style=""width:200px;border:14px solid red;"">","null","","","","","","","","","",""
"","image-keyboard-response","361","281047","0.0-450.0","3WMINLGALCPR9WA92XUV9Z3PL6ICAX","AG1SOUG1P7J76","3WRBLBQ2GRU63BU2LFOJL1G32T90GO","","41.70000000298023","img/food5.png","74","43.599999994039536","1","1","","3","1","1,0.5,0,1,0.5,0,0.5,0,1","0,1,0.5,0,1,0.5,1,0.5,0","3",""
"","html-keyboard-response","362","281352","0.0-451.0","3WMINLGALCPR9WA92XUV9Z3PL6ICAX","AG1SOUG1P7J76","3WRBLBQ2GRU63BU2LFOJL1G32T90GO","","null","<img src=""img/food5.png"" style=""width:200px; border:14px solid green;"">","null","","","","","","","","","",""
"","image-keyboard-response","363","281747","0.0-452.0","3WMINLGALCPR9WA92XUV9Z3PL6ICAX","AG1SOUG1P7J76","3WRBLBQ2GRU63BU2LFOJL1G32T90GO","","392.20000000298023","img/food5.png","76","395","3","0","","3","1","1,0.5,0,1,0.5,0,0.5,0,1","0,1,0.5,0,1,0.5,1,0.5,0","3",""
"","html-keyboard-response","364","282052","0.0-453.0","3WMINLGALCPR9WA92XUV9Z3PL6ICAX","AG1SOUG1P7J76","3WRBLBQ2GRU63BU2LFOJL1G32T90GO","","null","<img src=""img/food5.png"" style=""width:200px;border:14px solid red;"">","null","","","","","","","","","",""
"","html-keyboard-response","365","288579","0.0-454.0","3WMINLGALCPR9WA92XUV9Z3PL6ICAX","AG1SOUG1P7J76","3WRBLBQ2GRU63BU2LFOJL1G32T90GO","","","","","","","","","","","","","",""
"","instructions","366","292643","0.0-455.0","3WMINLGALCPR9WA92XUV9Z3PL6ICAX","AG1SOUG1P7J76","3WRBLBQ2GRU63BU2LFOJL1G32T90GO","[{""page_index"":0,""viewing_time"":4062.5}]","4062.7999999970198","","","","","","","","","","","",""
"","survey-text","367","315909","0.0-456.0","3WMINLGALCPR9WA92XUV9Z3PL6ICAX","AG1SOUG1P7J76","3WRBLBQ2GRU63BU2LFOJL1G32T90GO","","23259","","","","","","","","","","","","{""Q0"":""AG1SOUG1P7J76""}"
