"success","trial_type","trial_index","time_elapsed","internal_node_id","assignmentID","mturkID","hitID","view_history","rt","stimulus","key_press","reactionTime","a","r","s","cond","reward_cond","reward_cond_actual","reward_matrix_idx","warning","responses"
"true","fullscreen","0","3080","0.0-0.0","3K4J6M3CXFF4Q8QE4JQEZQO4JRGAGX","AHKYVHP6591H8","3PIOQ99R7Y8STPN46QFY0SD7JTFNU0","","","","","","","","","","","","","",""
"","instructions","1","11092","0.0-1.0","3K4J6M3CXFF4Q8QE4JQEZQO4JRGAGX","AHKYVHP6591H8","3PIOQ99R7Y8STPN46QFY0SD7JTFNU0","[{""page_index"":0,""viewing_time"":2580.5999999996275},{""page_index"":1,""viewing_time"":760.6000000005588},{""page_index"":2,""viewing_time"":504},{""page_index"":3,""viewing_time"":856},{""page_index"":4,""viewing_time"":872.5},{""page_index"":5,""viewing_time"":1407.7000000001863},{""page_index"":6,""viewing_time"":1024.199999999255}]","8007.799999999814","","","","","","","","","","","",""
"","image-keyboard-response","2","11810","0.0-2.0","3K4J6M3CXFF4Q8QE4JQEZQO4JRGAGX","AHKYVHP6591H8","3PIOQ99R7Y8STPN46QFY0SD7JTFNU0","","714.7999999998137","img/food3.png","74","717.1999999992549","1","1","1","1","1,0.5,0,1,0.5,0,0.5,0,1","1,0.5,0,1,0.5,0,0.5,0,1","1","",""
"","html-keyboard-response","3","12119","0.0-3.0","3K4J6M3CXFF4Q8QE4JQEZQO4JRGAGX","AHKYVHP6591H8","3PIOQ99R7Y8STPN46QFY0SD7JTFNU0","","null","<img src=""img/food3.png"" style=""width:200px; border:14px solid green;"">","null","","","","","","","","","",""
"","image-keyboard-response","4","12242","0.0-4.0","3K4J6M3CXFF4Q8QE4JQEZQO4JRGAGX","AHKYVHP6591H8","3PIOQ99R7Y8STPN46QFY0SD7JTFNU0","","121.20000000018626","img/food1.png","75","123.09999999962747","2","0","3","1","1,0.5,0,1,0.5,0,0.5,0,1","1,0.5,0,1,0.5,0,0.5,0,1","1","",""
"","html-keyboard-response","5","12550","0.0-5.0","3K4J6M3CXFF4Q8QE4JQEZQO4JRGAGX","AHKYVHP6591H8","3PIOQ99R7Y8STPN46QFY0SD7JTFNU0","","null","<img src=""img/food1.png"" style=""width:200px;border:14px solid red;"">","null","","","","","","","","","",""
"","image-keyboard-response","6","12578","0.0-6.0","3K4J6M3CXFF4Q8QE4JQEZQO4JRGAGX","AHKYVHP6591H8","3PIOQ99R7Y8STPN46QFY0SD7JTFNU0","","25.299999999813735","img/food1.png","74","26.699999999254942","1","0","3","1","1,0.5,0,1,0.5,0,0.5,0,1","1,0.5,0,1,0.5,0,0.5,0,1","1","",""
"","html-keyboard-response","7","12887","0.0-7.0","3K4J6M3CXFF4Q8QE4JQEZQO4JRGAGX","AHKYVHP6591H8","3PIOQ99R7Y8STPN46QFY0SD7JTFNU0","","null","<img src=""img/food1.png"" style=""width:200px;border:14px solid red;"">","null","","","","","","","","","",""
"","image-keyboard-response","8","12898","0.0-8.0","3K4J6M3CXFF4Q8QE4JQEZQO4JRGAGX","AHKYVHP6591H8","3PIOQ99R7Y8STPN46QFY0SD7JTFNU0","","8.299999999813735","img/food1.png","75","10.300000000745058","2","0","3","1","1,0.5,0,1,0.5,0,0.5,0,1","1,0.5,0,1,0.5,0,0.5,0,1","1","",""
"","html-keyboard-response","9","13206","0.0-9.0","3K4J6M3CXFF4Q8QE4JQEZQO4JRGAGX","AHKYVHP6591H8","3PIOQ99R7Y8STPN46QFY0SD7JTFNU0","","null","<img src=""img/food1.png"" style=""width:200px;border:14px solid red;"">","null","","","","","","","","","",""
"","image-keyboard-response","10","13411","0.0-10.0","3K4J6M3CXFF4Q8QE4JQEZQO4JRGAGX","AHKYVHP6591H8","3PIOQ99R7Y8STPN46QFY0SD7JTFNU0","","202.40000000037253","img/food1.png","74","203.90000000037253","1","0","3","1","1,0.5,0,1,0.5,0,0.5,0,1","1,0.5,0,1,0.5,0,0.5,0,1","1","",""
"","html-keyboard-response","11","13718","0.0-11.0","3K4J6M3CXFF4Q8QE4JQEZQO4JRGAGX","AHKYVHP6591H8","3PIOQ99R7Y8STPN46QFY0SD7JTFNU0","","null","<img src=""img/food1.png"" style=""width:200px;border:14px solid red;"">","null","","","","","","","","","",""
"","image-keyboard-response","12","13875","0.0-12.0","3K4J6M3CXFF4Q8QE4JQEZQO4JRGAGX","AHKYVHP6591H8","3PIOQ99R7Y8STPN46QFY0SD7JTFNU0","","154.29999999981374","img/food1.png","75","156","2","0","3","1","1,0.5,0,1,0.5,0,0.5,0,1","1,0.5,0,1,0.5,0,0.5,0,1","1","",""
"","html-keyboard-response","13","14182","0.0-13.0","3K4J6M3CXFF4Q8QE4JQEZQO4JRGAGX","AHKYVHP6591H8","3PIOQ99R7Y8STPN46QFY0SD7JTFNU0","","null","<img src=""img/food1.png"" style=""width:200px;border:14px solid red;"">","null","","","","","","","","","",""
"","image-keyboard-response","14","14370","0.0-14.0","3K4J6M3CXFF4Q8QE4JQEZQO4JRGAGX","AHKYVHP6591H8","3PIOQ99R7Y8STPN46QFY0SD7JTFNU0","","185.5","img/food1.png","76","187.20000000018626","3","1","3","1","1,0.5,0,1,0.5,0,0.5,0,1","1,0.5,0,1,0.5,0,0.5,0,1","1","",""
"","html-keyboard-response","15","14679","0.0-15.0","3K4J6M3CXFF4Q8QE4JQEZQO4JRGAGX","AHKYVHP6591H8","3PIOQ99R7Y8STPN46QFY0SD7JTFNU0","","null","<img src=""img/food1.png"" style=""width:200px; border:14px solid green;"">","null","","","","","","","","","",""
"","image-keyboard-response","16","14834","0.0-16.0","3K4J6M3CXFF4Q8QE4JQEZQO4JRGAGX","AHKYVHP6591H8","3PIOQ99R7Y8STPN46QFY0SD7JTFNU0","","152.79999999981374","img/food3.png","75","154.3999999994412","2","1","1","1","1,0.5,0,1,0.5,0,0.5,0,1","1,0.5,0,1,0.5,0,0.5,0,1","1","",""
"","html-keyboard-response","17","15142","0.0-17.0","3K4J6M3CXFF4Q8QE4JQEZQO4JRGAGX","AHKYVHP6591H8","3PIOQ99R7Y8STPN46QFY0SD7JTFNU0","","null","<img src=""img/food3.png"" style=""width:200px; border:14px solid green;"">","null","","","","","","","","","",""
"","image-keyboard-response","18","15330","0.0-18.0","3K4J6M3CXFF4Q8QE4JQEZQO4JRGAGX","AHKYVHP6591H8","3PIOQ99R7Y8STPN46QFY0SD7JTFNU0","","187","img/food5.png","76","188.09999999962747","3","0","2","1","1,0.5,0,1,0.5,0,0.5,0,1","1,0.5,0,1,0.5,0,0.5,0,1","1","",""
"","html-keyboard-response","19","15639","0.0-19.0","3K4J6M3CXFF4Q8QE4JQEZQO4JRGAGX","AHKYVHP6591H8","3PIOQ99R7Y8STPN46QFY0SD7JTFNU0","","null","<img src=""img/food5.png"" style=""width:200px;border:14px solid red;"">","null","","","","","","","","","",""
"","image-keyboard-response","20","15699","0.0-20.0","3K4J6M3CXFF4Q8QE4JQEZQO4JRGAGX","AHKYVHP6591H8","3PIOQ99R7Y8STPN46QFY0SD7JTFNU0","","56.59999999962747","img/food1.png","76","59.10000000055879","3","1","3","1","1,0.5,0,1,0.5,0,0.5,0,1","1,0.5,0,1,0.5,0,0.5,0,1","1","",""
"","html-keyboard-response","21","16006","0.0-21.0","3K4J6M3CXFF4Q8QE4JQEZQO4JRGAGX","AHKYVHP6591H8","3PIOQ99R7Y8STPN46QFY0SD7JTFNU0","","null","<img src=""img/food1.png"" style=""width:200px; border:14px solid green;"">","null","","","","","","","","","",""
"","image-keyboard-response","22","16211","0.0-22.0","3K4J6M3CXFF4Q8QE4JQEZQO4JRGAGX","AHKYVHP6591H8","3PIOQ99R7Y8STPN46QFY0SD7JTFNU0","","201.8999999994412","img/food1.png","74","204.09999999962747","1","0","3","1","1,0.5,0,1,0.5,0,0.5,0,1","1,0.5,0,1,0.5,0,0.5,0,1","1","",""
"","html-keyboard-response","23","16518","0.0-23.0","3K4J6M3CXFF4Q8QE4JQEZQO4JRGAGX","AHKYVHP6591H8","3PIOQ99R7Y8STPN46QFY0SD7JTFNU0","","null","<img src=""img/food1.png"" style=""width:200px;border:14px solid red;"">","null","","","","","","","","","",""
"","image-keyboard-response","24","16771","0.0-24.0","3K4J6M3CXFF4Q8QE4JQEZQO4JRGAGX","AHKYVHP6591H8","3PIOQ99R7Y8STPN46QFY0SD7JTFNU0","","249.40000000037253","img/food5.png","75","251.8999999994412","2","1","2","1","1,0.5,0,1,0.5,0,0.5,0,1","1,0.5,0,1,0.5,0,0.5,0,1","1","",""
"","html-keyboard-response","25","17078","0.0-25.0","3K4J6M3CXFF4Q8QE4JQEZQO4JRGAGX","AHKYVHP6591H8","3PIOQ99R7Y8STPN46QFY0SD7JTFNU0","","null","<img src=""img/food5.png"" style=""width:200px; border:14px solid green;"">","null","","","","","","","","","",""
"","image-keyboard-response","26","17089","0.0-26.0","3K4J6M3CXFF4Q8QE4JQEZQO4JRGAGX","AHKYVHP6591H8","3PIOQ99R7Y8STPN46QFY0SD7JTFNU0","","9.100000000558794","img/food5.png","76","10.599999999627471","3","0","2","1","1,0.5,0,1,0.5,0,0.5,0,1","1,0.5,0,1,0.5,0,0.5,0,1","1","",""
"","html-keyboard-response","27","17394","0.0-27.0","3K4J6M3CXFF4Q8QE4JQEZQO4JRGAGX","AHKYVHP6591H8","3PIOQ99R7Y8STPN46QFY0SD7JTFNU0","","null","<img src=""img/food5.png"" style=""width:200px;border:14px solid red;"">","null","","","","","","","","","",""
"","image-keyboard-response","28","17681","0.0-28.0","3K4J6M3CXFF4Q8QE4JQEZQO4JRGAGX","AHKYVHP6591H8","3PIOQ99R7Y8STPN46QFY0SD7JTFNU0","","284.70000000018626","img/food5.png","75","286","2","0","2","1","1,0.5,0,1,0.5,0,0.5,0,1","1,0.5,0,1,0.5,0,0.5,0,1","1","",""
"","html-keyboard-response","29","17982","0.0-29.0","3K4J6M3CXFF4Q8QE4JQEZQO4JRGAGX","AHKYVHP6591H8","3PIOQ99R7Y8STPN46QFY0SD7JTFNU0","","null","<img src=""img/food5.png"" style=""width:200px;border:14px solid red;"">","null","","","","","","","","","",""
"","image-keyboard-response","30","18307","0.0-30.0","3K4J6M3CXFF4Q8QE4JQEZQO4JRGAGX","AHKYVHP6591H8","3PIOQ99R7Y8STPN46QFY0SD7JTFNU0","","321.79999999981374","img/food3.png","74","324","1","1","1","1","1,0.5,0,1,0.5,0,0.5,0,1","1,0.5,0,1,0.5,0,0.5,0,1","1","",""
"","html-keyboard-response","31","18614","0.0-31.0","3K4J6M3CXFF4Q8QE4JQEZQO4JRGAGX","AHKYVHP6591H8","3PIOQ99R7Y8STPN46QFY0SD7JTFNU0","","null","<img src=""img/food3.png"" style=""width:200px; border:14px solid green;"">","null","","","","","","","","","",""
"","image-keyboard-response","32","18899","0.0-32.0","3K4J6M3CXFF4Q8QE4JQEZQO4JRGAGX","AHKYVHP6591H8","3PIOQ99R7Y8STPN46QFY0SD7JTFNU0","","282.09999999962747","img/food3.png","75","283.79999999981374","2","1","1","1","1,0.5,0,1,0.5,0,0.5,0,1","1,0.5,0,1,0.5,0,0.5,0,1","1","",""
"","html-keyboard-response","33","19206","0.0-33.0","3K4J6M3CXFF4Q8QE4JQEZQO4JRGAGX","AHKYVHP6591H8","3PIOQ99R7Y8STPN46QFY0SD7JTFNU0","","null","<img src=""img/food3.png"" style=""width:200px; border:14px solid green;"">","null","","","","","","","","","",""
"","image-keyboard-response","34","19250","0.0-34.0","3K4J6M3CXFF4Q8QE4JQEZQO4JRGAGX","AHKYVHP6591H8","3PIOQ99R7Y8STPN46QFY0SD7JTFNU0","","41.200000000186265","img/food5.png","75","42.90000000037253","2","0","2","1","1,0.5,0,1,0.5,0,0.5,0,1","1,0.5,0,1,0.5,0,0.5,0,1","1","",""
"","html-keyboard-response","35","19559","0.0-35.0","3K4J6M3CXFF4Q8QE4JQEZQO4JRGAGX","AHKYVHP6591H8","3PIOQ99R7Y8STPN46QFY0SD7JTFNU0","","null","<img src=""img/food5.png"" style=""width:200px;border:14px solid red;"">","null","","","","","","","","","",""
"","image-keyboard-response","36","19619","0.0-36.0","3K4J6M3CXFF4Q8QE4JQEZQO4JRGAGX","AHKYVHP6591H8","3PIOQ99R7Y8STPN46QFY0SD7JTFNU0","","58.299999999813735","img/food1.png","76","59.89999999944121","3","1","3","1","1,0.5,0,1,0.5,0,0.5,0,1","1,0.5,0,1,0.5,0,0.5,0,1","1","",""
"","html-keyboard-response","37","19926","0.0-37.0","3K4J6M3CXFF4Q8QE4JQEZQO4JRGAGX","AHKYVHP6591H8","3PIOQ99R7Y8STPN46QFY0SD7JTFNU0","","null","<img src=""img/food1.png"" style=""width:200px; border:14px solid green;"">","null","","","","","","","","","",""
"","image-keyboard-response","38","20003","0.0-38.0","3K4J6M3CXFF4Q8QE4JQEZQO4JRGAGX","AHKYVHP6591H8","3PIOQ99R7Y8STPN46QFY0SD7JTFNU0","","74.5","img/food3.png","76","76.3999999994412","3","0","1","1","1,0.5,0,1,0.5,0,0.5,0,1","1,0.5,0,1,0.5,0,0.5,0,1","1","",""
"","html-keyboard-response","39","20310","0.0-39.0","3K4J6M3CXFF4Q8QE4JQEZQO4JRGAGX","AHKYVHP6591H8","3PIOQ99R7Y8STPN46QFY0SD7JTFNU0","","null","<img src=""img/food3.png"" style=""width:200px;border:14px solid red;"">","null","","","","","","","","","",""
"","image-keyboard-response","40","20386","0.0-40.0","3K4J6M3CXFF4Q8QE4JQEZQO4JRGAGX","AHKYVHP6591H8","3PIOQ99R7Y8STPN46QFY0SD7JTFNU0","","74.09999999962747","img/food3.png","76","75.59999999962747","3","0","1","1","1,0.5,0,1,0.5,0,0.5,0,1","1,0.5,0,1,0.5,0,0.5,0,1","1","",""
"","html-keyboard-response","41","20694","0.0-41.0","3K4J6M3CXFF4Q8QE4JQEZQO4JRGAGX","AHKYVHP6591H8","3PIOQ99R7Y8STPN46QFY0SD7JTFNU0","","null","<img src=""img/food3.png"" style=""width:200px;border:14px solid red;"">","null","","","","","","","","","",""
"","image-keyboard-response","42","20961","0.0-42.0","3K4J6M3CXFF4Q8QE4JQEZQO4JRGAGX","AHKYVHP6591H8","3PIOQ99R7Y8STPN46QFY0SD7JTFNU0","","265","img/food3.png","74","266.3999999994412","1","1","1","1","1,0.5,0,1,0.5,0,0.5,0,1","1,0.5,0,1,0.5,0,0.5,0,1","1","",""
"","html-keyboard-response","43","21270","0.0-43.0","3K4J6M3CXFF4Q8QE4JQEZQO4JRGAGX","AHKYVHP6591H8","3PIOQ99R7Y8STPN46QFY0SD7JTFNU0","","null","<img src=""img/food3.png"" style=""width:200px; border:14px solid green;"">","null","","","","","","","","","",""
"","image-keyboard-response","44","21506","0.0-44.0","3K4J6M3CXFF4Q8QE4JQEZQO4JRGAGX","AHKYVHP6591H8","3PIOQ99R7Y8STPN46QFY0SD7JTFNU0","","233.69999999925494","img/food3.png","74","235.40000000037253","1","1","1","1","1,0.5,0,1,0.5,0,0.5,0,1","1,0.5,0,1,0.5,0,0.5,0,1","1","",""
"","html-keyboard-response","45","21815","0.0-45.0","3K4J6M3CXFF4Q8QE4JQEZQO4JRGAGX","AHKYVHP6591H8","3PIOQ99R7Y8STPN46QFY0SD7JTFNU0","","null","<img src=""img/food3.png"" style=""width:200px; border:14px solid green;"">","null","","","","","","","","","",""
"","image-keyboard-response","46","21907","0.0-46.0","3K4J6M3CXFF4Q8QE4JQEZQO4JRGAGX","AHKYVHP6591H8","3PIOQ99R7Y8STPN46QFY0SD7JTFNU0","","89.70000000018626","img/food5.png","74","91.40000000037253","1","1","2","1","1,0.5,0,1,0.5,0,0.5,0,1","1,0.5,0,1,0.5,0,0.5,0,1","1","",""
"","html-keyboard-response","47","22214","0.0-47.0","3K4J6M3CXFF4Q8QE4JQEZQO4JRGAGX","AHKYVHP6591H8","3PIOQ99R7Y8STPN46QFY0SD7JTFNU0","","null","<img src=""img/food5.png"" style=""width:200px; border:14px solid green;"">","null","","","","","","","","","",""
"","image-keyboard-response","48","22290","0.0-48.0","3K4J6M3CXFF4Q8QE4JQEZQO4JRGAGX","AHKYVHP6591H8","3PIOQ99R7Y8STPN46QFY0SD7JTFNU0","","73.59999999962747","img/food3.png","75","75.79999999981374","2","1","1","1","1,0.5,0,1,0.5,0,0.5,0,1","1,0.5,0,1,0.5,0,0.5,0,1","1","",""
"","html-keyboard-response","49","22598","0.0-49.0","3K4J6M3CXFF4Q8QE4JQEZQO4JRGAGX","AHKYVHP6591H8","3PIOQ99R7Y8STPN46QFY0SD7JTFNU0","","null","<img src=""img/food3.png"" style=""width:200px; border:14px solid green;"">","null","","","","","","","","","",""
"","image-keyboard-response","50","22626","0.0-50.0","3K4J6M3CXFF4Q8QE4JQEZQO4JRGAGX","AHKYVHP6591H8","3PIOQ99R7Y8STPN46QFY0SD7JTFNU0","","26","img/food3.png","75","27.700000000186265","2","1","1","1","1,0.5,0,1,0.5,0,0.5,0,1","1,0.5,0,1,0.5,0,0.5,0,1","1","",""
"","html-keyboard-response","51","22934","0.0-51.0","3K4J6M3CXFF4Q8QE4JQEZQO4JRGAGX","AHKYVHP6591H8","3PIOQ99R7Y8STPN46QFY0SD7JTFNU0","","null","<img src=""img/food3.png"" style=""width:200px; border:14px solid green;"">","null","","","","","","","","","",""
"","image-keyboard-response","52","22979","0.0-52.0","3K4J6M3CXFF4Q8QE4JQEZQO4JRGAGX","AHKYVHP6591H8","3PIOQ99R7Y8STPN46QFY0SD7JTFNU0","","42.200000000186265","img/food5.png","76","43.90000000037253","3","0","2","1","1,0.5,0,1,0.5,0,0.5,0,1","1,0.5,0,1,0.5,0,0.5,0,1","1","",""
"","html-keyboard-response","53","23286","0.0-53.0","3K4J6M3CXFF4Q8QE4JQEZQO4JRGAGX","AHKYVHP6591H8","3PIOQ99R7Y8STPN46QFY0SD7JTFNU0","","null","<img src=""img/food5.png"" style=""width:200px;border:14px solid red;"">","null","","","","","","","","","",""
"","image-keyboard-response","54","23314","0.0-54.0","3K4J6M3CXFF4Q8QE4JQEZQO4JRGAGX","AHKYVHP6591H8","3PIOQ99R7Y8STPN46QFY0SD7JTFNU0","","25.5","img/food5.png","76","27.399999999441206","3","0","2","1","1,0.5,0,1,0.5,0,0.5,0,1","1,0.5,0,1,0.5,0,0.5,0,1","1","",""
"","html-keyboard-response","55","23622","0.0-55.0","3K4J6M3CXFF4Q8QE4JQEZQO4JRGAGX","AHKYVHP6591H8","3PIOQ99R7Y8STPN46QFY0SD7JTFNU0","","null","<img src=""img/food5.png"" style=""width:200px;border:14px solid red;"">","null","","","","","","","","","",""
"","image-keyboard-response","56","23811","0.0-56.0","3K4J6M3CXFF4Q8QE4JQEZQO4JRGAGX","AHKYVHP6591H8","3PIOQ99R7Y8STPN46QFY0SD7JTFNU0","","185.90000000037253","img/food1.png","75","188.20000000018626","2","0","3","1","1,0.5,0,1,0.5,0,0.5,0,1","1,0.5,0,1,0.5,0,0.5,0,1","1","",""
"","html-keyboard-response","57","24118","0.0-57.0","3K4J6M3CXFF4Q8QE4JQEZQO4JRGAGX","AHKYVHP6591H8","3PIOQ99R7Y8STPN46QFY0SD7JTFNU0","","null","<img src=""img/food1.png"" style=""width:200px;border:14px solid red;"">","null","","","","","","","","","",""
"","image-keyboard-response","58","24323","0.0-58.0","3K4J6M3CXFF4Q8QE4JQEZQO4JRGAGX","AHKYVHP6591H8","3PIOQ99R7Y8STPN46QFY0SD7JTFNU0","","202","img/food1.png","75","204.40000000037253","2","0","3","1","1,0.5,0,1,0.5,0,0.5,0,1","1,0.5,0,1,0.5,0,0.5,0,1","1","",""
"","html-keyboard-response","59","24630","0.0-59.0","3K4J6M3CXFF4Q8QE4JQEZQO4JRGAGX","AHKYVHP6591H8","3PIOQ99R7Y8STPN46QFY0SD7JTFNU0","","null","<img src=""img/food1.png"" style=""width:200px;border:14px solid red;"">","null","","","","","","","","","",""
"","image-keyboard-response","60","24658","0.0-60.0","3K4J6M3CXFF4Q8QE4JQEZQO4JRGAGX","AHKYVHP6591H8","3PIOQ99R7Y8STPN46QFY0SD7JTFNU0","","25.5","img/food5.png","76","26.800000000745058","3","0","2","1","1,0.5,0,1,0.5,0,0.5,0,1","1,0.5,0,1,0.5,0,0.5,0,1","1","",""
"","html-keyboard-response","61","24966","0.0-61.0","3K4J6M3CXFF4Q8QE4JQEZQO4JRGAGX","AHKYVHP6591H8","3PIOQ99R7Y8STPN46QFY0SD7JTFNU0","","null","<img src=""img/food5.png"" style=""width:200px;border:14px solid red;"">","null","","","","","","","","","",""
"","image-keyboard-response","62","25010","0.0-62.0","3K4J6M3CXFF4Q8QE4JQEZQO4JRGAGX","AHKYVHP6591H8","3PIOQ99R7Y8STPN46QFY0SD7JTFNU0","","42","img/food1.png","76","43.799999999813735","3","1","3","1","1,0.5,0,1,0.5,0,0.5,0,1","1,0.5,0,1,0.5,0,0.5,0,1","1","",""
"","html-keyboard-response","63","25319","0.0-63.0","3K4J6M3CXFF4Q8QE4JQEZQO4JRGAGX","AHKYVHP6591H8","3PIOQ99R7Y8STPN46QFY0SD7JTFNU0","","null","<img src=""img/food1.png"" style=""width:200px; border:14px solid green;"">","null","","","","","","","","","",""
"","image-keyboard-response","64","25362","0.0-64.0","3K4J6M3CXFF4Q8QE4JQEZQO4JRGAGX","AHKYVHP6591H8","3PIOQ99R7Y8STPN46QFY0SD7JTFNU0","","41.09999999962747","img/food5.png","76","42.59999999962747","3","0","2","1","1,0.5,0,1,0.5,0,0.5,0,1","1,0.5,0,1,0.5,0,0.5,0,1","1","",""
"","html-keyboard-response","65","25671","0.0-65.0","3K4J6M3CXFF4Q8QE4JQEZQO4JRGAGX","AHKYVHP6591H8","3PIOQ99R7Y8STPN46QFY0SD7JTFNU0","","null","<img src=""img/food5.png"" style=""width:200px;border:14px solid red;"">","null","","","","","","","","","",""
"","image-keyboard-response","66","25939","0.0-66.0","3K4J6M3CXFF4Q8QE4JQEZQO4JRGAGX","AHKYVHP6591H8","3PIOQ99R7Y8STPN46QFY0SD7JTFNU0","","266","img/food3.png","75","267.3999999994412","2","0","1","1","1,0.5,0,1,0.5,0,0.5,0,1","1,0.5,0,1,0.5,0,0.5,0,1","1","",""
"","html-keyboard-response","67","26247","0.0-67.0","3K4J6M3CXFF4Q8QE4JQEZQO4JRGAGX","AHKYVHP6591H8","3PIOQ99R7Y8STPN46QFY0SD7JTFNU0","","null","<img src=""img/food3.png"" style=""width:200px;border:14px solid red;"">","null","","","","","","","","","",""
"","image-keyboard-response","68","26515","0.0-68.0","3K4J6M3CXFF4Q8QE4JQEZQO4JRGAGX","AHKYVHP6591H8","3PIOQ99R7Y8STPN46QFY0SD7JTFNU0","","265.79999999981374","img/food5.png","74","268","1","1","2","1","1,0.5,0,1,0.5,0,0.5,0,1","1,0.5,0,1,0.5,0,0.5,0,1","1","",""
"","html-keyboard-response","69","26822","0.0-69.0","3K4J6M3CXFF4Q8QE4JQEZQO4JRGAGX","AHKYVHP6591H8","3PIOQ99R7Y8STPN46QFY0SD7JTFNU0","","null","<img src=""img/food5.png"" style=""width:200px; border:14px solid green;"">","null","","","","","","","","","",""
"","image-keyboard-response","70","27026","0.0-70.0","3K4J6M3CXFF4Q8QE4JQEZQO4JRGAGX","AHKYVHP6591H8","3PIOQ99R7Y8STPN46QFY0SD7JTFNU0","","202.29999999981374","img/food3.png","75","204","2","1","1","1","1,0.5,0,1,0.5,0,0.5,0,1","1,0.5,0,1,0.5,0,0.5,0,1","1","",""
"","html-keyboard-response","71","27334","0.0-71.0","3K4J6M3CXFF4Q8QE4JQEZQO4JRGAGX","AHKYVHP6591H8","3PIOQ99R7Y8STPN46QFY0SD7JTFNU0","","null","<img src=""img/food3.png"" style=""width:200px; border:14px solid green;"">","null","","","","","","","","","",""
"","image-keyboard-response","72","27507","0.0-72.0","3K4J6M3CXFF4Q8QE4JQEZQO4JRGAGX","AHKYVHP6591H8","3PIOQ99R7Y8STPN46QFY0SD7JTFNU0","","169.90000000037253","img/food3.png","75","171.5","2","0","1","1","1,0.5,0,1,0.5,0,0.5,0,1","1,0.5,0,1,0.5,0,0.5,0,1","1","",""
"","html-keyboard-response","73","27811","0.0-73.0","3K4J6M3CXFF4Q8QE4JQEZQO4JRGAGX","AHKYVHP6591H8","3PIOQ99R7Y8STPN46QFY0SD7JTFNU0","","null","<img src=""img/food3.png"" style=""width:200px;border:14px solid red;"">","null","","","","","","","","","",""
"","image-keyboard-response","74","28035","0.0-74.0","3K4J6M3CXFF4Q8QE4JQEZQO4JRGAGX","AHKYVHP6591H8","3PIOQ99R7Y8STPN46QFY0SD7JTFNU0","","221.8999999994412","img/food3.png","76","223.5","3","0","1","1","1,0.5,0,1,0.5,0,0.5,0,1","1,0.5,0,1,0.5,0,0.5,0,1","1","",""
"","html-keyboard-response","75","28342","0.0-75.0","3K4J6M3CXFF4Q8QE4JQEZQO4JRGAGX","AHKYVHP6591H8","3PIOQ99R7Y8STPN46QFY0SD7JTFNU0","","null","<img src=""img/food3.png"" style=""width:200px;border:14px solid red;"">","null","","","","","","","","","",""
"","image-keyboard-response","76","28353","0.0-76.0","3K4J6M3CXFF4Q8QE4JQEZQO4JRGAGX","AHKYVHP6591H8","3PIOQ99R7Y8STPN46QFY0SD7JTFNU0","","8.799999999813735","img/food5.png","76","10.100000000558794","3","0","2","1","1,0.5,0,1,0.5,0,0.5,0,1","1,0.5,0,1,0.5,0,0.5,0,1","1","",""
"","html-keyboard-response","77","28663","0.0-77.0","3K4J6M3CXFF4Q8QE4JQEZQO4JRGAGX","AHKYVHP6591H8","3PIOQ99R7Y8STPN46QFY0SD7JTFNU0","","null","<img src=""img/food5.png"" style=""width:200px;border:14px solid red;"">","null","","","","","","","","","",""
"","image-keyboard-response","78","28803","0.0-78.0","3K4J6M3CXFF4Q8QE4JQEZQO4JRGAGX","AHKYVHP6591H8","3PIOQ99R7Y8STPN46QFY0SD7JTFNU0","","137.70000000018626","img/food1.png","76","139.59999999962747","3","1","3","1","1,0.5,0,1,0.5,0,0.5,0,1","1,0.5,0,1,0.5,0,0.5,0,1","1","",""
"","html-keyboard-response","79","29110","0.0-79.0","3K4J6M3CXFF4Q8QE4JQEZQO4JRGAGX","AHKYVHP6591H8","3PIOQ99R7Y8STPN46QFY0SD7JTFNU0","","null","<img src=""img/food1.png"" style=""width:200px; border:14px solid green;"">","null","","","","","","","","","",""
"","image-keyboard-response","80","29331","0.0-80.0","3K4J6M3CXFF4Q8QE4JQEZQO4JRGAGX","AHKYVHP6591H8","3PIOQ99R7Y8STPN46QFY0SD7JTFNU0","","218.09999999962747","img/food3.png","75","220.20000000018626","2","0","1","1","1,0.5,0,1,0.5,0,0.5,0,1","1,0.5,0,1,0.5,0,0.5,0,1","1","",""
"","html-keyboard-response","81","29638","0.0-81.0","3K4J6M3CXFF4Q8QE4JQEZQO4JRGAGX","AHKYVHP6591H8","3PIOQ99R7Y8STPN46QFY0SD7JTFNU0","","null","<img src=""img/food3.png"" style=""width:200px;border:14px solid red;"">","null","","","","","","","","","",""
"","image-keyboard-response","82","29842","0.0-82.0","3K4J6M3CXFF4Q8QE4JQEZQO4JRGAGX","AHKYVHP6591H8","3PIOQ99R7Y8STPN46QFY0SD7JTFNU0","","202.6000000005588","img/food5.png","74","204.1000000005588","1","1","2","1","1,0.5,0,1,0.5,0,0.5,0,1","1,0.5,0,1,0.5,0,0.5,0,1","1","",""
"","html-keyboard-response","83","30150","0.0-83.0","3K4J6M3CXFF4Q8QE4JQEZQO4JRGAGX","AHKYVHP6591H8","3PIOQ99R7Y8STPN46QFY0SD7JTFNU0","","null","<img src=""img/food5.png"" style=""width:200px; border:14px solid green;"">","null","","","","","","","","","",""
"","image-keyboard-response","84","30387","0.0-84.0","3K4J6M3CXFF4Q8QE4JQEZQO4JRGAGX","AHKYVHP6591H8","3PIOQ99R7Y8STPN46QFY0SD7JTFNU0","","234.79999999981374","img/food5.png","75","236.40000000037253","2","0","2","1","1,0.5,0,1,0.5,0,0.5,0,1","1,0.5,0,1,0.5,0,0.5,0,1","1","",""
"","html-keyboard-response","85","30694","0.0-85.0","3K4J6M3CXFF4Q8QE4JQEZQO4JRGAGX","AHKYVHP6591H8","3PIOQ99R7Y8STPN46QFY0SD7JTFNU0","","null","<img src=""img/food5.png"" style=""width:200px;border:14px solid red;"">","null","","","","","","","","","",""
"","image-keyboard-response","86","30883","0.0-86.0","3K4J6M3CXFF4Q8QE4JQEZQO4JRGAGX","AHKYVHP6591H8","3PIOQ99R7Y8STPN46QFY0SD7JTFNU0","","186","img/food1.png","76","187.8999999994412","3","1","3","1","1,0.5,0,1,0.5,0,0.5,0,1","1,0.5,0,1,0.5,0,0.5,0,1","1","",""
"","html-keyboard-response","87","31190","0.0-87.0","3K4J6M3CXFF4Q8QE4JQEZQO4JRGAGX","AHKYVHP6591H8","3PIOQ99R7Y8STPN46QFY0SD7JTFNU0","","null","<img src=""img/food1.png"" style=""width:200px; border:14px solid green;"">","null","","","","","","","","","",""
"","image-keyboard-response","88","31331","0.0-88.0","3K4J6M3CXFF4Q8QE4JQEZQO4JRGAGX","AHKYVHP6591H8","3PIOQ99R7Y8STPN46QFY0SD7JTFNU0","","138.5","img/food3.png","76","140.09999999962747","3","0","1","1","1,0.5,0,1,0.5,0,0.5,0,1","1,0.5,0,1,0.5,0,0.5,0,1","1","",""
"","html-keyboard-response","89","31638","0.0-89.0","3K4J6M3CXFF4Q8QE4JQEZQO4JRGAGX","AHKYVHP6591H8","3PIOQ99R7Y8STPN46QFY0SD7JTFNU0","","null","<img src=""img/food3.png"" style=""width:200px;border:14px solid red;"">","null","","","","","","","","","",""
"","image-keyboard-response","90","31843","0.0-90.0","3K4J6M3CXFF4Q8QE4JQEZQO4JRGAGX","AHKYVHP6591H8","3PIOQ99R7Y8STPN46QFY0SD7JTFNU0","","202","img/food3.png","74","203.79999999981374","1","1","1","1","1,0.5,0,1,0.5,0,0.5,0,1","1,0.5,0,1,0.5,0,0.5,0,1","1","",""
"","html-keyboard-response","91","32150","0.0-91.0","3K4J6M3CXFF4Q8QE4JQEZQO4JRGAGX","AHKYVHP6591H8","3PIOQ99R7Y8STPN46QFY0SD7JTFNU0","","null","<img src=""img/food3.png"" style=""width:200px; border:14px solid green;"">","null","","","","","","","","","",""
"","image-keyboard-response","92","32482","0.0-92.0","3K4J6M3CXFF4Q8QE4JQEZQO4JRGAGX","AHKYVHP6591H8","3PIOQ99R7Y8STPN46QFY0SD7JTFNU0","","330.69999999925494","img/food3.png","75","332.29999999981374","2","1","1","1","1,0.5,0,1,0.5,0,0.5,0,1","1,0.5,0,1,0.5,0,0.5,0,1","1","",""
"","html-keyboard-response","93","32790","0.0-93.0","3K4J6M3CXFF4Q8QE4JQEZQO4JRGAGX","AHKYVHP6591H8","3PIOQ99R7Y8STPN46QFY0SD7JTFNU0","","null","<img src=""img/food3.png"" style=""width:200px; border:14px solid green;"">","null","","","","","","","","","",""
"","image-keyboard-response","94","33010","0.0-94.0","3K4J6M3CXFF4Q8QE4JQEZQO4JRGAGX","AHKYVHP6591H8","3PIOQ99R7Y8STPN46QFY0SD7JTFNU0","","218.1000000005588","img/food1.png","76","219.70000000018626","3","1","3","1","1,0.5,0,1,0.5,0,0.5,0,1","1,0.5,0,1,0.5,0,0.5,0,1","1","",""
"","html-keyboard-response","95","33314","0.0-95.0","3K4J6M3CXFF4Q8QE4JQEZQO4JRGAGX","AHKYVHP6591H8","3PIOQ99R7Y8STPN46QFY0SD7JTFNU0","","null","<img src=""img/food1.png"" style=""width:200px; border:14px solid green;"">","null","","","","","","","","","",""
"","image-keyboard-response","96","33556","0.0-96.0","3K4J6M3CXFF4Q8QE4JQEZQO4JRGAGX","AHKYVHP6591H8","3PIOQ99R7Y8STPN46QFY0SD7JTFNU0","","239.70000000018626","img/food5.png","75","241.1000000005588","2","1","2","1","1,0.5,0,1,0.5,0,0.5,0,1","1,0.5,0,1,0.5,0,0.5,0,1","1","",""
"","html-keyboard-response","97","33862","0.0-97.0","3K4J6M3CXFF4Q8QE4JQEZQO4JRGAGX","AHKYVHP6591H8","3PIOQ99R7Y8STPN46QFY0SD7JTFNU0","","null","<img src=""img/food5.png"" style=""width:200px; border:14px solid green;"">","null","","","","","","","","","",""
"","image-keyboard-response","98","33873","0.0-98.0","3K4J6M3CXFF4Q8QE4JQEZQO4JRGAGX","AHKYVHP6591H8","3PIOQ99R7Y8STPN46QFY0SD7JTFNU0","","8.799999999813735","img/food1.png","75","10.200000000186265","2","0","3","1","1,0.5,0,1,0.5,0,0.5,0,1","1,0.5,0,1,0.5,0,0.5,0,1","1","",""
"","html-keyboard-response","99","34182","0.0-99.0","3K4J6M3CXFF4Q8QE4JQEZQO4JRGAGX","AHKYVHP6591H8","3PIOQ99R7Y8STPN46QFY0SD7JTFNU0","","null","<img src=""img/food1.png"" style=""width:200px;border:14px solid red;"">","null","","","","","","","","","",""
"","image-keyboard-response","100","34210","0.0-100.0","3K4J6M3CXFF4Q8QE4JQEZQO4JRGAGX","AHKYVHP6591H8","3PIOQ99R7Y8STPN46QFY0SD7JTFNU0","","25.600000000558794","img/food5.png","74","27.09999999962747","1","1","2","1","1,0.5,0,1,0.5,0,0.5,0,1","1,0.5,0,1,0.5,0,0.5,0,1","1","",""
"","html-keyboard-response","101","34519","0.0-101.0","3K4J6M3CXFF4Q8QE4JQEZQO4JRGAGX","AHKYVHP6591H8","3PIOQ99R7Y8STPN46QFY0SD7JTFNU0","","null","<img src=""img/food5.png"" style=""width:200px; border:14px solid green;"">","null","","","","","","","","","",""
"","image-keyboard-response","102","34690","0.0-102.0","3K4J6M3CXFF4Q8QE4JQEZQO4JRGAGX","AHKYVHP6591H8","3PIOQ99R7Y8STPN46QFY0SD7JTFNU0","","169.09999999962747","img/food3.png","74","171.29999999981374","1","1","1","1","1,0.5,0,1,0.5,0,0.5,0,1","1,0.5,0,1,0.5,0,0.5,0,1","1","",""
"","html-keyboard-response","103","34999","0.0-103.0","3K4J6M3CXFF4Q8QE4JQEZQO4JRGAGX","AHKYVHP6591H8","3PIOQ99R7Y8STPN46QFY0SD7JTFNU0","","null","<img src=""img/food3.png"" style=""width:200px; border:14px solid green;"">","null","","","","","","","","","",""
"","image-keyboard-response","104","35346","0.0-104.0","3K4J6M3CXFF4Q8QE4JQEZQO4JRGAGX","AHKYVHP6591H8","3PIOQ99R7Y8STPN46QFY0SD7JTFNU0","","345.79999999981374","img/food5.png","74","347.40000000037253","1","1","2","1","1,0.5,0,1,0.5,0,0.5,0,1","1,0.5,0,1,0.5,0,0.5,0,1","1","",""
"","html-keyboard-response","105","35651","0.0-105.0","3K4J6M3CXFF4Q8QE4JQEZQO4JRGAGX","AHKYVHP6591H8","3PIOQ99R7Y8STPN46QFY0SD7JTFNU0","","null","<img src=""img/food5.png"" style=""width:200px; border:14px solid green;"">","null","","","","","","","","","",""
"","image-keyboard-response","106","35955","0.0-106.0","3K4J6M3CXFF4Q8QE4JQEZQO4JRGAGX","AHKYVHP6591H8","3PIOQ99R7Y8STPN46QFY0SD7JTFNU0","","301.29999999981374","img/food3.png","76","303.79999999981374","3","0","1","1","1,0.5,0,1,0.5,0,0.5,0,1","1,0.5,0,1,0.5,0,0.5,0,1","1","",""
"","html-keyboard-response","107","36262","0.0-107.0","3K4J6M3CXFF4Q8QE4JQEZQO4JRGAGX","AHKYVHP6591H8","3PIOQ99R7Y8STPN46QFY0SD7JTFNU0","","null","<img src=""img/food3.png"" style=""width:200px;border:14px solid red;"">","null","","","","","","","","","",""
"","image-keyboard-response","108","36579","0.0-108.0","3K4J6M3CXFF4Q8QE4JQEZQO4JRGAGX","AHKYVHP6591H8","3PIOQ99R7Y8STPN46QFY0SD7JTFNU0","","314","img/food3.png","75","315.69999999925494","2","1","1","1","1,0.5,0,1,0.5,0,0.5,0,1","1,0.5,0,1,0.5,0,0.5,0,1","1","",""
"","html-keyboard-response","109","36883","0.0-109.0","3K4J6M3CXFF4Q8QE4JQEZQO4JRGAGX","AHKYVHP6591H8","3PIOQ99R7Y8STPN46QFY0SD7JTFNU0","","null","<img src=""img/food3.png"" style=""width:200px; border:14px solid green;"">","null","","","","","","","","","",""
"","image-keyboard-response","110","37170","0.0-110.0","3K4J6M3CXFF4Q8QE4JQEZQO4JRGAGX","AHKYVHP6591H8","3PIOQ99R7Y8STPN46QFY0SD7JTFNU0","","285","img/food1.png","75","286.6000000005588","2","0","3","1","1,0.5,0,1,0.5,0,0.5,0,1","1,0.5,0,1,0.5,0,0.5,0,1","1","",""
"","html-keyboard-response","111","37478","0.0-111.0","3K4J6M3CXFF4Q8QE4JQEZQO4JRGAGX","AHKYVHP6591H8","3PIOQ99R7Y8STPN46QFY0SD7JTFNU0","","null","<img src=""img/food1.png"" style=""width:200px;border:14px solid red;"">","null","","","","","","","","","",""
"","image-keyboard-response","112","37763","0.0-112.0","3K4J6M3CXFF4Q8QE4JQEZQO4JRGAGX","AHKYVHP6591H8","3PIOQ99R7Y8STPN46QFY0SD7JTFNU0","","282.5","img/food3.png","75","284","2","1","1","1","1,0.5,0,1,0.5,0,0.5,0,1","1,0.5,0,1,0.5,0,0.5,0,1","1","",""
"","html-keyboard-response","113","38070","0.0-113.0","3K4J6M3CXFF4Q8QE4JQEZQO4JRGAGX","AHKYVHP6591H8","3PIOQ99R7Y8STPN46QFY0SD7JTFNU0","","null","<img src=""img/food3.png"" style=""width:200px; border:14px solid green;"">","null","","","","","","","","","",""
"","image-keyboard-response","114","38339","0.0-114.0","3K4J6M3CXFF4Q8QE4JQEZQO4JRGAGX","AHKYVHP6591H8","3PIOQ99R7Y8STPN46QFY0SD7JTFNU0","","265.5","img/food1.png","76","267.29999999981374","3","1","3","1","1,0.5,0,1,0.5,0,0.5,0,1","1,0.5,0,1,0.5,0,0.5,0,1","1","",""
"","html-keyboard-response","115","38646","0.0-115.0","3K4J6M3CXFF4Q8QE4JQEZQO4JRGAGX","AHKYVHP6591H8","3PIOQ99R7Y8STPN46QFY0SD7JTFNU0","","null","<img src=""img/food1.png"" style=""width:200px; border:14px solid green;"">","null","","","","","","","","","",""
"","image-keyboard-response","116","38882","0.0-116.0","3K4J6M3CXFF4Q8QE4JQEZQO4JRGAGX","AHKYVHP6591H8","3PIOQ99R7Y8STPN46QFY0SD7JTFNU0","","234.19999999925494","img/food1.png","76","235.5","3","1","3","1","1,0.5,0,1,0.5,0,0.5,0,1","1,0.5,0,1,0.5,0,0.5,0,1","1","",""
"","html-keyboard-response","117","39190","0.0-117.0","3K4J6M3CXFF4Q8QE4JQEZQO4JRGAGX","AHKYVHP6591H8","3PIOQ99R7Y8STPN46QFY0SD7JTFNU0","","null","<img src=""img/food1.png"" style=""width:200px; border:14px solid green;"">","null","","","","","","","","","",""
"","image-keyboard-response","118","39394","0.0-118.0","3K4J6M3CXFF4Q8QE4JQEZQO4JRGAGX","AHKYVHP6591H8","3PIOQ99R7Y8STPN46QFY0SD7JTFNU0","","202.09999999962747","img/food1.png","74","203.5","1","1","3","1","1,0.5,0,1,0.5,0,0.5,0,1","1,0.5,0,1,0.5,0,0.5,0,1","1","",""
"","html-keyboard-response","119","39702","0.0-119.0","3K4J6M3CXFF4Q8QE4JQEZQO4JRGAGX","AHKYVHP6591H8","3PIOQ99R7Y8STPN46QFY0SD7JTFNU0","","null","<img src=""img/food1.png"" style=""width:200px; border:14px solid green;"">","null","","","","","","","","","",""
"","image-keyboard-response","120","39955","0.0-120.0","3K4J6M3CXFF4Q8QE4JQEZQO4JRGAGX","AHKYVHP6591H8","3PIOQ99R7Y8STPN46QFY0SD7JTFNU0","","250","img/food3.png","76","252.20000000018626","3","0","1","1","1,0.5,0,1,0.5,0,0.5,0,1","1,0.5,0,1,0.5,0,0.5,0,1","1","",""
"","html-keyboard-response","121","40263","0.0-121.0","3K4J6M3CXFF4Q8QE4JQEZQO4JRGAGX","AHKYVHP6591H8","3PIOQ99R7Y8STPN46QFY0SD7JTFNU0","","null","<img src=""img/food3.png"" style=""width:200px;border:14px solid red;"">","null","","","","","","","","","",""
"","image-keyboard-response","122","40546","0.0-122.0","3K4J6M3CXFF4Q8QE4JQEZQO4JRGAGX","AHKYVHP6591H8","3PIOQ99R7Y8STPN46QFY0SD7JTFNU0","","282","img/food1.png","75","283.29999999981374","2","0","3","1","1,0.5,0,1,0.5,0,0.5,0,1","1,0.5,0,1,0.5,0,0.5,0,1","1","",""
"","html-keyboard-response","123","40855","0.0-123.0","3K4J6M3CXFF4Q8QE4JQEZQO4JRGAGX","AHKYVHP6591H8","3PIOQ99R7Y8STPN46QFY0SD7JTFNU0","","null","<img src=""img/food1.png"" style=""width:200px;border:14px solid red;"">","null","","","","","","","","","",""
"","image-keyboard-response","124","41074","0.0-124.0","3K4J6M3CXFF4Q8QE4JQEZQO4JRGAGX","AHKYVHP6591H8","3PIOQ99R7Y8STPN46QFY0SD7JTFNU0","","217.30000000074506","img/food5.png","75","219.1000000005588","2","0","2","1","1,0.5,0,1,0.5,0,0.5,0,1","1,0.5,0,1,0.5,0,0.5,0,1","1","",""
"","html-keyboard-response","125","41382","0.0-125.0","3K4J6M3CXFF4Q8QE4JQEZQO4JRGAGX","AHKYVHP6591H8","3PIOQ99R7Y8STPN46QFY0SD7JTFNU0","","null","<img src=""img/food5.png"" style=""width:200px;border:14px solid red;"">","null","","","","","","","","","",""
"","image-keyboard-response","126","41618","0.0-126.0","3K4J6M3CXFF4Q8QE4JQEZQO4JRGAGX","AHKYVHP6591H8","3PIOQ99R7Y8STPN46QFY0SD7JTFNU0","","234.20000000018626","img/food1.png","74","235.6000000005588","1","1","3","1","1,0.5,0,1,0.5,0,0.5,0,1","1,0.5,0,1,0.5,0,0.5,0,1","1","",""
"","html-keyboard-response","127","41926","0.0-127.0","3K4J6M3CXFF4Q8QE4JQEZQO4JRGAGX","AHKYVHP6591H8","3PIOQ99R7Y8STPN46QFY0SD7JTFNU0","","null","<img src=""img/food1.png"" style=""width:200px; border:14px solid green;"">","null","","","","","","","","","",""
"","image-keyboard-response","128","42114","0.0-128.0","3K4J6M3CXFF4Q8QE4JQEZQO4JRGAGX","AHKYVHP6591H8","3PIOQ99R7Y8STPN46QFY0SD7JTFNU0","","185.5","img/food1.png","74","187","1","1","3","1","1,0.5,0,1,0.5,0,0.5,0,1","1,0.5,0,1,0.5,0,0.5,0,1","1","",""
"","html-keyboard-response","129","42423","0.0-129.0","3K4J6M3CXFF4Q8QE4JQEZQO4JRGAGX","AHKYVHP6591H8","3PIOQ99R7Y8STPN46QFY0SD7JTFNU0","","null","<img src=""img/food1.png"" style=""width:200px; border:14px solid green;"">","null","","","","","","","","","",""
"","image-keyboard-response","130","42642","0.0-130.0","3K4J6M3CXFF4Q8QE4JQEZQO4JRGAGX","AHKYVHP6591H8","3PIOQ99R7Y8STPN46QFY0SD7JTFNU0","","217.79999999981374","img/food3.png","74","219.20000000018626","1","1","1","1","1,0.5,0,1,0.5,0,0.5,0,1","1,0.5,0,1,0.5,0,0.5,0,1","1","",""
"","html-keyboard-response","131","42951","0.0-131.0","3K4J6M3CXFF4Q8QE4JQEZQO4JRGAGX","AHKYVHP6591H8","3PIOQ99R7Y8STPN46QFY0SD7JTFNU0","","null","<img src=""img/food3.png"" style=""width:200px; border:14px solid green;"">","null","","","","","","","","","",""
"","image-keyboard-response","132","43154","0.0-132.0","3K4J6M3CXFF4Q8QE4JQEZQO4JRGAGX","AHKYVHP6591H8","3PIOQ99R7Y8STPN46QFY0SD7JTFNU0","","201.29999999981374","img/food1.png","76","203.29999999981374","3","1","3","1","1,0.5,0,1,0.5,0,0.5,0,1","1,0.5,0,1,0.5,0,0.5,0,1","1","",""
"","html-keyboard-response","133","43462","0.0-133.0","3K4J6M3CXFF4Q8QE4JQEZQO4JRGAGX","AHKYVHP6591H8","3PIOQ99R7Y8STPN46QFY0SD7JTFNU0","","null","<img src=""img/food1.png"" style=""width:200px; border:14px solid green;"">","null","","","","","","","","","",""
"","image-keyboard-response","134","43667","0.0-134.0","3K4J6M3CXFF4Q8QE4JQEZQO4JRGAGX","AHKYVHP6591H8","3PIOQ99R7Y8STPN46QFY0SD7JTFNU0","","203","img/food5.png","76","204.40000000037253","3","0","2","1","1,0.5,0,1,0.5,0,0.5,0,1","1,0.5,0,1,0.5,0,0.5,0,1","1","",""
"","html-keyboard-response","135","43974","0.0-135.0","3K4J6M3CXFF4Q8QE4JQEZQO4JRGAGX","AHKYVHP6591H8","3PIOQ99R7Y8STPN46QFY0SD7JTFNU0","","null","<img src=""img/food5.png"" style=""width:200px;border:14px solid red;"">","null","","","","","","","","","",""
"","image-keyboard-response","136","44162","0.0-136.0","3K4J6M3CXFF4Q8QE4JQEZQO4JRGAGX","AHKYVHP6591H8","3PIOQ99R7Y8STPN46QFY0SD7JTFNU0","","184.90000000037253","img/food3.png","75","187.20000000018626","2","1","1","1","1,0.5,0,1,0.5,0,0.5,0,1","1,0.5,0,1,0.5,0,0.5,0,1","1","",""
"","html-keyboard-response","137","44471","0.0-137.0","3K4J6M3CXFF4Q8QE4JQEZQO4JRGAGX","AHKYVHP6591H8","3PIOQ99R7Y8STPN46QFY0SD7JTFNU0","","null","<img src=""img/food3.png"" style=""width:200px; border:14px solid green;"">","null","","","","","","","","","",""
"","image-keyboard-response","138","44596","0.0-138.0","3K4J6M3CXFF4Q8QE4JQEZQO4JRGAGX","AHKYVHP6591H8","3PIOQ99R7Y8STPN46QFY0SD7JTFNU0","","121.20000000018626","img/food1.png","75","124.5","2","0","3","1","1,0.5,0,1,0.5,0,0.5,0,1","1,0.5,0,1,0.5,0,0.5,0,1","1","",""
"","html-keyboard-response","139","44902","0.0-139.0","3K4J6M3CXFF4Q8QE4JQEZQO4JRGAGX","AHKYVHP6591H8","3PIOQ99R7Y8STPN46QFY0SD7JTFNU0","","null","<img src=""img/food1.png"" style=""width:200px;border:14px solid red;"">","null","","","","","","","","","",""
"","image-keyboard-response","140","45105","0.0-140.0","3K4J6M3CXFF4Q8QE4JQEZQO4JRGAGX","AHKYVHP6591H8","3PIOQ99R7Y8STPN46QFY0SD7JTFNU0","","201.30000000074506","img/food3.png","75","202.80000000074506","2","1","1","1","1,0.5,0,1,0.5,0,0.5,0,1","1,0.5,0,1,0.5,0,0.5,0,1","1","",""
"","html-keyboard-response","141","45415","0.0-141.0","3K4J6M3CXFF4Q8QE4JQEZQO4JRGAGX","AHKYVHP6591H8","3PIOQ99R7Y8STPN46QFY0SD7JTFNU0","","null","<img src=""img/food3.png"" style=""width:200px; border:14px solid green;"">","null","","","","","","","","","",""
"","image-keyboard-response","142","45603","0.0-142.0","3K4J6M3CXFF4Q8QE4JQEZQO4JRGAGX","AHKYVHP6591H8","3PIOQ99R7Y8STPN46QFY0SD7JTFNU0","","185.5","img/food3.png","75","187.90000000037253","2","0","1","1","1,0.5,0,1,0.5,0,0.5,0,1","1,0.5,0,1,0.5,0,0.5,0,1","1","",""
"","html-keyboard-response","143","45910","0.0-143.0","3K4J6M3CXFF4Q8QE4JQEZQO4JRGAGX","AHKYVHP6591H8","3PIOQ99R7Y8STPN46QFY0SD7JTFNU0","","null","<img src=""img/food3.png"" style=""width:200px;border:14px solid red;"">","null","","","","","","","","","",""
"","image-keyboard-response","144","45986","0.0-144.0","3K4J6M3CXFF4Q8QE4JQEZQO4JRGAGX","AHKYVHP6591H8","3PIOQ99R7Y8STPN46QFY0SD7JTFNU0","","73.5","img/food5.png","74","75.1000000005588","1","1","2","1","1,0.5,0,1,0.5,0,0.5,0,1","1,0.5,0,1,0.5,0,0.5,0,1","1","",""
"","html-keyboard-response","145","46294","0.0-145.0","3K4J6M3CXFF4Q8QE4JQEZQO4JRGAGX","AHKYVHP6591H8","3PIOQ99R7Y8STPN46QFY0SD7JTFNU0","","null","<img src=""img/food5.png"" style=""width:200px; border:14px solid green;"">","null","","","","","","","","","",""
"","image-keyboard-response","146","46482","0.0-146.0","3K4J6M3CXFF4Q8QE4JQEZQO4JRGAGX","AHKYVHP6591H8","3PIOQ99R7Y8STPN46QFY0SD7JTFNU0","","185.40000000037253","img/food1.png","74","186.8999999994412","1","1","3","1","1,0.5,0,1,0.5,0,0.5,0,1","1,0.5,0,1,0.5,0,0.5,0,1","1","",""
"","html-keyboard-response","147","46791","0.0-147.0","3K4J6M3CXFF4Q8QE4JQEZQO4JRGAGX","AHKYVHP6591H8","3PIOQ99R7Y8STPN46QFY0SD7JTFNU0","","null","<img src=""img/food1.png"" style=""width:200px; border:14px solid green;"">","null","","","","","","","","","",""
"","image-keyboard-response","148","46995","0.0-148.0","3K4J6M3CXFF4Q8QE4JQEZQO4JRGAGX","AHKYVHP6591H8","3PIOQ99R7Y8STPN46QFY0SD7JTFNU0","","201.5","img/food3.png","74","203.3999999994412","1","1","1","1","1,0.5,0,1,0.5,0,0.5,0,1","1,0.5,0,1,0.5,0,0.5,0,1","1","",""
"","html-keyboard-response","149","47302","0.0-149.0","3K4J6M3CXFF4Q8QE4JQEZQO4JRGAGX","AHKYVHP6591H8","3PIOQ99R7Y8STPN46QFY0SD7JTFNU0","","null","<img src=""img/food3.png"" style=""width:200px; border:14px solid green;"">","null","","","","","","","","","",""
"","image-keyboard-response","150","47522","0.0-150.0","3K4J6M3CXFF4Q8QE4JQEZQO4JRGAGX","AHKYVHP6591H8","3PIOQ99R7Y8STPN46QFY0SD7JTFNU0","","217.20000000018626","img/food3.png","75","219.5","2","0","1","1","1,0.5,0,1,0.5,0,0.5,0,1","1,0.5,0,1,0.5,0,0.5,0,1","1","",""
"","html-keyboard-response","151","47831","0.0-151.0","3K4J6M3CXFF4Q8QE4JQEZQO4JRGAGX","AHKYVHP6591H8","3PIOQ99R7Y8STPN46QFY0SD7JTFNU0","","null","<img src=""img/food3.png"" style=""width:200px;border:14px solid red;"">","null","","","","","","","","","",""
"","image-keyboard-response","152","48067","0.0-152.0","3K4J6M3CXFF4Q8QE4JQEZQO4JRGAGX","AHKYVHP6591H8","3PIOQ99R7Y8STPN46QFY0SD7JTFNU0","","233.3999999994412","img/food5.png","76","235.20000000018626","3","0","2","1","1,0.5,0,1,0.5,0,0.5,0,1","1,0.5,0,1,0.5,0,0.5,0,1","1","",""
"","html-keyboard-response","153","48375","0.0-153.0","3K4J6M3CXFF4Q8QE4JQEZQO4JRGAGX","AHKYVHP6591H8","3PIOQ99R7Y8STPN46QFY0SD7JTFNU0","","null","<img src=""img/food5.png"" style=""width:200px;border:14px solid red;"">","null","","","","","","","","","",""
"","image-keyboard-response","154","48530","0.0-154.0","3K4J6M3CXFF4Q8QE4JQEZQO4JRGAGX","AHKYVHP6591H8","3PIOQ99R7Y8STPN46QFY0SD7JTFNU0","","153.09999999962747","img/food1.png","76","155","3","1","3","1","1,0.5,0,1,0.5,0,0.5,0,1","1,0.5,0,1,0.5,0,0.5,0,1","1","",""
"","html-keyboard-response","155","48838","0.0-155.0","3K4J6M3CXFF4Q8QE4JQEZQO4JRGAGX","AHKYVHP6591H8","3PIOQ99R7Y8STPN46QFY0SD7JTFNU0","","null","<img src=""img/food1.png"" style=""width:200px; border:14px solid green;"">","null","","","","","","","","","",""
"","image-keyboard-response","156","49041","0.0-156.0","3K4J6M3CXFF4Q8QE4JQEZQO4JRGAGX","AHKYVHP6591H8","3PIOQ99R7Y8STPN46QFY0SD7JTFNU0","","200.69999999925494","img/food5.png","76","202.09999999962747","3","0","2","1","1,0.5,0,1,0.5,0,0.5,0,1","1,0.5,0,1,0.5,0,0.5,0,1","1","",""
"","html-keyboard-response","157","49350","0.0-157.0","3K4J6M3CXFF4Q8QE4JQEZQO4JRGAGX","AHKYVHP6591H8","3PIOQ99R7Y8STPN46QFY0SD7JTFNU0","","null","<img src=""img/food5.png"" style=""width:200px;border:14px solid red;"">","null","","","","","","","","","",""
"","image-keyboard-response","158","49601","0.0-158.0","3K4J6M3CXFF4Q8QE4JQEZQO4JRGAGX","AHKYVHP6591H8","3PIOQ99R7Y8STPN46QFY0SD7JTFNU0","","249.19999999925494","img/food5.png","75","250.40000000037253","2","1","2","1","1,0.5,0,1,0.5,0,0.5,0,1","1,0.5,0,1,0.5,0,0.5,0,1","1","",""
"","html-keyboard-response","159","49910","0.0-159.0","3K4J6M3CXFF4Q8QE4JQEZQO4JRGAGX","AHKYVHP6591H8","3PIOQ99R7Y8STPN46QFY0SD7JTFNU0","","null","<img src=""img/food5.png"" style=""width:200px; border:14px solid green;"">","null","","","","","","","","","",""
"","image-keyboard-response","160","50162","0.0-160.0","3K4J6M3CXFF4Q8QE4JQEZQO4JRGAGX","AHKYVHP6591H8","3PIOQ99R7Y8STPN46QFY0SD7JTFNU0","","249.40000000037253","img/food5.png","74","251.19999999925494","1","1","2","1","1,0.5,0,1,0.5,0,0.5,0,1","1,0.5,0,1,0.5,0,0.5,0,1","1","",""
"","html-keyboard-response","161","50471","0.0-161.0","3K4J6M3CXFF4Q8QE4JQEZQO4JRGAGX","AHKYVHP6591H8","3PIOQ99R7Y8STPN46QFY0SD7JTFNU0","","null","<img src=""img/food5.png"" style=""width:200px; border:14px solid green;"">","null","","","","","","","","","",""
"","image-keyboard-response","162","50659","0.0-162.0","3K4J6M3CXFF4Q8QE4JQEZQO4JRGAGX","AHKYVHP6591H8","3PIOQ99R7Y8STPN46QFY0SD7JTFNU0","","185.3999999994412","img/food5.png","76","187.20000000018626","3","0","2","1","1,0.5,0,1,0.5,0,0.5,0,1","1,0.5,0,1,0.5,0,0.5,0,1","1","",""
"","html-keyboard-response","163","50966","0.0-163.0","3K4J6M3CXFF4Q8QE4JQEZQO4JRGAGX","AHKYVHP6591H8","3PIOQ99R7Y8STPN46QFY0SD7JTFNU0","","null","<img src=""img/food5.png"" style=""width:200px;border:14px solid red;"">","null","","","","","","","","","",""
"","image-keyboard-response","164","51282","0.0-164.0","3K4J6M3CXFF4Q8QE4JQEZQO4JRGAGX","AHKYVHP6591H8","3PIOQ99R7Y8STPN46QFY0SD7JTFNU0","","314","img/food5.png","76","315.5","3","0","2","1","1,0.5,0,1,0.5,0,0.5,0,1","1,0.5,0,1,0.5,0,0.5,0,1","1","",""
"","html-keyboard-response","165","51585","0.0-165.0","3K4J6M3CXFF4Q8QE4JQEZQO4JRGAGX","AHKYVHP6591H8","3PIOQ99R7Y8STPN46QFY0SD7JTFNU0","","null","<img src=""img/food5.png"" style=""width:200px;border:14px solid red;"">","null","","","","","","","","","",""
"","image-keyboard-response","166","51842","0.0-166.0","3K4J6M3CXFF4Q8QE4JQEZQO4JRGAGX","AHKYVHP6591H8","3PIOQ99R7Y8STPN46QFY0SD7JTFNU0","","255","img/food5.png","76","256.3999999994412","3","0","2","1","1,0.5,0,1,0.5,0,0.5,0,1","1,0.5,0,1,0.5,0,0.5,0,1","1","",""
"","html-keyboard-response","167","52151","0.0-167.0","3K4J6M3CXFF4Q8QE4JQEZQO4JRGAGX","AHKYVHP6591H8","3PIOQ99R7Y8STPN46QFY0SD7JTFNU0","","null","<img src=""img/food5.png"" style=""width:200px;border:14px solid red;"">","null","","","","","","","","","",""
"","image-keyboard-response","168","52530","0.0-168.0","3K4J6M3CXFF4Q8QE4JQEZQO4JRGAGX","AHKYVHP6591H8","3PIOQ99R7Y8STPN46QFY0SD7JTFNU0","","377.6000000005588","img/food5.png","76","379.30000000074506","3","0","2","1","1,0.5,0,1,0.5,0,0.5,0,1","1,0.5,0,1,0.5,0,0.5,0,1","1","",""
"","html-keyboard-response","169","52838","0.0-169.0","3K4J6M3CXFF4Q8QE4JQEZQO4JRGAGX","AHKYVHP6591H8","3PIOQ99R7Y8STPN46QFY0SD7JTFNU0","","null","<img src=""img/food5.png"" style=""width:200px;border:14px solid red;"">","null","","","","","","","","","",""
"","image-keyboard-response","170","53058","0.0-170.0","3K4J6M3CXFF4Q8QE4JQEZQO4JRGAGX","AHKYVHP6591H8","3PIOQ99R7Y8STPN46QFY0SD7JTFNU0","","217.79999999981374","img/food1.png","76","219.6000000005588","3","1","3","1","1,0.5,0,1,0.5,0,0.5,0,1","1,0.5,0,1,0.5,0,0.5,0,1","1","",""
"","html-keyboard-response","171","53367","0.0-171.0","3K4J6M3CXFF4Q8QE4JQEZQO4JRGAGX","AHKYVHP6591H8","3PIOQ99R7Y8STPN46QFY0SD7JTFNU0","","null","<img src=""img/food1.png"" style=""width:200px; border:14px solid green;"">","null","","","","","","","","","",""
"","image-keyboard-response","172","53602","0.0-172.0","3K4J6M3CXFF4Q8QE4JQEZQO4JRGAGX","AHKYVHP6591H8","3PIOQ99R7Y8STPN46QFY0SD7JTFNU0","","233.29999999981374","img/food5.png","76","235.3999999994412","3","0","2","1","1,0.5,0,1,0.5,0,0.5,0,1","1,0.5,0,1,0.5,0,0.5,0,1","1","",""
"","html-keyboard-response","173","53910","0.0-173.0","3K4J6M3CXFF4Q8QE4JQEZQO4JRGAGX","AHKYVHP6591H8","3PIOQ99R7Y8STPN46QFY0SD7JTFNU0","","null","<img src=""img/food5.png"" style=""width:200px;border:14px solid red;"">","null","","","","","","","","","",""
"","image-keyboard-response","174","54179","0.0-174.0","3K4J6M3CXFF4Q8QE4JQEZQO4JRGAGX","AHKYVHP6591H8","3PIOQ99R7Y8STPN46QFY0SD7JTFNU0","","265.70000000018626","img/food5.png","75","267.70000000018626","2","0","2","1","1,0.5,0,1,0.5,0,0.5,0,1","1,0.5,0,1,0.5,0,0.5,0,1","1","",""
"","html-keyboard-response","175","54487","0.0-175.0","3K4J6M3CXFF4Q8QE4JQEZQO4JRGAGX","AHKYVHP6591H8","3PIOQ99R7Y8STPN46QFY0SD7JTFNU0","","null","<img src=""img/food5.png"" style=""width:200px;border:14px solid red;"">","null","","","","","","","","","",""
"","image-keyboard-response","176","54723","0.0-176.0","3K4J6M3CXFF4Q8QE4JQEZQO4JRGAGX","AHKYVHP6591H8","3PIOQ99R7Y8STPN46QFY0SD7JTFNU0","","233.3999999994412","img/food1.png","74","235.40000000037253","1","1","3","1","1,0.5,0,1,0.5,0,0.5,0,1","1,0.5,0,1,0.5,0,0.5,0,1","1","",""
"","html-keyboard-response","177","55031","0.0-177.0","3K4J6M3CXFF4Q8QE4JQEZQO4JRGAGX","AHKYVHP6591H8","3PIOQ99R7Y8STPN46QFY0SD7JTFNU0","","null","<img src=""img/food1.png"" style=""width:200px; border:14px solid green;"">","null","","","","","","","","","",""
"","image-keyboard-response","178","55363","0.0-178.0","3K4J6M3CXFF4Q8QE4JQEZQO4JRGAGX","AHKYVHP6591H8","3PIOQ99R7Y8STPN46QFY0SD7JTFNU0","","329.20000000018626","img/food1.png","75","332","2","0","3","1","1,0.5,0,1,0.5,0,0.5,0,1","1,0.5,0,1,0.5,0,0.5,0,1","1","",""
"","html-keyboard-response","179","55671","0.0-179.0","3K4J6M3CXFF4Q8QE4JQEZQO4JRGAGX","AHKYVHP6591H8","3PIOQ99R7Y8STPN46QFY0SD7JTFNU0","","null","<img src=""img/food1.png"" style=""width:200px;border:14px solid red;"">","null","","","","","","","","","",""
"","image-keyboard-response","180","55890","0.0-180.0","3K4J6M3CXFF4Q8QE4JQEZQO4JRGAGX","AHKYVHP6591H8","3PIOQ99R7Y8STPN46QFY0SD7JTFNU0","","217.09999999962747","img/food3.png","76","219","3","0","1","1","1,0.5,0,1,0.5,0,0.5,0,1","1,0.5,0,1,0.5,0,0.5,0,1","1","",""
"","html-keyboard-response","181","56199","0.0-181.0","3K4J6M3CXFF4Q8QE4JQEZQO4JRGAGX","AHKYVHP6591H8","3PIOQ99R7Y8STPN46QFY0SD7JTFNU0","","null","<img src=""img/food3.png"" style=""width:200px;border:14px solid red;"">","null","","","","","","","","","",""
"","html-keyboard-response","182","58786","0.0-182.0","3K4J6M3CXFF4Q8QE4JQEZQO4JRGAGX","AHKYVHP6591H8","3PIOQ99R7Y8STPN46QFY0SD7JTFNU0","","","","","","","","","","","","","",""
"","instructions","183","67082","0.0-183.0","3K4J6M3CXFF4Q8QE4JQEZQO4JRGAGX","AHKYVHP6591H8","3PIOQ99R7Y8STPN46QFY0SD7JTFNU0","[{""page_index"":0,""viewing_time"":7381.299999999814},{""page_index"":1,""viewing_time"":911.7999999998137}]","8293.699999999255","","","","","","","","","","","",""
"","image-keyboard-response","184","67457","0.0-184.0","3K4J6M3CXFF4Q8QE4JQEZQO4JRGAGX","AHKYVHP6591H8","3PIOQ99R7Y8STPN46QFY0SD7JTFNU0","","372.5","img/food4.png","76","374.40000000037253","3","1","3","2","1,0.5,0,1,0.5,0,0.5,0,1","1,0.5,0,1,0.5,0,0.5,0,1","1","false",""
"","html-keyboard-response","185","67766","0.0-185.0","3K4J6M3CXFF4Q8QE4JQEZQO4JRGAGX","AHKYVHP6591H8","3PIOQ99R7Y8STPN46QFY0SD7JTFNU0","","null","<img src=""img/food4.png"" style=""width:200px; border:14px solid green;"">","null","","","","","","","","","",""
"","image-keyboard-response","186","68019","0.0-187.0","3K4J6M3CXFF4Q8QE4JQEZQO4JRGAGX","AHKYVHP6591H8","3PIOQ99R7Y8STPN46QFY0SD7JTFNU0","","249.5","img/food6.png","75","251.29999999981374","2","1","2","2","1,0.5,0,1,0.5,0,0.5,0,1","1,0.5,0,1,0.5,0,0.5,0,1","1","false",""
"","html-keyboard-response","187","68323","0.0-188.0","3K4J6M3CXFF4Q8QE4JQEZQO4JRGAGX","AHKYVHP6591H8","3PIOQ99R7Y8STPN46QFY0SD7JTFNU0","","null","<img src=""img/food6.png"" style=""width:200px; border:14px solid green;"">","null","","","","","","","","","",""
"","image-keyboard-response","188","68611","0.0-190.0","3K4J6M3CXFF4Q8QE4JQEZQO4JRGAGX","AHKYVHP6591H8","3PIOQ99R7Y8STPN46QFY0SD7JTFNU0","","284.59999999962747","img/food2.png","76","286.80000000074506","3","0","1","2","1,0.5,0,1,0.5,0,0.5,0,1","1,0.5,0,1,0.5,0,0.5,0,1","1","false",""
"","html-keyboard-response","189","68919","0.0-191.0","3K4J6M3CXFF4Q8QE4JQEZQO4JRGAGX","AHKYVHP6591H8","3PIOQ99R7Y8STPN46QFY0SD7JTFNU0","","null","<img src=""img/food2.png"" style=""width:200px;border:14px solid red;"">","null","","","","","","","","","",""
"","image-keyboard-response","190","69153","0.0-193.0","3K4J6M3CXFF4Q8QE4JQEZQO4JRGAGX","AHKYVHP6591H8","3PIOQ99R7Y8STPN46QFY0SD7JTFNU0","","231.70000000018626","img/food2.png","74","233.5","1","1","1","2","1,0.5,0,1,0.5,0,0.5,0,1","1,0.5,0,1,0.5,0,0.5,0,1","1","false",""
"","html-keyboard-response","191","69462","0.0-194.0","3K4J6M3CXFF4Q8QE4JQEZQO4JRGAGX","AHKYVHP6591H8","3PIOQ99R7Y8STPN46QFY0SD7JTFNU0","","null","<img src=""img/food2.png"" style=""width:200px; border:14px solid green;"">","null","","","","","","","","","",""
"","image-keyboard-response","192","69665","0.0-196.0","3K4J6M3CXFF4Q8QE4JQEZQO4JRGAGX","AHKYVHP6591H8","3PIOQ99R7Y8STPN46QFY0SD7JTFNU0","","201","img/food2.png","75","202.09999999962747","2","1","1","2","1,0.5,0,1,0.5,0,0.5,0,1","1,0.5,0,1,0.5,0,0.5,0,1","1","false",""
"","html-keyboard-response","193","69966","0.0-197.0","3K4J6M3CXFF4Q8QE4JQEZQO4JRGAGX","AHKYVHP6591H8","3PIOQ99R7Y8STPN46QFY0SD7JTFNU0","","null","<img src=""img/food2.png"" style=""width:200px; border:14px solid green;"">","null","","","","","","","","","",""
"","image-keyboard-response","194","70210","0.0-199.0","3K4J6M3CXFF4Q8QE4JQEZQO4JRGAGX","AHKYVHP6591H8","3PIOQ99R7Y8STPN46QFY0SD7JTFNU0","","242","img/food6.png","76","243.5","3","0","2","2","1,0.5,0,1,0.5,0,0.5,0,1","1,0.5,0,1,0.5,0,0.5,0,1","1","false",""
"","html-keyboard-response","195","70518","0.0-200.0","3K4J6M3CXFF4Q8QE4JQEZQO4JRGAGX","AHKYVHP6591H8","3PIOQ99R7Y8STPN46QFY0SD7JTFNU0","","null","<img src=""img/food6.png"" style=""width:200px;border:14px solid red;"">","null","","","","","","","","","",""
"","image-keyboard-response","196","70755","0.0-202.0","3K4J6M3CXFF4Q8QE4JQEZQO4JRGAGX","AHKYVHP6591H8","3PIOQ99R7Y8STPN46QFY0SD7JTFNU0","","232.5","img/food4.png","75","235.40000000037253","2","0","3","2","1,0.5,0,1,0.5,0,0.5,0,1","1,0.5,0,1,0.5,0,0.5,0,1","1","false",""
"","html-keyboard-response","197","71062","0.0-203.0","3K4J6M3CXFF4Q8QE4JQEZQO4JRGAGX","AHKYVHP6591H8","3PIOQ99R7Y8STPN46QFY0SD7JTFNU0","","null","<img src=""img/food4.png"" style=""width:200px;border:14px solid red;"">","null","","","","","","","","","",""
"","image-keyboard-response","198","71314","0.0-205.0","3K4J6M3CXFF4Q8QE4JQEZQO4JRGAGX","AHKYVHP6591H8","3PIOQ99R7Y8STPN46QFY0SD7JTFNU0","","249.20000000018626","img/food2.png","76","251.29999999981374","3","0","1","2","1,0.5,0,1,0.5,0,0.5,0,1","1,0.5,0,1,0.5,0,0.5,0,1","1","false",""
"","html-keyboard-response","199","71619","0.0-206.0","3K4J6M3CXFF4Q8QE4JQEZQO4JRGAGX","AHKYVHP6591H8","3PIOQ99R7Y8STPN46QFY0SD7JTFNU0","","null","<img src=""img/food2.png"" style=""width:200px;border:14px solid red;"">","null","","","","","","","","","",""
"","image-keyboard-response","200","71890","0.0-208.0","3K4J6M3CXFF4Q8QE4JQEZQO4JRGAGX","AHKYVHP6591H8","3PIOQ99R7Y8STPN46QFY0SD7JTFNU0","","269.40000000037253","img/food2.png","76","271.29999999981374","3","0","1","2","1,0.5,0,1,0.5,0,0.5,0,1","1,0.5,0,1,0.5,0,0.5,0,1","1","false",""
"","html-keyboard-response","201","72199","0.0-209.0","3K4J6M3CXFF4Q8QE4JQEZQO4JRGAGX","AHKYVHP6591H8","3PIOQ99R7Y8STPN46QFY0SD7JTFNU0","","null","<img src=""img/food2.png"" style=""width:200px;border:14px solid red;"">","null","","","","","","","","","",""
"","image-keyboard-response","202","72226","0.0-211.0","3K4J6M3CXFF4Q8QE4JQEZQO4JRGAGX","AHKYVHP6591H8","3PIOQ99R7Y8STPN46QFY0SD7JTFNU0","","24.40000000037253","img/food4.png","75","26.100000000558794","2","0","3","2","1,0.5,0,1,0.5,0,0.5,0,1","1,0.5,0,1,0.5,0,0.5,0,1","1","false",""
"","html-keyboard-response","203","72534","0.0-212.0","3K4J6M3CXFF4Q8QE4JQEZQO4JRGAGX","AHKYVHP6591H8","3PIOQ99R7Y8STPN46QFY0SD7JTFNU0","","null","<img src=""img/food4.png"" style=""width:200px;border:14px solid red;"">","null","","","","","","","","","",""
"","image-keyboard-response","204","72785","0.0-214.0","3K4J6M3CXFF4Q8QE4JQEZQO4JRGAGX","AHKYVHP6591H8","3PIOQ99R7Y8STPN46QFY0SD7JTFNU0","","248.80000000074506","img/food2.png","75","249.79999999981374","2","0","1","2","1,0.5,0,1,0.5,0,0.5,0,1","1,0.5,0,1,0.5,0,0.5,0,1","1","false",""
"","html-keyboard-response","205","73094","0.0-215.0","3K4J6M3CXFF4Q8QE4JQEZQO4JRGAGX","AHKYVHP6591H8","3PIOQ99R7Y8STPN46QFY0SD7JTFNU0","","null","<img src=""img/food2.png"" style=""width:200px;border:14px solid red;"">","null","","","","","","","","","",""
"","image-keyboard-response","206","73315","0.0-217.0","3K4J6M3CXFF4Q8QE4JQEZQO4JRGAGX","AHKYVHP6591H8","3PIOQ99R7Y8STPN46QFY0SD7JTFNU0","","218.79999999981374","img/food4.png","76","220.29999999981374","3","1","3","2","1,0.5,0,1,0.5,0,0.5,0,1","1,0.5,0,1,0.5,0,0.5,0,1","1","false",""
"","html-keyboard-response","207","73622","0.0-218.0","3K4J6M3CXFF4Q8QE4JQEZQO4JRGAGX","AHKYVHP6591H8","3PIOQ99R7Y8STPN46QFY0SD7JTFNU0","","null","<img src=""img/food4.png"" style=""width:200px; border:14px solid green;"">","null","","","","","","","","","",""
"","image-keyboard-response","208","73794","0.0-220.0","3K4J6M3CXFF4Q8QE4JQEZQO4JRGAGX","AHKYVHP6591H8","3PIOQ99R7Y8STPN46QFY0SD7JTFNU0","","169.1000000005588","img/food4.png","76","170.80000000074506","3","1","3","2","1,0.5,0,1,0.5,0,0.5,0,1","1,0.5,0,1,0.5,0,0.5,0,1","1","false",""
"","html-keyboard-response","209","74102","0.0-221.0","3K4J6M3CXFF4Q8QE4JQEZQO4JRGAGX","AHKYVHP6591H8","3PIOQ99R7Y8STPN46QFY0SD7JTFNU0","","null","<img src=""img/food4.png"" style=""width:200px; border:14px solid green;"">","null","","","","","","","","","",""
"","image-keyboard-response","210","74290","0.0-223.0","3K4J6M3CXFF4Q8QE4JQEZQO4JRGAGX","AHKYVHP6591H8","3PIOQ99R7Y8STPN46QFY0SD7JTFNU0","","184.90000000037253","img/food6.png","75","187.20000000018626","2","1","2","2","1,0.5,0,1,0.5,0,0.5,0,1","1,0.5,0,1,0.5,0,0.5,0,1","1","false",""
"","html-keyboard-response","211","74598","0.0-224.0","3K4J6M3CXFF4Q8QE4JQEZQO4JRGAGX","AHKYVHP6591H8","3PIOQ99R7Y8STPN46QFY0SD7JTFNU0","","null","<img src=""img/food6.png"" style=""width:200px; border:14px solid green;"">","null","","","","","","","","","",""
"","image-keyboard-response","212","74803","0.0-226.0","3K4J6M3CXFF4Q8QE4JQEZQO4JRGAGX","AHKYVHP6591H8","3PIOQ99R7Y8STPN46QFY0SD7JTFNU0","","201.29999999981374","img/food4.png","76","203.29999999981374","3","1","3","2","1,0.5,0,1,0.5,0,0.5,0,1","1,0.5,0,1,0.5,0,0.5,0,1","1","false",""
"","html-keyboard-response","213","75110","0.0-227.0","3K4J6M3CXFF4Q8QE4JQEZQO4JRGAGX","AHKYVHP6591H8","3PIOQ99R7Y8STPN46QFY0SD7JTFNU0","","null","<img src=""img/food4.png"" style=""width:200px; border:14px solid green;"">","null","","","","","","","","","",""
"","image-keyboard-response","214","75283","0.0-229.0","3K4J6M3CXFF4Q8QE4JQEZQO4JRGAGX","AHKYVHP6591H8","3PIOQ99R7Y8STPN46QFY0SD7JTFNU0","","169.09999999962747","img/food4.png","76","171.29999999981374","3","1","3","2","1,0.5,0,1,0.5,0,0.5,0,1","1,0.5,0,1,0.5,0,0.5,0,1","1","false",""
"","html-keyboard-response","215","75590","0.0-230.0","3K4J6M3CXFF4Q8QE4JQEZQO4JRGAGX","AHKYVHP6591H8","3PIOQ99R7Y8STPN46QFY0SD7JTFNU0","","null","<img src=""img/food4.png"" style=""width:200px; border:14px solid green;"">","null","","","","","","","","","",""
"","image-keyboard-response","216","75713","0.0-232.0","3K4J6M3CXFF4Q8QE4JQEZQO4JRGAGX","AHKYVHP6591H8","3PIOQ99R7Y8STPN46QFY0SD7JTFNU0","","120.59999999962747","img/food6.png","75","121.8999999994412","2","1","2","2","1,0.5,0,1,0.5,0,0.5,0,1","1,0.5,0,1,0.5,0,0.5,0,1","1","false",""
"","html-keyboard-response","217","76014","0.0-233.0","3K4J6M3CXFF4Q8QE4JQEZQO4JRGAGX","AHKYVHP6591H8","3PIOQ99R7Y8STPN46QFY0SD7JTFNU0","","null","<img src=""img/food6.png"" style=""width:200px; border:14px solid green;"">","null","","","","","","","","","",""
"","image-keyboard-response","218","76179","0.0-235.0","3K4J6M3CXFF4Q8QE4JQEZQO4JRGAGX","AHKYVHP6591H8","3PIOQ99R7Y8STPN46QFY0SD7JTFNU0","","163.30000000074506","img/food2.png","76","164.79999999981374","3","0","1","2","1,0.5,0,1,0.5,0,0.5,0,1","1,0.5,0,1,0.5,0,0.5,0,1","1","false",""
"","html-keyboard-response","219","76487","0.0-236.0","3K4J6M3CXFF4Q8QE4JQEZQO4JRGAGX","AHKYVHP6591H8","3PIOQ99R7Y8STPN46QFY0SD7JTFNU0","","null","<img src=""img/food2.png"" style=""width:200px;border:14px solid red;"">","null","","","","","","","","","",""
"","image-keyboard-response","220","76642","0.0-238.0","3K4J6M3CXFF4Q8QE4JQEZQO4JRGAGX","AHKYVHP6591H8","3PIOQ99R7Y8STPN46QFY0SD7JTFNU0","","152.5","img/food2.png","76","154.5","3","0","1","2","1,0.5,0,1,0.5,0,0.5,0,1","1,0.5,0,1,0.5,0,0.5,0,1","1","false",""
"","html-keyboard-response","221","76950","0.0-239.0","3K4J6M3CXFF4Q8QE4JQEZQO4JRGAGX","AHKYVHP6591H8","3PIOQ99R7Y8STPN46QFY0SD7JTFNU0","","null","<img src=""img/food2.png"" style=""width:200px;border:14px solid red;"">","null","","","","","","","","","",""
"","image-keyboard-response","222","77010","0.0-241.0","3K4J6M3CXFF4Q8QE4JQEZQO4JRGAGX","AHKYVHP6591H8","3PIOQ99R7Y8STPN46QFY0SD7JTFNU0","","57.09999999962747","img/food6.png","75","58.700000000186265","2","0","2","2","1,0.5,0,1,0.5,0,0.5,0,1","1,0.5,0,1,0.5,0,0.5,0,1","1","false",""
"","html-keyboard-response","223","77319","0.0-242.0","3K4J6M3CXFF4Q8QE4JQEZQO4JRGAGX","AHKYVHP6591H8","3PIOQ99R7Y8STPN46QFY0SD7JTFNU0","","null","<img src=""img/food6.png"" style=""width:200px;border:14px solid red;"">","null","","","","","","","","","",""
"","image-keyboard-response","224","77443","0.0-244.0","3K4J6M3CXFF4Q8QE4JQEZQO4JRGAGX","AHKYVHP6591H8","3PIOQ99R7Y8STPN46QFY0SD7JTFNU0","","121.29999999981374","img/food2.png","75","123.29999999981374","2","1","1","2","1,0.5,0,1,0.5,0,0.5,0,1","1,0.5,0,1,0.5,0,0.5,0,1","1","false",""
"","html-keyboard-response","225","77750","0.0-245.0","3K4J6M3CXFF4Q8QE4JQEZQO4JRGAGX","AHKYVHP6591H8","3PIOQ99R7Y8STPN46QFY0SD7JTFNU0","","null","<img src=""img/food2.png"" style=""width:200px; border:14px solid green;"">","null","","","","","","","","","",""
"","image-keyboard-response","226","77858","0.0-247.0","3K4J6M3CXFF4Q8QE4JQEZQO4JRGAGX","AHKYVHP6591H8","3PIOQ99R7Y8STPN46QFY0SD7JTFNU0","","105.90000000037253","img/food4.png","74","107.5","1","0","3","2","1,0.5,0,1,0.5,0,0.5,0,1","1,0.5,0,1,0.5,0,0.5,0,1","1","false",""
"","html-keyboard-response","227","78167","0.0-248.0","3K4J6M3CXFF4Q8QE4JQEZQO4JRGAGX","AHKYVHP6591H8","3PIOQ99R7Y8STPN46QFY0SD7JTFNU0","","null","<img src=""img/food4.png"" style=""width:200px;border:14px solid red;"">","null","","","","","","","","","",""
"","image-keyboard-response","228","78307","0.0-250.0","3K4J6M3CXFF4Q8QE4JQEZQO4JRGAGX","AHKYVHP6591H8","3PIOQ99R7Y8STPN46QFY0SD7JTFNU0","","137.29999999981374","img/food6.png","74","139.29999999981374","1","1","2","2","1,0.5,0,1,0.5,0,0.5,0,1","1,0.5,0,1,0.5,0,0.5,0,1","1","false",""
"","html-keyboard-response","229","78610","0.0-251.0","3K4J6M3CXFF4Q8QE4JQEZQO4JRGAGX","AHKYVHP6591H8","3PIOQ99R7Y8STPN46QFY0SD7JTFNU0","","null","<img src=""img/food6.png"" style=""width:200px; border:14px solid green;"">","null","","","","","","","","","",""
"","image-keyboard-response","230","78739","0.0-253.0","3K4J6M3CXFF4Q8QE4JQEZQO4JRGAGX","AHKYVHP6591H8","3PIOQ99R7Y8STPN46QFY0SD7JTFNU0","","126.80000000074506","img/food4.png","75","128.90000000037253","2","0","3","2","1,0.5,0,1,0.5,0,0.5,0,1","1,0.5,0,1,0.5,0,0.5,0,1","1","false",""
"","html-keyboard-response","231","79046","0.0-254.0","3K4J6M3CXFF4Q8QE4JQEZQO4JRGAGX","AHKYVHP6591H8","3PIOQ99R7Y8STPN46QFY0SD7JTFNU0","","null","<img src=""img/food4.png"" style=""width:200px;border:14px solid red;"">","null","","","","","","","","","",""
"","image-keyboard-response","232","79218","0.0-256.0","3K4J6M3CXFF4Q8QE4JQEZQO4JRGAGX","AHKYVHP6591H8","3PIOQ99R7Y8STPN46QFY0SD7JTFNU0","","168.90000000037253","img/food6.png","76","171","3","0","2","2","1,0.5,0,1,0.5,0,0.5,0,1","1,0.5,0,1,0.5,0,0.5,0,1","1","false",""
"","html-keyboard-response","233","79523","0.0-257.0","3K4J6M3CXFF4Q8QE4JQEZQO4JRGAGX","AHKYVHP6591H8","3PIOQ99R7Y8STPN46QFY0SD7JTFNU0","","null","<img src=""img/food6.png"" style=""width:200px;border:14px solid red;"">","null","","","","","","","","","",""
"","image-keyboard-response","234","79842","0.0-259.0","3K4J6M3CXFF4Q8QE4JQEZQO4JRGAGX","AHKYVHP6591H8","3PIOQ99R7Y8STPN46QFY0SD7JTFNU0","","318.20000000018626","img/food6.png","76","319.40000000037253","3","0","2","2","1,0.5,0,1,0.5,0,0.5,0,1","1,0.5,0,1,0.5,0,0.5,0,1","1","false",""
"","html-keyboard-response","235","80150","0.0-260.0","3K4J6M3CXFF4Q8QE4JQEZQO4JRGAGX","AHKYVHP6591H8","3PIOQ99R7Y8STPN46QFY0SD7JTFNU0","","null","<img src=""img/food6.png"" style=""width:200px;border:14px solid red;"">","null","","","","","","","","","",""
"","image-keyboard-response","236","80177","0.0-262.0","3K4J6M3CXFF4Q8QE4JQEZQO4JRGAGX","AHKYVHP6591H8","3PIOQ99R7Y8STPN46QFY0SD7JTFNU0","","25.5","img/food2.png","76","26.799999999813735","3","0","1","2","1,0.5,0,1,0.5,0,0.5,0,1","1,0.5,0,1,0.5,0,0.5,0,1","1","false",""
"","html-keyboard-response","237","80486","0.0-263.0","3K4J6M3CXFF4Q8QE4JQEZQO4JRGAGX","AHKYVHP6591H8","3PIOQ99R7Y8STPN46QFY0SD7JTFNU0","","null","<img src=""img/food2.png"" style=""width:200px;border:14px solid red;"">","null","","","","","","","","","",""
"","image-keyboard-response","238","80563","0.0-265.0","3K4J6M3CXFF4Q8QE4JQEZQO4JRGAGX","AHKYVHP6591H8","3PIOQ99R7Y8STPN46QFY0SD7JTFNU0","","73.5","img/food6.png","76","75.5","3","0","2","2","1,0.5,0,1,0.5,0,0.5,0,1","1,0.5,0,1,0.5,0,0.5,0,1","1","false",""
"","html-keyboard-response","239","80871","0.0-266.0","3K4J6M3CXFF4Q8QE4JQEZQO4JRGAGX","AHKYVHP6591H8","3PIOQ99R7Y8STPN46QFY0SD7JTFNU0","","null","<img src=""img/food6.png"" style=""width:200px;border:14px solid red;"">","null","","","","","","","","","",""
"","image-keyboard-response","240","81106","0.0-268.0","3K4J6M3CXFF4Q8QE4JQEZQO4JRGAGX","AHKYVHP6591H8","3PIOQ99R7Y8STPN46QFY0SD7JTFNU0","","232.70000000018626","img/food6.png","75","234.70000000018626","2","0","2","2","1,0.5,0,1,0.5,0,0.5,0,1","1,0.5,0,1,0.5,0,0.5,0,1","1","false",""
"","html-keyboard-response","241","81414","0.0-269.0","3K4J6M3CXFF4Q8QE4JQEZQO4JRGAGX","AHKYVHP6591H8","3PIOQ99R7Y8STPN46QFY0SD7JTFNU0","","null","<img src=""img/food6.png"" style=""width:200px;border:14px solid red;"">","null","","","","","","","","","",""
"","image-keyboard-response","242","81474","0.0-271.0","3K4J6M3CXFF4Q8QE4JQEZQO4JRGAGX","AHKYVHP6591H8","3PIOQ99R7Y8STPN46QFY0SD7JTFNU0","","57","img/food6.png","74","58.799999999813735","1","1","2","2","1,0.5,0,1,0.5,0,0.5,0,1","1,0.5,0,1,0.5,0,0.5,0,1","1","false",""
"","html-keyboard-response","243","81783","0.0-272.0","3K4J6M3CXFF4Q8QE4JQEZQO4JRGAGX","AHKYVHP6591H8","3PIOQ99R7Y8STPN46QFY0SD7JTFNU0","","null","<img src=""img/food6.png"" style=""width:200px; border:14px solid green;"">","null","","","","","","","","","",""
"","image-keyboard-response","244","82019","0.0-274.0","3K4J6M3CXFF4Q8QE4JQEZQO4JRGAGX","AHKYVHP6591H8","3PIOQ99R7Y8STPN46QFY0SD7JTFNU0","","233.20000000018626","img/food2.png","76","235.1000000005588","3","0","1","2","1,0.5,0,1,0.5,0,0.5,0,1","1,0.5,0,1,0.5,0,0.5,0,1","1","false",""
"","html-keyboard-response","245","82323","0.0-275.0","3K4J6M3CXFF4Q8QE4JQEZQO4JRGAGX","AHKYVHP6591H8","3PIOQ99R7Y8STPN46QFY0SD7JTFNU0","","null","<img src=""img/food2.png"" style=""width:200px;border:14px solid red;"">","null","","","","","","","","","",""
"","image-keyboard-response","246","82626","0.0-277.0","3K4J6M3CXFF4Q8QE4JQEZQO4JRGAGX","AHKYVHP6591H8","3PIOQ99R7Y8STPN46QFY0SD7JTFNU0","","300.5","img/food6.png","75","302.40000000037253","2","0","2","2","1,0.5,0,1,0.5,0,0.5,0,1","1,0.5,0,1,0.5,0,0.5,0,1","1","false",""
"","html-keyboard-response","247","82934","0.0-278.0","3K4J6M3CXFF4Q8QE4JQEZQO4JRGAGX","AHKYVHP6591H8","3PIOQ99R7Y8STPN46QFY0SD7JTFNU0","","null","<img src=""img/food6.png"" style=""width:200px;border:14px solid red;"">","null","","","","","","","","","",""
"","image-keyboard-response","248","83233","0.0-280.0","3K4J6M3CXFF4Q8QE4JQEZQO4JRGAGX","AHKYVHP6591H8","3PIOQ99R7Y8STPN46QFY0SD7JTFNU0","","296.40000000037253","img/food4.png","76","297.70000000018626","3","1","3","2","1,0.5,0,1,0.5,0,0.5,0,1","1,0.5,0,1,0.5,0,0.5,0,1","1","false",""
"","html-keyboard-response","249","83542","0.0-281.0","3K4J6M3CXFF4Q8QE4JQEZQO4JRGAGX","AHKYVHP6591H8","3PIOQ99R7Y8STPN46QFY0SD7JTFNU0","","null","<img src=""img/food4.png"" style=""width:200px; border:14px solid green;"">","null","","","","","","","","","",""
"","image-keyboard-response","250","83569","0.0-283.0","3K4J6M3CXFF4Q8QE4JQEZQO4JRGAGX","AHKYVHP6591H8","3PIOQ99R7Y8STPN46QFY0SD7JTFNU0","","24.899999999441206","img/food2.png","76","26.399999999441206","3","0","1","2","1,0.5,0,1,0.5,0,0.5,0,1","1,0.5,0,1,0.5,0,0.5,0,1","1","false",""
"","html-keyboard-response","251","83879","0.0-284.0","3K4J6M3CXFF4Q8QE4JQEZQO4JRGAGX","AHKYVHP6591H8","3PIOQ99R7Y8STPN46QFY0SD7JTFNU0","","null","<img src=""img/food2.png"" style=""width:200px;border:14px solid red;"">","null","","","","","","","","","",""
"","image-keyboard-response","252","84129","0.0-286.0","3K4J6M3CXFF4Q8QE4JQEZQO4JRGAGX","AHKYVHP6591H8","3PIOQ99R7Y8STPN46QFY0SD7JTFNU0","","248.09999999962747","img/food4.png","74","249.8999999994412","1","1","3","2","1,0.5,0,1,0.5,0,0.5,0,1","1,0.5,0,1,0.5,0,0.5,0,1","1","false",""
"","html-keyboard-response","253","84439","0.0-287.0","3K4J6M3CXFF4Q8QE4JQEZQO4JRGAGX","AHKYVHP6591H8","3PIOQ99R7Y8STPN46QFY0SD7JTFNU0","","null","<img src=""img/food4.png"" style=""width:200px; border:14px solid green;"">","null","","","","","","","","","",""
"","image-keyboard-response","254","84739","0.0-289.0","3K4J6M3CXFF4Q8QE4JQEZQO4JRGAGX","AHKYVHP6591H8","3PIOQ99R7Y8STPN46QFY0SD7JTFNU0","","297.5","img/food2.png","74","299.3999999994412","1","1","1","2","1,0.5,0,1,0.5,0,0.5,0,1","1,0.5,0,1,0.5,0,0.5,0,1","1","false",""
"","html-keyboard-response","255","85047","0.0-290.0","3K4J6M3CXFF4Q8QE4JQEZQO4JRGAGX","AHKYVHP6591H8","3PIOQ99R7Y8STPN46QFY0SD7JTFNU0","","null","<img src=""img/food2.png"" style=""width:200px; border:14px solid green;"">","null","","","","","","","","","",""
"","image-keyboard-response","256","85314","0.0-292.0","3K4J6M3CXFF4Q8QE4JQEZQO4JRGAGX","AHKYVHP6591H8","3PIOQ99R7Y8STPN46QFY0SD7JTFNU0","","265.29999999981374","img/food2.png","76","267.29999999981374","3","0","1","2","1,0.5,0,1,0.5,0,0.5,0,1","1,0.5,0,1,0.5,0,0.5,0,1","1","false",""
"","html-keyboard-response","257","85622","0.0-293.0","3K4J6M3CXFF4Q8QE4JQEZQO4JRGAGX","AHKYVHP6591H8","3PIOQ99R7Y8STPN46QFY0SD7JTFNU0","","null","<img src=""img/food2.png"" style=""width:200px;border:14px solid red;"">","null","","","","","","","","","",""
"","image-keyboard-response","258","85842","0.0-295.0","3K4J6M3CXFF4Q8QE4JQEZQO4JRGAGX","AHKYVHP6591H8","3PIOQ99R7Y8STPN46QFY0SD7JTFNU0","","217.09999999962747","img/food2.png","74","219.59999999962747","1","1","1","2","1,0.5,0,1,0.5,0,0.5,0,1","1,0.5,0,1,0.5,0,0.5,0,1","1","false",""
"","html-keyboard-response","259","86150","0.0-296.0","3K4J6M3CXFF4Q8QE4JQEZQO4JRGAGX","AHKYVHP6591H8","3PIOQ99R7Y8STPN46QFY0SD7JTFNU0","","null","<img src=""img/food2.png"" style=""width:200px; border:14px solid green;"">","null","","","","","","","","","",""
"","image-keyboard-response","260","86434","0.0-298.0","3K4J6M3CXFF4Q8QE4JQEZQO4JRGAGX","AHKYVHP6591H8","3PIOQ99R7Y8STPN46QFY0SD7JTFNU0","","281.69999999925494","img/food2.png","74","283.5","1","1","1","2","1,0.5,0,1,0.5,0,0.5,0,1","1,0.5,0,1,0.5,0,0.5,0,1","1","false",""
"","html-keyboard-response","261","86743","0.0-299.0","3K4J6M3CXFF4Q8QE4JQEZQO4JRGAGX","AHKYVHP6591H8","3PIOQ99R7Y8STPN46QFY0SD7JTFNU0","","null","<img src=""img/food2.png"" style=""width:200px; border:14px solid green;"">","null","","","","","","","","","",""
"","image-keyboard-response","262","86899","0.0-301.0","3K4J6M3CXFF4Q8QE4JQEZQO4JRGAGX","AHKYVHP6591H8","3PIOQ99R7Y8STPN46QFY0SD7JTFNU0","","153.19999999925494","img/food6.png","74","155.20000000018626","1","1","2","2","1,0.5,0,1,0.5,0,0.5,0,1","1,0.5,0,1,0.5,0,0.5,0,1","1","false",""
"","html-keyboard-response","263","87206","0.0-302.0","3K4J6M3CXFF4Q8QE4JQEZQO4JRGAGX","AHKYVHP6591H8","3PIOQ99R7Y8STPN46QFY0SD7JTFNU0","","null","<img src=""img/food6.png"" style=""width:200px; border:14px solid green;"">","null","","","","","","","","","",""
"","image-keyboard-response","264","87378","0.0-304.0","3K4J6M3CXFF4Q8QE4JQEZQO4JRGAGX","AHKYVHP6591H8","3PIOQ99R7Y8STPN46QFY0SD7JTFNU0","","168.90000000037253","img/food4.png","76","170.8999999994412","3","1","3","2","1,0.5,0,1,0.5,0,0.5,0,1","1,0.5,0,1,0.5,0,0.5,0,1","1","false",""
"","html-keyboard-response","265","87687","0.0-305.0","3K4J6M3CXFF4Q8QE4JQEZQO4JRGAGX","AHKYVHP6591H8","3PIOQ99R7Y8STPN46QFY0SD7JTFNU0","","null","<img src=""img/food4.png"" style=""width:200px; border:14px solid green;"">","null","","","","","","","","","",""
"","image-keyboard-response","266","87923","0.0-307.0","3K4J6M3CXFF4Q8QE4JQEZQO4JRGAGX","AHKYVHP6591H8","3PIOQ99R7Y8STPN46QFY0SD7JTFNU0","","232","img/food6.png","76","234.70000000018626","3","0","2","2","1,0.5,0,1,0.5,0,0.5,0,1","1,0.5,0,1,0.5,0,0.5,0,1","1","false",""
"","html-keyboard-response","267","88230","0.0-308.0","3K4J6M3CXFF4Q8QE4JQEZQO4JRGAGX","AHKYVHP6591H8","3PIOQ99R7Y8STPN46QFY0SD7JTFNU0","","null","<img src=""img/food6.png"" style=""width:200px;border:14px solid red;"">","null","","","","","","","","","",""
"","image-keyboard-response","268","88371","0.0-310.0","3K4J6M3CXFF4Q8QE4JQEZQO4JRGAGX","AHKYVHP6591H8","3PIOQ99R7Y8STPN46QFY0SD7JTFNU0","","137.19999999925494","img/food2.png","75","139.5","2","1","1","2","1,0.5,0,1,0.5,0,0.5,0,1","1,0.5,0,1,0.5,0,0.5,0,1","1","false",""
"","html-keyboard-response","269","88679","0.0-311.0","3K4J6M3CXFF4Q8QE4JQEZQO4JRGAGX","AHKYVHP6591H8","3PIOQ99R7Y8STPN46QFY0SD7JTFNU0","","null","<img src=""img/food2.png"" style=""width:200px; border:14px solid green;"">","null","","","","","","","","","",""
"","image-keyboard-response","270","88835","0.0-313.0","3K4J6M3CXFF4Q8QE4JQEZQO4JRGAGX","AHKYVHP6591H8","3PIOQ99R7Y8STPN46QFY0SD7JTFNU0","","153.09999999962747","img/food4.png","74","155.19999999925494","1","1","3","2","1,0.5,0,1,0.5,0,0.5,0,1","1,0.5,0,1,0.5,0,0.5,0,1","1","false",""
"","html-keyboard-response","271","89142","0.0-314.0","3K4J6M3CXFF4Q8QE4JQEZQO4JRGAGX","AHKYVHP6591H8","3PIOQ99R7Y8STPN46QFY0SD7JTFNU0","","null","<img src=""img/food4.png"" style=""width:200px; border:14px solid green;"">","null","","","","","","","","","",""
"","image-keyboard-response","272","89330","0.0-316.0","3K4J6M3CXFF4Q8QE4JQEZQO4JRGAGX","AHKYVHP6591H8","3PIOQ99R7Y8STPN46QFY0SD7JTFNU0","","186.1000000005588","img/food4.png","74","187.79999999981374","1","1","3","2","1,0.5,0,1,0.5,0,0.5,0,1","1,0.5,0,1,0.5,0,0.5,0,1","1","false",""
"","html-keyboard-response","273","89639","0.0-317.0","3K4J6M3CXFF4Q8QE4JQEZQO4JRGAGX","AHKYVHP6591H8","3PIOQ99R7Y8STPN46QFY0SD7JTFNU0","","null","<img src=""img/food4.png"" style=""width:200px; border:14px solid green;"">","null","","","","","","","","","",""
"","image-keyboard-response","274","89842","0.0-319.0","3K4J6M3CXFF4Q8QE4JQEZQO4JRGAGX","AHKYVHP6591H8","3PIOQ99R7Y8STPN46QFY0SD7JTFNU0","","201.09999999962747","img/food4.png","74","202.90000000037253","1","0","3","2","1,0.5,0,1,0.5,0,0.5,0,1","1,0.5,0,1,0.5,0,0.5,0,1","1","false",""
"","html-keyboard-response","275","90151","0.0-320.0","3K4J6M3CXFF4Q8QE4JQEZQO4JRGAGX","AHKYVHP6591H8","3PIOQ99R7Y8STPN46QFY0SD7JTFNU0","","null","<img src=""img/food4.png"" style=""width:200px;border:14px solid red;"">","null","","","","","","","","","",""
"","image-keyboard-response","276","90434","0.0-322.0","3K4J6M3CXFF4Q8QE4JQEZQO4JRGAGX","AHKYVHP6591H8","3PIOQ99R7Y8STPN46QFY0SD7JTFNU0","","281","img/food2.png","76","283","3","0","1","2","1,0.5,0,1,0.5,0,0.5,0,1","1,0.5,0,1,0.5,0,0.5,0,1","1","false",""
"","html-keyboard-response","277","90743","0.0-323.0","3K4J6M3CXFF4Q8QE4JQEZQO4JRGAGX","AHKYVHP6591H8","3PIOQ99R7Y8STPN46QFY0SD7JTFNU0","","null","<img src=""img/food2.png"" style=""width:200px;border:14px solid red;"">","null","","","","","","","","","",""
"","image-keyboard-response","278","90979","0.0-325.0","3K4J6M3CXFF4Q8QE4JQEZQO4JRGAGX","AHKYVHP6591H8","3PIOQ99R7Y8STPN46QFY0SD7JTFNU0","","233.20000000018626","img/food4.png","76","235.29999999981374","3","1","3","2","1,0.5,0,1,0.5,0,0.5,0,1","1,0.5,0,1,0.5,0,0.5,0,1","1","false",""
"","html-keyboard-response","279","91287","0.0-326.0","3K4J6M3CXFF4Q8QE4JQEZQO4JRGAGX","AHKYVHP6591H8","3PIOQ99R7Y8STPN46QFY0SD7JTFNU0","","null","<img src=""img/food4.png"" style=""width:200px; border:14px solid green;"">","null","","","","","","","","","",""
"","image-keyboard-response","280","91555","0.0-328.0","3K4J6M3CXFF4Q8QE4JQEZQO4JRGAGX","AHKYVHP6591H8","3PIOQ99R7Y8STPN46QFY0SD7JTFNU0","","265.3999999994412","img/food6.png","75","267.20000000018626","2","0","2","2","1,0.5,0,1,0.5,0,0.5,0,1","1,0.5,0,1,0.5,0,0.5,0,1","1","false",""
"","html-keyboard-response","281","91859","0.0-329.0","3K4J6M3CXFF4Q8QE4JQEZQO4JRGAGX","AHKYVHP6591H8","3PIOQ99R7Y8STPN46QFY0SD7JTFNU0","","null","<img src=""img/food6.png"" style=""width:200px;border:14px solid red;"">","null","","","","","","","","","",""
"","image-keyboard-response","282","92162","0.0-331.0","3K4J6M3CXFF4Q8QE4JQEZQO4JRGAGX","AHKYVHP6591H8","3PIOQ99R7Y8STPN46QFY0SD7JTFNU0","","300.79999999981374","img/food6.png","75","302.5","2","1","2","2","1,0.5,0,1,0.5,0,0.5,0,1","1,0.5,0,1,0.5,0,0.5,0,1","1","false",""
"","html-keyboard-response","283","92467","0.0-332.0","3K4J6M3CXFF4Q8QE4JQEZQO4JRGAGX","AHKYVHP6591H8","3PIOQ99R7Y8STPN46QFY0SD7JTFNU0","","null","<img src=""img/food6.png"" style=""width:200px; border:14px solid green;"">","null","","","","","","","","","",""
"","image-keyboard-response","284","92737","0.0-334.0","3K4J6M3CXFF4Q8QE4JQEZQO4JRGAGX","AHKYVHP6591H8","3PIOQ99R7Y8STPN46QFY0SD7JTFNU0","","267.5","img/food2.png","75","269","2","1","1","2","1,0.5,0,1,0.5,0,0.5,0,1","1,0.5,0,1,0.5,0,0.5,0,1","1","false",""
"","html-keyboard-response","285","93046","0.0-335.0","3K4J6M3CXFF4Q8QE4JQEZQO4JRGAGX","AHKYVHP6591H8","3PIOQ99R7Y8STPN46QFY0SD7JTFNU0","","null","<img src=""img/food2.png"" style=""width:200px; border:14px solid green;"">","null","","","","","","","","","",""
"","image-keyboard-response","286","93236","0.0-337.0","3K4J6M3CXFF4Q8QE4JQEZQO4JRGAGX","AHKYVHP6591H8","3PIOQ99R7Y8STPN46QFY0SD7JTFNU0","","188.29999999981374","img/food4.png","74","189.59999999962747","1","1","3","2","1,0.5,0,1,0.5,0,0.5,0,1","1,0.5,0,1,0.5,0,0.5,0,1","1","false",""
"","html-keyboard-response","287","93543","0.0-338.0","3K4J6M3CXFF4Q8QE4JQEZQO4JRGAGX","AHKYVHP6591H8","3PIOQ99R7Y8STPN46QFY0SD7JTFNU0","","null","<img src=""img/food4.png"" style=""width:200px; border:14px solid green;"">","null","","","","","","","","","",""
"","image-keyboard-response","288","93778","0.0-340.0","3K4J6M3CXFF4Q8QE4JQEZQO4JRGAGX","AHKYVHP6591H8","3PIOQ99R7Y8STPN46QFY0SD7JTFNU0","","232.8999999994412","img/food4.png","74","235.09999999962747","1","1","3","2","1,0.5,0,1,0.5,0,0.5,0,1","1,0.5,0,1,0.5,0,0.5,0,1","1","false",""
"","html-keyboard-response","289","94087","0.0-341.0","3K4J6M3CXFF4Q8QE4JQEZQO4JRGAGX","AHKYVHP6591H8","3PIOQ99R7Y8STPN46QFY0SD7JTFNU0","","null","<img src=""img/food4.png"" style=""width:200px; border:14px solid green;"">","null","","","","","","","","","",""
"","image-keyboard-response","290","94339","0.0-343.0","3K4J6M3CXFF4Q8QE4JQEZQO4JRGAGX","AHKYVHP6591H8","3PIOQ99R7Y8STPN46QFY0SD7JTFNU0","","249.30000000074506","img/food6.png","74","251.29999999981374","1","1","2","2","1,0.5,0,1,0.5,0,0.5,0,1","1,0.5,0,1,0.5,0,0.5,0,1","1","false",""
"","html-keyboard-response","291","94646","0.0-344.0","3K4J6M3CXFF4Q8QE4JQEZQO4JRGAGX","AHKYVHP6591H8","3PIOQ99R7Y8STPN46QFY0SD7JTFNU0","","null","<img src=""img/food6.png"" style=""width:200px; border:14px solid green;"">","null","","","","","","","","","",""
"","image-keyboard-response","292","94834","0.0-346.0","3K4J6M3CXFF4Q8QE4JQEZQO4JRGAGX","AHKYVHP6591H8","3PIOQ99R7Y8STPN46QFY0SD7JTFNU0","","184.6000000005588","img/food2.png","76","187.09999999962747","3","0","1","2","1,0.5,0,1,0.5,0,0.5,0,1","1,0.5,0,1,0.5,0,0.5,0,1","1","false",""
"","html-keyboard-response","293","95142","0.0-347.0","3K4J6M3CXFF4Q8QE4JQEZQO4JRGAGX","AHKYVHP6591H8","3PIOQ99R7Y8STPN46QFY0SD7JTFNU0","","null","<img src=""img/food2.png"" style=""width:200px;border:14px solid red;"">","null","","","","","","","","","",""
"","image-keyboard-response","294","95441","0.0-349.0","3K4J6M3CXFF4Q8QE4JQEZQO4JRGAGX","AHKYVHP6591H8","3PIOQ99R7Y8STPN46QFY0SD7JTFNU0","","297.5","img/food2.png","76","298.5","3","0","1","2","1,0.5,0,1,0.5,0,0.5,0,1","1,0.5,0,1,0.5,0,0.5,0,1","1","false",""
"","html-keyboard-response","295","95750","0.0-350.0","3K4J6M3CXFF4Q8QE4JQEZQO4JRGAGX","AHKYVHP6591H8","3PIOQ99R7Y8STPN46QFY0SD7JTFNU0","","null","<img src=""img/food2.png"" style=""width:200px;border:14px solid red;"">","null","","","","","","","","","",""
"","image-keyboard-response","296","95761","0.0-352.0","3K4J6M3CXFF4Q8QE4JQEZQO4JRGAGX","AHKYVHP6591H8","3PIOQ99R7Y8STPN46QFY0SD7JTFNU0","","8.899999999441206","img/food4.png","76","10.200000000186265","3","1","3","2","1,0.5,0,1,0.5,0,0.5,0,1","1,0.5,0,1,0.5,0,0.5,0,1","1","false",""
"","html-keyboard-response","297","96070","0.0-353.0","3K4J6M3CXFF4Q8QE4JQEZQO4JRGAGX","AHKYVHP6591H8","3PIOQ99R7Y8STPN46QFY0SD7JTFNU0","","null","<img src=""img/food4.png"" style=""width:200px; border:14px solid green;"">","null","","","","","","","","","",""
"","image-keyboard-response","298","96307","0.0-355.0","3K4J6M3CXFF4Q8QE4JQEZQO4JRGAGX","AHKYVHP6591H8","3PIOQ99R7Y8STPN46QFY0SD7JTFNU0","","233","img/food6.png","75","235.59999999962747","2","0","2","2","1,0.5,0,1,0.5,0,0.5,0,1","1,0.5,0,1,0.5,0,0.5,0,1","1","false",""
"","html-keyboard-response","299","96614","0.0-356.0","3K4J6M3CXFF4Q8QE4JQEZQO4JRGAGX","AHKYVHP6591H8","3PIOQ99R7Y8STPN46QFY0SD7JTFNU0","","null","<img src=""img/food6.png"" style=""width:200px;border:14px solid red;"">","null","","","","","","","","","",""
"","image-keyboard-response","300","96914","0.0-358.0","3K4J6M3CXFF4Q8QE4JQEZQO4JRGAGX","AHKYVHP6591H8","3PIOQ99R7Y8STPN46QFY0SD7JTFNU0","","297.5","img/food4.png","75","299.3999999994412","2","0","3","2","1,0.5,0,1,0.5,0,0.5,0,1","1,0.5,0,1,0.5,0,0.5,0,1","1","false",""
"","html-keyboard-response","301","97223","0.0-359.0","3K4J6M3CXFF4Q8QE4JQEZQO4JRGAGX","AHKYVHP6591H8","3PIOQ99R7Y8STPN46QFY0SD7JTFNU0","","null","<img src=""img/food4.png"" style=""width:200px;border:14px solid red;"">","null","","","","","","","","","",""
"","image-keyboard-response","302","97457","0.0-361.0","3K4J6M3CXFF4Q8QE4JQEZQO4JRGAGX","AHKYVHP6591H8","3PIOQ99R7Y8STPN46QFY0SD7JTFNU0","","231.6000000005588","img/food2.png","75","233.1000000005588","2","0","1","2","1,0.5,0,1,0.5,0,0.5,0,1","1,0.5,0,1,0.5,0,0.5,0,1","1","false",""
"","html-keyboard-response","303","97758","0.0-362.0","3K4J6M3CXFF4Q8QE4JQEZQO4JRGAGX","AHKYVHP6591H8","3PIOQ99R7Y8STPN46QFY0SD7JTFNU0","","null","<img src=""img/food2.png"" style=""width:200px;border:14px solid red;"">","null","","","","","","","","","",""
"","image-keyboard-response","304","97763","0.0-364.0","3K4J6M3CXFF4Q8QE4JQEZQO4JRGAGX","AHKYVHP6591H8","3PIOQ99R7Y8STPN46QFY0SD7JTFNU0","","1.7000000001862645","img/food4.png","75","3.900000000372529","2","0","3","2","1,0.5,0,1,0.5,0,0.5,0,1","1,0.5,0,1,0.5,0,0.5,0,1","1","false",""
"","html-keyboard-response","305","98071","0.0-365.0","3K4J6M3CXFF4Q8QE4JQEZQO4JRGAGX","AHKYVHP6591H8","3PIOQ99R7Y8STPN46QFY0SD7JTFNU0","","null","<img src=""img/food4.png"" style=""width:200px;border:14px solid red;"">","null","","","","","","","","","",""
"","image-keyboard-response","306","98290","0.0-367.0","3K4J6M3CXFF4Q8QE4JQEZQO4JRGAGX","AHKYVHP6591H8","3PIOQ99R7Y8STPN46QFY0SD7JTFNU0","","216.5","img/food6.png","76","218.29999999981374","3","0","2","2","1,0.5,0,1,0.5,0,0.5,0,1","1,0.5,0,1,0.5,0,0.5,0,1","1","false",""
"","html-keyboard-response","307","98595","0.0-368.0","3K4J6M3CXFF4Q8QE4JQEZQO4JRGAGX","AHKYVHP6591H8","3PIOQ99R7Y8STPN46QFY0SD7JTFNU0","","null","<img src=""img/food6.png"" style=""width:200px;border:14px solid red;"">","null","","","","","","","","","",""
"","image-keyboard-response","308","98850","0.0-370.0","3K4J6M3CXFF4Q8QE4JQEZQO4JRGAGX","AHKYVHP6591H8","3PIOQ99R7Y8STPN46QFY0SD7JTFNU0","","252.20000000018626","img/food2.png","76","254.09999999962747","3","0","1","2","1,0.5,0,1,0.5,0,0.5,0,1","1,0.5,0,1,0.5,0,0.5,0,1","1","false",""
"","html-keyboard-response","309","99158","0.0-371.0","3K4J6M3CXFF4Q8QE4JQEZQO4JRGAGX","AHKYVHP6591H8","3PIOQ99R7Y8STPN46QFY0SD7JTFNU0","","null","<img src=""img/food2.png"" style=""width:200px;border:14px solid red;"">","null","","","","","","","","","",""
"","image-keyboard-response","310","99378","0.0-373.0","3K4J6M3CXFF4Q8QE4JQEZQO4JRGAGX","AHKYVHP6591H8","3PIOQ99R7Y8STPN46QFY0SD7JTFNU0","","217.3999999994412","img/food4.png","76","219.5","3","1","3","2","1,0.5,0,1,0.5,0,0.5,0,1","1,0.5,0,1,0.5,0,0.5,0,1","1","false",""
"","html-keyboard-response","311","99686","0.0-374.0","3K4J6M3CXFF4Q8QE4JQEZQO4JRGAGX","AHKYVHP6591H8","3PIOQ99R7Y8STPN46QFY0SD7JTFNU0","","null","<img src=""img/food4.png"" style=""width:200px; border:14px solid green;"">","null","","","","","","","","","",""
"","image-keyboard-response","312","99874","0.0-376.0","3K4J6M3CXFF4Q8QE4JQEZQO4JRGAGX","AHKYVHP6591H8","3PIOQ99R7Y8STPN46QFY0SD7JTFNU0","","184.90000000037253","img/food6.png","75","186.79999999981374","2","0","2","2","1,0.5,0,1,0.5,0,0.5,0,1","1,0.5,0,1,0.5,0,0.5,0,1","1","false",""
"","html-keyboard-response","313","100179","0.0-377.0","3K4J6M3CXFF4Q8QE4JQEZQO4JRGAGX","AHKYVHP6591H8","3PIOQ99R7Y8STPN46QFY0SD7JTFNU0","","null","<img src=""img/food6.png"" style=""width:200px;border:14px solid red;"">","null","","","","","","","","","",""
"","image-keyboard-response","314","100467","0.0-379.0","3K4J6M3CXFF4Q8QE4JQEZQO4JRGAGX","AHKYVHP6591H8","3PIOQ99R7Y8STPN46QFY0SD7JTFNU0","","284.5","img/food2.png","75","286.90000000037253","2","0","1","2","1,0.5,0,1,0.5,0,0.5,0,1","1,0.5,0,1,0.5,0,0.5,0,1","1","false",""
"","html-keyboard-response","315","100775","0.0-380.0","3K4J6M3CXFF4Q8QE4JQEZQO4JRGAGX","AHKYVHP6591H8","3PIOQ99R7Y8STPN46QFY0SD7JTFNU0","","null","<img src=""img/food2.png"" style=""width:200px;border:14px solid red;"">","null","","","","","","","","","",""
"","image-keyboard-response","316","101011","0.0-382.0","3K4J6M3CXFF4Q8QE4JQEZQO4JRGAGX","AHKYVHP6591H8","3PIOQ99R7Y8STPN46QFY0SD7JTFNU0","","233.09999999962747","img/food4.png","74","235.29999999981374","1","0","3","2","1,0.5,0,1,0.5,0,0.5,0,1","1,0.5,0,1,0.5,0,0.5,0,1","1","false",""
"","html-keyboard-response","317","101318","0.0-383.0","3K4J6M3CXFF4Q8QE4JQEZQO4JRGAGX","AHKYVHP6591H8","3PIOQ99R7Y8STPN46QFY0SD7JTFNU0","","null","<img src=""img/food4.png"" style=""width:200px;border:14px solid red;"">","null","","","","","","","","","",""
"","image-keyboard-response","318","101491","0.0-385.0","3K4J6M3CXFF4Q8QE4JQEZQO4JRGAGX","AHKYVHP6591H8","3PIOQ99R7Y8STPN46QFY0SD7JTFNU0","","169.29999999981374","img/food6.png","74","171.3999999994412","1","1","2","2","1,0.5,0,1,0.5,0,0.5,0,1","1,0.5,0,1,0.5,0,0.5,0,1","1","false",""
"","html-keyboard-response","319","101799","0.0-386.0","3K4J6M3CXFF4Q8QE4JQEZQO4JRGAGX","AHKYVHP6591H8","3PIOQ99R7Y8STPN46QFY0SD7JTFNU0","","null","<img src=""img/food6.png"" style=""width:200px; border:14px solid green;"">","null","","","","","","","","","",""
"","image-keyboard-response","320","102114","0.0-388.0","3K4J6M3CXFF4Q8QE4JQEZQO4JRGAGX","AHKYVHP6591H8","3PIOQ99R7Y8STPN46QFY0SD7JTFNU0","","313.09999999962747","img/food6.png","74","314.8999999994412","1","1","2","2","1,0.5,0,1,0.5,0,0.5,0,1","1,0.5,0,1,0.5,0,0.5,0,1","1","false",""
"","html-keyboard-response","321","102422","0.0-389.0","3K4J6M3CXFF4Q8QE4JQEZQO4JRGAGX","AHKYVHP6591H8","3PIOQ99R7Y8STPN46QFY0SD7JTFNU0","","null","<img src=""img/food6.png"" style=""width:200px; border:14px solid green;"">","null","","","","","","","","","",""
"","image-keyboard-response","322","102627","0.0-391.0","3K4J6M3CXFF4Q8QE4JQEZQO4JRGAGX","AHKYVHP6591H8","3PIOQ99R7Y8STPN46QFY0SD7JTFNU0","","201.3999999994412","img/food6.png","76","203.40000000037253","3","0","2","2","1,0.5,0,1,0.5,0,0.5,0,1","1,0.5,0,1,0.5,0,0.5,0,1","1","false",""
"","html-keyboard-response","323","102930","0.0-392.0","3K4J6M3CXFF4Q8QE4JQEZQO4JRGAGX","AHKYVHP6591H8","3PIOQ99R7Y8STPN46QFY0SD7JTFNU0","","null","<img src=""img/food6.png"" style=""width:200px;border:14px solid red;"">","null","","","","","","","","","",""
"","image-keyboard-response","324","103202","0.0-394.0","3K4J6M3CXFF4Q8QE4JQEZQO4JRGAGX","AHKYVHP6591H8","3PIOQ99R7Y8STPN46QFY0SD7JTFNU0","","269.5","img/food4.png","76","272.20000000018626","3","1","3","2","1,0.5,0,1,0.5,0,0.5,0,1","1,0.5,0,1,0.5,0,0.5,0,1","1","false",""
"","html-keyboard-response","325","103510","0.0-395.0","3K4J6M3CXFF4Q8QE4JQEZQO4JRGAGX","AHKYVHP6591H8","3PIOQ99R7Y8STPN46QFY0SD7JTFNU0","","null","<img src=""img/food4.png"" style=""width:200px; border:14px solid green;"">","null","","","","","","","","","",""
"","image-keyboard-response","326","103714","0.0-397.0","3K4J6M3CXFF4Q8QE4JQEZQO4JRGAGX","AHKYVHP6591H8","3PIOQ99R7Y8STPN46QFY0SD7JTFNU0","","201.29999999981374","img/food6.png","75","203.09999999962747","2","1","2","2","1,0.5,0,1,0.5,0,0.5,0,1","1,0.5,0,1,0.5,0,0.5,0,1","1","false",""
"","html-keyboard-response","327","104023","0.0-398.0","3K4J6M3CXFF4Q8QE4JQEZQO4JRGAGX","AHKYVHP6591H8","3PIOQ99R7Y8STPN46QFY0SD7JTFNU0","","null","<img src=""img/food6.png"" style=""width:200px; border:14px solid green;"">","null","","","","","","","","","",""
"","image-keyboard-response","328","104033","0.0-400.0","3K4J6M3CXFF4Q8QE4JQEZQO4JRGAGX","AHKYVHP6591H8","3PIOQ99R7Y8STPN46QFY0SD7JTFNU0","","7.900000000372529","img/food6.png","75","9.5","2","1","2","2","1,0.5,0,1,0.5,0,0.5,0,1","1,0.5,0,1,0.5,0,0.5,0,1","1","false",""
"","html-keyboard-response","329","104343","0.0-401.0","3K4J6M3CXFF4Q8QE4JQEZQO4JRGAGX","AHKYVHP6591H8","3PIOQ99R7Y8STPN46QFY0SD7JTFNU0","","null","<img src=""img/food6.png"" style=""width:200px; border:14px solid green;"">","null","","","","","","","","","",""
"","image-keyboard-response","330","104547","0.0-403.0","3K4J6M3CXFF4Q8QE4JQEZQO4JRGAGX","AHKYVHP6591H8","3PIOQ99R7Y8STPN46QFY0SD7JTFNU0","","200.69999999925494","img/food6.png","76","203.20000000018626","3","0","2","2","1,0.5,0,1,0.5,0,0.5,0,1","1,0.5,0,1,0.5,0,0.5,0,1","1","false",""
"","html-keyboard-response","331","104854","0.0-404.0","3K4J6M3CXFF4Q8QE4JQEZQO4JRGAGX","AHKYVHP6591H8","3PIOQ99R7Y8STPN46QFY0SD7JTFNU0","","null","<img src=""img/food6.png"" style=""width:200px;border:14px solid red;"">","null","","","","","","","","","",""
"","image-keyboard-response","332","104865","0.0-406.0","3K4J6M3CXFF4Q8QE4JQEZQO4JRGAGX","AHKYVHP6591H8","3PIOQ99R7Y8STPN46QFY0SD7JTFNU0","","8.5","img/food2.png","76","10.099999999627471","3","0","1","2","1,0.5,0,1,0.5,0,0.5,0,1","1,0.5,0,1,0.5,0,0.5,0,1","1","false",""
"","html-keyboard-response","333","105174","0.0-407.0","3K4J6M3CXFF4Q8QE4JQEZQO4JRGAGX","AHKYVHP6591H8","3PIOQ99R7Y8STPN46QFY0SD7JTFNU0","","null","<img src=""img/food2.png"" style=""width:200px;border:14px solid red;"">","null","","","","","","","","","",""
"","image-keyboard-response","334","105379","0.0-409.0","3K4J6M3CXFF4Q8QE4JQEZQO4JRGAGX","AHKYVHP6591H8","3PIOQ99R7Y8STPN46QFY0SD7JTFNU0","","201.5","img/food4.png","74","203.40000000037253","1","1","3","2","1,0.5,0,1,0.5,0,0.5,0,1","1,0.5,0,1,0.5,0,0.5,0,1","1","false",""
"","html-keyboard-response","335","105686","0.0-410.0","3K4J6M3CXFF4Q8QE4JQEZQO4JRGAGX","AHKYVHP6591H8","3PIOQ99R7Y8STPN46QFY0SD7JTFNU0","","null","<img src=""img/food4.png"" style=""width:200px; border:14px solid green;"">","null","","","","","","","","","",""
"","image-keyboard-response","336","105987","0.0-412.0","3K4J6M3CXFF4Q8QE4JQEZQO4JRGAGX","AHKYVHP6591H8","3PIOQ99R7Y8STPN46QFY0SD7JTFNU0","","297.29999999981374","img/food4.png","75","299.79999999981374","2","0","3","2","1,0.5,0,1,0.5,0,0.5,0,1","1,0.5,0,1,0.5,0,0.5,0,1","1","false",""
"","html-keyboard-response","337","106294","0.0-413.0","3K4J6M3CXFF4Q8QE4JQEZQO4JRGAGX","AHKYVHP6591H8","3PIOQ99R7Y8STPN46QFY0SD7JTFNU0","","null","<img src=""img/food4.png"" style=""width:200px;border:14px solid red;"">","null","","","","","","","","","",""
"","image-keyboard-response","338","106594","0.0-415.0","3K4J6M3CXFF4Q8QE4JQEZQO4JRGAGX","AHKYVHP6591H8","3PIOQ99R7Y8STPN46QFY0SD7JTFNU0","","296.79999999981374","img/food2.png","74","298.80000000074506","1","1","1","2","1,0.5,0,1,0.5,0,0.5,0,1","1,0.5,0,1,0.5,0,0.5,0,1","1","false",""
"","html-keyboard-response","339","106902","0.0-416.0","3K4J6M3CXFF4Q8QE4JQEZQO4JRGAGX","AHKYVHP6591H8","3PIOQ99R7Y8STPN46QFY0SD7JTFNU0","","null","<img src=""img/food2.png"" style=""width:200px; border:14px solid green;"">","null","","","","","","","","","",""
"","image-keyboard-response","340","107233","0.0-418.0","3K4J6M3CXFF4Q8QE4JQEZQO4JRGAGX","AHKYVHP6591H8","3PIOQ99R7Y8STPN46QFY0SD7JTFNU0","","328.5","img/food6.png","76","330.3999999994412","3","0","2","2","1,0.5,0,1,0.5,0,0.5,0,1","1,0.5,0,1,0.5,0,0.5,0,1","1","false",""
"","html-keyboard-response","341","107542","0.0-419.0","3K4J6M3CXFF4Q8QE4JQEZQO4JRGAGX","AHKYVHP6591H8","3PIOQ99R7Y8STPN46QFY0SD7JTFNU0","","null","<img src=""img/food6.png"" style=""width:200px;border:14px solid red;"">","null","","","","","","","","","",""
"","image-keyboard-response","342","107811","0.0-421.0","3K4J6M3CXFF4Q8QE4JQEZQO4JRGAGX","AHKYVHP6591H8","3PIOQ99R7Y8STPN46QFY0SD7JTFNU0","","265.59999999962747","img/food4.png","74","267.8999999994412","1","1","3","2","1,0.5,0,1,0.5,0,0.5,0,1","1,0.5,0,1,0.5,0,0.5,0,1","1","false",""
"","html-keyboard-response","343","108119","0.0-422.0","3K4J6M3CXFF4Q8QE4JQEZQO4JRGAGX","AHKYVHP6591H8","3PIOQ99R7Y8STPN46QFY0SD7JTFNU0","","null","<img src=""img/food4.png"" style=""width:200px; border:14px solid green;"">","null","","","","","","","","","",""
"","image-keyboard-response","344","108435","0.0-424.0","3K4J6M3CXFF4Q8QE4JQEZQO4JRGAGX","AHKYVHP6591H8","3PIOQ99R7Y8STPN46QFY0SD7JTFNU0","","311.90000000037253","img/food6.png","76","314.8999999994412","3","0","2","2","1,0.5,0,1,0.5,0,0.5,0,1","1,0.5,0,1,0.5,0,0.5,0,1","1","false",""
"","html-keyboard-response","345","108742","0.0-425.0","3K4J6M3CXFF4Q8QE4JQEZQO4JRGAGX","AHKYVHP6591H8","3PIOQ99R7Y8STPN46QFY0SD7JTFNU0","","null","<img src=""img/food6.png"" style=""width:200px;border:14px solid red;"">","null","","","","","","","","","",""
"","image-keyboard-response","346","108818","0.0-427.0","3K4J6M3CXFF4Q8QE4JQEZQO4JRGAGX","AHKYVHP6591H8","3PIOQ99R7Y8STPN46QFY0SD7JTFNU0","","72.5","img/food6.png","74","74.19999999925494","1","1","2","2","1,0.5,0,1,0.5,0,0.5,0,1","1,0.5,0,1,0.5,0,0.5,0,1","1","false",""
"","html-keyboard-response","347","109127","0.0-428.0","3K4J6M3CXFF4Q8QE4JQEZQO4JRGAGX","AHKYVHP6591H8","3PIOQ99R7Y8STPN46QFY0SD7JTFNU0","","null","<img src=""img/food6.png"" style=""width:200px; border:14px solid green;"">","null","","","","","","","","","",""
"","image-keyboard-response","348","109315","0.0-430.0","3K4J6M3CXFF4Q8QE4JQEZQO4JRGAGX","AHKYVHP6591H8","3PIOQ99R7Y8STPN46QFY0SD7JTFNU0","","184.59999999962747","img/food2.png","74","185.90000000037253","1","1","1","2","1,0.5,0,1,0.5,0,0.5,0,1","1,0.5,0,1,0.5,0,0.5,0,1","1","false",""
"","html-keyboard-response","349","109622","0.0-431.0","3K4J6M3CXFF4Q8QE4JQEZQO4JRGAGX","AHKYVHP6591H8","3PIOQ99R7Y8STPN46QFY0SD7JTFNU0","","null","<img src=""img/food2.png"" style=""width:200px; border:14px solid green;"">","null","","","","","","","","","",""
"","image-keyboard-response","350","109842","0.0-433.0","3K4J6M3CXFF4Q8QE4JQEZQO4JRGAGX","AHKYVHP6591H8","3PIOQ99R7Y8STPN46QFY0SD7JTFNU0","","218.09999999962747","img/food4.png","75","219.5","2","0","3","2","1,0.5,0,1,0.5,0,0.5,0,1","1,0.5,0,1,0.5,0,0.5,0,1","1","false",""
"","html-keyboard-response","351","110150","0.0-434.0","3K4J6M3CXFF4Q8QE4JQEZQO4JRGAGX","AHKYVHP6591H8","3PIOQ99R7Y8STPN46QFY0SD7JTFNU0","","null","<img src=""img/food4.png"" style=""width:200px;border:14px solid red;"">","null","","","","","","","","","",""
"","image-keyboard-response","352","110322","0.0-436.0","3K4J6M3CXFF4Q8QE4JQEZQO4JRGAGX","AHKYVHP6591H8","3PIOQ99R7Y8STPN46QFY0SD7JTFNU0","","169.29999999981374","img/food2.png","76","170.8999999994412","3","0","1","2","1,0.5,0,1,0.5,0,0.5,0,1","1,0.5,0,1,0.5,0,0.5,0,1","1","false",""
"","html-keyboard-response","353","110630","0.0-437.0","3K4J6M3CXFF4Q8QE4JQEZQO4JRGAGX","AHKYVHP6591H8","3PIOQ99R7Y8STPN46QFY0SD7JTFNU0","","null","<img src=""img/food2.png"" style=""width:200px;border:14px solid red;"">","null","","","","","","","","","",""
"","image-keyboard-response","354","110818","0.0-439.0","3K4J6M3CXFF4Q8QE4JQEZQO4JRGAGX","AHKYVHP6591H8","3PIOQ99R7Y8STPN46QFY0SD7JTFNU0","","185.29999999981374","img/food2.png","76","187.1000000005588","3","0","1","2","1,0.5,0,1,0.5,0,0.5,0,1","1,0.5,0,1,0.5,0,0.5,0,1","1","false",""
"","html-keyboard-response","355","111126","0.0-440.0","3K4J6M3CXFF4Q8QE4JQEZQO4JRGAGX","AHKYVHP6591H8","3PIOQ99R7Y8STPN46QFY0SD7JTFNU0","","null","<img src=""img/food2.png"" style=""width:200px;border:14px solid red;"">","null","","","","","","","","","",""
"","image-keyboard-response","356","111362","0.0-442.0","3K4J6M3CXFF4Q8QE4JQEZQO4JRGAGX","AHKYVHP6591H8","3PIOQ99R7Y8STPN46QFY0SD7JTFNU0","","233.1000000005588","img/food4.png","76","234.79999999981374","3","1","3","2","1,0.5,0,1,0.5,0,0.5,0,1","1,0.5,0,1,0.5,0,0.5,0,1","1","false",""
"","html-keyboard-response","357","111667","0.0-443.0","3K4J6M3CXFF4Q8QE4JQEZQO4JRGAGX","AHKYVHP6591H8","3PIOQ99R7Y8STPN46QFY0SD7JTFNU0","","null","<img src=""img/food4.png"" style=""width:200px; border:14px solid green;"">","null","","","","","","","","","",""
"","image-keyboard-response","358","111971","0.0-445.0","3K4J6M3CXFF4Q8QE4JQEZQO4JRGAGX","AHKYVHP6591H8","3PIOQ99R7Y8STPN46QFY0SD7JTFNU0","","301.20000000018626","img/food2.png","76","303.09999999962747","3","0","1","2","1,0.5,0,1,0.5,0,0.5,0,1","1,0.5,0,1,0.5,0,0.5,0,1","1","false",""
"","html-keyboard-response","359","112278","0.0-446.0","3K4J6M3CXFF4Q8QE4JQEZQO4JRGAGX","AHKYVHP6591H8","3PIOQ99R7Y8STPN46QFY0SD7JTFNU0","","null","<img src=""img/food2.png"" style=""width:200px;border:14px solid red;"">","null","","","","","","","","","",""
"","image-keyboard-response","360","112514","0.0-448.0","3K4J6M3CXFF4Q8QE4JQEZQO4JRGAGX","AHKYVHP6591H8","3PIOQ99R7Y8STPN46QFY0SD7JTFNU0","","233.40000000037253","img/food6.png","74","235.70000000018626","1","1","2","2","1,0.5,0,1,0.5,0,0.5,0,1","1,0.5,0,1,0.5,0,0.5,0,1","1","false",""
"","html-keyboard-response","361","112822","0.0-449.0","3K4J6M3CXFF4Q8QE4JQEZQO4JRGAGX","AHKYVHP6591H8","3PIOQ99R7Y8STPN46QFY0SD7JTFNU0","","null","<img src=""img/food6.png"" style=""width:200px; border:14px solid green;"">","null","","","","","","","","","",""
"","image-keyboard-response","362","113106","0.0-451.0","3K4J6M3CXFF4Q8QE4JQEZQO4JRGAGX","AHKYVHP6591H8","3PIOQ99R7Y8STPN46QFY0SD7JTFNU0","","281.79999999981374","img/food4.png","75","283.59999999962747","2","0","3","2","1,0.5,0,1,0.5,0,0.5,0,1","1,0.5,0,1,0.5,0,0.5,0,1","1","false",""
"","html-keyboard-response","363","113415","0.0-452.0","3K4J6M3CXFF4Q8QE4JQEZQO4JRGAGX","AHKYVHP6591H8","3PIOQ99R7Y8STPN46QFY0SD7JTFNU0","","null","<img src=""img/food4.png"" style=""width:200px;border:14px solid red;"">","null","","","","","","","","","",""
"","instructions","364","116154","0.0-454.0","3K4J6M3CXFF4Q8QE4JQEZQO4JRGAGX","AHKYVHP6591H8","3PIOQ99R7Y8STPN46QFY0SD7JTFNU0","[{""page_index"":0,""viewing_time"":2736.800000000745}]","2737.300000000745","","","","","","","","","","","",""
"","survey-text","365","120796","0.0-455.0","3K4J6M3CXFF4Q8QE4JQEZQO4JRGAGX","AHKYVHP6591H8","3PIOQ99R7Y8STPN46QFY0SD7JTFNU0","","4634.100000000559","","","","","","","","","","","","{""Q0"":""AHKYVHP6591H8""}"
