"success","trial_type","trial_index","time_elapsed","internal_node_id","assignmentID","mturkID","hitID","view_history","rt","stimulus","key_press","reactionTime","a","r","warning","s","cond","reward_cond","reward_cond_actual","reward_matrix_idx","responses"
"true","fullscreen","0","3862","0.0-0.0","30X31N5D64C7GDZ5ZJKVO47777AASR","AHV4U78TUUDKI","3566S7OX5D5NH74JOVOPTTMK8IR17K","","","","","","","","","","","","","",""
"","instructions","1","34203","0.0-1.0","30X31N5D64C7GDZ5ZJKVO47777AASR","AHV4U78TUUDKI","3566S7OX5D5NH74JOVOPTTMK8IR17K","[{""page_index"":0,""viewing_time"":5346.899999976158},{""page_index"":1,""viewing_time"":2091.5},{""page_index"":2,""viewing_time"":2089.9000000059605},{""page_index"":3,""viewing_time"":4508.0999999940395},{""page_index"":4,""viewing_time"":1825.9000000059605},{""page_index"":5,""viewing_time"":3760.0999999940395},{""page_index"":6,""viewing_time"":4900},{""page_index"":5,""viewing_time"":2156.100000023842},{""page_index"":4,""viewing_time"":1473.699999988079},{""page_index"":5,""viewing_time"":1100.800000011921},{""page_index"":6,""viewing_time"":1087.3999999761581}]","30340.5","","","","","","","","","","","",""
"","instructions","2","45991","0.0-2.0","30X31N5D64C7GDZ5ZJKVO47777AASR","AHV4U78TUUDKI","3566S7OX5D5NH74JOVOPTTMK8IR17K","[{""page_index"":0,""viewing_time"":10289.199999988079},{""page_index"":1,""viewing_time"":1497.9000000059605}]","11787.299999982119","","","","","","","","","","","",""
"","image-keyboard-response","3","46597","0.0-3.0","30X31N5D64C7GDZ5ZJKVO47777AASR","AHV4U78TUUDKI","3566S7OX5D5NH74JOVOPTTMK8IR17K","","605.1999999880791","img/food6.png","74","606","1","0","false","2","2","1,0.5,0,1,0.5,0,0.5,0,1","0,1,0.5,0,1,0.5,1,0.5,0","3",""
"","html-keyboard-response","4","46899","0.0-4.0","30X31N5D64C7GDZ5ZJKVO47777AASR","AHV4U78TUUDKI","3566S7OX5D5NH74JOVOPTTMK8IR17K","","null","<img src=""img/food6.png"" style=""width:200px;border:14px solid red;"">","null","","","","","","","","","",""
"","image-keyboard-response","5","47741","0.0-6.0","30X31N5D64C7GDZ5ZJKVO47777AASR","AHV4U78TUUDKI","3566S7OX5D5NH74JOVOPTTMK8IR17K","","841.2999999821186","img/food6.png","75","841.9000000059605","2","1","false","2","2","1,0.5,0,1,0.5,0,0.5,0,1","0,1,0.5,0,1,0.5,1,0.5,0","3",""
"","html-keyboard-response","6","48043","0.0-7.0","30X31N5D64C7GDZ5ZJKVO47777AASR","AHV4U78TUUDKI","3566S7OX5D5NH74JOVOPTTMK8IR17K","","null","<img src=""img/food6.png"" style=""width:200px; border:14px solid green;"">","null","","","","","","","","","",""
"","image-keyboard-response","7","48677","0.0-9.0","30X31N5D64C7GDZ5ZJKVO47777AASR","AHV4U78TUUDKI","3566S7OX5D5NH74JOVOPTTMK8IR17K","","632.9000000059605","img/food6.png","75","633.4000000059605","2","1","false","2","2","1,0.5,0,1,0.5,0,0.5,0,1","0,1,0.5,0,1,0.5,1,0.5,0","3",""
"","html-keyboard-response","8","48978","0.0-10.0","30X31N5D64C7GDZ5ZJKVO47777AASR","AHV4U78TUUDKI","3566S7OX5D5NH74JOVOPTTMK8IR17K","","null","<img src=""img/food6.png"" style=""width:200px; border:14px solid green;"">","null","","","","","","","","","",""
"","image-keyboard-response","9","49613","0.0-12.0","30X31N5D64C7GDZ5ZJKVO47777AASR","AHV4U78TUUDKI","3566S7OX5D5NH74JOVOPTTMK8IR17K","","633.7999999821186","img/food3.png","76","634.4000000059605","3","0","false","1","2","1,0.5,0,1,0.5,0,0.5,0,1","0,1,0.5,0,1,0.5,1,0.5,0","3",""
"","html-keyboard-response","10","49915","0.0-13.0","30X31N5D64C7GDZ5ZJKVO47777AASR","AHV4U78TUUDKI","3566S7OX5D5NH74JOVOPTTMK8IR17K","","null","<img src=""img/food3.png"" style=""width:200px;border:14px solid red;"">","null","","","","","","","","","",""
"","image-keyboard-response","11","50301","0.0-15.0","30X31N5D64C7GDZ5ZJKVO47777AASR","AHV4U78TUUDKI","3566S7OX5D5NH74JOVOPTTMK8IR17K","","385.09999999403954","img/food3.png","74","385.59999999403954","1","0","false","1","2","1,0.5,0,1,0.5,0,0.5,0,1","0,1,0.5,0,1,0.5,1,0.5,0","3",""
"","html-keyboard-response","12","50602","0.0-16.0","30X31N5D64C7GDZ5ZJKVO47777AASR","AHV4U78TUUDKI","3566S7OX5D5NH74JOVOPTTMK8IR17K","","null","<img src=""img/food3.png"" style=""width:200px;border:14px solid red;"">","null","","","","","","","","","",""
"","image-keyboard-response","13","51237","0.0-18.0","30X31N5D64C7GDZ5ZJKVO47777AASR","AHV4U78TUUDKI","3566S7OX5D5NH74JOVOPTTMK8IR17K","","634.1999999880791","img/food6.png","75","634.5","2","1","false","2","2","1,0.5,0,1,0.5,0,0.5,0,1","0,1,0.5,0,1,0.5,1,0.5,0","3",""
"","html-keyboard-response","14","51539","0.0-19.0","30X31N5D64C7GDZ5ZJKVO47777AASR","AHV4U78TUUDKI","3566S7OX5D5NH74JOVOPTTMK8IR17K","","null","<img src=""img/food6.png"" style=""width:200px; border:14px solid green;"">","null","","","","","","","","","",""
"","image-keyboard-response","15","52501","0.0-21.0","30X31N5D64C7GDZ5ZJKVO47777AASR","AHV4U78TUUDKI","3566S7OX5D5NH74JOVOPTTMK8IR17K","","961.5","img/food2.png","76","962.1000000238419","3","0","false","3","2","1,0.5,0,1,0.5,0,0.5,0,1","0,1,0.5,0,1,0.5,1,0.5,0","3",""
"","html-keyboard-response","16","52803","0.0-22.0","30X31N5D64C7GDZ5ZJKVO47777AASR","AHV4U78TUUDKI","3566S7OX5D5NH74JOVOPTTMK8IR17K","","null","<img src=""img/food2.png"" style=""width:200px;border:14px solid red;"">","null","","","","","","","","","",""
"","image-keyboard-response","17","53485","0.0-24.0","30X31N5D64C7GDZ5ZJKVO47777AASR","AHV4U78TUUDKI","3566S7OX5D5NH74JOVOPTTMK8IR17K","","681.0999999940395","img/food6.png","75","681.6000000238419","2","1","false","2","2","1,0.5,0,1,0.5,0,0.5,0,1","0,1,0.5,0,1,0.5,1,0.5,0","3",""
"","html-keyboard-response","18","53787","0.0-25.0","30X31N5D64C7GDZ5ZJKVO47777AASR","AHV4U78TUUDKI","3566S7OX5D5NH74JOVOPTTMK8IR17K","","null","<img src=""img/food6.png"" style=""width:200px; border:14px solid green;"">","null","","","","","","","","","",""
"","image-keyboard-response","19","54429","0.0-27.0","30X31N5D64C7GDZ5ZJKVO47777AASR","AHV4U78TUUDKI","3566S7OX5D5NH74JOVOPTTMK8IR17K","","641.7999999821186","img/food6.png","75","642.3000000119209","2","1","false","2","2","1,0.5,0,1,0.5,0,0.5,0,1","0,1,0.5,0,1,0.5,1,0.5,0","3",""
"","html-keyboard-response","20","54731","0.0-28.0","30X31N5D64C7GDZ5ZJKVO47777AASR","AHV4U78TUUDKI","3566S7OX5D5NH74JOVOPTTMK8IR17K","","null","<img src=""img/food6.png"" style=""width:200px; border:14px solid green;"">","null","","","","","","","","","",""
"","image-keyboard-response","21","55629","0.0-30.0","30X31N5D64C7GDZ5ZJKVO47777AASR","AHV4U78TUUDKI","3566S7OX5D5NH74JOVOPTTMK8IR17K","","897.5","img/food3.png","74","898.1000000238419","1","0","false","1","2","1,0.5,0,1,0.5,0,0.5,0,1","0,1,0.5,0,1,0.5,1,0.5,0","3",""
"","html-keyboard-response","22","55930","0.0-31.0","30X31N5D64C7GDZ5ZJKVO47777AASR","AHV4U78TUUDKI","3566S7OX5D5NH74JOVOPTTMK8IR17K","","null","<img src=""img/food3.png"" style=""width:200px;border:14px solid red;"">","null","","","","","","","","","",""
"","image-keyboard-response","23","56677","0.0-33.0","30X31N5D64C7GDZ5ZJKVO47777AASR","AHV4U78TUUDKI","3566S7OX5D5NH74JOVOPTTMK8IR17K","","745.8000000119209","img/food3.png","76","746.3000000119209","3","0","false","1","2","1,0.5,0,1,0.5,0,0.5,0,1","0,1,0.5,0,1,0.5,1,0.5,0","3",""
"","html-keyboard-response","24","56979","0.0-34.0","30X31N5D64C7GDZ5ZJKVO47777AASR","AHV4U78TUUDKI","3566S7OX5D5NH74JOVOPTTMK8IR17K","","null","<img src=""img/food3.png"" style=""width:200px;border:14px solid red;"">","null","","","","","","","","","",""
"","image-keyboard-response","25","57636","0.0-36.0","30X31N5D64C7GDZ5ZJKVO47777AASR","AHV4U78TUUDKI","3566S7OX5D5NH74JOVOPTTMK8IR17K","","657.5","img/food6.png","75","657.9000000059605","2","1","false","2","2","1,0.5,0,1,0.5,0,0.5,0,1","0,1,0.5,0,1,0.5,1,0.5,0","3",""
"","html-keyboard-response","26","57941","0.0-37.0","30X31N5D64C7GDZ5ZJKVO47777AASR","AHV4U78TUUDKI","3566S7OX5D5NH74JOVOPTTMK8IR17K","","null","<img src=""img/food6.png"" style=""width:200px; border:14px solid green;"">","null","","","","","","","","","",""
"","image-keyboard-response","27","58508","0.0-39.0","30X31N5D64C7GDZ5ZJKVO47777AASR","AHV4U78TUUDKI","3566S7OX5D5NH74JOVOPTTMK8IR17K","","566.2999999821186","img/food3.png","75","566.5999999940395","2","1","false","1","2","1,0.5,0,1,0.5,0,0.5,0,1","0,1,0.5,0,1,0.5,1,0.5,0","3",""
"","html-keyboard-response","28","58810","0.0-40.0","30X31N5D64C7GDZ5ZJKVO47777AASR","AHV4U78TUUDKI","3566S7OX5D5NH74JOVOPTTMK8IR17K","","null","<img src=""img/food3.png"" style=""width:200px; border:14px solid green;"">","null","","","","","","","","","",""
"","image-keyboard-response","29","59380","0.0-42.0","30X31N5D64C7GDZ5ZJKVO47777AASR","AHV4U78TUUDKI","3566S7OX5D5NH74JOVOPTTMK8IR17K","","570","img/food3.png","75","570.2999999821186","2","1","false","1","2","1,0.5,0,1,0.5,0,0.5,0,1","0,1,0.5,0,1,0.5,1,0.5,0","3",""
"","html-keyboard-response","30","59681","0.0-43.0","30X31N5D64C7GDZ5ZJKVO47777AASR","AHV4U78TUUDKI","3566S7OX5D5NH74JOVOPTTMK8IR17K","","null","<img src=""img/food3.png"" style=""width:200px; border:14px solid green;"">","null","","","","","","","","","",""
"","image-keyboard-response","31","60212","0.0-45.0","30X31N5D64C7GDZ5ZJKVO47777AASR","AHV4U78TUUDKI","3566S7OX5D5NH74JOVOPTTMK8IR17K","","530.1999999880791","img/food6.png","75","530.5999999940395","2","1","false","2","2","1,0.5,0,1,0.5,0,0.5,0,1","0,1,0.5,0,1,0.5,1,0.5,0","3",""
"","html-keyboard-response","32","60514","0.0-46.0","30X31N5D64C7GDZ5ZJKVO47777AASR","AHV4U78TUUDKI","3566S7OX5D5NH74JOVOPTTMK8IR17K","","null","<img src=""img/food6.png"" style=""width:200px; border:14px solid green;"">","null","","","","","","","","","",""
"","image-keyboard-response","33","61068","0.0-48.0","30X31N5D64C7GDZ5ZJKVO47777AASR","AHV4U78TUUDKI","3566S7OX5D5NH74JOVOPTTMK8IR17K","","553.8000000119209","img/food2.png","75","554.1999999880791","2","0","false","3","2","1,0.5,0,1,0.5,0,0.5,0,1","0,1,0.5,0,1,0.5,1,0.5,0","3",""
"","html-keyboard-response","34","61381","0.0-49.0","30X31N5D64C7GDZ5ZJKVO47777AASR","AHV4U78TUUDKI","3566S7OX5D5NH74JOVOPTTMK8IR17K","","null","<img src=""img/food2.png"" style=""width:200px;border:14px solid red;"">","null","","","","","","","","","",""
"","image-keyboard-response","35","62124","0.0-51.0","30X31N5D64C7GDZ5ZJKVO47777AASR","AHV4U78TUUDKI","3566S7OX5D5NH74JOVOPTTMK8IR17K","","742.5999999940395","img/food2.png","76","743","3","0","false","3","2","1,0.5,0,1,0.5,0,0.5,0,1","0,1,0.5,0,1,0.5,1,0.5,0","3",""
"","html-keyboard-response","36","62426","0.0-52.0","30X31N5D64C7GDZ5ZJKVO47777AASR","AHV4U78TUUDKI","3566S7OX5D5NH74JOVOPTTMK8IR17K","","null","<img src=""img/food2.png"" style=""width:200px;border:14px solid red;"">","null","","","","","","","","","",""
"","image-keyboard-response","37","63300","0.0-54.0","30X31N5D64C7GDZ5ZJKVO47777AASR","AHV4U78TUUDKI","3566S7OX5D5NH74JOVOPTTMK8IR17K","","873.6999999880791","img/food6.png","75","874.3000000119209","2","1","false","2","2","1,0.5,0,1,0.5,0,0.5,0,1","0,1,0.5,0,1,0.5,1,0.5,0","3",""
"","html-keyboard-response","38","63601","0.0-55.0","30X31N5D64C7GDZ5ZJKVO47777AASR","AHV4U78TUUDKI","3566S7OX5D5NH74JOVOPTTMK8IR17K","","null","<img src=""img/food6.png"" style=""width:200px; border:14px solid green;"">","null","","","","","","","","","",""
"","image-keyboard-response","39","64252","0.0-57.0","30X31N5D64C7GDZ5ZJKVO47777AASR","AHV4U78TUUDKI","3566S7OX5D5NH74JOVOPTTMK8IR17K","","650.4000000059605","img/food2.png","74","650.8999999761581","1","1","false","3","2","1,0.5,0,1,0.5,0,0.5,0,1","0,1,0.5,0,1,0.5,1,0.5,0","3",""
"","html-keyboard-response","40","64554","0.0-58.0","30X31N5D64C7GDZ5ZJKVO47777AASR","AHV4U78TUUDKI","3566S7OX5D5NH74JOVOPTTMK8IR17K","","null","<img src=""img/food2.png"" style=""width:200px; border:14px solid green;"">","null","","","","","","","","","",""
"","image-keyboard-response","41","65116","0.0-60.0","30X31N5D64C7GDZ5ZJKVO47777AASR","AHV4U78TUUDKI","3566S7OX5D5NH74JOVOPTTMK8IR17K","","561.5","img/food2.png","74","562","1","1","false","3","2","1,0.5,0,1,0.5,0,0.5,0,1","0,1,0.5,0,1,0.5,1,0.5,0","3",""
"","html-keyboard-response","42","65417","0.0-61.0","30X31N5D64C7GDZ5ZJKVO47777AASR","AHV4U78TUUDKI","3566S7OX5D5NH74JOVOPTTMK8IR17K","","null","<img src=""img/food2.png"" style=""width:200px; border:14px solid green;"">","null","","","","","","","","","",""
"","image-keyboard-response","43","66076","0.0-63.0","30X31N5D64C7GDZ5ZJKVO47777AASR","AHV4U78TUUDKI","3566S7OX5D5NH74JOVOPTTMK8IR17K","","658","img/food6.png","75","658.5","2","1","false","2","2","1,0.5,0,1,0.5,0,0.5,0,1","0,1,0.5,0,1,0.5,1,0.5,0","3",""
"","html-keyboard-response","44","66377","0.0-64.0","30X31N5D64C7GDZ5ZJKVO47777AASR","AHV4U78TUUDKI","3566S7OX5D5NH74JOVOPTTMK8IR17K","","null","<img src=""img/food6.png"" style=""width:200px; border:14px solid green;"">","null","","","","","","","","","",""
"","image-keyboard-response","45","67379","0.0-66.0","30X31N5D64C7GDZ5ZJKVO47777AASR","AHV4U78TUUDKI","3566S7OX5D5NH74JOVOPTTMK8IR17K","","","img/food3.png","","1001.5999999940395","-1","0","true","1","2","1,0.5,0,1,0.5,0,0.5,0,1","0,1,0.5,0,1,0.5,1,0.5,0","3",""
"","html-keyboard-response","46","67681","0.0-67.0","30X31N5D64C7GDZ5ZJKVO47777AASR","AHV4U78TUUDKI","3566S7OX5D5NH74JOVOPTTMK8IR17K","","null","<img src=""img/food3.png"" style=""width:200px;border:14px solid red;"">","null","","","","","","","","","",""
"","html-keyboard-response","47","70478","0.0-68.0-0.0","30X31N5D64C7GDZ5ZJKVO47777AASR","AHV4U78TUUDKI","3566S7OX5D5NH74JOVOPTTMK8IR17K","","","","","","","","","","","","","",""
"","image-keyboard-response","48","70876","0.0-69.0","30X31N5D64C7GDZ5ZJKVO47777AASR","AHV4U78TUUDKI","3566S7OX5D5NH74JOVOPTTMK8IR17K","","397.19999998807907","img/food3.png","75","397.69999998807907","2","1","false","1","2","1,0.5,0,1,0.5,0,0.5,0,1","0,1,0.5,0,1,0.5,1,0.5,0","3",""
"","html-keyboard-response","49","71179","0.0-70.0","30X31N5D64C7GDZ5ZJKVO47777AASR","AHV4U78TUUDKI","3566S7OX5D5NH74JOVOPTTMK8IR17K","","null","<img src=""img/food3.png"" style=""width:200px; border:14px solid green;"">","null","","","","","","","","","",""
"","image-keyboard-response","50","71644","0.0-72.0","30X31N5D64C7GDZ5ZJKVO47777AASR","AHV4U78TUUDKI","3566S7OX5D5NH74JOVOPTTMK8IR17K","","464.40000000596046","img/food2.png","75","464.7999999821186","2","1","false","3","2","1,0.5,0,1,0.5,0,0.5,0,1","0,1,0.5,0,1,0.5,1,0.5,0","3",""
"","html-keyboard-response","51","71946","0.0-73.0","30X31N5D64C7GDZ5ZJKVO47777AASR","AHV4U78TUUDKI","3566S7OX5D5NH74JOVOPTTMK8IR17K","","null","<img src=""img/food2.png"" style=""width:200px; border:14px solid green;"">","null","","","","","","","","","",""
"","image-keyboard-response","52","72468","0.0-75.0","30X31N5D64C7GDZ5ZJKVO47777AASR","AHV4U78TUUDKI","3566S7OX5D5NH74JOVOPTTMK8IR17K","","521.8000000119209","img/food3.png","75","522.1999999880791","2","1","false","1","2","1,0.5,0,1,0.5,0,0.5,0,1","0,1,0.5,0,1,0.5,1,0.5,0","3",""
"","html-keyboard-response","53","72770","0.0-76.0","30X31N5D64C7GDZ5ZJKVO47777AASR","AHV4U78TUUDKI","3566S7OX5D5NH74JOVOPTTMK8IR17K","","null","<img src=""img/food3.png"" style=""width:200px; border:14px solid green;"">","null","","","","","","","","","",""
"","image-keyboard-response","54","73236","0.0-78.0","30X31N5D64C7GDZ5ZJKVO47777AASR","AHV4U78TUUDKI","3566S7OX5D5NH74JOVOPTTMK8IR17K","","465.69999998807907","img/food2.png","75","466.2000000178814","2","0","false","3","2","1,0.5,0,1,0.5,0,0.5,0,1","0,1,0.5,0,1,0.5,1,0.5,0","3",""
"","html-keyboard-response","55","73538","0.0-79.0","30X31N5D64C7GDZ5ZJKVO47777AASR","AHV4U78TUUDKI","3566S7OX5D5NH74JOVOPTTMK8IR17K","","null","<img src=""img/food2.png"" style=""width:200px;border:14px solid red;"">","null","","","","","","","","","",""
"","image-keyboard-response","56","73988","0.0-81.0","30X31N5D64C7GDZ5ZJKVO47777AASR","AHV4U78TUUDKI","3566S7OX5D5NH74JOVOPTTMK8IR17K","","449.5","img/food2.png","74","449.89999997615814","1","1","false","3","2","1,0.5,0,1,0.5,0,0.5,0,1","0,1,0.5,0,1,0.5,1,0.5,0","3",""
"","html-keyboard-response","57","74297","0.0-82.0","30X31N5D64C7GDZ5ZJKVO47777AASR","AHV4U78TUUDKI","3566S7OX5D5NH74JOVOPTTMK8IR17K","","null","<img src=""img/food2.png"" style=""width:200px; border:14px solid green;"">","null","","","","","","","","","",""
"","image-keyboard-response","58","74740","0.0-84.0","30X31N5D64C7GDZ5ZJKVO47777AASR","AHV4U78TUUDKI","3566S7OX5D5NH74JOVOPTTMK8IR17K","","443","img/food2.png","74","443.5","1","1","false","3","2","1,0.5,0,1,0.5,0,0.5,0,1","0,1,0.5,0,1,0.5,1,0.5,0","3",""
"","html-keyboard-response","59","75042","0.0-85.0","30X31N5D64C7GDZ5ZJKVO47777AASR","AHV4U78TUUDKI","3566S7OX5D5NH74JOVOPTTMK8IR17K","","null","<img src=""img/food2.png"" style=""width:200px; border:14px solid green;"">","null","","","","","","","","","",""
"","image-keyboard-response","60","75500","0.0-87.0","30X31N5D64C7GDZ5ZJKVO47777AASR","AHV4U78TUUDKI","3566S7OX5D5NH74JOVOPTTMK8IR17K","","457.59999999403954","img/food6.png","75","458.09999999403954","2","1","false","2","2","1,0.5,0,1,0.5,0,0.5,0,1","0,1,0.5,0,1,0.5,1,0.5,0","3",""
"","html-keyboard-response","61","75802","0.0-88.0","30X31N5D64C7GDZ5ZJKVO47777AASR","AHV4U78TUUDKI","3566S7OX5D5NH74JOVOPTTMK8IR17K","","null","<img src=""img/food6.png"" style=""width:200px; border:14px solid green;"">","null","","","","","","","","","",""
"","image-keyboard-response","62","76396","0.0-90.0","30X31N5D64C7GDZ5ZJKVO47777AASR","AHV4U78TUUDKI","3566S7OX5D5NH74JOVOPTTMK8IR17K","","594","img/food2.png","74","594.5","1","1","false","3","2","1,0.5,0,1,0.5,0,0.5,0,1","0,1,0.5,0,1,0.5,1,0.5,0","3",""
"","html-keyboard-response","63","76698","0.0-91.0","30X31N5D64C7GDZ5ZJKVO47777AASR","AHV4U78TUUDKI","3566S7OX5D5NH74JOVOPTTMK8IR17K","","null","<img src=""img/food2.png"" style=""width:200px; border:14px solid green;"">","null","","","","","","","","","",""
"","image-keyboard-response","64","77052","0.0-93.0","30X31N5D64C7GDZ5ZJKVO47777AASR","AHV4U78TUUDKI","3566S7OX5D5NH74JOVOPTTMK8IR17K","","353.69999998807907","img/food3.png","74","354.09999999403954","1","0","false","1","2","1,0.5,0,1,0.5,0,0.5,0,1","0,1,0.5,0,1,0.5,1,0.5,0","3",""
"","html-keyboard-response","65","77353","0.0-94.0","30X31N5D64C7GDZ5ZJKVO47777AASR","AHV4U78TUUDKI","3566S7OX5D5NH74JOVOPTTMK8IR17K","","null","<img src=""img/food3.png"" style=""width:200px;border:14px solid red;"">","null","","","","","","","","","",""
"","image-keyboard-response","66","77580","0.0-96.0","30X31N5D64C7GDZ5ZJKVO47777AASR","AHV4U78TUUDKI","3566S7OX5D5NH74JOVOPTTMK8IR17K","","226.19999998807907","img/food6.png","75","226.5","2","1","false","2","2","1,0.5,0,1,0.5,0,0.5,0,1","0,1,0.5,0,1,0.5,1,0.5,0","3",""
"","html-keyboard-response","67","77881","0.0-97.0","30X31N5D64C7GDZ5ZJKVO47777AASR","AHV4U78TUUDKI","3566S7OX5D5NH74JOVOPTTMK8IR17K","","null","<img src=""img/food6.png"" style=""width:200px; border:14px solid green;"">","null","","","","","","","","","",""
"","image-keyboard-response","68","78132","0.0-99.0","30X31N5D64C7GDZ5ZJKVO47777AASR","AHV4U78TUUDKI","3566S7OX5D5NH74JOVOPTTMK8IR17K","","250.30000001192093","img/food2.png","75","250.7999999821186","2","0","false","3","2","1,0.5,0,1,0.5,0,0.5,0,1","0,1,0.5,0,1,0.5,1,0.5,0","3",""
"","html-keyboard-response","69","78433","0.0-100.0","30X31N5D64C7GDZ5ZJKVO47777AASR","AHV4U78TUUDKI","3566S7OX5D5NH74JOVOPTTMK8IR17K","","null","<img src=""img/food2.png"" style=""width:200px;border:14px solid red;"">","null","","","","","","","","","",""
"","image-keyboard-response","70","78716","0.0-102.0","30X31N5D64C7GDZ5ZJKVO47777AASR","AHV4U78TUUDKI","3566S7OX5D5NH74JOVOPTTMK8IR17K","","282.69999998807907","img/food3.png","74","283","1","0","false","1","2","1,0.5,0,1,0.5,0,0.5,0,1","0,1,0.5,0,1,0.5,1,0.5,0","3",""
"","html-keyboard-response","71","79018","0.0-103.0","30X31N5D64C7GDZ5ZJKVO47777AASR","AHV4U78TUUDKI","3566S7OX5D5NH74JOVOPTTMK8IR17K","","null","<img src=""img/food3.png"" style=""width:200px;border:14px solid red;"">","null","","","","","","","","","",""
"","image-keyboard-response","72","79332","0.0-105.0","30X31N5D64C7GDZ5ZJKVO47777AASR","AHV4U78TUUDKI","3566S7OX5D5NH74JOVOPTTMK8IR17K","","313.90000000596046","img/food2.png","75","314.2999999821186","2","1","false","3","2","1,0.5,0,1,0.5,0,0.5,0,1","0,1,0.5,0,1,0.5,1,0.5,0","3",""
"","html-keyboard-response","73","79634","0.0-106.0","30X31N5D64C7GDZ5ZJKVO47777AASR","AHV4U78TUUDKI","3566S7OX5D5NH74JOVOPTTMK8IR17K","","null","<img src=""img/food2.png"" style=""width:200px; border:14px solid green;"">","null","","","","","","","","","",""
"","image-keyboard-response","74","79988","0.0-108.0","30X31N5D64C7GDZ5ZJKVO47777AASR","AHV4U78TUUDKI","3566S7OX5D5NH74JOVOPTTMK8IR17K","","353.30000001192093","img/food6.png","75","353.69999998807907","2","1","false","2","2","1,0.5,0,1,0.5,0,0.5,0,1","0,1,0.5,0,1,0.5,1,0.5,0","3",""
"","html-keyboard-response","75","80290","0.0-109.0","30X31N5D64C7GDZ5ZJKVO47777AASR","AHV4U78TUUDKI","3566S7OX5D5NH74JOVOPTTMK8IR17K","","null","<img src=""img/food6.png"" style=""width:200px; border:14px solid green;"">","null","","","","","","","","","",""
"","image-keyboard-response","76","80684","0.0-111.0","30X31N5D64C7GDZ5ZJKVO47777AASR","AHV4U78TUUDKI","3566S7OX5D5NH74JOVOPTTMK8IR17K","","393.59999999403954","img/food2.png","75","394.09999999403954","2","1","false","3","2","1,0.5,0,1,0.5,0,0.5,0,1","0,1,0.5,0,1,0.5,1,0.5,0","3",""
"","html-keyboard-response","77","80991","0.0-112.0","30X31N5D64C7GDZ5ZJKVO47777AASR","AHV4U78TUUDKI","3566S7OX5D5NH74JOVOPTTMK8IR17K","","null","<img src=""img/food2.png"" style=""width:200px; border:14px solid green;"">","null","","","","","","","","","",""
"","image-keyboard-response","78","81420","0.0-114.0","30X31N5D64C7GDZ5ZJKVO47777AASR","AHV4U78TUUDKI","3566S7OX5D5NH74JOVOPTTMK8IR17K","","428.09999999403954","img/food3.png","75","428.60000002384186","2","1","false","1","2","1,0.5,0,1,0.5,0,0.5,0,1","0,1,0.5,0,1,0.5,1,0.5,0","3",""
"","html-keyboard-response","79","81722","0.0-115.0","30X31N5D64C7GDZ5ZJKVO47777AASR","AHV4U78TUUDKI","3566S7OX5D5NH74JOVOPTTMK8IR17K","","null","<img src=""img/food3.png"" style=""width:200px; border:14px solid green;"">","null","","","","","","","","","",""
"","image-keyboard-response","80","82148","0.0-117.0","30X31N5D64C7GDZ5ZJKVO47777AASR","AHV4U78TUUDKI","3566S7OX5D5NH74JOVOPTTMK8IR17K","","425","img/food6.png","75","425.5","2","1","false","2","2","1,0.5,0,1,0.5,0,0.5,0,1","0,1,0.5,0,1,0.5,1,0.5,0","3",""
"","html-keyboard-response","81","82450","0.0-118.0","30X31N5D64C7GDZ5ZJKVO47777AASR","AHV4U78TUUDKI","3566S7OX5D5NH74JOVOPTTMK8IR17K","","null","<img src=""img/food6.png"" style=""width:200px; border:14px solid green;"">","null","","","","","","","","","",""
"","image-keyboard-response","82","82820","0.0-120.0","30X31N5D64C7GDZ5ZJKVO47777AASR","AHV4U78TUUDKI","3566S7OX5D5NH74JOVOPTTMK8IR17K","","369.59999999403954","img/food3.png","75","370.2000000178814","2","1","false","1","2","1,0.5,0,1,0.5,0,0.5,0,1","0,1,0.5,0,1,0.5,1,0.5,0","3",""
"","html-keyboard-response","83","83123","0.0-121.0","30X31N5D64C7GDZ5ZJKVO47777AASR","AHV4U78TUUDKI","3566S7OX5D5NH74JOVOPTTMK8IR17K","","null","<img src=""img/food3.png"" style=""width:200px; border:14px solid green;"">","null","","","","","","","","","",""
"","image-keyboard-response","84","83500","0.0-123.0","30X31N5D64C7GDZ5ZJKVO47777AASR","AHV4U78TUUDKI","3566S7OX5D5NH74JOVOPTTMK8IR17K","","376.90000000596046","img/food3.png","75","377.2999999821186","2","1","false","1","2","1,0.5,0,1,0.5,0,0.5,0,1","0,1,0.5,0,1,0.5,1,0.5,0","3",""
"","html-keyboard-response","85","83801","0.0-124.0","30X31N5D64C7GDZ5ZJKVO47777AASR","AHV4U78TUUDKI","3566S7OX5D5NH74JOVOPTTMK8IR17K","","null","<img src=""img/food3.png"" style=""width:200px; border:14px solid green;"">","null","","","","","","","","","",""
"","image-keyboard-response","86","84172","0.0-126.0","30X31N5D64C7GDZ5ZJKVO47777AASR","AHV4U78TUUDKI","3566S7OX5D5NH74JOVOPTTMK8IR17K","","370.59999999403954","img/food3.png","75","371","2","1","false","1","2","1,0.5,0,1,0.5,0,0.5,0,1","0,1,0.5,0,1,0.5,1,0.5,0","3",""
"","html-keyboard-response","87","84473","0.0-127.0","30X31N5D64C7GDZ5ZJKVO47777AASR","AHV4U78TUUDKI","3566S7OX5D5NH74JOVOPTTMK8IR17K","","null","<img src=""img/food3.png"" style=""width:200px; border:14px solid green;"">","null","","","","","","","","","",""
"","image-keyboard-response","88","84852","0.0-129.0","30X31N5D64C7GDZ5ZJKVO47777AASR","AHV4U78TUUDKI","3566S7OX5D5NH74JOVOPTTMK8IR17K","","378.5","img/food3.png","75","378.89999997615814","2","1","false","1","2","1,0.5,0,1,0.5,0,0.5,0,1","0,1,0.5,0,1,0.5,1,0.5,0","3",""
"","html-keyboard-response","89","85159","0.0-130.0","30X31N5D64C7GDZ5ZJKVO47777AASR","AHV4U78TUUDKI","3566S7OX5D5NH74JOVOPTTMK8IR17K","","null","<img src=""img/food3.png"" style=""width:200px; border:14px solid green;"">","null","","","","","","","","","",""
"","image-keyboard-response","90","85428","0.0-132.0","30X31N5D64C7GDZ5ZJKVO47777AASR","AHV4U78TUUDKI","3566S7OX5D5NH74JOVOPTTMK8IR17K","","268.5","img/food2.png","75","268.89999997615814","2","1","false","3","2","1,0.5,0,1,0.5,0,0.5,0,1","0,1,0.5,0,1,0.5,1,0.5,0","3",""
"","html-keyboard-response","91","85730","0.0-133.0","30X31N5D64C7GDZ5ZJKVO47777AASR","AHV4U78TUUDKI","3566S7OX5D5NH74JOVOPTTMK8IR17K","","null","<img src=""img/food2.png"" style=""width:200px; border:14px solid green;"">","null","","","","","","","","","",""
"","image-keyboard-response","92","86148","0.0-135.0","30X31N5D64C7GDZ5ZJKVO47777AASR","AHV4U78TUUDKI","3566S7OX5D5NH74JOVOPTTMK8IR17K","","418.09999999403954","img/food6.png","75","418.5","2","1","false","2","2","1,0.5,0,1,0.5,0,0.5,0,1","0,1,0.5,0,1,0.5,1,0.5,0","3",""
"","html-keyboard-response","93","86450","0.0-136.0","30X31N5D64C7GDZ5ZJKVO47777AASR","AHV4U78TUUDKI","3566S7OX5D5NH74JOVOPTTMK8IR17K","","null","<img src=""img/food6.png"" style=""width:200px; border:14px solid green;"">","null","","","","","","","","","",""
"","image-keyboard-response","94","86708","0.0-138.0","30X31N5D64C7GDZ5ZJKVO47777AASR","AHV4U78TUUDKI","3566S7OX5D5NH74JOVOPTTMK8IR17K","","257.5","img/food3.png","75","257.90000000596046","2","1","false","1","2","1,0.5,0,1,0.5,0,0.5,0,1","0,1,0.5,0,1,0.5,1,0.5,0","3",""
"","html-keyboard-response","95","87010","0.0-139.0","30X31N5D64C7GDZ5ZJKVO47777AASR","AHV4U78TUUDKI","3566S7OX5D5NH74JOVOPTTMK8IR17K","","null","<img src=""img/food3.png"" style=""width:200px; border:14px solid green;"">","null","","","","","","","","","",""
"","image-keyboard-response","96","87236","0.0-141.0","30X31N5D64C7GDZ5ZJKVO47777AASR","AHV4U78TUUDKI","3566S7OX5D5NH74JOVOPTTMK8IR17K","","225.80000001192093","img/food6.png","75","226.40000000596046","2","1","false","2","2","1,0.5,0,1,0.5,0,0.5,0,1","0,1,0.5,0,1,0.5,1,0.5,0","3",""
"","html-keyboard-response","97","87537","0.0-142.0","30X31N5D64C7GDZ5ZJKVO47777AASR","AHV4U78TUUDKI","3566S7OX5D5NH74JOVOPTTMK8IR17K","","null","<img src=""img/food6.png"" style=""width:200px; border:14px solid green;"">","null","","","","","","","","","",""
"","image-keyboard-response","98","87716","0.0-144.0","30X31N5D64C7GDZ5ZJKVO47777AASR","AHV4U78TUUDKI","3566S7OX5D5NH74JOVOPTTMK8IR17K","","178.30000001192093","img/food3.png","75","178.69999998807907","2","1","false","1","2","1,0.5,0,1,0.5,0,0.5,0,1","0,1,0.5,0,1,0.5,1,0.5,0","3",""
"","html-keyboard-response","99","88018","0.0-145.0","30X31N5D64C7GDZ5ZJKVO47777AASR","AHV4U78TUUDKI","3566S7OX5D5NH74JOVOPTTMK8IR17K","","null","<img src=""img/food3.png"" style=""width:200px; border:14px solid green;"">","null","","","","","","","","","",""
"","image-keyboard-response","100","88188","0.0-147.0","30X31N5D64C7GDZ5ZJKVO47777AASR","AHV4U78TUUDKI","3566S7OX5D5NH74JOVOPTTMK8IR17K","","169.09999999403954","img/food6.png","75","169.5","2","1","false","2","2","1,0.5,0,1,0.5,0,0.5,0,1","0,1,0.5,0,1,0.5,1,0.5,0","3",""
"","html-keyboard-response","101","88490","0.0-148.0","30X31N5D64C7GDZ5ZJKVO47777AASR","AHV4U78TUUDKI","3566S7OX5D5NH74JOVOPTTMK8IR17K","","null","<img src=""img/food6.png"" style=""width:200px; border:14px solid green;"">","null","","","","","","","","","",""
"","image-keyboard-response","102","88668","0.0-150.0","30X31N5D64C7GDZ5ZJKVO47777AASR","AHV4U78TUUDKI","3566S7OX5D5NH74JOVOPTTMK8IR17K","","177.30000001192093","img/food3.png","75","177.69999998807907","2","1","false","1","2","1,0.5,0,1,0.5,0,0.5,0,1","0,1,0.5,0,1,0.5,1,0.5,0","3",""
"","html-keyboard-response","103","88970","0.0-151.0","30X31N5D64C7GDZ5ZJKVO47777AASR","AHV4U78TUUDKI","3566S7OX5D5NH74JOVOPTTMK8IR17K","","null","<img src=""img/food3.png"" style=""width:200px; border:14px solid green;"">","null","","","","","","","","","",""
"","image-keyboard-response","104","89092","0.0-153.0","30X31N5D64C7GDZ5ZJKVO47777AASR","AHV4U78TUUDKI","3566S7OX5D5NH74JOVOPTTMK8IR17K","","120.90000000596046","img/food2.png","75","121.39999997615814","2","0","false","3","2","1,0.5,0,1,0.5,0,0.5,0,1","0,1,0.5,0,1,0.5,1,0.5,0","3",""
"","html-keyboard-response","105","89393","0.0-154.0","30X31N5D64C7GDZ5ZJKVO47777AASR","AHV4U78TUUDKI","3566S7OX5D5NH74JOVOPTTMK8IR17K","","null","<img src=""img/food2.png"" style=""width:200px;border:14px solid red;"">","null","","","","","","","","","",""
"","image-keyboard-response","106","89548","0.0-156.0","30X31N5D64C7GDZ5ZJKVO47777AASR","AHV4U78TUUDKI","3566S7OX5D5NH74JOVOPTTMK8IR17K","","154.09999999403954","img/food2.png","74","154.60000002384186","1","1","false","3","2","1,0.5,0,1,0.5,0,0.5,0,1","0,1,0.5,0,1,0.5,1,0.5,0","3",""
"","html-keyboard-response","107","89850","0.0-157.0","30X31N5D64C7GDZ5ZJKVO47777AASR","AHV4U78TUUDKI","3566S7OX5D5NH74JOVOPTTMK8IR17K","","null","<img src=""img/food2.png"" style=""width:200px; border:14px solid green;"">","null","","","","","","","","","",""
"","image-keyboard-response","108","90076","0.0-159.0","30X31N5D64C7GDZ5ZJKVO47777AASR","AHV4U78TUUDKI","3566S7OX5D5NH74JOVOPTTMK8IR17K","","225.69999998807907","img/food6.png","74","226.09999999403954","1","0","false","2","2","1,0.5,0,1,0.5,0,0.5,0,1","0,1,0.5,0,1,0.5,1,0.5,0","3",""
"","html-keyboard-response","109","90377","0.0-160.0","30X31N5D64C7GDZ5ZJKVO47777AASR","AHV4U78TUUDKI","3566S7OX5D5NH74JOVOPTTMK8IR17K","","null","<img src=""img/food6.png"" style=""width:200px;border:14px solid red;"">","null","","","","","","","","","",""
"","image-keyboard-response","110","90452","0.0-162.0","30X31N5D64C7GDZ5ZJKVO47777AASR","AHV4U78TUUDKI","3566S7OX5D5NH74JOVOPTTMK8IR17K","","74.2999999821186","img/food3.png","75","74.69999998807907","2","1","false","1","2","1,0.5,0,1,0.5,0,0.5,0,1","0,1,0.5,0,1,0.5,1,0.5,0","3",""
"","html-keyboard-response","111","90754","0.0-163.0","30X31N5D64C7GDZ5ZJKVO47777AASR","AHV4U78TUUDKI","3566S7OX5D5NH74JOVOPTTMK8IR17K","","null","<img src=""img/food3.png"" style=""width:200px; border:14px solid green;"">","null","","","","","","","","","",""
"","image-keyboard-response","112","90820","0.0-165.0","30X31N5D64C7GDZ5ZJKVO47777AASR","AHV4U78TUUDKI","3566S7OX5D5NH74JOVOPTTMK8IR17K","","65.40000000596046","img/food6.png","75","65.7999999821186","2","1","false","2","2","1,0.5,0,1,0.5,0,0.5,0,1","0,1,0.5,0,1,0.5,1,0.5,0","3",""
"","html-keyboard-response","113","91136","0.0-166.0","30X31N5D64C7GDZ5ZJKVO47777AASR","AHV4U78TUUDKI","3566S7OX5D5NH74JOVOPTTMK8IR17K","","null","<img src=""img/food6.png"" style=""width:200px; border:14px solid green;"">","null","","","","","","","","","",""
"","image-keyboard-response","114","91204","0.0-168.0","30X31N5D64C7GDZ5ZJKVO47777AASR","AHV4U78TUUDKI","3566S7OX5D5NH74JOVOPTTMK8IR17K","","67.5","img/food2.png","75","68","2","1","false","3","2","1,0.5,0,1,0.5,0,0.5,0,1","0,1,0.5,0,1,0.5,1,0.5,0","3",""
"","html-keyboard-response","115","91506","0.0-169.0","30X31N5D64C7GDZ5ZJKVO47777AASR","AHV4U78TUUDKI","3566S7OX5D5NH74JOVOPTTMK8IR17K","","null","<img src=""img/food2.png"" style=""width:200px; border:14px solid green;"">","null","","","","","","","","","",""
"","image-keyboard-response","116","91708","0.0-171.0","30X31N5D64C7GDZ5ZJKVO47777AASR","AHV4U78TUUDKI","3566S7OX5D5NH74JOVOPTTMK8IR17K","","201.90000000596046","img/food3.png","75","202.2999999821186","2","1","false","1","2","1,0.5,0,1,0.5,0,0.5,0,1","0,1,0.5,0,1,0.5,1,0.5,0","3",""
"","html-keyboard-response","117","92010","0.0-172.0","30X31N5D64C7GDZ5ZJKVO47777AASR","AHV4U78TUUDKI","3566S7OX5D5NH74JOVOPTTMK8IR17K","","null","<img src=""img/food3.png"" style=""width:200px; border:14px solid green;"">","null","","","","","","","","","",""
"","image-keyboard-response","118","92164","0.0-174.0","30X31N5D64C7GDZ5ZJKVO47777AASR","AHV4U78TUUDKI","3566S7OX5D5NH74JOVOPTTMK8IR17K","","154","img/food2.png","75","154.2999999821186","2","1","false","3","2","1,0.5,0,1,0.5,0,0.5,0,1","0,1,0.5,0,1,0.5,1,0.5,0","3",""
"","html-keyboard-response","119","92466","0.0-175.0","30X31N5D64C7GDZ5ZJKVO47777AASR","AHV4U78TUUDKI","3566S7OX5D5NH74JOVOPTTMK8IR17K","","null","<img src=""img/food2.png"" style=""width:200px; border:14px solid green;"">","null","","","","","","","","","",""
"","image-keyboard-response","120","92588","0.0-177.0","30X31N5D64C7GDZ5ZJKVO47777AASR","AHV4U78TUUDKI","3566S7OX5D5NH74JOVOPTTMK8IR17K","","121.59999999403954","img/food3.png","74","122.09999999403954","1","0","false","1","2","1,0.5,0,1,0.5,0,0.5,0,1","0,1,0.5,0,1,0.5,1,0.5,0","3",""
"","html-keyboard-response","121","92889","0.0-178.0","30X31N5D64C7GDZ5ZJKVO47777AASR","AHV4U78TUUDKI","3566S7OX5D5NH74JOVOPTTMK8IR17K","","null","<img src=""img/food3.png"" style=""width:200px;border:14px solid red;"">","null","","","","","","","","","",""
"","image-keyboard-response","122","92948","0.0-180.0","30X31N5D64C7GDZ5ZJKVO47777AASR","AHV4U78TUUDKI","3566S7OX5D5NH74JOVOPTTMK8IR17K","","58","img/food3.png","75","58.89999997615814","2","1","false","1","2","1,0.5,0,1,0.5,0,0.5,0,1","0,1,0.5,0,1,0.5,1,0.5,0","3",""
"","html-keyboard-response","123","93249","0.0-181.0","30X31N5D64C7GDZ5ZJKVO47777AASR","AHV4U78TUUDKI","3566S7OX5D5NH74JOVOPTTMK8IR17K","","null","<img src=""img/food3.png"" style=""width:200px; border:14px solid green;"">","null","","","","","","","","","",""
"","image-keyboard-response","124","93316","0.0-183.0","30X31N5D64C7GDZ5ZJKVO47777AASR","AHV4U78TUUDKI","3566S7OX5D5NH74JOVOPTTMK8IR17K","","66.2999999821186","img/food6.png","75","66.69999998807907","2","1","false","2","2","1,0.5,0,1,0.5,0,0.5,0,1","0,1,0.5,0,1,0.5,1,0.5,0","3",""
"","html-keyboard-response","125","93617","0.0-184.0","30X31N5D64C7GDZ5ZJKVO47777AASR","AHV4U78TUUDKI","3566S7OX5D5NH74JOVOPTTMK8IR17K","","null","<img src=""img/food6.png"" style=""width:200px; border:14px solid green;"">","null","","","","","","","","","",""
"","image-keyboard-response","126","93668","0.0-186.0","30X31N5D64C7GDZ5ZJKVO47777AASR","AHV4U78TUUDKI","3566S7OX5D5NH74JOVOPTTMK8IR17K","","50","img/food6.png","75","50.400000005960464","2","1","false","2","2","1,0.5,0,1,0.5,0,0.5,0,1","0,1,0.5,0,1,0.5,1,0.5,0","3",""
"","html-keyboard-response","127","93970","0.0-187.0","30X31N5D64C7GDZ5ZJKVO47777AASR","AHV4U78TUUDKI","3566S7OX5D5NH74JOVOPTTMK8IR17K","","null","<img src=""img/food6.png"" style=""width:200px; border:14px solid green;"">","null","","","","","","","","","",""
"","image-keyboard-response","128","94044","0.0-189.0","30X31N5D64C7GDZ5ZJKVO47777AASR","AHV4U78TUUDKI","3566S7OX5D5NH74JOVOPTTMK8IR17K","","73.80000001192093","img/food2.png","75","74.19999998807907","2","1","false","3","2","1,0.5,0,1,0.5,0,0.5,0,1","0,1,0.5,0,1,0.5,1,0.5,0","3",""
"","html-keyboard-response","129","94345","0.0-190.0","30X31N5D64C7GDZ5ZJKVO47777AASR","AHV4U78TUUDKI","3566S7OX5D5NH74JOVOPTTMK8IR17K","","null","<img src=""img/food2.png"" style=""width:200px; border:14px solid green;"">","null","","","","","","","","","",""
"","image-keyboard-response","130","94548","0.0-192.0","30X31N5D64C7GDZ5ZJKVO47777AASR","AHV4U78TUUDKI","3566S7OX5D5NH74JOVOPTTMK8IR17K","","202.09999999403954","img/food6.png","75","202.5","2","1","false","2","2","1,0.5,0,1,0.5,0,0.5,0,1","0,1,0.5,0,1,0.5,1,0.5,0","3",""
"","html-keyboard-response","131","94849","0.0-193.0","30X31N5D64C7GDZ5ZJKVO47777AASR","AHV4U78TUUDKI","3566S7OX5D5NH74JOVOPTTMK8IR17K","","null","<img src=""img/food6.png"" style=""width:200px; border:14px solid green;"">","null","","","","","","","","","",""
"","image-keyboard-response","132","94964","0.0-195.0","30X31N5D64C7GDZ5ZJKVO47777AASR","AHV4U78TUUDKI","3566S7OX5D5NH74JOVOPTTMK8IR17K","","113.90000000596046","img/food2.png","75","114.2999999821186","2","0","false","3","2","1,0.5,0,1,0.5,0,0.5,0,1","0,1,0.5,0,1,0.5,1,0.5,0","3",""
"","html-keyboard-response","133","95266","0.0-196.0","30X31N5D64C7GDZ5ZJKVO47777AASR","AHV4U78TUUDKI","3566S7OX5D5NH74JOVOPTTMK8IR17K","","null","<img src=""img/food2.png"" style=""width:200px;border:14px solid red;"">","null","","","","","","","","","",""
"","image-keyboard-response","134","95748","0.0-198.0","30X31N5D64C7GDZ5ZJKVO47777AASR","AHV4U78TUUDKI","3566S7OX5D5NH74JOVOPTTMK8IR17K","","481.09999999403954","img/food2.png","74","481.59999999403954","1","1","false","3","2","1,0.5,0,1,0.5,0,0.5,0,1","0,1,0.5,0,1,0.5,1,0.5,0","3",""
"","html-keyboard-response","135","96049","0.0-199.0","30X31N5D64C7GDZ5ZJKVO47777AASR","AHV4U78TUUDKI","3566S7OX5D5NH74JOVOPTTMK8IR17K","","null","<img src=""img/food2.png"" style=""width:200px; border:14px solid green;"">","null","","","","","","","","","",""
"","image-keyboard-response","136","96108","0.0-201.0","30X31N5D64C7GDZ5ZJKVO47777AASR","AHV4U78TUUDKI","3566S7OX5D5NH74JOVOPTTMK8IR17K","","58.19999998807907","img/food6.png","75","58.60000002384186","2","1","false","2","2","1,0.5,0,1,0.5,0,0.5,0,1","0,1,0.5,0,1,0.5,1,0.5,0","3",""
"","html-keyboard-response","137","96409","0.0-202.0","30X31N5D64C7GDZ5ZJKVO47777AASR","AHV4U78TUUDKI","3566S7OX5D5NH74JOVOPTTMK8IR17K","","null","<img src=""img/food6.png"" style=""width:200px; border:14px solid green;"">","null","","","","","","","","","",""
"","image-keyboard-response","138","96556","0.0-204.0","30X31N5D64C7GDZ5ZJKVO47777AASR","AHV4U78TUUDKI","3566S7OX5D5NH74JOVOPTTMK8IR17K","","146.7999999821186","img/food6.png","75","147.2000000178814","2","1","false","2","2","1,0.5,0,1,0.5,0,0.5,0,1","0,1,0.5,0,1,0.5,1,0.5,0","3",""
"","html-keyboard-response","139","96858","0.0-205.0","30X31N5D64C7GDZ5ZJKVO47777AASR","AHV4U78TUUDKI","3566S7OX5D5NH74JOVOPTTMK8IR17K","","null","<img src=""img/food6.png"" style=""width:200px; border:14px solid green;"">","null","","","","","","","","","",""
"","image-keyboard-response","140","96860","0.0-207.0","30X31N5D64C7GDZ5ZJKVO47777AASR","AHV4U78TUUDKI","3566S7OX5D5NH74JOVOPTTMK8IR17K","","2","img/food3.png","75","2.4000000059604645","2","1","false","1","2","1,0.5,0,1,0.5,0,0.5,0,1","0,1,0.5,0,1,0.5,1,0.5,0","3",""
"","html-keyboard-response","141","97162","0.0-208.0","30X31N5D64C7GDZ5ZJKVO47777AASR","AHV4U78TUUDKI","3566S7OX5D5NH74JOVOPTTMK8IR17K","","null","<img src=""img/food3.png"" style=""width:200px; border:14px solid green;"">","null","","","","","","","","","",""
"","image-keyboard-response","142","97244","0.0-210.0","30X31N5D64C7GDZ5ZJKVO47777AASR","AHV4U78TUUDKI","3566S7OX5D5NH74JOVOPTTMK8IR17K","","81.40000000596046","img/food2.png","75","81.69999998807907","2","1","false","3","2","1,0.5,0,1,0.5,0,0.5,0,1","0,1,0.5,0,1,0.5,1,0.5,0","3",""
"","html-keyboard-response","143","97551","0.0-211.0","30X31N5D64C7GDZ5ZJKVO47777AASR","AHV4U78TUUDKI","3566S7OX5D5NH74JOVOPTTMK8IR17K","","null","<img src=""img/food2.png"" style=""width:200px; border:14px solid green;"">","null","","","","","","","","","",""
"","image-keyboard-response","144","97684","0.0-213.0","30X31N5D64C7GDZ5ZJKVO47777AASR","AHV4U78TUUDKI","3566S7OX5D5NH74JOVOPTTMK8IR17K","","132.19999998807907","img/food3.png","75","132.69999998807907","2","1","false","1","2","1,0.5,0,1,0.5,0,0.5,0,1","0,1,0.5,0,1,0.5,1,0.5,0","3",""
"","html-keyboard-response","145","97986","0.0-214.0","30X31N5D64C7GDZ5ZJKVO47777AASR","AHV4U78TUUDKI","3566S7OX5D5NH74JOVOPTTMK8IR17K","","null","<img src=""img/food3.png"" style=""width:200px; border:14px solid green;"">","null","","","","","","","","","",""
"","image-keyboard-response","146","98084","0.0-216.0","30X31N5D64C7GDZ5ZJKVO47777AASR","AHV4U78TUUDKI","3566S7OX5D5NH74JOVOPTTMK8IR17K","","97.69999998807907","img/food2.png","75","98.30000001192093","2","0","false","3","2","1,0.5,0,1,0.5,0,0.5,0,1","0,1,0.5,0,1,0.5,1,0.5,0","3",""
"","html-keyboard-response","147","98385","0.0-217.0","30X31N5D64C7GDZ5ZJKVO47777AASR","AHV4U78TUUDKI","3566S7OX5D5NH74JOVOPTTMK8IR17K","","null","<img src=""img/food2.png"" style=""width:200px;border:14px solid red;"">","null","","","","","","","","","",""
"","image-keyboard-response","148","98572","0.0-219.0","30X31N5D64C7GDZ5ZJKVO47777AASR","AHV4U78TUUDKI","3566S7OX5D5NH74JOVOPTTMK8IR17K","","186.40000000596046","img/food6.png","74","186.89999997615814","1","0","false","2","2","1,0.5,0,1,0.5,0,0.5,0,1","0,1,0.5,0,1,0.5,1,0.5,0","3",""
"","html-keyboard-response","149","98874","0.0-220.0","30X31N5D64C7GDZ5ZJKVO47777AASR","AHV4U78TUUDKI","3566S7OX5D5NH74JOVOPTTMK8IR17K","","null","<img src=""img/food6.png"" style=""width:200px;border:14px solid red;"">","null","","","","","","","","","",""
"","image-keyboard-response","150","98980","0.0-222.0","30X31N5D64C7GDZ5ZJKVO47777AASR","AHV4U78TUUDKI","3566S7OX5D5NH74JOVOPTTMK8IR17K","","105.80000001192093","img/food3.png","75","106.2999999821186","2","1","false","1","2","1,0.5,0,1,0.5,0,0.5,0,1","0,1,0.5,0,1,0.5,1,0.5,0","3",""
"","html-keyboard-response","151","99282","0.0-223.0","30X31N5D64C7GDZ5ZJKVO47777AASR","AHV4U78TUUDKI","3566S7OX5D5NH74JOVOPTTMK8IR17K","","null","<img src=""img/food3.png"" style=""width:200px; border:14px solid green;"">","null","","","","","","","","","",""
"","image-keyboard-response","152","99300","0.0-225.0","30X31N5D64C7GDZ5ZJKVO47777AASR","AHV4U78TUUDKI","3566S7OX5D5NH74JOVOPTTMK8IR17K","","17.69999998807907","img/food3.png","75","18.19999998807907","2","1","false","1","2","1,0.5,0,1,0.5,0,0.5,0,1","0,1,0.5,0,1,0.5,1,0.5,0","3",""
"","html-keyboard-response","153","99602","0.0-226.0","30X31N5D64C7GDZ5ZJKVO47777AASR","AHV4U78TUUDKI","3566S7OX5D5NH74JOVOPTTMK8IR17K","","null","<img src=""img/food3.png"" style=""width:200px; border:14px solid green;"">","null","","","","","","","","","",""
"","image-keyboard-response","154","99636","0.0-228.0","30X31N5D64C7GDZ5ZJKVO47777AASR","AHV4U78TUUDKI","3566S7OX5D5NH74JOVOPTTMK8IR17K","","33.80000001192093","img/food6.png","75","34.19999998807907","2","1","false","2","2","1,0.5,0,1,0.5,0,0.5,0,1","0,1,0.5,0,1,0.5,1,0.5,0","3",""
"","html-keyboard-response","155","99938","0.0-229.0","30X31N5D64C7GDZ5ZJKVO47777AASR","AHV4U78TUUDKI","3566S7OX5D5NH74JOVOPTTMK8IR17K","","null","<img src=""img/food6.png"" style=""width:200px; border:14px solid green;"">","null","","","","","","","","","",""
"","image-keyboard-response","156","99956","0.0-231.0","30X31N5D64C7GDZ5ZJKVO47777AASR","AHV4U78TUUDKI","3566S7OX5D5NH74JOVOPTTMK8IR17K","","17.599999994039536","img/food2.png","75","18","2","1","false","3","2","1,0.5,0,1,0.5,0,0.5,0,1","0,1,0.5,0,1,0.5,1,0.5,0","3",""
"","html-keyboard-response","157","100257","0.0-232.0","30X31N5D64C7GDZ5ZJKVO47777AASR","AHV4U78TUUDKI","3566S7OX5D5NH74JOVOPTTMK8IR17K","","null","<img src=""img/food2.png"" style=""width:200px; border:14px solid green;"">","null","","","","","","","","","",""
"","image-keyboard-response","158","100324","0.0-234.0","30X31N5D64C7GDZ5ZJKVO47777AASR","AHV4U78TUUDKI","3566S7OX5D5NH74JOVOPTTMK8IR17K","","66.09999999403954","img/food2.png","75","66.5","2","1","false","3","2","1,0.5,0,1,0.5,0,0.5,0,1","0,1,0.5,0,1,0.5,1,0.5,0","3",""
"","html-keyboard-response","159","100626","0.0-235.0","30X31N5D64C7GDZ5ZJKVO47777AASR","AHV4U78TUUDKI","3566S7OX5D5NH74JOVOPTTMK8IR17K","","null","<img src=""img/food2.png"" style=""width:200px; border:14px solid green;"">","null","","","","","","","","","",""
"","image-keyboard-response","160","100708","0.0-237.0","30X31N5D64C7GDZ5ZJKVO47777AASR","AHV4U78TUUDKI","3566S7OX5D5NH74JOVOPTTMK8IR17K","","81","img/food2.png","75","81.59999999403954","2","1","false","3","2","1,0.5,0,1,0.5,0,0.5,0,1","0,1,0.5,0,1,0.5,1,0.5,0","3",""
"","html-keyboard-response","161","101009","0.0-238.0","30X31N5D64C7GDZ5ZJKVO47777AASR","AHV4U78TUUDKI","3566S7OX5D5NH74JOVOPTTMK8IR17K","","null","<img src=""img/food2.png"" style=""width:200px; border:14px solid green;"">","null","","","","","","","","","",""
"","image-keyboard-response","162","101052","0.0-240.0","30X31N5D64C7GDZ5ZJKVO47777AASR","AHV4U78TUUDKI","3566S7OX5D5NH74JOVOPTTMK8IR17K","","42.29999998211861","img/food2.png","75","42.69999998807907","2","0","false","3","2","1,0.5,0,1,0.5,0,0.5,0,1","0,1,0.5,0,1,0.5,1,0.5,0","3",""
"","html-keyboard-response","163","101353","0.0-241.0","30X31N5D64C7GDZ5ZJKVO47777AASR","AHV4U78TUUDKI","3566S7OX5D5NH74JOVOPTTMK8IR17K","","null","<img src=""img/food2.png"" style=""width:200px;border:14px solid red;"">","null","","","","","","","","","",""
"","image-keyboard-response","164","101364","0.0-243.0","30X31N5D64C7GDZ5ZJKVO47777AASR","AHV4U78TUUDKI","3566S7OX5D5NH74JOVOPTTMK8IR17K","","10.300000011920929","img/food3.png","75","10.799999982118607","2","1","false","1","2","1,0.5,0,1,0.5,0,0.5,0,1","0,1,0.5,0,1,0.5,1,0.5,0","3",""
"","html-keyboard-response","165","101665","0.0-244.0","30X31N5D64C7GDZ5ZJKVO47777AASR","AHV4U78TUUDKI","3566S7OX5D5NH74JOVOPTTMK8IR17K","","null","<img src=""img/food3.png"" style=""width:200px; border:14px solid green;"">","null","","","","","","","","","",""
"","image-keyboard-response","166","101804","0.0-246.0","30X31N5D64C7GDZ5ZJKVO47777AASR","AHV4U78TUUDKI","3566S7OX5D5NH74JOVOPTTMK8IR17K","","138.09999999403954","img/food2.png","75","138.5","2","0","false","3","2","1,0.5,0,1,0.5,0,0.5,0,1","0,1,0.5,0,1,0.5,1,0.5,0","3",""
"","html-keyboard-response","167","102105","0.0-247.0","30X31N5D64C7GDZ5ZJKVO47777AASR","AHV4U78TUUDKI","3566S7OX5D5NH74JOVOPTTMK8IR17K","","null","<img src=""img/food2.png"" style=""width:200px;border:14px solid red;"">","null","","","","","","","","","",""
"","image-keyboard-response","168","102260","0.0-249.0","30X31N5D64C7GDZ5ZJKVO47777AASR","AHV4U78TUUDKI","3566S7OX5D5NH74JOVOPTTMK8IR17K","","154.40000000596046","img/food6.png","75","154.7999999821186","2","1","false","2","2","1,0.5,0,1,0.5,0,0.5,0,1","0,1,0.5,0,1,0.5,1,0.5,0","3",""
"","html-keyboard-response","169","102562","0.0-250.0","30X31N5D64C7GDZ5ZJKVO47777AASR","AHV4U78TUUDKI","3566S7OX5D5NH74JOVOPTTMK8IR17K","","null","<img src=""img/food6.png"" style=""width:200px; border:14px solid green;"">","null","","","","","","","","","",""
"","image-keyboard-response","170","102788","0.0-252.0","30X31N5D64C7GDZ5ZJKVO47777AASR","AHV4U78TUUDKI","3566S7OX5D5NH74JOVOPTTMK8IR17K","","225.69999998807907","img/food2.png","75","226","2","0","false","3","2","1,0.5,0,1,0.5,0,0.5,0,1","0,1,0.5,0,1,0.5,1,0.5,0","3",""
"","html-keyboard-response","171","103089","0.0-253.0","30X31N5D64C7GDZ5ZJKVO47777AASR","AHV4U78TUUDKI","3566S7OX5D5NH74JOVOPTTMK8IR17K","","null","<img src=""img/food2.png"" style=""width:200px;border:14px solid red;"">","null","","","","","","","","","",""
"","image-keyboard-response","172","103348","0.0-255.0","30X31N5D64C7GDZ5ZJKVO47777AASR","AHV4U78TUUDKI","3566S7OX5D5NH74JOVOPTTMK8IR17K","","258.5","img/food3.png","74","259","1","0","false","1","2","1,0.5,0,1,0.5,0,0.5,0,1","0,1,0.5,0,1,0.5,1,0.5,0","3",""
"","html-keyboard-response","173","103650","0.0-256.0","30X31N5D64C7GDZ5ZJKVO47777AASR","AHV4U78TUUDKI","3566S7OX5D5NH74JOVOPTTMK8IR17K","","null","<img src=""img/food3.png"" style=""width:200px;border:14px solid red;"">","null","","","","","","","","","",""
"","image-keyboard-response","174","103668","0.0-258.0","30X31N5D64C7GDZ5ZJKVO47777AASR","AHV4U78TUUDKI","3566S7OX5D5NH74JOVOPTTMK8IR17K","","17.5","img/food3.png","75","17.900000005960464","2","1","false","1","2","1,0.5,0,1,0.5,0,0.5,0,1","0,1,0.5,0,1,0.5,1,0.5,0","3",""
"","html-keyboard-response","175","103969","0.0-259.0","30X31N5D64C7GDZ5ZJKVO47777AASR","AHV4U78TUUDKI","3566S7OX5D5NH74JOVOPTTMK8IR17K","","null","<img src=""img/food3.png"" style=""width:200px; border:14px solid green;"">","null","","","","","","","","","",""
"","image-keyboard-response","176","104020","0.0-261.0","30X31N5D64C7GDZ5ZJKVO47777AASR","AHV4U78TUUDKI","3566S7OX5D5NH74JOVOPTTMK8IR17K","","50.20000001788139","img/food6.png","75","50.599999994039536","2","1","false","2","2","1,0.5,0,1,0.5,0,0.5,0,1","0,1,0.5,0,1,0.5,1,0.5,0","3",""
"","html-keyboard-response","177","104321","0.0-262.0","30X31N5D64C7GDZ5ZJKVO47777AASR","AHV4U78TUUDKI","3566S7OX5D5NH74JOVOPTTMK8IR17K","","null","<img src=""img/food6.png"" style=""width:200px; border:14px solid green;"">","null","","","","","","","","","",""
"","image-keyboard-response","178","104676","0.0-264.0","30X31N5D64C7GDZ5ZJKVO47777AASR","AHV4U78TUUDKI","3566S7OX5D5NH74JOVOPTTMK8IR17K","","354.80000001192093","img/food6.png","75","355.19999998807907","2","1","false","2","2","1,0.5,0,1,0.5,0,0.5,0,1","0,1,0.5,0,1,0.5,1,0.5,0","3",""
"","html-keyboard-response","179","104987","0.0-265.0","30X31N5D64C7GDZ5ZJKVO47777AASR","AHV4U78TUUDKI","3566S7OX5D5NH74JOVOPTTMK8IR17K","","null","<img src=""img/food6.png"" style=""width:200px; border:14px solid green;"">","null","","","","","","","","","",""
"","image-keyboard-response","180","105028","0.0-267.0","30X31N5D64C7GDZ5ZJKVO47777AASR","AHV4U78TUUDKI","3566S7OX5D5NH74JOVOPTTMK8IR17K","","40.5","img/food2.png","75","41.099999994039536","2","0","false","3","2","1,0.5,0,1,0.5,0,0.5,0,1","0,1,0.5,0,1,0.5,1,0.5,0","3",""
"","html-keyboard-response","181","105330","0.0-268.0","30X31N5D64C7GDZ5ZJKVO47777AASR","AHV4U78TUUDKI","3566S7OX5D5NH74JOVOPTTMK8IR17K","","null","<img src=""img/food2.png"" style=""width:200px;border:14px solid red;"">","null","","","","","","","","","",""
"","image-keyboard-response","182","105436","0.0-270.0","30X31N5D64C7GDZ5ZJKVO47777AASR","AHV4U78TUUDKI","3566S7OX5D5NH74JOVOPTTMK8IR17K","","105.19999998807907","img/food6.png","74","105.59999999403954","1","0","false","2","2","1,0.5,0,1,0.5,0,0.5,0,1","0,1,0.5,0,1,0.5,1,0.5,0","3",""
"","html-keyboard-response","183","105738","0.0-271.0","30X31N5D64C7GDZ5ZJKVO47777AASR","AHV4U78TUUDKI","3566S7OX5D5NH74JOVOPTTMK8IR17K","","null","<img src=""img/food6.png"" style=""width:200px;border:14px solid red;"">","null","","","","","","","","","",""
"","instructions","184","111260","0.0-273.0","30X31N5D64C7GDZ5ZJKVO47777AASR","AHV4U78TUUDKI","3566S7OX5D5NH74JOVOPTTMK8IR17K","[{""page_index"":0,""viewing_time"":4072.199999988079},{""page_index"":1,""viewing_time"":1449.5999999940395}]","5521.9000000059605","","","","","","","","","","","",""
"","image-keyboard-response","185","112252","0.0-274.0","30X31N5D64C7GDZ5ZJKVO47777AASR","AHV4U78TUUDKI","3566S7OX5D5NH74JOVOPTTMK8IR17K","","991","img/food4.png","74","991.6000000238419","1","1","","2","1","1,0.5,0,1,0.5,0,0.5,0,1","1,0.5,0,1,0.5,0,0.5,0,1","1",""
"","html-keyboard-response","186","112554","0.0-275.0","30X31N5D64C7GDZ5ZJKVO47777AASR","AHV4U78TUUDKI","3566S7OX5D5NH74JOVOPTTMK8IR17K","","null","<img src=""img/food4.png"" style=""width:200px; border:14px solid green;"">","null","","","","","","","","","",""
"","image-keyboard-response","187","113220","0.0-276.0","30X31N5D64C7GDZ5ZJKVO47777AASR","AHV4U78TUUDKI","3566S7OX5D5NH74JOVOPTTMK8IR17K","","665","img/food4.png","74","665.2999999821186","1","1","","2","1","1,0.5,0,1,0.5,0,0.5,0,1","1,0.5,0,1,0.5,0,0.5,0,1","1",""
"","html-keyboard-response","188","113522","0.0-277.0","30X31N5D64C7GDZ5ZJKVO47777AASR","AHV4U78TUUDKI","3566S7OX5D5NH74JOVOPTTMK8IR17K","","null","<img src=""img/food4.png"" style=""width:200px; border:14px solid green;"">","null","","","","","","","","","",""
"","image-keyboard-response","189","114284","0.0-278.0","30X31N5D64C7GDZ5ZJKVO47777AASR","AHV4U78TUUDKI","3566S7OX5D5NH74JOVOPTTMK8IR17K","","761.5999999940395","img/food1.png","75","762.1000000238419","2","1","","1","1","1,0.5,0,1,0.5,0,0.5,0,1","1,0.5,0,1,0.5,0,0.5,0,1","1",""
"","html-keyboard-response","190","114586","0.0-279.0","30X31N5D64C7GDZ5ZJKVO47777AASR","AHV4U78TUUDKI","3566S7OX5D5NH74JOVOPTTMK8IR17K","","null","<img src=""img/food1.png"" style=""width:200px; border:14px solid green;"">","null","","","","","","","","","",""
"","image-keyboard-response","191","115460","0.0-280.0","30X31N5D64C7GDZ5ZJKVO47777AASR","AHV4U78TUUDKI","3566S7OX5D5NH74JOVOPTTMK8IR17K","","873","img/food5.png","76","873.5","3","1","","3","1","1,0.5,0,1,0.5,0,0.5,0,1","1,0.5,0,1,0.5,0,0.5,0,1","1",""
"","html-keyboard-response","192","115762","0.0-281.0","30X31N5D64C7GDZ5ZJKVO47777AASR","AHV4U78TUUDKI","3566S7OX5D5NH74JOVOPTTMK8IR17K","","null","<img src=""img/food5.png"" style=""width:200px; border:14px solid green;"">","null","","","","","","","","","",""
"","image-keyboard-response","193","116364","0.0-282.0","30X31N5D64C7GDZ5ZJKVO47777AASR","AHV4U78TUUDKI","3566S7OX5D5NH74JOVOPTTMK8IR17K","","601.6999999880791","img/food4.png","74","602.2000000178814","1","1","","2","1","1,0.5,0,1,0.5,0,0.5,0,1","1,0.5,0,1,0.5,0,0.5,0,1","1",""
"","html-keyboard-response","194","116665","0.0-283.0","30X31N5D64C7GDZ5ZJKVO47777AASR","AHV4U78TUUDKI","3566S7OX5D5NH74JOVOPTTMK8IR17K","","null","<img src=""img/food4.png"" style=""width:200px; border:14px solid green;"">","null","","","","","","","","","",""
"","image-keyboard-response","195","117100","0.0-284.0","30X31N5D64C7GDZ5ZJKVO47777AASR","AHV4U78TUUDKI","3566S7OX5D5NH74JOVOPTTMK8IR17K","","434.19999998807907","img/food4.png","74","434.5","1","1","","2","1","1,0.5,0,1,0.5,0,0.5,0,1","1,0.5,0,1,0.5,0,0.5,0,1","1",""
"","html-keyboard-response","196","117402","0.0-285.0","30X31N5D64C7GDZ5ZJKVO47777AASR","AHV4U78TUUDKI","3566S7OX5D5NH74JOVOPTTMK8IR17K","","null","<img src=""img/food4.png"" style=""width:200px; border:14px solid green;"">","null","","","","","","","","","",""
"","image-keyboard-response","197","117876","0.0-286.0","30X31N5D64C7GDZ5ZJKVO47777AASR","AHV4U78TUUDKI","3566S7OX5D5NH74JOVOPTTMK8IR17K","","473.5","img/food5.png","75","473.7999999821186","2","0","","3","1","1,0.5,0,1,0.5,0,0.5,0,1","1,0.5,0,1,0.5,0,0.5,0,1","1",""
"","html-keyboard-response","198","118177","0.0-287.0","30X31N5D64C7GDZ5ZJKVO47777AASR","AHV4U78TUUDKI","3566S7OX5D5NH74JOVOPTTMK8IR17K","","null","<img src=""img/food5.png"" style=""width:200px;border:14px solid red;"">","null","","","","","","","","","",""
"","image-keyboard-response","199","118964","0.0-288.0","30X31N5D64C7GDZ5ZJKVO47777AASR","AHV4U78TUUDKI","3566S7OX5D5NH74JOVOPTTMK8IR17K","","786.0999999940395","img/food4.png","74","786.6999999880791","1","1","","2","1","1,0.5,0,1,0.5,0,0.5,0,1","1,0.5,0,1,0.5,0,0.5,0,1","1",""
"","html-keyboard-response","200","119265","0.0-289.0","30X31N5D64C7GDZ5ZJKVO47777AASR","AHV4U78TUUDKI","3566S7OX5D5NH74JOVOPTTMK8IR17K","","null","<img src=""img/food4.png"" style=""width:200px; border:14px solid green;"">","null","","","","","","","","","",""
"","image-keyboard-response","201","119716","0.0-290.0","30X31N5D64C7GDZ5ZJKVO47777AASR","AHV4U78TUUDKI","3566S7OX5D5NH74JOVOPTTMK8IR17K","","450.7999999821186","img/food4.png","74","451.09999999403954","1","1","","2","1","1,0.5,0,1,0.5,0,0.5,0,1","1,0.5,0,1,0.5,0,0.5,0,1","1",""
"","html-keyboard-response","202","120017","0.0-291.0","30X31N5D64C7GDZ5ZJKVO47777AASR","AHV4U78TUUDKI","3566S7OX5D5NH74JOVOPTTMK8IR17K","","null","<img src=""img/food4.png"" style=""width:200px; border:14px solid green;"">","null","","","","","","","","","",""
"","image-keyboard-response","203","120564","0.0-292.0","30X31N5D64C7GDZ5ZJKVO47777AASR","AHV4U78TUUDKI","3566S7OX5D5NH74JOVOPTTMK8IR17K","","546.6999999880791","img/food4.png","74","547","1","1","","2","1","1,0.5,0,1,0.5,0,0.5,0,1","1,0.5,0,1,0.5,0,0.5,0,1","1",""
"","html-keyboard-response","204","120877","0.0-293.0","30X31N5D64C7GDZ5ZJKVO47777AASR","AHV4U78TUUDKI","3566S7OX5D5NH74JOVOPTTMK8IR17K","","null","<img src=""img/food4.png"" style=""width:200px; border:14px solid green;"">","null","","","","","","","","","",""
"","image-keyboard-response","205","121356","0.0-294.0","30X31N5D64C7GDZ5ZJKVO47777AASR","AHV4U78TUUDKI","3566S7OX5D5NH74JOVOPTTMK8IR17K","","478.7999999821186","img/food4.png","74","479.30000001192093","1","1","","2","1","1,0.5,0,1,0.5,0,0.5,0,1","1,0.5,0,1,0.5,0,0.5,0,1","1",""
"","html-keyboard-response","206","121658","0.0-295.0","30X31N5D64C7GDZ5ZJKVO47777AASR","AHV4U78TUUDKI","3566S7OX5D5NH74JOVOPTTMK8IR17K","","null","<img src=""img/food4.png"" style=""width:200px; border:14px solid green;"">","null","","","","","","","","","",""
"","image-keyboard-response","207","122156","0.0-296.0","30X31N5D64C7GDZ5ZJKVO47777AASR","AHV4U78TUUDKI","3566S7OX5D5NH74JOVOPTTMK8IR17K","","498","img/food5.png","76","498.2999999821186","3","1","","3","1","1,0.5,0,1,0.5,0,0.5,0,1","1,0.5,0,1,0.5,0,0.5,0,1","1",""
"","html-keyboard-response","208","122458","0.0-297.0","30X31N5D64C7GDZ5ZJKVO47777AASR","AHV4U78TUUDKI","3566S7OX5D5NH74JOVOPTTMK8IR17K","","null","<img src=""img/food5.png"" style=""width:200px; border:14px solid green;"">","null","","","","","","","","","",""
"","image-keyboard-response","209","123204","0.0-298.0","30X31N5D64C7GDZ5ZJKVO47777AASR","AHV4U78TUUDKI","3566S7OX5D5NH74JOVOPTTMK8IR17K","","745.4000000059605","img/food4.png","74","745.6999999880791","1","1","","2","1","1,0.5,0,1,0.5,0,0.5,0,1","1,0.5,0,1,0.5,0,0.5,0,1","1",""
"","html-keyboard-response","210","123506","0.0-299.0","30X31N5D64C7GDZ5ZJKVO47777AASR","AHV4U78TUUDKI","3566S7OX5D5NH74JOVOPTTMK8IR17K","","null","<img src=""img/food4.png"" style=""width:200px; border:14px solid green;"">","null","","","","","","","","","",""
"","image-keyboard-response","211","124124","0.0-300.0","30X31N5D64C7GDZ5ZJKVO47777AASR","AHV4U78TUUDKI","3566S7OX5D5NH74JOVOPTTMK8IR17K","","617.1999999880791","img/food5.png","76","617.6999999880791","3","1","","3","1","1,0.5,0,1,0.5,0,0.5,0,1","1,0.5,0,1,0.5,0,0.5,0,1","1",""
"","html-keyboard-response","212","124426","0.0-301.0","30X31N5D64C7GDZ5ZJKVO47777AASR","AHV4U78TUUDKI","3566S7OX5D5NH74JOVOPTTMK8IR17K","","null","<img src=""img/food5.png"" style=""width:200px; border:14px solid green;"">","null","","","","","","","","","",""
"","image-keyboard-response","213","124932","0.0-302.0","30X31N5D64C7GDZ5ZJKVO47777AASR","AHV4U78TUUDKI","3566S7OX5D5NH74JOVOPTTMK8IR17K","","505.80000001192093","img/food4.png","74","506.19999998807907","1","1","","2","1","1,0.5,0,1,0.5,0,0.5,0,1","1,0.5,0,1,0.5,0,0.5,0,1","1",""
"","html-keyboard-response","214","125234","0.0-303.0","30X31N5D64C7GDZ5ZJKVO47777AASR","AHV4U78TUUDKI","3566S7OX5D5NH74JOVOPTTMK8IR17K","","null","<img src=""img/food4.png"" style=""width:200px; border:14px solid green;"">","null","","","","","","","","","",""
"","image-keyboard-response","215","125852","0.0-304.0","30X31N5D64C7GDZ5ZJKVO47777AASR","AHV4U78TUUDKI","3566S7OX5D5NH74JOVOPTTMK8IR17K","","618","img/food1.png","75","618.3999999761581","2","1","","1","1","1,0.5,0,1,0.5,0,0.5,0,1","1,0.5,0,1,0.5,0,0.5,0,1","1",""
"","html-keyboard-response","216","126153","0.0-305.0","30X31N5D64C7GDZ5ZJKVO47777AASR","AHV4U78TUUDKI","3566S7OX5D5NH74JOVOPTTMK8IR17K","","null","<img src=""img/food1.png"" style=""width:200px; border:14px solid green;"">","null","","","","","","","","","",""
"","image-keyboard-response","217","126972","0.0-306.0","30X31N5D64C7GDZ5ZJKVO47777AASR","AHV4U78TUUDKI","3566S7OX5D5NH74JOVOPTTMK8IR17K","","818.6999999880791","img/food4.png","74","819","1","1","","2","1","1,0.5,0,1,0.5,0,0.5,0,1","1,0.5,0,1,0.5,0,0.5,0,1","1",""
"","html-keyboard-response","218","127273","0.0-307.0","30X31N5D64C7GDZ5ZJKVO47777AASR","AHV4U78TUUDKI","3566S7OX5D5NH74JOVOPTTMK8IR17K","","null","<img src=""img/food4.png"" style=""width:200px; border:14px solid green;"">","null","","","","","","","","","",""
"","image-keyboard-response","219","127852","0.0-308.0","30X31N5D64C7GDZ5ZJKVO47777AASR","AHV4U78TUUDKI","3566S7OX5D5NH74JOVOPTTMK8IR17K","","578.2999999821186","img/food1.png","75","578.5999999940395","2","0","","1","1","1,0.5,0,1,0.5,0,0.5,0,1","1,0.5,0,1,0.5,0,0.5,0,1","1",""
"","html-keyboard-response","220","128153","0.0-309.0","30X31N5D64C7GDZ5ZJKVO47777AASR","AHV4U78TUUDKI","3566S7OX5D5NH74JOVOPTTMK8IR17K","","null","<img src=""img/food1.png"" style=""width:200px;border:14px solid red;"">","null","","","","","","","","","",""
"","image-keyboard-response","221","129284","0.0-310.0","30X31N5D64C7GDZ5ZJKVO47777AASR","AHV4U78TUUDKI","3566S7OX5D5NH74JOVOPTTMK8IR17K","","1130.2999999821186","img/food5.png","76","1130.800000011921","3","1","","3","1","1,0.5,0,1,0.5,0,0.5,0,1","1,0.5,0,1,0.5,0,0.5,0,1","1",""
"","html-keyboard-response","222","129586","0.0-311.0","30X31N5D64C7GDZ5ZJKVO47777AASR","AHV4U78TUUDKI","3566S7OX5D5NH74JOVOPTTMK8IR17K","","null","<img src=""img/food5.png"" style=""width:200px; border:14px solid green;"">","null","","","","","","","","","",""
"","image-keyboard-response","223","130788","0.0-312.0","30X31N5D64C7GDZ5ZJKVO47777AASR","AHV4U78TUUDKI","3566S7OX5D5NH74JOVOPTTMK8IR17K","","1202","img/food1.png","74","1202.4000000059605","1","1","","1","1","1,0.5,0,1,0.5,0,0.5,0,1","1,0.5,0,1,0.5,0,0.5,0,1","1",""
"","html-keyboard-response","224","131090","0.0-313.0","30X31N5D64C7GDZ5ZJKVO47777AASR","AHV4U78TUUDKI","3566S7OX5D5NH74JOVOPTTMK8IR17K","","null","<img src=""img/food1.png"" style=""width:200px; border:14px solid green;"">","null","","","","","","","","","",""
"","image-keyboard-response","225","131692","0.0-314.0","30X31N5D64C7GDZ5ZJKVO47777AASR","AHV4U78TUUDKI","3566S7OX5D5NH74JOVOPTTMK8IR17K","","602","img/food4.png","74","602.4000000059605","1","1","","2","1","1,0.5,0,1,0.5,0,0.5,0,1","1,0.5,0,1,0.5,0,0.5,0,1","1",""
"","html-keyboard-response","226","131994","0.0-315.0","30X31N5D64C7GDZ5ZJKVO47777AASR","AHV4U78TUUDKI","3566S7OX5D5NH74JOVOPTTMK8IR17K","","null","<img src=""img/food4.png"" style=""width:200px; border:14px solid green;"">","null","","","","","","","","","",""
"","image-keyboard-response","227","132796","0.0-316.0","30X31N5D64C7GDZ5ZJKVO47777AASR","AHV4U78TUUDKI","3566S7OX5D5NH74JOVOPTTMK8IR17K","","801.4000000059605","img/food1.png","74","802","1","1","","1","1","1,0.5,0,1,0.5,0,0.5,0,1","1,0.5,0,1,0.5,0,0.5,0,1","1",""
"","html-keyboard-response","228","133098","0.0-317.0","30X31N5D64C7GDZ5ZJKVO47777AASR","AHV4U78TUUDKI","3566S7OX5D5NH74JOVOPTTMK8IR17K","","null","<img src=""img/food1.png"" style=""width:200px; border:14px solid green;"">","null","","","","","","","","","",""
"","image-keyboard-response","229","133676","0.0-318.0","30X31N5D64C7GDZ5ZJKVO47777AASR","AHV4U78TUUDKI","3566S7OX5D5NH74JOVOPTTMK8IR17K","","577.6999999880791","img/food5.png","76","578","3","1","","3","1","1,0.5,0,1,0.5,0,0.5,0,1","1,0.5,0,1,0.5,0,0.5,0,1","1",""
"","html-keyboard-response","230","133977","0.0-319.0","30X31N5D64C7GDZ5ZJKVO47777AASR","AHV4U78TUUDKI","3566S7OX5D5NH74JOVOPTTMK8IR17K","","null","<img src=""img/food5.png"" style=""width:200px; border:14px solid green;"">","null","","","","","","","","","",""
"","image-keyboard-response","231","134852","0.0-320.0","30X31N5D64C7GDZ5ZJKVO47777AASR","AHV4U78TUUDKI","3566S7OX5D5NH74JOVOPTTMK8IR17K","","874.0999999940395","img/food1.png","74","874.6999999880791","1","1","","1","1","1,0.5,0,1,0.5,0,0.5,0,1","1,0.5,0,1,0.5,0,0.5,0,1","1",""
"","html-keyboard-response","232","135154","0.0-321.0","30X31N5D64C7GDZ5ZJKVO47777AASR","AHV4U78TUUDKI","3566S7OX5D5NH74JOVOPTTMK8IR17K","","null","<img src=""img/food1.png"" style=""width:200px; border:14px solid green;"">","null","","","","","","","","","",""
"","image-keyboard-response","233","135884","0.0-322.0","30X31N5D64C7GDZ5ZJKVO47777AASR","AHV4U78TUUDKI","3566S7OX5D5NH74JOVOPTTMK8IR17K","","729.9000000059605","img/food4.png","74","730.2999999821186","1","1","","2","1","1,0.5,0,1,0.5,0,0.5,0,1","1,0.5,0,1,0.5,0,0.5,0,1","1",""
"","html-keyboard-response","234","136189","0.0-323.0","30X31N5D64C7GDZ5ZJKVO47777AASR","AHV4U78TUUDKI","3566S7OX5D5NH74JOVOPTTMK8IR17K","","null","<img src=""img/food4.png"" style=""width:200px; border:14px solid green;"">","null","","","","","","","","","",""
"","image-keyboard-response","235","137028","0.0-324.0","30X31N5D64C7GDZ5ZJKVO47777AASR","AHV4U78TUUDKI","3566S7OX5D5NH74JOVOPTTMK8IR17K","","839.1999999880791","img/food5.png","76","839.6000000238419","3","1","","3","1","1,0.5,0,1,0.5,0,0.5,0,1","1,0.5,0,1,0.5,0,0.5,0,1","1",""
"","html-keyboard-response","236","137330","0.0-325.0","30X31N5D64C7GDZ5ZJKVO47777AASR","AHV4U78TUUDKI","3566S7OX5D5NH74JOVOPTTMK8IR17K","","null","<img src=""img/food5.png"" style=""width:200px; border:14px solid green;"">","null","","","","","","","","","",""
"","image-keyboard-response","237","138044","0.0-326.0","30X31N5D64C7GDZ5ZJKVO47777AASR","AHV4U78TUUDKI","3566S7OX5D5NH74JOVOPTTMK8IR17K","","713.6999999880791","img/food4.png","74","714.3000000119209","1","1","","2","1","1,0.5,0,1,0.5,0,0.5,0,1","1,0.5,0,1,0.5,0,0.5,0,1","1",""
"","html-keyboard-response","238","138358","0.0-327.0","30X31N5D64C7GDZ5ZJKVO47777AASR","AHV4U78TUUDKI","3566S7OX5D5NH74JOVOPTTMK8IR17K","","null","<img src=""img/food4.png"" style=""width:200px; border:14px solid green;"">","null","","","","","","","","","",""
"","image-keyboard-response","239","138940","0.0-328.0","30X31N5D64C7GDZ5ZJKVO47777AASR","AHV4U78TUUDKI","3566S7OX5D5NH74JOVOPTTMK8IR17K","","581.9000000059605","img/food4.png","74","582.4000000059605","1","1","","2","1","1,0.5,0,1,0.5,0,0.5,0,1","1,0.5,0,1,0.5,0,0.5,0,1","1",""
"","html-keyboard-response","240","139242","0.0-329.0","30X31N5D64C7GDZ5ZJKVO47777AASR","AHV4U78TUUDKI","3566S7OX5D5NH74JOVOPTTMK8IR17K","","null","<img src=""img/food4.png"" style=""width:200px; border:14px solid green;"">","null","","","","","","","","","",""
"","image-keyboard-response","241","139860","0.0-330.0","30X31N5D64C7GDZ5ZJKVO47777AASR","AHV4U78TUUDKI","3566S7OX5D5NH74JOVOPTTMK8IR17K","","618","img/food4.png","74","618.4000000059605","1","1","","2","1","1,0.5,0,1,0.5,0,0.5,0,1","1,0.5,0,1,0.5,0,0.5,0,1","1",""
"","html-keyboard-response","242","140162","0.0-331.0","30X31N5D64C7GDZ5ZJKVO47777AASR","AHV4U78TUUDKI","3566S7OX5D5NH74JOVOPTTMK8IR17K","","null","<img src=""img/food4.png"" style=""width:200px; border:14px solid green;"">","null","","","","","","","","","",""
"","image-keyboard-response","243","140876","0.0-332.0","30X31N5D64C7GDZ5ZJKVO47777AASR","AHV4U78TUUDKI","3566S7OX5D5NH74JOVOPTTMK8IR17K","","714.0999999940395","img/food4.png","74","714.6000000238419","1","1","","2","1","1,0.5,0,1,0.5,0,0.5,0,1","1,0.5,0,1,0.5,0,0.5,0,1","1",""
"","html-keyboard-response","244","141177","0.0-333.0","30X31N5D64C7GDZ5ZJKVO47777AASR","AHV4U78TUUDKI","3566S7OX5D5NH74JOVOPTTMK8IR17K","","null","<img src=""img/food4.png"" style=""width:200px; border:14px solid green;"">","null","","","","","","","","","",""
"","image-keyboard-response","245","141876","0.0-334.0","30X31N5D64C7GDZ5ZJKVO47777AASR","AHV4U78TUUDKI","3566S7OX5D5NH74JOVOPTTMK8IR17K","","698.1999999880791","img/food5.png","76","698.8000000119209","3","1","","3","1","1,0.5,0,1,0.5,0,0.5,0,1","1,0.5,0,1,0.5,0,0.5,0,1","1",""
"","html-keyboard-response","246","142177","0.0-335.0","30X31N5D64C7GDZ5ZJKVO47777AASR","AHV4U78TUUDKI","3566S7OX5D5NH74JOVOPTTMK8IR17K","","null","<img src=""img/food5.png"" style=""width:200px; border:14px solid green;"">","null","","","","","","","","","",""
"","image-keyboard-response","247","142828","0.0-336.0","30X31N5D64C7GDZ5ZJKVO47777AASR","AHV4U78TUUDKI","3566S7OX5D5NH74JOVOPTTMK8IR17K","","650.1999999880791","img/food4.png","76","650.6000000238419","3","0","","2","1","1,0.5,0,1,0.5,0,0.5,0,1","1,0.5,0,1,0.5,0,0.5,0,1","1",""
"","html-keyboard-response","248","143132","0.0-337.0","30X31N5D64C7GDZ5ZJKVO47777AASR","AHV4U78TUUDKI","3566S7OX5D5NH74JOVOPTTMK8IR17K","","null","<img src=""img/food4.png"" style=""width:200px;border:14px solid red;"">","null","","","","","","","","","",""
"","image-keyboard-response","249","144284","0.0-338.0","30X31N5D64C7GDZ5ZJKVO47777AASR","AHV4U78TUUDKI","3566S7OX5D5NH74JOVOPTTMK8IR17K","","1151.5999999940395","img/food1.png","74","1152.0999999940395","1","1","","1","1","1,0.5,0,1,0.5,0,0.5,0,1","1,0.5,0,1,0.5,0,0.5,0,1","1",""
"","html-keyboard-response","250","144585","0.0-339.0","30X31N5D64C7GDZ5ZJKVO47777AASR","AHV4U78TUUDKI","3566S7OX5D5NH74JOVOPTTMK8IR17K","","null","<img src=""img/food1.png"" style=""width:200px; border:14px solid green;"">","null","","","","","","","","","",""
"","image-keyboard-response","251","145300","0.0-340.0","30X31N5D64C7GDZ5ZJKVO47777AASR","AHV4U78TUUDKI","3566S7OX5D5NH74JOVOPTTMK8IR17K","","714","img/food1.png","74","714.3999999761581","1","1","","1","1","1,0.5,0,1,0.5,0,0.5,0,1","1,0.5,0,1,0.5,0,0.5,0,1","1",""
"","html-keyboard-response","252","145602","0.0-341.0","30X31N5D64C7GDZ5ZJKVO47777AASR","AHV4U78TUUDKI","3566S7OX5D5NH74JOVOPTTMK8IR17K","","null","<img src=""img/food1.png"" style=""width:200px; border:14px solid green;"">","null","","","","","","","","","",""
"","image-keyboard-response","253","146276","0.0-342.0","30X31N5D64C7GDZ5ZJKVO47777AASR","AHV4U78TUUDKI","3566S7OX5D5NH74JOVOPTTMK8IR17K","","673.1999999880791","img/food1.png","74","673.7000000178814","1","1","","1","1","1,0.5,0,1,0.5,0,0.5,0,1","1,0.5,0,1,0.5,0,0.5,0,1","1",""
"","html-keyboard-response","254","146578","0.0-343.0","30X31N5D64C7GDZ5ZJKVO47777AASR","AHV4U78TUUDKI","3566S7OX5D5NH74JOVOPTTMK8IR17K","","null","<img src=""img/food1.png"" style=""width:200px; border:14px solid green;"">","null","","","","","","","","","",""
"","image-keyboard-response","255","147324","0.0-344.0","30X31N5D64C7GDZ5ZJKVO47777AASR","AHV4U78TUUDKI","3566S7OX5D5NH74JOVOPTTMK8IR17K","","746","img/food5.png","76","746.3999999761581","3","1","","3","1","1,0.5,0,1,0.5,0,0.5,0,1","1,0.5,0,1,0.5,0,0.5,0,1","1",""
"","html-keyboard-response","256","147625","0.0-345.0","30X31N5D64C7GDZ5ZJKVO47777AASR","AHV4U78TUUDKI","3566S7OX5D5NH74JOVOPTTMK8IR17K","","null","<img src=""img/food5.png"" style=""width:200px; border:14px solid green;"">","null","","","","","","","","","",""
"","image-keyboard-response","257","148468","0.0-346.0","30X31N5D64C7GDZ5ZJKVO47777AASR","AHV4U78TUUDKI","3566S7OX5D5NH74JOVOPTTMK8IR17K","","842.0999999940395","img/food1.png","74","842.5","1","1","","1","1","1,0.5,0,1,0.5,0,0.5,0,1","1,0.5,0,1,0.5,0,0.5,0,1","1",""
"","html-keyboard-response","258","148770","0.0-347.0","30X31N5D64C7GDZ5ZJKVO47777AASR","AHV4U78TUUDKI","3566S7OX5D5NH74JOVOPTTMK8IR17K","","null","<img src=""img/food1.png"" style=""width:200px; border:14px solid green;"">","null","","","","","","","","","",""
"","image-keyboard-response","259","149516","0.0-348.0","30X31N5D64C7GDZ5ZJKVO47777AASR","AHV4U78TUUDKI","3566S7OX5D5NH74JOVOPTTMK8IR17K","","745.7999999821186","img/food1.png","74","746.2000000178814","1","1","","1","1","1,0.5,0,1,0.5,0,0.5,0,1","1,0.5,0,1,0.5,0,0.5,0,1","1",""
"","html-keyboard-response","260","149818","0.0-349.0","30X31N5D64C7GDZ5ZJKVO47777AASR","AHV4U78TUUDKI","3566S7OX5D5NH74JOVOPTTMK8IR17K","","null","<img src=""img/food1.png"" style=""width:200px; border:14px solid green;"">","null","","","","","","","","","",""
"","image-keyboard-response","261","150492","0.0-350.0","30X31N5D64C7GDZ5ZJKVO47777AASR","AHV4U78TUUDKI","3566S7OX5D5NH74JOVOPTTMK8IR17K","","673.9000000059605","img/food5.png","76","674.1999999880791","3","1","","3","1","1,0.5,0,1,0.5,0,0.5,0,1","1,0.5,0,1,0.5,0,0.5,0,1","1",""
"","html-keyboard-response","262","150794","0.0-351.0","30X31N5D64C7GDZ5ZJKVO47777AASR","AHV4U78TUUDKI","3566S7OX5D5NH74JOVOPTTMK8IR17K","","null","<img src=""img/food5.png"" style=""width:200px; border:14px solid green;"">","null","","","","","","","","","",""
"","image-keyboard-response","263","151516","0.0-352.0","30X31N5D64C7GDZ5ZJKVO47777AASR","AHV4U78TUUDKI","3566S7OX5D5NH74JOVOPTTMK8IR17K","","721.7999999821186","img/food4.png","74","722.0999999940395","1","1","","2","1","1,0.5,0,1,0.5,0,0.5,0,1","1,0.5,0,1,0.5,0,0.5,0,1","1",""
"","html-keyboard-response","264","151818","0.0-353.0","30X31N5D64C7GDZ5ZJKVO47777AASR","AHV4U78TUUDKI","3566S7OX5D5NH74JOVOPTTMK8IR17K","","null","<img src=""img/food4.png"" style=""width:200px; border:14px solid green;"">","null","","","","","","","","","",""
"","image-keyboard-response","265","152788","0.0-354.0","30X31N5D64C7GDZ5ZJKVO47777AASR","AHV4U78TUUDKI","3566S7OX5D5NH74JOVOPTTMK8IR17K","","969.1999999880791","img/food1.png","76","969.6999999880791","3","0","","1","1","1,0.5,0,1,0.5,0,0.5,0,1","1,0.5,0,1,0.5,0,0.5,0,1","1",""
"","html-keyboard-response","266","153090","0.0-355.0","30X31N5D64C7GDZ5ZJKVO47777AASR","AHV4U78TUUDKI","3566S7OX5D5NH74JOVOPTTMK8IR17K","","null","<img src=""img/food1.png"" style=""width:200px;border:14px solid red;"">","null","","","","","","","","","",""
"","image-keyboard-response","267","154076","0.0-356.0","30X31N5D64C7GDZ5ZJKVO47777AASR","AHV4U78TUUDKI","3566S7OX5D5NH74JOVOPTTMK8IR17K","","986","img/food5.png","74","986.3999999761581","1","1","","3","1","1,0.5,0,1,0.5,0,0.5,0,1","1,0.5,0,1,0.5,0,0.5,0,1","1",""
"","html-keyboard-response","268","154378","0.0-357.0","30X31N5D64C7GDZ5ZJKVO47777AASR","AHV4U78TUUDKI","3566S7OX5D5NH74JOVOPTTMK8IR17K","","null","<img src=""img/food5.png"" style=""width:200px; border:14px solid green;"">","null","","","","","","","","","",""
"","image-keyboard-response","269","155468","0.0-358.0","30X31N5D64C7GDZ5ZJKVO47777AASR","AHV4U78TUUDKI","3566S7OX5D5NH74JOVOPTTMK8IR17K","","1090","img/food4.png","74","1090.2999999821186","1","1","","2","1","1,0.5,0,1,0.5,0,0.5,0,1","1,0.5,0,1,0.5,0,0.5,0,1","1",""
"","html-keyboard-response","270","155770","0.0-359.0","30X31N5D64C7GDZ5ZJKVO47777AASR","AHV4U78TUUDKI","3566S7OX5D5NH74JOVOPTTMK8IR17K","","null","<img src=""img/food4.png"" style=""width:200px; border:14px solid green;"">","null","","","","","","","","","",""
"","image-keyboard-response","271","156556","0.0-360.0","30X31N5D64C7GDZ5ZJKVO47777AASR","AHV4U78TUUDKI","3566S7OX5D5NH74JOVOPTTMK8IR17K","","785.8000000119209","img/food5.png","74","786.2999999821186","1","1","","3","1","1,0.5,0,1,0.5,0,0.5,0,1","1,0.5,0,1,0.5,0,0.5,0,1","1",""
"","html-keyboard-response","272","156857","0.0-361.0","30X31N5D64C7GDZ5ZJKVO47777AASR","AHV4U78TUUDKI","3566S7OX5D5NH74JOVOPTTMK8IR17K","","null","<img src=""img/food5.png"" style=""width:200px; border:14px solid green;"">","null","","","","","","","","","",""
"","image-keyboard-response","273","158220","0.0-362.0","30X31N5D64C7GDZ5ZJKVO47777AASR","AHV4U78TUUDKI","3566S7OX5D5NH74JOVOPTTMK8IR17K","","1362.5999999940395","img/food1.png","74","1363","1","1","","1","1","1,0.5,0,1,0.5,0,0.5,0,1","1,0.5,0,1,0.5,0,0.5,0,1","1",""
"","html-keyboard-response","274","158522","0.0-363.0","30X31N5D64C7GDZ5ZJKVO47777AASR","AHV4U78TUUDKI","3566S7OX5D5NH74JOVOPTTMK8IR17K","","null","<img src=""img/food1.png"" style=""width:200px; border:14px solid green;"">","null","","","","","","","","","",""
"","image-keyboard-response","275","159076","0.0-364.0","30X31N5D64C7GDZ5ZJKVO47777AASR","AHV4U78TUUDKI","3566S7OX5D5NH74JOVOPTTMK8IR17K","","553.5","img/food5.png","76","553.8999999761581","3","1","","3","1","1,0.5,0,1,0.5,0,0.5,0,1","1,0.5,0,1,0.5,0,0.5,0,1","1",""
"","html-keyboard-response","276","159378","0.0-365.0","30X31N5D64C7GDZ5ZJKVO47777AASR","AHV4U78TUUDKI","3566S7OX5D5NH74JOVOPTTMK8IR17K","","null","<img src=""img/food5.png"" style=""width:200px; border:14px solid green;"">","null","","","","","","","","","",""
"","image-keyboard-response","277","160140","0.0-366.0","30X31N5D64C7GDZ5ZJKVO47777AASR","AHV4U78TUUDKI","3566S7OX5D5NH74JOVOPTTMK8IR17K","","761.3000000119209","img/food5.png","76","761.7999999821186","3","1","","3","1","1,0.5,0,1,0.5,0,0.5,0,1","1,0.5,0,1,0.5,0,0.5,0,1","1",""
"","html-keyboard-response","278","160442","0.0-367.0","30X31N5D64C7GDZ5ZJKVO47777AASR","AHV4U78TUUDKI","3566S7OX5D5NH74JOVOPTTMK8IR17K","","null","<img src=""img/food5.png"" style=""width:200px; border:14px solid green;"">","null","","","","","","","","","",""
"","image-keyboard-response","279","161140","0.0-368.0","30X31N5D64C7GDZ5ZJKVO47777AASR","AHV4U78TUUDKI","3566S7OX5D5NH74JOVOPTTMK8IR17K","","698","img/food5.png","76","698.3999999761581","3","1","","3","1","1,0.5,0,1,0.5,0,0.5,0,1","1,0.5,0,1,0.5,0,0.5,0,1","1",""
"","html-keyboard-response","280","161442","0.0-369.0","30X31N5D64C7GDZ5ZJKVO47777AASR","AHV4U78TUUDKI","3566S7OX5D5NH74JOVOPTTMK8IR17K","","null","<img src=""img/food5.png"" style=""width:200px; border:14px solid green;"">","null","","","","","","","","","",""
"","image-keyboard-response","281","162268","0.0-370.0","30X31N5D64C7GDZ5ZJKVO47777AASR","AHV4U78TUUDKI","3566S7OX5D5NH74JOVOPTTMK8IR17K","","825.4000000059605","img/food1.png","74","826","1","1","","1","1","1,0.5,0,1,0.5,0,0.5,0,1","1,0.5,0,1,0.5,0,0.5,0,1","1",""
"","html-keyboard-response","282","162570","0.0-371.0","30X31N5D64C7GDZ5ZJKVO47777AASR","AHV4U78TUUDKI","3566S7OX5D5NH74JOVOPTTMK8IR17K","","null","<img src=""img/food1.png"" style=""width:200px; border:14px solid green;"">","null","","","","","","","","","",""
"","image-keyboard-response","283","163260","0.0-372.0","30X31N5D64C7GDZ5ZJKVO47777AASR","AHV4U78TUUDKI","3566S7OX5D5NH74JOVOPTTMK8IR17K","","689.5999999940395","img/food5.png","76","690.0999999940395","3","1","","3","1","1,0.5,0,1,0.5,0,0.5,0,1","1,0.5,0,1,0.5,0,0.5,0,1","1",""
"","html-keyboard-response","284","163561","0.0-373.0","30X31N5D64C7GDZ5ZJKVO47777AASR","AHV4U78TUUDKI","3566S7OX5D5NH74JOVOPTTMK8IR17K","","null","<img src=""img/food5.png"" style=""width:200px; border:14px solid green;"">","null","","","","","","","","","",""
"","image-keyboard-response","285","164148","0.0-374.0","30X31N5D64C7GDZ5ZJKVO47777AASR","AHV4U78TUUDKI","3566S7OX5D5NH74JOVOPTTMK8IR17K","","586.6999999880791","img/food5.png","76","587.0999999940395","3","1","","3","1","1,0.5,0,1,0.5,0,0.5,0,1","1,0.5,0,1,0.5,0,0.5,0,1","1",""
"","html-keyboard-response","286","164449","0.0-375.0","30X31N5D64C7GDZ5ZJKVO47777AASR","AHV4U78TUUDKI","3566S7OX5D5NH74JOVOPTTMK8IR17K","","null","<img src=""img/food5.png"" style=""width:200px; border:14px solid green;"">","null","","","","","","","","","",""
"","image-keyboard-response","287","165188","0.0-376.0","30X31N5D64C7GDZ5ZJKVO47777AASR","AHV4U78TUUDKI","3566S7OX5D5NH74JOVOPTTMK8IR17K","","738.5999999940395","img/food4.png","74","739.0999999940395","1","1","","2","1","1,0.5,0,1,0.5,0,0.5,0,1","1,0.5,0,1,0.5,0,0.5,0,1","1",""
"","html-keyboard-response","288","165489","0.0-377.0","30X31N5D64C7GDZ5ZJKVO47777AASR","AHV4U78TUUDKI","3566S7OX5D5NH74JOVOPTTMK8IR17K","","null","<img src=""img/food4.png"" style=""width:200px; border:14px solid green;"">","null","","","","","","","","","",""
"","image-keyboard-response","289","166124","0.0-378.0","30X31N5D64C7GDZ5ZJKVO47777AASR","AHV4U78TUUDKI","3566S7OX5D5NH74JOVOPTTMK8IR17K","","634.5999999940395","img/food1.png","76","634.8999999761581","3","0","","1","1","1,0.5,0,1,0.5,0,0.5,0,1","1,0.5,0,1,0.5,0,0.5,0,1","1",""
"","html-keyboard-response","290","166426","0.0-379.0","30X31N5D64C7GDZ5ZJKVO47777AASR","AHV4U78TUUDKI","3566S7OX5D5NH74JOVOPTTMK8IR17K","","null","<img src=""img/food1.png"" style=""width:200px;border:14px solid red;"">","null","","","","","","","","","",""
"","image-keyboard-response","291","167044","0.0-380.0","30X31N5D64C7GDZ5ZJKVO47777AASR","AHV4U78TUUDKI","3566S7OX5D5NH74JOVOPTTMK8IR17K","","617.1999999880791","img/food1.png","74","617.7000000178814","1","1","","1","1","1,0.5,0,1,0.5,0,0.5,0,1","1,0.5,0,1,0.5,0,0.5,0,1","1",""
"","html-keyboard-response","292","167354","0.0-381.0","30X31N5D64C7GDZ5ZJKVO47777AASR","AHV4U78TUUDKI","3566S7OX5D5NH74JOVOPTTMK8IR17K","","null","<img src=""img/food1.png"" style=""width:200px; border:14px solid green;"">","null","","","","","","","","","",""
"","image-keyboard-response","293","168132","0.0-382.0","30X31N5D64C7GDZ5ZJKVO47777AASR","AHV4U78TUUDKI","3566S7OX5D5NH74JOVOPTTMK8IR17K","","777.0999999940395","img/food5.png","76","777.5","3","1","","3","1","1,0.5,0,1,0.5,0,0.5,0,1","1,0.5,0,1,0.5,0,0.5,0,1","1",""
"","html-keyboard-response","294","168434","0.0-383.0","30X31N5D64C7GDZ5ZJKVO47777AASR","AHV4U78TUUDKI","3566S7OX5D5NH74JOVOPTTMK8IR17K","","null","<img src=""img/food5.png"" style=""width:200px; border:14px solid green;"">","null","","","","","","","","","",""
"","image-keyboard-response","295","169908","0.0-384.0","30X31N5D64C7GDZ5ZJKVO47777AASR","AHV4U78TUUDKI","3566S7OX5D5NH74JOVOPTTMK8IR17K","","1473.4000000059605","img/food5.png","76","1473.9000000059605","3","1","","3","1","1,0.5,0,1,0.5,0,0.5,0,1","1,0.5,0,1,0.5,0,0.5,0,1","1",""
"","html-keyboard-response","296","170219","0.0-385.0","30X31N5D64C7GDZ5ZJKVO47777AASR","AHV4U78TUUDKI","3566S7OX5D5NH74JOVOPTTMK8IR17K","","null","<img src=""img/food5.png"" style=""width:200px; border:14px solid green;"">","null","","","","","","","","","",""
"","image-keyboard-response","297","171028","0.0-386.0","30X31N5D64C7GDZ5ZJKVO47777AASR","AHV4U78TUUDKI","3566S7OX5D5NH74JOVOPTTMK8IR17K","","809","img/food5.png","76","809.4000000059605","3","1","","3","1","1,0.5,0,1,0.5,0,0.5,0,1","1,0.5,0,1,0.5,0,0.5,0,1","1",""
"","html-keyboard-response","298","171330","0.0-387.0","30X31N5D64C7GDZ5ZJKVO47777AASR","AHV4U78TUUDKI","3566S7OX5D5NH74JOVOPTTMK8IR17K","","null","<img src=""img/food5.png"" style=""width:200px; border:14px solid green;"">","null","","","","","","","","","",""
"","image-keyboard-response","299","171884","0.0-388.0","30X31N5D64C7GDZ5ZJKVO47777AASR","AHV4U78TUUDKI","3566S7OX5D5NH74JOVOPTTMK8IR17K","","553.1999999880791","img/food5.png","76","553.5999999940395","3","1","","3","1","1,0.5,0,1,0.5,0,0.5,0,1","1,0.5,0,1,0.5,0,0.5,0,1","1",""
"","html-keyboard-response","300","172190","0.0-389.0","30X31N5D64C7GDZ5ZJKVO47777AASR","AHV4U78TUUDKI","3566S7OX5D5NH74JOVOPTTMK8IR17K","","null","<img src=""img/food5.png"" style=""width:200px; border:14px solid green;"">","null","","","","","","","","","",""
"","image-keyboard-response","301","172700","0.0-390.0","30X31N5D64C7GDZ5ZJKVO47777AASR","AHV4U78TUUDKI","3566S7OX5D5NH74JOVOPTTMK8IR17K","","509.69999998807907","img/food5.png","76","510.09999999403954","3","1","","3","1","1,0.5,0,1,0.5,0,0.5,0,1","1,0.5,0,1,0.5,0,0.5,0,1","1",""
"","html-keyboard-response","302","173001","0.0-391.0","30X31N5D64C7GDZ5ZJKVO47777AASR","AHV4U78TUUDKI","3566S7OX5D5NH74JOVOPTTMK8IR17K","","null","<img src=""img/food5.png"" style=""width:200px; border:14px solid green;"">","null","","","","","","","","","",""
"","image-keyboard-response","303","173468","0.0-392.0","30X31N5D64C7GDZ5ZJKVO47777AASR","AHV4U78TUUDKI","3566S7OX5D5NH74JOVOPTTMK8IR17K","","466.30000001192093","img/food5.png","76","466.89999997615814","3","1","","3","1","1,0.5,0,1,0.5,0,0.5,0,1","1,0.5,0,1,0.5,0,0.5,0,1","1",""
"","html-keyboard-response","304","173769","0.0-393.0","30X31N5D64C7GDZ5ZJKVO47777AASR","AHV4U78TUUDKI","3566S7OX5D5NH74JOVOPTTMK8IR17K","","null","<img src=""img/food5.png"" style=""width:200px; border:14px solid green;"">","null","","","","","","","","","",""
"","image-keyboard-response","305","174396","0.0-394.0","30X31N5D64C7GDZ5ZJKVO47777AASR","AHV4U78TUUDKI","3566S7OX5D5NH74JOVOPTTMK8IR17K","","626.5999999940395","img/food4.png","74","627","1","1","","2","1","1,0.5,0,1,0.5,0,0.5,0,1","1,0.5,0,1,0.5,0,0.5,0,1","1",""
"","html-keyboard-response","306","174698","0.0-395.0","30X31N5D64C7GDZ5ZJKVO47777AASR","AHV4U78TUUDKI","3566S7OX5D5NH74JOVOPTTMK8IR17K","","null","<img src=""img/food4.png"" style=""width:200px; border:14px solid green;"">","null","","","","","","","","","",""
"","image-keyboard-response","307","175164","0.0-396.0","30X31N5D64C7GDZ5ZJKVO47777AASR","AHV4U78TUUDKI","3566S7OX5D5NH74JOVOPTTMK8IR17K","","465.40000000596046","img/food4.png","74","465.89999997615814","1","1","","2","1","1,0.5,0,1,0.5,0,0.5,0,1","1,0.5,0,1,0.5,0,0.5,0,1","1",""
"","html-keyboard-response","308","175465","0.0-397.0","30X31N5D64C7GDZ5ZJKVO47777AASR","AHV4U78TUUDKI","3566S7OX5D5NH74JOVOPTTMK8IR17K","","null","<img src=""img/food4.png"" style=""width:200px; border:14px solid green;"">","null","","","","","","","","","",""
"","image-keyboard-response","309","176452","0.0-398.0","30X31N5D64C7GDZ5ZJKVO47777AASR","AHV4U78TUUDKI","3566S7OX5D5NH74JOVOPTTMK8IR17K","","986.8999999761581","img/food1.png","74","987.2000000178814","1","1","","1","1","1,0.5,0,1,0.5,0,0.5,0,1","1,0.5,0,1,0.5,0,0.5,0,1","1",""
"","html-keyboard-response","310","176757","0.0-399.0","30X31N5D64C7GDZ5ZJKVO47777AASR","AHV4U78TUUDKI","3566S7OX5D5NH74JOVOPTTMK8IR17K","","null","<img src=""img/food1.png"" style=""width:200px; border:14px solid green;"">","null","","","","","","","","","",""
"","image-keyboard-response","311","177244","0.0-400.0","30X31N5D64C7GDZ5ZJKVO47777AASR","AHV4U78TUUDKI","3566S7OX5D5NH74JOVOPTTMK8IR17K","","486.19999998807907","img/food1.png","74","486.59999999403954","1","1","","1","1","1,0.5,0,1,0.5,0,0.5,0,1","1,0.5,0,1,0.5,0,0.5,0,1","1",""
"","html-keyboard-response","312","177555","0.0-401.0","30X31N5D64C7GDZ5ZJKVO47777AASR","AHV4U78TUUDKI","3566S7OX5D5NH74JOVOPTTMK8IR17K","","null","<img src=""img/food1.png"" style=""width:200px; border:14px solid green;"">","null","","","","","","","","","",""
"","image-keyboard-response","313","177972","0.0-402.0","30X31N5D64C7GDZ5ZJKVO47777AASR","AHV4U78TUUDKI","3566S7OX5D5NH74JOVOPTTMK8IR17K","","416.7999999821186","img/food1.png","74","417.19999998807907","1","1","","1","1","1,0.5,0,1,0.5,0,0.5,0,1","1,0.5,0,1,0.5,0,0.5,0,1","1",""
"","html-keyboard-response","314","178273","0.0-403.0","30X31N5D64C7GDZ5ZJKVO47777AASR","AHV4U78TUUDKI","3566S7OX5D5NH74JOVOPTTMK8IR17K","","null","<img src=""img/food1.png"" style=""width:200px; border:14px solid green;"">","null","","","","","","","","","",""
"","image-keyboard-response","315","178748","0.0-404.0","30X31N5D64C7GDZ5ZJKVO47777AASR","AHV4U78TUUDKI","3566S7OX5D5NH74JOVOPTTMK8IR17K","","474.19999998807907","img/food1.png","74","474.69999998807907","1","1","","1","1","1,0.5,0,1,0.5,0,0.5,0,1","1,0.5,0,1,0.5,0,0.5,0,1","1",""
"","html-keyboard-response","316","179050","0.0-405.0","30X31N5D64C7GDZ5ZJKVO47777AASR","AHV4U78TUUDKI","3566S7OX5D5NH74JOVOPTTMK8IR17K","","null","<img src=""img/food1.png"" style=""width:200px; border:14px solid green;"">","null","","","","","","","","","",""
"","image-keyboard-response","317","179812","0.0-406.0","30X31N5D64C7GDZ5ZJKVO47777AASR","AHV4U78TUUDKI","3566S7OX5D5NH74JOVOPTTMK8IR17K","","761.2000000178814","img/food4.png","74","761.6999999880791","1","1","","2","1","1,0.5,0,1,0.5,0,0.5,0,1","1,0.5,0,1,0.5,0,0.5,0,1","1",""
"","html-keyboard-response","318","180127","0.0-407.0","30X31N5D64C7GDZ5ZJKVO47777AASR","AHV4U78TUUDKI","3566S7OX5D5NH74JOVOPTTMK8IR17K","","null","<img src=""img/food4.png"" style=""width:200px; border:14px solid green;"">","null","","","","","","","","","",""
"","image-keyboard-response","319","181100","0.0-408.0","30X31N5D64C7GDZ5ZJKVO47777AASR","AHV4U78TUUDKI","3566S7OX5D5NH74JOVOPTTMK8IR17K","","972.6999999880791","img/food1.png","74","973.0999999940395","1","1","","1","1","1,0.5,0,1,0.5,0,0.5,0,1","1,0.5,0,1,0.5,0,0.5,0,1","1",""
"","html-keyboard-response","320","181402","0.0-409.0","30X31N5D64C7GDZ5ZJKVO47777AASR","AHV4U78TUUDKI","3566S7OX5D5NH74JOVOPTTMK8IR17K","","null","<img src=""img/food1.png"" style=""width:200px; border:14px solid green;"">","null","","","","","","","","","",""
"","image-keyboard-response","321","181876","0.0-410.0","30X31N5D64C7GDZ5ZJKVO47777AASR","AHV4U78TUUDKI","3566S7OX5D5NH74JOVOPTTMK8IR17K","","473.59999999403954","img/food1.png","74","474","1","1","","1","1","1,0.5,0,1,0.5,0,0.5,0,1","1,0.5,0,1,0.5,0,0.5,0,1","1",""
"","html-keyboard-response","322","182180","0.0-411.0","30X31N5D64C7GDZ5ZJKVO47777AASR","AHV4U78TUUDKI","3566S7OX5D5NH74JOVOPTTMK8IR17K","","null","<img src=""img/food1.png"" style=""width:200px; border:14px solid green;"">","null","","","","","","","","","",""
"","image-keyboard-response","323","183180","0.0-412.0","30X31N5D64C7GDZ5ZJKVO47777AASR","AHV4U78TUUDKI","3566S7OX5D5NH74JOVOPTTMK8IR17K","","1000.0999999940395","img/food5.png","74","1000.4000000059605","1","1","","3","1","1,0.5,0,1,0.5,0,0.5,0,1","1,0.5,0,1,0.5,0,0.5,0,1","1",""
"","html-keyboard-response","324","183482","0.0-413.0","30X31N5D64C7GDZ5ZJKVO47777AASR","AHV4U78TUUDKI","3566S7OX5D5NH74JOVOPTTMK8IR17K","","null","<img src=""img/food5.png"" style=""width:200px; border:14px solid green;"">","null","","","","","","","","","",""
"","image-keyboard-response","325","184276","0.0-414.0","30X31N5D64C7GDZ5ZJKVO47777AASR","AHV4U78TUUDKI","3566S7OX5D5NH74JOVOPTTMK8IR17K","","793.5999999940395","img/food4.png","74","793.8999999761581","1","1","","2","1","1,0.5,0,1,0.5,0,0.5,0,1","1,0.5,0,1,0.5,0,0.5,0,1","1",""
"","html-keyboard-response","326","184579","0.0-415.0","30X31N5D64C7GDZ5ZJKVO47777AASR","AHV4U78TUUDKI","3566S7OX5D5NH74JOVOPTTMK8IR17K","","null","<img src=""img/food4.png"" style=""width:200px; border:14px solid green;"">","null","","","","","","","","","",""
"","image-keyboard-response","327","185508","0.0-416.0","30X31N5D64C7GDZ5ZJKVO47777AASR","AHV4U78TUUDKI","3566S7OX5D5NH74JOVOPTTMK8IR17K","","929","img/food1.png","74","929.3999999761581","1","1","","1","1","1,0.5,0,1,0.5,0,0.5,0,1","1,0.5,0,1,0.5,0,0.5,0,1","1",""
"","html-keyboard-response","328","185809","0.0-417.0","30X31N5D64C7GDZ5ZJKVO47777AASR","AHV4U78TUUDKI","3566S7OX5D5NH74JOVOPTTMK8IR17K","","null","<img src=""img/food1.png"" style=""width:200px; border:14px solid green;"">","null","","","","","","","","","",""
"","image-keyboard-response","329","186364","0.0-418.0","30X31N5D64C7GDZ5ZJKVO47777AASR","AHV4U78TUUDKI","3566S7OX5D5NH74JOVOPTTMK8IR17K","","554.5","img/food4.png","74","554.7999999821186","1","1","","2","1","1,0.5,0,1,0.5,0,0.5,0,1","1,0.5,0,1,0.5,0,0.5,0,1","1",""
"","html-keyboard-response","330","186666","0.0-419.0","30X31N5D64C7GDZ5ZJKVO47777AASR","AHV4U78TUUDKI","3566S7OX5D5NH74JOVOPTTMK8IR17K","","null","<img src=""img/food4.png"" style=""width:200px; border:14px solid green;"">","null","","","","","","","","","",""
"","image-keyboard-response","331","187236","0.0-420.0","30X31N5D64C7GDZ5ZJKVO47777AASR","AHV4U78TUUDKI","3566S7OX5D5NH74JOVOPTTMK8IR17K","","569.6999999880791","img/food1.png","74","570.1999999880791","1","1","","1","1","1,0.5,0,1,0.5,0,0.5,0,1","1,0.5,0,1,0.5,0,0.5,0,1","1",""
"","html-keyboard-response","332","187537","0.0-421.0","30X31N5D64C7GDZ5ZJKVO47777AASR","AHV4U78TUUDKI","3566S7OX5D5NH74JOVOPTTMK8IR17K","","null","<img src=""img/food1.png"" style=""width:200px; border:14px solid green;"">","null","","","","","","","","","",""
"","image-keyboard-response","333","187956","0.0-422.0","30X31N5D64C7GDZ5ZJKVO47777AASR","AHV4U78TUUDKI","3566S7OX5D5NH74JOVOPTTMK8IR17K","","418.2999999821186","img/food1.png","74","418.69999998807907","1","1","","1","1","1,0.5,0,1,0.5,0,0.5,0,1","1,0.5,0,1,0.5,0,0.5,0,1","1",""
"","html-keyboard-response","334","188257","0.0-423.0","30X31N5D64C7GDZ5ZJKVO47777AASR","AHV4U78TUUDKI","3566S7OX5D5NH74JOVOPTTMK8IR17K","","null","<img src=""img/food1.png"" style=""width:200px; border:14px solid green;"">","null","","","","","","","","","",""
"","image-keyboard-response","335","188724","0.0-424.0","30X31N5D64C7GDZ5ZJKVO47777AASR","AHV4U78TUUDKI","3566S7OX5D5NH74JOVOPTTMK8IR17K","","466","img/food5.png","76","466.5","3","1","","3","1","1,0.5,0,1,0.5,0,0.5,0,1","1,0.5,0,1,0.5,0,0.5,0,1","1",""
"","html-keyboard-response","336","189026","0.0-425.0","30X31N5D64C7GDZ5ZJKVO47777AASR","AHV4U78TUUDKI","3566S7OX5D5NH74JOVOPTTMK8IR17K","","null","<img src=""img/food5.png"" style=""width:200px; border:14px solid green;"">","null","","","","","","","","","",""
"","image-keyboard-response","337","189452","0.0-426.0","30X31N5D64C7GDZ5ZJKVO47777AASR","AHV4U78TUUDKI","3566S7OX5D5NH74JOVOPTTMK8IR17K","","425.30000001192093","img/food5.png","74","425.80000001192093","1","1","","3","1","1,0.5,0,1,0.5,0,0.5,0,1","1,0.5,0,1,0.5,0,0.5,0,1","1",""
"","html-keyboard-response","338","189753","0.0-427.0","30X31N5D64C7GDZ5ZJKVO47777AASR","AHV4U78TUUDKI","3566S7OX5D5NH74JOVOPTTMK8IR17K","","null","<img src=""img/food5.png"" style=""width:200px; border:14px solid green;"">","null","","","","","","","","","",""
"","image-keyboard-response","339","190820","0.0-428.0","30X31N5D64C7GDZ5ZJKVO47777AASR","AHV4U78TUUDKI","3566S7OX5D5NH74JOVOPTTMK8IR17K","","1066.199999988079","img/food4.png","74","1066.5999999940395","1","1","","2","1","1,0.5,0,1,0.5,0,0.5,0,1","1,0.5,0,1,0.5,0,0.5,0,1","1",""
"","html-keyboard-response","340","191122","0.0-429.0","30X31N5D64C7GDZ5ZJKVO47777AASR","AHV4U78TUUDKI","3566S7OX5D5NH74JOVOPTTMK8IR17K","","null","<img src=""img/food4.png"" style=""width:200px; border:14px solid green;"">","null","","","","","","","","","",""
"","image-keyboard-response","341","191484","0.0-430.0","30X31N5D64C7GDZ5ZJKVO47777AASR","AHV4U78TUUDKI","3566S7OX5D5NH74JOVOPTTMK8IR17K","","361.30000001192093","img/food1.png","74","361.90000000596046","1","1","","1","1","1,0.5,0,1,0.5,0,0.5,0,1","1,0.5,0,1,0.5,0,0.5,0,1","1",""
"","html-keyboard-response","342","191786","0.0-431.0","30X31N5D64C7GDZ5ZJKVO47777AASR","AHV4U78TUUDKI","3566S7OX5D5NH74JOVOPTTMK8IR17K","","null","<img src=""img/food1.png"" style=""width:200px; border:14px solid green;"">","null","","","","","","","","","",""
"","image-keyboard-response","343","192220","0.0-432.0","30X31N5D64C7GDZ5ZJKVO47777AASR","AHV4U78TUUDKI","3566S7OX5D5NH74JOVOPTTMK8IR17K","","433.69999998807907","img/food5.png","74","434.19999998807907","1","1","","3","1","1,0.5,0,1,0.5,0,0.5,0,1","1,0.5,0,1,0.5,0,0.5,0,1","1",""
"","html-keyboard-response","344","192523","0.0-433.0","30X31N5D64C7GDZ5ZJKVO47777AASR","AHV4U78TUUDKI","3566S7OX5D5NH74JOVOPTTMK8IR17K","","null","<img src=""img/food5.png"" style=""width:200px; border:14px solid green;"">","null","","","","","","","","","",""
"","image-keyboard-response","345","192780","0.0-434.0","30X31N5D64C7GDZ5ZJKVO47777AASR","AHV4U78TUUDKI","3566S7OX5D5NH74JOVOPTTMK8IR17K","","256","img/food1.png","74","256.40000000596046","1","1","","1","1","1,0.5,0,1,0.5,0,0.5,0,1","1,0.5,0,1,0.5,0,0.5,0,1","1",""
"","html-keyboard-response","346","193082","0.0-435.0","30X31N5D64C7GDZ5ZJKVO47777AASR","AHV4U78TUUDKI","3566S7OX5D5NH74JOVOPTTMK8IR17K","","null","<img src=""img/food1.png"" style=""width:200px; border:14px solid green;"">","null","","","","","","","","","",""
"","image-keyboard-response","347","193244","0.0-436.0","30X31N5D64C7GDZ5ZJKVO47777AASR","AHV4U78TUUDKI","3566S7OX5D5NH74JOVOPTTMK8IR17K","","161.69999998807907","img/food5.png","74","162.2000000178814","1","1","","3","1","1,0.5,0,1,0.5,0,0.5,0,1","1,0.5,0,1,0.5,0,0.5,0,1","1",""
"","html-keyboard-response","348","193546","0.0-437.0","30X31N5D64C7GDZ5ZJKVO47777AASR","AHV4U78TUUDKI","3566S7OX5D5NH74JOVOPTTMK8IR17K","","null","<img src=""img/food5.png"" style=""width:200px; border:14px solid green;"">","null","","","","","","","","","",""
"","image-keyboard-response","349","193612","0.0-438.0","30X31N5D64C7GDZ5ZJKVO47777AASR","AHV4U78TUUDKI","3566S7OX5D5NH74JOVOPTTMK8IR17K","","65.09999999403954","img/food4.png","74","65.5","1","1","","2","1","1,0.5,0,1,0.5,0,0.5,0,1","1,0.5,0,1,0.5,0,0.5,0,1","1",""
"","html-keyboard-response","350","193913","0.0-439.0","30X31N5D64C7GDZ5ZJKVO47777AASR","AHV4U78TUUDKI","3566S7OX5D5NH74JOVOPTTMK8IR17K","","null","<img src=""img/food4.png"" style=""width:200px; border:14px solid green;"">","null","","","","","","","","","",""
"","image-keyboard-response","351","193973","0.0-440.0","30X31N5D64C7GDZ5ZJKVO47777AASR","AHV4U78TUUDKI","3566S7OX5D5NH74JOVOPTTMK8IR17K","","59.400000005960464","img/food1.png","74","59.900000005960464","1","1","","1","1","1,0.5,0,1,0.5,0,0.5,0,1","1,0.5,0,1,0.5,0,0.5,0,1","1",""
"","html-keyboard-response","352","194283","0.0-441.0","30X31N5D64C7GDZ5ZJKVO47777AASR","AHV4U78TUUDKI","3566S7OX5D5NH74JOVOPTTMK8IR17K","","null","<img src=""img/food1.png"" style=""width:200px; border:14px solid green;"">","null","","","","","","","","","",""
"","image-keyboard-response","353","194492","0.0-442.0","30X31N5D64C7GDZ5ZJKVO47777AASR","AHV4U78TUUDKI","3566S7OX5D5NH74JOVOPTTMK8IR17K","","208.90000000596046","img/food4.png","74","209.19999998807907","1","1","","2","1","1,0.5,0,1,0.5,0,0.5,0,1","1,0.5,0,1,0.5,0,0.5,0,1","1",""
"","html-keyboard-response","354","194794","0.0-443.0","30X31N5D64C7GDZ5ZJKVO47777AASR","AHV4U78TUUDKI","3566S7OX5D5NH74JOVOPTTMK8IR17K","","null","<img src=""img/food4.png"" style=""width:200px; border:14px solid green;"">","null","","","","","","","","","",""
"","image-keyboard-response","355","194828","0.0-444.0","30X31N5D64C7GDZ5ZJKVO47777AASR","AHV4U78TUUDKI","3566S7OX5D5NH74JOVOPTTMK8IR17K","","33.5","img/food5.png","74","33.89999997615814","1","0","","3","1","1,0.5,0,1,0.5,0,0.5,0,1","1,0.5,0,1,0.5,0,0.5,0,1","1",""
"","html-keyboard-response","356","195130","0.0-445.0","30X31N5D64C7GDZ5ZJKVO47777AASR","AHV4U78TUUDKI","3566S7OX5D5NH74JOVOPTTMK8IR17K","","null","<img src=""img/food5.png"" style=""width:200px;border:14px solid red;"">","null","","","","","","","","","",""
"","image-keyboard-response","357","196204","0.0-446.0","30X31N5D64C7GDZ5ZJKVO47777AASR","AHV4U78TUUDKI","3566S7OX5D5NH74JOVOPTTMK8IR17K","","1073.9000000059605","img/food4.png","74","1074.2999999821186","1","1","","2","1","1,0.5,0,1,0.5,0,0.5,0,1","1,0.5,0,1,0.5,0,0.5,0,1","1",""
"","html-keyboard-response","358","196505","0.0-447.0","30X31N5D64C7GDZ5ZJKVO47777AASR","AHV4U78TUUDKI","3566S7OX5D5NH74JOVOPTTMK8IR17K","","null","<img src=""img/food4.png"" style=""width:200px; border:14px solid green;"">","null","","","","","","","","","",""
"","image-keyboard-response","359","197684","0.0-448.0","30X31N5D64C7GDZ5ZJKVO47777AASR","AHV4U78TUUDKI","3566S7OX5D5NH74JOVOPTTMK8IR17K","","1178.4000000059605","img/food1.png","74","1179","1","1","","1","1","1,0.5,0,1,0.5,0,0.5,0,1","1,0.5,0,1,0.5,0,0.5,0,1","1",""
"","html-keyboard-response","360","197985","0.0-449.0","30X31N5D64C7GDZ5ZJKVO47777AASR","AHV4U78TUUDKI","3566S7OX5D5NH74JOVOPTTMK8IR17K","","null","<img src=""img/food1.png"" style=""width:200px; border:14px solid green;"">","null","","","","","","","","","",""
"","image-keyboard-response","361","198420","0.0-450.0","30X31N5D64C7GDZ5ZJKVO47777AASR","AHV4U78TUUDKI","3566S7OX5D5NH74JOVOPTTMK8IR17K","","434.59999999403954","img/food1.png","74","435.09999999403954","1","1","","1","1","1,0.5,0,1,0.5,0,0.5,0,1","1,0.5,0,1,0.5,0,0.5,0,1","1",""
"","html-keyboard-response","362","198721","0.0-451.0","30X31N5D64C7GDZ5ZJKVO47777AASR","AHV4U78TUUDKI","3566S7OX5D5NH74JOVOPTTMK8IR17K","","null","<img src=""img/food1.png"" style=""width:200px; border:14px solid green;"">","null","","","","","","","","","",""
"","image-keyboard-response","363","199212","0.0-452.0","30X31N5D64C7GDZ5ZJKVO47777AASR","AHV4U78TUUDKI","3566S7OX5D5NH74JOVOPTTMK8IR17K","","490.2999999821186","img/food5.png","76","490.69999998807907","3","1","","3","1","1,0.5,0,1,0.5,0,0.5,0,1","1,0.5,0,1,0.5,0,0.5,0,1","1",""
"","html-keyboard-response","364","199514","0.0-453.0","30X31N5D64C7GDZ5ZJKVO47777AASR","AHV4U78TUUDKI","3566S7OX5D5NH74JOVOPTTMK8IR17K","","null","<img src=""img/food5.png"" style=""width:200px; border:14px solid green;"">","null","","","","","","","","","",""
"","html-keyboard-response","365","202320","0.0-454.0","30X31N5D64C7GDZ5ZJKVO47777AASR","AHV4U78TUUDKI","3566S7OX5D5NH74JOVOPTTMK8IR17K","","","","","","","","","","","","","",""
"","instructions","366","205876","0.0-455.0","30X31N5D64C7GDZ5ZJKVO47777AASR","AHV4U78TUUDKI","3566S7OX5D5NH74JOVOPTTMK8IR17K","[{""page_index"":0,""viewing_time"":3555.5}]","3555.600000023842","","","","","","","","","","","",""
"","survey-text","367","214171","0.0-456.0","30X31N5D64C7GDZ5ZJKVO47777AASR","AHV4U78TUUDKI","3566S7OX5D5NH74JOVOPTTMK8IR17K","","8292.299999982119","","","","","","","","","","","","{""Q0"":""AHV4U78TUUDKI""}"
