"success","trial_type","trial_index","time_elapsed","internal_node_id","assignmentID","mturkID","hitID","view_history","rt","stimulus","key_press","reactionTime","a","r","s","cond","reward_cond","reward_cond_actual","reward_matrix_idx","warning","responses"
"true","fullscreen","0","2926","0.0-0.0","3C6FJU71TRFOR8PC4UTB6R72VVWUYZ","AIC2D8A9UQO8S","3P7RGTLO6EZ76AO3386R8ZK9IWWKAW","","","","","","","","","","","","","",""
"","instructions","1","80997","0.0-1.0","3C6FJU71TRFOR8PC4UTB6R72VVWUYZ","AIC2D8A9UQO8S","3P7RGTLO6EZ76AO3386R8ZK9IWWKAW","[{""page_index"":0,""viewing_time"":3517},{""page_index"":1,""viewing_time"":2314},{""page_index"":2,""viewing_time"":1077},{""page_index"":3,""viewing_time"":4909},{""page_index"":4,""viewing_time"":2563},{""page_index"":5,""viewing_time"":61515},{""page_index"":6,""viewing_time"":2176}]","78071","","","","","","","","","","","",""
"","image-keyboard-response","2","81910","0.0-2.0","3C6FJU71TRFOR8PC4UTB6R72VVWUYZ","AIC2D8A9UQO8S","3P7RGTLO6EZ76AO3386R8ZK9IWWKAW","","912","img/food3.png","76","912","3","1","3","1","1,0.5,0,1,0.5,0,0.5,0,1","1,0.5,0,1,0.5,0,0.5,0,1","1","",""
"","html-keyboard-response","3","82216","0.0-3.0","3C6FJU71TRFOR8PC4UTB6R72VVWUYZ","AIC2D8A9UQO8S","3P7RGTLO6EZ76AO3386R8ZK9IWWKAW","","null","<img src=""img/food3.png"" style=""width:200px; border:14px solid green;"">","null","","","","","","","","","",""
"","image-keyboard-response","4","83213","0.0-4.0","3C6FJU71TRFOR8PC4UTB6R72VVWUYZ","AIC2D8A9UQO8S","3P7RGTLO6EZ76AO3386R8ZK9IWWKAW","","997","img/food4.png","75","997","2","1","1","1","1,0.5,0,1,0.5,0,0.5,0,1","1,0.5,0,1,0.5,0,0.5,0,1","1","",""
"","html-keyboard-response","5","83516","0.0-5.0","3C6FJU71TRFOR8PC4UTB6R72VVWUYZ","AIC2D8A9UQO8S","3P7RGTLO6EZ76AO3386R8ZK9IWWKAW","","null","<img src=""img/food4.png"" style=""width:200px; border:14px solid green;"">","null","","","","","","","","","",""
"","image-keyboard-response","6","84497","0.0-6.0","3C6FJU71TRFOR8PC4UTB6R72VVWUYZ","AIC2D8A9UQO8S","3P7RGTLO6EZ76AO3386R8ZK9IWWKAW","","981","img/food4.png","75","981","2","1","1","1","1,0.5,0,1,0.5,0,0.5,0,1","1,0.5,0,1,0.5,0,0.5,0,1","1","",""
"","html-keyboard-response","7","84811","0.0-7.0","3C6FJU71TRFOR8PC4UTB6R72VVWUYZ","AIC2D8A9UQO8S","3P7RGTLO6EZ76AO3386R8ZK9IWWKAW","","null","<img src=""img/food4.png"" style=""width:200px; border:14px solid green;"">","null","","","","","","","","","",""
"","image-keyboard-response","8","85324","0.0-8.0","3C6FJU71TRFOR8PC4UTB6R72VVWUYZ","AIC2D8A9UQO8S","3P7RGTLO6EZ76AO3386R8ZK9IWWKAW","","513","img/food3.png","76","513","3","1","3","1","1,0.5,0,1,0.5,0,0.5,0,1","1,0.5,0,1,0.5,0,0.5,0,1","1","",""
"","html-keyboard-response","9","85639","0.0-9.0","3C6FJU71TRFOR8PC4UTB6R72VVWUYZ","AIC2D8A9UQO8S","3P7RGTLO6EZ76AO3386R8ZK9IWWKAW","","null","<img src=""img/food3.png"" style=""width:200px; border:14px solid green;"">","null","","","","","","","","","",""
"","image-keyboard-response","10","86111","0.0-10.0","3C6FJU71TRFOR8PC4UTB6R72VVWUYZ","AIC2D8A9UQO8S","3P7RGTLO6EZ76AO3386R8ZK9IWWKAW","","471","img/food3.png","76","472","3","1","3","1","1,0.5,0,1,0.5,0,0.5,0,1","1,0.5,0,1,0.5,0,0.5,0,1","1","",""
"","html-keyboard-response","11","86416","0.0-11.0","3C6FJU71TRFOR8PC4UTB6R72VVWUYZ","AIC2D8A9UQO8S","3P7RGTLO6EZ76AO3386R8ZK9IWWKAW","","null","<img src=""img/food3.png"" style=""width:200px; border:14px solid green;"">","null","","","","","","","","","",""
"","image-keyboard-response","12","87127","0.0-12.0","3C6FJU71TRFOR8PC4UTB6R72VVWUYZ","AIC2D8A9UQO8S","3P7RGTLO6EZ76AO3386R8ZK9IWWKAW","","711","img/food5.png","74","711","1","1","2","1","1,0.5,0,1,0.5,0,0.5,0,1","1,0.5,0,1,0.5,0,0.5,0,1","1","",""
"","html-keyboard-response","13","87437","0.0-13.0","3C6FJU71TRFOR8PC4UTB6R72VVWUYZ","AIC2D8A9UQO8S","3P7RGTLO6EZ76AO3386R8ZK9IWWKAW","","null","<img src=""img/food5.png"" style=""width:200px; border:14px solid green;"">","null","","","","","","","","","",""
"","image-keyboard-response","14","87910","0.0-14.0","3C6FJU71TRFOR8PC4UTB6R72VVWUYZ","AIC2D8A9UQO8S","3P7RGTLO6EZ76AO3386R8ZK9IWWKAW","","471","img/food5.png","74","471","1","1","2","1","1,0.5,0,1,0.5,0,0.5,0,1","1,0.5,0,1,0.5,0,0.5,0,1","1","",""
"","html-keyboard-response","15","88216","0.0-15.0","3C6FJU71TRFOR8PC4UTB6R72VVWUYZ","AIC2D8A9UQO8S","3P7RGTLO6EZ76AO3386R8ZK9IWWKAW","","null","<img src=""img/food5.png"" style=""width:200px; border:14px solid green;"">","null","","","","","","","","","",""
"","image-keyboard-response","16","88864","0.0-16.0","3C6FJU71TRFOR8PC4UTB6R72VVWUYZ","AIC2D8A9UQO8S","3P7RGTLO6EZ76AO3386R8ZK9IWWKAW","","648","img/food4.png","75","648","2","0","1","1","1,0.5,0,1,0.5,0,0.5,0,1","1,0.5,0,1,0.5,0,0.5,0,1","1","",""
"","html-keyboard-response","17","89176","0.0-17.0","3C6FJU71TRFOR8PC4UTB6R72VVWUYZ","AIC2D8A9UQO8S","3P7RGTLO6EZ76AO3386R8ZK9IWWKAW","","null","<img src=""img/food4.png"" style=""width:200px;border:14px solid red;"">","null","","","","","","","","","",""
"","image-keyboard-response","18","89611","0.0-18.0","3C6FJU71TRFOR8PC4UTB6R72VVWUYZ","AIC2D8A9UQO8S","3P7RGTLO6EZ76AO3386R8ZK9IWWKAW","","433","img/food4.png","75","433","2","0","1","1","1,0.5,0,1,0.5,0,0.5,0,1","1,0.5,0,1,0.5,0,0.5,0,1","1","",""
"","html-keyboard-response","19","89914","0.0-19.0","3C6FJU71TRFOR8PC4UTB6R72VVWUYZ","AIC2D8A9UQO8S","3P7RGTLO6EZ76AO3386R8ZK9IWWKAW","","null","<img src=""img/food4.png"" style=""width:200px;border:14px solid red;"">","null","","","","","","","","","",""
"","image-keyboard-response","20","90443","0.0-20.0","3C6FJU71TRFOR8PC4UTB6R72VVWUYZ","AIC2D8A9UQO8S","3P7RGTLO6EZ76AO3386R8ZK9IWWKAW","","529","img/food4.png","75","530","2","0","1","1","1,0.5,0,1,0.5,0,0.5,0,1","1,0.5,0,1,0.5,0,0.5,0,1","1","",""
"","html-keyboard-response","21","90750","0.0-21.0","3C6FJU71TRFOR8PC4UTB6R72VVWUYZ","AIC2D8A9UQO8S","3P7RGTLO6EZ76AO3386R8ZK9IWWKAW","","null","<img src=""img/food4.png"" style=""width:200px;border:14px solid red;"">","null","","","","","","","","","",""
"","image-keyboard-response","22","91445","0.0-22.0","3C6FJU71TRFOR8PC4UTB6R72VVWUYZ","AIC2D8A9UQO8S","3P7RGTLO6EZ76AO3386R8ZK9IWWKAW","","695","img/food5.png","74","695","1","1","2","1","1,0.5,0,1,0.5,0,0.5,0,1","1,0.5,0,1,0.5,0,0.5,0,1","1","",""
"","html-keyboard-response","23","91758","0.0-23.0","3C6FJU71TRFOR8PC4UTB6R72VVWUYZ","AIC2D8A9UQO8S","3P7RGTLO6EZ76AO3386R8ZK9IWWKAW","","null","<img src=""img/food5.png"" style=""width:200px; border:14px solid green;"">","null","","","","","","","","","",""
"","image-keyboard-response","24","92446","0.0-24.0","3C6FJU71TRFOR8PC4UTB6R72VVWUYZ","AIC2D8A9UQO8S","3P7RGTLO6EZ76AO3386R8ZK9IWWKAW","","688","img/food4.png","75","689","2","1","1","1","1,0.5,0,1,0.5,0,0.5,0,1","1,0.5,0,1,0.5,0,0.5,0,1","1","",""
"","html-keyboard-response","25","92761","0.0-25.0","3C6FJU71TRFOR8PC4UTB6R72VVWUYZ","AIC2D8A9UQO8S","3P7RGTLO6EZ76AO3386R8ZK9IWWKAW","","null","<img src=""img/food4.png"" style=""width:200px; border:14px solid green;"">","null","","","","","","","","","",""
"","image-keyboard-response","26","93571","0.0-26.0","3C6FJU71TRFOR8PC4UTB6R72VVWUYZ","AIC2D8A9UQO8S","3P7RGTLO6EZ76AO3386R8ZK9IWWKAW","","809","img/food3.png","76","809","3","1","3","1","1,0.5,0,1,0.5,0,0.5,0,1","1,0.5,0,1,0.5,0,0.5,0,1","1","",""
"","html-keyboard-response","27","93874","0.0-27.0","3C6FJU71TRFOR8PC4UTB6R72VVWUYZ","AIC2D8A9UQO8S","3P7RGTLO6EZ76AO3386R8ZK9IWWKAW","","null","<img src=""img/food3.png"" style=""width:200px; border:14px solid green;"">","null","","","","","","","","","",""
"","image-keyboard-response","28","94542","0.0-28.0","3C6FJU71TRFOR8PC4UTB6R72VVWUYZ","AIC2D8A9UQO8S","3P7RGTLO6EZ76AO3386R8ZK9IWWKAW","","666","img/food5.png","74","667","1","1","2","1","1,0.5,0,1,0.5,0,0.5,0,1","1,0.5,0,1,0.5,0,0.5,0,1","1","",""
"","html-keyboard-response","29","94847","0.0-29.0","3C6FJU71TRFOR8PC4UTB6R72VVWUYZ","AIC2D8A9UQO8S","3P7RGTLO6EZ76AO3386R8ZK9IWWKAW","","null","<img src=""img/food5.png"" style=""width:200px; border:14px solid green;"">","null","","","","","","","","","",""
"","image-keyboard-response","30","95222","0.0-30.0","3C6FJU71TRFOR8PC4UTB6R72VVWUYZ","AIC2D8A9UQO8S","3P7RGTLO6EZ76AO3386R8ZK9IWWKAW","","375","img/food5.png","74","375","1","1","2","1","1,0.5,0,1,0.5,0,0.5,0,1","1,0.5,0,1,0.5,0,0.5,0,1","1","",""
"","html-keyboard-response","31","95527","0.0-31.0","3C6FJU71TRFOR8PC4UTB6R72VVWUYZ","AIC2D8A9UQO8S","3P7RGTLO6EZ76AO3386R8ZK9IWWKAW","","null","<img src=""img/food5.png"" style=""width:200px; border:14px solid green;"">","null","","","","","","","","","",""
"","image-keyboard-response","32","96238","0.0-32.0","3C6FJU71TRFOR8PC4UTB6R72VVWUYZ","AIC2D8A9UQO8S","3P7RGTLO6EZ76AO3386R8ZK9IWWKAW","","710","img/food4.png","75","710","2","0","1","1","1,0.5,0,1,0.5,0,0.5,0,1","1,0.5,0,1,0.5,0,0.5,0,1","1","",""
"","html-keyboard-response","33","96549","0.0-33.0","3C6FJU71TRFOR8PC4UTB6R72VVWUYZ","AIC2D8A9UQO8S","3P7RGTLO6EZ76AO3386R8ZK9IWWKAW","","null","<img src=""img/food4.png"" style=""width:200px;border:14px solid red;"">","null","","","","","","","","","",""
"","image-keyboard-response","34","97305","0.0-34.0","3C6FJU71TRFOR8PC4UTB6R72VVWUYZ","AIC2D8A9UQO8S","3P7RGTLO6EZ76AO3386R8ZK9IWWKAW","","757","img/food3.png","76","757","3","1","3","1","1,0.5,0,1,0.5,0,0.5,0,1","1,0.5,0,1,0.5,0,0.5,0,1","1","",""
"","html-keyboard-response","35","97621","0.0-35.0","3C6FJU71TRFOR8PC4UTB6R72VVWUYZ","AIC2D8A9UQO8S","3P7RGTLO6EZ76AO3386R8ZK9IWWKAW","","null","<img src=""img/food3.png"" style=""width:200px; border:14px solid green;"">","null","","","","","","","","","",""
"","image-keyboard-response","36","97995","0.0-36.0","3C6FJU71TRFOR8PC4UTB6R72VVWUYZ","AIC2D8A9UQO8S","3P7RGTLO6EZ76AO3386R8ZK9IWWKAW","","374","img/food3.png","76","374","3","1","3","1","1,0.5,0,1,0.5,0,0.5,0,1","1,0.5,0,1,0.5,0,0.5,0,1","1","",""
"","html-keyboard-response","37","98307","0.0-37.0","3C6FJU71TRFOR8PC4UTB6R72VVWUYZ","AIC2D8A9UQO8S","3P7RGTLO6EZ76AO3386R8ZK9IWWKAW","","null","<img src=""img/food3.png"" style=""width:200px; border:14px solid green;"">","null","","","","","","","","","",""
"","image-keyboard-response","38","98906","0.0-38.0","3C6FJU71TRFOR8PC4UTB6R72VVWUYZ","AIC2D8A9UQO8S","3P7RGTLO6EZ76AO3386R8ZK9IWWKAW","","598","img/food4.png","76","598","3","0","1","1","1,0.5,0,1,0.5,0,0.5,0,1","1,0.5,0,1,0.5,0,0.5,0,1","1","",""
"","html-keyboard-response","39","99210","0.0-39.0","3C6FJU71TRFOR8PC4UTB6R72VVWUYZ","AIC2D8A9UQO8S","3P7RGTLO6EZ76AO3386R8ZK9IWWKAW","","null","<img src=""img/food4.png"" style=""width:200px;border:14px solid red;"">","null","","","","","","","","","",""
"","image-keyboard-response","40","99681","0.0-40.0","3C6FJU71TRFOR8PC4UTB6R72VVWUYZ","AIC2D8A9UQO8S","3P7RGTLO6EZ76AO3386R8ZK9IWWKAW","","471","img/food4.png","74","471","1","1","1","1","1,0.5,0,1,0.5,0,0.5,0,1","1,0.5,0,1,0.5,0,0.5,0,1","1","",""
"","html-keyboard-response","41","99988","0.0-41.0","3C6FJU71TRFOR8PC4UTB6R72VVWUYZ","AIC2D8A9UQO8S","3P7RGTLO6EZ76AO3386R8ZK9IWWKAW","","null","<img src=""img/food4.png"" style=""width:200px; border:14px solid green;"">","null","","","","","","","","","",""
"","image-keyboard-response","42","100632","0.0-42.0","3C6FJU71TRFOR8PC4UTB6R72VVWUYZ","AIC2D8A9UQO8S","3P7RGTLO6EZ76AO3386R8ZK9IWWKAW","","643","img/food4.png","74","643","1","1","1","1","1,0.5,0,1,0.5,0,0.5,0,1","1,0.5,0,1,0.5,0,0.5,0,1","1","",""
"","html-keyboard-response","43","100939","0.0-43.0","3C6FJU71TRFOR8PC4UTB6R72VVWUYZ","AIC2D8A9UQO8S","3P7RGTLO6EZ76AO3386R8ZK9IWWKAW","","null","<img src=""img/food4.png"" style=""width:200px; border:14px solid green;"">","null","","","","","","","","","",""
"","image-keyboard-response","44","101587","0.0-44.0","3C6FJU71TRFOR8PC4UTB6R72VVWUYZ","AIC2D8A9UQO8S","3P7RGTLO6EZ76AO3386R8ZK9IWWKAW","","649","img/food4.png","74","649","1","1","1","1","1,0.5,0,1,0.5,0,0.5,0,1","1,0.5,0,1,0.5,0,0.5,0,1","1","",""
"","html-keyboard-response","45","101893","0.0-45.0","3C6FJU71TRFOR8PC4UTB6R72VVWUYZ","AIC2D8A9UQO8S","3P7RGTLO6EZ76AO3386R8ZK9IWWKAW","","null","<img src=""img/food4.png"" style=""width:200px; border:14px solid green;"">","null","","","","","","","","","",""
"","image-keyboard-response","46","102620","0.0-46.0","3C6FJU71TRFOR8PC4UTB6R72VVWUYZ","AIC2D8A9UQO8S","3P7RGTLO6EZ76AO3386R8ZK9IWWKAW","","728","img/food5.png","74","728","1","1","2","1","1,0.5,0,1,0.5,0,0.5,0,1","1,0.5,0,1,0.5,0,0.5,0,1","1","",""
"","html-keyboard-response","47","102945","0.0-47.0","3C6FJU71TRFOR8PC4UTB6R72VVWUYZ","AIC2D8A9UQO8S","3P7RGTLO6EZ76AO3386R8ZK9IWWKAW","","null","<img src=""img/food5.png"" style=""width:200px; border:14px solid green;"">","null","","","","","","","","","",""
"","image-keyboard-response","48","103677","0.0-48.0","3C6FJU71TRFOR8PC4UTB6R72VVWUYZ","AIC2D8A9UQO8S","3P7RGTLO6EZ76AO3386R8ZK9IWWKAW","","732","img/food4.png","74","732","1","1","1","1","1,0.5,0,1,0.5,0,0.5,0,1","1,0.5,0,1,0.5,0,0.5,0,1","1","",""
"","html-keyboard-response","49","103991","0.0-49.0","3C6FJU71TRFOR8PC4UTB6R72VVWUYZ","AIC2D8A9UQO8S","3P7RGTLO6EZ76AO3386R8ZK9IWWKAW","","null","<img src=""img/food4.png"" style=""width:200px; border:14px solid green;"">","null","","","","","","","","","",""
"","image-keyboard-response","50","104822","0.0-50.0","3C6FJU71TRFOR8PC4UTB6R72VVWUYZ","AIC2D8A9UQO8S","3P7RGTLO6EZ76AO3386R8ZK9IWWKAW","","831","img/food3.png","76","831","3","1","3","1","1,0.5,0,1,0.5,0,0.5,0,1","1,0.5,0,1,0.5,0,0.5,0,1","1","",""
"","html-keyboard-response","51","105128","0.0-51.0","3C6FJU71TRFOR8PC4UTB6R72VVWUYZ","AIC2D8A9UQO8S","3P7RGTLO6EZ76AO3386R8ZK9IWWKAW","","null","<img src=""img/food3.png"" style=""width:200px; border:14px solid green;"">","null","","","","","","","","","",""
"","image-keyboard-response","52","105731","0.0-52.0","3C6FJU71TRFOR8PC4UTB6R72VVWUYZ","AIC2D8A9UQO8S","3P7RGTLO6EZ76AO3386R8ZK9IWWKAW","","602","img/food4.png","74","602","1","1","1","1","1,0.5,0,1,0.5,0,0.5,0,1","1,0.5,0,1,0.5,0,0.5,0,1","1","",""
"","html-keyboard-response","53","106044","0.0-53.0","3C6FJU71TRFOR8PC4UTB6R72VVWUYZ","AIC2D8A9UQO8S","3P7RGTLO6EZ76AO3386R8ZK9IWWKAW","","null","<img src=""img/food4.png"" style=""width:200px; border:14px solid green;"">","null","","","","","","","","","",""
"","image-keyboard-response","54","106810","0.0-54.0","3C6FJU71TRFOR8PC4UTB6R72VVWUYZ","AIC2D8A9UQO8S","3P7RGTLO6EZ76AO3386R8ZK9IWWKAW","","764","img/food3.png","76","765","3","1","3","1","1,0.5,0,1,0.5,0,0.5,0,1","1,0.5,0,1,0.5,0,0.5,0,1","1","",""
"","html-keyboard-response","55","107135","0.0-55.0","3C6FJU71TRFOR8PC4UTB6R72VVWUYZ","AIC2D8A9UQO8S","3P7RGTLO6EZ76AO3386R8ZK9IWWKAW","","null","<img src=""img/food3.png"" style=""width:200px; border:14px solid green;"">","null","","","","","","","","","",""
"","image-keyboard-response","56","107638","0.0-56.0","3C6FJU71TRFOR8PC4UTB6R72VVWUYZ","AIC2D8A9UQO8S","3P7RGTLO6EZ76AO3386R8ZK9IWWKAW","","503","img/food3.png","76","503","3","1","3","1","1,0.5,0,1,0.5,0,0.5,0,1","1,0.5,0,1,0.5,0,0.5,0,1","1","",""
"","html-keyboard-response","57","107948","0.0-57.0","3C6FJU71TRFOR8PC4UTB6R72VVWUYZ","AIC2D8A9UQO8S","3P7RGTLO6EZ76AO3386R8ZK9IWWKAW","","null","<img src=""img/food3.png"" style=""width:200px; border:14px solid green;"">","null","","","","","","","","","",""
"","image-keyboard-response","58","108511","0.0-58.0","3C6FJU71TRFOR8PC4UTB6R72VVWUYZ","AIC2D8A9UQO8S","3P7RGTLO6EZ76AO3386R8ZK9IWWKAW","","565","img/food3.png","76","565","3","1","3","1","1,0.5,0,1,0.5,0,0.5,0,1","1,0.5,0,1,0.5,0,0.5,0,1","1","",""
"","html-keyboard-response","59","108827","0.0-59.0","3C6FJU71TRFOR8PC4UTB6R72VVWUYZ","AIC2D8A9UQO8S","3P7RGTLO6EZ76AO3386R8ZK9IWWKAW","","null","<img src=""img/food3.png"" style=""width:200px; border:14px solid green;"">","null","","","","","","","","","",""
"","image-keyboard-response","60","109406","0.0-60.0","3C6FJU71TRFOR8PC4UTB6R72VVWUYZ","AIC2D8A9UQO8S","3P7RGTLO6EZ76AO3386R8ZK9IWWKAW","","579","img/food5.png","74","579","1","1","2","1","1,0.5,0,1,0.5,0,0.5,0,1","1,0.5,0,1,0.5,0,0.5,0,1","1","",""
"","html-keyboard-response","61","109709","0.0-61.0","3C6FJU71TRFOR8PC4UTB6R72VVWUYZ","AIC2D8A9UQO8S","3P7RGTLO6EZ76AO3386R8ZK9IWWKAW","","null","<img src=""img/food5.png"" style=""width:200px; border:14px solid green;"">","null","","","","","","","","","",""
"","image-keyboard-response","62","110213","0.0-62.0","3C6FJU71TRFOR8PC4UTB6R72VVWUYZ","AIC2D8A9UQO8S","3P7RGTLO6EZ76AO3386R8ZK9IWWKAW","","504","img/food4.png","74","504","1","1","1","1","1,0.5,0,1,0.5,0,0.5,0,1","1,0.5,0,1,0.5,0,0.5,0,1","1","",""
"","html-keyboard-response","63","110515","0.0-63.0","3C6FJU71TRFOR8PC4UTB6R72VVWUYZ","AIC2D8A9UQO8S","3P7RGTLO6EZ76AO3386R8ZK9IWWKAW","","null","<img src=""img/food4.png"" style=""width:200px; border:14px solid green;"">","null","","","","","","","","","",""
"","image-keyboard-response","64","111082","0.0-64.0","3C6FJU71TRFOR8PC4UTB6R72VVWUYZ","AIC2D8A9UQO8S","3P7RGTLO6EZ76AO3386R8ZK9IWWKAW","","565","img/food5.png","74","565","1","1","2","1","1,0.5,0,1,0.5,0,0.5,0,1","1,0.5,0,1,0.5,0,0.5,0,1","1","",""
"","html-keyboard-response","65","111414","0.0-65.0","3C6FJU71TRFOR8PC4UTB6R72VVWUYZ","AIC2D8A9UQO8S","3P7RGTLO6EZ76AO3386R8ZK9IWWKAW","","null","<img src=""img/food5.png"" style=""width:200px; border:14px solid green;"">","null","","","","","","","","","",""
"","image-keyboard-response","66","111884","0.0-66.0","3C6FJU71TRFOR8PC4UTB6R72VVWUYZ","AIC2D8A9UQO8S","3P7RGTLO6EZ76AO3386R8ZK9IWWKAW","","469","img/food5.png","74","469","1","1","2","1","1,0.5,0,1,0.5,0,0.5,0,1","1,0.5,0,1,0.5,0,0.5,0,1","1","",""
"","html-keyboard-response","67","112189","0.0-67.0","3C6FJU71TRFOR8PC4UTB6R72VVWUYZ","AIC2D8A9UQO8S","3P7RGTLO6EZ76AO3386R8ZK9IWWKAW","","null","<img src=""img/food5.png"" style=""width:200px; border:14px solid green;"">","null","","","","","","","","","",""
"","image-keyboard-response","68","112875","0.0-68.0","3C6FJU71TRFOR8PC4UTB6R72VVWUYZ","AIC2D8A9UQO8S","3P7RGTLO6EZ76AO3386R8ZK9IWWKAW","","686","img/food3.png","76","687","3","1","3","1","1,0.5,0,1,0.5,0,0.5,0,1","1,0.5,0,1,0.5,0,0.5,0,1","1","",""
"","html-keyboard-response","69","113191","0.0-69.0","3C6FJU71TRFOR8PC4UTB6R72VVWUYZ","AIC2D8A9UQO8S","3P7RGTLO6EZ76AO3386R8ZK9IWWKAW","","null","<img src=""img/food3.png"" style=""width:200px; border:14px solid green;"">","null","","","","","","","","","",""
"","image-keyboard-response","70","113591","0.0-70.0","3C6FJU71TRFOR8PC4UTB6R72VVWUYZ","AIC2D8A9UQO8S","3P7RGTLO6EZ76AO3386R8ZK9IWWKAW","","399","img/food3.png","76","399","3","1","3","1","1,0.5,0,1,0.5,0,0.5,0,1","1,0.5,0,1,0.5,0,0.5,0,1","1","",""
"","html-keyboard-response","71","113897","0.0-71.0","3C6FJU71TRFOR8PC4UTB6R72VVWUYZ","AIC2D8A9UQO8S","3P7RGTLO6EZ76AO3386R8ZK9IWWKAW","","null","<img src=""img/food3.png"" style=""width:200px; border:14px solid green;"">","null","","","","","","","","","",""
"","image-keyboard-response","72","114429","0.0-72.0","3C6FJU71TRFOR8PC4UTB6R72VVWUYZ","AIC2D8A9UQO8S","3P7RGTLO6EZ76AO3386R8ZK9IWWKAW","","531","img/food5.png","74","531","1","1","2","1","1,0.5,0,1,0.5,0,0.5,0,1","1,0.5,0,1,0.5,0,0.5,0,1","1","",""
"","html-keyboard-response","73","114735","0.0-73.0","3C6FJU71TRFOR8PC4UTB6R72VVWUYZ","AIC2D8A9UQO8S","3P7RGTLO6EZ76AO3386R8ZK9IWWKAW","","null","<img src=""img/food5.png"" style=""width:200px; border:14px solid green;"">","null","","","","","","","","","",""
"","image-keyboard-response","74","115138","0.0-74.0","3C6FJU71TRFOR8PC4UTB6R72VVWUYZ","AIC2D8A9UQO8S","3P7RGTLO6EZ76AO3386R8ZK9IWWKAW","","404","img/food5.png","74","404","1","1","2","1","1,0.5,0,1,0.5,0,0.5,0,1","1,0.5,0,1,0.5,0,0.5,0,1","1","",""
"","html-keyboard-response","75","115450","0.0-75.0","3C6FJU71TRFOR8PC4UTB6R72VVWUYZ","AIC2D8A9UQO8S","3P7RGTLO6EZ76AO3386R8ZK9IWWKAW","","null","<img src=""img/food5.png"" style=""width:200px; border:14px solid green;"">","null","","","","","","","","","",""
"","image-keyboard-response","76","116223","0.0-76.0","3C6FJU71TRFOR8PC4UTB6R72VVWUYZ","AIC2D8A9UQO8S","3P7RGTLO6EZ76AO3386R8ZK9IWWKAW","","772","img/food3.png","76","773","3","1","3","1","1,0.5,0,1,0.5,0,0.5,0,1","1,0.5,0,1,0.5,0,0.5,0,1","1","",""
"","html-keyboard-response","77","116536","0.0-77.0","3C6FJU71TRFOR8PC4UTB6R72VVWUYZ","AIC2D8A9UQO8S","3P7RGTLO6EZ76AO3386R8ZK9IWWKAW","","null","<img src=""img/food3.png"" style=""width:200px; border:14px solid green;"">","null","","","","","","","","","",""
"","image-keyboard-response","78","117117","0.0-78.0","3C6FJU71TRFOR8PC4UTB6R72VVWUYZ","AIC2D8A9UQO8S","3P7RGTLO6EZ76AO3386R8ZK9IWWKAW","","581","img/food5.png","74","581","1","1","2","1","1,0.5,0,1,0.5,0,0.5,0,1","1,0.5,0,1,0.5,0,0.5,0,1","1","",""
"","html-keyboard-response","79","117430","0.0-79.0","3C6FJU71TRFOR8PC4UTB6R72VVWUYZ","AIC2D8A9UQO8S","3P7RGTLO6EZ76AO3386R8ZK9IWWKAW","","null","<img src=""img/food5.png"" style=""width:200px; border:14px solid green;"">","null","","","","","","","","","",""
"","image-keyboard-response","80","118215","0.0-80.0","3C6FJU71TRFOR8PC4UTB6R72VVWUYZ","AIC2D8A9UQO8S","3P7RGTLO6EZ76AO3386R8ZK9IWWKAW","","784","img/food3.png","76","785","3","1","3","1","1,0.5,0,1,0.5,0,0.5,0,1","1,0.5,0,1,0.5,0,0.5,0,1","1","",""
"","html-keyboard-response","81","118517","0.0-81.0","3C6FJU71TRFOR8PC4UTB6R72VVWUYZ","AIC2D8A9UQO8S","3P7RGTLO6EZ76AO3386R8ZK9IWWKAW","","null","<img src=""img/food3.png"" style=""width:200px; border:14px solid green;"">","null","","","","","","","","","",""
"","image-keyboard-response","82","119069","0.0-82.0","3C6FJU71TRFOR8PC4UTB6R72VVWUYZ","AIC2D8A9UQO8S","3P7RGTLO6EZ76AO3386R8ZK9IWWKAW","","551","img/food4.png","74","551","1","1","1","1","1,0.5,0,1,0.5,0,0.5,0,1","1,0.5,0,1,0.5,0,0.5,0,1","1","",""
"","html-keyboard-response","83","119380","0.0-83.0","3C6FJU71TRFOR8PC4UTB6R72VVWUYZ","AIC2D8A9UQO8S","3P7RGTLO6EZ76AO3386R8ZK9IWWKAW","","null","<img src=""img/food4.png"" style=""width:200px; border:14px solid green;"">","null","","","","","","","","","",""
"","image-keyboard-response","84","119706","0.0-84.0","3C6FJU71TRFOR8PC4UTB6R72VVWUYZ","AIC2D8A9UQO8S","3P7RGTLO6EZ76AO3386R8ZK9IWWKAW","","326","img/food4.png","74","326","1","1","1","1","1,0.5,0,1,0.5,0,0.5,0,1","1,0.5,0,1,0.5,0,0.5,0,1","1","",""
"","html-keyboard-response","85","120016","0.0-85.0","3C6FJU71TRFOR8PC4UTB6R72VVWUYZ","AIC2D8A9UQO8S","3P7RGTLO6EZ76AO3386R8ZK9IWWKAW","","null","<img src=""img/food4.png"" style=""width:200px; border:14px solid green;"">","null","","","","","","","","","",""
"","image-keyboard-response","86","120489","0.0-86.0","3C6FJU71TRFOR8PC4UTB6R72VVWUYZ","AIC2D8A9UQO8S","3P7RGTLO6EZ76AO3386R8ZK9IWWKAW","","473","img/food4.png","74","473","1","1","1","1","1,0.5,0,1,0.5,0,0.5,0,1","1,0.5,0,1,0.5,0,0.5,0,1","1","",""
"","html-keyboard-response","87","120796","0.0-87.0","3C6FJU71TRFOR8PC4UTB6R72VVWUYZ","AIC2D8A9UQO8S","3P7RGTLO6EZ76AO3386R8ZK9IWWKAW","","null","<img src=""img/food4.png"" style=""width:200px; border:14px solid green;"">","null","","","","","","","","","",""
"","image-keyboard-response","88","121490","0.0-88.0","3C6FJU71TRFOR8PC4UTB6R72VVWUYZ","AIC2D8A9UQO8S","3P7RGTLO6EZ76AO3386R8ZK9IWWKAW","","694","img/food5.png","74","694","1","1","2","1","1,0.5,0,1,0.5,0,0.5,0,1","1,0.5,0,1,0.5,0,0.5,0,1","1","",""
"","html-keyboard-response","89","121804","0.0-89.0","3C6FJU71TRFOR8PC4UTB6R72VVWUYZ","AIC2D8A9UQO8S","3P7RGTLO6EZ76AO3386R8ZK9IWWKAW","","null","<img src=""img/food5.png"" style=""width:200px; border:14px solid green;"">","null","","","","","","","","","",""
"","image-keyboard-response","90","122548","0.0-90.0","3C6FJU71TRFOR8PC4UTB6R72VVWUYZ","AIC2D8A9UQO8S","3P7RGTLO6EZ76AO3386R8ZK9IWWKAW","","743","img/food4.png","74","743","1","1","1","1","1,0.5,0,1,0.5,0,0.5,0,1","1,0.5,0,1,0.5,0,0.5,0,1","1","",""
"","html-keyboard-response","91","122850","0.0-91.0","3C6FJU71TRFOR8PC4UTB6R72VVWUYZ","AIC2D8A9UQO8S","3P7RGTLO6EZ76AO3386R8ZK9IWWKAW","","null","<img src=""img/food4.png"" style=""width:200px; border:14px solid green;"">","null","","","","","","","","","",""
"","image-keyboard-response","92","123278","0.0-92.0","3C6FJU71TRFOR8PC4UTB6R72VVWUYZ","AIC2D8A9UQO8S","3P7RGTLO6EZ76AO3386R8ZK9IWWKAW","","428","img/food4.png","74","428","1","1","1","1","1,0.5,0,1,0.5,0,0.5,0,1","1,0.5,0,1,0.5,0,0.5,0,1","1","",""
"","html-keyboard-response","93","123593","0.0-93.0","3C6FJU71TRFOR8PC4UTB6R72VVWUYZ","AIC2D8A9UQO8S","3P7RGTLO6EZ76AO3386R8ZK9IWWKAW","","null","<img src=""img/food4.png"" style=""width:200px; border:14px solid green;"">","null","","","","","","","","","",""
"","image-keyboard-response","94","124315","0.0-94.0","3C6FJU71TRFOR8PC4UTB6R72VVWUYZ","AIC2D8A9UQO8S","3P7RGTLO6EZ76AO3386R8ZK9IWWKAW","","722","img/food5.png","74","722","1","1","2","1","1,0.5,0,1,0.5,0,0.5,0,1","1,0.5,0,1,0.5,0,0.5,0,1","1","",""
"","html-keyboard-response","95","124626","0.0-95.0","3C6FJU71TRFOR8PC4UTB6R72VVWUYZ","AIC2D8A9UQO8S","3P7RGTLO6EZ76AO3386R8ZK9IWWKAW","","null","<img src=""img/food5.png"" style=""width:200px; border:14px solid green;"">","null","","","","","","","","","",""
"","image-keyboard-response","96","125032","0.0-96.0","3C6FJU71TRFOR8PC4UTB6R72VVWUYZ","AIC2D8A9UQO8S","3P7RGTLO6EZ76AO3386R8ZK9IWWKAW","","405","img/food5.png","74","405","1","1","2","1","1,0.5,0,1,0.5,0,0.5,0,1","1,0.5,0,1,0.5,0,0.5,0,1","1","",""
"","html-keyboard-response","97","125346","0.0-97.0","3C6FJU71TRFOR8PC4UTB6R72VVWUYZ","AIC2D8A9UQO8S","3P7RGTLO6EZ76AO3386R8ZK9IWWKAW","","null","<img src=""img/food5.png"" style=""width:200px; border:14px solid green;"">","null","","","","","","","","","",""
"","image-keyboard-response","98","125731","0.0-98.0","3C6FJU71TRFOR8PC4UTB6R72VVWUYZ","AIC2D8A9UQO8S","3P7RGTLO6EZ76AO3386R8ZK9IWWKAW","","386","img/food5.png","74","386","1","1","2","1","1,0.5,0,1,0.5,0,0.5,0,1","1,0.5,0,1,0.5,0,0.5,0,1","1","",""
"","html-keyboard-response","99","126042","0.0-99.0","3C6FJU71TRFOR8PC4UTB6R72VVWUYZ","AIC2D8A9UQO8S","3P7RGTLO6EZ76AO3386R8ZK9IWWKAW","","null","<img src=""img/food5.png"" style=""width:200px; border:14px solid green;"">","null","","","","","","","","","",""
"","image-keyboard-response","100","126840","0.0-100.0","3C6FJU71TRFOR8PC4UTB6R72VVWUYZ","AIC2D8A9UQO8S","3P7RGTLO6EZ76AO3386R8ZK9IWWKAW","","799","img/food4.png","74","799","1","1","1","1","1,0.5,0,1,0.5,0,0.5,0,1","1,0.5,0,1,0.5,0,0.5,0,1","1","",""
"","html-keyboard-response","101","127148","0.0-101.0","3C6FJU71TRFOR8PC4UTB6R72VVWUYZ","AIC2D8A9UQO8S","3P7RGTLO6EZ76AO3386R8ZK9IWWKAW","","null","<img src=""img/food4.png"" style=""width:200px; border:14px solid green;"">","null","","","","","","","","","",""
"","image-keyboard-response","102","127724","0.0-102.0","3C6FJU71TRFOR8PC4UTB6R72VVWUYZ","AIC2D8A9UQO8S","3P7RGTLO6EZ76AO3386R8ZK9IWWKAW","","575","img/food3.png","76","575","3","1","3","1","1,0.5,0,1,0.5,0,0.5,0,1","1,0.5,0,1,0.5,0,0.5,0,1","1","",""
"","html-keyboard-response","103","128032","0.0-103.0","3C6FJU71TRFOR8PC4UTB6R72VVWUYZ","AIC2D8A9UQO8S","3P7RGTLO6EZ76AO3386R8ZK9IWWKAW","","null","<img src=""img/food3.png"" style=""width:200px; border:14px solid green;"">","null","","","","","","","","","",""
"","image-keyboard-response","104","128556","0.0-104.0","3C6FJU71TRFOR8PC4UTB6R72VVWUYZ","AIC2D8A9UQO8S","3P7RGTLO6EZ76AO3386R8ZK9IWWKAW","","525","img/food5.png","74","525","1","1","2","1","1,0.5,0,1,0.5,0,0.5,0,1","1,0.5,0,1,0.5,0,0.5,0,1","1","",""
"","html-keyboard-response","105","128869","0.0-105.0","3C6FJU71TRFOR8PC4UTB6R72VVWUYZ","AIC2D8A9UQO8S","3P7RGTLO6EZ76AO3386R8ZK9IWWKAW","","null","<img src=""img/food5.png"" style=""width:200px; border:14px solid green;"">","null","","","","","","","","","",""
"","image-keyboard-response","106","129313","0.0-106.0","3C6FJU71TRFOR8PC4UTB6R72VVWUYZ","AIC2D8A9UQO8S","3P7RGTLO6EZ76AO3386R8ZK9IWWKAW","","445","img/food3.png","74","446","1","1","3","1","1,0.5,0,1,0.5,0,0.5,0,1","1,0.5,0,1,0.5,0,0.5,0,1","1","",""
"","html-keyboard-response","107","129627","0.0-107.0","3C6FJU71TRFOR8PC4UTB6R72VVWUYZ","AIC2D8A9UQO8S","3P7RGTLO6EZ76AO3386R8ZK9IWWKAW","","null","<img src=""img/food3.png"" style=""width:200px; border:14px solid green;"">","null","","","","","","","","","",""
"","image-keyboard-response","108","130575","0.0-108.0","3C6FJU71TRFOR8PC4UTB6R72VVWUYZ","AIC2D8A9UQO8S","3P7RGTLO6EZ76AO3386R8ZK9IWWKAW","","949","img/food5.png","74","949","1","1","2","1","1,0.5,0,1,0.5,0,0.5,0,1","1,0.5,0,1,0.5,0,0.5,0,1","1","",""
"","html-keyboard-response","109","130879","0.0-109.0","3C6FJU71TRFOR8PC4UTB6R72VVWUYZ","AIC2D8A9UQO8S","3P7RGTLO6EZ76AO3386R8ZK9IWWKAW","","null","<img src=""img/food5.png"" style=""width:200px; border:14px solid green;"">","null","","","","","","","","","",""
"","image-keyboard-response","110","131326","0.0-110.0","3C6FJU71TRFOR8PC4UTB6R72VVWUYZ","AIC2D8A9UQO8S","3P7RGTLO6EZ76AO3386R8ZK9IWWKAW","","447","img/food3.png","76","447","3","1","3","1","1,0.5,0,1,0.5,0,0.5,0,1","1,0.5,0,1,0.5,0,0.5,0,1","1","",""
"","html-keyboard-response","111","131643","0.0-111.0","3C6FJU71TRFOR8PC4UTB6R72VVWUYZ","AIC2D8A9UQO8S","3P7RGTLO6EZ76AO3386R8ZK9IWWKAW","","null","<img src=""img/food3.png"" style=""width:200px; border:14px solid green;"">","null","","","","","","","","","",""
"","image-keyboard-response","112","132088","0.0-112.0","3C6FJU71TRFOR8PC4UTB6R72VVWUYZ","AIC2D8A9UQO8S","3P7RGTLO6EZ76AO3386R8ZK9IWWKAW","","444","img/food3.png","76","445","3","1","3","1","1,0.5,0,1,0.5,0,0.5,0,1","1,0.5,0,1,0.5,0,0.5,0,1","1","",""
"","html-keyboard-response","113","132400","0.0-113.0","3C6FJU71TRFOR8PC4UTB6R72VVWUYZ","AIC2D8A9UQO8S","3P7RGTLO6EZ76AO3386R8ZK9IWWKAW","","null","<img src=""img/food3.png"" style=""width:200px; border:14px solid green;"">","null","","","","","","","","","",""
"","image-keyboard-response","114","133125","0.0-114.0","3C6FJU71TRFOR8PC4UTB6R72VVWUYZ","AIC2D8A9UQO8S","3P7RGTLO6EZ76AO3386R8ZK9IWWKAW","","724","img/food5.png","74","725","1","1","2","1","1,0.5,0,1,0.5,0,0.5,0,1","1,0.5,0,1,0.5,0,0.5,0,1","1","",""
"","html-keyboard-response","115","133432","0.0-115.0","3C6FJU71TRFOR8PC4UTB6R72VVWUYZ","AIC2D8A9UQO8S","3P7RGTLO6EZ76AO3386R8ZK9IWWKAW","","null","<img src=""img/food5.png"" style=""width:200px; border:14px solid green;"">","null","","","","","","","","","",""
"","image-keyboard-response","116","133829","0.0-116.0","3C6FJU71TRFOR8PC4UTB6R72VVWUYZ","AIC2D8A9UQO8S","3P7RGTLO6EZ76AO3386R8ZK9IWWKAW","","397","img/food5.png","74","397","1","1","2","1","1,0.5,0,1,0.5,0,0.5,0,1","1,0.5,0,1,0.5,0,0.5,0,1","1","",""
"","html-keyboard-response","117","134137","0.0-117.0","3C6FJU71TRFOR8PC4UTB6R72VVWUYZ","AIC2D8A9UQO8S","3P7RGTLO6EZ76AO3386R8ZK9IWWKAW","","null","<img src=""img/food5.png"" style=""width:200px; border:14px solid green;"">","null","","","","","","","","","",""
"","image-keyboard-response","118","134745","0.0-118.0","3C6FJU71TRFOR8PC4UTB6R72VVWUYZ","AIC2D8A9UQO8S","3P7RGTLO6EZ76AO3386R8ZK9IWWKAW","","606","img/food4.png","74","606","1","1","1","1","1,0.5,0,1,0.5,0,0.5,0,1","1,0.5,0,1,0.5,0,0.5,0,1","1","",""
"","html-keyboard-response","119","135056","0.0-119.0","3C6FJU71TRFOR8PC4UTB6R72VVWUYZ","AIC2D8A9UQO8S","3P7RGTLO6EZ76AO3386R8ZK9IWWKAW","","null","<img src=""img/food4.png"" style=""width:200px; border:14px solid green;"">","null","","","","","","","","","",""
"","image-keyboard-response","120","135900","0.0-120.0","3C6FJU71TRFOR8PC4UTB6R72VVWUYZ","AIC2D8A9UQO8S","3P7RGTLO6EZ76AO3386R8ZK9IWWKAW","","843","img/food3.png","76","844","3","1","3","1","1,0.5,0,1,0.5,0,0.5,0,1","1,0.5,0,1,0.5,0,0.5,0,1","1","",""
"","html-keyboard-response","121","136208","0.0-121.0","3C6FJU71TRFOR8PC4UTB6R72VVWUYZ","AIC2D8A9UQO8S","3P7RGTLO6EZ76AO3386R8ZK9IWWKAW","","null","<img src=""img/food3.png"" style=""width:200px; border:14px solid green;"">","null","","","","","","","","","",""
"","image-keyboard-response","122","136896","0.0-122.0","3C6FJU71TRFOR8PC4UTB6R72VVWUYZ","AIC2D8A9UQO8S","3P7RGTLO6EZ76AO3386R8ZK9IWWKAW","","687","img/food4.png","74","687","1","1","1","1","1,0.5,0,1,0.5,0,0.5,0,1","1,0.5,0,1,0.5,0,0.5,0,1","1","",""
"","html-keyboard-response","123","137202","0.0-123.0","3C6FJU71TRFOR8PC4UTB6R72VVWUYZ","AIC2D8A9UQO8S","3P7RGTLO6EZ76AO3386R8ZK9IWWKAW","","null","<img src=""img/food4.png"" style=""width:200px; border:14px solid green;"">","null","","","","","","","","","",""
"","image-keyboard-response","124","137856","0.0-124.0","3C6FJU71TRFOR8PC4UTB6R72VVWUYZ","AIC2D8A9UQO8S","3P7RGTLO6EZ76AO3386R8ZK9IWWKAW","","653","img/food5.png","74","654","1","1","2","1","1,0.5,0,1,0.5,0,0.5,0,1","1,0.5,0,1,0.5,0,0.5,0,1","1","",""
"","html-keyboard-response","125","138165","0.0-125.0","3C6FJU71TRFOR8PC4UTB6R72VVWUYZ","AIC2D8A9UQO8S","3P7RGTLO6EZ76AO3386R8ZK9IWWKAW","","null","<img src=""img/food5.png"" style=""width:200px; border:14px solid green;"">","null","","","","","","","","","",""
"","image-keyboard-response","126","138634","0.0-126.0","3C6FJU71TRFOR8PC4UTB6R72VVWUYZ","AIC2D8A9UQO8S","3P7RGTLO6EZ76AO3386R8ZK9IWWKAW","","468","img/food3.png","74","468","1","0","3","1","1,0.5,0,1,0.5,0,0.5,0,1","1,0.5,0,1,0.5,0,0.5,0,1","1","",""
"","html-keyboard-response","127","138949","0.0-127.0","3C6FJU71TRFOR8PC4UTB6R72VVWUYZ","AIC2D8A9UQO8S","3P7RGTLO6EZ76AO3386R8ZK9IWWKAW","","null","<img src=""img/food3.png"" style=""width:200px;border:14px solid red;"">","null","","","","","","","","","",""
"","image-keyboard-response","128","139235","0.0-128.0","3C6FJU71TRFOR8PC4UTB6R72VVWUYZ","AIC2D8A9UQO8S","3P7RGTLO6EZ76AO3386R8ZK9IWWKAW","","285","img/food4.png","76","285","3","0","1","1","1,0.5,0,1,0.5,0,0.5,0,1","1,0.5,0,1,0.5,0,0.5,0,1","1","",""
"","html-keyboard-response","129","139544","0.0-129.0","3C6FJU71TRFOR8PC4UTB6R72VVWUYZ","AIC2D8A9UQO8S","3P7RGTLO6EZ76AO3386R8ZK9IWWKAW","","null","<img src=""img/food4.png"" style=""width:200px;border:14px solid red;"">","null","","","","","","","","","",""
"","image-keyboard-response","130","140509","0.0-130.0","3C6FJU71TRFOR8PC4UTB6R72VVWUYZ","AIC2D8A9UQO8S","3P7RGTLO6EZ76AO3386R8ZK9IWWKAW","","965","img/food3.png","76","965","3","1","3","1","1,0.5,0,1,0.5,0,0.5,0,1","1,0.5,0,1,0.5,0,0.5,0,1","1","",""
"","html-keyboard-response","131","140811","0.0-131.0","3C6FJU71TRFOR8PC4UTB6R72VVWUYZ","AIC2D8A9UQO8S","3P7RGTLO6EZ76AO3386R8ZK9IWWKAW","","null","<img src=""img/food3.png"" style=""width:200px; border:14px solid green;"">","null","","","","","","","","","",""
"","image-keyboard-response","132","141158","0.0-132.0","3C6FJU71TRFOR8PC4UTB6R72VVWUYZ","AIC2D8A9UQO8S","3P7RGTLO6EZ76AO3386R8ZK9IWWKAW","","348","img/food3.png","76","348","3","1","3","1","1,0.5,0,1,0.5,0,0.5,0,1","1,0.5,0,1,0.5,0,0.5,0,1","1","",""
"","html-keyboard-response","133","141465","0.0-133.0","3C6FJU71TRFOR8PC4UTB6R72VVWUYZ","AIC2D8A9UQO8S","3P7RGTLO6EZ76AO3386R8ZK9IWWKAW","","null","<img src=""img/food3.png"" style=""width:200px; border:14px solid green;"">","null","","","","","","","","","",""
"","image-keyboard-response","134","142026","0.0-134.0","3C6FJU71TRFOR8PC4UTB6R72VVWUYZ","AIC2D8A9UQO8S","3P7RGTLO6EZ76AO3386R8ZK9IWWKAW","","561","img/food4.png","74","561","1","1","1","1","1,0.5,0,1,0.5,0,0.5,0,1","1,0.5,0,1,0.5,0,0.5,0,1","1","",""
"","html-keyboard-response","135","142336","0.0-135.0","3C6FJU71TRFOR8PC4UTB6R72VVWUYZ","AIC2D8A9UQO8S","3P7RGTLO6EZ76AO3386R8ZK9IWWKAW","","null","<img src=""img/food4.png"" style=""width:200px; border:14px solid green;"">","null","","","","","","","","","",""
"","image-keyboard-response","136","142946","0.0-136.0","3C6FJU71TRFOR8PC4UTB6R72VVWUYZ","AIC2D8A9UQO8S","3P7RGTLO6EZ76AO3386R8ZK9IWWKAW","","609","img/food5.png","74","609","1","1","2","1","1,0.5,0,1,0.5,0,0.5,0,1","1,0.5,0,1,0.5,0,0.5,0,1","1","",""
"","html-keyboard-response","137","143262","0.0-137.0","3C6FJU71TRFOR8PC4UTB6R72VVWUYZ","AIC2D8A9UQO8S","3P7RGTLO6EZ76AO3386R8ZK9IWWKAW","","null","<img src=""img/food5.png"" style=""width:200px; border:14px solid green;"">","null","","","","","","","","","",""
"","image-keyboard-response","138","144004","0.0-138.0","3C6FJU71TRFOR8PC4UTB6R72VVWUYZ","AIC2D8A9UQO8S","3P7RGTLO6EZ76AO3386R8ZK9IWWKAW","","743","img/food3.png","76","743","3","1","3","1","1,0.5,0,1,0.5,0,0.5,0,1","1,0.5,0,1,0.5,0,0.5,0,1","1","",""
"","html-keyboard-response","139","144311","0.0-139.0","3C6FJU71TRFOR8PC4UTB6R72VVWUYZ","AIC2D8A9UQO8S","3P7RGTLO6EZ76AO3386R8ZK9IWWKAW","","null","<img src=""img/food3.png"" style=""width:200px; border:14px solid green;"">","null","","","","","","","","","",""
"","image-keyboard-response","140","144954","0.0-140.0","3C6FJU71TRFOR8PC4UTB6R72VVWUYZ","AIC2D8A9UQO8S","3P7RGTLO6EZ76AO3386R8ZK9IWWKAW","","643","img/food4.png","74","644","1","1","1","1","1,0.5,0,1,0.5,0,0.5,0,1","1,0.5,0,1,0.5,0,0.5,0,1","1","",""
"","html-keyboard-response","141","145269","0.0-141.0","3C6FJU71TRFOR8PC4UTB6R72VVWUYZ","AIC2D8A9UQO8S","3P7RGTLO6EZ76AO3386R8ZK9IWWKAW","","null","<img src=""img/food4.png"" style=""width:200px; border:14px solid green;"">","null","","","","","","","","","",""
"","image-keyboard-response","142","146288","0.0-142.0","3C6FJU71TRFOR8PC4UTB6R72VVWUYZ","AIC2D8A9UQO8S","3P7RGTLO6EZ76AO3386R8ZK9IWWKAW","","1020","img/food3.png","76","1020","3","1","3","1","1,0.5,0,1,0.5,0,0.5,0,1","1,0.5,0,1,0.5,0,0.5,0,1","1","",""
"","html-keyboard-response","143","146601","0.0-143.0","3C6FJU71TRFOR8PC4UTB6R72VVWUYZ","AIC2D8A9UQO8S","3P7RGTLO6EZ76AO3386R8ZK9IWWKAW","","null","<img src=""img/food3.png"" style=""width:200px; border:14px solid green;"">","null","","","","","","","","","",""
"","image-keyboard-response","144","147426","0.0-144.0","3C6FJU71TRFOR8PC4UTB6R72VVWUYZ","AIC2D8A9UQO8S","3P7RGTLO6EZ76AO3386R8ZK9IWWKAW","","825","img/food4.png","74","825","1","1","1","1","1,0.5,0,1,0.5,0,0.5,0,1","1,0.5,0,1,0.5,0,0.5,0,1","1","",""
"","html-keyboard-response","145","147732","0.0-145.0","3C6FJU71TRFOR8PC4UTB6R72VVWUYZ","AIC2D8A9UQO8S","3P7RGTLO6EZ76AO3386R8ZK9IWWKAW","","null","<img src=""img/food4.png"" style=""width:200px; border:14px solid green;"">","null","","","","","","","","","",""
"","image-keyboard-response","146","148172","0.0-146.0","3C6FJU71TRFOR8PC4UTB6R72VVWUYZ","AIC2D8A9UQO8S","3P7RGTLO6EZ76AO3386R8ZK9IWWKAW","","439","img/food4.png","74","439","1","1","1","1","1,0.5,0,1,0.5,0,0.5,0,1","1,0.5,0,1,0.5,0,0.5,0,1","1","",""
"","html-keyboard-response","147","148476","0.0-147.0","3C6FJU71TRFOR8PC4UTB6R72VVWUYZ","AIC2D8A9UQO8S","3P7RGTLO6EZ76AO3386R8ZK9IWWKAW","","null","<img src=""img/food4.png"" style=""width:200px; border:14px solid green;"">","null","","","","","","","","","",""
"","image-keyboard-response","148","149144","0.0-148.0","3C6FJU71TRFOR8PC4UTB6R72VVWUYZ","AIC2D8A9UQO8S","3P7RGTLO6EZ76AO3386R8ZK9IWWKAW","","667","img/food5.png","74","667","1","1","2","1","1,0.5,0,1,0.5,0,0.5,0,1","1,0.5,0,1,0.5,0,0.5,0,1","1","",""
"","html-keyboard-response","149","149458","0.0-149.0","3C6FJU71TRFOR8PC4UTB6R72VVWUYZ","AIC2D8A9UQO8S","3P7RGTLO6EZ76AO3386R8ZK9IWWKAW","","null","<img src=""img/food5.png"" style=""width:200px; border:14px solid green;"">","null","","","","","","","","","",""
"","image-keyboard-response","150","149838","0.0-150.0","3C6FJU71TRFOR8PC4UTB6R72VVWUYZ","AIC2D8A9UQO8S","3P7RGTLO6EZ76AO3386R8ZK9IWWKAW","","381","img/food5.png","74","381","1","1","2","1","1,0.5,0,1,0.5,0,0.5,0,1","1,0.5,0,1,0.5,0,0.5,0,1","1","",""
"","html-keyboard-response","151","150141","0.0-151.0","3C6FJU71TRFOR8PC4UTB6R72VVWUYZ","AIC2D8A9UQO8S","3P7RGTLO6EZ76AO3386R8ZK9IWWKAW","","null","<img src=""img/food5.png"" style=""width:200px; border:14px solid green;"">","null","","","","","","","","","",""
"","image-keyboard-response","152","150814","0.0-152.0","3C6FJU71TRFOR8PC4UTB6R72VVWUYZ","AIC2D8A9UQO8S","3P7RGTLO6EZ76AO3386R8ZK9IWWKAW","","673","img/food3.png","76","673","3","1","3","1","1,0.5,0,1,0.5,0,0.5,0,1","1,0.5,0,1,0.5,0,0.5,0,1","1","",""
"","html-keyboard-response","153","151126","0.0-153.0","3C6FJU71TRFOR8PC4UTB6R72VVWUYZ","AIC2D8A9UQO8S","3P7RGTLO6EZ76AO3386R8ZK9IWWKAW","","null","<img src=""img/food3.png"" style=""width:200px; border:14px solid green;"">","null","","","","","","","","","",""
"","image-keyboard-response","154","151851","0.0-154.0","3C6FJU71TRFOR8PC4UTB6R72VVWUYZ","AIC2D8A9UQO8S","3P7RGTLO6EZ76AO3386R8ZK9IWWKAW","","726","img/food5.png","74","726","1","1","2","1","1,0.5,0,1,0.5,0,0.5,0,1","1,0.5,0,1,0.5,0,0.5,0,1","1","",""
"","html-keyboard-response","155","152163","0.0-155.0","3C6FJU71TRFOR8PC4UTB6R72VVWUYZ","AIC2D8A9UQO8S","3P7RGTLO6EZ76AO3386R8ZK9IWWKAW","","null","<img src=""img/food5.png"" style=""width:200px; border:14px solid green;"">","null","","","","","","","","","",""
"","image-keyboard-response","156","153302","0.0-156.0","3C6FJU71TRFOR8PC4UTB6R72VVWUYZ","AIC2D8A9UQO8S","3P7RGTLO6EZ76AO3386R8ZK9IWWKAW","","1139","img/food3.png","76","1139","3","1","3","1","1,0.5,0,1,0.5,0,0.5,0,1","1,0.5,0,1,0.5,0,0.5,0,1","1","",""
"","html-keyboard-response","157","153615","0.0-157.0","3C6FJU71TRFOR8PC4UTB6R72VVWUYZ","AIC2D8A9UQO8S","3P7RGTLO6EZ76AO3386R8ZK9IWWKAW","","null","<img src=""img/food3.png"" style=""width:200px; border:14px solid green;"">","null","","","","","","","","","",""
"","image-keyboard-response","158","154222","0.0-158.0","3C6FJU71TRFOR8PC4UTB6R72VVWUYZ","AIC2D8A9UQO8S","3P7RGTLO6EZ76AO3386R8ZK9IWWKAW","","608","img/food4.png","74","608","1","1","1","1","1,0.5,0,1,0.5,0,0.5,0,1","1,0.5,0,1,0.5,0,0.5,0,1","1","",""
"","html-keyboard-response","159","154529","0.0-159.0","3C6FJU71TRFOR8PC4UTB6R72VVWUYZ","AIC2D8A9UQO8S","3P7RGTLO6EZ76AO3386R8ZK9IWWKAW","","null","<img src=""img/food4.png"" style=""width:200px; border:14px solid green;"">","null","","","","","","","","","",""
"","image-keyboard-response","160","155383","0.0-160.0","3C6FJU71TRFOR8PC4UTB6R72VVWUYZ","AIC2D8A9UQO8S","3P7RGTLO6EZ76AO3386R8ZK9IWWKAW","","853","img/food3.png","76","854","3","1","3","1","1,0.5,0,1,0.5,0,0.5,0,1","1,0.5,0,1,0.5,0,0.5,0,1","1","",""
"","html-keyboard-response","161","155684","0.0-161.0","3C6FJU71TRFOR8PC4UTB6R72VVWUYZ","AIC2D8A9UQO8S","3P7RGTLO6EZ76AO3386R8ZK9IWWKAW","","null","<img src=""img/food3.png"" style=""width:200px; border:14px solid green;"">","null","","","","","","","","","",""
"","image-keyboard-response","162","156098","0.0-162.0","3C6FJU71TRFOR8PC4UTB6R72VVWUYZ","AIC2D8A9UQO8S","3P7RGTLO6EZ76AO3386R8ZK9IWWKAW","","413","img/food3.png","76","413","3","1","3","1","1,0.5,0,1,0.5,0,0.5,0,1","1,0.5,0,1,0.5,0,0.5,0,1","1","",""
"","html-keyboard-response","163","156405","0.0-163.0","3C6FJU71TRFOR8PC4UTB6R72VVWUYZ","AIC2D8A9UQO8S","3P7RGTLO6EZ76AO3386R8ZK9IWWKAW","","null","<img src=""img/food3.png"" style=""width:200px; border:14px solid green;"">","null","","","","","","","","","",""
"","image-keyboard-response","164","157109","0.0-164.0","3C6FJU71TRFOR8PC4UTB6R72VVWUYZ","AIC2D8A9UQO8S","3P7RGTLO6EZ76AO3386R8ZK9IWWKAW","","704","img/food4.png","74","704","1","1","1","1","1,0.5,0,1,0.5,0,0.5,0,1","1,0.5,0,1,0.5,0,0.5,0,1","1","",""
"","html-keyboard-response","165","157413","0.0-165.0","3C6FJU71TRFOR8PC4UTB6R72VVWUYZ","AIC2D8A9UQO8S","3P7RGTLO6EZ76AO3386R8ZK9IWWKAW","","null","<img src=""img/food4.png"" style=""width:200px; border:14px solid green;"">","null","","","","","","","","","",""
"","image-keyboard-response","166","158259","0.0-166.0","3C6FJU71TRFOR8PC4UTB6R72VVWUYZ","AIC2D8A9UQO8S","3P7RGTLO6EZ76AO3386R8ZK9IWWKAW","","847","img/food3.png","76","847","3","1","3","1","1,0.5,0,1,0.5,0,0.5,0,1","1,0.5,0,1,0.5,0,0.5,0,1","1","",""
"","html-keyboard-response","167","158562","0.0-167.0","3C6FJU71TRFOR8PC4UTB6R72VVWUYZ","AIC2D8A9UQO8S","3P7RGTLO6EZ76AO3386R8ZK9IWWKAW","","null","<img src=""img/food3.png"" style=""width:200px; border:14px solid green;"">","null","","","","","","","","","",""
"","image-keyboard-response","168","159297","0.0-168.0","3C6FJU71TRFOR8PC4UTB6R72VVWUYZ","AIC2D8A9UQO8S","3P7RGTLO6EZ76AO3386R8ZK9IWWKAW","","734","img/food5.png","74","734","1","1","2","1","1,0.5,0,1,0.5,0,0.5,0,1","1,0.5,0,1,0.5,0,0.5,0,1","1","",""
"","html-keyboard-response","169","159602","0.0-169.0","3C6FJU71TRFOR8PC4UTB6R72VVWUYZ","AIC2D8A9UQO8S","3P7RGTLO6EZ76AO3386R8ZK9IWWKAW","","null","<img src=""img/food5.png"" style=""width:200px; border:14px solid green;"">","null","","","","","","","","","",""
"","image-keyboard-response","170","160508","0.0-170.0","3C6FJU71TRFOR8PC4UTB6R72VVWUYZ","AIC2D8A9UQO8S","3P7RGTLO6EZ76AO3386R8ZK9IWWKAW","","905","img/food4.png","74","906","1","1","1","1","1,0.5,0,1,0.5,0,0.5,0,1","1,0.5,0,1,0.5,0,0.5,0,1","1","",""
"","html-keyboard-response","171","160818","0.0-171.0","3C6FJU71TRFOR8PC4UTB6R72VVWUYZ","AIC2D8A9UQO8S","3P7RGTLO6EZ76AO3386R8ZK9IWWKAW","","null","<img src=""img/food4.png"" style=""width:200px; border:14px solid green;"">","null","","","","","","","","","",""
"","image-keyboard-response","172","161514","0.0-172.0","3C6FJU71TRFOR8PC4UTB6R72VVWUYZ","AIC2D8A9UQO8S","3P7RGTLO6EZ76AO3386R8ZK9IWWKAW","","695","img/food5.png","74","695","1","1","2","1","1,0.5,0,1,0.5,0,0.5,0,1","1,0.5,0,1,0.5,0,0.5,0,1","1","",""
"","html-keyboard-response","173","161824","0.0-173.0","3C6FJU71TRFOR8PC4UTB6R72VVWUYZ","AIC2D8A9UQO8S","3P7RGTLO6EZ76AO3386R8ZK9IWWKAW","","null","<img src=""img/food5.png"" style=""width:200px; border:14px solid green;"">","null","","","","","","","","","",""
"","image-keyboard-response","174","162414","0.0-174.0","3C6FJU71TRFOR8PC4UTB6R72VVWUYZ","AIC2D8A9UQO8S","3P7RGTLO6EZ76AO3386R8ZK9IWWKAW","","589","img/food3.png","76","589","3","1","3","1","1,0.5,0,1,0.5,0,0.5,0,1","1,0.5,0,1,0.5,0,0.5,0,1","1","",""
"","html-keyboard-response","175","162722","0.0-175.0","3C6FJU71TRFOR8PC4UTB6R72VVWUYZ","AIC2D8A9UQO8S","3P7RGTLO6EZ76AO3386R8ZK9IWWKAW","","null","<img src=""img/food3.png"" style=""width:200px; border:14px solid green;"">","null","","","","","","","","","",""
"","image-keyboard-response","176","163477","0.0-176.0","3C6FJU71TRFOR8PC4UTB6R72VVWUYZ","AIC2D8A9UQO8S","3P7RGTLO6EZ76AO3386R8ZK9IWWKAW","","755","img/food5.png","74","756","1","1","2","1","1,0.5,0,1,0.5,0,0.5,0,1","1,0.5,0,1,0.5,0,0.5,0,1","1","",""
"","html-keyboard-response","177","163780","0.0-177.0","3C6FJU71TRFOR8PC4UTB6R72VVWUYZ","AIC2D8A9UQO8S","3P7RGTLO6EZ76AO3386R8ZK9IWWKAW","","null","<img src=""img/food5.png"" style=""width:200px; border:14px solid green;"">","null","","","","","","","","","",""
"","image-keyboard-response","178","164232","0.0-178.0","3C6FJU71TRFOR8PC4UTB6R72VVWUYZ","AIC2D8A9UQO8S","3P7RGTLO6EZ76AO3386R8ZK9IWWKAW","","451","img/food5.png","74","451","1","1","2","1","1,0.5,0,1,0.5,0,0.5,0,1","1,0.5,0,1,0.5,0,0.5,0,1","1","",""
"","html-keyboard-response","179","164537","0.0-179.0","3C6FJU71TRFOR8PC4UTB6R72VVWUYZ","AIC2D8A9UQO8S","3P7RGTLO6EZ76AO3386R8ZK9IWWKAW","","null","<img src=""img/food5.png"" style=""width:200px; border:14px solid green;"">","null","","","","","","","","","",""
"","image-keyboard-response","180","164988","0.0-180.0","3C6FJU71TRFOR8PC4UTB6R72VVWUYZ","AIC2D8A9UQO8S","3P7RGTLO6EZ76AO3386R8ZK9IWWKAW","","451","img/food5.png","74","451","1","1","2","1","1,0.5,0,1,0.5,0,0.5,0,1","1,0.5,0,1,0.5,0,0.5,0,1","1","",""
"","html-keyboard-response","181","165296","0.0-181.0","3C6FJU71TRFOR8PC4UTB6R72VVWUYZ","AIC2D8A9UQO8S","3P7RGTLO6EZ76AO3386R8ZK9IWWKAW","","null","<img src=""img/food5.png"" style=""width:200px; border:14px solid green;"">","null","","","","","","","","","",""
"","html-keyboard-response","182","170070","0.0-182.0","3C6FJU71TRFOR8PC4UTB6R72VVWUYZ","AIC2D8A9UQO8S","3P7RGTLO6EZ76AO3386R8ZK9IWWKAW","","","","","","","","","","","","","",""
"","instructions","183","175987","0.0-183.0","3C6FJU71TRFOR8PC4UTB6R72VVWUYZ","AIC2D8A9UQO8S","3P7RGTLO6EZ76AO3386R8ZK9IWWKAW","[{""page_index"":0,""viewing_time"":4849},{""page_index"":1,""viewing_time"":1067}]","5916","","","","","","","","","","","",""
"","image-keyboard-response","184","176725","0.0-184.0","3C6FJU71TRFOR8PC4UTB6R72VVWUYZ","AIC2D8A9UQO8S","3P7RGTLO6EZ76AO3386R8ZK9IWWKAW","","738","img/food6.png","76","739","3","1","1","2","1,0.5,0,1,0.5,0,0.5,0,1","0,1,0.5,0,1,0.5,1,0.5,0","3","false",""
"","html-keyboard-response","185","177037","0.0-185.0","3C6FJU71TRFOR8PC4UTB6R72VVWUYZ","AIC2D8A9UQO8S","3P7RGTLO6EZ76AO3386R8ZK9IWWKAW","","null","<img src=""img/food6.png"" style=""width:200px; border:14px solid green;"">","null","","","","","","","","","",""
"","image-keyboard-response","186","177589","0.0-187.0","3C6FJU71TRFOR8PC4UTB6R72VVWUYZ","AIC2D8A9UQO8S","3P7RGTLO6EZ76AO3386R8ZK9IWWKAW","","552","img/food6.png","76","553","3","0","1","2","1,0.5,0,1,0.5,0,0.5,0,1","0,1,0.5,0,1,0.5,1,0.5,0","3","false",""
"","html-keyboard-response","187","177898","0.0-188.0","3C6FJU71TRFOR8PC4UTB6R72VVWUYZ","AIC2D8A9UQO8S","3P7RGTLO6EZ76AO3386R8ZK9IWWKAW","","null","<img src=""img/food6.png"" style=""width:200px;border:14px solid red;"">","null","","","","","","","","","",""
"","image-keyboard-response","188","178346","0.0-190.0","3C6FJU71TRFOR8PC4UTB6R72VVWUYZ","AIC2D8A9UQO8S","3P7RGTLO6EZ76AO3386R8ZK9IWWKAW","","449","img/food6.png","76","449","3","1","1","2","1,0.5,0,1,0.5,0,0.5,0,1","0,1,0.5,0,1,0.5,1,0.5,0","3","false",""
"","html-keyboard-response","189","178658","0.0-191.0","3C6FJU71TRFOR8PC4UTB6R72VVWUYZ","AIC2D8A9UQO8S","3P7RGTLO6EZ76AO3386R8ZK9IWWKAW","","null","<img src=""img/food6.png"" style=""width:200px; border:14px solid green;"">","null","","","","","","","","","",""
"","image-keyboard-response","190","179469","0.0-193.0","3C6FJU71TRFOR8PC4UTB6R72VVWUYZ","AIC2D8A9UQO8S","3P7RGTLO6EZ76AO3386R8ZK9IWWKAW","","810","img/food1.png","74","810","1","1","3","2","1,0.5,0,1,0.5,0,0.5,0,1","0,1,0.5,0,1,0.5,1,0.5,0","3","false",""
"","html-keyboard-response","191","179774","0.0-194.0","3C6FJU71TRFOR8PC4UTB6R72VVWUYZ","AIC2D8A9UQO8S","3P7RGTLO6EZ76AO3386R8ZK9IWWKAW","","null","<img src=""img/food1.png"" style=""width:200px; border:14px solid green;"">","null","","","","","","","","","",""
"","image-keyboard-response","192","180385","0.0-196.0","3C6FJU71TRFOR8PC4UTB6R72VVWUYZ","AIC2D8A9UQO8S","3P7RGTLO6EZ76AO3386R8ZK9IWWKAW","","612","img/food1.png","74","612","1","1","3","2","1,0.5,0,1,0.5,0,0.5,0,1","0,1,0.5,0,1,0.5,1,0.5,0","3","false",""
"","html-keyboard-response","193","180698","0.0-197.0","3C6FJU71TRFOR8PC4UTB6R72VVWUYZ","AIC2D8A9UQO8S","3P7RGTLO6EZ76AO3386R8ZK9IWWKAW","","null","<img src=""img/food1.png"" style=""width:200px; border:14px solid green;"">","null","","","","","","","","","",""
"","image-keyboard-response","194","181509","0.0-199.0","3C6FJU71TRFOR8PC4UTB6R72VVWUYZ","AIC2D8A9UQO8S","3P7RGTLO6EZ76AO3386R8ZK9IWWKAW","","812","img/food6.png","76","812","3","1","1","2","1,0.5,0,1,0.5,0,0.5,0,1","0,1,0.5,0,1,0.5,1,0.5,0","3","false",""
"","html-keyboard-response","195","181813","0.0-200.0","3C6FJU71TRFOR8PC4UTB6R72VVWUYZ","AIC2D8A9UQO8S","3P7RGTLO6EZ76AO3386R8ZK9IWWKAW","","null","<img src=""img/food6.png"" style=""width:200px; border:14px solid green;"">","null","","","","","","","","","",""
"","image-keyboard-response","196","182439","0.0-202.0","3C6FJU71TRFOR8PC4UTB6R72VVWUYZ","AIC2D8A9UQO8S","3P7RGTLO6EZ76AO3386R8ZK9IWWKAW","","625","img/food2.png","74","625","1","0","2","2","1,0.5,0,1,0.5,0,0.5,0,1","0,1,0.5,0,1,0.5,1,0.5,0","3","false",""
"","html-keyboard-response","197","182752","0.0-203.0","3C6FJU71TRFOR8PC4UTB6R72VVWUYZ","AIC2D8A9UQO8S","3P7RGTLO6EZ76AO3386R8ZK9IWWKAW","","null","<img src=""img/food2.png"" style=""width:200px;border:14px solid red;"">","null","","","","","","","","","",""
"","image-keyboard-response","198","183088","0.0-205.0","3C6FJU71TRFOR8PC4UTB6R72VVWUYZ","AIC2D8A9UQO8S","3P7RGTLO6EZ76AO3386R8ZK9IWWKAW","","334","img/food1.png","75","334","2","1","3","2","1,0.5,0,1,0.5,0,0.5,0,1","0,1,0.5,0,1,0.5,1,0.5,0","3","false",""
"","html-keyboard-response","199","183401","0.0-206.0","3C6FJU71TRFOR8PC4UTB6R72VVWUYZ","AIC2D8A9UQO8S","3P7RGTLO6EZ76AO3386R8ZK9IWWKAW","","null","<img src=""img/food1.png"" style=""width:200px; border:14px solid green;"">","null","","","","","","","","","",""
"","image-keyboard-response","200","184160","0.0-208.0","3C6FJU71TRFOR8PC4UTB6R72VVWUYZ","AIC2D8A9UQO8S","3P7RGTLO6EZ76AO3386R8ZK9IWWKAW","","759","img/food6.png","76","760","3","0","1","2","1,0.5,0,1,0.5,0,0.5,0,1","0,1,0.5,0,1,0.5,1,0.5,0","3","false",""
"","html-keyboard-response","201","184461","0.0-209.0","3C6FJU71TRFOR8PC4UTB6R72VVWUYZ","AIC2D8A9UQO8S","3P7RGTLO6EZ76AO3386R8ZK9IWWKAW","","null","<img src=""img/food6.png"" style=""width:200px;border:14px solid red;"">","null","","","","","","","","","",""
"","image-keyboard-response","202","185213","0.0-211.0","3C6FJU71TRFOR8PC4UTB6R72VVWUYZ","AIC2D8A9UQO8S","3P7RGTLO6EZ76AO3386R8ZK9IWWKAW","","751","img/food1.png","74","752","1","1","3","2","1,0.5,0,1,0.5,0,0.5,0,1","0,1,0.5,0,1,0.5,1,0.5,0","3","false",""
"","html-keyboard-response","203","185521","0.0-212.0","3C6FJU71TRFOR8PC4UTB6R72VVWUYZ","AIC2D8A9UQO8S","3P7RGTLO6EZ76AO3386R8ZK9IWWKAW","","null","<img src=""img/food1.png"" style=""width:200px; border:14px solid green;"">","null","","","","","","","","","",""
"","image-keyboard-response","204","185980","0.0-214.0","3C6FJU71TRFOR8PC4UTB6R72VVWUYZ","AIC2D8A9UQO8S","3P7RGTLO6EZ76AO3386R8ZK9IWWKAW","","457","img/food1.png","74","457","1","1","3","2","1,0.5,0,1,0.5,0,0.5,0,1","0,1,0.5,0,1,0.5,1,0.5,0","3","false",""
"","html-keyboard-response","205","186283","0.0-215.0","3C6FJU71TRFOR8PC4UTB6R72VVWUYZ","AIC2D8A9UQO8S","3P7RGTLO6EZ76AO3386R8ZK9IWWKAW","","null","<img src=""img/food1.png"" style=""width:200px; border:14px solid green;"">","null","","","","","","","","","",""
"","image-keyboard-response","206","186690","0.0-217.0","3C6FJU71TRFOR8PC4UTB6R72VVWUYZ","AIC2D8A9UQO8S","3P7RGTLO6EZ76AO3386R8ZK9IWWKAW","","405","img/food1.png","74","405","1","1","3","2","1,0.5,0,1,0.5,0,0.5,0,1","0,1,0.5,0,1,0.5,1,0.5,0","3","false",""
"","html-keyboard-response","207","186999","0.0-218.0","3C6FJU71TRFOR8PC4UTB6R72VVWUYZ","AIC2D8A9UQO8S","3P7RGTLO6EZ76AO3386R8ZK9IWWKAW","","null","<img src=""img/food1.png"" style=""width:200px; border:14px solid green;"">","null","","","","","","","","","",""
"","image-keyboard-response","208","187646","0.0-220.0","3C6FJU71TRFOR8PC4UTB6R72VVWUYZ","AIC2D8A9UQO8S","3P7RGTLO6EZ76AO3386R8ZK9IWWKAW","","646","img/food2.png","75","646","2","1","2","2","1,0.5,0,1,0.5,0,0.5,0,1","0,1,0.5,0,1,0.5,1,0.5,0","3","false",""
"","html-keyboard-response","209","187946","0.0-221.0","3C6FJU71TRFOR8PC4UTB6R72VVWUYZ","AIC2D8A9UQO8S","3P7RGTLO6EZ76AO3386R8ZK9IWWKAW","","null","<img src=""img/food2.png"" style=""width:200px; border:14px solid green;"">","null","","","","","","","","","",""
"","image-keyboard-response","210","188719","0.0-223.0","3C6FJU71TRFOR8PC4UTB6R72VVWUYZ","AIC2D8A9UQO8S","3P7RGTLO6EZ76AO3386R8ZK9IWWKAW","","772","img/food1.png","74","772","1","1","3","2","1,0.5,0,1,0.5,0,0.5,0,1","0,1,0.5,0,1,0.5,1,0.5,0","3","false",""
"","html-keyboard-response","211","189019","0.0-224.0","3C6FJU71TRFOR8PC4UTB6R72VVWUYZ","AIC2D8A9UQO8S","3P7RGTLO6EZ76AO3386R8ZK9IWWKAW","","null","<img src=""img/food1.png"" style=""width:200px; border:14px solid green;"">","null","","","","","","","","","",""
"","image-keyboard-response","212","189705","0.0-226.0","3C6FJU71TRFOR8PC4UTB6R72VVWUYZ","AIC2D8A9UQO8S","3P7RGTLO6EZ76AO3386R8ZK9IWWKAW","","685","img/food6.png","76","685","3","1","1","2","1,0.5,0,1,0.5,0,0.5,0,1","0,1,0.5,0,1,0.5,1,0.5,0","3","false",""
"","html-keyboard-response","213","190012","0.0-227.0","3C6FJU71TRFOR8PC4UTB6R72VVWUYZ","AIC2D8A9UQO8S","3P7RGTLO6EZ76AO3386R8ZK9IWWKAW","","null","<img src=""img/food6.png"" style=""width:200px; border:14px solid green;"">","null","","","","","","","","","",""
"","image-keyboard-response","214","190338","0.0-229.0","3C6FJU71TRFOR8PC4UTB6R72VVWUYZ","AIC2D8A9UQO8S","3P7RGTLO6EZ76AO3386R8ZK9IWWKAW","","326","img/food6.png","76","326","3","1","1","2","1,0.5,0,1,0.5,0,0.5,0,1","0,1,0.5,0,1,0.5,1,0.5,0","3","false",""
"","html-keyboard-response","215","190652","0.0-230.0","3C6FJU71TRFOR8PC4UTB6R72VVWUYZ","AIC2D8A9UQO8S","3P7RGTLO6EZ76AO3386R8ZK9IWWKAW","","null","<img src=""img/food6.png"" style=""width:200px; border:14px solid green;"">","null","","","","","","","","","",""
"","image-keyboard-response","216","191452","0.0-232.0","3C6FJU71TRFOR8PC4UTB6R72VVWUYZ","AIC2D8A9UQO8S","3P7RGTLO6EZ76AO3386R8ZK9IWWKAW","","799","img/food1.png","74","799","1","1","3","2","1,0.5,0,1,0.5,0,0.5,0,1","0,1,0.5,0,1,0.5,1,0.5,0","3","false",""
"","html-keyboard-response","217","191759","0.0-233.0","3C6FJU71TRFOR8PC4UTB6R72VVWUYZ","AIC2D8A9UQO8S","3P7RGTLO6EZ76AO3386R8ZK9IWWKAW","","null","<img src=""img/food1.png"" style=""width:200px; border:14px solid green;"">","null","","","","","","","","","",""
"","image-keyboard-response","218","192464","0.0-235.0","3C6FJU71TRFOR8PC4UTB6R72VVWUYZ","AIC2D8A9UQO8S","3P7RGTLO6EZ76AO3386R8ZK9IWWKAW","","704","img/food2.png","75","705","2","1","2","2","1,0.5,0,1,0.5,0,0.5,0,1","0,1,0.5,0,1,0.5,1,0.5,0","3","false",""
"","html-keyboard-response","219","192768","0.0-236.0","3C6FJU71TRFOR8PC4UTB6R72VVWUYZ","AIC2D8A9UQO8S","3P7RGTLO6EZ76AO3386R8ZK9IWWKAW","","null","<img src=""img/food2.png"" style=""width:200px; border:14px solid green;"">","null","","","","","","","","","",""
"","image-keyboard-response","220","193430","0.0-238.0","3C6FJU71TRFOR8PC4UTB6R72VVWUYZ","AIC2D8A9UQO8S","3P7RGTLO6EZ76AO3386R8ZK9IWWKAW","","662","img/food1.png","74","663","1","1","3","2","1,0.5,0,1,0.5,0,0.5,0,1","0,1,0.5,0,1,0.5,1,0.5,0","3","false",""
"","html-keyboard-response","221","193737","0.0-239.0","3C6FJU71TRFOR8PC4UTB6R72VVWUYZ","AIC2D8A9UQO8S","3P7RGTLO6EZ76AO3386R8ZK9IWWKAW","","null","<img src=""img/food1.png"" style=""width:200px; border:14px solid green;"">","null","","","","","","","","","",""
"","image-keyboard-response","222","194309","0.0-241.0","3C6FJU71TRFOR8PC4UTB6R72VVWUYZ","AIC2D8A9UQO8S","3P7RGTLO6EZ76AO3386R8ZK9IWWKAW","","571","img/food2.png","75","571","2","1","2","2","1,0.5,0,1,0.5,0,0.5,0,1","0,1,0.5,0,1,0.5,1,0.5,0","3","false",""
"","html-keyboard-response","223","194615","0.0-242.0","3C6FJU71TRFOR8PC4UTB6R72VVWUYZ","AIC2D8A9UQO8S","3P7RGTLO6EZ76AO3386R8ZK9IWWKAW","","null","<img src=""img/food2.png"" style=""width:200px; border:14px solid green;"">","null","","","","","","","","","",""
"","image-keyboard-response","224","195034","0.0-244.0","3C6FJU71TRFOR8PC4UTB6R72VVWUYZ","AIC2D8A9UQO8S","3P7RGTLO6EZ76AO3386R8ZK9IWWKAW","","417","img/food2.png","75","417","2","1","2","2","1,0.5,0,1,0.5,0,0.5,0,1","0,1,0.5,0,1,0.5,1,0.5,0","3","false",""
"","html-keyboard-response","225","195345","0.0-245.0","3C6FJU71TRFOR8PC4UTB6R72VVWUYZ","AIC2D8A9UQO8S","3P7RGTLO6EZ76AO3386R8ZK9IWWKAW","","null","<img src=""img/food2.png"" style=""width:200px; border:14px solid green;"">","null","","","","","","","","","",""
"","image-keyboard-response","226","195821","0.0-247.0","3C6FJU71TRFOR8PC4UTB6R72VVWUYZ","AIC2D8A9UQO8S","3P7RGTLO6EZ76AO3386R8ZK9IWWKAW","","475","img/food2.png","75","475","2","1","2","2","1,0.5,0,1,0.5,0,0.5,0,1","0,1,0.5,0,1,0.5,1,0.5,0","3","false",""
"","html-keyboard-response","227","196131","0.0-248.0","3C6FJU71TRFOR8PC4UTB6R72VVWUYZ","AIC2D8A9UQO8S","3P7RGTLO6EZ76AO3386R8ZK9IWWKAW","","null","<img src=""img/food2.png"" style=""width:200px; border:14px solid green;"">","null","","","","","","","","","",""
"","image-keyboard-response","228","196801","0.0-250.0","3C6FJU71TRFOR8PC4UTB6R72VVWUYZ","AIC2D8A9UQO8S","3P7RGTLO6EZ76AO3386R8ZK9IWWKAW","","670","img/food6.png","76","670","3","0","1","2","1,0.5,0,1,0.5,0,0.5,0,1","0,1,0.5,0,1,0.5,1,0.5,0","3","false",""
"","html-keyboard-response","229","197110","0.0-251.0","3C6FJU71TRFOR8PC4UTB6R72VVWUYZ","AIC2D8A9UQO8S","3P7RGTLO6EZ76AO3386R8ZK9IWWKAW","","null","<img src=""img/food6.png"" style=""width:200px;border:14px solid red;"">","null","","","","","","","","","",""
"","image-keyboard-response","230","197860","0.0-253.0","3C6FJU71TRFOR8PC4UTB6R72VVWUYZ","AIC2D8A9UQO8S","3P7RGTLO6EZ76AO3386R8ZK9IWWKAW","","750","img/food2.png","75","750","2","1","2","2","1,0.5,0,1,0.5,0,0.5,0,1","0,1,0.5,0,1,0.5,1,0.5,0","3","false",""
"","html-keyboard-response","231","198161","0.0-254.0","3C6FJU71TRFOR8PC4UTB6R72VVWUYZ","AIC2D8A9UQO8S","3P7RGTLO6EZ76AO3386R8ZK9IWWKAW","","null","<img src=""img/food2.png"" style=""width:200px; border:14px solid green;"">","null","","","","","","","","","",""
"","image-keyboard-response","232","199112","0.0-256.0","3C6FJU71TRFOR8PC4UTB6R72VVWUYZ","AIC2D8A9UQO8S","3P7RGTLO6EZ76AO3386R8ZK9IWWKAW","","950","img/food6.png","76","950","3","1","1","2","1,0.5,0,1,0.5,0,0.5,0,1","0,1,0.5,0,1,0.5,1,0.5,0","3","false",""
"","html-keyboard-response","233","199418","0.0-257.0","3C6FJU71TRFOR8PC4UTB6R72VVWUYZ","AIC2D8A9UQO8S","3P7RGTLO6EZ76AO3386R8ZK9IWWKAW","","null","<img src=""img/food6.png"" style=""width:200px; border:14px solid green;"">","null","","","","","","","","","",""
"","image-keyboard-response","234","200425","0.0-259.0","3C6FJU71TRFOR8PC4UTB6R72VVWUYZ","AIC2D8A9UQO8S","3P7RGTLO6EZ76AO3386R8ZK9IWWKAW","","","img/food2.png","","1007","-1","0","2","2","1,0.5,0,1,0.5,0,0.5,0,1","0,1,0.5,0,1,0.5,1,0.5,0","3","true",""
"","html-keyboard-response","235","200737","0.0-260.0","3C6FJU71TRFOR8PC4UTB6R72VVWUYZ","AIC2D8A9UQO8S","3P7RGTLO6EZ76AO3386R8ZK9IWWKAW","","null","<img src=""img/food2.png"" style=""width:200px;border:14px solid red;"">","null","","","","","","","","","",""
"","html-keyboard-response","236","204508","0.0-261.0-0.0","3C6FJU71TRFOR8PC4UTB6R72VVWUYZ","AIC2D8A9UQO8S","3P7RGTLO6EZ76AO3386R8ZK9IWWKAW","","","","","","","","","","","","","",""
"","image-keyboard-response","237","205095","0.0-262.0","3C6FJU71TRFOR8PC4UTB6R72VVWUYZ","AIC2D8A9UQO8S","3P7RGTLO6EZ76AO3386R8ZK9IWWKAW","","586","img/food2.png","75","587","2","1","2","2","1,0.5,0,1,0.5,0,0.5,0,1","0,1,0.5,0,1,0.5,1,0.5,0","3","false",""
"","html-keyboard-response","238","205398","0.0-263.0","3C6FJU71TRFOR8PC4UTB6R72VVWUYZ","AIC2D8A9UQO8S","3P7RGTLO6EZ76AO3386R8ZK9IWWKAW","","null","<img src=""img/food2.png"" style=""width:200px; border:14px solid green;"">","null","","","","","","","","","",""
"","image-keyboard-response","239","205804","0.0-265.0","3C6FJU71TRFOR8PC4UTB6R72VVWUYZ","AIC2D8A9UQO8S","3P7RGTLO6EZ76AO3386R8ZK9IWWKAW","","407","img/food2.png","75","407","2","1","2","2","1,0.5,0,1,0.5,0,0.5,0,1","0,1,0.5,0,1,0.5,1,0.5,0","3","false",""
"","html-keyboard-response","240","206110","0.0-266.0","3C6FJU71TRFOR8PC4UTB6R72VVWUYZ","AIC2D8A9UQO8S","3P7RGTLO6EZ76AO3386R8ZK9IWWKAW","","null","<img src=""img/food2.png"" style=""width:200px; border:14px solid green;"">","null","","","","","","","","","",""
"","image-keyboard-response","241","206623","0.0-268.0","3C6FJU71TRFOR8PC4UTB6R72VVWUYZ","AIC2D8A9UQO8S","3P7RGTLO6EZ76AO3386R8ZK9IWWKAW","","512","img/food6.png","76","512","3","1","1","2","1,0.5,0,1,0.5,0,0.5,0,1","0,1,0.5,0,1,0.5,1,0.5,0","3","false",""
"","html-keyboard-response","242","206924","0.0-269.0","3C6FJU71TRFOR8PC4UTB6R72VVWUYZ","AIC2D8A9UQO8S","3P7RGTLO6EZ76AO3386R8ZK9IWWKAW","","null","<img src=""img/food6.png"" style=""width:200px; border:14px solid green;"">","null","","","","","","","","","",""
"","image-keyboard-response","243","207446","0.0-271.0","3C6FJU71TRFOR8PC4UTB6R72VVWUYZ","AIC2D8A9UQO8S","3P7RGTLO6EZ76AO3386R8ZK9IWWKAW","","522","img/food1.png","74","522","1","1","3","2","1,0.5,0,1,0.5,0,0.5,0,1","0,1,0.5,0,1,0.5,1,0.5,0","3","false",""
"","html-keyboard-response","244","207758","0.0-272.0","3C6FJU71TRFOR8PC4UTB6R72VVWUYZ","AIC2D8A9UQO8S","3P7RGTLO6EZ76AO3386R8ZK9IWWKAW","","null","<img src=""img/food1.png"" style=""width:200px; border:14px solid green;"">","null","","","","","","","","","",""
"","image-keyboard-response","245","208376","0.0-274.0","3C6FJU71TRFOR8PC4UTB6R72VVWUYZ","AIC2D8A9UQO8S","3P7RGTLO6EZ76AO3386R8ZK9IWWKAW","","617","img/food2.png","75","617","2","1","2","2","1,0.5,0,1,0.5,0,0.5,0,1","0,1,0.5,0,1,0.5,1,0.5,0","3","false",""
"","html-keyboard-response","246","208685","0.0-275.0","3C6FJU71TRFOR8PC4UTB6R72VVWUYZ","AIC2D8A9UQO8S","3P7RGTLO6EZ76AO3386R8ZK9IWWKAW","","null","<img src=""img/food2.png"" style=""width:200px; border:14px solid green;"">","null","","","","","","","","","",""
"","image-keyboard-response","247","209040","0.0-277.0","3C6FJU71TRFOR8PC4UTB6R72VVWUYZ","AIC2D8A9UQO8S","3P7RGTLO6EZ76AO3386R8ZK9IWWKAW","","353","img/food2.png","75","353","2","1","2","2","1,0.5,0,1,0.5,0,0.5,0,1","0,1,0.5,0,1,0.5,1,0.5,0","3","false",""
"","html-keyboard-response","248","209354","0.0-278.0","3C6FJU71TRFOR8PC4UTB6R72VVWUYZ","AIC2D8A9UQO8S","3P7RGTLO6EZ76AO3386R8ZK9IWWKAW","","null","<img src=""img/food2.png"" style=""width:200px; border:14px solid green;"">","null","","","","","","","","","",""
"","image-keyboard-response","249","209959","0.0-280.0","3C6FJU71TRFOR8PC4UTB6R72VVWUYZ","AIC2D8A9UQO8S","3P7RGTLO6EZ76AO3386R8ZK9IWWKAW","","605","img/food6.png","76","606","3","0","1","2","1,0.5,0,1,0.5,0,0.5,0,1","0,1,0.5,0,1,0.5,1,0.5,0","3","false",""
"","html-keyboard-response","250","210268","0.0-281.0","3C6FJU71TRFOR8PC4UTB6R72VVWUYZ","AIC2D8A9UQO8S","3P7RGTLO6EZ76AO3386R8ZK9IWWKAW","","null","<img src=""img/food6.png"" style=""width:200px;border:14px solid red;"">","null","","","","","","","","","",""
"","image-keyboard-response","251","210588","0.0-283.0","3C6FJU71TRFOR8PC4UTB6R72VVWUYZ","AIC2D8A9UQO8S","3P7RGTLO6EZ76AO3386R8ZK9IWWKAW","","319","img/food6.png","76","319","3","1","1","2","1,0.5,0,1,0.5,0,0.5,0,1","0,1,0.5,0,1,0.5,1,0.5,0","3","false",""
"","html-keyboard-response","252","210902","0.0-284.0","3C6FJU71TRFOR8PC4UTB6R72VVWUYZ","AIC2D8A9UQO8S","3P7RGTLO6EZ76AO3386R8ZK9IWWKAW","","null","<img src=""img/food6.png"" style=""width:200px; border:14px solid green;"">","null","","","","","","","","","",""
"","image-keyboard-response","253","211303","0.0-286.0","3C6FJU71TRFOR8PC4UTB6R72VVWUYZ","AIC2D8A9UQO8S","3P7RGTLO6EZ76AO3386R8ZK9IWWKAW","","401","img/food6.png","76","401","3","1","1","2","1,0.5,0,1,0.5,0,0.5,0,1","0,1,0.5,0,1,0.5,1,0.5,0","3","false",""
"","html-keyboard-response","254","211618","0.0-287.0","3C6FJU71TRFOR8PC4UTB6R72VVWUYZ","AIC2D8A9UQO8S","3P7RGTLO6EZ76AO3386R8ZK9IWWKAW","","null","<img src=""img/food6.png"" style=""width:200px; border:14px solid green;"">","null","","","","","","","","","",""
"","image-keyboard-response","255","212182","0.0-289.0","3C6FJU71TRFOR8PC4UTB6R72VVWUYZ","AIC2D8A9UQO8S","3P7RGTLO6EZ76AO3386R8ZK9IWWKAW","","563","img/food2.png","74","563","1","0","2","2","1,0.5,0,1,0.5,0,0.5,0,1","0,1,0.5,0,1,0.5,1,0.5,0","3","false",""
"","html-keyboard-response","256","212487","0.0-290.0","3C6FJU71TRFOR8PC4UTB6R72VVWUYZ","AIC2D8A9UQO8S","3P7RGTLO6EZ76AO3386R8ZK9IWWKAW","","null","<img src=""img/food2.png"" style=""width:200px;border:14px solid red;"">","null","","","","","","","","","",""
"","image-keyboard-response","257","212846","0.0-292.0","3C6FJU71TRFOR8PC4UTB6R72VVWUYZ","AIC2D8A9UQO8S","3P7RGTLO6EZ76AO3386R8ZK9IWWKAW","","358","img/food6.png","75","358","2","1","1","2","1,0.5,0,1,0.5,0,0.5,0,1","0,1,0.5,0,1,0.5,1,0.5,0","3","false",""
"","html-keyboard-response","258","213153","0.0-293.0","3C6FJU71TRFOR8PC4UTB6R72VVWUYZ","AIC2D8A9UQO8S","3P7RGTLO6EZ76AO3386R8ZK9IWWKAW","","null","<img src=""img/food6.png"" style=""width:200px; border:14px solid green;"">","null","","","","","","","","","",""
"","image-keyboard-response","259","214093","0.0-295.0","3C6FJU71TRFOR8PC4UTB6R72VVWUYZ","AIC2D8A9UQO8S","3P7RGTLO6EZ76AO3386R8ZK9IWWKAW","","939","img/food2.png","74","940","1","0","2","2","1,0.5,0,1,0.5,0,0.5,0,1","0,1,0.5,0,1,0.5,1,0.5,0","3","false",""
"","html-keyboard-response","260","214395","0.0-296.0","3C6FJU71TRFOR8PC4UTB6R72VVWUYZ","AIC2D8A9UQO8S","3P7RGTLO6EZ76AO3386R8ZK9IWWKAW","","null","<img src=""img/food2.png"" style=""width:200px;border:14px solid red;"">","null","","","","","","","","","",""
"","image-keyboard-response","261","214879","0.0-298.0","3C6FJU71TRFOR8PC4UTB6R72VVWUYZ","AIC2D8A9UQO8S","3P7RGTLO6EZ76AO3386R8ZK9IWWKAW","","485","img/food6.png","75","485","2","1","1","2","1,0.5,0,1,0.5,0,0.5,0,1","0,1,0.5,0,1,0.5,1,0.5,0","3","false",""
"","html-keyboard-response","262","215196","0.0-299.0","3C6FJU71TRFOR8PC4UTB6R72VVWUYZ","AIC2D8A9UQO8S","3P7RGTLO6EZ76AO3386R8ZK9IWWKAW","","null","<img src=""img/food6.png"" style=""width:200px; border:14px solid green;"">","null","","","","","","","","","",""
"","image-keyboard-response","263","215498","0.0-301.0","3C6FJU71TRFOR8PC4UTB6R72VVWUYZ","AIC2D8A9UQO8S","3P7RGTLO6EZ76AO3386R8ZK9IWWKAW","","301","img/food1.png","76","302","3","0","3","2","1,0.5,0,1,0.5,0,0.5,0,1","0,1,0.5,0,1,0.5,1,0.5,0","3","false",""
"","html-keyboard-response","264","215812","0.0-302.0","3C6FJU71TRFOR8PC4UTB6R72VVWUYZ","AIC2D8A9UQO8S","3P7RGTLO6EZ76AO3386R8ZK9IWWKAW","","null","<img src=""img/food1.png"" style=""width:200px;border:14px solid red;"">","null","","","","","","","","","",""
"","image-keyboard-response","265","216662","0.0-304.0","3C6FJU71TRFOR8PC4UTB6R72VVWUYZ","AIC2D8A9UQO8S","3P7RGTLO6EZ76AO3386R8ZK9IWWKAW","","850","img/food2.png","75","850","2","1","2","2","1,0.5,0,1,0.5,0,0.5,0,1","0,1,0.5,0,1,0.5,1,0.5,0","3","false",""
"","html-keyboard-response","266","216969","0.0-305.0","3C6FJU71TRFOR8PC4UTB6R72VVWUYZ","AIC2D8A9UQO8S","3P7RGTLO6EZ76AO3386R8ZK9IWWKAW","","null","<img src=""img/food2.png"" style=""width:200px; border:14px solid green;"">","null","","","","","","","","","",""
"","image-keyboard-response","267","217297","0.0-307.0","3C6FJU71TRFOR8PC4UTB6R72VVWUYZ","AIC2D8A9UQO8S","3P7RGTLO6EZ76AO3386R8ZK9IWWKAW","","327","img/food2.png","75","327","2","1","2","2","1,0.5,0,1,0.5,0,0.5,0,1","0,1,0.5,0,1,0.5,1,0.5,0","3","false",""
"","html-keyboard-response","268","217608","0.0-308.0","3C6FJU71TRFOR8PC4UTB6R72VVWUYZ","AIC2D8A9UQO8S","3P7RGTLO6EZ76AO3386R8ZK9IWWKAW","","null","<img src=""img/food2.png"" style=""width:200px; border:14px solid green;"">","null","","","","","","","","","",""
"","image-keyboard-response","269","217920","0.0-310.0","3C6FJU71TRFOR8PC4UTB6R72VVWUYZ","AIC2D8A9UQO8S","3P7RGTLO6EZ76AO3386R8ZK9IWWKAW","","312","img/food2.png","75","312","2","1","2","2","1,0.5,0,1,0.5,0,0.5,0,1","0,1,0.5,0,1,0.5,1,0.5,0","3","false",""
"","html-keyboard-response","270","218235","0.0-311.0","3C6FJU71TRFOR8PC4UTB6R72VVWUYZ","AIC2D8A9UQO8S","3P7RGTLO6EZ76AO3386R8ZK9IWWKAW","","null","<img src=""img/food2.png"" style=""width:200px; border:14px solid green;"">","null","","","","","","","","","",""
"","image-keyboard-response","271","218849","0.0-313.0","3C6FJU71TRFOR8PC4UTB6R72VVWUYZ","AIC2D8A9UQO8S","3P7RGTLO6EZ76AO3386R8ZK9IWWKAW","","614","img/food6.png","76","616","3","0","1","2","1,0.5,0,1,0.5,0,0.5,0,1","0,1,0.5,0,1,0.5,1,0.5,0","3","false",""
"","html-keyboard-response","272","219165","0.0-314.0","3C6FJU71TRFOR8PC4UTB6R72VVWUYZ","AIC2D8A9UQO8S","3P7RGTLO6EZ76AO3386R8ZK9IWWKAW","","null","<img src=""img/food6.png"" style=""width:200px;border:14px solid red;"">","null","","","","","","","","","",""
"","image-keyboard-response","273","219489","0.0-316.0","3C6FJU71TRFOR8PC4UTB6R72VVWUYZ","AIC2D8A9UQO8S","3P7RGTLO6EZ76AO3386R8ZK9IWWKAW","","323","img/food1.png","76","323","3","0","3","2","1,0.5,0,1,0.5,0,0.5,0,1","0,1,0.5,0,1,0.5,1,0.5,0","3","false",""
"","html-keyboard-response","274","219802","0.0-317.0","3C6FJU71TRFOR8PC4UTB6R72VVWUYZ","AIC2D8A9UQO8S","3P7RGTLO6EZ76AO3386R8ZK9IWWKAW","","null","<img src=""img/food1.png"" style=""width:200px;border:14px solid red;"">","null","","","","","","","","","",""
"","image-keyboard-response","275","219852","0.0-319.0","3C6FJU71TRFOR8PC4UTB6R72VVWUYZ","AIC2D8A9UQO8S","3P7RGTLO6EZ76AO3386R8ZK9IWWKAW","","49","img/food1.png","74","50","1","1","3","2","1,0.5,0,1,0.5,0,0.5,0,1","0,1,0.5,0,1,0.5,1,0.5,0","3","false",""
"","html-keyboard-response","276","220161","0.0-320.0","3C6FJU71TRFOR8PC4UTB6R72VVWUYZ","AIC2D8A9UQO8S","3P7RGTLO6EZ76AO3386R8ZK9IWWKAW","","null","<img src=""img/food1.png"" style=""width:200px; border:14px solid green;"">","null","","","","","","","","","",""
"","image-keyboard-response","277","220542","0.0-322.0","3C6FJU71TRFOR8PC4UTB6R72VVWUYZ","AIC2D8A9UQO8S","3P7RGTLO6EZ76AO3386R8ZK9IWWKAW","","381","img/food1.png","74","381","1","1","3","2","1,0.5,0,1,0.5,0,0.5,0,1","0,1,0.5,0,1,0.5,1,0.5,0","3","false",""
"","html-keyboard-response","278","220842","0.0-323.0","3C6FJU71TRFOR8PC4UTB6R72VVWUYZ","AIC2D8A9UQO8S","3P7RGTLO6EZ76AO3386R8ZK9IWWKAW","","null","<img src=""img/food1.png"" style=""width:200px; border:14px solid green;"">","null","","","","","","","","","",""
"","image-keyboard-response","279","221533","0.0-325.0","3C6FJU71TRFOR8PC4UTB6R72VVWUYZ","AIC2D8A9UQO8S","3P7RGTLO6EZ76AO3386R8ZK9IWWKAW","","689","img/food6.png","76","690","3","0","1","2","1,0.5,0,1,0.5,0,0.5,0,1","0,1,0.5,0,1,0.5,1,0.5,0","3","false",""
"","html-keyboard-response","280","221851","0.0-326.0","3C6FJU71TRFOR8PC4UTB6R72VVWUYZ","AIC2D8A9UQO8S","3P7RGTLO6EZ76AO3386R8ZK9IWWKAW","","null","<img src=""img/food6.png"" style=""width:200px;border:14px solid red;"">","null","","","","","","","","","",""
"","image-keyboard-response","281","222391","0.0-328.0","3C6FJU71TRFOR8PC4UTB6R72VVWUYZ","AIC2D8A9UQO8S","3P7RGTLO6EZ76AO3386R8ZK9IWWKAW","","538","img/food2.png","75","539","2","1","2","2","1,0.5,0,1,0.5,0,0.5,0,1","0,1,0.5,0,1,0.5,1,0.5,0","3","false",""
"","html-keyboard-response","282","222696","0.0-329.0","3C6FJU71TRFOR8PC4UTB6R72VVWUYZ","AIC2D8A9UQO8S","3P7RGTLO6EZ76AO3386R8ZK9IWWKAW","","null","<img src=""img/food2.png"" style=""width:200px; border:14px solid green;"">","null","","","","","","","","","",""
"","image-keyboard-response","283","223407","0.0-331.0","3C6FJU71TRFOR8PC4UTB6R72VVWUYZ","AIC2D8A9UQO8S","3P7RGTLO6EZ76AO3386R8ZK9IWWKAW","","711","img/food6.png","75","712","2","1","1","2","1,0.5,0,1,0.5,0,0.5,0,1","0,1,0.5,0,1,0.5,1,0.5,0","3","false",""
"","html-keyboard-response","284","223717","0.0-332.0","3C6FJU71TRFOR8PC4UTB6R72VVWUYZ","AIC2D8A9UQO8S","3P7RGTLO6EZ76AO3386R8ZK9IWWKAW","","null","<img src=""img/food6.png"" style=""width:200px; border:14px solid green;"">","null","","","","","","","","","",""
"","image-keyboard-response","285","224209","0.0-334.0","3C6FJU71TRFOR8PC4UTB6R72VVWUYZ","AIC2D8A9UQO8S","3P7RGTLO6EZ76AO3386R8ZK9IWWKAW","","492","img/food2.png","74","493","1","0","2","2","1,0.5,0,1,0.5,0,0.5,0,1","0,1,0.5,0,1,0.5,1,0.5,0","3","false",""
"","html-keyboard-response","286","224514","0.0-335.0","3C6FJU71TRFOR8PC4UTB6R72VVWUYZ","AIC2D8A9UQO8S","3P7RGTLO6EZ76AO3386R8ZK9IWWKAW","","null","<img src=""img/food2.png"" style=""width:200px;border:14px solid red;"">","null","","","","","","","","","",""
"","image-keyboard-response","287","224660","0.0-337.0","3C6FJU71TRFOR8PC4UTB6R72VVWUYZ","AIC2D8A9UQO8S","3P7RGTLO6EZ76AO3386R8ZK9IWWKAW","","144","img/food6.png","75","144","2","1","1","2","1,0.5,0,1,0.5,0,0.5,0,1","0,1,0.5,0,1,0.5,1,0.5,0","3","false",""
"","html-keyboard-response","288","224965","0.0-338.0","3C6FJU71TRFOR8PC4UTB6R72VVWUYZ","AIC2D8A9UQO8S","3P7RGTLO6EZ76AO3386R8ZK9IWWKAW","","null","<img src=""img/food6.png"" style=""width:200px; border:14px solid green;"">","null","","","","","","","","","",""
"","image-keyboard-response","289","225411","0.0-340.0","3C6FJU71TRFOR8PC4UTB6R72VVWUYZ","AIC2D8A9UQO8S","3P7RGTLO6EZ76AO3386R8ZK9IWWKAW","","446","img/food6.png","75","447","2","1","1","2","1,0.5,0,1,0.5,0,0.5,0,1","0,1,0.5,0,1,0.5,1,0.5,0","3","false",""
"","html-keyboard-response","290","225712","0.0-341.0","3C6FJU71TRFOR8PC4UTB6R72VVWUYZ","AIC2D8A9UQO8S","3P7RGTLO6EZ76AO3386R8ZK9IWWKAW","","null","<img src=""img/food6.png"" style=""width:200px; border:14px solid green;"">","null","","","","","","","","","",""
"","image-keyboard-response","291","226295","0.0-343.0","3C6FJU71TRFOR8PC4UTB6R72VVWUYZ","AIC2D8A9UQO8S","3P7RGTLO6EZ76AO3386R8ZK9IWWKAW","","583","img/food2.png","75","583","2","1","2","2","1,0.5,0,1,0.5,0,0.5,0,1","0,1,0.5,0,1,0.5,1,0.5,0","3","false",""
"","html-keyboard-response","292","226604","0.0-344.0","3C6FJU71TRFOR8PC4UTB6R72VVWUYZ","AIC2D8A9UQO8S","3P7RGTLO6EZ76AO3386R8ZK9IWWKAW","","null","<img src=""img/food2.png"" style=""width:200px; border:14px solid green;"">","null","","","","","","","","","",""
"","image-keyboard-response","293","227265","0.0-346.0","3C6FJU71TRFOR8PC4UTB6R72VVWUYZ","AIC2D8A9UQO8S","3P7RGTLO6EZ76AO3386R8ZK9IWWKAW","","661","img/food1.png","74","662","1","1","3","2","1,0.5,0,1,0.5,0,0.5,0,1","0,1,0.5,0,1,0.5,1,0.5,0","3","false",""
"","html-keyboard-response","294","227579","0.0-347.0","3C6FJU71TRFOR8PC4UTB6R72VVWUYZ","AIC2D8A9UQO8S","3P7RGTLO6EZ76AO3386R8ZK9IWWKAW","","null","<img src=""img/food1.png"" style=""width:200px; border:14px solid green;"">","null","","","","","","","","","",""
"","image-keyboard-response","295","228119","0.0-349.0","3C6FJU71TRFOR8PC4UTB6R72VVWUYZ","AIC2D8A9UQO8S","3P7RGTLO6EZ76AO3386R8ZK9IWWKAW","","539","img/food2.png","75","539","2","1","2","2","1,0.5,0,1,0.5,0,0.5,0,1","0,1,0.5,0,1,0.5,1,0.5,0","3","false",""
"","html-keyboard-response","296","228422","0.0-350.0","3C6FJU71TRFOR8PC4UTB6R72VVWUYZ","AIC2D8A9UQO8S","3P7RGTLO6EZ76AO3386R8ZK9IWWKAW","","null","<img src=""img/food2.png"" style=""width:200px; border:14px solid green;"">","null","","","","","","","","","",""
"","image-keyboard-response","297","229135","0.0-352.0","3C6FJU71TRFOR8PC4UTB6R72VVWUYZ","AIC2D8A9UQO8S","3P7RGTLO6EZ76AO3386R8ZK9IWWKAW","","713","img/food1.png","74","714","1","1","3","2","1,0.5,0,1,0.5,0,0.5,0,1","0,1,0.5,0,1,0.5,1,0.5,0","3","false",""
"","html-keyboard-response","298","229436","0.0-353.0","3C6FJU71TRFOR8PC4UTB6R72VVWUYZ","AIC2D8A9UQO8S","3P7RGTLO6EZ76AO3386R8ZK9IWWKAW","","null","<img src=""img/food1.png"" style=""width:200px; border:14px solid green;"">","null","","","","","","","","","",""
"","image-keyboard-response","299","229846","0.0-355.0","3C6FJU71TRFOR8PC4UTB6R72VVWUYZ","AIC2D8A9UQO8S","3P7RGTLO6EZ76AO3386R8ZK9IWWKAW","","409","img/food1.png","74","410","1","1","3","2","1,0.5,0,1,0.5,0,0.5,0,1","0,1,0.5,0,1,0.5,1,0.5,0","3","false",""
"","html-keyboard-response","300","230146","0.0-356.0","3C6FJU71TRFOR8PC4UTB6R72VVWUYZ","AIC2D8A9UQO8S","3P7RGTLO6EZ76AO3386R8ZK9IWWKAW","","null","<img src=""img/food1.png"" style=""width:200px; border:14px solid green;"">","null","","","","","","","","","",""
"","image-keyboard-response","301","230659","0.0-358.0","3C6FJU71TRFOR8PC4UTB6R72VVWUYZ","AIC2D8A9UQO8S","3P7RGTLO6EZ76AO3386R8ZK9IWWKAW","","512","img/food6.png","75","513","2","1","1","2","1,0.5,0,1,0.5,0,0.5,0,1","0,1,0.5,0,1,0.5,1,0.5,0","3","false",""
"","html-keyboard-response","302","230972","0.0-359.0","3C6FJU71TRFOR8PC4UTB6R72VVWUYZ","AIC2D8A9UQO8S","3P7RGTLO6EZ76AO3386R8ZK9IWWKAW","","null","<img src=""img/food6.png"" style=""width:200px; border:14px solid green;"">","null","","","","","","","","","",""
"","image-keyboard-response","303","231467","0.0-361.0","3C6FJU71TRFOR8PC4UTB6R72VVWUYZ","AIC2D8A9UQO8S","3P7RGTLO6EZ76AO3386R8ZK9IWWKAW","","494","img/food1.png","74","494","1","1","3","2","1,0.5,0,1,0.5,0,0.5,0,1","0,1,0.5,0,1,0.5,1,0.5,0","3","false",""
"","html-keyboard-response","304","231769","0.0-362.0","3C6FJU71TRFOR8PC4UTB6R72VVWUYZ","AIC2D8A9UQO8S","3P7RGTLO6EZ76AO3386R8ZK9IWWKAW","","null","<img src=""img/food1.png"" style=""width:200px; border:14px solid green;"">","null","","","","","","","","","",""
"","image-keyboard-response","305","232313","0.0-364.0","3C6FJU71TRFOR8PC4UTB6R72VVWUYZ","AIC2D8A9UQO8S","3P7RGTLO6EZ76AO3386R8ZK9IWWKAW","","544","img/food6.png","75","545","2","1","1","2","1,0.5,0,1,0.5,0,0.5,0,1","0,1,0.5,0,1,0.5,1,0.5,0","3","false",""
"","html-keyboard-response","306","232623","0.0-365.0","3C6FJU71TRFOR8PC4UTB6R72VVWUYZ","AIC2D8A9UQO8S","3P7RGTLO6EZ76AO3386R8ZK9IWWKAW","","null","<img src=""img/food6.png"" style=""width:200px; border:14px solid green;"">","null","","","","","","","","","",""
"","image-keyboard-response","307","233234","0.0-367.0","3C6FJU71TRFOR8PC4UTB6R72VVWUYZ","AIC2D8A9UQO8S","3P7RGTLO6EZ76AO3386R8ZK9IWWKAW","","610","img/food1.png","74","611","1","1","3","2","1,0.5,0,1,0.5,0,0.5,0,1","0,1,0.5,0,1,0.5,1,0.5,0","3","false",""
"","html-keyboard-response","308","233549","0.0-368.0","3C6FJU71TRFOR8PC4UTB6R72VVWUYZ","AIC2D8A9UQO8S","3P7RGTLO6EZ76AO3386R8ZK9IWWKAW","","null","<img src=""img/food1.png"" style=""width:200px; border:14px solid green;"">","null","","","","","","","","","",""
"","image-keyboard-response","309","233954","0.0-370.0","3C6FJU71TRFOR8PC4UTB6R72VVWUYZ","AIC2D8A9UQO8S","3P7RGTLO6EZ76AO3386R8ZK9IWWKAW","","404","img/food1.png","74","405","1","1","3","2","1,0.5,0,1,0.5,0,0.5,0,1","0,1,0.5,0,1,0.5,1,0.5,0","3","false",""
"","html-keyboard-response","310","234267","0.0-371.0","3C6FJU71TRFOR8PC4UTB6R72VVWUYZ","AIC2D8A9UQO8S","3P7RGTLO6EZ76AO3386R8ZK9IWWKAW","","null","<img src=""img/food1.png"" style=""width:200px; border:14px solid green;"">","null","","","","","","","","","",""
"","image-keyboard-response","311","234838","0.0-373.0","3C6FJU71TRFOR8PC4UTB6R72VVWUYZ","AIC2D8A9UQO8S","3P7RGTLO6EZ76AO3386R8ZK9IWWKAW","","572","img/food6.png","75","572","2","1","1","2","1,0.5,0,1,0.5,0,0.5,0,1","0,1,0.5,0,1,0.5,1,0.5,0","3","false",""
"","html-keyboard-response","312","235143","0.0-374.0","3C6FJU71TRFOR8PC4UTB6R72VVWUYZ","AIC2D8A9UQO8S","3P7RGTLO6EZ76AO3386R8ZK9IWWKAW","","null","<img src=""img/food6.png"" style=""width:200px; border:14px solid green;"">","null","","","","","","","","","",""
"","image-keyboard-response","313","235631","0.0-376.0","3C6FJU71TRFOR8PC4UTB6R72VVWUYZ","AIC2D8A9UQO8S","3P7RGTLO6EZ76AO3386R8ZK9IWWKAW","","487","img/food1.png","74","487","1","1","3","2","1,0.5,0,1,0.5,0,0.5,0,1","0,1,0.5,0,1,0.5,1,0.5,0","3","false",""
"","html-keyboard-response","314","235946","0.0-377.0","3C6FJU71TRFOR8PC4UTB6R72VVWUYZ","AIC2D8A9UQO8S","3P7RGTLO6EZ76AO3386R8ZK9IWWKAW","","null","<img src=""img/food1.png"" style=""width:200px; border:14px solid green;"">","null","","","","","","","","","",""
"","image-keyboard-response","315","236581","0.0-379.0","3C6FJU71TRFOR8PC4UTB6R72VVWUYZ","AIC2D8A9UQO8S","3P7RGTLO6EZ76AO3386R8ZK9IWWKAW","","635","img/food2.png","75","635","2","1","2","2","1,0.5,0,1,0.5,0,0.5,0,1","0,1,0.5,0,1,0.5,1,0.5,0","3","false",""
"","html-keyboard-response","316","236887","0.0-380.0","3C6FJU71TRFOR8PC4UTB6R72VVWUYZ","AIC2D8A9UQO8S","3P7RGTLO6EZ76AO3386R8ZK9IWWKAW","","null","<img src=""img/food2.png"" style=""width:200px; border:14px solid green;"">","null","","","","","","","","","",""
"","image-keyboard-response","317","237414","0.0-382.0","3C6FJU71TRFOR8PC4UTB6R72VVWUYZ","AIC2D8A9UQO8S","3P7RGTLO6EZ76AO3386R8ZK9IWWKAW","","525","img/food1.png","74","526","1","1","3","2","1,0.5,0,1,0.5,0,0.5,0,1","0,1,0.5,0,1,0.5,1,0.5,0","3","false",""
"","html-keyboard-response","318","237717","0.0-383.0","3C6FJU71TRFOR8PC4UTB6R72VVWUYZ","AIC2D8A9UQO8S","3P7RGTLO6EZ76AO3386R8ZK9IWWKAW","","null","<img src=""img/food1.png"" style=""width:200px; border:14px solid green;"">","null","","","","","","","","","",""
"","image-keyboard-response","319","238288","0.0-385.0","3C6FJU71TRFOR8PC4UTB6R72VVWUYZ","AIC2D8A9UQO8S","3P7RGTLO6EZ76AO3386R8ZK9IWWKAW","","569","img/food6.png","75","569","2","1","1","2","1,0.5,0,1,0.5,0,0.5,0,1","0,1,0.5,0,1,0.5,1,0.5,0","3","false",""
"","html-keyboard-response","320","238595","0.0-386.0","3C6FJU71TRFOR8PC4UTB6R72VVWUYZ","AIC2D8A9UQO8S","3P7RGTLO6EZ76AO3386R8ZK9IWWKAW","","null","<img src=""img/food6.png"" style=""width:200px; border:14px solid green;"">","null","","","","","","","","","",""
"","image-keyboard-response","321","239054","0.0-388.0","3C6FJU71TRFOR8PC4UTB6R72VVWUYZ","AIC2D8A9UQO8S","3P7RGTLO6EZ76AO3386R8ZK9IWWKAW","","458","img/food1.png","74","458","1","1","3","2","1,0.5,0,1,0.5,0,0.5,0,1","0,1,0.5,0,1,0.5,1,0.5,0","3","false",""
"","html-keyboard-response","322","239358","0.0-389.0","3C6FJU71TRFOR8PC4UTB6R72VVWUYZ","AIC2D8A9UQO8S","3P7RGTLO6EZ76AO3386R8ZK9IWWKAW","","null","<img src=""img/food1.png"" style=""width:200px; border:14px solid green;"">","null","","","","","","","","","",""
"","image-keyboard-response","323","239978","0.0-391.0","3C6FJU71TRFOR8PC4UTB6R72VVWUYZ","AIC2D8A9UQO8S","3P7RGTLO6EZ76AO3386R8ZK9IWWKAW","","619","img/food2.png","75","620","2","1","2","2","1,0.5,0,1,0.5,0,0.5,0,1","0,1,0.5,0,1,0.5,1,0.5,0","3","false",""
"","html-keyboard-response","324","240281","0.0-392.0","3C6FJU71TRFOR8PC4UTB6R72VVWUYZ","AIC2D8A9UQO8S","3P7RGTLO6EZ76AO3386R8ZK9IWWKAW","","null","<img src=""img/food2.png"" style=""width:200px; border:14px solid green;"">","null","","","","","","","","","",""
"","image-keyboard-response","325","240970","0.0-394.0","3C6FJU71TRFOR8PC4UTB6R72VVWUYZ","AIC2D8A9UQO8S","3P7RGTLO6EZ76AO3386R8ZK9IWWKAW","","688","img/food1.png","74","689","1","1","3","2","1,0.5,0,1,0.5,0,0.5,0,1","0,1,0.5,0,1,0.5,1,0.5,0","3","false",""
"","html-keyboard-response","326","241279","0.0-395.0","3C6FJU71TRFOR8PC4UTB6R72VVWUYZ","AIC2D8A9UQO8S","3P7RGTLO6EZ76AO3386R8ZK9IWWKAW","","null","<img src=""img/food1.png"" style=""width:200px; border:14px solid green;"">","null","","","","","","","","","",""
"","image-keyboard-response","327","241711","0.0-397.0","3C6FJU71TRFOR8PC4UTB6R72VVWUYZ","AIC2D8A9UQO8S","3P7RGTLO6EZ76AO3386R8ZK9IWWKAW","","431","img/food1.png","74","431","1","1","3","2","1,0.5,0,1,0.5,0,0.5,0,1","0,1,0.5,0,1,0.5,1,0.5,0","3","false",""
"","html-keyboard-response","328","242023","0.0-398.0","3C6FJU71TRFOR8PC4UTB6R72VVWUYZ","AIC2D8A9UQO8S","3P7RGTLO6EZ76AO3386R8ZK9IWWKAW","","null","<img src=""img/food1.png"" style=""width:200px; border:14px solid green;"">","null","","","","","","","","","",""
"","image-keyboard-response","329","242437","0.0-400.0","3C6FJU71TRFOR8PC4UTB6R72VVWUYZ","AIC2D8A9UQO8S","3P7RGTLO6EZ76AO3386R8ZK9IWWKAW","","414","img/food2.png","75","414","2","1","2","2","1,0.5,0,1,0.5,0,0.5,0,1","0,1,0.5,0,1,0.5,1,0.5,0","3","false",""
"","html-keyboard-response","330","242749","0.0-401.0","3C6FJU71TRFOR8PC4UTB6R72VVWUYZ","AIC2D8A9UQO8S","3P7RGTLO6EZ76AO3386R8ZK9IWWKAW","","null","<img src=""img/food2.png"" style=""width:200px; border:14px solid green;"">","null","","","","","","","","","",""
"","image-keyboard-response","331","243162","0.0-403.0","3C6FJU71TRFOR8PC4UTB6R72VVWUYZ","AIC2D8A9UQO8S","3P7RGTLO6EZ76AO3386R8ZK9IWWKAW","","413","img/food2.png","75","414","2","1","2","2","1,0.5,0,1,0.5,0,0.5,0,1","0,1,0.5,0,1,0.5,1,0.5,0","3","false",""
"","html-keyboard-response","332","243475","0.0-404.0","3C6FJU71TRFOR8PC4UTB6R72VVWUYZ","AIC2D8A9UQO8S","3P7RGTLO6EZ76AO3386R8ZK9IWWKAW","","null","<img src=""img/food2.png"" style=""width:200px; border:14px solid green;"">","null","","","","","","","","","",""
"","image-keyboard-response","333","244061","0.0-406.0","3C6FJU71TRFOR8PC4UTB6R72VVWUYZ","AIC2D8A9UQO8S","3P7RGTLO6EZ76AO3386R8ZK9IWWKAW","","587","img/food1.png","74","587","1","1","3","2","1,0.5,0,1,0.5,0,0.5,0,1","0,1,0.5,0,1,0.5,1,0.5,0","3","false",""
"","html-keyboard-response","334","244366","0.0-407.0","3C6FJU71TRFOR8PC4UTB6R72VVWUYZ","AIC2D8A9UQO8S","3P7RGTLO6EZ76AO3386R8ZK9IWWKAW","","null","<img src=""img/food1.png"" style=""width:200px; border:14px solid green;"">","null","","","","","","","","","",""
"","image-keyboard-response","335","245022","0.0-409.0","3C6FJU71TRFOR8PC4UTB6R72VVWUYZ","AIC2D8A9UQO8S","3P7RGTLO6EZ76AO3386R8ZK9IWWKAW","","655","img/food2.png","75","655","2","1","2","2","1,0.5,0,1,0.5,0,0.5,0,1","0,1,0.5,0,1,0.5,1,0.5,0","3","false",""
"","html-keyboard-response","336","245327","0.0-410.0","3C6FJU71TRFOR8PC4UTB6R72VVWUYZ","AIC2D8A9UQO8S","3P7RGTLO6EZ76AO3386R8ZK9IWWKAW","","null","<img src=""img/food2.png"" style=""width:200px; border:14px solid green;"">","null","","","","","","","","","",""
"","image-keyboard-response","337","245911","0.0-412.0","3C6FJU71TRFOR8PC4UTB6R72VVWUYZ","AIC2D8A9UQO8S","3P7RGTLO6EZ76AO3386R8ZK9IWWKAW","","583","img/food1.png","74","584","1","1","3","2","1,0.5,0,1,0.5,0,0.5,0,1","0,1,0.5,0,1,0.5,1,0.5,0","3","false",""
"","html-keyboard-response","338","246211","0.0-413.0","3C6FJU71TRFOR8PC4UTB6R72VVWUYZ","AIC2D8A9UQO8S","3P7RGTLO6EZ76AO3386R8ZK9IWWKAW","","null","<img src=""img/food1.png"" style=""width:200px; border:14px solid green;"">","null","","","","","","","","","",""
"","image-keyboard-response","339","246789","0.0-415.0","3C6FJU71TRFOR8PC4UTB6R72VVWUYZ","AIC2D8A9UQO8S","3P7RGTLO6EZ76AO3386R8ZK9IWWKAW","","579","img/food2.png","75","579","2","1","2","2","1,0.5,0,1,0.5,0,0.5,0,1","0,1,0.5,0,1,0.5,1,0.5,0","3","false",""
"","html-keyboard-response","340","247095","0.0-416.0","3C6FJU71TRFOR8PC4UTB6R72VVWUYZ","AIC2D8A9UQO8S","3P7RGTLO6EZ76AO3386R8ZK9IWWKAW","","null","<img src=""img/food2.png"" style=""width:200px; border:14px solid green;"">","null","","","","","","","","","",""
"","image-keyboard-response","341","247729","0.0-418.0","3C6FJU71TRFOR8PC4UTB6R72VVWUYZ","AIC2D8A9UQO8S","3P7RGTLO6EZ76AO3386R8ZK9IWWKAW","","633","img/food6.png","74","633","1","0","1","2","1,0.5,0,1,0.5,0,0.5,0,1","0,1,0.5,0,1,0.5,1,0.5,0","3","false",""
"","html-keyboard-response","342","248045","0.0-419.0","3C6FJU71TRFOR8PC4UTB6R72VVWUYZ","AIC2D8A9UQO8S","3P7RGTLO6EZ76AO3386R8ZK9IWWKAW","","null","<img src=""img/food6.png"" style=""width:200px;border:14px solid red;"">","null","","","","","","","","","",""
"","image-keyboard-response","343","248789","0.0-421.0","3C6FJU71TRFOR8PC4UTB6R72VVWUYZ","AIC2D8A9UQO8S","3P7RGTLO6EZ76AO3386R8ZK9IWWKAW","","744","img/food2.png","75","744","2","1","2","2","1,0.5,0,1,0.5,0,0.5,0,1","0,1,0.5,0,1,0.5,1,0.5,0","3","false",""
"","html-keyboard-response","344","249100","0.0-422.0","3C6FJU71TRFOR8PC4UTB6R72VVWUYZ","AIC2D8A9UQO8S","3P7RGTLO6EZ76AO3386R8ZK9IWWKAW","","null","<img src=""img/food2.png"" style=""width:200px; border:14px solid green;"">","null","","","","","","","","","",""
"","image-keyboard-response","345","249784","0.0-424.0","3C6FJU71TRFOR8PC4UTB6R72VVWUYZ","AIC2D8A9UQO8S","3P7RGTLO6EZ76AO3386R8ZK9IWWKAW","","683","img/food1.png","74","683","1","1","3","2","1,0.5,0,1,0.5,0,0.5,0,1","0,1,0.5,0,1,0.5,1,0.5,0","3","false",""
"","html-keyboard-response","346","250109","0.0-425.0","3C6FJU71TRFOR8PC4UTB6R72VVWUYZ","AIC2D8A9UQO8S","3P7RGTLO6EZ76AO3386R8ZK9IWWKAW","","null","<img src=""img/food1.png"" style=""width:200px; border:14px solid green;"">","null","","","","","","","","","",""
"","image-keyboard-response","347","250672","0.0-427.0","3C6FJU71TRFOR8PC4UTB6R72VVWUYZ","AIC2D8A9UQO8S","3P7RGTLO6EZ76AO3386R8ZK9IWWKAW","","563","img/food6.png","75","563","2","1","1","2","1,0.5,0,1,0.5,0,0.5,0,1","0,1,0.5,0,1,0.5,1,0.5,0","3","false",""
"","html-keyboard-response","348","250977","0.0-428.0","3C6FJU71TRFOR8PC4UTB6R72VVWUYZ","AIC2D8A9UQO8S","3P7RGTLO6EZ76AO3386R8ZK9IWWKAW","","null","<img src=""img/food6.png"" style=""width:200px; border:14px solid green;"">","null","","","","","","","","","",""
"","image-keyboard-response","349","251598","0.0-430.0","3C6FJU71TRFOR8PC4UTB6R72VVWUYZ","AIC2D8A9UQO8S","3P7RGTLO6EZ76AO3386R8ZK9IWWKAW","","621","img/food2.png","75","621","2","1","2","2","1,0.5,0,1,0.5,0,0.5,0,1","0,1,0.5,0,1,0.5,1,0.5,0","3","false",""
"","html-keyboard-response","350","251910","0.0-431.0","3C6FJU71TRFOR8PC4UTB6R72VVWUYZ","AIC2D8A9UQO8S","3P7RGTLO6EZ76AO3386R8ZK9IWWKAW","","null","<img src=""img/food2.png"" style=""width:200px; border:14px solid green;"">","null","","","","","","","","","",""
"","image-keyboard-response","351","252263","0.0-433.0","3C6FJU71TRFOR8PC4UTB6R72VVWUYZ","AIC2D8A9UQO8S","3P7RGTLO6EZ76AO3386R8ZK9IWWKAW","","352","img/food2.png","75","353","2","1","2","2","1,0.5,0,1,0.5,0,0.5,0,1","0,1,0.5,0,1,0.5,1,0.5,0","3","false",""
"","html-keyboard-response","352","252577","0.0-434.0","3C6FJU71TRFOR8PC4UTB6R72VVWUYZ","AIC2D8A9UQO8S","3P7RGTLO6EZ76AO3386R8ZK9IWWKAW","","null","<img src=""img/food2.png"" style=""width:200px; border:14px solid green;"">","null","","","","","","","","","",""
"","image-keyboard-response","353","253167","0.0-436.0","3C6FJU71TRFOR8PC4UTB6R72VVWUYZ","AIC2D8A9UQO8S","3P7RGTLO6EZ76AO3386R8ZK9IWWKAW","","588","img/food6.png","75","589","2","1","1","2","1,0.5,0,1,0.5,0,0.5,0,1","0,1,0.5,0,1,0.5,1,0.5,0","3","false",""
"","html-keyboard-response","354","253469","0.0-437.0","3C6FJU71TRFOR8PC4UTB6R72VVWUYZ","AIC2D8A9UQO8S","3P7RGTLO6EZ76AO3386R8ZK9IWWKAW","","null","<img src=""img/food6.png"" style=""width:200px; border:14px solid green;"">","null","","","","","","","","","",""
"","image-keyboard-response","355","254286","0.0-439.0","3C6FJU71TRFOR8PC4UTB6R72VVWUYZ","AIC2D8A9UQO8S","3P7RGTLO6EZ76AO3386R8ZK9IWWKAW","","815","img/food1.png","74","816","1","1","3","2","1,0.5,0,1,0.5,0,0.5,0,1","0,1,0.5,0,1,0.5,1,0.5,0","3","false",""
"","html-keyboard-response","356","254598","0.0-440.0","3C6FJU71TRFOR8PC4UTB6R72VVWUYZ","AIC2D8A9UQO8S","3P7RGTLO6EZ76AO3386R8ZK9IWWKAW","","null","<img src=""img/food1.png"" style=""width:200px; border:14px solid green;"">","null","","","","","","","","","",""
"","image-keyboard-response","357","255139","0.0-442.0","3C6FJU71TRFOR8PC4UTB6R72VVWUYZ","AIC2D8A9UQO8S","3P7RGTLO6EZ76AO3386R8ZK9IWWKAW","","540","img/food6.png","75","541","2","1","1","2","1,0.5,0,1,0.5,0,0.5,0,1","0,1,0.5,0,1,0.5,1,0.5,0","3","false",""
"","html-keyboard-response","358","255444","0.0-443.0","3C6FJU71TRFOR8PC4UTB6R72VVWUYZ","AIC2D8A9UQO8S","3P7RGTLO6EZ76AO3386R8ZK9IWWKAW","","null","<img src=""img/food6.png"" style=""width:200px; border:14px solid green;"">","null","","","","","","","","","",""
"","image-keyboard-response","359","256155","0.0-445.0","3C6FJU71TRFOR8PC4UTB6R72VVWUYZ","AIC2D8A9UQO8S","3P7RGTLO6EZ76AO3386R8ZK9IWWKAW","","712","img/food1.png","74","713","1","1","3","2","1,0.5,0,1,0.5,0,0.5,0,1","0,1,0.5,0,1,0.5,1,0.5,0","3","false",""
"","html-keyboard-response","360","256458","0.0-446.0","3C6FJU71TRFOR8PC4UTB6R72VVWUYZ","AIC2D8A9UQO8S","3P7RGTLO6EZ76AO3386R8ZK9IWWKAW","","null","<img src=""img/food1.png"" style=""width:200px; border:14px solid green;"">","null","","","","","","","","","",""
"","image-keyboard-response","361","256962","0.0-448.0","3C6FJU71TRFOR8PC4UTB6R72VVWUYZ","AIC2D8A9UQO8S","3P7RGTLO6EZ76AO3386R8ZK9IWWKAW","","503","img/food6.png","75","505","2","1","1","2","1,0.5,0,1,0.5,0,0.5,0,1","0,1,0.5,0,1,0.5,1,0.5,0","3","false",""
"","html-keyboard-response","362","257265","0.0-449.0","3C6FJU71TRFOR8PC4UTB6R72VVWUYZ","AIC2D8A9UQO8S","3P7RGTLO6EZ76AO3386R8ZK9IWWKAW","","null","<img src=""img/food6.png"" style=""width:200px; border:14px solid green;"">","null","","","","","","","","","",""
"","image-keyboard-response","363","257761","0.0-451.0","3C6FJU71TRFOR8PC4UTB6R72VVWUYZ","AIC2D8A9UQO8S","3P7RGTLO6EZ76AO3386R8ZK9IWWKAW","","496","img/food6.png","75","496","2","1","1","2","1,0.5,0,1,0.5,0,0.5,0,1","0,1,0.5,0,1,0.5,1,0.5,0","3","false",""
"","html-keyboard-response","364","258073","0.0-452.0","3C6FJU71TRFOR8PC4UTB6R72VVWUYZ","AIC2D8A9UQO8S","3P7RGTLO6EZ76AO3386R8ZK9IWWKAW","","null","<img src=""img/food6.png"" style=""width:200px; border:14px solid green;"">","null","","","","","","","","","",""
"","instructions","365","263231","0.0-454.0","3C6FJU71TRFOR8PC4UTB6R72VVWUYZ","AIC2D8A9UQO8S","3P7RGTLO6EZ76AO3386R8ZK9IWWKAW","[{""page_index"":0,""viewing_time"":5156}]","5156","","","","","","","","","","","",""
"","survey-text","366","275170","0.0-455.0","3C6FJU71TRFOR8PC4UTB6R72VVWUYZ","AIC2D8A9UQO8S","3P7RGTLO6EZ76AO3386R8ZK9IWWKAW","","11937","","","","","","","","","","","","{""Q0"":""AIC2D8A9UQO8S""}"
