"success","trial_type","trial_index","time_elapsed","internal_node_id","assignmentID","mturkID","hitID","view_history","rt","stimulus","key_press","reactionTime","a","r","s","reward_cond","responses"
"true","fullscreen","0","2193","0.0-0.0","3FIUS151DWO50Z3HQJIOVCZ7DCXGGV","AIEKCWYZTS41V","3S829FDFT2NBOHQMM1CIOU0HZYXDXL","","","","","","","","","",""
"","instructions","1","18833","0.0-1.0","3FIUS151DWO50Z3HQJIOVCZ7DCXGGV","AIEKCWYZTS41V","3S829FDFT2NBOHQMM1CIOU0HZYXDXL","[{""page_index"":0,""viewing_time"":4954.100000008941},{""page_index"":1,""viewing_time"":911.8999999910593},{""page_index"":2,""viewing_time"":906.2000000029802},{""page_index"":3,""viewing_time"":1109.1000000089407},{""page_index"":4,""viewing_time"":2389.2999999970198},{""page_index"":5,""viewing_time"":1299.0999999940395},{""page_index"":6,""viewing_time"":5069.600000008941}]","16639.40000000596","","","","","","","",""
"","image-keyboard-response","2","19853","0.0-2.0","3FIUS151DWO50Z3HQJIOVCZ7DCXGGV","AIEKCWYZTS41V","3S829FDFT2NBOHQMM1CIOU0HZYXDXL","","1018.7000000029802","img/food1.png","75","1019.2999999970198","2","1","1","0.8,0.5,0,0.8,0,0.5,0.5,0.8,0,0,0.8,0.5",""
"","html-keyboard-response","3","20168","0.0-3.0","3FIUS151DWO50Z3HQJIOVCZ7DCXGGV","AIEKCWYZTS41V","3S829FDFT2NBOHQMM1CIOU0HZYXDXL","","null","<img src=""img/food1.png"" style=""width:200px; border:14px solid green;"">","null","","","","","",""
"","image-keyboard-response","4","20813","0.0-4.0","3FIUS151DWO50Z3HQJIOVCZ7DCXGGV","AIEKCWYZTS41V","3S829FDFT2NBOHQMM1CIOU0HZYXDXL","","644.2999999970198","img/food2.png","76","644.5999999940395","3","0","2","0.8,0.5,0,0.8,0,0.5,0.5,0.8,0,0,0.8,0.5",""
"","html-keyboard-response","5","21121","0.0-5.0","3FIUS151DWO50Z3HQJIOVCZ7DCXGGV","AIEKCWYZTS41V","3S829FDFT2NBOHQMM1CIOU0HZYXDXL","","null","<img src=""img/food2.png"" style=""width:200px;border:14px solid red;"">","null","","","","","",""
"","image-keyboard-response","6","21652","0.0-6.0","3FIUS151DWO50Z3HQJIOVCZ7DCXGGV","AIEKCWYZTS41V","3S829FDFT2NBOHQMM1CIOU0HZYXDXL","","531.3000000119209","img/food1.png","75","531.5","2","0","1","0.8,0.5,0,0.8,0,0.5,0.5,0.8,0,0,0.8,0.5",""
"","html-keyboard-response","7","21958","0.0-7.0","3FIUS151DWO50Z3HQJIOVCZ7DCXGGV","AIEKCWYZTS41V","3S829FDFT2NBOHQMM1CIOU0HZYXDXL","","null","<img src=""img/food1.png"" style=""width:200px;border:14px solid red;"">","null","","","","","",""
"","image-keyboard-response","8","22627","0.0-8.0","3FIUS151DWO50Z3HQJIOVCZ7DCXGGV","AIEKCWYZTS41V","3S829FDFT2NBOHQMM1CIOU0HZYXDXL","","668.0999999940395","img/food2.png","76","668.5999999940395","3","1","2","0.8,0.5,0,0.8,0,0.5,0.5,0.8,0,0,0.8,0.5",""
"","html-keyboard-response","9","22942","0.0-9.0","3FIUS151DWO50Z3HQJIOVCZ7DCXGGV","AIEKCWYZTS41V","3S829FDFT2NBOHQMM1CIOU0HZYXDXL","","null","<img src=""img/food2.png"" style=""width:200px; border:14px solid green;"">","null","","","","","",""
"","image-keyboard-response","10","23545","0.0-10.0","3FIUS151DWO50Z3HQJIOVCZ7DCXGGV","AIEKCWYZTS41V","3S829FDFT2NBOHQMM1CIOU0HZYXDXL","","601.7999999970198","img/food5.png","74","602.1000000089407","1","0","3","0.8,0.5,0,0.8,0,0.5,0.5,0.8,0,0,0.8,0.5",""
"","html-keyboard-response","11","23858","0.0-11.0","3FIUS151DWO50Z3HQJIOVCZ7DCXGGV","AIEKCWYZTS41V","3S829FDFT2NBOHQMM1CIOU0HZYXDXL","","null","<img src=""img/food5.png"" style=""width:200px;border:14px solid red;"">","null","","","","","",""
"","image-keyboard-response","12","24560","0.0-12.0","3FIUS151DWO50Z3HQJIOVCZ7DCXGGV","AIEKCWYZTS41V","3S829FDFT2NBOHQMM1CIOU0HZYXDXL","","701","img/food1.png","75","701.5","2","1","1","0.8,0.5,0,0.8,0,0.5,0.5,0.8,0,0,0.8,0.5",""
"","html-keyboard-response","13","24869","0.0-13.0","3FIUS151DWO50Z3HQJIOVCZ7DCXGGV","AIEKCWYZTS41V","3S829FDFT2NBOHQMM1CIOU0HZYXDXL","","null","<img src=""img/food1.png"" style=""width:200px; border:14px solid green;"">","null","","","","","",""
"","image-keyboard-response","14","25829","0.0-14.0","3FIUS151DWO50Z3HQJIOVCZ7DCXGGV","AIEKCWYZTS41V","3S829FDFT2NBOHQMM1CIOU0HZYXDXL","","959.3000000119209","img/food5.png","76","959.5999999940395","3","0","3","0.8,0.5,0,0.8,0,0.5,0.5,0.8,0,0,0.8,0.5",""
"","html-keyboard-response","15","26137","0.0-15.0","3FIUS151DWO50Z3HQJIOVCZ7DCXGGV","AIEKCWYZTS41V","3S829FDFT2NBOHQMM1CIOU0HZYXDXL","","null","<img src=""img/food5.png"" style=""width:200px;border:14px solid red;"">","null","","","","","",""
"","image-keyboard-response","16","26714","0.0-16.0","3FIUS151DWO50Z3HQJIOVCZ7DCXGGV","AIEKCWYZTS41V","3S829FDFT2NBOHQMM1CIOU0HZYXDXL","","577","img/food1.png","75","577.4000000059605","2","0","1","0.8,0.5,0,0.8,0,0.5,0.5,0.8,0,0,0.8,0.5",""
"","html-keyboard-response","17","27029","0.0-17.0","3FIUS151DWO50Z3HQJIOVCZ7DCXGGV","AIEKCWYZTS41V","3S829FDFT2NBOHQMM1CIOU0HZYXDXL","","null","<img src=""img/food1.png"" style=""width:200px;border:14px solid red;"">","null","","","","","",""
"","image-keyboard-response","18","27765","0.0-18.0","3FIUS151DWO50Z3HQJIOVCZ7DCXGGV","AIEKCWYZTS41V","3S829FDFT2NBOHQMM1CIOU0HZYXDXL","","735.5999999940395","img/food5.png","76","736","3","0","3","0.8,0.5,0,0.8,0,0.5,0.5,0.8,0,0,0.8,0.5",""
"","html-keyboard-response","19","28070","0.0-19.0","3FIUS151DWO50Z3HQJIOVCZ7DCXGGV","AIEKCWYZTS41V","3S829FDFT2NBOHQMM1CIOU0HZYXDXL","","null","<img src=""img/food5.png"" style=""width:200px;border:14px solid red;"">","null","","","","","",""
"","image-keyboard-response","20","28494","0.0-20.0","3FIUS151DWO50Z3HQJIOVCZ7DCXGGV","AIEKCWYZTS41V","3S829FDFT2NBOHQMM1CIOU0HZYXDXL","","423.5","img/food5.png","74","423.8999999910593","1","1","3","0.8,0.5,0,0.8,0,0.5,0.5,0.8,0,0,0.8,0.5",""
"","html-keyboard-response","21","28804","0.0-21.0","3FIUS151DWO50Z3HQJIOVCZ7DCXGGV","AIEKCWYZTS41V","3S829FDFT2NBOHQMM1CIOU0HZYXDXL","","null","<img src=""img/food5.png"" style=""width:200px; border:14px solid green;"">","null","","","","","",""
"","image-keyboard-response","22","29561","0.0-22.0","3FIUS151DWO50Z3HQJIOVCZ7DCXGGV","AIEKCWYZTS41V","3S829FDFT2NBOHQMM1CIOU0HZYXDXL","","755.5","img/food2.png","76","756.1999999880791","3","0","2","0.8,0.5,0,0.8,0,0.5,0.5,0.8,0,0,0.8,0.5",""
"","html-keyboard-response","23","29865","0.0-23.0","3FIUS151DWO50Z3HQJIOVCZ7DCXGGV","AIEKCWYZTS41V","3S829FDFT2NBOHQMM1CIOU0HZYXDXL","","null","<img src=""img/food2.png"" style=""width:200px;border:14px solid red;"">","null","","","","","",""
"","image-keyboard-response","24","30389","0.0-24.0","3FIUS151DWO50Z3HQJIOVCZ7DCXGGV","AIEKCWYZTS41V","3S829FDFT2NBOHQMM1CIOU0HZYXDXL","","523.7999999970198","img/food1.png","75","524.0999999940395","2","0","1","0.8,0.5,0,0.8,0,0.5,0.5,0.8,0,0,0.8,0.5",""
"","html-keyboard-response","25","30691","0.0-25.0","3FIUS151DWO50Z3HQJIOVCZ7DCXGGV","AIEKCWYZTS41V","3S829FDFT2NBOHQMM1CIOU0HZYXDXL","","null","<img src=""img/food1.png"" style=""width:200px;border:14px solid red;"">","null","","","","","",""
"","image-keyboard-response","26","31187","0.0-26.0","3FIUS151DWO50Z3HQJIOVCZ7DCXGGV","AIEKCWYZTS41V","3S829FDFT2NBOHQMM1CIOU0HZYXDXL","","495.20000000298023","img/food1.png","76","495.59999999403954","3","0","1","0.8,0.5,0,0.8,0,0.5,0.5,0.8,0,0,0.8,0.5",""
"","html-keyboard-response","27","31488","0.0-27.0","3FIUS151DWO50Z3HQJIOVCZ7DCXGGV","AIEKCWYZTS41V","3S829FDFT2NBOHQMM1CIOU0HZYXDXL","","null","<img src=""img/food1.png"" style=""width:200px;border:14px solid red;"">","null","","","","","",""
"","image-keyboard-response","28","32283","0.0-28.0","3FIUS151DWO50Z3HQJIOVCZ7DCXGGV","AIEKCWYZTS41V","3S829FDFT2NBOHQMM1CIOU0HZYXDXL","","794.5","img/food2.png","75","794.7999999970198","2","0","2","0.8,0.5,0,0.8,0,0.5,0.5,0.8,0,0,0.8,0.5",""
"","html-keyboard-response","29","32584","0.0-29.0","3FIUS151DWO50Z3HQJIOVCZ7DCXGGV","AIEKCWYZTS41V","3S829FDFT2NBOHQMM1CIOU0HZYXDXL","","null","<img src=""img/food2.png"" style=""width:200px;border:14px solid red;"">","null","","","","","",""
"","image-keyboard-response","30","33506","0.0-30.0","3FIUS151DWO50Z3HQJIOVCZ7DCXGGV","AIEKCWYZTS41V","3S829FDFT2NBOHQMM1CIOU0HZYXDXL","","921.3000000119209","img/food1.png","75","921.5999999940395","2","1","1","0.8,0.5,0,0.8,0,0.5,0.5,0.8,0,0,0.8,0.5",""
"","html-keyboard-response","31","33808","0.0-31.0","3FIUS151DWO50Z3HQJIOVCZ7DCXGGV","AIEKCWYZTS41V","3S829FDFT2NBOHQMM1CIOU0HZYXDXL","","null","<img src=""img/food1.png"" style=""width:200px; border:14px solid green;"">","null","","","","","",""
"","image-keyboard-response","32","34385","0.0-32.0","3FIUS151DWO50Z3HQJIOVCZ7DCXGGV","AIEKCWYZTS41V","3S829FDFT2NBOHQMM1CIOU0HZYXDXL","","577.0999999940395","img/food2.png","76","577.4000000059605","3","0","2","0.8,0.5,0,0.8,0,0.5,0.5,0.8,0,0,0.8,0.5",""
"","html-keyboard-response","33","34686","0.0-33.0","3FIUS151DWO50Z3HQJIOVCZ7DCXGGV","AIEKCWYZTS41V","3S829FDFT2NBOHQMM1CIOU0HZYXDXL","","null","<img src=""img/food2.png"" style=""width:200px;border:14px solid red;"">","null","","","","","",""
"","image-keyboard-response","34","35201","0.0-34.0","3FIUS151DWO50Z3HQJIOVCZ7DCXGGV","AIEKCWYZTS41V","3S829FDFT2NBOHQMM1CIOU0HZYXDXL","","515.2000000029802","img/food1.png","75","515.6000000089407","2","1","1","0.8,0.5,0,0.8,0,0.5,0.5,0.8,0,0,0.8,0.5",""
"","html-keyboard-response","35","35502","0.0-35.0","3FIUS151DWO50Z3HQJIOVCZ7DCXGGV","AIEKCWYZTS41V","3S829FDFT2NBOHQMM1CIOU0HZYXDXL","","null","<img src=""img/food1.png"" style=""width:200px; border:14px solid green;"">","null","","","","","",""
"","image-keyboard-response","36","35873","0.0-36.0","3FIUS151DWO50Z3HQJIOVCZ7DCXGGV","AIEKCWYZTS41V","3S829FDFT2NBOHQMM1CIOU0HZYXDXL","","370.29999999701977","img/food1.png","75","370.6000000089407","2","1","1","0.8,0.5,0,0.8,0,0.5,0.5,0.8,0,0,0.8,0.5",""
"","html-keyboard-response","37","36175","0.0-37.0","3FIUS151DWO50Z3HQJIOVCZ7DCXGGV","AIEKCWYZTS41V","3S829FDFT2NBOHQMM1CIOU0HZYXDXL","","null","<img src=""img/food1.png"" style=""width:200px; border:14px solid green;"">","null","","","","","",""
"","image-keyboard-response","38","36709","0.0-38.0","3FIUS151DWO50Z3HQJIOVCZ7DCXGGV","AIEKCWYZTS41V","3S829FDFT2NBOHQMM1CIOU0HZYXDXL","","534","img/food5.png","74","534.2999999970198","1","0","3","0.8,0.5,0,0.8,0,0.5,0.5,0.8,0,0,0.8,0.5",""
"","html-keyboard-response","39","37011","0.0-39.0","3FIUS151DWO50Z3HQJIOVCZ7DCXGGV","AIEKCWYZTS41V","3S829FDFT2NBOHQMM1CIOU0HZYXDXL","","null","<img src=""img/food5.png"" style=""width:200px;border:14px solid red;"">","null","","","","","",""
"","image-keyboard-response","40","38131","0.0-40.0","3FIUS151DWO50Z3HQJIOVCZ7DCXGGV","AIEKCWYZTS41V","3S829FDFT2NBOHQMM1CIOU0HZYXDXL","","1120.2999999970198","img/food1.png","76","1120.6000000089407","3","0","1","0.8,0.5,0,0.8,0,0.5,0.5,0.8,0,0,0.8,0.5",""
"","html-keyboard-response","41","38433","0.0-41.0","3FIUS151DWO50Z3HQJIOVCZ7DCXGGV","AIEKCWYZTS41V","3S829FDFT2NBOHQMM1CIOU0HZYXDXL","","null","<img src=""img/food1.png"" style=""width:200px;border:14px solid red;"">","null","","","","","",""
"","image-keyboard-response","42","39358","0.0-42.0","3FIUS151DWO50Z3HQJIOVCZ7DCXGGV","AIEKCWYZTS41V","3S829FDFT2NBOHQMM1CIOU0HZYXDXL","","923.7000000029802","img/food2.png","76","924.0999999940395","3","1","2","0.8,0.5,0,0.8,0,0.5,0.5,0.8,0,0,0.8,0.5",""
"","html-keyboard-response","43","39659","0.0-43.0","3FIUS151DWO50Z3HQJIOVCZ7DCXGGV","AIEKCWYZTS41V","3S829FDFT2NBOHQMM1CIOU0HZYXDXL","","null","<img src=""img/food2.png"" style=""width:200px; border:14px solid green;"">","null","","","","","",""
"","image-keyboard-response","44","40675","0.0-44.0","3FIUS151DWO50Z3HQJIOVCZ7DCXGGV","AIEKCWYZTS41V","3S829FDFT2NBOHQMM1CIOU0HZYXDXL","","1015.1000000089407","img/food5.png","74","1015.3999999910593","1","1","3","0.8,0.5,0,0.8,0,0.5,0.5,0.8,0,0,0.8,0.5",""
"","html-keyboard-response","45","40976","0.0-45.0","3FIUS151DWO50Z3HQJIOVCZ7DCXGGV","AIEKCWYZTS41V","3S829FDFT2NBOHQMM1CIOU0HZYXDXL","","null","<img src=""img/food5.png"" style=""width:200px; border:14px solid green;"">","null","","","","","",""
"","image-keyboard-response","46","41435","0.0-46.0","3FIUS151DWO50Z3HQJIOVCZ7DCXGGV","AIEKCWYZTS41V","3S829FDFT2NBOHQMM1CIOU0HZYXDXL","","458.40000000596046","img/food1.png","75","458.79999999701977","2","1","1","0.8,0.5,0,0.8,0,0.5,0.5,0.8,0,0,0.8,0.5",""
"","html-keyboard-response","47","41737","0.0-47.0","3FIUS151DWO50Z3HQJIOVCZ7DCXGGV","AIEKCWYZTS41V","3S829FDFT2NBOHQMM1CIOU0HZYXDXL","","null","<img src=""img/food1.png"" style=""width:200px; border:14px solid green;"">","null","","","","","",""
"","image-keyboard-response","48","42288","0.0-48.0","3FIUS151DWO50Z3HQJIOVCZ7DCXGGV","AIEKCWYZTS41V","3S829FDFT2NBOHQMM1CIOU0HZYXDXL","","550.9000000059605","img/food1.png","75","551.2999999970198","2","1","1","0.8,0.5,0,0.8,0,0.5,0.5,0.8,0,0,0.8,0.5",""
"","html-keyboard-response","49","42589","0.0-49.0","3FIUS151DWO50Z3HQJIOVCZ7DCXGGV","AIEKCWYZTS41V","3S829FDFT2NBOHQMM1CIOU0HZYXDXL","","null","<img src=""img/food1.png"" style=""width:200px; border:14px solid green;"">","null","","","","","",""
"","image-keyboard-response","50","42908","0.0-50.0","3FIUS151DWO50Z3HQJIOVCZ7DCXGGV","AIEKCWYZTS41V","3S829FDFT2NBOHQMM1CIOU0HZYXDXL","","318","img/food1.png","75","318.29999999701977","2","0","1","0.8,0.5,0,0.8,0,0.5,0.5,0.8,0,0,0.8,0.5",""
"","html-keyboard-response","51","43209","0.0-51.0","3FIUS151DWO50Z3HQJIOVCZ7DCXGGV","AIEKCWYZTS41V","3S829FDFT2NBOHQMM1CIOU0HZYXDXL","","null","<img src=""img/food1.png"" style=""width:200px;border:14px solid red;"">","null","","","","","",""
"","image-keyboard-response","52","43838","0.0-52.0","3FIUS151DWO50Z3HQJIOVCZ7DCXGGV","AIEKCWYZTS41V","3S829FDFT2NBOHQMM1CIOU0HZYXDXL","","628","img/food5.png","74","628.2999999970198","1","1","3","0.8,0.5,0,0.8,0,0.5,0.5,0.8,0,0,0.8,0.5",""
"","html-keyboard-response","53","44139","0.0-53.0","3FIUS151DWO50Z3HQJIOVCZ7DCXGGV","AIEKCWYZTS41V","3S829FDFT2NBOHQMM1CIOU0HZYXDXL","","null","<img src=""img/food5.png"" style=""width:200px; border:14px solid green;"">","null","","","","","",""
"","image-keyboard-response","54","44449","0.0-54.0","3FIUS151DWO50Z3HQJIOVCZ7DCXGGV","AIEKCWYZTS41V","3S829FDFT2NBOHQMM1CIOU0HZYXDXL","","309.59999999403954","img/food5.png","74","309.90000000596046","1","0","3","0.8,0.5,0,0.8,0,0.5,0.5,0.8,0,0,0.8,0.5",""
"","html-keyboard-response","55","44750","0.0-55.0","3FIUS151DWO50Z3HQJIOVCZ7DCXGGV","AIEKCWYZTS41V","3S829FDFT2NBOHQMM1CIOU0HZYXDXL","","null","<img src=""img/food5.png"" style=""width:200px;border:14px solid red;"">","null","","","","","",""
"","image-keyboard-response","56","45282","0.0-56.0","3FIUS151DWO50Z3HQJIOVCZ7DCXGGV","AIEKCWYZTS41V","3S829FDFT2NBOHQMM1CIOU0HZYXDXL","","531.2999999970198","img/food2.png","76","531.7000000029802","3","0","2","0.8,0.5,0,0.8,0,0.5,0.5,0.8,0,0,0.8,0.5",""
"","html-keyboard-response","57","45583","0.0-57.0","3FIUS151DWO50Z3HQJIOVCZ7DCXGGV","AIEKCWYZTS41V","3S829FDFT2NBOHQMM1CIOU0HZYXDXL","","null","<img src=""img/food2.png"" style=""width:200px;border:14px solid red;"">","null","","","","","",""
"","image-keyboard-response","58","46045","0.0-58.0","3FIUS151DWO50Z3HQJIOVCZ7DCXGGV","AIEKCWYZTS41V","3S829FDFT2NBOHQMM1CIOU0HZYXDXL","","461.59999999403954","img/food1.png","75","461.8999999910593","2","1","1","0.8,0.5,0,0.8,0,0.5,0.5,0.8,0,0,0.8,0.5",""
"","html-keyboard-response","59","46347","0.0-59.0","3FIUS151DWO50Z3HQJIOVCZ7DCXGGV","AIEKCWYZTS41V","3S829FDFT2NBOHQMM1CIOU0HZYXDXL","","null","<img src=""img/food1.png"" style=""width:200px; border:14px solid green;"">","null","","","","","",""
"","image-keyboard-response","60","46953","0.0-60.0","3FIUS151DWO50Z3HQJIOVCZ7DCXGGV","AIEKCWYZTS41V","3S829FDFT2NBOHQMM1CIOU0HZYXDXL","","605.5999999940395","img/food2.png","76","605.8999999910593","3","1","2","0.8,0.5,0,0.8,0,0.5,0.5,0.8,0,0,0.8,0.5",""
"","html-keyboard-response","61","47254","0.0-61.0","3FIUS151DWO50Z3HQJIOVCZ7DCXGGV","AIEKCWYZTS41V","3S829FDFT2NBOHQMM1CIOU0HZYXDXL","","null","<img src=""img/food2.png"" style=""width:200px; border:14px solid green;"">","null","","","","","",""
"","image-keyboard-response","62","47764","0.0-62.0","3FIUS151DWO50Z3HQJIOVCZ7DCXGGV","AIEKCWYZTS41V","3S829FDFT2NBOHQMM1CIOU0HZYXDXL","","509","img/food5.png","74","509.5","1","0","3","0.8,0.5,0,0.8,0,0.5,0.5,0.8,0,0,0.8,0.5",""
"","html-keyboard-response","63","48065","0.0-63.0","3FIUS151DWO50Z3HQJIOVCZ7DCXGGV","AIEKCWYZTS41V","3S829FDFT2NBOHQMM1CIOU0HZYXDXL","","null","<img src=""img/food5.png"" style=""width:200px;border:14px solid red;"">","null","","","","","",""
"","image-keyboard-response","64","48388","0.0-64.0","3FIUS151DWO50Z3HQJIOVCZ7DCXGGV","AIEKCWYZTS41V","3S829FDFT2NBOHQMM1CIOU0HZYXDXL","","322.29999999701977","img/food5.png","74","322.8999999910593","1","0","3","0.8,0.5,0,0.8,0,0.5,0.5,0.8,0,0,0.8,0.5",""
"","html-keyboard-response","65","48689","0.0-65.0","3FIUS151DWO50Z3HQJIOVCZ7DCXGGV","AIEKCWYZTS41V","3S829FDFT2NBOHQMM1CIOU0HZYXDXL","","null","<img src=""img/food5.png"" style=""width:200px;border:14px solid red;"">","null","","","","","",""
"","image-keyboard-response","66","49610","0.0-66.0","3FIUS151DWO50Z3HQJIOVCZ7DCXGGV","AIEKCWYZTS41V","3S829FDFT2NBOHQMM1CIOU0HZYXDXL","","920","img/food2.png","76","920.2999999970198","3","0","2","0.8,0.5,0,0.8,0,0.5,0.5,0.8,0,0,0.8,0.5",""
"","html-keyboard-response","67","49911","0.0-67.0","3FIUS151DWO50Z3HQJIOVCZ7DCXGGV","AIEKCWYZTS41V","3S829FDFT2NBOHQMM1CIOU0HZYXDXL","","null","<img src=""img/food2.png"" style=""width:200px;border:14px solid red;"">","null","","","","","",""
"","image-keyboard-response","68","50368","0.0-68.0","3FIUS151DWO50Z3HQJIOVCZ7DCXGGV","AIEKCWYZTS41V","3S829FDFT2NBOHQMM1CIOU0HZYXDXL","","455.90000000596046","img/food1.png","75","456.29999999701977","2","0","1","0.8,0.5,0,0.8,0,0.5,0.5,0.8,0,0,0.8,0.5",""
"","html-keyboard-response","69","50668","0.0-69.0","3FIUS151DWO50Z3HQJIOVCZ7DCXGGV","AIEKCWYZTS41V","3S829FDFT2NBOHQMM1CIOU0HZYXDXL","","null","<img src=""img/food1.png"" style=""width:200px;border:14px solid red;"">","null","","","","","",""
"","image-keyboard-response","70","51458","0.0-70.0","3FIUS151DWO50Z3HQJIOVCZ7DCXGGV","AIEKCWYZTS41V","3S829FDFT2NBOHQMM1CIOU0HZYXDXL","","789","img/food5.png","74","789.2999999970198","1","0","3","0.8,0.5,0,0.8,0,0.5,0.5,0.8,0,0,0.8,0.5",""
"","html-keyboard-response","71","51769","0.0-71.0","3FIUS151DWO50Z3HQJIOVCZ7DCXGGV","AIEKCWYZTS41V","3S829FDFT2NBOHQMM1CIOU0HZYXDXL","","null","<img src=""img/food5.png"" style=""width:200px;border:14px solid red;"">","null","","","","","",""
"","image-keyboard-response","72","52149","0.0-72.0","3FIUS151DWO50Z3HQJIOVCZ7DCXGGV","AIEKCWYZTS41V","3S829FDFT2NBOHQMM1CIOU0HZYXDXL","","379.20000000298023","img/food5.png","74","379.40000000596046","1","0","3","0.8,0.5,0,0.8,0,0.5,0.5,0.8,0,0,0.8,0.5",""
"","html-keyboard-response","73","52451","0.0-73.0","3FIUS151DWO50Z3HQJIOVCZ7DCXGGV","AIEKCWYZTS41V","3S829FDFT2NBOHQMM1CIOU0HZYXDXL","","null","<img src=""img/food5.png"" style=""width:200px;border:14px solid red;"">","null","","","","","",""
"","image-keyboard-response","74","52951","0.0-74.0","3FIUS151DWO50Z3HQJIOVCZ7DCXGGV","AIEKCWYZTS41V","3S829FDFT2NBOHQMM1CIOU0HZYXDXL","","499.5","img/food1.png","75","500","2","0","1","0.8,0.5,0,0.8,0,0.5,0.5,0.8,0,0,0.8,0.5",""
"","html-keyboard-response","75","53253","0.0-75.0","3FIUS151DWO50Z3HQJIOVCZ7DCXGGV","AIEKCWYZTS41V","3S829FDFT2NBOHQMM1CIOU0HZYXDXL","","null","<img src=""img/food1.png"" style=""width:200px;border:14px solid red;"">","null","","","","","",""
"","image-keyboard-response","76","54596","0.0-76.0","3FIUS151DWO50Z3HQJIOVCZ7DCXGGV","AIEKCWYZTS41V","3S829FDFT2NBOHQMM1CIOU0HZYXDXL","","1342.5","img/food5.png","74","1342.8999999910593","1","0","3","0.8,0.5,0,0.8,0,0.5,0.5,0.8,0,0,0.8,0.5",""
"","html-keyboard-response","77","54898","0.0-77.0","3FIUS151DWO50Z3HQJIOVCZ7DCXGGV","AIEKCWYZTS41V","3S829FDFT2NBOHQMM1CIOU0HZYXDXL","","null","<img src=""img/food5.png"" style=""width:200px;border:14px solid red;"">","null","","","","","",""
"","image-keyboard-response","78","55382","0.0-78.0","3FIUS151DWO50Z3HQJIOVCZ7DCXGGV","AIEKCWYZTS41V","3S829FDFT2NBOHQMM1CIOU0HZYXDXL","","484.40000000596046","img/food1.png","75","484.79999999701977","2","1","1","0.8,0.5,0,0.8,0,0.5,0.5,0.8,0,0,0.8,0.5",""
"","html-keyboard-response","79","55684","0.0-79.0","3FIUS151DWO50Z3HQJIOVCZ7DCXGGV","AIEKCWYZTS41V","3S829FDFT2NBOHQMM1CIOU0HZYXDXL","","null","<img src=""img/food1.png"" style=""width:200px; border:14px solid green;"">","null","","","","","",""
"","image-keyboard-response","80","56220","0.0-80.0","3FIUS151DWO50Z3HQJIOVCZ7DCXGGV","AIEKCWYZTS41V","3S829FDFT2NBOHQMM1CIOU0HZYXDXL","","535.5999999940395","img/food2.png","76","536","3","1","2","0.8,0.5,0,0.8,0,0.5,0.5,0.8,0,0,0.8,0.5",""
"","html-keyboard-response","81","56522","0.0-81.0","3FIUS151DWO50Z3HQJIOVCZ7DCXGGV","AIEKCWYZTS41V","3S829FDFT2NBOHQMM1CIOU0HZYXDXL","","null","<img src=""img/food2.png"" style=""width:200px; border:14px solid green;"">","null","","","","","",""
"","image-keyboard-response","82","56812","0.0-82.0","3FIUS151DWO50Z3HQJIOVCZ7DCXGGV","AIEKCWYZTS41V","3S829FDFT2NBOHQMM1CIOU0HZYXDXL","","289.5","img/food2.png","76","289.79999999701977","3","0","2","0.8,0.5,0,0.8,0,0.5,0.5,0.8,0,0,0.8,0.5",""
"","html-keyboard-response","83","57113","0.0-83.0","3FIUS151DWO50Z3HQJIOVCZ7DCXGGV","AIEKCWYZTS41V","3S829FDFT2NBOHQMM1CIOU0HZYXDXL","","null","<img src=""img/food2.png"" style=""width:200px;border:14px solid red;"">","null","","","","","",""
"","image-keyboard-response","84","58155","0.0-84.0","3FIUS151DWO50Z3HQJIOVCZ7DCXGGV","AIEKCWYZTS41V","3S829FDFT2NBOHQMM1CIOU0HZYXDXL","","1041.8999999910593","img/food5.png","74","1042.2000000029802","1","0","3","0.8,0.5,0,0.8,0,0.5,0.5,0.8,0,0,0.8,0.5",""
"","html-keyboard-response","85","58456","0.0-85.0","3FIUS151DWO50Z3HQJIOVCZ7DCXGGV","AIEKCWYZTS41V","3S829FDFT2NBOHQMM1CIOU0HZYXDXL","","null","<img src=""img/food5.png"" style=""width:200px;border:14px solid red;"">","null","","","","","",""
"","image-keyboard-response","86","58974","0.0-86.0","3FIUS151DWO50Z3HQJIOVCZ7DCXGGV","AIEKCWYZTS41V","3S829FDFT2NBOHQMM1CIOU0HZYXDXL","","517.5","img/food1.png","75","517.9000000059605","2","1","1","0.8,0.5,0,0.8,0,0.5,0.5,0.8,0,0,0.8,0.5",""
"","html-keyboard-response","87","59283","0.0-87.0","3FIUS151DWO50Z3HQJIOVCZ7DCXGGV","AIEKCWYZTS41V","3S829FDFT2NBOHQMM1CIOU0HZYXDXL","","null","<img src=""img/food1.png"" style=""width:200px; border:14px solid green;"">","null","","","","","",""
"","image-keyboard-response","88","59983","0.0-88.0","3FIUS151DWO50Z3HQJIOVCZ7DCXGGV","AIEKCWYZTS41V","3S829FDFT2NBOHQMM1CIOU0HZYXDXL","","699.6000000089407","img/food5.png","74","699.8999999910593","1","1","3","0.8,0.5,0,0.8,0,0.5,0.5,0.8,0,0,0.8,0.5",""
"","html-keyboard-response","89","60284","0.0-89.0","3FIUS151DWO50Z3HQJIOVCZ7DCXGGV","AIEKCWYZTS41V","3S829FDFT2NBOHQMM1CIOU0HZYXDXL","","null","<img src=""img/food5.png"" style=""width:200px; border:14px solid green;"">","null","","","","","",""
"","image-keyboard-response","90","60847","0.0-90.0","3FIUS151DWO50Z3HQJIOVCZ7DCXGGV","AIEKCWYZTS41V","3S829FDFT2NBOHQMM1CIOU0HZYXDXL","","561.9000000059605","img/food2.png","76","562.2999999970198","3","0","2","0.8,0.5,0,0.8,0,0.5,0.5,0.8,0,0,0.8,0.5",""
"","html-keyboard-response","91","61148","0.0-91.0","3FIUS151DWO50Z3HQJIOVCZ7DCXGGV","AIEKCWYZTS41V","3S829FDFT2NBOHQMM1CIOU0HZYXDXL","","null","<img src=""img/food2.png"" style=""width:200px;border:14px solid red;"">","null","","","","","",""
"","image-keyboard-response","92","61859","0.0-92.0","3FIUS151DWO50Z3HQJIOVCZ7DCXGGV","AIEKCWYZTS41V","3S829FDFT2NBOHQMM1CIOU0HZYXDXL","","711.2000000029802","img/food1.png","74","711.7000000029802","1","1","1","0.8,0.5,0,0.8,0,0.5,0.5,0.8,0,0,0.8,0.5",""
"","html-keyboard-response","93","62161","0.0-93.0","3FIUS151DWO50Z3HQJIOVCZ7DCXGGV","AIEKCWYZTS41V","3S829FDFT2NBOHQMM1CIOU0HZYXDXL","","null","<img src=""img/food1.png"" style=""width:200px; border:14px solid green;"">","null","","","","","",""
"","image-keyboard-response","94","63563","0.0-94.0","3FIUS151DWO50Z3HQJIOVCZ7DCXGGV","AIEKCWYZTS41V","3S829FDFT2NBOHQMM1CIOU0HZYXDXL","","1401","img/food2.png","76","1401.3999999910593","3","1","2","0.8,0.5,0,0.8,0,0.5,0.5,0.8,0,0,0.8,0.5",""
"","html-keyboard-response","95","63864","0.0-95.0","3FIUS151DWO50Z3HQJIOVCZ7DCXGGV","AIEKCWYZTS41V","3S829FDFT2NBOHQMM1CIOU0HZYXDXL","","null","<img src=""img/food2.png"" style=""width:200px; border:14px solid green;"">","null","","","","","",""
"","image-keyboard-response","96","64645","0.0-96.0","3FIUS151DWO50Z3HQJIOVCZ7DCXGGV","AIEKCWYZTS41V","3S829FDFT2NBOHQMM1CIOU0HZYXDXL","","780.5","img/food1.png","74","780.7999999970198","1","1","1","0.8,0.5,0,0.8,0,0.5,0.5,0.8,0,0,0.8,0.5",""
"","html-keyboard-response","97","64947","0.0-97.0","3FIUS151DWO50Z3HQJIOVCZ7DCXGGV","AIEKCWYZTS41V","3S829FDFT2NBOHQMM1CIOU0HZYXDXL","","null","<img src=""img/food1.png"" style=""width:200px; border:14px solid green;"">","null","","","","","",""
"","image-keyboard-response","98","66261","0.0-98.0","3FIUS151DWO50Z3HQJIOVCZ7DCXGGV","AIEKCWYZTS41V","3S829FDFT2NBOHQMM1CIOU0HZYXDXL","","1313.800000011921","img/food2.png","75","1314.2000000029802","2","0","2","0.8,0.5,0,0.8,0,0.5,0.5,0.8,0,0,0.8,0.5",""
"","html-keyboard-response","99","66562","0.0-99.0","3FIUS151DWO50Z3HQJIOVCZ7DCXGGV","AIEKCWYZTS41V","3S829FDFT2NBOHQMM1CIOU0HZYXDXL","","null","<img src=""img/food2.png"" style=""width:200px;border:14px solid red;"">","null","","","","","",""
"","image-keyboard-response","100","67219","0.0-100.0","3FIUS151DWO50Z3HQJIOVCZ7DCXGGV","AIEKCWYZTS41V","3S829FDFT2NBOHQMM1CIOU0HZYXDXL","","656","img/food2.png","76","656.4000000059605","3","1","2","0.8,0.5,0,0.8,0,0.5,0.5,0.8,0,0,0.8,0.5",""
"","html-keyboard-response","101","67520","0.0-101.0","3FIUS151DWO50Z3HQJIOVCZ7DCXGGV","AIEKCWYZTS41V","3S829FDFT2NBOHQMM1CIOU0HZYXDXL","","null","<img src=""img/food2.png"" style=""width:200px; border:14px solid green;"">","null","","","","","",""
"","image-keyboard-response","102","68127","0.0-102.0","3FIUS151DWO50Z3HQJIOVCZ7DCXGGV","AIEKCWYZTS41V","3S829FDFT2NBOHQMM1CIOU0HZYXDXL","","606.1000000089407","img/food5.png","75","606.5","2","1","3","0.8,0.5,0,0.8,0,0.5,0.5,0.8,0,0,0.8,0.5",""
"","html-keyboard-response","103","68431","0.0-103.0","3FIUS151DWO50Z3HQJIOVCZ7DCXGGV","AIEKCWYZTS41V","3S829FDFT2NBOHQMM1CIOU0HZYXDXL","","null","<img src=""img/food5.png"" style=""width:200px; border:14px solid green;"">","null","","","","","",""
"","image-keyboard-response","104","69091","0.0-104.0","3FIUS151DWO50Z3HQJIOVCZ7DCXGGV","AIEKCWYZTS41V","3S829FDFT2NBOHQMM1CIOU0HZYXDXL","","659.7999999970198","img/food1.png","74","660.1000000089407","1","1","1","0.8,0.5,0,0.8,0,0.5,0.5,0.8,0,0,0.8,0.5",""
"","html-keyboard-response","105","69393","0.0-105.0","3FIUS151DWO50Z3HQJIOVCZ7DCXGGV","AIEKCWYZTS41V","3S829FDFT2NBOHQMM1CIOU0HZYXDXL","","null","<img src=""img/food1.png"" style=""width:200px; border:14px solid green;"">","null","","","","","",""
"","image-keyboard-response","106","70765","0.0-106.0","3FIUS151DWO50Z3HQJIOVCZ7DCXGGV","AIEKCWYZTS41V","3S829FDFT2NBOHQMM1CIOU0HZYXDXL","","1372","img/food2.png","76","1372.2999999970198","3","0","2","0.8,0.5,0,0.8,0,0.5,0.5,0.8,0,0,0.8,0.5",""
"","html-keyboard-response","107","71067","0.0-107.0","3FIUS151DWO50Z3HQJIOVCZ7DCXGGV","AIEKCWYZTS41V","3S829FDFT2NBOHQMM1CIOU0HZYXDXL","","null","<img src=""img/food2.png"" style=""width:200px;border:14px solid red;"">","null","","","","","",""
"","image-keyboard-response","108","71471","0.0-108.0","3FIUS151DWO50Z3HQJIOVCZ7DCXGGV","AIEKCWYZTS41V","3S829FDFT2NBOHQMM1CIOU0HZYXDXL","","403.40000000596046","img/food2.png","76","403.90000000596046","3","1","2","0.8,0.5,0,0.8,0,0.5,0.5,0.8,0,0,0.8,0.5",""
"","html-keyboard-response","109","71772","0.0-109.0","3FIUS151DWO50Z3HQJIOVCZ7DCXGGV","AIEKCWYZTS41V","3S829FDFT2NBOHQMM1CIOU0HZYXDXL","","null","<img src=""img/food2.png"" style=""width:200px; border:14px solid green;"">","null","","","","","",""
"","image-keyboard-response","110","72068","0.0-110.0","3FIUS151DWO50Z3HQJIOVCZ7DCXGGV","AIEKCWYZTS41V","3S829FDFT2NBOHQMM1CIOU0HZYXDXL","","296.20000000298023","img/food2.png","76","296.6000000089407","3","0","2","0.8,0.5,0,0.8,0,0.5,0.5,0.8,0,0,0.8,0.5",""
"","html-keyboard-response","111","72379","0.0-111.0","3FIUS151DWO50Z3HQJIOVCZ7DCXGGV","AIEKCWYZTS41V","3S829FDFT2NBOHQMM1CIOU0HZYXDXL","","null","<img src=""img/food2.png"" style=""width:200px;border:14px solid red;"">","null","","","","","",""
"","image-keyboard-response","112","72855","0.0-112.0","3FIUS151DWO50Z3HQJIOVCZ7DCXGGV","AIEKCWYZTS41V","3S829FDFT2NBOHQMM1CIOU0HZYXDXL","","475.70000000298023","img/food2.png","76","476","3","1","2","0.8,0.5,0,0.8,0,0.5,0.5,0.8,0,0,0.8,0.5",""
"","html-keyboard-response","113","73156","0.0-113.0","3FIUS151DWO50Z3HQJIOVCZ7DCXGGV","AIEKCWYZTS41V","3S829FDFT2NBOHQMM1CIOU0HZYXDXL","","null","<img src=""img/food2.png"" style=""width:200px; border:14px solid green;"">","null","","","","","",""
"","image-keyboard-response","114","73488","0.0-114.0","3FIUS151DWO50Z3HQJIOVCZ7DCXGGV","AIEKCWYZTS41V","3S829FDFT2NBOHQMM1CIOU0HZYXDXL","","331.5","img/food2.png","76","331.79999999701977","3","1","2","0.8,0.5,0,0.8,0,0.5,0.5,0.8,0,0,0.8,0.5",""
"","html-keyboard-response","115","73789","0.0-115.0","3FIUS151DWO50Z3HQJIOVCZ7DCXGGV","AIEKCWYZTS41V","3S829FDFT2NBOHQMM1CIOU0HZYXDXL","","null","<img src=""img/food2.png"" style=""width:200px; border:14px solid green;"">","null","","","","","",""
"","image-keyboard-response","116","74548","0.0-116.0","3FIUS151DWO50Z3HQJIOVCZ7DCXGGV","AIEKCWYZTS41V","3S829FDFT2NBOHQMM1CIOU0HZYXDXL","","757.5999999940395","img/food5.png","75","758","2","0","3","0.8,0.5,0,0.8,0,0.5,0.5,0.8,0,0,0.8,0.5",""
"","html-keyboard-response","117","74849","0.0-117.0","3FIUS151DWO50Z3HQJIOVCZ7DCXGGV","AIEKCWYZTS41V","3S829FDFT2NBOHQMM1CIOU0HZYXDXL","","null","<img src=""img/food5.png"" style=""width:200px;border:14px solid red;"">","null","","","","","",""
"","image-keyboard-response","118","75147","0.0-118.0","3FIUS151DWO50Z3HQJIOVCZ7DCXGGV","AIEKCWYZTS41V","3S829FDFT2NBOHQMM1CIOU0HZYXDXL","","296.8999999910593","img/food5.png","75","297.3999999910593","2","0","3","0.8,0.5,0,0.8,0,0.5,0.5,0.8,0,0,0.8,0.5",""
"","html-keyboard-response","119","75448","0.0-119.0","3FIUS151DWO50Z3HQJIOVCZ7DCXGGV","AIEKCWYZTS41V","3S829FDFT2NBOHQMM1CIOU0HZYXDXL","","null","<img src=""img/food5.png"" style=""width:200px;border:14px solid red;"">","null","","","","","",""
"","image-keyboard-response","120","75629","0.0-120.0","3FIUS151DWO50Z3HQJIOVCZ7DCXGGV","AIEKCWYZTS41V","3S829FDFT2NBOHQMM1CIOU0HZYXDXL","","179.70000000298023","img/food1.png","75","180.09999999403954","2","1","1","0.8,0.5,0,0.8,0,0.5,0.5,0.8,0,0,0.8,0.5",""
"","html-keyboard-response","121","75929","0.0-121.0","3FIUS151DWO50Z3HQJIOVCZ7DCXGGV","AIEKCWYZTS41V","3S829FDFT2NBOHQMM1CIOU0HZYXDXL","","null","<img src=""img/food1.png"" style=""width:200px; border:14px solid green;"">","null","","","","","",""
"","image-keyboard-response","122","77007","0.0-122.0","3FIUS151DWO50Z3HQJIOVCZ7DCXGGV","AIEKCWYZTS41V","3S829FDFT2NBOHQMM1CIOU0HZYXDXL","","1077","img/food2.png","76","1078.199999988079","3","0","2","0.8,0.5,0,0.8,0,0.5,0.5,0.8,0,0,0.8,0.5",""
"","html-keyboard-response","123","77309","0.0-123.0","3FIUS151DWO50Z3HQJIOVCZ7DCXGGV","AIEKCWYZTS41V","3S829FDFT2NBOHQMM1CIOU0HZYXDXL","","null","<img src=""img/food2.png"" style=""width:200px;border:14px solid red;"">","null","","","","","",""
"","image-keyboard-response","124","77880","0.0-124.0","3FIUS151DWO50Z3HQJIOVCZ7DCXGGV","AIEKCWYZTS41V","3S829FDFT2NBOHQMM1CIOU0HZYXDXL","","570","img/food1.png","75","570.5999999940395","2","0","1","0.8,0.5,0,0.8,0,0.5,0.5,0.8,0,0,0.8,0.5",""
"","html-keyboard-response","125","78181","0.0-125.0","3FIUS151DWO50Z3HQJIOVCZ7DCXGGV","AIEKCWYZTS41V","3S829FDFT2NBOHQMM1CIOU0HZYXDXL","","null","<img src=""img/food1.png"" style=""width:200px;border:14px solid red;"">","null","","","","","",""
"","image-keyboard-response","126","78897","0.0-126.0","3FIUS151DWO50Z3HQJIOVCZ7DCXGGV","AIEKCWYZTS41V","3S829FDFT2NBOHQMM1CIOU0HZYXDXL","","715.5","img/food2.png","76","715.7999999970198","3","1","2","0.8,0.5,0,0.8,0,0.5,0.5,0.8,0,0,0.8,0.5",""
"","html-keyboard-response","127","79199","0.0-127.0","3FIUS151DWO50Z3HQJIOVCZ7DCXGGV","AIEKCWYZTS41V","3S829FDFT2NBOHQMM1CIOU0HZYXDXL","","null","<img src=""img/food2.png"" style=""width:200px; border:14px solid green;"">","null","","","","","",""
"","image-keyboard-response","128","79920","0.0-128.0","3FIUS151DWO50Z3HQJIOVCZ7DCXGGV","AIEKCWYZTS41V","3S829FDFT2NBOHQMM1CIOU0HZYXDXL","","720","img/food2.png","76","720.2999999970198","3","0","2","0.8,0.5,0,0.8,0,0.5,0.5,0.8,0,0,0.8,0.5",""
"","html-keyboard-response","129","80221","0.0-129.0","3FIUS151DWO50Z3HQJIOVCZ7DCXGGV","AIEKCWYZTS41V","3S829FDFT2NBOHQMM1CIOU0HZYXDXL","","null","<img src=""img/food2.png"" style=""width:200px;border:14px solid red;"">","null","","","","","",""
"","image-keyboard-response","130","80837","0.0-130.0","3FIUS151DWO50Z3HQJIOVCZ7DCXGGV","AIEKCWYZTS41V","3S829FDFT2NBOHQMM1CIOU0HZYXDXL","","615.9000000059605","img/food5.png","74","616.2999999970198","1","1","3","0.8,0.5,0,0.8,0,0.5,0.5,0.8,0,0,0.8,0.5",""
"","html-keyboard-response","131","81138","0.0-131.0","3FIUS151DWO50Z3HQJIOVCZ7DCXGGV","AIEKCWYZTS41V","3S829FDFT2NBOHQMM1CIOU0HZYXDXL","","null","<img src=""img/food5.png"" style=""width:200px; border:14px solid green;"">","null","","","","","",""
"","image-keyboard-response","132","81894","0.0-132.0","3FIUS151DWO50Z3HQJIOVCZ7DCXGGV","AIEKCWYZTS41V","3S829FDFT2NBOHQMM1CIOU0HZYXDXL","","755.7999999970198","img/food1.png","75","756.1000000089407","2","0","1","0.8,0.5,0,0.8,0,0.5,0.5,0.8,0,0,0.8,0.5",""
"","html-keyboard-response","133","82195","0.0-133.0","3FIUS151DWO50Z3HQJIOVCZ7DCXGGV","AIEKCWYZTS41V","3S829FDFT2NBOHQMM1CIOU0HZYXDXL","","null","<img src=""img/food1.png"" style=""width:200px;border:14px solid red;"">","null","","","","","",""
"","image-keyboard-response","134","82914","0.0-134.0","3FIUS151DWO50Z3HQJIOVCZ7DCXGGV","AIEKCWYZTS41V","3S829FDFT2NBOHQMM1CIOU0HZYXDXL","","718.1000000089407","img/food2.png","76","718.3999999910593","3","0","2","0.8,0.5,0,0.8,0,0.5,0.5,0.8,0,0,0.8,0.5",""
"","html-keyboard-response","135","83215","0.0-135.0","3FIUS151DWO50Z3HQJIOVCZ7DCXGGV","AIEKCWYZTS41V","3S829FDFT2NBOHQMM1CIOU0HZYXDXL","","null","<img src=""img/food2.png"" style=""width:200px;border:14px solid red;"">","null","","","","","",""
"","image-keyboard-response","136","83821","0.0-136.0","3FIUS151DWO50Z3HQJIOVCZ7DCXGGV","AIEKCWYZTS41V","3S829FDFT2NBOHQMM1CIOU0HZYXDXL","","605.2000000029802","img/food1.png","74","605.6000000089407","1","1","1","0.8,0.5,0,0.8,0,0.5,0.5,0.8,0,0,0.8,0.5",""
"","html-keyboard-response","137","84121","0.0-137.0","3FIUS151DWO50Z3HQJIOVCZ7DCXGGV","AIEKCWYZTS41V","3S829FDFT2NBOHQMM1CIOU0HZYXDXL","","null","<img src=""img/food1.png"" style=""width:200px; border:14px solid green;"">","null","","","","","",""
"","image-keyboard-response","138","84433","0.0-138.0","3FIUS151DWO50Z3HQJIOVCZ7DCXGGV","AIEKCWYZTS41V","3S829FDFT2NBOHQMM1CIOU0HZYXDXL","","310.79999999701977","img/food1.png","74","311.19999998807907","1","1","1","0.8,0.5,0,0.8,0,0.5,0.5,0.8,0,0,0.8,0.5",""
"","html-keyboard-response","139","84735","0.0-139.0","3FIUS151DWO50Z3HQJIOVCZ7DCXGGV","AIEKCWYZTS41V","3S829FDFT2NBOHQMM1CIOU0HZYXDXL","","null","<img src=""img/food1.png"" style=""width:200px; border:14px solid green;"">","null","","","","","",""
"","image-keyboard-response","140","85303","0.0-140.0","3FIUS151DWO50Z3HQJIOVCZ7DCXGGV","AIEKCWYZTS41V","3S829FDFT2NBOHQMM1CIOU0HZYXDXL","","567.7999999970198","img/food5.png","75","568.2000000029802","2","0","3","0.8,0.5,0,0.8,0,0.5,0.5,0.8,0,0,0.8,0.5",""
"","html-keyboard-response","141","85605","0.0-141.0","3FIUS151DWO50Z3HQJIOVCZ7DCXGGV","AIEKCWYZTS41V","3S829FDFT2NBOHQMM1CIOU0HZYXDXL","","null","<img src=""img/food5.png"" style=""width:200px;border:14px solid red;"">","null","","","","","",""
"","image-keyboard-response","142","85848","0.0-142.0","3FIUS151DWO50Z3HQJIOVCZ7DCXGGV","AIEKCWYZTS41V","3S829FDFT2NBOHQMM1CIOU0HZYXDXL","","242.79999999701977","img/food5.png","75","243.09999999403954","2","1","3","0.8,0.5,0,0.8,0,0.5,0.5,0.8,0,0,0.8,0.5",""
"","html-keyboard-response","143","86150","0.0-143.0","3FIUS151DWO50Z3HQJIOVCZ7DCXGGV","AIEKCWYZTS41V","3S829FDFT2NBOHQMM1CIOU0HZYXDXL","","null","<img src=""img/food5.png"" style=""width:200px; border:14px solid green;"">","null","","","","","",""
"","image-keyboard-response","144","86381","0.0-144.0","3FIUS151DWO50Z3HQJIOVCZ7DCXGGV","AIEKCWYZTS41V","3S829FDFT2NBOHQMM1CIOU0HZYXDXL","","230.90000000596046","img/food5.png","75","231.20000000298023","2","1","3","0.8,0.5,0,0.8,0,0.5,0.5,0.8,0,0,0.8,0.5",""
"","html-keyboard-response","145","86682","0.0-145.0","3FIUS151DWO50Z3HQJIOVCZ7DCXGGV","AIEKCWYZTS41V","3S829FDFT2NBOHQMM1CIOU0HZYXDXL","","null","<img src=""img/food5.png"" style=""width:200px; border:14px solid green;"">","null","","","","","",""
"","image-keyboard-response","146","87331","0.0-146.0","3FIUS151DWO50Z3HQJIOVCZ7DCXGGV","AIEKCWYZTS41V","3S829FDFT2NBOHQMM1CIOU0HZYXDXL","","649.2999999970198","img/food2.png","76","649.6000000089407","3","1","2","0.8,0.5,0,0.8,0,0.5,0.5,0.8,0,0,0.8,0.5",""
"","html-keyboard-response","147","87633","0.0-147.0","3FIUS151DWO50Z3HQJIOVCZ7DCXGGV","AIEKCWYZTS41V","3S829FDFT2NBOHQMM1CIOU0HZYXDXL","","null","<img src=""img/food2.png"" style=""width:200px; border:14px solid green;"">","null","","","","","",""
"","image-keyboard-response","148","88123","0.0-148.0","3FIUS151DWO50Z3HQJIOVCZ7DCXGGV","AIEKCWYZTS41V","3S829FDFT2NBOHQMM1CIOU0HZYXDXL","","490","img/food5.png","75","490.40000000596046","2","1","3","0.8,0.5,0,0.8,0,0.5,0.5,0.8,0,0,0.8,0.5",""
"","html-keyboard-response","149","88425","0.0-149.0","3FIUS151DWO50Z3HQJIOVCZ7DCXGGV","AIEKCWYZTS41V","3S829FDFT2NBOHQMM1CIOU0HZYXDXL","","null","<img src=""img/food5.png"" style=""width:200px; border:14px solid green;"">","null","","","","","",""
"","image-keyboard-response","150","88679","0.0-150.0","3FIUS151DWO50Z3HQJIOVCZ7DCXGGV","AIEKCWYZTS41V","3S829FDFT2NBOHQMM1CIOU0HZYXDXL","","254","img/food5.png","75","254.29999999701977","2","1","3","0.8,0.5,0,0.8,0,0.5,0.5,0.8,0,0,0.8,0.5",""
"","html-keyboard-response","151","88981","0.0-151.0","3FIUS151DWO50Z3HQJIOVCZ7DCXGGV","AIEKCWYZTS41V","3S829FDFT2NBOHQMM1CIOU0HZYXDXL","","null","<img src=""img/food5.png"" style=""width:200px; border:14px solid green;"">","null","","","","","",""
"","image-keyboard-response","152","89237","0.0-152.0","3FIUS151DWO50Z3HQJIOVCZ7DCXGGV","AIEKCWYZTS41V","3S829FDFT2NBOHQMM1CIOU0HZYXDXL","","256.20000000298023","img/food5.png","75","256.6000000089407","2","1","3","0.8,0.5,0,0.8,0,0.5,0.5,0.8,0,0,0.8,0.5",""
"","html-keyboard-response","153","89539","0.0-153.0","3FIUS151DWO50Z3HQJIOVCZ7DCXGGV","AIEKCWYZTS41V","3S829FDFT2NBOHQMM1CIOU0HZYXDXL","","null","<img src=""img/food5.png"" style=""width:200px; border:14px solid green;"">","null","","","","","",""
"","image-keyboard-response","154","90215","0.0-154.0","3FIUS151DWO50Z3HQJIOVCZ7DCXGGV","AIEKCWYZTS41V","3S829FDFT2NBOHQMM1CIOU0HZYXDXL","","675.5999999940395","img/food2.png","76","675.9000000059605","3","1","2","0.8,0.5,0,0.8,0,0.5,0.5,0.8,0,0,0.8,0.5",""
"","html-keyboard-response","155","90517","0.0-155.0","3FIUS151DWO50Z3HQJIOVCZ7DCXGGV","AIEKCWYZTS41V","3S829FDFT2NBOHQMM1CIOU0HZYXDXL","","null","<img src=""img/food2.png"" style=""width:200px; border:14px solid green;"">","null","","","","","",""
"","image-keyboard-response","156","90777","0.0-156.0","3FIUS151DWO50Z3HQJIOVCZ7DCXGGV","AIEKCWYZTS41V","3S829FDFT2NBOHQMM1CIOU0HZYXDXL","","260.29999999701977","img/food2.png","76","260.70000000298023","3","0","2","0.8,0.5,0,0.8,0,0.5,0.5,0.8,0,0,0.8,0.5",""
"","html-keyboard-response","157","91079","0.0-157.0","3FIUS151DWO50Z3HQJIOVCZ7DCXGGV","AIEKCWYZTS41V","3S829FDFT2NBOHQMM1CIOU0HZYXDXL","","null","<img src=""img/food2.png"" style=""width:200px;border:14px solid red;"">","null","","","","","",""
"","image-keyboard-response","158","91709","0.0-158.0","3FIUS151DWO50Z3HQJIOVCZ7DCXGGV","AIEKCWYZTS41V","3S829FDFT2NBOHQMM1CIOU0HZYXDXL","","630","img/food5.png","75","630.2000000029802","2","1","3","0.8,0.5,0,0.8,0,0.5,0.5,0.8,0,0,0.8,0.5",""
"","html-keyboard-response","159","92010","0.0-159.0","3FIUS151DWO50Z3HQJIOVCZ7DCXGGV","AIEKCWYZTS41V","3S829FDFT2NBOHQMM1CIOU0HZYXDXL","","null","<img src=""img/food5.png"" style=""width:200px; border:14px solid green;"">","null","","","","","",""
"","image-keyboard-response","160","92487","0.0-160.0","3FIUS151DWO50Z3HQJIOVCZ7DCXGGV","AIEKCWYZTS41V","3S829FDFT2NBOHQMM1CIOU0HZYXDXL","","475.70000000298023","img/food1.png","74","475.90000000596046","1","1","1","0.8,0.5,0,0.8,0,0.5,0.5,0.8,0,0,0.8,0.5",""
"","html-keyboard-response","161","92788","0.0-161.0","3FIUS151DWO50Z3HQJIOVCZ7DCXGGV","AIEKCWYZTS41V","3S829FDFT2NBOHQMM1CIOU0HZYXDXL","","null","<img src=""img/food1.png"" style=""width:200px; border:14px solid green;"">","null","","","","","",""
"","image-keyboard-response","162","93376","0.0-162.0","3FIUS151DWO50Z3HQJIOVCZ7DCXGGV","AIEKCWYZTS41V","3S829FDFT2NBOHQMM1CIOU0HZYXDXL","","588","img/food5.png","75","588.2000000029802","2","1","3","0.8,0.5,0,0.8,0,0.5,0.5,0.8,0,0,0.8,0.5",""
"","html-keyboard-response","163","93677","0.0-163.0","3FIUS151DWO50Z3HQJIOVCZ7DCXGGV","AIEKCWYZTS41V","3S829FDFT2NBOHQMM1CIOU0HZYXDXL","","null","<img src=""img/food5.png"" style=""width:200px; border:14px solid green;"">","null","","","","","",""
"","image-keyboard-response","164","94537","0.0-164.0","3FIUS151DWO50Z3HQJIOVCZ7DCXGGV","AIEKCWYZTS41V","3S829FDFT2NBOHQMM1CIOU0HZYXDXL","","859.7999999970198","img/food1.png","74","860.2000000029802","1","1","1","0.8,0.5,0,0.8,0,0.5,0.5,0.8,0,0,0.8,0.5",""
"","html-keyboard-response","165","94838","0.0-165.0","3FIUS151DWO50Z3HQJIOVCZ7DCXGGV","AIEKCWYZTS41V","3S829FDFT2NBOHQMM1CIOU0HZYXDXL","","null","<img src=""img/food1.png"" style=""width:200px; border:14px solid green;"">","null","","","","","",""
"","image-keyboard-response","166","95407","0.0-166.0","3FIUS151DWO50Z3HQJIOVCZ7DCXGGV","AIEKCWYZTS41V","3S829FDFT2NBOHQMM1CIOU0HZYXDXL","","568.5","img/food5.png","75","568.9000000059605","2","1","3","0.8,0.5,0,0.8,0,0.5,0.5,0.8,0,0,0.8,0.5",""
"","html-keyboard-response","167","95708","0.0-167.0","3FIUS151DWO50Z3HQJIOVCZ7DCXGGV","AIEKCWYZTS41V","3S829FDFT2NBOHQMM1CIOU0HZYXDXL","","null","<img src=""img/food5.png"" style=""width:200px; border:14px solid green;"">","null","","","","","",""
"","image-keyboard-response","168","96229","0.0-168.0","3FIUS151DWO50Z3HQJIOVCZ7DCXGGV","AIEKCWYZTS41V","3S829FDFT2NBOHQMM1CIOU0HZYXDXL","","520.3000000119209","img/food2.png","76","520.5999999940395","3","1","2","0.8,0.5,0,0.8,0,0.5,0.5,0.8,0,0,0.8,0.5",""
"","html-keyboard-response","169","96530","0.0-169.0","3FIUS151DWO50Z3HQJIOVCZ7DCXGGV","AIEKCWYZTS41V","3S829FDFT2NBOHQMM1CIOU0HZYXDXL","","null","<img src=""img/food2.png"" style=""width:200px; border:14px solid green;"">","null","","","","","",""
"","image-keyboard-response","170","96818","0.0-170.0","3FIUS151DWO50Z3HQJIOVCZ7DCXGGV","AIEKCWYZTS41V","3S829FDFT2NBOHQMM1CIOU0HZYXDXL","","287.90000000596046","img/food2.png","76","288.1000000089407","3","0","2","0.8,0.5,0,0.8,0,0.5,0.5,0.8,0,0,0.8,0.5",""
"","html-keyboard-response","171","97119","0.0-171.0","3FIUS151DWO50Z3HQJIOVCZ7DCXGGV","AIEKCWYZTS41V","3S829FDFT2NBOHQMM1CIOU0HZYXDXL","","null","<img src=""img/food2.png"" style=""width:200px;border:14px solid red;"">","null","","","","","",""
"","image-keyboard-response","172","98016","0.0-172.0","3FIUS151DWO50Z3HQJIOVCZ7DCXGGV","AIEKCWYZTS41V","3S829FDFT2NBOHQMM1CIOU0HZYXDXL","","896.5","img/food5.png","75","896.9000000059605","2","0","3","0.8,0.5,0,0.8,0,0.5,0.5,0.8,0,0,0.8,0.5",""
"","html-keyboard-response","173","98317","0.0-173.0","3FIUS151DWO50Z3HQJIOVCZ7DCXGGV","AIEKCWYZTS41V","3S829FDFT2NBOHQMM1CIOU0HZYXDXL","","null","<img src=""img/food5.png"" style=""width:200px;border:14px solid red;"">","null","","","","","",""
"","image-keyboard-response","174","99161","0.0-174.0","3FIUS151DWO50Z3HQJIOVCZ7DCXGGV","AIEKCWYZTS41V","3S829FDFT2NBOHQMM1CIOU0HZYXDXL","","844.0999999940395","img/food2.png","76","844.5","3","0","2","0.8,0.5,0,0.8,0,0.5,0.5,0.8,0,0,0.8,0.5",""
"","html-keyboard-response","175","99463","0.0-175.0","3FIUS151DWO50Z3HQJIOVCZ7DCXGGV","AIEKCWYZTS41V","3S829FDFT2NBOHQMM1CIOU0HZYXDXL","","null","<img src=""img/food2.png"" style=""width:200px;border:14px solid red;"">","null","","","","","",""
"","image-keyboard-response","176","99928","0.0-176.0","3FIUS151DWO50Z3HQJIOVCZ7DCXGGV","AIEKCWYZTS41V","3S829FDFT2NBOHQMM1CIOU0HZYXDXL","","464.59999999403954","img/food5.png","75","465.1000000089407","2","1","3","0.8,0.5,0,0.8,0,0.5,0.5,0.8,0,0,0.8,0.5",""
"","html-keyboard-response","177","100230","0.0-177.0","3FIUS151DWO50Z3HQJIOVCZ7DCXGGV","AIEKCWYZTS41V","3S829FDFT2NBOHQMM1CIOU0HZYXDXL","","null","<img src=""img/food5.png"" style=""width:200px; border:14px solid green;"">","null","","","","","",""
"","image-keyboard-response","178","100811","0.0-178.0","3FIUS151DWO50Z3HQJIOVCZ7DCXGGV","AIEKCWYZTS41V","3S829FDFT2NBOHQMM1CIOU0HZYXDXL","","580.6000000089407","img/food1.png","74","581","1","0","1","0.8,0.5,0,0.8,0,0.5,0.5,0.8,0,0,0.8,0.5",""
"","html-keyboard-response","179","101113","0.0-179.0","3FIUS151DWO50Z3HQJIOVCZ7DCXGGV","AIEKCWYZTS41V","3S829FDFT2NBOHQMM1CIOU0HZYXDXL","","null","<img src=""img/food1.png"" style=""width:200px;border:14px solid red;"">","null","","","","","",""
"","image-keyboard-response","180","101404","0.0-180.0","3FIUS151DWO50Z3HQJIOVCZ7DCXGGV","AIEKCWYZTS41V","3S829FDFT2NBOHQMM1CIOU0HZYXDXL","","291.20000000298023","img/food1.png","74","291.59999999403954","1","1","1","0.8,0.5,0,0.8,0,0.5,0.5,0.8,0,0,0.8,0.5",""
"","html-keyboard-response","181","101706","0.0-181.0","3FIUS151DWO50Z3HQJIOVCZ7DCXGGV","AIEKCWYZTS41V","3S829FDFT2NBOHQMM1CIOU0HZYXDXL","","null","<img src=""img/food1.png"" style=""width:200px; border:14px solid green;"">","null","","","","","",""
"","html-keyboard-response","182","103354","0.0-182.0","3FIUS151DWO50Z3HQJIOVCZ7DCXGGV","AIEKCWYZTS41V","3S829FDFT2NBOHQMM1CIOU0HZYXDXL","","","","","","","","","",""
"","image-keyboard-response","183","105032","0.0-183.0","3FIUS151DWO50Z3HQJIOVCZ7DCXGGV","AIEKCWYZTS41V","3S829FDFT2NBOHQMM1CIOU0HZYXDXL","","1677.3999999910593","img/food3.png","75","1677.8999999910593","2","0","3","0,0.5,0.8,0.5,0,0.8,0,0.5,0.8,0,0.8,0.5",""
"","html-keyboard-response","184","105333","0.0-184.0","3FIUS151DWO50Z3HQJIOVCZ7DCXGGV","AIEKCWYZTS41V","3S829FDFT2NBOHQMM1CIOU0HZYXDXL","","null","<img src=""img/food3.png"" style=""width:200px;border:14px solid red;"">","null","","","","","",""
"","image-keyboard-response","185","105964","0.0-185.0","3FIUS151DWO50Z3HQJIOVCZ7DCXGGV","AIEKCWYZTS41V","3S829FDFT2NBOHQMM1CIOU0HZYXDXL","","630.8000000119209","img/food6.png","74","631.2000000029802","1","0","2","0,0.5,0.8,0.5,0,0.8,0,0.5,0.8,0,0.8,0.5",""
"","html-keyboard-response","186","106265","0.0-186.0","3FIUS151DWO50Z3HQJIOVCZ7DCXGGV","AIEKCWYZTS41V","3S829FDFT2NBOHQMM1CIOU0HZYXDXL","","null","<img src=""img/food6.png"" style=""width:200px;border:14px solid red;"">","null","","","","","",""
"","image-keyboard-response","187","107410","0.0-187.0","3FIUS151DWO50Z3HQJIOVCZ7DCXGGV","AIEKCWYZTS41V","3S829FDFT2NBOHQMM1CIOU0HZYXDXL","","1143.7000000029802","img/food3.png","74","1144.199999988079","1","0","3","0,0.5,0.8,0.5,0,0.8,0,0.5,0.8,0,0.8,0.5",""
"","html-keyboard-response","188","107711","0.0-188.0","3FIUS151DWO50Z3HQJIOVCZ7DCXGGV","AIEKCWYZTS41V","3S829FDFT2NBOHQMM1CIOU0HZYXDXL","","null","<img src=""img/food3.png"" style=""width:200px;border:14px solid red;"">","null","","","","","",""
"","image-keyboard-response","189","109138","0.0-189.0","3FIUS151DWO50Z3HQJIOVCZ7DCXGGV","AIEKCWYZTS41V","3S829FDFT2NBOHQMM1CIOU0HZYXDXL","","1425.9000000059605","img/food4.png","74","1426.2999999970198","1","0","1","0,0.5,0.8,0.5,0,0.8,0,0.5,0.8,0,0.8,0.5",""
"","html-keyboard-response","190","109439","0.0-190.0","3FIUS151DWO50Z3HQJIOVCZ7DCXGGV","AIEKCWYZTS41V","3S829FDFT2NBOHQMM1CIOU0HZYXDXL","","null","<img src=""img/food4.png"" style=""width:200px;border:14px solid red;"">","null","","","","","",""
"","image-keyboard-response","191","109959","0.0-191.0","3FIUS151DWO50Z3HQJIOVCZ7DCXGGV","AIEKCWYZTS41V","3S829FDFT2NBOHQMM1CIOU0HZYXDXL","","518.9000000059605","img/food4.png","76","519.2999999970198","3","1","1","0,0.5,0.8,0.5,0,0.8,0,0.5,0.8,0,0.8,0.5",""
"","html-keyboard-response","192","110266","0.0-192.0","3FIUS151DWO50Z3HQJIOVCZ7DCXGGV","AIEKCWYZTS41V","3S829FDFT2NBOHQMM1CIOU0HZYXDXL","","null","<img src=""img/food4.png"" style=""width:200px; border:14px solid green;"">","null","","","","","",""
"","image-keyboard-response","193","110646","0.0-193.0","3FIUS151DWO50Z3HQJIOVCZ7DCXGGV","AIEKCWYZTS41V","3S829FDFT2NBOHQMM1CIOU0HZYXDXL","","379.59999999403954","img/food4.png","76","380.09999999403954","3","0","1","0,0.5,0.8,0.5,0,0.8,0,0.5,0.8,0,0.8,0.5",""
"","html-keyboard-response","194","110947","0.0-194.0","3FIUS151DWO50Z3HQJIOVCZ7DCXGGV","AIEKCWYZTS41V","3S829FDFT2NBOHQMM1CIOU0HZYXDXL","","null","<img src=""img/food4.png"" style=""width:200px;border:14px solid red;"">","null","","","","","",""
"","image-keyboard-response","195","112189","0.0-195.0","3FIUS151DWO50Z3HQJIOVCZ7DCXGGV","AIEKCWYZTS41V","3S829FDFT2NBOHQMM1CIOU0HZYXDXL","","1241.7000000029802","img/food3.png","75","1242","2","1","3","0,0.5,0.8,0.5,0,0.8,0,0.5,0.8,0,0.8,0.5",""
"","html-keyboard-response","196","112490","0.0-196.0","3FIUS151DWO50Z3HQJIOVCZ7DCXGGV","AIEKCWYZTS41V","3S829FDFT2NBOHQMM1CIOU0HZYXDXL","","null","<img src=""img/food3.png"" style=""width:200px; border:14px solid green;"">","null","","","","","",""
"","image-keyboard-response","197","113084","0.0-197.0","3FIUS151DWO50Z3HQJIOVCZ7DCXGGV","AIEKCWYZTS41V","3S829FDFT2NBOHQMM1CIOU0HZYXDXL","","593.2000000029802","img/food4.png","76","593.5999999940395","3","1","1","0,0.5,0.8,0.5,0,0.8,0,0.5,0.8,0,0.8,0.5",""
"","html-keyboard-response","198","113385","0.0-198.0","3FIUS151DWO50Z3HQJIOVCZ7DCXGGV","AIEKCWYZTS41V","3S829FDFT2NBOHQMM1CIOU0HZYXDXL","","null","<img src=""img/food4.png"" style=""width:200px; border:14px solid green;"">","null","","","","","",""
"","image-keyboard-response","199","114513","0.0-199.0","3FIUS151DWO50Z3HQJIOVCZ7DCXGGV","AIEKCWYZTS41V","3S829FDFT2NBOHQMM1CIOU0HZYXDXL","","1127.4000000059605","img/food6.png","74","1127.699999988079","1","0","2","0,0.5,0.8,0.5,0,0.8,0,0.5,0.8,0,0.8,0.5",""
"","html-keyboard-response","200","114815","0.0-200.0","3FIUS151DWO50Z3HQJIOVCZ7DCXGGV","AIEKCWYZTS41V","3S829FDFT2NBOHQMM1CIOU0HZYXDXL","","null","<img src=""img/food6.png"" style=""width:200px;border:14px solid red;"">","null","","","","","",""
"","image-keyboard-response","201","115580","0.0-201.0","3FIUS151DWO50Z3HQJIOVCZ7DCXGGV","AIEKCWYZTS41V","3S829FDFT2NBOHQMM1CIOU0HZYXDXL","","764.7000000029802","img/food3.png","75","764.9000000059605","2","0","3","0,0.5,0.8,0.5,0,0.8,0,0.5,0.8,0,0.8,0.5",""
"","html-keyboard-response","202","115881","0.0-202.0","3FIUS151DWO50Z3HQJIOVCZ7DCXGGV","AIEKCWYZTS41V","3S829FDFT2NBOHQMM1CIOU0HZYXDXL","","null","<img src=""img/food3.png"" style=""width:200px;border:14px solid red;"">","null","","","","","",""
"","image-keyboard-response","203","116797","0.0-203.0","3FIUS151DWO50Z3HQJIOVCZ7DCXGGV","AIEKCWYZTS41V","3S829FDFT2NBOHQMM1CIOU0HZYXDXL","","916.2000000029802","img/food6.png","75","916.5","2","0","2","0,0.5,0.8,0.5,0,0.8,0,0.5,0.8,0,0.8,0.5",""
"","html-keyboard-response","204","117099","0.0-204.0","3FIUS151DWO50Z3HQJIOVCZ7DCXGGV","AIEKCWYZTS41V","3S829FDFT2NBOHQMM1CIOU0HZYXDXL","","null","<img src=""img/food6.png"" style=""width:200px;border:14px solid red;"">","null","","","","","",""
"","image-keyboard-response","205","117569","0.0-205.0","3FIUS151DWO50Z3HQJIOVCZ7DCXGGV","AIEKCWYZTS41V","3S829FDFT2NBOHQMM1CIOU0HZYXDXL","","470.40000000596046","img/food6.png","75","470.79999999701977","2","0","2","0,0.5,0.8,0.5,0,0.8,0,0.5,0.8,0,0.8,0.5",""
"","html-keyboard-response","206","117870","0.0-206.0","3FIUS151DWO50Z3HQJIOVCZ7DCXGGV","AIEKCWYZTS41V","3S829FDFT2NBOHQMM1CIOU0HZYXDXL","","null","<img src=""img/food6.png"" style=""width:200px;border:14px solid red;"">","null","","","","","",""
"","image-keyboard-response","207","118585","0.0-207.0","3FIUS151DWO50Z3HQJIOVCZ7DCXGGV","AIEKCWYZTS41V","3S829FDFT2NBOHQMM1CIOU0HZYXDXL","","714.1000000089407","img/food3.png","75","714.4000000059605","2","0","3","0,0.5,0.8,0.5,0,0.8,0,0.5,0.8,0,0.8,0.5",""
"","html-keyboard-response","208","118885","0.0-208.0","3FIUS151DWO50Z3HQJIOVCZ7DCXGGV","AIEKCWYZTS41V","3S829FDFT2NBOHQMM1CIOU0HZYXDXL","","null","<img src=""img/food3.png"" style=""width:200px;border:14px solid red;"">","null","","","","","",""
"","image-keyboard-response","209","119416","0.0-209.0","3FIUS151DWO50Z3HQJIOVCZ7DCXGGV","AIEKCWYZTS41V","3S829FDFT2NBOHQMM1CIOU0HZYXDXL","","529.7000000029802","img/food6.png","75","530.1999999880791","2","0","2","0,0.5,0.8,0.5,0,0.8,0,0.5,0.8,0,0.8,0.5",""
"","html-keyboard-response","210","119723","0.0-210.0","3FIUS151DWO50Z3HQJIOVCZ7DCXGGV","AIEKCWYZTS41V","3S829FDFT2NBOHQMM1CIOU0HZYXDXL","","null","<img src=""img/food6.png"" style=""width:200px;border:14px solid red;"">","null","","","","","",""
"","image-keyboard-response","211","120177","0.0-211.0","3FIUS151DWO50Z3HQJIOVCZ7DCXGGV","AIEKCWYZTS41V","3S829FDFT2NBOHQMM1CIOU0HZYXDXL","","453.70000000298023","img/food3.png","75","454.09999999403954","2","1","3","0,0.5,0.8,0.5,0,0.8,0,0.5,0.8,0,0.8,0.5",""
"","html-keyboard-response","212","120478","0.0-212.0","3FIUS151DWO50Z3HQJIOVCZ7DCXGGV","AIEKCWYZTS41V","3S829FDFT2NBOHQMM1CIOU0HZYXDXL","","null","<img src=""img/food3.png"" style=""width:200px; border:14px solid green;"">","null","","","","","",""
"","image-keyboard-response","213","121226","0.0-213.0","3FIUS151DWO50Z3HQJIOVCZ7DCXGGV","AIEKCWYZTS41V","3S829FDFT2NBOHQMM1CIOU0HZYXDXL","","747.2000000029802","img/food6.png","74","747.5","1","1","2","0,0.5,0.8,0.5,0,0.8,0,0.5,0.8,0,0.8,0.5",""
"","html-keyboard-response","214","121527","0.0-214.0","3FIUS151DWO50Z3HQJIOVCZ7DCXGGV","AIEKCWYZTS41V","3S829FDFT2NBOHQMM1CIOU0HZYXDXL","","null","<img src=""img/food6.png"" style=""width:200px; border:14px solid green;"">","null","","","","","",""
"","image-keyboard-response","215","122141","0.0-215.0","3FIUS151DWO50Z3HQJIOVCZ7DCXGGV","AIEKCWYZTS41V","3S829FDFT2NBOHQMM1CIOU0HZYXDXL","","613.6000000089407","img/food4.png","76","614","3","1","1","0,0.5,0.8,0.5,0,0.8,0,0.5,0.8,0,0.8,0.5",""
"","html-keyboard-response","216","122443","0.0-216.0","3FIUS151DWO50Z3HQJIOVCZ7DCXGGV","AIEKCWYZTS41V","3S829FDFT2NBOHQMM1CIOU0HZYXDXL","","null","<img src=""img/food4.png"" style=""width:200px; border:14px solid green;"">","null","","","","","",""
"","image-keyboard-response","217","122806","0.0-217.0","3FIUS151DWO50Z3HQJIOVCZ7DCXGGV","AIEKCWYZTS41V","3S829FDFT2NBOHQMM1CIOU0HZYXDXL","","363","img/food4.png","76","363.5","3","1","1","0,0.5,0.8,0.5,0,0.8,0,0.5,0.8,0,0.8,0.5",""
"","html-keyboard-response","218","123108","0.0-218.0","3FIUS151DWO50Z3HQJIOVCZ7DCXGGV","AIEKCWYZTS41V","3S829FDFT2NBOHQMM1CIOU0HZYXDXL","","null","<img src=""img/food4.png"" style=""width:200px; border:14px solid green;"">","null","","","","","",""
"","image-keyboard-response","219","123386","0.0-219.0","3FIUS151DWO50Z3HQJIOVCZ7DCXGGV","AIEKCWYZTS41V","3S829FDFT2NBOHQMM1CIOU0HZYXDXL","","277.29999999701977","img/food4.png","76","277.59999999403954","3","1","1","0,0.5,0.8,0.5,0,0.8,0,0.5,0.8,0,0.8,0.5",""
"","html-keyboard-response","220","123688","0.0-220.0","3FIUS151DWO50Z3HQJIOVCZ7DCXGGV","AIEKCWYZTS41V","3S829FDFT2NBOHQMM1CIOU0HZYXDXL","","null","<img src=""img/food4.png"" style=""width:200px; border:14px solid green;"">","null","","","","","",""
"","image-keyboard-response","221","124180","0.0-221.0","3FIUS151DWO50Z3HQJIOVCZ7DCXGGV","AIEKCWYZTS41V","3S829FDFT2NBOHQMM1CIOU0HZYXDXL","","491.40000000596046","img/food6.png","74","491.79999999701977","1","0","2","0,0.5,0.8,0.5,0,0.8,0,0.5,0.8,0,0.8,0.5",""
"","html-keyboard-response","222","124482","0.0-222.0","3FIUS151DWO50Z3HQJIOVCZ7DCXGGV","AIEKCWYZTS41V","3S829FDFT2NBOHQMM1CIOU0HZYXDXL","","null","<img src=""img/food6.png"" style=""width:200px;border:14px solid red;"">","null","","","","","",""
"","image-keyboard-response","223","124777","0.0-223.0","3FIUS151DWO50Z3HQJIOVCZ7DCXGGV","AIEKCWYZTS41V","3S829FDFT2NBOHQMM1CIOU0HZYXDXL","","294.29999999701977","img/food6.png","74","294.59999999403954","1","0","2","0,0.5,0.8,0.5,0,0.8,0,0.5,0.8,0,0.8,0.5",""
"","html-keyboard-response","224","125086","0.0-224.0","3FIUS151DWO50Z3HQJIOVCZ7DCXGGV","AIEKCWYZTS41V","3S829FDFT2NBOHQMM1CIOU0HZYXDXL","","null","<img src=""img/food6.png"" style=""width:200px;border:14px solid red;"">","null","","","","","",""
"","image-keyboard-response","225","125530","0.0-225.0","3FIUS151DWO50Z3HQJIOVCZ7DCXGGV","AIEKCWYZTS41V","3S829FDFT2NBOHQMM1CIOU0HZYXDXL","","443.90000000596046","img/food3.png","75","444.19999998807907","2","1","3","0,0.5,0.8,0.5,0,0.8,0,0.5,0.8,0,0.8,0.5",""
"","html-keyboard-response","226","125831","0.0-226.0","3FIUS151DWO50Z3HQJIOVCZ7DCXGGV","AIEKCWYZTS41V","3S829FDFT2NBOHQMM1CIOU0HZYXDXL","","null","<img src=""img/food3.png"" style=""width:200px; border:14px solid green;"">","null","","","","","",""
"","image-keyboard-response","227","126377","0.0-227.0","3FIUS151DWO50Z3HQJIOVCZ7DCXGGV","AIEKCWYZTS41V","3S829FDFT2NBOHQMM1CIOU0HZYXDXL","","545.0999999940395","img/food6.png","74","545.3999999910593","1","0","2","0,0.5,0.8,0.5,0,0.8,0,0.5,0.8,0,0.8,0.5",""
"","html-keyboard-response","228","126678","0.0-228.0","3FIUS151DWO50Z3HQJIOVCZ7DCXGGV","AIEKCWYZTS41V","3S829FDFT2NBOHQMM1CIOU0HZYXDXL","","null","<img src=""img/food6.png"" style=""width:200px;border:14px solid red;"">","null","","","","","",""
"","image-keyboard-response","229","127046","0.0-229.0","3FIUS151DWO50Z3HQJIOVCZ7DCXGGV","AIEKCWYZTS41V","3S829FDFT2NBOHQMM1CIOU0HZYXDXL","","367.6000000089407","img/food6.png","74","368","1","1","2","0,0.5,0.8,0.5,0,0.8,0,0.5,0.8,0,0.8,0.5",""
"","html-keyboard-response","230","127348","0.0-230.0","3FIUS151DWO50Z3HQJIOVCZ7DCXGGV","AIEKCWYZTS41V","3S829FDFT2NBOHQMM1CIOU0HZYXDXL","","null","<img src=""img/food6.png"" style=""width:200px; border:14px solid green;"">","null","","","","","",""
"","image-keyboard-response","231","127694","0.0-231.0","3FIUS151DWO50Z3HQJIOVCZ7DCXGGV","AIEKCWYZTS41V","3S829FDFT2NBOHQMM1CIOU0HZYXDXL","","345.20000000298023","img/food6.png","74","345.59999999403954","1","1","2","0,0.5,0.8,0.5,0,0.8,0,0.5,0.8,0,0.8,0.5",""
"","html-keyboard-response","232","128003","0.0-232.0","3FIUS151DWO50Z3HQJIOVCZ7DCXGGV","AIEKCWYZTS41V","3S829FDFT2NBOHQMM1CIOU0HZYXDXL","","null","<img src=""img/food6.png"" style=""width:200px; border:14px solid green;"">","null","","","","","",""
"","image-keyboard-response","233","128805","0.0-233.0","3FIUS151DWO50Z3HQJIOVCZ7DCXGGV","AIEKCWYZTS41V","3S829FDFT2NBOHQMM1CIOU0HZYXDXL","","801.3000000119209","img/food3.png","75","801.6999999880791","2","0","3","0,0.5,0.8,0.5,0,0.8,0,0.5,0.8,0,0.8,0.5",""
"","html-keyboard-response","234","129106","0.0-234.0","3FIUS151DWO50Z3HQJIOVCZ7DCXGGV","AIEKCWYZTS41V","3S829FDFT2NBOHQMM1CIOU0HZYXDXL","","null","<img src=""img/food3.png"" style=""width:200px;border:14px solid red;"">","null","","","","","",""
"","image-keyboard-response","235","129389","0.0-235.0","3FIUS151DWO50Z3HQJIOVCZ7DCXGGV","AIEKCWYZTS41V","3S829FDFT2NBOHQMM1CIOU0HZYXDXL","","281.90000000596046","img/food3.png","75","282.19999998807907","2","1","3","0,0.5,0.8,0.5,0,0.8,0,0.5,0.8,0,0.8,0.5",""
"","html-keyboard-response","236","129690","0.0-236.0","3FIUS151DWO50Z3HQJIOVCZ7DCXGGV","AIEKCWYZTS41V","3S829FDFT2NBOHQMM1CIOU0HZYXDXL","","null","<img src=""img/food3.png"" style=""width:200px; border:14px solid green;"">","null","","","","","",""
"","image-keyboard-response","237","130017","0.0-237.0","3FIUS151DWO50Z3HQJIOVCZ7DCXGGV","AIEKCWYZTS41V","3S829FDFT2NBOHQMM1CIOU0HZYXDXL","","326.09999999403954","img/food3.png","75","326.40000000596046","2","0","3","0,0.5,0.8,0.5,0,0.8,0,0.5,0.8,0,0.8,0.5",""
"","html-keyboard-response","238","130318","0.0-238.0","3FIUS151DWO50Z3HQJIOVCZ7DCXGGV","AIEKCWYZTS41V","3S829FDFT2NBOHQMM1CIOU0HZYXDXL","","null","<img src=""img/food3.png"" style=""width:200px;border:14px solid red;"">","null","","","","","",""
"","image-keyboard-response","239","130590","0.0-239.0","3FIUS151DWO50Z3HQJIOVCZ7DCXGGV","AIEKCWYZTS41V","3S829FDFT2NBOHQMM1CIOU0HZYXDXL","","270.80000001192093","img/food3.png","75","271.09999999403954","2","0","3","0,0.5,0.8,0.5,0,0.8,0,0.5,0.8,0,0.8,0.5",""
"","html-keyboard-response","240","130891","0.0-240.0","3FIUS151DWO50Z3HQJIOVCZ7DCXGGV","AIEKCWYZTS41V","3S829FDFT2NBOHQMM1CIOU0HZYXDXL","","null","<img src=""img/food3.png"" style=""width:200px;border:14px solid red;"">","null","","","","","",""
"","image-keyboard-response","241","131156","0.0-241.0","3FIUS151DWO50Z3HQJIOVCZ7DCXGGV","AIEKCWYZTS41V","3S829FDFT2NBOHQMM1CIOU0HZYXDXL","","264.29999999701977","img/food3.png","75","264.6000000089407","2","1","3","0,0.5,0.8,0.5,0,0.8,0,0.5,0.8,0,0.8,0.5",""
"","html-keyboard-response","242","131460","0.0-242.0","3FIUS151DWO50Z3HQJIOVCZ7DCXGGV","AIEKCWYZTS41V","3S829FDFT2NBOHQMM1CIOU0HZYXDXL","","null","<img src=""img/food3.png"" style=""width:200px; border:14px solid green;"">","null","","","","","",""
"","image-keyboard-response","243","132002","0.0-243.0","3FIUS151DWO50Z3HQJIOVCZ7DCXGGV","AIEKCWYZTS41V","3S829FDFT2NBOHQMM1CIOU0HZYXDXL","","541.0999999940395","img/food4.png","76","541.5","3","1","1","0,0.5,0.8,0.5,0,0.8,0,0.5,0.8,0,0.8,0.5",""
"","html-keyboard-response","244","132303","0.0-244.0","3FIUS151DWO50Z3HQJIOVCZ7DCXGGV","AIEKCWYZTS41V","3S829FDFT2NBOHQMM1CIOU0HZYXDXL","","null","<img src=""img/food4.png"" style=""width:200px; border:14px solid green;"">","null","","","","","",""
"","image-keyboard-response","245","132855","0.0-245.0","3FIUS151DWO50Z3HQJIOVCZ7DCXGGV","AIEKCWYZTS41V","3S829FDFT2NBOHQMM1CIOU0HZYXDXL","","551.2999999970198","img/food6.png","74","551.6999999880791","1","0","2","0,0.5,0.8,0.5,0,0.8,0,0.5,0.8,0,0.8,0.5",""
"","html-keyboard-response","246","133157","0.0-246.0","3FIUS151DWO50Z3HQJIOVCZ7DCXGGV","AIEKCWYZTS41V","3S829FDFT2NBOHQMM1CIOU0HZYXDXL","","null","<img src=""img/food6.png"" style=""width:200px;border:14px solid red;"">","null","","","","","",""
"","image-keyboard-response","247","133897","0.0-247.0","3FIUS151DWO50Z3HQJIOVCZ7DCXGGV","AIEKCWYZTS41V","3S829FDFT2NBOHQMM1CIOU0HZYXDXL","","739.8999999910593","img/food4.png","76","740.2999999970198","3","1","1","0,0.5,0.8,0.5,0,0.8,0,0.5,0.8,0,0.8,0.5",""
"","html-keyboard-response","248","134199","0.0-248.0","3FIUS151DWO50Z3HQJIOVCZ7DCXGGV","AIEKCWYZTS41V","3S829FDFT2NBOHQMM1CIOU0HZYXDXL","","null","<img src=""img/food4.png"" style=""width:200px; border:14px solid green;"">","null","","","","","",""
"","image-keyboard-response","249","134487","0.0-249.0","3FIUS151DWO50Z3HQJIOVCZ7DCXGGV","AIEKCWYZTS41V","3S829FDFT2NBOHQMM1CIOU0HZYXDXL","","287.29999999701977","img/food4.png","76","287.69999998807907","3","1","1","0,0.5,0.8,0.5,0,0.8,0,0.5,0.8,0,0.8,0.5",""
"","html-keyboard-response","250","134789","0.0-250.0","3FIUS151DWO50Z3HQJIOVCZ7DCXGGV","AIEKCWYZTS41V","3S829FDFT2NBOHQMM1CIOU0HZYXDXL","","null","<img src=""img/food4.png"" style=""width:200px; border:14px solid green;"">","null","","","","","",""
"","image-keyboard-response","251","135063","0.0-251.0","3FIUS151DWO50Z3HQJIOVCZ7DCXGGV","AIEKCWYZTS41V","3S829FDFT2NBOHQMM1CIOU0HZYXDXL","","272.79999999701977","img/food4.png","76","273.09999999403954","3","1","1","0,0.5,0.8,0.5,0,0.8,0,0.5,0.8,0,0.8,0.5",""
"","html-keyboard-response","252","135365","0.0-252.0","3FIUS151DWO50Z3HQJIOVCZ7DCXGGV","AIEKCWYZTS41V","3S829FDFT2NBOHQMM1CIOU0HZYXDXL","","null","<img src=""img/food4.png"" style=""width:200px; border:14px solid green;"">","null","","","","","",""
"","image-keyboard-response","253","136092","0.0-253.0","3FIUS151DWO50Z3HQJIOVCZ7DCXGGV","AIEKCWYZTS41V","3S829FDFT2NBOHQMM1CIOU0HZYXDXL","","727.2000000029802","img/food6.png","74","727.5","1","0","2","0,0.5,0.8,0.5,0,0.8,0,0.5,0.8,0,0.8,0.5",""
"","html-keyboard-response","254","136394","0.0-254.0","3FIUS151DWO50Z3HQJIOVCZ7DCXGGV","AIEKCWYZTS41V","3S829FDFT2NBOHQMM1CIOU0HZYXDXL","","null","<img src=""img/food6.png"" style=""width:200px;border:14px solid red;"">","null","","","","","",""
"","image-keyboard-response","255","137226","0.0-255.0","3FIUS151DWO50Z3HQJIOVCZ7DCXGGV","AIEKCWYZTS41V","3S829FDFT2NBOHQMM1CIOU0HZYXDXL","","832","img/food4.png","76","832.3000000119209","3","1","1","0,0.5,0.8,0.5,0,0.8,0,0.5,0.8,0,0.8,0.5",""
"","html-keyboard-response","256","137527","0.0-256.0","3FIUS151DWO50Z3HQJIOVCZ7DCXGGV","AIEKCWYZTS41V","3S829FDFT2NBOHQMM1CIOU0HZYXDXL","","null","<img src=""img/food4.png"" style=""width:200px; border:14px solid green;"">","null","","","","","",""
"","image-keyboard-response","257","138123","0.0-257.0","3FIUS151DWO50Z3HQJIOVCZ7DCXGGV","AIEKCWYZTS41V","3S829FDFT2NBOHQMM1CIOU0HZYXDXL","","594.8999999910593","img/food3.png","75","595.2000000029802","2","1","3","0,0.5,0.8,0.5,0,0.8,0,0.5,0.8,0,0.8,0.5",""
"","html-keyboard-response","258","138424","0.0-258.0","3FIUS151DWO50Z3HQJIOVCZ7DCXGGV","AIEKCWYZTS41V","3S829FDFT2NBOHQMM1CIOU0HZYXDXL","","null","<img src=""img/food3.png"" style=""width:200px; border:14px solid green;"">","null","","","","","",""
"","image-keyboard-response","259","138985","0.0-259.0","3FIUS151DWO50Z3HQJIOVCZ7DCXGGV","AIEKCWYZTS41V","3S829FDFT2NBOHQMM1CIOU0HZYXDXL","","559.9000000059605","img/food6.png","74","560.2000000029802","1","1","2","0,0.5,0.8,0.5,0,0.8,0,0.5,0.8,0,0.8,0.5",""
"","html-keyboard-response","260","139286","0.0-260.0","3FIUS151DWO50Z3HQJIOVCZ7DCXGGV","AIEKCWYZTS41V","3S829FDFT2NBOHQMM1CIOU0HZYXDXL","","null","<img src=""img/food6.png"" style=""width:200px; border:14px solid green;"">","null","","","","","",""
"","image-keyboard-response","261","139923","0.0-261.0","3FIUS151DWO50Z3HQJIOVCZ7DCXGGV","AIEKCWYZTS41V","3S829FDFT2NBOHQMM1CIOU0HZYXDXL","","636.5","img/food3.png","75","637","2","0","3","0,0.5,0.8,0.5,0,0.8,0,0.5,0.8,0,0.8,0.5",""
"","html-keyboard-response","262","140224","0.0-262.0","3FIUS151DWO50Z3HQJIOVCZ7DCXGGV","AIEKCWYZTS41V","3S829FDFT2NBOHQMM1CIOU0HZYXDXL","","null","<img src=""img/food3.png"" style=""width:200px;border:14px solid red;"">","null","","","","","",""
"","image-keyboard-response","263","140489","0.0-263.0","3FIUS151DWO50Z3HQJIOVCZ7DCXGGV","AIEKCWYZTS41V","3S829FDFT2NBOHQMM1CIOU0HZYXDXL","","264.20000000298023","img/food3.png","75","264.5","2","1","3","0,0.5,0.8,0.5,0,0.8,0,0.5,0.8,0,0.8,0.5",""
"","html-keyboard-response","264","140791","0.0-264.0","3FIUS151DWO50Z3HQJIOVCZ7DCXGGV","AIEKCWYZTS41V","3S829FDFT2NBOHQMM1CIOU0HZYXDXL","","null","<img src=""img/food3.png"" style=""width:200px; border:14px solid green;"">","null","","","","","",""
"","image-keyboard-response","265","141429","0.0-265.0","3FIUS151DWO50Z3HQJIOVCZ7DCXGGV","AIEKCWYZTS41V","3S829FDFT2NBOHQMM1CIOU0HZYXDXL","","638","img/food4.png","76","638.4000000059605","3","1","1","0,0.5,0.8,0.5,0,0.8,0,0.5,0.8,0,0.8,0.5",""
"","html-keyboard-response","266","141731","0.0-266.0","3FIUS151DWO50Z3HQJIOVCZ7DCXGGV","AIEKCWYZTS41V","3S829FDFT2NBOHQMM1CIOU0HZYXDXL","","null","<img src=""img/food4.png"" style=""width:200px; border:14px solid green;"">","null","","","","","",""
"","image-keyboard-response","267","142389","0.0-267.0","3FIUS151DWO50Z3HQJIOVCZ7DCXGGV","AIEKCWYZTS41V","3S829FDFT2NBOHQMM1CIOU0HZYXDXL","","657.8999999910593","img/food3.png","75","658.2999999970198","2","1","3","0,0.5,0.8,0.5,0,0.8,0,0.5,0.8,0,0.8,0.5",""
"","html-keyboard-response","268","142691","0.0-268.0","3FIUS151DWO50Z3HQJIOVCZ7DCXGGV","AIEKCWYZTS41V","3S829FDFT2NBOHQMM1CIOU0HZYXDXL","","null","<img src=""img/food3.png"" style=""width:200px; border:14px solid green;"">","null","","","","","",""
"","image-keyboard-response","269","143355","0.0-269.0","3FIUS151DWO50Z3HQJIOVCZ7DCXGGV","AIEKCWYZTS41V","3S829FDFT2NBOHQMM1CIOU0HZYXDXL","","664.2999999970198","img/food6.png","74","664.7000000029802","1","0","2","0,0.5,0.8,0.5,0,0.8,0,0.5,0.8,0,0.8,0.5",""
"","html-keyboard-response","270","143657","0.0-270.0","3FIUS151DWO50Z3HQJIOVCZ7DCXGGV","AIEKCWYZTS41V","3S829FDFT2NBOHQMM1CIOU0HZYXDXL","","null","<img src=""img/food6.png"" style=""width:200px;border:14px solid red;"">","null","","","","","",""
"","image-keyboard-response","271","144305","0.0-271.0","3FIUS151DWO50Z3HQJIOVCZ7DCXGGV","AIEKCWYZTS41V","3S829FDFT2NBOHQMM1CIOU0HZYXDXL","","646.7000000029802","img/food3.png","75","647.0999999940395","2","1","3","0,0.5,0.8,0.5,0,0.8,0,0.5,0.8,0,0.8,0.5",""
"","html-keyboard-response","272","144605","0.0-272.0","3FIUS151DWO50Z3HQJIOVCZ7DCXGGV","AIEKCWYZTS41V","3S829FDFT2NBOHQMM1CIOU0HZYXDXL","","null","<img src=""img/food3.png"" style=""width:200px; border:14px solid green;"">","null","","","","","",""
"","image-keyboard-response","273","145150","0.0-273.0","3FIUS151DWO50Z3HQJIOVCZ7DCXGGV","AIEKCWYZTS41V","3S829FDFT2NBOHQMM1CIOU0HZYXDXL","","544.7000000029802","img/food4.png","76","545","3","1","1","0,0.5,0.8,0.5,0,0.8,0,0.5,0.8,0,0.8,0.5",""
"","html-keyboard-response","274","145459","0.0-274.0","3FIUS151DWO50Z3HQJIOVCZ7DCXGGV","AIEKCWYZTS41V","3S829FDFT2NBOHQMM1CIOU0HZYXDXL","","null","<img src=""img/food4.png"" style=""width:200px; border:14px solid green;"">","null","","","","","",""
"","image-keyboard-response","275","145768","0.0-275.0","3FIUS151DWO50Z3HQJIOVCZ7DCXGGV","AIEKCWYZTS41V","3S829FDFT2NBOHQMM1CIOU0HZYXDXL","","308.69999998807907","img/food4.png","76","309","3","1","1","0,0.5,0.8,0.5,0,0.8,0,0.5,0.8,0,0.8,0.5",""
"","html-keyboard-response","276","146069","0.0-276.0","3FIUS151DWO50Z3HQJIOVCZ7DCXGGV","AIEKCWYZTS41V","3S829FDFT2NBOHQMM1CIOU0HZYXDXL","","null","<img src=""img/food4.png"" style=""width:200px; border:14px solid green;"">","null","","","","","",""
"","image-keyboard-response","277","146397","0.0-277.0","3FIUS151DWO50Z3HQJIOVCZ7DCXGGV","AIEKCWYZTS41V","3S829FDFT2NBOHQMM1CIOU0HZYXDXL","","327.59999999403954","img/food4.png","76","328.09999999403954","3","1","1","0,0.5,0.8,0.5,0,0.8,0,0.5,0.8,0,0.8,0.5",""
"","html-keyboard-response","278","146698","0.0-278.0","3FIUS151DWO50Z3HQJIOVCZ7DCXGGV","AIEKCWYZTS41V","3S829FDFT2NBOHQMM1CIOU0HZYXDXL","","null","<img src=""img/food4.png"" style=""width:200px; border:14px solid green;"">","null","","","","","",""
"","image-keyboard-response","279","146980","0.0-279.0","3FIUS151DWO50Z3HQJIOVCZ7DCXGGV","AIEKCWYZTS41V","3S829FDFT2NBOHQMM1CIOU0HZYXDXL","","280.70000000298023","img/food4.png","76","281.19999998807907","3","0","1","0,0.5,0.8,0.5,0,0.8,0,0.5,0.8,0,0.8,0.5",""
"","html-keyboard-response","280","147281","0.0-280.0","3FIUS151DWO50Z3HQJIOVCZ7DCXGGV","AIEKCWYZTS41V","3S829FDFT2NBOHQMM1CIOU0HZYXDXL","","null","<img src=""img/food4.png"" style=""width:200px;border:14px solid red;"">","null","","","","","",""
"","image-keyboard-response","281","148835","0.0-281.0","3FIUS151DWO50Z3HQJIOVCZ7DCXGGV","AIEKCWYZTS41V","3S829FDFT2NBOHQMM1CIOU0HZYXDXL","","1553.4000000059605","img/food6.png","74","1553.5999999940395","1","0","2","0,0.5,0.8,0.5,0,0.8,0,0.5,0.8,0,0.8,0.5",""
"","html-keyboard-response","282","149137","0.0-282.0","3FIUS151DWO50Z3HQJIOVCZ7DCXGGV","AIEKCWYZTS41V","3S829FDFT2NBOHQMM1CIOU0HZYXDXL","","null","<img src=""img/food6.png"" style=""width:200px;border:14px solid red;"">","null","","","","","",""
"","image-keyboard-response","283","149795","0.0-283.0","3FIUS151DWO50Z3HQJIOVCZ7DCXGGV","AIEKCWYZTS41V","3S829FDFT2NBOHQMM1CIOU0HZYXDXL","","657.1000000089407","img/food3.png","75","657.5999999940395","2","0","3","0,0.5,0.8,0.5,0,0.8,0,0.5,0.8,0,0.8,0.5",""
"","html-keyboard-response","284","150097","0.0-284.0","3FIUS151DWO50Z3HQJIOVCZ7DCXGGV","AIEKCWYZTS41V","3S829FDFT2NBOHQMM1CIOU0HZYXDXL","","null","<img src=""img/food3.png"" style=""width:200px;border:14px solid red;"">","null","","","","","",""
"","image-keyboard-response","285","150550","0.0-285.0","3FIUS151DWO50Z3HQJIOVCZ7DCXGGV","AIEKCWYZTS41V","3S829FDFT2NBOHQMM1CIOU0HZYXDXL","","452.5","img/food4.png","76","452.90000000596046","3","1","1","0,0.5,0.8,0.5,0,0.8,0,0.5,0.8,0,0.8,0.5",""
"","html-keyboard-response","286","150852","0.0-286.0","3FIUS151DWO50Z3HQJIOVCZ7DCXGGV","AIEKCWYZTS41V","3S829FDFT2NBOHQMM1CIOU0HZYXDXL","","null","<img src=""img/food4.png"" style=""width:200px; border:14px solid green;"">","null","","","","","",""
"","image-keyboard-response","287","151109","0.0-287.0","3FIUS151DWO50Z3HQJIOVCZ7DCXGGV","AIEKCWYZTS41V","3S829FDFT2NBOHQMM1CIOU0HZYXDXL","","257.20000000298023","img/food4.png","76","257.6000000089407","3","1","1","0,0.5,0.8,0.5,0,0.8,0,0.5,0.8,0,0.8,0.5",""
"","html-keyboard-response","288","151411","0.0-288.0","3FIUS151DWO50Z3HQJIOVCZ7DCXGGV","AIEKCWYZTS41V","3S829FDFT2NBOHQMM1CIOU0HZYXDXL","","null","<img src=""img/food4.png"" style=""width:200px; border:14px solid green;"">","null","","","","","",""
"","image-keyboard-response","289","151664","0.0-289.0","3FIUS151DWO50Z3HQJIOVCZ7DCXGGV","AIEKCWYZTS41V","3S829FDFT2NBOHQMM1CIOU0HZYXDXL","","253.09999999403954","img/food4.png","76","253.5","3","1","1","0,0.5,0.8,0.5,0,0.8,0,0.5,0.8,0,0.8,0.5",""
"","html-keyboard-response","290","151966","0.0-290.0","3FIUS151DWO50Z3HQJIOVCZ7DCXGGV","AIEKCWYZTS41V","3S829FDFT2NBOHQMM1CIOU0HZYXDXL","","null","<img src=""img/food4.png"" style=""width:200px; border:14px solid green;"">","null","","","","","",""
"","image-keyboard-response","291","152577","0.0-291.0","3FIUS151DWO50Z3HQJIOVCZ7DCXGGV","AIEKCWYZTS41V","3S829FDFT2NBOHQMM1CIOU0HZYXDXL","","610.2000000029802","img/food6.png","74","610.5999999940395","1","0","2","0,0.5,0.8,0.5,0,0.8,0,0.5,0.8,0,0.8,0.5",""
"","html-keyboard-response","292","152878","0.0-292.0","3FIUS151DWO50Z3HQJIOVCZ7DCXGGV","AIEKCWYZTS41V","3S829FDFT2NBOHQMM1CIOU0HZYXDXL","","null","<img src=""img/food6.png"" style=""width:200px;border:14px solid red;"">","null","","","","","",""
"","image-keyboard-response","293","153387","0.0-293.0","3FIUS151DWO50Z3HQJIOVCZ7DCXGGV","AIEKCWYZTS41V","3S829FDFT2NBOHQMM1CIOU0HZYXDXL","","508.59999999403954","img/food4.png","75","509","2","1","1","0,0.5,0.8,0.5,0,0.8,0,0.5,0.8,0,0.8,0.5",""
"","html-keyboard-response","294","153689","0.0-294.0","3FIUS151DWO50Z3HQJIOVCZ7DCXGGV","AIEKCWYZTS41V","3S829FDFT2NBOHQMM1CIOU0HZYXDXL","","null","<img src=""img/food4.png"" style=""width:200px; border:14px solid green;"">","null","","","","","",""
"","image-keyboard-response","295","154248","0.0-295.0","3FIUS151DWO50Z3HQJIOVCZ7DCXGGV","AIEKCWYZTS41V","3S829FDFT2NBOHQMM1CIOU0HZYXDXL","","558.7000000029802","img/food6.png","74","559","1","1","2","0,0.5,0.8,0.5,0,0.8,0,0.5,0.8,0,0.8,0.5",""
"","html-keyboard-response","296","154549","0.0-296.0","3FIUS151DWO50Z3HQJIOVCZ7DCXGGV","AIEKCWYZTS41V","3S829FDFT2NBOHQMM1CIOU0HZYXDXL","","null","<img src=""img/food6.png"" style=""width:200px; border:14px solid green;"">","null","","","","","",""
"","image-keyboard-response","297","155231","0.0-297.0","3FIUS151DWO50Z3HQJIOVCZ7DCXGGV","AIEKCWYZTS41V","3S829FDFT2NBOHQMM1CIOU0HZYXDXL","","680.8000000119209","img/food3.png","75","681.2000000029802","2","1","3","0,0.5,0.8,0.5,0,0.8,0,0.5,0.8,0,0.8,0.5",""
"","html-keyboard-response","298","155533","0.0-298.0","3FIUS151DWO50Z3HQJIOVCZ7DCXGGV","AIEKCWYZTS41V","3S829FDFT2NBOHQMM1CIOU0HZYXDXL","","null","<img src=""img/food3.png"" style=""width:200px; border:14px solid green;"">","null","","","","","",""
"","image-keyboard-response","299","156062","0.0-299.0","3FIUS151DWO50Z3HQJIOVCZ7DCXGGV","AIEKCWYZTS41V","3S829FDFT2NBOHQMM1CIOU0HZYXDXL","","528.7000000029802","img/food6.png","74","529.1000000089407","1","0","2","0,0.5,0.8,0.5,0,0.8,0,0.5,0.8,0,0.8,0.5",""
"","html-keyboard-response","300","156363","0.0-300.0","3FIUS151DWO50Z3HQJIOVCZ7DCXGGV","AIEKCWYZTS41V","3S829FDFT2NBOHQMM1CIOU0HZYXDXL","","null","<img src=""img/food6.png"" style=""width:200px;border:14px solid red;"">","null","","","","","",""
"","image-keyboard-response","301","156772","0.0-301.0","3FIUS151DWO50Z3HQJIOVCZ7DCXGGV","AIEKCWYZTS41V","3S829FDFT2NBOHQMM1CIOU0HZYXDXL","","408.29999999701977","img/food6.png","74","408.59999999403954","1","0","2","0,0.5,0.8,0.5,0,0.8,0,0.5,0.8,0,0.8,0.5",""
"","html-keyboard-response","302","157073","0.0-302.0","3FIUS151DWO50Z3HQJIOVCZ7DCXGGV","AIEKCWYZTS41V","3S829FDFT2NBOHQMM1CIOU0HZYXDXL","","null","<img src=""img/food6.png"" style=""width:200px;border:14px solid red;"">","null","","","","","",""
"","image-keyboard-response","303","157415","0.0-303.0","3FIUS151DWO50Z3HQJIOVCZ7DCXGGV","AIEKCWYZTS41V","3S829FDFT2NBOHQMM1CIOU0HZYXDXL","","341.6000000089407","img/food6.png","74","341.8999999910593","1","0","2","0,0.5,0.8,0.5,0,0.8,0,0.5,0.8,0,0.8,0.5",""
"","html-keyboard-response","304","157717","0.0-304.0","3FIUS151DWO50Z3HQJIOVCZ7DCXGGV","AIEKCWYZTS41V","3S829FDFT2NBOHQMM1CIOU0HZYXDXL","","null","<img src=""img/food6.png"" style=""width:200px;border:14px solid red;"">","null","","","","","",""
"","image-keyboard-response","305","158274","0.0-305.0","3FIUS151DWO50Z3HQJIOVCZ7DCXGGV","AIEKCWYZTS41V","3S829FDFT2NBOHQMM1CIOU0HZYXDXL","","556.5","img/food3.png","75","556.8999999910593","2","1","3","0,0.5,0.8,0.5,0,0.8,0,0.5,0.8,0,0.8,0.5",""
"","html-keyboard-response","306","158575","0.0-306.0","3FIUS151DWO50Z3HQJIOVCZ7DCXGGV","AIEKCWYZTS41V","3S829FDFT2NBOHQMM1CIOU0HZYXDXL","","null","<img src=""img/food3.png"" style=""width:200px; border:14px solid green;"">","null","","","","","",""
"","image-keyboard-response","307","159055","0.0-307.0","3FIUS151DWO50Z3HQJIOVCZ7DCXGGV","AIEKCWYZTS41V","3S829FDFT2NBOHQMM1CIOU0HZYXDXL","","480.1000000089407","img/food4.png","76","480.5","3","1","1","0,0.5,0.8,0.5,0,0.8,0,0.5,0.8,0,0.8,0.5",""
"","html-keyboard-response","308","159357","0.0-308.0","3FIUS151DWO50Z3HQJIOVCZ7DCXGGV","AIEKCWYZTS41V","3S829FDFT2NBOHQMM1CIOU0HZYXDXL","","null","<img src=""img/food4.png"" style=""width:200px; border:14px solid green;"">","null","","","","","",""
"","image-keyboard-response","309","159646","0.0-309.0","3FIUS151DWO50Z3HQJIOVCZ7DCXGGV","AIEKCWYZTS41V","3S829FDFT2NBOHQMM1CIOU0HZYXDXL","","289.09999999403954","img/food4.png","76","289.70000000298023","3","1","1","0,0.5,0.8,0.5,0,0.8,0,0.5,0.8,0,0.8,0.5",""
"","html-keyboard-response","310","159948","0.0-310.0","3FIUS151DWO50Z3HQJIOVCZ7DCXGGV","AIEKCWYZTS41V","3S829FDFT2NBOHQMM1CIOU0HZYXDXL","","null","<img src=""img/food4.png"" style=""width:200px; border:14px solid green;"">","null","","","","","",""
"","image-keyboard-response","311","160238","0.0-311.0","3FIUS151DWO50Z3HQJIOVCZ7DCXGGV","AIEKCWYZTS41V","3S829FDFT2NBOHQMM1CIOU0HZYXDXL","","289.90000000596046","img/food4.png","76","290.19999998807907","3","1","1","0,0.5,0.8,0.5,0,0.8,0,0.5,0.8,0,0.8,0.5",""
"","html-keyboard-response","312","160540","0.0-312.0","3FIUS151DWO50Z3HQJIOVCZ7DCXGGV","AIEKCWYZTS41V","3S829FDFT2NBOHQMM1CIOU0HZYXDXL","","null","<img src=""img/food4.png"" style=""width:200px; border:14px solid green;"">","null","","","","","",""
"","image-keyboard-response","313","161105","0.0-313.0","3FIUS151DWO50Z3HQJIOVCZ7DCXGGV","AIEKCWYZTS41V","3S829FDFT2NBOHQMM1CIOU0HZYXDXL","","563.7000000029802","img/food6.png","74","564.0999999940395","1","0","2","0,0.5,0.8,0.5,0,0.8,0,0.5,0.8,0,0.8,0.5",""
"","html-keyboard-response","314","161406","0.0-314.0","3FIUS151DWO50Z3HQJIOVCZ7DCXGGV","AIEKCWYZTS41V","3S829FDFT2NBOHQMM1CIOU0HZYXDXL","","null","<img src=""img/food6.png"" style=""width:200px;border:14px solid red;"">","null","","","","","",""
"","image-keyboard-response","315","161697","0.0-315.0","3FIUS151DWO50Z3HQJIOVCZ7DCXGGV","AIEKCWYZTS41V","3S829FDFT2NBOHQMM1CIOU0HZYXDXL","","291.09999999403954","img/food6.png","74","291.6000000089407","1","1","2","0,0.5,0.8,0.5,0,0.8,0,0.5,0.8,0,0.8,0.5",""
"","html-keyboard-response","316","161999","0.0-316.0","3FIUS151DWO50Z3HQJIOVCZ7DCXGGV","AIEKCWYZTS41V","3S829FDFT2NBOHQMM1CIOU0HZYXDXL","","null","<img src=""img/food6.png"" style=""width:200px; border:14px solid green;"">","null","","","","","",""
"","image-keyboard-response","317","162491","0.0-317.0","3FIUS151DWO50Z3HQJIOVCZ7DCXGGV","AIEKCWYZTS41V","3S829FDFT2NBOHQMM1CIOU0HZYXDXL","","491.5","img/food4.png","75","491.80000001192093","2","0","1","0,0.5,0.8,0.5,0,0.8,0,0.5,0.8,0,0.8,0.5",""
"","html-keyboard-response","318","162792","0.0-318.0","3FIUS151DWO50Z3HQJIOVCZ7DCXGGV","AIEKCWYZTS41V","3S829FDFT2NBOHQMM1CIOU0HZYXDXL","","null","<img src=""img/food4.png"" style=""width:200px;border:14px solid red;"">","null","","","","","",""
"","image-keyboard-response","319","164007","0.0-319.0","3FIUS151DWO50Z3HQJIOVCZ7DCXGGV","AIEKCWYZTS41V","3S829FDFT2NBOHQMM1CIOU0HZYXDXL","","1213.7999999970198","img/food3.png","75","1214.0999999940395","2","0","3","0,0.5,0.8,0.5,0,0.8,0,0.5,0.8,0,0.8,0.5",""
"","html-keyboard-response","320","164308","0.0-320.0","3FIUS151DWO50Z3HQJIOVCZ7DCXGGV","AIEKCWYZTS41V","3S829FDFT2NBOHQMM1CIOU0HZYXDXL","","null","<img src=""img/food3.png"" style=""width:200px;border:14px solid red;"">","null","","","","","",""
"","image-keyboard-response","321","164978","0.0-321.0","3FIUS151DWO50Z3HQJIOVCZ7DCXGGV","AIEKCWYZTS41V","3S829FDFT2NBOHQMM1CIOU0HZYXDXL","","669.3000000119209","img/food6.png","74","669.5999999940395","1","1","2","0,0.5,0.8,0.5,0,0.8,0,0.5,0.8,0,0.8,0.5",""
"","html-keyboard-response","322","165280","0.0-322.0","3FIUS151DWO50Z3HQJIOVCZ7DCXGGV","AIEKCWYZTS41V","3S829FDFT2NBOHQMM1CIOU0HZYXDXL","","null","<img src=""img/food6.png"" style=""width:200px; border:14px solid green;"">","null","","","","","",""
"","image-keyboard-response","323","165888","0.0-323.0","3FIUS151DWO50Z3HQJIOVCZ7DCXGGV","AIEKCWYZTS41V","3S829FDFT2NBOHQMM1CIOU0HZYXDXL","","607.4000000059605","img/food3.png","75","607.8999999910593","2","0","3","0,0.5,0.8,0.5,0,0.8,0,0.5,0.8,0,0.8,0.5",""
"","html-keyboard-response","324","166188","0.0-324.0","3FIUS151DWO50Z3HQJIOVCZ7DCXGGV","AIEKCWYZTS41V","3S829FDFT2NBOHQMM1CIOU0HZYXDXL","","null","<img src=""img/food3.png"" style=""width:200px;border:14px solid red;"">","null","","","","","",""
"","image-keyboard-response","325","166493","0.0-325.0","3FIUS151DWO50Z3HQJIOVCZ7DCXGGV","AIEKCWYZTS41V","3S829FDFT2NBOHQMM1CIOU0HZYXDXL","","303.8999999910593","img/food3.png","75","304.20000000298023","2","0","3","0,0.5,0.8,0.5,0,0.8,0,0.5,0.8,0,0.8,0.5",""
"","html-keyboard-response","326","166794","0.0-326.0","3FIUS151DWO50Z3HQJIOVCZ7DCXGGV","AIEKCWYZTS41V","3S829FDFT2NBOHQMM1CIOU0HZYXDXL","","null","<img src=""img/food3.png"" style=""width:200px;border:14px solid red;"">","null","","","","","",""
"","image-keyboard-response","327","167380","0.0-327.0","3FIUS151DWO50Z3HQJIOVCZ7DCXGGV","AIEKCWYZTS41V","3S829FDFT2NBOHQMM1CIOU0HZYXDXL","","585.7999999970198","img/food6.png","74","586.1000000089407","1","1","2","0,0.5,0.8,0.5,0,0.8,0,0.5,0.8,0,0.8,0.5",""
"","html-keyboard-response","328","167681","0.0-328.0","3FIUS151DWO50Z3HQJIOVCZ7DCXGGV","AIEKCWYZTS41V","3S829FDFT2NBOHQMM1CIOU0HZYXDXL","","null","<img src=""img/food6.png"" style=""width:200px; border:14px solid green;"">","null","","","","","",""
"","image-keyboard-response","329","168241","0.0-329.0","3FIUS151DWO50Z3HQJIOVCZ7DCXGGV","AIEKCWYZTS41V","3S829FDFT2NBOHQMM1CIOU0HZYXDXL","","559.2999999970198","img/food3.png","75","559.6000000089407","2","0","3","0,0.5,0.8,0.5,0,0.8,0,0.5,0.8,0,0.8,0.5",""
"","html-keyboard-response","330","168543","0.0-330.0","3FIUS151DWO50Z3HQJIOVCZ7DCXGGV","AIEKCWYZTS41V","3S829FDFT2NBOHQMM1CIOU0HZYXDXL","","null","<img src=""img/food3.png"" style=""width:200px;border:14px solid red;"">","null","","","","","",""
"","image-keyboard-response","331","169139","0.0-331.0","3FIUS151DWO50Z3HQJIOVCZ7DCXGGV","AIEKCWYZTS41V","3S829FDFT2NBOHQMM1CIOU0HZYXDXL","","596.2999999970198","img/food4.png","76","596.5","3","1","1","0,0.5,0.8,0.5,0,0.8,0,0.5,0.8,0,0.8,0.5",""
"","html-keyboard-response","332","169441","0.0-332.0","3FIUS151DWO50Z3HQJIOVCZ7DCXGGV","AIEKCWYZTS41V","3S829FDFT2NBOHQMM1CIOU0HZYXDXL","","null","<img src=""img/food4.png"" style=""width:200px; border:14px solid green;"">","null","","","","","",""
"","image-keyboard-response","333","170087","0.0-333.0","3FIUS151DWO50Z3HQJIOVCZ7DCXGGV","AIEKCWYZTS41V","3S829FDFT2NBOHQMM1CIOU0HZYXDXL","","645.2999999970198","img/food6.png","74","645.7999999970198","1","0","2","0,0.5,0.8,0.5,0,0.8,0,0.5,0.8,0,0.8,0.5",""
"","html-keyboard-response","334","170389","0.0-334.0","3FIUS151DWO50Z3HQJIOVCZ7DCXGGV","AIEKCWYZTS41V","3S829FDFT2NBOHQMM1CIOU0HZYXDXL","","null","<img src=""img/food6.png"" style=""width:200px;border:14px solid red;"">","null","","","","","",""
"","image-keyboard-response","335","170926","0.0-335.0","3FIUS151DWO50Z3HQJIOVCZ7DCXGGV","AIEKCWYZTS41V","3S829FDFT2NBOHQMM1CIOU0HZYXDXL","","536.5","img/food3.png","75","536.7999999970198","2","1","3","0,0.5,0.8,0.5,0,0.8,0,0.5,0.8,0,0.8,0.5",""
"","html-keyboard-response","336","171227","0.0-336.0","3FIUS151DWO50Z3HQJIOVCZ7DCXGGV","AIEKCWYZTS41V","3S829FDFT2NBOHQMM1CIOU0HZYXDXL","","null","<img src=""img/food3.png"" style=""width:200px; border:14px solid green;"">","null","","","","","",""
"","image-keyboard-response","337","171788","0.0-337.0","3FIUS151DWO50Z3HQJIOVCZ7DCXGGV","AIEKCWYZTS41V","3S829FDFT2NBOHQMM1CIOU0HZYXDXL","","560.7000000029802","img/food4.png","76","561.1000000089407","3","1","1","0,0.5,0.8,0.5,0,0.8,0,0.5,0.8,0,0.8,0.5",""
"","html-keyboard-response","338","172089","0.0-338.0","3FIUS151DWO50Z3HQJIOVCZ7DCXGGV","AIEKCWYZTS41V","3S829FDFT2NBOHQMM1CIOU0HZYXDXL","","null","<img src=""img/food4.png"" style=""width:200px; border:14px solid green;"">","null","","","","","",""
"","image-keyboard-response","339","172380","0.0-339.0","3FIUS151DWO50Z3HQJIOVCZ7DCXGGV","AIEKCWYZTS41V","3S829FDFT2NBOHQMM1CIOU0HZYXDXL","","289.90000000596046","img/food4.png","76","290.19999998807907","3","1","1","0,0.5,0.8,0.5,0,0.8,0,0.5,0.8,0,0.8,0.5",""
"","html-keyboard-response","340","172680","0.0-340.0","3FIUS151DWO50Z3HQJIOVCZ7DCXGGV","AIEKCWYZTS41V","3S829FDFT2NBOHQMM1CIOU0HZYXDXL","","null","<img src=""img/food4.png"" style=""width:200px; border:14px solid green;"">","null","","","","","",""
"","image-keyboard-response","341","173245","0.0-341.0","3FIUS151DWO50Z3HQJIOVCZ7DCXGGV","AIEKCWYZTS41V","3S829FDFT2NBOHQMM1CIOU0HZYXDXL","","564.5","img/food3.png","74","565","1","0","3","0,0.5,0.8,0.5,0,0.8,0,0.5,0.8,0,0.8,0.5",""
"","html-keyboard-response","342","173548","0.0-342.0","3FIUS151DWO50Z3HQJIOVCZ7DCXGGV","AIEKCWYZTS41V","3S829FDFT2NBOHQMM1CIOU0HZYXDXL","","null","<img src=""img/food3.png"" style=""width:200px;border:14px solid red;"">","null","","","","","",""
"","image-keyboard-response","343","173937","0.0-343.0","3FIUS151DWO50Z3HQJIOVCZ7DCXGGV","AIEKCWYZTS41V","3S829FDFT2NBOHQMM1CIOU0HZYXDXL","","388.40000000596046","img/food3.png","75","388.69999998807907","2","0","3","0,0.5,0.8,0.5,0,0.8,0,0.5,0.8,0,0.8,0.5",""
"","html-keyboard-response","344","174238","0.0-344.0","3FIUS151DWO50Z3HQJIOVCZ7DCXGGV","AIEKCWYZTS41V","3S829FDFT2NBOHQMM1CIOU0HZYXDXL","","null","<img src=""img/food3.png"" style=""width:200px;border:14px solid red;"">","null","","","","","",""
"","image-keyboard-response","345","174513","0.0-345.0","3FIUS151DWO50Z3HQJIOVCZ7DCXGGV","AIEKCWYZTS41V","3S829FDFT2NBOHQMM1CIOU0HZYXDXL","","274","img/food3.png","75","274.29999999701977","2","0","3","0,0.5,0.8,0.5,0,0.8,0,0.5,0.8,0,0.8,0.5",""
"","html-keyboard-response","346","174819","0.0-346.0","3FIUS151DWO50Z3HQJIOVCZ7DCXGGV","AIEKCWYZTS41V","3S829FDFT2NBOHQMM1CIOU0HZYXDXL","","null","<img src=""img/food3.png"" style=""width:200px;border:14px solid red;"">","null","","","","","",""
"","image-keyboard-response","347","175465","0.0-347.0","3FIUS151DWO50Z3HQJIOVCZ7DCXGGV","AIEKCWYZTS41V","3S829FDFT2NBOHQMM1CIOU0HZYXDXL","","645","img/food4.png","76","645.2999999970198","3","1","1","0,0.5,0.8,0.5,0,0.8,0,0.5,0.8,0,0.8,0.5",""
"","html-keyboard-response","348","175766","0.0-348.0","3FIUS151DWO50Z3HQJIOVCZ7DCXGGV","AIEKCWYZTS41V","3S829FDFT2NBOHQMM1CIOU0HZYXDXL","","null","<img src=""img/food4.png"" style=""width:200px; border:14px solid green;"">","null","","","","","",""
"","image-keyboard-response","349","177249","0.0-349.0","3FIUS151DWO50Z3HQJIOVCZ7DCXGGV","AIEKCWYZTS41V","3S829FDFT2NBOHQMM1CIOU0HZYXDXL","","1482.4000000059605","img/food6.png","74","1482.9000000059605","1","1","2","0,0.5,0.8,0.5,0,0.8,0,0.5,0.8,0,0.8,0.5",""
"","html-keyboard-response","350","177551","0.0-350.0","3FIUS151DWO50Z3HQJIOVCZ7DCXGGV","AIEKCWYZTS41V","3S829FDFT2NBOHQMM1CIOU0HZYXDXL","","null","<img src=""img/food6.png"" style=""width:200px; border:14px solid green;"">","null","","","","","",""
"","image-keyboard-response","351","178081","0.0-351.0","3FIUS151DWO50Z3HQJIOVCZ7DCXGGV","AIEKCWYZTS41V","3S829FDFT2NBOHQMM1CIOU0HZYXDXL","","529.7000000029802","img/food3.png","75","530.1999999880791","2","1","3","0,0.5,0.8,0.5,0,0.8,0,0.5,0.8,0,0.8,0.5",""
"","html-keyboard-response","352","178388","0.0-352.0","3FIUS151DWO50Z3HQJIOVCZ7DCXGGV","AIEKCWYZTS41V","3S829FDFT2NBOHQMM1CIOU0HZYXDXL","","null","<img src=""img/food3.png"" style=""width:200px; border:14px solid green;"">","null","","","","","",""
"","image-keyboard-response","353","178940","0.0-353.0","3FIUS151DWO50Z3HQJIOVCZ7DCXGGV","AIEKCWYZTS41V","3S829FDFT2NBOHQMM1CIOU0HZYXDXL","","551.6000000089407","img/food6.png","74","552.1000000089407","1","0","2","0,0.5,0.8,0.5,0,0.8,0,0.5,0.8,0,0.8,0.5",""
"","html-keyboard-response","354","179241","0.0-354.0","3FIUS151DWO50Z3HQJIOVCZ7DCXGGV","AIEKCWYZTS41V","3S829FDFT2NBOHQMM1CIOU0HZYXDXL","","null","<img src=""img/food6.png"" style=""width:200px;border:14px solid red;"">","null","","","","","",""
"","image-keyboard-response","355","179771","0.0-355.0","3FIUS151DWO50Z3HQJIOVCZ7DCXGGV","AIEKCWYZTS41V","3S829FDFT2NBOHQMM1CIOU0HZYXDXL","","529.7000000029802","img/food4.png","76","529.8999999910593","3","0","1","0,0.5,0.8,0.5,0,0.8,0,0.5,0.8,0,0.8,0.5",""
"","html-keyboard-response","356","180072","0.0-356.0","3FIUS151DWO50Z3HQJIOVCZ7DCXGGV","AIEKCWYZTS41V","3S829FDFT2NBOHQMM1CIOU0HZYXDXL","","null","<img src=""img/food4.png"" style=""width:200px;border:14px solid red;"">","null","","","","","",""
"","image-keyboard-response","357","180600","0.0-357.0","3FIUS151DWO50Z3HQJIOVCZ7DCXGGV","AIEKCWYZTS41V","3S829FDFT2NBOHQMM1CIOU0HZYXDXL","","528.4000000059605","img/food6.png","74","528.8000000119209","1","0","2","0,0.5,0.8,0.5,0,0.8,0,0.5,0.8,0,0.8,0.5",""
"","html-keyboard-response","358","180902","0.0-358.0","3FIUS151DWO50Z3HQJIOVCZ7DCXGGV","AIEKCWYZTS41V","3S829FDFT2NBOHQMM1CIOU0HZYXDXL","","null","<img src=""img/food6.png"" style=""width:200px;border:14px solid red;"">","null","","","","","",""
"","image-keyboard-response","359","181514","0.0-359.0","3FIUS151DWO50Z3HQJIOVCZ7DCXGGV","AIEKCWYZTS41V","3S829FDFT2NBOHQMM1CIOU0HZYXDXL","","610.8000000119209","img/food3.png","75","611.0999999940395","2","0","3","0,0.5,0.8,0.5,0,0.8,0,0.5,0.8,0,0.8,0.5",""
"","html-keyboard-response","360","181815","0.0-360.0","3FIUS151DWO50Z3HQJIOVCZ7DCXGGV","AIEKCWYZTS41V","3S829FDFT2NBOHQMM1CIOU0HZYXDXL","","null","<img src=""img/food3.png"" style=""width:200px;border:14px solid red;"">","null","","","","","",""
"","image-keyboard-response","361","182343","0.0-361.0","3FIUS151DWO50Z3HQJIOVCZ7DCXGGV","AIEKCWYZTS41V","3S829FDFT2NBOHQMM1CIOU0HZYXDXL","","528.2000000029802","img/food6.png","74","528.7000000029802","1","0","2","0,0.5,0.8,0.5,0,0.8,0,0.5,0.8,0,0.8,0.5",""
"","html-keyboard-response","362","182644","0.0-362.0","3FIUS151DWO50Z3HQJIOVCZ7DCXGGV","AIEKCWYZTS41V","3S829FDFT2NBOHQMM1CIOU0HZYXDXL","","null","<img src=""img/food6.png"" style=""width:200px;border:14px solid red;"">","null","","","","","",""
"","instructions","363","184297","0.0-363.0","3FIUS151DWO50Z3HQJIOVCZ7DCXGGV","AIEKCWYZTS41V","3S829FDFT2NBOHQMM1CIOU0HZYXDXL","[{""page_index"":0,""viewing_time"":1651.9000000059605}]","1652.2000000029802","","","","","","","",""
"","survey-text","364","188857","0.0-364.0","3FIUS151DWO50Z3HQJIOVCZ7DCXGGV","AIEKCWYZTS41V","3S829FDFT2NBOHQMM1CIOU0HZYXDXL","","4559.399999991059","","","","","","","","{""Q0"":""AIEKCWYZTS41V""}"
