"success","trial_type","trial_index","time_elapsed","internal_node_id","assignmentID","mturkID","hitID","view_history","rt","stimulus","key_press","reactionTime","a","r","warning","s","cond","reward_cond","reward_cond_actual","reward_matrix_idx","responses"
"true","fullscreen","0","5249","0.0-0.0","3TYCR1GOTD5LD8CNR23TTBKLN18ZL7","AIXZNUNYZHM4I","3MVY4USGB69K0BK9K576GJZ2CVDSII","","","","","","","","","","","","","",""
"","instructions","1","16490","0.0-1.0","3TYCR1GOTD5LD8CNR23TTBKLN18ZL7","AIXZNUNYZHM4I","3MVY4USGB69K0BK9K576GJZ2CVDSII","[{""page_index"":0,""viewing_time"":2950.699999988079},{""page_index"":1,""viewing_time"":1355.699999988079},{""page_index"":2,""viewing_time"":516},{""page_index"":3,""viewing_time"":3304.100000023842},{""page_index"":4,""viewing_time"":1376.0999999940395},{""page_index"":5,""viewing_time"":943.6999999880791},{""page_index"":6,""viewing_time"":792.3000000119209}]","11239.399999976158","","","","","","","","","","","",""
"","instructions","2","34155","0.0-2.0","3TYCR1GOTD5LD8CNR23TTBKLN18ZL7","AIXZNUNYZHM4I","3MVY4USGB69K0BK9K576GJZ2CVDSII","[{""page_index"":0,""viewing_time"":14526.5},{""page_index"":1,""viewing_time"":3137.2000000178814}]","17664.09999999404","","","","","","","","","","","",""
"","image-keyboard-response","3","35003","0.0-3.0","3TYCR1GOTD5LD8CNR23TTBKLN18ZL7","AIXZNUNYZHM4I","3MVY4USGB69K0BK9K576GJZ2CVDSII","","846.0999999940395","img/food6.png","75","847.4000000059605","2","1","false","2","2","1,0.7,0,1,0.7,0,0.7,0,1","1,0.7,0,1,0.7,0,0.7,0,1","1",""
"","html-keyboard-response","4","35313","0.0-4.0","3TYCR1GOTD5LD8CNR23TTBKLN18ZL7","AIXZNUNYZHM4I","3MVY4USGB69K0BK9K576GJZ2CVDSII","","null","<img src=""img/food6.png"" style=""width:200px; border:14px solid green;"">","null","","","","","","","","","",""
"","image-keyboard-response","5","36114","0.0-6.0","3TYCR1GOTD5LD8CNR23TTBKLN18ZL7","AIXZNUNYZHM4I","3MVY4USGB69K0BK9K576GJZ2CVDSII","","799.9000000059605","img/food1.png","76","800.7000000178814","3","0","false","1","2","1,0.7,0,1,0.7,0,0.7,0,1","1,0.7,0,1,0.7,0,0.7,0,1","1",""
"","html-keyboard-response","6","36417","0.0-7.0","3TYCR1GOTD5LD8CNR23TTBKLN18ZL7","AIXZNUNYZHM4I","3MVY4USGB69K0BK9K576GJZ2CVDSII","","null","<img src=""img/food1.png"" style=""width:200px;border:14px solid red;"">","null","","","","","","","","","",""
"","image-keyboard-response","7","37354","0.0-9.0","3TYCR1GOTD5LD8CNR23TTBKLN18ZL7","AIXZNUNYZHM4I","3MVY4USGB69K0BK9K576GJZ2CVDSII","","933","img/food1.png","74","933.6999999880791","1","1","false","1","2","1,0.7,0,1,0.7,0,0.7,0,1","1,0.7,0,1,0.7,0,0.7,0,1","1",""
"","html-keyboard-response","8","37657","0.0-10.0","3TYCR1GOTD5LD8CNR23TTBKLN18ZL7","AIXZNUNYZHM4I","3MVY4USGB69K0BK9K576GJZ2CVDSII","","null","<img src=""img/food1.png"" style=""width:200px; border:14px solid green;"">","null","","","","","","","","","",""
"","image-keyboard-response","9","38378","0.0-12.0","3TYCR1GOTD5LD8CNR23TTBKLN18ZL7","AIXZNUNYZHM4I","3MVY4USGB69K0BK9K576GJZ2CVDSII","","717.9000000059605","img/food6.png","76","720.9000000059605","3","0","false","2","2","1,0.7,0,1,0.7,0,0.7,0,1","1,0.7,0,1,0.7,0,0.7,0,1","1",""
"","html-keyboard-response","10","38681","0.0-13.0","3TYCR1GOTD5LD8CNR23TTBKLN18ZL7","AIXZNUNYZHM4I","3MVY4USGB69K0BK9K576GJZ2CVDSII","","null","<img src=""img/food6.png"" style=""width:200px;border:14px solid red;"">","null","","","","","","","","","",""
"","image-keyboard-response","11","39595","0.0-15.0","3TYCR1GOTD5LD8CNR23TTBKLN18ZL7","AIXZNUNYZHM4I","3MVY4USGB69K0BK9K576GJZ2CVDSII","","912.4000000059605","img/food6.png","74","913.1000000238419","1","1","false","2","2","1,0.7,0,1,0.7,0,0.7,0,1","1,0.7,0,1,0.7,0,0.7,0,1","1",""
"","html-keyboard-response","12","39897","0.0-16.0","3TYCR1GOTD5LD8CNR23TTBKLN18ZL7","AIXZNUNYZHM4I","3MVY4USGB69K0BK9K576GJZ2CVDSII","","null","<img src=""img/food6.png"" style=""width:200px; border:14px solid green;"">","null","","","","","","","","","",""
"","image-keyboard-response","13","40386","0.0-18.0","3TYCR1GOTD5LD8CNR23TTBKLN18ZL7","AIXZNUNYZHM4I","3MVY4USGB69K0BK9K576GJZ2CVDSII","","487.90000000596046","img/food6.png","74","488.40000000596046","1","1","false","2","2","1,0.7,0,1,0.7,0,0.7,0,1","1,0.7,0,1,0.7,0,0.7,0,1","1",""
"","html-keyboard-response","14","40690","0.0-19.0","3TYCR1GOTD5LD8CNR23TTBKLN18ZL7","AIXZNUNYZHM4I","3MVY4USGB69K0BK9K576GJZ2CVDSII","","null","<img src=""img/food6.png"" style=""width:200px; border:14px solid green;"">","null","","","","","","","","","",""
"","image-keyboard-response","15","41146","0.0-21.0","3TYCR1GOTD5LD8CNR23TTBKLN18ZL7","AIXZNUNYZHM4I","3MVY4USGB69K0BK9K576GJZ2CVDSII","","455.40000000596046","img/food6.png","74","456.09999999403954","1","1","false","2","2","1,0.7,0,1,0.7,0,0.7,0,1","1,0.7,0,1,0.7,0,0.7,0,1","1",""
"","html-keyboard-response","16","41450","0.0-22.0","3TYCR1GOTD5LD8CNR23TTBKLN18ZL7","AIXZNUNYZHM4I","3MVY4USGB69K0BK9K576GJZ2CVDSII","","null","<img src=""img/food6.png"" style=""width:200px; border:14px solid green;"">","null","","","","","","","","","",""
"","image-keyboard-response","17","41929","0.0-24.0","3TYCR1GOTD5LD8CNR23TTBKLN18ZL7","AIXZNUNYZHM4I","3MVY4USGB69K0BK9K576GJZ2CVDSII","","479","img/food6.png","74","479.39999997615814","1","1","false","2","2","1,0.7,0,1,0.7,0,0.7,0,1","1,0.7,0,1,0.7,0,0.7,0,1","1",""
"","html-keyboard-response","18","42234","0.0-25.0","3TYCR1GOTD5LD8CNR23TTBKLN18ZL7","AIXZNUNYZHM4I","3MVY4USGB69K0BK9K576GJZ2CVDSII","","null","<img src=""img/food6.png"" style=""width:200px; border:14px solid green;"">","null","","","","","","","","","",""
"","image-keyboard-response","19","43242","0.0-27.0","3TYCR1GOTD5LD8CNR23TTBKLN18ZL7","AIXZNUNYZHM4I","3MVY4USGB69K0BK9K576GJZ2CVDSII","","","img/food2.png","","1006.9000000059605","-1","0","true","3","2","1,0.7,0,1,0.7,0,0.7,0,1","1,0.7,0,1,0.7,0,0.7,0,1","1",""
"","html-keyboard-response","20","43546","0.0-28.0","3TYCR1GOTD5LD8CNR23TTBKLN18ZL7","AIXZNUNYZHM4I","3MVY4USGB69K0BK9K576GJZ2CVDSII","","null","<img src=""img/food2.png"" style=""width:200px;border:14px solid red;"">","null","","","","","","","","","",""
"","html-keyboard-response","21","50972","0.0-29.0-0.0","3TYCR1GOTD5LD8CNR23TTBKLN18ZL7","AIXZNUNYZHM4I","3MVY4USGB69K0BK9K576GJZ2CVDSII","","","","","","","","","","","","","",""
"","image-keyboard-response","22","51750","0.0-30.0","3TYCR1GOTD5LD8CNR23TTBKLN18ZL7","AIXZNUNYZHM4I","3MVY4USGB69K0BK9K576GJZ2CVDSII","","776.6999999880791","img/food2.png","76","777.5","3","1","false","3","2","1,0.7,0,1,0.7,0,0.7,0,1","1,0.7,0,1,0.7,0,0.7,0,1","1",""
"","html-keyboard-response","23","52058","0.0-31.0","3TYCR1GOTD5LD8CNR23TTBKLN18ZL7","AIXZNUNYZHM4I","3MVY4USGB69K0BK9K576GJZ2CVDSII","","null","<img src=""img/food2.png"" style=""width:200px; border:14px solid green;"">","null","","","","","","","","","",""
"","image-keyboard-response","24","52861","0.0-33.0","3TYCR1GOTD5LD8CNR23TTBKLN18ZL7","AIXZNUNYZHM4I","3MVY4USGB69K0BK9K576GJZ2CVDSII","","801.7999999821186","img/food1.png","74","802.6999999880791","1","1","false","1","2","1,0.7,0,1,0.7,0,0.7,0,1","1,0.7,0,1,0.7,0,0.7,0,1","1",""
"","html-keyboard-response","25","53170","0.0-34.0","3TYCR1GOTD5LD8CNR23TTBKLN18ZL7","AIXZNUNYZHM4I","3MVY4USGB69K0BK9K576GJZ2CVDSII","","null","<img src=""img/food1.png"" style=""width:200px; border:14px solid green;"">","null","","","","","","","","","",""
"","image-keyboard-response","26","54028","0.0-36.0","3TYCR1GOTD5LD8CNR23TTBKLN18ZL7","AIXZNUNYZHM4I","3MVY4USGB69K0BK9K576GJZ2CVDSII","","856.4000000059605","img/food6.png","75","857.6999999880791","2","1","false","2","2","1,0.7,0,1,0.7,0,0.7,0,1","1,0.7,0,1,0.7,0,0.7,0,1","1",""
"","html-keyboard-response","27","54330","0.0-37.0","3TYCR1GOTD5LD8CNR23TTBKLN18ZL7","AIXZNUNYZHM4I","3MVY4USGB69K0BK9K576GJZ2CVDSII","","null","<img src=""img/food6.png"" style=""width:200px; border:14px solid green;"">","null","","","","","","","","","",""
"","image-keyboard-response","28","55267","0.0-39.0","3TYCR1GOTD5LD8CNR23TTBKLN18ZL7","AIXZNUNYZHM4I","3MVY4USGB69K0BK9K576GJZ2CVDSII","","936.4000000059605","img/food2.png","76","937","3","1","false","3","2","1,0.7,0,1,0.7,0,0.7,0,1","1,0.7,0,1,0.7,0,0.7,0,1","1",""
"","html-keyboard-response","29","55570","0.0-40.0","3TYCR1GOTD5LD8CNR23TTBKLN18ZL7","AIXZNUNYZHM4I","3MVY4USGB69K0BK9K576GJZ2CVDSII","","null","<img src=""img/food2.png"" style=""width:200px; border:14px solid green;"">","null","","","","","","","","","",""
"","image-keyboard-response","30","56227","0.0-42.0","3TYCR1GOTD5LD8CNR23TTBKLN18ZL7","AIXZNUNYZHM4I","3MVY4USGB69K0BK9K576GJZ2CVDSII","","656.6999999880791","img/food1.png","74","657.5","1","1","false","1","2","1,0.7,0,1,0.7,0,0.7,0,1","1,0.7,0,1,0.7,0,0.7,0,1","1",""
"","html-keyboard-response","31","56530","0.0-43.0","3TYCR1GOTD5LD8CNR23TTBKLN18ZL7","AIXZNUNYZHM4I","3MVY4USGB69K0BK9K576GJZ2CVDSII","","null","<img src=""img/food1.png"" style=""width:200px; border:14px solid green;"">","null","","","","","","","","","",""
"","image-keyboard-response","32","57537","0.0-45.0","3TYCR1GOTD5LD8CNR23TTBKLN18ZL7","AIXZNUNYZHM4I","3MVY4USGB69K0BK9K576GJZ2CVDSII","","","img/food6.png","","1007.3999999761581","-1","0","true","2","2","1,0.7,0,1,0.7,0,0.7,0,1","1,0.7,0,1,0.7,0,0.7,0,1","1",""
"","html-keyboard-response","33","57843","0.0-46.0","3TYCR1GOTD5LD8CNR23TTBKLN18ZL7","AIXZNUNYZHM4I","3MVY4USGB69K0BK9K576GJZ2CVDSII","","null","<img src=""img/food6.png"" style=""width:200px;border:14px solid red;"">","null","","","","","","","","","",""
"","html-keyboard-response","34","59509","0.0-47.0-0.0","3TYCR1GOTD5LD8CNR23TTBKLN18ZL7","AIXZNUNYZHM4I","3MVY4USGB69K0BK9K576GJZ2CVDSII","","","","","","","","","","","","","",""
"","image-keyboard-response","35","60514","0.0-48.0","3TYCR1GOTD5LD8CNR23TTBKLN18ZL7","AIXZNUNYZHM4I","3MVY4USGB69K0BK9K576GJZ2CVDSII","","","img/food1.png","","1005.3999999761581","-1","0","true","1","2","1,0.7,0,1,0.7,0,0.7,0,1","1,0.7,0,1,0.7,0,0.7,0,1","1",""
"","html-keyboard-response","36","60818","0.0-49.0","3TYCR1GOTD5LD8CNR23TTBKLN18ZL7","AIXZNUNYZHM4I","3MVY4USGB69K0BK9K576GJZ2CVDSII","","null","<img src=""img/food1.png"" style=""width:200px;border:14px solid red;"">","null","","","","","","","","","",""
"","html-keyboard-response","37","64941","0.0-50.0-0.0","3TYCR1GOTD5LD8CNR23TTBKLN18ZL7","AIXZNUNYZHM4I","3MVY4USGB69K0BK9K576GJZ2CVDSII","","","","","","","","","","","","","",""
"","image-keyboard-response","38","65644","0.0-51.0","3TYCR1GOTD5LD8CNR23TTBKLN18ZL7","AIXZNUNYZHM4I","3MVY4USGB69K0BK9K576GJZ2CVDSII","","701.5999999940395","img/food6.png","76","702.4000000059605","3","0","false","2","2","1,0.7,0,1,0.7,0,0.7,0,1","1,0.7,0,1,0.7,0,0.7,0,1","1",""
"","html-keyboard-response","39","65946","0.0-52.0","3TYCR1GOTD5LD8CNR23TTBKLN18ZL7","AIXZNUNYZHM4I","3MVY4USGB69K0BK9K576GJZ2CVDSII","","null","<img src=""img/food6.png"" style=""width:200px;border:14px solid red;"">","null","","","","","","","","","",""
"","image-keyboard-response","40","66156","0.0-54.0","3TYCR1GOTD5LD8CNR23TTBKLN18ZL7","AIXZNUNYZHM4I","3MVY4USGB69K0BK9K576GJZ2CVDSII","","207.40000000596046","img/food6.png","74","209.40000000596046","1","1","false","2","2","1,0.7,0,1,0.7,0,0.7,0,1","1,0.7,0,1,0.7,0,0.7,0,1","1",""
"","html-keyboard-response","41","66466","0.0-55.0","3TYCR1GOTD5LD8CNR23TTBKLN18ZL7","AIXZNUNYZHM4I","3MVY4USGB69K0BK9K576GJZ2CVDSII","","null","<img src=""img/food6.png"" style=""width:200px; border:14px solid green;"">","null","","","","","","","","","",""
"","image-keyboard-response","42","66740","0.0-57.0","3TYCR1GOTD5LD8CNR23TTBKLN18ZL7","AIXZNUNYZHM4I","3MVY4USGB69K0BK9K576GJZ2CVDSII","","273.59999999403954","img/food1.png","74","274.40000000596046","1","1","false","1","2","1,0.7,0,1,0.7,0,0.7,0,1","1,0.7,0,1,0.7,0,0.7,0,1","1",""
"","html-keyboard-response","43","67050","0.0-58.0","3TYCR1GOTD5LD8CNR23TTBKLN18ZL7","AIXZNUNYZHM4I","3MVY4USGB69K0BK9K576GJZ2CVDSII","","null","<img src=""img/food1.png"" style=""width:200px; border:14px solid green;"">","null","","","","","","","","","",""
"","image-keyboard-response","44","67445","0.0-60.0","3TYCR1GOTD5LD8CNR23TTBKLN18ZL7","AIXZNUNYZHM4I","3MVY4USGB69K0BK9K576GJZ2CVDSII","","393.2999999821186","img/food6.png","74","394","1","1","false","2","2","1,0.7,0,1,0.7,0,0.7,0,1","1,0.7,0,1,0.7,0,0.7,0,1","1",""
"","html-keyboard-response","45","67754","0.0-61.0","3TYCR1GOTD5LD8CNR23TTBKLN18ZL7","AIXZNUNYZHM4I","3MVY4USGB69K0BK9K576GJZ2CVDSII","","null","<img src=""img/food6.png"" style=""width:200px; border:14px solid green;"">","null","","","","","","","","","",""
"","image-keyboard-response","46","68516","0.0-63.0","3TYCR1GOTD5LD8CNR23TTBKLN18ZL7","AIXZNUNYZHM4I","3MVY4USGB69K0BK9K576GJZ2CVDSII","","761","img/food1.png","74","761.5","1","1","false","1","2","1,0.7,0,1,0.7,0,0.7,0,1","1,0.7,0,1,0.7,0,0.7,0,1","1",""
"","html-keyboard-response","47","68826","0.0-64.0","3TYCR1GOTD5LD8CNR23TTBKLN18ZL7","AIXZNUNYZHM4I","3MVY4USGB69K0BK9K576GJZ2CVDSII","","null","<img src=""img/food1.png"" style=""width:200px; border:14px solid green;"">","null","","","","","","","","","",""
"","image-keyboard-response","48","69276","0.0-66.0","3TYCR1GOTD5LD8CNR23TTBKLN18ZL7","AIXZNUNYZHM4I","3MVY4USGB69K0BK9K576GJZ2CVDSII","","447.69999998807907","img/food1.png","74","450.2000000178814","1","1","false","1","2","1,0.7,0,1,0.7,0,0.7,0,1","1,0.7,0,1,0.7,0,0.7,0,1","1",""
"","html-keyboard-response","49","69586","0.0-67.0","3TYCR1GOTD5LD8CNR23TTBKLN18ZL7","AIXZNUNYZHM4I","3MVY4USGB69K0BK9K576GJZ2CVDSII","","null","<img src=""img/food1.png"" style=""width:200px; border:14px solid green;"">","null","","","","","","","","","",""
"","image-keyboard-response","50","70325","0.0-69.0","3TYCR1GOTD5LD8CNR23TTBKLN18ZL7","AIXZNUNYZHM4I","3MVY4USGB69K0BK9K576GJZ2CVDSII","","738.2999999821186","img/food6.png","76","739","3","0","false","2","2","1,0.7,0,1,0.7,0,0.7,0,1","1,0.7,0,1,0.7,0,0.7,0,1","1",""
"","html-keyboard-response","51","70634","0.0-70.0","3TYCR1GOTD5LD8CNR23TTBKLN18ZL7","AIXZNUNYZHM4I","3MVY4USGB69K0BK9K576GJZ2CVDSII","","null","<img src=""img/food6.png"" style=""width:200px;border:14px solid red;"">","null","","","","","","","","","",""
"","image-keyboard-response","52","71220","0.0-72.0","3TYCR1GOTD5LD8CNR23TTBKLN18ZL7","AIXZNUNYZHM4I","3MVY4USGB69K0BK9K576GJZ2CVDSII","","586","img/food2.png","76","586.5","3","1","false","3","2","1,0.7,0,1,0.7,0,0.7,0,1","1,0.7,0,1,0.7,0,0.7,0,1","1",""
"","html-keyboard-response","53","71530","0.0-73.0","3TYCR1GOTD5LD8CNR23TTBKLN18ZL7","AIXZNUNYZHM4I","3MVY4USGB69K0BK9K576GJZ2CVDSII","","null","<img src=""img/food2.png"" style=""width:200px; border:14px solid green;"">","null","","","","","","","","","",""
"","image-keyboard-response","54","72284","0.0-75.0","3TYCR1GOTD5LD8CNR23TTBKLN18ZL7","AIXZNUNYZHM4I","3MVY4USGB69K0BK9K576GJZ2CVDSII","","752.8000000119209","img/food1.png","74","753.5999999940395","1","1","false","1","2","1,0.7,0,1,0.7,0,0.7,0,1","1,0.7,0,1,0.7,0,0.7,0,1","1",""
"","html-keyboard-response","55","72594","0.0-76.0","3TYCR1GOTD5LD8CNR23TTBKLN18ZL7","AIXZNUNYZHM4I","3MVY4USGB69K0BK9K576GJZ2CVDSII","","null","<img src=""img/food1.png"" style=""width:200px; border:14px solid green;"">","null","","","","","","","","","",""
"","image-keyboard-response","56","73244","0.0-78.0","3TYCR1GOTD5LD8CNR23TTBKLN18ZL7","AIXZNUNYZHM4I","3MVY4USGB69K0BK9K576GJZ2CVDSII","","647.6999999880791","img/food2.png","76","648.3000000119209","3","1","false","3","2","1,0.7,0,1,0.7,0,0.7,0,1","1,0.7,0,1,0.7,0,0.7,0,1","1",""
"","html-keyboard-response","57","73554","0.0-79.0","3TYCR1GOTD5LD8CNR23TTBKLN18ZL7","AIXZNUNYZHM4I","3MVY4USGB69K0BK9K576GJZ2CVDSII","","null","<img src=""img/food2.png"" style=""width:200px; border:14px solid green;"">","null","","","","","","","","","",""
"","image-keyboard-response","58","74092","0.0-81.0","3TYCR1GOTD5LD8CNR23TTBKLN18ZL7","AIXZNUNYZHM4I","3MVY4USGB69K0BK9K576GJZ2CVDSII","","536.8000000119209","img/food1.png","74","537.5","1","1","false","1","2","1,0.7,0,1,0.7,0,0.7,0,1","1,0.7,0,1,0.7,0,0.7,0,1","1",""
"","html-keyboard-response","59","74394","0.0-82.0","3TYCR1GOTD5LD8CNR23TTBKLN18ZL7","AIXZNUNYZHM4I","3MVY4USGB69K0BK9K576GJZ2CVDSII","","null","<img src=""img/food1.png"" style=""width:200px; border:14px solid green;"">","null","","","","","","","","","",""
"","image-keyboard-response","60","75181","0.0-84.0","3TYCR1GOTD5LD8CNR23TTBKLN18ZL7","AIXZNUNYZHM4I","3MVY4USGB69K0BK9K576GJZ2CVDSII","","786.1000000238419","img/food6.png","75","787","2","0","false","2","2","1,0.7,0,1,0.7,0,0.7,0,1","1,0.7,0,1,0.7,0,0.7,0,1","1",""
"","html-keyboard-response","61","75490","0.0-85.0","3TYCR1GOTD5LD8CNR23TTBKLN18ZL7","AIXZNUNYZHM4I","3MVY4USGB69K0BK9K576GJZ2CVDSII","","null","<img src=""img/food6.png"" style=""width:200px;border:14px solid red;"">","null","","","","","","","","","",""
"","image-keyboard-response","62","76204","0.0-87.0","3TYCR1GOTD5LD8CNR23TTBKLN18ZL7","AIXZNUNYZHM4I","3MVY4USGB69K0BK9K576GJZ2CVDSII","","713.2000000178814","img/food1.png","74","713.8999999761581","1","1","false","1","2","1,0.7,0,1,0.7,0,0.7,0,1","1,0.7,0,1,0.7,0,0.7,0,1","1",""
"","html-keyboard-response","63","76514","0.0-88.0","3TYCR1GOTD5LD8CNR23TTBKLN18ZL7","AIXZNUNYZHM4I","3MVY4USGB69K0BK9K576GJZ2CVDSII","","null","<img src=""img/food1.png"" style=""width:200px; border:14px solid green;"">","null","","","","","","","","","",""
"","image-keyboard-response","64","77164","0.0-90.0","3TYCR1GOTD5LD8CNR23TTBKLN18ZL7","AIXZNUNYZHM4I","3MVY4USGB69K0BK9K576GJZ2CVDSII","","648.5999999940395","img/food2.png","76","649","3","1","false","3","2","1,0.7,0,1,0.7,0,0.7,0,1","1,0.7,0,1,0.7,0,0.7,0,1","1",""
"","html-keyboard-response","65","77466","0.0-91.0","3TYCR1GOTD5LD8CNR23TTBKLN18ZL7","AIXZNUNYZHM4I","3MVY4USGB69K0BK9K576GJZ2CVDSII","","null","<img src=""img/food2.png"" style=""width:200px; border:14px solid green;"">","null","","","","","","","","","",""
"","image-keyboard-response","66","77924","0.0-93.0","3TYCR1GOTD5LD8CNR23TTBKLN18ZL7","AIXZNUNYZHM4I","3MVY4USGB69K0BK9K576GJZ2CVDSII","","457.19999998807907","img/food6.png","74","457.80000001192093","1","1","false","2","2","1,0.7,0,1,0.7,0,0.7,0,1","1,0.7,0,1,0.7,0,0.7,0,1","1",""
"","html-keyboard-response","67","78226","0.0-94.0","3TYCR1GOTD5LD8CNR23TTBKLN18ZL7","AIXZNUNYZHM4I","3MVY4USGB69K0BK9K576GJZ2CVDSII","","null","<img src=""img/food6.png"" style=""width:200px; border:14px solid green;"">","null","","","","","","","","","",""
"","image-keyboard-response","68","78893","0.0-96.0","3TYCR1GOTD5LD8CNR23TTBKLN18ZL7","AIXZNUNYZHM4I","3MVY4USGB69K0BK9K576GJZ2CVDSII","","666.1999999880791","img/food2.png","76","666.8000000119209","3","1","false","3","2","1,0.7,0,1,0.7,0,0.7,0,1","1,0.7,0,1,0.7,0,0.7,0,1","1",""
"","html-keyboard-response","69","79201","0.0-97.0","3TYCR1GOTD5LD8CNR23TTBKLN18ZL7","AIXZNUNYZHM4I","3MVY4USGB69K0BK9K576GJZ2CVDSII","","null","<img src=""img/food2.png"" style=""width:200px; border:14px solid green;"">","null","","","","","","","","","",""
"","image-keyboard-response","70","79836","0.0-99.0","3TYCR1GOTD5LD8CNR23TTBKLN18ZL7","AIXZNUNYZHM4I","3MVY4USGB69K0BK9K576GJZ2CVDSII","","634.4000000059605","img/food2.png","76","635.0999999940395","3","1","false","3","2","1,0.7,0,1,0.7,0,0.7,0,1","1,0.7,0,1,0.7,0,0.7,0,1","1",""
"","html-keyboard-response","71","80146","0.0-100.0","3TYCR1GOTD5LD8CNR23TTBKLN18ZL7","AIXZNUNYZHM4I","3MVY4USGB69K0BK9K576GJZ2CVDSII","","null","<img src=""img/food2.png"" style=""width:200px; border:14px solid green;"">","null","","","","","","","","","",""
"","image-keyboard-response","72","80748","0.0-102.0","3TYCR1GOTD5LD8CNR23TTBKLN18ZL7","AIXZNUNYZHM4I","3MVY4USGB69K0BK9K576GJZ2CVDSII","","595","img/food1.png","74","601.6999999880791","1","1","false","1","2","1,0.7,0,1,0.7,0,0.7,0,1","1,0.7,0,1,0.7,0,0.7,0,1","1",""
"","html-keyboard-response","73","81058","0.0-103.0","3TYCR1GOTD5LD8CNR23TTBKLN18ZL7","AIXZNUNYZHM4I","3MVY4USGB69K0BK9K576GJZ2CVDSII","","null","<img src=""img/food1.png"" style=""width:200px; border:14px solid green;"">","null","","","","","","","","","",""
"","image-keyboard-response","74","81532","0.0-105.0","3TYCR1GOTD5LD8CNR23TTBKLN18ZL7","AIXZNUNYZHM4I","3MVY4USGB69K0BK9K576GJZ2CVDSII","","473.2000000178814","img/food6.png","74","473.7999999821186","1","1","false","2","2","1,0.7,0,1,0.7,0,0.7,0,1","1,0.7,0,1,0.7,0,0.7,0,1","1",""
"","html-keyboard-response","75","81843","0.0-106.0","3TYCR1GOTD5LD8CNR23TTBKLN18ZL7","AIXZNUNYZHM4I","3MVY4USGB69K0BK9K576GJZ2CVDSII","","null","<img src=""img/food6.png"" style=""width:200px; border:14px solid green;"">","null","","","","","","","","","",""
"","image-keyboard-response","76","82476","0.0-108.0","3TYCR1GOTD5LD8CNR23TTBKLN18ZL7","AIXZNUNYZHM4I","3MVY4USGB69K0BK9K576GJZ2CVDSII","","631.6999999880791","img/food2.png","76","632.2999999821186","3","1","false","3","2","1,0.7,0,1,0.7,0,0.7,0,1","1,0.7,0,1,0.7,0,0.7,0,1","1",""
"","html-keyboard-response","77","82778","0.0-109.0","3TYCR1GOTD5LD8CNR23TTBKLN18ZL7","AIXZNUNYZHM4I","3MVY4USGB69K0BK9K576GJZ2CVDSII","","null","<img src=""img/food2.png"" style=""width:200px; border:14px solid green;"">","null","","","","","","","","","",""
"","image-keyboard-response","78","83292","0.0-111.0","3TYCR1GOTD5LD8CNR23TTBKLN18ZL7","AIXZNUNYZHM4I","3MVY4USGB69K0BK9K576GJZ2CVDSII","","513.7999999821186","img/food2.png","76","514.4000000059605","3","1","false","3","2","1,0.7,0,1,0.7,0,0.7,0,1","1,0.7,0,1,0.7,0,0.7,0,1","1",""
"","html-keyboard-response","79","83602","0.0-112.0","3TYCR1GOTD5LD8CNR23TTBKLN18ZL7","AIXZNUNYZHM4I","3MVY4USGB69K0BK9K576GJZ2CVDSII","","null","<img src=""img/food2.png"" style=""width:200px; border:14px solid green;"">","null","","","","","","","","","",""
"","image-keyboard-response","80","84324","0.0-114.0","3TYCR1GOTD5LD8CNR23TTBKLN18ZL7","AIXZNUNYZHM4I","3MVY4USGB69K0BK9K576GJZ2CVDSII","","721.1000000238419","img/food6.png","74","721.9000000059605","1","1","false","2","2","1,0.7,0,1,0.7,0,0.7,0,1","1,0.7,0,1,0.7,0,0.7,0,1","1",""
"","html-keyboard-response","81","84634","0.0-115.0","3TYCR1GOTD5LD8CNR23TTBKLN18ZL7","AIXZNUNYZHM4I","3MVY4USGB69K0BK9K576GJZ2CVDSII","","null","<img src=""img/food6.png"" style=""width:200px; border:14px solid green;"">","null","","","","","","","","","",""
"","image-keyboard-response","82","85205","0.0-117.0","3TYCR1GOTD5LD8CNR23TTBKLN18ZL7","AIXZNUNYZHM4I","3MVY4USGB69K0BK9K576GJZ2CVDSII","","569.5","img/food2.png","76","570.0999999940395","3","1","false","3","2","1,0.7,0,1,0.7,0,0.7,0,1","1,0.7,0,1,0.7,0,0.7,0,1","1",""
"","html-keyboard-response","83","85514","0.0-118.0","3TYCR1GOTD5LD8CNR23TTBKLN18ZL7","AIXZNUNYZHM4I","3MVY4USGB69K0BK9K576GJZ2CVDSII","","null","<img src=""img/food2.png"" style=""width:200px; border:14px solid green;"">","null","","","","","","","","","",""
"","image-keyboard-response","84","86285","0.0-120.0","3TYCR1GOTD5LD8CNR23TTBKLN18ZL7","AIXZNUNYZHM4I","3MVY4USGB69K0BK9K576GJZ2CVDSII","","770.5","img/food1.png","74","771.1999999880791","1","1","false","1","2","1,0.7,0,1,0.7,0,0.7,0,1","1,0.7,0,1,0.7,0,0.7,0,1","1",""
"","html-keyboard-response","85","86594","0.0-121.0","3TYCR1GOTD5LD8CNR23TTBKLN18ZL7","AIXZNUNYZHM4I","3MVY4USGB69K0BK9K576GJZ2CVDSII","","null","<img src=""img/food1.png"" style=""width:200px; border:14px solid green;"">","null","","","","","","","","","",""
"","image-keyboard-response","86","87278","0.0-123.0","3TYCR1GOTD5LD8CNR23TTBKLN18ZL7","AIXZNUNYZHM4I","3MVY4USGB69K0BK9K576GJZ2CVDSII","","682.5999999940395","img/food2.png","76","683.8999999761581","3","1","false","3","2","1,0.7,0,1,0.7,0,0.7,0,1","1,0.7,0,1,0.7,0,0.7,0,1","1",""
"","html-keyboard-response","87","87585","0.0-124.0","3TYCR1GOTD5LD8CNR23TTBKLN18ZL7","AIXZNUNYZHM4I","3MVY4USGB69K0BK9K576GJZ2CVDSII","","null","<img src=""img/food2.png"" style=""width:200px; border:14px solid green;"">","null","","","","","","","","","",""
"","image-keyboard-response","88","88245","0.0-126.0","3TYCR1GOTD5LD8CNR23TTBKLN18ZL7","AIXZNUNYZHM4I","3MVY4USGB69K0BK9K576GJZ2CVDSII","","658.1999999880791","img/food1.png","74","658.8000000119209","1","1","false","1","2","1,0.7,0,1,0.7,0,0.7,0,1","1,0.7,0,1,0.7,0,0.7,0,1","1",""
"","html-keyboard-response","89","88555","0.0-127.0","3TYCR1GOTD5LD8CNR23TTBKLN18ZL7","AIXZNUNYZHM4I","3MVY4USGB69K0BK9K576GJZ2CVDSII","","null","<img src=""img/food1.png"" style=""width:200px; border:14px solid green;"">","null","","","","","","","","","",""
"","image-keyboard-response","90","89562","0.0-129.0","3TYCR1GOTD5LD8CNR23TTBKLN18ZL7","AIXZNUNYZHM4I","3MVY4USGB69K0BK9K576GJZ2CVDSII","","","img/food2.png","","1006.5","-1","0","true","3","2","1,0.7,0,1,0.7,0,0.7,0,1","1,0.7,0,1,0.7,0,0.7,0,1","1",""
"","html-keyboard-response","91","89866","0.0-130.0","3TYCR1GOTD5LD8CNR23TTBKLN18ZL7","AIXZNUNYZHM4I","3MVY4USGB69K0BK9K576GJZ2CVDSII","","null","<img src=""img/food2.png"" style=""width:200px;border:14px solid red;"">","null","","","","","","","","","",""
"","html-keyboard-response","92","91833","0.0-131.0-0.0","3TYCR1GOTD5LD8CNR23TTBKLN18ZL7","AIXZNUNYZHM4I","3MVY4USGB69K0BK9K576GJZ2CVDSII","","","","","","","","","","","","","",""
"","image-keyboard-response","93","92803","0.0-132.0","3TYCR1GOTD5LD8CNR23TTBKLN18ZL7","AIXZNUNYZHM4I","3MVY4USGB69K0BK9K576GJZ2CVDSII","","969.1999999880791","img/food2.png","76","970.2000000178814","3","1","false","3","2","1,0.7,0,1,0.7,0,0.7,0,1","1,0.7,0,1,0.7,0,0.7,0,1","1",""
"","html-keyboard-response","94","93105","0.0-133.0","3TYCR1GOTD5LD8CNR23TTBKLN18ZL7","AIXZNUNYZHM4I","3MVY4USGB69K0BK9K576GJZ2CVDSII","","null","<img src=""img/food2.png"" style=""width:200px; border:14px solid green;"">","null","","","","","","","","","",""
"","image-keyboard-response","95","93566","0.0-135.0","3TYCR1GOTD5LD8CNR23TTBKLN18ZL7","AIXZNUNYZHM4I","3MVY4USGB69K0BK9K576GJZ2CVDSII","","459.5","img/food2.png","76","460.5","3","1","false","3","2","1,0.7,0,1,0.7,0,0.7,0,1","1,0.7,0,1,0.7,0,0.7,0,1","1",""
"","html-keyboard-response","96","93874","0.0-136.0","3TYCR1GOTD5LD8CNR23TTBKLN18ZL7","AIXZNUNYZHM4I","3MVY4USGB69K0BK9K576GJZ2CVDSII","","null","<img src=""img/food2.png"" style=""width:200px; border:14px solid green;"">","null","","","","","","","","","",""
"","image-keyboard-response","97","94299","0.0-138.0","3TYCR1GOTD5LD8CNR23TTBKLN18ZL7","AIXZNUNYZHM4I","3MVY4USGB69K0BK9K576GJZ2CVDSII","","423.90000000596046","img/food2.png","76","425.09999999403954","3","1","false","3","2","1,0.7,0,1,0.7,0,0.7,0,1","1,0.7,0,1,0.7,0,0.7,0,1","1",""
"","html-keyboard-response","98","94601","0.0-139.0","3TYCR1GOTD5LD8CNR23TTBKLN18ZL7","AIXZNUNYZHM4I","3MVY4USGB69K0BK9K576GJZ2CVDSII","","null","<img src=""img/food2.png"" style=""width:200px; border:14px solid green;"">","null","","","","","","","","","",""
"","image-keyboard-response","99","95037","0.0-141.0","3TYCR1GOTD5LD8CNR23TTBKLN18ZL7","AIXZNUNYZHM4I","3MVY4USGB69K0BK9K576GJZ2CVDSII","","435.19999998807907","img/food2.png","76","435.80000001192093","3","1","false","3","2","1,0.7,0,1,0.7,0,0.7,0,1","1,0.7,0,1,0.7,0,0.7,0,1","1",""
"","html-keyboard-response","100","95345","0.0-142.0","3TYCR1GOTD5LD8CNR23TTBKLN18ZL7","AIXZNUNYZHM4I","3MVY4USGB69K0BK9K576GJZ2CVDSII","","null","<img src=""img/food2.png"" style=""width:200px; border:14px solid green;"">","null","","","","","","","","","",""
"","image-keyboard-response","101","95942","0.0-144.0","3TYCR1GOTD5LD8CNR23TTBKLN18ZL7","AIXZNUNYZHM4I","3MVY4USGB69K0BK9K576GJZ2CVDSII","","595.5","img/food1.png","74","596.3000000119209","1","1","false","1","2","1,0.7,0,1,0.7,0,0.7,0,1","1,0.7,0,1,0.7,0,0.7,0,1","1",""
"","html-keyboard-response","102","96250","0.0-145.0","3TYCR1GOTD5LD8CNR23TTBKLN18ZL7","AIXZNUNYZHM4I","3MVY4USGB69K0BK9K576GJZ2CVDSII","","null","<img src=""img/food1.png"" style=""width:200px; border:14px solid green;"">","null","","","","","","","","","",""
"","image-keyboard-response","103","96869","0.0-147.0","3TYCR1GOTD5LD8CNR23TTBKLN18ZL7","AIXZNUNYZHM4I","3MVY4USGB69K0BK9K576GJZ2CVDSII","","618.7000000178814","img/food6.png","74","619.5","1","1","false","2","2","1,0.7,0,1,0.7,0,0.7,0,1","1,0.7,0,1,0.7,0,0.7,0,1","1",""
"","html-keyboard-response","104","97178","0.0-148.0","3TYCR1GOTD5LD8CNR23TTBKLN18ZL7","AIXZNUNYZHM4I","3MVY4USGB69K0BK9K576GJZ2CVDSII","","null","<img src=""img/food6.png"" style=""width:200px; border:14px solid green;"">","null","","","","","","","","","",""
"","image-keyboard-response","105","97638","0.0-150.0","3TYCR1GOTD5LD8CNR23TTBKLN18ZL7","AIXZNUNYZHM4I","3MVY4USGB69K0BK9K576GJZ2CVDSII","","459","img/food6.png","74","459.69999998807907","1","1","false","2","2","1,0.7,0,1,0.7,0,0.7,0,1","1,0.7,0,1,0.7,0,0.7,0,1","1",""
"","html-keyboard-response","106","97947","0.0-151.0","3TYCR1GOTD5LD8CNR23TTBKLN18ZL7","AIXZNUNYZHM4I","3MVY4USGB69K0BK9K576GJZ2CVDSII","","null","<img src=""img/food6.png"" style=""width:200px; border:14px solid green;"">","null","","","","","","","","","",""
"","image-keyboard-response","107","98582","0.0-153.0","3TYCR1GOTD5LD8CNR23TTBKLN18ZL7","AIXZNUNYZHM4I","3MVY4USGB69K0BK9K576GJZ2CVDSII","","633.5999999940395","img/food2.png","76","634.4000000059605","3","1","false","3","2","1,0.7,0,1,0.7,0,0.7,0,1","1,0.7,0,1,0.7,0,0.7,0,1","1",""
"","html-keyboard-response","108","98890","0.0-154.0","3TYCR1GOTD5LD8CNR23TTBKLN18ZL7","AIXZNUNYZHM4I","3MVY4USGB69K0BK9K576GJZ2CVDSII","","null","<img src=""img/food2.png"" style=""width:200px; border:14px solid green;"">","null","","","","","","","","","",""
"","image-keyboard-response","109","99428","0.0-156.0","3TYCR1GOTD5LD8CNR23TTBKLN18ZL7","AIXZNUNYZHM4I","3MVY4USGB69K0BK9K576GJZ2CVDSII","","537.7000000178814","img/food1.png","74","538.4000000059605","1","1","false","1","2","1,0.7,0,1,0.7,0,0.7,0,1","1,0.7,0,1,0.7,0,0.7,0,1","1",""
"","html-keyboard-response","110","99738","0.0-157.0","3TYCR1GOTD5LD8CNR23TTBKLN18ZL7","AIXZNUNYZHM4I","3MVY4USGB69K0BK9K576GJZ2CVDSII","","null","<img src=""img/food1.png"" style=""width:200px; border:14px solid green;"">","null","","","","","","","","","",""
"","image-keyboard-response","111","100237","0.0-159.0","3TYCR1GOTD5LD8CNR23TTBKLN18ZL7","AIXZNUNYZHM4I","3MVY4USGB69K0BK9K576GJZ2CVDSII","","498.40000000596046","img/food1.png","74","499.59999999403954","1","1","false","1","2","1,0.7,0,1,0.7,0,0.7,0,1","1,0.7,0,1,0.7,0,0.7,0,1","1",""
"","html-keyboard-response","112","100546","0.0-160.0","3TYCR1GOTD5LD8CNR23TTBKLN18ZL7","AIXZNUNYZHM4I","3MVY4USGB69K0BK9K576GJZ2CVDSII","","null","<img src=""img/food1.png"" style=""width:200px; border:14px solid green;"">","null","","","","","","","","","",""
"","image-keyboard-response","113","101044","0.0-162.0","3TYCR1GOTD5LD8CNR23TTBKLN18ZL7","AIXZNUNYZHM4I","3MVY4USGB69K0BK9K576GJZ2CVDSII","","496.90000000596046","img/food2.png","76","497.80000001192093","3","1","false","3","2","1,0.7,0,1,0.7,0,0.7,0,1","1,0.7,0,1,0.7,0,0.7,0,1","1",""
"","html-keyboard-response","114","101354","0.0-163.0","3TYCR1GOTD5LD8CNR23TTBKLN18ZL7","AIXZNUNYZHM4I","3MVY4USGB69K0BK9K576GJZ2CVDSII","","null","<img src=""img/food2.png"" style=""width:200px; border:14px solid green;"">","null","","","","","","","","","",""
"","image-keyboard-response","115","101980","0.0-165.0","3TYCR1GOTD5LD8CNR23TTBKLN18ZL7","AIXZNUNYZHM4I","3MVY4USGB69K0BK9K576GJZ2CVDSII","","625.0999999940395","img/food1.png","74","625.7000000178814","1","1","false","1","2","1,0.7,0,1,0.7,0,0.7,0,1","1,0.7,0,1,0.7,0,0.7,0,1","1",""
"","html-keyboard-response","116","102282","0.0-166.0","3TYCR1GOTD5LD8CNR23TTBKLN18ZL7","AIXZNUNYZHM4I","3MVY4USGB69K0BK9K576GJZ2CVDSII","","null","<img src=""img/food1.png"" style=""width:200px; border:14px solid green;"">","null","","","","","","","","","",""
"","image-keyboard-response","117","102717","0.0-168.0","3TYCR1GOTD5LD8CNR23TTBKLN18ZL7","AIXZNUNYZHM4I","3MVY4USGB69K0BK9K576GJZ2CVDSII","","433.5","img/food6.png","74","434.69999998807907","1","1","false","2","2","1,0.7,0,1,0.7,0,0.7,0,1","1,0.7,0,1,0.7,0,0.7,0,1","1",""
"","html-keyboard-response","118","103025","0.0-169.0","3TYCR1GOTD5LD8CNR23TTBKLN18ZL7","AIXZNUNYZHM4I","3MVY4USGB69K0BK9K576GJZ2CVDSII","","null","<img src=""img/food6.png"" style=""width:200px; border:14px solid green;"">","null","","","","","","","","","",""
"","image-keyboard-response","119","103453","0.0-171.0","3TYCR1GOTD5LD8CNR23TTBKLN18ZL7","AIXZNUNYZHM4I","3MVY4USGB69K0BK9K576GJZ2CVDSII","","426.7999999821186","img/food6.png","74","427.5","1","1","false","2","2","1,0.7,0,1,0.7,0,0.7,0,1","1,0.7,0,1,0.7,0,0.7,0,1","1",""
"","html-keyboard-response","120","103762","0.0-172.0","3TYCR1GOTD5LD8CNR23TTBKLN18ZL7","AIXZNUNYZHM4I","3MVY4USGB69K0BK9K576GJZ2CVDSII","","null","<img src=""img/food6.png"" style=""width:200px; border:14px solid green;"">","null","","","","","","","","","",""
"","image-keyboard-response","121","104206","0.0-174.0","3TYCR1GOTD5LD8CNR23TTBKLN18ZL7","AIXZNUNYZHM4I","3MVY4USGB69K0BK9K576GJZ2CVDSII","","442.90000000596046","img/food6.png","74","443.7999999821186","1","1","false","2","2","1,0.7,0,1,0.7,0,0.7,0,1","1,0.7,0,1,0.7,0,0.7,0,1","1",""
"","html-keyboard-response","122","104513","0.0-175.0","3TYCR1GOTD5LD8CNR23TTBKLN18ZL7","AIXZNUNYZHM4I","3MVY4USGB69K0BK9K576GJZ2CVDSII","","null","<img src=""img/food6.png"" style=""width:200px; border:14px solid green;"">","null","","","","","","","","","",""
"","image-keyboard-response","123","105131","0.0-177.0","3TYCR1GOTD5LD8CNR23TTBKLN18ZL7","AIXZNUNYZHM4I","3MVY4USGB69K0BK9K576GJZ2CVDSII","","616.8000000119209","img/food2.png","76","617.2999999821186","3","1","false","3","2","1,0.7,0,1,0.7,0,0.7,0,1","1,0.7,0,1,0.7,0,0.7,0,1","1",""
"","html-keyboard-response","124","105434","0.0-178.0","3TYCR1GOTD5LD8CNR23TTBKLN18ZL7","AIXZNUNYZHM4I","3MVY4USGB69K0BK9K576GJZ2CVDSII","","null","<img src=""img/food2.png"" style=""width:200px; border:14px solid green;"">","null","","","","","","","","","",""
"","image-keyboard-response","125","106013","0.0-180.0","3TYCR1GOTD5LD8CNR23TTBKLN18ZL7","AIXZNUNYZHM4I","3MVY4USGB69K0BK9K576GJZ2CVDSII","","577.4000000059605","img/food1.png","74","578.8000000119209","1","1","false","1","2","1,0.7,0,1,0.7,0,0.7,0,1","1,0.7,0,1,0.7,0,0.7,0,1","1",""
"","html-keyboard-response","126","106321","0.0-181.0","3TYCR1GOTD5LD8CNR23TTBKLN18ZL7","AIXZNUNYZHM4I","3MVY4USGB69K0BK9K576GJZ2CVDSII","","null","<img src=""img/food1.png"" style=""width:200px; border:14px solid green;"">","null","","","","","","","","","",""
"","image-keyboard-response","127","106773","0.0-183.0","3TYCR1GOTD5LD8CNR23TTBKLN18ZL7","AIXZNUNYZHM4I","3MVY4USGB69K0BK9K576GJZ2CVDSII","","450.2000000178814","img/food1.png","74","451.40000000596046","1","1","false","1","2","1,0.7,0,1,0.7,0,0.7,0,1","1,0.7,0,1,0.7,0,0.7,0,1","1",""
"","html-keyboard-response","128","107082","0.0-184.0","3TYCR1GOTD5LD8CNR23TTBKLN18ZL7","AIXZNUNYZHM4I","3MVY4USGB69K0BK9K576GJZ2CVDSII","","null","<img src=""img/food1.png"" style=""width:200px; border:14px solid green;"">","null","","","","","","","","","",""
"","image-keyboard-response","129","107580","0.0-186.0","3TYCR1GOTD5LD8CNR23TTBKLN18ZL7","AIXZNUNYZHM4I","3MVY4USGB69K0BK9K576GJZ2CVDSII","","497.2999999821186","img/food2.png","76","498","3","1","false","3","2","1,0.7,0,1,0.7,0,0.7,0,1","1,0.7,0,1,0.7,0,0.7,0,1","1",""
"","html-keyboard-response","130","107889","0.0-187.0","3TYCR1GOTD5LD8CNR23TTBKLN18ZL7","AIXZNUNYZHM4I","3MVY4USGB69K0BK9K576GJZ2CVDSII","","null","<img src=""img/food2.png"" style=""width:200px; border:14px solid green;"">","null","","","","","","","","","",""
"","image-keyboard-response","131","108460","0.0-189.0","3TYCR1GOTD5LD8CNR23TTBKLN18ZL7","AIXZNUNYZHM4I","3MVY4USGB69K0BK9K576GJZ2CVDSII","","569.9000000059605","img/food6.png","74","570.5999999940395","1","1","false","2","2","1,0.7,0,1,0.7,0,0.7,0,1","1,0.7,0,1,0.7,0,0.7,0,1","1",""
"","html-keyboard-response","132","108770","0.0-190.0","3TYCR1GOTD5LD8CNR23TTBKLN18ZL7","AIXZNUNYZHM4I","3MVY4USGB69K0BK9K576GJZ2CVDSII","","null","<img src=""img/food6.png"" style=""width:200px; border:14px solid green;"">","null","","","","","","","","","",""
"","image-keyboard-response","133","109316","0.0-192.0","3TYCR1GOTD5LD8CNR23TTBKLN18ZL7","AIXZNUNYZHM4I","3MVY4USGB69K0BK9K576GJZ2CVDSII","","545.5","img/food2.png","76","546.0999999940395","3","1","false","3","2","1,0.7,0,1,0.7,0,0.7,0,1","1,0.7,0,1,0.7,0,0.7,0,1","1",""
"","html-keyboard-response","134","109625","0.0-193.0","3TYCR1GOTD5LD8CNR23TTBKLN18ZL7","AIXZNUNYZHM4I","3MVY4USGB69K0BK9K576GJZ2CVDSII","","null","<img src=""img/food2.png"" style=""width:200px; border:14px solid green;"">","null","","","","","","","","","",""
"","image-keyboard-response","135","110189","0.0-195.0","3TYCR1GOTD5LD8CNR23TTBKLN18ZL7","AIXZNUNYZHM4I","3MVY4USGB69K0BK9K576GJZ2CVDSII","","562.6999999880791","img/food2.png","76","563.5999999940395","3","1","false","3","2","1,0.7,0,1,0.7,0,0.7,0,1","1,0.7,0,1,0.7,0,0.7,0,1","1",""
"","html-keyboard-response","136","110497","0.0-196.0","3TYCR1GOTD5LD8CNR23TTBKLN18ZL7","AIXZNUNYZHM4I","3MVY4USGB69K0BK9K576GJZ2CVDSII","","null","<img src=""img/food2.png"" style=""width:200px; border:14px solid green;"">","null","","","","","","","","","",""
"","image-keyboard-response","137","111043","0.0-198.0","3TYCR1GOTD5LD8CNR23TTBKLN18ZL7","AIXZNUNYZHM4I","3MVY4USGB69K0BK9K576GJZ2CVDSII","","545","img/food6.png","74","545.7000000178814","1","1","false","2","2","1,0.7,0,1,0.7,0,0.7,0,1","1,0.7,0,1,0.7,0,0.7,0,1","1",""
"","html-keyboard-response","138","111346","0.0-199.0","3TYCR1GOTD5LD8CNR23TTBKLN18ZL7","AIXZNUNYZHM4I","3MVY4USGB69K0BK9K576GJZ2CVDSII","","null","<img src=""img/food6.png"" style=""width:200px; border:14px solid green;"">","null","","","","","","","","","",""
"","image-keyboard-response","139","111851","0.0-201.0","3TYCR1GOTD5LD8CNR23TTBKLN18ZL7","AIXZNUNYZHM4I","3MVY4USGB69K0BK9K576GJZ2CVDSII","","505.09999999403954","img/food6.png","74","505.60000002384186","1","1","false","2","2","1,0.7,0,1,0.7,0,0.7,0,1","1,0.7,0,1,0.7,0,0.7,0,1","1",""
"","html-keyboard-response","140","112154","0.0-202.0","3TYCR1GOTD5LD8CNR23TTBKLN18ZL7","AIXZNUNYZHM4I","3MVY4USGB69K0BK9K576GJZ2CVDSII","","null","<img src=""img/food6.png"" style=""width:200px; border:14px solid green;"">","null","","","","","","","","","",""
"","image-keyboard-response","141","112740","0.0-204.0","3TYCR1GOTD5LD8CNR23TTBKLN18ZL7","AIXZNUNYZHM4I","3MVY4USGB69K0BK9K576GJZ2CVDSII","","585.3000000119209","img/food1.png","74","585.9000000059605","1","1","false","1","2","1,0.7,0,1,0.7,0,0.7,0,1","1,0.7,0,1,0.7,0,0.7,0,1","1",""
"","html-keyboard-response","142","113049","0.0-205.0","3TYCR1GOTD5LD8CNR23TTBKLN18ZL7","AIXZNUNYZHM4I","3MVY4USGB69K0BK9K576GJZ2CVDSII","","null","<img src=""img/food1.png"" style=""width:200px; border:14px solid green;"">","null","","","","","","","","","",""
"","image-keyboard-response","143","113548","0.0-207.0","3TYCR1GOTD5LD8CNR23TTBKLN18ZL7","AIXZNUNYZHM4I","3MVY4USGB69K0BK9K576GJZ2CVDSII","","498","img/food1.png","74","498.80000001192093","1","1","false","1","2","1,0.7,0,1,0.7,0,0.7,0,1","1,0.7,0,1,0.7,0,0.7,0,1","1",""
"","html-keyboard-response","144","113857","0.0-208.0","3TYCR1GOTD5LD8CNR23TTBKLN18ZL7","AIXZNUNYZHM4I","3MVY4USGB69K0BK9K576GJZ2CVDSII","","null","<img src=""img/food1.png"" style=""width:200px; border:14px solid green;"">","null","","","","","","","","","",""
"","image-keyboard-response","145","114284","0.0-210.0","3TYCR1GOTD5LD8CNR23TTBKLN18ZL7","AIXZNUNYZHM4I","3MVY4USGB69K0BK9K576GJZ2CVDSII","","426.09999999403954","img/food1.png","74","427.09999999403954","1","1","false","1","2","1,0.7,0,1,0.7,0,0.7,0,1","1,0.7,0,1,0.7,0,0.7,0,1","1",""
"","html-keyboard-response","146","114593","0.0-211.0","3TYCR1GOTD5LD8CNR23TTBKLN18ZL7","AIXZNUNYZHM4I","3MVY4USGB69K0BK9K576GJZ2CVDSII","","null","<img src=""img/food1.png"" style=""width:200px; border:14px solid green;"">","null","","","","","","","","","",""
"","image-keyboard-response","147","115155","0.0-213.0","3TYCR1GOTD5LD8CNR23TTBKLN18ZL7","AIXZNUNYZHM4I","3MVY4USGB69K0BK9K576GJZ2CVDSII","","561","img/food2.png","76","561.8000000119209","3","1","false","3","2","1,0.7,0,1,0.7,0,0.7,0,1","1,0.7,0,1,0.7,0,0.7,0,1","1",""
"","html-keyboard-response","148","115458","0.0-214.0","3TYCR1GOTD5LD8CNR23TTBKLN18ZL7","AIXZNUNYZHM4I","3MVY4USGB69K0BK9K576GJZ2CVDSII","","null","<img src=""img/food2.png"" style=""width:200px; border:14px solid green;"">","null","","","","","","","","","",""
"","image-keyboard-response","149","116044","0.0-216.0","3TYCR1GOTD5LD8CNR23TTBKLN18ZL7","AIXZNUNYZHM4I","3MVY4USGB69K0BK9K576GJZ2CVDSII","","584.8000000119209","img/food6.png","74","586.2000000178814","1","1","false","2","2","1,0.7,0,1,0.7,0,0.7,0,1","1,0.7,0,1,0.7,0,0.7,0,1","1",""
"","html-keyboard-response","150","116354","0.0-217.0","3TYCR1GOTD5LD8CNR23TTBKLN18ZL7","AIXZNUNYZHM4I","3MVY4USGB69K0BK9K576GJZ2CVDSII","","null","<img src=""img/food6.png"" style=""width:200px; border:14px solid green;"">","null","","","","","","","","","",""
"","image-keyboard-response","151","116755","0.0-219.0","3TYCR1GOTD5LD8CNR23TTBKLN18ZL7","AIXZNUNYZHM4I","3MVY4USGB69K0BK9K576GJZ2CVDSII","","398.40000000596046","img/food6.png","74","399.90000000596046","1","1","false","2","2","1,0.7,0,1,0.7,0,0.7,0,1","1,0.7,0,1,0.7,0,0.7,0,1","1",""
"","html-keyboard-response","152","117058","0.0-220.0","3TYCR1GOTD5LD8CNR23TTBKLN18ZL7","AIXZNUNYZHM4I","3MVY4USGB69K0BK9K576GJZ2CVDSII","","null","<img src=""img/food6.png"" style=""width:200px; border:14px solid green;"">","null","","","","","","","","","",""
"","image-keyboard-response","153","117582","0.0-222.0","3TYCR1GOTD5LD8CNR23TTBKLN18ZL7","AIXZNUNYZHM4I","3MVY4USGB69K0BK9K576GJZ2CVDSII","","522.4000000059605","img/food6.png","74","523.3000000119209","1","1","false","2","2","1,0.7,0,1,0.7,0,0.7,0,1","1,0.7,0,1,0.7,0,0.7,0,1","1",""
"","html-keyboard-response","154","117889","0.0-223.0","3TYCR1GOTD5LD8CNR23TTBKLN18ZL7","AIXZNUNYZHM4I","3MVY4USGB69K0BK9K576GJZ2CVDSII","","null","<img src=""img/food6.png"" style=""width:200px; border:14px solid green;"">","null","","","","","","","","","",""
"","image-keyboard-response","155","118389","0.0-225.0","3TYCR1GOTD5LD8CNR23TTBKLN18ZL7","AIXZNUNYZHM4I","3MVY4USGB69K0BK9K576GJZ2CVDSII","","499.10000002384186","img/food2.png","76","499.59999999403954","3","1","false","3","2","1,0.7,0,1,0.7,0,0.7,0,1","1,0.7,0,1,0.7,0,0.7,0,1","1",""
"","html-keyboard-response","156","118697","0.0-226.0","3TYCR1GOTD5LD8CNR23TTBKLN18ZL7","AIXZNUNYZHM4I","3MVY4USGB69K0BK9K576GJZ2CVDSII","","null","<img src=""img/food2.png"" style=""width:200px; border:14px solid green;"">","null","","","","","","","","","",""
"","image-keyboard-response","157","119156","0.0-228.0","3TYCR1GOTD5LD8CNR23TTBKLN18ZL7","AIXZNUNYZHM4I","3MVY4USGB69K0BK9K576GJZ2CVDSII","","458.19999998807907","img/food2.png","76","459.2000000178814","3","1","false","3","2","1,0.7,0,1,0.7,0,0.7,0,1","1,0.7,0,1,0.7,0,0.7,0,1","1",""
"","html-keyboard-response","158","119466","0.0-229.0","3TYCR1GOTD5LD8CNR23TTBKLN18ZL7","AIXZNUNYZHM4I","3MVY4USGB69K0BK9K576GJZ2CVDSII","","null","<img src=""img/food2.png"" style=""width:200px; border:14px solid green;"">","null","","","","","","","","","",""
"","image-keyboard-response","159","119913","0.0-231.0","3TYCR1GOTD5LD8CNR23TTBKLN18ZL7","AIXZNUNYZHM4I","3MVY4USGB69K0BK9K576GJZ2CVDSII","","445.69999998807907","img/food2.png","76","447","3","1","false","3","2","1,0.7,0,1,0.7,0,0.7,0,1","1,0.7,0,1,0.7,0,0.7,0,1","1",""
"","html-keyboard-response","160","120218","0.0-232.0","3TYCR1GOTD5LD8CNR23TTBKLN18ZL7","AIXZNUNYZHM4I","3MVY4USGB69K0BK9K576GJZ2CVDSII","","null","<img src=""img/food2.png"" style=""width:200px; border:14px solid green;"">","null","","","","","","","","","",""
"","image-keyboard-response","161","120675","0.0-234.0","3TYCR1GOTD5LD8CNR23TTBKLN18ZL7","AIXZNUNYZHM4I","3MVY4USGB69K0BK9K576GJZ2CVDSII","","456.2999999821186","img/food1.png","74","456.90000000596046","1","1","false","1","2","1,0.7,0,1,0.7,0,0.7,0,1","1,0.7,0,1,0.7,0,0.7,0,1","1",""
"","html-keyboard-response","162","120977","0.0-235.0","3TYCR1GOTD5LD8CNR23TTBKLN18ZL7","AIXZNUNYZHM4I","3MVY4USGB69K0BK9K576GJZ2CVDSII","","null","<img src=""img/food1.png"" style=""width:200px; border:14px solid green;"">","null","","","","","","","","","",""
"","image-keyboard-response","163","121477","0.0-237.0","3TYCR1GOTD5LD8CNR23TTBKLN18ZL7","AIXZNUNYZHM4I","3MVY4USGB69K0BK9K576GJZ2CVDSII","","499.40000000596046","img/food1.png","74","499.90000000596046","1","1","false","1","2","1,0.7,0,1,0.7,0,0.7,0,1","1,0.7,0,1,0.7,0,0.7,0,1","1",""
"","html-keyboard-response","164","121785","0.0-238.0","3TYCR1GOTD5LD8CNR23TTBKLN18ZL7","AIXZNUNYZHM4I","3MVY4USGB69K0BK9K576GJZ2CVDSII","","null","<img src=""img/food1.png"" style=""width:200px; border:14px solid green;"">","null","","","","","","","","","",""
"","image-keyboard-response","165","122238","0.0-240.0","3TYCR1GOTD5LD8CNR23TTBKLN18ZL7","AIXZNUNYZHM4I","3MVY4USGB69K0BK9K576GJZ2CVDSII","","452.30000001192093","img/food1.png","74","453","1","1","false","1","2","1,0.7,0,1,0.7,0,0.7,0,1","1,0.7,0,1,0.7,0,0.7,0,1","1",""
"","html-keyboard-response","166","122547","0.0-241.0","3TYCR1GOTD5LD8CNR23TTBKLN18ZL7","AIXZNUNYZHM4I","3MVY4USGB69K0BK9K576GJZ2CVDSII","","null","<img src=""img/food1.png"" style=""width:200px; border:14px solid green;"">","null","","","","","","","","","",""
"","image-keyboard-response","167","122987","0.0-243.0","3TYCR1GOTD5LD8CNR23TTBKLN18ZL7","AIXZNUNYZHM4I","3MVY4USGB69K0BK9K576GJZ2CVDSII","","439.5","img/food1.png","74","440.40000000596046","1","1","false","1","2","1,0.7,0,1,0.7,0,0.7,0,1","1,0.7,0,1,0.7,0,0.7,0,1","1",""
"","html-keyboard-response","168","123289","0.0-244.0","3TYCR1GOTD5LD8CNR23TTBKLN18ZL7","AIXZNUNYZHM4I","3MVY4USGB69K0BK9K576GJZ2CVDSII","","null","<img src=""img/food1.png"" style=""width:200px; border:14px solid green;"">","null","","","","","","","","","",""
"","image-keyboard-response","169","123799","0.0-246.0","3TYCR1GOTD5LD8CNR23TTBKLN18ZL7","AIXZNUNYZHM4I","3MVY4USGB69K0BK9K576GJZ2CVDSII","","507.09999999403954","img/food2.png","76","509.5","3","1","false","3","2","1,0.7,0,1,0.7,0,0.7,0,1","1,0.7,0,1,0.7,0,0.7,0,1","1",""
"","html-keyboard-response","170","124106","0.0-247.0","3TYCR1GOTD5LD8CNR23TTBKLN18ZL7","AIXZNUNYZHM4I","3MVY4USGB69K0BK9K576GJZ2CVDSII","","null","<img src=""img/food2.png"" style=""width:200px; border:14px solid green;"">","null","","","","","","","","","",""
"","image-keyboard-response","171","124556","0.0-249.0","3TYCR1GOTD5LD8CNR23TTBKLN18ZL7","AIXZNUNYZHM4I","3MVY4USGB69K0BK9K576GJZ2CVDSII","","449.5","img/food2.png","76","450.30000001192093","3","1","false","3","2","1,0.7,0,1,0.7,0,0.7,0,1","1,0.7,0,1,0.7,0,0.7,0,1","1",""
"","html-keyboard-response","172","124865","0.0-250.0","3TYCR1GOTD5LD8CNR23TTBKLN18ZL7","AIXZNUNYZHM4I","3MVY4USGB69K0BK9K576GJZ2CVDSII","","null","<img src=""img/food2.png"" style=""width:200px; border:14px solid green;"">","null","","","","","","","","","",""
"","image-keyboard-response","173","125437","0.0-252.0","3TYCR1GOTD5LD8CNR23TTBKLN18ZL7","AIXZNUNYZHM4I","3MVY4USGB69K0BK9K576GJZ2CVDSII","","570.9000000059605","img/food6.png","74","571.5999999940395","1","1","false","2","2","1,0.7,0,1,0.7,0,0.7,0,1","1,0.7,0,1,0.7,0,0.7,0,1","1",""
"","html-keyboard-response","174","125746","0.0-253.0","3TYCR1GOTD5LD8CNR23TTBKLN18ZL7","AIXZNUNYZHM4I","3MVY4USGB69K0BK9K576GJZ2CVDSII","","null","<img src=""img/food6.png"" style=""width:200px; border:14px solid green;"">","null","","","","","","","","","",""
"","image-keyboard-response","175","126133","0.0-255.0","3TYCR1GOTD5LD8CNR23TTBKLN18ZL7","AIXZNUNYZHM4I","3MVY4USGB69K0BK9K576GJZ2CVDSII","","386","img/food2.png","74","386.60000002384186","1","1","false","3","2","1,0.7,0,1,0.7,0,0.7,0,1","1,0.7,0,1,0.7,0,0.7,0,1","1",""
"","html-keyboard-response","176","126442","0.0-256.0","3TYCR1GOTD5LD8CNR23TTBKLN18ZL7","AIXZNUNYZHM4I","3MVY4USGB69K0BK9K576GJZ2CVDSII","","null","<img src=""img/food2.png"" style=""width:200px; border:14px solid green;"">","null","","","","","","","","","",""
"","image-keyboard-response","177","127134","0.0-258.0","3TYCR1GOTD5LD8CNR23TTBKLN18ZL7","AIXZNUNYZHM4I","3MVY4USGB69K0BK9K576GJZ2CVDSII","","690.8000000119209","img/food6.png","76","691.9000000059605","3","0","false","2","2","1,0.7,0,1,0.7,0,0.7,0,1","1,0.7,0,1,0.7,0,0.7,0,1","1",""
"","html-keyboard-response","178","127441","0.0-259.0","3TYCR1GOTD5LD8CNR23TTBKLN18ZL7","AIXZNUNYZHM4I","3MVY4USGB69K0BK9K576GJZ2CVDSII","","null","<img src=""img/food6.png"" style=""width:200px;border:14px solid red;"">","null","","","","","","","","","",""
"","image-keyboard-response","179","127814","0.0-261.0","3TYCR1GOTD5LD8CNR23TTBKLN18ZL7","AIXZNUNYZHM4I","3MVY4USGB69K0BK9K576GJZ2CVDSII","","371.59999999403954","img/food6.png","74","372.30000001192093","1","1","false","2","2","1,0.7,0,1,0.7,0,0.7,0,1","1,0.7,0,1,0.7,0,0.7,0,1","1",""
"","html-keyboard-response","180","128122","0.0-262.0","3TYCR1GOTD5LD8CNR23TTBKLN18ZL7","AIXZNUNYZHM4I","3MVY4USGB69K0BK9K576GJZ2CVDSII","","null","<img src=""img/food6.png"" style=""width:200px; border:14px solid green;"">","null","","","","","","","","","",""
"","image-keyboard-response","181","128502","0.0-264.0","3TYCR1GOTD5LD8CNR23TTBKLN18ZL7","AIXZNUNYZHM4I","3MVY4USGB69K0BK9K576GJZ2CVDSII","","378.69999998807907","img/food1.png","74","379.69999998807907","1","1","false","1","2","1,0.7,0,1,0.7,0,0.7,0,1","1,0.7,0,1,0.7,0,0.7,0,1","1",""
"","html-keyboard-response","182","128809","0.0-265.0","3TYCR1GOTD5LD8CNR23TTBKLN18ZL7","AIXZNUNYZHM4I","3MVY4USGB69K0BK9K576GJZ2CVDSII","","null","<img src=""img/food1.png"" style=""width:200px; border:14px solid green;"">","null","","","","","","","","","",""
"","image-keyboard-response","183","129143","0.0-267.0","3TYCR1GOTD5LD8CNR23TTBKLN18ZL7","AIXZNUNYZHM4I","3MVY4USGB69K0BK9K576GJZ2CVDSII","","332.90000000596046","img/food1.png","74","333.59999999403954","1","1","false","1","2","1,0.7,0,1,0.7,0,0.7,0,1","1,0.7,0,1,0.7,0,0.7,0,1","1",""
"","html-keyboard-response","184","129450","0.0-268.0","3TYCR1GOTD5LD8CNR23TTBKLN18ZL7","AIXZNUNYZHM4I","3MVY4USGB69K0BK9K576GJZ2CVDSII","","null","<img src=""img/food1.png"" style=""width:200px; border:14px solid green;"">","null","","","","","","","","","",""
"","image-keyboard-response","185","129853","0.0-270.0","3TYCR1GOTD5LD8CNR23TTBKLN18ZL7","AIXZNUNYZHM4I","3MVY4USGB69K0BK9K576GJZ2CVDSII","","401","img/food1.png","74","402.5","1","1","false","1","2","1,0.7,0,1,0.7,0,0.7,0,1","1,0.7,0,1,0.7,0,0.7,0,1","1",""
"","html-keyboard-response","186","130162","0.0-271.0","3TYCR1GOTD5LD8CNR23TTBKLN18ZL7","AIXZNUNYZHM4I","3MVY4USGB69K0BK9K576GJZ2CVDSII","","null","<img src=""img/food1.png"" style=""width:200px; border:14px solid green;"">","null","","","","","","","","","",""
"","instructions","187","150775","0.0-273.0","3TYCR1GOTD5LD8CNR23TTBKLN18ZL7","AIXZNUNYZHM4I","3MVY4USGB69K0BK9K576GJZ2CVDSII","[{""page_index"":0,""viewing_time"":18235},{""page_index"":1,""viewing_time"":2377.4000000059605}]","20612.69999998808","","","","","","","","","","","",""
"","image-keyboard-response","188","151709","0.0-274.0","3TYCR1GOTD5LD8CNR23TTBKLN18ZL7","AIXZNUNYZHM4I","3MVY4USGB69K0BK9K576GJZ2CVDSII","","932.5","img/food4.png","76","933.2999999821186","3","0","","2","1","1,0.7,0,1,0.7,0,0.7,0,1","0,1,0.7,0,1,0.7,1,0.7,0","3",""
"","html-keyboard-response","189","152018","0.0-275.0","3TYCR1GOTD5LD8CNR23TTBKLN18ZL7","AIXZNUNYZHM4I","3MVY4USGB69K0BK9K576GJZ2CVDSII","","null","<img src=""img/food4.png"" style=""width:200px;border:14px solid red;"">","null","","","","","","","","","",""
"","image-keyboard-response","190","152807","0.0-276.0","3TYCR1GOTD5LD8CNR23TTBKLN18ZL7","AIXZNUNYZHM4I","3MVY4USGB69K0BK9K576GJZ2CVDSII","","787","img/food4.png","75","787.9000000059605","2","1","","2","1","1,0.7,0,1,0.7,0,0.7,0,1","0,1,0.7,0,1,0.7,1,0.7,0","3",""
"","html-keyboard-response","191","153114","0.0-277.0","3TYCR1GOTD5LD8CNR23TTBKLN18ZL7","AIXZNUNYZHM4I","3MVY4USGB69K0BK9K576GJZ2CVDSII","","null","<img src=""img/food4.png"" style=""width:200px; border:14px solid green;"">","null","","","","","","","","","",""
"","image-keyboard-response","192","153972","0.0-278.0","3TYCR1GOTD5LD8CNR23TTBKLN18ZL7","AIXZNUNYZHM4I","3MVY4USGB69K0BK9K576GJZ2CVDSII","","856.3000000119209","img/food4.png","75","857.7999999821186","2","1","","2","1","1,0.7,0,1,0.7,0,0.7,0,1","0,1,0.7,0,1,0.7,1,0.7,0","3",""
"","html-keyboard-response","193","154330","0.0-279.0","3TYCR1GOTD5LD8CNR23TTBKLN18ZL7","AIXZNUNYZHM4I","3MVY4USGB69K0BK9K576GJZ2CVDSII","","null","<img src=""img/food4.png"" style=""width:200px; border:14px solid green;"">","null","","","","","","","","","",""
"","image-keyboard-response","194","155294","0.0-280.0","3TYCR1GOTD5LD8CNR23TTBKLN18ZL7","AIXZNUNYZHM4I","3MVY4USGB69K0BK9K576GJZ2CVDSII","","962.2999999821186","img/food5.png","76","963.1999999880791","3","0","","3","1","1,0.7,0,1,0.7,0,0.7,0,1","0,1,0.7,0,1,0.7,1,0.7,0","3",""
"","html-keyboard-response","195","155603","0.0-281.0","3TYCR1GOTD5LD8CNR23TTBKLN18ZL7","AIXZNUNYZHM4I","3MVY4USGB69K0BK9K576GJZ2CVDSII","","null","<img src=""img/food5.png"" style=""width:200px;border:14px solid red;"">","null","","","","","","","","","",""
"","image-keyboard-response","196","156623","0.0-282.0","3TYCR1GOTD5LD8CNR23TTBKLN18ZL7","AIXZNUNYZHM4I","3MVY4USGB69K0BK9K576GJZ2CVDSII","","1018.3999999761581","img/food4.png","75","1019.4000000059605","2","1","","2","1","1,0.7,0,1,0.7,0,0.7,0,1","0,1,0.7,0,1,0.7,1,0.7,0","3",""
"","html-keyboard-response","197","156939","0.0-283.0","3TYCR1GOTD5LD8CNR23TTBKLN18ZL7","AIXZNUNYZHM4I","3MVY4USGB69K0BK9K576GJZ2CVDSII","","null","<img src=""img/food4.png"" style=""width:200px; border:14px solid green;"">","null","","","","","","","","","",""
"","image-keyboard-response","198","158221","0.0-284.0","3TYCR1GOTD5LD8CNR23TTBKLN18ZL7","AIXZNUNYZHM4I","3MVY4USGB69K0BK9K576GJZ2CVDSII","","1281","img/food3.png","76","1281.800000011921","3","1","","1","1","1,0.7,0,1,0.7,0,0.7,0,1","0,1,0.7,0,1,0.7,1,0.7,0","3",""
"","html-keyboard-response","199","158531","0.0-285.0","3TYCR1GOTD5LD8CNR23TTBKLN18ZL7","AIXZNUNYZHM4I","3MVY4USGB69K0BK9K576GJZ2CVDSII","","null","<img src=""img/food3.png"" style=""width:200px; border:14px solid green;"">","null","","","","","","","","","",""
"","image-keyboard-response","200","159174","0.0-286.0","3TYCR1GOTD5LD8CNR23TTBKLN18ZL7","AIXZNUNYZHM4I","3MVY4USGB69K0BK9K576GJZ2CVDSII","","642.0999999940395","img/food5.png","74","642.8999999761581","1","1","","3","1","1,0.7,0,1,0.7,0,0.7,0,1","0,1,0.7,0,1,0.7,1,0.7,0","3",""
"","html-keyboard-response","201","159487","0.0-287.0","3TYCR1GOTD5LD8CNR23TTBKLN18ZL7","AIXZNUNYZHM4I","3MVY4USGB69K0BK9K576GJZ2CVDSII","","null","<img src=""img/food5.png"" style=""width:200px; border:14px solid green;"">","null","","","","","","","","","",""
"","image-keyboard-response","202","160023","0.0-288.0","3TYCR1GOTD5LD8CNR23TTBKLN18ZL7","AIXZNUNYZHM4I","3MVY4USGB69K0BK9K576GJZ2CVDSII","","535.8000000119209","img/food5.png","74","536.8000000119209","1","1","","3","1","1,0.7,0,1,0.7,0,0.7,0,1","0,1,0.7,0,1,0.7,1,0.7,0","3",""
"","html-keyboard-response","203","160330","0.0-289.0","3TYCR1GOTD5LD8CNR23TTBKLN18ZL7","AIXZNUNYZHM4I","3MVY4USGB69K0BK9K576GJZ2CVDSII","","null","<img src=""img/food5.png"" style=""width:200px; border:14px solid green;"">","null","","","","","","","","","",""
"","image-keyboard-response","204","160926","0.0-290.0","3TYCR1GOTD5LD8CNR23TTBKLN18ZL7","AIXZNUNYZHM4I","3MVY4USGB69K0BK9K576GJZ2CVDSII","","595.9000000059605","img/food3.png","76","596.6999999880791","3","0","","1","1","1,0.7,0,1,0.7,0,0.7,0,1","0,1,0.7,0,1,0.7,1,0.7,0","3",""
"","html-keyboard-response","205","161234","0.0-291.0","3TYCR1GOTD5LD8CNR23TTBKLN18ZL7","AIXZNUNYZHM4I","3MVY4USGB69K0BK9K576GJZ2CVDSII","","null","<img src=""img/food3.png"" style=""width:200px;border:14px solid red;"">","null","","","","","","","","","",""
"","image-keyboard-response","206","161974","0.0-292.0","3TYCR1GOTD5LD8CNR23TTBKLN18ZL7","AIXZNUNYZHM4I","3MVY4USGB69K0BK9K576GJZ2CVDSII","","737.5999999940395","img/food3.png","76","739.8999999761581","3","1","","1","1","1,0.7,0,1,0.7,0,0.7,0,1","0,1,0.7,0,1,0.7,1,0.7,0","3",""
"","html-keyboard-response","207","162281","0.0-293.0","3TYCR1GOTD5LD8CNR23TTBKLN18ZL7","AIXZNUNYZHM4I","3MVY4USGB69K0BK9K576GJZ2CVDSII","","null","<img src=""img/food3.png"" style=""width:200px; border:14px solid green;"">","null","","","","","","","","","",""
"","image-keyboard-response","208","163300","0.0-294.0","3TYCR1GOTD5LD8CNR23TTBKLN18ZL7","AIXZNUNYZHM4I","3MVY4USGB69K0BK9K576GJZ2CVDSII","","1018.5999999940395","img/food5.png","74","1019.2000000178814","1","1","","3","1","1,0.7,0,1,0.7,0,0.7,0,1","0,1,0.7,0,1,0.7,1,0.7,0","3",""
"","html-keyboard-response","209","163610","0.0-295.0","3TYCR1GOTD5LD8CNR23TTBKLN18ZL7","AIXZNUNYZHM4I","3MVY4USGB69K0BK9K576GJZ2CVDSII","","null","<img src=""img/food5.png"" style=""width:200px; border:14px solid green;"">","null","","","","","","","","","",""
"","image-keyboard-response","210","164293","0.0-296.0","3TYCR1GOTD5LD8CNR23TTBKLN18ZL7","AIXZNUNYZHM4I","3MVY4USGB69K0BK9K576GJZ2CVDSII","","683","img/food3.png","76","683.5999999940395","3","0","","1","1","1,0.7,0,1,0.7,0,0.7,0,1","0,1,0.7,0,1,0.7,1,0.7,0","3",""
"","html-keyboard-response","211","164601","0.0-297.0","3TYCR1GOTD5LD8CNR23TTBKLN18ZL7","AIXZNUNYZHM4I","3MVY4USGB69K0BK9K576GJZ2CVDSII","","null","<img src=""img/food3.png"" style=""width:200px;border:14px solid red;"">","null","","","","","","","","","",""
"","image-keyboard-response","212","165318","0.0-298.0","3TYCR1GOTD5LD8CNR23TTBKLN18ZL7","AIXZNUNYZHM4I","3MVY4USGB69K0BK9K576GJZ2CVDSII","","716.5999999940395","img/food4.png","75","717.4000000059605","2","1","","2","1","1,0.7,0,1,0.7,0,0.7,0,1","0,1,0.7,0,1,0.7,1,0.7,0","3",""
"","html-keyboard-response","213","165625","0.0-299.0","3TYCR1GOTD5LD8CNR23TTBKLN18ZL7","AIXZNUNYZHM4I","3MVY4USGB69K0BK9K576GJZ2CVDSII","","null","<img src=""img/food4.png"" style=""width:200px; border:14px solid green;"">","null","","","","","","","","","",""
"","image-keyboard-response","214","166416","0.0-300.0","3TYCR1GOTD5LD8CNR23TTBKLN18ZL7","AIXZNUNYZHM4I","3MVY4USGB69K0BK9K576GJZ2CVDSII","","790","img/food3.png","76","790.9000000059605","3","1","","1","1","1,0.7,0,1,0.7,0,0.7,0,1","0,1,0.7,0,1,0.7,1,0.7,0","3",""
"","html-keyboard-response","215","166722","0.0-301.0","3TYCR1GOTD5LD8CNR23TTBKLN18ZL7","AIXZNUNYZHM4I","3MVY4USGB69K0BK9K576GJZ2CVDSII","","null","<img src=""img/food3.png"" style=""width:200px; border:14px solid green;"">","null","","","","","","","","","",""
"","image-keyboard-response","216","167260","0.0-302.0","3TYCR1GOTD5LD8CNR23TTBKLN18ZL7","AIXZNUNYZHM4I","3MVY4USGB69K0BK9K576GJZ2CVDSII","","537.5","img/food3.png","76","538.2999999821186","3","0","","1","1","1,0.7,0,1,0.7,0,0.7,0,1","0,1,0.7,0,1,0.7,1,0.7,0","3",""
"","html-keyboard-response","217","167570","0.0-303.0","3TYCR1GOTD5LD8CNR23TTBKLN18ZL7","AIXZNUNYZHM4I","3MVY4USGB69K0BK9K576GJZ2CVDSII","","null","<img src=""img/food3.png"" style=""width:200px;border:14px solid red;"">","null","","","","","","","","","",""
"","image-keyboard-response","218","168093","0.0-304.0","3TYCR1GOTD5LD8CNR23TTBKLN18ZL7","AIXZNUNYZHM4I","3MVY4USGB69K0BK9K576GJZ2CVDSII","","521.5","img/food3.png","76","523.1999999880791","3","1","","1","1","1,0.7,0,1,0.7,0,0.7,0,1","0,1,0.7,0,1,0.7,1,0.7,0","3",""
"","html-keyboard-response","219","168401","0.0-305.0","3TYCR1GOTD5LD8CNR23TTBKLN18ZL7","AIXZNUNYZHM4I","3MVY4USGB69K0BK9K576GJZ2CVDSII","","null","<img src=""img/food3.png"" style=""width:200px; border:14px solid green;"">","null","","","","","","","","","",""
"","image-keyboard-response","220","169190","0.0-306.0","3TYCR1GOTD5LD8CNR23TTBKLN18ZL7","AIXZNUNYZHM4I","3MVY4USGB69K0BK9K576GJZ2CVDSII","","788.2000000178814","img/food5.png","74","789","1","1","","3","1","1,0.7,0,1,0.7,0,0.7,0,1","0,1,0.7,0,1,0.7,1,0.7,0","3",""
"","html-keyboard-response","221","169497","0.0-307.0","3TYCR1GOTD5LD8CNR23TTBKLN18ZL7","AIXZNUNYZHM4I","3MVY4USGB69K0BK9K576GJZ2CVDSII","","null","<img src=""img/food5.png"" style=""width:200px; border:14px solid green;"">","null","","","","","","","","","",""
"","image-keyboard-response","222","170246","0.0-308.0","3TYCR1GOTD5LD8CNR23TTBKLN18ZL7","AIXZNUNYZHM4I","3MVY4USGB69K0BK9K576GJZ2CVDSII","","748.4000000059605","img/food4.png","75","749.0999999940395","2","1","","2","1","1,0.7,0,1,0.7,0,0.7,0,1","0,1,0.7,0,1,0.7,1,0.7,0","3",""
"","html-keyboard-response","223","170553","0.0-309.0","3TYCR1GOTD5LD8CNR23TTBKLN18ZL7","AIXZNUNYZHM4I","3MVY4USGB69K0BK9K576GJZ2CVDSII","","null","<img src=""img/food4.png"" style=""width:200px; border:14px solid green;"">","null","","","","","","","","","",""
"","image-keyboard-response","224","171071","0.0-310.0","3TYCR1GOTD5LD8CNR23TTBKLN18ZL7","AIXZNUNYZHM4I","3MVY4USGB69K0BK9K576GJZ2CVDSII","","515.7999999821186","img/food4.png","75","517.3000000119209","2","1","","2","1","1,0.7,0,1,0.7,0,0.7,0,1","0,1,0.7,0,1,0.7,1,0.7,0","3",""
"","html-keyboard-response","225","171377","0.0-311.0","3TYCR1GOTD5LD8CNR23TTBKLN18ZL7","AIXZNUNYZHM4I","3MVY4USGB69K0BK9K576GJZ2CVDSII","","null","<img src=""img/food4.png"" style=""width:200px; border:14px solid green;"">","null","","","","","","","","","",""
"","image-keyboard-response","226","172062","0.0-312.0","3TYCR1GOTD5LD8CNR23TTBKLN18ZL7","AIXZNUNYZHM4I","3MVY4USGB69K0BK9K576GJZ2CVDSII","","684.6000000238419","img/food3.png","76","685.2999999821186","3","1","","1","1","1,0.7,0,1,0.7,0,0.7,0,1","0,1,0.7,0,1,0.7,1,0.7,0","3",""
"","html-keyboard-response","227","172370","0.0-313.0","3TYCR1GOTD5LD8CNR23TTBKLN18ZL7","AIXZNUNYZHM4I","3MVY4USGB69K0BK9K576GJZ2CVDSII","","null","<img src=""img/food3.png"" style=""width:200px; border:14px solid green;"">","null","","","","","","","","","",""
"","image-keyboard-response","228","172869","0.0-314.0","3TYCR1GOTD5LD8CNR23TTBKLN18ZL7","AIXZNUNYZHM4I","3MVY4USGB69K0BK9K576GJZ2CVDSII","","497.2999999821186","img/food3.png","76","499","3","1","","1","1","1,0.7,0,1,0.7,0,0.7,0,1","0,1,0.7,0,1,0.7,1,0.7,0","3",""
"","html-keyboard-response","229","173177","0.0-315.0","3TYCR1GOTD5LD8CNR23TTBKLN18ZL7","AIXZNUNYZHM4I","3MVY4USGB69K0BK9K576GJZ2CVDSII","","null","<img src=""img/food3.png"" style=""width:200px; border:14px solid green;"">","null","","","","","","","","","",""
"","image-keyboard-response","230","173870","0.0-316.0","3TYCR1GOTD5LD8CNR23TTBKLN18ZL7","AIXZNUNYZHM4I","3MVY4USGB69K0BK9K576GJZ2CVDSII","","692","img/food4.png","75","692.7000000178814","2","1","","2","1","1,0.7,0,1,0.7,0,0.7,0,1","0,1,0.7,0,1,0.7,1,0.7,0","3",""
"","html-keyboard-response","231","174178","0.0-317.0","3TYCR1GOTD5LD8CNR23TTBKLN18ZL7","AIXZNUNYZHM4I","3MVY4USGB69K0BK9K576GJZ2CVDSII","","null","<img src=""img/food4.png"" style=""width:200px; border:14px solid green;"">","null","","","","","","","","","",""
"","image-keyboard-response","232","174870","0.0-318.0","3TYCR1GOTD5LD8CNR23TTBKLN18ZL7","AIXZNUNYZHM4I","3MVY4USGB69K0BK9K576GJZ2CVDSII","","691.9000000059605","img/food3.png","76","692.4000000059605","3","1","","1","1","1,0.7,0,1,0.7,0,0.7,0,1","0,1,0.7,0,1,0.7,1,0.7,0","3",""
"","html-keyboard-response","233","175177","0.0-319.0","3TYCR1GOTD5LD8CNR23TTBKLN18ZL7","AIXZNUNYZHM4I","3MVY4USGB69K0BK9K576GJZ2CVDSII","","null","<img src=""img/food3.png"" style=""width:200px; border:14px solid green;"">","null","","","","","","","","","",""
"","image-keyboard-response","234","175910","0.0-320.0","3TYCR1GOTD5LD8CNR23TTBKLN18ZL7","AIXZNUNYZHM4I","3MVY4USGB69K0BK9K576GJZ2CVDSII","","730.5999999940395","img/food5.png","74","732.5999999940395","1","1","","3","1","1,0.7,0,1,0.7,0,0.7,0,1","0,1,0.7,0,1,0.7,1,0.7,0","3",""
"","html-keyboard-response","235","176217","0.0-321.0","3TYCR1GOTD5LD8CNR23TTBKLN18ZL7","AIXZNUNYZHM4I","3MVY4USGB69K0BK9K576GJZ2CVDSII","","null","<img src=""img/food5.png"" style=""width:200px; border:14px solid green;"">","null","","","","","","","","","",""
"","image-keyboard-response","236","176672","0.0-322.0","3TYCR1GOTD5LD8CNR23TTBKLN18ZL7","AIXZNUNYZHM4I","3MVY4USGB69K0BK9K576GJZ2CVDSII","","454.30000001192093","img/food5.png","74","455.30000001192093","1","1","","3","1","1,0.7,0,1,0.7,0,0.7,0,1","0,1,0.7,0,1,0.7,1,0.7,0","3",""
"","html-keyboard-response","237","176978","0.0-323.0","3TYCR1GOTD5LD8CNR23TTBKLN18ZL7","AIXZNUNYZHM4I","3MVY4USGB69K0BK9K576GJZ2CVDSII","","null","<img src=""img/food5.png"" style=""width:200px; border:14px solid green;"">","null","","","","","","","","","",""
"","image-keyboard-response","238","177745","0.0-324.0","3TYCR1GOTD5LD8CNR23TTBKLN18ZL7","AIXZNUNYZHM4I","3MVY4USGB69K0BK9K576GJZ2CVDSII","","765.1000000238419","img/food4.png","75","766.5","2","1","","2","1","1,0.7,0,1,0.7,0,0.7,0,1","0,1,0.7,0,1,0.7,1,0.7,0","3",""
"","html-keyboard-response","239","178049","0.0-325.0","3TYCR1GOTD5LD8CNR23TTBKLN18ZL7","AIXZNUNYZHM4I","3MVY4USGB69K0BK9K576GJZ2CVDSII","","null","<img src=""img/food4.png"" style=""width:200px; border:14px solid green;"">","null","","","","","","","","","",""
"","image-keyboard-response","240","178621","0.0-326.0","3TYCR1GOTD5LD8CNR23TTBKLN18ZL7","AIXZNUNYZHM4I","3MVY4USGB69K0BK9K576GJZ2CVDSII","","571.2000000178814","img/food3.png","76","572.2000000178814","3","0","","1","1","1,0.7,0,1,0.7,0,0.7,0,1","0,1,0.7,0,1,0.7,1,0.7,0","3",""
"","html-keyboard-response","241","178929","0.0-327.0","3TYCR1GOTD5LD8CNR23TTBKLN18ZL7","AIXZNUNYZHM4I","3MVY4USGB69K0BK9K576GJZ2CVDSII","","null","<img src=""img/food3.png"" style=""width:200px;border:14px solid red;"">","null","","","","","","","","","",""
"","image-keyboard-response","242","179997","0.0-328.0","3TYCR1GOTD5LD8CNR23TTBKLN18ZL7","AIXZNUNYZHM4I","3MVY4USGB69K0BK9K576GJZ2CVDSII","","1067.2000000178814","img/food5.png","74","1067.7999999821186","1","1","","3","1","1,0.7,0,1,0.7,0,0.7,0,1","0,1,0.7,0,1,0.7,1,0.7,0","3",""
"","html-keyboard-response","243","180305","0.0-329.0","3TYCR1GOTD5LD8CNR23TTBKLN18ZL7","AIXZNUNYZHM4I","3MVY4USGB69K0BK9K576GJZ2CVDSII","","null","<img src=""img/food5.png"" style=""width:200px; border:14px solid green;"">","null","","","","","","","","","",""
"","image-keyboard-response","244","181069","0.0-330.0","3TYCR1GOTD5LD8CNR23TTBKLN18ZL7","AIXZNUNYZHM4I","3MVY4USGB69K0BK9K576GJZ2CVDSII","","764","img/food3.png","76","764.5","3","1","","1","1","1,0.7,0,1,0.7,0,0.7,0,1","0,1,0.7,0,1,0.7,1,0.7,0","3",""
"","html-keyboard-response","245","181378","0.0-331.0","3TYCR1GOTD5LD8CNR23TTBKLN18ZL7","AIXZNUNYZHM4I","3MVY4USGB69K0BK9K576GJZ2CVDSII","","null","<img src=""img/food3.png"" style=""width:200px; border:14px solid green;"">","null","","","","","","","","","",""
"","image-keyboard-response","246","181926","0.0-332.0","3TYCR1GOTD5LD8CNR23TTBKLN18ZL7","AIXZNUNYZHM4I","3MVY4USGB69K0BK9K576GJZ2CVDSII","","547","img/food3.png","76","547.7999999821186","3","0","","1","1","1,0.7,0,1,0.7,0,0.7,0,1","0,1,0.7,0,1,0.7,1,0.7,0","3",""
"","html-keyboard-response","247","182233","0.0-333.0","3TYCR1GOTD5LD8CNR23TTBKLN18ZL7","AIXZNUNYZHM4I","3MVY4USGB69K0BK9K576GJZ2CVDSII","","null","<img src=""img/food3.png"" style=""width:200px;border:14px solid red;"">","null","","","","","","","","","",""
"","image-keyboard-response","248","182990","0.0-334.0","3TYCR1GOTD5LD8CNR23TTBKLN18ZL7","AIXZNUNYZHM4I","3MVY4USGB69K0BK9K576GJZ2CVDSII","","756.5999999940395","img/food4.png","75","757.1999999880791","2","1","","2","1","1,0.7,0,1,0.7,0,0.7,0,1","0,1,0.7,0,1,0.7,1,0.7,0","3",""
"","html-keyboard-response","249","183301","0.0-335.0","3TYCR1GOTD5LD8CNR23TTBKLN18ZL7","AIXZNUNYZHM4I","3MVY4USGB69K0BK9K576GJZ2CVDSII","","null","<img src=""img/food4.png"" style=""width:200px; border:14px solid green;"">","null","","","","","","","","","",""
"","image-keyboard-response","250","183917","0.0-336.0","3TYCR1GOTD5LD8CNR23TTBKLN18ZL7","AIXZNUNYZHM4I","3MVY4USGB69K0BK9K576GJZ2CVDSII","","615.9000000059605","img/food5.png","74","616.5","1","1","","3","1","1,0.7,0,1,0.7,0,0.7,0,1","0,1,0.7,0,1,0.7,1,0.7,0","3",""
"","html-keyboard-response","251","184236","0.0-337.0","3TYCR1GOTD5LD8CNR23TTBKLN18ZL7","AIXZNUNYZHM4I","3MVY4USGB69K0BK9K576GJZ2CVDSII","","null","<img src=""img/food5.png"" style=""width:200px; border:14px solid green;"">","null","","","","","","","","","",""
"","image-keyboard-response","252","184755","0.0-338.0","3TYCR1GOTD5LD8CNR23TTBKLN18ZL7","AIXZNUNYZHM4I","3MVY4USGB69K0BK9K576GJZ2CVDSII","","512.5","img/food5.png","74","514.5","1","1","","3","1","1,0.7,0,1,0.7,0,0.7,0,1","0,1,0.7,0,1,0.7,1,0.7,0","3",""
"","html-keyboard-response","253","185069","0.0-339.0","3TYCR1GOTD5LD8CNR23TTBKLN18ZL7","AIXZNUNYZHM4I","3MVY4USGB69K0BK9K576GJZ2CVDSII","","null","<img src=""img/food5.png"" style=""width:200px; border:14px solid green;"">","null","","","","","","","","","",""
"","image-keyboard-response","254","185750","0.0-340.0","3TYCR1GOTD5LD8CNR23TTBKLN18ZL7","AIXZNUNYZHM4I","3MVY4USGB69K0BK9K576GJZ2CVDSII","","674.8000000119209","img/food3.png","76","679.6000000238419","3","1","","1","1","1,0.7,0,1,0.7,0,0.7,0,1","0,1,0.7,0,1,0.7,1,0.7,0","3",""
"","html-keyboard-response","255","186058","0.0-341.0","3TYCR1GOTD5LD8CNR23TTBKLN18ZL7","AIXZNUNYZHM4I","3MVY4USGB69K0BK9K576GJZ2CVDSII","","null","<img src=""img/food3.png"" style=""width:200px; border:14px solid green;"">","null","","","","","","","","","",""
"","image-keyboard-response","256","186550","0.0-342.0","3TYCR1GOTD5LD8CNR23TTBKLN18ZL7","AIXZNUNYZHM4I","3MVY4USGB69K0BK9K576GJZ2CVDSII","","490.2999999821186","img/food3.png","76","491.09999999403954","3","0","","1","1","1,0.7,0,1,0.7,0,0.7,0,1","0,1,0.7,0,1,0.7,1,0.7,0","3",""
"","html-keyboard-response","257","186860","0.0-343.0","3TYCR1GOTD5LD8CNR23TTBKLN18ZL7","AIXZNUNYZHM4I","3MVY4USGB69K0BK9K576GJZ2CVDSII","","null","<img src=""img/food3.png"" style=""width:200px;border:14px solid red;"">","null","","","","","","","","","",""
"","image-keyboard-response","258","187438","0.0-344.0","3TYCR1GOTD5LD8CNR23TTBKLN18ZL7","AIXZNUNYZHM4I","3MVY4USGB69K0BK9K576GJZ2CVDSII","","576.0999999940395","img/food3.png","76","577.5","3","1","","1","1","1,0.7,0,1,0.7,0,0.7,0,1","0,1,0.7,0,1,0.7,1,0.7,0","3",""
"","html-keyboard-response","259","187745","0.0-345.0","3TYCR1GOTD5LD8CNR23TTBKLN18ZL7","AIXZNUNYZHM4I","3MVY4USGB69K0BK9K576GJZ2CVDSII","","null","<img src=""img/food3.png"" style=""width:200px; border:14px solid green;"">","null","","","","","","","","","",""
"","image-keyboard-response","260","188495","0.0-346.0","3TYCR1GOTD5LD8CNR23TTBKLN18ZL7","AIXZNUNYZHM4I","3MVY4USGB69K0BK9K576GJZ2CVDSII","","747.9000000059605","img/food5.png","74","749","1","1","","3","1","1,0.7,0,1,0.7,0,0.7,0,1","0,1,0.7,0,1,0.7,1,0.7,0","3",""
"","html-keyboard-response","261","188802","0.0-347.0","3TYCR1GOTD5LD8CNR23TTBKLN18ZL7","AIXZNUNYZHM4I","3MVY4USGB69K0BK9K576GJZ2CVDSII","","null","<img src=""img/food5.png"" style=""width:200px; border:14px solid green;"">","null","","","","","","","","","",""
"","image-keyboard-response","262","189622","0.0-348.0","3TYCR1GOTD5LD8CNR23TTBKLN18ZL7","AIXZNUNYZHM4I","3MVY4USGB69K0BK9K576GJZ2CVDSII","","818","img/food3.png","76","818.5","3","1","","1","1","1,0.7,0,1,0.7,0,0.7,0,1","0,1,0.7,0,1,0.7,1,0.7,0","3",""
"","html-keyboard-response","263","189931","0.0-349.0","3TYCR1GOTD5LD8CNR23TTBKLN18ZL7","AIXZNUNYZHM4I","3MVY4USGB69K0BK9K576GJZ2CVDSII","","null","<img src=""img/food3.png"" style=""width:200px; border:14px solid green;"">","null","","","","","","","","","",""
"","image-keyboard-response","264","190637","0.0-350.0","3TYCR1GOTD5LD8CNR23TTBKLN18ZL7","AIXZNUNYZHM4I","3MVY4USGB69K0BK9K576GJZ2CVDSII","","705.2000000178814","img/food4.png","75","705.8999999761581","2","1","","2","1","1,0.7,0,1,0.7,0,0.7,0,1","0,1,0.7,0,1,0.7,1,0.7,0","3",""
"","html-keyboard-response","265","190946","0.0-351.0","3TYCR1GOTD5LD8CNR23TTBKLN18ZL7","AIXZNUNYZHM4I","3MVY4USGB69K0BK9K576GJZ2CVDSII","","null","<img src=""img/food4.png"" style=""width:200px; border:14px solid green;"">","null","","","","","","","","","",""
"","image-keyboard-response","266","191653","0.0-352.0","3TYCR1GOTD5LD8CNR23TTBKLN18ZL7","AIXZNUNYZHM4I","3MVY4USGB69K0BK9K576GJZ2CVDSII","","706.2000000178814","img/food5.png","74","707.0999999940395","1","1","","3","1","1,0.7,0,1,0.7,0,0.7,0,1","0,1,0.7,0,1,0.7,1,0.7,0","3",""
"","html-keyboard-response","267","191963","0.0-353.0","3TYCR1GOTD5LD8CNR23TTBKLN18ZL7","AIXZNUNYZHM4I","3MVY4USGB69K0BK9K576GJZ2CVDSII","","null","<img src=""img/food5.png"" style=""width:200px; border:14px solid green;"">","null","","","","","","","","","",""
"","image-keyboard-response","268","192663","0.0-354.0","3TYCR1GOTD5LD8CNR23TTBKLN18ZL7","AIXZNUNYZHM4I","3MVY4USGB69K0BK9K576GJZ2CVDSII","","696.5999999940395","img/food3.png","76","700.0999999940395","3","1","","1","1","1,0.7,0,1,0.7,0,0.7,0,1","0,1,0.7,0,1,0.7,1,0.7,0","3",""
"","html-keyboard-response","269","192971","0.0-355.0","3TYCR1GOTD5LD8CNR23TTBKLN18ZL7","AIXZNUNYZHM4I","3MVY4USGB69K0BK9K576GJZ2CVDSII","","null","<img src=""img/food3.png"" style=""width:200px; border:14px solid green;"">","null","","","","","","","","","",""
"","image-keyboard-response","270","193614","0.0-356.0","3TYCR1GOTD5LD8CNR23TTBKLN18ZL7","AIXZNUNYZHM4I","3MVY4USGB69K0BK9K576GJZ2CVDSII","","642","img/food5.png","74","643","1","1","","3","1","1,0.7,0,1,0.7,0,0.7,0,1","0,1,0.7,0,1,0.7,1,0.7,0","3",""
"","html-keyboard-response","271","193921","0.0-357.0","3TYCR1GOTD5LD8CNR23TTBKLN18ZL7","AIXZNUNYZHM4I","3MVY4USGB69K0BK9K576GJZ2CVDSII","","null","<img src=""img/food5.png"" style=""width:200px; border:14px solid green;"">","null","","","","","","","","","",""
"","image-keyboard-response","272","194661","0.0-358.0","3TYCR1GOTD5LD8CNR23TTBKLN18ZL7","AIXZNUNYZHM4I","3MVY4USGB69K0BK9K576GJZ2CVDSII","","738.2000000178814","img/food4.png","75","739.5","2","1","","2","1","1,0.7,0,1,0.7,0,0.7,0,1","0,1,0.7,0,1,0.7,1,0.7,0","3",""
"","html-keyboard-response","273","194969","0.0-359.0","3TYCR1GOTD5LD8CNR23TTBKLN18ZL7","AIXZNUNYZHM4I","3MVY4USGB69K0BK9K576GJZ2CVDSII","","null","<img src=""img/food4.png"" style=""width:200px; border:14px solid green;"">","null","","","","","","","","","",""
"","image-keyboard-response","274","195688","0.0-360.0","3TYCR1GOTD5LD8CNR23TTBKLN18ZL7","AIXZNUNYZHM4I","3MVY4USGB69K0BK9K576GJZ2CVDSII","","718","img/food5.png","74","718.7000000178814","1","1","","3","1","1,0.7,0,1,0.7,0,0.7,0,1","0,1,0.7,0,1,0.7,1,0.7,0","3",""
"","html-keyboard-response","275","195994","0.0-361.0","3TYCR1GOTD5LD8CNR23TTBKLN18ZL7","AIXZNUNYZHM4I","3MVY4USGB69K0BK9K576GJZ2CVDSII","","null","<img src=""img/food5.png"" style=""width:200px; border:14px solid green;"">","null","","","","","","","","","",""
"","image-keyboard-response","276","196525","0.0-362.0","3TYCR1GOTD5LD8CNR23TTBKLN18ZL7","AIXZNUNYZHM4I","3MVY4USGB69K0BK9K576GJZ2CVDSII","","530.5","img/food5.png","74","531.2000000178814","1","1","","3","1","1,0.7,0,1,0.7,0,0.7,0,1","0,1,0.7,0,1,0.7,1,0.7,0","3",""
"","html-keyboard-response","277","196833","0.0-363.0","3TYCR1GOTD5LD8CNR23TTBKLN18ZL7","AIXZNUNYZHM4I","3MVY4USGB69K0BK9K576GJZ2CVDSII","","null","<img src=""img/food5.png"" style=""width:200px; border:14px solid green;"">","null","","","","","","","","","",""
"","image-keyboard-response","278","197482","0.0-364.0","3TYCR1GOTD5LD8CNR23TTBKLN18ZL7","AIXZNUNYZHM4I","3MVY4USGB69K0BK9K576GJZ2CVDSII","","648.5999999940395","img/food3.png","76","649.4000000059605","3","1","","1","1","1,0.7,0,1,0.7,0,0.7,0,1","0,1,0.7,0,1,0.7,1,0.7,0","3",""
"","html-keyboard-response","279","197785","0.0-365.0","3TYCR1GOTD5LD8CNR23TTBKLN18ZL7","AIXZNUNYZHM4I","3MVY4USGB69K0BK9K576GJZ2CVDSII","","null","<img src=""img/food3.png"" style=""width:200px; border:14px solid green;"">","null","","","","","","","","","",""
"","image-keyboard-response","280","198518","0.0-366.0","3TYCR1GOTD5LD8CNR23TTBKLN18ZL7","AIXZNUNYZHM4I","3MVY4USGB69K0BK9K576GJZ2CVDSII","","731.9000000059605","img/food4.png","75","732.5","2","1","","2","1","1,0.7,0,1,0.7,0,0.7,0,1","0,1,0.7,0,1,0.7,1,0.7,0","3",""
"","html-keyboard-response","281","198825","0.0-367.0","3TYCR1GOTD5LD8CNR23TTBKLN18ZL7","AIXZNUNYZHM4I","3MVY4USGB69K0BK9K576GJZ2CVDSII","","null","<img src=""img/food4.png"" style=""width:200px; border:14px solid green;"">","null","","","","","","","","","",""
"","image-keyboard-response","282","199519","0.0-368.0","3TYCR1GOTD5LD8CNR23TTBKLN18ZL7","AIXZNUNYZHM4I","3MVY4USGB69K0BK9K576GJZ2CVDSII","","692.4000000059605","img/food3.png","76","693.3000000119209","3","0","","1","1","1,0.7,0,1,0.7,0,0.7,0,1","0,1,0.7,0,1,0.7,1,0.7,0","3",""
"","html-keyboard-response","283","199825","0.0-369.0","3TYCR1GOTD5LD8CNR23TTBKLN18ZL7","AIXZNUNYZHM4I","3MVY4USGB69K0BK9K576GJZ2CVDSII","","null","<img src=""img/food3.png"" style=""width:200px;border:14px solid red;"">","null","","","","","","","","","",""
"","image-keyboard-response","284","200568","0.0-370.0","3TYCR1GOTD5LD8CNR23TTBKLN18ZL7","AIXZNUNYZHM4I","3MVY4USGB69K0BK9K576GJZ2CVDSII","","741.3000000119209","img/food5.png","74","742","1","1","","3","1","1,0.7,0,1,0.7,0,0.7,0,1","0,1,0.7,0,1,0.7,1,0.7,0","3",""
"","html-keyboard-response","285","200875","0.0-371.0","3TYCR1GOTD5LD8CNR23TTBKLN18ZL7","AIXZNUNYZHM4I","3MVY4USGB69K0BK9K576GJZ2CVDSII","","null","<img src=""img/food5.png"" style=""width:200px; border:14px solid green;"">","null","","","","","","","","","",""
"","image-keyboard-response","286","201643","0.0-372.0","3TYCR1GOTD5LD8CNR23TTBKLN18ZL7","AIXZNUNYZHM4I","3MVY4USGB69K0BK9K576GJZ2CVDSII","","767","img/food4.png","75","768.6000000238419","2","1","","2","1","1,0.7,0,1,0.7,0,0.7,0,1","0,1,0.7,0,1,0.7,1,0.7,0","3",""
"","html-keyboard-response","287","201954","0.0-373.0","3TYCR1GOTD5LD8CNR23TTBKLN18ZL7","AIXZNUNYZHM4I","3MVY4USGB69K0BK9K576GJZ2CVDSII","","null","<img src=""img/food4.png"" style=""width:200px; border:14px solid green;"">","null","","","","","","","","","",""
"","image-keyboard-response","288","202637","0.0-374.0","3TYCR1GOTD5LD8CNR23TTBKLN18ZL7","AIXZNUNYZHM4I","3MVY4USGB69K0BK9K576GJZ2CVDSII","","681","img/food5.png","76","682.8000000119209","3","0","","3","1","1,0.7,0,1,0.7,0,0.7,0,1","0,1,0.7,0,1,0.7,1,0.7,0","3",""
"","html-keyboard-response","289","202945","0.0-375.0","3TYCR1GOTD5LD8CNR23TTBKLN18ZL7","AIXZNUNYZHM4I","3MVY4USGB69K0BK9K576GJZ2CVDSII","","null","<img src=""img/food5.png"" style=""width:200px;border:14px solid red;"">","null","","","","","","","","","",""
"","image-keyboard-response","290","203811","0.0-376.0","3TYCR1GOTD5LD8CNR23TTBKLN18ZL7","AIXZNUNYZHM4I","3MVY4USGB69K0BK9K576GJZ2CVDSII","","864.3000000119209","img/food5.png","74","865.2999999821186","1","1","","3","1","1,0.7,0,1,0.7,0,0.7,0,1","0,1,0.7,0,1,0.7,1,0.7,0","3",""
"","html-keyboard-response","291","204113","0.0-377.0","3TYCR1GOTD5LD8CNR23TTBKLN18ZL7","AIXZNUNYZHM4I","3MVY4USGB69K0BK9K576GJZ2CVDSII","","null","<img src=""img/food5.png"" style=""width:200px; border:14px solid green;"">","null","","","","","","","","","",""
"","image-keyboard-response","292","204670","0.0-378.0","3TYCR1GOTD5LD8CNR23TTBKLN18ZL7","AIXZNUNYZHM4I","3MVY4USGB69K0BK9K576GJZ2CVDSII","","556","img/food5.png","74","556.5","1","1","","3","1","1,0.7,0,1,0.7,0,0.7,0,1","0,1,0.7,0,1,0.7,1,0.7,0","3",""
"","html-keyboard-response","293","204977","0.0-379.0","3TYCR1GOTD5LD8CNR23TTBKLN18ZL7","AIXZNUNYZHM4I","3MVY4USGB69K0BK9K576GJZ2CVDSII","","null","<img src=""img/food5.png"" style=""width:200px; border:14px solid green;"">","null","","","","","","","","","",""
"","image-keyboard-response","294","205581","0.0-380.0","3TYCR1GOTD5LD8CNR23TTBKLN18ZL7","AIXZNUNYZHM4I","3MVY4USGB69K0BK9K576GJZ2CVDSII","","602.1999999880791","img/food4.png","74","603.2999999821186","1","0","","2","1","1,0.7,0,1,0.7,0,0.7,0,1","0,1,0.7,0,1,0.7,1,0.7,0","3",""
"","html-keyboard-response","295","205890","0.0-381.0","3TYCR1GOTD5LD8CNR23TTBKLN18ZL7","AIXZNUNYZHM4I","3MVY4USGB69K0BK9K576GJZ2CVDSII","","null","<img src=""img/food4.png"" style=""width:200px;border:14px solid red;"">","null","","","","","","","","","",""
"","image-keyboard-response","296","206790","0.0-382.0","3TYCR1GOTD5LD8CNR23TTBKLN18ZL7","AIXZNUNYZHM4I","3MVY4USGB69K0BK9K576GJZ2CVDSII","","898.0999999940395","img/food3.png","74","899.5","1","0","","1","1","1,0.7,0,1,0.7,0,0.7,0,1","0,1,0.7,0,1,0.7,1,0.7,0","3",""
"","html-keyboard-response","297","207097","0.0-383.0","3TYCR1GOTD5LD8CNR23TTBKLN18ZL7","AIXZNUNYZHM4I","3MVY4USGB69K0BK9K576GJZ2CVDSII","","null","<img src=""img/food3.png"" style=""width:200px;border:14px solid red;"">","null","","","","","","","","","",""
"","image-keyboard-response","298","208543","0.0-384.0","3TYCR1GOTD5LD8CNR23TTBKLN18ZL7","AIXZNUNYZHM4I","3MVY4USGB69K0BK9K576GJZ2CVDSII","","1444.800000011921","img/food5.png","74","1445.4000000059605","1","1","","3","1","1,0.7,0,1,0.7,0,0.7,0,1","0,1,0.7,0,1,0.7,1,0.7,0","3",""
"","html-keyboard-response","299","208850","0.0-385.0","3TYCR1GOTD5LD8CNR23TTBKLN18ZL7","AIXZNUNYZHM4I","3MVY4USGB69K0BK9K576GJZ2CVDSII","","null","<img src=""img/food5.png"" style=""width:200px; border:14px solid green;"">","null","","","","","","","","","",""
"","image-keyboard-response","300","209357","0.0-386.0","3TYCR1GOTD5LD8CNR23TTBKLN18ZL7","AIXZNUNYZHM4I","3MVY4USGB69K0BK9K576GJZ2CVDSII","","506.2999999821186","img/food5.png","74","506.90000000596046","1","1","","3","1","1,0.7,0,1,0.7,0,0.7,0,1","0,1,0.7,0,1,0.7,1,0.7,0","3",""
"","html-keyboard-response","301","209665","0.0-387.0","3TYCR1GOTD5LD8CNR23TTBKLN18ZL7","AIXZNUNYZHM4I","3MVY4USGB69K0BK9K576GJZ2CVDSII","","null","<img src=""img/food5.png"" style=""width:200px; border:14px solid green;"">","null","","","","","","","","","",""
"","image-keyboard-response","302","210021","0.0-388.0","3TYCR1GOTD5LD8CNR23TTBKLN18ZL7","AIXZNUNYZHM4I","3MVY4USGB69K0BK9K576GJZ2CVDSII","","356","img/food5.png","74","356.59999999403954","1","1","","3","1","1,0.7,0,1,0.7,0,0.7,0,1","0,1,0.7,0,1,0.7,1,0.7,0","3",""
"","html-keyboard-response","303","210330","0.0-389.0","3TYCR1GOTD5LD8CNR23TTBKLN18ZL7","AIXZNUNYZHM4I","3MVY4USGB69K0BK9K576GJZ2CVDSII","","null","<img src=""img/food5.png"" style=""width:200px; border:14px solid green;"">","null","","","","","","","","","",""
"","image-keyboard-response","304","211272","0.0-390.0","3TYCR1GOTD5LD8CNR23TTBKLN18ZL7","AIXZNUNYZHM4I","3MVY4USGB69K0BK9K576GJZ2CVDSII","","941","img/food4.png","75","942","2","1","","2","1","1,0.7,0,1,0.7,0,0.7,0,1","0,1,0.7,0,1,0.7,1,0.7,0","3",""
"","html-keyboard-response","305","211578","0.0-391.0","3TYCR1GOTD5LD8CNR23TTBKLN18ZL7","AIXZNUNYZHM4I","3MVY4USGB69K0BK9K576GJZ2CVDSII","","null","<img src=""img/food4.png"" style=""width:200px; border:14px solid green;"">","null","","","","","","","","","",""
"","image-keyboard-response","306","212391","0.0-392.0","3TYCR1GOTD5LD8CNR23TTBKLN18ZL7","AIXZNUNYZHM4I","3MVY4USGB69K0BK9K576GJZ2CVDSII","","811.1999999880791","img/food5.png","74","812","1","1","","3","1","1,0.7,0,1,0.7,0,0.7,0,1","0,1,0.7,0,1,0.7,1,0.7,0","3",""
"","html-keyboard-response","307","212697","0.0-393.0","3TYCR1GOTD5LD8CNR23TTBKLN18ZL7","AIXZNUNYZHM4I","3MVY4USGB69K0BK9K576GJZ2CVDSII","","null","<img src=""img/food5.png"" style=""width:200px; border:14px solid green;"">","null","","","","","","","","","",""
"","image-keyboard-response","308","213573","0.0-394.0","3TYCR1GOTD5LD8CNR23TTBKLN18ZL7","AIXZNUNYZHM4I","3MVY4USGB69K0BK9K576GJZ2CVDSII","","875.5999999940395","img/food3.png","74","876.3000000119209","1","0","","1","1","1,0.7,0,1,0.7,0,0.7,0,1","0,1,0.7,0,1,0.7,1,0.7,0","3",""
"","html-keyboard-response","309","213881","0.0-395.0","3TYCR1GOTD5LD8CNR23TTBKLN18ZL7","AIXZNUNYZHM4I","3MVY4USGB69K0BK9K576GJZ2CVDSII","","null","<img src=""img/food3.png"" style=""width:200px;border:14px solid red;"">","null","","","","","","","","","",""
"","image-keyboard-response","310","215053","0.0-396.0","3TYCR1GOTD5LD8CNR23TTBKLN18ZL7","AIXZNUNYZHM4I","3MVY4USGB69K0BK9K576GJZ2CVDSII","","1171.5","img/food5.png","74","1172.199999988079","1","1","","3","1","1,0.7,0,1,0.7,0,0.7,0,1","0,1,0.7,0,1,0.7,1,0.7,0","3",""
"","html-keyboard-response","311","215362","0.0-397.0","3TYCR1GOTD5LD8CNR23TTBKLN18ZL7","AIXZNUNYZHM4I","3MVY4USGB69K0BK9K576GJZ2CVDSII","","null","<img src=""img/food5.png"" style=""width:200px; border:14px solid green;"">","null","","","","","","","","","",""
"","image-keyboard-response","312","215854","0.0-398.0","3TYCR1GOTD5LD8CNR23TTBKLN18ZL7","AIXZNUNYZHM4I","3MVY4USGB69K0BK9K576GJZ2CVDSII","","491.09999999403954","img/food5.png","74","491.90000000596046","1","1","","3","1","1,0.7,0,1,0.7,0,0.7,0,1","0,1,0.7,0,1,0.7,1,0.7,0","3",""
"","html-keyboard-response","313","216161","0.0-399.0","3TYCR1GOTD5LD8CNR23TTBKLN18ZL7","AIXZNUNYZHM4I","3MVY4USGB69K0BK9K576GJZ2CVDSII","","null","<img src=""img/food5.png"" style=""width:200px; border:14px solid green;"">","null","","","","","","","","","",""
"","image-keyboard-response","314","216807","0.0-400.0","3TYCR1GOTD5LD8CNR23TTBKLN18ZL7","AIXZNUNYZHM4I","3MVY4USGB69K0BK9K576GJZ2CVDSII","","644.6999999880791","img/food4.png","75","645.8999999761581","2","1","","2","1","1,0.7,0,1,0.7,0,0.7,0,1","0,1,0.7,0,1,0.7,1,0.7,0","3",""
"","html-keyboard-response","315","217112","0.0-401.0","3TYCR1GOTD5LD8CNR23TTBKLN18ZL7","AIXZNUNYZHM4I","3MVY4USGB69K0BK9K576GJZ2CVDSII","","null","<img src=""img/food4.png"" style=""width:200px; border:14px solid green;"">","null","","","","","","","","","",""
"","image-keyboard-response","316","217830","0.0-402.0","3TYCR1GOTD5LD8CNR23TTBKLN18ZL7","AIXZNUNYZHM4I","3MVY4USGB69K0BK9K576GJZ2CVDSII","","717.4000000059605","img/food3.png","76","717.8000000119209","3","0","","1","1","1,0.7,0,1,0.7,0,0.7,0,1","0,1,0.7,0,1,0.7,1,0.7,0","3",""
"","html-keyboard-response","317","218138","0.0-403.0","3TYCR1GOTD5LD8CNR23TTBKLN18ZL7","AIXZNUNYZHM4I","3MVY4USGB69K0BK9K576GJZ2CVDSII","","null","<img src=""img/food3.png"" style=""width:200px;border:14px solid red;"">","null","","","","","","","","","",""
"","image-keyboard-response","318","218678","0.0-404.0","3TYCR1GOTD5LD8CNR23TTBKLN18ZL7","AIXZNUNYZHM4I","3MVY4USGB69K0BK9K576GJZ2CVDSII","","539.1000000238419","img/food3.png","76","540.0999999940395","3","1","","1","1","1,0.7,0,1,0.7,0,0.7,0,1","0,1,0.7,0,1,0.7,1,0.7,0","3",""
"","html-keyboard-response","319","218984","0.0-405.0","3TYCR1GOTD5LD8CNR23TTBKLN18ZL7","AIXZNUNYZHM4I","3MVY4USGB69K0BK9K576GJZ2CVDSII","","null","<img src=""img/food3.png"" style=""width:200px; border:14px solid green;"">","null","","","","","","","","","",""
"","image-keyboard-response","320","219518","0.0-406.0","3TYCR1GOTD5LD8CNR23TTBKLN18ZL7","AIXZNUNYZHM4I","3MVY4USGB69K0BK9K576GJZ2CVDSII","","532.3999999761581","img/food3.png","76","533","3","0","","1","1","1,0.7,0,1,0.7,0,0.7,0,1","0,1,0.7,0,1,0.7,1,0.7,0","3",""
"","html-keyboard-response","321","219825","0.0-407.0","3TYCR1GOTD5LD8CNR23TTBKLN18ZL7","AIXZNUNYZHM4I","3MVY4USGB69K0BK9K576GJZ2CVDSII","","null","<img src=""img/food3.png"" style=""width:200px;border:14px solid red;"">","null","","","","","","","","","",""
"","image-keyboard-response","322","220639","0.0-408.0","3TYCR1GOTD5LD8CNR23TTBKLN18ZL7","AIXZNUNYZHM4I","3MVY4USGB69K0BK9K576GJZ2CVDSII","","813.6999999880791","img/food4.png","75","814.5","2","1","","2","1","1,0.7,0,1,0.7,0,0.7,0,1","0,1,0.7,0,1,0.7,1,0.7,0","3",""
"","html-keyboard-response","323","220945","0.0-409.0","3TYCR1GOTD5LD8CNR23TTBKLN18ZL7","AIXZNUNYZHM4I","3MVY4USGB69K0BK9K576GJZ2CVDSII","","null","<img src=""img/food4.png"" style=""width:200px; border:14px solid green;"">","null","","","","","","","","","",""
"","image-keyboard-response","324","221399","0.0-410.0","3TYCR1GOTD5LD8CNR23TTBKLN18ZL7","AIXZNUNYZHM4I","3MVY4USGB69K0BK9K576GJZ2CVDSII","","453.59999999403954","img/food4.png","75","454.19999998807907","2","1","","2","1","1,0.7,0,1,0.7,0,0.7,0,1","0,1,0.7,0,1,0.7,1,0.7,0","3",""
"","html-keyboard-response","325","221705","0.0-411.0","3TYCR1GOTD5LD8CNR23TTBKLN18ZL7","AIXZNUNYZHM4I","3MVY4USGB69K0BK9K576GJZ2CVDSII","","null","<img src=""img/food4.png"" style=""width:200px; border:14px solid green;"">","null","","","","","","","","","",""
"","image-keyboard-response","326","222198","0.0-412.0","3TYCR1GOTD5LD8CNR23TTBKLN18ZL7","AIXZNUNYZHM4I","3MVY4USGB69K0BK9K576GJZ2CVDSII","","492.09999999403954","img/food4.png","75","492.7999999821186","2","1","","2","1","1,0.7,0,1,0.7,0,0.7,0,1","0,1,0.7,0,1,0.7,1,0.7,0","3",""
"","html-keyboard-response","327","222505","0.0-413.0","3TYCR1GOTD5LD8CNR23TTBKLN18ZL7","AIXZNUNYZHM4I","3MVY4USGB69K0BK9K576GJZ2CVDSII","","null","<img src=""img/food4.png"" style=""width:200px; border:14px solid green;"">","null","","","","","","","","","",""
"","image-keyboard-response","328","223248","0.0-414.0","3TYCR1GOTD5LD8CNR23TTBKLN18ZL7","AIXZNUNYZHM4I","3MVY4USGB69K0BK9K576GJZ2CVDSII","","741.9000000059605","img/food4.png","75","742.8000000119209","2","1","","2","1","1,0.7,0,1,0.7,0,0.7,0,1","0,1,0.7,0,1,0.7,1,0.7,0","3",""
"","html-keyboard-response","329","223553","0.0-415.0","3TYCR1GOTD5LD8CNR23TTBKLN18ZL7","AIXZNUNYZHM4I","3MVY4USGB69K0BK9K576GJZ2CVDSII","","null","<img src=""img/food4.png"" style=""width:200px; border:14px solid green;"">","null","","","","","","","","","",""
"","image-keyboard-response","330","223997","0.0-416.0","3TYCR1GOTD5LD8CNR23TTBKLN18ZL7","AIXZNUNYZHM4I","3MVY4USGB69K0BK9K576GJZ2CVDSII","","443.90000000596046","img/food4.png","75","444.7000000178814","2","1","","2","1","1,0.7,0,1,0.7,0,0.7,0,1","0,1,0.7,0,1,0.7,1,0.7,0","3",""
"","html-keyboard-response","331","224306","0.0-417.0","3TYCR1GOTD5LD8CNR23TTBKLN18ZL7","AIXZNUNYZHM4I","3MVY4USGB69K0BK9K576GJZ2CVDSII","","null","<img src=""img/food4.png"" style=""width:200px; border:14px solid green;"">","null","","","","","","","","","",""
"","image-keyboard-response","332","225126","0.0-418.0","3TYCR1GOTD5LD8CNR23TTBKLN18ZL7","AIXZNUNYZHM4I","3MVY4USGB69K0BK9K576GJZ2CVDSII","","819.5999999940395","img/food3.png","76","820.6000000238419","3","1","","1","1","1,0.7,0,1,0.7,0,0.7,0,1","0,1,0.7,0,1,0.7,1,0.7,0","3",""
"","html-keyboard-response","333","225434","0.0-419.0","3TYCR1GOTD5LD8CNR23TTBKLN18ZL7","AIXZNUNYZHM4I","3MVY4USGB69K0BK9K576GJZ2CVDSII","","null","<img src=""img/food3.png"" style=""width:200px; border:14px solid green;"">","null","","","","","","","","","",""
"","image-keyboard-response","334","226056","0.0-420.0","3TYCR1GOTD5LD8CNR23TTBKLN18ZL7","AIXZNUNYZHM4I","3MVY4USGB69K0BK9K576GJZ2CVDSII","","619.5","img/food3.png","76","621.0999999940395","3","1","","1","1","1,0.7,0,1,0.7,0,0.7,0,1","0,1,0.7,0,1,0.7,1,0.7,0","3",""
"","html-keyboard-response","335","226361","0.0-421.0","3TYCR1GOTD5LD8CNR23TTBKLN18ZL7","AIXZNUNYZHM4I","3MVY4USGB69K0BK9K576GJZ2CVDSII","","null","<img src=""img/food3.png"" style=""width:200px; border:14px solid green;"">","null","","","","","","","","","",""
"","image-keyboard-response","336","226830","0.0-422.0","3TYCR1GOTD5LD8CNR23TTBKLN18ZL7","AIXZNUNYZHM4I","3MVY4USGB69K0BK9K576GJZ2CVDSII","","468.19999998807907","img/food3.png","76","468.90000000596046","3","1","","1","1","1,0.7,0,1,0.7,0,0.7,0,1","0,1,0.7,0,1,0.7,1,0.7,0","3",""
"","html-keyboard-response","337","227137","0.0-423.0","3TYCR1GOTD5LD8CNR23TTBKLN18ZL7","AIXZNUNYZHM4I","3MVY4USGB69K0BK9K576GJZ2CVDSII","","null","<img src=""img/food3.png"" style=""width:200px; border:14px solid green;"">","null","","","","","","","","","",""
"","image-keyboard-response","338","227759","0.0-424.0","3TYCR1GOTD5LD8CNR23TTBKLN18ZL7","AIXZNUNYZHM4I","3MVY4USGB69K0BK9K576GJZ2CVDSII","","620.4000000059605","img/food5.png","74","621.0999999940395","1","1","","3","1","1,0.7,0,1,0.7,0,0.7,0,1","0,1,0.7,0,1,0.7,1,0.7,0","3",""
"","html-keyboard-response","339","228065","0.0-425.0","3TYCR1GOTD5LD8CNR23TTBKLN18ZL7","AIXZNUNYZHM4I","3MVY4USGB69K0BK9K576GJZ2CVDSII","","null","<img src=""img/food5.png"" style=""width:200px; border:14px solid green;"">","null","","","","","","","","","",""
"","image-keyboard-response","340","228775","0.0-426.0","3TYCR1GOTD5LD8CNR23TTBKLN18ZL7","AIXZNUNYZHM4I","3MVY4USGB69K0BK9K576GJZ2CVDSII","","710.1999999880791","img/food4.png","75","710.9000000059605","2","1","","2","1","1,0.7,0,1,0.7,0,0.7,0,1","0,1,0.7,0,1,0.7,1,0.7,0","3",""
"","html-keyboard-response","341","229081","0.0-427.0","3TYCR1GOTD5LD8CNR23TTBKLN18ZL7","AIXZNUNYZHM4I","3MVY4USGB69K0BK9K576GJZ2CVDSII","","null","<img src=""img/food4.png"" style=""width:200px; border:14px solid green;"">","null","","","","","","","","","",""
"","image-keyboard-response","342","229510","0.0-428.0","3TYCR1GOTD5LD8CNR23TTBKLN18ZL7","AIXZNUNYZHM4I","3MVY4USGB69K0BK9K576GJZ2CVDSII","","427.5","img/food4.png","75","428.09999999403954","2","1","","2","1","1,0.7,0,1,0.7,0,0.7,0,1","0,1,0.7,0,1,0.7,1,0.7,0","3",""
"","html-keyboard-response","343","229817","0.0-429.0","3TYCR1GOTD5LD8CNR23TTBKLN18ZL7","AIXZNUNYZHM4I","3MVY4USGB69K0BK9K576GJZ2CVDSII","","null","<img src=""img/food4.png"" style=""width:200px; border:14px solid green;"">","null","","","","","","","","","",""
"","image-keyboard-response","344","230278","0.0-430.0","3TYCR1GOTD5LD8CNR23TTBKLN18ZL7","AIXZNUNYZHM4I","3MVY4USGB69K0BK9K576GJZ2CVDSII","","459.59999999403954","img/food4.png","75","460","2","1","","2","1","1,0.7,0,1,0.7,0,0.7,0,1","0,1,0.7,0,1,0.7,1,0.7,0","3",""
"","html-keyboard-response","345","230586","0.0-431.0","3TYCR1GOTD5LD8CNR23TTBKLN18ZL7","AIXZNUNYZHM4I","3MVY4USGB69K0BK9K576GJZ2CVDSII","","null","<img src=""img/food4.png"" style=""width:200px; border:14px solid green;"">","null","","","","","","","","","",""
"","image-keyboard-response","346","231253","0.0-432.0","3TYCR1GOTD5LD8CNR23TTBKLN18ZL7","AIXZNUNYZHM4I","3MVY4USGB69K0BK9K576GJZ2CVDSII","","667.1999999880791","img/food5.png","74","667.7000000178814","1","1","","3","1","1,0.7,0,1,0.7,0,0.7,0,1","0,1,0.7,0,1,0.7,1,0.7,0","3",""
"","html-keyboard-response","347","231561","0.0-433.0","3TYCR1GOTD5LD8CNR23TTBKLN18ZL7","AIXZNUNYZHM4I","3MVY4USGB69K0BK9K576GJZ2CVDSII","","null","<img src=""img/food5.png"" style=""width:200px; border:14px solid green;"">","null","","","","","","","","","",""
"","image-keyboard-response","348","231968","0.0-434.0","3TYCR1GOTD5LD8CNR23TTBKLN18ZL7","AIXZNUNYZHM4I","3MVY4USGB69K0BK9K576GJZ2CVDSII","","405.5","img/food5.png","74","406.2000000178814","1","1","","3","1","1,0.7,0,1,0.7,0,0.7,0,1","0,1,0.7,0,1,0.7,1,0.7,0","3",""
"","html-keyboard-response","349","232273","0.0-435.0","3TYCR1GOTD5LD8CNR23TTBKLN18ZL7","AIXZNUNYZHM4I","3MVY4USGB69K0BK9K576GJZ2CVDSII","","null","<img src=""img/food5.png"" style=""width:200px; border:14px solid green;"">","null","","","","","","","","","",""
"","image-keyboard-response","350","232694","0.0-436.0","3TYCR1GOTD5LD8CNR23TTBKLN18ZL7","AIXZNUNYZHM4I","3MVY4USGB69K0BK9K576GJZ2CVDSII","","420.7999999821186","img/food5.png","74","421.30000001192093","1","1","","3","1","1,0.7,0,1,0.7,0,0.7,0,1","0,1,0.7,0,1,0.7,1,0.7,0","3",""
"","html-keyboard-response","351","233001","0.0-437.0","3TYCR1GOTD5LD8CNR23TTBKLN18ZL7","AIXZNUNYZHM4I","3MVY4USGB69K0BK9K576GJZ2CVDSII","","null","<img src=""img/food5.png"" style=""width:200px; border:14px solid green;"">","null","","","","","","","","","",""
"","image-keyboard-response","352","233444","0.0-438.0","3TYCR1GOTD5LD8CNR23TTBKLN18ZL7","AIXZNUNYZHM4I","3MVY4USGB69K0BK9K576GJZ2CVDSII","","442.19999998807907","img/food5.png","74","443","1","1","","3","1","1,0.7,0,1,0.7,0,0.7,0,1","0,1,0.7,0,1,0.7,1,0.7,0","3",""
"","html-keyboard-response","353","233753","0.0-439.0","3TYCR1GOTD5LD8CNR23TTBKLN18ZL7","AIXZNUNYZHM4I","3MVY4USGB69K0BK9K576GJZ2CVDSII","","null","<img src=""img/food5.png"" style=""width:200px; border:14px solid green;"">","null","","","","","","","","","",""
"","image-keyboard-response","354","234481","0.0-440.0","3TYCR1GOTD5LD8CNR23TTBKLN18ZL7","AIXZNUNYZHM4I","3MVY4USGB69K0BK9K576GJZ2CVDSII","","726.9000000059605","img/food4.png","75","727.6999999880791","2","1","","2","1","1,0.7,0,1,0.7,0,0.7,0,1","0,1,0.7,0,1,0.7,1,0.7,0","3",""
"","html-keyboard-response","355","234788","0.0-441.0","3TYCR1GOTD5LD8CNR23TTBKLN18ZL7","AIXZNUNYZHM4I","3MVY4USGB69K0BK9K576GJZ2CVDSII","","null","<img src=""img/food4.png"" style=""width:200px; border:14px solid green;"">","null","","","","","","","","","",""
"","image-keyboard-response","356","235695","0.0-442.0","3TYCR1GOTD5LD8CNR23TTBKLN18ZL7","AIXZNUNYZHM4I","3MVY4USGB69K0BK9K576GJZ2CVDSII","","905.8999999761581","img/food3.png","76","906.6999999880791","3","1","","1","1","1,0.7,0,1,0.7,0,0.7,0,1","0,1,0.7,0,1,0.7,1,0.7,0","3",""
"","html-keyboard-response","357","236001","0.0-443.0","3TYCR1GOTD5LD8CNR23TTBKLN18ZL7","AIXZNUNYZHM4I","3MVY4USGB69K0BK9K576GJZ2CVDSII","","null","<img src=""img/food3.png"" style=""width:200px; border:14px solid green;"">","null","","","","","","","","","",""
"","image-keyboard-response","358","236782","0.0-444.0","3TYCR1GOTD5LD8CNR23TTBKLN18ZL7","AIXZNUNYZHM4I","3MVY4USGB69K0BK9K576GJZ2CVDSII","","780.9000000059605","img/food4.png","75","781.5","2","1","","2","1","1,0.7,0,1,0.7,0,0.7,0,1","0,1,0.7,0,1,0.7,1,0.7,0","3",""
"","html-keyboard-response","359","237090","0.0-445.0","3TYCR1GOTD5LD8CNR23TTBKLN18ZL7","AIXZNUNYZHM4I","3MVY4USGB69K0BK9K576GJZ2CVDSII","","null","<img src=""img/food4.png"" style=""width:200px; border:14px solid green;"">","null","","","","","","","","","",""
"","image-keyboard-response","360","237686","0.0-446.0","3TYCR1GOTD5LD8CNR23TTBKLN18ZL7","AIXZNUNYZHM4I","3MVY4USGB69K0BK9K576GJZ2CVDSII","","595.3999999761581","img/food4.png","75","596.0999999940395","2","1","","2","1","1,0.7,0,1,0.7,0,0.7,0,1","0,1,0.7,0,1,0.7,1,0.7,0","3",""
"","html-keyboard-response","361","237993","0.0-447.0","3TYCR1GOTD5LD8CNR23TTBKLN18ZL7","AIXZNUNYZHM4I","3MVY4USGB69K0BK9K576GJZ2CVDSII","","null","<img src=""img/food4.png"" style=""width:200px; border:14px solid green;"">","null","","","","","","","","","",""
"","image-keyboard-response","362","238606","0.0-448.0","3TYCR1GOTD5LD8CNR23TTBKLN18ZL7","AIXZNUNYZHM4I","3MVY4USGB69K0BK9K576GJZ2CVDSII","","612","img/food3.png","76","612.5","3","0","","1","1","1,0.7,0,1,0.7,0,0.7,0,1","0,1,0.7,0,1,0.7,1,0.7,0","3",""
"","html-keyboard-response","363","238914","0.0-449.0","3TYCR1GOTD5LD8CNR23TTBKLN18ZL7","AIXZNUNYZHM4I","3MVY4USGB69K0BK9K576GJZ2CVDSII","","null","<img src=""img/food3.png"" style=""width:200px;border:14px solid red;"">","null","","","","","","","","","",""
"","image-keyboard-response","364","239614","0.0-450.0","3TYCR1GOTD5LD8CNR23TTBKLN18ZL7","AIXZNUNYZHM4I","3MVY4USGB69K0BK9K576GJZ2CVDSII","","699.3000000119209","img/food4.png","75","700.5999999940395","2","1","","2","1","1,0.7,0,1,0.7,0,0.7,0,1","0,1,0.7,0,1,0.7,1,0.7,0","3",""
"","html-keyboard-response","365","239921","0.0-451.0","3TYCR1GOTD5LD8CNR23TTBKLN18ZL7","AIXZNUNYZHM4I","3MVY4USGB69K0BK9K576GJZ2CVDSII","","null","<img src=""img/food4.png"" style=""width:200px; border:14px solid green;"">","null","","","","","","","","","",""
"","image-keyboard-response","366","240398","0.0-452.0","3TYCR1GOTD5LD8CNR23TTBKLN18ZL7","AIXZNUNYZHM4I","3MVY4USGB69K0BK9K576GJZ2CVDSII","","475.5","img/food4.png","75","476.2000000178814","2","1","","2","1","1,0.7,0,1,0.7,0,0.7,0,1","0,1,0.7,0,1,0.7,1,0.7,0","3",""
"","html-keyboard-response","367","240706","0.0-453.0","3TYCR1GOTD5LD8CNR23TTBKLN18ZL7","AIXZNUNYZHM4I","3MVY4USGB69K0BK9K576GJZ2CVDSII","","null","<img src=""img/food4.png"" style=""width:200px; border:14px solid green;"">","null","","","","","","","","","",""
"","html-keyboard-response","368","244066","0.0-454.0","3TYCR1GOTD5LD8CNR23TTBKLN18ZL7","AIXZNUNYZHM4I","3MVY4USGB69K0BK9K576GJZ2CVDSII","","","","","","","","","","","","","",""
"","instructions","369","246554","0.0-455.0","3TYCR1GOTD5LD8CNR23TTBKLN18ZL7","AIXZNUNYZHM4I","3MVY4USGB69K0BK9K576GJZ2CVDSII","[{""page_index"":0,""viewing_time"":2486.100000023842}]","2487.100000023842","","","","","","","","","","","",""
"","survey-text","370","250392","0.0-456.0","3TYCR1GOTD5LD8CNR23TTBKLN18ZL7","AIXZNUNYZHM4I","3MVY4USGB69K0BK9K576GJZ2CVDSII","","3835.199999988079","","","","","","","","","","","","{""Q0"":""AIXZNUNYZHM4I""}"
