"success","trial_type","trial_index","time_elapsed","internal_node_id","assignmentID","mturkID","hitID","view_history","rt","stimulus","key_press","reactionTime","a","r","warning","s","cond","reward_cond","reward_cond_actual","reward_matrix_idx","responses"
"true","fullscreen","0","5810","0.0-0.0","369J354OFEW336EBE692JLMIN8QG6D","AJ7MWBQFNH3E4","3UDTAB6HH6LRO17U79I9TKUGYFV09C","","","","","","","","","","","","","",""
"","instructions","1","20000","0.0-1.0","369J354OFEW336EBE692JLMIN8QG6D","AJ7MWBQFNH3E4","3UDTAB6HH6LRO17U79I9TKUGYFV09C","[{""page_index"":0,""viewing_time"":2661.600000023842},{""page_index"":1,""viewing_time"":953.6999999284744},{""page_index"":2,""viewing_time"":604.3999999761581},{""page_index"":3,""viewing_time"":4056.100000023842},{""page_index"":4,""viewing_time"":2093.2000000476837},{""page_index"":5,""viewing_time"":1763.6000000238419},{""page_index"":6,""viewing_time"":2053.899999976158}]","14187.100000023842","","","","","","","","","","","",""
"","instructions","2","38052","0.0-2.0","369J354OFEW336EBE692JLMIN8QG6D","AJ7MWBQFNH3E4","3UDTAB6HH6LRO17U79I9TKUGYFV09C","[{""page_index"":0,""viewing_time"":13660.800000071526},{""page_index"":1,""viewing_time"":4387.699999928474}]","18049","","","","","","","","","","","",""
"","image-keyboard-response","3","38504","0.0-3.0","369J354OFEW336EBE692JLMIN8QG6D","AJ7MWBQFNH3E4","3UDTAB6HH6LRO17U79I9TKUGYFV09C","","447","img/food6.png","74","451.09999990463257","1","0","false","1","2","1,0.5,0,1,0.5,0,0.5,0,1","0,1,0.5,0,1,0.5,1,0.5,0","3",""
"","html-keyboard-response","4","38808","0.0-4.0","369J354OFEW336EBE692JLMIN8QG6D","AJ7MWBQFNH3E4","3UDTAB6HH6LRO17U79I9TKUGYFV09C","","null","<img src=""img/food6.png"" style=""width:200px;border:14px solid red;"">","null","","","","","","","","","",""
"","image-keyboard-response","5","39666","0.0-6.0","369J354OFEW336EBE692JLMIN8QG6D","AJ7MWBQFNH3E4","3UDTAB6HH6LRO17U79I9TKUGYFV09C","","855.2999999523163","img/food6.png","74","857.1000000238419","1","0","false","1","2","1,0.5,0,1,0.5,0,0.5,0,1","0,1,0.5,0,1,0.5,1,0.5,0","3",""
"","html-keyboard-response","6","39975","0.0-7.0","369J354OFEW336EBE692JLMIN8QG6D","AJ7MWBQFNH3E4","3UDTAB6HH6LRO17U79I9TKUGYFV09C","","null","<img src=""img/food6.png"" style=""width:200px;border:14px solid red;"">","null","","","","","","","","","",""
"","image-keyboard-response","7","40811","0.0-9.0","369J354OFEW336EBE692JLMIN8QG6D","AJ7MWBQFNH3E4","3UDTAB6HH6LRO17U79I9TKUGYFV09C","","834.2000000476837","img/food2.png","75","836.1000000238419","2","1","false","2","2","1,0.5,0,1,0.5,0,0.5,0,1","0,1,0.5,0,1,0.5,1,0.5,0","3",""
"","html-keyboard-response","8","41117","0.0-10.0","369J354OFEW336EBE692JLMIN8QG6D","AJ7MWBQFNH3E4","3UDTAB6HH6LRO17U79I9TKUGYFV09C","","null","<img src=""img/food2.png"" style=""width:200px; border:14px solid green;"">","null","","","","","","","","","",""
"","image-keyboard-response","9","41969","0.0-12.0","369J354OFEW336EBE692JLMIN8QG6D","AJ7MWBQFNH3E4","3UDTAB6HH6LRO17U79I9TKUGYFV09C","","848","img/food2.png","75","849.8999999761581","2","1","false","2","2","1,0.5,0,1,0.5,0,0.5,0,1","0,1,0.5,0,1,0.5,1,0.5,0","3",""
"","html-keyboard-response","10","42276","0.0-13.0","369J354OFEW336EBE692JLMIN8QG6D","AJ7MWBQFNH3E4","3UDTAB6HH6LRO17U79I9TKUGYFV09C","","null","<img src=""img/food2.png"" style=""width:200px; border:14px solid green;"">","null","","","","","","","","","",""
"","image-keyboard-response","11","42968","0.0-15.0","369J354OFEW336EBE692JLMIN8QG6D","AJ7MWBQFNH3E4","3UDTAB6HH6LRO17U79I9TKUGYFV09C","","689.8999999761581","img/food1.png","76","691.7999999523163","3","0","false","3","2","1,0.5,0,1,0.5,0,0.5,0,1","0,1,0.5,0,1,0.5,1,0.5,0","3",""
"","html-keyboard-response","12","43276","0.0-16.0","369J354OFEW336EBE692JLMIN8QG6D","AJ7MWBQFNH3E4","3UDTAB6HH6LRO17U79I9TKUGYFV09C","","null","<img src=""img/food1.png"" style=""width:200px;border:14px solid red;"">","null","","","","","","","","","",""
"","image-keyboard-response","13","44130","0.0-18.0","369J354OFEW336EBE692JLMIN8QG6D","AJ7MWBQFNH3E4","3UDTAB6HH6LRO17U79I9TKUGYFV09C","","852.8999999761581","img/food2.png","75","854.2999999523163","2","1","false","2","2","1,0.5,0,1,0.5,0,0.5,0,1","0,1,0.5,0,1,0.5,1,0.5,0","3",""
"","html-keyboard-response","14","44439","0.0-19.0","369J354OFEW336EBE692JLMIN8QG6D","AJ7MWBQFNH3E4","3UDTAB6HH6LRO17U79I9TKUGYFV09C","","null","<img src=""img/food2.png"" style=""width:200px; border:14px solid green;"">","null","","","","","","","","","",""
"","image-keyboard-response","15","45094","0.0-21.0","369J354OFEW336EBE692JLMIN8QG6D","AJ7MWBQFNH3E4","3UDTAB6HH6LRO17U79I9TKUGYFV09C","","653.8000000715256","img/food2.png","75","655.2000000476837","2","1","false","2","2","1,0.5,0,1,0.5,0,0.5,0,1","0,1,0.5,0,1,0.5,1,0.5,0","3",""
"","html-keyboard-response","16","45403","0.0-22.0","369J354OFEW336EBE692JLMIN8QG6D","AJ7MWBQFNH3E4","3UDTAB6HH6LRO17U79I9TKUGYFV09C","","null","<img src=""img/food2.png"" style=""width:200px; border:14px solid green;"">","null","","","","","","","","","",""
"","image-keyboard-response","17","46018","0.0-24.0","369J354OFEW336EBE692JLMIN8QG6D","AJ7MWBQFNH3E4","3UDTAB6HH6LRO17U79I9TKUGYFV09C","","613.5","img/food6.png","74","614.8999999761581","1","0","false","1","2","1,0.5,0,1,0.5,0,0.5,0,1","0,1,0.5,0,1,0.5,1,0.5,0","3",""
"","html-keyboard-response","18","46321","0.0-25.0","369J354OFEW336EBE692JLMIN8QG6D","AJ7MWBQFNH3E4","3UDTAB6HH6LRO17U79I9TKUGYFV09C","","null","<img src=""img/food6.png"" style=""width:200px;border:14px solid red;"">","null","","","","","","","","","",""
"","image-keyboard-response","19","46884","0.0-27.0","369J354OFEW336EBE692JLMIN8QG6D","AJ7MWBQFNH3E4","3UDTAB6HH6LRO17U79I9TKUGYFV09C","","560.8999999761581","img/food6.png","76","562.6000000238419","3","0","false","1","2","1,0.5,0,1,0.5,0,0.5,0,1","0,1,0.5,0,1,0.5,1,0.5,0","3",""
"","html-keyboard-response","20","47188","0.0-28.0","369J354OFEW336EBE692JLMIN8QG6D","AJ7MWBQFNH3E4","3UDTAB6HH6LRO17U79I9TKUGYFV09C","","null","<img src=""img/food6.png"" style=""width:200px;border:14px solid red;"">","null","","","","","","","","","",""
"","image-keyboard-response","21","47957","0.0-30.0","369J354OFEW336EBE692JLMIN8QG6D","AJ7MWBQFNH3E4","3UDTAB6HH6LRO17U79I9TKUGYFV09C","","767.6000000238419","img/food2.png","75","769.1000000238419","2","1","false","2","2","1,0.5,0,1,0.5,0,0.5,0,1","0,1,0.5,0,1,0.5,1,0.5,0","3",""
"","html-keyboard-response","22","48263","0.0-31.0","369J354OFEW336EBE692JLMIN8QG6D","AJ7MWBQFNH3E4","3UDTAB6HH6LRO17U79I9TKUGYFV09C","","null","<img src=""img/food2.png"" style=""width:200px; border:14px solid green;"">","null","","","","","","","","","",""
"","image-keyboard-response","23","48980","0.0-33.0","369J354OFEW336EBE692JLMIN8QG6D","AJ7MWBQFNH3E4","3UDTAB6HH6LRO17U79I9TKUGYFV09C","","715.2999999523163","img/food1.png","74","716.6000000238419","1","1","false","3","2","1,0.5,0,1,0.5,0,0.5,0,1","0,1,0.5,0,1,0.5,1,0.5,0","3",""
"","html-keyboard-response","24","49291","0.0-34.0","369J354OFEW336EBE692JLMIN8QG6D","AJ7MWBQFNH3E4","3UDTAB6HH6LRO17U79I9TKUGYFV09C","","null","<img src=""img/food1.png"" style=""width:200px; border:14px solid green;"">","null","","","","","","","","","",""
"","image-keyboard-response","25","50254","0.0-36.0","369J354OFEW336EBE692JLMIN8QG6D","AJ7MWBQFNH3E4","3UDTAB6HH6LRO17U79I9TKUGYFV09C","","961.8999999761581","img/food6.png","76","963.2000000476837","3","1","false","1","2","1,0.5,0,1,0.5,0,0.5,0,1","0,1,0.5,0,1,0.5,1,0.5,0","3",""
"","html-keyboard-response","26","50567","0.0-37.0","369J354OFEW336EBE692JLMIN8QG6D","AJ7MWBQFNH3E4","3UDTAB6HH6LRO17U79I9TKUGYFV09C","","null","<img src=""img/food6.png"" style=""width:200px; border:14px solid green;"">","null","","","","","","","","","",""
"","image-keyboard-response","27","51498","0.0-39.0","369J354OFEW336EBE692JLMIN8QG6D","AJ7MWBQFNH3E4","3UDTAB6HH6LRO17U79I9TKUGYFV09C","","929.6000000238419","img/food1.png","74","931.1000000238419","1","1","false","3","2","1,0.5,0,1,0.5,0,0.5,0,1","0,1,0.5,0,1,0.5,1,0.5,0","3",""
"","html-keyboard-response","28","51801","0.0-40.0","369J354OFEW336EBE692JLMIN8QG6D","AJ7MWBQFNH3E4","3UDTAB6HH6LRO17U79I9TKUGYFV09C","","null","<img src=""img/food1.png"" style=""width:200px; border:14px solid green;"">","null","","","","","","","","","",""
"","image-keyboard-response","29","52317","0.0-42.0","369J354OFEW336EBE692JLMIN8QG6D","AJ7MWBQFNH3E4","3UDTAB6HH6LRO17U79I9TKUGYFV09C","","513.5","img/food1.png","74","515.0999999046326","1","1","false","3","2","1,0.5,0,1,0.5,0,0.5,0,1","0,1,0.5,0,1,0.5,1,0.5,0","3",""
"","html-keyboard-response","30","52625","0.0-43.0","369J354OFEW336EBE692JLMIN8QG6D","AJ7MWBQFNH3E4","3UDTAB6HH6LRO17U79I9TKUGYFV09C","","null","<img src=""img/food1.png"" style=""width:200px; border:14px solid green;"">","null","","","","","","","","","",""
"","image-keyboard-response","31","53087","0.0-45.0","369J354OFEW336EBE692JLMIN8QG6D","AJ7MWBQFNH3E4","3UDTAB6HH6LRO17U79I9TKUGYFV09C","","459.6999999284744","img/food1.png","74","461.2000000476837","1","1","false","3","2","1,0.5,0,1,0.5,0,0.5,0,1","0,1,0.5,0,1,0.5,1,0.5,0","3",""
"","html-keyboard-response","32","53410","0.0-46.0","369J354OFEW336EBE692JLMIN8QG6D","AJ7MWBQFNH3E4","3UDTAB6HH6LRO17U79I9TKUGYFV09C","","null","<img src=""img/food1.png"" style=""width:200px; border:14px solid green;"">","null","","","","","","","","","",""
"","image-keyboard-response","33","54180","0.0-48.0","369J354OFEW336EBE692JLMIN8QG6D","AJ7MWBQFNH3E4","3UDTAB6HH6LRO17U79I9TKUGYFV09C","","720.3000000715256","img/food2.png","75","734.1000000238419","2","1","false","2","2","1,0.5,0,1,0.5,0,0.5,0,1","0,1,0.5,0,1,0.5,1,0.5,0","3",""
"","html-keyboard-response","34","54488","0.0-49.0","369J354OFEW336EBE692JLMIN8QG6D","AJ7MWBQFNH3E4","3UDTAB6HH6LRO17U79I9TKUGYFV09C","","null","<img src=""img/food2.png"" style=""width:200px; border:14px solid green;"">","null","","","","","","","","","",""
"","image-keyboard-response","35","55089","0.0-51.0","369J354OFEW336EBE692JLMIN8QG6D","AJ7MWBQFNH3E4","3UDTAB6HH6LRO17U79I9TKUGYFV09C","","598.7000000476837","img/food1.png","74","600.1000000238419","1","1","false","3","2","1,0.5,0,1,0.5,0,0.5,0,1","0,1,0.5,0,1,0.5,1,0.5,0","3",""
"","html-keyboard-response","36","55404","0.0-52.0","369J354OFEW336EBE692JLMIN8QG6D","AJ7MWBQFNH3E4","3UDTAB6HH6LRO17U79I9TKUGYFV09C","","null","<img src=""img/food1.png"" style=""width:200px; border:14px solid green;"">","null","","","","","","","","","",""
"","image-keyboard-response","37","56083","0.0-54.0","369J354OFEW336EBE692JLMIN8QG6D","AJ7MWBQFNH3E4","3UDTAB6HH6LRO17U79I9TKUGYFV09C","","675.6999999284744","img/food6.png","76","678.7000000476837","3","0","false","1","2","1,0.5,0,1,0.5,0,0.5,0,1","0,1,0.5,0,1,0.5,1,0.5,0","3",""
"","html-keyboard-response","38","56392","0.0-55.0","369J354OFEW336EBE692JLMIN8QG6D","AJ7MWBQFNH3E4","3UDTAB6HH6LRO17U79I9TKUGYFV09C","","null","<img src=""img/food6.png"" style=""width:200px;border:14px solid red;"">","null","","","","","","","","","",""
"","image-keyboard-response","39","56977","0.0-57.0","369J354OFEW336EBE692JLMIN8QG6D","AJ7MWBQFNH3E4","3UDTAB6HH6LRO17U79I9TKUGYFV09C","","581.6999999284744","img/food6.png","76","583.8999999761581","3","1","false","1","2","1,0.5,0,1,0.5,0,0.5,0,1","0,1,0.5,0,1,0.5,1,0.5,0","3",""
"","html-keyboard-response","40","57284","0.0-58.0","369J354OFEW336EBE692JLMIN8QG6D","AJ7MWBQFNH3E4","3UDTAB6HH6LRO17U79I9TKUGYFV09C","","null","<img src=""img/food6.png"" style=""width:200px; border:14px solid green;"">","null","","","","","","","","","",""
"","image-keyboard-response","41","57876","0.0-60.0","369J354OFEW336EBE692JLMIN8QG6D","AJ7MWBQFNH3E4","3UDTAB6HH6LRO17U79I9TKUGYFV09C","","590.5","img/food6.png","76","592","3","1","false","1","2","1,0.5,0,1,0.5,0,0.5,0,1","0,1,0.5,0,1,0.5,1,0.5,0","3",""
"","html-keyboard-response","42","58180","0.0-61.0","369J354OFEW336EBE692JLMIN8QG6D","AJ7MWBQFNH3E4","3UDTAB6HH6LRO17U79I9TKUGYFV09C","","null","<img src=""img/food6.png"" style=""width:200px; border:14px solid green;"">","null","","","","","","","","","",""
"","image-keyboard-response","43","58934","0.0-63.0","369J354OFEW336EBE692JLMIN8QG6D","AJ7MWBQFNH3E4","3UDTAB6HH6LRO17U79I9TKUGYFV09C","","753.1000000238419","img/food1.png","74","754.3000000715256","1","1","false","3","2","1,0.5,0,1,0.5,0,0.5,0,1","0,1,0.5,0,1,0.5,1,0.5,0","3",""
"","html-keyboard-response","44","59237","0.0-64.0","369J354OFEW336EBE692JLMIN8QG6D","AJ7MWBQFNH3E4","3UDTAB6HH6LRO17U79I9TKUGYFV09C","","null","<img src=""img/food1.png"" style=""width:200px; border:14px solid green;"">","null","","","","","","","","","",""
"","image-keyboard-response","45","59640","0.0-66.0","369J354OFEW336EBE692JLMIN8QG6D","AJ7MWBQFNH3E4","3UDTAB6HH6LRO17U79I9TKUGYFV09C","","400.7999999523163","img/food1.png","74","402.2999999523163","1","1","false","3","2","1,0.5,0,1,0.5,0,0.5,0,1","0,1,0.5,0,1,0.5,1,0.5,0","3",""
"","html-keyboard-response","46","59955","0.0-67.0","369J354OFEW336EBE692JLMIN8QG6D","AJ7MWBQFNH3E4","3UDTAB6HH6LRO17U79I9TKUGYFV09C","","null","<img src=""img/food1.png"" style=""width:200px; border:14px solid green;"">","null","","","","","","","","","",""
"","image-keyboard-response","47","60713","0.0-69.0","369J354OFEW336EBE692JLMIN8QG6D","AJ7MWBQFNH3E4","3UDTAB6HH6LRO17U79I9TKUGYFV09C","","755.7000000476837","img/food2.png","75","757.1999999284744","2","1","false","2","2","1,0.5,0,1,0.5,0,0.5,0,1","0,1,0.5,0,1,0.5,1,0.5,0","3",""
"","html-keyboard-response","48","61022","0.0-70.0","369J354OFEW336EBE692JLMIN8QG6D","AJ7MWBQFNH3E4","3UDTAB6HH6LRO17U79I9TKUGYFV09C","","null","<img src=""img/food2.png"" style=""width:200px; border:14px solid green;"">","null","","","","","","","","","",""
"","image-keyboard-response","49","61667","0.0-72.0","369J354OFEW336EBE692JLMIN8QG6D","AJ7MWBQFNH3E4","3UDTAB6HH6LRO17U79I9TKUGYFV09C","","643.2999999523163","img/food1.png","74","644.7000000476837","1","1","false","3","2","1,0.5,0,1,0.5,0,0.5,0,1","0,1,0.5,0,1,0.5,1,0.5,0","3",""
"","html-keyboard-response","50","61982","0.0-73.0","369J354OFEW336EBE692JLMIN8QG6D","AJ7MWBQFNH3E4","3UDTAB6HH6LRO17U79I9TKUGYFV09C","","null","<img src=""img/food1.png"" style=""width:200px; border:14px solid green;"">","null","","","","","","","","","",""
"","image-keyboard-response","51","62418","0.0-75.0","369J354OFEW336EBE692JLMIN8QG6D","AJ7MWBQFNH3E4","3UDTAB6HH6LRO17U79I9TKUGYFV09C","","433.6999999284744","img/food2.png","75","435.5","2","1","false","2","2","1,0.5,0,1,0.5,0,0.5,0,1","0,1,0.5,0,1,0.5,1,0.5,0","3",""
"","html-keyboard-response","52","62731","0.0-76.0","369J354OFEW336EBE692JLMIN8QG6D","AJ7MWBQFNH3E4","3UDTAB6HH6LRO17U79I9TKUGYFV09C","","null","<img src=""img/food2.png"" style=""width:200px; border:14px solid green;"">","null","","","","","","","","","",""
"","image-keyboard-response","53","63115","0.0-78.0","369J354OFEW336EBE692JLMIN8QG6D","AJ7MWBQFNH3E4","3UDTAB6HH6LRO17U79I9TKUGYFV09C","","382.2000000476837","img/food2.png","75","384.39999997615814","2","1","false","2","2","1,0.5,0,1,0.5,0,0.5,0,1","0,1,0.5,0,1,0.5,1,0.5,0","3",""
"","html-keyboard-response","54","63423","0.0-79.0","369J354OFEW336EBE692JLMIN8QG6D","AJ7MWBQFNH3E4","3UDTAB6HH6LRO17U79I9TKUGYFV09C","","null","<img src=""img/food2.png"" style=""width:200px; border:14px solid green;"">","null","","","","","","","","","",""
"","image-keyboard-response","55","63918","0.0-81.0","369J354OFEW336EBE692JLMIN8QG6D","AJ7MWBQFNH3E4","3UDTAB6HH6LRO17U79I9TKUGYFV09C","","493.5","img/food6.png","76","494.60000002384186","3","1","false","1","2","1,0.5,0,1,0.5,0,0.5,0,1","0,1,0.5,0,1,0.5,1,0.5,0","3",""
"","html-keyboard-response","56","64227","0.0-82.0","369J354OFEW336EBE692JLMIN8QG6D","AJ7MWBQFNH3E4","3UDTAB6HH6LRO17U79I9TKUGYFV09C","","null","<img src=""img/food6.png"" style=""width:200px; border:14px solid green;"">","null","","","","","","","","","",""
"","image-keyboard-response","57","64653","0.0-84.0","369J354OFEW336EBE692JLMIN8QG6D","AJ7MWBQFNH3E4","3UDTAB6HH6LRO17U79I9TKUGYFV09C","","424","img/food1.png","74","425.7000000476837","1","1","false","3","2","1,0.5,0,1,0.5,0,0.5,0,1","0,1,0.5,0,1,0.5,1,0.5,0","3",""
"","html-keyboard-response","58","64959","0.0-85.0","369J354OFEW336EBE692JLMIN8QG6D","AJ7MWBQFNH3E4","3UDTAB6HH6LRO17U79I9TKUGYFV09C","","null","<img src=""img/food1.png"" style=""width:200px; border:14px solid green;"">","null","","","","","","","","","",""
"","image-keyboard-response","59","65409","0.0-87.0","369J354OFEW336EBE692JLMIN8QG6D","AJ7MWBQFNH3E4","3UDTAB6HH6LRO17U79I9TKUGYFV09C","","447.89999997615814","img/food1.png","74","449.39999997615814","1","1","false","3","2","1,0.5,0,1,0.5,0,0.5,0,1","0,1,0.5,0,1,0.5,1,0.5,0","3",""
"","html-keyboard-response","60","65723","0.0-88.0","369J354OFEW336EBE692JLMIN8QG6D","AJ7MWBQFNH3E4","3UDTAB6HH6LRO17U79I9TKUGYFV09C","","null","<img src=""img/food1.png"" style=""width:200px; border:14px solid green;"">","null","","","","","","","","","",""
"","image-keyboard-response","61","66166","0.0-90.0","369J354OFEW336EBE692JLMIN8QG6D","AJ7MWBQFNH3E4","3UDTAB6HH6LRO17U79I9TKUGYFV09C","","441.89999997615814","img/food6.png","76","443.10000002384186","3","0","false","1","2","1,0.5,0,1,0.5,0,0.5,0,1","0,1,0.5,0,1,0.5,1,0.5,0","3",""
"","html-keyboard-response","62","66470","0.0-91.0","369J354OFEW336EBE692JLMIN8QG6D","AJ7MWBQFNH3E4","3UDTAB6HH6LRO17U79I9TKUGYFV09C","","null","<img src=""img/food6.png"" style=""width:200px;border:14px solid red;"">","null","","","","","","","","","",""
"","image-keyboard-response","63","66961","0.0-93.0","369J354OFEW336EBE692JLMIN8QG6D","AJ7MWBQFNH3E4","3UDTAB6HH6LRO17U79I9TKUGYFV09C","","489","img/food2.png","75","490.3000000715256","2","1","false","2","2","1,0.5,0,1,0.5,0,0.5,0,1","0,1,0.5,0,1,0.5,1,0.5,0","3",""
"","html-keyboard-response","64","67266","0.0-94.0","369J354OFEW336EBE692JLMIN8QG6D","AJ7MWBQFNH3E4","3UDTAB6HH6LRO17U79I9TKUGYFV09C","","null","<img src=""img/food2.png"" style=""width:200px; border:14px solid green;"">","null","","","","","","","","","",""
"","image-keyboard-response","65","67725","0.0-96.0","369J354OFEW336EBE692JLMIN8QG6D","AJ7MWBQFNH3E4","3UDTAB6HH6LRO17U79I9TKUGYFV09C","","456.2999999523163","img/food1.png","74","458.10000002384186","1","1","false","3","2","1,0.5,0,1,0.5,0,0.5,0,1","0,1,0.5,0,1,0.5,1,0.5,0","3",""
"","html-keyboard-response","66","68035","0.0-97.0","369J354OFEW336EBE692JLMIN8QG6D","AJ7MWBQFNH3E4","3UDTAB6HH6LRO17U79I9TKUGYFV09C","","null","<img src=""img/food1.png"" style=""width:200px; border:14px solid green;"">","null","","","","","","","","","",""
"","image-keyboard-response","67","68449","0.0-99.0","369J354OFEW336EBE692JLMIN8QG6D","AJ7MWBQFNH3E4","3UDTAB6HH6LRO17U79I9TKUGYFV09C","","412.60000002384186","img/food2.png","75","414","2","1","false","2","2","1,0.5,0,1,0.5,0,0.5,0,1","0,1,0.5,0,1,0.5,1,0.5,0","3",""
"","html-keyboard-response","68","68757","0.0-100.0","369J354OFEW336EBE692JLMIN8QG6D","AJ7MWBQFNH3E4","3UDTAB6HH6LRO17U79I9TKUGYFV09C","","null","<img src=""img/food2.png"" style=""width:200px; border:14px solid green;"">","null","","","","","","","","","",""
"","image-keyboard-response","69","69299","0.0-102.0","369J354OFEW336EBE692JLMIN8QG6D","AJ7MWBQFNH3E4","3UDTAB6HH6LRO17U79I9TKUGYFV09C","","535.3999999761581","img/food6.png","76","537.2000000476837","3","0","false","1","2","1,0.5,0,1,0.5,0,0.5,0,1","0,1,0.5,0,1,0.5,1,0.5,0","3",""
"","html-keyboard-response","70","69604","0.0-103.0","369J354OFEW336EBE692JLMIN8QG6D","AJ7MWBQFNH3E4","3UDTAB6HH6LRO17U79I9TKUGYFV09C","","null","<img src=""img/food6.png"" style=""width:200px;border:14px solid red;"">","null","","","","","","","","","",""
"","image-keyboard-response","71","70115","0.0-105.0","369J354OFEW336EBE692JLMIN8QG6D","AJ7MWBQFNH3E4","3UDTAB6HH6LRO17U79I9TKUGYFV09C","","506.09999990463257","img/food2.png","75","509","2","1","false","2","2","1,0.5,0,1,0.5,0,0.5,0,1","0,1,0.5,0,1,0.5,1,0.5,0","3",""
"","html-keyboard-response","72","70426","0.0-106.0","369J354OFEW336EBE692JLMIN8QG6D","AJ7MWBQFNH3E4","3UDTAB6HH6LRO17U79I9TKUGYFV09C","","null","<img src=""img/food2.png"" style=""width:200px; border:14px solid green;"">","null","","","","","","","","","",""
"","image-keyboard-response","73","70863","0.0-108.0","369J354OFEW336EBE692JLMIN8QG6D","AJ7MWBQFNH3E4","3UDTAB6HH6LRO17U79I9TKUGYFV09C","","436","img/food2.png","75","437.2000000476837","2","1","false","2","2","1,0.5,0,1,0.5,0,0.5,0,1","0,1,0.5,0,1,0.5,1,0.5,0","3",""
"","html-keyboard-response","74","71171","0.0-109.0","369J354OFEW336EBE692JLMIN8QG6D","AJ7MWBQFNH3E4","3UDTAB6HH6LRO17U79I9TKUGYFV09C","","null","<img src=""img/food2.png"" style=""width:200px; border:14px solid green;"">","null","","","","","","","","","",""
"","image-keyboard-response","75","71581","0.0-111.0","369J354OFEW336EBE692JLMIN8QG6D","AJ7MWBQFNH3E4","3UDTAB6HH6LRO17U79I9TKUGYFV09C","","407.5","img/food2.png","75","408.7999999523163","2","1","false","2","2","1,0.5,0,1,0.5,0,0.5,0,1","0,1,0.5,0,1,0.5,1,0.5,0","3",""
"","html-keyboard-response","76","71891","0.0-112.0","369J354OFEW336EBE692JLMIN8QG6D","AJ7MWBQFNH3E4","3UDTAB6HH6LRO17U79I9TKUGYFV09C","","null","<img src=""img/food2.png"" style=""width:200px; border:14px solid green;"">","null","","","","","","","","","",""
"","image-keyboard-response","77","72316","0.0-114.0","369J354OFEW336EBE692JLMIN8QG6D","AJ7MWBQFNH3E4","3UDTAB6HH6LRO17U79I9TKUGYFV09C","","422.5","img/food2.png","75","423.89999997615814","2","1","false","2","2","1,0.5,0,1,0.5,0,0.5,0,1","0,1,0.5,0,1,0.5,1,0.5,0","3",""
"","html-keyboard-response","78","72618","0.0-115.0","369J354OFEW336EBE692JLMIN8QG6D","AJ7MWBQFNH3E4","3UDTAB6HH6LRO17U79I9TKUGYFV09C","","null","<img src=""img/food2.png"" style=""width:200px; border:14px solid green;"">","null","","","","","","","","","",""
"","image-keyboard-response","79","73040","0.0-117.0","369J354OFEW336EBE692JLMIN8QG6D","AJ7MWBQFNH3E4","3UDTAB6HH6LRO17U79I9TKUGYFV09C","","420.7000000476837","img/food2.png","75","422.2999999523163","2","1","false","2","2","1,0.5,0,1,0.5,0,0.5,0,1","0,1,0.5,0,1,0.5,1,0.5,0","3",""
"","html-keyboard-response","80","73345","0.0-118.0","369J354OFEW336EBE692JLMIN8QG6D","AJ7MWBQFNH3E4","3UDTAB6HH6LRO17U79I9TKUGYFV09C","","null","<img src=""img/food2.png"" style=""width:200px; border:14px solid green;"">","null","","","","","","","","","",""
"","image-keyboard-response","81","73909","0.0-120.0","369J354OFEW336EBE692JLMIN8QG6D","AJ7MWBQFNH3E4","3UDTAB6HH6LRO17U79I9TKUGYFV09C","","562.2999999523163","img/food1.png","74","563.6000000238419","1","1","false","3","2","1,0.5,0,1,0.5,0,0.5,0,1","0,1,0.5,0,1,0.5,1,0.5,0","3",""
"","html-keyboard-response","82","74216","0.0-121.0","369J354OFEW336EBE692JLMIN8QG6D","AJ7MWBQFNH3E4","3UDTAB6HH6LRO17U79I9TKUGYFV09C","","null","<img src=""img/food1.png"" style=""width:200px; border:14px solid green;"">","null","","","","","","","","","",""
"","image-keyboard-response","83","74643","0.0-123.0","369J354OFEW336EBE692JLMIN8QG6D","AJ7MWBQFNH3E4","3UDTAB6HH6LRO17U79I9TKUGYFV09C","","423.5","img/food1.png","74","425","1","1","false","3","2","1,0.5,0,1,0.5,0,0.5,0,1","0,1,0.5,0,1,0.5,1,0.5,0","3",""
"","html-keyboard-response","84","74949","0.0-124.0","369J354OFEW336EBE692JLMIN8QG6D","AJ7MWBQFNH3E4","3UDTAB6HH6LRO17U79I9TKUGYFV09C","","null","<img src=""img/food1.png"" style=""width:200px; border:14px solid green;"">","null","","","","","","","","","",""
"","image-keyboard-response","85","75348","0.0-126.0","369J354OFEW336EBE692JLMIN8QG6D","AJ7MWBQFNH3E4","3UDTAB6HH6LRO17U79I9TKUGYFV09C","","396.2999999523163","img/food6.png","76","398","3","0","false","1","2","1,0.5,0,1,0.5,0,0.5,0,1","0,1,0.5,0,1,0.5,1,0.5,0","3",""
"","html-keyboard-response","86","75654","0.0-127.0","369J354OFEW336EBE692JLMIN8QG6D","AJ7MWBQFNH3E4","3UDTAB6HH6LRO17U79I9TKUGYFV09C","","null","<img src=""img/food6.png"" style=""width:200px;border:14px solid red;"">","null","","","","","","","","","",""
"","image-keyboard-response","87","76077","0.0-129.0","369J354OFEW336EBE692JLMIN8QG6D","AJ7MWBQFNH3E4","3UDTAB6HH6LRO17U79I9TKUGYFV09C","","420.5","img/food6.png","76","422","3","1","false","1","2","1,0.5,0,1,0.5,0,0.5,0,1","0,1,0.5,0,1,0.5,1,0.5,0","3",""
"","html-keyboard-response","88","76381","0.0-130.0","369J354OFEW336EBE692JLMIN8QG6D","AJ7MWBQFNH3E4","3UDTAB6HH6LRO17U79I9TKUGYFV09C","","null","<img src=""img/food6.png"" style=""width:200px; border:14px solid green;"">","null","","","","","","","","","",""
"","image-keyboard-response","89","76950","0.0-132.0","369J354OFEW336EBE692JLMIN8QG6D","AJ7MWBQFNH3E4","3UDTAB6HH6LRO17U79I9TKUGYFV09C","","567","img/food2.png","75","568.3000000715256","2","1","false","2","2","1,0.5,0,1,0.5,0,0.5,0,1","0,1,0.5,0,1,0.5,1,0.5,0","3",""
"","html-keyboard-response","90","77259","0.0-133.0","369J354OFEW336EBE692JLMIN8QG6D","AJ7MWBQFNH3E4","3UDTAB6HH6LRO17U79I9TKUGYFV09C","","null","<img src=""img/food2.png"" style=""width:200px; border:14px solid green;"">","null","","","","","","","","","",""
"","image-keyboard-response","91","77710","0.0-135.0","369J354OFEW336EBE692JLMIN8QG6D","AJ7MWBQFNH3E4","3UDTAB6HH6LRO17U79I9TKUGYFV09C","","449.10000002384186","img/food6.png","74","451.1999999284744","1","0","false","1","2","1,0.5,0,1,0.5,0,0.5,0,1","0,1,0.5,0,1,0.5,1,0.5,0","3",""
"","html-keyboard-response","92","78013","0.0-136.0","369J354OFEW336EBE692JLMIN8QG6D","AJ7MWBQFNH3E4","3UDTAB6HH6LRO17U79I9TKUGYFV09C","","null","<img src=""img/food6.png"" style=""width:200px;border:14px solid red;"">","null","","","","","","","","","",""
"","image-keyboard-response","93","78479","0.0-138.0","369J354OFEW336EBE692JLMIN8QG6D","AJ7MWBQFNH3E4","3UDTAB6HH6LRO17U79I9TKUGYFV09C","","463.2999999523163","img/food1.png","74","465.1999999284744","1","1","false","3","2","1,0.5,0,1,0.5,0,0.5,0,1","0,1,0.5,0,1,0.5,1,0.5,0","3",""
"","html-keyboard-response","94","78790","0.0-139.0","369J354OFEW336EBE692JLMIN8QG6D","AJ7MWBQFNH3E4","3UDTAB6HH6LRO17U79I9TKUGYFV09C","","null","<img src=""img/food1.png"" style=""width:200px; border:14px solid green;"">","null","","","","","","","","","",""
"","image-keyboard-response","95","79178","0.0-141.0","369J354OFEW336EBE692JLMIN8QG6D","AJ7MWBQFNH3E4","3UDTAB6HH6LRO17U79I9TKUGYFV09C","","386.39999997615814","img/food1.png","74","388","1","1","false","3","2","1,0.5,0,1,0.5,0,0.5,0,1","0,1,0.5,0,1,0.5,1,0.5,0","3",""
"","html-keyboard-response","96","79495","0.0-142.0","369J354OFEW336EBE692JLMIN8QG6D","AJ7MWBQFNH3E4","3UDTAB6HH6LRO17U79I9TKUGYFV09C","","null","<img src=""img/food1.png"" style=""width:200px; border:14px solid green;"">","null","","","","","","","","","",""
"","image-keyboard-response","97","80084","0.0-144.0","369J354OFEW336EBE692JLMIN8QG6D","AJ7MWBQFNH3E4","3UDTAB6HH6LRO17U79I9TKUGYFV09C","","587.1000000238419","img/food6.png","76","588.5","3","0","false","1","2","1,0.5,0,1,0.5,0,0.5,0,1","0,1,0.5,0,1,0.5,1,0.5,0","3",""
"","html-keyboard-response","98","80390","0.0-145.0","369J354OFEW336EBE692JLMIN8QG6D","AJ7MWBQFNH3E4","3UDTAB6HH6LRO17U79I9TKUGYFV09C","","null","<img src=""img/food6.png"" style=""width:200px;border:14px solid red;"">","null","","","","","","","","","",""
"","image-keyboard-response","99","80732","0.0-147.0","369J354OFEW336EBE692JLMIN8QG6D","AJ7MWBQFNH3E4","3UDTAB6HH6LRO17U79I9TKUGYFV09C","","340.5","img/food6.png","76","341.89999997615814","3","0","false","1","2","1,0.5,0,1,0.5,0,0.5,0,1","0,1,0.5,0,1,0.5,1,0.5,0","3",""
"","html-keyboard-response","100","81040","0.0-148.0","369J354OFEW336EBE692JLMIN8QG6D","AJ7MWBQFNH3E4","3UDTAB6HH6LRO17U79I9TKUGYFV09C","","null","<img src=""img/food6.png"" style=""width:200px;border:14px solid red;"">","null","","","","","","","","","",""
"","image-keyboard-response","101","81610","0.0-150.0","369J354OFEW336EBE692JLMIN8QG6D","AJ7MWBQFNH3E4","3UDTAB6HH6LRO17U79I9TKUGYFV09C","","568.7000000476837","img/food1.png","74","570","1","1","false","3","2","1,0.5,0,1,0.5,0,0.5,0,1","0,1,0.5,0,1,0.5,1,0.5,0","3",""
"","html-keyboard-response","102","81916","0.0-151.0","369J354OFEW336EBE692JLMIN8QG6D","AJ7MWBQFNH3E4","3UDTAB6HH6LRO17U79I9TKUGYFV09C","","null","<img src=""img/food1.png"" style=""width:200px; border:14px solid green;"">","null","","","","","","","","","",""
"","image-keyboard-response","103","82540","0.0-153.0","369J354OFEW336EBE692JLMIN8QG6D","AJ7MWBQFNH3E4","3UDTAB6HH6LRO17U79I9TKUGYFV09C","","622.2999999523163","img/food2.png","75","623.5","2","1","false","2","2","1,0.5,0,1,0.5,0,0.5,0,1","0,1,0.5,0,1,0.5,1,0.5,0","3",""
"","html-keyboard-response","104","82853","0.0-154.0","369J354OFEW336EBE692JLMIN8QG6D","AJ7MWBQFNH3E4","3UDTAB6HH6LRO17U79I9TKUGYFV09C","","null","<img src=""img/food2.png"" style=""width:200px; border:14px solid green;"">","null","","","","","","","","","",""
"","image-keyboard-response","105","83374","0.0-156.0","369J354OFEW336EBE692JLMIN8QG6D","AJ7MWBQFNH3E4","3UDTAB6HH6LRO17U79I9TKUGYFV09C","","518.0999999046326","img/food1.png","74","520.2000000476837","1","1","false","3","2","1,0.5,0,1,0.5,0,0.5,0,1","0,1,0.5,0,1,0.5,1,0.5,0","3",""
"","html-keyboard-response","106","83680","0.0-157.0","369J354OFEW336EBE692JLMIN8QG6D","AJ7MWBQFNH3E4","3UDTAB6HH6LRO17U79I9TKUGYFV09C","","null","<img src=""img/food1.png"" style=""width:200px; border:14px solid green;"">","null","","","","","","","","","",""
"","image-keyboard-response","107","84039","0.0-159.0","369J354OFEW336EBE692JLMIN8QG6D","AJ7MWBQFNH3E4","3UDTAB6HH6LRO17U79I9TKUGYFV09C","","356.5","img/food1.png","74","358.10000002384186","1","1","false","3","2","1,0.5,0,1,0.5,0,0.5,0,1","0,1,0.5,0,1,0.5,1,0.5,0","3",""
"","html-keyboard-response","108","84343","0.0-160.0","369J354OFEW336EBE692JLMIN8QG6D","AJ7MWBQFNH3E4","3UDTAB6HH6LRO17U79I9TKUGYFV09C","","null","<img src=""img/food1.png"" style=""width:200px; border:14px solid green;"">","null","","","","","","","","","",""
"","image-keyboard-response","109","84739","0.0-162.0","369J354OFEW336EBE692JLMIN8QG6D","AJ7MWBQFNH3E4","3UDTAB6HH6LRO17U79I9TKUGYFV09C","","393.2999999523163","img/food2.png","75","394.90000009536743","2","1","false","2","2","1,0.5,0,1,0.5,0,0.5,0,1","0,1,0.5,0,1,0.5,1,0.5,0","3",""
"","html-keyboard-response","110","85041","0.0-163.0","369J354OFEW336EBE692JLMIN8QG6D","AJ7MWBQFNH3E4","3UDTAB6HH6LRO17U79I9TKUGYFV09C","","null","<img src=""img/food2.png"" style=""width:200px; border:14px solid green;"">","null","","","","","","","","","",""
"","image-keyboard-response","111","85517","0.0-165.0","369J354OFEW336EBE692JLMIN8QG6D","AJ7MWBQFNH3E4","3UDTAB6HH6LRO17U79I9TKUGYFV09C","","474.09999990463257","img/food6.png","76","475.6999999284744","3","0","false","1","2","1,0.5,0,1,0.5,0,0.5,0,1","0,1,0.5,0,1,0.5,1,0.5,0","3",""
"","html-keyboard-response","112","85827","0.0-166.0","369J354OFEW336EBE692JLMIN8QG6D","AJ7MWBQFNH3E4","3UDTAB6HH6LRO17U79I9TKUGYFV09C","","null","<img src=""img/food6.png"" style=""width:200px;border:14px solid red;"">","null","","","","","","","","","",""
"","image-keyboard-response","113","86292","0.0-168.0","369J354OFEW336EBE692JLMIN8QG6D","AJ7MWBQFNH3E4","3UDTAB6HH6LRO17U79I9TKUGYFV09C","","463.59999990463257","img/food1.png","74","464.89999997615814","1","1","false","3","2","1,0.5,0,1,0.5,0,0.5,0,1","0,1,0.5,0,1,0.5,1,0.5,0","3",""
"","html-keyboard-response","114","86596","0.0-169.0","369J354OFEW336EBE692JLMIN8QG6D","AJ7MWBQFNH3E4","3UDTAB6HH6LRO17U79I9TKUGYFV09C","","null","<img src=""img/food1.png"" style=""width:200px; border:14px solid green;"">","null","","","","","","","","","",""
"","image-keyboard-response","115","86951","0.0-171.0","369J354OFEW336EBE692JLMIN8QG6D","AJ7MWBQFNH3E4","3UDTAB6HH6LRO17U79I9TKUGYFV09C","","352.10000002384186","img/food1.png","74","354.2999999523163","1","1","false","3","2","1,0.5,0,1,0.5,0,0.5,0,1","0,1,0.5,0,1,0.5,1,0.5,0","3",""
"","html-keyboard-response","116","87257","0.0-172.0","369J354OFEW336EBE692JLMIN8QG6D","AJ7MWBQFNH3E4","3UDTAB6HH6LRO17U79I9TKUGYFV09C","","null","<img src=""img/food1.png"" style=""width:200px; border:14px solid green;"">","null","","","","","","","","","",""
"","image-keyboard-response","117","87782","0.0-174.0","369J354OFEW336EBE692JLMIN8QG6D","AJ7MWBQFNH3E4","3UDTAB6HH6LRO17U79I9TKUGYFV09C","","524.2000000476837","img/food2.png","75","525.3999999761581","2","1","false","2","2","1,0.5,0,1,0.5,0,0.5,0,1","0,1,0.5,0,1,0.5,1,0.5,0","3",""
"","html-keyboard-response","118","88085","0.0-175.0","369J354OFEW336EBE692JLMIN8QG6D","AJ7MWBQFNH3E4","3UDTAB6HH6LRO17U79I9TKUGYFV09C","","null","<img src=""img/food2.png"" style=""width:200px; border:14px solid green;"">","null","","","","","","","","","",""
"","image-keyboard-response","119","88539","0.0-177.0","369J354OFEW336EBE692JLMIN8QG6D","AJ7MWBQFNH3E4","3UDTAB6HH6LRO17U79I9TKUGYFV09C","","453","img/food6.png","76","454.40000009536743","3","0","false","1","2","1,0.5,0,1,0.5,0,0.5,0,1","0,1,0.5,0,1,0.5,1,0.5,0","3",""
"","html-keyboard-response","120","88849","0.0-178.0","369J354OFEW336EBE692JLMIN8QG6D","AJ7MWBQFNH3E4","3UDTAB6HH6LRO17U79I9TKUGYFV09C","","null","<img src=""img/food6.png"" style=""width:200px;border:14px solid red;"">","null","","","","","","","","","",""
"","image-keyboard-response","121","89500","0.0-180.0","369J354OFEW336EBE692JLMIN8QG6D","AJ7MWBQFNH3E4","3UDTAB6HH6LRO17U79I9TKUGYFV09C","","648.8999999761581","img/food2.png","75","650.5","2","1","false","2","2","1,0.5,0,1,0.5,0,0.5,0,1","0,1,0.5,0,1,0.5,1,0.5,0","3",""
"","html-keyboard-response","122","89806","0.0-181.0","369J354OFEW336EBE692JLMIN8QG6D","AJ7MWBQFNH3E4","3UDTAB6HH6LRO17U79I9TKUGYFV09C","","null","<img src=""img/food2.png"" style=""width:200px; border:14px solid green;"">","null","","","","","","","","","",""
"","image-keyboard-response","123","90243","0.0-183.0","369J354OFEW336EBE692JLMIN8QG6D","AJ7MWBQFNH3E4","3UDTAB6HH6LRO17U79I9TKUGYFV09C","","435.39999997615814","img/food1.png","74","436.60000002384186","1","1","false","3","2","1,0.5,0,1,0.5,0,0.5,0,1","0,1,0.5,0,1,0.5,1,0.5,0","3",""
"","html-keyboard-response","124","90547","0.0-184.0","369J354OFEW336EBE692JLMIN8QG6D","AJ7MWBQFNH3E4","3UDTAB6HH6LRO17U79I9TKUGYFV09C","","null","<img src=""img/food1.png"" style=""width:200px; border:14px solid green;"">","null","","","","","","","","","",""
"","image-keyboard-response","125","91032","0.0-186.0","369J354OFEW336EBE692JLMIN8QG6D","AJ7MWBQFNH3E4","3UDTAB6HH6LRO17U79I9TKUGYFV09C","","483.59999990463257","img/food6.png","76","485","3","1","false","1","2","1,0.5,0,1,0.5,0,0.5,0,1","0,1,0.5,0,1,0.5,1,0.5,0","3",""
"","html-keyboard-response","126","91342","0.0-187.0","369J354OFEW336EBE692JLMIN8QG6D","AJ7MWBQFNH3E4","3UDTAB6HH6LRO17U79I9TKUGYFV09C","","null","<img src=""img/food6.png"" style=""width:200px; border:14px solid green;"">","null","","","","","","","","","",""
"","image-keyboard-response","127","91822","0.0-189.0","369J354OFEW336EBE692JLMIN8QG6D","AJ7MWBQFNH3E4","3UDTAB6HH6LRO17U79I9TKUGYFV09C","","478.7999999523163","img/food1.png","74","480.09999990463257","1","1","false","3","2","1,0.5,0,1,0.5,0,0.5,0,1","0,1,0.5,0,1,0.5,1,0.5,0","3",""
"","html-keyboard-response","128","92127","0.0-190.0","369J354OFEW336EBE692JLMIN8QG6D","AJ7MWBQFNH3E4","3UDTAB6HH6LRO17U79I9TKUGYFV09C","","null","<img src=""img/food1.png"" style=""width:200px; border:14px solid green;"">","null","","","","","","","","","",""
"","image-keyboard-response","129","92515","0.0-192.0","369J354OFEW336EBE692JLMIN8QG6D","AJ7MWBQFNH3E4","3UDTAB6HH6LRO17U79I9TKUGYFV09C","","385.59999990463257","img/food6.png","76","386.89999997615814","3","0","false","1","2","1,0.5,0,1,0.5,0,0.5,0,1","0,1,0.5,0,1,0.5,1,0.5,0","3",""
"","html-keyboard-response","130","92820","0.0-193.0","369J354OFEW336EBE692JLMIN8QG6D","AJ7MWBQFNH3E4","3UDTAB6HH6LRO17U79I9TKUGYFV09C","","null","<img src=""img/food6.png"" style=""width:200px;border:14px solid red;"">","null","","","","","","","","","",""
"","image-keyboard-response","131","93309","0.0-195.0","369J354OFEW336EBE692JLMIN8QG6D","AJ7MWBQFNH3E4","3UDTAB6HH6LRO17U79I9TKUGYFV09C","","487.39999997615814","img/food1.png","74","488.89999997615814","1","1","false","3","2","1,0.5,0,1,0.5,0,0.5,0,1","0,1,0.5,0,1,0.5,1,0.5,0","3",""
"","html-keyboard-response","132","93615","0.0-196.0","369J354OFEW336EBE692JLMIN8QG6D","AJ7MWBQFNH3E4","3UDTAB6HH6LRO17U79I9TKUGYFV09C","","null","<img src=""img/food1.png"" style=""width:200px; border:14px solid green;"">","null","","","","","","","","","",""
"","image-keyboard-response","133","94065","0.0-198.0","369J354OFEW336EBE692JLMIN8QG6D","AJ7MWBQFNH3E4","3UDTAB6HH6LRO17U79I9TKUGYFV09C","","447.89999997615814","img/food2.png","75","449.40000009536743","2","1","false","2","2","1,0.5,0,1,0.5,0,0.5,0,1","0,1,0.5,0,1,0.5,1,0.5,0","3",""
"","html-keyboard-response","134","94375","0.0-199.0","369J354OFEW336EBE692JLMIN8QG6D","AJ7MWBQFNH3E4","3UDTAB6HH6LRO17U79I9TKUGYFV09C","","null","<img src=""img/food2.png"" style=""width:200px; border:14px solid green;"">","null","","","","","","","","","",""
"","image-keyboard-response","135","94774","0.0-201.0","369J354OFEW336EBE692JLMIN8QG6D","AJ7MWBQFNH3E4","3UDTAB6HH6LRO17U79I9TKUGYFV09C","","396.7000000476837","img/food6.png","76","398.5","3","1","false","1","2","1,0.5,0,1,0.5,0,0.5,0,1","0,1,0.5,0,1,0.5,1,0.5,0","3",""
"","html-keyboard-response","136","95076","0.0-202.0","369J354OFEW336EBE692JLMIN8QG6D","AJ7MWBQFNH3E4","3UDTAB6HH6LRO17U79I9TKUGYFV09C","","null","<img src=""img/food6.png"" style=""width:200px; border:14px solid green;"">","null","","","","","","","","","",""
"","image-keyboard-response","137","95497","0.0-204.0","369J354OFEW336EBE692JLMIN8QG6D","AJ7MWBQFNH3E4","3UDTAB6HH6LRO17U79I9TKUGYFV09C","","418.89999997615814","img/food6.png","76","420.39999997615814","3","0","false","1","2","1,0.5,0,1,0.5,0,0.5,0,1","0,1,0.5,0,1,0.5,1,0.5,0","3",""
"","html-keyboard-response","138","95807","0.0-205.0","369J354OFEW336EBE692JLMIN8QG6D","AJ7MWBQFNH3E4","3UDTAB6HH6LRO17U79I9TKUGYFV09C","","null","<img src=""img/food6.png"" style=""width:200px;border:14px solid red;"">","null","","","","","","","","","",""
"","image-keyboard-response","139","96272","0.0-207.0","369J354OFEW336EBE692JLMIN8QG6D","AJ7MWBQFNH3E4","3UDTAB6HH6LRO17U79I9TKUGYFV09C","","463.2999999523163","img/food2.png","75","464.5","2","1","false","2","2","1,0.5,0,1,0.5,0,0.5,0,1","0,1,0.5,0,1,0.5,1,0.5,0","3",""
"","html-keyboard-response","140","96580","0.0-208.0","369J354OFEW336EBE692JLMIN8QG6D","AJ7MWBQFNH3E4","3UDTAB6HH6LRO17U79I9TKUGYFV09C","","null","<img src=""img/food2.png"" style=""width:200px; border:14px solid green;"">","null","","","","","","","","","",""
"","image-keyboard-response","141","97181","0.0-210.0","369J354OFEW336EBE692JLMIN8QG6D","AJ7MWBQFNH3E4","3UDTAB6HH6LRO17U79I9TKUGYFV09C","","599.1000000238419","img/food6.png","76","600.2999999523163","3","1","false","1","2","1,0.5,0,1,0.5,0,0.5,0,1","0,1,0.5,0,1,0.5,1,0.5,0","3",""
"","html-keyboard-response","142","97483","0.0-211.0","369J354OFEW336EBE692JLMIN8QG6D","AJ7MWBQFNH3E4","3UDTAB6HH6LRO17U79I9TKUGYFV09C","","null","<img src=""img/food6.png"" style=""width:200px; border:14px solid green;"">","null","","","","","","","","","",""
"","image-keyboard-response","143","98080","0.0-213.0","369J354OFEW336EBE692JLMIN8QG6D","AJ7MWBQFNH3E4","3UDTAB6HH6LRO17U79I9TKUGYFV09C","","594.5","img/food1.png","74","596.2999999523163","1","1","false","3","2","1,0.5,0,1,0.5,0,0.5,0,1","0,1,0.5,0,1,0.5,1,0.5,0","3",""
"","html-keyboard-response","144","98390","0.0-214.0","369J354OFEW336EBE692JLMIN8QG6D","AJ7MWBQFNH3E4","3UDTAB6HH6LRO17U79I9TKUGYFV09C","","null","<img src=""img/food1.png"" style=""width:200px; border:14px solid green;"">","null","","","","","","","","","",""
"","image-keyboard-response","145","98879","0.0-216.0","369J354OFEW336EBE692JLMIN8QG6D","AJ7MWBQFNH3E4","3UDTAB6HH6LRO17U79I9TKUGYFV09C","","486.89999997615814","img/food6.png","76","488.2000000476837","3","1","false","1","2","1,0.5,0,1,0.5,0,0.5,0,1","0,1,0.5,0,1,0.5,1,0.5,0","3",""
"","html-keyboard-response","146","99184","0.0-217.0","369J354OFEW336EBE692JLMIN8QG6D","AJ7MWBQFNH3E4","3UDTAB6HH6LRO17U79I9TKUGYFV09C","","null","<img src=""img/food6.png"" style=""width:200px; border:14px solid green;"">","null","","","","","","","","","",""
"","image-keyboard-response","147","99664","0.0-219.0","369J354OFEW336EBE692JLMIN8QG6D","AJ7MWBQFNH3E4","3UDTAB6HH6LRO17U79I9TKUGYFV09C","","478.7999999523163","img/food1.png","74","480.2000000476837","1","1","false","3","2","1,0.5,0,1,0.5,0,0.5,0,1","0,1,0.5,0,1,0.5,1,0.5,0","3",""
"","html-keyboard-response","148","99967","0.0-220.0","369J354OFEW336EBE692JLMIN8QG6D","AJ7MWBQFNH3E4","3UDTAB6HH6LRO17U79I9TKUGYFV09C","","null","<img src=""img/food1.png"" style=""width:200px; border:14px solid green;"">","null","","","","","","","","","",""
"","image-keyboard-response","149","100373","0.0-222.0","369J354OFEW336EBE692JLMIN8QG6D","AJ7MWBQFNH3E4","3UDTAB6HH6LRO17U79I9TKUGYFV09C","","404.5","img/food2.png","75","406.10000002384186","2","1","false","2","2","1,0.5,0,1,0.5,0,0.5,0,1","0,1,0.5,0,1,0.5,1,0.5,0","3",""
"","html-keyboard-response","150","100681","0.0-223.0","369J354OFEW336EBE692JLMIN8QG6D","AJ7MWBQFNH3E4","3UDTAB6HH6LRO17U79I9TKUGYFV09C","","null","<img src=""img/food2.png"" style=""width:200px; border:14px solid green;"">","null","","","","","","","","","",""
"","image-keyboard-response","151","101093","0.0-225.0","369J354OFEW336EBE692JLMIN8QG6D","AJ7MWBQFNH3E4","3UDTAB6HH6LRO17U79I9TKUGYFV09C","","409.40000009536743","img/food2.png","75","411","2","1","false","2","2","1,0.5,0,1,0.5,0,0.5,0,1","0,1,0.5,0,1,0.5,1,0.5,0","3",""
"","html-keyboard-response","152","101401","0.0-226.0","369J354OFEW336EBE692JLMIN8QG6D","AJ7MWBQFNH3E4","3UDTAB6HH6LRO17U79I9TKUGYFV09C","","null","<img src=""img/food2.png"" style=""width:200px; border:14px solid green;"">","null","","","","","","","","","",""
"","image-keyboard-response","153","101886","0.0-228.0","369J354OFEW336EBE692JLMIN8QG6D","AJ7MWBQFNH3E4","3UDTAB6HH6LRO17U79I9TKUGYFV09C","","482.60000002384186","img/food1.png","74","484.1999999284744","1","1","false","3","2","1,0.5,0,1,0.5,0,0.5,0,1","0,1,0.5,0,1,0.5,1,0.5,0","3",""
"","html-keyboard-response","154","102194","0.0-229.0","369J354OFEW336EBE692JLMIN8QG6D","AJ7MWBQFNH3E4","3UDTAB6HH6LRO17U79I9TKUGYFV09C","","null","<img src=""img/food1.png"" style=""width:200px; border:14px solid green;"">","null","","","","","","","","","",""
"","image-keyboard-response","155","102645","0.0-231.0","369J354OFEW336EBE692JLMIN8QG6D","AJ7MWBQFNH3E4","3UDTAB6HH6LRO17U79I9TKUGYFV09C","","449.7000000476837","img/food2.png","75","450.89999997615814","2","1","false","2","2","1,0.5,0,1,0.5,0,0.5,0,1","0,1,0.5,0,1,0.5,1,0.5,0","3",""
"","html-keyboard-response","156","102950","0.0-232.0","369J354OFEW336EBE692JLMIN8QG6D","AJ7MWBQFNH3E4","3UDTAB6HH6LRO17U79I9TKUGYFV09C","","null","<img src=""img/food2.png"" style=""width:200px; border:14px solid green;"">","null","","","","","","","","","",""
"","image-keyboard-response","157","103450","0.0-234.0","369J354OFEW336EBE692JLMIN8QG6D","AJ7MWBQFNH3E4","3UDTAB6HH6LRO17U79I9TKUGYFV09C","","494.2000000476837","img/food2.png","75","499.5","2","1","false","2","2","1,0.5,0,1,0.5,0,0.5,0,1","0,1,0.5,0,1,0.5,1,0.5,0","3",""
"","html-keyboard-response","158","103755","0.0-235.0","369J354OFEW336EBE692JLMIN8QG6D","AJ7MWBQFNH3E4","3UDTAB6HH6LRO17U79I9TKUGYFV09C","","null","<img src=""img/food2.png"" style=""width:200px; border:14px solid green;"">","null","","","","","","","","","",""
"","image-keyboard-response","159","104230","0.0-237.0","369J354OFEW336EBE692JLMIN8QG6D","AJ7MWBQFNH3E4","3UDTAB6HH6LRO17U79I9TKUGYFV09C","","467.89999997615814","img/food6.png","76","473.2000000476837","3","0","false","1","2","1,0.5,0,1,0.5,0,0.5,0,1","0,1,0.5,0,1,0.5,1,0.5,0","3",""
"","html-keyboard-response","160","104538","0.0-238.0","369J354OFEW336EBE692JLMIN8QG6D","AJ7MWBQFNH3E4","3UDTAB6HH6LRO17U79I9TKUGYFV09C","","null","<img src=""img/food6.png"" style=""width:200px;border:14px solid red;"">","null","","","","","","","","","",""
"","image-keyboard-response","161","104928","0.0-240.0","369J354OFEW336EBE692JLMIN8QG6D","AJ7MWBQFNH3E4","3UDTAB6HH6LRO17U79I9TKUGYFV09C","","388.10000002384186","img/food6.png","76","389.3000000715256","3","0","false","1","2","1,0.5,0,1,0.5,0,0.5,0,1","0,1,0.5,0,1,0.5,1,0.5,0","3",""
"","html-keyboard-response","162","105239","0.0-241.0","369J354OFEW336EBE692JLMIN8QG6D","AJ7MWBQFNH3E4","3UDTAB6HH6LRO17U79I9TKUGYFV09C","","null","<img src=""img/food6.png"" style=""width:200px;border:14px solid red;"">","null","","","","","","","","","",""
"","image-keyboard-response","163","105623","0.0-243.0","369J354OFEW336EBE692JLMIN8QG6D","AJ7MWBQFNH3E4","3UDTAB6HH6LRO17U79I9TKUGYFV09C","","382.2000000476837","img/food1.png","74","383.89999997615814","1","1","false","3","2","1,0.5,0,1,0.5,0,0.5,0,1","0,1,0.5,0,1,0.5,1,0.5,0","3",""
"","html-keyboard-response","164","105933","0.0-244.0","369J354OFEW336EBE692JLMIN8QG6D","AJ7MWBQFNH3E4","3UDTAB6HH6LRO17U79I9TKUGYFV09C","","null","<img src=""img/food1.png"" style=""width:200px; border:14px solid green;"">","null","","","","","","","","","",""
"","image-keyboard-response","165","106376","0.0-246.0","369J354OFEW336EBE692JLMIN8QG6D","AJ7MWBQFNH3E4","3UDTAB6HH6LRO17U79I9TKUGYFV09C","","441","img/food2.png","75","442.39999997615814","2","1","false","2","2","1,0.5,0,1,0.5,0,0.5,0,1","0,1,0.5,0,1,0.5,1,0.5,0","3",""
"","html-keyboard-response","166","106687","0.0-247.0","369J354OFEW336EBE692JLMIN8QG6D","AJ7MWBQFNH3E4","3UDTAB6HH6LRO17U79I9TKUGYFV09C","","null","<img src=""img/food2.png"" style=""width:200px; border:14px solid green;"">","null","","","","","","","","","",""
"","image-keyboard-response","167","107142","0.0-249.0","369J354OFEW336EBE692JLMIN8QG6D","AJ7MWBQFNH3E4","3UDTAB6HH6LRO17U79I9TKUGYFV09C","","453.60000002384186","img/food2.png","75","455","2","1","false","2","2","1,0.5,0,1,0.5,0,0.5,0,1","0,1,0.5,0,1,0.5,1,0.5,0","3",""
"","html-keyboard-response","168","107455","0.0-250.0","369J354OFEW336EBE692JLMIN8QG6D","AJ7MWBQFNH3E4","3UDTAB6HH6LRO17U79I9TKUGYFV09C","","null","<img src=""img/food2.png"" style=""width:200px; border:14px solid green;"">","null","","","","","","","","","",""
"","image-keyboard-response","169","107935","0.0-252.0","369J354OFEW336EBE692JLMIN8QG6D","AJ7MWBQFNH3E4","3UDTAB6HH6LRO17U79I9TKUGYFV09C","","477.2000000476837","img/food6.png","76","479.1999999284744","3","0","false","1","2","1,0.5,0,1,0.5,0,0.5,0,1","0,1,0.5,0,1,0.5,1,0.5,0","3",""
"","html-keyboard-response","170","108238","0.0-253.0","369J354OFEW336EBE692JLMIN8QG6D","AJ7MWBQFNH3E4","3UDTAB6HH6LRO17U79I9TKUGYFV09C","","null","<img src=""img/food6.png"" style=""width:200px;border:14px solid red;"">","null","","","","","","","","","",""
"","image-keyboard-response","171","108655","0.0-255.0","369J354OFEW336EBE692JLMIN8QG6D","AJ7MWBQFNH3E4","3UDTAB6HH6LRO17U79I9TKUGYFV09C","","414.6999999284744","img/food6.png","76","416.2000000476837","3","0","false","1","2","1,0.5,0,1,0.5,0,0.5,0,1","0,1,0.5,0,1,0.5,1,0.5,0","3",""
"","html-keyboard-response","172","108964","0.0-256.0","369J354OFEW336EBE692JLMIN8QG6D","AJ7MWBQFNH3E4","3UDTAB6HH6LRO17U79I9TKUGYFV09C","","null","<img src=""img/food6.png"" style=""width:200px;border:14px solid red;"">","null","","","","","","","","","",""
"","image-keyboard-response","173","109374","0.0-258.0","369J354OFEW336EBE692JLMIN8QG6D","AJ7MWBQFNH3E4","3UDTAB6HH6LRO17U79I9TKUGYFV09C","","408.2999999523163","img/food1.png","74","409.7999999523163","1","1","false","3","2","1,0.5,0,1,0.5,0,0.5,0,1","0,1,0.5,0,1,0.5,1,0.5,0","3",""
"","html-keyboard-response","174","109688","0.0-259.0","369J354OFEW336EBE692JLMIN8QG6D","AJ7MWBQFNH3E4","3UDTAB6HH6LRO17U79I9TKUGYFV09C","","null","<img src=""img/food1.png"" style=""width:200px; border:14px solid green;"">","null","","","","","","","","","",""
"","image-keyboard-response","175","110089","0.0-261.0","369J354OFEW336EBE692JLMIN8QG6D","AJ7MWBQFNH3E4","3UDTAB6HH6LRO17U79I9TKUGYFV09C","","398.7999999523163","img/food1.png","74","400.3000000715256","1","1","false","3","2","1,0.5,0,1,0.5,0,0.5,0,1","0,1,0.5,0,1,0.5,1,0.5,0","3",""
"","html-keyboard-response","176","110397","0.0-262.0","369J354OFEW336EBE692JLMIN8QG6D","AJ7MWBQFNH3E4","3UDTAB6HH6LRO17U79I9TKUGYFV09C","","null","<img src=""img/food1.png"" style=""width:200px; border:14px solid green;"">","null","","","","","","","","","",""
"","image-keyboard-response","177","110763","0.0-264.0","369J354OFEW336EBE692JLMIN8QG6D","AJ7MWBQFNH3E4","3UDTAB6HH6LRO17U79I9TKUGYFV09C","","364.2999999523163","img/food6.png","75","365.7000000476837","2","1","false","1","2","1,0.5,0,1,0.5,0,0.5,0,1","0,1,0.5,0,1,0.5,1,0.5,0","3",""
"","html-keyboard-response","178","111070","0.0-265.0","369J354OFEW336EBE692JLMIN8QG6D","AJ7MWBQFNH3E4","3UDTAB6HH6LRO17U79I9TKUGYFV09C","","null","<img src=""img/food6.png"" style=""width:200px; border:14px solid green;"">","null","","","","","","","","","",""
"","image-keyboard-response","179","111587","0.0-267.0","369J354OFEW336EBE692JLMIN8QG6D","AJ7MWBQFNH3E4","3UDTAB6HH6LRO17U79I9TKUGYFV09C","","514.6000000238419","img/food2.png","75","516.5","2","1","false","2","2","1,0.5,0,1,0.5,0,0.5,0,1","0,1,0.5,0,1,0.5,1,0.5,0","3",""
"","html-keyboard-response","180","111894","0.0-268.0","369J354OFEW336EBE692JLMIN8QG6D","AJ7MWBQFNH3E4","3UDTAB6HH6LRO17U79I9TKUGYFV09C","","null","<img src=""img/food2.png"" style=""width:200px; border:14px solid green;"">","null","","","","","","","","","",""
"","image-keyboard-response","181","112378","0.0-270.0","369J354OFEW336EBE692JLMIN8QG6D","AJ7MWBQFNH3E4","3UDTAB6HH6LRO17U79I9TKUGYFV09C","","479.59999990463257","img/food6.png","76","481.40000009536743","3","1","false","1","2","1,0.5,0,1,0.5,0,0.5,0,1","0,1,0.5,0,1,0.5,1,0.5,0","3",""
"","html-keyboard-response","182","112689","0.0-271.0","369J354OFEW336EBE692JLMIN8QG6D","AJ7MWBQFNH3E4","3UDTAB6HH6LRO17U79I9TKUGYFV09C","","null","<img src=""img/food6.png"" style=""width:200px; border:14px solid green;"">","null","","","","","","","","","",""
"","instructions","183","119065","0.0-273.0","369J354OFEW336EBE692JLMIN8QG6D","AJ7MWBQFNH3E4","3UDTAB6HH6LRO17U79I9TKUGYFV09C","[{""page_index"":0,""viewing_time"":4598.200000047684},{""page_index"":1,""viewing_time"":1770.5}]","6369.100000023842","","","","","","","","","","","",""
"","image-keyboard-response","184","119675","0.0-274.0","369J354OFEW336EBE692JLMIN8QG6D","AJ7MWBQFNH3E4","3UDTAB6HH6LRO17U79I9TKUGYFV09C","","606.8000000715256","img/food4.png","74","609.3999999761581","1","0","","1","1","1,0.5,0,1,0.5,0,0.5,0,1","0.5,0,1,0.5,0,1,0,1,0.5","2",""
"","html-keyboard-response","185","119990","0.0-275.0","369J354OFEW336EBE692JLMIN8QG6D","AJ7MWBQFNH3E4","3UDTAB6HH6LRO17U79I9TKUGYFV09C","","null","<img src=""img/food4.png"" style=""width:200px;border:14px solid red;"">","null","","","","","","","","","",""
"","image-keyboard-response","186","120933","0.0-276.0","369J354OFEW336EBE692JLMIN8QG6D","AJ7MWBQFNH3E4","3UDTAB6HH6LRO17U79I9TKUGYFV09C","","940.5","img/food3.png","75","941.8999999761581","2","1","","3","1","1,0.5,0,1,0.5,0,0.5,0,1","0.5,0,1,0.5,0,1,0,1,0.5","2",""
"","html-keyboard-response","187","121244","0.0-277.0","369J354OFEW336EBE692JLMIN8QG6D","AJ7MWBQFNH3E4","3UDTAB6HH6LRO17U79I9TKUGYFV09C","","null","<img src=""img/food3.png"" style=""width:200px; border:14px solid green;"">","null","","","","","","","","","",""
"","image-keyboard-response","188","122083","0.0-278.0","369J354OFEW336EBE692JLMIN8QG6D","AJ7MWBQFNH3E4","3UDTAB6HH6LRO17U79I9TKUGYFV09C","","836.8000000715256","img/food4.png","76","838.5","3","1","","1","1","1,0.5,0,1,0.5,0,0.5,0,1","0.5,0,1,0.5,0,1,0,1,0.5","2",""
"","html-keyboard-response","189","122391","0.0-279.0","369J354OFEW336EBE692JLMIN8QG6D","AJ7MWBQFNH3E4","3UDTAB6HH6LRO17U79I9TKUGYFV09C","","null","<img src=""img/food4.png"" style=""width:200px; border:14px solid green;"">","null","","","","","","","","","",""
"","image-keyboard-response","190","123001","0.0-280.0","369J354OFEW336EBE692JLMIN8QG6D","AJ7MWBQFNH3E4","3UDTAB6HH6LRO17U79I9TKUGYFV09C","","608.1999999284744","img/food3.png","75","609.7000000476837","2","1","","3","1","1,0.5,0,1,0.5,0,0.5,0,1","0.5,0,1,0.5,0,1,0,1,0.5","2",""
"","html-keyboard-response","191","123311","0.0-281.0","369J354OFEW336EBE692JLMIN8QG6D","AJ7MWBQFNH3E4","3UDTAB6HH6LRO17U79I9TKUGYFV09C","","null","<img src=""img/food3.png"" style=""width:200px; border:14px solid green;"">","null","","","","","","","","","",""
"","image-keyboard-response","192","123747","0.0-282.0","369J354OFEW336EBE692JLMIN8QG6D","AJ7MWBQFNH3E4","3UDTAB6HH6LRO17U79I9TKUGYFV09C","","434.89999997615814","img/food4.png","76","436.39999997615814","3","1","","1","1","1,0.5,0,1,0.5,0,0.5,0,1","0.5,0,1,0.5,0,1,0,1,0.5","2",""
"","html-keyboard-response","193","124056","0.0-283.0","369J354OFEW336EBE692JLMIN8QG6D","AJ7MWBQFNH3E4","3UDTAB6HH6LRO17U79I9TKUGYFV09C","","null","<img src=""img/food4.png"" style=""width:200px; border:14px solid green;"">","null","","","","","","","","","",""
"","image-keyboard-response","194","124490","0.0-284.0","369J354OFEW336EBE692JLMIN8QG6D","AJ7MWBQFNH3E4","3UDTAB6HH6LRO17U79I9TKUGYFV09C","","431.39999997615814","img/food3.png","75","433","2","1","","3","1","1,0.5,0,1,0.5,0,0.5,0,1","0.5,0,1,0.5,0,1,0,1,0.5","2",""
"","html-keyboard-response","195","124803","0.0-285.0","369J354OFEW336EBE692JLMIN8QG6D","AJ7MWBQFNH3E4","3UDTAB6HH6LRO17U79I9TKUGYFV09C","","null","<img src=""img/food3.png"" style=""width:200px; border:14px solid green;"">","null","","","","","","","","","",""
"","image-keyboard-response","196","125329","0.0-286.0","369J354OFEW336EBE692JLMIN8QG6D","AJ7MWBQFNH3E4","3UDTAB6HH6LRO17U79I9TKUGYFV09C","","524","img/food5.png","74","525.9000000953674","1","0","","2","1","1,0.5,0,1,0.5,0,0.5,0,1","0.5,0,1,0.5,0,1,0,1,0.5","2",""
"","html-keyboard-response","197","125636","0.0-287.0","369J354OFEW336EBE692JLMIN8QG6D","AJ7MWBQFNH3E4","3UDTAB6HH6LRO17U79I9TKUGYFV09C","","null","<img src=""img/food5.png"" style=""width:200px;border:14px solid red;"">","null","","","","","","","","","",""
"","image-keyboard-response","198","126137","0.0-288.0","369J354OFEW336EBE692JLMIN8QG6D","AJ7MWBQFNH3E4","3UDTAB6HH6LRO17U79I9TKUGYFV09C","","498.6999999284744","img/food5.png","74","500.2000000476837","1","1","","2","1","1,0.5,0,1,0.5,0,0.5,0,1","0.5,0,1,0.5,0,1,0,1,0.5","2",""
"","html-keyboard-response","199","126442","0.0-289.0","369J354OFEW336EBE692JLMIN8QG6D","AJ7MWBQFNH3E4","3UDTAB6HH6LRO17U79I9TKUGYFV09C","","null","<img src=""img/food5.png"" style=""width:200px; border:14px solid green;"">","null","","","","","","","","","",""
"","image-keyboard-response","200","127392","0.0-290.0","369J354OFEW336EBE692JLMIN8QG6D","AJ7MWBQFNH3E4","3UDTAB6HH6LRO17U79I9TKUGYFV09C","","948.7999999523163","img/food4.png","76","950.3999999761581","3","1","","1","1","1,0.5,0,1,0.5,0,0.5,0,1","0.5,0,1,0.5,0,1,0,1,0.5","2",""
"","html-keyboard-response","201","127695","0.0-291.0","369J354OFEW336EBE692JLMIN8QG6D","AJ7MWBQFNH3E4","3UDTAB6HH6LRO17U79I9TKUGYFV09C","","null","<img src=""img/food4.png"" style=""width:200px; border:14px solid green;"">","null","","","","","","","","","",""
"","image-keyboard-response","202","128161","0.0-292.0","369J354OFEW336EBE692JLMIN8QG6D","AJ7MWBQFNH3E4","3UDTAB6HH6LRO17U79I9TKUGYFV09C","","464.5","img/food4.png","76","465.89999997615814","3","1","","1","1","1,0.5,0,1,0.5,0,0.5,0,1","0.5,0,1,0.5,0,1,0,1,0.5","2",""
"","html-keyboard-response","203","128469","0.0-293.0","369J354OFEW336EBE692JLMIN8QG6D","AJ7MWBQFNH3E4","3UDTAB6HH6LRO17U79I9TKUGYFV09C","","null","<img src=""img/food4.png"" style=""width:200px; border:14px solid green;"">","null","","","","","","","","","",""
"","image-keyboard-response","204","128829","0.0-294.0","369J354OFEW336EBE692JLMIN8QG6D","AJ7MWBQFNH3E4","3UDTAB6HH6LRO17U79I9TKUGYFV09C","","358.89999997615814","img/food3.png","75","360.2999999523163","2","1","","3","1","1,0.5,0,1,0.5,0,0.5,0,1","0.5,0,1,0.5,0,1,0,1,0.5","2",""
"","html-keyboard-response","205","129136","0.0-295.0","369J354OFEW336EBE692JLMIN8QG6D","AJ7MWBQFNH3E4","3UDTAB6HH6LRO17U79I9TKUGYFV09C","","null","<img src=""img/food3.png"" style=""width:200px; border:14px solid green;"">","null","","","","","","","","","",""
"","image-keyboard-response","206","129616","0.0-296.0","369J354OFEW336EBE692JLMIN8QG6D","AJ7MWBQFNH3E4","3UDTAB6HH6LRO17U79I9TKUGYFV09C","","476","img/food5.png","74","478.90000009536743","1","1","","2","1","1,0.5,0,1,0.5,0,0.5,0,1","0.5,0,1,0.5,0,1,0,1,0.5","2",""
"","html-keyboard-response","207","129924","0.0-297.0","369J354OFEW336EBE692JLMIN8QG6D","AJ7MWBQFNH3E4","3UDTAB6HH6LRO17U79I9TKUGYFV09C","","null","<img src=""img/food5.png"" style=""width:200px; border:14px solid green;"">","null","","","","","","","","","",""
"","image-keyboard-response","208","130842","0.0-298.0","369J354OFEW336EBE692JLMIN8QG6D","AJ7MWBQFNH3E4","3UDTAB6HH6LRO17U79I9TKUGYFV09C","","916.4000000953674","img/food3.png","75","917.6999999284744","2","1","","3","1","1,0.5,0,1,0.5,0,0.5,0,1","0.5,0,1,0.5,0,1,0,1,0.5","2",""
"","html-keyboard-response","209","131153","0.0-299.0","369J354OFEW336EBE692JLMIN8QG6D","AJ7MWBQFNH3E4","3UDTAB6HH6LRO17U79I9TKUGYFV09C","","null","<img src=""img/food3.png"" style=""width:200px; border:14px solid green;"">","null","","","","","","","","","",""
"","image-keyboard-response","210","131553","0.0-300.0","369J354OFEW336EBE692JLMIN8QG6D","AJ7MWBQFNH3E4","3UDTAB6HH6LRO17U79I9TKUGYFV09C","","397.89999997615814","img/food3.png","75","399.2999999523163","2","1","","3","1","1,0.5,0,1,0.5,0,0.5,0,1","0.5,0,1,0.5,0,1,0,1,0.5","2",""
"","html-keyboard-response","211","131858","0.0-301.0","369J354OFEW336EBE692JLMIN8QG6D","AJ7MWBQFNH3E4","3UDTAB6HH6LRO17U79I9TKUGYFV09C","","null","<img src=""img/food3.png"" style=""width:200px; border:14px solid green;"">","null","","","","","","","","","",""
"","image-keyboard-response","212","132222","0.0-302.0","369J354OFEW336EBE692JLMIN8QG6D","AJ7MWBQFNH3E4","3UDTAB6HH6LRO17U79I9TKUGYFV09C","","362.3000000715256","img/food3.png","75","363.5","2","1","","3","1","1,0.5,0,1,0.5,0,0.5,0,1","0.5,0,1,0.5,0,1,0,1,0.5","2",""
"","html-keyboard-response","213","132525","0.0-303.0","369J354OFEW336EBE692JLMIN8QG6D","AJ7MWBQFNH3E4","3UDTAB6HH6LRO17U79I9TKUGYFV09C","","null","<img src=""img/food3.png"" style=""width:200px; border:14px solid green;"">","null","","","","","","","","","",""
"","image-keyboard-response","214","132936","0.0-304.0","369J354OFEW336EBE692JLMIN8QG6D","AJ7MWBQFNH3E4","3UDTAB6HH6LRO17U79I9TKUGYFV09C","","409","img/food3.png","75","410.7000000476837","2","1","","3","1","1,0.5,0,1,0.5,0,0.5,0,1","0.5,0,1,0.5,0,1,0,1,0.5","2",""
"","html-keyboard-response","215","133243","0.0-305.0","369J354OFEW336EBE692JLMIN8QG6D","AJ7MWBQFNH3E4","3UDTAB6HH6LRO17U79I9TKUGYFV09C","","null","<img src=""img/food3.png"" style=""width:200px; border:14px solid green;"">","null","","","","","","","","","",""
"","image-keyboard-response","216","133860","0.0-306.0","369J354OFEW336EBE692JLMIN8QG6D","AJ7MWBQFNH3E4","3UDTAB6HH6LRO17U79I9TKUGYFV09C","","614.8000000715256","img/food5.png","74","616.5","1","0","","2","1","1,0.5,0,1,0.5,0,0.5,0,1","0.5,0,1,0.5,0,1,0,1,0.5","2",""
"","html-keyboard-response","217","134163","0.0-307.0","369J354OFEW336EBE692JLMIN8QG6D","AJ7MWBQFNH3E4","3UDTAB6HH6LRO17U79I9TKUGYFV09C","","null","<img src=""img/food5.png"" style=""width:200px;border:14px solid red;"">","null","","","","","","","","","",""
"","image-keyboard-response","218","134664","0.0-308.0","369J354OFEW336EBE692JLMIN8QG6D","AJ7MWBQFNH3E4","3UDTAB6HH6LRO17U79I9TKUGYFV09C","","498.7999999523163","img/food3.png","76","500","3","0","","3","1","1,0.5,0,1,0.5,0,0.5,0,1","0.5,0,1,0.5,0,1,0,1,0.5","2",""
"","html-keyboard-response","219","134968","0.0-309.0","369J354OFEW336EBE692JLMIN8QG6D","AJ7MWBQFNH3E4","3UDTAB6HH6LRO17U79I9TKUGYFV09C","","null","<img src=""img/food3.png"" style=""width:200px;border:14px solid red;"">","null","","","","","","","","","",""
"","image-keyboard-response","220","135499","0.0-310.0","369J354OFEW336EBE692JLMIN8QG6D","AJ7MWBQFNH3E4","3UDTAB6HH6LRO17U79I9TKUGYFV09C","","527","img/food5.png","74","530","1","1","","2","1","1,0.5,0,1,0.5,0,0.5,0,1","0.5,0,1,0.5,0,1,0,1,0.5","2",""
"","html-keyboard-response","221","135808","0.0-311.0","369J354OFEW336EBE692JLMIN8QG6D","AJ7MWBQFNH3E4","3UDTAB6HH6LRO17U79I9TKUGYFV09C","","null","<img src=""img/food5.png"" style=""width:200px; border:14px solid green;"">","null","","","","","","","","","",""
"","image-keyboard-response","222","136198","0.0-312.0","369J354OFEW336EBE692JLMIN8QG6D","AJ7MWBQFNH3E4","3UDTAB6HH6LRO17U79I9TKUGYFV09C","","387.60000002384186","img/food5.png","74","389","1","0","","2","1","1,0.5,0,1,0.5,0,0.5,0,1","0.5,0,1,0.5,0,1,0,1,0.5","2",""
"","html-keyboard-response","223","136500","0.0-313.0","369J354OFEW336EBE692JLMIN8QG6D","AJ7MWBQFNH3E4","3UDTAB6HH6LRO17U79I9TKUGYFV09C","","null","<img src=""img/food5.png"" style=""width:200px;border:14px solid red;"">","null","","","","","","","","","",""
"","image-keyboard-response","224","137161","0.0-314.0","369J354OFEW336EBE692JLMIN8QG6D","AJ7MWBQFNH3E4","3UDTAB6HH6LRO17U79I9TKUGYFV09C","","659.6000000238419","img/food5.png","74","661.1000000238419","1","0","","2","1","1,0.5,0,1,0.5,0,0.5,0,1","0.5,0,1,0.5,0,1,0,1,0.5","2",""
"","html-keyboard-response","225","137472","0.0-315.0","369J354OFEW336EBE692JLMIN8QG6D","AJ7MWBQFNH3E4","3UDTAB6HH6LRO17U79I9TKUGYFV09C","","null","<img src=""img/food5.png"" style=""width:200px;border:14px solid red;"">","null","","","","","","","","","",""
"","image-keyboard-response","226","137935","0.0-316.0","369J354OFEW336EBE692JLMIN8QG6D","AJ7MWBQFNH3E4","3UDTAB6HH6LRO17U79I9TKUGYFV09C","","461.7999999523163","img/food4.png","75","463.10000002384186","2","0","","1","1","1,0.5,0,1,0.5,0,0.5,0,1","0.5,0,1,0.5,0,1,0,1,0.5","2",""
"","html-keyboard-response","227","138238","0.0-317.0","369J354OFEW336EBE692JLMIN8QG6D","AJ7MWBQFNH3E4","3UDTAB6HH6LRO17U79I9TKUGYFV09C","","null","<img src=""img/food4.png"" style=""width:200px;border:14px solid red;"">","null","","","","","","","","","",""
"","image-keyboard-response","228","138761","0.0-318.0","369J354OFEW336EBE692JLMIN8QG6D","AJ7MWBQFNH3E4","3UDTAB6HH6LRO17U79I9TKUGYFV09C","","520.5","img/food4.png","76","522.1999999284744","3","1","","1","1","1,0.5,0,1,0.5,0,0.5,0,1","0.5,0,1,0.5,0,1,0,1,0.5","2",""
"","html-keyboard-response","229","139065","0.0-319.0","369J354OFEW336EBE692JLMIN8QG6D","AJ7MWBQFNH3E4","3UDTAB6HH6LRO17U79I9TKUGYFV09C","","null","<img src=""img/food4.png"" style=""width:200px; border:14px solid green;"">","null","","","","","","","","","",""
"","image-keyboard-response","230","139429","0.0-320.0","369J354OFEW336EBE692JLMIN8QG6D","AJ7MWBQFNH3E4","3UDTAB6HH6LRO17U79I9TKUGYFV09C","","362.1999999284744","img/food4.png","76","363.5","3","1","","1","1","1,0.5,0,1,0.5,0,0.5,0,1","0.5,0,1,0.5,0,1,0,1,0.5","2",""
"","html-keyboard-response","231","139740","0.0-321.0","369J354OFEW336EBE692JLMIN8QG6D","AJ7MWBQFNH3E4","3UDTAB6HH6LRO17U79I9TKUGYFV09C","","null","<img src=""img/food4.png"" style=""width:200px; border:14px solid green;"">","null","","","","","","","","","",""
"","image-keyboard-response","232","140129","0.0-322.0","369J354OFEW336EBE692JLMIN8QG6D","AJ7MWBQFNH3E4","3UDTAB6HH6LRO17U79I9TKUGYFV09C","","387.5","img/food4.png","76","388.8000000715256","3","1","","1","1","1,0.5,0,1,0.5,0,0.5,0,1","0.5,0,1,0.5,0,1,0,1,0.5","2",""
"","html-keyboard-response","233","140435","0.0-323.0","369J354OFEW336EBE692JLMIN8QG6D","AJ7MWBQFNH3E4","3UDTAB6HH6LRO17U79I9TKUGYFV09C","","null","<img src=""img/food4.png"" style=""width:200px; border:14px solid green;"">","null","","","","","","","","","",""
"","image-keyboard-response","234","140884","0.0-324.0","369J354OFEW336EBE692JLMIN8QG6D","AJ7MWBQFNH3E4","3UDTAB6HH6LRO17U79I9TKUGYFV09C","","447.39999997615814","img/food5.png","75","448.7999999523163","2","0","","2","1","1,0.5,0,1,0.5,0,0.5,0,1","0.5,0,1,0.5,0,1,0,1,0.5","2",""
"","html-keyboard-response","235","141191","0.0-325.0","369J354OFEW336EBE692JLMIN8QG6D","AJ7MWBQFNH3E4","3UDTAB6HH6LRO17U79I9TKUGYFV09C","","null","<img src=""img/food5.png"" style=""width:200px;border:14px solid red;"">","null","","","","","","","","","",""
"","image-keyboard-response","236","141778","0.0-326.0","369J354OFEW336EBE692JLMIN8QG6D","AJ7MWBQFNH3E4","3UDTAB6HH6LRO17U79I9TKUGYFV09C","","586.1999999284744","img/food4.png","76","587.6000000238419","3","1","","1","1","1,0.5,0,1,0.5,0,0.5,0,1","0.5,0,1,0.5,0,1,0,1,0.5","2",""
"","html-keyboard-response","237","142088","0.0-327.0","369J354OFEW336EBE692JLMIN8QG6D","AJ7MWBQFNH3E4","3UDTAB6HH6LRO17U79I9TKUGYFV09C","","null","<img src=""img/food4.png"" style=""width:200px; border:14px solid green;"">","null","","","","","","","","","",""
"","image-keyboard-response","238","142866","0.0-328.0","369J354OFEW336EBE692JLMIN8QG6D","AJ7MWBQFNH3E4","3UDTAB6HH6LRO17U79I9TKUGYFV09C","","775.3999999761581","img/food5.png","74","777.2999999523163","1","0","","2","1","1,0.5,0,1,0.5,0,0.5,0,1","0.5,0,1,0.5,0,1,0,1,0.5","2",""
"","html-keyboard-response","239","143175","0.0-329.0","369J354OFEW336EBE692JLMIN8QG6D","AJ7MWBQFNH3E4","3UDTAB6HH6LRO17U79I9TKUGYFV09C","","null","<img src=""img/food5.png"" style=""width:200px;border:14px solid red;"">","null","","","","","","","","","",""
"","image-keyboard-response","240","143636","0.0-330.0","369J354OFEW336EBE692JLMIN8QG6D","AJ7MWBQFNH3E4","3UDTAB6HH6LRO17U79I9TKUGYFV09C","","458.8000000715256","img/food5.png","74","460.39999997615814","1","0","","2","1","1,0.5,0,1,0.5,0,0.5,0,1","0.5,0,1,0.5,0,1,0,1,0.5","2",""
"","html-keyboard-response","241","143945","0.0-331.0","369J354OFEW336EBE692JLMIN8QG6D","AJ7MWBQFNH3E4","3UDTAB6HH6LRO17U79I9TKUGYFV09C","","null","<img src=""img/food5.png"" style=""width:200px;border:14px solid red;"">","null","","","","","","","","","",""
"","image-keyboard-response","242","144536","0.0-332.0","369J354OFEW336EBE692JLMIN8QG6D","AJ7MWBQFNH3E4","3UDTAB6HH6LRO17U79I9TKUGYFV09C","","589.6999999284744","img/food4.png","76","591.2000000476837","3","1","","1","1","1,0.5,0,1,0.5,0,0.5,0,1","0.5,0,1,0.5,0,1,0,1,0.5","2",""
"","html-keyboard-response","243","144852","0.0-333.0","369J354OFEW336EBE692JLMIN8QG6D","AJ7MWBQFNH3E4","3UDTAB6HH6LRO17U79I9TKUGYFV09C","","null","<img src=""img/food4.png"" style=""width:200px; border:14px solid green;"">","null","","","","","","","","","",""
"","image-keyboard-response","244","145334","0.0-334.0","369J354OFEW336EBE692JLMIN8QG6D","AJ7MWBQFNH3E4","3UDTAB6HH6LRO17U79I9TKUGYFV09C","","480.60000002384186","img/food3.png","75","481.89999997615814","2","1","","3","1","1,0.5,0,1,0.5,0,0.5,0,1","0.5,0,1,0.5,0,1,0,1,0.5","2",""
"","html-keyboard-response","245","145639","0.0-335.0","369J354OFEW336EBE692JLMIN8QG6D","AJ7MWBQFNH3E4","3UDTAB6HH6LRO17U79I9TKUGYFV09C","","null","<img src=""img/food3.png"" style=""width:200px; border:14px solid green;"">","null","","","","","","","","","",""
"","image-keyboard-response","246","146042","0.0-336.0","369J354OFEW336EBE692JLMIN8QG6D","AJ7MWBQFNH3E4","3UDTAB6HH6LRO17U79I9TKUGYFV09C","","400.6999999284744","img/food3.png","75","402.5","2","1","","3","1","1,0.5,0,1,0.5,0,0.5,0,1","0.5,0,1,0.5,0,1,0,1,0.5","2",""
"","html-keyboard-response","247","146350","0.0-337.0","369J354OFEW336EBE692JLMIN8QG6D","AJ7MWBQFNH3E4","3UDTAB6HH6LRO17U79I9TKUGYFV09C","","null","<img src=""img/food3.png"" style=""width:200px; border:14px solid green;"">","null","","","","","","","","","",""
"","image-keyboard-response","248","146790","0.0-338.0","369J354OFEW336EBE692JLMIN8QG6D","AJ7MWBQFNH3E4","3UDTAB6HH6LRO17U79I9TKUGYFV09C","","437.8000000715256","img/food4.png","76","439.60000002384186","3","1","","1","1","1,0.5,0,1,0.5,0,0.5,0,1","0.5,0,1,0.5,0,1,0,1,0.5","2",""
"","html-keyboard-response","249","147094","0.0-339.0","369J354OFEW336EBE692JLMIN8QG6D","AJ7MWBQFNH3E4","3UDTAB6HH6LRO17U79I9TKUGYFV09C","","null","<img src=""img/food4.png"" style=""width:200px; border:14px solid green;"">","null","","","","","","","","","",""
"","image-keyboard-response","250","147497","0.0-340.0","369J354OFEW336EBE692JLMIN8QG6D","AJ7MWBQFNH3E4","3UDTAB6HH6LRO17U79I9TKUGYFV09C","","401.3000000715256","img/food4.png","76","402.6999999284744","3","1","","1","1","1,0.5,0,1,0.5,0,0.5,0,1","0.5,0,1,0.5,0,1,0,1,0.5","2",""
"","html-keyboard-response","251","147806","0.0-341.0","369J354OFEW336EBE692JLMIN8QG6D","AJ7MWBQFNH3E4","3UDTAB6HH6LRO17U79I9TKUGYFV09C","","null","<img src=""img/food4.png"" style=""width:200px; border:14px solid green;"">","null","","","","","","","","","",""
"","image-keyboard-response","252","148186","0.0-342.0","369J354OFEW336EBE692JLMIN8QG6D","AJ7MWBQFNH3E4","3UDTAB6HH6LRO17U79I9TKUGYFV09C","","377.7000000476837","img/food4.png","76","378.89999997615814","3","1","","1","1","1,0.5,0,1,0.5,0,0.5,0,1","0.5,0,1,0.5,0,1,0,1,0.5","2",""
"","html-keyboard-response","253","148491","0.0-343.0","369J354OFEW336EBE692JLMIN8QG6D","AJ7MWBQFNH3E4","3UDTAB6HH6LRO17U79I9TKUGYFV09C","","null","<img src=""img/food4.png"" style=""width:200px; border:14px solid green;"">","null","","","","","","","","","",""
"","image-keyboard-response","254","148985","0.0-344.0","369J354OFEW336EBE692JLMIN8QG6D","AJ7MWBQFNH3E4","3UDTAB6HH6LRO17U79I9TKUGYFV09C","","492.3000000715256","img/food5.png","74","493.6999999284744","1","1","","2","1","1,0.5,0,1,0.5,0,0.5,0,1","0.5,0,1,0.5,0,1,0,1,0.5","2",""
"","html-keyboard-response","255","149300","0.0-345.0","369J354OFEW336EBE692JLMIN8QG6D","AJ7MWBQFNH3E4","3UDTAB6HH6LRO17U79I9TKUGYFV09C","","null","<img src=""img/food5.png"" style=""width:200px; border:14px solid green;"">","null","","","","","","","","","",""
"","image-keyboard-response","256","149944","0.0-346.0","369J354OFEW336EBE692JLMIN8QG6D","AJ7MWBQFNH3E4","3UDTAB6HH6LRO17U79I9TKUGYFV09C","","642.5","img/food3.png","75","643.7999999523163","2","1","","3","1","1,0.5,0,1,0.5,0,0.5,0,1","0.5,0,1,0.5,0,1,0,1,0.5","2",""
"","html-keyboard-response","257","150251","0.0-347.0","369J354OFEW336EBE692JLMIN8QG6D","AJ7MWBQFNH3E4","3UDTAB6HH6LRO17U79I9TKUGYFV09C","","null","<img src=""img/food3.png"" style=""width:200px; border:14px solid green;"">","null","","","","","","","","","",""
"","image-keyboard-response","258","151188","0.0-348.0","369J354OFEW336EBE692JLMIN8QG6D","AJ7MWBQFNH3E4","3UDTAB6HH6LRO17U79I9TKUGYFV09C","","935.5","img/food4.png","76","936.7999999523163","3","1","","1","1","1,0.5,0,1,0.5,0,0.5,0,1","0.5,0,1,0.5,0,1,0,1,0.5","2",""
"","html-keyboard-response","259","151491","0.0-349.0","369J354OFEW336EBE692JLMIN8QG6D","AJ7MWBQFNH3E4","3UDTAB6HH6LRO17U79I9TKUGYFV09C","","null","<img src=""img/food4.png"" style=""width:200px; border:14px solid green;"">","null","","","","","","","","","",""
"","image-keyboard-response","260","151961","0.0-350.0","369J354OFEW336EBE692JLMIN8QG6D","AJ7MWBQFNH3E4","3UDTAB6HH6LRO17U79I9TKUGYFV09C","","468.39999997615814","img/food3.png","74","469.7999999523163","1","0","","3","1","1,0.5,0,1,0.5,0,0.5,0,1","0.5,0,1,0.5,0,1,0,1,0.5","2",""
"","html-keyboard-response","261","152272","0.0-351.0","369J354OFEW336EBE692JLMIN8QG6D","AJ7MWBQFNH3E4","3UDTAB6HH6LRO17U79I9TKUGYFV09C","","null","<img src=""img/food3.png"" style=""width:200px;border:14px solid red;"">","null","","","","","","","","","",""
"","image-keyboard-response","262","152826","0.0-352.0","369J354OFEW336EBE692JLMIN8QG6D","AJ7MWBQFNH3E4","3UDTAB6HH6LRO17U79I9TKUGYFV09C","","551.6000000238419","img/food5.png","74","552.9000000953674","1","0","","2","1","1,0.5,0,1,0.5,0,0.5,0,1","0.5,0,1,0.5,0,1,0,1,0.5","2",""
"","html-keyboard-response","263","153135","0.0-353.0","369J354OFEW336EBE692JLMIN8QG6D","AJ7MWBQFNH3E4","3UDTAB6HH6LRO17U79I9TKUGYFV09C","","null","<img src=""img/food5.png"" style=""width:200px;border:14px solid red;"">","null","","","","","","","","","",""
"","image-keyboard-response","264","153482","0.0-354.0","369J354OFEW336EBE692JLMIN8QG6D","AJ7MWBQFNH3E4","3UDTAB6HH6LRO17U79I9TKUGYFV09C","","344.7000000476837","img/food5.png","74","347.2000000476837","1","1","","2","1","1,0.5,0,1,0.5,0,0.5,0,1","0.5,0,1,0.5,0,1,0,1,0.5","2",""
"","html-keyboard-response","265","153791","0.0-355.0","369J354OFEW336EBE692JLMIN8QG6D","AJ7MWBQFNH3E4","3UDTAB6HH6LRO17U79I9TKUGYFV09C","","null","<img src=""img/food5.png"" style=""width:200px; border:14px solid green;"">","null","","","","","","","","","",""
"","image-keyboard-response","266","154240","0.0-356.0","369J354OFEW336EBE692JLMIN8QG6D","AJ7MWBQFNH3E4","3UDTAB6HH6LRO17U79I9TKUGYFV09C","","447.09999990463257","img/food3.png","75","448.6999999284744","2","1","","3","1","1,0.5,0,1,0.5,0,0.5,0,1","0.5,0,1,0.5,0,1,0,1,0.5","2",""
"","html-keyboard-response","267","154547","0.0-357.0","369J354OFEW336EBE692JLMIN8QG6D","AJ7MWBQFNH3E4","3UDTAB6HH6LRO17U79I9TKUGYFV09C","","null","<img src=""img/food3.png"" style=""width:200px; border:14px solid green;"">","null","","","","","","","","","",""
"","image-keyboard-response","268","154960","0.0-358.0","369J354OFEW336EBE692JLMIN8QG6D","AJ7MWBQFNH3E4","3UDTAB6HH6LRO17U79I9TKUGYFV09C","","410.39999997615814","img/food3.png","75","412.5","2","1","","3","1","1,0.5,0,1,0.5,0,0.5,0,1","0.5,0,1,0.5,0,1,0,1,0.5","2",""
"","html-keyboard-response","269","155265","0.0-359.0","369J354OFEW336EBE692JLMIN8QG6D","AJ7MWBQFNH3E4","3UDTAB6HH6LRO17U79I9TKUGYFV09C","","null","<img src=""img/food3.png"" style=""width:200px; border:14px solid green;"">","null","","","","","","","","","",""
"","image-keyboard-response","270","155894","0.0-360.0","369J354OFEW336EBE692JLMIN8QG6D","AJ7MWBQFNH3E4","3UDTAB6HH6LRO17U79I9TKUGYFV09C","","626.5","img/food5.png","74","628","1","1","","2","1","1,0.5,0,1,0.5,0,0.5,0,1","0.5,0,1,0.5,0,1,0,1,0.5","2",""
"","html-keyboard-response","271","156208","0.0-361.0","369J354OFEW336EBE692JLMIN8QG6D","AJ7MWBQFNH3E4","3UDTAB6HH6LRO17U79I9TKUGYFV09C","","null","<img src=""img/food5.png"" style=""width:200px; border:14px solid green;"">","null","","","","","","","","","",""
"","image-keyboard-response","272","156739","0.0-362.0","369J354OFEW336EBE692JLMIN8QG6D","AJ7MWBQFNH3E4","3UDTAB6HH6LRO17U79I9TKUGYFV09C","","529","img/food3.png","75","530.7000000476837","2","1","","3","1","1,0.5,0,1,0.5,0,0.5,0,1","0.5,0,1,0.5,0,1,0,1,0.5","2",""
"","html-keyboard-response","273","157042","0.0-363.0","369J354OFEW336EBE692JLMIN8QG6D","AJ7MWBQFNH3E4","3UDTAB6HH6LRO17U79I9TKUGYFV09C","","null","<img src=""img/food3.png"" style=""width:200px; border:14px solid green;"">","null","","","","","","","","","",""
"","image-keyboard-response","274","157482","0.0-364.0","369J354OFEW336EBE692JLMIN8QG6D","AJ7MWBQFNH3E4","3UDTAB6HH6LRO17U79I9TKUGYFV09C","","436.7000000476837","img/food3.png","75","439.7000000476837","2","1","","3","1","1,0.5,0,1,0.5,0,0.5,0,1","0.5,0,1,0.5,0,1,0,1,0.5","2",""
"","html-keyboard-response","275","157785","0.0-365.0","369J354OFEW336EBE692JLMIN8QG6D","AJ7MWBQFNH3E4","3UDTAB6HH6LRO17U79I9TKUGYFV09C","","null","<img src=""img/food3.png"" style=""width:200px; border:14px solid green;"">","null","","","","","","","","","",""
"","image-keyboard-response","276","158283","0.0-366.0","369J354OFEW336EBE692JLMIN8QG6D","AJ7MWBQFNH3E4","3UDTAB6HH6LRO17U79I9TKUGYFV09C","","495.7999999523163","img/food5.png","74","497.7999999523163","1","0","","2","1","1,0.5,0,1,0.5,0,0.5,0,1","0.5,0,1,0.5,0,1,0,1,0.5","2",""
"","html-keyboard-response","277","158589","0.0-367.0","369J354OFEW336EBE692JLMIN8QG6D","AJ7MWBQFNH3E4","3UDTAB6HH6LRO17U79I9TKUGYFV09C","","null","<img src=""img/food5.png"" style=""width:200px;border:14px solid red;"">","null","","","","","","","","","",""
"","image-keyboard-response","278","159144","0.0-368.0","369J354OFEW336EBE692JLMIN8QG6D","AJ7MWBQFNH3E4","3UDTAB6HH6LRO17U79I9TKUGYFV09C","","553.8999999761581","img/food3.png","75","555.2999999523163","2","1","","3","1","1,0.5,0,1,0.5,0,0.5,0,1","0.5,0,1,0.5,0,1,0,1,0.5","2",""
"","html-keyboard-response","279","159458","0.0-369.0","369J354OFEW336EBE692JLMIN8QG6D","AJ7MWBQFNH3E4","3UDTAB6HH6LRO17U79I9TKUGYFV09C","","null","<img src=""img/food3.png"" style=""width:200px; border:14px solid green;"">","null","","","","","","","","","",""
"","image-keyboard-response","280","159911","0.0-370.0","369J354OFEW336EBE692JLMIN8QG6D","AJ7MWBQFNH3E4","3UDTAB6HH6LRO17U79I9TKUGYFV09C","","451.6999999284744","img/food3.png","75","453.39999997615814","2","1","","3","1","1,0.5,0,1,0.5,0,0.5,0,1","0.5,0,1,0.5,0,1,0,1,0.5","2",""
"","html-keyboard-response","281","160222","0.0-371.0","369J354OFEW336EBE692JLMIN8QG6D","AJ7MWBQFNH3E4","3UDTAB6HH6LRO17U79I9TKUGYFV09C","","null","<img src=""img/food3.png"" style=""width:200px; border:14px solid green;"">","null","","","","","","","","","",""
"","image-keyboard-response","282","160604","0.0-372.0","369J354OFEW336EBE692JLMIN8QG6D","AJ7MWBQFNH3E4","3UDTAB6HH6LRO17U79I9TKUGYFV09C","","380.6999999284744","img/food4.png","76","382","3","1","","1","1","1,0.5,0,1,0.5,0,0.5,0,1","0.5,0,1,0.5,0,1,0,1,0.5","2",""
"","html-keyboard-response","283","160912","0.0-373.0","369J354OFEW336EBE692JLMIN8QG6D","AJ7MWBQFNH3E4","3UDTAB6HH6LRO17U79I9TKUGYFV09C","","null","<img src=""img/food4.png"" style=""width:200px; border:14px solid green;"">","null","","","","","","","","","",""
"","image-keyboard-response","284","161313","0.0-374.0","369J354OFEW336EBE692JLMIN8QG6D","AJ7MWBQFNH3E4","3UDTAB6HH6LRO17U79I9TKUGYFV09C","","399.10000002384186","img/food4.png","76","400.39999997615814","3","1","","1","1","1,0.5,0,1,0.5,0,0.5,0,1","0.5,0,1,0.5,0,1,0,1,0.5","2",""
"","html-keyboard-response","285","161623","0.0-375.0","369J354OFEW336EBE692JLMIN8QG6D","AJ7MWBQFNH3E4","3UDTAB6HH6LRO17U79I9TKUGYFV09C","","null","<img src=""img/food4.png"" style=""width:200px; border:14px solid green;"">","null","","","","","","","","","",""
"","image-keyboard-response","286","162016","0.0-376.0","369J354OFEW336EBE692JLMIN8QG6D","AJ7MWBQFNH3E4","3UDTAB6HH6LRO17U79I9TKUGYFV09C","","392.3000000715256","img/food4.png","76","393.5","3","1","","1","1","1,0.5,0,1,0.5,0,0.5,0,1","0.5,0,1,0.5,0,1,0,1,0.5","2",""
"","html-keyboard-response","287","162324","0.0-377.0","369J354OFEW336EBE692JLMIN8QG6D","AJ7MWBQFNH3E4","3UDTAB6HH6LRO17U79I9TKUGYFV09C","","null","<img src=""img/food4.png"" style=""width:200px; border:14px solid green;"">","null","","","","","","","","","",""
"","image-keyboard-response","288","162811","0.0-378.0","369J354OFEW336EBE692JLMIN8QG6D","AJ7MWBQFNH3E4","3UDTAB6HH6LRO17U79I9TKUGYFV09C","","485.3000000715256","img/food5.png","74","486.60000002384186","1","1","","2","1","1,0.5,0,1,0.5,0,0.5,0,1","0.5,0,1,0.5,0,1,0,1,0.5","2",""
"","html-keyboard-response","289","163124","0.0-379.0","369J354OFEW336EBE692JLMIN8QG6D","AJ7MWBQFNH3E4","3UDTAB6HH6LRO17U79I9TKUGYFV09C","","null","<img src=""img/food5.png"" style=""width:200px; border:14px solid green;"">","null","","","","","","","","","",""
"","image-keyboard-response","290","163606","0.0-380.0","369J354OFEW336EBE692JLMIN8QG6D","AJ7MWBQFNH3E4","3UDTAB6HH6LRO17U79I9TKUGYFV09C","","480","img/food3.png","75","481.2999999523163","2","1","","3","1","1,0.5,0,1,0.5,0,0.5,0,1","0.5,0,1,0.5,0,1,0,1,0.5","2",""
"","html-keyboard-response","291","163921","0.0-381.0","369J354OFEW336EBE692JLMIN8QG6D","AJ7MWBQFNH3E4","3UDTAB6HH6LRO17U79I9TKUGYFV09C","","null","<img src=""img/food3.png"" style=""width:200px; border:14px solid green;"">","null","","","","","","","","","",""
"","image-keyboard-response","292","164420","0.0-382.0","369J354OFEW336EBE692JLMIN8QG6D","AJ7MWBQFNH3E4","3UDTAB6HH6LRO17U79I9TKUGYFV09C","","491.8000000715256","img/food3.png","75","498.60000002384186","2","1","","3","1","1,0.5,0,1,0.5,0,0.5,0,1","0.5,0,1,0.5,0,1,0,1,0.5","2",""
"","html-keyboard-response","293","164729","0.0-383.0","369J354OFEW336EBE692JLMIN8QG6D","AJ7MWBQFNH3E4","3UDTAB6HH6LRO17U79I9TKUGYFV09C","","null","<img src=""img/food3.png"" style=""width:200px; border:14px solid green;"">","null","","","","","","","","","",""
"","image-keyboard-response","294","165315","0.0-384.0","369J354OFEW336EBE692JLMIN8QG6D","AJ7MWBQFNH3E4","3UDTAB6HH6LRO17U79I9TKUGYFV09C","","582.3999999761581","img/food4.png","76","584.9000000953674","3","1","","1","1","1,0.5,0,1,0.5,0,0.5,0,1","0.5,0,1,0.5,0,1,0,1,0.5","2",""
"","html-keyboard-response","295","165630","0.0-385.0","369J354OFEW336EBE692JLMIN8QG6D","AJ7MWBQFNH3E4","3UDTAB6HH6LRO17U79I9TKUGYFV09C","","null","<img src=""img/food4.png"" style=""width:200px; border:14px solid green;"">","null","","","","","","","","","",""
"","image-keyboard-response","296","166053","0.0-386.0","369J354OFEW336EBE692JLMIN8QG6D","AJ7MWBQFNH3E4","3UDTAB6HH6LRO17U79I9TKUGYFV09C","","420.7999999523163","img/food4.png","76","422.5","3","1","","1","1","1,0.5,0,1,0.5,0,0.5,0,1","0.5,0,1,0.5,0,1,0,1,0.5","2",""
"","html-keyboard-response","297","166358","0.0-387.0","369J354OFEW336EBE692JLMIN8QG6D","AJ7MWBQFNH3E4","3UDTAB6HH6LRO17U79I9TKUGYFV09C","","null","<img src=""img/food4.png"" style=""width:200px; border:14px solid green;"">","null","","","","","","","","","",""
"","image-keyboard-response","298","166967","0.0-388.0","369J354OFEW336EBE692JLMIN8QG6D","AJ7MWBQFNH3E4","3UDTAB6HH6LRO17U79I9TKUGYFV09C","","607.7999999523163","img/food5.png","74","609.6000000238419","1","1","","2","1","1,0.5,0,1,0.5,0,0.5,0,1","0.5,0,1,0.5,0,1,0,1,0.5","2",""
"","html-keyboard-response","299","167277","0.0-389.0","369J354OFEW336EBE692JLMIN8QG6D","AJ7MWBQFNH3E4","3UDTAB6HH6LRO17U79I9TKUGYFV09C","","null","<img src=""img/food5.png"" style=""width:200px; border:14px solid green;"">","null","","","","","","","","","",""
"","image-keyboard-response","300","167906","0.0-390.0","369J354OFEW336EBE692JLMIN8QG6D","AJ7MWBQFNH3E4","3UDTAB6HH6LRO17U79I9TKUGYFV09C","","627.5999999046326","img/food4.png","76","629","3","1","","1","1","1,0.5,0,1,0.5,0,0.5,0,1","0.5,0,1,0.5,0,1,0,1,0.5","2",""
"","html-keyboard-response","301","168215","0.0-391.0","369J354OFEW336EBE692JLMIN8QG6D","AJ7MWBQFNH3E4","3UDTAB6HH6LRO17U79I9TKUGYFV09C","","null","<img src=""img/food4.png"" style=""width:200px; border:14px solid green;"">","null","","","","","","","","","",""
"","image-keyboard-response","302","168758","0.0-392.0","369J354OFEW336EBE692JLMIN8QG6D","AJ7MWBQFNH3E4","3UDTAB6HH6LRO17U79I9TKUGYFV09C","","541.1999999284744","img/food3.png","75","542.7999999523163","2","1","","3","1","1,0.5,0,1,0.5,0,0.5,0,1","0.5,0,1,0.5,0,1,0,1,0.5","2",""
"","html-keyboard-response","303","169065","0.0-393.0","369J354OFEW336EBE692JLMIN8QG6D","AJ7MWBQFNH3E4","3UDTAB6HH6LRO17U79I9TKUGYFV09C","","null","<img src=""img/food3.png"" style=""width:200px; border:14px solid green;"">","null","","","","","","","","","",""
"","image-keyboard-response","304","169660","0.0-394.0","369J354OFEW336EBE692JLMIN8QG6D","AJ7MWBQFNH3E4","3UDTAB6HH6LRO17U79I9TKUGYFV09C","","592.8999999761581","img/food5.png","74","594.6999999284744","1","0","","2","1","1,0.5,0,1,0.5,0,0.5,0,1","0.5,0,1,0.5,0,1,0,1,0.5","2",""
"","html-keyboard-response","305","169962","0.0-395.0","369J354OFEW336EBE692JLMIN8QG6D","AJ7MWBQFNH3E4","3UDTAB6HH6LRO17U79I9TKUGYFV09C","","null","<img src=""img/food5.png"" style=""width:200px;border:14px solid red;"">","null","","","","","","","","","",""
"","image-keyboard-response","306","170569","0.0-396.0","369J354OFEW336EBE692JLMIN8QG6D","AJ7MWBQFNH3E4","3UDTAB6HH6LRO17U79I9TKUGYFV09C","","604.0999999046326","img/food4.png","76","606.2999999523163","3","1","","1","1","1,0.5,0,1,0.5,0,0.5,0,1","0.5,0,1,0.5,0,1,0,1,0.5","2",""
"","html-keyboard-response","307","170876","0.0-397.0","369J354OFEW336EBE692JLMIN8QG6D","AJ7MWBQFNH3E4","3UDTAB6HH6LRO17U79I9TKUGYFV09C","","null","<img src=""img/food4.png"" style=""width:200px; border:14px solid green;"">","null","","","","","","","","","",""
"","image-keyboard-response","308","171336","0.0-398.0","369J354OFEW336EBE692JLMIN8QG6D","AJ7MWBQFNH3E4","3UDTAB6HH6LRO17U79I9TKUGYFV09C","","457.60000002384186","img/food3.png","75","459.5","2","1","","3","1","1,0.5,0,1,0.5,0,0.5,0,1","0.5,0,1,0.5,0,1,0,1,0.5","2",""
"","html-keyboard-response","309","171638","0.0-399.0","369J354OFEW336EBE692JLMIN8QG6D","AJ7MWBQFNH3E4","3UDTAB6HH6LRO17U79I9TKUGYFV09C","","null","<img src=""img/food3.png"" style=""width:200px; border:14px solid green;"">","null","","","","","","","","","",""
"","image-keyboard-response","310","172088","0.0-400.0","369J354OFEW336EBE692JLMIN8QG6D","AJ7MWBQFNH3E4","3UDTAB6HH6LRO17U79I9TKUGYFV09C","","447.5","img/food3.png","75","449.1999999284744","2","1","","3","1","1,0.5,0,1,0.5,0,0.5,0,1","0.5,0,1,0.5,0,1,0,1,0.5","2",""
"","html-keyboard-response","311","172400","0.0-401.0","369J354OFEW336EBE692JLMIN8QG6D","AJ7MWBQFNH3E4","3UDTAB6HH6LRO17U79I9TKUGYFV09C","","null","<img src=""img/food3.png"" style=""width:200px; border:14px solid green;"">","null","","","","","","","","","",""
"","image-keyboard-response","312","172926","0.0-402.0","369J354OFEW336EBE692JLMIN8QG6D","AJ7MWBQFNH3E4","3UDTAB6HH6LRO17U79I9TKUGYFV09C","","524.1999999284744","img/food4.png","76","525.6000000238419","3","1","","1","1","1,0.5,0,1,0.5,0,0.5,0,1","0.5,0,1,0.5,0,1,0,1,0.5","2",""
"","html-keyboard-response","313","173231","0.0-403.0","369J354OFEW336EBE692JLMIN8QG6D","AJ7MWBQFNH3E4","3UDTAB6HH6LRO17U79I9TKUGYFV09C","","null","<img src=""img/food4.png"" style=""width:200px; border:14px solid green;"">","null","","","","","","","","","",""
"","image-keyboard-response","314","173702","0.0-404.0","369J354OFEW336EBE692JLMIN8QG6D","AJ7MWBQFNH3E4","3UDTAB6HH6LRO17U79I9TKUGYFV09C","","468.39999997615814","img/food5.png","74","470.60000002384186","1","1","","2","1","1,0.5,0,1,0.5,0,0.5,0,1","0.5,0,1,0.5,0,1,0,1,0.5","2",""
"","html-keyboard-response","315","174014","0.0-405.0","369J354OFEW336EBE692JLMIN8QG6D","AJ7MWBQFNH3E4","3UDTAB6HH6LRO17U79I9TKUGYFV09C","","null","<img src=""img/food5.png"" style=""width:200px; border:14px solid green;"">","null","","","","","","","","","",""
"","image-keyboard-response","316","174411","0.0-406.0","369J354OFEW336EBE692JLMIN8QG6D","AJ7MWBQFNH3E4","3UDTAB6HH6LRO17U79I9TKUGYFV09C","","394.6999999284744","img/food5.png","74","396.39999997615814","1","0","","2","1","1,0.5,0,1,0.5,0,0.5,0,1","0.5,0,1,0.5,0,1,0,1,0.5","2",""
"","html-keyboard-response","317","174717","0.0-407.0","369J354OFEW336EBE692JLMIN8QG6D","AJ7MWBQFNH3E4","3UDTAB6HH6LRO17U79I9TKUGYFV09C","","null","<img src=""img/food5.png"" style=""width:200px;border:14px solid red;"">","null","","","","","","","","","",""
"","image-keyboard-response","318","175334","0.0-408.0","369J354OFEW336EBE692JLMIN8QG6D","AJ7MWBQFNH3E4","3UDTAB6HH6LRO17U79I9TKUGYFV09C","","615.0999999046326","img/food4.png","76","616.7000000476837","3","1","","1","1","1,0.5,0,1,0.5,0,0.5,0,1","0.5,0,1,0.5,0,1,0,1,0.5","2",""
"","html-keyboard-response","319","175641","0.0-409.0","369J354OFEW336EBE692JLMIN8QG6D","AJ7MWBQFNH3E4","3UDTAB6HH6LRO17U79I9TKUGYFV09C","","null","<img src=""img/food4.png"" style=""width:200px; border:14px solid green;"">","null","","","","","","","","","",""
"","image-keyboard-response","320","176083","0.0-410.0","369J354OFEW336EBE692JLMIN8QG6D","AJ7MWBQFNH3E4","3UDTAB6HH6LRO17U79I9TKUGYFV09C","","440.2000000476837","img/food3.png","75","441.40000009536743","2","1","","3","1","1,0.5,0,1,0.5,0,0.5,0,1","0.5,0,1,0.5,0,1,0,1,0.5","2",""
"","html-keyboard-response","321","176400","0.0-411.0","369J354OFEW336EBE692JLMIN8QG6D","AJ7MWBQFNH3E4","3UDTAB6HH6LRO17U79I9TKUGYFV09C","","null","<img src=""img/food3.png"" style=""width:200px; border:14px solid green;"">","null","","","","","","","","","",""
"","image-keyboard-response","322","176868","0.0-412.0","369J354OFEW336EBE692JLMIN8QG6D","AJ7MWBQFNH3E4","3UDTAB6HH6LRO17U79I9TKUGYFV09C","","465.39999997615814","img/food4.png","76","467","3","1","","1","1","1,0.5,0,1,0.5,0,0.5,0,1","0.5,0,1,0.5,0,1,0,1,0.5","2",""
"","html-keyboard-response","323","177179","0.0-413.0","369J354OFEW336EBE692JLMIN8QG6D","AJ7MWBQFNH3E4","3UDTAB6HH6LRO17U79I9TKUGYFV09C","","null","<img src=""img/food4.png"" style=""width:200px; border:14px solid green;"">","null","","","","","","","","","",""
"","image-keyboard-response","324","177733","0.0-414.0","369J354OFEW336EBE692JLMIN8QG6D","AJ7MWBQFNH3E4","3UDTAB6HH6LRO17U79I9TKUGYFV09C","","553.0999999046326","img/food5.png","74","554.7000000476837","1","0","","2","1","1,0.5,0,1,0.5,0,0.5,0,1","0.5,0,1,0.5,0,1,0,1,0.5","2",""
"","html-keyboard-response","325","178043","0.0-415.0","369J354OFEW336EBE692JLMIN8QG6D","AJ7MWBQFNH3E4","3UDTAB6HH6LRO17U79I9TKUGYFV09C","","null","<img src=""img/food5.png"" style=""width:200px;border:14px solid red;"">","null","","","","","","","","","",""
"","image-keyboard-response","326","178456","0.0-416.0","369J354OFEW336EBE692JLMIN8QG6D","AJ7MWBQFNH3E4","3UDTAB6HH6LRO17U79I9TKUGYFV09C","","411.60000002384186","img/food5.png","74","413.39999997615814","1","0","","2","1","1,0.5,0,1,0.5,0,0.5,0,1","0.5,0,1,0.5,0,1,0,1,0.5","2",""
"","html-keyboard-response","327","178763","0.0-417.0","369J354OFEW336EBE692JLMIN8QG6D","AJ7MWBQFNH3E4","3UDTAB6HH6LRO17U79I9TKUGYFV09C","","null","<img src=""img/food5.png"" style=""width:200px;border:14px solid red;"">","null","","","","","","","","","",""
"","image-keyboard-response","328","179214","0.0-418.0","369J354OFEW336EBE692JLMIN8QG6D","AJ7MWBQFNH3E4","3UDTAB6HH6LRO17U79I9TKUGYFV09C","","451.2999999523163","img/food5.png","74","453.10000002384186","1","1","","2","1","1,0.5,0,1,0.5,0,0.5,0,1","0.5,0,1,0.5,0,1,0,1,0.5","2",""
"","html-keyboard-response","329","179522","0.0-419.0","369J354OFEW336EBE692JLMIN8QG6D","AJ7MWBQFNH3E4","3UDTAB6HH6LRO17U79I9TKUGYFV09C","","null","<img src=""img/food5.png"" style=""width:200px; border:14px solid green;"">","null","","","","","","","","","",""
"","image-keyboard-response","330","180087","0.0-420.0","369J354OFEW336EBE692JLMIN8QG6D","AJ7MWBQFNH3E4","3UDTAB6HH6LRO17U79I9TKUGYFV09C","","562.5","img/food3.png","75","563.9000000953674","2","1","","3","1","1,0.5,0,1,0.5,0,0.5,0,1","0.5,0,1,0.5,0,1,0,1,0.5","2",""
"","html-keyboard-response","331","180395","0.0-421.0","369J354OFEW336EBE692JLMIN8QG6D","AJ7MWBQFNH3E4","3UDTAB6HH6LRO17U79I9TKUGYFV09C","","null","<img src=""img/food3.png"" style=""width:200px; border:14px solid green;"">","null","","","","","","","","","",""
"","image-keyboard-response","332","180921","0.0-422.0","369J354OFEW336EBE692JLMIN8QG6D","AJ7MWBQFNH3E4","3UDTAB6HH6LRO17U79I9TKUGYFV09C","","524.5999999046326","img/food4.png","76","526.2000000476837","3","1","","1","1","1,0.5,0,1,0.5,0,0.5,0,1","0.5,0,1,0.5,0,1,0,1,0.5","2",""
"","html-keyboard-response","333","181229","0.0-423.0","369J354OFEW336EBE692JLMIN8QG6D","AJ7MWBQFNH3E4","3UDTAB6HH6LRO17U79I9TKUGYFV09C","","null","<img src=""img/food4.png"" style=""width:200px; border:14px solid green;"">","null","","","","","","","","","",""
"","image-keyboard-response","334","181631","0.0-424.0","369J354OFEW336EBE692JLMIN8QG6D","AJ7MWBQFNH3E4","3UDTAB6HH6LRO17U79I9TKUGYFV09C","","400.40000009536743","img/food4.png","76","402","3","1","","1","1","1,0.5,0,1,0.5,0,0.5,0,1","0.5,0,1,0.5,0,1,0,1,0.5","2",""
"","html-keyboard-response","335","181936","0.0-425.0","369J354OFEW336EBE692JLMIN8QG6D","AJ7MWBQFNH3E4","3UDTAB6HH6LRO17U79I9TKUGYFV09C","","null","<img src=""img/food4.png"" style=""width:200px; border:14px solid green;"">","null","","","","","","","","","",""
"","image-keyboard-response","336","182525","0.0-426.0","369J354OFEW336EBE692JLMIN8QG6D","AJ7MWBQFNH3E4","3UDTAB6HH6LRO17U79I9TKUGYFV09C","","587.3000000715256","img/food3.png","75","588.5999999046326","2","1","","3","1","1,0.5,0,1,0.5,0,0.5,0,1","0.5,0,1,0.5,0,1,0,1,0.5","2",""
"","html-keyboard-response","337","182834","0.0-427.0","369J354OFEW336EBE692JLMIN8QG6D","AJ7MWBQFNH3E4","3UDTAB6HH6LRO17U79I9TKUGYFV09C","","null","<img src=""img/food3.png"" style=""width:200px; border:14px solid green;"">","null","","","","","","","","","",""
"","image-keyboard-response","338","183359","0.0-428.0","369J354OFEW336EBE692JLMIN8QG6D","AJ7MWBQFNH3E4","3UDTAB6HH6LRO17U79I9TKUGYFV09C","","523.0999999046326","img/food5.png","74","524.3999999761581","1","1","","2","1","1,0.5,0,1,0.5,0,0.5,0,1","0.5,0,1,0.5,0,1,0,1,0.5","2",""
"","html-keyboard-response","339","183662","0.0-429.0","369J354OFEW336EBE692JLMIN8QG6D","AJ7MWBQFNH3E4","3UDTAB6HH6LRO17U79I9TKUGYFV09C","","null","<img src=""img/food5.png"" style=""width:200px; border:14px solid green;"">","null","","","","","","","","","",""
"","image-keyboard-response","340","184139","0.0-430.0","369J354OFEW336EBE692JLMIN8QG6D","AJ7MWBQFNH3E4","3UDTAB6HH6LRO17U79I9TKUGYFV09C","","474.5","img/food5.png","74","475.89999997615814","1","0","","2","1","1,0.5,0,1,0.5,0,0.5,0,1","0.5,0,1,0.5,0,1,0,1,0.5","2",""
"","html-keyboard-response","341","184447","0.0-431.0","369J354OFEW336EBE692JLMIN8QG6D","AJ7MWBQFNH3E4","3UDTAB6HH6LRO17U79I9TKUGYFV09C","","null","<img src=""img/food5.png"" style=""width:200px;border:14px solid red;"">","null","","","","","","","","","",""
"","image-keyboard-response","342","185473","0.0-432.0","369J354OFEW336EBE692JLMIN8QG6D","AJ7MWBQFNH3E4","3UDTAB6HH6LRO17U79I9TKUGYFV09C","","1024.3000000715256","img/food3.png","75","1025.6999999284744","2","1","","3","1","1,0.5,0,1,0.5,0,0.5,0,1","0.5,0,1,0.5,0,1,0,1,0.5","2",""
"","html-keyboard-response","343","185783","0.0-433.0","369J354OFEW336EBE692JLMIN8QG6D","AJ7MWBQFNH3E4","3UDTAB6HH6LRO17U79I9TKUGYFV09C","","null","<img src=""img/food3.png"" style=""width:200px; border:14px solid green;"">","null","","","","","","","","","",""
"","image-keyboard-response","344","186386","0.0-434.0","369J354OFEW336EBE692JLMIN8QG6D","AJ7MWBQFNH3E4","3UDTAB6HH6LRO17U79I9TKUGYFV09C","","600.6999999284744","img/food5.png","74","602.8000000715256","1","0","","2","1","1,0.5,0,1,0.5,0,0.5,0,1","0.5,0,1,0.5,0,1,0,1,0.5","2",""
"","html-keyboard-response","345","186700","0.0-435.0","369J354OFEW336EBE692JLMIN8QG6D","AJ7MWBQFNH3E4","3UDTAB6HH6LRO17U79I9TKUGYFV09C","","null","<img src=""img/food5.png"" style=""width:200px;border:14px solid red;"">","null","","","","","","","","","",""
"","image-keyboard-response","346","187186","0.0-436.0","369J354OFEW336EBE692JLMIN8QG6D","AJ7MWBQFNH3E4","3UDTAB6HH6LRO17U79I9TKUGYFV09C","","484.2000000476837","img/food3.png","75","485.6999999284744","2","1","","3","1","1,0.5,0,1,0.5,0,0.5,0,1","0.5,0,1,0.5,0,1,0,1,0.5","2",""
"","html-keyboard-response","347","187491","0.0-437.0","369J354OFEW336EBE692JLMIN8QG6D","AJ7MWBQFNH3E4","3UDTAB6HH6LRO17U79I9TKUGYFV09C","","null","<img src=""img/food3.png"" style=""width:200px; border:14px solid green;"">","null","","","","","","","","","",""
"","image-keyboard-response","348","187918","0.0-438.0","369J354OFEW336EBE692JLMIN8QG6D","AJ7MWBQFNH3E4","3UDTAB6HH6LRO17U79I9TKUGYFV09C","","425.10000002384186","img/food4.png","76","427","3","1","","1","1","1,0.5,0,1,0.5,0,0.5,0,1","0.5,0,1,0.5,0,1,0,1,0.5","2",""
"","html-keyboard-response","349","188223","0.0-439.0","369J354OFEW336EBE692JLMIN8QG6D","AJ7MWBQFNH3E4","3UDTAB6HH6LRO17U79I9TKUGYFV09C","","null","<img src=""img/food4.png"" style=""width:200px; border:14px solid green;"">","null","","","","","","","","","",""
"","image-keyboard-response","350","188730","0.0-440.0","369J354OFEW336EBE692JLMIN8QG6D","AJ7MWBQFNH3E4","3UDTAB6HH6LRO17U79I9TKUGYFV09C","","504.5","img/food3.png","75","506.2000000476837","2","1","","3","1","1,0.5,0,1,0.5,0,0.5,0,1","0.5,0,1,0.5,0,1,0,1,0.5","2",""
"","html-keyboard-response","351","189046","0.0-441.0","369J354OFEW336EBE692JLMIN8QG6D","AJ7MWBQFNH3E4","3UDTAB6HH6LRO17U79I9TKUGYFV09C","","null","<img src=""img/food3.png"" style=""width:200px; border:14px solid green;"">","null","","","","","","","","","",""
"","image-keyboard-response","352","189524","0.0-442.0","369J354OFEW336EBE692JLMIN8QG6D","AJ7MWBQFNH3E4","3UDTAB6HH6LRO17U79I9TKUGYFV09C","","475.40000009536743","img/food5.png","74","477.3000000715256","1","0","","2","1","1,0.5,0,1,0.5,0,0.5,0,1","0.5,0,1,0.5,0,1,0,1,0.5","2",""
"","html-keyboard-response","353","189828","0.0-443.0","369J354OFEW336EBE692JLMIN8QG6D","AJ7MWBQFNH3E4","3UDTAB6HH6LRO17U79I9TKUGYFV09C","","null","<img src=""img/food5.png"" style=""width:200px;border:14px solid red;"">","null","","","","","","","","","",""
"","image-keyboard-response","354","190263","0.0-444.0","369J354OFEW336EBE692JLMIN8QG6D","AJ7MWBQFNH3E4","3UDTAB6HH6LRO17U79I9TKUGYFV09C","","432.90000009536743","img/food5.png","74","434.10000002384186","1","0","","2","1","1,0.5,0,1,0.5,0,0.5,0,1","0.5,0,1,0.5,0,1,0,1,0.5","2",""
"","html-keyboard-response","355","190570","0.0-445.0","369J354OFEW336EBE692JLMIN8QG6D","AJ7MWBQFNH3E4","3UDTAB6HH6LRO17U79I9TKUGYFV09C","","null","<img src=""img/food5.png"" style=""width:200px;border:14px solid red;"">","null","","","","","","","","","",""
"","image-keyboard-response","356","191007","0.0-446.0","369J354OFEW336EBE692JLMIN8QG6D","AJ7MWBQFNH3E4","3UDTAB6HH6LRO17U79I9TKUGYFV09C","","435","img/food4.png","75","436.39999997615814","2","0","","1","1","1,0.5,0,1,0.5,0,0.5,0,1","0.5,0,1,0.5,0,1,0,1,0.5","2",""
"","html-keyboard-response","357","191318","0.0-447.0","369J354OFEW336EBE692JLMIN8QG6D","AJ7MWBQFNH3E4","3UDTAB6HH6LRO17U79I9TKUGYFV09C","","null","<img src=""img/food4.png"" style=""width:200px;border:14px solid red;"">","null","","","","","","","","","",""
"","image-keyboard-response","358","191547","0.0-448.0","369J354OFEW336EBE692JLMIN8QG6D","AJ7MWBQFNH3E4","3UDTAB6HH6LRO17U79I9TKUGYFV09C","","227.5","img/food4.png","76","229","3","1","","1","1","1,0.5,0,1,0.5,0,0.5,0,1","0.5,0,1,0.5,0,1,0,1,0.5","2",""
"","html-keyboard-response","359","191854","0.0-449.0","369J354OFEW336EBE692JLMIN8QG6D","AJ7MWBQFNH3E4","3UDTAB6HH6LRO17U79I9TKUGYFV09C","","null","<img src=""img/food4.png"" style=""width:200px; border:14px solid green;"">","null","","","","","","","","","",""
"","image-keyboard-response","360","192651","0.0-450.0","369J354OFEW336EBE692JLMIN8QG6D","AJ7MWBQFNH3E4","3UDTAB6HH6LRO17U79I9TKUGYFV09C","","795.3999999761581","img/food5.png","74","796.7999999523163","1","0","","2","1","1,0.5,0,1,0.5,0,0.5,0,1","0.5,0,1,0.5,0,1,0,1,0.5","2",""
"","html-keyboard-response","361","192958","0.0-451.0","369J354OFEW336EBE692JLMIN8QG6D","AJ7MWBQFNH3E4","3UDTAB6HH6LRO17U79I9TKUGYFV09C","","null","<img src=""img/food5.png"" style=""width:200px;border:14px solid red;"">","null","","","","","","","","","",""
"","image-keyboard-response","362","193310","0.0-452.0","369J354OFEW336EBE692JLMIN8QG6D","AJ7MWBQFNH3E4","3UDTAB6HH6LRO17U79I9TKUGYFV09C","","349.6999999284744","img/food5.png","74","351.5","1","0","","2","1","1,0.5,0,1,0.5,0,0.5,0,1","0.5,0,1,0.5,0,1,0,1,0.5","2",""
"","html-keyboard-response","363","193619","0.0-453.0","369J354OFEW336EBE692JLMIN8QG6D","AJ7MWBQFNH3E4","3UDTAB6HH6LRO17U79I9TKUGYFV09C","","null","<img src=""img/food5.png"" style=""width:200px;border:14px solid red;"">","null","","","","","","","","","",""
"","html-keyboard-response","364","197573","0.0-454.0","369J354OFEW336EBE692JLMIN8QG6D","AJ7MWBQFNH3E4","3UDTAB6HH6LRO17U79I9TKUGYFV09C","","","","","","","","","","","","","",""
"","instructions","365","199573","0.0-455.0","369J354OFEW336EBE692JLMIN8QG6D","AJ7MWBQFNH3E4","3UDTAB6HH6LRO17U79I9TKUGYFV09C","[{""page_index"":0,""viewing_time"":1998.8000000715256}]","1999.2000000476837","","","","","","","","","","","",""
"","survey-text","366","204691","0.0-456.0","369J354OFEW336EBE692JLMIN8QG6D","AJ7MWBQFNH3E4","3UDTAB6HH6LRO17U79I9TKUGYFV09C","","5107.5","","","","","","","","","","","","{""Q0"":""AJ7MWBQFNH3E4""}"
