"success","trial_type","trial_index","time_elapsed","internal_node_id","assignmentID","mturkID","hitID","view_history","rt","stimulus","key_press","reactionTime","a","r","warning","s","cond","reward_cond","reward_cond_actual","reward_matrix_idx","responses"
"true","fullscreen","0","15333","0.0-0.0","30LSNF239VHTHW15HSX2EKIMMQHI2B","AJDHPRCJ985C7","3XT3KXP24ZKFDDMCDS43FE3AU9W6IW","","","","","","","","","","","","","",""
"","instructions","1","49815","0.0-1.0","30LSNF239VHTHW15HSX2EKIMMQHI2B","AJDHPRCJ985C7","3XT3KXP24ZKFDDMCDS43FE3AU9W6IW","[{""page_index"":0,""viewing_time"":2319},{""page_index"":1,""viewing_time"":1876},{""page_index"":2,""viewing_time"":1572},{""page_index"":3,""viewing_time"":11718},{""page_index"":4,""viewing_time"":3019},{""page_index"":5,""viewing_time"":4443},{""page_index"":6,""viewing_time"":9532}]","34479","","","","","","","","","","","",""
"","instructions","2","71591","0.0-2.0","30LSNF239VHTHW15HSX2EKIMMQHI2B","AJDHPRCJ985C7","3XT3KXP24ZKFDDMCDS43FE3AU9W6IW","[{""page_index"":0,""viewing_time"":19467},{""page_index"":1,""viewing_time"":2308}]","21775","","","","","","","","","","","",""
"","image-keyboard-response","3","72204","0.0-3.0","30LSNF239VHTHW15HSX2EKIMMQHI2B","AJDHPRCJ985C7","3XT3KXP24ZKFDDMCDS43FE3AU9W6IW","","611","img/food6.png","75","611","2","0","false","2","2","1,0.5,0,1,0.5,0,0.5,0,1","1,0.5,0,1,0.5,0,0.5,0,1","1",""
"","html-keyboard-response","4","72510","0.0-4.0","30LSNF239VHTHW15HSX2EKIMMQHI2B","AJDHPRCJ985C7","3XT3KXP24ZKFDDMCDS43FE3AU9W6IW","","null","<img src=""img/food6.png"" style=""width:200px;border:14px solid red;"">","null","","","","","","","","","",""
"","image-keyboard-response","5","73092","0.0-6.0","30LSNF239VHTHW15HSX2EKIMMQHI2B","AJDHPRCJ985C7","3XT3KXP24ZKFDDMCDS43FE3AU9W6IW","","581","img/food4.png","74","582","1","1","false","3","2","1,0.5,0,1,0.5,0,0.5,0,1","1,0.5,0,1,0.5,0,0.5,0,1","1",""
"","html-keyboard-response","6","73393","0.0-7.0","30LSNF239VHTHW15HSX2EKIMMQHI2B","AJDHPRCJ985C7","3XT3KXP24ZKFDDMCDS43FE3AU9W6IW","","null","<img src=""img/food4.png"" style=""width:200px; border:14px solid green;"">","null","","","","","","","","","",""
"","image-keyboard-response","7","74003","0.0-9.0","30LSNF239VHTHW15HSX2EKIMMQHI2B","AJDHPRCJ985C7","3XT3KXP24ZKFDDMCDS43FE3AU9W6IW","","610","img/food6.png","75","611","2","0","false","2","2","1,0.5,0,1,0.5,0,0.5,0,1","1,0.5,0,1,0.5,0,0.5,0,1","1",""
"","html-keyboard-response","8","74306","0.0-10.0","30LSNF239VHTHW15HSX2EKIMMQHI2B","AJDHPRCJ985C7","3XT3KXP24ZKFDDMCDS43FE3AU9W6IW","","null","<img src=""img/food6.png"" style=""width:200px;border:14px solid red;"">","null","","","","","","","","","",""
"","image-keyboard-response","9","74940","0.0-12.0","30LSNF239VHTHW15HSX2EKIMMQHI2B","AJDHPRCJ985C7","3XT3KXP24ZKFDDMCDS43FE3AU9W6IW","","635","img/food5.png","76","635","3","0","false","1","2","1,0.5,0,1,0.5,0,0.5,0,1","1,0.5,0,1,0.5,0,0.5,0,1","1",""
"","html-keyboard-response","10","75244","0.0-13.0","30LSNF239VHTHW15HSX2EKIMMQHI2B","AJDHPRCJ985C7","3XT3KXP24ZKFDDMCDS43FE3AU9W6IW","","null","<img src=""img/food5.png"" style=""width:200px;border:14px solid red;"">","null","","","","","","","","","",""
"","image-keyboard-response","11","76059","0.0-15.0","30LSNF239VHTHW15HSX2EKIMMQHI2B","AJDHPRCJ985C7","3XT3KXP24ZKFDDMCDS43FE3AU9W6IW","","816","img/food4.png","74","816","1","0","false","3","2","1,0.5,0,1,0.5,0,0.5,0,1","1,0.5,0,1,0.5,0,0.5,0,1","1",""
"","html-keyboard-response","12","76365","0.0-16.0","30LSNF239VHTHW15HSX2EKIMMQHI2B","AJDHPRCJ985C7","3XT3KXP24ZKFDDMCDS43FE3AU9W6IW","","null","<img src=""img/food4.png"" style=""width:200px;border:14px solid red;"">","null","","","","","","","","","",""
"","image-keyboard-response","13","77012","0.0-18.0","30LSNF239VHTHW15HSX2EKIMMQHI2B","AJDHPRCJ985C7","3XT3KXP24ZKFDDMCDS43FE3AU9W6IW","","645","img/food5.png","74","646","1","1","false","1","2","1,0.5,0,1,0.5,0,0.5,0,1","1,0.5,0,1,0.5,0,0.5,0,1","1",""
"","html-keyboard-response","14","77314","0.0-19.0","30LSNF239VHTHW15HSX2EKIMMQHI2B","AJDHPRCJ985C7","3XT3KXP24ZKFDDMCDS43FE3AU9W6IW","","null","<img src=""img/food5.png"" style=""width:200px; border:14px solid green;"">","null","","","","","","","","","",""
"","image-keyboard-response","15","77939","0.0-21.0","30LSNF239VHTHW15HSX2EKIMMQHI2B","AJDHPRCJ985C7","3XT3KXP24ZKFDDMCDS43FE3AU9W6IW","","625","img/food6.png","74","626","1","1","false","2","2","1,0.5,0,1,0.5,0,0.5,0,1","1,0.5,0,1,0.5,0,0.5,0,1","1",""
"","html-keyboard-response","16","78241","0.0-22.0","30LSNF239VHTHW15HSX2EKIMMQHI2B","AJDHPRCJ985C7","3XT3KXP24ZKFDDMCDS43FE3AU9W6IW","","null","<img src=""img/food6.png"" style=""width:200px; border:14px solid green;"">","null","","","","","","","","","",""
"","image-keyboard-response","17","78876","0.0-24.0","30LSNF239VHTHW15HSX2EKIMMQHI2B","AJDHPRCJ985C7","3XT3KXP24ZKFDDMCDS43FE3AU9W6IW","","632","img/food4.png","74","635","1","1","false","3","2","1,0.5,0,1,0.5,0,0.5,0,1","1,0.5,0,1,0.5,0,0.5,0,1","1",""
"","html-keyboard-response","18","79180","0.0-25.0","30LSNF239VHTHW15HSX2EKIMMQHI2B","AJDHPRCJ985C7","3XT3KXP24ZKFDDMCDS43FE3AU9W6IW","","null","<img src=""img/food4.png"" style=""width:200px; border:14px solid green;"">","null","","","","","","","","","",""
"","image-keyboard-response","19","79571","0.0-27.0","30LSNF239VHTHW15HSX2EKIMMQHI2B","AJDHPRCJ985C7","3XT3KXP24ZKFDDMCDS43FE3AU9W6IW","","390","img/food4.png","74","391","1","0","false","3","2","1,0.5,0,1,0.5,0,0.5,0,1","1,0.5,0,1,0.5,0,0.5,0,1","1",""
"","html-keyboard-response","20","79873","0.0-28.0","30LSNF239VHTHW15HSX2EKIMMQHI2B","AJDHPRCJ985C7","3XT3KXP24ZKFDDMCDS43FE3AU9W6IW","","null","<img src=""img/food4.png"" style=""width:200px;border:14px solid red;"">","null","","","","","","","","","",""
"","image-keyboard-response","21","80628","0.0-30.0","30LSNF239VHTHW15HSX2EKIMMQHI2B","AJDHPRCJ985C7","3XT3KXP24ZKFDDMCDS43FE3AU9W6IW","","754","img/food5.png","76","754","3","0","false","1","2","1,0.5,0,1,0.5,0,0.5,0,1","1,0.5,0,1,0.5,0,0.5,0,1","1",""
"","html-keyboard-response","22","80934","0.0-31.0","30LSNF239VHTHW15HSX2EKIMMQHI2B","AJDHPRCJ985C7","3XT3KXP24ZKFDDMCDS43FE3AU9W6IW","","null","<img src=""img/food5.png"" style=""width:200px;border:14px solid red;"">","null","","","","","","","","","",""
"","image-keyboard-response","23","81539","0.0-33.0","30LSNF239VHTHW15HSX2EKIMMQHI2B","AJDHPRCJ985C7","3XT3KXP24ZKFDDMCDS43FE3AU9W6IW","","606","img/food4.png","75","606","2","0","false","3","2","1,0.5,0,1,0.5,0,0.5,0,1","1,0.5,0,1,0.5,0,0.5,0,1","1",""
"","html-keyboard-response","24","81842","0.0-34.0","30LSNF239VHTHW15HSX2EKIMMQHI2B","AJDHPRCJ985C7","3XT3KXP24ZKFDDMCDS43FE3AU9W6IW","","null","<img src=""img/food4.png"" style=""width:200px;border:14px solid red;"">","null","","","","","","","","","",""
"","image-keyboard-response","25","82195","0.0-36.0","30LSNF239VHTHW15HSX2EKIMMQHI2B","AJDHPRCJ985C7","3XT3KXP24ZKFDDMCDS43FE3AU9W6IW","","353","img/food6.png","74","353","1","1","false","2","2","1,0.5,0,1,0.5,0,0.5,0,1","1,0.5,0,1,0.5,0,0.5,0,1","1",""
"","html-keyboard-response","26","82501","0.0-37.0","30LSNF239VHTHW15HSX2EKIMMQHI2B","AJDHPRCJ985C7","3XT3KXP24ZKFDDMCDS43FE3AU9W6IW","","null","<img src=""img/food6.png"" style=""width:200px; border:14px solid green;"">","null","","","","","","","","","",""
"","image-keyboard-response","27","82844","0.0-39.0","30LSNF239VHTHW15HSX2EKIMMQHI2B","AJDHPRCJ985C7","3XT3KXP24ZKFDDMCDS43FE3AU9W6IW","","342","img/food6.png","74","342","1","1","false","2","2","1,0.5,0,1,0.5,0,0.5,0,1","1,0.5,0,1,0.5,0,0.5,0,1","1",""
"","html-keyboard-response","28","83145","0.0-40.0","30LSNF239VHTHW15HSX2EKIMMQHI2B","AJDHPRCJ985C7","3XT3KXP24ZKFDDMCDS43FE3AU9W6IW","","null","<img src=""img/food6.png"" style=""width:200px; border:14px solid green;"">","null","","","","","","","","","",""
"","image-keyboard-response","29","83692","0.0-42.0","30LSNF239VHTHW15HSX2EKIMMQHI2B","AJDHPRCJ985C7","3XT3KXP24ZKFDDMCDS43FE3AU9W6IW","","546","img/food5.png","74","546","1","1","false","1","2","1,0.5,0,1,0.5,0,0.5,0,1","1,0.5,0,1,0.5,0,0.5,0,1","1",""
"","html-keyboard-response","30","83994","0.0-43.0","30LSNF239VHTHW15HSX2EKIMMQHI2B","AJDHPRCJ985C7","3XT3KXP24ZKFDDMCDS43FE3AU9W6IW","","null","<img src=""img/food5.png"" style=""width:200px; border:14px solid green;"">","null","","","","","","","","","",""
"","image-keyboard-response","31","84420","0.0-45.0","30LSNF239VHTHW15HSX2EKIMMQHI2B","AJDHPRCJ985C7","3XT3KXP24ZKFDDMCDS43FE3AU9W6IW","","425","img/food4.png","74","426","1","1","false","3","2","1,0.5,0,1,0.5,0,0.5,0,1","1,0.5,0,1,0.5,0,0.5,0,1","1",""
"","html-keyboard-response","32","84721","0.0-46.0","30LSNF239VHTHW15HSX2EKIMMQHI2B","AJDHPRCJ985C7","3XT3KXP24ZKFDDMCDS43FE3AU9W6IW","","null","<img src=""img/food4.png"" style=""width:200px; border:14px solid green;"">","null","","","","","","","","","",""
"","image-keyboard-response","33","85060","0.0-48.0","30LSNF239VHTHW15HSX2EKIMMQHI2B","AJDHPRCJ985C7","3XT3KXP24ZKFDDMCDS43FE3AU9W6IW","","338","img/food4.png","74","339","1","0","false","3","2","1,0.5,0,1,0.5,0,0.5,0,1","1,0.5,0,1,0.5,0,0.5,0,1","1",""
"","html-keyboard-response","34","85366","0.0-49.0","30LSNF239VHTHW15HSX2EKIMMQHI2B","AJDHPRCJ985C7","3XT3KXP24ZKFDDMCDS43FE3AU9W6IW","","null","<img src=""img/food4.png"" style=""width:200px;border:14px solid red;"">","null","","","","","","","","","",""
"","image-keyboard-response","35","85804","0.0-51.0","30LSNF239VHTHW15HSX2EKIMMQHI2B","AJDHPRCJ985C7","3XT3KXP24ZKFDDMCDS43FE3AU9W6IW","","438","img/food4.png","74","439","1","0","false","3","2","1,0.5,0,1,0.5,0,0.5,0,1","1,0.5,0,1,0.5,0,0.5,0,1","1",""
"","html-keyboard-response","36","86107","0.0-52.0","30LSNF239VHTHW15HSX2EKIMMQHI2B","AJDHPRCJ985C7","3XT3KXP24ZKFDDMCDS43FE3AU9W6IW","","null","<img src=""img/food4.png"" style=""width:200px;border:14px solid red;"">","null","","","","","","","","","",""
"","image-keyboard-response","37","86612","0.0-54.0","30LSNF239VHTHW15HSX2EKIMMQHI2B","AJDHPRCJ985C7","3XT3KXP24ZKFDDMCDS43FE3AU9W6IW","","505","img/food6.png","74","505","1","1","false","2","2","1,0.5,0,1,0.5,0,0.5,0,1","1,0.5,0,1,0.5,0,0.5,0,1","1",""
"","html-keyboard-response","38","86913","0.0-55.0","30LSNF239VHTHW15HSX2EKIMMQHI2B","AJDHPRCJ985C7","3XT3KXP24ZKFDDMCDS43FE3AU9W6IW","","null","<img src=""img/food6.png"" style=""width:200px; border:14px solid green;"">","null","","","","","","","","","",""
"","image-keyboard-response","39","87244","0.0-57.0","30LSNF239VHTHW15HSX2EKIMMQHI2B","AJDHPRCJ985C7","3XT3KXP24ZKFDDMCDS43FE3AU9W6IW","","330","img/food4.png","74","331","1","0","false","3","2","1,0.5,0,1,0.5,0,0.5,0,1","1,0.5,0,1,0.5,0,0.5,0,1","1",""
"","html-keyboard-response","40","87550","0.0-58.0","30LSNF239VHTHW15HSX2EKIMMQHI2B","AJDHPRCJ985C7","3XT3KXP24ZKFDDMCDS43FE3AU9W6IW","","null","<img src=""img/food4.png"" style=""width:200px;border:14px solid red;"">","null","","","","","","","","","",""
"","image-keyboard-response","41","88012","0.0-60.0","30LSNF239VHTHW15HSX2EKIMMQHI2B","AJDHPRCJ985C7","3XT3KXP24ZKFDDMCDS43FE3AU9W6IW","","463","img/food5.png","74","463","1","1","false","1","2","1,0.5,0,1,0.5,0,0.5,0,1","1,0.5,0,1,0.5,0,0.5,0,1","1",""
"","html-keyboard-response","42","88313","0.0-61.0","30LSNF239VHTHW15HSX2EKIMMQHI2B","AJDHPRCJ985C7","3XT3KXP24ZKFDDMCDS43FE3AU9W6IW","","null","<img src=""img/food5.png"" style=""width:200px; border:14px solid green;"">","null","","","","","","","","","",""
"","image-keyboard-response","43","88788","0.0-63.0","30LSNF239VHTHW15HSX2EKIMMQHI2B","AJDHPRCJ985C7","3XT3KXP24ZKFDDMCDS43FE3AU9W6IW","","474","img/food4.png","74","475","1","0","false","3","2","1,0.5,0,1,0.5,0,0.5,0,1","1,0.5,0,1,0.5,0,0.5,0,1","1",""
"","html-keyboard-response","44","89094","0.0-64.0","30LSNF239VHTHW15HSX2EKIMMQHI2B","AJDHPRCJ985C7","3XT3KXP24ZKFDDMCDS43FE3AU9W6IW","","null","<img src=""img/food4.png"" style=""width:200px;border:14px solid red;"">","null","","","","","","","","","",""
"","image-keyboard-response","45","89548","0.0-66.0","30LSNF239VHTHW15HSX2EKIMMQHI2B","AJDHPRCJ985C7","3XT3KXP24ZKFDDMCDS43FE3AU9W6IW","","454","img/food5.png","74","455","1","1","false","1","2","1,0.5,0,1,0.5,0,0.5,0,1","1,0.5,0,1,0.5,0,0.5,0,1","1",""
"","html-keyboard-response","46","89849","0.0-67.0","30LSNF239VHTHW15HSX2EKIMMQHI2B","AJDHPRCJ985C7","3XT3KXP24ZKFDDMCDS43FE3AU9W6IW","","null","<img src=""img/food5.png"" style=""width:200px; border:14px solid green;"">","null","","","","","","","","","",""
"","image-keyboard-response","47","90364","0.0-69.0","30LSNF239VHTHW15HSX2EKIMMQHI2B","AJDHPRCJ985C7","3XT3KXP24ZKFDDMCDS43FE3AU9W6IW","","513","img/food4.png","74","513","1","0","false","3","2","1,0.5,0,1,0.5,0,0.5,0,1","1,0.5,0,1,0.5,0,0.5,0,1","1",""
"","html-keyboard-response","48","90666","0.0-70.0","30LSNF239VHTHW15HSX2EKIMMQHI2B","AJDHPRCJ985C7","3XT3KXP24ZKFDDMCDS43FE3AU9W6IW","","null","<img src=""img/food4.png"" style=""width:200px;border:14px solid red;"">","null","","","","","","","","","",""
"","image-keyboard-response","49","91260","0.0-72.0","30LSNF239VHTHW15HSX2EKIMMQHI2B","AJDHPRCJ985C7","3XT3KXP24ZKFDDMCDS43FE3AU9W6IW","","594","img/food4.png","74","594","1","0","false","3","2","1,0.5,0,1,0.5,0,0.5,0,1","1,0.5,0,1,0.5,0,0.5,0,1","1",""
"","html-keyboard-response","50","91561","0.0-73.0","30LSNF239VHTHW15HSX2EKIMMQHI2B","AJDHPRCJ985C7","3XT3KXP24ZKFDDMCDS43FE3AU9W6IW","","null","<img src=""img/food4.png"" style=""width:200px;border:14px solid red;"">","null","","","","","","","","","",""
"","image-keyboard-response","51","92196","0.0-75.0","30LSNF239VHTHW15HSX2EKIMMQHI2B","AJDHPRCJ985C7","3XT3KXP24ZKFDDMCDS43FE3AU9W6IW","","633","img/food5.png","75","633","2","0","false","1","2","1,0.5,0,1,0.5,0,0.5,0,1","1,0.5,0,1,0.5,0,0.5,0,1","1",""
"","html-keyboard-response","52","92497","0.0-76.0","30LSNF239VHTHW15HSX2EKIMMQHI2B","AJDHPRCJ985C7","3XT3KXP24ZKFDDMCDS43FE3AU9W6IW","","null","<img src=""img/food5.png"" style=""width:200px;border:14px solid red;"">","null","","","","","","","","","",""
"","image-keyboard-response","53","92988","0.0-78.0","30LSNF239VHTHW15HSX2EKIMMQHI2B","AJDHPRCJ985C7","3XT3KXP24ZKFDDMCDS43FE3AU9W6IW","","489","img/food5.png","76","491","3","0","false","1","2","1,0.5,0,1,0.5,0,0.5,0,1","1,0.5,0,1,0.5,0,0.5,0,1","1",""
"","html-keyboard-response","54","93294","0.0-79.0","30LSNF239VHTHW15HSX2EKIMMQHI2B","AJDHPRCJ985C7","3XT3KXP24ZKFDDMCDS43FE3AU9W6IW","","null","<img src=""img/food5.png"" style=""width:200px;border:14px solid red;"">","null","","","","","","","","","",""
"","image-keyboard-response","55","93540","0.0-81.0","30LSNF239VHTHW15HSX2EKIMMQHI2B","AJDHPRCJ985C7","3XT3KXP24ZKFDDMCDS43FE3AU9W6IW","","246","img/food4.png","76","246","3","1","false","3","2","1,0.5,0,1,0.5,0,0.5,0,1","1,0.5,0,1,0.5,0,0.5,0,1","1",""
"","html-keyboard-response","56","93842","0.0-82.0","30LSNF239VHTHW15HSX2EKIMMQHI2B","AJDHPRCJ985C7","3XT3KXP24ZKFDDMCDS43FE3AU9W6IW","","null","<img src=""img/food4.png"" style=""width:200px; border:14px solid green;"">","null","","","","","","","","","",""
"","image-keyboard-response","57","94140","0.0-84.0","30LSNF239VHTHW15HSX2EKIMMQHI2B","AJDHPRCJ985C7","3XT3KXP24ZKFDDMCDS43FE3AU9W6IW","","297","img/food4.png","76","297","3","1","false","3","2","1,0.5,0,1,0.5,0,0.5,0,1","1,0.5,0,1,0.5,0,0.5,0,1","1",""
"","html-keyboard-response","58","94446","0.0-85.0","30LSNF239VHTHW15HSX2EKIMMQHI2B","AJDHPRCJ985C7","3XT3KXP24ZKFDDMCDS43FE3AU9W6IW","","null","<img src=""img/food4.png"" style=""width:200px; border:14px solid green;"">","null","","","","","","","","","",""
"","image-keyboard-response","59","94764","0.0-87.0","30LSNF239VHTHW15HSX2EKIMMQHI2B","AJDHPRCJ985C7","3XT3KXP24ZKFDDMCDS43FE3AU9W6IW","","317","img/food5.png","76","319","3","0","false","1","2","1,0.5,0,1,0.5,0,0.5,0,1","1,0.5,0,1,0.5,0,0.5,0,1","1",""
"","html-keyboard-response","60","95066","0.0-88.0","30LSNF239VHTHW15HSX2EKIMMQHI2B","AJDHPRCJ985C7","3XT3KXP24ZKFDDMCDS43FE3AU9W6IW","","null","<img src=""img/food5.png"" style=""width:200px;border:14px solid red;"">","null","","","","","","","","","",""
"","image-keyboard-response","61","95468","0.0-90.0","30LSNF239VHTHW15HSX2EKIMMQHI2B","AJDHPRCJ985C7","3XT3KXP24ZKFDDMCDS43FE3AU9W6IW","","401","img/food5.png","74","402","1","1","false","1","2","1,0.5,0,1,0.5,0,0.5,0,1","1,0.5,0,1,0.5,0,0.5,0,1","1",""
"","html-keyboard-response","62","95771","0.0-91.0","30LSNF239VHTHW15HSX2EKIMMQHI2B","AJDHPRCJ985C7","3XT3KXP24ZKFDDMCDS43FE3AU9W6IW","","null","<img src=""img/food5.png"" style=""width:200px; border:14px solid green;"">","null","","","","","","","","","",""
"","image-keyboard-response","63","96188","0.0-93.0","30LSNF239VHTHW15HSX2EKIMMQHI2B","AJDHPRCJ985C7","3XT3KXP24ZKFDDMCDS43FE3AU9W6IW","","417","img/food5.png","74","417","1","1","false","1","2","1,0.5,0,1,0.5,0,0.5,0,1","1,0.5,0,1,0.5,0,0.5,0,1","1",""
"","html-keyboard-response","64","96493","0.0-94.0","30LSNF239VHTHW15HSX2EKIMMQHI2B","AJDHPRCJ985C7","3XT3KXP24ZKFDDMCDS43FE3AU9W6IW","","null","<img src=""img/food5.png"" style=""width:200px; border:14px solid green;"">","null","","","","","","","","","",""
"","image-keyboard-response","65","96820","0.0-96.0","30LSNF239VHTHW15HSX2EKIMMQHI2B","AJDHPRCJ985C7","3XT3KXP24ZKFDDMCDS43FE3AU9W6IW","","326","img/food5.png","74","326","1","1","false","1","2","1,0.5,0,1,0.5,0,0.5,0,1","1,0.5,0,1,0.5,0,0.5,0,1","1",""
"","html-keyboard-response","66","97121","0.0-97.0","30LSNF239VHTHW15HSX2EKIMMQHI2B","AJDHPRCJ985C7","3XT3KXP24ZKFDDMCDS43FE3AU9W6IW","","null","<img src=""img/food5.png"" style=""width:200px; border:14px solid green;"">","null","","","","","","","","","",""
"","image-keyboard-response","67","97412","0.0-99.0","30LSNF239VHTHW15HSX2EKIMMQHI2B","AJDHPRCJ985C7","3XT3KXP24ZKFDDMCDS43FE3AU9W6IW","","290","img/food5.png","74","292","1","1","false","1","2","1,0.5,0,1,0.5,0,0.5,0,1","1,0.5,0,1,0.5,0,0.5,0,1","1",""
"","html-keyboard-response","68","97718","0.0-100.0","30LSNF239VHTHW15HSX2EKIMMQHI2B","AJDHPRCJ985C7","3XT3KXP24ZKFDDMCDS43FE3AU9W6IW","","null","<img src=""img/food5.png"" style=""width:200px; border:14px solid green;"">","null","","","","","","","","","",""
"","image-keyboard-response","69","98124","0.0-102.0","30LSNF239VHTHW15HSX2EKIMMQHI2B","AJDHPRCJ985C7","3XT3KXP24ZKFDDMCDS43FE3AU9W6IW","","405","img/food6.png","74","405","1","1","false","2","2","1,0.5,0,1,0.5,0,0.5,0,1","1,0.5,0,1,0.5,0,0.5,0,1","1",""
"","html-keyboard-response","70","98430","0.0-103.0","30LSNF239VHTHW15HSX2EKIMMQHI2B","AJDHPRCJ985C7","3XT3KXP24ZKFDDMCDS43FE3AU9W6IW","","null","<img src=""img/food6.png"" style=""width:200px; border:14px solid green;"">","null","","","","","","","","","",""
"","image-keyboard-response","71","98692","0.0-105.0","30LSNF239VHTHW15HSX2EKIMMQHI2B","AJDHPRCJ985C7","3XT3KXP24ZKFDDMCDS43FE3AU9W6IW","","262","img/food5.png","74","262","1","1","false","1","2","1,0.5,0,1,0.5,0,0.5,0,1","1,0.5,0,1,0.5,0,0.5,0,1","1",""
"","html-keyboard-response","72","98994","0.0-106.0","30LSNF239VHTHW15HSX2EKIMMQHI2B","AJDHPRCJ985C7","3XT3KXP24ZKFDDMCDS43FE3AU9W6IW","","null","<img src=""img/food5.png"" style=""width:200px; border:14px solid green;"">","null","","","","","","","","","",""
"","image-keyboard-response","73","99381","0.0-108.0","30LSNF239VHTHW15HSX2EKIMMQHI2B","AJDHPRCJ985C7","3XT3KXP24ZKFDDMCDS43FE3AU9W6IW","","387","img/food4.png","74","388","1","0","false","3","2","1,0.5,0,1,0.5,0,0.5,0,1","1,0.5,0,1,0.5,0,0.5,0,1","1",""
"","html-keyboard-response","74","99684","0.0-109.0","30LSNF239VHTHW15HSX2EKIMMQHI2B","AJDHPRCJ985C7","3XT3KXP24ZKFDDMCDS43FE3AU9W6IW","","null","<img src=""img/food4.png"" style=""width:200px;border:14px solid red;"">","null","","","","","","","","","",""
"","image-keyboard-response","75","100117","0.0-111.0","30LSNF239VHTHW15HSX2EKIMMQHI2B","AJDHPRCJ985C7","3XT3KXP24ZKFDDMCDS43FE3AU9W6IW","","432","img/food5.png","74","432","1","1","false","1","2","1,0.5,0,1,0.5,0,0.5,0,1","1,0.5,0,1,0.5,0,0.5,0,1","1",""
"","html-keyboard-response","76","100421","0.0-112.0","30LSNF239VHTHW15HSX2EKIMMQHI2B","AJDHPRCJ985C7","3XT3KXP24ZKFDDMCDS43FE3AU9W6IW","","null","<img src=""img/food5.png"" style=""width:200px; border:14px solid green;"">","null","","","","","","","","","",""
"","image-keyboard-response","77","100852","0.0-114.0","30LSNF239VHTHW15HSX2EKIMMQHI2B","AJDHPRCJ985C7","3XT3KXP24ZKFDDMCDS43FE3AU9W6IW","","430","img/food5.png","74","431","1","1","false","1","2","1,0.5,0,1,0.5,0,0.5,0,1","1,0.5,0,1,0.5,0,0.5,0,1","1",""
"","html-keyboard-response","78","101154","0.0-115.0","30LSNF239VHTHW15HSX2EKIMMQHI2B","AJDHPRCJ985C7","3XT3KXP24ZKFDDMCDS43FE3AU9W6IW","","null","<img src=""img/food5.png"" style=""width:200px; border:14px solid green;"">","null","","","","","","","","","",""
"","image-keyboard-response","79","101589","0.0-117.0","30LSNF239VHTHW15HSX2EKIMMQHI2B","AJDHPRCJ985C7","3XT3KXP24ZKFDDMCDS43FE3AU9W6IW","","433","img/food6.png","74","434","1","1","false","2","2","1,0.5,0,1,0.5,0,0.5,0,1","1,0.5,0,1,0.5,0,0.5,0,1","1",""
"","html-keyboard-response","80","101894","0.0-118.0","30LSNF239VHTHW15HSX2EKIMMQHI2B","AJDHPRCJ985C7","3XT3KXP24ZKFDDMCDS43FE3AU9W6IW","","null","<img src=""img/food6.png"" style=""width:200px; border:14px solid green;"">","null","","","","","","","","","",""
"","image-keyboard-response","81","102340","0.0-120.0","30LSNF239VHTHW15HSX2EKIMMQHI2B","AJDHPRCJ985C7","3XT3KXP24ZKFDDMCDS43FE3AU9W6IW","","445","img/food5.png","74","445","1","1","false","1","2","1,0.5,0,1,0.5,0,0.5,0,1","1,0.5,0,1,0.5,0,0.5,0,1","1",""
"","html-keyboard-response","82","102642","0.0-121.0","30LSNF239VHTHW15HSX2EKIMMQHI2B","AJDHPRCJ985C7","3XT3KXP24ZKFDDMCDS43FE3AU9W6IW","","null","<img src=""img/food5.png"" style=""width:200px; border:14px solid green;"">","null","","","","","","","","","",""
"","image-keyboard-response","83","103036","0.0-123.0","30LSNF239VHTHW15HSX2EKIMMQHI2B","AJDHPRCJ985C7","3XT3KXP24ZKFDDMCDS43FE3AU9W6IW","","393","img/food5.png","74","393","1","1","false","1","2","1,0.5,0,1,0.5,0,0.5,0,1","1,0.5,0,1,0.5,0,0.5,0,1","1",""
"","html-keyboard-response","84","103341","0.0-124.0","30LSNF239VHTHW15HSX2EKIMMQHI2B","AJDHPRCJ985C7","3XT3KXP24ZKFDDMCDS43FE3AU9W6IW","","null","<img src=""img/food5.png"" style=""width:200px; border:14px solid green;"">","null","","","","","","","","","",""
"","image-keyboard-response","85","103716","0.0-126.0","30LSNF239VHTHW15HSX2EKIMMQHI2B","AJDHPRCJ985C7","3XT3KXP24ZKFDDMCDS43FE3AU9W6IW","","375","img/food5.png","74","376","1","1","false","1","2","1,0.5,0,1,0.5,0,0.5,0,1","1,0.5,0,1,0.5,0,0.5,0,1","1",""
"","html-keyboard-response","86","104017","0.0-127.0","30LSNF239VHTHW15HSX2EKIMMQHI2B","AJDHPRCJ985C7","3XT3KXP24ZKFDDMCDS43FE3AU9W6IW","","null","<img src=""img/food5.png"" style=""width:200px; border:14px solid green;"">","null","","","","","","","","","",""
"","image-keyboard-response","87","104451","0.0-129.0","30LSNF239VHTHW15HSX2EKIMMQHI2B","AJDHPRCJ985C7","3XT3KXP24ZKFDDMCDS43FE3AU9W6IW","","434","img/food4.png","76","434","3","1","false","3","2","1,0.5,0,1,0.5,0,0.5,0,1","1,0.5,0,1,0.5,0,0.5,0,1","1",""
"","html-keyboard-response","88","104758","0.0-130.0","30LSNF239VHTHW15HSX2EKIMMQHI2B","AJDHPRCJ985C7","3XT3KXP24ZKFDDMCDS43FE3AU9W6IW","","null","<img src=""img/food4.png"" style=""width:200px; border:14px solid green;"">","null","","","","","","","","","",""
"","image-keyboard-response","89","105140","0.0-132.0","30LSNF239VHTHW15HSX2EKIMMQHI2B","AJDHPRCJ985C7","3XT3KXP24ZKFDDMCDS43FE3AU9W6IW","","383","img/food6.png","74","383","1","1","false","2","2","1,0.5,0,1,0.5,0,0.5,0,1","1,0.5,0,1,0.5,0,0.5,0,1","1",""
"","html-keyboard-response","90","105446","0.0-133.0","30LSNF239VHTHW15HSX2EKIMMQHI2B","AJDHPRCJ985C7","3XT3KXP24ZKFDDMCDS43FE3AU9W6IW","","null","<img src=""img/food6.png"" style=""width:200px; border:14px solid green;"">","null","","","","","","","","","",""
"","image-keyboard-response","91","105805","0.0-135.0","30LSNF239VHTHW15HSX2EKIMMQHI2B","AJDHPRCJ985C7","3XT3KXP24ZKFDDMCDS43FE3AU9W6IW","","358","img/food5.png","74","358","1","1","false","1","2","1,0.5,0,1,0.5,0,0.5,0,1","1,0.5,0,1,0.5,0,0.5,0,1","1",""
"","html-keyboard-response","92","106110","0.0-136.0","30LSNF239VHTHW15HSX2EKIMMQHI2B","AJDHPRCJ985C7","3XT3KXP24ZKFDDMCDS43FE3AU9W6IW","","null","<img src=""img/food5.png"" style=""width:200px; border:14px solid green;"">","null","","","","","","","","","",""
"","image-keyboard-response","93","106580","0.0-138.0","30LSNF239VHTHW15HSX2EKIMMQHI2B","AJDHPRCJ985C7","3XT3KXP24ZKFDDMCDS43FE3AU9W6IW","","469","img/food6.png","74","469","1","1","false","2","2","1,0.5,0,1,0.5,0,0.5,0,1","1,0.5,0,1,0.5,0,0.5,0,1","1",""
"","html-keyboard-response","94","106886","0.0-139.0","30LSNF239VHTHW15HSX2EKIMMQHI2B","AJDHPRCJ985C7","3XT3KXP24ZKFDDMCDS43FE3AU9W6IW","","null","<img src=""img/food6.png"" style=""width:200px; border:14px solid green;"">","null","","","","","","","","","",""
"","image-keyboard-response","95","107341","0.0-141.0","30LSNF239VHTHW15HSX2EKIMMQHI2B","AJDHPRCJ985C7","3XT3KXP24ZKFDDMCDS43FE3AU9W6IW","","453","img/food4.png","76","454","3","1","false","3","2","1,0.5,0,1,0.5,0,0.5,0,1","1,0.5,0,1,0.5,0,0.5,0,1","1",""
"","html-keyboard-response","96","107645","0.0-142.0","30LSNF239VHTHW15HSX2EKIMMQHI2B","AJDHPRCJ985C7","3XT3KXP24ZKFDDMCDS43FE3AU9W6IW","","null","<img src=""img/food4.png"" style=""width:200px; border:14px solid green;"">","null","","","","","","","","","",""
"","image-keyboard-response","97","108068","0.0-144.0","30LSNF239VHTHW15HSX2EKIMMQHI2B","AJDHPRCJ985C7","3XT3KXP24ZKFDDMCDS43FE3AU9W6IW","","422","img/food6.png","74","423","1","1","false","2","2","1,0.5,0,1,0.5,0,0.5,0,1","1,0.5,0,1,0.5,0,0.5,0,1","1",""
"","html-keyboard-response","98","108372","0.0-145.0","30LSNF239VHTHW15HSX2EKIMMQHI2B","AJDHPRCJ985C7","3XT3KXP24ZKFDDMCDS43FE3AU9W6IW","","null","<img src=""img/food6.png"" style=""width:200px; border:14px solid green;"">","null","","","","","","","","","",""
"","image-keyboard-response","99","108781","0.0-147.0","30LSNF239VHTHW15HSX2EKIMMQHI2B","AJDHPRCJ985C7","3XT3KXP24ZKFDDMCDS43FE3AU9W6IW","","409","img/food6.png","74","409","1","1","false","2","2","1,0.5,0,1,0.5,0,0.5,0,1","1,0.5,0,1,0.5,0,0.5,0,1","1",""
"","html-keyboard-response","100","109086","0.0-148.0","30LSNF239VHTHW15HSX2EKIMMQHI2B","AJDHPRCJ985C7","3XT3KXP24ZKFDDMCDS43FE3AU9W6IW","","null","<img src=""img/food6.png"" style=""width:200px; border:14px solid green;"">","null","","","","","","","","","",""
"","image-keyboard-response","101","109597","0.0-150.0","30LSNF239VHTHW15HSX2EKIMMQHI2B","AJDHPRCJ985C7","3XT3KXP24ZKFDDMCDS43FE3AU9W6IW","","509","img/food5.png","74","510","1","1","false","1","2","1,0.5,0,1,0.5,0,0.5,0,1","1,0.5,0,1,0.5,0,0.5,0,1","1",""
"","html-keyboard-response","102","109899","0.0-151.0","30LSNF239VHTHW15HSX2EKIMMQHI2B","AJDHPRCJ985C7","3XT3KXP24ZKFDDMCDS43FE3AU9W6IW","","null","<img src=""img/food5.png"" style=""width:200px; border:14px solid green;"">","null","","","","","","","","","",""
"","image-keyboard-response","103","110349","0.0-153.0","30LSNF239VHTHW15HSX2EKIMMQHI2B","AJDHPRCJ985C7","3XT3KXP24ZKFDDMCDS43FE3AU9W6IW","","450","img/food6.png","74","450","1","1","false","2","2","1,0.5,0,1,0.5,0,0.5,0,1","1,0.5,0,1,0.5,0,0.5,0,1","1",""
"","html-keyboard-response","104","110650","0.0-154.0","30LSNF239VHTHW15HSX2EKIMMQHI2B","AJDHPRCJ985C7","3XT3KXP24ZKFDDMCDS43FE3AU9W6IW","","null","<img src=""img/food6.png"" style=""width:200px; border:14px solid green;"">","null","","","","","","","","","",""
"","image-keyboard-response","105","111061","0.0-156.0","30LSNF239VHTHW15HSX2EKIMMQHI2B","AJDHPRCJ985C7","3XT3KXP24ZKFDDMCDS43FE3AU9W6IW","","409","img/food6.png","74","409","1","1","false","2","2","1,0.5,0,1,0.5,0,0.5,0,1","1,0.5,0,1,0.5,0,0.5,0,1","1",""
"","html-keyboard-response","106","111365","0.0-157.0","30LSNF239VHTHW15HSX2EKIMMQHI2B","AJDHPRCJ985C7","3XT3KXP24ZKFDDMCDS43FE3AU9W6IW","","null","<img src=""img/food6.png"" style=""width:200px; border:14px solid green;"">","null","","","","","","","","","",""
"","image-keyboard-response","107","111925","0.0-159.0","30LSNF239VHTHW15HSX2EKIMMQHI2B","AJDHPRCJ985C7","3XT3KXP24ZKFDDMCDS43FE3AU9W6IW","","559","img/food4.png","76","559","3","1","false","3","2","1,0.5,0,1,0.5,0,0.5,0,1","1,0.5,0,1,0.5,0,0.5,0,1","1",""
"","html-keyboard-response","108","112231","0.0-160.0","30LSNF239VHTHW15HSX2EKIMMQHI2B","AJDHPRCJ985C7","3XT3KXP24ZKFDDMCDS43FE3AU9W6IW","","null","<img src=""img/food4.png"" style=""width:200px; border:14px solid green;"">","null","","","","","","","","","",""
"","image-keyboard-response","109","112717","0.0-162.0","30LSNF239VHTHW15HSX2EKIMMQHI2B","AJDHPRCJ985C7","3XT3KXP24ZKFDDMCDS43FE3AU9W6IW","","485","img/food4.png","76","485","3","1","false","3","2","1,0.5,0,1,0.5,0,0.5,0,1","1,0.5,0,1,0.5,0,0.5,0,1","1",""
"","html-keyboard-response","110","113021","0.0-163.0","30LSNF239VHTHW15HSX2EKIMMQHI2B","AJDHPRCJ985C7","3XT3KXP24ZKFDDMCDS43FE3AU9W6IW","","null","<img src=""img/food4.png"" style=""width:200px; border:14px solid green;"">","null","","","","","","","","","",""
"","image-keyboard-response","111","113492","0.0-165.0","30LSNF239VHTHW15HSX2EKIMMQHI2B","AJDHPRCJ985C7","3XT3KXP24ZKFDDMCDS43FE3AU9W6IW","","470","img/food6.png","74","471","1","1","false","2","2","1,0.5,0,1,0.5,0,0.5,0,1","1,0.5,0,1,0.5,0,0.5,0,1","1",""
"","html-keyboard-response","112","113799","0.0-166.0","30LSNF239VHTHW15HSX2EKIMMQHI2B","AJDHPRCJ985C7","3XT3KXP24ZKFDDMCDS43FE3AU9W6IW","","null","<img src=""img/food6.png"" style=""width:200px; border:14px solid green;"">","null","","","","","","","","","",""
"","image-keyboard-response","113","114189","0.0-168.0","30LSNF239VHTHW15HSX2EKIMMQHI2B","AJDHPRCJ985C7","3XT3KXP24ZKFDDMCDS43FE3AU9W6IW","","390","img/food6.png","74","391","1","1","false","2","2","1,0.5,0,1,0.5,0,0.5,0,1","1,0.5,0,1,0.5,0,0.5,0,1","1",""
"","html-keyboard-response","114","114494","0.0-169.0","30LSNF239VHTHW15HSX2EKIMMQHI2B","AJDHPRCJ985C7","3XT3KXP24ZKFDDMCDS43FE3AU9W6IW","","null","<img src=""img/food6.png"" style=""width:200px; border:14px solid green;"">","null","","","","","","","","","",""
"","image-keyboard-response","115","115029","0.0-171.0","30LSNF239VHTHW15HSX2EKIMMQHI2B","AJDHPRCJ985C7","3XT3KXP24ZKFDDMCDS43FE3AU9W6IW","","536","img/food4.png","76","536","3","1","false","3","2","1,0.5,0,1,0.5,0,0.5,0,1","1,0.5,0,1,0.5,0,0.5,0,1","1",""
"","html-keyboard-response","116","115334","0.0-172.0","30LSNF239VHTHW15HSX2EKIMMQHI2B","AJDHPRCJ985C7","3XT3KXP24ZKFDDMCDS43FE3AU9W6IW","","null","<img src=""img/food4.png"" style=""width:200px; border:14px solid green;"">","null","","","","","","","","","",""
"","image-keyboard-response","117","115693","0.0-174.0","30LSNF239VHTHW15HSX2EKIMMQHI2B","AJDHPRCJ985C7","3XT3KXP24ZKFDDMCDS43FE3AU9W6IW","","358","img/food4.png","76","359","3","1","false","3","2","1,0.5,0,1,0.5,0,0.5,0,1","1,0.5,0,1,0.5,0,0.5,0,1","1",""
"","html-keyboard-response","118","115998","0.0-175.0","30LSNF239VHTHW15HSX2EKIMMQHI2B","AJDHPRCJ985C7","3XT3KXP24ZKFDDMCDS43FE3AU9W6IW","","null","<img src=""img/food4.png"" style=""width:200px; border:14px solid green;"">","null","","","","","","","","","",""
"","image-keyboard-response","119","116484","0.0-177.0","30LSNF239VHTHW15HSX2EKIMMQHI2B","AJDHPRCJ985C7","3XT3KXP24ZKFDDMCDS43FE3AU9W6IW","","485","img/food5.png","74","485","1","1","false","1","2","1,0.5,0,1,0.5,0,0.5,0,1","1,0.5,0,1,0.5,0,0.5,0,1","1",""
"","html-keyboard-response","120","116786","0.0-178.0","30LSNF239VHTHW15HSX2EKIMMQHI2B","AJDHPRCJ985C7","3XT3KXP24ZKFDDMCDS43FE3AU9W6IW","","null","<img src=""img/food5.png"" style=""width:200px; border:14px solid green;"">","null","","","","","","","","","",""
"","image-keyboard-response","121","117269","0.0-180.0","30LSNF239VHTHW15HSX2EKIMMQHI2B","AJDHPRCJ985C7","3XT3KXP24ZKFDDMCDS43FE3AU9W6IW","","481","img/food5.png","74","483","1","1","false","1","2","1,0.5,0,1,0.5,0,0.5,0,1","1,0.5,0,1,0.5,0,0.5,0,1","1",""
"","html-keyboard-response","122","117571","0.0-181.0","30LSNF239VHTHW15HSX2EKIMMQHI2B","AJDHPRCJ985C7","3XT3KXP24ZKFDDMCDS43FE3AU9W6IW","","null","<img src=""img/food5.png"" style=""width:200px; border:14px solid green;"">","null","","","","","","","","","",""
"","image-keyboard-response","123","118181","0.0-183.0","30LSNF239VHTHW15HSX2EKIMMQHI2B","AJDHPRCJ985C7","3XT3KXP24ZKFDDMCDS43FE3AU9W6IW","","609","img/food4.png","76","609","3","1","false","3","2","1,0.5,0,1,0.5,0,0.5,0,1","1,0.5,0,1,0.5,0,0.5,0,1","1",""
"","html-keyboard-response","124","118490","0.0-184.0","30LSNF239VHTHW15HSX2EKIMMQHI2B","AJDHPRCJ985C7","3XT3KXP24ZKFDDMCDS43FE3AU9W6IW","","null","<img src=""img/food4.png"" style=""width:200px; border:14px solid green;"">","null","","","","","","","","","",""
"","image-keyboard-response","125","119061","0.0-186.0","30LSNF239VHTHW15HSX2EKIMMQHI2B","AJDHPRCJ985C7","3XT3KXP24ZKFDDMCDS43FE3AU9W6IW","","570","img/food6.png","74","571","1","1","false","2","2","1,0.5,0,1,0.5,0,0.5,0,1","1,0.5,0,1,0.5,0,0.5,0,1","1",""
"","html-keyboard-response","126","119365","0.0-187.0","30LSNF239VHTHW15HSX2EKIMMQHI2B","AJDHPRCJ985C7","3XT3KXP24ZKFDDMCDS43FE3AU9W6IW","","null","<img src=""img/food6.png"" style=""width:200px; border:14px solid green;"">","null","","","","","","","","","",""
"","image-keyboard-response","127","119829","0.0-189.0","30LSNF239VHTHW15HSX2EKIMMQHI2B","AJDHPRCJ985C7","3XT3KXP24ZKFDDMCDS43FE3AU9W6IW","","463","img/food6.png","74","463","1","1","false","2","2","1,0.5,0,1,0.5,0,0.5,0,1","1,0.5,0,1,0.5,0,0.5,0,1","1",""
"","html-keyboard-response","128","120133","0.0-190.0","30LSNF239VHTHW15HSX2EKIMMQHI2B","AJDHPRCJ985C7","3XT3KXP24ZKFDDMCDS43FE3AU9W6IW","","null","<img src=""img/food6.png"" style=""width:200px; border:14px solid green;"">","null","","","","","","","","","",""
"","image-keyboard-response","129","120541","0.0-192.0","30LSNF239VHTHW15HSX2EKIMMQHI2B","AJDHPRCJ985C7","3XT3KXP24ZKFDDMCDS43FE3AU9W6IW","","407","img/food6.png","74","408","1","1","false","2","2","1,0.5,0,1,0.5,0,0.5,0,1","1,0.5,0,1,0.5,0,0.5,0,1","1",""
"","html-keyboard-response","130","120842","0.0-193.0","30LSNF239VHTHW15HSX2EKIMMQHI2B","AJDHPRCJ985C7","3XT3KXP24ZKFDDMCDS43FE3AU9W6IW","","null","<img src=""img/food6.png"" style=""width:200px; border:14px solid green;"">","null","","","","","","","","","",""
"","image-keyboard-response","131","121397","0.0-195.0","30LSNF239VHTHW15HSX2EKIMMQHI2B","AJDHPRCJ985C7","3XT3KXP24ZKFDDMCDS43FE3AU9W6IW","","555","img/food4.png","76","555","3","1","false","3","2","1,0.5,0,1,0.5,0,0.5,0,1","1,0.5,0,1,0.5,0,0.5,0,1","1",""
"","html-keyboard-response","132","121698","0.0-196.0","30LSNF239VHTHW15HSX2EKIMMQHI2B","AJDHPRCJ985C7","3XT3KXP24ZKFDDMCDS43FE3AU9W6IW","","null","<img src=""img/food4.png"" style=""width:200px; border:14px solid green;"">","null","","","","","","","","","",""
"","image-keyboard-response","133","122173","0.0-198.0","30LSNF239VHTHW15HSX2EKIMMQHI2B","AJDHPRCJ985C7","3XT3KXP24ZKFDDMCDS43FE3AU9W6IW","","474","img/food4.png","76","475","3","1","false","3","2","1,0.5,0,1,0.5,0,0.5,0,1","1,0.5,0,1,0.5,0,0.5,0,1","1",""
"","html-keyboard-response","134","122475","0.0-199.0","30LSNF239VHTHW15HSX2EKIMMQHI2B","AJDHPRCJ985C7","3XT3KXP24ZKFDDMCDS43FE3AU9W6IW","","null","<img src=""img/food4.png"" style=""width:200px; border:14px solid green;"">","null","","","","","","","","","",""
"","image-keyboard-response","135","122973","0.0-201.0","30LSNF239VHTHW15HSX2EKIMMQHI2B","AJDHPRCJ985C7","3XT3KXP24ZKFDDMCDS43FE3AU9W6IW","","498","img/food4.png","76","498","3","1","false","3","2","1,0.5,0,1,0.5,0,0.5,0,1","1,0.5,0,1,0.5,0,0.5,0,1","1",""
"","html-keyboard-response","136","123274","0.0-202.0","30LSNF239VHTHW15HSX2EKIMMQHI2B","AJDHPRCJ985C7","3XT3KXP24ZKFDDMCDS43FE3AU9W6IW","","null","<img src=""img/food4.png"" style=""width:200px; border:14px solid green;"">","null","","","","","","","","","",""
"","image-keyboard-response","137","123813","0.0-204.0","30LSNF239VHTHW15HSX2EKIMMQHI2B","AJDHPRCJ985C7","3XT3KXP24ZKFDDMCDS43FE3AU9W6IW","","539","img/food5.png","74","539","1","1","false","1","2","1,0.5,0,1,0.5,0,0.5,0,1","1,0.5,0,1,0.5,0,0.5,0,1","1",""
"","html-keyboard-response","138","124114","0.0-205.0","30LSNF239VHTHW15HSX2EKIMMQHI2B","AJDHPRCJ985C7","3XT3KXP24ZKFDDMCDS43FE3AU9W6IW","","null","<img src=""img/food5.png"" style=""width:200px; border:14px solid green;"">","null","","","","","","","","","",""
"","image-keyboard-response","139","124653","0.0-207.0","30LSNF239VHTHW15HSX2EKIMMQHI2B","AJDHPRCJ985C7","3XT3KXP24ZKFDDMCDS43FE3AU9W6IW","","538","img/food6.png","74","538","1","1","false","2","2","1,0.5,0,1,0.5,0,0.5,0,1","1,0.5,0,1,0.5,0,0.5,0,1","1",""
"","html-keyboard-response","140","124977","0.0-208.0","30LSNF239VHTHW15HSX2EKIMMQHI2B","AJDHPRCJ985C7","3XT3KXP24ZKFDDMCDS43FE3AU9W6IW","","null","<img src=""img/food6.png"" style=""width:200px; border:14px solid green;"">","null","","","","","","","","","",""
"","image-keyboard-response","141","125525","0.0-210.0","30LSNF239VHTHW15HSX2EKIMMQHI2B","AJDHPRCJ985C7","3XT3KXP24ZKFDDMCDS43FE3AU9W6IW","","547","img/food5.png","74","547","1","1","false","1","2","1,0.5,0,1,0.5,0,0.5,0,1","1,0.5,0,1,0.5,0,0.5,0,1","1",""
"","html-keyboard-response","142","125828","0.0-211.0","30LSNF239VHTHW15HSX2EKIMMQHI2B","AJDHPRCJ985C7","3XT3KXP24ZKFDDMCDS43FE3AU9W6IW","","null","<img src=""img/food5.png"" style=""width:200px; border:14px solid green;"">","null","","","","","","","","","",""
"","image-keyboard-response","143","126261","0.0-213.0","30LSNF239VHTHW15HSX2EKIMMQHI2B","AJDHPRCJ985C7","3XT3KXP24ZKFDDMCDS43FE3AU9W6IW","","433","img/food6.png","74","433","1","1","false","2","2","1,0.5,0,1,0.5,0,0.5,0,1","1,0.5,0,1,0.5,0,0.5,0,1","1",""
"","html-keyboard-response","144","126562","0.0-214.0","30LSNF239VHTHW15HSX2EKIMMQHI2B","AJDHPRCJ985C7","3XT3KXP24ZKFDDMCDS43FE3AU9W6IW","","null","<img src=""img/food6.png"" style=""width:200px; border:14px solid green;"">","null","","","","","","","","","",""
"","image-keyboard-response","145","126982","0.0-216.0","30LSNF239VHTHW15HSX2EKIMMQHI2B","AJDHPRCJ985C7","3XT3KXP24ZKFDDMCDS43FE3AU9W6IW","","418","img/food6.png","74","418","1","1","false","2","2","1,0.5,0,1,0.5,0,0.5,0,1","1,0.5,0,1,0.5,0,0.5,0,1","1",""
"","html-keyboard-response","146","127286","0.0-217.0","30LSNF239VHTHW15HSX2EKIMMQHI2B","AJDHPRCJ985C7","3XT3KXP24ZKFDDMCDS43FE3AU9W6IW","","null","<img src=""img/food6.png"" style=""width:200px; border:14px solid green;"">","null","","","","","","","","","",""
"","image-keyboard-response","147","127710","0.0-219.0","30LSNF239VHTHW15HSX2EKIMMQHI2B","AJDHPRCJ985C7","3XT3KXP24ZKFDDMCDS43FE3AU9W6IW","","421","img/food6.png","74","422","1","1","false","2","2","1,0.5,0,1,0.5,0,0.5,0,1","1,0.5,0,1,0.5,0,0.5,0,1","1",""
"","html-keyboard-response","148","128011","0.0-220.0","30LSNF239VHTHW15HSX2EKIMMQHI2B","AJDHPRCJ985C7","3XT3KXP24ZKFDDMCDS43FE3AU9W6IW","","null","<img src=""img/food6.png"" style=""width:200px; border:14px solid green;"">","null","","","","","","","","","",""
"","image-keyboard-response","149","128485","0.0-222.0","30LSNF239VHTHW15HSX2EKIMMQHI2B","AJDHPRCJ985C7","3XT3KXP24ZKFDDMCDS43FE3AU9W6IW","","473","img/food4.png","76","474","3","1","false","3","2","1,0.5,0,1,0.5,0,0.5,0,1","1,0.5,0,1,0.5,0,0.5,0,1","1",""
"","html-keyboard-response","150","128789","0.0-223.0","30LSNF239VHTHW15HSX2EKIMMQHI2B","AJDHPRCJ985C7","3XT3KXP24ZKFDDMCDS43FE3AU9W6IW","","null","<img src=""img/food4.png"" style=""width:200px; border:14px solid green;"">","null","","","","","","","","","",""
"","image-keyboard-response","151","129190","0.0-225.0","30LSNF239VHTHW15HSX2EKIMMQHI2B","AJDHPRCJ985C7","3XT3KXP24ZKFDDMCDS43FE3AU9W6IW","","400","img/food4.png","76","401","3","1","false","3","2","1,0.5,0,1,0.5,0,0.5,0,1","1,0.5,0,1,0.5,0,0.5,0,1","1",""
"","html-keyboard-response","152","129492","0.0-226.0","30LSNF239VHTHW15HSX2EKIMMQHI2B","AJDHPRCJ985C7","3XT3KXP24ZKFDDMCDS43FE3AU9W6IW","","null","<img src=""img/food4.png"" style=""width:200px; border:14px solid green;"">","null","","","","","","","","","",""
"","image-keyboard-response","153","130045","0.0-228.0","30LSNF239VHTHW15HSX2EKIMMQHI2B","AJDHPRCJ985C7","3XT3KXP24ZKFDDMCDS43FE3AU9W6IW","","554","img/food5.png","74","554","1","1","false","1","2","1,0.5,0,1,0.5,0,0.5,0,1","1,0.5,0,1,0.5,0,0.5,0,1","1",""
"","html-keyboard-response","154","130351","0.0-229.0","30LSNF239VHTHW15HSX2EKIMMQHI2B","AJDHPRCJ985C7","3XT3KXP24ZKFDDMCDS43FE3AU9W6IW","","null","<img src=""img/food5.png"" style=""width:200px; border:14px solid green;"">","null","","","","","","","","","",""
"","image-keyboard-response","155","130749","0.0-231.0","30LSNF239VHTHW15HSX2EKIMMQHI2B","AJDHPRCJ985C7","3XT3KXP24ZKFDDMCDS43FE3AU9W6IW","","397","img/food4.png","74","397","1","1","false","3","2","1,0.5,0,1,0.5,0,0.5,0,1","1,0.5,0,1,0.5,0,0.5,0,1","1",""
"","html-keyboard-response","156","131051","0.0-232.0","30LSNF239VHTHW15HSX2EKIMMQHI2B","AJDHPRCJ985C7","3XT3KXP24ZKFDDMCDS43FE3AU9W6IW","","null","<img src=""img/food4.png"" style=""width:200px; border:14px solid green;"">","null","","","","","","","","","",""
"","image-keyboard-response","157","131957","0.0-234.0","30LSNF239VHTHW15HSX2EKIMMQHI2B","AJDHPRCJ985C7","3XT3KXP24ZKFDDMCDS43FE3AU9W6IW","","906","img/food6.png","74","906","1","1","false","2","2","1,0.5,0,1,0.5,0,0.5,0,1","1,0.5,0,1,0.5,0,0.5,0,1","1",""
"","html-keyboard-response","158","132259","0.0-235.0","30LSNF239VHTHW15HSX2EKIMMQHI2B","AJDHPRCJ985C7","3XT3KXP24ZKFDDMCDS43FE3AU9W6IW","","null","<img src=""img/food6.png"" style=""width:200px; border:14px solid green;"">","null","","","","","","","","","",""
"","image-keyboard-response","159","132717","0.0-237.0","30LSNF239VHTHW15HSX2EKIMMQHI2B","AJDHPRCJ985C7","3XT3KXP24ZKFDDMCDS43FE3AU9W6IW","","458","img/food6.png","74","458","1","1","false","2","2","1,0.5,0,1,0.5,0,0.5,0,1","1,0.5,0,1,0.5,0,0.5,0,1","1",""
"","html-keyboard-response","160","133056","0.0-238.0","30LSNF239VHTHW15HSX2EKIMMQHI2B","AJDHPRCJ985C7","3XT3KXP24ZKFDDMCDS43FE3AU9W6IW","","null","<img src=""img/food6.png"" style=""width:200px; border:14px solid green;"">","null","","","","","","","","","",""
"","image-keyboard-response","161","133404","0.0-240.0","30LSNF239VHTHW15HSX2EKIMMQHI2B","AJDHPRCJ985C7","3XT3KXP24ZKFDDMCDS43FE3AU9W6IW","","346","img/food6.png","74","347","1","1","false","2","2","1,0.5,0,1,0.5,0,0.5,0,1","1,0.5,0,1,0.5,0,0.5,0,1","1",""
"","html-keyboard-response","162","133707","0.0-241.0","30LSNF239VHTHW15HSX2EKIMMQHI2B","AJDHPRCJ985C7","3XT3KXP24ZKFDDMCDS43FE3AU9W6IW","","null","<img src=""img/food6.png"" style=""width:200px; border:14px solid green;"">","null","","","","","","","","","",""
"","image-keyboard-response","163","134117","0.0-243.0","30LSNF239VHTHW15HSX2EKIMMQHI2B","AJDHPRCJ985C7","3XT3KXP24ZKFDDMCDS43FE3AU9W6IW","","410","img/food6.png","74","410","1","1","false","2","2","1,0.5,0,1,0.5,0,0.5,0,1","1,0.5,0,1,0.5,0,0.5,0,1","1",""
"","html-keyboard-response","164","134423","0.0-244.0","30LSNF239VHTHW15HSX2EKIMMQHI2B","AJDHPRCJ985C7","3XT3KXP24ZKFDDMCDS43FE3AU9W6IW","","null","<img src=""img/food6.png"" style=""width:200px; border:14px solid green;"">","null","","","","","","","","","",""
"","image-keyboard-response","165","135197","0.0-246.0","30LSNF239VHTHW15HSX2EKIMMQHI2B","AJDHPRCJ985C7","3XT3KXP24ZKFDDMCDS43FE3AU9W6IW","","774","img/food5.png","74","775","1","1","false","1","2","1,0.5,0,1,0.5,0,0.5,0,1","1,0.5,0,1,0.5,0,0.5,0,1","1",""
"","html-keyboard-response","166","135499","0.0-247.0","30LSNF239VHTHW15HSX2EKIMMQHI2B","AJDHPRCJ985C7","3XT3KXP24ZKFDDMCDS43FE3AU9W6IW","","null","<img src=""img/food5.png"" style=""width:200px; border:14px solid green;"">","null","","","","","","","","","",""
"","image-keyboard-response","167","136021","0.0-249.0","30LSNF239VHTHW15HSX2EKIMMQHI2B","AJDHPRCJ985C7","3XT3KXP24ZKFDDMCDS43FE3AU9W6IW","","521","img/food4.png","76","522","3","1","false","3","2","1,0.5,0,1,0.5,0,0.5,0,1","1,0.5,0,1,0.5,0,0.5,0,1","1",""
"","html-keyboard-response","168","136326","0.0-250.0","30LSNF239VHTHW15HSX2EKIMMQHI2B","AJDHPRCJ985C7","3XT3KXP24ZKFDDMCDS43FE3AU9W6IW","","null","<img src=""img/food4.png"" style=""width:200px; border:14px solid green;"">","null","","","","","","","","","",""
"","image-keyboard-response","169","136765","0.0-252.0","30LSNF239VHTHW15HSX2EKIMMQHI2B","AJDHPRCJ985C7","3XT3KXP24ZKFDDMCDS43FE3AU9W6IW","","438","img/food6.png","74","439","1","1","false","2","2","1,0.5,0,1,0.5,0,0.5,0,1","1,0.5,0,1,0.5,0,0.5,0,1","1",""
"","html-keyboard-response","170","137097","0.0-253.0","30LSNF239VHTHW15HSX2EKIMMQHI2B","AJDHPRCJ985C7","3XT3KXP24ZKFDDMCDS43FE3AU9W6IW","","null","<img src=""img/food6.png"" style=""width:200px; border:14px solid green;"">","null","","","","","","","","","",""
"","image-keyboard-response","171","137422","0.0-255.0","30LSNF239VHTHW15HSX2EKIMMQHI2B","AJDHPRCJ985C7","3XT3KXP24ZKFDDMCDS43FE3AU9W6IW","","325","img/food6.png","74","325","1","1","false","2","2","1,0.5,0,1,0.5,0,0.5,0,1","1,0.5,0,1,0.5,0,0.5,0,1","1",""
"","html-keyboard-response","172","137722","0.0-256.0","30LSNF239VHTHW15HSX2EKIMMQHI2B","AJDHPRCJ985C7","3XT3KXP24ZKFDDMCDS43FE3AU9W6IW","","null","<img src=""img/food6.png"" style=""width:200px; border:14px solid green;"">","null","","","","","","","","","",""
"","image-keyboard-response","173","138398","0.0-258.0","30LSNF239VHTHW15HSX2EKIMMQHI2B","AJDHPRCJ985C7","3XT3KXP24ZKFDDMCDS43FE3AU9W6IW","","674","img/food4.png","76","674","3","1","false","3","2","1,0.5,0,1,0.5,0,0.5,0,1","1,0.5,0,1,0.5,0,0.5,0,1","1",""
"","html-keyboard-response","174","138724","0.0-259.0","30LSNF239VHTHW15HSX2EKIMMQHI2B","AJDHPRCJ985C7","3XT3KXP24ZKFDDMCDS43FE3AU9W6IW","","null","<img src=""img/food4.png"" style=""width:200px; border:14px solid green;"">","null","","","","","","","","","",""
"","image-keyboard-response","175","139198","0.0-261.0","30LSNF239VHTHW15HSX2EKIMMQHI2B","AJDHPRCJ985C7","3XT3KXP24ZKFDDMCDS43FE3AU9W6IW","","474","img/food5.png","74","474","1","1","false","1","2","1,0.5,0,1,0.5,0,0.5,0,1","1,0.5,0,1,0.5,0,0.5,0,1","1",""
"","html-keyboard-response","176","139499","0.0-262.0","30LSNF239VHTHW15HSX2EKIMMQHI2B","AJDHPRCJ985C7","3XT3KXP24ZKFDDMCDS43FE3AU9W6IW","","null","<img src=""img/food5.png"" style=""width:200px; border:14px solid green;"">","null","","","","","","","","","",""
"","image-keyboard-response","177","139838","0.0-264.0","30LSNF239VHTHW15HSX2EKIMMQHI2B","AJDHPRCJ985C7","3XT3KXP24ZKFDDMCDS43FE3AU9W6IW","","339","img/food6.png","74","339","1","1","false","2","2","1,0.5,0,1,0.5,0,0.5,0,1","1,0.5,0,1,0.5,0,0.5,0,1","1",""
"","html-keyboard-response","178","140140","0.0-265.0","30LSNF239VHTHW15HSX2EKIMMQHI2B","AJDHPRCJ985C7","3XT3KXP24ZKFDDMCDS43FE3AU9W6IW","","null","<img src=""img/food6.png"" style=""width:200px; border:14px solid green;"">","null","","","","","","","","","",""
"","image-keyboard-response","179","140630","0.0-267.0","30LSNF239VHTHW15HSX2EKIMMQHI2B","AJDHPRCJ985C7","3XT3KXP24ZKFDDMCDS43FE3AU9W6IW","","489","img/food5.png","74","490","1","1","false","1","2","1,0.5,0,1,0.5,0,0.5,0,1","1,0.5,0,1,0.5,0,0.5,0,1","1",""
"","html-keyboard-response","180","140933","0.0-268.0","30LSNF239VHTHW15HSX2EKIMMQHI2B","AJDHPRCJ985C7","3XT3KXP24ZKFDDMCDS43FE3AU9W6IW","","null","<img src=""img/food5.png"" style=""width:200px; border:14px solid green;"">","null","","","","","","","","","",""
"","image-keyboard-response","181","141310","0.0-270.0","30LSNF239VHTHW15HSX2EKIMMQHI2B","AJDHPRCJ985C7","3XT3KXP24ZKFDDMCDS43FE3AU9W6IW","","376","img/food5.png","74","376","1","1","false","1","2","1,0.5,0,1,0.5,0,0.5,0,1","1,0.5,0,1,0.5,0,0.5,0,1","1",""
"","html-keyboard-response","182","141612","0.0-271.0","30LSNF239VHTHW15HSX2EKIMMQHI2B","AJDHPRCJ985C7","3XT3KXP24ZKFDDMCDS43FE3AU9W6IW","","null","<img src=""img/food5.png"" style=""width:200px; border:14px solid green;"">","null","","","","","","","","","",""
"","instructions","183","149497","0.0-273.0","30LSNF239VHTHW15HSX2EKIMMQHI2B","AJDHPRCJ985C7","3XT3KXP24ZKFDDMCDS43FE3AU9W6IW","[{""page_index"":0,""viewing_time"":6487},{""page_index"":1,""viewing_time"":1399}]","7886","","","","","","","","","","","",""
"","image-keyboard-response","184","151782","0.0-274.0","30LSNF239VHTHW15HSX2EKIMMQHI2B","AJDHPRCJ985C7","3XT3KXP24ZKFDDMCDS43FE3AU9W6IW","","2284","img/food3.png","74","2285","1","0","","3","1","1,0.5,0,1,0.5,0,0.5,0,1","0.5,0,1,0.5,0,1,0,1,0.5","2",""
"","html-keyboard-response","185","152087","0.0-275.0","30LSNF239VHTHW15HSX2EKIMMQHI2B","AJDHPRCJ985C7","3XT3KXP24ZKFDDMCDS43FE3AU9W6IW","","null","<img src=""img/food3.png"" style=""width:200px;border:14px solid red;"">","null","","","","","","","","","",""
"","image-keyboard-response","186","153166","0.0-276.0","30LSNF239VHTHW15HSX2EKIMMQHI2B","AJDHPRCJ985C7","3XT3KXP24ZKFDDMCDS43FE3AU9W6IW","","1079","img/food1.png","74","1079","1","0","","2","1","1,0.5,0,1,0.5,0,0.5,0,1","0.5,0,1,0.5,0,1,0,1,0.5","2",""
"","html-keyboard-response","187","153468","0.0-277.0","30LSNF239VHTHW15HSX2EKIMMQHI2B","AJDHPRCJ985C7","3XT3KXP24ZKFDDMCDS43FE3AU9W6IW","","null","<img src=""img/food1.png"" style=""width:200px;border:14px solid red;"">","null","","","","","","","","","",""
"","image-keyboard-response","188","154910","0.0-278.0","30LSNF239VHTHW15HSX2EKIMMQHI2B","AJDHPRCJ985C7","3XT3KXP24ZKFDDMCDS43FE3AU9W6IW","","1442","img/food1.png","75","1443","2","0","","2","1","1,0.5,0,1,0.5,0,0.5,0,1","0.5,0,1,0.5,0,1,0,1,0.5","2",""
"","html-keyboard-response","189","155214","0.0-279.0","30LSNF239VHTHW15HSX2EKIMMQHI2B","AJDHPRCJ985C7","3XT3KXP24ZKFDDMCDS43FE3AU9W6IW","","null","<img src=""img/food1.png"" style=""width:200px;border:14px solid red;"">","null","","","","","","","","","",""
"","image-keyboard-response","190","156902","0.0-280.0","30LSNF239VHTHW15HSX2EKIMMQHI2B","AJDHPRCJ985C7","3XT3KXP24ZKFDDMCDS43FE3AU9W6IW","","1686","img/food3.png","76","1687","3","1","","3","1","1,0.5,0,1,0.5,0,0.5,0,1","0.5,0,1,0.5,0,1,0,1,0.5","2",""
"","html-keyboard-response","191","157204","0.0-281.0","30LSNF239VHTHW15HSX2EKIMMQHI2B","AJDHPRCJ985C7","3XT3KXP24ZKFDDMCDS43FE3AU9W6IW","","null","<img src=""img/food3.png"" style=""width:200px; border:14px solid green;"">","null","","","","","","","","","",""
"","image-keyboard-response","192","158342","0.0-282.0","30LSNF239VHTHW15HSX2EKIMMQHI2B","AJDHPRCJ985C7","3XT3KXP24ZKFDDMCDS43FE3AU9W6IW","","1137","img/food1.png","76","1137","3","1","","2","1","1,0.5,0,1,0.5,0,0.5,0,1","0.5,0,1,0.5,0,1,0,1,0.5","2",""
"","html-keyboard-response","193","158646","0.0-283.0","30LSNF239VHTHW15HSX2EKIMMQHI2B","AJDHPRCJ985C7","3XT3KXP24ZKFDDMCDS43FE3AU9W6IW","","null","<img src=""img/food1.png"" style=""width:200px; border:14px solid green;"">","null","","","","","","","","","",""
"","image-keyboard-response","194","159862","0.0-284.0","30LSNF239VHTHW15HSX2EKIMMQHI2B","AJDHPRCJ985C7","3XT3KXP24ZKFDDMCDS43FE3AU9W6IW","","1215","img/food2.png","74","1216","1","0","","1","1","1,0.5,0,1,0.5,0,0.5,0,1","0.5,0,1,0.5,0,1,0,1,0.5","2",""
"","html-keyboard-response","195","160164","0.0-285.0","30LSNF239VHTHW15HSX2EKIMMQHI2B","AJDHPRCJ985C7","3XT3KXP24ZKFDDMCDS43FE3AU9W6IW","","null","<img src=""img/food2.png"" style=""width:200px;border:14px solid red;"">","null","","","","","","","","","",""
"","image-keyboard-response","196","161078","0.0-286.0","30LSNF239VHTHW15HSX2EKIMMQHI2B","AJDHPRCJ985C7","3XT3KXP24ZKFDDMCDS43FE3AU9W6IW","","912","img/food3.png","76","913","3","0","","3","1","1,0.5,0,1,0.5,0,0.5,0,1","0.5,0,1,0.5,0,1,0,1,0.5","2",""
"","html-keyboard-response","197","161384","0.0-287.0","30LSNF239VHTHW15HSX2EKIMMQHI2B","AJDHPRCJ985C7","3XT3KXP24ZKFDDMCDS43FE3AU9W6IW","","null","<img src=""img/food3.png"" style=""width:200px;border:14px solid red;"">","null","","","","","","","","","",""
"","image-keyboard-response","198","162006","0.0-288.0","30LSNF239VHTHW15HSX2EKIMMQHI2B","AJDHPRCJ985C7","3XT3KXP24ZKFDDMCDS43FE3AU9W6IW","","622","img/food3.png","76","622","3","0","","3","1","1,0.5,0,1,0.5,0,0.5,0,1","0.5,0,1,0.5,0,1,0,1,0.5","2",""
"","html-keyboard-response","199","162308","0.0-289.0","30LSNF239VHTHW15HSX2EKIMMQHI2B","AJDHPRCJ985C7","3XT3KXP24ZKFDDMCDS43FE3AU9W6IW","","null","<img src=""img/food3.png"" style=""width:200px;border:14px solid red;"">","null","","","","","","","","","",""
"","image-keyboard-response","200","163631","0.0-290.0","30LSNF239VHTHW15HSX2EKIMMQHI2B","AJDHPRCJ985C7","3XT3KXP24ZKFDDMCDS43FE3AU9W6IW","","1322","img/food1.png","75","1322","2","0","","2","1","1,0.5,0,1,0.5,0,0.5,0,1","0.5,0,1,0.5,0,1,0,1,0.5","2",""
"","html-keyboard-response","201","163933","0.0-291.0","30LSNF239VHTHW15HSX2EKIMMQHI2B","AJDHPRCJ985C7","3XT3KXP24ZKFDDMCDS43FE3AU9W6IW","","null","<img src=""img/food1.png"" style=""width:200px;border:14px solid red;"">","null","","","","","","","","","",""
"","image-keyboard-response","202","165078","0.0-292.0","30LSNF239VHTHW15HSX2EKIMMQHI2B","AJDHPRCJ985C7","3XT3KXP24ZKFDDMCDS43FE3AU9W6IW","","1144","img/food3.png","76","1144","3","0","","3","1","1,0.5,0,1,0.5,0,0.5,0,1","0.5,0,1,0.5,0,1,0,1,0.5","2",""
"","html-keyboard-response","203","165383","0.0-293.0","30LSNF239VHTHW15HSX2EKIMMQHI2B","AJDHPRCJ985C7","3XT3KXP24ZKFDDMCDS43FE3AU9W6IW","","null","<img src=""img/food3.png"" style=""width:200px;border:14px solid red;"">","null","","","","","","","","","",""
"","image-keyboard-response","204","166278","0.0-294.0","30LSNF239VHTHW15HSX2EKIMMQHI2B","AJDHPRCJ985C7","3XT3KXP24ZKFDDMCDS43FE3AU9W6IW","","895","img/food1.png","74","895","1","1","","2","1","1,0.5,0,1,0.5,0,0.5,0,1","0.5,0,1,0.5,0,1,0,1,0.5","2",""
"","html-keyboard-response","205","166584","0.0-295.0","30LSNF239VHTHW15HSX2EKIMMQHI2B","AJDHPRCJ985C7","3XT3KXP24ZKFDDMCDS43FE3AU9W6IW","","null","<img src=""img/food1.png"" style=""width:200px; border:14px solid green;"">","null","","","","","","","","","",""
"","image-keyboard-response","206","167423","0.0-296.0","30LSNF239VHTHW15HSX2EKIMMQHI2B","AJDHPRCJ985C7","3XT3KXP24ZKFDDMCDS43FE3AU9W6IW","","838","img/food2.png","74","839","1","0","","1","1","1,0.5,0,1,0.5,0,0.5,0,1","0.5,0,1,0.5,0,1,0,1,0.5","2",""
"","html-keyboard-response","207","167723","0.0-297.0","30LSNF239VHTHW15HSX2EKIMMQHI2B","AJDHPRCJ985C7","3XT3KXP24ZKFDDMCDS43FE3AU9W6IW","","null","<img src=""img/food2.png"" style=""width:200px;border:14px solid red;"">","null","","","","","","","","","",""
"","image-keyboard-response","208","168399","0.0-298.0","30LSNF239VHTHW15HSX2EKIMMQHI2B","AJDHPRCJ985C7","3XT3KXP24ZKFDDMCDS43FE3AU9W6IW","","675","img/food2.png","76","675","3","1","","1","1","1,0.5,0,1,0.5,0,0.5,0,1","0.5,0,1,0.5,0,1,0,1,0.5","2",""
"","html-keyboard-response","209","168700","0.0-299.0","30LSNF239VHTHW15HSX2EKIMMQHI2B","AJDHPRCJ985C7","3XT3KXP24ZKFDDMCDS43FE3AU9W6IW","","null","<img src=""img/food2.png"" style=""width:200px; border:14px solid green;"">","null","","","","","","","","","",""
"","image-keyboard-response","210","170031","0.0-300.0","30LSNF239VHTHW15HSX2EKIMMQHI2B","AJDHPRCJ985C7","3XT3KXP24ZKFDDMCDS43FE3AU9W6IW","","1329","img/food1.png","74","1329","1","0","","2","1","1,0.5,0,1,0.5,0,0.5,0,1","0.5,0,1,0.5,0,1,0,1,0.5","2",""
"","html-keyboard-response","211","170334","0.0-301.0","30LSNF239VHTHW15HSX2EKIMMQHI2B","AJDHPRCJ985C7","3XT3KXP24ZKFDDMCDS43FE3AU9W6IW","","null","<img src=""img/food1.png"" style=""width:200px;border:14px solid red;"">","null","","","","","","","","","",""
"","image-keyboard-response","212","171287","0.0-302.0","30LSNF239VHTHW15HSX2EKIMMQHI2B","AJDHPRCJ985C7","3XT3KXP24ZKFDDMCDS43FE3AU9W6IW","","952","img/food2.png","76","952","3","1","","1","1","1,0.5,0,1,0.5,0,0.5,0,1","0.5,0,1,0.5,0,1,0,1,0.5","2",""
"","html-keyboard-response","213","171588","0.0-303.0","30LSNF239VHTHW15HSX2EKIMMQHI2B","AJDHPRCJ985C7","3XT3KXP24ZKFDDMCDS43FE3AU9W6IW","","null","<img src=""img/food2.png"" style=""width:200px; border:14px solid green;"">","null","","","","","","","","","",""
"","image-keyboard-response","214","172950","0.0-304.0","30LSNF239VHTHW15HSX2EKIMMQHI2B","AJDHPRCJ985C7","3XT3KXP24ZKFDDMCDS43FE3AU9W6IW","","1362","img/food1.png","75","1362","2","0","","2","1","1,0.5,0,1,0.5,0,0.5,0,1","0.5,0,1,0.5,0,1,0,1,0.5","2",""
"","html-keyboard-response","215","173255","0.0-305.0","30LSNF239VHTHW15HSX2EKIMMQHI2B","AJDHPRCJ985C7","3XT3KXP24ZKFDDMCDS43FE3AU9W6IW","","null","<img src=""img/food1.png"" style=""width:200px;border:14px solid red;"">","null","","","","","","","","","",""
"","image-keyboard-response","216","175047","0.0-306.0","30LSNF239VHTHW15HSX2EKIMMQHI2B","AJDHPRCJ985C7","3XT3KXP24ZKFDDMCDS43FE3AU9W6IW","","1792","img/food3.png","74","1793","1","0","","3","1","1,0.5,0,1,0.5,0,0.5,0,1","0.5,0,1,0.5,0,1,0,1,0.5","2",""
"","html-keyboard-response","217","175349","0.0-307.0","30LSNF239VHTHW15HSX2EKIMMQHI2B","AJDHPRCJ985C7","3XT3KXP24ZKFDDMCDS43FE3AU9W6IW","","null","<img src=""img/food3.png"" style=""width:200px;border:14px solid red;"">","null","","","","","","","","","",""
"","image-keyboard-response","218","177791","0.0-308.0","30LSNF239VHTHW15HSX2EKIMMQHI2B","AJDHPRCJ985C7","3XT3KXP24ZKFDDMCDS43FE3AU9W6IW","","2443","img/food1.png","74","2443","1","0","","2","1","1,0.5,0,1,0.5,0,0.5,0,1","0.5,0,1,0.5,0,1,0,1,0.5","2",""
"","html-keyboard-response","219","178097","0.0-309.0","30LSNF239VHTHW15HSX2EKIMMQHI2B","AJDHPRCJ985C7","3XT3KXP24ZKFDDMCDS43FE3AU9W6IW","","null","<img src=""img/food1.png"" style=""width:200px;border:14px solid red;"">","null","","","","","","","","","",""
"","image-keyboard-response","220","178927","0.0-310.0","30LSNF239VHTHW15HSX2EKIMMQHI2B","AJDHPRCJ985C7","3XT3KXP24ZKFDDMCDS43FE3AU9W6IW","","829","img/food3.png","76","829","3","1","","3","1","1,0.5,0,1,0.5,0,0.5,0,1","0.5,0,1,0.5,0,1,0,1,0.5","2",""
"","html-keyboard-response","221","179232","0.0-311.0","30LSNF239VHTHW15HSX2EKIMMQHI2B","AJDHPRCJ985C7","3XT3KXP24ZKFDDMCDS43FE3AU9W6IW","","null","<img src=""img/food3.png"" style=""width:200px; border:14px solid green;"">","null","","","","","","","","","",""
"","image-keyboard-response","222","179919","0.0-312.0","30LSNF239VHTHW15HSX2EKIMMQHI2B","AJDHPRCJ985C7","3XT3KXP24ZKFDDMCDS43FE3AU9W6IW","","686","img/food1.png","76","686","3","1","","2","1","1,0.5,0,1,0.5,0,0.5,0,1","0.5,0,1,0.5,0,1,0,1,0.5","2",""
"","html-keyboard-response","223","180224","0.0-313.0","30LSNF239VHTHW15HSX2EKIMMQHI2B","AJDHPRCJ985C7","3XT3KXP24ZKFDDMCDS43FE3AU9W6IW","","null","<img src=""img/food1.png"" style=""width:200px; border:14px solid green;"">","null","","","","","","","","","",""
"","image-keyboard-response","224","181111","0.0-314.0","30LSNF239VHTHW15HSX2EKIMMQHI2B","AJDHPRCJ985C7","3XT3KXP24ZKFDDMCDS43FE3AU9W6IW","","886","img/food1.png","76","888","3","1","","2","1","1,0.5,0,1,0.5,0,0.5,0,1","0.5,0,1,0.5,0,1,0,1,0.5","2",""
"","html-keyboard-response","225","181413","0.0-315.0","30LSNF239VHTHW15HSX2EKIMMQHI2B","AJDHPRCJ985C7","3XT3KXP24ZKFDDMCDS43FE3AU9W6IW","","null","<img src=""img/food1.png"" style=""width:200px; border:14px solid green;"">","null","","","","","","","","","",""
"","image-keyboard-response","226","182911","0.0-316.0","30LSNF239VHTHW15HSX2EKIMMQHI2B","AJDHPRCJ985C7","3XT3KXP24ZKFDDMCDS43FE3AU9W6IW","","1498","img/food3.png","76","1498","3","0","","3","1","1,0.5,0,1,0.5,0,0.5,0,1","0.5,0,1,0.5,0,1,0,1,0.5","2",""
"","html-keyboard-response","227","183212","0.0-317.0","30LSNF239VHTHW15HSX2EKIMMQHI2B","AJDHPRCJ985C7","3XT3KXP24ZKFDDMCDS43FE3AU9W6IW","","null","<img src=""img/food3.png"" style=""width:200px;border:14px solid red;"">","null","","","","","","","","","",""
"","image-keyboard-response","228","184167","0.0-318.0","30LSNF239VHTHW15HSX2EKIMMQHI2B","AJDHPRCJ985C7","3XT3KXP24ZKFDDMCDS43FE3AU9W6IW","","954","img/food1.png","76","955","3","1","","2","1","1,0.5,0,1,0.5,0,0.5,0,1","0.5,0,1,0.5,0,1,0,1,0.5","2",""
"","html-keyboard-response","229","184469","0.0-319.0","30LSNF239VHTHW15HSX2EKIMMQHI2B","AJDHPRCJ985C7","3XT3KXP24ZKFDDMCDS43FE3AU9W6IW","","null","<img src=""img/food1.png"" style=""width:200px; border:14px solid green;"">","null","","","","","","","","","",""
"","image-keyboard-response","230","185551","0.0-320.0","30LSNF239VHTHW15HSX2EKIMMQHI2B","AJDHPRCJ985C7","3XT3KXP24ZKFDDMCDS43FE3AU9W6IW","","1082","img/food2.png","76","1082","3","1","","1","1","1,0.5,0,1,0.5,0,0.5,0,1","0.5,0,1,0.5,0,1,0,1,0.5","2",""
"","html-keyboard-response","231","185852","0.0-321.0","30LSNF239VHTHW15HSX2EKIMMQHI2B","AJDHPRCJ985C7","3XT3KXP24ZKFDDMCDS43FE3AU9W6IW","","null","<img src=""img/food2.png"" style=""width:200px; border:14px solid green;"">","null","","","","","","","","","",""
"","image-keyboard-response","232","186823","0.0-322.0","30LSNF239VHTHW15HSX2EKIMMQHI2B","AJDHPRCJ985C7","3XT3KXP24ZKFDDMCDS43FE3AU9W6IW","","970","img/food1.png","75","970","2","0","","2","1","1,0.5,0,1,0.5,0,0.5,0,1","0.5,0,1,0.5,0,1,0,1,0.5","2",""
"","html-keyboard-response","233","187153","0.0-323.0","30LSNF239VHTHW15HSX2EKIMMQHI2B","AJDHPRCJ985C7","3XT3KXP24ZKFDDMCDS43FE3AU9W6IW","","null","<img src=""img/food1.png"" style=""width:200px;border:14px solid red;"">","null","","","","","","","","","",""
"","image-keyboard-response","234","187759","0.0-324.0","30LSNF239VHTHW15HSX2EKIMMQHI2B","AJDHPRCJ985C7","3XT3KXP24ZKFDDMCDS43FE3AU9W6IW","","606","img/food1.png","74","606","1","0","","2","1","1,0.5,0,1,0.5,0,0.5,0,1","0.5,0,1,0.5,0,1,0,1,0.5","2",""
"","html-keyboard-response","235","188061","0.0-325.0","30LSNF239VHTHW15HSX2EKIMMQHI2B","AJDHPRCJ985C7","3XT3KXP24ZKFDDMCDS43FE3AU9W6IW","","null","<img src=""img/food1.png"" style=""width:200px;border:14px solid red;"">","null","","","","","","","","","",""
"","image-keyboard-response","236","188719","0.0-326.0","30LSNF239VHTHW15HSX2EKIMMQHI2B","AJDHPRCJ985C7","3XT3KXP24ZKFDDMCDS43FE3AU9W6IW","","657","img/food1.png","76","657","3","1","","2","1","1,0.5,0,1,0.5,0,0.5,0,1","0.5,0,1,0.5,0,1,0,1,0.5","2",""
"","html-keyboard-response","237","189021","0.0-327.0","30LSNF239VHTHW15HSX2EKIMMQHI2B","AJDHPRCJ985C7","3XT3KXP24ZKFDDMCDS43FE3AU9W6IW","","null","<img src=""img/food1.png"" style=""width:200px; border:14px solid green;"">","null","","","","","","","","","",""
"","image-keyboard-response","238","190184","0.0-328.0","30LSNF239VHTHW15HSX2EKIMMQHI2B","AJDHPRCJ985C7","3XT3KXP24ZKFDDMCDS43FE3AU9W6IW","","1163","img/food2.png","76","1163","3","1","","1","1","1,0.5,0,1,0.5,0,0.5,0,1","0.5,0,1,0.5,0,1,0,1,0.5","2",""
"","html-keyboard-response","239","190488","0.0-329.0","30LSNF239VHTHW15HSX2EKIMMQHI2B","AJDHPRCJ985C7","3XT3KXP24ZKFDDMCDS43FE3AU9W6IW","","null","<img src=""img/food2.png"" style=""width:200px; border:14px solid green;"">","null","","","","","","","","","",""
"","image-keyboard-response","240","191423","0.0-330.0","30LSNF239VHTHW15HSX2EKIMMQHI2B","AJDHPRCJ985C7","3XT3KXP24ZKFDDMCDS43FE3AU9W6IW","","935","img/food1.png","76","935","3","1","","2","1","1,0.5,0,1,0.5,0,0.5,0,1","0.5,0,1,0.5,0,1,0,1,0.5","2",""
"","html-keyboard-response","241","191724","0.0-331.0","30LSNF239VHTHW15HSX2EKIMMQHI2B","AJDHPRCJ985C7","3XT3KXP24ZKFDDMCDS43FE3AU9W6IW","","null","<img src=""img/food1.png"" style=""width:200px; border:14px solid green;"">","null","","","","","","","","","",""
"","image-keyboard-response","242","193206","0.0-332.0","30LSNF239VHTHW15HSX2EKIMMQHI2B","AJDHPRCJ985C7","3XT3KXP24ZKFDDMCDS43FE3AU9W6IW","","1482","img/food2.png","76","1482","3","1","","1","1","1,0.5,0,1,0.5,0,0.5,0,1","0.5,0,1,0.5,0,1,0,1,0.5","2",""
"","html-keyboard-response","243","193508","0.0-333.0","30LSNF239VHTHW15HSX2EKIMMQHI2B","AJDHPRCJ985C7","3XT3KXP24ZKFDDMCDS43FE3AU9W6IW","","null","<img src=""img/food2.png"" style=""width:200px; border:14px solid green;"">","null","","","","","","","","","",""
"","image-keyboard-response","244","194544","0.0-334.0","30LSNF239VHTHW15HSX2EKIMMQHI2B","AJDHPRCJ985C7","3XT3KXP24ZKFDDMCDS43FE3AU9W6IW","","1035","img/food2.png","76","1036","3","1","","1","1","1,0.5,0,1,0.5,0,0.5,0,1","0.5,0,1,0.5,0,1,0,1,0.5","2",""
"","html-keyboard-response","245","194845","0.0-335.0","30LSNF239VHTHW15HSX2EKIMMQHI2B","AJDHPRCJ985C7","3XT3KXP24ZKFDDMCDS43FE3AU9W6IW","","null","<img src=""img/food2.png"" style=""width:200px; border:14px solid green;"">","null","","","","","","","","","",""
"","image-keyboard-response","246","196240","0.0-336.0","30LSNF239VHTHW15HSX2EKIMMQHI2B","AJDHPRCJ985C7","3XT3KXP24ZKFDDMCDS43FE3AU9W6IW","","1394","img/food3.png","76","1394","3","1","","3","1","1,0.5,0,1,0.5,0,0.5,0,1","0.5,0,1,0.5,0,1,0,1,0.5","2",""
"","html-keyboard-response","247","196541","0.0-337.0","30LSNF239VHTHW15HSX2EKIMMQHI2B","AJDHPRCJ985C7","3XT3KXP24ZKFDDMCDS43FE3AU9W6IW","","null","<img src=""img/food3.png"" style=""width:200px; border:14px solid green;"">","null","","","","","","","","","",""
"","image-keyboard-response","248","198448","0.0-338.0","30LSNF239VHTHW15HSX2EKIMMQHI2B","AJDHPRCJ985C7","3XT3KXP24ZKFDDMCDS43FE3AU9W6IW","","1906","img/food2.png","76","1907","3","1","","1","1","1,0.5,0,1,0.5,0,0.5,0,1","0.5,0,1,0.5,0,1,0,1,0.5","2",""
"","html-keyboard-response","249","198750","0.0-339.0","30LSNF239VHTHW15HSX2EKIMMQHI2B","AJDHPRCJ985C7","3XT3KXP24ZKFDDMCDS43FE3AU9W6IW","","null","<img src=""img/food2.png"" style=""width:200px; border:14px solid green;"">","null","","","","","","","","","",""
"","image-keyboard-response","250","200479","0.0-340.0","30LSNF239VHTHW15HSX2EKIMMQHI2B","AJDHPRCJ985C7","3XT3KXP24ZKFDDMCDS43FE3AU9W6IW","","1729","img/food3.png","76","1729","3","0","","3","1","1,0.5,0,1,0.5,0,0.5,0,1","0.5,0,1,0.5,0,1,0,1,0.5","2",""
"","html-keyboard-response","251","200785","0.0-341.0","30LSNF239VHTHW15HSX2EKIMMQHI2B","AJDHPRCJ985C7","3XT3KXP24ZKFDDMCDS43FE3AU9W6IW","","null","<img src=""img/food3.png"" style=""width:200px;border:14px solid red;"">","null","","","","","","","","","",""
"","image-keyboard-response","252","201663","0.0-342.0","30LSNF239VHTHW15HSX2EKIMMQHI2B","AJDHPRCJ985C7","3XT3KXP24ZKFDDMCDS43FE3AU9W6IW","","878","img/food2.png","76","878","3","1","","1","1","1,0.5,0,1,0.5,0,0.5,0,1","0.5,0,1,0.5,0,1,0,1,0.5","2",""
"","html-keyboard-response","253","201969","0.0-343.0","30LSNF239VHTHW15HSX2EKIMMQHI2B","AJDHPRCJ985C7","3XT3KXP24ZKFDDMCDS43FE3AU9W6IW","","null","<img src=""img/food2.png"" style=""width:200px; border:14px solid green;"">","null","","","","","","","","","",""
"","image-keyboard-response","254","203000","0.0-344.0","30LSNF239VHTHW15HSX2EKIMMQHI2B","AJDHPRCJ985C7","3XT3KXP24ZKFDDMCDS43FE3AU9W6IW","","1030","img/food1.png","76","1030","3","1","","2","1","1,0.5,0,1,0.5,0,0.5,0,1","0.5,0,1,0.5,0,1,0,1,0.5","2",""
"","html-keyboard-response","255","203301","0.0-345.0","30LSNF239VHTHW15HSX2EKIMMQHI2B","AJDHPRCJ985C7","3XT3KXP24ZKFDDMCDS43FE3AU9W6IW","","null","<img src=""img/food1.png"" style=""width:200px; border:14px solid green;"">","null","","","","","","","","","",""
"","image-keyboard-response","256","204823","0.0-346.0","30LSNF239VHTHW15HSX2EKIMMQHI2B","AJDHPRCJ985C7","3XT3KXP24ZKFDDMCDS43FE3AU9W6IW","","1521","img/food2.png","76","1522","3","1","","1","1","1,0.5,0,1,0.5,0,0.5,0,1","0.5,0,1,0.5,0,1,0,1,0.5","2",""
"","html-keyboard-response","257","205124","0.0-347.0","30LSNF239VHTHW15HSX2EKIMMQHI2B","AJDHPRCJ985C7","3XT3KXP24ZKFDDMCDS43FE3AU9W6IW","","null","<img src=""img/food2.png"" style=""width:200px; border:14px solid green;"">","null","","","","","","","","","",""
"","image-keyboard-response","258","206240","0.0-348.0","30LSNF239VHTHW15HSX2EKIMMQHI2B","AJDHPRCJ985C7","3XT3KXP24ZKFDDMCDS43FE3AU9W6IW","","1114","img/food2.png","76","1115","3","1","","1","1","1,0.5,0,1,0.5,0,0.5,0,1","0.5,0,1,0.5,0,1,0,1,0.5","2",""
"","html-keyboard-response","259","206541","0.0-349.0","30LSNF239VHTHW15HSX2EKIMMQHI2B","AJDHPRCJ985C7","3XT3KXP24ZKFDDMCDS43FE3AU9W6IW","","null","<img src=""img/food2.png"" style=""width:200px; border:14px solid green;"">","null","","","","","","","","","",""
"","image-keyboard-response","260","207775","0.0-350.0","30LSNF239VHTHW15HSX2EKIMMQHI2B","AJDHPRCJ985C7","3XT3KXP24ZKFDDMCDS43FE3AU9W6IW","","1235","img/food1.png","76","1235","3","1","","2","1","1,0.5,0,1,0.5,0,0.5,0,1","0.5,0,1,0.5,0,1,0,1,0.5","2",""
"","html-keyboard-response","261","208081","0.0-351.0","30LSNF239VHTHW15HSX2EKIMMQHI2B","AJDHPRCJ985C7","3XT3KXP24ZKFDDMCDS43FE3AU9W6IW","","null","<img src=""img/food1.png"" style=""width:200px; border:14px solid green;"">","null","","","","","","","","","",""
"","image-keyboard-response","262","208928","0.0-352.0","30LSNF239VHTHW15HSX2EKIMMQHI2B","AJDHPRCJ985C7","3XT3KXP24ZKFDDMCDS43FE3AU9W6IW","","846","img/food1.png","76","846","3","1","","2","1","1,0.5,0,1,0.5,0,0.5,0,1","0.5,0,1,0.5,0,1,0,1,0.5","2",""
"","html-keyboard-response","263","209229","0.0-353.0","30LSNF239VHTHW15HSX2EKIMMQHI2B","AJDHPRCJ985C7","3XT3KXP24ZKFDDMCDS43FE3AU9W6IW","","null","<img src=""img/food1.png"" style=""width:200px; border:14px solid green;"">","null","","","","","","","","","",""
"","image-keyboard-response","264","211096","0.0-354.0","30LSNF239VHTHW15HSX2EKIMMQHI2B","AJDHPRCJ985C7","3XT3KXP24ZKFDDMCDS43FE3AU9W6IW","","1866","img/food1.png","76","1866","3","1","","2","1","1,0.5,0,1,0.5,0,0.5,0,1","0.5,0,1,0.5,0,1,0,1,0.5","2",""
"","html-keyboard-response","265","211401","0.0-355.0","30LSNF239VHTHW15HSX2EKIMMQHI2B","AJDHPRCJ985C7","3XT3KXP24ZKFDDMCDS43FE3AU9W6IW","","null","<img src=""img/food1.png"" style=""width:200px; border:14px solid green;"">","null","","","","","","","","","",""
"","image-keyboard-response","266","212216","0.0-356.0","30LSNF239VHTHW15HSX2EKIMMQHI2B","AJDHPRCJ985C7","3XT3KXP24ZKFDDMCDS43FE3AU9W6IW","","814","img/food1.png","76","814","3","1","","2","1","1,0.5,0,1,0.5,0,0.5,0,1","0.5,0,1,0.5,0,1,0,1,0.5","2",""
"","html-keyboard-response","267","212521","0.0-357.0","30LSNF239VHTHW15HSX2EKIMMQHI2B","AJDHPRCJ985C7","3XT3KXP24ZKFDDMCDS43FE3AU9W6IW","","null","<img src=""img/food1.png"" style=""width:200px; border:14px solid green;"">","null","","","","","","","","","",""
"","image-keyboard-response","268","214279","0.0-358.0","30LSNF239VHTHW15HSX2EKIMMQHI2B","AJDHPRCJ985C7","3XT3KXP24ZKFDDMCDS43FE3AU9W6IW","","1757","img/food3.png","74","1758","1","0","","3","1","1,0.5,0,1,0.5,0,0.5,0,1","0.5,0,1,0.5,0,1,0,1,0.5","2",""
"","html-keyboard-response","269","214585","0.0-359.0","30LSNF239VHTHW15HSX2EKIMMQHI2B","AJDHPRCJ985C7","3XT3KXP24ZKFDDMCDS43FE3AU9W6IW","","null","<img src=""img/food3.png"" style=""width:200px;border:14px solid red;"">","null","","","","","","","","","",""
"","image-keyboard-response","270","215448","0.0-360.0","30LSNF239VHTHW15HSX2EKIMMQHI2B","AJDHPRCJ985C7","3XT3KXP24ZKFDDMCDS43FE3AU9W6IW","","863","img/food1.png","76","863","3","1","","2","1","1,0.5,0,1,0.5,0,0.5,0,1","0.5,0,1,0.5,0,1,0,1,0.5","2",""
"","html-keyboard-response","271","215753","0.0-361.0","30LSNF239VHTHW15HSX2EKIMMQHI2B","AJDHPRCJ985C7","3XT3KXP24ZKFDDMCDS43FE3AU9W6IW","","null","<img src=""img/food1.png"" style=""width:200px; border:14px solid green;"">","null","","","","","","","","","",""
"","image-keyboard-response","272","216648","0.0-362.0","30LSNF239VHTHW15HSX2EKIMMQHI2B","AJDHPRCJ985C7","3XT3KXP24ZKFDDMCDS43FE3AU9W6IW","","895","img/food2.png","76","895","3","1","","1","1","1,0.5,0,1,0.5,0,0.5,0,1","0.5,0,1,0.5,0,1,0,1,0.5","2",""
"","html-keyboard-response","273","216954","0.0-363.0","30LSNF239VHTHW15HSX2EKIMMQHI2B","AJDHPRCJ985C7","3XT3KXP24ZKFDDMCDS43FE3AU9W6IW","","null","<img src=""img/food2.png"" style=""width:200px; border:14px solid green;"">","null","","","","","","","","","",""
"","image-keyboard-response","274","217728","0.0-364.0","30LSNF239VHTHW15HSX2EKIMMQHI2B","AJDHPRCJ985C7","3XT3KXP24ZKFDDMCDS43FE3AU9W6IW","","774","img/food2.png","76","774","3","1","","1","1","1,0.5,0,1,0.5,0,0.5,0,1","0.5,0,1,0.5,0,1,0,1,0.5","2",""
"","html-keyboard-response","275","218034","0.0-365.0","30LSNF239VHTHW15HSX2EKIMMQHI2B","AJDHPRCJ985C7","3XT3KXP24ZKFDDMCDS43FE3AU9W6IW","","null","<img src=""img/food2.png"" style=""width:200px; border:14px solid green;"">","null","","","","","","","","","",""
"","image-keyboard-response","276","219064","0.0-366.0","30LSNF239VHTHW15HSX2EKIMMQHI2B","AJDHPRCJ985C7","3XT3KXP24ZKFDDMCDS43FE3AU9W6IW","","1029","img/food2.png","76","1029","3","1","","1","1","1,0.5,0,1,0.5,0,0.5,0,1","0.5,0,1,0.5,0,1,0,1,0.5","2",""
"","html-keyboard-response","277","219369","0.0-367.0","30LSNF239VHTHW15HSX2EKIMMQHI2B","AJDHPRCJ985C7","3XT3KXP24ZKFDDMCDS43FE3AU9W6IW","","null","<img src=""img/food2.png"" style=""width:200px; border:14px solid green;"">","null","","","","","","","","","",""
"","image-keyboard-response","278","220040","0.0-368.0","30LSNF239VHTHW15HSX2EKIMMQHI2B","AJDHPRCJ985C7","3XT3KXP24ZKFDDMCDS43FE3AU9W6IW","","671","img/food2.png","76","671","3","1","","1","1","1,0.5,0,1,0.5,0,0.5,0,1","0.5,0,1,0.5,0,1,0,1,0.5","2",""
"","html-keyboard-response","279","220346","0.0-369.0","30LSNF239VHTHW15HSX2EKIMMQHI2B","AJDHPRCJ985C7","3XT3KXP24ZKFDDMCDS43FE3AU9W6IW","","null","<img src=""img/food2.png"" style=""width:200px; border:14px solid green;"">","null","","","","","","","","","",""
"","image-keyboard-response","280","221992","0.0-370.0","30LSNF239VHTHW15HSX2EKIMMQHI2B","AJDHPRCJ985C7","3XT3KXP24ZKFDDMCDS43FE3AU9W6IW","","1645","img/food3.png","76","1646","3","1","","3","1","1,0.5,0,1,0.5,0,0.5,0,1","0.5,0,1,0.5,0,1,0,1,0.5","2",""
"","html-keyboard-response","281","222297","0.0-371.0","30LSNF239VHTHW15HSX2EKIMMQHI2B","AJDHPRCJ985C7","3XT3KXP24ZKFDDMCDS43FE3AU9W6IW","","null","<img src=""img/food3.png"" style=""width:200px; border:14px solid green;"">","null","","","","","","","","","",""
"","image-keyboard-response","282","223207","0.0-372.0","30LSNF239VHTHW15HSX2EKIMMQHI2B","AJDHPRCJ985C7","3XT3KXP24ZKFDDMCDS43FE3AU9W6IW","","910","img/food2.png","76","911","3","1","","1","1","1,0.5,0,1,0.5,0,0.5,0,1","0.5,0,1,0.5,0,1,0,1,0.5","2",""
"","html-keyboard-response","283","223510","0.0-373.0","30LSNF239VHTHW15HSX2EKIMMQHI2B","AJDHPRCJ985C7","3XT3KXP24ZKFDDMCDS43FE3AU9W6IW","","null","<img src=""img/food2.png"" style=""width:200px; border:14px solid green;"">","null","","","","","","","","","",""
"","image-keyboard-response","284","224488","0.0-374.0","30LSNF239VHTHW15HSX2EKIMMQHI2B","AJDHPRCJ985C7","3XT3KXP24ZKFDDMCDS43FE3AU9W6IW","","977","img/food1.png","76","977","3","1","","2","1","1,0.5,0,1,0.5,0,0.5,0,1","0.5,0,1,0.5,0,1,0,1,0.5","2",""
"","html-keyboard-response","285","224789","0.0-375.0","30LSNF239VHTHW15HSX2EKIMMQHI2B","AJDHPRCJ985C7","3XT3KXP24ZKFDDMCDS43FE3AU9W6IW","","null","<img src=""img/food1.png"" style=""width:200px; border:14px solid green;"">","null","","","","","","","","","",""
"","image-keyboard-response","286","225936","0.0-376.0","30LSNF239VHTHW15HSX2EKIMMQHI2B","AJDHPRCJ985C7","3XT3KXP24ZKFDDMCDS43FE3AU9W6IW","","1147","img/food3.png","76","1147","3","0","","3","1","1,0.5,0,1,0.5,0,0.5,0,1","0.5,0,1,0.5,0,1,0,1,0.5","2",""
"","html-keyboard-response","287","226239","0.0-377.0","30LSNF239VHTHW15HSX2EKIMMQHI2B","AJDHPRCJ985C7","3XT3KXP24ZKFDDMCDS43FE3AU9W6IW","","null","<img src=""img/food3.png"" style=""width:200px;border:14px solid red;"">","null","","","","","","","","","",""
"","image-keyboard-response","288","227216","0.0-378.0","30LSNF239VHTHW15HSX2EKIMMQHI2B","AJDHPRCJ985C7","3XT3KXP24ZKFDDMCDS43FE3AU9W6IW","","975","img/food2.png","76","977","3","1","","1","1","1,0.5,0,1,0.5,0,0.5,0,1","0.5,0,1,0.5,0,1,0,1,0.5","2",""
"","html-keyboard-response","289","227531","0.0-379.0","30LSNF239VHTHW15HSX2EKIMMQHI2B","AJDHPRCJ985C7","3XT3KXP24ZKFDDMCDS43FE3AU9W6IW","","null","<img src=""img/food2.png"" style=""width:200px; border:14px solid green;"">","null","","","","","","","","","",""
"","image-keyboard-response","290","228368","0.0-380.0","30LSNF239VHTHW15HSX2EKIMMQHI2B","AJDHPRCJ985C7","3XT3KXP24ZKFDDMCDS43FE3AU9W6IW","","837","img/food3.png","75","837","2","1","","3","1","1,0.5,0,1,0.5,0,0.5,0,1","0.5,0,1,0.5,0,1,0,1,0.5","2",""
"","html-keyboard-response","291","228670","0.0-381.0","30LSNF239VHTHW15HSX2EKIMMQHI2B","AJDHPRCJ985C7","3XT3KXP24ZKFDDMCDS43FE3AU9W6IW","","null","<img src=""img/food3.png"" style=""width:200px; border:14px solid green;"">","null","","","","","","","","","",""
"","image-keyboard-response","292","229288","0.0-382.0","30LSNF239VHTHW15HSX2EKIMMQHI2B","AJDHPRCJ985C7","3XT3KXP24ZKFDDMCDS43FE3AU9W6IW","","618","img/food3.png","75","619","2","1","","3","1","1,0.5,0,1,0.5,0,0.5,0,1","0.5,0,1,0.5,0,1,0,1,0.5","2",""
"","html-keyboard-response","293","229592","0.0-383.0","30LSNF239VHTHW15HSX2EKIMMQHI2B","AJDHPRCJ985C7","3XT3KXP24ZKFDDMCDS43FE3AU9W6IW","","null","<img src=""img/food3.png"" style=""width:200px; border:14px solid green;"">","null","","","","","","","","","",""
"","image-keyboard-response","294","230200","0.0-384.0","30LSNF239VHTHW15HSX2EKIMMQHI2B","AJDHPRCJ985C7","3XT3KXP24ZKFDDMCDS43FE3AU9W6IW","","607","img/food3.png","75","608","2","1","","3","1","1,0.5,0,1,0.5,0,0.5,0,1","0.5,0,1,0.5,0,1,0,1,0.5","2",""
"","html-keyboard-response","295","230502","0.0-385.0","30LSNF239VHTHW15HSX2EKIMMQHI2B","AJDHPRCJ985C7","3XT3KXP24ZKFDDMCDS43FE3AU9W6IW","","null","<img src=""img/food3.png"" style=""width:200px; border:14px solid green;"">","null","","","","","","","","","",""
"","image-keyboard-response","296","231320","0.0-386.0","30LSNF239VHTHW15HSX2EKIMMQHI2B","AJDHPRCJ985C7","3XT3KXP24ZKFDDMCDS43FE3AU9W6IW","","817","img/food3.png","75","818","2","1","","3","1","1,0.5,0,1,0.5,0,0.5,0,1","0.5,0,1,0.5,0,1,0,1,0.5","2",""
"","html-keyboard-response","297","231625","0.0-387.0","30LSNF239VHTHW15HSX2EKIMMQHI2B","AJDHPRCJ985C7","3XT3KXP24ZKFDDMCDS43FE3AU9W6IW","","null","<img src=""img/food3.png"" style=""width:200px; border:14px solid green;"">","null","","","","","","","","","",""
"","image-keyboard-response","298","232368","0.0-388.0","30LSNF239VHTHW15HSX2EKIMMQHI2B","AJDHPRCJ985C7","3XT3KXP24ZKFDDMCDS43FE3AU9W6IW","","742","img/food3.png","75","743","2","1","","3","1","1,0.5,0,1,0.5,0,0.5,0,1","0.5,0,1,0.5,0,1,0,1,0.5","2",""
"","html-keyboard-response","299","232670","0.0-389.0","30LSNF239VHTHW15HSX2EKIMMQHI2B","AJDHPRCJ985C7","3XT3KXP24ZKFDDMCDS43FE3AU9W6IW","","null","<img src=""img/food3.png"" style=""width:200px; border:14px solid green;"">","null","","","","","","","","","",""
"","image-keyboard-response","300","233464","0.0-390.0","30LSNF239VHTHW15HSX2EKIMMQHI2B","AJDHPRCJ985C7","3XT3KXP24ZKFDDMCDS43FE3AU9W6IW","","793","img/food2.png","76","793","3","1","","1","1","1,0.5,0,1,0.5,0,0.5,0,1","0.5,0,1,0.5,0,1,0,1,0.5","2",""
"","html-keyboard-response","301","233770","0.0-391.0","30LSNF239VHTHW15HSX2EKIMMQHI2B","AJDHPRCJ985C7","3XT3KXP24ZKFDDMCDS43FE3AU9W6IW","","null","<img src=""img/food2.png"" style=""width:200px; border:14px solid green;"">","null","","","","","","","","","",""
"","image-keyboard-response","302","234705","0.0-392.0","30LSNF239VHTHW15HSX2EKIMMQHI2B","AJDHPRCJ985C7","3XT3KXP24ZKFDDMCDS43FE3AU9W6IW","","934","img/food1.png","76","936","3","1","","2","1","1,0.5,0,1,0.5,0,0.5,0,1","0.5,0,1,0.5,0,1,0,1,0.5","2",""
"","html-keyboard-response","303","235007","0.0-393.0","30LSNF239VHTHW15HSX2EKIMMQHI2B","AJDHPRCJ985C7","3XT3KXP24ZKFDDMCDS43FE3AU9W6IW","","null","<img src=""img/food1.png"" style=""width:200px; border:14px solid green;"">","null","","","","","","","","","",""
"","image-keyboard-response","304","235864","0.0-394.0","30LSNF239VHTHW15HSX2EKIMMQHI2B","AJDHPRCJ985C7","3XT3KXP24ZKFDDMCDS43FE3AU9W6IW","","857","img/food1.png","76","857","3","1","","2","1","1,0.5,0,1,0.5,0,0.5,0,1","0.5,0,1,0.5,0,1,0,1,0.5","2",""
"","html-keyboard-response","305","236167","0.0-395.0","30LSNF239VHTHW15HSX2EKIMMQHI2B","AJDHPRCJ985C7","3XT3KXP24ZKFDDMCDS43FE3AU9W6IW","","null","<img src=""img/food1.png"" style=""width:200px; border:14px solid green;"">","null","","","","","","","","","",""
"","image-keyboard-response","306","237217","0.0-396.0","30LSNF239VHTHW15HSX2EKIMMQHI2B","AJDHPRCJ985C7","3XT3KXP24ZKFDDMCDS43FE3AU9W6IW","","1050","img/food2.png","76","1050","3","1","","1","1","1,0.5,0,1,0.5,0,0.5,0,1","0.5,0,1,0.5,0,1,0,1,0.5","2",""
"","html-keyboard-response","307","237518","0.0-397.0","30LSNF239VHTHW15HSX2EKIMMQHI2B","AJDHPRCJ985C7","3XT3KXP24ZKFDDMCDS43FE3AU9W6IW","","null","<img src=""img/food2.png"" style=""width:200px; border:14px solid green;"">","null","","","","","","","","","",""
"","image-keyboard-response","308","238321","0.0-398.0","30LSNF239VHTHW15HSX2EKIMMQHI2B","AJDHPRCJ985C7","3XT3KXP24ZKFDDMCDS43FE3AU9W6IW","","801","img/food3.png","75","801","2","1","","3","1","1,0.5,0,1,0.5,0,0.5,0,1","0.5,0,1,0.5,0,1,0,1,0.5","2",""
"","html-keyboard-response","309","238625","0.0-399.0","30LSNF239VHTHW15HSX2EKIMMQHI2B","AJDHPRCJ985C7","3XT3KXP24ZKFDDMCDS43FE3AU9W6IW","","null","<img src=""img/food3.png"" style=""width:200px; border:14px solid green;"">","null","","","","","","","","","",""
"","image-keyboard-response","310","239593","0.0-400.0","30LSNF239VHTHW15HSX2EKIMMQHI2B","AJDHPRCJ985C7","3XT3KXP24ZKFDDMCDS43FE3AU9W6IW","","967","img/food3.png","75","967","2","1","","3","1","1,0.5,0,1,0.5,0,0.5,0,1","0.5,0,1,0.5,0,1,0,1,0.5","2",""
"","html-keyboard-response","311","239897","0.0-401.0","30LSNF239VHTHW15HSX2EKIMMQHI2B","AJDHPRCJ985C7","3XT3KXP24ZKFDDMCDS43FE3AU9W6IW","","null","<img src=""img/food3.png"" style=""width:200px; border:14px solid green;"">","null","","","","","","","","","",""
"","image-keyboard-response","312","240760","0.0-402.0","30LSNF239VHTHW15HSX2EKIMMQHI2B","AJDHPRCJ985C7","3XT3KXP24ZKFDDMCDS43FE3AU9W6IW","","864","img/food1.png","76","864","3","1","","2","1","1,0.5,0,1,0.5,0,0.5,0,1","0.5,0,1,0.5,0,1,0,1,0.5","2",""
"","html-keyboard-response","313","241063","0.0-403.0","30LSNF239VHTHW15HSX2EKIMMQHI2B","AJDHPRCJ985C7","3XT3KXP24ZKFDDMCDS43FE3AU9W6IW","","null","<img src=""img/food1.png"" style=""width:200px; border:14px solid green;"">","null","","","","","","","","","",""
"","image-keyboard-response","314","241817","0.0-404.0","30LSNF239VHTHW15HSX2EKIMMQHI2B","AJDHPRCJ985C7","3XT3KXP24ZKFDDMCDS43FE3AU9W6IW","","753","img/food1.png","76","754","3","1","","2","1","1,0.5,0,1,0.5,0,0.5,0,1","0.5,0,1,0.5,0,1,0,1,0.5","2",""
"","html-keyboard-response","315","242119","0.0-405.0","30LSNF239VHTHW15HSX2EKIMMQHI2B","AJDHPRCJ985C7","3XT3KXP24ZKFDDMCDS43FE3AU9W6IW","","null","<img src=""img/food1.png"" style=""width:200px; border:14px solid green;"">","null","","","","","","","","","",""
"","image-keyboard-response","316","243689","0.0-406.0","30LSNF239VHTHW15HSX2EKIMMQHI2B","AJDHPRCJ985C7","3XT3KXP24ZKFDDMCDS43FE3AU9W6IW","","1569","img/food2.png","76","1569","3","1","","1","1","1,0.5,0,1,0.5,0,0.5,0,1","0.5,0,1,0.5,0,1,0,1,0.5","2",""
"","html-keyboard-response","317","243990","0.0-407.0","30LSNF239VHTHW15HSX2EKIMMQHI2B","AJDHPRCJ985C7","3XT3KXP24ZKFDDMCDS43FE3AU9W6IW","","null","<img src=""img/food2.png"" style=""width:200px; border:14px solid green;"">","null","","","","","","","","","",""
"","image-keyboard-response","318","244905","0.0-408.0","30LSNF239VHTHW15HSX2EKIMMQHI2B","AJDHPRCJ985C7","3XT3KXP24ZKFDDMCDS43FE3AU9W6IW","","915","img/food2.png","76","915","3","1","","1","1","1,0.5,0,1,0.5,0,0.5,0,1","0.5,0,1,0.5,0,1,0,1,0.5","2",""
"","html-keyboard-response","319","245207","0.0-409.0","30LSNF239VHTHW15HSX2EKIMMQHI2B","AJDHPRCJ985C7","3XT3KXP24ZKFDDMCDS43FE3AU9W6IW","","null","<img src=""img/food2.png"" style=""width:200px; border:14px solid green;"">","null","","","","","","","","","",""
"","image-keyboard-response","320","246568","0.0-410.0","30LSNF239VHTHW15HSX2EKIMMQHI2B","AJDHPRCJ985C7","3XT3KXP24ZKFDDMCDS43FE3AU9W6IW","","1361","img/food1.png","76","1362","3","1","","2","1","1,0.5,0,1,0.5,0,0.5,0,1","0.5,0,1,0.5,0,1,0,1,0.5","2",""
"","html-keyboard-response","321","246875","0.0-411.0","30LSNF239VHTHW15HSX2EKIMMQHI2B","AJDHPRCJ985C7","3XT3KXP24ZKFDDMCDS43FE3AU9W6IW","","null","<img src=""img/food1.png"" style=""width:200px; border:14px solid green;"">","null","","","","","","","","","",""
"","image-keyboard-response","322","247913","0.0-412.0","30LSNF239VHTHW15HSX2EKIMMQHI2B","AJDHPRCJ985C7","3XT3KXP24ZKFDDMCDS43FE3AU9W6IW","","1037","img/food3.png","75","1037","2","1","","3","1","1,0.5,0,1,0.5,0,0.5,0,1","0.5,0,1,0.5,0,1,0,1,0.5","2",""
"","html-keyboard-response","323","248218","0.0-413.0","30LSNF239VHTHW15HSX2EKIMMQHI2B","AJDHPRCJ985C7","3XT3KXP24ZKFDDMCDS43FE3AU9W6IW","","null","<img src=""img/food3.png"" style=""width:200px; border:14px solid green;"">","null","","","","","","","","","",""
"","image-keyboard-response","324","249473","0.0-414.0","30LSNF239VHTHW15HSX2EKIMMQHI2B","AJDHPRCJ985C7","3XT3KXP24ZKFDDMCDS43FE3AU9W6IW","","1253","img/food2.png","76","1254","3","1","","1","1","1,0.5,0,1,0.5,0,0.5,0,1","0.5,0,1,0.5,0,1,0,1,0.5","2",""
"","html-keyboard-response","325","249775","0.0-415.0","30LSNF239VHTHW15HSX2EKIMMQHI2B","AJDHPRCJ985C7","3XT3KXP24ZKFDDMCDS43FE3AU9W6IW","","null","<img src=""img/food2.png"" style=""width:200px; border:14px solid green;"">","null","","","","","","","","","",""
"","image-keyboard-response","326","250577","0.0-416.0","30LSNF239VHTHW15HSX2EKIMMQHI2B","AJDHPRCJ985C7","3XT3KXP24ZKFDDMCDS43FE3AU9W6IW","","801","img/food2.png","76","801","3","1","","1","1","1,0.5,0,1,0.5,0,0.5,0,1","0.5,0,1,0.5,0,1,0,1,0.5","2",""
"","html-keyboard-response","327","250882","0.0-417.0","30LSNF239VHTHW15HSX2EKIMMQHI2B","AJDHPRCJ985C7","3XT3KXP24ZKFDDMCDS43FE3AU9W6IW","","null","<img src=""img/food2.png"" style=""width:200px; border:14px solid green;"">","null","","","","","","","","","",""
"","image-keyboard-response","328","251569","0.0-418.0","30LSNF239VHTHW15HSX2EKIMMQHI2B","AJDHPRCJ985C7","3XT3KXP24ZKFDDMCDS43FE3AU9W6IW","","687","img/food3.png","75","687","2","1","","3","1","1,0.5,0,1,0.5,0,0.5,0,1","0.5,0,1,0.5,0,1,0,1,0.5","2",""
"","html-keyboard-response","329","251871","0.0-419.0","30LSNF239VHTHW15HSX2EKIMMQHI2B","AJDHPRCJ985C7","3XT3KXP24ZKFDDMCDS43FE3AU9W6IW","","null","<img src=""img/food3.png"" style=""width:200px; border:14px solid green;"">","null","","","","","","","","","",""
"","image-keyboard-response","330","252545","0.0-420.0","30LSNF239VHTHW15HSX2EKIMMQHI2B","AJDHPRCJ985C7","3XT3KXP24ZKFDDMCDS43FE3AU9W6IW","","673","img/food2.png","76","673","3","1","","1","1","1,0.5,0,1,0.5,0,0.5,0,1","0.5,0,1,0.5,0,1,0,1,0.5","2",""
"","html-keyboard-response","331","252848","0.0-421.0","30LSNF239VHTHW15HSX2EKIMMQHI2B","AJDHPRCJ985C7","3XT3KXP24ZKFDDMCDS43FE3AU9W6IW","","null","<img src=""img/food2.png"" style=""width:200px; border:14px solid green;"">","null","","","","","","","","","",""
"","image-keyboard-response","332","253897","0.0-422.0","30LSNF239VHTHW15HSX2EKIMMQHI2B","AJDHPRCJ985C7","3XT3KXP24ZKFDDMCDS43FE3AU9W6IW","","1047","img/food3.png","75","1048","2","1","","3","1","1,0.5,0,1,0.5,0,0.5,0,1","0.5,0,1,0.5,0,1,0,1,0.5","2",""
"","html-keyboard-response","333","254199","0.0-423.0","30LSNF239VHTHW15HSX2EKIMMQHI2B","AJDHPRCJ985C7","3XT3KXP24ZKFDDMCDS43FE3AU9W6IW","","null","<img src=""img/food3.png"" style=""width:200px; border:14px solid green;"">","null","","","","","","","","","",""
"","image-keyboard-response","334","255049","0.0-424.0","30LSNF239VHTHW15HSX2EKIMMQHI2B","AJDHPRCJ985C7","3XT3KXP24ZKFDDMCDS43FE3AU9W6IW","","851","img/food2.png","76","851","3","1","","1","1","1,0.5,0,1,0.5,0,0.5,0,1","0.5,0,1,0.5,0,1,0,1,0.5","2",""
"","html-keyboard-response","335","255353","0.0-425.0","30LSNF239VHTHW15HSX2EKIMMQHI2B","AJDHPRCJ985C7","3XT3KXP24ZKFDDMCDS43FE3AU9W6IW","","null","<img src=""img/food2.png"" style=""width:200px; border:14px solid green;"">","null","","","","","","","","","",""
"","image-keyboard-response","336","256121","0.0-426.0","30LSNF239VHTHW15HSX2EKIMMQHI2B","AJDHPRCJ985C7","3XT3KXP24ZKFDDMCDS43FE3AU9W6IW","","767","img/food3.png","75","767","2","1","","3","1","1,0.5,0,1,0.5,0,0.5,0,1","0.5,0,1,0.5,0,1,0,1,0.5","2",""
"","html-keyboard-response","337","256426","0.0-427.0","30LSNF239VHTHW15HSX2EKIMMQHI2B","AJDHPRCJ985C7","3XT3KXP24ZKFDDMCDS43FE3AU9W6IW","","null","<img src=""img/food3.png"" style=""width:200px; border:14px solid green;"">","null","","","","","","","","","",""
"","image-keyboard-response","338","257121","0.0-428.0","30LSNF239VHTHW15HSX2EKIMMQHI2B","AJDHPRCJ985C7","3XT3KXP24ZKFDDMCDS43FE3AU9W6IW","","695","img/food2.png","76","696","3","1","","1","1","1,0.5,0,1,0.5,0,0.5,0,1","0.5,0,1,0.5,0,1,0,1,0.5","2",""
"","html-keyboard-response","339","257426","0.0-429.0","30LSNF239VHTHW15HSX2EKIMMQHI2B","AJDHPRCJ985C7","3XT3KXP24ZKFDDMCDS43FE3AU9W6IW","","null","<img src=""img/food2.png"" style=""width:200px; border:14px solid green;"">","null","","","","","","","","","",""
"","image-keyboard-response","340","258025","0.0-430.0","30LSNF239VHTHW15HSX2EKIMMQHI2B","AJDHPRCJ985C7","3XT3KXP24ZKFDDMCDS43FE3AU9W6IW","","597","img/food3.png","75","598","2","1","","3","1","1,0.5,0,1,0.5,0,0.5,0,1","0.5,0,1,0.5,0,1,0,1,0.5","2",""
"","html-keyboard-response","341","258326","0.0-431.0","30LSNF239VHTHW15HSX2EKIMMQHI2B","AJDHPRCJ985C7","3XT3KXP24ZKFDDMCDS43FE3AU9W6IW","","null","<img src=""img/food3.png"" style=""width:200px; border:14px solid green;"">","null","","","","","","","","","",""
"","image-keyboard-response","342","259001","0.0-432.0","30LSNF239VHTHW15HSX2EKIMMQHI2B","AJDHPRCJ985C7","3XT3KXP24ZKFDDMCDS43FE3AU9W6IW","","674","img/food3.png","76","675","3","1","","3","1","1,0.5,0,1,0.5,0,0.5,0,1","0.5,0,1,0.5,0,1,0,1,0.5","2",""
"","html-keyboard-response","343","259302","0.0-433.0","30LSNF239VHTHW15HSX2EKIMMQHI2B","AJDHPRCJ985C7","3XT3KXP24ZKFDDMCDS43FE3AU9W6IW","","null","<img src=""img/food3.png"" style=""width:200px; border:14px solid green;"">","null","","","","","","","","","",""
"","image-keyboard-response","344","260698","0.0-434.0","30LSNF239VHTHW15HSX2EKIMMQHI2B","AJDHPRCJ985C7","3XT3KXP24ZKFDDMCDS43FE3AU9W6IW","","1394","img/food1.png","76","1394","3","1","","2","1","1,0.5,0,1,0.5,0,0.5,0,1","0.5,0,1,0.5,0,1,0,1,0.5","2",""
"","html-keyboard-response","345","260999","0.0-435.0","30LSNF239VHTHW15HSX2EKIMMQHI2B","AJDHPRCJ985C7","3XT3KXP24ZKFDDMCDS43FE3AU9W6IW","","null","<img src=""img/food1.png"" style=""width:200px; border:14px solid green;"">","null","","","","","","","","","",""
"","image-keyboard-response","346","262201","0.0-436.0","30LSNF239VHTHW15HSX2EKIMMQHI2B","AJDHPRCJ985C7","3XT3KXP24ZKFDDMCDS43FE3AU9W6IW","","1202","img/food3.png","75","1203","2","1","","3","1","1,0.5,0,1,0.5,0,0.5,0,1","0.5,0,1,0.5,0,1,0,1,0.5","2",""
"","html-keyboard-response","347","262503","0.0-437.0","30LSNF239VHTHW15HSX2EKIMMQHI2B","AJDHPRCJ985C7","3XT3KXP24ZKFDDMCDS43FE3AU9W6IW","","null","<img src=""img/food3.png"" style=""width:200px; border:14px solid green;"">","null","","","","","","","","","",""
"","image-keyboard-response","348","263121","0.0-438.0","30LSNF239VHTHW15HSX2EKIMMQHI2B","AJDHPRCJ985C7","3XT3KXP24ZKFDDMCDS43FE3AU9W6IW","","617","img/food3.png","75","618","2","1","","3","1","1,0.5,0,1,0.5,0,0.5,0,1","0.5,0,1,0.5,0,1,0,1,0.5","2",""
"","html-keyboard-response","349","263427","0.0-439.0","30LSNF239VHTHW15HSX2EKIMMQHI2B","AJDHPRCJ985C7","3XT3KXP24ZKFDDMCDS43FE3AU9W6IW","","null","<img src=""img/food3.png"" style=""width:200px; border:14px solid green;"">","null","","","","","","","","","",""
"","image-keyboard-response","350","264426","0.0-440.0","30LSNF239VHTHW15HSX2EKIMMQHI2B","AJDHPRCJ985C7","3XT3KXP24ZKFDDMCDS43FE3AU9W6IW","","999","img/food2.png","76","999","3","1","","1","1","1,0.5,0,1,0.5,0,0.5,0,1","0.5,0,1,0.5,0,1,0,1,0.5","2",""
"","html-keyboard-response","351","264726","0.0-441.0","30LSNF239VHTHW15HSX2EKIMMQHI2B","AJDHPRCJ985C7","3XT3KXP24ZKFDDMCDS43FE3AU9W6IW","","null","<img src=""img/food2.png"" style=""width:200px; border:14px solid green;"">","null","","","","","","","","","",""
"","image-keyboard-response","352","265890","0.0-442.0","30LSNF239VHTHW15HSX2EKIMMQHI2B","AJDHPRCJ985C7","3XT3KXP24ZKFDDMCDS43FE3AU9W6IW","","1162","img/food3.png","75","1162","2","1","","3","1","1,0.5,0,1,0.5,0,0.5,0,1","0.5,0,1,0.5,0,1,0,1,0.5","2",""
"","html-keyboard-response","353","266191","0.0-443.0","30LSNF239VHTHW15HSX2EKIMMQHI2B","AJDHPRCJ985C7","3XT3KXP24ZKFDDMCDS43FE3AU9W6IW","","null","<img src=""img/food3.png"" style=""width:200px; border:14px solid green;"">","null","","","","","","","","","",""
"","image-keyboard-response","354","266962","0.0-444.0","30LSNF239VHTHW15HSX2EKIMMQHI2B","AJDHPRCJ985C7","3XT3KXP24ZKFDDMCDS43FE3AU9W6IW","","771","img/food2.png","76","771","3","1","","1","1","1,0.5,0,1,0.5,0,0.5,0,1","0.5,0,1,0.5,0,1,0,1,0.5","2",""
"","html-keyboard-response","355","267263","0.0-445.0","30LSNF239VHTHW15HSX2EKIMMQHI2B","AJDHPRCJ985C7","3XT3KXP24ZKFDDMCDS43FE3AU9W6IW","","null","<img src=""img/food2.png"" style=""width:200px; border:14px solid green;"">","null","","","","","","","","","",""
"","image-keyboard-response","356","268241","0.0-446.0","30LSNF239VHTHW15HSX2EKIMMQHI2B","AJDHPRCJ985C7","3XT3KXP24ZKFDDMCDS43FE3AU9W6IW","","977","img/food1.png","76","977","3","1","","2","1","1,0.5,0,1,0.5,0,0.5,0,1","0.5,0,1,0.5,0,1,0,1,0.5","2",""
"","html-keyboard-response","357","268543","0.0-447.0","30LSNF239VHTHW15HSX2EKIMMQHI2B","AJDHPRCJ985C7","3XT3KXP24ZKFDDMCDS43FE3AU9W6IW","","null","<img src=""img/food1.png"" style=""width:200px; border:14px solid green;"">","null","","","","","","","","","",""
"","image-keyboard-response","358","269457","0.0-448.0","30LSNF239VHTHW15HSX2EKIMMQHI2B","AJDHPRCJ985C7","3XT3KXP24ZKFDDMCDS43FE3AU9W6IW","","914","img/food2.png","76","914","3","1","","1","1","1,0.5,0,1,0.5,0,0.5,0,1","0.5,0,1,0.5,0,1,0,1,0.5","2",""
"","html-keyboard-response","359","269764","0.0-449.0","30LSNF239VHTHW15HSX2EKIMMQHI2B","AJDHPRCJ985C7","3XT3KXP24ZKFDDMCDS43FE3AU9W6IW","","null","<img src=""img/food2.png"" style=""width:200px; border:14px solid green;"">","null","","","","","","","","","",""
"","image-keyboard-response","360","271122","0.0-450.0","30LSNF239VHTHW15HSX2EKIMMQHI2B","AJDHPRCJ985C7","3XT3KXP24ZKFDDMCDS43FE3AU9W6IW","","1358","img/food3.png","75","1358","2","1","","3","1","1,0.5,0,1,0.5,0,0.5,0,1","0.5,0,1,0.5,0,1,0,1,0.5","2",""
"","html-keyboard-response","361","271427","0.0-451.0","30LSNF239VHTHW15HSX2EKIMMQHI2B","AJDHPRCJ985C7","3XT3KXP24ZKFDDMCDS43FE3AU9W6IW","","null","<img src=""img/food3.png"" style=""width:200px; border:14px solid green;"">","null","","","","","","","","","",""
"","image-keyboard-response","362","272169","0.0-452.0","30LSNF239VHTHW15HSX2EKIMMQHI2B","AJDHPRCJ985C7","3XT3KXP24ZKFDDMCDS43FE3AU9W6IW","","743","img/food1.png","76","743","3","1","","2","1","1,0.5,0,1,0.5,0,0.5,0,1","0.5,0,1,0.5,0,1,0,1,0.5","2",""
"","html-keyboard-response","363","272473","0.0-453.0","30LSNF239VHTHW15HSX2EKIMMQHI2B","AJDHPRCJ985C7","3XT3KXP24ZKFDDMCDS43FE3AU9W6IW","","null","<img src=""img/food1.png"" style=""width:200px; border:14px solid green;"">","null","","","","","","","","","",""
"","html-keyboard-response","364","276055","0.0-454.0","30LSNF239VHTHW15HSX2EKIMMQHI2B","AJDHPRCJ985C7","3XT3KXP24ZKFDDMCDS43FE3AU9W6IW","","","","","","","","","","","","","",""
"","instructions","365","279159","0.0-455.0","30LSNF239VHTHW15HSX2EKIMMQHI2B","AJDHPRCJ985C7","3XT3KXP24ZKFDDMCDS43FE3AU9W6IW","[{""page_index"":0,""viewing_time"":3103}]","3103","","","","","","","","","","","",""
"","survey-text","366","284549","0.0-456.0","30LSNF239VHTHW15HSX2EKIMMQHI2B","AJDHPRCJ985C7","3XT3KXP24ZKFDDMCDS43FE3AU9W6IW","","5387","","","","","","","","","","","","{""Q0"":""AJDHPRCJ985C7""}"
