"success","trial_type","trial_index","time_elapsed","internal_node_id","assignmentID","mturkID","hitID","view_history","rt","stimulus","key_press","reactionTime","a","r","s","cond","reward_cond","reward_cond_actual","reward_matrix_idx","warning","responses"
"true","fullscreen","0","2571","0.0-0.0","3MD9PLUKKJ0B18F83FJ863OATUONZA","AJDXSXAWDDAEO","30UZJB2POHY4464FN6NBJ2NLFWF354","","","","","","","","","","","","","",""
"","instructions","1","64472","0.0-1.0","3MD9PLUKKJ0B18F83FJ863OATUONZA","AJDXSXAWDDAEO","30UZJB2POHY4464FN6NBJ2NLFWF354","[{""page_index"":0,""viewing_time"":3771.099999997765},{""page_index"":1,""viewing_time"":1498.4000000022352},{""page_index"":2,""viewing_time"":3311.5},{""page_index"":3,""viewing_time"":4966.89999999851},{""page_index"":4,""viewing_time"":2002.6000000014901},{""page_index"":5,""viewing_time"":45072.099999997765},{""page_index"":6,""viewing_time"":1270.300000000745}]","61893.599999997765","","","","","","","","","","","",""
"","image-keyboard-response","2","65688","0.0-2.0","3MD9PLUKKJ0B18F83FJ863OATUONZA","AJDXSXAWDDAEO","30UZJB2POHY4464FN6NBJ2NLFWF354","","1213.4000000022352","img/food4.png","74","1216.0999999977648","1","1","3","1","1,0.5,0,1,0.5,0,0.5,0,1","0,1,0.5,0,1,0.5,1,0.5,0","3","",""
"","html-keyboard-response","3","65994","0.0-3.0","3MD9PLUKKJ0B18F83FJ863OATUONZA","AJDXSXAWDDAEO","30UZJB2POHY4464FN6NBJ2NLFWF354","","null","<img src=""img/food4.png"" style=""width:200px; border:14px solid green;"">","null","","","","","","","","","",""
"","image-keyboard-response","4","66992","0.0-4.0","3MD9PLUKKJ0B18F83FJ863OATUONZA","AJDXSXAWDDAEO","30UZJB2POHY4464FN6NBJ2NLFWF354","","994.0999999977648","img/food2.png","75","997.5","2","1","1","1","1,0.5,0,1,0.5,0,0.5,0,1","0,1,0.5,0,1,0.5,1,0.5,0","3","",""
"","html-keyboard-response","5","67296","0.0-5.0","3MD9PLUKKJ0B18F83FJ863OATUONZA","AJDXSXAWDDAEO","30UZJB2POHY4464FN6NBJ2NLFWF354","","null","<img src=""img/food2.png"" style=""width:200px; border:14px solid green;"">","null","","","","","","","","","",""
"","image-keyboard-response","6","68018","0.0-6.0","3MD9PLUKKJ0B18F83FJ863OATUONZA","AJDXSXAWDDAEO","30UZJB2POHY4464FN6NBJ2NLFWF354","","718.5","img/food4.png","74","721.0999999977648","1","1","3","1","1,0.5,0,1,0.5,0,0.5,0,1","0,1,0.5,0,1,0.5,1,0.5,0","3","",""
"","html-keyboard-response","7","68323","0.0-7.0","3MD9PLUKKJ0B18F83FJ863OATUONZA","AJDXSXAWDDAEO","30UZJB2POHY4464FN6NBJ2NLFWF354","","null","<img src=""img/food4.png"" style=""width:200px; border:14px solid green;"">","null","","","","","","","","","",""
"","image-keyboard-response","8","69017","0.0-8.0","3MD9PLUKKJ0B18F83FJ863OATUONZA","AJDXSXAWDDAEO","30UZJB2POHY4464FN6NBJ2NLFWF354","","692.8000000007451","img/food4.png","74","695.5999999977648","1","1","3","1","1,0.5,0,1,0.5,0,0.5,0,1","0,1,0.5,0,1,0.5,1,0.5,0","3","",""
"","html-keyboard-response","9","69322","0.0-9.0","3MD9PLUKKJ0B18F83FJ863OATUONZA","AJDXSXAWDDAEO","30UZJB2POHY4464FN6NBJ2NLFWF354","","null","<img src=""img/food4.png"" style=""width:200px; border:14px solid green;"">","null","","","","","","","","","",""
"","image-keyboard-response","10","71098","0.0-10.0","3MD9PLUKKJ0B18F83FJ863OATUONZA","AJDXSXAWDDAEO","30UZJB2POHY4464FN6NBJ2NLFWF354","","1771.5","img/food6.png","76","1774.800000000745","3","1","2","1","1,0.5,0,1,0.5,0,0.5,0,1","0,1,0.5,0,1,0.5,1,0.5,0","3","",""
"","html-keyboard-response","11","71401","0.0-11.0","3MD9PLUKKJ0B18F83FJ863OATUONZA","AJDXSXAWDDAEO","30UZJB2POHY4464FN6NBJ2NLFWF354","","null","<img src=""img/food6.png"" style=""width:200px; border:14px solid green;"">","null","","","","","","","","","",""
"","image-keyboard-response","12","72006","0.0-12.0","3MD9PLUKKJ0B18F83FJ863OATUONZA","AJDXSXAWDDAEO","30UZJB2POHY4464FN6NBJ2NLFWF354","","602.6000000014901","img/food4.png","74","604.6000000014901","1","1","3","1","1,0.5,0,1,0.5,0,0.5,0,1","0,1,0.5,0,1,0.5,1,0.5,0","3","",""
"","html-keyboard-response","13","72309","0.0-13.0","3MD9PLUKKJ0B18F83FJ863OATUONZA","AJDXSXAWDDAEO","30UZJB2POHY4464FN6NBJ2NLFWF354","","null","<img src=""img/food4.png"" style=""width:200px; border:14px solid green;"">","null","","","","","","","","","",""
"","image-keyboard-response","14","73109","0.0-14.0","3MD9PLUKKJ0B18F83FJ863OATUONZA","AJDXSXAWDDAEO","30UZJB2POHY4464FN6NBJ2NLFWF354","","797.4000000022352","img/food2.png","75","799.6999999992549","2","1","1","1","1,0.5,0,1,0.5,0,0.5,0,1","0,1,0.5,0,1,0.5,1,0.5,0","3","",""
"","html-keyboard-response","15","73413","0.0-15.0","3MD9PLUKKJ0B18F83FJ863OATUONZA","AJDXSXAWDDAEO","30UZJB2POHY4464FN6NBJ2NLFWF354","","null","<img src=""img/food2.png"" style=""width:200px; border:14px solid green;"">","null","","","","","","","","","",""
"","image-keyboard-response","16","73893","0.0-16.0","3MD9PLUKKJ0B18F83FJ863OATUONZA","AJDXSXAWDDAEO","30UZJB2POHY4464FN6NBJ2NLFWF354","","477.5","img/food6.png","76","479.8999999985099","3","1","2","1","1,0.5,0,1,0.5,0,0.5,0,1","0,1,0.5,0,1,0.5,1,0.5,0","3","",""
"","html-keyboard-response","17","74196","0.0-17.0","3MD9PLUKKJ0B18F83FJ863OATUONZA","AJDXSXAWDDAEO","30UZJB2POHY4464FN6NBJ2NLFWF354","","null","<img src=""img/food6.png"" style=""width:200px; border:14px solid green;"">","null","","","","","","","","","",""
"","image-keyboard-response","18","74637","0.0-18.0","3MD9PLUKKJ0B18F83FJ863OATUONZA","AJDXSXAWDDAEO","30UZJB2POHY4464FN6NBJ2NLFWF354","","438.9000000022352","img/food6.png","76","440.4000000022352","3","1","2","1","1,0.5,0,1,0.5,0,0.5,0,1","0,1,0.5,0,1,0.5,1,0.5,0","3","",""
"","html-keyboard-response","19","74940","0.0-19.0","3MD9PLUKKJ0B18F83FJ863OATUONZA","AJDXSXAWDDAEO","30UZJB2POHY4464FN6NBJ2NLFWF354","","null","<img src=""img/food6.png"" style=""width:200px; border:14px solid green;"">","null","","","","","","","","","",""
"","image-keyboard-response","20","75597","0.0-20.0","3MD9PLUKKJ0B18F83FJ863OATUONZA","AJDXSXAWDDAEO","30UZJB2POHY4464FN6NBJ2NLFWF354","","653.3000000007451","img/food2.png","75","655.6999999992549","2","1","1","1","1,0.5,0,1,0.5,0,0.5,0,1","0,1,0.5,0,1,0.5,1,0.5,0","3","",""
"","html-keyboard-response","21","75901","0.0-21.0","3MD9PLUKKJ0B18F83FJ863OATUONZA","AJDXSXAWDDAEO","30UZJB2POHY4464FN6NBJ2NLFWF354","","null","<img src=""img/food2.png"" style=""width:200px; border:14px solid green;"">","null","","","","","","","","","",""
"","image-keyboard-response","22","76403","0.0-22.0","3MD9PLUKKJ0B18F83FJ863OATUONZA","AJDXSXAWDDAEO","30UZJB2POHY4464FN6NBJ2NLFWF354","","498.5","img/food6.png","76","501.1000000014901","3","1","2","1","1,0.5,0,1,0.5,0,0.5,0,1","0,1,0.5,0,1,0.5,1,0.5,0","3","",""
"","html-keyboard-response","23","76706","0.0-23.0","3MD9PLUKKJ0B18F83FJ863OATUONZA","AJDXSXAWDDAEO","30UZJB2POHY4464FN6NBJ2NLFWF354","","null","<img src=""img/food6.png"" style=""width:200px; border:14px solid green;"">","null","","","","","","","","","",""
"","image-keyboard-response","24","77701","0.0-24.0","3MD9PLUKKJ0B18F83FJ863OATUONZA","AJDXSXAWDDAEO","30UZJB2POHY4464FN6NBJ2NLFWF354","","991.6000000014901","img/food4.png","74","994.5","1","1","3","1","1,0.5,0,1,0.5,0,0.5,0,1","0,1,0.5,0,1,0.5,1,0.5,0","3","",""
"","html-keyboard-response","25","78005","0.0-25.0","3MD9PLUKKJ0B18F83FJ863OATUONZA","AJDXSXAWDDAEO","30UZJB2POHY4464FN6NBJ2NLFWF354","","null","<img src=""img/food4.png"" style=""width:200px; border:14px solid green;"">","null","","","","","","","","","",""
"","image-keyboard-response","26","78712","0.0-26.0","3MD9PLUKKJ0B18F83FJ863OATUONZA","AJDXSXAWDDAEO","30UZJB2POHY4464FN6NBJ2NLFWF354","","706.3000000007451","img/food2.png","75","707.8999999985099","2","1","1","1","1,0.5,0,1,0.5,0,0.5,0,1","0,1,0.5,0,1,0.5,1,0.5,0","3","",""
"","html-keyboard-response","27","79017","0.0-27.0","3MD9PLUKKJ0B18F83FJ863OATUONZA","AJDXSXAWDDAEO","30UZJB2POHY4464FN6NBJ2NLFWF354","","null","<img src=""img/food2.png"" style=""width:200px; border:14px solid green;"">","null","","","","","","","","","",""
"","image-keyboard-response","28","79780","0.0-28.0","3MD9PLUKKJ0B18F83FJ863OATUONZA","AJDXSXAWDDAEO","30UZJB2POHY4464FN6NBJ2NLFWF354","","760.1000000014901","img/food4.png","74","762.3000000007451","1","1","3","1","1,0.5,0,1,0.5,0,0.5,0,1","0,1,0.5,0,1,0.5,1,0.5,0","3","",""
"","html-keyboard-response","29","80083","0.0-29.0","3MD9PLUKKJ0B18F83FJ863OATUONZA","AJDXSXAWDDAEO","30UZJB2POHY4464FN6NBJ2NLFWF354","","null","<img src=""img/food4.png"" style=""width:200px; border:14px solid green;"">","null","","","","","","","","","",""
"","image-keyboard-response","30","80728","0.0-30.0","3MD9PLUKKJ0B18F83FJ863OATUONZA","AJDXSXAWDDAEO","30UZJB2POHY4464FN6NBJ2NLFWF354","","641.5999999977648","img/food6.png","76","644.3000000007451","3","1","2","1","1,0.5,0,1,0.5,0,0.5,0,1","0,1,0.5,0,1,0.5,1,0.5,0","3","",""
"","html-keyboard-response","31","81031","0.0-31.0","3MD9PLUKKJ0B18F83FJ863OATUONZA","AJDXSXAWDDAEO","30UZJB2POHY4464FN6NBJ2NLFWF354","","null","<img src=""img/food6.png"" style=""width:200px; border:14px solid green;"">","null","","","","","","","","","",""
"","image-keyboard-response","32","81474","0.0-32.0","3MD9PLUKKJ0B18F83FJ863OATUONZA","AJDXSXAWDDAEO","30UZJB2POHY4464FN6NBJ2NLFWF354","","439.20000000298023","img/food6.png","76","441.80000000074506","3","0","2","1","1,0.5,0,1,0.5,0,0.5,0,1","0,1,0.5,0,1,0.5,1,0.5,0","3","",""
"","html-keyboard-response","33","81778","0.0-33.0","3MD9PLUKKJ0B18F83FJ863OATUONZA","AJDXSXAWDDAEO","30UZJB2POHY4464FN6NBJ2NLFWF354","","null","<img src=""img/food6.png"" style=""width:200px;border:14px solid red;"">","null","","","","","","","","","",""
"","image-keyboard-response","34","82691","0.0-34.0","3MD9PLUKKJ0B18F83FJ863OATUONZA","AJDXSXAWDDAEO","30UZJB2POHY4464FN6NBJ2NLFWF354","","910.6999999992549","img/food2.png","75","912.8999999985099","2","1","1","1","1,0.5,0,1,0.5,0,0.5,0,1","0,1,0.5,0,1,0.5,1,0.5,0","3","",""
"","html-keyboard-response","35","82995","0.0-35.0","3MD9PLUKKJ0B18F83FJ863OATUONZA","AJDXSXAWDDAEO","30UZJB2POHY4464FN6NBJ2NLFWF354","","null","<img src=""img/food2.png"" style=""width:200px; border:14px solid green;"">","null","","","","","","","","","",""
"","image-keyboard-response","36","83560","0.0-36.0","3MD9PLUKKJ0B18F83FJ863OATUONZA","AJDXSXAWDDAEO","30UZJB2POHY4464FN6NBJ2NLFWF354","","561","img/food4.png","74","563.6000000014901","1","1","3","1","1,0.5,0,1,0.5,0,0.5,0,1","0,1,0.5,0,1,0.5,1,0.5,0","3","",""
"","html-keyboard-response","37","83863","0.0-37.0","3MD9PLUKKJ0B18F83FJ863OATUONZA","AJDXSXAWDDAEO","30UZJB2POHY4464FN6NBJ2NLFWF354","","null","<img src=""img/food4.png"" style=""width:200px; border:14px solid green;"">","null","","","","","","","","","",""
"","image-keyboard-response","38","84341","0.0-38.0","3MD9PLUKKJ0B18F83FJ863OATUONZA","AJDXSXAWDDAEO","30UZJB2POHY4464FN6NBJ2NLFWF354","","475.19999999925494","img/food6.png","76","477.1000000014901","3","1","2","1","1,0.5,0,1,0.5,0,0.5,0,1","0,1,0.5,0,1,0.5,1,0.5,0","3","",""
"","html-keyboard-response","39","84643","0.0-39.0","3MD9PLUKKJ0B18F83FJ863OATUONZA","AJDXSXAWDDAEO","30UZJB2POHY4464FN6NBJ2NLFWF354","","null","<img src=""img/food6.png"" style=""width:200px; border:14px solid green;"">","null","","","","","","","","","",""
"","image-keyboard-response","40","85506","0.0-40.0","3MD9PLUKKJ0B18F83FJ863OATUONZA","AJDXSXAWDDAEO","30UZJB2POHY4464FN6NBJ2NLFWF354","","859.5","img/food2.png","75","864.4000000022352","2","1","1","1","1,0.5,0,1,0.5,0,0.5,0,1","0,1,0.5,0,1,0.5,1,0.5,0","3","",""
"","html-keyboard-response","41","85812","0.0-41.0","3MD9PLUKKJ0B18F83FJ863OATUONZA","AJDXSXAWDDAEO","30UZJB2POHY4464FN6NBJ2NLFWF354","","null","<img src=""img/food2.png"" style=""width:200px; border:14px solid green;"">","null","","","","","","","","","",""
"","image-keyboard-response","42","86481","0.0-42.0","3MD9PLUKKJ0B18F83FJ863OATUONZA","AJDXSXAWDDAEO","30UZJB2POHY4464FN6NBJ2NLFWF354","","666.5999999977648","img/food4.png","74","668.5","1","1","3","1","1,0.5,0,1,0.5,0,0.5,0,1","0,1,0.5,0,1,0.5,1,0.5,0","3","",""
"","html-keyboard-response","43","86784","0.0-43.0","3MD9PLUKKJ0B18F83FJ863OATUONZA","AJDXSXAWDDAEO","30UZJB2POHY4464FN6NBJ2NLFWF354","","null","<img src=""img/food4.png"" style=""width:200px; border:14px solid green;"">","null","","","","","","","","","",""
"","image-keyboard-response","44","87461","0.0-44.0","3MD9PLUKKJ0B18F83FJ863OATUONZA","AJDXSXAWDDAEO","30UZJB2POHY4464FN6NBJ2NLFWF354","","675.0999999977648","img/food2.png","75","676.8999999985099","2","1","1","1","1,0.5,0,1,0.5,0,0.5,0,1","0,1,0.5,0,1,0.5,1,0.5,0","3","",""
"","html-keyboard-response","45","87765","0.0-45.0","3MD9PLUKKJ0B18F83FJ863OATUONZA","AJDXSXAWDDAEO","30UZJB2POHY4464FN6NBJ2NLFWF354","","null","<img src=""img/food2.png"" style=""width:200px; border:14px solid green;"">","null","","","","","","","","","",""
"","image-keyboard-response","46","88226","0.0-46.0","3MD9PLUKKJ0B18F83FJ863OATUONZA","AJDXSXAWDDAEO","30UZJB2POHY4464FN6NBJ2NLFWF354","","458.69999999925494","img/food2.png","75","460.30000000074506","2","1","1","1","1,0.5,0,1,0.5,0,0.5,0,1","0,1,0.5,0,1,0.5,1,0.5,0","3","",""
"","html-keyboard-response","47","88528","0.0-47.0","3MD9PLUKKJ0B18F83FJ863OATUONZA","AJDXSXAWDDAEO","30UZJB2POHY4464FN6NBJ2NLFWF354","","null","<img src=""img/food2.png"" style=""width:200px; border:14px solid green;"">","null","","","","","","","","","",""
"","image-keyboard-response","48","88878","0.0-48.0","3MD9PLUKKJ0B18F83FJ863OATUONZA","AJDXSXAWDDAEO","30UZJB2POHY4464FN6NBJ2NLFWF354","","347.5","img/food2.png","75","349.70000000298023","2","1","1","1","1,0.5,0,1,0.5,0,0.5,0,1","0,1,0.5,0,1,0.5,1,0.5,0","3","",""
"","html-keyboard-response","49","89183","0.0-49.0","3MD9PLUKKJ0B18F83FJ863OATUONZA","AJDXSXAWDDAEO","30UZJB2POHY4464FN6NBJ2NLFWF354","","null","<img src=""img/food2.png"" style=""width:200px; border:14px solid green;"">","null","","","","","","","","","",""
"","image-keyboard-response","50","89519","0.0-50.0","3MD9PLUKKJ0B18F83FJ863OATUONZA","AJDXSXAWDDAEO","30UZJB2POHY4464FN6NBJ2NLFWF354","","329","img/food2.png","75","334.30000000074506","2","1","1","1","1,0.5,0,1,0.5,0,0.5,0,1","0,1,0.5,0,1,0.5,1,0.5,0","3","",""
"","html-keyboard-response","51","89821","0.0-51.0","3MD9PLUKKJ0B18F83FJ863OATUONZA","AJDXSXAWDDAEO","30UZJB2POHY4464FN6NBJ2NLFWF354","","null","<img src=""img/food2.png"" style=""width:200px; border:14px solid green;"">","null","","","","","","","","","",""
"","image-keyboard-response","52","90382","0.0-52.0","3MD9PLUKKJ0B18F83FJ863OATUONZA","AJDXSXAWDDAEO","30UZJB2POHY4464FN6NBJ2NLFWF354","","558.4000000022352","img/food2.png","75","560.1999999992549","2","1","1","1","1,0.5,0,1,0.5,0,0.5,0,1","0,1,0.5,0,1,0.5,1,0.5,0","3","",""
"","html-keyboard-response","53","90684","0.0-53.0","3MD9PLUKKJ0B18F83FJ863OATUONZA","AJDXSXAWDDAEO","30UZJB2POHY4464FN6NBJ2NLFWF354","","null","<img src=""img/food2.png"" style=""width:200px; border:14px solid green;"">","null","","","","","","","","","",""
"","image-keyboard-response","54","91060","0.0-54.0","3MD9PLUKKJ0B18F83FJ863OATUONZA","AJDXSXAWDDAEO","30UZJB2POHY4464FN6NBJ2NLFWF354","","373","img/food2.png","75","375.80000000074506","2","1","1","1","1,0.5,0,1,0.5,0,0.5,0,1","0,1,0.5,0,1,0.5,1,0.5,0","3","",""
"","html-keyboard-response","55","91364","0.0-55.0","3MD9PLUKKJ0B18F83FJ863OATUONZA","AJDXSXAWDDAEO","30UZJB2POHY4464FN6NBJ2NLFWF354","","null","<img src=""img/food2.png"" style=""width:200px; border:14px solid green;"">","null","","","","","","","","","",""
"","image-keyboard-response","56","92024","0.0-56.0","3MD9PLUKKJ0B18F83FJ863OATUONZA","AJDXSXAWDDAEO","30UZJB2POHY4464FN6NBJ2NLFWF354","","656.6999999992549","img/food4.png","74","659.6000000014901","1","1","3","1","1,0.5,0,1,0.5,0,0.5,0,1","0,1,0.5,0,1,0.5,1,0.5,0","3","",""
"","html-keyboard-response","57","92328","0.0-57.0","3MD9PLUKKJ0B18F83FJ863OATUONZA","AJDXSXAWDDAEO","30UZJB2POHY4464FN6NBJ2NLFWF354","","null","<img src=""img/food4.png"" style=""width:200px; border:14px solid green;"">","null","","","","","","","","","",""
"","image-keyboard-response","58","92817","0.0-58.0","3MD9PLUKKJ0B18F83FJ863OATUONZA","AJDXSXAWDDAEO","30UZJB2POHY4464FN6NBJ2NLFWF354","","483.9000000022352","img/food6.png","76","488.3999999985099","3","1","2","1","1,0.5,0,1,0.5,0,0.5,0,1","0,1,0.5,0,1,0.5,1,0.5,0","3","",""
"","html-keyboard-response","59","93120","0.0-59.0","3MD9PLUKKJ0B18F83FJ863OATUONZA","AJDXSXAWDDAEO","30UZJB2POHY4464FN6NBJ2NLFWF354","","null","<img src=""img/food6.png"" style=""width:200px; border:14px solid green;"">","null","","","","","","","","","",""
"","image-keyboard-response","60","93728","0.0-60.0","3MD9PLUKKJ0B18F83FJ863OATUONZA","AJDXSXAWDDAEO","30UZJB2POHY4464FN6NBJ2NLFWF354","","604.5999999977648","img/food2.png","75","607.1000000014901","2","1","1","1","1,0.5,0,1,0.5,0,0.5,0,1","0,1,0.5,0,1,0.5,1,0.5,0","3","",""
"","html-keyboard-response","61","94031","0.0-61.0","3MD9PLUKKJ0B18F83FJ863OATUONZA","AJDXSXAWDDAEO","30UZJB2POHY4464FN6NBJ2NLFWF354","","null","<img src=""img/food2.png"" style=""width:200px; border:14px solid green;"">","null","","","","","","","","","",""
"","image-keyboard-response","62","94534","0.0-62.0","3MD9PLUKKJ0B18F83FJ863OATUONZA","AJDXSXAWDDAEO","30UZJB2POHY4464FN6NBJ2NLFWF354","","500.5","img/food4.png","74","502.30000000074506","1","1","3","1","1,0.5,0,1,0.5,0,0.5,0,1","0,1,0.5,0,1,0.5,1,0.5,0","3","",""
"","html-keyboard-response","63","94836","0.0-63.0","3MD9PLUKKJ0B18F83FJ863OATUONZA","AJDXSXAWDDAEO","30UZJB2POHY4464FN6NBJ2NLFWF354","","null","<img src=""img/food4.png"" style=""width:200px; border:14px solid green;"">","null","","","","","","","","","",""
"","image-keyboard-response","64","95242","0.0-64.0","3MD9PLUKKJ0B18F83FJ863OATUONZA","AJDXSXAWDDAEO","30UZJB2POHY4464FN6NBJ2NLFWF354","","405.0999999977648","img/food4.png","74","406.80000000074506","1","1","3","1","1,0.5,0,1,0.5,0,0.5,0,1","0,1,0.5,0,1,0.5,1,0.5,0","3","",""
"","html-keyboard-response","65","95546","0.0-65.0","3MD9PLUKKJ0B18F83FJ863OATUONZA","AJDXSXAWDDAEO","30UZJB2POHY4464FN6NBJ2NLFWF354","","null","<img src=""img/food4.png"" style=""width:200px; border:14px solid green;"">","null","","","","","","","","","",""
"","image-keyboard-response","66","96285","0.0-66.0","3MD9PLUKKJ0B18F83FJ863OATUONZA","AJDXSXAWDDAEO","30UZJB2POHY4464FN6NBJ2NLFWF354","","738.3999999985099","img/food6.png","76","739.3000000007451","3","1","2","1","1,0.5,0,1,0.5,0,0.5,0,1","0,1,0.5,0,1,0.5,1,0.5,0","3","",""
"","html-keyboard-response","67","96587","0.0-67.0","3MD9PLUKKJ0B18F83FJ863OATUONZA","AJDXSXAWDDAEO","30UZJB2POHY4464FN6NBJ2NLFWF354","","null","<img src=""img/food6.png"" style=""width:200px; border:14px solid green;"">","null","","","","","","","","","",""
"","image-keyboard-response","68","96981","0.0-68.0","3MD9PLUKKJ0B18F83FJ863OATUONZA","AJDXSXAWDDAEO","30UZJB2POHY4464FN6NBJ2NLFWF354","","390.30000000074506","img/food6.png","76","392.8999999985099","3","0","2","1","1,0.5,0,1,0.5,0,0.5,0,1","0,1,0.5,0,1,0.5,1,0.5,0","3","",""
"","html-keyboard-response","69","97284","0.0-69.0","3MD9PLUKKJ0B18F83FJ863OATUONZA","AJDXSXAWDDAEO","30UZJB2POHY4464FN6NBJ2NLFWF354","","null","<img src=""img/food6.png"" style=""width:200px;border:14px solid red;"">","null","","","","","","","","","",""
"","image-keyboard-response","70","97821","0.0-70.0","3MD9PLUKKJ0B18F83FJ863OATUONZA","AJDXSXAWDDAEO","30UZJB2POHY4464FN6NBJ2NLFWF354","","533.0999999977648","img/food2.png","75","535.3999999985099","2","1","1","1","1,0.5,0,1,0.5,0,0.5,0,1","0,1,0.5,0,1,0.5,1,0.5,0","3","",""
"","html-keyboard-response","71","98123","0.0-71.0","3MD9PLUKKJ0B18F83FJ863OATUONZA","AJDXSXAWDDAEO","30UZJB2POHY4464FN6NBJ2NLFWF354","","null","<img src=""img/food2.png"" style=""width:200px; border:14px solid green;"">","null","","","","","","","","","",""
"","image-keyboard-response","72","98695","0.0-72.0","3MD9PLUKKJ0B18F83FJ863OATUONZA","AJDXSXAWDDAEO","30UZJB2POHY4464FN6NBJ2NLFWF354","","570.1999999992549","img/food6.png","76","571.6000000014901","3","0","2","1","1,0.5,0,1,0.5,0,0.5,0,1","0,1,0.5,0,1,0.5,1,0.5,0","3","",""
"","html-keyboard-response","73","98999","0.0-73.0","3MD9PLUKKJ0B18F83FJ863OATUONZA","AJDXSXAWDDAEO","30UZJB2POHY4464FN6NBJ2NLFWF354","","null","<img src=""img/food6.png"" style=""width:200px;border:14px solid red;"">","null","","","","","","","","","",""
"","image-keyboard-response","74","99598","0.0-74.0","3MD9PLUKKJ0B18F83FJ863OATUONZA","AJDXSXAWDDAEO","30UZJB2POHY4464FN6NBJ2NLFWF354","","595.6999999992549","img/food2.png","75","598.2000000029802","2","1","1","1","1,0.5,0,1,0.5,0,0.5,0,1","0,1,0.5,0,1,0.5,1,0.5,0","3","",""
"","html-keyboard-response","75","99901","0.0-75.0","3MD9PLUKKJ0B18F83FJ863OATUONZA","AJDXSXAWDDAEO","30UZJB2POHY4464FN6NBJ2NLFWF354","","null","<img src=""img/food2.png"" style=""width:200px; border:14px solid green;"">","null","","","","","","","","","",""
"","image-keyboard-response","76","100408","0.0-76.0","3MD9PLUKKJ0B18F83FJ863OATUONZA","AJDXSXAWDDAEO","30UZJB2POHY4464FN6NBJ2NLFWF354","","504.30000000074506","img/food6.png","76","506.0999999977648","3","0","2","1","1,0.5,0,1,0.5,0,0.5,0,1","0,1,0.5,0,1,0.5,1,0.5,0","3","",""
"","html-keyboard-response","77","100710","0.0-77.0","3MD9PLUKKJ0B18F83FJ863OATUONZA","AJDXSXAWDDAEO","30UZJB2POHY4464FN6NBJ2NLFWF354","","null","<img src=""img/food6.png"" style=""width:200px;border:14px solid red;"">","null","","","","","","","","","",""
"","image-keyboard-response","78","101210","0.0-78.0","3MD9PLUKKJ0B18F83FJ863OATUONZA","AJDXSXAWDDAEO","30UZJB2POHY4464FN6NBJ2NLFWF354","","496.5999999977648","img/food4.png","75","499.3999999985099","2","0","3","1","1,0.5,0,1,0.5,0,0.5,0,1","0,1,0.5,0,1,0.5,1,0.5,0","3","",""
"","html-keyboard-response","79","101513","0.0-79.0","3MD9PLUKKJ0B18F83FJ863OATUONZA","AJDXSXAWDDAEO","30UZJB2POHY4464FN6NBJ2NLFWF354","","null","<img src=""img/food4.png"" style=""width:200px;border:14px solid red;"">","null","","","","","","","","","",""
"","image-keyboard-response","80","102293","0.0-80.0","3MD9PLUKKJ0B18F83FJ863OATUONZA","AJDXSXAWDDAEO","30UZJB2POHY4464FN6NBJ2NLFWF354","","774.4000000022352","img/food6.png","76","776","3","1","2","1","1,0.5,0,1,0.5,0,0.5,0,1","0,1,0.5,0,1,0.5,1,0.5,0","3","",""
"","html-keyboard-response","81","102595","0.0-81.0","3MD9PLUKKJ0B18F83FJ863OATUONZA","AJDXSXAWDDAEO","30UZJB2POHY4464FN6NBJ2NLFWF354","","null","<img src=""img/food6.png"" style=""width:200px; border:14px solid green;"">","null","","","","","","","","","",""
"","image-keyboard-response","82","103238","0.0-82.0","3MD9PLUKKJ0B18F83FJ863OATUONZA","AJDXSXAWDDAEO","30UZJB2POHY4464FN6NBJ2NLFWF354","","639.3000000007451","img/food2.png","75","641.8000000007451","2","1","1","1","1,0.5,0,1,0.5,0,0.5,0,1","0,1,0.5,0,1,0.5,1,0.5,0","3","",""
"","html-keyboard-response","83","103542","0.0-83.0","3MD9PLUKKJ0B18F83FJ863OATUONZA","AJDXSXAWDDAEO","30UZJB2POHY4464FN6NBJ2NLFWF354","","null","<img src=""img/food2.png"" style=""width:200px; border:14px solid green;"">","null","","","","","","","","","",""
"","image-keyboard-response","84","104222","0.0-84.0","3MD9PLUKKJ0B18F83FJ863OATUONZA","AJDXSXAWDDAEO","30UZJB2POHY4464FN6NBJ2NLFWF354","","678.3999999985099","img/food4.png","74","679.9000000022352","1","1","3","1","1,0.5,0,1,0.5,0,0.5,0,1","0,1,0.5,0,1,0.5,1,0.5,0","3","",""
"","html-keyboard-response","85","104524","0.0-85.0","3MD9PLUKKJ0B18F83FJ863OATUONZA","AJDXSXAWDDAEO","30UZJB2POHY4464FN6NBJ2NLFWF354","","null","<img src=""img/food4.png"" style=""width:200px; border:14px solid green;"">","null","","","","","","","","","",""
"","image-keyboard-response","86","105766","0.0-86.0","3MD9PLUKKJ0B18F83FJ863OATUONZA","AJDXSXAWDDAEO","30UZJB2POHY4464FN6NBJ2NLFWF354","","1238.199999999255","img/food2.png","75","1240.699999999255","2","1","1","1","1,0.5,0,1,0.5,0,0.5,0,1","0,1,0.5,0,1,0.5,1,0.5,0","3","",""
"","html-keyboard-response","87","106068","0.0-87.0","3MD9PLUKKJ0B18F83FJ863OATUONZA","AJDXSXAWDDAEO","30UZJB2POHY4464FN6NBJ2NLFWF354","","null","<img src=""img/food2.png"" style=""width:200px; border:14px solid green;"">","null","","","","","","","","","",""
"","image-keyboard-response","88","106767","0.0-88.0","3MD9PLUKKJ0B18F83FJ863OATUONZA","AJDXSXAWDDAEO","30UZJB2POHY4464FN6NBJ2NLFWF354","","696.3000000007451","img/food6.png","76","698.5","3","1","2","1","1,0.5,0,1,0.5,0,0.5,0,1","0,1,0.5,0,1,0.5,1,0.5,0","3","",""
"","html-keyboard-response","89","107071","0.0-89.0","3MD9PLUKKJ0B18F83FJ863OATUONZA","AJDXSXAWDDAEO","30UZJB2POHY4464FN6NBJ2NLFWF354","","null","<img src=""img/food6.png"" style=""width:200px; border:14px solid green;"">","null","","","","","","","","","",""
"","image-keyboard-response","90","107766","0.0-90.0","3MD9PLUKKJ0B18F83FJ863OATUONZA","AJDXSXAWDDAEO","30UZJB2POHY4464FN6NBJ2NLFWF354","","692.3999999985099","img/food4.png","74","694.6000000014901","1","1","3","1","1,0.5,0,1,0.5,0,0.5,0,1","0,1,0.5,0,1,0.5,1,0.5,0","3","",""
"","html-keyboard-response","91","108070","0.0-91.0","3MD9PLUKKJ0B18F83FJ863OATUONZA","AJDXSXAWDDAEO","30UZJB2POHY4464FN6NBJ2NLFWF354","","null","<img src=""img/food4.png"" style=""width:200px; border:14px solid green;"">","null","","","","","","","","","",""
"","image-keyboard-response","92","109079","0.0-92.0","3MD9PLUKKJ0B18F83FJ863OATUONZA","AJDXSXAWDDAEO","30UZJB2POHY4464FN6NBJ2NLFWF354","","1005.8999999985099","img/food6.png","76","1008.5","3","0","2","1","1,0.5,0,1,0.5,0,0.5,0,1","0,1,0.5,0,1,0.5,1,0.5,0","3","",""
"","html-keyboard-response","93","109382","0.0-93.0","3MD9PLUKKJ0B18F83FJ863OATUONZA","AJDXSXAWDDAEO","30UZJB2POHY4464FN6NBJ2NLFWF354","","null","<img src=""img/food6.png"" style=""width:200px;border:14px solid red;"">","null","","","","","","","","","",""
"","image-keyboard-response","94","110624","0.0-94.0","3MD9PLUKKJ0B18F83FJ863OATUONZA","AJDXSXAWDDAEO","30UZJB2POHY4464FN6NBJ2NLFWF354","","1238.6000000014901","img/food4.png","74","1240.5","1","1","3","1","1,0.5,0,1,0.5,0,0.5,0,1","0,1,0.5,0,1,0.5,1,0.5,0","3","",""
"","html-keyboard-response","95","110926","0.0-95.0","3MD9PLUKKJ0B18F83FJ863OATUONZA","AJDXSXAWDDAEO","30UZJB2POHY4464FN6NBJ2NLFWF354","","null","<img src=""img/food4.png"" style=""width:200px; border:14px solid green;"">","null","","","","","","","","","",""
"","image-keyboard-response","96","111587","0.0-96.0","3MD9PLUKKJ0B18F83FJ863OATUONZA","AJDXSXAWDDAEO","30UZJB2POHY4464FN6NBJ2NLFWF354","","659.3999999985099","img/food2.png","75","661","2","1","1","1","1,0.5,0,1,0.5,0,0.5,0,1","0,1,0.5,0,1,0.5,1,0.5,0","3","",""
"","html-keyboard-response","97","111891","0.0-97.0","3MD9PLUKKJ0B18F83FJ863OATUONZA","AJDXSXAWDDAEO","30UZJB2POHY4464FN6NBJ2NLFWF354","","null","<img src=""img/food2.png"" style=""width:200px; border:14px solid green;"">","null","","","","","","","","","",""
"","image-keyboard-response","98","112349","0.0-98.0","3MD9PLUKKJ0B18F83FJ863OATUONZA","AJDXSXAWDDAEO","30UZJB2POHY4464FN6NBJ2NLFWF354","","455","img/food2.png","75","457.5","2","1","1","1","1,0.5,0,1,0.5,0,0.5,0,1","0,1,0.5,0,1,0.5,1,0.5,0","3","",""
"","html-keyboard-response","99","112653","0.0-99.0","3MD9PLUKKJ0B18F83FJ863OATUONZA","AJDXSXAWDDAEO","30UZJB2POHY4464FN6NBJ2NLFWF354","","null","<img src=""img/food2.png"" style=""width:200px; border:14px solid green;"">","null","","","","","","","","","",""
"","image-keyboard-response","100","113192","0.0-100.0","3MD9PLUKKJ0B18F83FJ863OATUONZA","AJDXSXAWDDAEO","30UZJB2POHY4464FN6NBJ2NLFWF354","","535.9000000022352","img/food2.png","75","537.8999999985099","2","1","1","1","1,0.5,0,1,0.5,0,0.5,0,1","0,1,0.5,0,1,0.5,1,0.5,0","3","",""
"","html-keyboard-response","101","113505","0.0-101.0","3MD9PLUKKJ0B18F83FJ863OATUONZA","AJDXSXAWDDAEO","30UZJB2POHY4464FN6NBJ2NLFWF354","","null","<img src=""img/food2.png"" style=""width:200px; border:14px solid green;"">","null","","","","","","","","","",""
"","image-keyboard-response","102","114092","0.0-102.0","3MD9PLUKKJ0B18F83FJ863OATUONZA","AJDXSXAWDDAEO","30UZJB2POHY4464FN6NBJ2NLFWF354","","583","img/food6.png","76","585.2000000029802","3","0","2","1","1,0.5,0,1,0.5,0,0.5,0,1","0,1,0.5,0,1,0.5,1,0.5,0","3","",""
"","html-keyboard-response","103","114395","0.0-103.0","3MD9PLUKKJ0B18F83FJ863OATUONZA","AJDXSXAWDDAEO","30UZJB2POHY4464FN6NBJ2NLFWF354","","null","<img src=""img/food6.png"" style=""width:200px;border:14px solid red;"">","null","","","","","","","","","",""
"","image-keyboard-response","104","114822","0.0-104.0","3MD9PLUKKJ0B18F83FJ863OATUONZA","AJDXSXAWDDAEO","30UZJB2POHY4464FN6NBJ2NLFWF354","","424.0999999977648","img/food6.png","76","426.70000000298023","3","0","2","1","1,0.5,0,1,0.5,0,0.5,0,1","0,1,0.5,0,1,0.5,1,0.5,0","3","",""
"","html-keyboard-response","105","115125","0.0-105.0","3MD9PLUKKJ0B18F83FJ863OATUONZA","AJDXSXAWDDAEO","30UZJB2POHY4464FN6NBJ2NLFWF354","","null","<img src=""img/food6.png"" style=""width:200px;border:14px solid red;"">","null","","","","","","","","","",""
"","image-keyboard-response","106","115767","0.0-106.0","3MD9PLUKKJ0B18F83FJ863OATUONZA","AJDXSXAWDDAEO","30UZJB2POHY4464FN6NBJ2NLFWF354","","638.3000000007451","img/food2.png","75","640.8000000007451","2","1","1","1","1,0.5,0,1,0.5,0,0.5,0,1","0,1,0.5,0,1,0.5,1,0.5,0","3","",""
"","html-keyboard-response","107","116070","0.0-107.0","3MD9PLUKKJ0B18F83FJ863OATUONZA","AJDXSXAWDDAEO","30UZJB2POHY4464FN6NBJ2NLFWF354","","null","<img src=""img/food2.png"" style=""width:200px; border:14px solid green;"">","null","","","","","","","","","",""
"","image-keyboard-response","108","116633","0.0-108.0","3MD9PLUKKJ0B18F83FJ863OATUONZA","AJDXSXAWDDAEO","30UZJB2POHY4464FN6NBJ2NLFWF354","","559.6999999992549","img/food4.png","74","562.6000000014901","1","1","3","1","1,0.5,0,1,0.5,0,0.5,0,1","0,1,0.5,0,1,0.5,1,0.5,0","3","",""
"","html-keyboard-response","109","116936","0.0-109.0","3MD9PLUKKJ0B18F83FJ863OATUONZA","AJDXSXAWDDAEO","30UZJB2POHY4464FN6NBJ2NLFWF354","","null","<img src=""img/food4.png"" style=""width:200px; border:14px solid green;"">","null","","","","","","","","","",""
"","image-keyboard-response","110","118120","0.0-110.0","3MD9PLUKKJ0B18F83FJ863OATUONZA","AJDXSXAWDDAEO","30UZJB2POHY4464FN6NBJ2NLFWF354","","1181.5999999977648","img/food6.png","76","1183.5","3","1","2","1","1,0.5,0,1,0.5,0,0.5,0,1","0,1,0.5,0,1,0.5,1,0.5,0","3","",""
"","html-keyboard-response","111","118426","0.0-111.0","3MD9PLUKKJ0B18F83FJ863OATUONZA","AJDXSXAWDDAEO","30UZJB2POHY4464FN6NBJ2NLFWF354","","null","<img src=""img/food6.png"" style=""width:200px; border:14px solid green;"">","null","","","","","","","","","",""
"","image-keyboard-response","112","119058","0.0-112.0","3MD9PLUKKJ0B18F83FJ863OATUONZA","AJDXSXAWDDAEO","30UZJB2POHY4464FN6NBJ2NLFWF354","","629","img/food2.png","75","632","2","1","1","1","1,0.5,0,1,0.5,0,0.5,0,1","0,1,0.5,0,1,0.5,1,0.5,0","3","",""
"","html-keyboard-response","113","119362","0.0-113.0","3MD9PLUKKJ0B18F83FJ863OATUONZA","AJDXSXAWDDAEO","30UZJB2POHY4464FN6NBJ2NLFWF354","","null","<img src=""img/food2.png"" style=""width:200px; border:14px solid green;"">","null","","","","","","","","","",""
"","image-keyboard-response","114","119735","0.0-114.0","3MD9PLUKKJ0B18F83FJ863OATUONZA","AJDXSXAWDDAEO","30UZJB2POHY4464FN6NBJ2NLFWF354","","371.19999999925494","img/food2.png","75","373.4000000022352","2","1","1","1","1,0.5,0,1,0.5,0,0.5,0,1","0,1,0.5,0,1,0.5,1,0.5,0","3","",""
"","html-keyboard-response","115","120039","0.0-115.0","3MD9PLUKKJ0B18F83FJ863OATUONZA","AJDXSXAWDDAEO","30UZJB2POHY4464FN6NBJ2NLFWF354","","null","<img src=""img/food2.png"" style=""width:200px; border:14px solid green;"">","null","","","","","","","","","",""
"","image-keyboard-response","116","121184","0.0-116.0","3MD9PLUKKJ0B18F83FJ863OATUONZA","AJDXSXAWDDAEO","30UZJB2POHY4464FN6NBJ2NLFWF354","","1141.699999999255","img/food6.png","76","1144.300000000745","3","1","2","1","1,0.5,0,1,0.5,0,0.5,0,1","0,1,0.5,0,1,0.5,1,0.5,0","3","",""
"","html-keyboard-response","117","121489","0.0-117.0","3MD9PLUKKJ0B18F83FJ863OATUONZA","AJDXSXAWDDAEO","30UZJB2POHY4464FN6NBJ2NLFWF354","","null","<img src=""img/food6.png"" style=""width:200px; border:14px solid green;"">","null","","","","","","","","","",""
"","image-keyboard-response","118","122139","0.0-118.0","3MD9PLUKKJ0B18F83FJ863OATUONZA","AJDXSXAWDDAEO","30UZJB2POHY4464FN6NBJ2NLFWF354","","646.3000000007451","img/food6.png","76","648.8000000007451","3","0","2","1","1,0.5,0,1,0.5,0,0.5,0,1","0,1,0.5,0,1,0.5,1,0.5,0","3","",""
"","html-keyboard-response","119","122441","0.0-119.0","3MD9PLUKKJ0B18F83FJ863OATUONZA","AJDXSXAWDDAEO","30UZJB2POHY4464FN6NBJ2NLFWF354","","null","<img src=""img/food6.png"" style=""width:200px;border:14px solid red;"">","null","","","","","","","","","",""
"","image-keyboard-response","120","123842","0.0-120.0","3MD9PLUKKJ0B18F83FJ863OATUONZA","AJDXSXAWDDAEO","30UZJB2POHY4464FN6NBJ2NLFWF354","","1398.300000000745","img/food4.png","74","1400.5999999977648","1","1","3","1","1,0.5,0,1,0.5,0,0.5,0,1","0,1,0.5,0,1,0.5,1,0.5,0","3","",""
"","html-keyboard-response","121","124145","0.0-121.0","3MD9PLUKKJ0B18F83FJ863OATUONZA","AJDXSXAWDDAEO","30UZJB2POHY4464FN6NBJ2NLFWF354","","null","<img src=""img/food4.png"" style=""width:200px; border:14px solid green;"">","null","","","","","","","","","",""
"","image-keyboard-response","122","124522","0.0-122.0","3MD9PLUKKJ0B18F83FJ863OATUONZA","AJDXSXAWDDAEO","30UZJB2POHY4464FN6NBJ2NLFWF354","","375.4000000022352","img/food4.png","74","376.5","1","1","3","1","1,0.5,0,1,0.5,0,0.5,0,1","0,1,0.5,0,1,0.5,1,0.5,0","3","",""
"","html-keyboard-response","123","124824","0.0-123.0","3MD9PLUKKJ0B18F83FJ863OATUONZA","AJDXSXAWDDAEO","30UZJB2POHY4464FN6NBJ2NLFWF354","","null","<img src=""img/food4.png"" style=""width:200px; border:14px solid green;"">","null","","","","","","","","","",""
"","image-keyboard-response","124","125182","0.0-124.0","3MD9PLUKKJ0B18F83FJ863OATUONZA","AJDXSXAWDDAEO","30UZJB2POHY4464FN6NBJ2NLFWF354","","355.1000000014901","img/food4.png","74","357.4000000022352","1","1","3","1","1,0.5,0,1,0.5,0,0.5,0,1","0,1,0.5,0,1,0.5,1,0.5,0","3","",""
"","html-keyboard-response","125","125485","0.0-125.0","3MD9PLUKKJ0B18F83FJ863OATUONZA","AJDXSXAWDDAEO","30UZJB2POHY4464FN6NBJ2NLFWF354","","null","<img src=""img/food4.png"" style=""width:200px; border:14px solid green;"">","null","","","","","","","","","",""
"","image-keyboard-response","126","126208","0.0-126.0","3MD9PLUKKJ0B18F83FJ863OATUONZA","AJDXSXAWDDAEO","30UZJB2POHY4464FN6NBJ2NLFWF354","","719.0999999977648","img/food6.png","76","721.4000000022352","3","1","2","1","1,0.5,0,1,0.5,0,0.5,0,1","0,1,0.5,0,1,0.5,1,0.5,0","3","",""
"","html-keyboard-response","127","126509","0.0-127.0","3MD9PLUKKJ0B18F83FJ863OATUONZA","AJDXSXAWDDAEO","30UZJB2POHY4464FN6NBJ2NLFWF354","","null","<img src=""img/food6.png"" style=""width:200px; border:14px solid green;"">","null","","","","","","","","","",""
"","image-keyboard-response","128","126840","0.0-128.0","3MD9PLUKKJ0B18F83FJ863OATUONZA","AJDXSXAWDDAEO","30UZJB2POHY4464FN6NBJ2NLFWF354","","327.0999999977648","img/food6.png","76","330.1000000014901","3","0","2","1","1,0.5,0,1,0.5,0,0.5,0,1","0,1,0.5,0,1,0.5,1,0.5,0","3","",""
"","html-keyboard-response","129","127143","0.0-129.0","3MD9PLUKKJ0B18F83FJ863OATUONZA","AJDXSXAWDDAEO","30UZJB2POHY4464FN6NBJ2NLFWF354","","null","<img src=""img/food6.png"" style=""width:200px;border:14px solid red;"">","null","","","","","","","","","",""
"","image-keyboard-response","130","127792","0.0-130.0","3MD9PLUKKJ0B18F83FJ863OATUONZA","AJDXSXAWDDAEO","30UZJB2POHY4464FN6NBJ2NLFWF354","","641.5","img/food2.png","75","644","2","1","1","1","1,0.5,0,1,0.5,0,0.5,0,1","0,1,0.5,0,1,0.5,1,0.5,0","3","",""
"","html-keyboard-response","131","128096","0.0-131.0","3MD9PLUKKJ0B18F83FJ863OATUONZA","AJDXSXAWDDAEO","30UZJB2POHY4464FN6NBJ2NLFWF354","","null","<img src=""img/food2.png"" style=""width:200px; border:14px solid green;"">","null","","","","","","","","","",""
"","image-keyboard-response","132","128734","0.0-132.0","3MD9PLUKKJ0B18F83FJ863OATUONZA","AJDXSXAWDDAEO","30UZJB2POHY4464FN6NBJ2NLFWF354","","635.5","img/food4.png","74","638.1999999992549","1","1","3","1","1,0.5,0,1,0.5,0,0.5,0,1","0,1,0.5,0,1,0.5,1,0.5,0","3","",""
"","html-keyboard-response","133","129037","0.0-133.0","3MD9PLUKKJ0B18F83FJ863OATUONZA","AJDXSXAWDDAEO","30UZJB2POHY4464FN6NBJ2NLFWF354","","null","<img src=""img/food4.png"" style=""width:200px; border:14px solid green;"">","null","","","","","","","","","",""
"","image-keyboard-response","134","129422","0.0-134.0","3MD9PLUKKJ0B18F83FJ863OATUONZA","AJDXSXAWDDAEO","30UZJB2POHY4464FN6NBJ2NLFWF354","","381.19999999925494","img/food4.png","74","384","1","1","3","1","1,0.5,0,1,0.5,0,0.5,0,1","0,1,0.5,0,1,0.5,1,0.5,0","3","",""
"","html-keyboard-response","135","129728","0.0-135.0","3MD9PLUKKJ0B18F83FJ863OATUONZA","AJDXSXAWDDAEO","30UZJB2POHY4464FN6NBJ2NLFWF354","","null","<img src=""img/food4.png"" style=""width:200px; border:14px solid green;"">","null","","","","","","","","","",""
"","image-keyboard-response","136","130325","0.0-136.0","3MD9PLUKKJ0B18F83FJ863OATUONZA","AJDXSXAWDDAEO","30UZJB2POHY4464FN6NBJ2NLFWF354","","593.8999999985099","img/food2.png","75","596.3999999985099","2","1","1","1","1,0.5,0,1,0.5,0,0.5,0,1","0,1,0.5,0,1,0.5,1,0.5,0","3","",""
"","html-keyboard-response","137","130628","0.0-137.0","3MD9PLUKKJ0B18F83FJ863OATUONZA","AJDXSXAWDDAEO","30UZJB2POHY4464FN6NBJ2NLFWF354","","null","<img src=""img/food2.png"" style=""width:200px; border:14px solid green;"">","null","","","","","","","","","",""
"","image-keyboard-response","138","131381","0.0-138.0","3MD9PLUKKJ0B18F83FJ863OATUONZA","AJDXSXAWDDAEO","30UZJB2POHY4464FN6NBJ2NLFWF354","","749.6999999992549","img/food6.png","76","752","3","1","2","1","1,0.5,0,1,0.5,0,0.5,0,1","0,1,0.5,0,1,0.5,1,0.5,0","3","",""
"","html-keyboard-response","139","131685","0.0-139.0","3MD9PLUKKJ0B18F83FJ863OATUONZA","AJDXSXAWDDAEO","30UZJB2POHY4464FN6NBJ2NLFWF354","","null","<img src=""img/food6.png"" style=""width:200px; border:14px solid green;"">","null","","","","","","","","","",""
"","image-keyboard-response","140","132059","0.0-140.0","3MD9PLUKKJ0B18F83FJ863OATUONZA","AJDXSXAWDDAEO","30UZJB2POHY4464FN6NBJ2NLFWF354","","369.3999999985099","img/food6.png","76","372.1000000014901","3","0","2","1","1,0.5,0,1,0.5,0,0.5,0,1","0,1,0.5,0,1,0.5,1,0.5,0","3","",""
"","html-keyboard-response","141","132361","0.0-141.0","3MD9PLUKKJ0B18F83FJ863OATUONZA","AJDXSXAWDDAEO","30UZJB2POHY4464FN6NBJ2NLFWF354","","null","<img src=""img/food6.png"" style=""width:200px;border:14px solid red;"">","null","","","","","","","","","",""
"","image-keyboard-response","142","132777","0.0-142.0","3MD9PLUKKJ0B18F83FJ863OATUONZA","AJDXSXAWDDAEO","30UZJB2POHY4464FN6NBJ2NLFWF354","","413.69999999925494","img/food6.png","76","415.8999999985099","3","1","2","1","1,0.5,0,1,0.5,0,0.5,0,1","0,1,0.5,0,1,0.5,1,0.5,0","3","",""
"","html-keyboard-response","143","133082","0.0-143.0","3MD9PLUKKJ0B18F83FJ863OATUONZA","AJDXSXAWDDAEO","30UZJB2POHY4464FN6NBJ2NLFWF354","","null","<img src=""img/food6.png"" style=""width:200px; border:14px solid green;"">","null","","","","","","","","","",""
"","image-keyboard-response","144","134628","0.0-144.0","3MD9PLUKKJ0B18F83FJ863OATUONZA","AJDXSXAWDDAEO","30UZJB2POHY4464FN6NBJ2NLFWF354","","1539","img/food2.png","75","1544.1000000014901","2","1","1","1","1,0.5,0,1,0.5,0,0.5,0,1","0,1,0.5,0,1,0.5,1,0.5,0","3","",""
"","html-keyboard-response","145","134930","0.0-145.0","3MD9PLUKKJ0B18F83FJ863OATUONZA","AJDXSXAWDDAEO","30UZJB2POHY4464FN6NBJ2NLFWF354","","null","<img src=""img/food2.png"" style=""width:200px; border:14px solid green;"">","null","","","","","","","","","",""
"","image-keyboard-response","146","135517","0.0-146.0","3MD9PLUKKJ0B18F83FJ863OATUONZA","AJDXSXAWDDAEO","30UZJB2POHY4464FN6NBJ2NLFWF354","","584.0999999977648","img/food4.png","74","586.6999999992549","1","1","3","1","1,0.5,0,1,0.5,0,0.5,0,1","0,1,0.5,0,1,0.5,1,0.5,0","3","",""
"","html-keyboard-response","147","135821","0.0-147.0","3MD9PLUKKJ0B18F83FJ863OATUONZA","AJDXSXAWDDAEO","30UZJB2POHY4464FN6NBJ2NLFWF354","","null","<img src=""img/food4.png"" style=""width:200px; border:14px solid green;"">","null","","","","","","","","","",""
"","image-keyboard-response","148","136651","0.0-148.0","3MD9PLUKKJ0B18F83FJ863OATUONZA","AJDXSXAWDDAEO","30UZJB2POHY4464FN6NBJ2NLFWF354","","827.5","img/food6.png","76","829.5999999977648","3","0","2","1","1,0.5,0,1,0.5,0,0.5,0,1","0,1,0.5,0,1,0.5,1,0.5,0","3","",""
"","html-keyboard-response","149","136955","0.0-149.0","3MD9PLUKKJ0B18F83FJ863OATUONZA","AJDXSXAWDDAEO","30UZJB2POHY4464FN6NBJ2NLFWF354","","null","<img src=""img/food6.png"" style=""width:200px;border:14px solid red;"">","null","","","","","","","","","",""
"","image-keyboard-response","150","137378","0.0-150.0","3MD9PLUKKJ0B18F83FJ863OATUONZA","AJDXSXAWDDAEO","30UZJB2POHY4464FN6NBJ2NLFWF354","","420.5","img/food6.png","76","423.0999999977648","3","0","2","1","1,0.5,0,1,0.5,0,0.5,0,1","0,1,0.5,0,1,0.5,1,0.5,0","3","",""
"","html-keyboard-response","151","137682","0.0-151.0","3MD9PLUKKJ0B18F83FJ863OATUONZA","AJDXSXAWDDAEO","30UZJB2POHY4464FN6NBJ2NLFWF354","","null","<img src=""img/food6.png"" style=""width:200px;border:14px solid red;"">","null","","","","","","","","","",""
"","image-keyboard-response","152","138200","0.0-152.0","3MD9PLUKKJ0B18F83FJ863OATUONZA","AJDXSXAWDDAEO","30UZJB2POHY4464FN6NBJ2NLFWF354","","515.6000000014901","img/food4.png","75","517.6000000014901","2","0","3","1","1,0.5,0,1,0.5,0,0.5,0,1","0,1,0.5,0,1,0.5,1,0.5,0","3","",""
"","html-keyboard-response","153","138504","0.0-153.0","3MD9PLUKKJ0B18F83FJ863OATUONZA","AJDXSXAWDDAEO","30UZJB2POHY4464FN6NBJ2NLFWF354","","null","<img src=""img/food4.png"" style=""width:200px;border:14px solid red;"">","null","","","","","","","","","",""
"","image-keyboard-response","154","139074","0.0-154.0","3MD9PLUKKJ0B18F83FJ863OATUONZA","AJDXSXAWDDAEO","30UZJB2POHY4464FN6NBJ2NLFWF354","","565.6000000014901","img/food4.png","75","569","2","1","3","1","1,0.5,0,1,0.5,0,0.5,0,1","0,1,0.5,0,1,0.5,1,0.5,0","3","",""
"","html-keyboard-response","155","139378","0.0-155.0","3MD9PLUKKJ0B18F83FJ863OATUONZA","AJDXSXAWDDAEO","30UZJB2POHY4464FN6NBJ2NLFWF354","","null","<img src=""img/food4.png"" style=""width:200px; border:14px solid green;"">","null","","","","","","","","","",""
"","image-keyboard-response","156","139752","0.0-156.0","3MD9PLUKKJ0B18F83FJ863OATUONZA","AJDXSXAWDDAEO","30UZJB2POHY4464FN6NBJ2NLFWF354","","370.0999999977648","img/food4.png","74","373.30000000074506","1","1","3","1","1,0.5,0,1,0.5,0,0.5,0,1","0,1,0.5,0,1,0.5,1,0.5,0","3","",""
"","html-keyboard-response","157","140054","0.0-157.0","3MD9PLUKKJ0B18F83FJ863OATUONZA","AJDXSXAWDDAEO","30UZJB2POHY4464FN6NBJ2NLFWF354","","null","<img src=""img/food4.png"" style=""width:200px; border:14px solid green;"">","null","","","","","","","","","",""
"","image-keyboard-response","158","141171","0.0-158.0","3MD9PLUKKJ0B18F83FJ863OATUONZA","AJDXSXAWDDAEO","30UZJB2POHY4464FN6NBJ2NLFWF354","","1115.699999999255","img/food6.png","76","1117.199999999255","3","1","2","1","1,0.5,0,1,0.5,0,0.5,0,1","0,1,0.5,0,1,0.5,1,0.5,0","3","",""
"","html-keyboard-response","159","141474","0.0-159.0","3MD9PLUKKJ0B18F83FJ863OATUONZA","AJDXSXAWDDAEO","30UZJB2POHY4464FN6NBJ2NLFWF354","","null","<img src=""img/food6.png"" style=""width:200px; border:14px solid green;"">","null","","","","","","","","","",""
"","image-keyboard-response","160","142089","0.0-160.0","3MD9PLUKKJ0B18F83FJ863OATUONZA","AJDXSXAWDDAEO","30UZJB2POHY4464FN6NBJ2NLFWF354","","612.9000000022352","img/food2.png","75","614.8999999985099","2","1","1","1","1,0.5,0,1,0.5,0,0.5,0,1","0,1,0.5,0,1,0.5,1,0.5,0","3","",""
"","html-keyboard-response","161","142391","0.0-161.0","3MD9PLUKKJ0B18F83FJ863OATUONZA","AJDXSXAWDDAEO","30UZJB2POHY4464FN6NBJ2NLFWF354","","null","<img src=""img/food2.png"" style=""width:200px; border:14px solid green;"">","null","","","","","","","","","",""
"","image-keyboard-response","162","143139","0.0-162.0","3MD9PLUKKJ0B18F83FJ863OATUONZA","AJDXSXAWDDAEO","30UZJB2POHY4464FN6NBJ2NLFWF354","","745.2000000029802","img/food6.png","76","747.3999999985099","3","1","2","1","1,0.5,0,1,0.5,0,0.5,0,1","0,1,0.5,0,1,0.5,1,0.5,0","3","",""
"","html-keyboard-response","163","143441","0.0-163.0","3MD9PLUKKJ0B18F83FJ863OATUONZA","AJDXSXAWDDAEO","30UZJB2POHY4464FN6NBJ2NLFWF354","","null","<img src=""img/food6.png"" style=""width:200px; border:14px solid green;"">","null","","","","","","","","","",""
"","image-keyboard-response","164","144231","0.0-164.0","3MD9PLUKKJ0B18F83FJ863OATUONZA","AJDXSXAWDDAEO","30UZJB2POHY4464FN6NBJ2NLFWF354","","786.8999999985099","img/food2.png","75","789.1000000014901","2","1","1","1","1,0.5,0,1,0.5,0,0.5,0,1","0,1,0.5,0,1,0.5,1,0.5,0","3","",""
"","html-keyboard-response","165","144533","0.0-165.0","3MD9PLUKKJ0B18F83FJ863OATUONZA","AJDXSXAWDDAEO","30UZJB2POHY4464FN6NBJ2NLFWF354","","null","<img src=""img/food2.png"" style=""width:200px; border:14px solid green;"">","null","","","","","","","","","",""
"","image-keyboard-response","166","145203","0.0-166.0","3MD9PLUKKJ0B18F83FJ863OATUONZA","AJDXSXAWDDAEO","30UZJB2POHY4464FN6NBJ2NLFWF354","","667","img/food4.png","74","669.6000000014901","1","1","3","1","1,0.5,0,1,0.5,0,0.5,0,1","0,1,0.5,0,1,0.5,1,0.5,0","3","",""
"","html-keyboard-response","167","145507","0.0-167.0","3MD9PLUKKJ0B18F83FJ863OATUONZA","AJDXSXAWDDAEO","30UZJB2POHY4464FN6NBJ2NLFWF354","","null","<img src=""img/food4.png"" style=""width:200px; border:14px solid green;"">","null","","","","","","","","","",""
"","image-keyboard-response","168","145916","0.0-168.0","3MD9PLUKKJ0B18F83FJ863OATUONZA","AJDXSXAWDDAEO","30UZJB2POHY4464FN6NBJ2NLFWF354","","406.69999999925494","img/food4.png","74","408.6000000014901","1","1","3","1","1,0.5,0,1,0.5,0,0.5,0,1","0,1,0.5,0,1,0.5,1,0.5,0","3","",""
"","html-keyboard-response","169","146219","0.0-169.0","3MD9PLUKKJ0B18F83FJ863OATUONZA","AJDXSXAWDDAEO","30UZJB2POHY4464FN6NBJ2NLFWF354","","null","<img src=""img/food4.png"" style=""width:200px; border:14px solid green;"">","null","","","","","","","","","",""
"","image-keyboard-response","170","147428","0.0-170.0","3MD9PLUKKJ0B18F83FJ863OATUONZA","AJDXSXAWDDAEO","30UZJB2POHY4464FN6NBJ2NLFWF354","","1206.5999999977648","img/food2.png","75","1208.7999999970198","2","1","1","1","1,0.5,0,1,0.5,0,0.5,0,1","0,1,0.5,0,1,0.5,1,0.5,0","3","",""
"","html-keyboard-response","171","147731","0.0-171.0","3MD9PLUKKJ0B18F83FJ863OATUONZA","AJDXSXAWDDAEO","30UZJB2POHY4464FN6NBJ2NLFWF354","","null","<img src=""img/food2.png"" style=""width:200px; border:14px solid green;"">","null","","","","","","","","","",""
"","image-keyboard-response","172","148083","0.0-172.0","3MD9PLUKKJ0B18F83FJ863OATUONZA","AJDXSXAWDDAEO","30UZJB2POHY4464FN6NBJ2NLFWF354","","349.19999999925494","img/food2.png","75","351.1000000014901","2","1","1","1","1,0.5,0,1,0.5,0,0.5,0,1","0,1,0.5,0,1,0.5,1,0.5,0","3","",""
"","html-keyboard-response","173","148385","0.0-173.0","3MD9PLUKKJ0B18F83FJ863OATUONZA","AJDXSXAWDDAEO","30UZJB2POHY4464FN6NBJ2NLFWF354","","null","<img src=""img/food2.png"" style=""width:200px; border:14px solid green;"">","null","","","","","","","","","",""
"","image-keyboard-response","174","149113","0.0-174.0","3MD9PLUKKJ0B18F83FJ863OATUONZA","AJDXSXAWDDAEO","30UZJB2POHY4464FN6NBJ2NLFWF354","","725","img/food4.png","74","727.3999999985099","1","1","3","1","1,0.5,0,1,0.5,0,0.5,0,1","0,1,0.5,0,1,0.5,1,0.5,0","3","",""
"","html-keyboard-response","175","149418","0.0-175.0","3MD9PLUKKJ0B18F83FJ863OATUONZA","AJDXSXAWDDAEO","30UZJB2POHY4464FN6NBJ2NLFWF354","","null","<img src=""img/food4.png"" style=""width:200px; border:14px solid green;"">","null","","","","","","","","","",""
"","image-keyboard-response","176","149964","0.0-176.0","3MD9PLUKKJ0B18F83FJ863OATUONZA","AJDXSXAWDDAEO","30UZJB2POHY4464FN6NBJ2NLFWF354","","543.6000000014901","img/food4.png","74","545.8000000007451","1","1","3","1","1,0.5,0,1,0.5,0,0.5,0,1","0,1,0.5,0,1,0.5,1,0.5,0","3","",""
"","html-keyboard-response","177","150275","0.0-177.0","3MD9PLUKKJ0B18F83FJ863OATUONZA","AJDXSXAWDDAEO","30UZJB2POHY4464FN6NBJ2NLFWF354","","null","<img src=""img/food4.png"" style=""width:200px; border:14px solid green;"">","null","","","","","","","","","",""
"","image-keyboard-response","178","150735","0.0-178.0","3MD9PLUKKJ0B18F83FJ863OATUONZA","AJDXSXAWDDAEO","30UZJB2POHY4464FN6NBJ2NLFWF354","","457.4000000022352","img/food4.png","74","460.20000000298023","1","1","3","1","1,0.5,0,1,0.5,0,0.5,0,1","0,1,0.5,0,1,0.5,1,0.5,0","3","",""
"","html-keyboard-response","179","151037","0.0-179.0","3MD9PLUKKJ0B18F83FJ863OATUONZA","AJDXSXAWDDAEO","30UZJB2POHY4464FN6NBJ2NLFWF354","","null","<img src=""img/food4.png"" style=""width:200px; border:14px solid green;"">","null","","","","","","","","","",""
"","image-keyboard-response","180","151833","0.0-180.0","3MD9PLUKKJ0B18F83FJ863OATUONZA","AJDXSXAWDDAEO","30UZJB2POHY4464FN6NBJ2NLFWF354","","792","img/food6.png","76","794.8000000007451","3","1","2","1","1,0.5,0,1,0.5,0,0.5,0,1","0,1,0.5,0,1,0.5,1,0.5,0","3","",""
"","html-keyboard-response","181","152136","0.0-181.0","3MD9PLUKKJ0B18F83FJ863OATUONZA","AJDXSXAWDDAEO","30UZJB2POHY4464FN6NBJ2NLFWF354","","null","<img src=""img/food6.png"" style=""width:200px; border:14px solid green;"">","null","","","","","","","","","",""
"","html-keyboard-response","182","155064","0.0-182.0","3MD9PLUKKJ0B18F83FJ863OATUONZA","AJDXSXAWDDAEO","30UZJB2POHY4464FN6NBJ2NLFWF354","","","","","","","","","","","","","",""
"","instructions","183","164811","0.0-183.0","3MD9PLUKKJ0B18F83FJ863OATUONZA","AJDXSXAWDDAEO","30UZJB2POHY4464FN6NBJ2NLFWF354","[{""page_index"":0,""viewing_time"":7916.800000000745},{""page_index"":1,""viewing_time"":1827}]","9744.800000000745","","","","","","","","","","","",""
"","image-keyboard-response","184","165198","0.0-184.0","3MD9PLUKKJ0B18F83FJ863OATUONZA","AJDXSXAWDDAEO","30UZJB2POHY4464FN6NBJ2NLFWF354","","381.9000000022352","img/food5.png","74","386.6000000014901","1","1","3","2","1,0.5,0,1,0.5,0,0.5,0,1","0,1,0.5,0,1,0.5,1,0.5,0","3","false",""
"","html-keyboard-response","185","165507","0.0-185.0","3MD9PLUKKJ0B18F83FJ863OATUONZA","AJDXSXAWDDAEO","30UZJB2POHY4464FN6NBJ2NLFWF354","","null","<img src=""img/food5.png"" style=""width:200px; border:14px solid green;"">","null","","","","","","","","","",""
"","image-keyboard-response","186","165760","0.0-187.0","3MD9PLUKKJ0B18F83FJ863OATUONZA","AJDXSXAWDDAEO","30UZJB2POHY4464FN6NBJ2NLFWF354","","248","img/food5.png","75","254.90000000223517","2","0","3","2","1,0.5,0,1,0.5,0,0.5,0,1","0,1,0.5,0,1,0.5,1,0.5,0","3","false",""
"","html-keyboard-response","187","166067","0.0-188.0","3MD9PLUKKJ0B18F83FJ863OATUONZA","AJDXSXAWDDAEO","30UZJB2POHY4464FN6NBJ2NLFWF354","","null","<img src=""img/food5.png"" style=""width:200px;border:14px solid red;"">","null","","","","","","","","","",""
"","image-keyboard-response","188","166161","0.0-190.0","3MD9PLUKKJ0B18F83FJ863OATUONZA","AJDXSXAWDDAEO","30UZJB2POHY4464FN6NBJ2NLFWF354","","92","img/food5.png","74","93.09999999776483","1","1","3","2","1,0.5,0,1,0.5,0,0.5,0,1","0,1,0.5,0,1,0.5,1,0.5,0","3","false",""
"","html-keyboard-response","189","166463","0.0-191.0","3MD9PLUKKJ0B18F83FJ863OATUONZA","AJDXSXAWDDAEO","30UZJB2POHY4464FN6NBJ2NLFWF354","","null","<img src=""img/food5.png"" style=""width:200px; border:14px solid green;"">","null","","","","","","","","","",""
"","image-keyboard-response","190","166525","0.0-193.0","3MD9PLUKKJ0B18F83FJ863OATUONZA","AJDXSXAWDDAEO","30UZJB2POHY4464FN6NBJ2NLFWF354","","58","img/food5.png","74","60.5","1","1","3","2","1,0.5,0,1,0.5,0,0.5,0,1","0,1,0.5,0,1,0.5,1,0.5,0","3","false",""
"","html-keyboard-response","191","166828","0.0-194.0","3MD9PLUKKJ0B18F83FJ863OATUONZA","AJDXSXAWDDAEO","30UZJB2POHY4464FN6NBJ2NLFWF354","","null","<img src=""img/food5.png"" style=""width:200px; border:14px solid green;"">","null","","","","","","","","","",""
"","image-keyboard-response","192","166994","0.0-196.0","3MD9PLUKKJ0B18F83FJ863OATUONZA","AJDXSXAWDDAEO","30UZJB2POHY4464FN6NBJ2NLFWF354","","162","img/food1.png","74","164.39999999850988","1","0","1","2","1,0.5,0,1,0.5,0,0.5,0,1","0,1,0.5,0,1,0.5,1,0.5,0","3","false",""
"","html-keyboard-response","193","167298","0.0-197.0","3MD9PLUKKJ0B18F83FJ863OATUONZA","AJDXSXAWDDAEO","30UZJB2POHY4464FN6NBJ2NLFWF354","","null","<img src=""img/food1.png"" style=""width:200px;border:14px solid red;"">","null","","","","","","","","","",""
"","image-keyboard-response","194","167452","0.0-199.0","3MD9PLUKKJ0B18F83FJ863OATUONZA","AJDXSXAWDDAEO","30UZJB2POHY4464FN6NBJ2NLFWF354","","150.09999999776483","img/food1.png","76","153","3","1","1","2","1,0.5,0,1,0.5,0,0.5,0,1","0,1,0.5,0,1,0.5,1,0.5,0","3","false",""
"","html-keyboard-response","195","167756","0.0-200.0","3MD9PLUKKJ0B18F83FJ863OATUONZA","AJDXSXAWDDAEO","30UZJB2POHY4464FN6NBJ2NLFWF354","","null","<img src=""img/food1.png"" style=""width:200px; border:14px solid green;"">","null","","","","","","","","","",""
"","image-keyboard-response","196","167847","0.0-202.0","3MD9PLUKKJ0B18F83FJ863OATUONZA","AJDXSXAWDDAEO","30UZJB2POHY4464FN6NBJ2NLFWF354","","86.39999999850988","img/food1.png","75","90.10000000149012","2","1","1","2","1,0.5,0,1,0.5,0,0.5,0,1","0,1,0.5,0,1,0.5,1,0.5,0","3","false",""
"","html-keyboard-response","197","168150","0.0-203.0","3MD9PLUKKJ0B18F83FJ863OATUONZA","AJDXSXAWDDAEO","30UZJB2POHY4464FN6NBJ2NLFWF354","","null","<img src=""img/food1.png"" style=""width:200px; border:14px solid green;"">","null","","","","","","","","","",""
"","image-keyboard-response","198","168276","0.0-205.0","3MD9PLUKKJ0B18F83FJ863OATUONZA","AJDXSXAWDDAEO","30UZJB2POHY4464FN6NBJ2NLFWF354","","125.5","img/food1.png","75","126.5","2","1","1","2","1,0.5,0,1,0.5,0,0.5,0,1","0,1,0.5,0,1,0.5,1,0.5,0","3","false",""
"","html-keyboard-response","199","168579","0.0-206.0","3MD9PLUKKJ0B18F83FJ863OATUONZA","AJDXSXAWDDAEO","30UZJB2POHY4464FN6NBJ2NLFWF354","","null","<img src=""img/food1.png"" style=""width:200px; border:14px solid green;"">","null","","","","","","","","","",""
"","image-keyboard-response","200","168970","0.0-208.0","3MD9PLUKKJ0B18F83FJ863OATUONZA","AJDXSXAWDDAEO","30UZJB2POHY4464FN6NBJ2NLFWF354","","387.69999999925494","img/food5.png","74","390.30000000074506","1","1","3","2","1,0.5,0,1,0.5,0,0.5,0,1","0,1,0.5,0,1,0.5,1,0.5,0","3","false",""
"","html-keyboard-response","201","169274","0.0-209.0","3MD9PLUKKJ0B18F83FJ863OATUONZA","AJDXSXAWDDAEO","30UZJB2POHY4464FN6NBJ2NLFWF354","","null","<img src=""img/food5.png"" style=""width:200px; border:14px solid green;"">","null","","","","","","","","","",""
"","image-keyboard-response","202","169387","0.0-211.0","3MD9PLUKKJ0B18F83FJ863OATUONZA","AJDXSXAWDDAEO","30UZJB2POHY4464FN6NBJ2NLFWF354","","110.09999999776483","img/food5.png","74","112.69999999925494","1","1","3","2","1,0.5,0,1,0.5,0,0.5,0,1","0,1,0.5,0,1,0.5,1,0.5,0","3","false",""
"","html-keyboard-response","203","169692","0.0-212.0","3MD9PLUKKJ0B18F83FJ863OATUONZA","AJDXSXAWDDAEO","30UZJB2POHY4464FN6NBJ2NLFWF354","","null","<img src=""img/food5.png"" style=""width:200px; border:14px solid green;"">","null","","","","","","","","","",""
"","image-keyboard-response","204","169798","0.0-214.0","3MD9PLUKKJ0B18F83FJ863OATUONZA","AJDXSXAWDDAEO","30UZJB2POHY4464FN6NBJ2NLFWF354","","103.10000000149012","img/food1.png","74","105.59999999776483","1","0","1","2","1,0.5,0,1,0.5,0,0.5,0,1","0,1,0.5,0,1,0.5,1,0.5,0","3","false",""
"","html-keyboard-response","205","170102","0.0-215.0","3MD9PLUKKJ0B18F83FJ863OATUONZA","AJDXSXAWDDAEO","30UZJB2POHY4464FN6NBJ2NLFWF354","","null","<img src=""img/food1.png"" style=""width:200px;border:14px solid red;"">","null","","","","","","","","","",""
"","image-keyboard-response","206","170165","0.0-217.0","3MD9PLUKKJ0B18F83FJ863OATUONZA","AJDXSXAWDDAEO","30UZJB2POHY4464FN6NBJ2NLFWF354","","59.900000002235174","img/food3.png","76","61.70000000298023","3","0","2","2","1,0.5,0,1,0.5,0,0.5,0,1","0,1,0.5,0,1,0.5,1,0.5,0","3","false",""
"","html-keyboard-response","207","170466","0.0-218.0","3MD9PLUKKJ0B18F83FJ863OATUONZA","AJDXSXAWDDAEO","30UZJB2POHY4464FN6NBJ2NLFWF354","","null","<img src=""img/food3.png"" style=""width:200px;border:14px solid red;"">","null","","","","","","","","","",""
"","image-keyboard-response","208","170645","0.0-220.0","3MD9PLUKKJ0B18F83FJ863OATUONZA","AJDXSXAWDDAEO","30UZJB2POHY4464FN6NBJ2NLFWF354","","177.20000000298023","img/food3.png","75","178.60000000149012","2","1","2","2","1,0.5,0,1,0.5,0,0.5,0,1","0,1,0.5,0,1,0.5,1,0.5,0","3","false",""
"","html-keyboard-response","209","170949","0.0-221.0","3MD9PLUKKJ0B18F83FJ863OATUONZA","AJDXSXAWDDAEO","30UZJB2POHY4464FN6NBJ2NLFWF354","","null","<img src=""img/food3.png"" style=""width:200px; border:14px solid green;"">","null","","","","","","","","","",""
"","image-keyboard-response","210","171027","0.0-223.0","3MD9PLUKKJ0B18F83FJ863OATUONZA","AJDXSXAWDDAEO","30UZJB2POHY4464FN6NBJ2NLFWF354","","73.70000000298023","img/food1.png","75","76.09999999776483","2","1","1","2","1,0.5,0,1,0.5,0,0.5,0,1","0,1,0.5,0,1,0.5,1,0.5,0","3","false",""
"","html-keyboard-response","211","171330","0.0-224.0","3MD9PLUKKJ0B18F83FJ863OATUONZA","AJDXSXAWDDAEO","30UZJB2POHY4464FN6NBJ2NLFWF354","","null","<img src=""img/food1.png"" style=""width:200px; border:14px solid green;"">","null","","","","","","","","","",""
"","image-keyboard-response","212","171371","0.0-226.0","3MD9PLUKKJ0B18F83FJ863OATUONZA","AJDXSXAWDDAEO","30UZJB2POHY4464FN6NBJ2NLFWF354","","37.70000000298023","img/food1.png","75","40.100000001490116","2","1","1","2","1,0.5,0,1,0.5,0,0.5,0,1","0,1,0.5,0,1,0.5,1,0.5,0","3","false",""
"","html-keyboard-response","213","171675","0.0-227.0","3MD9PLUKKJ0B18F83FJ863OATUONZA","AJDXSXAWDDAEO","30UZJB2POHY4464FN6NBJ2NLFWF354","","null","<img src=""img/food1.png"" style=""width:200px; border:14px solid green;"">","null","","","","","","","","","",""
"","image-keyboard-response","214","171930","0.0-229.0","3MD9PLUKKJ0B18F83FJ863OATUONZA","AJDXSXAWDDAEO","30UZJB2POHY4464FN6NBJ2NLFWF354","","251.39999999850988","img/food3.png","74","254","1","0","2","2","1,0.5,0,1,0.5,0,0.5,0,1","0,1,0.5,0,1,0.5,1,0.5,0","3","false",""
"","html-keyboard-response","215","172234","0.0-230.0","3MD9PLUKKJ0B18F83FJ863OATUONZA","AJDXSXAWDDAEO","30UZJB2POHY4464FN6NBJ2NLFWF354","","null","<img src=""img/food3.png"" style=""width:200px;border:14px solid red;"">","null","","","","","","","","","",""
"","image-keyboard-response","216","172298","0.0-232.0","3MD9PLUKKJ0B18F83FJ863OATUONZA","AJDXSXAWDDAEO","30UZJB2POHY4464FN6NBJ2NLFWF354","","62.099999997764826","img/food5.png","74","64.30000000074506","1","1","3","2","1,0.5,0,1,0.5,0,0.5,0,1","0,1,0.5,0,1,0.5,1,0.5,0","3","false",""
"","html-keyboard-response","217","172603","0.0-233.0","3MD9PLUKKJ0B18F83FJ863OATUONZA","AJDXSXAWDDAEO","30UZJB2POHY4464FN6NBJ2NLFWF354","","null","<img src=""img/food5.png"" style=""width:200px; border:14px solid green;"">","null","","","","","","","","","",""
"","image-keyboard-response","218","172678","0.0-235.0","3MD9PLUKKJ0B18F83FJ863OATUONZA","AJDXSXAWDDAEO","30UZJB2POHY4464FN6NBJ2NLFWF354","","71.60000000149012","img/food5.png","74","74.70000000298023","1","1","3","2","1,0.5,0,1,0.5,0,0.5,0,1","0,1,0.5,0,1,0.5,1,0.5,0","3","false",""
"","html-keyboard-response","219","172982","0.0-236.0","3MD9PLUKKJ0B18F83FJ863OATUONZA","AJDXSXAWDDAEO","30UZJB2POHY4464FN6NBJ2NLFWF354","","null","<img src=""img/food5.png"" style=""width:200px; border:14px solid green;"">","null","","","","","","","","","",""
"","image-keyboard-response","220","173063","0.0-238.0","3MD9PLUKKJ0B18F83FJ863OATUONZA","AJDXSXAWDDAEO","30UZJB2POHY4464FN6NBJ2NLFWF354","","77.59999999776483","img/food1.png","74","79.69999999925494","1","0","1","2","1,0.5,0,1,0.5,0,0.5,0,1","0,1,0.5,0,1,0.5,1,0.5,0","3","false",""
"","html-keyboard-response","221","173367","0.0-239.0","3MD9PLUKKJ0B18F83FJ863OATUONZA","AJDXSXAWDDAEO","30UZJB2POHY4464FN6NBJ2NLFWF354","","null","<img src=""img/food1.png"" style=""width:200px;border:14px solid red;"">","null","","","","","","","","","",""
"","image-keyboard-response","222","173404","0.0-241.0","3MD9PLUKKJ0B18F83FJ863OATUONZA","AJDXSXAWDDAEO","30UZJB2POHY4464FN6NBJ2NLFWF354","","34.30000000074506","img/food3.png","75","36.80000000074506","2","1","2","2","1,0.5,0,1,0.5,0,0.5,0,1","0,1,0.5,0,1,0.5,1,0.5,0","3","false",""
"","html-keyboard-response","223","173708","0.0-242.0","3MD9PLUKKJ0B18F83FJ863OATUONZA","AJDXSXAWDDAEO","30UZJB2POHY4464FN6NBJ2NLFWF354","","null","<img src=""img/food3.png"" style=""width:200px; border:14px solid green;"">","null","","","","","","","","","",""
"","image-keyboard-response","224","173791","0.0-244.0","3MD9PLUKKJ0B18F83FJ863OATUONZA","AJDXSXAWDDAEO","30UZJB2POHY4464FN6NBJ2NLFWF354","","78.90000000223517","img/food5.png","75","81.40000000223517","2","0","3","2","1,0.5,0,1,0.5,0,0.5,0,1","0,1,0.5,0,1,0.5,1,0.5,0","3","false",""
"","html-keyboard-response","225","174093","0.0-245.0","3MD9PLUKKJ0B18F83FJ863OATUONZA","AJDXSXAWDDAEO","30UZJB2POHY4464FN6NBJ2NLFWF354","","null","<img src=""img/food5.png"" style=""width:200px;border:14px solid red;"">","null","","","","","","","","","",""
"","image-keyboard-response","226","174108","0.0-247.0","3MD9PLUKKJ0B18F83FJ863OATUONZA","AJDXSXAWDDAEO","30UZJB2POHY4464FN6NBJ2NLFWF354","","13.899999998509884","img/food3.png","76","15.199999999254942","3","1","2","2","1,0.5,0,1,0.5,0,0.5,0,1","0,1,0.5,0,1,0.5,1,0.5,0","3","false",""
"","html-keyboard-response","227","174411","0.0-248.0","3MD9PLUKKJ0B18F83FJ863OATUONZA","AJDXSXAWDDAEO","30UZJB2POHY4464FN6NBJ2NLFWF354","","null","<img src=""img/food3.png"" style=""width:200px; border:14px solid green;"">","null","","","","","","","","","",""
"","image-keyboard-response","228","174515","0.0-250.0","3MD9PLUKKJ0B18F83FJ863OATUONZA","AJDXSXAWDDAEO","30UZJB2POHY4464FN6NBJ2NLFWF354","","98.89999999850988","img/food3.png","76","102.19999999925494","3","0","2","2","1,0.5,0,1,0.5,0,0.5,0,1","0,1,0.5,0,1,0.5,1,0.5,0","3","false",""
"","html-keyboard-response","229","174819","0.0-251.0","3MD9PLUKKJ0B18F83FJ863OATUONZA","AJDXSXAWDDAEO","30UZJB2POHY4464FN6NBJ2NLFWF354","","null","<img src=""img/food3.png"" style=""width:200px;border:14px solid red;"">","null","","","","","","","","","",""
"","image-keyboard-response","230","174920","0.0-253.0","3MD9PLUKKJ0B18F83FJ863OATUONZA","AJDXSXAWDDAEO","30UZJB2POHY4464FN6NBJ2NLFWF354","","97.20000000298023","img/food1.png","76","99.5","3","1","1","2","1,0.5,0,1,0.5,0,0.5,0,1","0,1,0.5,0,1,0.5,1,0.5,0","3","false",""
"","html-keyboard-response","231","175223","0.0-254.0","3MD9PLUKKJ0B18F83FJ863OATUONZA","AJDXSXAWDDAEO","30UZJB2POHY4464FN6NBJ2NLFWF354","","null","<img src=""img/food1.png"" style=""width:200px; border:14px solid green;"">","null","","","","","","","","","",""
"","image-keyboard-response","232","175269","0.0-256.0","3MD9PLUKKJ0B18F83FJ863OATUONZA","AJDXSXAWDDAEO","30UZJB2POHY4464FN6NBJ2NLFWF354","","43.899999998509884","img/food3.png","74","46.30000000074506","1","0","2","2","1,0.5,0,1,0.5,0,0.5,0,1","0,1,0.5,0,1,0.5,1,0.5,0","3","false",""
"","html-keyboard-response","233","175574","0.0-257.0","3MD9PLUKKJ0B18F83FJ863OATUONZA","AJDXSXAWDDAEO","30UZJB2POHY4464FN6NBJ2NLFWF354","","null","<img src=""img/food3.png"" style=""width:200px;border:14px solid red;"">","null","","","","","","","","","",""
"","image-keyboard-response","234","175705","0.0-259.0","3MD9PLUKKJ0B18F83FJ863OATUONZA","AJDXSXAWDDAEO","30UZJB2POHY4464FN6NBJ2NLFWF354","","126.39999999850988","img/food1.png","74","130.80000000074506","1","0","1","2","1,0.5,0,1,0.5,0,0.5,0,1","0,1,0.5,0,1,0.5,1,0.5,0","3","false",""
"","html-keyboard-response","235","176025","0.0-260.0","3MD9PLUKKJ0B18F83FJ863OATUONZA","AJDXSXAWDDAEO","30UZJB2POHY4464FN6NBJ2NLFWF354","","null","<img src=""img/food1.png"" style=""width:200px;border:14px solid red;"">","null","","","","","","","","","",""
"","image-keyboard-response","236","176090","0.0-262.0","3MD9PLUKKJ0B18F83FJ863OATUONZA","AJDXSXAWDDAEO","30UZJB2POHY4464FN6NBJ2NLFWF354","","62.099999997764826","img/food1.png","74","63.69999999925494","1","0","1","2","1,0.5,0,1,0.5,0,0.5,0,1","0,1,0.5,0,1,0.5,1,0.5,0","3","false",""
"","html-keyboard-response","237","176392","0.0-263.0","3MD9PLUKKJ0B18F83FJ863OATUONZA","AJDXSXAWDDAEO","30UZJB2POHY4464FN6NBJ2NLFWF354","","null","<img src=""img/food1.png"" style=""width:200px;border:14px solid red;"">","null","","","","","","","","","",""
"","image-keyboard-response","238","176458","0.0-265.0","3MD9PLUKKJ0B18F83FJ863OATUONZA","AJDXSXAWDDAEO","30UZJB2POHY4464FN6NBJ2NLFWF354","","63.5","img/food3.png","75","65.89999999850988","2","1","2","2","1,0.5,0,1,0.5,0,0.5,0,1","0,1,0.5,0,1,0.5,1,0.5,0","3","false",""
"","html-keyboard-response","239","176762","0.0-266.0","3MD9PLUKKJ0B18F83FJ863OATUONZA","AJDXSXAWDDAEO","30UZJB2POHY4464FN6NBJ2NLFWF354","","null","<img src=""img/food3.png"" style=""width:200px; border:14px solid green;"">","null","","","","","","","","","",""
"","image-keyboard-response","240","176811","0.0-268.0","3MD9PLUKKJ0B18F83FJ863OATUONZA","AJDXSXAWDDAEO","30UZJB2POHY4464FN6NBJ2NLFWF354","","46.400000002235174","img/food3.png","75","48.19999999925494","2","1","2","2","1,0.5,0,1,0.5,0,0.5,0,1","0,1,0.5,0,1,0.5,1,0.5,0","3","false",""
"","html-keyboard-response","241","177115","0.0-269.0","3MD9PLUKKJ0B18F83FJ863OATUONZA","AJDXSXAWDDAEO","30UZJB2POHY4464FN6NBJ2NLFWF354","","null","<img src=""img/food3.png"" style=""width:200px; border:14px solid green;"">","null","","","","","","","","","",""
"","image-keyboard-response","242","177308","0.0-271.0","3MD9PLUKKJ0B18F83FJ863OATUONZA","AJDXSXAWDDAEO","30UZJB2POHY4464FN6NBJ2NLFWF354","","189.30000000074506","img/food1.png","75","191.69999999925494","2","1","1","2","1,0.5,0,1,0.5,0,0.5,0,1","0,1,0.5,0,1,0.5,1,0.5,0","3","false",""
"","html-keyboard-response","243","177610","0.0-272.0","3MD9PLUKKJ0B18F83FJ863OATUONZA","AJDXSXAWDDAEO","30UZJB2POHY4464FN6NBJ2NLFWF354","","null","<img src=""img/food1.png"" style=""width:200px; border:14px solid green;"">","null","","","","","","","","","",""
"","image-keyboard-response","244","177623","0.0-274.0","3MD9PLUKKJ0B18F83FJ863OATUONZA","AJDXSXAWDDAEO","30UZJB2POHY4464FN6NBJ2NLFWF354","","12.400000002235174","img/food1.png","76","13.200000002980232","3","1","1","2","1,0.5,0,1,0.5,0,0.5,0,1","0,1,0.5,0,1,0.5,1,0.5,0","3","false",""
"","html-keyboard-response","245","177925","0.0-275.0","3MD9PLUKKJ0B18F83FJ863OATUONZA","AJDXSXAWDDAEO","30UZJB2POHY4464FN6NBJ2NLFWF354","","null","<img src=""img/food1.png"" style=""width:200px; border:14px solid green;"">","null","","","","","","","","","",""
"","image-keyboard-response","246","178075","0.0-277.0","3MD9PLUKKJ0B18F83FJ863OATUONZA","AJDXSXAWDDAEO","30UZJB2POHY4464FN6NBJ2NLFWF354","","148.69999999925494","img/food5.png","76","149.69999999925494","3","0","3","2","1,0.5,0,1,0.5,0,0.5,0,1","0,1,0.5,0,1,0.5,1,0.5,0","3","false",""
"","html-keyboard-response","247","178377","0.0-278.0","3MD9PLUKKJ0B18F83FJ863OATUONZA","AJDXSXAWDDAEO","30UZJB2POHY4464FN6NBJ2NLFWF354","","null","<img src=""img/food5.png"" style=""width:200px;border:14px solid red;"">","null","","","","","","","","","",""
"","image-keyboard-response","248","178454","0.0-280.0","3MD9PLUKKJ0B18F83FJ863OATUONZA","AJDXSXAWDDAEO","30UZJB2POHY4464FN6NBJ2NLFWF354","","73.19999999925494","img/food5.png","75","76.90000000223517","2","1","3","2","1,0.5,0,1,0.5,0,0.5,0,1","0,1,0.5,0,1,0.5,1,0.5,0","3","false",""
"","html-keyboard-response","249","178759","0.0-281.0","3MD9PLUKKJ0B18F83FJ863OATUONZA","AJDXSXAWDDAEO","30UZJB2POHY4464FN6NBJ2NLFWF354","","null","<img src=""img/food5.png"" style=""width:200px; border:14px solid green;"">","null","","","","","","","","","",""
"","image-keyboard-response","250","178881","0.0-283.0","3MD9PLUKKJ0B18F83FJ863OATUONZA","AJDXSXAWDDAEO","30UZJB2POHY4464FN6NBJ2NLFWF354","","119","img/food5.png","75","121.19999999925494","2","1","3","2","1,0.5,0,1,0.5,0,0.5,0,1","0,1,0.5,0,1,0.5,1,0.5,0","3","false",""
"","html-keyboard-response","251","179185","0.0-284.0","3MD9PLUKKJ0B18F83FJ863OATUONZA","AJDXSXAWDDAEO","30UZJB2POHY4464FN6NBJ2NLFWF354","","null","<img src=""img/food5.png"" style=""width:200px; border:14px solid green;"">","null","","","","","","","","","",""
"","image-keyboard-response","252","179301","0.0-286.0","3MD9PLUKKJ0B18F83FJ863OATUONZA","AJDXSXAWDDAEO","30UZJB2POHY4464FN6NBJ2NLFWF354","","112.5","img/food1.png","75","115.30000000074506","2","1","1","2","1,0.5,0,1,0.5,0,0.5,0,1","0,1,0.5,0,1,0.5,1,0.5,0","3","false",""
"","html-keyboard-response","253","179606","0.0-287.0","3MD9PLUKKJ0B18F83FJ863OATUONZA","AJDXSXAWDDAEO","30UZJB2POHY4464FN6NBJ2NLFWF354","","null","<img src=""img/food1.png"" style=""width:200px; border:14px solid green;"">","null","","","","","","","","","",""
"","image-keyboard-response","254","179623","0.0-289.0","3MD9PLUKKJ0B18F83FJ863OATUONZA","AJDXSXAWDDAEO","30UZJB2POHY4464FN6NBJ2NLFWF354","","3.199999999254942","img/food5.png","74","14.800000000745058","1","1","3","2","1,0.5,0,1,0.5,0,0.5,0,1","0,1,0.5,0,1,0.5,1,0.5,0","3","false",""
"","html-keyboard-response","255","179927","0.0-290.0","3MD9PLUKKJ0B18F83FJ863OATUONZA","AJDXSXAWDDAEO","30UZJB2POHY4464FN6NBJ2NLFWF354","","null","<img src=""img/food5.png"" style=""width:200px; border:14px solid green;"">","null","","","","","","","","","",""
"","image-keyboard-response","256","180069","0.0-292.0","3MD9PLUKKJ0B18F83FJ863OATUONZA","AJDXSXAWDDAEO","30UZJB2POHY4464FN6NBJ2NLFWF354","","139.10000000149012","img/food3.png","74","141","1","0","2","2","1,0.5,0,1,0.5,0,0.5,0,1","0,1,0.5,0,1,0.5,1,0.5,0","3","false",""
"","html-keyboard-response","257","180370","0.0-293.0","3MD9PLUKKJ0B18F83FJ863OATUONZA","AJDXSXAWDDAEO","30UZJB2POHY4464FN6NBJ2NLFWF354","","null","<img src=""img/food3.png"" style=""width:200px;border:14px solid red;"">","null","","","","","","","","","",""
"","image-keyboard-response","258","180491","0.0-295.0","3MD9PLUKKJ0B18F83FJ863OATUONZA","AJDXSXAWDDAEO","30UZJB2POHY4464FN6NBJ2NLFWF354","","117.10000000149012","img/food3.png","74","119.89999999850988","1","0","2","2","1,0.5,0,1,0.5,0,0.5,0,1","0,1,0.5,0,1,0.5,1,0.5,0","3","false",""
"","html-keyboard-response","259","180794","0.0-296.0","3MD9PLUKKJ0B18F83FJ863OATUONZA","AJDXSXAWDDAEO","30UZJB2POHY4464FN6NBJ2NLFWF354","","null","<img src=""img/food3.png"" style=""width:200px;border:14px solid red;"">","null","","","","","","","","","",""
"","image-keyboard-response","260","180891","0.0-298.0","3MD9PLUKKJ0B18F83FJ863OATUONZA","AJDXSXAWDDAEO","30UZJB2POHY4464FN6NBJ2NLFWF354","","95","img/food3.png","75","96.60000000149012","2","1","2","2","1,0.5,0,1,0.5,0,0.5,0,1","0,1,0.5,0,1,0.5,1,0.5,0","3","false",""
"","html-keyboard-response","261","181194","0.0-299.0","3MD9PLUKKJ0B18F83FJ863OATUONZA","AJDXSXAWDDAEO","30UZJB2POHY4464FN6NBJ2NLFWF354","","null","<img src=""img/food3.png"" style=""width:200px; border:14px solid green;"">","null","","","","","","","","","",""
"","image-keyboard-response","262","181292","0.0-301.0","3MD9PLUKKJ0B18F83FJ863OATUONZA","AJDXSXAWDDAEO","30UZJB2POHY4464FN6NBJ2NLFWF354","","91","img/food5.png","75","94.40000000223517","2","0","3","2","1,0.5,0,1,0.5,0,0.5,0,1","0,1,0.5,0,1,0.5,1,0.5,0","3","false",""
"","html-keyboard-response","263","181597","0.0-302.0","3MD9PLUKKJ0B18F83FJ863OATUONZA","AJDXSXAWDDAEO","30UZJB2POHY4464FN6NBJ2NLFWF354","","null","<img src=""img/food5.png"" style=""width:200px;border:14px solid red;"">","null","","","","","","","","","",""
"","image-keyboard-response","264","181671","0.0-304.0","3MD9PLUKKJ0B18F83FJ863OATUONZA","AJDXSXAWDDAEO","30UZJB2POHY4464FN6NBJ2NLFWF354","","69.60000000149012","img/food1.png","75","72.80000000074506","2","1","1","2","1,0.5,0,1,0.5,0,0.5,0,1","0,1,0.5,0,1,0.5,1,0.5,0","3","false",""
"","html-keyboard-response","265","181973","0.0-305.0","3MD9PLUKKJ0B18F83FJ863OATUONZA","AJDXSXAWDDAEO","30UZJB2POHY4464FN6NBJ2NLFWF354","","null","<img src=""img/food1.png"" style=""width:200px; border:14px solid green;"">","null","","","","","","","","","",""
"","image-keyboard-response","266","181985","0.0-307.0","3MD9PLUKKJ0B18F83FJ863OATUONZA","AJDXSXAWDDAEO","30UZJB2POHY4464FN6NBJ2NLFWF354","","5.300000000745058","img/food5.png","76","11.600000001490116","3","0","3","2","1,0.5,0,1,0.5,0,0.5,0,1","0,1,0.5,0,1,0.5,1,0.5,0","3","false",""
"","html-keyboard-response","267","182289","0.0-308.0","3MD9PLUKKJ0B18F83FJ863OATUONZA","AJDXSXAWDDAEO","30UZJB2POHY4464FN6NBJ2NLFWF354","","null","<img src=""img/food5.png"" style=""width:200px;border:14px solid red;"">","null","","","","","","","","","",""
"","image-keyboard-response","268","182449","0.0-310.0","3MD9PLUKKJ0B18F83FJ863OATUONZA","AJDXSXAWDDAEO","30UZJB2POHY4464FN6NBJ2NLFWF354","","156.20000000298023","img/food3.png","76","158.30000000074506","3","1","2","2","1,0.5,0,1,0.5,0,0.5,0,1","0,1,0.5,0,1,0.5,1,0.5,0","3","false",""
"","html-keyboard-response","269","182753","0.0-311.0","3MD9PLUKKJ0B18F83FJ863OATUONZA","AJDXSXAWDDAEO","30UZJB2POHY4464FN6NBJ2NLFWF354","","null","<img src=""img/food3.png"" style=""width:200px; border:14px solid green;"">","null","","","","","","","","","",""
"","image-keyboard-response","270","182824","0.0-313.0","3MD9PLUKKJ0B18F83FJ863OATUONZA","AJDXSXAWDDAEO","30UZJB2POHY4464FN6NBJ2NLFWF354","","68.10000000149012","img/food3.png","76","70.69999999925494","3","1","2","2","1,0.5,0,1,0.5,0,0.5,0,1","0,1,0.5,0,1,0.5,1,0.5,0","3","false",""
"","html-keyboard-response","271","183128","0.0-314.0","3MD9PLUKKJ0B18F83FJ863OATUONZA","AJDXSXAWDDAEO","30UZJB2POHY4464FN6NBJ2NLFWF354","","null","<img src=""img/food3.png"" style=""width:200px; border:14px solid green;"">","null","","","","","","","","","",""
"","image-keyboard-response","272","183194","0.0-316.0","3MD9PLUKKJ0B18F83FJ863OATUONZA","AJDXSXAWDDAEO","30UZJB2POHY4464FN6NBJ2NLFWF354","","62.399999998509884","img/food1.png","76","65.09999999776483","3","0","1","2","1,0.5,0,1,0.5,0,0.5,0,1","0,1,0.5,0,1,0.5,1,0.5,0","3","false",""
"","html-keyboard-response","273","183498","0.0-317.0","3MD9PLUKKJ0B18F83FJ863OATUONZA","AJDXSXAWDDAEO","30UZJB2POHY4464FN6NBJ2NLFWF354","","null","<img src=""img/food1.png"" style=""width:200px;border:14px solid red;"">","null","","","","","","","","","",""
"","image-keyboard-response","274","183607","0.0-319.0","3MD9PLUKKJ0B18F83FJ863OATUONZA","AJDXSXAWDDAEO","30UZJB2POHY4464FN6NBJ2NLFWF354","","105.79999999701977","img/food5.png","75","108.5","2","1","3","2","1,0.5,0,1,0.5,0,0.5,0,1","0,1,0.5,0,1,0.5,1,0.5,0","3","false",""
"","html-keyboard-response","275","183911","0.0-320.0","3MD9PLUKKJ0B18F83FJ863OATUONZA","AJDXSXAWDDAEO","30UZJB2POHY4464FN6NBJ2NLFWF354","","null","<img src=""img/food5.png"" style=""width:200px; border:14px solid green;"">","null","","","","","","","","","",""
"","image-keyboard-response","276","184029","0.0-322.0","3MD9PLUKKJ0B18F83FJ863OATUONZA","AJDXSXAWDDAEO","30UZJB2POHY4464FN6NBJ2NLFWF354","","113.5","img/food3.png","74","117.09999999776483","1","0","2","2","1,0.5,0,1,0.5,0,0.5,0,1","0,1,0.5,0,1,0.5,1,0.5,0","3","false",""
"","html-keyboard-response","277","184332","0.0-323.0","3MD9PLUKKJ0B18F83FJ863OATUONZA","AJDXSXAWDDAEO","30UZJB2POHY4464FN6NBJ2NLFWF354","","null","<img src=""img/food3.png"" style=""width:200px;border:14px solid red;"">","null","","","","","","","","","",""
"","image-keyboard-response","278","184439","0.0-325.0","3MD9PLUKKJ0B18F83FJ863OATUONZA","AJDXSXAWDDAEO","30UZJB2POHY4464FN6NBJ2NLFWF354","","105.69999999925494","img/food5.png","75","107","2","0","3","2","1,0.5,0,1,0.5,0,0.5,0,1","0,1,0.5,0,1,0.5,1,0.5,0","3","false",""
"","html-keyboard-response","279","184741","0.0-326.0","3MD9PLUKKJ0B18F83FJ863OATUONZA","AJDXSXAWDDAEO","30UZJB2POHY4464FN6NBJ2NLFWF354","","null","<img src=""img/food5.png"" style=""width:200px;border:14px solid red;"">","null","","","","","","","","","",""
"","image-keyboard-response","280","184874","0.0-328.0","3MD9PLUKKJ0B18F83FJ863OATUONZA","AJDXSXAWDDAEO","30UZJB2POHY4464FN6NBJ2NLFWF354","","130","img/food3.png","75","132.30000000074506","2","1","2","2","1,0.5,0,1,0.5,0,0.5,0,1","0,1,0.5,0,1,0.5,1,0.5,0","3","false",""
"","html-keyboard-response","281","185176","0.0-329.0","3MD9PLUKKJ0B18F83FJ863OATUONZA","AJDXSXAWDDAEO","30UZJB2POHY4464FN6NBJ2NLFWF354","","null","<img src=""img/food3.png"" style=""width:200px; border:14px solid green;"">","null","","","","","","","","","",""
"","image-keyboard-response","282","185293","0.0-331.0","3MD9PLUKKJ0B18F83FJ863OATUONZA","AJDXSXAWDDAEO","30UZJB2POHY4464FN6NBJ2NLFWF354","","113.5","img/food3.png","75","116.09999999776483","2","1","2","2","1,0.5,0,1,0.5,0,0.5,0,1","0,1,0.5,0,1,0.5,1,0.5,0","3","false",""
"","html-keyboard-response","283","185598","0.0-332.0","3MD9PLUKKJ0B18F83FJ863OATUONZA","AJDXSXAWDDAEO","30UZJB2POHY4464FN6NBJ2NLFWF354","","null","<img src=""img/food3.png"" style=""width:200px; border:14px solid green;"">","null","","","","","","","","","",""
"","image-keyboard-response","284","185706","0.0-334.0","3MD9PLUKKJ0B18F83FJ863OATUONZA","AJDXSXAWDDAEO","30UZJB2POHY4464FN6NBJ2NLFWF354","","103.30000000074506","img/food1.png","75","107","2","1","1","2","1,0.5,0,1,0.5,0,0.5,0,1","0,1,0.5,0,1,0.5,1,0.5,0","3","false",""
"","html-keyboard-response","285","186009","0.0-335.0","3MD9PLUKKJ0B18F83FJ863OATUONZA","AJDXSXAWDDAEO","30UZJB2POHY4464FN6NBJ2NLFWF354","","null","<img src=""img/food1.png"" style=""width:200px; border:14px solid green;"">","null","","","","","","","","","",""
"","image-keyboard-response","286","186071","0.0-337.0","3MD9PLUKKJ0B18F83FJ863OATUONZA","AJDXSXAWDDAEO","30UZJB2POHY4464FN6NBJ2NLFWF354","","59.69999999925494","img/food1.png","75","61","2","1","1","2","1,0.5,0,1,0.5,0,0.5,0,1","0,1,0.5,0,1,0.5,1,0.5,0","3","false",""
"","html-keyboard-response","287","186373","0.0-338.0","3MD9PLUKKJ0B18F83FJ863OATUONZA","AJDXSXAWDDAEO","30UZJB2POHY4464FN6NBJ2NLFWF354","","null","<img src=""img/food1.png"" style=""width:200px; border:14px solid green;"">","null","","","","","","","","","",""
"","image-keyboard-response","288","186446","0.0-340.0","3MD9PLUKKJ0B18F83FJ863OATUONZA","AJDXSXAWDDAEO","30UZJB2POHY4464FN6NBJ2NLFWF354","","68.80000000074506","img/food3.png","76","71.60000000149012","3","1","2","2","1,0.5,0,1,0.5,0,0.5,0,1","0,1,0.5,0,1,0.5,1,0.5,0","3","false",""
"","html-keyboard-response","289","186749","0.0-341.0","3MD9PLUKKJ0B18F83FJ863OATUONZA","AJDXSXAWDDAEO","30UZJB2POHY4464FN6NBJ2NLFWF354","","null","<img src=""img/food3.png"" style=""width:200px; border:14px solid green;"">","null","","","","","","","","","",""
"","image-keyboard-response","290","186798","0.0-343.0","3MD9PLUKKJ0B18F83FJ863OATUONZA","AJDXSXAWDDAEO","30UZJB2POHY4464FN6NBJ2NLFWF354","","46","img/food3.png","75","48.100000001490116","2","1","2","2","1,0.5,0,1,0.5,0,0.5,0,1","0,1,0.5,0,1,0.5,1,0.5,0","3","false",""
"","html-keyboard-response","291","187101","0.0-344.0","3MD9PLUKKJ0B18F83FJ863OATUONZA","AJDXSXAWDDAEO","30UZJB2POHY4464FN6NBJ2NLFWF354","","null","<img src=""img/food3.png"" style=""width:200px; border:14px solid green;"">","null","","","","","","","","","",""
"","image-keyboard-response","292","187258","0.0-346.0","3MD9PLUKKJ0B18F83FJ863OATUONZA","AJDXSXAWDDAEO","30UZJB2POHY4464FN6NBJ2NLFWF354","","150.59999999776483","img/food3.png","75","153","2","1","2","2","1,0.5,0,1,0.5,0,0.5,0,1","0,1,0.5,0,1,0.5,1,0.5,0","3","false",""
"","html-keyboard-response","293","187561","0.0-347.0","3MD9PLUKKJ0B18F83FJ863OATUONZA","AJDXSXAWDDAEO","30UZJB2POHY4464FN6NBJ2NLFWF354","","null","<img src=""img/food3.png"" style=""width:200px; border:14px solid green;"">","null","","","","","","","","","",""
"","image-keyboard-response","294","187703","0.0-349.0","3MD9PLUKKJ0B18F83FJ863OATUONZA","AJDXSXAWDDAEO","30UZJB2POHY4464FN6NBJ2NLFWF354","","138.90000000223517","img/food5.png","75","141.60000000149012","2","0","3","2","1,0.5,0,1,0.5,0,0.5,0,1","0,1,0.5,0,1,0.5,1,0.5,0","3","false",""
"","html-keyboard-response","295","188006","0.0-350.0","3MD9PLUKKJ0B18F83FJ863OATUONZA","AJDXSXAWDDAEO","30UZJB2POHY4464FN6NBJ2NLFWF354","","null","<img src=""img/food5.png"" style=""width:200px;border:14px solid red;"">","null","","","","","","","","","",""
"","image-keyboard-response","296","188056","0.0-352.0","3MD9PLUKKJ0B18F83FJ863OATUONZA","AJDXSXAWDDAEO","30UZJB2POHY4464FN6NBJ2NLFWF354","","48.79999999701977","img/food1.png","74","49.69999999925494","1","0","1","2","1,0.5,0,1,0.5,0,0.5,0,1","0,1,0.5,0,1,0.5,1,0.5,0","3","false",""
"","html-keyboard-response","297","188358","0.0-353.0","3MD9PLUKKJ0B18F83FJ863OATUONZA","AJDXSXAWDDAEO","30UZJB2POHY4464FN6NBJ2NLFWF354","","null","<img src=""img/food1.png"" style=""width:200px;border:14px solid red;"">","null","","","","","","","","","",""
"","image-keyboard-response","298","188539","0.0-355.0","3MD9PLUKKJ0B18F83FJ863OATUONZA","AJDXSXAWDDAEO","30UZJB2POHY4464FN6NBJ2NLFWF354","","178.40000000223517","img/food5.png","75","181.30000000074506","2","1","3","2","1,0.5,0,1,0.5,0,0.5,0,1","0,1,0.5,0,1,0.5,1,0.5,0","3","false",""
"","html-keyboard-response","299","188843","0.0-356.0","3MD9PLUKKJ0B18F83FJ863OATUONZA","AJDXSXAWDDAEO","30UZJB2POHY4464FN6NBJ2NLFWF354","","null","<img src=""img/food5.png"" style=""width:200px; border:14px solid green;"">","null","","","","","","","","","",""
"","image-keyboard-response","300","188993","0.0-358.0","3MD9PLUKKJ0B18F83FJ863OATUONZA","AJDXSXAWDDAEO","30UZJB2POHY4464FN6NBJ2NLFWF354","","146.20000000298023","img/food1.png","75","148.69999999925494","2","1","1","2","1,0.5,0,1,0.5,0,0.5,0,1","0,1,0.5,0,1,0.5,1,0.5,0","3","false",""
"","html-keyboard-response","301","189297","0.0-359.0","3MD9PLUKKJ0B18F83FJ863OATUONZA","AJDXSXAWDDAEO","30UZJB2POHY4464FN6NBJ2NLFWF354","","null","<img src=""img/food1.png"" style=""width:200px; border:14px solid green;"">","null","","","","","","","","","",""
"","image-keyboard-response","302","189503","0.0-361.0","3MD9PLUKKJ0B18F83FJ863OATUONZA","AJDXSXAWDDAEO","30UZJB2POHY4464FN6NBJ2NLFWF354","","202.09999999776483","img/food3.png","75","211.5","2","1","2","2","1,0.5,0,1,0.5,0,0.5,0,1","0,1,0.5,0,1,0.5,1,0.5,0","3","false",""
"","html-keyboard-response","303","189814","0.0-362.0","3MD9PLUKKJ0B18F83FJ863OATUONZA","AJDXSXAWDDAEO","30UZJB2POHY4464FN6NBJ2NLFWF354","","null","<img src=""img/food3.png"" style=""width:200px; border:14px solid green;"">","null","","","","","","","","","",""
"","image-keyboard-response","304","189926","0.0-364.0","3MD9PLUKKJ0B18F83FJ863OATUONZA","AJDXSXAWDDAEO","30UZJB2POHY4464FN6NBJ2NLFWF354","","107.70000000298023","img/food1.png","75","109.90000000223517","2","1","1","2","1,0.5,0,1,0.5,0,0.5,0,1","0,1,0.5,0,1,0.5,1,0.5,0","3","false",""
"","html-keyboard-response","305","190228","0.0-365.0","3MD9PLUKKJ0B18F83FJ863OATUONZA","AJDXSXAWDDAEO","30UZJB2POHY4464FN6NBJ2NLFWF354","","null","<img src=""img/food1.png"" style=""width:200px; border:14px solid green;"">","null","","","","","","","","","",""
"","image-keyboard-response","306","190389","0.0-367.0","3MD9PLUKKJ0B18F83FJ863OATUONZA","AJDXSXAWDDAEO","30UZJB2POHY4464FN6NBJ2NLFWF354","","158.80000000074506","img/food5.png","75","161","2","0","3","2","1,0.5,0,1,0.5,0,0.5,0,1","0,1,0.5,0,1,0.5,1,0.5,0","3","false",""
"","html-keyboard-response","307","190693","0.0-368.0","3MD9PLUKKJ0B18F83FJ863OATUONZA","AJDXSXAWDDAEO","30UZJB2POHY4464FN6NBJ2NLFWF354","","null","<img src=""img/food5.png"" style=""width:200px;border:14px solid red;"">","null","","","","","","","","","",""
"","image-keyboard-response","308","190714","0.0-370.0","3MD9PLUKKJ0B18F83FJ863OATUONZA","AJDXSXAWDDAEO","30UZJB2POHY4464FN6NBJ2NLFWF354","","17.599999997764826","img/food5.png","76","20.199999999254942","3","0","3","2","1,0.5,0,1,0.5,0,0.5,0,1","0,1,0.5,0,1,0.5,1,0.5,0","3","false",""
"","html-keyboard-response","309","191017","0.0-371.0","3MD9PLUKKJ0B18F83FJ863OATUONZA","AJDXSXAWDDAEO","30UZJB2POHY4464FN6NBJ2NLFWF354","","null","<img src=""img/food5.png"" style=""width:200px;border:14px solid red;"">","null","","","","","","","","","",""
"","image-keyboard-response","310","191145","0.0-373.0","3MD9PLUKKJ0B18F83FJ863OATUONZA","AJDXSXAWDDAEO","30UZJB2POHY4464FN6NBJ2NLFWF354","","123.19999999925494","img/food3.png","75","126.5","2","1","2","2","1,0.5,0,1,0.5,0,0.5,0,1","0,1,0.5,0,1,0.5,1,0.5,0","3","false",""
"","html-keyboard-response","311","191451","0.0-374.0","3MD9PLUKKJ0B18F83FJ863OATUONZA","AJDXSXAWDDAEO","30UZJB2POHY4464FN6NBJ2NLFWF354","","null","<img src=""img/food3.png"" style=""width:200px; border:14px solid green;"">","null","","","","","","","","","",""
"","image-keyboard-response","312","191587","0.0-376.0","3MD9PLUKKJ0B18F83FJ863OATUONZA","AJDXSXAWDDAEO","30UZJB2POHY4464FN6NBJ2NLFWF354","","133.40000000223517","img/food5.png","75","135.89999999850988","2","0","3","2","1,0.5,0,1,0.5,0,0.5,0,1","0,1,0.5,0,1,0.5,1,0.5,0","3","false",""
"","html-keyboard-response","313","191891","0.0-377.0","3MD9PLUKKJ0B18F83FJ863OATUONZA","AJDXSXAWDDAEO","30UZJB2POHY4464FN6NBJ2NLFWF354","","null","<img src=""img/food5.png"" style=""width:200px;border:14px solid red;"">","null","","","","","","","","","",""
"","image-keyboard-response","314","192015","0.0-379.0","3MD9PLUKKJ0B18F83FJ863OATUONZA","AJDXSXAWDDAEO","30UZJB2POHY4464FN6NBJ2NLFWF354","","121","img/food1.png","75","123.79999999701977","2","1","1","2","1,0.5,0,1,0.5,0,0.5,0,1","0,1,0.5,0,1,0.5,1,0.5,0","3","false",""
"","html-keyboard-response","315","192319","0.0-380.0","3MD9PLUKKJ0B18F83FJ863OATUONZA","AJDXSXAWDDAEO","30UZJB2POHY4464FN6NBJ2NLFWF354","","null","<img src=""img/food1.png"" style=""width:200px; border:14px solid green;"">","null","","","","","","","","","",""
"","image-keyboard-response","316","192421","0.0-382.0","3MD9PLUKKJ0B18F83FJ863OATUONZA","AJDXSXAWDDAEO","30UZJB2POHY4464FN6NBJ2NLFWF354","","99.5","img/food3.png","75","101.60000000149012","2","1","2","2","1,0.5,0,1,0.5,0,0.5,0,1","0,1,0.5,0,1,0.5,1,0.5,0","3","false",""
"","html-keyboard-response","317","192724","0.0-383.0","3MD9PLUKKJ0B18F83FJ863OATUONZA","AJDXSXAWDDAEO","30UZJB2POHY4464FN6NBJ2NLFWF354","","null","<img src=""img/food3.png"" style=""width:200px; border:14px solid green;"">","null","","","","","","","","","",""
"","image-keyboard-response","318","192823","0.0-385.0","3MD9PLUKKJ0B18F83FJ863OATUONZA","AJDXSXAWDDAEO","30UZJB2POHY4464FN6NBJ2NLFWF354","","96.60000000149012","img/food3.png","75","98.60000000149012","2","1","2","2","1,0.5,0,1,0.5,0,0.5,0,1","0,1,0.5,0,1,0.5,1,0.5,0","3","false",""
"","html-keyboard-response","319","193126","0.0-386.0","3MD9PLUKKJ0B18F83FJ863OATUONZA","AJDXSXAWDDAEO","30UZJB2POHY4464FN6NBJ2NLFWF354","","null","<img src=""img/food3.png"" style=""width:200px; border:14px solid green;"">","null","","","","","","","","","",""
"","image-keyboard-response","320","193212","0.0-388.0","3MD9PLUKKJ0B18F83FJ863OATUONZA","AJDXSXAWDDAEO","30UZJB2POHY4464FN6NBJ2NLFWF354","","82.10000000149012","img/food5.png","75","85.40000000223517","2","0","3","2","1,0.5,0,1,0.5,0,0.5,0,1","0,1,0.5,0,1,0.5,1,0.5,0","3","false",""
"","html-keyboard-response","321","193518","0.0-389.0","3MD9PLUKKJ0B18F83FJ863OATUONZA","AJDXSXAWDDAEO","30UZJB2POHY4464FN6NBJ2NLFWF354","","null","<img src=""img/food5.png"" style=""width:200px;border:14px solid red;"">","null","","","","","","","","","",""
"","image-keyboard-response","322","193602","0.0-391.0","3MD9PLUKKJ0B18F83FJ863OATUONZA","AJDXSXAWDDAEO","30UZJB2POHY4464FN6NBJ2NLFWF354","","82.09999999776483","img/food5.png","75","83.39999999850988","2","0","3","2","1,0.5,0,1,0.5,0,0.5,0,1","0,1,0.5,0,1,0.5,1,0.5,0","3","false",""
"","html-keyboard-response","323","193904","0.0-392.0","3MD9PLUKKJ0B18F83FJ863OATUONZA","AJDXSXAWDDAEO","30UZJB2POHY4464FN6NBJ2NLFWF354","","null","<img src=""img/food5.png"" style=""width:200px;border:14px solid red;"">","null","","","","","","","","","",""
"","image-keyboard-response","324","194020","0.0-394.0","3MD9PLUKKJ0B18F83FJ863OATUONZA","AJDXSXAWDDAEO","30UZJB2POHY4464FN6NBJ2NLFWF354","","112.19999999925494","img/food5.png","75","115.29999999701977","2","0","3","2","1,0.5,0,1,0.5,0,0.5,0,1","0,1,0.5,0,1,0.5,1,0.5,0","3","false",""
"","html-keyboard-response","325","194324","0.0-395.0","3MD9PLUKKJ0B18F83FJ863OATUONZA","AJDXSXAWDDAEO","30UZJB2POHY4464FN6NBJ2NLFWF354","","null","<img src=""img/food5.png"" style=""width:200px;border:14px solid red;"">","null","","","","","","","","","",""
"","image-keyboard-response","326","194430","0.0-397.0","3MD9PLUKKJ0B18F83FJ863OATUONZA","AJDXSXAWDDAEO","30UZJB2POHY4464FN6NBJ2NLFWF354","","104.70000000298023","img/food5.png","75","105.69999999925494","2","1","3","2","1,0.5,0,1,0.5,0,0.5,0,1","0,1,0.5,0,1,0.5,1,0.5,0","3","false",""
"","html-keyboard-response","327","194732","0.0-398.0","3MD9PLUKKJ0B18F83FJ863OATUONZA","AJDXSXAWDDAEO","30UZJB2POHY4464FN6NBJ2NLFWF354","","null","<img src=""img/food5.png"" style=""width:200px; border:14px solid green;"">","null","","","","","","","","","",""
"","image-keyboard-response","328","194802","0.0-400.0","3MD9PLUKKJ0B18F83FJ863OATUONZA","AJDXSXAWDDAEO","30UZJB2POHY4464FN6NBJ2NLFWF354","","66.40000000223517","img/food1.png","75","69","2","1","1","2","1,0.5,0,1,0.5,0,0.5,0,1","0,1,0.5,0,1,0.5,1,0.5,0","3","false",""
"","html-keyboard-response","329","195106","0.0-401.0","3MD9PLUKKJ0B18F83FJ863OATUONZA","AJDXSXAWDDAEO","30UZJB2POHY4464FN6NBJ2NLFWF354","","null","<img src=""img/food1.png"" style=""width:200px; border:14px solid green;"">","null","","","","","","","","","",""
"","image-keyboard-response","330","195195","0.0-403.0","3MD9PLUKKJ0B18F83FJ863OATUONZA","AJDXSXAWDDAEO","30UZJB2POHY4464FN6NBJ2NLFWF354","","84","img/food1.png","75","88.5","2","1","1","2","1,0.5,0,1,0.5,0,0.5,0,1","0,1,0.5,0,1,0.5,1,0.5,0","3","false",""
"","html-keyboard-response","331","195512","0.0-404.0","3MD9PLUKKJ0B18F83FJ863OATUONZA","AJDXSXAWDDAEO","30UZJB2POHY4464FN6NBJ2NLFWF354","","null","<img src=""img/food1.png"" style=""width:200px; border:14px solid green;"">","null","","","","","","","","","",""
"","image-keyboard-response","332","195607","0.0-406.0","3MD9PLUKKJ0B18F83FJ863OATUONZA","AJDXSXAWDDAEO","30UZJB2POHY4464FN6NBJ2NLFWF354","","92.5","img/food1.png","74","100.19999999925494","1","0","1","2","1,0.5,0,1,0.5,0,0.5,0,1","0,1,0.5,0,1,0.5,1,0.5,0","3","false",""
"","html-keyboard-response","333","195916","0.0-407.0","3MD9PLUKKJ0B18F83FJ863OATUONZA","AJDXSXAWDDAEO","30UZJB2POHY4464FN6NBJ2NLFWF354","","null","<img src=""img/food1.png"" style=""width:200px;border:14px solid red;"">","null","","","","","","","","","",""
"","image-keyboard-response","334","195981","0.0-409.0","3MD9PLUKKJ0B18F83FJ863OATUONZA","AJDXSXAWDDAEO","30UZJB2POHY4464FN6NBJ2NLFWF354","","61.5","img/food1.png","74","63.599999997764826","1","0","1","2","1,0.5,0,1,0.5,0,0.5,0,1","0,1,0.5,0,1,0.5,1,0.5,0","3","false",""
"","html-keyboard-response","335","196283","0.0-410.0","3MD9PLUKKJ0B18F83FJ863OATUONZA","AJDXSXAWDDAEO","30UZJB2POHY4464FN6NBJ2NLFWF354","","null","<img src=""img/food1.png"" style=""width:200px;border:14px solid red;"">","null","","","","","","","","","",""
"","image-keyboard-response","336","196307","0.0-412.0","3MD9PLUKKJ0B18F83FJ863OATUONZA","AJDXSXAWDDAEO","30UZJB2POHY4464FN6NBJ2NLFWF354","","20.800000000745058","img/food3.png","75","23.399999998509884","2","1","2","2","1,0.5,0,1,0.5,0,0.5,0,1","0,1,0.5,0,1,0.5,1,0.5,0","3","false",""
"","html-keyboard-response","337","196611","0.0-413.0","3MD9PLUKKJ0B18F83FJ863OATUONZA","AJDXSXAWDDAEO","30UZJB2POHY4464FN6NBJ2NLFWF354","","null","<img src=""img/food3.png"" style=""width:200px; border:14px solid green;"">","null","","","","","","","","","",""
"","image-keyboard-response","338","196688","0.0-415.0","3MD9PLUKKJ0B18F83FJ863OATUONZA","AJDXSXAWDDAEO","30UZJB2POHY4464FN6NBJ2NLFWF354","","74.19999999925494","img/food3.png","75","76.90000000223517","2","1","2","2","1,0.5,0,1,0.5,0,0.5,0,1","0,1,0.5,0,1,0.5,1,0.5,0","3","false",""
"","html-keyboard-response","339","196991","0.0-416.0","3MD9PLUKKJ0B18F83FJ863OATUONZA","AJDXSXAWDDAEO","30UZJB2POHY4464FN6NBJ2NLFWF354","","null","<img src=""img/food3.png"" style=""width:200px; border:14px solid green;"">","null","","","","","","","","","",""
"","image-keyboard-response","340","197076","0.0-418.0","3MD9PLUKKJ0B18F83FJ863OATUONZA","AJDXSXAWDDAEO","30UZJB2POHY4464FN6NBJ2NLFWF354","","76.30000000074506","img/food5.png","75","78.80000000074506","2","1","3","2","1,0.5,0,1,0.5,0,0.5,0,1","0,1,0.5,0,1,0.5,1,0.5,0","3","false",""
"","html-keyboard-response","341","197380","0.0-419.0","3MD9PLUKKJ0B18F83FJ863OATUONZA","AJDXSXAWDDAEO","30UZJB2POHY4464FN6NBJ2NLFWF354","","null","<img src=""img/food5.png"" style=""width:200px; border:14px solid green;"">","null","","","","","","","","","",""
"","image-keyboard-response","342","197400","0.0-421.0","3MD9PLUKKJ0B18F83FJ863OATUONZA","AJDXSXAWDDAEO","30UZJB2POHY4464FN6NBJ2NLFWF354","","15.100000001490116","img/food1.png","75","18.900000002235174","2","1","1","2","1,0.5,0,1,0.5,0,0.5,0,1","0,1,0.5,0,1,0.5,1,0.5,0","3","false",""
"","html-keyboard-response","343","197704","0.0-422.0","3MD9PLUKKJ0B18F83FJ863OATUONZA","AJDXSXAWDDAEO","30UZJB2POHY4464FN6NBJ2NLFWF354","","null","<img src=""img/food1.png"" style=""width:200px; border:14px solid green;"">","null","","","","","","","","","",""
"","image-keyboard-response","344","197802","0.0-424.0","3MD9PLUKKJ0B18F83FJ863OATUONZA","AJDXSXAWDDAEO","30UZJB2POHY4464FN6NBJ2NLFWF354","","95.10000000149012","img/food3.png","75","97.80000000074506","2","1","2","2","1,0.5,0,1,0.5,0,0.5,0,1","0,1,0.5,0,1,0.5,1,0.5,0","3","false",""
"","html-keyboard-response","345","198106","0.0-425.0","3MD9PLUKKJ0B18F83FJ863OATUONZA","AJDXSXAWDDAEO","30UZJB2POHY4464FN6NBJ2NLFWF354","","null","<img src=""img/food3.png"" style=""width:200px; border:14px solid green;"">","null","","","","","","","","","",""
"","image-keyboard-response","346","198171","0.0-427.0","3MD9PLUKKJ0B18F83FJ863OATUONZA","AJDXSXAWDDAEO","30UZJB2POHY4464FN6NBJ2NLFWF354","","60.5","img/food5.png","75","63.600000001490116","2","1","3","2","1,0.5,0,1,0.5,0,0.5,0,1","0,1,0.5,0,1,0.5,1,0.5,0","3","false",""
"","html-keyboard-response","347","198474","0.0-428.0","3MD9PLUKKJ0B18F83FJ863OATUONZA","AJDXSXAWDDAEO","30UZJB2POHY4464FN6NBJ2NLFWF354","","null","<img src=""img/food5.png"" style=""width:200px; border:14px solid green;"">","null","","","","","","","","","",""
"","image-keyboard-response","348","198600","0.0-430.0","3MD9PLUKKJ0B18F83FJ863OATUONZA","AJDXSXAWDDAEO","30UZJB2POHY4464FN6NBJ2NLFWF354","","122.70000000298023","img/food3.png","75","125","2","1","2","2","1,0.5,0,1,0.5,0,0.5,0,1","0,1,0.5,0,1,0.5,1,0.5,0","3","false",""
"","html-keyboard-response","349","198904","0.0-431.0","3MD9PLUKKJ0B18F83FJ863OATUONZA","AJDXSXAWDDAEO","30UZJB2POHY4464FN6NBJ2NLFWF354","","null","<img src=""img/food3.png"" style=""width:200px; border:14px solid green;"">","null","","","","","","","","","",""
"","image-keyboard-response","350","199266","0.0-433.0","3MD9PLUKKJ0B18F83FJ863OATUONZA","AJDXSXAWDDAEO","30UZJB2POHY4464FN6NBJ2NLFWF354","","358.19999999925494","img/food1.png","76","361.30000000074506","3","1","1","2","1,0.5,0,1,0.5,0,0.5,0,1","0,1,0.5,0,1,0.5,1,0.5,0","3","false",""
"","html-keyboard-response","351","199569","0.0-434.0","3MD9PLUKKJ0B18F83FJ863OATUONZA","AJDXSXAWDDAEO","30UZJB2POHY4464FN6NBJ2NLFWF354","","null","<img src=""img/food1.png"" style=""width:200px; border:14px solid green;"">","null","","","","","","","","","",""
"","image-keyboard-response","352","199910","0.0-436.0","3MD9PLUKKJ0B18F83FJ863OATUONZA","AJDXSXAWDDAEO","30UZJB2POHY4464FN6NBJ2NLFWF354","","336.0999999977648","img/food3.png","75","338.80000000074506","2","1","2","2","1,0.5,0,1,0.5,0,0.5,0,1","0,1,0.5,0,1,0.5,1,0.5,0","3","false",""
"","html-keyboard-response","353","200213","0.0-437.0","3MD9PLUKKJ0B18F83FJ863OATUONZA","AJDXSXAWDDAEO","30UZJB2POHY4464FN6NBJ2NLFWF354","","null","<img src=""img/food3.png"" style=""width:200px; border:14px solid green;"">","null","","","","","","","","","",""
"","image-keyboard-response","354","200358","0.0-439.0","3MD9PLUKKJ0B18F83FJ863OATUONZA","AJDXSXAWDDAEO","30UZJB2POHY4464FN6NBJ2NLFWF354","","144.19999999925494","img/food3.png","75","145.39999999850988","2","1","2","2","1,0.5,0,1,0.5,0,0.5,0,1","0,1,0.5,0,1,0.5,1,0.5,0","3","false",""
"","html-keyboard-response","355","200662","0.0-440.0","3MD9PLUKKJ0B18F83FJ863OATUONZA","AJDXSXAWDDAEO","30UZJB2POHY4464FN6NBJ2NLFWF354","","null","<img src=""img/food3.png"" style=""width:200px; border:14px solid green;"">","null","","","","","","","","","",""
"","image-keyboard-response","356","200729","0.0-442.0","3MD9PLUKKJ0B18F83FJ863OATUONZA","AJDXSXAWDDAEO","30UZJB2POHY4464FN6NBJ2NLFWF354","","63.599999997764826","img/food1.png","74","66.39999999850988","1","0","1","2","1,0.5,0,1,0.5,0,0.5,0,1","0,1,0.5,0,1,0.5,1,0.5,0","3","false",""
"","html-keyboard-response","357","201032","0.0-443.0","3MD9PLUKKJ0B18F83FJ863OATUONZA","AJDXSXAWDDAEO","30UZJB2POHY4464FN6NBJ2NLFWF354","","null","<img src=""img/food1.png"" style=""width:200px;border:14px solid red;"">","null","","","","","","","","","",""
"","image-keyboard-response","358","201105","0.0-445.0","3MD9PLUKKJ0B18F83FJ863OATUONZA","AJDXSXAWDDAEO","30UZJB2POHY4464FN6NBJ2NLFWF354","","69.59999999776483","img/food5.png","75","72.30000000074506","2","0","3","2","1,0.5,0,1,0.5,0,0.5,0,1","0,1,0.5,0,1,0.5,1,0.5,0","3","false",""
"","html-keyboard-response","359","201409","0.0-446.0","3MD9PLUKKJ0B18F83FJ863OATUONZA","AJDXSXAWDDAEO","30UZJB2POHY4464FN6NBJ2NLFWF354","","null","<img src=""img/food5.png"" style=""width:200px;border:14px solid red;"">","null","","","","","","","","","",""
"","image-keyboard-response","360","201538","0.0-448.0","3MD9PLUKKJ0B18F83FJ863OATUONZA","AJDXSXAWDDAEO","30UZJB2POHY4464FN6NBJ2NLFWF354","","125.80000000074506","img/food1.png","75","128.40000000223517","2","1","1","2","1,0.5,0,1,0.5,0,0.5,0,1","0,1,0.5,0,1,0.5,1,0.5,0","3","false",""
"","html-keyboard-response","361","201840","0.0-449.0","3MD9PLUKKJ0B18F83FJ863OATUONZA","AJDXSXAWDDAEO","30UZJB2POHY4464FN6NBJ2NLFWF354","","null","<img src=""img/food1.png"" style=""width:200px; border:14px solid green;"">","null","","","","","","","","","",""
"","image-keyboard-response","362","202007","0.0-451.0","3MD9PLUKKJ0B18F83FJ863OATUONZA","AJDXSXAWDDAEO","30UZJB2POHY4464FN6NBJ2NLFWF354","","161.80000000074506","img/food5.png","75","164.5","2","0","3","2","1,0.5,0,1,0.5,0,0.5,0,1","0,1,0.5,0,1,0.5,1,0.5,0","3","false",""
"","html-keyboard-response","363","202311","0.0-452.0","3MD9PLUKKJ0B18F83FJ863OATUONZA","AJDXSXAWDDAEO","30UZJB2POHY4464FN6NBJ2NLFWF354","","null","<img src=""img/food5.png"" style=""width:200px;border:14px solid red;"">","null","","","","","","","","","",""
"","instructions","364","206740","0.0-454.0","3MD9PLUKKJ0B18F83FJ863OATUONZA","AJDXSXAWDDAEO","30UZJB2POHY4464FN6NBJ2NLFWF354","[{""page_index"":0,""viewing_time"":4425.699999999255}]","4426.89999999851","","","","","","","","","","","",""
"","survey-text","365","210632","0.0-455.0","3MD9PLUKKJ0B18F83FJ863OATUONZA","AJDXSXAWDDAEO","30UZJB2POHY4464FN6NBJ2NLFWF354","","3872.39999999851","","","","","","","","","","","","{""Q0"":""AJDXSXAWDDAEO""}"
