"success","trial_type","trial_index","time_elapsed","internal_node_id","assignmentID","mturkID","hitID","view_history","rt","stimulus","key_press","reactionTime","a","r","s","cond","reward_cond","reward_cond_actual","reward_matrix_idx","warning","responses"
"true","fullscreen","0","2841","0.0-0.0","32AT8R96GMVRVMD35O1MO5J1EAFUS0","AK35CJJEYFVYK","36U4VBVNQOZD8NFWZXWF9CIHKRIURB","","","","","","","","","","","","","",""
"","instructions","1","51339","0.0-1.0","32AT8R96GMVRVMD35O1MO5J1EAFUS0","AK35CJJEYFVYK","36U4VBVNQOZD8NFWZXWF9CIHKRIURB","[{""page_index"":0,""viewing_time"":3484.0999999940395},{""page_index"":1,""viewing_time"":4940.800000011921},{""page_index"":2,""viewing_time"":7881.0999999940395},{""page_index"":3,""viewing_time"":6357.9000000059605},{""page_index"":4,""viewing_time"":7431.9000000059605},{""page_index"":5,""viewing_time"":16605.19999998808},{""page_index"":6,""viewing_time"":1796.9000000059605}]","48498.09999999404","","","","","","","","","","","",""
"","image-keyboard-response","2","53153","0.0-2.0","32AT8R96GMVRVMD35O1MO5J1EAFUS0","AK35CJJEYFVYK","36U4VBVNQOZD8NFWZXWF9CIHKRIURB","","1812.3999999761581","img/food5.png","76","1813.199999988079","3","1","3","1","1,0.5,0,1,0.5,0,0.5,0,1","1,0.5,0,1,0.5,0,0.5,0,1","1","",""
"","html-keyboard-response","3","53453","0.0-3.0","32AT8R96GMVRVMD35O1MO5J1EAFUS0","AK35CJJEYFVYK","36U4VBVNQOZD8NFWZXWF9CIHKRIURB","","null","<img src=""img/food5.png"" style=""width:200px; border:14px solid green;"">","null","","","","","","","","","",""
"","image-keyboard-response","4","55163","0.0-4.0","32AT8R96GMVRVMD35O1MO5J1EAFUS0","AK35CJJEYFVYK","36U4VBVNQOZD8NFWZXWF9CIHKRIURB","","1709.5","img/food1.png","75","1709.9000000059605","2","1","2","1","1,0.5,0,1,0.5,0,0.5,0,1","1,0.5,0,1,0.5,0,0.5,0,1","1","",""
"","html-keyboard-response","5","55464","0.0-5.0","32AT8R96GMVRVMD35O1MO5J1EAFUS0","AK35CJJEYFVYK","36U4VBVNQOZD8NFWZXWF9CIHKRIURB","","null","<img src=""img/food1.png"" style=""width:200px; border:14px solid green;"">","null","","","","","","","","","",""
"","image-keyboard-response","6","56345","0.0-6.0","32AT8R96GMVRVMD35O1MO5J1EAFUS0","AK35CJJEYFVYK","36U4VBVNQOZD8NFWZXWF9CIHKRIURB","","880.5999999940395","img/food1.png","75","880.9000000059605","2","1","2","1","1,0.5,0,1,0.5,0,0.5,0,1","1,0.5,0,1,0.5,0,0.5,0,1","1","",""
"","html-keyboard-response","7","56647","0.0-7.0","32AT8R96GMVRVMD35O1MO5J1EAFUS0","AK35CJJEYFVYK","36U4VBVNQOZD8NFWZXWF9CIHKRIURB","","null","<img src=""img/food1.png"" style=""width:200px; border:14px solid green;"">","null","","","","","","","","","",""
"","image-keyboard-response","8","57275","0.0-8.0","32AT8R96GMVRVMD35O1MO5J1EAFUS0","AK35CJJEYFVYK","36U4VBVNQOZD8NFWZXWF9CIHKRIURB","","627.5999999940395","img/food2.png","74","628.0999999940395","1","1","1","1","1,0.5,0,1,0.5,0,0.5,0,1","1,0.5,0,1,0.5,0,0.5,0,1","1","",""
"","html-keyboard-response","9","57576","0.0-9.0","32AT8R96GMVRVMD35O1MO5J1EAFUS0","AK35CJJEYFVYK","36U4VBVNQOZD8NFWZXWF9CIHKRIURB","","null","<img src=""img/food2.png"" style=""width:200px; border:14px solid green;"">","null","","","","","","","","","",""
"","image-keyboard-response","10","58635","0.0-10.0","32AT8R96GMVRVMD35O1MO5J1EAFUS0","AK35CJJEYFVYK","36U4VBVNQOZD8NFWZXWF9CIHKRIURB","","1058.4000000059605","img/food2.png","74","1058.8999999761581","1","1","1","1","1,0.5,0,1,0.5,0,0.5,0,1","1,0.5,0,1,0.5,0,0.5,0,1","1","",""
"","html-keyboard-response","11","58936","0.0-11.0","32AT8R96GMVRVMD35O1MO5J1EAFUS0","AK35CJJEYFVYK","36U4VBVNQOZD8NFWZXWF9CIHKRIURB","","null","<img src=""img/food2.png"" style=""width:200px; border:14px solid green;"">","null","","","","","","","","","",""
"","image-keyboard-response","12","59750","0.0-12.0","32AT8R96GMVRVMD35O1MO5J1EAFUS0","AK35CJJEYFVYK","36U4VBVNQOZD8NFWZXWF9CIHKRIURB","","813.4000000059605","img/food1.png","75","813.6999999880791","2","0","2","1","1,0.5,0,1,0.5,0,0.5,0,1","1,0.5,0,1,0.5,0,0.5,0,1","1","",""
"","html-keyboard-response","13","60052","0.0-13.0","32AT8R96GMVRVMD35O1MO5J1EAFUS0","AK35CJJEYFVYK","36U4VBVNQOZD8NFWZXWF9CIHKRIURB","","null","<img src=""img/food1.png"" style=""width:200px;border:14px solid red;"">","null","","","","","","","","","",""
"","image-keyboard-response","14","61016","0.0-14.0","32AT8R96GMVRVMD35O1MO5J1EAFUS0","AK35CJJEYFVYK","36U4VBVNQOZD8NFWZXWF9CIHKRIURB","","963.3000000119209","img/food2.png","74","963.5999999940395","1","1","1","1","1,0.5,0,1,0.5,0,0.5,0,1","1,0.5,0,1,0.5,0,0.5,0,1","1","",""
"","html-keyboard-response","15","61318","0.0-15.0","32AT8R96GMVRVMD35O1MO5J1EAFUS0","AK35CJJEYFVYK","36U4VBVNQOZD8NFWZXWF9CIHKRIURB","","null","<img src=""img/food2.png"" style=""width:200px; border:14px solid green;"">","null","","","","","","","","","",""
"","image-keyboard-response","16","61833","0.0-16.0","32AT8R96GMVRVMD35O1MO5J1EAFUS0","AK35CJJEYFVYK","36U4VBVNQOZD8NFWZXWF9CIHKRIURB","","515.0999999940395","img/food2.png","74","515.4000000059605","1","1","1","1","1,0.5,0,1,0.5,0,0.5,0,1","1,0.5,0,1,0.5,0,0.5,0,1","1","",""
"","html-keyboard-response","17","62134","0.0-17.0","32AT8R96GMVRVMD35O1MO5J1EAFUS0","AK35CJJEYFVYK","36U4VBVNQOZD8NFWZXWF9CIHKRIURB","","null","<img src=""img/food2.png"" style=""width:200px; border:14px solid green;"">","null","","","","","","","","","",""
"","image-keyboard-response","18","62906","0.0-18.0","32AT8R96GMVRVMD35O1MO5J1EAFUS0","AK35CJJEYFVYK","36U4VBVNQOZD8NFWZXWF9CIHKRIURB","","772","img/food1.png","75","772.3000000119209","2","1","2","1","1,0.5,0,1,0.5,0,0.5,0,1","1,0.5,0,1,0.5,0,0.5,0,1","1","",""
"","html-keyboard-response","19","63207","0.0-19.0","32AT8R96GMVRVMD35O1MO5J1EAFUS0","AK35CJJEYFVYK","36U4VBVNQOZD8NFWZXWF9CIHKRIURB","","null","<img src=""img/food1.png"" style=""width:200px; border:14px solid green;"">","null","","","","","","","","","",""
"","image-keyboard-response","20","63735","0.0-20.0","32AT8R96GMVRVMD35O1MO5J1EAFUS0","AK35CJJEYFVYK","36U4VBVNQOZD8NFWZXWF9CIHKRIURB","","527.4000000059605","img/food2.png","74","527.7999999821186","1","1","1","1","1,0.5,0,1,0.5,0,0.5,0,1","1,0.5,0,1,0.5,0,0.5,0,1","1","",""
"","html-keyboard-response","21","64036","0.0-21.0","32AT8R96GMVRVMD35O1MO5J1EAFUS0","AK35CJJEYFVYK","36U4VBVNQOZD8NFWZXWF9CIHKRIURB","","null","<img src=""img/food2.png"" style=""width:200px; border:14px solid green;"">","null","","","","","","","","","",""
"","image-keyboard-response","22","64773","0.0-22.0","32AT8R96GMVRVMD35O1MO5J1EAFUS0","AK35CJJEYFVYK","36U4VBVNQOZD8NFWZXWF9CIHKRIURB","","736.2999999821186","img/food5.png","76","736.6999999880791","3","1","3","1","1,0.5,0,1,0.5,0,0.5,0,1","1,0.5,0,1,0.5,0,0.5,0,1","1","",""
"","html-keyboard-response","23","65075","0.0-23.0","32AT8R96GMVRVMD35O1MO5J1EAFUS0","AK35CJJEYFVYK","36U4VBVNQOZD8NFWZXWF9CIHKRIURB","","null","<img src=""img/food5.png"" style=""width:200px; border:14px solid green;"">","null","","","","","","","","","",""
"","image-keyboard-response","24","65482","0.0-24.0","32AT8R96GMVRVMD35O1MO5J1EAFUS0","AK35CJJEYFVYK","36U4VBVNQOZD8NFWZXWF9CIHKRIURB","","407.19999998807907","img/food5.png","76","407.5","3","1","3","1","1,0.5,0,1,0.5,0,0.5,0,1","1,0.5,0,1,0.5,0,0.5,0,1","1","",""
"","html-keyboard-response","25","65783","0.0-25.0","32AT8R96GMVRVMD35O1MO5J1EAFUS0","AK35CJJEYFVYK","36U4VBVNQOZD8NFWZXWF9CIHKRIURB","","null","<img src=""img/food5.png"" style=""width:200px; border:14px solid green;"">","null","","","","","","","","","",""
"","image-keyboard-response","26","66263","0.0-26.0","32AT8R96GMVRVMD35O1MO5J1EAFUS0","AK35CJJEYFVYK","36U4VBVNQOZD8NFWZXWF9CIHKRIURB","","479.40000000596046","img/food5.png","76","479.7999999821186","3","1","3","1","1,0.5,0,1,0.5,0,0.5,0,1","1,0.5,0,1,0.5,0,0.5,0,1","1","",""
"","html-keyboard-response","27","66564","0.0-27.0","32AT8R96GMVRVMD35O1MO5J1EAFUS0","AK35CJJEYFVYK","36U4VBVNQOZD8NFWZXWF9CIHKRIURB","","null","<img src=""img/food5.png"" style=""width:200px; border:14px solid green;"">","null","","","","","","","","","",""
"","image-keyboard-response","28","67381","0.0-28.0","32AT8R96GMVRVMD35O1MO5J1EAFUS0","AK35CJJEYFVYK","36U4VBVNQOZD8NFWZXWF9CIHKRIURB","","816.2999999821186","img/food2.png","74","816.6999999880791","1","1","1","1","1,0.5,0,1,0.5,0,0.5,0,1","1,0.5,0,1,0.5,0,0.5,0,1","1","",""
"","html-keyboard-response","29","67683","0.0-29.0","32AT8R96GMVRVMD35O1MO5J1EAFUS0","AK35CJJEYFVYK","36U4VBVNQOZD8NFWZXWF9CIHKRIURB","","null","<img src=""img/food2.png"" style=""width:200px; border:14px solid green;"">","null","","","","","","","","","",""
"","image-keyboard-response","30","68486","0.0-30.0","32AT8R96GMVRVMD35O1MO5J1EAFUS0","AK35CJJEYFVYK","36U4VBVNQOZD8NFWZXWF9CIHKRIURB","","802.6999999880791","img/food5.png","75","803.1999999880791","2","0","3","1","1,0.5,0,1,0.5,0,0.5,0,1","1,0.5,0,1,0.5,0,0.5,0,1","1","",""
"","html-keyboard-response","31","68788","0.0-31.0","32AT8R96GMVRVMD35O1MO5J1EAFUS0","AK35CJJEYFVYK","36U4VBVNQOZD8NFWZXWF9CIHKRIURB","","null","<img src=""img/food5.png"" style=""width:200px;border:14px solid red;"">","null","","","","","","","","","",""
"","image-keyboard-response","32","70880","0.0-32.0","32AT8R96GMVRVMD35O1MO5J1EAFUS0","AK35CJJEYFVYK","36U4VBVNQOZD8NFWZXWF9CIHKRIURB","","2091.899999976158","img/food2.png","74","2092.2000000178814","1","1","1","1","1,0.5,0,1,0.5,0,0.5,0,1","1,0.5,0,1,0.5,0,0.5,0,1","1","",""
"","html-keyboard-response","33","71181","0.0-33.0","32AT8R96GMVRVMD35O1MO5J1EAFUS0","AK35CJJEYFVYK","36U4VBVNQOZD8NFWZXWF9CIHKRIURB","","null","<img src=""img/food2.png"" style=""width:200px; border:14px solid green;"">","null","","","","","","","","","",""
"","image-keyboard-response","34","72203","0.0-34.0","32AT8R96GMVRVMD35O1MO5J1EAFUS0","AK35CJJEYFVYK","36U4VBVNQOZD8NFWZXWF9CIHKRIURB","","1021.5999999940395","img/food1.png","75","1022","2","1","2","1","1,0.5,0,1,0.5,0,0.5,0,1","1,0.5,0,1,0.5,0,0.5,0,1","1","",""
"","html-keyboard-response","35","72504","0.0-35.0","32AT8R96GMVRVMD35O1MO5J1EAFUS0","AK35CJJEYFVYK","36U4VBVNQOZD8NFWZXWF9CIHKRIURB","","null","<img src=""img/food1.png"" style=""width:200px; border:14px solid green;"">","null","","","","","","","","","",""
"","image-keyboard-response","36","73289","0.0-36.0","32AT8R96GMVRVMD35O1MO5J1EAFUS0","AK35CJJEYFVYK","36U4VBVNQOZD8NFWZXWF9CIHKRIURB","","784.4000000059605","img/food2.png","74","784.6999999880791","1","1","1","1","1,0.5,0,1,0.5,0,0.5,0,1","1,0.5,0,1,0.5,0,0.5,0,1","1","",""
"","html-keyboard-response","37","73591","0.0-37.0","32AT8R96GMVRVMD35O1MO5J1EAFUS0","AK35CJJEYFVYK","36U4VBVNQOZD8NFWZXWF9CIHKRIURB","","null","<img src=""img/food2.png"" style=""width:200px; border:14px solid green;"">","null","","","","","","","","","",""
"","image-keyboard-response","38","74296","0.0-38.0","32AT8R96GMVRVMD35O1MO5J1EAFUS0","AK35CJJEYFVYK","36U4VBVNQOZD8NFWZXWF9CIHKRIURB","","705","img/food5.png","76","705.4000000059605","3","1","3","1","1,0.5,0,1,0.5,0,0.5,0,1","1,0.5,0,1,0.5,0,0.5,0,1","1","",""
"","html-keyboard-response","39","74597","0.0-39.0","32AT8R96GMVRVMD35O1MO5J1EAFUS0","AK35CJJEYFVYK","36U4VBVNQOZD8NFWZXWF9CIHKRIURB","","null","<img src=""img/food5.png"" style=""width:200px; border:14px solid green;"">","null","","","","","","","","","",""
"","image-keyboard-response","40","75556","0.0-40.0","32AT8R96GMVRVMD35O1MO5J1EAFUS0","AK35CJJEYFVYK","36U4VBVNQOZD8NFWZXWF9CIHKRIURB","","958.0999999940395","img/food1.png","75","958.4000000059605","2","0","2","1","1,0.5,0,1,0.5,0,0.5,0,1","1,0.5,0,1,0.5,0,0.5,0,1","1","",""
"","html-keyboard-response","41","75857","0.0-41.0","32AT8R96GMVRVMD35O1MO5J1EAFUS0","AK35CJJEYFVYK","36U4VBVNQOZD8NFWZXWF9CIHKRIURB","","null","<img src=""img/food1.png"" style=""width:200px;border:14px solid red;"">","null","","","","","","","","","",""
"","image-keyboard-response","42","76796","0.0-42.0","32AT8R96GMVRVMD35O1MO5J1EAFUS0","AK35CJJEYFVYK","36U4VBVNQOZD8NFWZXWF9CIHKRIURB","","939.1999999880791","img/food5.png","76","939.6000000238419","3","1","3","1","1,0.5,0,1,0.5,0,0.5,0,1","1,0.5,0,1,0.5,0,0.5,0,1","1","",""
"","html-keyboard-response","43","77098","0.0-43.0","32AT8R96GMVRVMD35O1MO5J1EAFUS0","AK35CJJEYFVYK","36U4VBVNQOZD8NFWZXWF9CIHKRIURB","","null","<img src=""img/food5.png"" style=""width:200px; border:14px solid green;"">","null","","","","","","","","","",""
"","image-keyboard-response","44","77721","0.0-44.0","32AT8R96GMVRVMD35O1MO5J1EAFUS0","AK35CJJEYFVYK","36U4VBVNQOZD8NFWZXWF9CIHKRIURB","","622.4000000059605","img/food1.png","75","622.7999999821186","2","0","2","1","1,0.5,0,1,0.5,0,0.5,0,1","1,0.5,0,1,0.5,0,0.5,0,1","1","",""
"","html-keyboard-response","45","78023","0.0-45.0","32AT8R96GMVRVMD35O1MO5J1EAFUS0","AK35CJJEYFVYK","36U4VBVNQOZD8NFWZXWF9CIHKRIURB","","null","<img src=""img/food1.png"" style=""width:200px;border:14px solid red;"">","null","","","","","","","","","",""
"","image-keyboard-response","46","78546","0.0-46.0","32AT8R96GMVRVMD35O1MO5J1EAFUS0","AK35CJJEYFVYK","36U4VBVNQOZD8NFWZXWF9CIHKRIURB","","522.9000000059605","img/food1.png","75","523.2000000178814","2","1","2","1","1,0.5,0,1,0.5,0,0.5,0,1","1,0.5,0,1,0.5,0,0.5,0,1","1","",""
"","html-keyboard-response","47","78847","0.0-47.0","32AT8R96GMVRVMD35O1MO5J1EAFUS0","AK35CJJEYFVYK","36U4VBVNQOZD8NFWZXWF9CIHKRIURB","","null","<img src=""img/food1.png"" style=""width:200px; border:14px solid green;"">","null","","","","","","","","","",""
"","image-keyboard-response","48","79506","0.0-48.0","32AT8R96GMVRVMD35O1MO5J1EAFUS0","AK35CJJEYFVYK","36U4VBVNQOZD8NFWZXWF9CIHKRIURB","","658.7000000178814","img/food5.png","76","659","3","1","3","1","1,0.5,0,1,0.5,0,0.5,0,1","1,0.5,0,1,0.5,0,0.5,0,1","1","",""
"","html-keyboard-response","49","79808","0.0-49.0","32AT8R96GMVRVMD35O1MO5J1EAFUS0","AK35CJJEYFVYK","36U4VBVNQOZD8NFWZXWF9CIHKRIURB","","null","<img src=""img/food5.png"" style=""width:200px; border:14px solid green;"">","null","","","","","","","","","",""
"","image-keyboard-response","50","80193","0.0-50.0","32AT8R96GMVRVMD35O1MO5J1EAFUS0","AK35CJJEYFVYK","36U4VBVNQOZD8NFWZXWF9CIHKRIURB","","385","img/food1.png","75","385.2999999821186","2","0","2","1","1,0.5,0,1,0.5,0,0.5,0,1","1,0.5,0,1,0.5,0,0.5,0,1","1","",""
"","html-keyboard-response","51","80495","0.0-51.0","32AT8R96GMVRVMD35O1MO5J1EAFUS0","AK35CJJEYFVYK","36U4VBVNQOZD8NFWZXWF9CIHKRIURB","","null","<img src=""img/food1.png"" style=""width:200px;border:14px solid red;"">","null","","","","","","","","","",""
"","image-keyboard-response","52","81069","0.0-52.0","32AT8R96GMVRVMD35O1MO5J1EAFUS0","AK35CJJEYFVYK","36U4VBVNQOZD8NFWZXWF9CIHKRIURB","","574.0999999940395","img/food5.png","76","574.6000000238419","3","1","3","1","1,0.5,0,1,0.5,0,0.5,0,1","1,0.5,0,1,0.5,0,0.5,0,1","1","",""
"","html-keyboard-response","53","81370","0.0-53.0","32AT8R96GMVRVMD35O1MO5J1EAFUS0","AK35CJJEYFVYK","36U4VBVNQOZD8NFWZXWF9CIHKRIURB","","null","<img src=""img/food5.png"" style=""width:200px; border:14px solid green;"">","null","","","","","","","","","",""
"","image-keyboard-response","54","81869","0.0-54.0","32AT8R96GMVRVMD35O1MO5J1EAFUS0","AK35CJJEYFVYK","36U4VBVNQOZD8NFWZXWF9CIHKRIURB","","498.7000000178814","img/food5.png","76","499.19999998807907","3","1","3","1","1,0.5,0,1,0.5,0,0.5,0,1","1,0.5,0,1,0.5,0,0.5,0,1","1","",""
"","html-keyboard-response","55","82170","0.0-55.0","32AT8R96GMVRVMD35O1MO5J1EAFUS0","AK35CJJEYFVYK","36U4VBVNQOZD8NFWZXWF9CIHKRIURB","","null","<img src=""img/food5.png"" style=""width:200px; border:14px solid green;"">","null","","","","","","","","","",""
"","image-keyboard-response","56","82659","0.0-56.0","32AT8R96GMVRVMD35O1MO5J1EAFUS0","AK35CJJEYFVYK","36U4VBVNQOZD8NFWZXWF9CIHKRIURB","","488.5","img/food1.png","75","488.90000000596046","2","1","2","1","1,0.5,0,1,0.5,0,0.5,0,1","1,0.5,0,1,0.5,0,0.5,0,1","1","",""
"","html-keyboard-response","57","82960","0.0-57.0","32AT8R96GMVRVMD35O1MO5J1EAFUS0","AK35CJJEYFVYK","36U4VBVNQOZD8NFWZXWF9CIHKRIURB","","null","<img src=""img/food1.png"" style=""width:200px; border:14px solid green;"">","null","","","","","","","","","",""
"","image-keyboard-response","58","83598","0.0-58.0","32AT8R96GMVRVMD35O1MO5J1EAFUS0","AK35CJJEYFVYK","36U4VBVNQOZD8NFWZXWF9CIHKRIURB","","637.0999999940395","img/food2.png","74","637.5","1","1","1","1","1,0.5,0,1,0.5,0,0.5,0,1","1,0.5,0,1,0.5,0,0.5,0,1","1","",""
"","html-keyboard-response","59","83899","0.0-59.0","32AT8R96GMVRVMD35O1MO5J1EAFUS0","AK35CJJEYFVYK","36U4VBVNQOZD8NFWZXWF9CIHKRIURB","","null","<img src=""img/food2.png"" style=""width:200px; border:14px solid green;"">","null","","","","","","","","","",""
"","image-keyboard-response","60","84641","0.0-60.0","32AT8R96GMVRVMD35O1MO5J1EAFUS0","AK35CJJEYFVYK","36U4VBVNQOZD8NFWZXWF9CIHKRIURB","","741.3000000119209","img/food5.png","76","741.6999999880791","3","1","3","1","1,0.5,0,1,0.5,0,0.5,0,1","1,0.5,0,1,0.5,0,0.5,0,1","1","",""
"","html-keyboard-response","61","84942","0.0-61.0","32AT8R96GMVRVMD35O1MO5J1EAFUS0","AK35CJJEYFVYK","36U4VBVNQOZD8NFWZXWF9CIHKRIURB","","null","<img src=""img/food5.png"" style=""width:200px; border:14px solid green;"">","null","","","","","","","","","",""
"","image-keyboard-response","62","85590","0.0-62.0","32AT8R96GMVRVMD35O1MO5J1EAFUS0","AK35CJJEYFVYK","36U4VBVNQOZD8NFWZXWF9CIHKRIURB","","647.5999999940395","img/food1.png","75","648","2","1","2","1","1,0.5,0,1,0.5,0,0.5,0,1","1,0.5,0,1,0.5,0,0.5,0,1","1","",""
"","html-keyboard-response","63","85891","0.0-63.0","32AT8R96GMVRVMD35O1MO5J1EAFUS0","AK35CJJEYFVYK","36U4VBVNQOZD8NFWZXWF9CIHKRIURB","","null","<img src=""img/food1.png"" style=""width:200px; border:14px solid green;"">","null","","","","","","","","","",""
"","image-keyboard-response","64","86573","0.0-64.0","32AT8R96GMVRVMD35O1MO5J1EAFUS0","AK35CJJEYFVYK","36U4VBVNQOZD8NFWZXWF9CIHKRIURB","","682","img/food5.png","76","682.4000000059605","3","1","3","1","1,0.5,0,1,0.5,0,0.5,0,1","1,0.5,0,1,0.5,0,0.5,0,1","1","",""
"","html-keyboard-response","65","86874","0.0-65.0","32AT8R96GMVRVMD35O1MO5J1EAFUS0","AK35CJJEYFVYK","36U4VBVNQOZD8NFWZXWF9CIHKRIURB","","null","<img src=""img/food5.png"" style=""width:200px; border:14px solid green;"">","null","","","","","","","","","",""
"","image-keyboard-response","66","87576","0.0-66.0","32AT8R96GMVRVMD35O1MO5J1EAFUS0","AK35CJJEYFVYK","36U4VBVNQOZD8NFWZXWF9CIHKRIURB","","701.5999999940395","img/food1.png","75","702","2","0","2","1","1,0.5,0,1,0.5,0,0.5,0,1","1,0.5,0,1,0.5,0,0.5,0,1","1","",""
"","html-keyboard-response","67","87877","0.0-67.0","32AT8R96GMVRVMD35O1MO5J1EAFUS0","AK35CJJEYFVYK","36U4VBVNQOZD8NFWZXWF9CIHKRIURB","","null","<img src=""img/food1.png"" style=""width:200px;border:14px solid red;"">","null","","","","","","","","","",""
"","image-keyboard-response","68","88562","0.0-68.0","32AT8R96GMVRVMD35O1MO5J1EAFUS0","AK35CJJEYFVYK","36U4VBVNQOZD8NFWZXWF9CIHKRIURB","","684.3000000119209","img/food2.png","74","684.6999999880791","1","1","1","1","1,0.5,0,1,0.5,0,0.5,0,1","1,0.5,0,1,0.5,0,0.5,0,1","1","",""
"","html-keyboard-response","69","88863","0.0-69.0","32AT8R96GMVRVMD35O1MO5J1EAFUS0","AK35CJJEYFVYK","36U4VBVNQOZD8NFWZXWF9CIHKRIURB","","null","<img src=""img/food2.png"" style=""width:200px; border:14px solid green;"">","null","","","","","","","","","",""
"","image-keyboard-response","70","89331","0.0-70.0","32AT8R96GMVRVMD35O1MO5J1EAFUS0","AK35CJJEYFVYK","36U4VBVNQOZD8NFWZXWF9CIHKRIURB","","467.59999999403954","img/food2.png","74","467.90000000596046","1","1","1","1","1,0.5,0,1,0.5,0,0.5,0,1","1,0.5,0,1,0.5,0,0.5,0,1","1","",""
"","html-keyboard-response","71","89633","0.0-71.0","32AT8R96GMVRVMD35O1MO5J1EAFUS0","AK35CJJEYFVYK","36U4VBVNQOZD8NFWZXWF9CIHKRIURB","","null","<img src=""img/food2.png"" style=""width:200px; border:14px solid green;"">","null","","","","","","","","","",""
"","image-keyboard-response","72","90005","0.0-72.0","32AT8R96GMVRVMD35O1MO5J1EAFUS0","AK35CJJEYFVYK","36U4VBVNQOZD8NFWZXWF9CIHKRIURB","","371.5","img/food2.png","74","371.89999997615814","1","1","1","1","1,0.5,0,1,0.5,0,0.5,0,1","1,0.5,0,1,0.5,0,0.5,0,1","1","",""
"","html-keyboard-response","73","90306","0.0-73.0","32AT8R96GMVRVMD35O1MO5J1EAFUS0","AK35CJJEYFVYK","36U4VBVNQOZD8NFWZXWF9CIHKRIURB","","null","<img src=""img/food2.png"" style=""width:200px; border:14px solid green;"">","null","","","","","","","","","",""
"","image-keyboard-response","74","90628","0.0-74.0","32AT8R96GMVRVMD35O1MO5J1EAFUS0","AK35CJJEYFVYK","36U4VBVNQOZD8NFWZXWF9CIHKRIURB","","321.80000001192093","img/food2.png","74","322.2999999821186","1","1","1","1","1,0.5,0,1,0.5,0,0.5,0,1","1,0.5,0,1,0.5,0,0.5,0,1","1","",""
"","html-keyboard-response","75","90929","0.0-75.0","32AT8R96GMVRVMD35O1MO5J1EAFUS0","AK35CJJEYFVYK","36U4VBVNQOZD8NFWZXWF9CIHKRIURB","","null","<img src=""img/food2.png"" style=""width:200px; border:14px solid green;"">","null","","","","","","","","","",""
"","image-keyboard-response","76","91574","0.0-76.0","32AT8R96GMVRVMD35O1MO5J1EAFUS0","AK35CJJEYFVYK","36U4VBVNQOZD8NFWZXWF9CIHKRIURB","","645","img/food5.png","76","645.2999999821186","3","1","3","1","1,0.5,0,1,0.5,0,0.5,0,1","1,0.5,0,1,0.5,0,0.5,0,1","1","",""
"","html-keyboard-response","77","91875","0.0-77.0","32AT8R96GMVRVMD35O1MO5J1EAFUS0","AK35CJJEYFVYK","36U4VBVNQOZD8NFWZXWF9CIHKRIURB","","null","<img src=""img/food5.png"" style=""width:200px; border:14px solid green;"">","null","","","","","","","","","",""
"","image-keyboard-response","78","92627","0.0-78.0","32AT8R96GMVRVMD35O1MO5J1EAFUS0","AK35CJJEYFVYK","36U4VBVNQOZD8NFWZXWF9CIHKRIURB","","751.6999999880791","img/food2.png","74","752","1","1","1","1","1,0.5,0,1,0.5,0,0.5,0,1","1,0.5,0,1,0.5,0,0.5,0,1","1","",""
"","html-keyboard-response","79","92928","0.0-79.0","32AT8R96GMVRVMD35O1MO5J1EAFUS0","AK35CJJEYFVYK","36U4VBVNQOZD8NFWZXWF9CIHKRIURB","","null","<img src=""img/food2.png"" style=""width:200px; border:14px solid green;"">","null","","","","","","","","","",""
"","image-keyboard-response","80","93496","0.0-80.0","32AT8R96GMVRVMD35O1MO5J1EAFUS0","AK35CJJEYFVYK","36U4VBVNQOZD8NFWZXWF9CIHKRIURB","","568","img/food5.png","76","568.4000000059605","3","1","3","1","1,0.5,0,1,0.5,0,0.5,0,1","1,0.5,0,1,0.5,0,0.5,0,1","1","",""
"","html-keyboard-response","81","93797","0.0-81.0","32AT8R96GMVRVMD35O1MO5J1EAFUS0","AK35CJJEYFVYK","36U4VBVNQOZD8NFWZXWF9CIHKRIURB","","null","<img src=""img/food5.png"" style=""width:200px; border:14px solid green;"">","null","","","","","","","","","",""
"","image-keyboard-response","82","94170","0.0-82.0","32AT8R96GMVRVMD35O1MO5J1EAFUS0","AK35CJJEYFVYK","36U4VBVNQOZD8NFWZXWF9CIHKRIURB","","372.59999999403954","img/food5.png","76","372.90000000596046","3","1","3","1","1,0.5,0,1,0.5,0,0.5,0,1","1,0.5,0,1,0.5,0,0.5,0,1","1","",""
"","html-keyboard-response","83","94472","0.0-83.0","32AT8R96GMVRVMD35O1MO5J1EAFUS0","AK35CJJEYFVYK","36U4VBVNQOZD8NFWZXWF9CIHKRIURB","","null","<img src=""img/food5.png"" style=""width:200px; border:14px solid green;"">","null","","","","","","","","","",""
"","image-keyboard-response","84","95095","0.0-84.0","32AT8R96GMVRVMD35O1MO5J1EAFUS0","AK35CJJEYFVYK","36U4VBVNQOZD8NFWZXWF9CIHKRIURB","","622.5","img/food1.png","75","622.9000000059605","2","0","2","1","1,0.5,0,1,0.5,0,0.5,0,1","1,0.5,0,1,0.5,0,0.5,0,1","1","",""
"","html-keyboard-response","85","95396","0.0-85.0","32AT8R96GMVRVMD35O1MO5J1EAFUS0","AK35CJJEYFVYK","36U4VBVNQOZD8NFWZXWF9CIHKRIURB","","null","<img src=""img/food1.png"" style=""width:200px;border:14px solid red;"">","null","","","","","","","","","",""
"","image-keyboard-response","86","95932","0.0-86.0","32AT8R96GMVRVMD35O1MO5J1EAFUS0","AK35CJJEYFVYK","36U4VBVNQOZD8NFWZXWF9CIHKRIURB","","535.5","img/food5.png","76","536","3","1","3","1","1,0.5,0,1,0.5,0,0.5,0,1","1,0.5,0,1,0.5,0,0.5,0,1","1","",""
"","html-keyboard-response","87","96233","0.0-87.0","32AT8R96GMVRVMD35O1MO5J1EAFUS0","AK35CJJEYFVYK","36U4VBVNQOZD8NFWZXWF9CIHKRIURB","","null","<img src=""img/food5.png"" style=""width:200px; border:14px solid green;"">","null","","","","","","","","","",""
"","image-keyboard-response","88","96879","0.0-88.0","32AT8R96GMVRVMD35O1MO5J1EAFUS0","AK35CJJEYFVYK","36U4VBVNQOZD8NFWZXWF9CIHKRIURB","","645.5","img/food1.png","75","645.9000000059605","2","1","2","1","1,0.5,0,1,0.5,0,0.5,0,1","1,0.5,0,1,0.5,0,0.5,0,1","1","",""
"","html-keyboard-response","89","97180","0.0-89.0","32AT8R96GMVRVMD35O1MO5J1EAFUS0","AK35CJJEYFVYK","36U4VBVNQOZD8NFWZXWF9CIHKRIURB","","null","<img src=""img/food1.png"" style=""width:200px; border:14px solid green;"">","null","","","","","","","","","",""
"","image-keyboard-response","90","97620","0.0-90.0","32AT8R96GMVRVMD35O1MO5J1EAFUS0","AK35CJJEYFVYK","36U4VBVNQOZD8NFWZXWF9CIHKRIURB","","439.69999998807907","img/food1.png","75","439.90000000596046","2","0","2","1","1,0.5,0,1,0.5,0,0.5,0,1","1,0.5,0,1,0.5,0,0.5,0,1","1","",""
"","html-keyboard-response","91","97927","0.0-91.0","32AT8R96GMVRVMD35O1MO5J1EAFUS0","AK35CJJEYFVYK","36U4VBVNQOZD8NFWZXWF9CIHKRIURB","","null","<img src=""img/food1.png"" style=""width:200px;border:14px solid red;"">","null","","","","","","","","","",""
"","image-keyboard-response","92","99842","0.0-92.0","32AT8R96GMVRVMD35O1MO5J1EAFUS0","AK35CJJEYFVYK","36U4VBVNQOZD8NFWZXWF9CIHKRIURB","","1915.0999999940395","img/food5.png","76","1915.5","3","1","3","1","1,0.5,0,1,0.5,0,0.5,0,1","1,0.5,0,1,0.5,0,0.5,0,1","1","",""
"","html-keyboard-response","93","100143","0.0-93.0","32AT8R96GMVRVMD35O1MO5J1EAFUS0","AK35CJJEYFVYK","36U4VBVNQOZD8NFWZXWF9CIHKRIURB","","null","<img src=""img/food5.png"" style=""width:200px; border:14px solid green;"">","null","","","","","","","","","",""
"","image-keyboard-response","94","100677","0.0-94.0","32AT8R96GMVRVMD35O1MO5J1EAFUS0","AK35CJJEYFVYK","36U4VBVNQOZD8NFWZXWF9CIHKRIURB","","533.3000000119209","img/food1.png","75","533.6999999880791","2","1","2","1","1,0.5,0,1,0.5,0,0.5,0,1","1,0.5,0,1,0.5,0,0.5,0,1","1","",""
"","html-keyboard-response","95","100978","0.0-95.0","32AT8R96GMVRVMD35O1MO5J1EAFUS0","AK35CJJEYFVYK","36U4VBVNQOZD8NFWZXWF9CIHKRIURB","","null","<img src=""img/food1.png"" style=""width:200px; border:14px solid green;"">","null","","","","","","","","","",""
"","image-keyboard-response","96","101526","0.0-96.0","32AT8R96GMVRVMD35O1MO5J1EAFUS0","AK35CJJEYFVYK","36U4VBVNQOZD8NFWZXWF9CIHKRIURB","","547.7999999821186","img/food2.png","74","548.0999999940395","1","1","1","1","1,0.5,0,1,0.5,0,0.5,0,1","1,0.5,0,1,0.5,0,0.5,0,1","1","",""
"","html-keyboard-response","97","101827","0.0-97.0","32AT8R96GMVRVMD35O1MO5J1EAFUS0","AK35CJJEYFVYK","36U4VBVNQOZD8NFWZXWF9CIHKRIURB","","null","<img src=""img/food2.png"" style=""width:200px; border:14px solid green;"">","null","","","","","","","","","",""
"","image-keyboard-response","98","102192","0.0-98.0","32AT8R96GMVRVMD35O1MO5J1EAFUS0","AK35CJJEYFVYK","36U4VBVNQOZD8NFWZXWF9CIHKRIURB","","364.80000001192093","img/food2.png","74","365.09999999403954","1","1","1","1","1,0.5,0,1,0.5,0,0.5,0,1","1,0.5,0,1,0.5,0,0.5,0,1","1","",""
"","html-keyboard-response","99","102493","0.0-99.0","32AT8R96GMVRVMD35O1MO5J1EAFUS0","AK35CJJEYFVYK","36U4VBVNQOZD8NFWZXWF9CIHKRIURB","","null","<img src=""img/food2.png"" style=""width:200px; border:14px solid green;"">","null","","","","","","","","","",""
"","image-keyboard-response","100","103090","0.0-100.0","32AT8R96GMVRVMD35O1MO5J1EAFUS0","AK35CJJEYFVYK","36U4VBVNQOZD8NFWZXWF9CIHKRIURB","","596.3000000119209","img/food1.png","75","596.6999999880791","2","1","2","1","1,0.5,0,1,0.5,0,0.5,0,1","1,0.5,0,1,0.5,0,0.5,0,1","1","",""
"","html-keyboard-response","101","103391","0.0-101.0","32AT8R96GMVRVMD35O1MO5J1EAFUS0","AK35CJJEYFVYK","36U4VBVNQOZD8NFWZXWF9CIHKRIURB","","null","<img src=""img/food1.png"" style=""width:200px; border:14px solid green;"">","null","","","","","","","","","",""
"","image-keyboard-response","102","104092","0.0-102.0","32AT8R96GMVRVMD35O1MO5J1EAFUS0","AK35CJJEYFVYK","36U4VBVNQOZD8NFWZXWF9CIHKRIURB","","700.3000000119209","img/food2.png","74","700.5999999940395","1","1","1","1","1,0.5,0,1,0.5,0,0.5,0,1","1,0.5,0,1,0.5,0,0.5,0,1","1","",""
"","html-keyboard-response","103","104393","0.0-103.0","32AT8R96GMVRVMD35O1MO5J1EAFUS0","AK35CJJEYFVYK","36U4VBVNQOZD8NFWZXWF9CIHKRIURB","","null","<img src=""img/food2.png"" style=""width:200px; border:14px solid green;"">","null","","","","","","","","","",""
"","image-keyboard-response","104","104995","0.0-104.0","32AT8R96GMVRVMD35O1MO5J1EAFUS0","AK35CJJEYFVYK","36U4VBVNQOZD8NFWZXWF9CIHKRIURB","","601.1999999880791","img/food5.png","76","601.5999999940395","3","1","3","1","1,0.5,0,1,0.5,0,0.5,0,1","1,0.5,0,1,0.5,0,0.5,0,1","1","",""
"","html-keyboard-response","105","105296","0.0-105.0","32AT8R96GMVRVMD35O1MO5J1EAFUS0","AK35CJJEYFVYK","36U4VBVNQOZD8NFWZXWF9CIHKRIURB","","null","<img src=""img/food5.png"" style=""width:200px; border:14px solid green;"">","null","","","","","","","","","",""
"","image-keyboard-response","106","105883","0.0-106.0","32AT8R96GMVRVMD35O1MO5J1EAFUS0","AK35CJJEYFVYK","36U4VBVNQOZD8NFWZXWF9CIHKRIURB","","586.0999999940395","img/food1.png","75","586.5999999940395","2","0","2","1","1,0.5,0,1,0.5,0,0.5,0,1","1,0.5,0,1,0.5,0,0.5,0,1","1","",""
"","html-keyboard-response","107","106184","0.0-107.0","32AT8R96GMVRVMD35O1MO5J1EAFUS0","AK35CJJEYFVYK","36U4VBVNQOZD8NFWZXWF9CIHKRIURB","","null","<img src=""img/food1.png"" style=""width:200px;border:14px solid red;"">","null","","","","","","","","","",""
"","image-keyboard-response","108","106661","0.0-108.0","32AT8R96GMVRVMD35O1MO5J1EAFUS0","AK35CJJEYFVYK","36U4VBVNQOZD8NFWZXWF9CIHKRIURB","","476.59999999403954","img/food1.png","75","477","2","0","2","1","1,0.5,0,1,0.5,0,0.5,0,1","1,0.5,0,1,0.5,0,0.5,0,1","1","",""
"","html-keyboard-response","109","106962","0.0-109.0","32AT8R96GMVRVMD35O1MO5J1EAFUS0","AK35CJJEYFVYK","36U4VBVNQOZD8NFWZXWF9CIHKRIURB","","null","<img src=""img/food1.png"" style=""width:200px;border:14px solid red;"">","null","","","","","","","","","",""
"","image-keyboard-response","110","107502","0.0-110.0","32AT8R96GMVRVMD35O1MO5J1EAFUS0","AK35CJJEYFVYK","36U4VBVNQOZD8NFWZXWF9CIHKRIURB","","539.5999999940395","img/food5.png","76","539.9000000059605","3","1","3","1","1,0.5,0,1,0.5,0,0.5,0,1","1,0.5,0,1,0.5,0,0.5,0,1","1","",""
"","html-keyboard-response","111","107803","0.0-111.0","32AT8R96GMVRVMD35O1MO5J1EAFUS0","AK35CJJEYFVYK","36U4VBVNQOZD8NFWZXWF9CIHKRIURB","","null","<img src=""img/food5.png"" style=""width:200px; border:14px solid green;"">","null","","","","","","","","","",""
"","image-keyboard-response","112","109067","0.0-112.0","32AT8R96GMVRVMD35O1MO5J1EAFUS0","AK35CJJEYFVYK","36U4VBVNQOZD8NFWZXWF9CIHKRIURB","","1263.300000011921","img/food2.png","74","1263.7999999821186","1","1","1","1","1,0.5,0,1,0.5,0,0.5,0,1","1,0.5,0,1,0.5,0,0.5,0,1","1","",""
"","html-keyboard-response","113","109368","0.0-113.0","32AT8R96GMVRVMD35O1MO5J1EAFUS0","AK35CJJEYFVYK","36U4VBVNQOZD8NFWZXWF9CIHKRIURB","","null","<img src=""img/food2.png"" style=""width:200px; border:14px solid green;"">","null","","","","","","","","","",""
"","image-keyboard-response","114","109916","0.0-114.0","32AT8R96GMVRVMD35O1MO5J1EAFUS0","AK35CJJEYFVYK","36U4VBVNQOZD8NFWZXWF9CIHKRIURB","","547.6999999880791","img/food1.png","75","548","2","1","2","1","1,0.5,0,1,0.5,0,0.5,0,1","1,0.5,0,1,0.5,0,0.5,0,1","1","",""
"","html-keyboard-response","115","110217","0.0-115.0","32AT8R96GMVRVMD35O1MO5J1EAFUS0","AK35CJJEYFVYK","36U4VBVNQOZD8NFWZXWF9CIHKRIURB","","null","<img src=""img/food1.png"" style=""width:200px; border:14px solid green;"">","null","","","","","","","","","",""
"","image-keyboard-response","116","110577","0.0-116.0","32AT8R96GMVRVMD35O1MO5J1EAFUS0","AK35CJJEYFVYK","36U4VBVNQOZD8NFWZXWF9CIHKRIURB","","359.5","img/food1.png","75","359.90000000596046","2","0","2","1","1,0.5,0,1,0.5,0,0.5,0,1","1,0.5,0,1,0.5,0,0.5,0,1","1","",""
"","html-keyboard-response","117","110878","0.0-117.0","32AT8R96GMVRVMD35O1MO5J1EAFUS0","AK35CJJEYFVYK","36U4VBVNQOZD8NFWZXWF9CIHKRIURB","","null","<img src=""img/food1.png"" style=""width:200px;border:14px solid red;"">","null","","","","","","","","","",""
"","image-keyboard-response","118","111432","0.0-118.0","32AT8R96GMVRVMD35O1MO5J1EAFUS0","AK35CJJEYFVYK","36U4VBVNQOZD8NFWZXWF9CIHKRIURB","","554","img/food5.png","76","554.5","3","1","3","1","1,0.5,0,1,0.5,0,0.5,0,1","1,0.5,0,1,0.5,0,0.5,0,1","1","",""
"","html-keyboard-response","119","111734","0.0-119.0","32AT8R96GMVRVMD35O1MO5J1EAFUS0","AK35CJJEYFVYK","36U4VBVNQOZD8NFWZXWF9CIHKRIURB","","null","<img src=""img/food5.png"" style=""width:200px; border:14px solid green;"">","null","","","","","","","","","",""
"","image-keyboard-response","120","112350","0.0-120.0","32AT8R96GMVRVMD35O1MO5J1EAFUS0","AK35CJJEYFVYK","36U4VBVNQOZD8NFWZXWF9CIHKRIURB","","615.6999999880791","img/food2.png","74","616.0999999940395","1","1","1","1","1,0.5,0,1,0.5,0,0.5,0,1","1,0.5,0,1,0.5,0,0.5,0,1","1","",""
"","html-keyboard-response","121","112651","0.0-121.0","32AT8R96GMVRVMD35O1MO5J1EAFUS0","AK35CJJEYFVYK","36U4VBVNQOZD8NFWZXWF9CIHKRIURB","","null","<img src=""img/food2.png"" style=""width:200px; border:14px solid green;"">","null","","","","","","","","","",""
"","image-keyboard-response","122","113304","0.0-122.0","32AT8R96GMVRVMD35O1MO5J1EAFUS0","AK35CJJEYFVYK","36U4VBVNQOZD8NFWZXWF9CIHKRIURB","","652.4000000059605","img/food5.png","76","652.6999999880791","3","1","3","1","1,0.5,0,1,0.5,0,0.5,0,1","1,0.5,0,1,0.5,0,0.5,0,1","1","",""
"","html-keyboard-response","123","113605","0.0-123.0","32AT8R96GMVRVMD35O1MO5J1EAFUS0","AK35CJJEYFVYK","36U4VBVNQOZD8NFWZXWF9CIHKRIURB","","null","<img src=""img/food5.png"" style=""width:200px; border:14px solid green;"">","null","","","","","","","","","",""
"","image-keyboard-response","124","113942","0.0-124.0","32AT8R96GMVRVMD35O1MO5J1EAFUS0","AK35CJJEYFVYK","36U4VBVNQOZD8NFWZXWF9CIHKRIURB","","336","img/food5.png","76","336.5","3","1","3","1","1,0.5,0,1,0.5,0,0.5,0,1","1,0.5,0,1,0.5,0,0.5,0,1","1","",""
"","html-keyboard-response","125","114243","0.0-125.0","32AT8R96GMVRVMD35O1MO5J1EAFUS0","AK35CJJEYFVYK","36U4VBVNQOZD8NFWZXWF9CIHKRIURB","","null","<img src=""img/food5.png"" style=""width:200px; border:14px solid green;"">","null","","","","","","","","","",""
"","image-keyboard-response","126","114991","0.0-126.0","32AT8R96GMVRVMD35O1MO5J1EAFUS0","AK35CJJEYFVYK","36U4VBVNQOZD8NFWZXWF9CIHKRIURB","","747.7999999821186","img/food2.png","75","748.2000000178814","2","0","1","1","1,0.5,0,1,0.5,0,0.5,0,1","1,0.5,0,1,0.5,0,0.5,0,1","1","",""
"","html-keyboard-response","127","115293","0.0-127.0","32AT8R96GMVRVMD35O1MO5J1EAFUS0","AK35CJJEYFVYK","36U4VBVNQOZD8NFWZXWF9CIHKRIURB","","null","<img src=""img/food2.png"" style=""width:200px;border:14px solid red;"">","null","","","","","","","","","",""
"","image-keyboard-response","128","115372","0.0-128.0","32AT8R96GMVRVMD35O1MO5J1EAFUS0","AK35CJJEYFVYK","36U4VBVNQOZD8NFWZXWF9CIHKRIURB","","78.40000000596046","img/food2.png","74","78.69999998807907","1","1","1","1","1,0.5,0,1,0.5,0,0.5,0,1","1,0.5,0,1,0.5,0,0.5,0,1","1","",""
"","html-keyboard-response","129","115673","0.0-129.0","32AT8R96GMVRVMD35O1MO5J1EAFUS0","AK35CJJEYFVYK","36U4VBVNQOZD8NFWZXWF9CIHKRIURB","","null","<img src=""img/food2.png"" style=""width:200px; border:14px solid green;"">","null","","","","","","","","","",""
"","image-keyboard-response","130","116504","0.0-130.0","32AT8R96GMVRVMD35O1MO5J1EAFUS0","AK35CJJEYFVYK","36U4VBVNQOZD8NFWZXWF9CIHKRIURB","","831","img/food5.png","76","831.2999999821186","3","1","3","1","1,0.5,0,1,0.5,0,0.5,0,1","1,0.5,0,1,0.5,0,0.5,0,1","1","",""
"","html-keyboard-response","131","116805","0.0-131.0","32AT8R96GMVRVMD35O1MO5J1EAFUS0","AK35CJJEYFVYK","36U4VBVNQOZD8NFWZXWF9CIHKRIURB","","null","<img src=""img/food5.png"" style=""width:200px; border:14px solid green;"">","null","","","","","","","","","",""
"","image-keyboard-response","132","117353","0.0-132.0","32AT8R96GMVRVMD35O1MO5J1EAFUS0","AK35CJJEYFVYK","36U4VBVNQOZD8NFWZXWF9CIHKRIURB","","547.6999999880791","img/food5.png","76","548.0999999940395","3","1","3","1","1,0.5,0,1,0.5,0,0.5,0,1","1,0.5,0,1,0.5,0,0.5,0,1","1","",""
"","html-keyboard-response","133","117654","0.0-133.0","32AT8R96GMVRVMD35O1MO5J1EAFUS0","AK35CJJEYFVYK","36U4VBVNQOZD8NFWZXWF9CIHKRIURB","","null","<img src=""img/food5.png"" style=""width:200px; border:14px solid green;"">","null","","","","","","","","","",""
"","image-keyboard-response","134","118218","0.0-134.0","32AT8R96GMVRVMD35O1MO5J1EAFUS0","AK35CJJEYFVYK","36U4VBVNQOZD8NFWZXWF9CIHKRIURB","","563.5999999940395","img/food1.png","75","564","2","0","2","1","1,0.5,0,1,0.5,0,0.5,0,1","1,0.5,0,1,0.5,0,0.5,0,1","1","",""
"","html-keyboard-response","135","118519","0.0-135.0","32AT8R96GMVRVMD35O1MO5J1EAFUS0","AK35CJJEYFVYK","36U4VBVNQOZD8NFWZXWF9CIHKRIURB","","null","<img src=""img/food1.png"" style=""width:200px;border:14px solid red;"">","null","","","","","","","","","",""
"","image-keyboard-response","136","118909","0.0-136.0","32AT8R96GMVRVMD35O1MO5J1EAFUS0","AK35CJJEYFVYK","36U4VBVNQOZD8NFWZXWF9CIHKRIURB","","388.59999999403954","img/food1.png","75","389","2","0","2","1","1,0.5,0,1,0.5,0,0.5,0,1","1,0.5,0,1,0.5,0,0.5,0,1","1","",""
"","html-keyboard-response","137","119221","0.0-137.0","32AT8R96GMVRVMD35O1MO5J1EAFUS0","AK35CJJEYFVYK","36U4VBVNQOZD8NFWZXWF9CIHKRIURB","","null","<img src=""img/food1.png"" style=""width:200px;border:14px solid red;"">","null","","","","","","","","","",""
"","image-keyboard-response","138","119980","0.0-138.0","32AT8R96GMVRVMD35O1MO5J1EAFUS0","AK35CJJEYFVYK","36U4VBVNQOZD8NFWZXWF9CIHKRIURB","","758.3000000119209","img/food2.png","76","758.6999999880791","3","0","1","1","1,0.5,0,1,0.5,0,0.5,0,1","1,0.5,0,1,0.5,0,0.5,0,1","1","",""
"","html-keyboard-response","139","120281","0.0-139.0","32AT8R96GMVRVMD35O1MO5J1EAFUS0","AK35CJJEYFVYK","36U4VBVNQOZD8NFWZXWF9CIHKRIURB","","null","<img src=""img/food2.png"" style=""width:200px;border:14px solid red;"">","null","","","","","","","","","",""
"","image-keyboard-response","140","120531","0.0-140.0","32AT8R96GMVRVMD35O1MO5J1EAFUS0","AK35CJJEYFVYK","36U4VBVNQOZD8NFWZXWF9CIHKRIURB","","249.80000001192093","img/food2.png","76","250","3","0","1","1","1,0.5,0,1,0.5,0,0.5,0,1","1,0.5,0,1,0.5,0,0.5,0,1","1","",""
"","html-keyboard-response","141","120832","0.0-141.0","32AT8R96GMVRVMD35O1MO5J1EAFUS0","AK35CJJEYFVYK","36U4VBVNQOZD8NFWZXWF9CIHKRIURB","","null","<img src=""img/food2.png"" style=""width:200px;border:14px solid red;"">","null","","","","","","","","","",""
"","image-keyboard-response","142","121515","0.0-142.0","32AT8R96GMVRVMD35O1MO5J1EAFUS0","AK35CJJEYFVYK","36U4VBVNQOZD8NFWZXWF9CIHKRIURB","","683.0999999940395","img/food5.png","76","683.4000000059605","3","1","3","1","1,0.5,0,1,0.5,0,0.5,0,1","1,0.5,0,1,0.5,0,0.5,0,1","1","",""
"","html-keyboard-response","143","121816","0.0-143.0","32AT8R96GMVRVMD35O1MO5J1EAFUS0","AK35CJJEYFVYK","36U4VBVNQOZD8NFWZXWF9CIHKRIURB","","null","<img src=""img/food5.png"" style=""width:200px; border:14px solid green;"">","null","","","","","","","","","",""
"","image-keyboard-response","144","122390","0.0-144.0","32AT8R96GMVRVMD35O1MO5J1EAFUS0","AK35CJJEYFVYK","36U4VBVNQOZD8NFWZXWF9CIHKRIURB","","573.6999999880791","img/food2.png","74","574.0999999940395","1","1","1","1","1,0.5,0,1,0.5,0,0.5,0,1","1,0.5,0,1,0.5,0,0.5,0,1","1","",""
"","html-keyboard-response","145","122698","0.0-145.0","32AT8R96GMVRVMD35O1MO5J1EAFUS0","AK35CJJEYFVYK","36U4VBVNQOZD8NFWZXWF9CIHKRIURB","","null","<img src=""img/food2.png"" style=""width:200px; border:14px solid green;"">","null","","","","","","","","","",""
"","image-keyboard-response","146","123259","0.0-146.0","32AT8R96GMVRVMD35O1MO5J1EAFUS0","AK35CJJEYFVYK","36U4VBVNQOZD8NFWZXWF9CIHKRIURB","","561","img/food5.png","76","561.4000000059605","3","1","3","1","1,0.5,0,1,0.5,0,0.5,0,1","1,0.5,0,1,0.5,0,0.5,0,1","1","",""
"","html-keyboard-response","147","123560","0.0-147.0","32AT8R96GMVRVMD35O1MO5J1EAFUS0","AK35CJJEYFVYK","36U4VBVNQOZD8NFWZXWF9CIHKRIURB","","null","<img src=""img/food5.png"" style=""width:200px; border:14px solid green;"">","null","","","","","","","","","",""
"","image-keyboard-response","148","123883","0.0-148.0","32AT8R96GMVRVMD35O1MO5J1EAFUS0","AK35CJJEYFVYK","36U4VBVNQOZD8NFWZXWF9CIHKRIURB","","322.40000000596046","img/food5.png","76","322.7999999821186","3","1","3","1","1,0.5,0,1,0.5,0,0.5,0,1","1,0.5,0,1,0.5,0,0.5,0,1","1","",""
"","html-keyboard-response","149","124184","0.0-149.0","32AT8R96GMVRVMD35O1MO5J1EAFUS0","AK35CJJEYFVYK","36U4VBVNQOZD8NFWZXWF9CIHKRIURB","","null","<img src=""img/food5.png"" style=""width:200px; border:14px solid green;"">","null","","","","","","","","","",""
"","image-keyboard-response","150","124781","0.0-150.0","32AT8R96GMVRVMD35O1MO5J1EAFUS0","AK35CJJEYFVYK","36U4VBVNQOZD8NFWZXWF9CIHKRIURB","","597","img/food2.png","74","597.5","1","1","1","1","1,0.5,0,1,0.5,0,0.5,0,1","1,0.5,0,1,0.5,0,0.5,0,1","1","",""
"","html-keyboard-response","151","125082","0.0-151.0","32AT8R96GMVRVMD35O1MO5J1EAFUS0","AK35CJJEYFVYK","36U4VBVNQOZD8NFWZXWF9CIHKRIURB","","null","<img src=""img/food2.png"" style=""width:200px; border:14px solid green;"">","null","","","","","","","","","",""
"","image-keyboard-response","152","125399","0.0-152.0","32AT8R96GMVRVMD35O1MO5J1EAFUS0","AK35CJJEYFVYK","36U4VBVNQOZD8NFWZXWF9CIHKRIURB","","316.59999999403954","img/food2.png","74","317.09999999403954","1","1","1","1","1,0.5,0,1,0.5,0,0.5,0,1","1,0.5,0,1,0.5,0,0.5,0,1","1","",""
"","html-keyboard-response","153","125700","0.0-153.0","32AT8R96GMVRVMD35O1MO5J1EAFUS0","AK35CJJEYFVYK","36U4VBVNQOZD8NFWZXWF9CIHKRIURB","","null","<img src=""img/food2.png"" style=""width:200px; border:14px solid green;"">","null","","","","","","","","","",""
"","image-keyboard-response","154","126028","0.0-154.0","32AT8R96GMVRVMD35O1MO5J1EAFUS0","AK35CJJEYFVYK","36U4VBVNQOZD8NFWZXWF9CIHKRIURB","","327.80000001192093","img/food2.png","74","328.19999998807907","1","1","1","1","1,0.5,0,1,0.5,0,0.5,0,1","1,0.5,0,1,0.5,0,0.5,0,1","1","",""
"","html-keyboard-response","155","126329","0.0-155.0","32AT8R96GMVRVMD35O1MO5J1EAFUS0","AK35CJJEYFVYK","36U4VBVNQOZD8NFWZXWF9CIHKRIURB","","null","<img src=""img/food2.png"" style=""width:200px; border:14px solid green;"">","null","","","","","","","","","",""
"","image-keyboard-response","156","126849","0.0-156.0","32AT8R96GMVRVMD35O1MO5J1EAFUS0","AK35CJJEYFVYK","36U4VBVNQOZD8NFWZXWF9CIHKRIURB","","519.6999999880791","img/food1.png","75","520","2","0","2","1","1,0.5,0,1,0.5,0,0.5,0,1","1,0.5,0,1,0.5,0,0.5,0,1","1","",""
"","html-keyboard-response","157","127150","0.0-157.0","32AT8R96GMVRVMD35O1MO5J1EAFUS0","AK35CJJEYFVYK","36U4VBVNQOZD8NFWZXWF9CIHKRIURB","","null","<img src=""img/food1.png"" style=""width:200px;border:14px solid red;"">","null","","","","","","","","","",""
"","image-keyboard-response","158","127339","0.0-158.0","32AT8R96GMVRVMD35O1MO5J1EAFUS0","AK35CJJEYFVYK","36U4VBVNQOZD8NFWZXWF9CIHKRIURB","","188.59999999403954","img/food1.png","75","188.90000000596046","2","1","2","1","1,0.5,0,1,0.5,0,0.5,0,1","1,0.5,0,1,0.5,0,0.5,0,1","1","",""
"","html-keyboard-response","159","127641","0.0-159.0","32AT8R96GMVRVMD35O1MO5J1EAFUS0","AK35CJJEYFVYK","36U4VBVNQOZD8NFWZXWF9CIHKRIURB","","null","<img src=""img/food1.png"" style=""width:200px; border:14px solid green;"">","null","","","","","","","","","",""
"","image-keyboard-response","160","128016","0.0-160.0","32AT8R96GMVRVMD35O1MO5J1EAFUS0","AK35CJJEYFVYK","36U4VBVNQOZD8NFWZXWF9CIHKRIURB","","374.59999999403954","img/food1.png","75","374.90000000596046","2","1","2","1","1,0.5,0,1,0.5,0,0.5,0,1","1,0.5,0,1,0.5,0,0.5,0,1","1","",""
"","html-keyboard-response","161","128317","0.0-161.0","32AT8R96GMVRVMD35O1MO5J1EAFUS0","AK35CJJEYFVYK","36U4VBVNQOZD8NFWZXWF9CIHKRIURB","","null","<img src=""img/food1.png"" style=""width:200px; border:14px solid green;"">","null","","","","","","","","","",""
"","image-keyboard-response","162","128589","0.0-162.0","32AT8R96GMVRVMD35O1MO5J1EAFUS0","AK35CJJEYFVYK","36U4VBVNQOZD8NFWZXWF9CIHKRIURB","","271.59999999403954","img/food1.png","75","271.80000001192093","2","1","2","1","1,0.5,0,1,0.5,0,0.5,0,1","1,0.5,0,1,0.5,0,0.5,0,1","1","",""
"","html-keyboard-response","163","128890","0.0-163.0","32AT8R96GMVRVMD35O1MO5J1EAFUS0","AK35CJJEYFVYK","36U4VBVNQOZD8NFWZXWF9CIHKRIURB","","null","<img src=""img/food1.png"" style=""width:200px; border:14px solid green;"">","null","","","","","","","","","",""
"","image-keyboard-response","164","129411","0.0-164.0","32AT8R96GMVRVMD35O1MO5J1EAFUS0","AK35CJJEYFVYK","36U4VBVNQOZD8NFWZXWF9CIHKRIURB","","520.9000000059605","img/food5.png","76","521.1999999880791","3","1","3","1","1,0.5,0,1,0.5,0,0.5,0,1","1,0.5,0,1,0.5,0,0.5,0,1","1","",""
"","html-keyboard-response","165","129712","0.0-165.0","32AT8R96GMVRVMD35O1MO5J1EAFUS0","AK35CJJEYFVYK","36U4VBVNQOZD8NFWZXWF9CIHKRIURB","","null","<img src=""img/food5.png"" style=""width:200px; border:14px solid green;"">","null","","","","","","","","","",""
"","image-keyboard-response","166","129905","0.0-166.0","32AT8R96GMVRVMD35O1MO5J1EAFUS0","AK35CJJEYFVYK","36U4VBVNQOZD8NFWZXWF9CIHKRIURB","","192.40000000596046","img/food1.png","76","192.69999998807907","3","0","2","1","1,0.5,0,1,0.5,0,0.5,0,1","1,0.5,0,1,0.5,0,0.5,0,1","1","",""
"","html-keyboard-response","167","130207","0.0-167.0","32AT8R96GMVRVMD35O1MO5J1EAFUS0","AK35CJJEYFVYK","36U4VBVNQOZD8NFWZXWF9CIHKRIURB","","null","<img src=""img/food1.png"" style=""width:200px;border:14px solid red;"">","null","","","","","","","","","",""
"","image-keyboard-response","168","130495","0.0-168.0","32AT8R96GMVRVMD35O1MO5J1EAFUS0","AK35CJJEYFVYK","36U4VBVNQOZD8NFWZXWF9CIHKRIURB","","287.59999999403954","img/food1.png","75","287.89999997615814","2","0","2","1","1,0.5,0,1,0.5,0,0.5,0,1","1,0.5,0,1,0.5,0,0.5,0,1","1","",""
"","html-keyboard-response","169","130797","0.0-169.0","32AT8R96GMVRVMD35O1MO5J1EAFUS0","AK35CJJEYFVYK","36U4VBVNQOZD8NFWZXWF9CIHKRIURB","","null","<img src=""img/food1.png"" style=""width:200px;border:14px solid red;"">","null","","","","","","","","","",""
"","image-keyboard-response","170","131113","0.0-170.0","32AT8R96GMVRVMD35O1MO5J1EAFUS0","AK35CJJEYFVYK","36U4VBVNQOZD8NFWZXWF9CIHKRIURB","","315.69999998807907","img/food1.png","75","315.90000000596046","2","1","2","1","1,0.5,0,1,0.5,0,0.5,0,1","1,0.5,0,1,0.5,0,0.5,0,1","1","",""
"","html-keyboard-response","171","131414","0.0-171.0","32AT8R96GMVRVMD35O1MO5J1EAFUS0","AK35CJJEYFVYK","36U4VBVNQOZD8NFWZXWF9CIHKRIURB","","null","<img src=""img/food1.png"" style=""width:200px; border:14px solid green;"">","null","","","","","","","","","",""
"","image-keyboard-response","172","132405","0.0-172.0","32AT8R96GMVRVMD35O1MO5J1EAFUS0","AK35CJJEYFVYK","36U4VBVNQOZD8NFWZXWF9CIHKRIURB","","990.5999999940395","img/food5.png","76","990.6999999880791","3","1","3","1","1,0.5,0,1,0.5,0,0.5,0,1","1,0.5,0,1,0.5,0,0.5,0,1","1","",""
"","html-keyboard-response","173","132706","0.0-173.0","32AT8R96GMVRVMD35O1MO5J1EAFUS0","AK35CJJEYFVYK","36U4VBVNQOZD8NFWZXWF9CIHKRIURB","","null","<img src=""img/food5.png"" style=""width:200px; border:14px solid green;"">","null","","","","","","","","","",""
"","image-keyboard-response","174","133236","0.0-174.0","32AT8R96GMVRVMD35O1MO5J1EAFUS0","AK35CJJEYFVYK","36U4VBVNQOZD8NFWZXWF9CIHKRIURB","","529.5","img/food2.png","74","529.6999999880791","1","1","1","1","1,0.5,0,1,0.5,0,0.5,0,1","1,0.5,0,1,0.5,0,0.5,0,1","1","",""
"","html-keyboard-response","175","133537","0.0-175.0","32AT8R96GMVRVMD35O1MO5J1EAFUS0","AK35CJJEYFVYK","36U4VBVNQOZD8NFWZXWF9CIHKRIURB","","null","<img src=""img/food2.png"" style=""width:200px; border:14px solid green;"">","null","","","","","","","","","",""
"","image-keyboard-response","176","133836","0.0-176.0","32AT8R96GMVRVMD35O1MO5J1EAFUS0","AK35CJJEYFVYK","36U4VBVNQOZD8NFWZXWF9CIHKRIURB","","298.69999998807907","img/food2.png","74","299","1","1","1","1","1,0.5,0,1,0.5,0,0.5,0,1","1,0.5,0,1,0.5,0,0.5,0,1","1","",""
"","html-keyboard-response","177","134137","0.0-177.0","32AT8R96GMVRVMD35O1MO5J1EAFUS0","AK35CJJEYFVYK","36U4VBVNQOZD8NFWZXWF9CIHKRIURB","","null","<img src=""img/food2.png"" style=""width:200px; border:14px solid green;"">","null","","","","","","","","","",""
"","image-keyboard-response","178","135207","0.0-178.0","32AT8R96GMVRVMD35O1MO5J1EAFUS0","AK35CJJEYFVYK","36U4VBVNQOZD8NFWZXWF9CIHKRIURB","","1069.5999999940395","img/food5.png","76","1070","3","1","3","1","1,0.5,0,1,0.5,0,0.5,0,1","1,0.5,0,1,0.5,0,0.5,0,1","1","",""
"","html-keyboard-response","179","135508","0.0-179.0","32AT8R96GMVRVMD35O1MO5J1EAFUS0","AK35CJJEYFVYK","36U4VBVNQOZD8NFWZXWF9CIHKRIURB","","null","<img src=""img/food5.png"" style=""width:200px; border:14px solid green;"">","null","","","","","","","","","",""
"","image-keyboard-response","180","136180","0.0-180.0","32AT8R96GMVRVMD35O1MO5J1EAFUS0","AK35CJJEYFVYK","36U4VBVNQOZD8NFWZXWF9CIHKRIURB","","671.7999999821186","img/food2.png","74","672.2000000178814","1","1","1","1","1,0.5,0,1,0.5,0,0.5,0,1","1,0.5,0,1,0.5,0,0.5,0,1","1","",""
"","html-keyboard-response","181","136482","0.0-181.0","32AT8R96GMVRVMD35O1MO5J1EAFUS0","AK35CJJEYFVYK","36U4VBVNQOZD8NFWZXWF9CIHKRIURB","","null","<img src=""img/food2.png"" style=""width:200px; border:14px solid green;"">","null","","","","","","","","","",""
"","html-keyboard-response","182","138499","0.0-182.0","32AT8R96GMVRVMD35O1MO5J1EAFUS0","AK35CJJEYFVYK","36U4VBVNQOZD8NFWZXWF9CIHKRIURB","","","","","","","","","","","","","",""
"","instructions","183","144862","0.0-183.0","32AT8R96GMVRVMD35O1MO5J1EAFUS0","AK35CJJEYFVYK","36U4VBVNQOZD8NFWZXWF9CIHKRIURB","[{""page_index"":0,""viewing_time"":5533.5999999940395},{""page_index"":1,""viewing_time"":828.9000000059605}]","6362.699999988079","","","","","","","","","","","",""
"","image-keyboard-response","184","145863","0.0-184.0","32AT8R96GMVRVMD35O1MO5J1EAFUS0","AK35CJJEYFVYK","36U4VBVNQOZD8NFWZXWF9CIHKRIURB","","","img/food6.png","","1001.5","-1","0","2","2","1,0.5,0,1,0.5,0,0.5,0,1","0.5,0,1,0.5,0,1,0,1,0.5","2","true",""
"","html-keyboard-response","185","146164","0.0-185.0","32AT8R96GMVRVMD35O1MO5J1EAFUS0","AK35CJJEYFVYK","36U4VBVNQOZD8NFWZXWF9CIHKRIURB","","null","<img src=""img/food6.png"" style=""width:200px;border:14px solid red;"">","null","","","","","","","","","",""
"","html-keyboard-response","186","150841","0.0-186.0-0.0","32AT8R96GMVRVMD35O1MO5J1EAFUS0","AK35CJJEYFVYK","36U4VBVNQOZD8NFWZXWF9CIHKRIURB","","","","","","","","","","","","","",""
"","image-keyboard-response","187","151130","0.0-187.0","32AT8R96GMVRVMD35O1MO5J1EAFUS0","AK35CJJEYFVYK","36U4VBVNQOZD8NFWZXWF9CIHKRIURB","","288.5","img/food3.png","76","289","3","1","3","2","1,0.5,0,1,0.5,0,0.5,0,1","0.5,0,1,0.5,0,1,0,1,0.5","2","false",""
"","html-keyboard-response","188","151431","0.0-188.0","32AT8R96GMVRVMD35O1MO5J1EAFUS0","AK35CJJEYFVYK","36U4VBVNQOZD8NFWZXWF9CIHKRIURB","","null","<img src=""img/food3.png"" style=""width:200px; border:14px solid green;"">","null","","","","","","","","","",""
"","image-keyboard-response","189","151816","0.0-190.0","32AT8R96GMVRVMD35O1MO5J1EAFUS0","AK35CJJEYFVYK","36U4VBVNQOZD8NFWZXWF9CIHKRIURB","","384.40000000596046","img/food6.png","75","384.69999998807907","2","0","2","2","1,0.5,0,1,0.5,0,0.5,0,1","0.5,0,1,0.5,0,1,0,1,0.5","2","false",""
"","html-keyboard-response","190","152117","0.0-191.0","32AT8R96GMVRVMD35O1MO5J1EAFUS0","AK35CJJEYFVYK","36U4VBVNQOZD8NFWZXWF9CIHKRIURB","","null","<img src=""img/food6.png"" style=""width:200px;border:14px solid red;"">","null","","","","","","","","","",""
"","image-keyboard-response","191","152567","0.0-193.0","32AT8R96GMVRVMD35O1MO5J1EAFUS0","AK35CJJEYFVYK","36U4VBVNQOZD8NFWZXWF9CIHKRIURB","","449.5","img/food6.png","74","449.90000000596046","1","1","2","2","1,0.5,0,1,0.5,0,0.5,0,1","0.5,0,1,0.5,0,1,0,1,0.5","2","false",""
"","html-keyboard-response","192","152868","0.0-194.0","32AT8R96GMVRVMD35O1MO5J1EAFUS0","AK35CJJEYFVYK","36U4VBVNQOZD8NFWZXWF9CIHKRIURB","","null","<img src=""img/food6.png"" style=""width:200px; border:14px solid green;"">","null","","","","","","","","","",""
"","image-keyboard-response","193","153221","0.0-196.0","32AT8R96GMVRVMD35O1MO5J1EAFUS0","AK35CJJEYFVYK","36U4VBVNQOZD8NFWZXWF9CIHKRIURB","","352.19999998807907","img/food6.png","74","352.5","1","0","2","2","1,0.5,0,1,0.5,0,0.5,0,1","0.5,0,1,0.5,0,1,0,1,0.5","2","false",""
"","html-keyboard-response","194","153523","0.0-197.0","32AT8R96GMVRVMD35O1MO5J1EAFUS0","AK35CJJEYFVYK","36U4VBVNQOZD8NFWZXWF9CIHKRIURB","","null","<img src=""img/food6.png"" style=""width:200px;border:14px solid red;"">","null","","","","","","","","","",""
"","image-keyboard-response","195","153912","0.0-199.0","32AT8R96GMVRVMD35O1MO5J1EAFUS0","AK35CJJEYFVYK","36U4VBVNQOZD8NFWZXWF9CIHKRIURB","","388.5","img/food3.png","76","388.90000000596046","3","1","3","2","1,0.5,0,1,0.5,0,0.5,0,1","0.5,0,1,0.5,0,1,0,1,0.5","2","false",""
"","html-keyboard-response","196","154213","0.0-200.0","32AT8R96GMVRVMD35O1MO5J1EAFUS0","AK35CJJEYFVYK","36U4VBVNQOZD8NFWZXWF9CIHKRIURB","","null","<img src=""img/food3.png"" style=""width:200px; border:14px solid green;"">","null","","","","","","","","","",""
"","image-keyboard-response","197","154586","0.0-202.0","32AT8R96GMVRVMD35O1MO5J1EAFUS0","AK35CJJEYFVYK","36U4VBVNQOZD8NFWZXWF9CIHKRIURB","","372.2999999821186","img/food3.png","76","372.80000001192093","3","0","3","2","1,0.5,0,1,0.5,0,0.5,0,1","0.5,0,1,0.5,0,1,0,1,0.5","2","false",""
"","html-keyboard-response","198","154887","0.0-203.0","32AT8R96GMVRVMD35O1MO5J1EAFUS0","AK35CJJEYFVYK","36U4VBVNQOZD8NFWZXWF9CIHKRIURB","","null","<img src=""img/food3.png"" style=""width:200px;border:14px solid red;"">","null","","","","","","","","","",""
"","image-keyboard-response","199","155221","0.0-205.0","32AT8R96GMVRVMD35O1MO5J1EAFUS0","AK35CJJEYFVYK","36U4VBVNQOZD8NFWZXWF9CIHKRIURB","","333.5","img/food4.png","75","333.80000001192093","2","0","1","2","1,0.5,0,1,0.5,0,0.5,0,1","0.5,0,1,0.5,0,1,0,1,0.5","2","false",""
"","html-keyboard-response","200","155522","0.0-206.0","32AT8R96GMVRVMD35O1MO5J1EAFUS0","AK35CJJEYFVYK","36U4VBVNQOZD8NFWZXWF9CIHKRIURB","","null","<img src=""img/food4.png"" style=""width:200px;border:14px solid red;"">","null","","","","","","","","","",""
"","image-keyboard-response","201","155850","0.0-208.0","32AT8R96GMVRVMD35O1MO5J1EAFUS0","AK35CJJEYFVYK","36U4VBVNQOZD8NFWZXWF9CIHKRIURB","","327.40000000596046","img/food4.png","75","327.7999999821186","2","0","1","2","1,0.5,0,1,0.5,0,0.5,0,1","0.5,0,1,0.5,0,1,0,1,0.5","2","false",""
"","html-keyboard-response","202","156150","0.0-209.0","32AT8R96GMVRVMD35O1MO5J1EAFUS0","AK35CJJEYFVYK","36U4VBVNQOZD8NFWZXWF9CIHKRIURB","","null","<img src=""img/food4.png"" style=""width:200px;border:14px solid red;"">","null","","","","","","","","","",""
"","image-keyboard-response","203","156450","0.0-211.0","32AT8R96GMVRVMD35O1MO5J1EAFUS0","AK35CJJEYFVYK","36U4VBVNQOZD8NFWZXWF9CIHKRIURB","","298.80000001192093","img/food4.png","75","299.2999999821186","2","0","1","2","1,0.5,0,1,0.5,0,0.5,0,1","0.5,0,1,0.5,0,1,0,1,0.5","2","false",""
"","html-keyboard-response","204","156752","0.0-212.0","32AT8R96GMVRVMD35O1MO5J1EAFUS0","AK35CJJEYFVYK","36U4VBVNQOZD8NFWZXWF9CIHKRIURB","","null","<img src=""img/food4.png"" style=""width:200px;border:14px solid red;"">","null","","","","","","","","","",""
"","image-keyboard-response","205","157108","0.0-214.0","32AT8R96GMVRVMD35O1MO5J1EAFUS0","AK35CJJEYFVYK","36U4VBVNQOZD8NFWZXWF9CIHKRIURB","","355.59999999403954","img/food3.png","75","355.90000000596046","2","1","3","2","1,0.5,0,1,0.5,0,0.5,0,1","0.5,0,1,0.5,0,1,0,1,0.5","2","false",""
"","html-keyboard-response","206","157409","0.0-215.0","32AT8R96GMVRVMD35O1MO5J1EAFUS0","AK35CJJEYFVYK","36U4VBVNQOZD8NFWZXWF9CIHKRIURB","","null","<img src=""img/food3.png"" style=""width:200px; border:14px solid green;"">","null","","","","","","","","","",""
"","image-keyboard-response","207","157779","0.0-217.0","32AT8R96GMVRVMD35O1MO5J1EAFUS0","AK35CJJEYFVYK","36U4VBVNQOZD8NFWZXWF9CIHKRIURB","","369","img/food6.png","75","369.40000000596046","2","0","2","2","1,0.5,0,1,0.5,0,0.5,0,1","0.5,0,1,0.5,0,1,0,1,0.5","2","false",""
"","html-keyboard-response","208","158080","0.0-218.0","32AT8R96GMVRVMD35O1MO5J1EAFUS0","AK35CJJEYFVYK","36U4VBVNQOZD8NFWZXWF9CIHKRIURB","","null","<img src=""img/food6.png"" style=""width:200px;border:14px solid red;"">","null","","","","","","","","","",""
"","image-keyboard-response","209","158431","0.0-220.0","32AT8R96GMVRVMD35O1MO5J1EAFUS0","AK35CJJEYFVYK","36U4VBVNQOZD8NFWZXWF9CIHKRIURB","","350.2000000178814","img/food4.png","74","350.59999999403954","1","1","1","2","1,0.5,0,1,0.5,0,0.5,0,1","0.5,0,1,0.5,0,1,0,1,0.5","2","false",""
"","html-keyboard-response","210","158736","0.0-221.0","32AT8R96GMVRVMD35O1MO5J1EAFUS0","AK35CJJEYFVYK","36U4VBVNQOZD8NFWZXWF9CIHKRIURB","","null","<img src=""img/food4.png"" style=""width:200px; border:14px solid green;"">","null","","","","","","","","","",""
"","image-keyboard-response","211","159165","0.0-223.0","32AT8R96GMVRVMD35O1MO5J1EAFUS0","AK35CJJEYFVYK","36U4VBVNQOZD8NFWZXWF9CIHKRIURB","","428.40000000596046","img/food3.png","74","428.7999999821186","1","0","3","2","1,0.5,0,1,0.5,0,0.5,0,1","0.5,0,1,0.5,0,1,0,1,0.5","2","false",""
"","html-keyboard-response","212","159466","0.0-224.0","32AT8R96GMVRVMD35O1MO5J1EAFUS0","AK35CJJEYFVYK","36U4VBVNQOZD8NFWZXWF9CIHKRIURB","","null","<img src=""img/food3.png"" style=""width:200px;border:14px solid red;"">","null","","","","","","","","","",""
"","image-keyboard-response","213","159942","0.0-226.0","32AT8R96GMVRVMD35O1MO5J1EAFUS0","AK35CJJEYFVYK","36U4VBVNQOZD8NFWZXWF9CIHKRIURB","","475.30000001192093","img/food6.png","76","475.59999999403954","3","1","2","2","1,0.5,0,1,0.5,0,0.5,0,1","0.5,0,1,0.5,0,1,0,1,0.5","2","false",""
"","html-keyboard-response","214","160243","0.0-227.0","32AT8R96GMVRVMD35O1MO5J1EAFUS0","AK35CJJEYFVYK","36U4VBVNQOZD8NFWZXWF9CIHKRIURB","","null","<img src=""img/food6.png"" style=""width:200px; border:14px solid green;"">","null","","","","","","","","","",""
"","image-keyboard-response","215","160584","0.0-229.0","32AT8R96GMVRVMD35O1MO5J1EAFUS0","AK35CJJEYFVYK","36U4VBVNQOZD8NFWZXWF9CIHKRIURB","","340.59999999403954","img/food6.png","76","340.90000000596046","3","1","2","2","1,0.5,0,1,0.5,0,0.5,0,1","0.5,0,1,0.5,0,1,0,1,0.5","2","false",""
"","html-keyboard-response","216","160886","0.0-230.0","32AT8R96GMVRVMD35O1MO5J1EAFUS0","AK35CJJEYFVYK","36U4VBVNQOZD8NFWZXWF9CIHKRIURB","","null","<img src=""img/food6.png"" style=""width:200px; border:14px solid green;"">","null","","","","","","","","","",""
"","image-keyboard-response","217","161222","0.0-232.0","32AT8R96GMVRVMD35O1MO5J1EAFUS0","AK35CJJEYFVYK","36U4VBVNQOZD8NFWZXWF9CIHKRIURB","","335.5","img/food4.png","74","335.80000001192093","1","1","1","2","1,0.5,0,1,0.5,0,0.5,0,1","0.5,0,1,0.5,0,1,0,1,0.5","2","false",""
"","html-keyboard-response","218","161523","0.0-233.0","32AT8R96GMVRVMD35O1MO5J1EAFUS0","AK35CJJEYFVYK","36U4VBVNQOZD8NFWZXWF9CIHKRIURB","","null","<img src=""img/food4.png"" style=""width:200px; border:14px solid green;"">","null","","","","","","","","","",""
"","image-keyboard-response","219","161936","0.0-235.0","32AT8R96GMVRVMD35O1MO5J1EAFUS0","AK35CJJEYFVYK","36U4VBVNQOZD8NFWZXWF9CIHKRIURB","","412.40000000596046","img/food3.png","76","412.90000000596046","3","0","3","2","1,0.5,0,1,0.5,0,0.5,0,1","0.5,0,1,0.5,0,1,0,1,0.5","2","false",""
"","html-keyboard-response","220","162237","0.0-236.0","32AT8R96GMVRVMD35O1MO5J1EAFUS0","AK35CJJEYFVYK","36U4VBVNQOZD8NFWZXWF9CIHKRIURB","","null","<img src=""img/food3.png"" style=""width:200px;border:14px solid red;"">","null","","","","","","","","","",""
"","image-keyboard-response","221","163067","0.0-238.0","32AT8R96GMVRVMD35O1MO5J1EAFUS0","AK35CJJEYFVYK","36U4VBVNQOZD8NFWZXWF9CIHKRIURB","","829.7000000178814","img/food6.png","75","829.9000000059605","2","0","2","2","1,0.5,0,1,0.5,0,0.5,0,1","0.5,0,1,0.5,0,1,0,1,0.5","2","false",""
"","html-keyboard-response","222","163367","0.0-239.0","32AT8R96GMVRVMD35O1MO5J1EAFUS0","AK35CJJEYFVYK","36U4VBVNQOZD8NFWZXWF9CIHKRIURB","","null","<img src=""img/food6.png"" style=""width:200px;border:14px solid red;"">","null","","","","","","","","","",""
"","image-keyboard-response","223","163603","0.0-241.0","32AT8R96GMVRVMD35O1MO5J1EAFUS0","AK35CJJEYFVYK","36U4VBVNQOZD8NFWZXWF9CIHKRIURB","","235","img/food4.png","74","235.5","1","0","1","2","1,0.5,0,1,0.5,0,0.5,0,1","0.5,0,1,0.5,0,1,0,1,0.5","2","false",""
"","html-keyboard-response","224","163904","0.0-242.0","32AT8R96GMVRVMD35O1MO5J1EAFUS0","AK35CJJEYFVYK","36U4VBVNQOZD8NFWZXWF9CIHKRIURB","","null","<img src=""img/food4.png"" style=""width:200px;border:14px solid red;"">","null","","","","","","","","","",""
"","image-keyboard-response","225","164149","0.0-244.0","32AT8R96GMVRVMD35O1MO5J1EAFUS0","AK35CJJEYFVYK","36U4VBVNQOZD8NFWZXWF9CIHKRIURB","","244.5","img/food6.png","74","245.09999999403954","1","1","2","2","1,0.5,0,1,0.5,0,0.5,0,1","0.5,0,1,0.5,0,1,0,1,0.5","2","false",""
"","html-keyboard-response","226","164451","0.0-245.0","32AT8R96GMVRVMD35O1MO5J1EAFUS0","AK35CJJEYFVYK","36U4VBVNQOZD8NFWZXWF9CIHKRIURB","","null","<img src=""img/food6.png"" style=""width:200px; border:14px solid green;"">","null","","","","","","","","","",""
"","image-keyboard-response","227","164699","0.0-247.0","32AT8R96GMVRVMD35O1MO5J1EAFUS0","AK35CJJEYFVYK","36U4VBVNQOZD8NFWZXWF9CIHKRIURB","","247.59999999403954","img/food3.png","74","248","1","0","3","2","1,0.5,0,1,0.5,0,0.5,0,1","0.5,0,1,0.5,0,1,0,1,0.5","2","false",""
"","html-keyboard-response","228","165000","0.0-248.0","32AT8R96GMVRVMD35O1MO5J1EAFUS0","AK35CJJEYFVYK","36U4VBVNQOZD8NFWZXWF9CIHKRIURB","","null","<img src=""img/food3.png"" style=""width:200px;border:14px solid red;"">","null","","","","","","","","","",""
"","image-keyboard-response","229","165285","0.0-250.0","32AT8R96GMVRVMD35O1MO5J1EAFUS0","AK35CJJEYFVYK","36U4VBVNQOZD8NFWZXWF9CIHKRIURB","","284.5","img/food3.png","76","285","3","1","3","2","1,0.5,0,1,0.5,0,0.5,0,1","0.5,0,1,0.5,0,1,0,1,0.5","2","false",""
"","html-keyboard-response","230","165586","0.0-251.0","32AT8R96GMVRVMD35O1MO5J1EAFUS0","AK35CJJEYFVYK","36U4VBVNQOZD8NFWZXWF9CIHKRIURB","","null","<img src=""img/food3.png"" style=""width:200px; border:14px solid green;"">","null","","","","","","","","","",""
"","image-keyboard-response","231","165926","0.0-253.0","32AT8R96GMVRVMD35O1MO5J1EAFUS0","AK35CJJEYFVYK","36U4VBVNQOZD8NFWZXWF9CIHKRIURB","","339.2000000178814","img/food4.png","76","339.69999998807907","3","1","1","2","1,0.5,0,1,0.5,0,0.5,0,1","0.5,0,1,0.5,0,1,0,1,0.5","2","false",""
"","html-keyboard-response","232","166226","0.0-254.0","32AT8R96GMVRVMD35O1MO5J1EAFUS0","AK35CJJEYFVYK","36U4VBVNQOZD8NFWZXWF9CIHKRIURB","","null","<img src=""img/food4.png"" style=""width:200px; border:14px solid green;"">","null","","","","","","","","","",""
"","image-keyboard-response","233","166662","0.0-256.0","32AT8R96GMVRVMD35O1MO5J1EAFUS0","AK35CJJEYFVYK","36U4VBVNQOZD8NFWZXWF9CIHKRIURB","","435.19999998807907","img/food3.png","75","435.5","2","1","3","2","1,0.5,0,1,0.5,0,0.5,0,1","0.5,0,1,0.5,0,1,0,1,0.5","2","false",""
"","html-keyboard-response","234","166963","0.0-257.0","32AT8R96GMVRVMD35O1MO5J1EAFUS0","AK35CJJEYFVYK","36U4VBVNQOZD8NFWZXWF9CIHKRIURB","","null","<img src=""img/food3.png"" style=""width:200px; border:14px solid green;"">","null","","","","","","","","","",""
"","image-keyboard-response","235","167302","0.0-259.0","32AT8R96GMVRVMD35O1MO5J1EAFUS0","AK35CJJEYFVYK","36U4VBVNQOZD8NFWZXWF9CIHKRIURB","","338.30000001192093","img/food6.png","76","338.69999998807907","3","1","2","2","1,0.5,0,1,0.5,0,0.5,0,1","0.5,0,1,0.5,0,1,0,1,0.5","2","false",""
"","html-keyboard-response","236","167603","0.0-260.0","32AT8R96GMVRVMD35O1MO5J1EAFUS0","AK35CJJEYFVYK","36U4VBVNQOZD8NFWZXWF9CIHKRIURB","","null","<img src=""img/food6.png"" style=""width:200px; border:14px solid green;"">","null","","","","","","","","","",""
"","image-keyboard-response","237","167899","0.0-262.0","32AT8R96GMVRVMD35O1MO5J1EAFUS0","AK35CJJEYFVYK","36U4VBVNQOZD8NFWZXWF9CIHKRIURB","","295.5","img/food6.png","76","296","3","1","2","2","1,0.5,0,1,0.5,0,0.5,0,1","0.5,0,1,0.5,0,1,0,1,0.5","2","false",""
"","html-keyboard-response","238","168200","0.0-263.0","32AT8R96GMVRVMD35O1MO5J1EAFUS0","AK35CJJEYFVYK","36U4VBVNQOZD8NFWZXWF9CIHKRIURB","","null","<img src=""img/food6.png"" style=""width:200px; border:14px solid green;"">","null","","","","","","","","","",""
"","image-keyboard-response","239","168590","0.0-265.0","32AT8R96GMVRVMD35O1MO5J1EAFUS0","AK35CJJEYFVYK","36U4VBVNQOZD8NFWZXWF9CIHKRIURB","","389.5","img/food4.png","74","389.90000000596046","1","1","1","2","1,0.5,0,1,0.5,0,0.5,0,1","0.5,0,1,0.5,0,1,0,1,0.5","2","false",""
"","html-keyboard-response","240","168890","0.0-266.0","32AT8R96GMVRVMD35O1MO5J1EAFUS0","AK35CJJEYFVYK","36U4VBVNQOZD8NFWZXWF9CIHKRIURB","","null","<img src=""img/food4.png"" style=""width:200px; border:14px solid green;"">","null","","","","","","","","","",""
"","image-keyboard-response","241","169138","0.0-268.0","32AT8R96GMVRVMD35O1MO5J1EAFUS0","AK35CJJEYFVYK","36U4VBVNQOZD8NFWZXWF9CIHKRIURB","","246.90000000596046","img/food3.png","74","247.19999998807907","1","0","3","2","1,0.5,0,1,0.5,0,0.5,0,1","0.5,0,1,0.5,0,1,0,1,0.5","2","false",""
"","html-keyboard-response","242","169439","0.0-269.0","32AT8R96GMVRVMD35O1MO5J1EAFUS0","AK35CJJEYFVYK","36U4VBVNQOZD8NFWZXWF9CIHKRIURB","","null","<img src=""img/food3.png"" style=""width:200px;border:14px solid red;"">","null","","","","","","","","","",""
"","image-keyboard-response","243","169763","0.0-271.0","32AT8R96GMVRVMD35O1MO5J1EAFUS0","AK35CJJEYFVYK","36U4VBVNQOZD8NFWZXWF9CIHKRIURB","","323.7000000178814","img/food6.png","76","324.09999999403954","3","1","2","2","1,0.5,0,1,0.5,0,0.5,0,1","0.5,0,1,0.5,0,1,0,1,0.5","2","false",""
"","html-keyboard-response","244","170070","0.0-272.0","32AT8R96GMVRVMD35O1MO5J1EAFUS0","AK35CJJEYFVYK","36U4VBVNQOZD8NFWZXWF9CIHKRIURB","","null","<img src=""img/food6.png"" style=""width:200px; border:14px solid green;"">","null","","","","","","","","","",""
"","image-keyboard-response","245","170323","0.0-274.0","32AT8R96GMVRVMD35O1MO5J1EAFUS0","AK35CJJEYFVYK","36U4VBVNQOZD8NFWZXWF9CIHKRIURB","","252.09999999403954","img/food4.png","76","252.59999999403954","3","1","1","2","1,0.5,0,1,0.5,0,0.5,0,1","0.5,0,1,0.5,0,1,0,1,0.5","2","false",""
"","html-keyboard-response","246","170624","0.0-275.0","32AT8R96GMVRVMD35O1MO5J1EAFUS0","AK35CJJEYFVYK","36U4VBVNQOZD8NFWZXWF9CIHKRIURB","","null","<img src=""img/food4.png"" style=""width:200px; border:14px solid green;"">","null","","","","","","","","","",""
"","image-keyboard-response","247","171170","0.0-277.0","32AT8R96GMVRVMD35O1MO5J1EAFUS0","AK35CJJEYFVYK","36U4VBVNQOZD8NFWZXWF9CIHKRIURB","","545.8000000119209","img/food4.png","76","546.0999999940395","3","1","1","2","1,0.5,0,1,0.5,0,0.5,0,1","0.5,0,1,0.5,0,1,0,1,0.5","2","false",""
"","html-keyboard-response","248","171471","0.0-278.0","32AT8R96GMVRVMD35O1MO5J1EAFUS0","AK35CJJEYFVYK","36U4VBVNQOZD8NFWZXWF9CIHKRIURB","","null","<img src=""img/food4.png"" style=""width:200px; border:14px solid green;"">","null","","","","","","","","","",""
"","image-keyboard-response","249","171904","0.0-280.0","32AT8R96GMVRVMD35O1MO5J1EAFUS0","AK35CJJEYFVYK","36U4VBVNQOZD8NFWZXWF9CIHKRIURB","","432.30000001192093","img/food3.png","74","432.69999998807907","1","0","3","2","1,0.5,0,1,0.5,0,0.5,0,1","0.5,0,1,0.5,0,1,0,1,0.5","2","false",""
"","html-keyboard-response","250","172205","0.0-281.0","32AT8R96GMVRVMD35O1MO5J1EAFUS0","AK35CJJEYFVYK","36U4VBVNQOZD8NFWZXWF9CIHKRIURB","","null","<img src=""img/food3.png"" style=""width:200px;border:14px solid red;"">","null","","","","","","","","","",""
"","image-keyboard-response","251","172696","0.0-283.0","32AT8R96GMVRVMD35O1MO5J1EAFUS0","AK35CJJEYFVYK","36U4VBVNQOZD8NFWZXWF9CIHKRIURB","","490.2000000178814","img/food3.png","74","490.5","1","0","3","2","1,0.5,0,1,0.5,0,0.5,0,1","0.5,0,1,0.5,0,1,0,1,0.5","2","false",""
"","html-keyboard-response","252","172997","0.0-284.0","32AT8R96GMVRVMD35O1MO5J1EAFUS0","AK35CJJEYFVYK","36U4VBVNQOZD8NFWZXWF9CIHKRIURB","","null","<img src=""img/food3.png"" style=""width:200px;border:14px solid red;"">","null","","","","","","","","","",""
"","image-keyboard-response","253","173410","0.0-286.0","32AT8R96GMVRVMD35O1MO5J1EAFUS0","AK35CJJEYFVYK","36U4VBVNQOZD8NFWZXWF9CIHKRIURB","","412.80000001192093","img/food4.png","75","413.09999999403954","2","0","1","2","1,0.5,0,1,0.5,0,0.5,0,1","0.5,0,1,0.5,0,1,0,1,0.5","2","false",""
"","html-keyboard-response","254","173710","0.0-287.0","32AT8R96GMVRVMD35O1MO5J1EAFUS0","AK35CJJEYFVYK","36U4VBVNQOZD8NFWZXWF9CIHKRIURB","","null","<img src=""img/food4.png"" style=""width:200px;border:14px solid red;"">","null","","","","","","","","","",""
"","image-keyboard-response","255","174221","0.0-289.0","32AT8R96GMVRVMD35O1MO5J1EAFUS0","AK35CJJEYFVYK","36U4VBVNQOZD8NFWZXWF9CIHKRIURB","","510.2000000178814","img/food3.png","75","510.59999999403954","2","1","3","2","1,0.5,0,1,0.5,0,0.5,0,1","0.5,0,1,0.5,0,1,0,1,0.5","2","false",""
"","html-keyboard-response","256","174522","0.0-290.0","32AT8R96GMVRVMD35O1MO5J1EAFUS0","AK35CJJEYFVYK","36U4VBVNQOZD8NFWZXWF9CIHKRIURB","","null","<img src=""img/food3.png"" style=""width:200px; border:14px solid green;"">","null","","","","","","","","","",""
"","image-keyboard-response","257","175218","0.0-292.0","32AT8R96GMVRVMD35O1MO5J1EAFUS0","AK35CJJEYFVYK","36U4VBVNQOZD8NFWZXWF9CIHKRIURB","","695.3000000119209","img/food6.png","76","695.7999999821186","3","1","2","2","1,0.5,0,1,0.5,0,0.5,0,1","0.5,0,1,0.5,0,1,0,1,0.5","2","false",""
"","html-keyboard-response","258","175519","0.0-293.0","32AT8R96GMVRVMD35O1MO5J1EAFUS0","AK35CJJEYFVYK","36U4VBVNQOZD8NFWZXWF9CIHKRIURB","","null","<img src=""img/food6.png"" style=""width:200px; border:14px solid green;"">","null","","","","","","","","","",""
"","image-keyboard-response","259","175813","0.0-295.0","32AT8R96GMVRVMD35O1MO5J1EAFUS0","AK35CJJEYFVYK","36U4VBVNQOZD8NFWZXWF9CIHKRIURB","","292.90000000596046","img/food6.png","76","293.40000000596046","3","1","2","2","1,0.5,0,1,0.5,0,0.5,0,1","0.5,0,1,0.5,0,1,0,1,0.5","2","false",""
"","html-keyboard-response","260","176114","0.0-296.0","32AT8R96GMVRVMD35O1MO5J1EAFUS0","AK35CJJEYFVYK","36U4VBVNQOZD8NFWZXWF9CIHKRIURB","","null","<img src=""img/food6.png"" style=""width:200px; border:14px solid green;"">","null","","","","","","","","","",""
"","image-keyboard-response","261","176364","0.0-298.0","32AT8R96GMVRVMD35O1MO5J1EAFUS0","AK35CJJEYFVYK","36U4VBVNQOZD8NFWZXWF9CIHKRIURB","","249.59999999403954","img/food4.png","76","250","3","1","1","2","1,0.5,0,1,0.5,0,0.5,0,1","0.5,0,1,0.5,0,1,0,1,0.5","2","false",""
"","html-keyboard-response","262","176665","0.0-299.0","32AT8R96GMVRVMD35O1MO5J1EAFUS0","AK35CJJEYFVYK","36U4VBVNQOZD8NFWZXWF9CIHKRIURB","","null","<img src=""img/food4.png"" style=""width:200px; border:14px solid green;"">","null","","","","","","","","","",""
"","image-keyboard-response","263","176935","0.0-301.0","32AT8R96GMVRVMD35O1MO5J1EAFUS0","AK35CJJEYFVYK","36U4VBVNQOZD8NFWZXWF9CIHKRIURB","","269.59999999403954","img/food3.png","74","270","1","0","3","2","1,0.5,0,1,0.5,0,0.5,0,1","0.5,0,1,0.5,0,1,0,1,0.5","2","false",""
"","html-keyboard-response","264","177235","0.0-302.0","32AT8R96GMVRVMD35O1MO5J1EAFUS0","AK35CJJEYFVYK","36U4VBVNQOZD8NFWZXWF9CIHKRIURB","","null","<img src=""img/food3.png"" style=""width:200px;border:14px solid red;"">","null","","","","","","","","","",""
"","image-keyboard-response","265","177687","0.0-304.0","32AT8R96GMVRVMD35O1MO5J1EAFUS0","AK35CJJEYFVYK","36U4VBVNQOZD8NFWZXWF9CIHKRIURB","","450.7000000178814","img/food6.png","76","451.59999999403954","3","1","2","2","1,0.5,0,1,0.5,0,0.5,0,1","0.5,0,1,0.5,0,1,0,1,0.5","2","false",""
"","html-keyboard-response","266","177988","0.0-305.0","32AT8R96GMVRVMD35O1MO5J1EAFUS0","AK35CJJEYFVYK","36U4VBVNQOZD8NFWZXWF9CIHKRIURB","","null","<img src=""img/food6.png"" style=""width:200px; border:14px solid green;"">","null","","","","","","","","","",""
"","image-keyboard-response","267","178224","0.0-307.0","32AT8R96GMVRVMD35O1MO5J1EAFUS0","AK35CJJEYFVYK","36U4VBVNQOZD8NFWZXWF9CIHKRIURB","","235","img/food6.png","76","235.40000000596046","3","1","2","2","1,0.5,0,1,0.5,0,0.5,0,1","0.5,0,1,0.5,0,1,0,1,0.5","2","false",""
"","html-keyboard-response","268","178525","0.0-308.0","32AT8R96GMVRVMD35O1MO5J1EAFUS0","AK35CJJEYFVYK","36U4VBVNQOZD8NFWZXWF9CIHKRIURB","","null","<img src=""img/food6.png"" style=""width:200px; border:14px solid green;"">","null","","","","","","","","","",""
"","image-keyboard-response","269","178898","0.0-310.0","32AT8R96GMVRVMD35O1MO5J1EAFUS0","AK35CJJEYFVYK","36U4VBVNQOZD8NFWZXWF9CIHKRIURB","","372.5","img/food4.png","75","373","2","0","1","2","1,0.5,0,1,0.5,0,0.5,0,1","0.5,0,1,0.5,0,1,0,1,0.5","2","false",""
"","html-keyboard-response","270","179199","0.0-311.0","32AT8R96GMVRVMD35O1MO5J1EAFUS0","AK35CJJEYFVYK","36U4VBVNQOZD8NFWZXWF9CIHKRIURB","","null","<img src=""img/food4.png"" style=""width:200px;border:14px solid red;"">","null","","","","","","","","","",""
"","image-keyboard-response","271","179487","0.0-313.0","32AT8R96GMVRVMD35O1MO5J1EAFUS0","AK35CJJEYFVYK","36U4VBVNQOZD8NFWZXWF9CIHKRIURB","","287.19999998807907","img/food6.png","74","287.5","1","1","2","2","1,0.5,0,1,0.5,0,0.5,0,1","0.5,0,1,0.5,0,1,0,1,0.5","2","false",""
"","html-keyboard-response","272","179788","0.0-314.0","32AT8R96GMVRVMD35O1MO5J1EAFUS0","AK35CJJEYFVYK","36U4VBVNQOZD8NFWZXWF9CIHKRIURB","","null","<img src=""img/food6.png"" style=""width:200px; border:14px solid green;"">","null","","","","","","","","","",""
"","image-keyboard-response","273","180114","0.0-316.0","32AT8R96GMVRVMD35O1MO5J1EAFUS0","AK35CJJEYFVYK","36U4VBVNQOZD8NFWZXWF9CIHKRIURB","","325.30000001192093","img/food6.png","74","325.69999998807907","1","0","2","2","1,0.5,0,1,0.5,0,0.5,0,1","0.5,0,1,0.5,0,1,0,1,0.5","2","false",""
"","html-keyboard-response","274","180415","0.0-317.0","32AT8R96GMVRVMD35O1MO5J1EAFUS0","AK35CJJEYFVYK","36U4VBVNQOZD8NFWZXWF9CIHKRIURB","","null","<img src=""img/food6.png"" style=""width:200px;border:14px solid red;"">","null","","","","","","","","","",""
"","image-keyboard-response","275","181043","0.0-319.0","32AT8R96GMVRVMD35O1MO5J1EAFUS0","AK35CJJEYFVYK","36U4VBVNQOZD8NFWZXWF9CIHKRIURB","","627.3000000119209","img/food4.png","74","627.6999999880791","1","1","1","2","1,0.5,0,1,0.5,0,0.5,0,1","0.5,0,1,0.5,0,1,0,1,0.5","2","false",""
"","html-keyboard-response","276","181344","0.0-320.0","32AT8R96GMVRVMD35O1MO5J1EAFUS0","AK35CJJEYFVYK","36U4VBVNQOZD8NFWZXWF9CIHKRIURB","","null","<img src=""img/food4.png"" style=""width:200px; border:14px solid green;"">","null","","","","","","","","","",""
"","image-keyboard-response","277","181931","0.0-322.0","32AT8R96GMVRVMD35O1MO5J1EAFUS0","AK35CJJEYFVYK","36U4VBVNQOZD8NFWZXWF9CIHKRIURB","","586","img/food3.png","76","586.4000000059605","3","1","3","2","1,0.5,0,1,0.5,0,0.5,0,1","0.5,0,1,0.5,0,1,0,1,0.5","2","false",""
"","html-keyboard-response","278","182232","0.0-323.0","32AT8R96GMVRVMD35O1MO5J1EAFUS0","AK35CJJEYFVYK","36U4VBVNQOZD8NFWZXWF9CIHKRIURB","","null","<img src=""img/food3.png"" style=""width:200px; border:14px solid green;"">","null","","","","","","","","","",""
"","image-keyboard-response","279","182682","0.0-325.0","32AT8R96GMVRVMD35O1MO5J1EAFUS0","AK35CJJEYFVYK","36U4VBVNQOZD8NFWZXWF9CIHKRIURB","","449.5","img/food6.png","74","449.7999999821186","1","0","2","2","1,0.5,0,1,0.5,0,0.5,0,1","0.5,0,1,0.5,0,1,0,1,0.5","2","false",""
"","html-keyboard-response","280","182983","0.0-326.0","32AT8R96GMVRVMD35O1MO5J1EAFUS0","AK35CJJEYFVYK","36U4VBVNQOZD8NFWZXWF9CIHKRIURB","","null","<img src=""img/food6.png"" style=""width:200px;border:14px solid red;"">","null","","","","","","","","","",""
"","image-keyboard-response","281","183144","0.0-328.0","32AT8R96GMVRVMD35O1MO5J1EAFUS0","AK35CJJEYFVYK","36U4VBVNQOZD8NFWZXWF9CIHKRIURB","","160.2000000178814","img/food4.png","75","160.59999999403954","2","0","1","2","1,0.5,0,1,0.5,0,0.5,0,1","0.5,0,1,0.5,0,1,0,1,0.5","2","false",""
"","html-keyboard-response","282","183445","0.0-329.0","32AT8R96GMVRVMD35O1MO5J1EAFUS0","AK35CJJEYFVYK","36U4VBVNQOZD8NFWZXWF9CIHKRIURB","","null","<img src=""img/food4.png"" style=""width:200px;border:14px solid red;"">","null","","","","","","","","","",""
"","image-keyboard-response","283","183779","0.0-331.0","32AT8R96GMVRVMD35O1MO5J1EAFUS0","AK35CJJEYFVYK","36U4VBVNQOZD8NFWZXWF9CIHKRIURB","","333.40000000596046","img/food3.png","74","333.7000000178814","1","0","3","2","1,0.5,0,1,0.5,0,0.5,0,1","0.5,0,1,0.5,0,1,0,1,0.5","2","false",""
"","html-keyboard-response","284","184080","0.0-332.0","32AT8R96GMVRVMD35O1MO5J1EAFUS0","AK35CJJEYFVYK","36U4VBVNQOZD8NFWZXWF9CIHKRIURB","","null","<img src=""img/food3.png"" style=""width:200px;border:14px solid red;"">","null","","","","","","","","","",""
"","image-keyboard-response","285","184587","0.0-334.0","32AT8R96GMVRVMD35O1MO5J1EAFUS0","AK35CJJEYFVYK","36U4VBVNQOZD8NFWZXWF9CIHKRIURB","","506.7999999821186","img/food4.png","74","507.30000001192093","1","0","1","2","1,0.5,0,1,0.5,0,0.5,0,1","0.5,0,1,0.5,0,1,0,1,0.5","2","false",""
"","html-keyboard-response","286","184888","0.0-335.0","32AT8R96GMVRVMD35O1MO5J1EAFUS0","AK35CJJEYFVYK","36U4VBVNQOZD8NFWZXWF9CIHKRIURB","","null","<img src=""img/food4.png"" style=""width:200px;border:14px solid red;"">","null","","","","","","","","","",""
"","image-keyboard-response","287","185152","0.0-337.0","32AT8R96GMVRVMD35O1MO5J1EAFUS0","AK35CJJEYFVYK","36U4VBVNQOZD8NFWZXWF9CIHKRIURB","","263.30000001192093","img/food4.png","74","263.59999999403954","1","0","1","2","1,0.5,0,1,0.5,0,0.5,0,1","0.5,0,1,0.5,0,1,0,1,0.5","2","false",""
"","html-keyboard-response","288","185453","0.0-338.0","32AT8R96GMVRVMD35O1MO5J1EAFUS0","AK35CJJEYFVYK","36U4VBVNQOZD8NFWZXWF9CIHKRIURB","","null","<img src=""img/food4.png"" style=""width:200px;border:14px solid red;"">","null","","","","","","","","","",""
"","image-keyboard-response","289","185757","0.0-340.0","32AT8R96GMVRVMD35O1MO5J1EAFUS0","AK35CJJEYFVYK","36U4VBVNQOZD8NFWZXWF9CIHKRIURB","","303.09999999403954","img/food4.png","74","303.5","1","0","1","2","1,0.5,0,1,0.5,0,0.5,0,1","0.5,0,1,0.5,0,1,0,1,0.5","2","false",""
"","html-keyboard-response","290","186058","0.0-341.0","32AT8R96GMVRVMD35O1MO5J1EAFUS0","AK35CJJEYFVYK","36U4VBVNQOZD8NFWZXWF9CIHKRIURB","","null","<img src=""img/food4.png"" style=""width:200px;border:14px solid red;"">","null","","","","","","","","","",""
"","image-keyboard-response","291","186642","0.0-343.0","32AT8R96GMVRVMD35O1MO5J1EAFUS0","AK35CJJEYFVYK","36U4VBVNQOZD8NFWZXWF9CIHKRIURB","","583.2999999821186","img/food3.png","76","583.7000000178814","3","1","3","2","1,0.5,0,1,0.5,0,0.5,0,1","0.5,0,1,0.5,0,1,0,1,0.5","2","false",""
"","html-keyboard-response","292","186944","0.0-344.0","32AT8R96GMVRVMD35O1MO5J1EAFUS0","AK35CJJEYFVYK","36U4VBVNQOZD8NFWZXWF9CIHKRIURB","","null","<img src=""img/food3.png"" style=""width:200px; border:14px solid green;"">","null","","","","","","","","","",""
"","image-keyboard-response","293","187435","0.0-346.0","32AT8R96GMVRVMD35O1MO5J1EAFUS0","AK35CJJEYFVYK","36U4VBVNQOZD8NFWZXWF9CIHKRIURB","","490.7999999821186","img/food6.png","75","491.10000002384186","2","0","2","2","1,0.5,0,1,0.5,0,0.5,0,1","0.5,0,1,0.5,0,1,0,1,0.5","2","false",""
"","html-keyboard-response","294","187736","0.0-347.0","32AT8R96GMVRVMD35O1MO5J1EAFUS0","AK35CJJEYFVYK","36U4VBVNQOZD8NFWZXWF9CIHKRIURB","","null","<img src=""img/food6.png"" style=""width:200px;border:14px solid red;"">","null","","","","","","","","","",""
"","image-keyboard-response","295","188049","0.0-349.0","32AT8R96GMVRVMD35O1MO5J1EAFUS0","AK35CJJEYFVYK","36U4VBVNQOZD8NFWZXWF9CIHKRIURB","","312.2999999821186","img/food6.png","76","312.5","3","1","2","2","1,0.5,0,1,0.5,0,0.5,0,1","0.5,0,1,0.5,0,1,0,1,0.5","2","false",""
"","html-keyboard-response","296","188350","0.0-350.0","32AT8R96GMVRVMD35O1MO5J1EAFUS0","AK35CJJEYFVYK","36U4VBVNQOZD8NFWZXWF9CIHKRIURB","","null","<img src=""img/food6.png"" style=""width:200px; border:14px solid green;"">","null","","","","","","","","","",""
"","image-keyboard-response","297","188723","0.0-352.0","32AT8R96GMVRVMD35O1MO5J1EAFUS0","AK35CJJEYFVYK","36U4VBVNQOZD8NFWZXWF9CIHKRIURB","","372","img/food3.png","76","372.5","3","1","3","2","1,0.5,0,1,0.5,0,0.5,0,1","0.5,0,1,0.5,0,1,0,1,0.5","2","false",""
"","html-keyboard-response","298","189024","0.0-353.0","32AT8R96GMVRVMD35O1MO5J1EAFUS0","AK35CJJEYFVYK","36U4VBVNQOZD8NFWZXWF9CIHKRIURB","","null","<img src=""img/food3.png"" style=""width:200px; border:14px solid green;"">","null","","","","","","","","","",""
"","image-keyboard-response","299","189467","0.0-355.0","32AT8R96GMVRVMD35O1MO5J1EAFUS0","AK35CJJEYFVYK","36U4VBVNQOZD8NFWZXWF9CIHKRIURB","","442.30000001192093","img/food6.png","76","442.69999998807907","3","1","2","2","1,0.5,0,1,0.5,0,0.5,0,1","0.5,0,1,0.5,0,1,0,1,0.5","2","false",""
"","html-keyboard-response","300","189768","0.0-356.0","32AT8R96GMVRVMD35O1MO5J1EAFUS0","AK35CJJEYFVYK","36U4VBVNQOZD8NFWZXWF9CIHKRIURB","","null","<img src=""img/food6.png"" style=""width:200px; border:14px solid green;"">","null","","","","","","","","","",""
"","image-keyboard-response","301","190032","0.0-358.0","32AT8R96GMVRVMD35O1MO5J1EAFUS0","AK35CJJEYFVYK","36U4VBVNQOZD8NFWZXWF9CIHKRIURB","","263.19999998807907","img/food3.png","76","263.60000002384186","3","1","3","2","1,0.5,0,1,0.5,0,0.5,0,1","0.5,0,1,0.5,0,1,0,1,0.5","2","false",""
"","html-keyboard-response","302","190333","0.0-359.0","32AT8R96GMVRVMD35O1MO5J1EAFUS0","AK35CJJEYFVYK","36U4VBVNQOZD8NFWZXWF9CIHKRIURB","","null","<img src=""img/food3.png"" style=""width:200px; border:14px solid green;"">","null","","","","","","","","","",""
"","image-keyboard-response","303","190809","0.0-361.0","32AT8R96GMVRVMD35O1MO5J1EAFUS0","AK35CJJEYFVYK","36U4VBVNQOZD8NFWZXWF9CIHKRIURB","","475","img/food4.png","75","475.5","2","0","1","2","1,0.5,0,1,0.5,0,0.5,0,1","0.5,0,1,0.5,0,1,0,1,0.5","2","false",""
"","html-keyboard-response","304","191110","0.0-362.0","32AT8R96GMVRVMD35O1MO5J1EAFUS0","AK35CJJEYFVYK","36U4VBVNQOZD8NFWZXWF9CIHKRIURB","","null","<img src=""img/food4.png"" style=""width:200px;border:14px solid red;"">","null","","","","","","","","","",""
"","image-keyboard-response","305","191475","0.0-364.0","32AT8R96GMVRVMD35O1MO5J1EAFUS0","AK35CJJEYFVYK","36U4VBVNQOZD8NFWZXWF9CIHKRIURB","","364.59999999403954","img/food4.png","74","365.10000002384186","1","1","1","2","1,0.5,0,1,0.5,0,0.5,0,1","0.5,0,1,0.5,0,1,0,1,0.5","2","false",""
"","html-keyboard-response","306","191777","0.0-365.0","32AT8R96GMVRVMD35O1MO5J1EAFUS0","AK35CJJEYFVYK","36U4VBVNQOZD8NFWZXWF9CIHKRIURB","","null","<img src=""img/food4.png"" style=""width:200px; border:14px solid green;"">","null","","","","","","","","","",""
"","image-keyboard-response","307","192110","0.0-367.0","32AT8R96GMVRVMD35O1MO5J1EAFUS0","AK35CJJEYFVYK","36U4VBVNQOZD8NFWZXWF9CIHKRIURB","","332.5","img/food4.png","74","333","1","0","1","2","1,0.5,0,1,0.5,0,0.5,0,1","0.5,0,1,0.5,0,1,0,1,0.5","2","false",""
"","html-keyboard-response","308","192425","0.0-368.0","32AT8R96GMVRVMD35O1MO5J1EAFUS0","AK35CJJEYFVYK","36U4VBVNQOZD8NFWZXWF9CIHKRIURB","","null","<img src=""img/food4.png"" style=""width:200px;border:14px solid red;"">","null","","","","","","","","","",""
"","image-keyboard-response","309","192761","0.0-370.0","32AT8R96GMVRVMD35O1MO5J1EAFUS0","AK35CJJEYFVYK","36U4VBVNQOZD8NFWZXWF9CIHKRIURB","","335.59999999403954","img/food3.png","76","336","3","1","3","2","1,0.5,0,1,0.5,0,0.5,0,1","0.5,0,1,0.5,0,1,0,1,0.5","2","false",""
"","html-keyboard-response","310","193062","0.0-371.0","32AT8R96GMVRVMD35O1MO5J1EAFUS0","AK35CJJEYFVYK","36U4VBVNQOZD8NFWZXWF9CIHKRIURB","","null","<img src=""img/food3.png"" style=""width:200px; border:14px solid green;"">","null","","","","","","","","","",""
"","image-keyboard-response","311","193345","0.0-373.0","32AT8R96GMVRVMD35O1MO5J1EAFUS0","AK35CJJEYFVYK","36U4VBVNQOZD8NFWZXWF9CIHKRIURB","","282.90000000596046","img/food4.png","76","283.2999999821186","3","1","1","2","1,0.5,0,1,0.5,0,0.5,0,1","0.5,0,1,0.5,0,1,0,1,0.5","2","false",""
"","html-keyboard-response","312","193646","0.0-374.0","32AT8R96GMVRVMD35O1MO5J1EAFUS0","AK35CJJEYFVYK","36U4VBVNQOZD8NFWZXWF9CIHKRIURB","","null","<img src=""img/food4.png"" style=""width:200px; border:14px solid green;"">","null","","","","","","","","","",""
"","image-keyboard-response","313","193908","0.0-376.0","32AT8R96GMVRVMD35O1MO5J1EAFUS0","AK35CJJEYFVYK","36U4VBVNQOZD8NFWZXWF9CIHKRIURB","","261.19999998807907","img/food3.png","75","261.59999999403954","2","1","3","2","1,0.5,0,1,0.5,0,0.5,0,1","0.5,0,1,0.5,0,1,0,1,0.5","2","false",""
"","html-keyboard-response","314","194209","0.0-377.0","32AT8R96GMVRVMD35O1MO5J1EAFUS0","AK35CJJEYFVYK","36U4VBVNQOZD8NFWZXWF9CIHKRIURB","","null","<img src=""img/food3.png"" style=""width:200px; border:14px solid green;"">","null","","","","","","","","","",""
"","image-keyboard-response","315","194469","0.0-379.0","32AT8R96GMVRVMD35O1MO5J1EAFUS0","AK35CJJEYFVYK","36U4VBVNQOZD8NFWZXWF9CIHKRIURB","","259.7000000178814","img/food3.png","76","260","3","0","3","2","1,0.5,0,1,0.5,0,0.5,0,1","0.5,0,1,0.5,0,1,0,1,0.5","2","false",""
"","html-keyboard-response","316","194770","0.0-380.0","32AT8R96GMVRVMD35O1MO5J1EAFUS0","AK35CJJEYFVYK","36U4VBVNQOZD8NFWZXWF9CIHKRIURB","","null","<img src=""img/food3.png"" style=""width:200px;border:14px solid red;"">","null","","","","","","","","","",""
"","image-keyboard-response","317","195218","0.0-382.0","32AT8R96GMVRVMD35O1MO5J1EAFUS0","AK35CJJEYFVYK","36U4VBVNQOZD8NFWZXWF9CIHKRIURB","","447.5","img/food4.png","75","447.7000000178814","2","0","1","2","1,0.5,0,1,0.5,0,0.5,0,1","0.5,0,1,0.5,0,1,0,1,0.5","2","false",""
"","html-keyboard-response","318","195519","0.0-383.0","32AT8R96GMVRVMD35O1MO5J1EAFUS0","AK35CJJEYFVYK","36U4VBVNQOZD8NFWZXWF9CIHKRIURB","","null","<img src=""img/food4.png"" style=""width:200px;border:14px solid red;"">","null","","","","","","","","","",""
"","image-keyboard-response","319","195697","0.0-385.0","32AT8R96GMVRVMD35O1MO5J1EAFUS0","AK35CJJEYFVYK","36U4VBVNQOZD8NFWZXWF9CIHKRIURB","","177.30000001192093","img/food4.png","74","177.7999999821186","1","0","1","2","1,0.5,0,1,0.5,0,0.5,0,1","0.5,0,1,0.5,0,1,0,1,0.5","2","false",""
"","html-keyboard-response","320","195998","0.0-386.0","32AT8R96GMVRVMD35O1MO5J1EAFUS0","AK35CJJEYFVYK","36U4VBVNQOZD8NFWZXWF9CIHKRIURB","","null","<img src=""img/food4.png"" style=""width:200px;border:14px solid red;"">","null","","","","","","","","","",""
"","image-keyboard-response","321","196439","0.0-388.0","32AT8R96GMVRVMD35O1MO5J1EAFUS0","AK35CJJEYFVYK","36U4VBVNQOZD8NFWZXWF9CIHKRIURB","","440.30000001192093","img/food3.png","76","440.7999999821186","3","0","3","2","1,0.5,0,1,0.5,0,0.5,0,1","0.5,0,1,0.5,0,1,0,1,0.5","2","false",""
"","html-keyboard-response","322","196741","0.0-389.0","32AT8R96GMVRVMD35O1MO5J1EAFUS0","AK35CJJEYFVYK","36U4VBVNQOZD8NFWZXWF9CIHKRIURB","","null","<img src=""img/food3.png"" style=""width:200px;border:14px solid red;"">","null","","","","","","","","","",""
"","image-keyboard-response","323","197087","0.0-391.0","32AT8R96GMVRVMD35O1MO5J1EAFUS0","AK35CJJEYFVYK","36U4VBVNQOZD8NFWZXWF9CIHKRIURB","","345.5","img/food4.png","76","345.90000000596046","3","1","1","2","1,0.5,0,1,0.5,0,0.5,0,1","0.5,0,1,0.5,0,1,0,1,0.5","2","false",""
"","html-keyboard-response","324","197388","0.0-392.0","32AT8R96GMVRVMD35O1MO5J1EAFUS0","AK35CJJEYFVYK","36U4VBVNQOZD8NFWZXWF9CIHKRIURB","","null","<img src=""img/food4.png"" style=""width:200px; border:14px solid green;"">","null","","","","","","","","","",""
"","image-keyboard-response","325","197941","0.0-394.0","32AT8R96GMVRVMD35O1MO5J1EAFUS0","AK35CJJEYFVYK","36U4VBVNQOZD8NFWZXWF9CIHKRIURB","","552","img/food3.png","75","552.5","2","1","3","2","1,0.5,0,1,0.5,0,0.5,0,1","0.5,0,1,0.5,0,1,0,1,0.5","2","false",""
"","html-keyboard-response","326","198242","0.0-395.0","32AT8R96GMVRVMD35O1MO5J1EAFUS0","AK35CJJEYFVYK","36U4VBVNQOZD8NFWZXWF9CIHKRIURB","","null","<img src=""img/food3.png"" style=""width:200px; border:14px solid green;"">","null","","","","","","","","","",""
"","image-keyboard-response","327","198527","0.0-397.0","32AT8R96GMVRVMD35O1MO5J1EAFUS0","AK35CJJEYFVYK","36U4VBVNQOZD8NFWZXWF9CIHKRIURB","","284.5","img/food6.png","76","284.90000000596046","3","1","2","2","1,0.5,0,1,0.5,0,0.5,0,1","0.5,0,1,0.5,0,1,0,1,0.5","2","false",""
"","html-keyboard-response","328","198827","0.0-398.0","32AT8R96GMVRVMD35O1MO5J1EAFUS0","AK35CJJEYFVYK","36U4VBVNQOZD8NFWZXWF9CIHKRIURB","","null","<img src=""img/food6.png"" style=""width:200px; border:14px solid green;"">","null","","","","","","","","","",""
"","image-keyboard-response","329","199087","0.0-400.0","32AT8R96GMVRVMD35O1MO5J1EAFUS0","AK35CJJEYFVYK","36U4VBVNQOZD8NFWZXWF9CIHKRIURB","","259.2999999821186","img/food4.png","76","259.7000000178814","3","1","1","2","1,0.5,0,1,0.5,0,0.5,0,1","0.5,0,1,0.5,0,1,0,1,0.5","2","false",""
"","html-keyboard-response","330","199389","0.0-401.0","32AT8R96GMVRVMD35O1MO5J1EAFUS0","AK35CJJEYFVYK","36U4VBVNQOZD8NFWZXWF9CIHKRIURB","","null","<img src=""img/food4.png"" style=""width:200px; border:14px solid green;"">","null","","","","","","","","","",""
"","image-keyboard-response","331","199691","0.0-403.0","32AT8R96GMVRVMD35O1MO5J1EAFUS0","AK35CJJEYFVYK","36U4VBVNQOZD8NFWZXWF9CIHKRIURB","","301.60000002384186","img/food4.png","76","302","3","1","1","2","1,0.5,0,1,0.5,0,0.5,0,1","0.5,0,1,0.5,0,1,0,1,0.5","2","false",""
"","html-keyboard-response","332","199992","0.0-404.0","32AT8R96GMVRVMD35O1MO5J1EAFUS0","AK35CJJEYFVYK","36U4VBVNQOZD8NFWZXWF9CIHKRIURB","","null","<img src=""img/food4.png"" style=""width:200px; border:14px solid green;"">","null","","","","","","","","","",""
"","image-keyboard-response","333","200372","0.0-406.0","32AT8R96GMVRVMD35O1MO5J1EAFUS0","AK35CJJEYFVYK","36U4VBVNQOZD8NFWZXWF9CIHKRIURB","","379.2999999821186","img/food6.png","75","379.80000001192093","2","0","2","2","1,0.5,0,1,0.5,0,0.5,0,1","0.5,0,1,0.5,0,1,0,1,0.5","2","false",""
"","html-keyboard-response","334","200673","0.0-407.0","32AT8R96GMVRVMD35O1MO5J1EAFUS0","AK35CJJEYFVYK","36U4VBVNQOZD8NFWZXWF9CIHKRIURB","","null","<img src=""img/food6.png"" style=""width:200px;border:14px solid red;"">","null","","","","","","","","","",""
"","image-keyboard-response","335","201072","0.0-409.0","32AT8R96GMVRVMD35O1MO5J1EAFUS0","AK35CJJEYFVYK","36U4VBVNQOZD8NFWZXWF9CIHKRIURB","","398.10000002384186","img/food4.png","74","398.5","1","1","1","2","1,0.5,0,1,0.5,0,0.5,0,1","0.5,0,1,0.5,0,1,0,1,0.5","2","false",""
"","html-keyboard-response","336","201374","0.0-410.0","32AT8R96GMVRVMD35O1MO5J1EAFUS0","AK35CJJEYFVYK","36U4VBVNQOZD8NFWZXWF9CIHKRIURB","","null","<img src=""img/food4.png"" style=""width:200px; border:14px solid green;"">","null","","","","","","","","","",""
"","image-keyboard-response","337","201671","0.0-412.0","32AT8R96GMVRVMD35O1MO5J1EAFUS0","AK35CJJEYFVYK","36U4VBVNQOZD8NFWZXWF9CIHKRIURB","","295.90000000596046","img/food3.png","74","296.5","1","0","3","2","1,0.5,0,1,0.5,0,0.5,0,1","0.5,0,1,0.5,0,1,0,1,0.5","2","false",""
"","html-keyboard-response","338","201972","0.0-413.0","32AT8R96GMVRVMD35O1MO5J1EAFUS0","AK35CJJEYFVYK","36U4VBVNQOZD8NFWZXWF9CIHKRIURB","","null","<img src=""img/food3.png"" style=""width:200px;border:14px solid red;"">","null","","","","","","","","","",""
"","image-keyboard-response","339","202262","0.0-415.0","32AT8R96GMVRVMD35O1MO5J1EAFUS0","AK35CJJEYFVYK","36U4VBVNQOZD8NFWZXWF9CIHKRIURB","","289.59999999403954","img/food6.png","76","289.90000000596046","3","1","2","2","1,0.5,0,1,0.5,0,0.5,0,1","0.5,0,1,0.5,0,1,0,1,0.5","2","false",""
"","html-keyboard-response","340","202563","0.0-416.0","32AT8R96GMVRVMD35O1MO5J1EAFUS0","AK35CJJEYFVYK","36U4VBVNQOZD8NFWZXWF9CIHKRIURB","","null","<img src=""img/food6.png"" style=""width:200px; border:14px solid green;"">","null","","","","","","","","","",""
"","image-keyboard-response","341","202799","0.0-418.0","32AT8R96GMVRVMD35O1MO5J1EAFUS0","AK35CJJEYFVYK","36U4VBVNQOZD8NFWZXWF9CIHKRIURB","","234.90000000596046","img/food4.png","76","235.40000000596046","3","1","1","2","1,0.5,0,1,0.5,0,0.5,0,1","0.5,0,1,0.5,0,1,0,1,0.5","2","false",""
"","html-keyboard-response","342","203100","0.0-419.0","32AT8R96GMVRVMD35O1MO5J1EAFUS0","AK35CJJEYFVYK","36U4VBVNQOZD8NFWZXWF9CIHKRIURB","","null","<img src=""img/food4.png"" style=""width:200px; border:14px solid green;"">","null","","","","","","","","","",""
"","image-keyboard-response","343","203390","0.0-421.0","32AT8R96GMVRVMD35O1MO5J1EAFUS0","AK35CJJEYFVYK","36U4VBVNQOZD8NFWZXWF9CIHKRIURB","","289.40000000596046","img/food3.png","75","289.80000001192093","2","1","3","2","1,0.5,0,1,0.5,0,0.5,0,1","0.5,0,1,0.5,0,1,0,1,0.5","2","false",""
"","html-keyboard-response","344","203691","0.0-422.0","32AT8R96GMVRVMD35O1MO5J1EAFUS0","AK35CJJEYFVYK","36U4VBVNQOZD8NFWZXWF9CIHKRIURB","","null","<img src=""img/food3.png"" style=""width:200px; border:14px solid green;"">","null","","","","","","","","","",""
"","image-keyboard-response","345","203954","0.0-424.0","32AT8R96GMVRVMD35O1MO5J1EAFUS0","AK35CJJEYFVYK","36U4VBVNQOZD8NFWZXWF9CIHKRIURB","","262.30000001192093","img/food6.png","76","262.59999999403954","3","1","2","2","1,0.5,0,1,0.5,0,0.5,0,1","0.5,0,1,0.5,0,1,0,1,0.5","2","false",""
"","html-keyboard-response","346","204254","0.0-425.0","32AT8R96GMVRVMD35O1MO5J1EAFUS0","AK35CJJEYFVYK","36U4VBVNQOZD8NFWZXWF9CIHKRIURB","","null","<img src=""img/food6.png"" style=""width:200px; border:14px solid green;"">","null","","","","","","","","","",""
"","image-keyboard-response","347","204543","0.0-427.0","32AT8R96GMVRVMD35O1MO5J1EAFUS0","AK35CJJEYFVYK","36U4VBVNQOZD8NFWZXWF9CIHKRIURB","","287.90000000596046","img/food3.png","76","288.2999999821186","3","1","3","2","1,0.5,0,1,0.5,0,0.5,0,1","0.5,0,1,0.5,0,1,0,1,0.5","2","false",""
"","html-keyboard-response","348","204845","0.0-428.0","32AT8R96GMVRVMD35O1MO5J1EAFUS0","AK35CJJEYFVYK","36U4VBVNQOZD8NFWZXWF9CIHKRIURB","","null","<img src=""img/food3.png"" style=""width:200px; border:14px solid green;"">","null","","","","","","","","","",""
"","image-keyboard-response","349","205110","0.0-430.0","32AT8R96GMVRVMD35O1MO5J1EAFUS0","AK35CJJEYFVYK","36U4VBVNQOZD8NFWZXWF9CIHKRIURB","","264.5","img/food6.png","76","264.80000001192093","3","1","2","2","1,0.5,0,1,0.5,0,0.5,0,1","0.5,0,1,0.5,0,1,0,1,0.5","2","false",""
"","html-keyboard-response","350","205411","0.0-431.0","32AT8R96GMVRVMD35O1MO5J1EAFUS0","AK35CJJEYFVYK","36U4VBVNQOZD8NFWZXWF9CIHKRIURB","","null","<img src=""img/food6.png"" style=""width:200px; border:14px solid green;"">","null","","","","","","","","","",""
"","image-keyboard-response","351","205666","0.0-433.0","32AT8R96GMVRVMD35O1MO5J1EAFUS0","AK35CJJEYFVYK","36U4VBVNQOZD8NFWZXWF9CIHKRIURB","","254.59999999403954","img/food6.png","74","255","1","1","2","2","1,0.5,0,1,0.5,0,0.5,0,1","0.5,0,1,0.5,0,1,0,1,0.5","2","false",""
"","html-keyboard-response","352","205968","0.0-434.0","32AT8R96GMVRVMD35O1MO5J1EAFUS0","AK35CJJEYFVYK","36U4VBVNQOZD8NFWZXWF9CIHKRIURB","","null","<img src=""img/food6.png"" style=""width:200px; border:14px solid green;"">","null","","","","","","","","","",""
"","image-keyboard-response","353","206331","0.0-436.0","32AT8R96GMVRVMD35O1MO5J1EAFUS0","AK35CJJEYFVYK","36U4VBVNQOZD8NFWZXWF9CIHKRIURB","","362.40000000596046","img/food3.png","76","362.7999999821186","3","1","3","2","1,0.5,0,1,0.5,0,0.5,0,1","0.5,0,1,0.5,0,1,0,1,0.5","2","false",""
"","html-keyboard-response","354","206632","0.0-437.0","32AT8R96GMVRVMD35O1MO5J1EAFUS0","AK35CJJEYFVYK","36U4VBVNQOZD8NFWZXWF9CIHKRIURB","","null","<img src=""img/food3.png"" style=""width:200px; border:14px solid green;"">","null","","","","","","","","","",""
"","image-keyboard-response","355","206848","0.0-439.0","32AT8R96GMVRVMD35O1MO5J1EAFUS0","AK35CJJEYFVYK","36U4VBVNQOZD8NFWZXWF9CIHKRIURB","","215.7000000178814","img/food3.png","76","216.19999998807907","3","1","3","2","1,0.5,0,1,0.5,0,0.5,0,1","0.5,0,1,0.5,0,1,0,1,0.5","2","false",""
"","html-keyboard-response","356","207149","0.0-440.0","32AT8R96GMVRVMD35O1MO5J1EAFUS0","AK35CJJEYFVYK","36U4VBVNQOZD8NFWZXWF9CIHKRIURB","","null","<img src=""img/food3.png"" style=""width:200px; border:14px solid green;"">","null","","","","","","","","","",""
"","image-keyboard-response","357","207394","0.0-442.0","32AT8R96GMVRVMD35O1MO5J1EAFUS0","AK35CJJEYFVYK","36U4VBVNQOZD8NFWZXWF9CIHKRIURB","","244.80000001192093","img/food6.png","75","245.2999999821186","2","0","2","2","1,0.5,0,1,0.5,0,0.5,0,1","0.5,0,1,0.5,0,1,0,1,0.5","2","false",""
"","html-keyboard-response","358","207695","0.0-443.0","32AT8R96GMVRVMD35O1MO5J1EAFUS0","AK35CJJEYFVYK","36U4VBVNQOZD8NFWZXWF9CIHKRIURB","","null","<img src=""img/food6.png"" style=""width:200px;border:14px solid red;"">","null","","","","","","","","","",""
"","image-keyboard-response","359","207914","0.0-445.0","32AT8R96GMVRVMD35O1MO5J1EAFUS0","AK35CJJEYFVYK","36U4VBVNQOZD8NFWZXWF9CIHKRIURB","","218","img/food4.png","74","218.5","1","1","1","2","1,0.5,0,1,0.5,0,0.5,0,1","0.5,0,1,0.5,0,1,0,1,0.5","2","false",""
"","html-keyboard-response","360","208216","0.0-446.0","32AT8R96GMVRVMD35O1MO5J1EAFUS0","AK35CJJEYFVYK","36U4VBVNQOZD8NFWZXWF9CIHKRIURB","","null","<img src=""img/food4.png"" style=""width:200px; border:14px solid green;"">","null","","","","","","","","","",""
"","image-keyboard-response","361","208439","0.0-448.0","32AT8R96GMVRVMD35O1MO5J1EAFUS0","AK35CJJEYFVYK","36U4VBVNQOZD8NFWZXWF9CIHKRIURB","","222.5","img/food6.png","74","222.90000000596046","1","1","2","2","1,0.5,0,1,0.5,0,0.5,0,1","0.5,0,1,0.5,0,1,0,1,0.5","2","false",""
"","html-keyboard-response","362","208740","0.0-449.0","32AT8R96GMVRVMD35O1MO5J1EAFUS0","AK35CJJEYFVYK","36U4VBVNQOZD8NFWZXWF9CIHKRIURB","","null","<img src=""img/food6.png"" style=""width:200px; border:14px solid green;"">","null","","","","","","","","","",""
"","image-keyboard-response","363","208907","0.0-451.0","32AT8R96GMVRVMD35O1MO5J1EAFUS0","AK35CJJEYFVYK","36U4VBVNQOZD8NFWZXWF9CIHKRIURB","","166.40000000596046","img/food3.png","76","166.80000001192093","3","1","3","2","1,0.5,0,1,0.5,0,0.5,0,1","0.5,0,1,0.5,0,1,0,1,0.5","2","false",""
"","html-keyboard-response","364","209208","0.0-452.0","32AT8R96GMVRVMD35O1MO5J1EAFUS0","AK35CJJEYFVYK","36U4VBVNQOZD8NFWZXWF9CIHKRIURB","","null","<img src=""img/food3.png"" style=""width:200px; border:14px solid green;"">","null","","","","","","","","","",""
"","instructions","365","211911","0.0-454.0","32AT8R96GMVRVMD35O1MO5J1EAFUS0","AK35CJJEYFVYK","36U4VBVNQOZD8NFWZXWF9CIHKRIURB","[{""page_index"":0,""viewing_time"":2702.4000000059605}]","2702.5999999940395","","","","","","","","","","","",""
"","survey-text","366","219382","0.0-455.0","32AT8R96GMVRVMD35O1MO5J1EAFUS0","AK35CJJEYFVYK","36U4VBVNQOZD8NFWZXWF9CIHKRIURB","","7469.800000011921","","","","","","","","","","","","{""Q0"":""AK35CJJEYFVYK""}"
