"success","trial_type","trial_index","time_elapsed","internal_node_id","assignmentID","mturkID","hitID","view_history","rt","stimulus","key_press","reactionTime","a","r","s","cond","reward_cond","reward_cond_actual","reward_matrix_idx","warning","responses"
"true","fullscreen","0","3216","0.0-0.0","3OF2M9AATHAAT2U562RSEB76YAAKZE","AKJLAFX2M86TP","3YO4AH2FPD6XG0OGOBTVFFK58DY0QT","","","","","","","","","","","","","",""
"","instructions","1","21651","0.0-1.0","3OF2M9AATHAAT2U562RSEB76YAAKZE","AKJLAFX2M86TP","3YO4AH2FPD6XG0OGOBTVFFK58DY0QT","[{""page_index"":0,""viewing_time"":2519},{""page_index"":1,""viewing_time"":4022},{""page_index"":2,""viewing_time"":5041},{""page_index"":3,""viewing_time"":1540},{""page_index"":4,""viewing_time"":1320},{""page_index"":5,""viewing_time"":2495},{""page_index"":6,""viewing_time"":1487}]","18427","","","","","","","","","","","",""
"","image-keyboard-response","2","23655","0.0-2.0","3OF2M9AATHAAT2U562RSEB76YAAKZE","AKJLAFX2M86TP","3YO4AH2FPD6XG0OGOBTVFFK58DY0QT","","","img/food5.png","","2003","-1","0","2","1","1,0.7,0,1,0.7,0,0.7,0,1","0,1,0.7,0,1,0.7,1,0.7,0","3","",""
"","html-keyboard-response","3","23961","0.0-3.0","3OF2M9AATHAAT2U562RSEB76YAAKZE","AKJLAFX2M86TP","3YO4AH2FPD6XG0OGOBTVFFK58DY0QT","","null","<img src=""img/food5.png"" style=""width:200px;border:14px solid red;"">","null","","","","","","","","","",""
"","image-keyboard-response","4","25963","0.0-4.0","3OF2M9AATHAAT2U562RSEB76YAAKZE","AKJLAFX2M86TP","3YO4AH2FPD6XG0OGOBTVFFK58DY0QT","","","img/food2.png","","2002","-1","0","1","1","1,0.7,0,1,0.7,0,0.7,0,1","0,1,0.7,0,1,0.7,1,0.7,0","3","",""
"","html-keyboard-response","5","26266","0.0-5.0","3OF2M9AATHAAT2U562RSEB76YAAKZE","AKJLAFX2M86TP","3YO4AH2FPD6XG0OGOBTVFFK58DY0QT","","null","<img src=""img/food2.png"" style=""width:200px;border:14px solid red;"">","null","","","","","","","","","",""
"","image-keyboard-response","6","32332","0.0-6.0","3OF2M9AATHAAT2U562RSEB76YAAKZE","AKJLAFX2M86TP","3YO4AH2FPD6XG0OGOBTVFFK58DY0QT","","","img/food5.png","","6066","-1","0","2","1","1,0.7,0,1,0.7,0,0.7,0,1","0,1,0.7,0,1,0.7,1,0.7,0","3","",""
"","html-keyboard-response","7","33511","0.0-7.0","3OF2M9AATHAAT2U562RSEB76YAAKZE","AKJLAFX2M86TP","3YO4AH2FPD6XG0OGOBTVFFK58DY0QT","","null","<img src=""img/food5.png"" style=""width:200px;border:14px solid red;"">","null","","","","","","","","","",""
"","image-keyboard-response","8","36512","0.0-8.0","3OF2M9AATHAAT2U562RSEB76YAAKZE","AKJLAFX2M86TP","3YO4AH2FPD6XG0OGOBTVFFK58DY0QT","","","img/food2.png","","3000","-1","0","1","1","1,0.7,0,1,0.7,0,0.7,0,1","0,1,0.7,0,1,0.7,1,0.7,0","3","",""
"","html-keyboard-response","9","37512","0.0-9.0","3OF2M9AATHAAT2U562RSEB76YAAKZE","AKJLAFX2M86TP","3YO4AH2FPD6XG0OGOBTVFFK58DY0QT","","null","<img src=""img/food2.png"" style=""width:200px;border:14px solid red;"">","null","","","","","","","","","",""
"","image-keyboard-response","10","40513","0.0-10.0","3OF2M9AATHAAT2U562RSEB76YAAKZE","AKJLAFX2M86TP","3YO4AH2FPD6XG0OGOBTVFFK58DY0QT","","","img/food6.png","","3000","-1","0","3","1","1,0.7,0,1,0.7,0,0.7,0,1","0,1,0.7,0,1,0.7,1,0.7,0","3","",""
"","html-keyboard-response","11","41511","0.0-11.0","3OF2M9AATHAAT2U562RSEB76YAAKZE","AKJLAFX2M86TP","3YO4AH2FPD6XG0OGOBTVFFK58DY0QT","","null","<img src=""img/food6.png"" style=""width:200px;border:14px solid red;"">","null","","","","","","","","","",""
"","image-keyboard-response","12","44514","0.0-12.0","3OF2M9AATHAAT2U562RSEB76YAAKZE","AKJLAFX2M86TP","3YO4AH2FPD6XG0OGOBTVFFK58DY0QT","","","img/food6.png","","3004","-1","0","3","1","1,0.7,0,1,0.7,0,0.7,0,1","0,1,0.7,0,1,0.7,1,0.7,0","3","",""
"","html-keyboard-response","13","45512","0.0-13.0","3OF2M9AATHAAT2U562RSEB76YAAKZE","AKJLAFX2M86TP","3YO4AH2FPD6XG0OGOBTVFFK58DY0QT","","null","<img src=""img/food6.png"" style=""width:200px;border:14px solid red;"">","null","","","","","","","","","",""
"","image-keyboard-response","14","47561","0.0-14.0","3OF2M9AATHAAT2U562RSEB76YAAKZE","AKJLAFX2M86TP","3YO4AH2FPD6XG0OGOBTVFFK58DY0QT","","","img/food2.png","","2049","-1","0","1","1","1,0.7,0,1,0.7,0,0.7,0,1","0,1,0.7,0,1,0.7,1,0.7,0","3","",""
"","html-keyboard-response","15","47944","0.0-15.0","3OF2M9AATHAAT2U562RSEB76YAAKZE","AKJLAFX2M86TP","3YO4AH2FPD6XG0OGOBTVFFK58DY0QT","","null","<img src=""img/food2.png"" style=""width:200px;border:14px solid red;"">","null","","","","","","","","","",""
"","image-keyboard-response","16","53714","0.0-16.0","3OF2M9AATHAAT2U562RSEB76YAAKZE","AKJLAFX2M86TP","3YO4AH2FPD6XG0OGOBTVFFK58DY0QT","","","img/food2.png","","5770","-1","0","1","1","1,0.7,0,1,0.7,0,0.7,0,1","0,1,0.7,0,1,0.7,1,0.7,0","3","",""
"","html-keyboard-response","17","54020","0.0-17.0","3OF2M9AATHAAT2U562RSEB76YAAKZE","AKJLAFX2M86TP","3YO4AH2FPD6XG0OGOBTVFFK58DY0QT","","null","<img src=""img/food2.png"" style=""width:200px;border:14px solid red;"">","null","","","","","","","","","",""
"","image-keyboard-response","18","60828","0.0-18.0","3OF2M9AATHAAT2U562RSEB76YAAKZE","AKJLAFX2M86TP","3YO4AH2FPD6XG0OGOBTVFFK58DY0QT","","","img/food2.png","","6807","-1","0","1","1","1,0.7,0,1,0.7,0,0.7,0,1","0,1,0.7,0,1,0.7,1,0.7,0","3","",""
"","html-keyboard-response","19","61513","0.0-19.0","3OF2M9AATHAAT2U562RSEB76YAAKZE","AKJLAFX2M86TP","3YO4AH2FPD6XG0OGOBTVFFK58DY0QT","","null","<img src=""img/food2.png"" style=""width:200px;border:14px solid red;"">","null","","","","","","","","","",""
"","image-keyboard-response","20","64512","0.0-20.0","3OF2M9AATHAAT2U562RSEB76YAAKZE","AKJLAFX2M86TP","3YO4AH2FPD6XG0OGOBTVFFK58DY0QT","","","img/food6.png","","2999","-1","0","3","1","1,0.7,0,1,0.7,0,0.7,0,1","0,1,0.7,0,1,0.7,1,0.7,0","3","",""
"","html-keyboard-response","21","65513","0.0-21.0","3OF2M9AATHAAT2U562RSEB76YAAKZE","AKJLAFX2M86TP","3YO4AH2FPD6XG0OGOBTVFFK58DY0QT","","null","<img src=""img/food6.png"" style=""width:200px;border:14px solid red;"">","null","","","","","","","","","",""
"","image-keyboard-response","22","67514","0.0-22.0","3OF2M9AATHAAT2U562RSEB76YAAKZE","AKJLAFX2M86TP","3YO4AH2FPD6XG0OGOBTVFFK58DY0QT","","","img/food2.png","","2001","-1","0","1","1","1,0.7,0,1,0.7,0,0.7,0,1","0,1,0.7,0,1,0.7,1,0.7,0","3","",""
"","html-keyboard-response","23","68512","0.0-23.0","3OF2M9AATHAAT2U562RSEB76YAAKZE","AKJLAFX2M86TP","3YO4AH2FPD6XG0OGOBTVFFK58DY0QT","","null","<img src=""img/food2.png"" style=""width:200px;border:14px solid red;"">","null","","","","","","","","","",""
"","image-keyboard-response","24","71512","0.0-24.0","3OF2M9AATHAAT2U562RSEB76YAAKZE","AKJLAFX2M86TP","3YO4AH2FPD6XG0OGOBTVFFK58DY0QT","","","img/food5.png","","3000","-1","0","2","1","1,0.7,0,1,0.7,0,0.7,0,1","0,1,0.7,0,1,0.7,1,0.7,0","3","",""
"","html-keyboard-response","25","72513","0.0-25.0","3OF2M9AATHAAT2U562RSEB76YAAKZE","AKJLAFX2M86TP","3YO4AH2FPD6XG0OGOBTVFFK58DY0QT","","null","<img src=""img/food5.png"" style=""width:200px;border:14px solid red;"">","null","","","","","","","","","",""
"","image-keyboard-response","26","75513","0.0-26.0","3OF2M9AATHAAT2U562RSEB76YAAKZE","AKJLAFX2M86TP","3YO4AH2FPD6XG0OGOBTVFFK58DY0QT","","","img/food6.png","","3000","-1","0","3","1","1,0.7,0,1,0.7,0,0.7,0,1","0,1,0.7,0,1,0.7,1,0.7,0","3","",""
"","html-keyboard-response","27","76512","0.0-27.0","3OF2M9AATHAAT2U562RSEB76YAAKZE","AKJLAFX2M86TP","3YO4AH2FPD6XG0OGOBTVFFK58DY0QT","","null","<img src=""img/food6.png"" style=""width:200px;border:14px solid red;"">","null","","","","","","","","","",""
"","image-keyboard-response","28","79513","0.0-28.0","3OF2M9AATHAAT2U562RSEB76YAAKZE","AKJLAFX2M86TP","3YO4AH2FPD6XG0OGOBTVFFK58DY0QT","","","img/food2.png","","3000","-1","0","1","1","1,0.7,0,1,0.7,0,0.7,0,1","0,1,0.7,0,1,0.7,1,0.7,0","3","",""
"","html-keyboard-response","29","279580","0.0-29.0","3OF2M9AATHAAT2U562RSEB76YAAKZE","AKJLAFX2M86TP","3YO4AH2FPD6XG0OGOBTVFFK58DY0QT","","null","<img src=""img/food2.png"" style=""width:200px;border:14px solid red;"">","null","","","","","","","","","",""
"","image-keyboard-response","30","281585","0.0-30.0","3OF2M9AATHAAT2U562RSEB76YAAKZE","AKJLAFX2M86TP","3YO4AH2FPD6XG0OGOBTVFFK58DY0QT","","","img/food5.png","","2004","-1","0","2","1","1,0.7,0,1,0.7,0,0.7,0,1","0,1,0.7,0,1,0.7,1,0.7,0","3","",""
"","html-keyboard-response","31","281892","0.0-31.0","3OF2M9AATHAAT2U562RSEB76YAAKZE","AKJLAFX2M86TP","3YO4AH2FPD6XG0OGOBTVFFK58DY0QT","","null","<img src=""img/food5.png"" style=""width:200px;border:14px solid red;"">","null","","","","","","","","","",""
"","image-keyboard-response","32","283894","0.0-32.0","3OF2M9AATHAAT2U562RSEB76YAAKZE","AKJLAFX2M86TP","3YO4AH2FPD6XG0OGOBTVFFK58DY0QT","","","img/food5.png","","2001","-1","0","2","1","1,0.7,0,1,0.7,0,0.7,0,1","0,1,0.7,0,1,0.7,1,0.7,0","3","",""
"","html-keyboard-response","33","284196","0.0-33.0","3OF2M9AATHAAT2U562RSEB76YAAKZE","AKJLAFX2M86TP","3YO4AH2FPD6XG0OGOBTVFFK58DY0QT","","null","<img src=""img/food5.png"" style=""width:200px;border:14px solid red;"">","null","","","","","","","","","",""
"","image-keyboard-response","34","286199","0.0-34.0","3OF2M9AATHAAT2U562RSEB76YAAKZE","AKJLAFX2M86TP","3YO4AH2FPD6XG0OGOBTVFFK58DY0QT","","","img/food2.png","","2002","-1","0","1","1","1,0.7,0,1,0.7,0,0.7,0,1","0,1,0.7,0,1,0.7,1,0.7,0","3","",""
"","html-keyboard-response","35","286502","0.0-35.0","3OF2M9AATHAAT2U562RSEB76YAAKZE","AKJLAFX2M86TP","3YO4AH2FPD6XG0OGOBTVFFK58DY0QT","","null","<img src=""img/food2.png"" style=""width:200px;border:14px solid red;"">","null","","","","","","","","","",""
"","image-keyboard-response","36","288504","0.0-36.0","3OF2M9AATHAAT2U562RSEB76YAAKZE","AKJLAFX2M86TP","3YO4AH2FPD6XG0OGOBTVFFK58DY0QT","","","img/food2.png","","2002","-1","0","1","1","1,0.7,0,1,0.7,0,0.7,0,1","0,1,0.7,0,1,0.7,1,0.7,0","3","",""
"","html-keyboard-response","37","288807","0.0-37.0","3OF2M9AATHAAT2U562RSEB76YAAKZE","AKJLAFX2M86TP","3YO4AH2FPD6XG0OGOBTVFFK58DY0QT","","null","<img src=""img/food2.png"" style=""width:200px;border:14px solid red;"">","null","","","","","","","","","",""
"","image-keyboard-response","38","290809","0.0-38.0","3OF2M9AATHAAT2U562RSEB76YAAKZE","AKJLAFX2M86TP","3YO4AH2FPD6XG0OGOBTVFFK58DY0QT","","","img/food6.png","","2002","-1","0","3","1","1,0.7,0,1,0.7,0,0.7,0,1","0,1,0.7,0,1,0.7,1,0.7,0","3","",""
"","html-keyboard-response","39","291112","0.0-39.0","3OF2M9AATHAAT2U562RSEB76YAAKZE","AKJLAFX2M86TP","3YO4AH2FPD6XG0OGOBTVFFK58DY0QT","","null","<img src=""img/food6.png"" style=""width:200px;border:14px solid red;"">","null","","","","","","","","","",""
"","image-keyboard-response","40","293116","0.0-40.0","3OF2M9AATHAAT2U562RSEB76YAAKZE","AKJLAFX2M86TP","3YO4AH2FPD6XG0OGOBTVFFK58DY0QT","","","img/food6.png","","2003","-1","0","3","1","1,0.7,0,1,0.7,0,0.7,0,1","0,1,0.7,0,1,0.7,1,0.7,0","3","",""
"","html-keyboard-response","41","293418","0.0-41.0","3OF2M9AATHAAT2U562RSEB76YAAKZE","AKJLAFX2M86TP","3YO4AH2FPD6XG0OGOBTVFFK58DY0QT","","null","<img src=""img/food6.png"" style=""width:200px;border:14px solid red;"">","null","","","","","","","","","",""
"","image-keyboard-response","42","295421","0.0-42.0","3OF2M9AATHAAT2U562RSEB76YAAKZE","AKJLAFX2M86TP","3YO4AH2FPD6XG0OGOBTVFFK58DY0QT","","","img/food2.png","","2002","-1","0","1","1","1,0.7,0,1,0.7,0,0.7,0,1","0,1,0.7,0,1,0.7,1,0.7,0","3","",""
"","html-keyboard-response","43","295725","0.0-43.0","3OF2M9AATHAAT2U562RSEB76YAAKZE","AKJLAFX2M86TP","3YO4AH2FPD6XG0OGOBTVFFK58DY0QT","","null","<img src=""img/food2.png"" style=""width:200px;border:14px solid red;"">","null","","","","","","","","","",""
"","image-keyboard-response","44","297728","0.0-44.0","3OF2M9AATHAAT2U562RSEB76YAAKZE","AKJLAFX2M86TP","3YO4AH2FPD6XG0OGOBTVFFK58DY0QT","","","img/food5.png","","2002","-1","0","2","1","1,0.7,0,1,0.7,0,0.7,0,1","0,1,0.7,0,1,0.7,1,0.7,0","3","",""
"","html-keyboard-response","45","298031","0.0-45.0","3OF2M9AATHAAT2U562RSEB76YAAKZE","AKJLAFX2M86TP","3YO4AH2FPD6XG0OGOBTVFFK58DY0QT","","null","<img src=""img/food5.png"" style=""width:200px;border:14px solid red;"">","null","","","","","","","","","",""
"","image-keyboard-response","46","300035","0.0-46.0","3OF2M9AATHAAT2U562RSEB76YAAKZE","AKJLAFX2M86TP","3YO4AH2FPD6XG0OGOBTVFFK58DY0QT","","","img/food2.png","","2004","-1","0","1","1","1,0.7,0,1,0.7,0,0.7,0,1","0,1,0.7,0,1,0.7,1,0.7,0","3","",""
"","html-keyboard-response","47","300339","0.0-47.0","3OF2M9AATHAAT2U562RSEB76YAAKZE","AKJLAFX2M86TP","3YO4AH2FPD6XG0OGOBTVFFK58DY0QT","","null","<img src=""img/food2.png"" style=""width:200px;border:14px solid red;"">","null","","","","","","","","","",""
"","image-keyboard-response","48","302344","0.0-48.0","3OF2M9AATHAAT2U562RSEB76YAAKZE","AKJLAFX2M86TP","3YO4AH2FPD6XG0OGOBTVFFK58DY0QT","","","img/food2.png","","2004","-1","0","1","1","1,0.7,0,1,0.7,0,0.7,0,1","0,1,0.7,0,1,0.7,1,0.7,0","3","",""
"","html-keyboard-response","49","302647","0.0-49.0","3OF2M9AATHAAT2U562RSEB76YAAKZE","AKJLAFX2M86TP","3YO4AH2FPD6XG0OGOBTVFFK58DY0QT","","null","<img src=""img/food2.png"" style=""width:200px;border:14px solid red;"">","null","","","","","","","","","",""
"","image-keyboard-response","50","304653","0.0-50.0","3OF2M9AATHAAT2U562RSEB76YAAKZE","AKJLAFX2M86TP","3YO4AH2FPD6XG0OGOBTVFFK58DY0QT","","","img/food5.png","","2004","-1","0","2","1","1,0.7,0,1,0.7,0,0.7,0,1","0,1,0.7,0,1,0.7,1,0.7,0","3","",""
"","html-keyboard-response","51","304956","0.0-51.0","3OF2M9AATHAAT2U562RSEB76YAAKZE","AKJLAFX2M86TP","3YO4AH2FPD6XG0OGOBTVFFK58DY0QT","","null","<img src=""img/food5.png"" style=""width:200px;border:14px solid red;"">","null","","","","","","","","","",""
"","image-keyboard-response","52","306958","0.0-52.0","3OF2M9AATHAAT2U562RSEB76YAAKZE","AKJLAFX2M86TP","3YO4AH2FPD6XG0OGOBTVFFK58DY0QT","","","img/food2.png","","2001","-1","0","1","1","1,0.7,0,1,0.7,0,0.7,0,1","0,1,0.7,0,1,0.7,1,0.7,0","3","",""
"","html-keyboard-response","53","307262","0.0-53.0","3OF2M9AATHAAT2U562RSEB76YAAKZE","AKJLAFX2M86TP","3YO4AH2FPD6XG0OGOBTVFFK58DY0QT","","null","<img src=""img/food2.png"" style=""width:200px;border:14px solid red;"">","null","","","","","","","","","",""
"","image-keyboard-response","54","311476","0.0-54.0","3OF2M9AATHAAT2U562RSEB76YAAKZE","AKJLAFX2M86TP","3YO4AH2FPD6XG0OGOBTVFFK58DY0QT","","","img/food6.png","","4214","-1","0","3","1","1,0.7,0,1,0.7,0,0.7,0,1","0,1,0.7,0,1,0.7,1,0.7,0","3","",""
"","html-keyboard-response","55","317330","0.0-55.0","3OF2M9AATHAAT2U562RSEB76YAAKZE","AKJLAFX2M86TP","3YO4AH2FPD6XG0OGOBTVFFK58DY0QT","","null","<img src=""img/food6.png"" style=""width:200px;border:14px solid red;"">","null","","","","","","","","","",""
"","image-keyboard-response","56","319515","0.0-56.0","3OF2M9AATHAAT2U562RSEB76YAAKZE","AKJLAFX2M86TP","3YO4AH2FPD6XG0OGOBTVFFK58DY0QT","","","img/food5.png","","2184","-1","0","2","1","1,0.7,0,1,0.7,0,0.7,0,1","0,1,0.7,0,1,0.7,1,0.7,0","3","",""
"","html-keyboard-response","57","320513","0.0-57.0","3OF2M9AATHAAT2U562RSEB76YAAKZE","AKJLAFX2M86TP","3YO4AH2FPD6XG0OGOBTVFFK58DY0QT","","null","<img src=""img/food5.png"" style=""width:200px;border:14px solid red;"">","null","","","","","","","","","",""
"","image-keyboard-response","58","331457","0.0-58.0","3OF2M9AATHAAT2U562RSEB76YAAKZE","AKJLAFX2M86TP","3YO4AH2FPD6XG0OGOBTVFFK58DY0QT","","","img/food5.png","","10948","-1","0","2","1","1,0.7,0,1,0.7,0,0.7,0,1","0,1,0.7,0,1,0.7,1,0.7,0","3","",""
"","html-keyboard-response","59","331767","0.0-59.0","3OF2M9AATHAAT2U562RSEB76YAAKZE","AKJLAFX2M86TP","3YO4AH2FPD6XG0OGOBTVFFK58DY0QT","","null","<img src=""img/food5.png"" style=""width:200px;border:14px solid red;"">","null","","","","","","","","","",""
"","image-keyboard-response","60","333773","0.0-60.0","3OF2M9AATHAAT2U562RSEB76YAAKZE","AKJLAFX2M86TP","3YO4AH2FPD6XG0OGOBTVFFK58DY0QT","","","img/food2.png","","2004","-1","0","1","1","1,0.7,0,1,0.7,0,0.7,0,1","0,1,0.7,0,1,0.7,1,0.7,0","3","",""
"","html-keyboard-response","61","334077","0.0-61.0","3OF2M9AATHAAT2U562RSEB76YAAKZE","AKJLAFX2M86TP","3YO4AH2FPD6XG0OGOBTVFFK58DY0QT","","null","<img src=""img/food2.png"" style=""width:200px;border:14px solid red;"">","null","","","","","","","","","",""
"","image-keyboard-response","62","336079","0.0-62.0","3OF2M9AATHAAT2U562RSEB76YAAKZE","AKJLAFX2M86TP","3YO4AH2FPD6XG0OGOBTVFFK58DY0QT","","","img/food2.png","","2002","-1","0","1","1","1,0.7,0,1,0.7,0,0.7,0,1","0,1,0.7,0,1,0.7,1,0.7,0","3","",""
"","html-keyboard-response","63","336382","0.0-63.0","3OF2M9AATHAAT2U562RSEB76YAAKZE","AKJLAFX2M86TP","3YO4AH2FPD6XG0OGOBTVFFK58DY0QT","","null","<img src=""img/food2.png"" style=""width:200px;border:14px solid red;"">","null","","","","","","","","","",""
"","image-keyboard-response","64","338387","0.0-64.0","3OF2M9AATHAAT2U562RSEB76YAAKZE","AKJLAFX2M86TP","3YO4AH2FPD6XG0OGOBTVFFK58DY0QT","","","img/food5.png","","2004","-1","0","2","1","1,0.7,0,1,0.7,0,0.7,0,1","0,1,0.7,0,1,0.7,1,0.7,0","3","",""
"","html-keyboard-response","65","338692","0.0-65.0","3OF2M9AATHAAT2U562RSEB76YAAKZE","AKJLAFX2M86TP","3YO4AH2FPD6XG0OGOBTVFFK58DY0QT","","null","<img src=""img/food5.png"" style=""width:200px;border:14px solid red;"">","null","","","","","","","","","",""
"","image-keyboard-response","66","340695","0.0-66.0","3OF2M9AATHAAT2U562RSEB76YAAKZE","AKJLAFX2M86TP","3YO4AH2FPD6XG0OGOBTVFFK58DY0QT","","","img/food2.png","","2002","-1","0","1","1","1,0.7,0,1,0.7,0,0.7,0,1","0,1,0.7,0,1,0.7,1,0.7,0","3","",""
"","html-keyboard-response","67","341001","0.0-67.0","3OF2M9AATHAAT2U562RSEB76YAAKZE","AKJLAFX2M86TP","3YO4AH2FPD6XG0OGOBTVFFK58DY0QT","","null","<img src=""img/food2.png"" style=""width:200px;border:14px solid red;"">","null","","","","","","","","","",""
"","image-keyboard-response","68","343003","0.0-68.0","3OF2M9AATHAAT2U562RSEB76YAAKZE","AKJLAFX2M86TP","3YO4AH2FPD6XG0OGOBTVFFK58DY0QT","","","img/food5.png","","2001","-1","0","2","1","1,0.7,0,1,0.7,0,0.7,0,1","0,1,0.7,0,1,0.7,1,0.7,0","3","",""
"","html-keyboard-response","69","343306","0.0-69.0","3OF2M9AATHAAT2U562RSEB76YAAKZE","AKJLAFX2M86TP","3YO4AH2FPD6XG0OGOBTVFFK58DY0QT","","null","<img src=""img/food5.png"" style=""width:200px;border:14px solid red;"">","null","","","","","","","","","",""
"","image-keyboard-response","70","345309","0.0-70.0","3OF2M9AATHAAT2U562RSEB76YAAKZE","AKJLAFX2M86TP","3YO4AH2FPD6XG0OGOBTVFFK58DY0QT","","","img/food6.png","","2003","-1","0","3","1","1,0.7,0,1,0.7,0,0.7,0,1","0,1,0.7,0,1,0.7,1,0.7,0","3","",""
"","html-keyboard-response","71","345613","0.0-71.0","3OF2M9AATHAAT2U562RSEB76YAAKZE","AKJLAFX2M86TP","3YO4AH2FPD6XG0OGOBTVFFK58DY0QT","","null","<img src=""img/food6.png"" style=""width:200px;border:14px solid red;"">","null","","","","","","","","","",""
"","image-keyboard-response","72","347616","0.0-72.0","3OF2M9AATHAAT2U562RSEB76YAAKZE","AKJLAFX2M86TP","3YO4AH2FPD6XG0OGOBTVFFK58DY0QT","","","img/food5.png","","2003","-1","0","2","1","1,0.7,0,1,0.7,0,0.7,0,1","0,1,0.7,0,1,0.7,1,0.7,0","3","",""
"","html-keyboard-response","73","347922","0.0-73.0","3OF2M9AATHAAT2U562RSEB76YAAKZE","AKJLAFX2M86TP","3YO4AH2FPD6XG0OGOBTVFFK58DY0QT","","null","<img src=""img/food5.png"" style=""width:200px;border:14px solid red;"">","null","","","","","","","","","",""
"","image-keyboard-response","74","349925","0.0-74.0","3OF2M9AATHAAT2U562RSEB76YAAKZE","AKJLAFX2M86TP","3YO4AH2FPD6XG0OGOBTVFFK58DY0QT","","","img/food6.png","","2002","-1","0","3","1","1,0.7,0,1,0.7,0,0.7,0,1","0,1,0.7,0,1,0.7,1,0.7,0","3","",""
"","html-keyboard-response","75","350228","0.0-75.0","3OF2M9AATHAAT2U562RSEB76YAAKZE","AKJLAFX2M86TP","3YO4AH2FPD6XG0OGOBTVFFK58DY0QT","","null","<img src=""img/food6.png"" style=""width:200px;border:14px solid red;"">","null","","","","","","","","","",""
"","image-keyboard-response","76","352230","0.0-76.0","3OF2M9AATHAAT2U562RSEB76YAAKZE","AKJLAFX2M86TP","3YO4AH2FPD6XG0OGOBTVFFK58DY0QT","","","img/food6.png","","2001","-1","0","3","1","1,0.7,0,1,0.7,0,0.7,0,1","0,1,0.7,0,1,0.7,1,0.7,0","3","",""
"","html-keyboard-response","77","352531","0.0-77.0","3OF2M9AATHAAT2U562RSEB76YAAKZE","AKJLAFX2M86TP","3YO4AH2FPD6XG0OGOBTVFFK58DY0QT","","null","<img src=""img/food6.png"" style=""width:200px;border:14px solid red;"">","null","","","","","","","","","",""
"","image-keyboard-response","78","354535","0.0-78.0","3OF2M9AATHAAT2U562RSEB76YAAKZE","AKJLAFX2M86TP","3YO4AH2FPD6XG0OGOBTVFFK58DY0QT","","","img/food5.png","","2003","-1","0","2","1","1,0.7,0,1,0.7,0,0.7,0,1","0,1,0.7,0,1,0.7,1,0.7,0","3","",""
"","html-keyboard-response","79","354840","0.0-79.0","3OF2M9AATHAAT2U562RSEB76YAAKZE","AKJLAFX2M86TP","3YO4AH2FPD6XG0OGOBTVFFK58DY0QT","","null","<img src=""img/food5.png"" style=""width:200px;border:14px solid red;"">","null","","","","","","","","","",""
"","image-keyboard-response","80","356842","0.0-80.0","3OF2M9AATHAAT2U562RSEB76YAAKZE","AKJLAFX2M86TP","3YO4AH2FPD6XG0OGOBTVFFK58DY0QT","","","img/food6.png","","2002","-1","0","3","1","1,0.7,0,1,0.7,0,0.7,0,1","0,1,0.7,0,1,0.7,1,0.7,0","3","",""
"","html-keyboard-response","81","357144","0.0-81.0","3OF2M9AATHAAT2U562RSEB76YAAKZE","AKJLAFX2M86TP","3YO4AH2FPD6XG0OGOBTVFFK58DY0QT","","null","<img src=""img/food6.png"" style=""width:200px;border:14px solid red;"">","null","","","","","","","","","",""
"","image-keyboard-response","82","359147","0.0-82.0","3OF2M9AATHAAT2U562RSEB76YAAKZE","AKJLAFX2M86TP","3YO4AH2FPD6XG0OGOBTVFFK58DY0QT","","","img/food5.png","","2002","-1","0","2","1","1,0.7,0,1,0.7,0,0.7,0,1","0,1,0.7,0,1,0.7,1,0.7,0","3","",""
"","html-keyboard-response","83","359449","0.0-83.0","3OF2M9AATHAAT2U562RSEB76YAAKZE","AKJLAFX2M86TP","3YO4AH2FPD6XG0OGOBTVFFK58DY0QT","","null","<img src=""img/food5.png"" style=""width:200px;border:14px solid red;"">","null","","","","","","","","","",""
"","image-keyboard-response","84","361453","0.0-84.0","3OF2M9AATHAAT2U562RSEB76YAAKZE","AKJLAFX2M86TP","3YO4AH2FPD6XG0OGOBTVFFK58DY0QT","","","img/food6.png","","2003","-1","0","3","1","1,0.7,0,1,0.7,0,0.7,0,1","0,1,0.7,0,1,0.7,1,0.7,0","3","",""
"","html-keyboard-response","85","361756","0.0-85.0","3OF2M9AATHAAT2U562RSEB76YAAKZE","AKJLAFX2M86TP","3YO4AH2FPD6XG0OGOBTVFFK58DY0QT","","null","<img src=""img/food6.png"" style=""width:200px;border:14px solid red;"">","null","","","","","","","","","",""
"","image-keyboard-response","86","363757","0.0-86.0","3OF2M9AATHAAT2U562RSEB76YAAKZE","AKJLAFX2M86TP","3YO4AH2FPD6XG0OGOBTVFFK58DY0QT","","","img/food5.png","","2001","-1","0","2","1","1,0.7,0,1,0.7,0,0.7,0,1","0,1,0.7,0,1,0.7,1,0.7,0","3","",""
"","html-keyboard-response","87","364134","0.0-87.0","3OF2M9AATHAAT2U562RSEB76YAAKZE","AKJLAFX2M86TP","3YO4AH2FPD6XG0OGOBTVFFK58DY0QT","","null","<img src=""img/food5.png"" style=""width:200px;border:14px solid red;"">","null","","","","","","","","","",""
"","image-keyboard-response","88","366135","0.0-88.0","3OF2M9AATHAAT2U562RSEB76YAAKZE","AKJLAFX2M86TP","3YO4AH2FPD6XG0OGOBTVFFK58DY0QT","","","img/food2.png","","2001","-1","0","1","1","1,0.7,0,1,0.7,0,0.7,0,1","0,1,0.7,0,1,0.7,1,0.7,0","3","",""
"","html-keyboard-response","89","366440","0.0-89.0","3OF2M9AATHAAT2U562RSEB76YAAKZE","AKJLAFX2M86TP","3YO4AH2FPD6XG0OGOBTVFFK58DY0QT","","null","<img src=""img/food2.png"" style=""width:200px;border:14px solid red;"">","null","","","","","","","","","",""
"","image-keyboard-response","90","368444","0.0-90.0","3OF2M9AATHAAT2U562RSEB76YAAKZE","AKJLAFX2M86TP","3YO4AH2FPD6XG0OGOBTVFFK58DY0QT","","","img/food6.png","","2003","-1","0","3","1","1,0.7,0,1,0.7,0,0.7,0,1","0,1,0.7,0,1,0.7,1,0.7,0","3","",""
"","html-keyboard-response","91","368748","0.0-91.0","3OF2M9AATHAAT2U562RSEB76YAAKZE","AKJLAFX2M86TP","3YO4AH2FPD6XG0OGOBTVFFK58DY0QT","","null","<img src=""img/food6.png"" style=""width:200px;border:14px solid red;"">","null","","","","","","","","","",""
"","image-keyboard-response","92","370749","0.0-92.0","3OF2M9AATHAAT2U562RSEB76YAAKZE","AKJLAFX2M86TP","3YO4AH2FPD6XG0OGOBTVFFK58DY0QT","","","img/food5.png","","2001","-1","0","2","1","1,0.7,0,1,0.7,0,0.7,0,1","0,1,0.7,0,1,0.7,1,0.7,0","3","",""
"","html-keyboard-response","93","371050","0.0-93.0","3OF2M9AATHAAT2U562RSEB76YAAKZE","AKJLAFX2M86TP","3YO4AH2FPD6XG0OGOBTVFFK58DY0QT","","null","<img src=""img/food5.png"" style=""width:200px;border:14px solid red;"">","null","","","","","","","","","",""
"","image-keyboard-response","94","373053","0.0-94.0","3OF2M9AATHAAT2U562RSEB76YAAKZE","AKJLAFX2M86TP","3YO4AH2FPD6XG0OGOBTVFFK58DY0QT","","","img/food5.png","","2002","-1","0","2","1","1,0.7,0,1,0.7,0,0.7,0,1","0,1,0.7,0,1,0.7,1,0.7,0","3","",""
"","html-keyboard-response","95","373355","0.0-95.0","3OF2M9AATHAAT2U562RSEB76YAAKZE","AKJLAFX2M86TP","3YO4AH2FPD6XG0OGOBTVFFK58DY0QT","","null","<img src=""img/food5.png"" style=""width:200px;border:14px solid red;"">","null","","","","","","","","","",""
"","image-keyboard-response","96","375358","0.0-96.0","3OF2M9AATHAAT2U562RSEB76YAAKZE","AKJLAFX2M86TP","3YO4AH2FPD6XG0OGOBTVFFK58DY0QT","","","img/food6.png","","2003","-1","0","3","1","1,0.7,0,1,0.7,0,0.7,0,1","0,1,0.7,0,1,0.7,1,0.7,0","3","",""
"","html-keyboard-response","97","375659","0.0-97.0","3OF2M9AATHAAT2U562RSEB76YAAKZE","AKJLAFX2M86TP","3YO4AH2FPD6XG0OGOBTVFFK58DY0QT","","null","<img src=""img/food6.png"" style=""width:200px;border:14px solid red;"">","null","","","","","","","","","",""
"","image-keyboard-response","98","377660","0.0-98.0","3OF2M9AATHAAT2U562RSEB76YAAKZE","AKJLAFX2M86TP","3YO4AH2FPD6XG0OGOBTVFFK58DY0QT","","","img/food6.png","","2000","-1","0","3","1","1,0.7,0,1,0.7,0,0.7,0,1","0,1,0.7,0,1,0.7,1,0.7,0","3","",""
"","html-keyboard-response","99","377963","0.0-99.0","3OF2M9AATHAAT2U562RSEB76YAAKZE","AKJLAFX2M86TP","3YO4AH2FPD6XG0OGOBTVFFK58DY0QT","","null","<img src=""img/food6.png"" style=""width:200px;border:14px solid red;"">","null","","","","","","","","","",""
"","image-keyboard-response","100","379965","0.0-100.0","3OF2M9AATHAAT2U562RSEB76YAAKZE","AKJLAFX2M86TP","3YO4AH2FPD6XG0OGOBTVFFK58DY0QT","","","img/food2.png","","2002","-1","0","1","1","1,0.7,0,1,0.7,0,0.7,0,1","0,1,0.7,0,1,0.7,1,0.7,0","3","",""
"","html-keyboard-response","101","380274","0.0-101.0","3OF2M9AATHAAT2U562RSEB76YAAKZE","AKJLAFX2M86TP","3YO4AH2FPD6XG0OGOBTVFFK58DY0QT","","null","<img src=""img/food2.png"" style=""width:200px;border:14px solid red;"">","null","","","","","","","","","",""
"","image-keyboard-response","102","382276","0.0-102.0","3OF2M9AATHAAT2U562RSEB76YAAKZE","AKJLAFX2M86TP","3YO4AH2FPD6XG0OGOBTVFFK58DY0QT","","","img/food6.png","","2002","-1","0","3","1","1,0.7,0,1,0.7,0,0.7,0,1","0,1,0.7,0,1,0.7,1,0.7,0","3","",""
"","html-keyboard-response","103","382580","0.0-103.0","3OF2M9AATHAAT2U562RSEB76YAAKZE","AKJLAFX2M86TP","3YO4AH2FPD6XG0OGOBTVFFK58DY0QT","","null","<img src=""img/food6.png"" style=""width:200px;border:14px solid red;"">","null","","","","","","","","","",""
"","image-keyboard-response","104","384583","0.0-104.0","3OF2M9AATHAAT2U562RSEB76YAAKZE","AKJLAFX2M86TP","3YO4AH2FPD6XG0OGOBTVFFK58DY0QT","","","img/food6.png","","2002","-1","0","3","1","1,0.7,0,1,0.7,0,0.7,0,1","0,1,0.7,0,1,0.7,1,0.7,0","3","",""
"","html-keyboard-response","105","384885","0.0-105.0","3OF2M9AATHAAT2U562RSEB76YAAKZE","AKJLAFX2M86TP","3YO4AH2FPD6XG0OGOBTVFFK58DY0QT","","null","<img src=""img/food6.png"" style=""width:200px;border:14px solid red;"">","null","","","","","","","","","",""
"","image-keyboard-response","106","386888","0.0-106.0","3OF2M9AATHAAT2U562RSEB76YAAKZE","AKJLAFX2M86TP","3YO4AH2FPD6XG0OGOBTVFFK58DY0QT","","","img/food6.png","","2002","-1","0","3","1","1,0.7,0,1,0.7,0,0.7,0,1","0,1,0.7,0,1,0.7,1,0.7,0","3","",""
"","html-keyboard-response","107","387192","0.0-107.0","3OF2M9AATHAAT2U562RSEB76YAAKZE","AKJLAFX2M86TP","3YO4AH2FPD6XG0OGOBTVFFK58DY0QT","","null","<img src=""img/food6.png"" style=""width:200px;border:14px solid red;"">","null","","","","","","","","","",""
"","image-keyboard-response","108","389194","0.0-108.0","3OF2M9AATHAAT2U562RSEB76YAAKZE","AKJLAFX2M86TP","3YO4AH2FPD6XG0OGOBTVFFK58DY0QT","","","img/food6.png","","2002","-1","0","3","1","1,0.7,0,1,0.7,0,0.7,0,1","0,1,0.7,0,1,0.7,1,0.7,0","3","",""
"","html-keyboard-response","109","389498","0.0-109.0","3OF2M9AATHAAT2U562RSEB76YAAKZE","AKJLAFX2M86TP","3YO4AH2FPD6XG0OGOBTVFFK58DY0QT","","null","<img src=""img/food6.png"" style=""width:200px;border:14px solid red;"">","null","","","","","","","","","",""
"","image-keyboard-response","110","391501","0.0-110.0","3OF2M9AATHAAT2U562RSEB76YAAKZE","AKJLAFX2M86TP","3YO4AH2FPD6XG0OGOBTVFFK58DY0QT","","","img/food5.png","","2003","-1","0","2","1","1,0.7,0,1,0.7,0,0.7,0,1","0,1,0.7,0,1,0.7,1,0.7,0","3","",""
"","html-keyboard-response","111","391802","0.0-111.0","3OF2M9AATHAAT2U562RSEB76YAAKZE","AKJLAFX2M86TP","3YO4AH2FPD6XG0OGOBTVFFK58DY0QT","","null","<img src=""img/food5.png"" style=""width:200px;border:14px solid red;"">","null","","","","","","","","","",""
"","image-keyboard-response","112","393804","0.0-112.0","3OF2M9AATHAAT2U562RSEB76YAAKZE","AKJLAFX2M86TP","3YO4AH2FPD6XG0OGOBTVFFK58DY0QT","","","img/food6.png","","2001","-1","0","3","1","1,0.7,0,1,0.7,0,0.7,0,1","0,1,0.7,0,1,0.7,1,0.7,0","3","",""
"","html-keyboard-response","113","394106","0.0-113.0","3OF2M9AATHAAT2U562RSEB76YAAKZE","AKJLAFX2M86TP","3YO4AH2FPD6XG0OGOBTVFFK58DY0QT","","null","<img src=""img/food6.png"" style=""width:200px;border:14px solid red;"">","null","","","","","","","","","",""
"","image-keyboard-response","114","396110","0.0-114.0","3OF2M9AATHAAT2U562RSEB76YAAKZE","AKJLAFX2M86TP","3YO4AH2FPD6XG0OGOBTVFFK58DY0QT","","","img/food5.png","","2003","-1","0","2","1","1,0.7,0,1,0.7,0,0.7,0,1","0,1,0.7,0,1,0.7,1,0.7,0","3","",""
"","html-keyboard-response","115","396413","0.0-115.0","3OF2M9AATHAAT2U562RSEB76YAAKZE","AKJLAFX2M86TP","3YO4AH2FPD6XG0OGOBTVFFK58DY0QT","","null","<img src=""img/food5.png"" style=""width:200px;border:14px solid red;"">","null","","","","","","","","","",""
"","image-keyboard-response","116","398418","0.0-116.0","3OF2M9AATHAAT2U562RSEB76YAAKZE","AKJLAFX2M86TP","3YO4AH2FPD6XG0OGOBTVFFK58DY0QT","","","img/food2.png","","2004","-1","0","1","1","1,0.7,0,1,0.7,0,0.7,0,1","0,1,0.7,0,1,0.7,1,0.7,0","3","",""
"","html-keyboard-response","117","398722","0.0-117.0","3OF2M9AATHAAT2U562RSEB76YAAKZE","AKJLAFX2M86TP","3YO4AH2FPD6XG0OGOBTVFFK58DY0QT","","null","<img src=""img/food2.png"" style=""width:200px;border:14px solid red;"">","null","","","","","","","","","",""
"","image-keyboard-response","118","400724","0.0-118.0","3OF2M9AATHAAT2U562RSEB76YAAKZE","AKJLAFX2M86TP","3YO4AH2FPD6XG0OGOBTVFFK58DY0QT","","","img/food6.png","","2002","-1","0","3","1","1,0.7,0,1,0.7,0,0.7,0,1","0,1,0.7,0,1,0.7,1,0.7,0","3","",""
"","html-keyboard-response","119","401027","0.0-119.0","3OF2M9AATHAAT2U562RSEB76YAAKZE","AKJLAFX2M86TP","3YO4AH2FPD6XG0OGOBTVFFK58DY0QT","","null","<img src=""img/food6.png"" style=""width:200px;border:14px solid red;"">","null","","","","","","","","","",""
"","image-keyboard-response","120","403029","0.0-120.0","3OF2M9AATHAAT2U562RSEB76YAAKZE","AKJLAFX2M86TP","3YO4AH2FPD6XG0OGOBTVFFK58DY0QT","","","img/food5.png","","2002","-1","0","2","1","1,0.7,0,1,0.7,0,0.7,0,1","0,1,0.7,0,1,0.7,1,0.7,0","3","",""
"","html-keyboard-response","121","403330","0.0-121.0","3OF2M9AATHAAT2U562RSEB76YAAKZE","AKJLAFX2M86TP","3YO4AH2FPD6XG0OGOBTVFFK58DY0QT","","null","<img src=""img/food5.png"" style=""width:200px;border:14px solid red;"">","null","","","","","","","","","",""
"","image-keyboard-response","122","405333","0.0-122.0","3OF2M9AATHAAT2U562RSEB76YAAKZE","AKJLAFX2M86TP","3YO4AH2FPD6XG0OGOBTVFFK58DY0QT","","","img/food2.png","","2002","-1","0","1","1","1,0.7,0,1,0.7,0,0.7,0,1","0,1,0.7,0,1,0.7,1,0.7,0","3","",""
"","html-keyboard-response","123","405635","0.0-123.0","3OF2M9AATHAAT2U562RSEB76YAAKZE","AKJLAFX2M86TP","3YO4AH2FPD6XG0OGOBTVFFK58DY0QT","","null","<img src=""img/food2.png"" style=""width:200px;border:14px solid red;"">","null","","","","","","","","","",""
"","image-keyboard-response","124","407637","0.0-124.0","3OF2M9AATHAAT2U562RSEB76YAAKZE","AKJLAFX2M86TP","3YO4AH2FPD6XG0OGOBTVFFK58DY0QT","","","img/food6.png","","2002","-1","0","3","1","1,0.7,0,1,0.7,0,0.7,0,1","0,1,0.7,0,1,0.7,1,0.7,0","3","",""
"","html-keyboard-response","125","407940","0.0-125.0","3OF2M9AATHAAT2U562RSEB76YAAKZE","AKJLAFX2M86TP","3YO4AH2FPD6XG0OGOBTVFFK58DY0QT","","null","<img src=""img/food6.png"" style=""width:200px;border:14px solid red;"">","null","","","","","","","","","",""
"","image-keyboard-response","126","409943","0.0-126.0","3OF2M9AATHAAT2U562RSEB76YAAKZE","AKJLAFX2M86TP","3YO4AH2FPD6XG0OGOBTVFFK58DY0QT","","","img/food6.png","","2002","-1","0","3","1","1,0.7,0,1,0.7,0,0.7,0,1","0,1,0.7,0,1,0.7,1,0.7,0","3","",""
"","html-keyboard-response","127","410247","0.0-127.0","3OF2M9AATHAAT2U562RSEB76YAAKZE","AKJLAFX2M86TP","3YO4AH2FPD6XG0OGOBTVFFK58DY0QT","","null","<img src=""img/food6.png"" style=""width:200px;border:14px solid red;"">","null","","","","","","","","","",""
"","image-keyboard-response","128","412251","0.0-128.0","3OF2M9AATHAAT2U562RSEB76YAAKZE","AKJLAFX2M86TP","3YO4AH2FPD6XG0OGOBTVFFK58DY0QT","","","img/food5.png","","2003","-1","0","2","1","1,0.7,0,1,0.7,0,0.7,0,1","0,1,0.7,0,1,0.7,1,0.7,0","3","",""
"","html-keyboard-response","129","412554","0.0-129.0","3OF2M9AATHAAT2U562RSEB76YAAKZE","AKJLAFX2M86TP","3YO4AH2FPD6XG0OGOBTVFFK58DY0QT","","null","<img src=""img/food5.png"" style=""width:200px;border:14px solid red;"">","null","","","","","","","","","",""
"","image-keyboard-response","130","414555","0.0-130.0","3OF2M9AATHAAT2U562RSEB76YAAKZE","AKJLAFX2M86TP","3YO4AH2FPD6XG0OGOBTVFFK58DY0QT","","","img/food5.png","","2001","-1","0","2","1","1,0.7,0,1,0.7,0,0.7,0,1","0,1,0.7,0,1,0.7,1,0.7,0","3","",""
"","html-keyboard-response","131","414856","0.0-131.0","3OF2M9AATHAAT2U562RSEB76YAAKZE","AKJLAFX2M86TP","3YO4AH2FPD6XG0OGOBTVFFK58DY0QT","","null","<img src=""img/food5.png"" style=""width:200px;border:14px solid red;"">","null","","","","","","","","","",""
"","image-keyboard-response","132","416858","0.0-132.0","3OF2M9AATHAAT2U562RSEB76YAAKZE","AKJLAFX2M86TP","3YO4AH2FPD6XG0OGOBTVFFK58DY0QT","","","img/food2.png","","2002","-1","0","1","1","1,0.7,0,1,0.7,0,0.7,0,1","0,1,0.7,0,1,0.7,1,0.7,0","3","",""
"","html-keyboard-response","133","417160","0.0-133.0","3OF2M9AATHAAT2U562RSEB76YAAKZE","AKJLAFX2M86TP","3YO4AH2FPD6XG0OGOBTVFFK58DY0QT","","null","<img src=""img/food2.png"" style=""width:200px;border:14px solid red;"">","null","","","","","","","","","",""
"","image-keyboard-response","134","419164","0.0-134.0","3OF2M9AATHAAT2U562RSEB76YAAKZE","AKJLAFX2M86TP","3YO4AH2FPD6XG0OGOBTVFFK58DY0QT","","","img/food6.png","","2003","-1","0","3","1","1,0.7,0,1,0.7,0,0.7,0,1","0,1,0.7,0,1,0.7,1,0.7,0","3","",""
"","html-keyboard-response","135","419465","0.0-135.0","3OF2M9AATHAAT2U562RSEB76YAAKZE","AKJLAFX2M86TP","3YO4AH2FPD6XG0OGOBTVFFK58DY0QT","","null","<img src=""img/food6.png"" style=""width:200px;border:14px solid red;"">","null","","","","","","","","","",""
"","image-keyboard-response","136","421468","0.0-136.0","3OF2M9AATHAAT2U562RSEB76YAAKZE","AKJLAFX2M86TP","3YO4AH2FPD6XG0OGOBTVFFK58DY0QT","","","img/food2.png","","2002","-1","0","1","1","1,0.7,0,1,0.7,0,0.7,0,1","0,1,0.7,0,1,0.7,1,0.7,0","3","",""
"","html-keyboard-response","137","421771","0.0-137.0","3OF2M9AATHAAT2U562RSEB76YAAKZE","AKJLAFX2M86TP","3YO4AH2FPD6XG0OGOBTVFFK58DY0QT","","null","<img src=""img/food2.png"" style=""width:200px;border:14px solid red;"">","null","","","","","","","","","",""
"","image-keyboard-response","138","423774","0.0-138.0","3OF2M9AATHAAT2U562RSEB76YAAKZE","AKJLAFX2M86TP","3YO4AH2FPD6XG0OGOBTVFFK58DY0QT","","","img/food6.png","","2001","-1","0","3","1","1,0.7,0,1,0.7,0,0.7,0,1","0,1,0.7,0,1,0.7,1,0.7,0","3","",""
"","html-keyboard-response","139","424078","0.0-139.0","3OF2M9AATHAAT2U562RSEB76YAAKZE","AKJLAFX2M86TP","3YO4AH2FPD6XG0OGOBTVFFK58DY0QT","","null","<img src=""img/food6.png"" style=""width:200px;border:14px solid red;"">","null","","","","","","","","","",""
"","image-keyboard-response","140","426080","0.0-140.0","3OF2M9AATHAAT2U562RSEB76YAAKZE","AKJLAFX2M86TP","3YO4AH2FPD6XG0OGOBTVFFK58DY0QT","","","img/food2.png","","2002","-1","0","1","1","1,0.7,0,1,0.7,0,0.7,0,1","0,1,0.7,0,1,0.7,1,0.7,0","3","",""
"","html-keyboard-response","141","426383","0.0-141.0","3OF2M9AATHAAT2U562RSEB76YAAKZE","AKJLAFX2M86TP","3YO4AH2FPD6XG0OGOBTVFFK58DY0QT","","null","<img src=""img/food2.png"" style=""width:200px;border:14px solid red;"">","null","","","","","","","","","",""
"","image-keyboard-response","142","428385","0.0-142.0","3OF2M9AATHAAT2U562RSEB76YAAKZE","AKJLAFX2M86TP","3YO4AH2FPD6XG0OGOBTVFFK58DY0QT","","","img/food6.png","","2001","-1","0","3","1","1,0.7,0,1,0.7,0,0.7,0,1","0,1,0.7,0,1,0.7,1,0.7,0","3","",""
"","html-keyboard-response","143","428689","0.0-143.0","3OF2M9AATHAAT2U562RSEB76YAAKZE","AKJLAFX2M86TP","3YO4AH2FPD6XG0OGOBTVFFK58DY0QT","","null","<img src=""img/food6.png"" style=""width:200px;border:14px solid red;"">","null","","","","","","","","","",""
"","image-keyboard-response","144","430691","0.0-144.0","3OF2M9AATHAAT2U562RSEB76YAAKZE","AKJLAFX2M86TP","3YO4AH2FPD6XG0OGOBTVFFK58DY0QT","","","img/food5.png","","2002","-1","0","2","1","1,0.7,0,1,0.7,0,0.7,0,1","0,1,0.7,0,1,0.7,1,0.7,0","3","",""
"","html-keyboard-response","145","430992","0.0-145.0","3OF2M9AATHAAT2U562RSEB76YAAKZE","AKJLAFX2M86TP","3YO4AH2FPD6XG0OGOBTVFFK58DY0QT","","null","<img src=""img/food5.png"" style=""width:200px;border:14px solid red;"">","null","","","","","","","","","",""
"","image-keyboard-response","146","432993","0.0-146.0","3OF2M9AATHAAT2U562RSEB76YAAKZE","AKJLAFX2M86TP","3YO4AH2FPD6XG0OGOBTVFFK58DY0QT","","","img/food5.png","","2001","-1","0","2","1","1,0.7,0,1,0.7,0,0.7,0,1","0,1,0.7,0,1,0.7,1,0.7,0","3","",""
"","html-keyboard-response","147","433298","0.0-147.0","3OF2M9AATHAAT2U562RSEB76YAAKZE","AKJLAFX2M86TP","3YO4AH2FPD6XG0OGOBTVFFK58DY0QT","","null","<img src=""img/food5.png"" style=""width:200px;border:14px solid red;"">","null","","","","","","","","","",""
"","image-keyboard-response","148","435300","0.0-148.0","3OF2M9AATHAAT2U562RSEB76YAAKZE","AKJLAFX2M86TP","3YO4AH2FPD6XG0OGOBTVFFK58DY0QT","","","img/food2.png","","2001","-1","0","1","1","1,0.7,0,1,0.7,0,0.7,0,1","0,1,0.7,0,1,0.7,1,0.7,0","3","",""
"","html-keyboard-response","149","435603","0.0-149.0","3OF2M9AATHAAT2U562RSEB76YAAKZE","AKJLAFX2M86TP","3YO4AH2FPD6XG0OGOBTVFFK58DY0QT","","null","<img src=""img/food2.png"" style=""width:200px;border:14px solid red;"">","null","","","","","","","","","",""
"","image-keyboard-response","150","437605","0.0-150.0","3OF2M9AATHAAT2U562RSEB76YAAKZE","AKJLAFX2M86TP","3YO4AH2FPD6XG0OGOBTVFFK58DY0QT","","","img/food5.png","","2000","-1","0","2","1","1,0.7,0,1,0.7,0,0.7,0,1","0,1,0.7,0,1,0.7,1,0.7,0","3","",""
"","html-keyboard-response","151","437909","0.0-151.0","3OF2M9AATHAAT2U562RSEB76YAAKZE","AKJLAFX2M86TP","3YO4AH2FPD6XG0OGOBTVFFK58DY0QT","","null","<img src=""img/food5.png"" style=""width:200px;border:14px solid red;"">","null","","","","","","","","","",""
"","image-keyboard-response","152","439912","0.0-152.0","3OF2M9AATHAAT2U562RSEB76YAAKZE","AKJLAFX2M86TP","3YO4AH2FPD6XG0OGOBTVFFK58DY0QT","","","img/food2.png","","2002","-1","0","1","1","1,0.7,0,1,0.7,0,0.7,0,1","0,1,0.7,0,1,0.7,1,0.7,0","3","",""
"","html-keyboard-response","153","440256","0.0-153.0","3OF2M9AATHAAT2U562RSEB76YAAKZE","AKJLAFX2M86TP","3YO4AH2FPD6XG0OGOBTVFFK58DY0QT","","null","<img src=""img/food2.png"" style=""width:200px;border:14px solid red;"">","null","","","","","","","","","",""
"","image-keyboard-response","154","442261","0.0-154.0","3OF2M9AATHAAT2U562RSEB76YAAKZE","AKJLAFX2M86TP","3YO4AH2FPD6XG0OGOBTVFFK58DY0QT","","","img/food5.png","","2005","-1","0","2","1","1,0.7,0,1,0.7,0,0.7,0,1","0,1,0.7,0,1,0.7,1,0.7,0","3","",""
"","html-keyboard-response","155","442562","0.0-155.0","3OF2M9AATHAAT2U562RSEB76YAAKZE","AKJLAFX2M86TP","3YO4AH2FPD6XG0OGOBTVFFK58DY0QT","","null","<img src=""img/food5.png"" style=""width:200px;border:14px solid red;"">","null","","","","","","","","","",""
"","image-keyboard-response","156","444569","0.0-156.0","3OF2M9AATHAAT2U562RSEB76YAAKZE","AKJLAFX2M86TP","3YO4AH2FPD6XG0OGOBTVFFK58DY0QT","","","img/food5.png","","2006","-1","0","2","1","1,0.7,0,1,0.7,0,0.7,0,1","0,1,0.7,0,1,0.7,1,0.7,0","3","",""
"","html-keyboard-response","157","444873","0.0-157.0","3OF2M9AATHAAT2U562RSEB76YAAKZE","AKJLAFX2M86TP","3YO4AH2FPD6XG0OGOBTVFFK58DY0QT","","null","<img src=""img/food5.png"" style=""width:200px;border:14px solid red;"">","null","","","","","","","","","",""
"","image-keyboard-response","158","446876","0.0-158.0","3OF2M9AATHAAT2U562RSEB76YAAKZE","AKJLAFX2M86TP","3YO4AH2FPD6XG0OGOBTVFFK58DY0QT","","","img/food2.png","","2003","-1","0","1","1","1,0.7,0,1,0.7,0,0.7,0,1","0,1,0.7,0,1,0.7,1,0.7,0","3","",""
"","html-keyboard-response","159","447180","0.0-159.0","3OF2M9AATHAAT2U562RSEB76YAAKZE","AKJLAFX2M86TP","3YO4AH2FPD6XG0OGOBTVFFK58DY0QT","","null","<img src=""img/food2.png"" style=""width:200px;border:14px solid red;"">","null","","","","","","","","","",""
"","image-keyboard-response","160","449185","0.0-160.0","3OF2M9AATHAAT2U562RSEB76YAAKZE","AKJLAFX2M86TP","3YO4AH2FPD6XG0OGOBTVFFK58DY0QT","","","img/food6.png","","2003","-1","0","3","1","1,0.7,0,1,0.7,0,0.7,0,1","0,1,0.7,0,1,0.7,1,0.7,0","3","",""
"","html-keyboard-response","161","449491","0.0-161.0","3OF2M9AATHAAT2U562RSEB76YAAKZE","AKJLAFX2M86TP","3YO4AH2FPD6XG0OGOBTVFFK58DY0QT","","null","<img src=""img/food6.png"" style=""width:200px;border:14px solid red;"">","null","","","","","","","","","",""
"","image-keyboard-response","162","451495","0.0-162.0","3OF2M9AATHAAT2U562RSEB76YAAKZE","AKJLAFX2M86TP","3YO4AH2FPD6XG0OGOBTVFFK58DY0QT","","","img/food6.png","","2003","-1","0","3","1","1,0.7,0,1,0.7,0,0.7,0,1","0,1,0.7,0,1,0.7,1,0.7,0","3","",""
"","html-keyboard-response","163","451798","0.0-163.0","3OF2M9AATHAAT2U562RSEB76YAAKZE","AKJLAFX2M86TP","3YO4AH2FPD6XG0OGOBTVFFK58DY0QT","","null","<img src=""img/food6.png"" style=""width:200px;border:14px solid red;"">","null","","","","","","","","","",""
"","image-keyboard-response","164","453800","0.0-164.0","3OF2M9AATHAAT2U562RSEB76YAAKZE","AKJLAFX2M86TP","3YO4AH2FPD6XG0OGOBTVFFK58DY0QT","","","img/food2.png","","2001","-1","0","1","1","1,0.7,0,1,0.7,0,0.7,0,1","0,1,0.7,0,1,0.7,1,0.7,0","3","",""
"","html-keyboard-response","165","454101","0.0-165.0","3OF2M9AATHAAT2U562RSEB76YAAKZE","AKJLAFX2M86TP","3YO4AH2FPD6XG0OGOBTVFFK58DY0QT","","null","<img src=""img/food2.png"" style=""width:200px;border:14px solid red;"">","null","","","","","","","","","",""
"","image-keyboard-response","166","456103","0.0-166.0","3OF2M9AATHAAT2U562RSEB76YAAKZE","AKJLAFX2M86TP","3YO4AH2FPD6XG0OGOBTVFFK58DY0QT","","","img/food5.png","","2002","-1","0","2","1","1,0.7,0,1,0.7,0,0.7,0,1","0,1,0.7,0,1,0.7,1,0.7,0","3","",""
"","html-keyboard-response","167","456406","0.0-167.0","3OF2M9AATHAAT2U562RSEB76YAAKZE","AKJLAFX2M86TP","3YO4AH2FPD6XG0OGOBTVFFK58DY0QT","","null","<img src=""img/food5.png"" style=""width:200px;border:14px solid red;"">","null","","","","","","","","","",""
"","image-keyboard-response","168","458407","0.0-168.0","3OF2M9AATHAAT2U562RSEB76YAAKZE","AKJLAFX2M86TP","3YO4AH2FPD6XG0OGOBTVFFK58DY0QT","","","img/food5.png","","2000","-1","0","2","1","1,0.7,0,1,0.7,0,0.7,0,1","0,1,0.7,0,1,0.7,1,0.7,0","3","",""
"","html-keyboard-response","169","458710","0.0-169.0","3OF2M9AATHAAT2U562RSEB76YAAKZE","AKJLAFX2M86TP","3YO4AH2FPD6XG0OGOBTVFFK58DY0QT","","null","<img src=""img/food5.png"" style=""width:200px;border:14px solid red;"">","null","","","","","","","","","",""
"","image-keyboard-response","170","460712","0.0-170.0","3OF2M9AATHAAT2U562RSEB76YAAKZE","AKJLAFX2M86TP","3YO4AH2FPD6XG0OGOBTVFFK58DY0QT","","","img/food5.png","","2001","-1","0","2","1","1,0.7,0,1,0.7,0,0.7,0,1","0,1,0.7,0,1,0.7,1,0.7,0","3","",""
"","html-keyboard-response","171","461015","0.0-171.0","3OF2M9AATHAAT2U562RSEB76YAAKZE","AKJLAFX2M86TP","3YO4AH2FPD6XG0OGOBTVFFK58DY0QT","","null","<img src=""img/food5.png"" style=""width:200px;border:14px solid red;"">","null","","","","","","","","","",""
"","image-keyboard-response","172","463018","0.0-172.0","3OF2M9AATHAAT2U562RSEB76YAAKZE","AKJLAFX2M86TP","3YO4AH2FPD6XG0OGOBTVFFK58DY0QT","","","img/food6.png","","2002","-1","0","3","1","1,0.7,0,1,0.7,0,0.7,0,1","0,1,0.7,0,1,0.7,1,0.7,0","3","",""
"","html-keyboard-response","173","463323","0.0-173.0","3OF2M9AATHAAT2U562RSEB76YAAKZE","AKJLAFX2M86TP","3YO4AH2FPD6XG0OGOBTVFFK58DY0QT","","null","<img src=""img/food6.png"" style=""width:200px;border:14px solid red;"">","null","","","","","","","","","",""
"","image-keyboard-response","174","465324","0.0-174.0","3OF2M9AATHAAT2U562RSEB76YAAKZE","AKJLAFX2M86TP","3YO4AH2FPD6XG0OGOBTVFFK58DY0QT","","","img/food6.png","","2001","-1","0","3","1","1,0.7,0,1,0.7,0,0.7,0,1","0,1,0.7,0,1,0.7,1,0.7,0","3","",""
"","html-keyboard-response","175","465626","0.0-175.0","3OF2M9AATHAAT2U562RSEB76YAAKZE","AKJLAFX2M86TP","3YO4AH2FPD6XG0OGOBTVFFK58DY0QT","","null","<img src=""img/food6.png"" style=""width:200px;border:14px solid red;"">","null","","","","","","","","","",""
"","image-keyboard-response","176","467628","0.0-176.0","3OF2M9AATHAAT2U562RSEB76YAAKZE","AKJLAFX2M86TP","3YO4AH2FPD6XG0OGOBTVFFK58DY0QT","","","img/food2.png","","2002","-1","0","1","1","1,0.7,0,1,0.7,0,0.7,0,1","0,1,0.7,0,1,0.7,1,0.7,0","3","",""
"","html-keyboard-response","177","467952","0.0-177.0","3OF2M9AATHAAT2U562RSEB76YAAKZE","AKJLAFX2M86TP","3YO4AH2FPD6XG0OGOBTVFFK58DY0QT","","null","<img src=""img/food2.png"" style=""width:200px;border:14px solid red;"">","null","","","","","","","","","",""
"","image-keyboard-response","178","469957","0.0-178.0","3OF2M9AATHAAT2U562RSEB76YAAKZE","AKJLAFX2M86TP","3YO4AH2FPD6XG0OGOBTVFFK58DY0QT","","","img/food2.png","","2004","-1","0","1","1","1,0.7,0,1,0.7,0,0.7,0,1","0,1,0.7,0,1,0.7,1,0.7,0","3","",""
"","html-keyboard-response","179","470261","0.0-179.0","3OF2M9AATHAAT2U562RSEB76YAAKZE","AKJLAFX2M86TP","3YO4AH2FPD6XG0OGOBTVFFK58DY0QT","","null","<img src=""img/food2.png"" style=""width:200px;border:14px solid red;"">","null","","","","","","","","","",""
"","image-keyboard-response","180","472271","0.0-180.0","3OF2M9AATHAAT2U562RSEB76YAAKZE","AKJLAFX2M86TP","3YO4AH2FPD6XG0OGOBTVFFK58DY0QT","","","img/food2.png","","2009","-1","0","1","1","1,0.7,0,1,0.7,0,0.7,0,1","0,1,0.7,0,1,0.7,1,0.7,0","3","",""
"","html-keyboard-response","181","472574","0.0-181.0","3OF2M9AATHAAT2U562RSEB76YAAKZE","AKJLAFX2M86TP","3YO4AH2FPD6XG0OGOBTVFFK58DY0QT","","null","<img src=""img/food2.png"" style=""width:200px;border:14px solid red;"">","null","","","","","","","","","",""
"","html-keyboard-response","182","485276","0.0-182.0","3OF2M9AATHAAT2U562RSEB76YAAKZE","AKJLAFX2M86TP","3YO4AH2FPD6XG0OGOBTVFFK58DY0QT","","","","","","","","","","","","","",""
"","instructions","183","488666","0.0-183.0","3OF2M9AATHAAT2U562RSEB76YAAKZE","AKJLAFX2M86TP","3YO4AH2FPD6XG0OGOBTVFFK58DY0QT","[{""page_index"":0,""viewing_time"":1878},{""page_index"":1,""viewing_time"":1507}]","3386","","","","","","","","","","","",""
"","image-keyboard-response","184","489671","0.0-184.0","3OF2M9AATHAAT2U562RSEB76YAAKZE","AKJLAFX2M86TP","3YO4AH2FPD6XG0OGOBTVFFK58DY0QT","","","img/food4.png","","1005","-1","0","1","2","1,0.7,0,1,0.7,0,0.7,0,1","1,0.7,0,1,0.7,0,0.7,0,1","1","true",""
"","html-keyboard-response","185","489979","0.0-185.0","3OF2M9AATHAAT2U562RSEB76YAAKZE","AKJLAFX2M86TP","3YO4AH2FPD6XG0OGOBTVFFK58DY0QT","","null","<img src=""img/food4.png"" style=""width:200px;border:14px solid red;"">","null","","","","","","","","","",""
"","html-keyboard-response","186","492053","0.0-186.0-0.0","3OF2M9AATHAAT2U562RSEB76YAAKZE","AKJLAFX2M86TP","3YO4AH2FPD6XG0OGOBTVFFK58DY0QT","","","","","","","","","","","","","",""
"","image-keyboard-response","187","493058","0.0-187.0","3OF2M9AATHAAT2U562RSEB76YAAKZE","AKJLAFX2M86TP","3YO4AH2FPD6XG0OGOBTVFFK58DY0QT","","","img/food4.png","","1004","-1","0","1","2","1,0.7,0,1,0.7,0,0.7,0,1","1,0.7,0,1,0.7,0,0.7,0,1","1","true",""
"","html-keyboard-response","188","493362","0.0-188.0","3OF2M9AATHAAT2U562RSEB76YAAKZE","AKJLAFX2M86TP","3YO4AH2FPD6XG0OGOBTVFFK58DY0QT","","null","<img src=""img/food4.png"" style=""width:200px;border:14px solid red;"">","null","","","","","","","","","",""
"","html-keyboard-response","189","495081","0.0-189.0-0.0","3OF2M9AATHAAT2U562RSEB76YAAKZE","AKJLAFX2M86TP","3YO4AH2FPD6XG0OGOBTVFFK58DY0QT","","","","","","","","","","","","","",""
"","image-keyboard-response","190","496084","0.0-190.0","3OF2M9AATHAAT2U562RSEB76YAAKZE","AKJLAFX2M86TP","3YO4AH2FPD6XG0OGOBTVFFK58DY0QT","","","img/food3.png","","1002","-1","0","2","2","1,0.7,0,1,0.7,0,0.7,0,1","1,0.7,0,1,0.7,0,0.7,0,1","1","true",""
"","html-keyboard-response","191","496428","0.0-191.0","3OF2M9AATHAAT2U562RSEB76YAAKZE","AKJLAFX2M86TP","3YO4AH2FPD6XG0OGOBTVFFK58DY0QT","","null","<img src=""img/food3.png"" style=""width:200px;border:14px solid red;"">","null","","","","","","","","","",""
"","html-keyboard-response","192","497453","0.0-192.0-0.0","3OF2M9AATHAAT2U562RSEB76YAAKZE","AKJLAFX2M86TP","3YO4AH2FPD6XG0OGOBTVFFK58DY0QT","","","","","","","","","","","","","",""
"","image-keyboard-response","193","498456","0.0-193.0","3OF2M9AATHAAT2U562RSEB76YAAKZE","AKJLAFX2M86TP","3YO4AH2FPD6XG0OGOBTVFFK58DY0QT","","","img/food4.png","","1002","-1","0","1","2","1,0.7,0,1,0.7,0,0.7,0,1","1,0.7,0,1,0.7,0,0.7,0,1","1","true",""
"","html-keyboard-response","194","498759","0.0-194.0","3OF2M9AATHAAT2U562RSEB76YAAKZE","AKJLAFX2M86TP","3YO4AH2FPD6XG0OGOBTVFFK58DY0QT","","null","<img src=""img/food4.png"" style=""width:200px;border:14px solid red;"">","null","","","","","","","","","",""
"","html-keyboard-response","195","499677","0.0-195.0-0.0","3OF2M9AATHAAT2U562RSEB76YAAKZE","AKJLAFX2M86TP","3YO4AH2FPD6XG0OGOBTVFFK58DY0QT","","","","","","","","","","","","","",""
"","image-keyboard-response","196","500682","0.0-196.0","3OF2M9AATHAAT2U562RSEB76YAAKZE","AKJLAFX2M86TP","3YO4AH2FPD6XG0OGOBTVFFK58DY0QT","","","img/food4.png","","1005","-1","0","1","2","1,0.7,0,1,0.7,0,0.7,0,1","1,0.7,0,1,0.7,0,0.7,0,1","1","true",""
"","html-keyboard-response","197","506144","0.0-197.0","3OF2M9AATHAAT2U562RSEB76YAAKZE","AKJLAFX2M86TP","3YO4AH2FPD6XG0OGOBTVFFK58DY0QT","","null","<img src=""img/food4.png"" style=""width:200px;border:14px solid red;"">","null","","","","","","","","","",""
"","html-keyboard-response","198","912675","0.0-198.0-0.0","3OF2M9AATHAAT2U562RSEB76YAAKZE","AKJLAFX2M86TP","3YO4AH2FPD6XG0OGOBTVFFK58DY0QT","","","","","","","","","","","","","",""
"","image-keyboard-response","199","913681","0.0-199.0","3OF2M9AATHAAT2U562RSEB76YAAKZE","AKJLAFX2M86TP","3YO4AH2FPD6XG0OGOBTVFFK58DY0QT","","","img/food3.png","","1004","-1","0","2","2","1,0.7,0,1,0.7,0,0.7,0,1","1,0.7,0,1,0.7,0,0.7,0,1","1","true",""
"","html-keyboard-response","200","913986","0.0-200.0","3OF2M9AATHAAT2U562RSEB76YAAKZE","AKJLAFX2M86TP","3YO4AH2FPD6XG0OGOBTVFFK58DY0QT","","null","<img src=""img/food3.png"" style=""width:200px;border:14px solid red;"">","null","","","","","","","","","",""
"","html-keyboard-response","201","915112","0.0-201.0-0.0","3OF2M9AATHAAT2U562RSEB76YAAKZE","AKJLAFX2M86TP","3YO4AH2FPD6XG0OGOBTVFFK58DY0QT","","","","","","","","","","","","","",""
"","image-keyboard-response","202","916118","0.0-202.0","3OF2M9AATHAAT2U562RSEB76YAAKZE","AKJLAFX2M86TP","3YO4AH2FPD6XG0OGOBTVFFK58DY0QT","","","img/food3.png","","1005","-1","0","2","2","1,0.7,0,1,0.7,0,0.7,0,1","1,0.7,0,1,0.7,0,0.7,0,1","1","true",""
"","html-keyboard-response","203","916423","0.0-203.0","3OF2M9AATHAAT2U562RSEB76YAAKZE","AKJLAFX2M86TP","3YO4AH2FPD6XG0OGOBTVFFK58DY0QT","","null","<img src=""img/food3.png"" style=""width:200px;border:14px solid red;"">","null","","","","","","","","","",""
"","html-keyboard-response","204","917279","0.0-204.0-0.0","3OF2M9AATHAAT2U562RSEB76YAAKZE","AKJLAFX2M86TP","3YO4AH2FPD6XG0OGOBTVFFK58DY0QT","","","","","","","","","","","","","",""
"","image-keyboard-response","205","918283","0.0-205.0","3OF2M9AATHAAT2U562RSEB76YAAKZE","AKJLAFX2M86TP","3YO4AH2FPD6XG0OGOBTVFFK58DY0QT","","","img/food4.png","","1003","-1","0","1","2","1,0.7,0,1,0.7,0,0.7,0,1","1,0.7,0,1,0.7,0,0.7,0,1","1","true",""
"","html-keyboard-response","206","918586","0.0-206.0","3OF2M9AATHAAT2U562RSEB76YAAKZE","AKJLAFX2M86TP","3YO4AH2FPD6XG0OGOBTVFFK58DY0QT","","null","<img src=""img/food4.png"" style=""width:200px;border:14px solid red;"">","null","","","","","","","","","",""
"","html-keyboard-response","207","919339","0.0-207.0-0.0","3OF2M9AATHAAT2U562RSEB76YAAKZE","AKJLAFX2M86TP","3YO4AH2FPD6XG0OGOBTVFFK58DY0QT","","","","","","","","","","","","","",""
"","image-keyboard-response","208","920342","0.0-208.0","3OF2M9AATHAAT2U562RSEB76YAAKZE","AKJLAFX2M86TP","3YO4AH2FPD6XG0OGOBTVFFK58DY0QT","","","img/food4.png","","1002","-1","0","1","2","1,0.7,0,1,0.7,0,0.7,0,1","1,0.7,0,1,0.7,0,0.7,0,1","1","true",""
"","html-keyboard-response","209","920645","0.0-209.0","3OF2M9AATHAAT2U562RSEB76YAAKZE","AKJLAFX2M86TP","3YO4AH2FPD6XG0OGOBTVFFK58DY0QT","","null","<img src=""img/food4.png"" style=""width:200px;border:14px solid red;"">","null","","","","","","","","","",""
"","html-keyboard-response","210","921425","0.0-210.0-0.0","3OF2M9AATHAAT2U562RSEB76YAAKZE","AKJLAFX2M86TP","3YO4AH2FPD6XG0OGOBTVFFK58DY0QT","","","","","","","","","","","","","",""
"","image-keyboard-response","211","922431","0.0-211.0","3OF2M9AATHAAT2U562RSEB76YAAKZE","AKJLAFX2M86TP","3YO4AH2FPD6XG0OGOBTVFFK58DY0QT","","","img/food1.png","","1004","-1","0","3","2","1,0.7,0,1,0.7,0,0.7,0,1","1,0.7,0,1,0.7,0,0.7,0,1","1","true",""
"","html-keyboard-response","212","922735","0.0-212.0","3OF2M9AATHAAT2U562RSEB76YAAKZE","AKJLAFX2M86TP","3YO4AH2FPD6XG0OGOBTVFFK58DY0QT","","null","<img src=""img/food1.png"" style=""width:200px;border:14px solid red;"">","null","","","","","","","","","",""
"","html-keyboard-response","213","923503","0.0-213.0-0.0","3OF2M9AATHAAT2U562RSEB76YAAKZE","AKJLAFX2M86TP","3YO4AH2FPD6XG0OGOBTVFFK58DY0QT","","","","","","","","","","","","","",""
"","image-keyboard-response","214","924507","0.0-214.0","3OF2M9AATHAAT2U562RSEB76YAAKZE","AKJLAFX2M86TP","3YO4AH2FPD6XG0OGOBTVFFK58DY0QT","","","img/food3.png","","1003","-1","0","2","2","1,0.7,0,1,0.7,0,0.7,0,1","1,0.7,0,1,0.7,0,0.7,0,1","1","true",""
"","html-keyboard-response","215","924809","0.0-215.0","3OF2M9AATHAAT2U562RSEB76YAAKZE","AKJLAFX2M86TP","3YO4AH2FPD6XG0OGOBTVFFK58DY0QT","","null","<img src=""img/food3.png"" style=""width:200px;border:14px solid red;"">","null","","","","","","","","","",""
"","html-keyboard-response","216","925565","0.0-216.0-0.0","3OF2M9AATHAAT2U562RSEB76YAAKZE","AKJLAFX2M86TP","3YO4AH2FPD6XG0OGOBTVFFK58DY0QT","","","","","","","","","","","","","",""
"","image-keyboard-response","217","926571","0.0-217.0","3OF2M9AATHAAT2U562RSEB76YAAKZE","AKJLAFX2M86TP","3YO4AH2FPD6XG0OGOBTVFFK58DY0QT","","","img/food4.png","","1004","-1","0","1","2","1,0.7,0,1,0.7,0,0.7,0,1","1,0.7,0,1,0.7,0,0.7,0,1","1","true",""
"","html-keyboard-response","218","926877","0.0-218.0","3OF2M9AATHAAT2U562RSEB76YAAKZE","AKJLAFX2M86TP","3YO4AH2FPD6XG0OGOBTVFFK58DY0QT","","null","<img src=""img/food4.png"" style=""width:200px;border:14px solid red;"">","null","","","","","","","","","",""
"","html-keyboard-response","219","927494","0.0-219.0-0.0","3OF2M9AATHAAT2U562RSEB76YAAKZE","AKJLAFX2M86TP","3YO4AH2FPD6XG0OGOBTVFFK58DY0QT","","","","","","","","","","","","","",""
"","image-keyboard-response","220","928498","0.0-220.0","3OF2M9AATHAAT2U562RSEB76YAAKZE","AKJLAFX2M86TP","3YO4AH2FPD6XG0OGOBTVFFK58DY0QT","","","img/food4.png","","1003","-1","0","1","2","1,0.7,0,1,0.7,0,0.7,0,1","1,0.7,0,1,0.7,0,0.7,0,1","1","true",""
"","html-keyboard-response","221","928801","0.0-221.0","3OF2M9AATHAAT2U562RSEB76YAAKZE","AKJLAFX2M86TP","3YO4AH2FPD6XG0OGOBTVFFK58DY0QT","","null","<img src=""img/food4.png"" style=""width:200px;border:14px solid red;"">","null","","","","","","","","","",""
"","html-keyboard-response","222","929500","0.0-222.0-0.0","3OF2M9AATHAAT2U562RSEB76YAAKZE","AKJLAFX2M86TP","3YO4AH2FPD6XG0OGOBTVFFK58DY0QT","","","","","","","","","","","","","",""
"","image-keyboard-response","223","930506","0.0-223.0","3OF2M9AATHAAT2U562RSEB76YAAKZE","AKJLAFX2M86TP","3YO4AH2FPD6XG0OGOBTVFFK58DY0QT","","","img/food1.png","","1005","-1","0","3","2","1,0.7,0,1,0.7,0,0.7,0,1","1,0.7,0,1,0.7,0,0.7,0,1","1","true",""
"","html-keyboard-response","224","930808","0.0-224.0","3OF2M9AATHAAT2U562RSEB76YAAKZE","AKJLAFX2M86TP","3YO4AH2FPD6XG0OGOBTVFFK58DY0QT","","null","<img src=""img/food1.png"" style=""width:200px;border:14px solid red;"">","null","","","","","","","","","",""
"","html-keyboard-response","225","931535","0.0-225.0-0.0","3OF2M9AATHAAT2U562RSEB76YAAKZE","AKJLAFX2M86TP","3YO4AH2FPD6XG0OGOBTVFFK58DY0QT","","","","","","","","","","","","","",""
"","image-keyboard-response","226","932541","0.0-226.0","3OF2M9AATHAAT2U562RSEB76YAAKZE","AKJLAFX2M86TP","3YO4AH2FPD6XG0OGOBTVFFK58DY0QT","","","img/food4.png","","1005","-1","0","1","2","1,0.7,0,1,0.7,0,0.7,0,1","1,0.7,0,1,0.7,0,0.7,0,1","1","true",""
"","html-keyboard-response","227","932845","0.0-227.0","3OF2M9AATHAAT2U562RSEB76YAAKZE","AKJLAFX2M86TP","3YO4AH2FPD6XG0OGOBTVFFK58DY0QT","","null","<img src=""img/food4.png"" style=""width:200px;border:14px solid red;"">","null","","","","","","","","","",""
"","html-keyboard-response","228","933631","0.0-228.0-0.0","3OF2M9AATHAAT2U562RSEB76YAAKZE","AKJLAFX2M86TP","3YO4AH2FPD6XG0OGOBTVFFK58DY0QT","","","","","","","","","","","","","",""
"","image-keyboard-response","229","934640","0.0-229.0","3OF2M9AATHAAT2U562RSEB76YAAKZE","AKJLAFX2M86TP","3YO4AH2FPD6XG0OGOBTVFFK58DY0QT","","","img/food3.png","","1007","-1","0","2","2","1,0.7,0,1,0.7,0,0.7,0,1","1,0.7,0,1,0.7,0,0.7,0,1","1","true",""
"","html-keyboard-response","230","934944","0.0-230.0","3OF2M9AATHAAT2U562RSEB76YAAKZE","AKJLAFX2M86TP","3YO4AH2FPD6XG0OGOBTVFFK58DY0QT","","null","<img src=""img/food3.png"" style=""width:200px;border:14px solid red;"">","null","","","","","","","","","",""
"","html-keyboard-response","231","935720","0.0-231.0-0.0","3OF2M9AATHAAT2U562RSEB76YAAKZE","AKJLAFX2M86TP","3YO4AH2FPD6XG0OGOBTVFFK58DY0QT","","","","","","","","","","","","","",""
"","image-keyboard-response","232","936775","0.0-232.0","3OF2M9AATHAAT2U562RSEB76YAAKZE","AKJLAFX2M86TP","3YO4AH2FPD6XG0OGOBTVFFK58DY0QT","","","img/food3.png","","1054","-1","0","2","2","1,0.7,0,1,0.7,0,0.7,0,1","1,0.7,0,1,0.7,0,0.7,0,1","1","true",""
"","html-keyboard-response","233","937077","0.0-233.0","3OF2M9AATHAAT2U562RSEB76YAAKZE","AKJLAFX2M86TP","3YO4AH2FPD6XG0OGOBTVFFK58DY0QT","","null","<img src=""img/food3.png"" style=""width:200px;border:14px solid red;"">","null","","","","","","","","","",""
"","html-keyboard-response","234","937990","0.0-234.0-0.0","3OF2M9AATHAAT2U562RSEB76YAAKZE","AKJLAFX2M86TP","3YO4AH2FPD6XG0OGOBTVFFK58DY0QT","","","","","","","","","","","","","",""
"","image-keyboard-response","235","938998","0.0-235.0","3OF2M9AATHAAT2U562RSEB76YAAKZE","AKJLAFX2M86TP","3YO4AH2FPD6XG0OGOBTVFFK58DY0QT","","","img/food4.png","","1005","-1","0","1","2","1,0.7,0,1,0.7,0,0.7,0,1","1,0.7,0,1,0.7,0,0.7,0,1","1","true",""
"","html-keyboard-response","236","939301","0.0-236.0","3OF2M9AATHAAT2U562RSEB76YAAKZE","AKJLAFX2M86TP","3YO4AH2FPD6XG0OGOBTVFFK58DY0QT","","null","<img src=""img/food4.png"" style=""width:200px;border:14px solid red;"">","null","","","","","","","","","",""
"","html-keyboard-response","237","940110","0.0-237.0-0.0","3OF2M9AATHAAT2U562RSEB76YAAKZE","AKJLAFX2M86TP","3YO4AH2FPD6XG0OGOBTVFFK58DY0QT","","","","","","","","","","","","","",""
"","image-keyboard-response","238","941116","0.0-238.0","3OF2M9AATHAAT2U562RSEB76YAAKZE","AKJLAFX2M86TP","3YO4AH2FPD6XG0OGOBTVFFK58DY0QT","","","img/food3.png","","1005","-1","0","2","2","1,0.7,0,1,0.7,0,0.7,0,1","1,0.7,0,1,0.7,0,0.7,0,1","1","true",""
"","html-keyboard-response","239","941422","0.0-239.0","3OF2M9AATHAAT2U562RSEB76YAAKZE","AKJLAFX2M86TP","3YO4AH2FPD6XG0OGOBTVFFK58DY0QT","","null","<img src=""img/food3.png"" style=""width:200px;border:14px solid red;"">","null","","","","","","","","","",""
"","html-keyboard-response","240","942355","0.0-240.0-0.0","3OF2M9AATHAAT2U562RSEB76YAAKZE","AKJLAFX2M86TP","3YO4AH2FPD6XG0OGOBTVFFK58DY0QT","","","","","","","","","","","","","",""
"","image-keyboard-response","241","943359","0.0-241.0","3OF2M9AATHAAT2U562RSEB76YAAKZE","AKJLAFX2M86TP","3YO4AH2FPD6XG0OGOBTVFFK58DY0QT","","","img/food1.png","","1004","-1","0","3","2","1,0.7,0,1,0.7,0,0.7,0,1","1,0.7,0,1,0.7,0,0.7,0,1","1","true",""
"","html-keyboard-response","242","943662","0.0-242.0","3OF2M9AATHAAT2U562RSEB76YAAKZE","AKJLAFX2M86TP","3YO4AH2FPD6XG0OGOBTVFFK58DY0QT","","null","<img src=""img/food1.png"" style=""width:200px;border:14px solid red;"">","null","","","","","","","","","",""
"","html-keyboard-response","243","944490","0.0-243.0-0.0","3OF2M9AATHAAT2U562RSEB76YAAKZE","AKJLAFX2M86TP","3YO4AH2FPD6XG0OGOBTVFFK58DY0QT","","","","","","","","","","","","","",""
"","image-keyboard-response","244","945493","0.0-244.0","3OF2M9AATHAAT2U562RSEB76YAAKZE","AKJLAFX2M86TP","3YO4AH2FPD6XG0OGOBTVFFK58DY0QT","","","img/food1.png","","1002","-1","0","3","2","1,0.7,0,1,0.7,0,0.7,0,1","1,0.7,0,1,0.7,0,0.7,0,1","1","true",""
"","html-keyboard-response","245","945820","0.0-245.0","3OF2M9AATHAAT2U562RSEB76YAAKZE","AKJLAFX2M86TP","3YO4AH2FPD6XG0OGOBTVFFK58DY0QT","","null","<img src=""img/food1.png"" style=""width:200px;border:14px solid red;"">","null","","","","","","","","","",""
"","html-keyboard-response","246","946872","0.0-246.0-0.0","3OF2M9AATHAAT2U562RSEB76YAAKZE","AKJLAFX2M86TP","3YO4AH2FPD6XG0OGOBTVFFK58DY0QT","","","","","","","","","","","","","",""
"","image-keyboard-response","247","947879","0.0-247.0","3OF2M9AATHAAT2U562RSEB76YAAKZE","AKJLAFX2M86TP","3YO4AH2FPD6XG0OGOBTVFFK58DY0QT","","","img/food4.png","","1006","-1","0","1","2","1,0.7,0,1,0.7,0,0.7,0,1","1,0.7,0,1,0.7,0,0.7,0,1","1","true",""
"","html-keyboard-response","248","948182","0.0-248.0","3OF2M9AATHAAT2U562RSEB76YAAKZE","AKJLAFX2M86TP","3YO4AH2FPD6XG0OGOBTVFFK58DY0QT","","null","<img src=""img/food4.png"" style=""width:200px;border:14px solid red;"">","null","","","","","","","","","",""
"","html-keyboard-response","249","949047","0.0-249.0-0.0","3OF2M9AATHAAT2U562RSEB76YAAKZE","AKJLAFX2M86TP","3YO4AH2FPD6XG0OGOBTVFFK58DY0QT","","","","","","","","","","","","","",""
"","image-keyboard-response","250","950062","0.0-250.0","3OF2M9AATHAAT2U562RSEB76YAAKZE","AKJLAFX2M86TP","3YO4AH2FPD6XG0OGOBTVFFK58DY0QT","","","img/food1.png","","1014","-1","0","3","2","1,0.7,0,1,0.7,0,0.7,0,1","1,0.7,0,1,0.7,0,0.7,0,1","1","true",""
"","html-keyboard-response","251","950375","0.0-251.0","3OF2M9AATHAAT2U562RSEB76YAAKZE","AKJLAFX2M86TP","3YO4AH2FPD6XG0OGOBTVFFK58DY0QT","","null","<img src=""img/food1.png"" style=""width:200px;border:14px solid red;"">","null","","","","","","","","","",""
"","html-keyboard-response","252","951309","0.0-252.0-0.0","3OF2M9AATHAAT2U562RSEB76YAAKZE","AKJLAFX2M86TP","3YO4AH2FPD6XG0OGOBTVFFK58DY0QT","","","","","","","","","","","","","",""
"","image-keyboard-response","253","952312","0.0-253.0","3OF2M9AATHAAT2U562RSEB76YAAKZE","AKJLAFX2M86TP","3YO4AH2FPD6XG0OGOBTVFFK58DY0QT","","","img/food1.png","","1002","-1","0","3","2","1,0.7,0,1,0.7,0,0.7,0,1","1,0.7,0,1,0.7,0,0.7,0,1","1","true",""
"","html-keyboard-response","254","952616","0.0-254.0","3OF2M9AATHAAT2U562RSEB76YAAKZE","AKJLAFX2M86TP","3YO4AH2FPD6XG0OGOBTVFFK58DY0QT","","null","<img src=""img/food1.png"" style=""width:200px;border:14px solid red;"">","null","","","","","","","","","",""
"","html-keyboard-response","255","953486","0.0-255.0-0.0","3OF2M9AATHAAT2U562RSEB76YAAKZE","AKJLAFX2M86TP","3YO4AH2FPD6XG0OGOBTVFFK58DY0QT","","","","","","","","","","","","","",""
"","image-keyboard-response","256","954489","0.0-256.0","3OF2M9AATHAAT2U562RSEB76YAAKZE","AKJLAFX2M86TP","3YO4AH2FPD6XG0OGOBTVFFK58DY0QT","","","img/food1.png","","1002","-1","0","3","2","1,0.7,0,1,0.7,0,0.7,0,1","1,0.7,0,1,0.7,0,0.7,0,1","1","true",""
"","html-keyboard-response","257","954791","0.0-257.0","3OF2M9AATHAAT2U562RSEB76YAAKZE","AKJLAFX2M86TP","3YO4AH2FPD6XG0OGOBTVFFK58DY0QT","","null","<img src=""img/food1.png"" style=""width:200px;border:14px solid red;"">","null","","","","","","","","","",""
"","html-keyboard-response","258","955516","0.0-258.0-0.0","3OF2M9AATHAAT2U562RSEB76YAAKZE","AKJLAFX2M86TP","3YO4AH2FPD6XG0OGOBTVFFK58DY0QT","","","","","","","","","","","","","",""
"","image-keyboard-response","259","956520","0.0-259.0","3OF2M9AATHAAT2U562RSEB76YAAKZE","AKJLAFX2M86TP","3YO4AH2FPD6XG0OGOBTVFFK58DY0QT","","","img/food3.png","","1003","-1","0","2","2","1,0.7,0,1,0.7,0,0.7,0,1","1,0.7,0,1,0.7,0,0.7,0,1","1","true",""
"","html-keyboard-response","260","956822","0.0-260.0","3OF2M9AATHAAT2U562RSEB76YAAKZE","AKJLAFX2M86TP","3YO4AH2FPD6XG0OGOBTVFFK58DY0QT","","null","<img src=""img/food3.png"" style=""width:200px;border:14px solid red;"">","null","","","","","","","","","",""
"","html-keyboard-response","261","957653","0.0-261.0-0.0","3OF2M9AATHAAT2U562RSEB76YAAKZE","AKJLAFX2M86TP","3YO4AH2FPD6XG0OGOBTVFFK58DY0QT","","","","","","","","","","","","","",""
"","image-keyboard-response","262","958658","0.0-262.0","3OF2M9AATHAAT2U562RSEB76YAAKZE","AKJLAFX2M86TP","3YO4AH2FPD6XG0OGOBTVFFK58DY0QT","","","img/food4.png","","1007","-1","0","1","2","1,0.7,0,1,0.7,0,0.7,0,1","1,0.7,0,1,0.7,0,0.7,0,1","1","true",""
"","html-keyboard-response","263","958965","0.0-263.0","3OF2M9AATHAAT2U562RSEB76YAAKZE","AKJLAFX2M86TP","3YO4AH2FPD6XG0OGOBTVFFK58DY0QT","","null","<img src=""img/food4.png"" style=""width:200px;border:14px solid red;"">","null","","","","","","","","","",""
"","html-keyboard-response","264","959685","0.0-264.0-0.0","3OF2M9AATHAAT2U562RSEB76YAAKZE","AKJLAFX2M86TP","3YO4AH2FPD6XG0OGOBTVFFK58DY0QT","","","","","","","","","","","","","",""
"","image-keyboard-response","265","960688","0.0-265.0","3OF2M9AATHAAT2U562RSEB76YAAKZE","AKJLAFX2M86TP","3YO4AH2FPD6XG0OGOBTVFFK58DY0QT","","","img/food4.png","","1002","-1","0","1","2","1,0.7,0,1,0.7,0,0.7,0,1","1,0.7,0,1,0.7,0,0.7,0,1","1","true",""
"","html-keyboard-response","266","960991","0.0-266.0","3OF2M9AATHAAT2U562RSEB76YAAKZE","AKJLAFX2M86TP","3YO4AH2FPD6XG0OGOBTVFFK58DY0QT","","null","<img src=""img/food4.png"" style=""width:200px;border:14px solid red;"">","null","","","","","","","","","",""
"","html-keyboard-response","267","970453","0.0-267.0-0.0","3OF2M9AATHAAT2U562RSEB76YAAKZE","AKJLAFX2M86TP","3YO4AH2FPD6XG0OGOBTVFFK58DY0QT","","","","","","","","","","","","","",""
"","image-keyboard-response","268","971457","0.0-268.0","3OF2M9AATHAAT2U562RSEB76YAAKZE","AKJLAFX2M86TP","3YO4AH2FPD6XG0OGOBTVFFK58DY0QT","","","img/food4.png","","1003","-1","0","1","2","1,0.7,0,1,0.7,0,0.7,0,1","1,0.7,0,1,0.7,0,0.7,0,1","1","true",""
"","html-keyboard-response","269","971759","0.0-269.0","3OF2M9AATHAAT2U562RSEB76YAAKZE","AKJLAFX2M86TP","3YO4AH2FPD6XG0OGOBTVFFK58DY0QT","","null","<img src=""img/food4.png"" style=""width:200px;border:14px solid red;"">","null","","","","","","","","","",""
"","html-keyboard-response","270","972870","0.0-270.0-0.0","3OF2M9AATHAAT2U562RSEB76YAAKZE","AKJLAFX2M86TP","3YO4AH2FPD6XG0OGOBTVFFK58DY0QT","","","","","","","","","","","","","",""
"","image-keyboard-response","271","973880","0.0-271.0","3OF2M9AATHAAT2U562RSEB76YAAKZE","AKJLAFX2M86TP","3YO4AH2FPD6XG0OGOBTVFFK58DY0QT","","","img/food4.png","","1009","-1","0","1","2","1,0.7,0,1,0.7,0,0.7,0,1","1,0.7,0,1,0.7,0,0.7,0,1","1","true",""
"","html-keyboard-response","272","974183","0.0-272.0","3OF2M9AATHAAT2U562RSEB76YAAKZE","AKJLAFX2M86TP","3YO4AH2FPD6XG0OGOBTVFFK58DY0QT","","null","<img src=""img/food4.png"" style=""width:200px;border:14px solid red;"">","null","","","","","","","","","",""
"","html-keyboard-response","273","975352","0.0-273.0-0.0","3OF2M9AATHAAT2U562RSEB76YAAKZE","AKJLAFX2M86TP","3YO4AH2FPD6XG0OGOBTVFFK58DY0QT","","","","","","","","","","","","","",""
"","image-keyboard-response","274","976361","0.0-274.0","3OF2M9AATHAAT2U562RSEB76YAAKZE","AKJLAFX2M86TP","3YO4AH2FPD6XG0OGOBTVFFK58DY0QT","","","img/food4.png","","1007","-1","0","1","2","1,0.7,0,1,0.7,0,0.7,0,1","1,0.7,0,1,0.7,0,0.7,0,1","1","true",""
"","html-keyboard-response","275","976664","0.0-275.0","3OF2M9AATHAAT2U562RSEB76YAAKZE","AKJLAFX2M86TP","3YO4AH2FPD6XG0OGOBTVFFK58DY0QT","","null","<img src=""img/food4.png"" style=""width:200px;border:14px solid red;"">","null","","","","","","","","","",""
"","html-keyboard-response","276","981714","0.0-276.0-0.0","3OF2M9AATHAAT2U562RSEB76YAAKZE","AKJLAFX2M86TP","3YO4AH2FPD6XG0OGOBTVFFK58DY0QT","","","","","","","","","","","","","",""
"","image-keyboard-response","277","982716","0.0-277.0","3OF2M9AATHAAT2U562RSEB76YAAKZE","AKJLAFX2M86TP","3YO4AH2FPD6XG0OGOBTVFFK58DY0QT","","","img/food1.png","","1002","-1","0","3","2","1,0.7,0,1,0.7,0,0.7,0,1","1,0.7,0,1,0.7,0,0.7,0,1","1","true",""
"","html-keyboard-response","278","983018","0.0-278.0","3OF2M9AATHAAT2U562RSEB76YAAKZE","AKJLAFX2M86TP","3YO4AH2FPD6XG0OGOBTVFFK58DY0QT","","null","<img src=""img/food1.png"" style=""width:200px;border:14px solid red;"">","null","","","","","","","","","",""
"","html-keyboard-response","279","984078","0.0-279.0-0.0","3OF2M9AATHAAT2U562RSEB76YAAKZE","AKJLAFX2M86TP","3YO4AH2FPD6XG0OGOBTVFFK58DY0QT","","","","","","","","","","","","","",""
"","image-keyboard-response","280","985081","0.0-280.0","3OF2M9AATHAAT2U562RSEB76YAAKZE","AKJLAFX2M86TP","3YO4AH2FPD6XG0OGOBTVFFK58DY0QT","","","img/food3.png","","1002","-1","0","2","2","1,0.7,0,1,0.7,0,0.7,0,1","1,0.7,0,1,0.7,0,0.7,0,1","1","true",""
"","html-keyboard-response","281","985382","0.0-281.0","3OF2M9AATHAAT2U562RSEB76YAAKZE","AKJLAFX2M86TP","3YO4AH2FPD6XG0OGOBTVFFK58DY0QT","","null","<img src=""img/food3.png"" style=""width:200px;border:14px solid red;"">","null","","","","","","","","","",""
"","html-keyboard-response","282","986627","0.0-282.0-0.0","3OF2M9AATHAAT2U562RSEB76YAAKZE","AKJLAFX2M86TP","3YO4AH2FPD6XG0OGOBTVFFK58DY0QT","","","","","","","","","","","","","",""
"","image-keyboard-response","283","987629","0.0-283.0","3OF2M9AATHAAT2U562RSEB76YAAKZE","AKJLAFX2M86TP","3YO4AH2FPD6XG0OGOBTVFFK58DY0QT","","","img/food1.png","","1003","-1","0","3","2","1,0.7,0,1,0.7,0,0.7,0,1","1,0.7,0,1,0.7,0,0.7,0,1","1","true",""
"","html-keyboard-response","284","987933","0.0-284.0","3OF2M9AATHAAT2U562RSEB76YAAKZE","AKJLAFX2M86TP","3YO4AH2FPD6XG0OGOBTVFFK58DY0QT","","null","<img src=""img/food1.png"" style=""width:200px;border:14px solid red;"">","null","","","","","","","","","",""
"","html-keyboard-response","285","989479","0.0-285.0-0.0","3OF2M9AATHAAT2U562RSEB76YAAKZE","AKJLAFX2M86TP","3YO4AH2FPD6XG0OGOBTVFFK58DY0QT","","","","","","","","","","","","","",""
"","image-keyboard-response","286","990487","0.0-286.0","3OF2M9AATHAAT2U562RSEB76YAAKZE","AKJLAFX2M86TP","3YO4AH2FPD6XG0OGOBTVFFK58DY0QT","","","img/food4.png","","1007","-1","0","1","2","1,0.7,0,1,0.7,0,0.7,0,1","1,0.7,0,1,0.7,0,0.7,0,1","1","true",""
"","html-keyboard-response","287","990789","0.0-287.0","3OF2M9AATHAAT2U562RSEB76YAAKZE","AKJLAFX2M86TP","3YO4AH2FPD6XG0OGOBTVFFK58DY0QT","","null","<img src=""img/food4.png"" style=""width:200px;border:14px solid red;"">","null","","","","","","","","","",""
"","html-keyboard-response","288","995927","0.0-288.0-0.0","3OF2M9AATHAAT2U562RSEB76YAAKZE","AKJLAFX2M86TP","3YO4AH2FPD6XG0OGOBTVFFK58DY0QT","","","","","","","","","","","","","",""
"","image-keyboard-response","289","996933","0.0-289.0","3OF2M9AATHAAT2U562RSEB76YAAKZE","AKJLAFX2M86TP","3YO4AH2FPD6XG0OGOBTVFFK58DY0QT","","","img/food3.png","","1004","-1","0","2","2","1,0.7,0,1,0.7,0,0.7,0,1","1,0.7,0,1,0.7,0,0.7,0,1","1","true",""
"","html-keyboard-response","290","997236","0.0-290.0","3OF2M9AATHAAT2U562RSEB76YAAKZE","AKJLAFX2M86TP","3YO4AH2FPD6XG0OGOBTVFFK58DY0QT","","null","<img src=""img/food3.png"" style=""width:200px;border:14px solid red;"">","null","","","","","","","","","",""
"","html-keyboard-response","291","998379","0.0-291.0-0.0","3OF2M9AATHAAT2U562RSEB76YAAKZE","AKJLAFX2M86TP","3YO4AH2FPD6XG0OGOBTVFFK58DY0QT","","","","","","","","","","","","","",""
"","image-keyboard-response","292","999386","0.0-292.0","3OF2M9AATHAAT2U562RSEB76YAAKZE","AKJLAFX2M86TP","3YO4AH2FPD6XG0OGOBTVFFK58DY0QT","","","img/food3.png","","1006","-1","0","2","2","1,0.7,0,1,0.7,0,0.7,0,1","1,0.7,0,1,0.7,0,0.7,0,1","1","true",""
"","html-keyboard-response","293","999694","0.0-293.0","3OF2M9AATHAAT2U562RSEB76YAAKZE","AKJLAFX2M86TP","3YO4AH2FPD6XG0OGOBTVFFK58DY0QT","","null","<img src=""img/food3.png"" style=""width:200px;border:14px solid red;"">","null","","","","","","","","","",""
"","html-keyboard-response","294","1000161","0.0-294.0-0.0","3OF2M9AATHAAT2U562RSEB76YAAKZE","AKJLAFX2M86TP","3YO4AH2FPD6XG0OGOBTVFFK58DY0QT","","","","","","","","","","","","","",""
"","image-keyboard-response","295","1001166","0.0-295.0","3OF2M9AATHAAT2U562RSEB76YAAKZE","AKJLAFX2M86TP","3YO4AH2FPD6XG0OGOBTVFFK58DY0QT","","","img/food1.png","","1005","-1","0","3","2","1,0.7,0,1,0.7,0,0.7,0,1","1,0.7,0,1,0.7,0,0.7,0,1","1","true",""
"","html-keyboard-response","296","1001473","0.0-296.0","3OF2M9AATHAAT2U562RSEB76YAAKZE","AKJLAFX2M86TP","3YO4AH2FPD6XG0OGOBTVFFK58DY0QT","","null","<img src=""img/food1.png"" style=""width:200px;border:14px solid red;"">","null","","","","","","","","","",""
"","html-keyboard-response","297","1002345","0.0-297.0-0.0","3OF2M9AATHAAT2U562RSEB76YAAKZE","AKJLAFX2M86TP","3YO4AH2FPD6XG0OGOBTVFFK58DY0QT","","","","","","","","","","","","","",""
"","image-keyboard-response","298","1003348","0.0-298.0","3OF2M9AATHAAT2U562RSEB76YAAKZE","AKJLAFX2M86TP","3YO4AH2FPD6XG0OGOBTVFFK58DY0QT","","","img/food1.png","","1003","-1","0","3","2","1,0.7,0,1,0.7,0,0.7,0,1","1,0.7,0,1,0.7,0,0.7,0,1","1","true",""
"","html-keyboard-response","299","1003656","0.0-299.0","3OF2M9AATHAAT2U562RSEB76YAAKZE","AKJLAFX2M86TP","3YO4AH2FPD6XG0OGOBTVFFK58DY0QT","","null","<img src=""img/food1.png"" style=""width:200px;border:14px solid red;"">","null","","","","","","","","","",""
"","html-keyboard-response","300","1004497","0.0-300.0-0.0","3OF2M9AATHAAT2U562RSEB76YAAKZE","AKJLAFX2M86TP","3YO4AH2FPD6XG0OGOBTVFFK58DY0QT","","","","","","","","","","","","","",""
"","image-keyboard-response","301","1005507","0.0-301.0","3OF2M9AATHAAT2U562RSEB76YAAKZE","AKJLAFX2M86TP","3YO4AH2FPD6XG0OGOBTVFFK58DY0QT","","","img/food3.png","","1009","-1","0","2","2","1,0.7,0,1,0.7,0,0.7,0,1","1,0.7,0,1,0.7,0,0.7,0,1","1","true",""
"","html-keyboard-response","302","1005810","0.0-302.0","3OF2M9AATHAAT2U562RSEB76YAAKZE","AKJLAFX2M86TP","3YO4AH2FPD6XG0OGOBTVFFK58DY0QT","","null","<img src=""img/food3.png"" style=""width:200px;border:14px solid red;"">","null","","","","","","","","","",""
"","html-keyboard-response","303","1006767","0.0-303.0-0.0","3OF2M9AATHAAT2U562RSEB76YAAKZE","AKJLAFX2M86TP","3YO4AH2FPD6XG0OGOBTVFFK58DY0QT","","","","","","","","","","","","","",""
"","image-keyboard-response","304","1007772","0.0-304.0","3OF2M9AATHAAT2U562RSEB76YAAKZE","AKJLAFX2M86TP","3YO4AH2FPD6XG0OGOBTVFFK58DY0QT","","","img/food4.png","","1004","-1","0","1","2","1,0.7,0,1,0.7,0,0.7,0,1","1,0.7,0,1,0.7,0,0.7,0,1","1","true",""
"","html-keyboard-response","305","1008078","0.0-305.0","3OF2M9AATHAAT2U562RSEB76YAAKZE","AKJLAFX2M86TP","3YO4AH2FPD6XG0OGOBTVFFK58DY0QT","","null","<img src=""img/food4.png"" style=""width:200px;border:14px solid red;"">","null","","","","","","","","","",""
"","html-keyboard-response","306","1008884","0.0-306.0-0.0","3OF2M9AATHAAT2U562RSEB76YAAKZE","AKJLAFX2M86TP","3YO4AH2FPD6XG0OGOBTVFFK58DY0QT","","","","","","","","","","","","","",""
"","image-keyboard-response","307","1009892","0.0-307.0","3OF2M9AATHAAT2U562RSEB76YAAKZE","AKJLAFX2M86TP","3YO4AH2FPD6XG0OGOBTVFFK58DY0QT","","","img/food4.png","","1008","-1","0","1","2","1,0.7,0,1,0.7,0,0.7,0,1","1,0.7,0,1,0.7,0,0.7,0,1","1","true",""
"","html-keyboard-response","308","1010197","0.0-308.0","3OF2M9AATHAAT2U562RSEB76YAAKZE","AKJLAFX2M86TP","3YO4AH2FPD6XG0OGOBTVFFK58DY0QT","","null","<img src=""img/food4.png"" style=""width:200px;border:14px solid red;"">","null","","","","","","","","","",""
"","html-keyboard-response","309","1011002","0.0-309.0-0.0","3OF2M9AATHAAT2U562RSEB76YAAKZE","AKJLAFX2M86TP","3YO4AH2FPD6XG0OGOBTVFFK58DY0QT","","","","","","","","","","","","","",""
"","image-keyboard-response","310","1012017","0.0-310.0","3OF2M9AATHAAT2U562RSEB76YAAKZE","AKJLAFX2M86TP","3YO4AH2FPD6XG0OGOBTVFFK58DY0QT","","","img/food3.png","","1014","-1","0","2","2","1,0.7,0,1,0.7,0,0.7,0,1","1,0.7,0,1,0.7,0,0.7,0,1","1","true",""
"","html-keyboard-response","311","1012328","0.0-311.0","3OF2M9AATHAAT2U562RSEB76YAAKZE","AKJLAFX2M86TP","3YO4AH2FPD6XG0OGOBTVFFK58DY0QT","","null","<img src=""img/food3.png"" style=""width:200px;border:14px solid red;"">","null","","","","","","","","","",""
"","html-keyboard-response","312","1013203","0.0-312.0-0.0","3OF2M9AATHAAT2U562RSEB76YAAKZE","AKJLAFX2M86TP","3YO4AH2FPD6XG0OGOBTVFFK58DY0QT","","","","","","","","","","","","","",""
"","image-keyboard-response","313","1014211","0.0-313.0","3OF2M9AATHAAT2U562RSEB76YAAKZE","AKJLAFX2M86TP","3YO4AH2FPD6XG0OGOBTVFFK58DY0QT","","","img/food4.png","","1004","-1","0","1","2","1,0.7,0,1,0.7,0,0.7,0,1","1,0.7,0,1,0.7,0,0.7,0,1","1","true",""
"","html-keyboard-response","314","1014517","0.0-314.0","3OF2M9AATHAAT2U562RSEB76YAAKZE","AKJLAFX2M86TP","3YO4AH2FPD6XG0OGOBTVFFK58DY0QT","","null","<img src=""img/food4.png"" style=""width:200px;border:14px solid red;"">","null","","","","","","","","","",""
"","html-keyboard-response","315","1015434","0.0-315.0-0.0","3OF2M9AATHAAT2U562RSEB76YAAKZE","AKJLAFX2M86TP","3YO4AH2FPD6XG0OGOBTVFFK58DY0QT","","","","","","","","","","","","","",""
"","image-keyboard-response","316","1016438","0.0-316.0","3OF2M9AATHAAT2U562RSEB76YAAKZE","AKJLAFX2M86TP","3YO4AH2FPD6XG0OGOBTVFFK58DY0QT","","","img/food1.png","","1003","-1","0","3","2","1,0.7,0,1,0.7,0,0.7,0,1","1,0.7,0,1,0.7,0,0.7,0,1","1","true",""
"","html-keyboard-response","317","1016745","0.0-317.0","3OF2M9AATHAAT2U562RSEB76YAAKZE","AKJLAFX2M86TP","3YO4AH2FPD6XG0OGOBTVFFK58DY0QT","","null","<img src=""img/food1.png"" style=""width:200px;border:14px solid red;"">","null","","","","","","","","","",""
"","html-keyboard-response","318","1017625","0.0-318.0-0.0","3OF2M9AATHAAT2U562RSEB76YAAKZE","AKJLAFX2M86TP","3YO4AH2FPD6XG0OGOBTVFFK58DY0QT","","","","","","","","","","","","","",""
"","image-keyboard-response","319","1018630","0.0-319.0","3OF2M9AATHAAT2U562RSEB76YAAKZE","AKJLAFX2M86TP","3YO4AH2FPD6XG0OGOBTVFFK58DY0QT","","","img/food1.png","","1004","-1","0","3","2","1,0.7,0,1,0.7,0,0.7,0,1","1,0.7,0,1,0.7,0,0.7,0,1","1","true",""
"","html-keyboard-response","320","1018935","0.0-320.0","3OF2M9AATHAAT2U562RSEB76YAAKZE","AKJLAFX2M86TP","3YO4AH2FPD6XG0OGOBTVFFK58DY0QT","","null","<img src=""img/food1.png"" style=""width:200px;border:14px solid red;"">","null","","","","","","","","","",""
"","html-keyboard-response","321","1019868","0.0-321.0-0.0","3OF2M9AATHAAT2U562RSEB76YAAKZE","AKJLAFX2M86TP","3YO4AH2FPD6XG0OGOBTVFFK58DY0QT","","","","","","","","","","","","","",""
"","image-keyboard-response","322","1020876","0.0-322.0","3OF2M9AATHAAT2U562RSEB76YAAKZE","AKJLAFX2M86TP","3YO4AH2FPD6XG0OGOBTVFFK58DY0QT","","","img/food3.png","","1008","-1","0","2","2","1,0.7,0,1,0.7,0,0.7,0,1","1,0.7,0,1,0.7,0,0.7,0,1","1","true",""
"","html-keyboard-response","323","1021182","0.0-323.0","3OF2M9AATHAAT2U562RSEB76YAAKZE","AKJLAFX2M86TP","3YO4AH2FPD6XG0OGOBTVFFK58DY0QT","","null","<img src=""img/food3.png"" style=""width:200px;border:14px solid red;"">","null","","","","","","","","","",""
"","html-keyboard-response","324","1022602","0.0-324.0-0.0","3OF2M9AATHAAT2U562RSEB76YAAKZE","AKJLAFX2M86TP","3YO4AH2FPD6XG0OGOBTVFFK58DY0QT","","","","","","","","","","","","","",""
"","image-keyboard-response","325","1023605","0.0-325.0","3OF2M9AATHAAT2U562RSEB76YAAKZE","AKJLAFX2M86TP","3YO4AH2FPD6XG0OGOBTVFFK58DY0QT","","","img/food4.png","","1005","-1","0","1","2","1,0.7,0,1,0.7,0,0.7,0,1","1,0.7,0,1,0.7,0,0.7,0,1","1","true",""
"","html-keyboard-response","326","1023968","0.0-326.0","3OF2M9AATHAAT2U562RSEB76YAAKZE","AKJLAFX2M86TP","3YO4AH2FPD6XG0OGOBTVFFK58DY0QT","","null","<img src=""img/food4.png"" style=""width:200px;border:14px solid red;"">","null","","","","","","","","","",""
"","html-keyboard-response","327","1024855","0.0-327.0-0.0","3OF2M9AATHAAT2U562RSEB76YAAKZE","AKJLAFX2M86TP","3YO4AH2FPD6XG0OGOBTVFFK58DY0QT","","","","","","","","","","","","","",""
"","image-keyboard-response","328","1025861","0.0-328.0","3OF2M9AATHAAT2U562RSEB76YAAKZE","AKJLAFX2M86TP","3YO4AH2FPD6XG0OGOBTVFFK58DY0QT","","","img/food3.png","","1003","-1","0","2","2","1,0.7,0,1,0.7,0,0.7,0,1","1,0.7,0,1,0.7,0,0.7,0,1","1","true",""
"","html-keyboard-response","329","1026164","0.0-329.0","3OF2M9AATHAAT2U562RSEB76YAAKZE","AKJLAFX2M86TP","3YO4AH2FPD6XG0OGOBTVFFK58DY0QT","","null","<img src=""img/food3.png"" style=""width:200px;border:14px solid red;"">","null","","","","","","","","","",""
"","html-keyboard-response","330","1026934","0.0-330.0-0.0","3OF2M9AATHAAT2U562RSEB76YAAKZE","AKJLAFX2M86TP","3YO4AH2FPD6XG0OGOBTVFFK58DY0QT","","","","","","","","","","","","","",""
"","image-keyboard-response","331","1027940","0.0-331.0","3OF2M9AATHAAT2U562RSEB76YAAKZE","AKJLAFX2M86TP","3YO4AH2FPD6XG0OGOBTVFFK58DY0QT","","","img/food1.png","","1005","-1","0","3","2","1,0.7,0,1,0.7,0,0.7,0,1","1,0.7,0,1,0.7,0,0.7,0,1","1","true",""
"","html-keyboard-response","332","1028246","0.0-332.0","3OF2M9AATHAAT2U562RSEB76YAAKZE","AKJLAFX2M86TP","3YO4AH2FPD6XG0OGOBTVFFK58DY0QT","","null","<img src=""img/food1.png"" style=""width:200px;border:14px solid red;"">","null","","","","","","","","","",""
"","html-keyboard-response","333","1029134","0.0-333.0-0.0","3OF2M9AATHAAT2U562RSEB76YAAKZE","AKJLAFX2M86TP","3YO4AH2FPD6XG0OGOBTVFFK58DY0QT","","","","","","","","","","","","","",""
"","image-keyboard-response","334","1030143","0.0-334.0","3OF2M9AATHAAT2U562RSEB76YAAKZE","AKJLAFX2M86TP","3YO4AH2FPD6XG0OGOBTVFFK58DY0QT","","","img/food1.png","","1008","-1","0","3","2","1,0.7,0,1,0.7,0,0.7,0,1","1,0.7,0,1,0.7,0,0.7,0,1","1","true",""
"","html-keyboard-response","335","1030447","0.0-335.0","3OF2M9AATHAAT2U562RSEB76YAAKZE","AKJLAFX2M86TP","3YO4AH2FPD6XG0OGOBTVFFK58DY0QT","","null","<img src=""img/food1.png"" style=""width:200px;border:14px solid red;"">","null","","","","","","","","","",""
"","html-keyboard-response","336","1035311","0.0-336.0-0.0","3OF2M9AATHAAT2U562RSEB76YAAKZE","AKJLAFX2M86TP","3YO4AH2FPD6XG0OGOBTVFFK58DY0QT","","","","","","","","","","","","","",""
"","image-keyboard-response","337","1036315","0.0-337.0","3OF2M9AATHAAT2U562RSEB76YAAKZE","AKJLAFX2M86TP","3YO4AH2FPD6XG0OGOBTVFFK58DY0QT","","","img/food3.png","","1003","-1","0","2","2","1,0.7,0,1,0.7,0,0.7,0,1","1,0.7,0,1,0.7,0,0.7,0,1","1","true",""
"","html-keyboard-response","338","1036618","0.0-338.0","3OF2M9AATHAAT2U562RSEB76YAAKZE","AKJLAFX2M86TP","3YO4AH2FPD6XG0OGOBTVFFK58DY0QT","","null","<img src=""img/food3.png"" style=""width:200px;border:14px solid red;"">","null","","","","","","","","","",""
"","html-keyboard-response","339","1037523","0.0-339.0-0.0","3OF2M9AATHAAT2U562RSEB76YAAKZE","AKJLAFX2M86TP","3YO4AH2FPD6XG0OGOBTVFFK58DY0QT","","","","","","","","","","","","","",""
"","image-keyboard-response","340","1038528","0.0-340.0","3OF2M9AATHAAT2U562RSEB76YAAKZE","AKJLAFX2M86TP","3YO4AH2FPD6XG0OGOBTVFFK58DY0QT","","","img/food3.png","","1004","-1","0","2","2","1,0.7,0,1,0.7,0,0.7,0,1","1,0.7,0,1,0.7,0,0.7,0,1","1","true",""
"","html-keyboard-response","341","1038831","0.0-341.0","3OF2M9AATHAAT2U562RSEB76YAAKZE","AKJLAFX2M86TP","3YO4AH2FPD6XG0OGOBTVFFK58DY0QT","","null","<img src=""img/food3.png"" style=""width:200px;border:14px solid red;"">","null","","","","","","","","","",""
"","html-keyboard-response","342","1039594","0.0-342.0-0.0","3OF2M9AATHAAT2U562RSEB76YAAKZE","AKJLAFX2M86TP","3YO4AH2FPD6XG0OGOBTVFFK58DY0QT","","","","","","","","","","","","","",""
"","image-keyboard-response","343","1040597","0.0-343.0","3OF2M9AATHAAT2U562RSEB76YAAKZE","AKJLAFX2M86TP","3YO4AH2FPD6XG0OGOBTVFFK58DY0QT","","","img/food4.png","","1003","-1","0","1","2","1,0.7,0,1,0.7,0,0.7,0,1","1,0.7,0,1,0.7,0,0.7,0,1","1","true",""
"","html-keyboard-response","344","1040899","0.0-344.0","3OF2M9AATHAAT2U562RSEB76YAAKZE","AKJLAFX2M86TP","3YO4AH2FPD6XG0OGOBTVFFK58DY0QT","","null","<img src=""img/food4.png"" style=""width:200px;border:14px solid red;"">","null","","","","","","","","","",""
"","html-keyboard-response","345","1041702","0.0-345.0-0.0","3OF2M9AATHAAT2U562RSEB76YAAKZE","AKJLAFX2M86TP","3YO4AH2FPD6XG0OGOBTVFFK58DY0QT","","","","","","","","","","","","","",""
"","image-keyboard-response","346","1042705","0.0-346.0","3OF2M9AATHAAT2U562RSEB76YAAKZE","AKJLAFX2M86TP","3YO4AH2FPD6XG0OGOBTVFFK58DY0QT","","","img/food4.png","","1002","-1","0","1","2","1,0.7,0,1,0.7,0,0.7,0,1","1,0.7,0,1,0.7,0,0.7,0,1","1","true",""
"","html-keyboard-response","347","1043010","0.0-347.0","3OF2M9AATHAAT2U562RSEB76YAAKZE","AKJLAFX2M86TP","3YO4AH2FPD6XG0OGOBTVFFK58DY0QT","","null","<img src=""img/food4.png"" style=""width:200px;border:14px solid red;"">","null","","","","","","","","","",""
"","html-keyboard-response","348","1043789","0.0-348.0-0.0","3OF2M9AATHAAT2U562RSEB76YAAKZE","AKJLAFX2M86TP","3YO4AH2FPD6XG0OGOBTVFFK58DY0QT","","","","","","","","","","","","","",""
"","image-keyboard-response","349","1044799","0.0-349.0","3OF2M9AATHAAT2U562RSEB76YAAKZE","AKJLAFX2M86TP","3YO4AH2FPD6XG0OGOBTVFFK58DY0QT","","","img/food3.png","","1009","-1","0","2","2","1,0.7,0,1,0.7,0,0.7,0,1","1,0.7,0,1,0.7,0,0.7,0,1","1","true",""
"","html-keyboard-response","350","1045099","0.0-350.0","3OF2M9AATHAAT2U562RSEB76YAAKZE","AKJLAFX2M86TP","3YO4AH2FPD6XG0OGOBTVFFK58DY0QT","","null","<img src=""img/food3.png"" style=""width:200px;border:14px solid red;"">","null","","","","","","","","","",""
"","html-keyboard-response","351","1045909","0.0-351.0-0.0","3OF2M9AATHAAT2U562RSEB76YAAKZE","AKJLAFX2M86TP","3YO4AH2FPD6XG0OGOBTVFFK58DY0QT","","","","","","","","","","","","","",""
"","image-keyboard-response","352","1046914","0.0-352.0","3OF2M9AATHAAT2U562RSEB76YAAKZE","AKJLAFX2M86TP","3YO4AH2FPD6XG0OGOBTVFFK58DY0QT","","","img/food4.png","","1004","-1","0","1","2","1,0.7,0,1,0.7,0,0.7,0,1","1,0.7,0,1,0.7,0,0.7,0,1","1","true",""
"","html-keyboard-response","353","1047218","0.0-353.0","3OF2M9AATHAAT2U562RSEB76YAAKZE","AKJLAFX2M86TP","3YO4AH2FPD6XG0OGOBTVFFK58DY0QT","","null","<img src=""img/food4.png"" style=""width:200px;border:14px solid red;"">","null","","","","","","","","","",""
"","html-keyboard-response","354","1048073","0.0-354.0-0.0","3OF2M9AATHAAT2U562RSEB76YAAKZE","AKJLAFX2M86TP","3YO4AH2FPD6XG0OGOBTVFFK58DY0QT","","","","","","","","","","","","","",""
"","image-keyboard-response","355","1049122","0.0-355.0","3OF2M9AATHAAT2U562RSEB76YAAKZE","AKJLAFX2M86TP","3YO4AH2FPD6XG0OGOBTVFFK58DY0QT","","","img/food3.png","","1049","-1","0","2","2","1,0.7,0,1,0.7,0,0.7,0,1","1,0.7,0,1,0.7,0,0.7,0,1","1","true",""
"","html-keyboard-response","356","1049425","0.0-356.0","3OF2M9AATHAAT2U562RSEB76YAAKZE","AKJLAFX2M86TP","3YO4AH2FPD6XG0OGOBTVFFK58DY0QT","","null","<img src=""img/food3.png"" style=""width:200px;border:14px solid red;"">","null","","","","","","","","","",""
"","html-keyboard-response","357","1049933","0.0-357.0-0.0","3OF2M9AATHAAT2U562RSEB76YAAKZE","AKJLAFX2M86TP","3YO4AH2FPD6XG0OGOBTVFFK58DY0QT","","","","","","","","","","","","","",""
"","image-keyboard-response","358","1050937","0.0-358.0","3OF2M9AATHAAT2U562RSEB76YAAKZE","AKJLAFX2M86TP","3YO4AH2FPD6XG0OGOBTVFFK58DY0QT","","","img/food1.png","","1003","-1","0","3","2","1,0.7,0,1,0.7,0,0.7,0,1","1,0.7,0,1,0.7,0,0.7,0,1","1","true",""
"","html-keyboard-response","359","1051240","0.0-359.0","3OF2M9AATHAAT2U562RSEB76YAAKZE","AKJLAFX2M86TP","3YO4AH2FPD6XG0OGOBTVFFK58DY0QT","","null","<img src=""img/food1.png"" style=""width:200px;border:14px solid red;"">","null","","","","","","","","","",""
"","html-keyboard-response","360","1051991","0.0-360.0-0.0","3OF2M9AATHAAT2U562RSEB76YAAKZE","AKJLAFX2M86TP","3YO4AH2FPD6XG0OGOBTVFFK58DY0QT","","","","","","","","","","","","","",""
"","image-keyboard-response","361","1052994","0.0-361.0","3OF2M9AATHAAT2U562RSEB76YAAKZE","AKJLAFX2M86TP","3YO4AH2FPD6XG0OGOBTVFFK58DY0QT","","","img/food3.png","","1002","-1","0","2","2","1,0.7,0,1,0.7,0,0.7,0,1","1,0.7,0,1,0.7,0,0.7,0,1","1","true",""
"","html-keyboard-response","362","1053297","0.0-362.0","3OF2M9AATHAAT2U562RSEB76YAAKZE","AKJLAFX2M86TP","3YO4AH2FPD6XG0OGOBTVFFK58DY0QT","","null","<img src=""img/food3.png"" style=""width:200px;border:14px solid red;"">","null","","","","","","","","","",""
"","html-keyboard-response","363","1054125","0.0-363.0-0.0","3OF2M9AATHAAT2U562RSEB76YAAKZE","AKJLAFX2M86TP","3YO4AH2FPD6XG0OGOBTVFFK58DY0QT","","","","","","","","","","","","","",""
"","image-keyboard-response","364","1055130","0.0-364.0","3OF2M9AATHAAT2U562RSEB76YAAKZE","AKJLAFX2M86TP","3YO4AH2FPD6XG0OGOBTVFFK58DY0QT","","","img/food4.png","","1004","-1","0","1","2","1,0.7,0,1,0.7,0,0.7,0,1","1,0.7,0,1,0.7,0,0.7,0,1","1","true",""
"","html-keyboard-response","365","1055433","0.0-365.0","3OF2M9AATHAAT2U562RSEB76YAAKZE","AKJLAFX2M86TP","3YO4AH2FPD6XG0OGOBTVFFK58DY0QT","","null","<img src=""img/food4.png"" style=""width:200px;border:14px solid red;"">","null","","","","","","","","","",""
"","html-keyboard-response","366","1056212","0.0-366.0-0.0","3OF2M9AATHAAT2U562RSEB76YAAKZE","AKJLAFX2M86TP","3YO4AH2FPD6XG0OGOBTVFFK58DY0QT","","","","","","","","","","","","","",""
"","image-keyboard-response","367","1057215","0.0-367.0","3OF2M9AATHAAT2U562RSEB76YAAKZE","AKJLAFX2M86TP","3YO4AH2FPD6XG0OGOBTVFFK58DY0QT","","","img/food3.png","","1003","-1","0","2","2","1,0.7,0,1,0.7,0,0.7,0,1","1,0.7,0,1,0.7,0,0.7,0,1","1","true",""
"","html-keyboard-response","368","1057520","0.0-368.0","3OF2M9AATHAAT2U562RSEB76YAAKZE","AKJLAFX2M86TP","3YO4AH2FPD6XG0OGOBTVFFK58DY0QT","","null","<img src=""img/food3.png"" style=""width:200px;border:14px solid red;"">","null","","","","","","","","","",""
"","html-keyboard-response","369","1058309","0.0-369.0-0.0","3OF2M9AATHAAT2U562RSEB76YAAKZE","AKJLAFX2M86TP","3YO4AH2FPD6XG0OGOBTVFFK58DY0QT","","","","","","","","","","","","","",""
"","image-keyboard-response","370","1059314","0.0-370.0","3OF2M9AATHAAT2U562RSEB76YAAKZE","AKJLAFX2M86TP","3YO4AH2FPD6XG0OGOBTVFFK58DY0QT","","","img/food1.png","","1004","-1","0","3","2","1,0.7,0,1,0.7,0,0.7,0,1","1,0.7,0,1,0.7,0,0.7,0,1","1","true",""
"","html-keyboard-response","371","1059617","0.0-371.0","3OF2M9AATHAAT2U562RSEB76YAAKZE","AKJLAFX2M86TP","3YO4AH2FPD6XG0OGOBTVFFK58DY0QT","","null","<img src=""img/food1.png"" style=""width:200px;border:14px solid red;"">","null","","","","","","","","","",""
"","html-keyboard-response","372","1060422","0.0-372.0-0.0","3OF2M9AATHAAT2U562RSEB76YAAKZE","AKJLAFX2M86TP","3YO4AH2FPD6XG0OGOBTVFFK58DY0QT","","","","","","","","","","","","","",""
"","image-keyboard-response","373","1061426","0.0-373.0","3OF2M9AATHAAT2U562RSEB76YAAKZE","AKJLAFX2M86TP","3YO4AH2FPD6XG0OGOBTVFFK58DY0QT","","","img/food1.png","","1003","-1","0","3","2","1,0.7,0,1,0.7,0,0.7,0,1","1,0.7,0,1,0.7,0,0.7,0,1","1","true",""
"","html-keyboard-response","374","1061732","0.0-374.0","3OF2M9AATHAAT2U562RSEB76YAAKZE","AKJLAFX2M86TP","3YO4AH2FPD6XG0OGOBTVFFK58DY0QT","","null","<img src=""img/food1.png"" style=""width:200px;border:14px solid red;"">","null","","","","","","","","","",""
"","html-keyboard-response","375","1062472","0.0-375.0-0.0","3OF2M9AATHAAT2U562RSEB76YAAKZE","AKJLAFX2M86TP","3YO4AH2FPD6XG0OGOBTVFFK58DY0QT","","","","","","","","","","","","","",""
"","image-keyboard-response","376","1063475","0.0-376.0","3OF2M9AATHAAT2U562RSEB76YAAKZE","AKJLAFX2M86TP","3YO4AH2FPD6XG0OGOBTVFFK58DY0QT","","","img/food3.png","","1002","-1","0","2","2","1,0.7,0,1,0.7,0,0.7,0,1","1,0.7,0,1,0.7,0,0.7,0,1","1","true",""
"","html-keyboard-response","377","1063779","0.0-377.0","3OF2M9AATHAAT2U562RSEB76YAAKZE","AKJLAFX2M86TP","3YO4AH2FPD6XG0OGOBTVFFK58DY0QT","","null","<img src=""img/food3.png"" style=""width:200px;border:14px solid red;"">","null","","","","","","","","","",""
"","html-keyboard-response","378","1064662","0.0-378.0-0.0","3OF2M9AATHAAT2U562RSEB76YAAKZE","AKJLAFX2M86TP","3YO4AH2FPD6XG0OGOBTVFFK58DY0QT","","","","","","","","","","","","","",""
"","image-keyboard-response","379","1065667","0.0-379.0","3OF2M9AATHAAT2U562RSEB76YAAKZE","AKJLAFX2M86TP","3YO4AH2FPD6XG0OGOBTVFFK58DY0QT","","","img/food3.png","","1004","-1","0","2","2","1,0.7,0,1,0.7,0,0.7,0,1","1,0.7,0,1,0.7,0,0.7,0,1","1","true",""
"","html-keyboard-response","380","1065985","0.0-380.0","3OF2M9AATHAAT2U562RSEB76YAAKZE","AKJLAFX2M86TP","3YO4AH2FPD6XG0OGOBTVFFK58DY0QT","","null","<img src=""img/food3.png"" style=""width:200px;border:14px solid red;"">","null","","","","","","","","","",""
"","html-keyboard-response","381","1066765","0.0-381.0-0.0","3OF2M9AATHAAT2U562RSEB76YAAKZE","AKJLAFX2M86TP","3YO4AH2FPD6XG0OGOBTVFFK58DY0QT","","","","","","","","","","","","","",""
"","image-keyboard-response","382","1067771","0.0-382.0","3OF2M9AATHAAT2U562RSEB76YAAKZE","AKJLAFX2M86TP","3YO4AH2FPD6XG0OGOBTVFFK58DY0QT","","","img/food4.png","","1004","-1","0","1","2","1,0.7,0,1,0.7,0,0.7,0,1","1,0.7,0,1,0.7,0,0.7,0,1","1","true",""
"","html-keyboard-response","383","1068075","0.0-383.0","3OF2M9AATHAAT2U562RSEB76YAAKZE","AKJLAFX2M86TP","3YO4AH2FPD6XG0OGOBTVFFK58DY0QT","","null","<img src=""img/food4.png"" style=""width:200px;border:14px solid red;"">","null","","","","","","","","","",""
"","html-keyboard-response","384","1068864","0.0-384.0-0.0","3OF2M9AATHAAT2U562RSEB76YAAKZE","AKJLAFX2M86TP","3YO4AH2FPD6XG0OGOBTVFFK58DY0QT","","","","","","","","","","","","","",""
"","image-keyboard-response","385","1069869","0.0-385.0","3OF2M9AATHAAT2U562RSEB76YAAKZE","AKJLAFX2M86TP","3YO4AH2FPD6XG0OGOBTVFFK58DY0QT","","","img/food3.png","","1004","-1","0","2","2","1,0.7,0,1,0.7,0,0.7,0,1","1,0.7,0,1,0.7,0,0.7,0,1","1","true",""
"","html-keyboard-response","386","1070179","0.0-386.0","3OF2M9AATHAAT2U562RSEB76YAAKZE","AKJLAFX2M86TP","3YO4AH2FPD6XG0OGOBTVFFK58DY0QT","","null","<img src=""img/food3.png"" style=""width:200px;border:14px solid red;"">","null","","","","","","","","","",""
"","html-keyboard-response","387","1070973","0.0-387.0-0.0","3OF2M9AATHAAT2U562RSEB76YAAKZE","AKJLAFX2M86TP","3YO4AH2FPD6XG0OGOBTVFFK58DY0QT","","","","","","","","","","","","","",""
"","image-keyboard-response","388","1072092","0.0-388.0","3OF2M9AATHAAT2U562RSEB76YAAKZE","AKJLAFX2M86TP","3YO4AH2FPD6XG0OGOBTVFFK58DY0QT","","","img/food1.png","","1118","-1","0","3","2","1,0.7,0,1,0.7,0,0.7,0,1","1,0.7,0,1,0.7,0,0.7,0,1","1","true",""
"","html-keyboard-response","389","1072395","0.0-389.0","3OF2M9AATHAAT2U562RSEB76YAAKZE","AKJLAFX2M86TP","3YO4AH2FPD6XG0OGOBTVFFK58DY0QT","","null","<img src=""img/food1.png"" style=""width:200px;border:14px solid red;"">","null","","","","","","","","","",""
"","html-keyboard-response","390","1073234","0.0-390.0-0.0","3OF2M9AATHAAT2U562RSEB76YAAKZE","AKJLAFX2M86TP","3YO4AH2FPD6XG0OGOBTVFFK58DY0QT","","","","","","","","","","","","","",""
"","image-keyboard-response","391","1074240","0.0-391.0","3OF2M9AATHAAT2U562RSEB76YAAKZE","AKJLAFX2M86TP","3YO4AH2FPD6XG0OGOBTVFFK58DY0QT","","","img/food1.png","","1005","-1","0","3","2","1,0.7,0,1,0.7,0,0.7,0,1","1,0.7,0,1,0.7,0,0.7,0,1","1","true",""
"","html-keyboard-response","392","1074542","0.0-392.0","3OF2M9AATHAAT2U562RSEB76YAAKZE","AKJLAFX2M86TP","3YO4AH2FPD6XG0OGOBTVFFK58DY0QT","","null","<img src=""img/food1.png"" style=""width:200px;border:14px solid red;"">","null","","","","","","","","","",""
"","html-keyboard-response","393","1075309","0.0-393.0-0.0","3OF2M9AATHAAT2U562RSEB76YAAKZE","AKJLAFX2M86TP","3YO4AH2FPD6XG0OGOBTVFFK58DY0QT","","","","","","","","","","","","","",""
"","image-keyboard-response","394","1076313","0.0-394.0","3OF2M9AATHAAT2U562RSEB76YAAKZE","AKJLAFX2M86TP","3YO4AH2FPD6XG0OGOBTVFFK58DY0QT","","","img/food3.png","","1004","-1","0","2","2","1,0.7,0,1,0.7,0,0.7,0,1","1,0.7,0,1,0.7,0,0.7,0,1","1","true",""
"","html-keyboard-response","395","1076618","0.0-395.0","3OF2M9AATHAAT2U562RSEB76YAAKZE","AKJLAFX2M86TP","3YO4AH2FPD6XG0OGOBTVFFK58DY0QT","","null","<img src=""img/food3.png"" style=""width:200px;border:14px solid red;"">","null","","","","","","","","","",""
"","html-keyboard-response","396","1077651","0.0-396.0-0.0","3OF2M9AATHAAT2U562RSEB76YAAKZE","AKJLAFX2M86TP","3YO4AH2FPD6XG0OGOBTVFFK58DY0QT","","","","","","","","","","","","","",""
"","image-keyboard-response","397","1078656","0.0-397.0","3OF2M9AATHAAT2U562RSEB76YAAKZE","AKJLAFX2M86TP","3YO4AH2FPD6XG0OGOBTVFFK58DY0QT","","","img/food1.png","","1004","-1","0","3","2","1,0.7,0,1,0.7,0,0.7,0,1","1,0.7,0,1,0.7,0,0.7,0,1","1","true",""
"","html-keyboard-response","398","1078962","0.0-398.0","3OF2M9AATHAAT2U562RSEB76YAAKZE","AKJLAFX2M86TP","3YO4AH2FPD6XG0OGOBTVFFK58DY0QT","","null","<img src=""img/food1.png"" style=""width:200px;border:14px solid red;"">","null","","","","","","","","","",""
"","html-keyboard-response","399","1079758","0.0-399.0-0.0","3OF2M9AATHAAT2U562RSEB76YAAKZE","AKJLAFX2M86TP","3YO4AH2FPD6XG0OGOBTVFFK58DY0QT","","","","","","","","","","","","","",""
"","image-keyboard-response","400","1080761","0.0-400.0","3OF2M9AATHAAT2U562RSEB76YAAKZE","AKJLAFX2M86TP","3YO4AH2FPD6XG0OGOBTVFFK58DY0QT","","","img/food1.png","","1004","-1","0","3","2","1,0.7,0,1,0.7,0,0.7,0,1","1,0.7,0,1,0.7,0,0.7,0,1","1","true",""
"","html-keyboard-response","401","1081067","0.0-401.0","3OF2M9AATHAAT2U562RSEB76YAAKZE","AKJLAFX2M86TP","3YO4AH2FPD6XG0OGOBTVFFK58DY0QT","","null","<img src=""img/food1.png"" style=""width:200px;border:14px solid red;"">","null","","","","","","","","","",""
"","html-keyboard-response","402","1081911","0.0-402.0-0.0","3OF2M9AATHAAT2U562RSEB76YAAKZE","AKJLAFX2M86TP","3YO4AH2FPD6XG0OGOBTVFFK58DY0QT","","","","","","","","","","","","","",""
"","image-keyboard-response","403","1082915","0.0-403.0","3OF2M9AATHAAT2U562RSEB76YAAKZE","AKJLAFX2M86TP","3YO4AH2FPD6XG0OGOBTVFFK58DY0QT","","","img/food1.png","","1003","-1","0","3","2","1,0.7,0,1,0.7,0,0.7,0,1","1,0.7,0,1,0.7,0,0.7,0,1","1","true",""
"","html-keyboard-response","404","1083217","0.0-404.0","3OF2M9AATHAAT2U562RSEB76YAAKZE","AKJLAFX2M86TP","3YO4AH2FPD6XG0OGOBTVFFK58DY0QT","","null","<img src=""img/food1.png"" style=""width:200px;border:14px solid red;"">","null","","","","","","","","","",""
"","html-keyboard-response","405","1084058","0.0-405.0-0.0","3OF2M9AATHAAT2U562RSEB76YAAKZE","AKJLAFX2M86TP","3YO4AH2FPD6XG0OGOBTVFFK58DY0QT","","","","","","","","","","","","","",""
"","image-keyboard-response","406","1085063","0.0-406.0","3OF2M9AATHAAT2U562RSEB76YAAKZE","AKJLAFX2M86TP","3YO4AH2FPD6XG0OGOBTVFFK58DY0QT","","","img/food1.png","","1004","-1","0","3","2","1,0.7,0,1,0.7,0,0.7,0,1","1,0.7,0,1,0.7,0,0.7,0,1","1","true",""
"","html-keyboard-response","407","1085367","0.0-407.0","3OF2M9AATHAAT2U562RSEB76YAAKZE","AKJLAFX2M86TP","3YO4AH2FPD6XG0OGOBTVFFK58DY0QT","","null","<img src=""img/food1.png"" style=""width:200px;border:14px solid red;"">","null","","","","","","","","","",""
"","html-keyboard-response","408","1086241","0.0-408.0-0.0","3OF2M9AATHAAT2U562RSEB76YAAKZE","AKJLAFX2M86TP","3YO4AH2FPD6XG0OGOBTVFFK58DY0QT","","","","","","","","","","","","","",""
"","image-keyboard-response","409","1087245","0.0-409.0","3OF2M9AATHAAT2U562RSEB76YAAKZE","AKJLAFX2M86TP","3YO4AH2FPD6XG0OGOBTVFFK58DY0QT","","","img/food3.png","","1004","-1","0","2","2","1,0.7,0,1,0.7,0,0.7,0,1","1,0.7,0,1,0.7,0,0.7,0,1","1","true",""
"","html-keyboard-response","410","1087549","0.0-410.0","3OF2M9AATHAAT2U562RSEB76YAAKZE","AKJLAFX2M86TP","3YO4AH2FPD6XG0OGOBTVFFK58DY0QT","","null","<img src=""img/food3.png"" style=""width:200px;border:14px solid red;"">","null","","","","","","","","","",""
"","html-keyboard-response","411","1088479","0.0-411.0-0.0","3OF2M9AATHAAT2U562RSEB76YAAKZE","AKJLAFX2M86TP","3YO4AH2FPD6XG0OGOBTVFFK58DY0QT","","","","","","","","","","","","","",""
"","image-keyboard-response","412","1089485","0.0-412.0","3OF2M9AATHAAT2U562RSEB76YAAKZE","AKJLAFX2M86TP","3YO4AH2FPD6XG0OGOBTVFFK58DY0QT","","","img/food1.png","","1005","-1","0","3","2","1,0.7,0,1,0.7,0,0.7,0,1","1,0.7,0,1,0.7,0,0.7,0,1","1","true",""
