"success","trial_type","trial_index","time_elapsed","internal_node_id","assignmentID","mturkID","hitID","view_history","rt","stimulus","key_press","reactionTime","a","r","s","cond","reward_cond","reward_cond_actual","reward_matrix_idx","warning","responses"
"true","fullscreen","0","3343","0.0-0.0","3Q5C1WP23NNAGNOUR4EUKS4CPUC51E","AKNYT1NTK2UFK","3FVBZG9CLJ0K37PD5L6161S4HTM0HN","","","","","","","","","","","","","",""
"","instructions","1","43258","0.0-1.0","3Q5C1WP23NNAGNOUR4EUKS4CPUC51E","AKNYT1NTK2UFK","3FVBZG9CLJ0K37PD5L6161S4HTM0HN","[{""page_index"":0,""viewing_time"":4683.79999999702},{""page_index"":1,""viewing_time"":3496},{""page_index"":2,""viewing_time"":9440.900000002235},{""page_index"":3,""viewing_time"":8644.199999999255},{""page_index"":4,""viewing_time"":3026.60000000149},{""page_index"":5,""viewing_time"":2883.2999999970198},{""page_index"":6,""viewing_time"":7736.20000000298}]","39911.599999997765","","","","","","","","","","","",""
"","image-keyboard-response","2","47517","0.0-2.0","3Q5C1WP23NNAGNOUR4EUKS4CPUC51E","AKNYT1NTK2UFK","3FVBZG9CLJ0K37PD5L6161S4HTM0HN","","4254.29999999702","img/food4.png","74","4256.599999997765","1","0","3","1","1,0.5,0,1,0.5,0,0.5,0,1","1,0.5,0,1,0.5,0,0.5,0,1","1","",""
"","html-keyboard-response","3","47823","0.0-3.0","3Q5C1WP23NNAGNOUR4EUKS4CPUC51E","AKNYT1NTK2UFK","3FVBZG9CLJ0K37PD5L6161S4HTM0HN","","null","<img src=""img/food4.png"" style=""width:200px;border:14px solid red;"">","null","","","","","","","","","",""
"","image-keyboard-response","4","49216","0.0-4.0","3Q5C1WP23NNAGNOUR4EUKS4CPUC51E","AKNYT1NTK2UFK","3FVBZG9CLJ0K37PD5L6161S4HTM0HN","","1390.800000000745","img/food1.png","74","1392.800000000745","1","1","2","1","1,0.5,0,1,0.5,0,0.5,0,1","1,0.5,0,1,0.5,0,0.5,0,1","1","",""
"","html-keyboard-response","5","49520","0.0-5.0","3Q5C1WP23NNAGNOUR4EUKS4CPUC51E","AKNYT1NTK2UFK","3FVBZG9CLJ0K37PD5L6161S4HTM0HN","","null","<img src=""img/food1.png"" style=""width:200px; border:14px solid green;"">","null","","","","","","","","","",""
"","image-keyboard-response","6","51007","0.0-6.0","3Q5C1WP23NNAGNOUR4EUKS4CPUC51E","AKNYT1NTK2UFK","3FVBZG9CLJ0K37PD5L6161S4HTM0HN","","1483.5","img/food4.png","75","1485.8999999985099","2","0","3","1","1,0.5,0,1,0.5,0,0.5,0,1","1,0.5,0,1,0.5,0,0.5,0,1","1","",""
"","html-keyboard-response","7","51312","0.0-7.0","3Q5C1WP23NNAGNOUR4EUKS4CPUC51E","AKNYT1NTK2UFK","3FVBZG9CLJ0K37PD5L6161S4HTM0HN","","null","<img src=""img/food4.png"" style=""width:200px;border:14px solid red;"">","null","","","","","","","","","",""
"","image-keyboard-response","8","52154","0.0-8.0","3Q5C1WP23NNAGNOUR4EUKS4CPUC51E","AKNYT1NTK2UFK","3FVBZG9CLJ0K37PD5L6161S4HTM0HN","","839.1999999992549","img/food4.png","76","840.9000000022352","3","1","3","1","1,0.5,0,1,0.5,0,0.5,0,1","1,0.5,0,1,0.5,0,0.5,0,1","1","",""
"","html-keyboard-response","9","52463","0.0-9.0","3Q5C1WP23NNAGNOUR4EUKS4CPUC51E","AKNYT1NTK2UFK","3FVBZG9CLJ0K37PD5L6161S4HTM0HN","","null","<img src=""img/food4.png"" style=""width:200px; border:14px solid green;"">","null","","","","","","","","","",""
"","image-keyboard-response","10","53821","0.0-10.0","3Q5C1WP23NNAGNOUR4EUKS4CPUC51E","AKNYT1NTK2UFK","3FVBZG9CLJ0K37PD5L6161S4HTM0HN","","1355.199999999255","img/food6.png","75","1357.4000000022352","2","1","1","1","1,0.5,0,1,0.5,0,0.5,0,1","1,0.5,0,1,0.5,0,0.5,0,1","1","",""
"","html-keyboard-response","11","54126","0.0-11.0","3Q5C1WP23NNAGNOUR4EUKS4CPUC51E","AKNYT1NTK2UFK","3FVBZG9CLJ0K37PD5L6161S4HTM0HN","","null","<img src=""img/food6.png"" style=""width:200px; border:14px solid green;"">","null","","","","","","","","","",""
"","image-keyboard-response","12","54912","0.0-12.0","3Q5C1WP23NNAGNOUR4EUKS4CPUC51E","AKNYT1NTK2UFK","3FVBZG9CLJ0K37PD5L6161S4HTM0HN","","784.0999999977648","img/food6.png","75","785.8999999985099","2","0","1","1","1,0.5,0,1,0.5,0,0.5,0,1","1,0.5,0,1,0.5,0,0.5,0,1","1","",""
"","html-keyboard-response","13","55215","0.0-13.0","3Q5C1WP23NNAGNOUR4EUKS4CPUC51E","AKNYT1NTK2UFK","3FVBZG9CLJ0K37PD5L6161S4HTM0HN","","null","<img src=""img/food6.png"" style=""width:200px;border:14px solid red;"">","null","","","","","","","","","",""
"","image-keyboard-response","14","56226","0.0-14.0","3Q5C1WP23NNAGNOUR4EUKS4CPUC51E","AKNYT1NTK2UFK","3FVBZG9CLJ0K37PD5L6161S4HTM0HN","","1008.8000000007451","img/food1.png","74","1010.8999999985099","1","1","2","1","1,0.5,0,1,0.5,0,0.5,0,1","1,0.5,0,1,0.5,0,0.5,0,1","1","",""
"","html-keyboard-response","15","56529","0.0-15.0","3Q5C1WP23NNAGNOUR4EUKS4CPUC51E","AKNYT1NTK2UFK","3FVBZG9CLJ0K37PD5L6161S4HTM0HN","","null","<img src=""img/food1.png"" style=""width:200px; border:14px solid green;"">","null","","","","","","","","","",""
"","image-keyboard-response","16","57745","0.0-16.0","3Q5C1WP23NNAGNOUR4EUKS4CPUC51E","AKNYT1NTK2UFK","3FVBZG9CLJ0K37PD5L6161S4HTM0HN","","1214.3999999985099","img/food4.png","76","1215.5999999977648","3","1","3","1","1,0.5,0,1,0.5,0,0.5,0,1","1,0.5,0,1,0.5,0,0.5,0,1","1","",""
"","html-keyboard-response","17","58048","0.0-17.0","3Q5C1WP23NNAGNOUR4EUKS4CPUC51E","AKNYT1NTK2UFK","3FVBZG9CLJ0K37PD5L6161S4HTM0HN","","null","<img src=""img/food4.png"" style=""width:200px; border:14px solid green;"">","null","","","","","","","","","",""
"","image-keyboard-response","18","59004","0.0-18.0","3Q5C1WP23NNAGNOUR4EUKS4CPUC51E","AKNYT1NTK2UFK","3FVBZG9CLJ0K37PD5L6161S4HTM0HN","","953.5","img/food6.png","75","955.3000000007451","2","0","1","1","1,0.5,0,1,0.5,0,0.5,0,1","1,0.5,0,1,0.5,0,0.5,0,1","1","",""
"","html-keyboard-response","19","59307","0.0-19.0","3Q5C1WP23NNAGNOUR4EUKS4CPUC51E","AKNYT1NTK2UFK","3FVBZG9CLJ0K37PD5L6161S4HTM0HN","","null","<img src=""img/food6.png"" style=""width:200px;border:14px solid red;"">","null","","","","","","","","","",""
"","image-keyboard-response","20","60730","0.0-20.0","3Q5C1WP23NNAGNOUR4EUKS4CPUC51E","AKNYT1NTK2UFK","3FVBZG9CLJ0K37PD5L6161S4HTM0HN","","1420.7000000029802","img/food1.png","74","1422.5","1","1","2","1","1,0.5,0,1,0.5,0,0.5,0,1","1,0.5,0,1,0.5,0,0.5,0,1","1","",""
"","html-keyboard-response","21","61034","0.0-21.0","3Q5C1WP23NNAGNOUR4EUKS4CPUC51E","AKNYT1NTK2UFK","3FVBZG9CLJ0K37PD5L6161S4HTM0HN","","null","<img src=""img/food1.png"" style=""width:200px; border:14px solid green;"">","null","","","","","","","","","",""
"","image-keyboard-response","22","61767","0.0-22.0","3Q5C1WP23NNAGNOUR4EUKS4CPUC51E","AKNYT1NTK2UFK","3FVBZG9CLJ0K37PD5L6161S4HTM0HN","","730.6000000014901","img/food1.png","74","732.5","1","1","2","1","1,0.5,0,1,0.5,0,0.5,0,1","1,0.5,0,1,0.5,0,0.5,0,1","1","",""
"","html-keyboard-response","23","62070","0.0-23.0","3Q5C1WP23NNAGNOUR4EUKS4CPUC51E","AKNYT1NTK2UFK","3FVBZG9CLJ0K37PD5L6161S4HTM0HN","","null","<img src=""img/food1.png"" style=""width:200px; border:14px solid green;"">","null","","","","","","","","","",""
"","image-keyboard-response","24","63477","0.0-24.0","3Q5C1WP23NNAGNOUR4EUKS4CPUC51E","AKNYT1NTK2UFK","3FVBZG9CLJ0K37PD5L6161S4HTM0HN","","1404","img/food4.png","76","1406.199999999255","3","1","3","1","1,0.5,0,1,0.5,0,0.5,0,1","1,0.5,0,1,0.5,0,0.5,0,1","1","",""
"","html-keyboard-response","25","63784","0.0-25.0","3Q5C1WP23NNAGNOUR4EUKS4CPUC51E","AKNYT1NTK2UFK","3FVBZG9CLJ0K37PD5L6161S4HTM0HN","","null","<img src=""img/food4.png"" style=""width:200px; border:14px solid green;"">","null","","","","","","","","","",""
"","image-keyboard-response","26","64758","0.0-26.0","3Q5C1WP23NNAGNOUR4EUKS4CPUC51E","AKNYT1NTK2UFK","3FVBZG9CLJ0K37PD5L6161S4HTM0HN","","972.0999999977648","img/food6.png","76","974","3","0","1","1","1,0.5,0,1,0.5,0,0.5,0,1","1,0.5,0,1,0.5,0,0.5,0,1","1","",""
"","html-keyboard-response","27","65061","0.0-27.0","3Q5C1WP23NNAGNOUR4EUKS4CPUC51E","AKNYT1NTK2UFK","3FVBZG9CLJ0K37PD5L6161S4HTM0HN","","null","<img src=""img/food6.png"" style=""width:200px;border:14px solid red;"">","null","","","","","","","","","",""
"","image-keyboard-response","28","66143","0.0-28.0","3Q5C1WP23NNAGNOUR4EUKS4CPUC51E","AKNYT1NTK2UFK","3FVBZG9CLJ0K37PD5L6161S4HTM0HN","","1080.699999999255","img/food1.png","74","1081.9000000022352","1","1","2","1","1,0.5,0,1,0.5,0,0.5,0,1","1,0.5,0,1,0.5,0,0.5,0,1","1","",""
"","html-keyboard-response","29","66447","0.0-29.0","3Q5C1WP23NNAGNOUR4EUKS4CPUC51E","AKNYT1NTK2UFK","3FVBZG9CLJ0K37PD5L6161S4HTM0HN","","null","<img src=""img/food1.png"" style=""width:200px; border:14px solid green;"">","null","","","","","","","","","",""
"","image-keyboard-response","30","67024","0.0-30.0","3Q5C1WP23NNAGNOUR4EUKS4CPUC51E","AKNYT1NTK2UFK","3FVBZG9CLJ0K37PD5L6161S4HTM0HN","","573","img/food1.png","74","576.3999999985099","1","1","2","1","1,0.5,0,1,0.5,0,0.5,0,1","1,0.5,0,1,0.5,0,0.5,0,1","1","",""
"","html-keyboard-response","31","67327","0.0-31.0","3Q5C1WP23NNAGNOUR4EUKS4CPUC51E","AKNYT1NTK2UFK","3FVBZG9CLJ0K37PD5L6161S4HTM0HN","","null","<img src=""img/food1.png"" style=""width:200px; border:14px solid green;"">","null","","","","","","","","","",""
"","image-keyboard-response","32","68207","0.0-32.0","3Q5C1WP23NNAGNOUR4EUKS4CPUC51E","AKNYT1NTK2UFK","3FVBZG9CLJ0K37PD5L6161S4HTM0HN","","879","img/food6.png","74","880.6000000014901","1","1","1","1","1,0.5,0,1,0.5,0,0.5,0,1","1,0.5,0,1,0.5,0,0.5,0,1","1","",""
"","html-keyboard-response","33","68512","0.0-33.0","3Q5C1WP23NNAGNOUR4EUKS4CPUC51E","AKNYT1NTK2UFK","3FVBZG9CLJ0K37PD5L6161S4HTM0HN","","null","<img src=""img/food6.png"" style=""width:200px; border:14px solid green;"">","null","","","","","","","","","",""
"","image-keyboard-response","34","69804","0.0-34.0","3Q5C1WP23NNAGNOUR4EUKS4CPUC51E","AKNYT1NTK2UFK","3FVBZG9CLJ0K37PD5L6161S4HTM0HN","","1289.8999999985099","img/food4.png","76","1291.8999999985099","3","1","3","1","1,0.5,0,1,0.5,0,0.5,0,1","1,0.5,0,1,0.5,0,0.5,0,1","1","",""
"","html-keyboard-response","35","70108","0.0-35.0","3Q5C1WP23NNAGNOUR4EUKS4CPUC51E","AKNYT1NTK2UFK","3FVBZG9CLJ0K37PD5L6161S4HTM0HN","","null","<img src=""img/food4.png"" style=""width:200px; border:14px solid green;"">","null","","","","","","","","","",""
"","image-keyboard-response","36","70881","0.0-36.0","3Q5C1WP23NNAGNOUR4EUKS4CPUC51E","AKNYT1NTK2UFK","3FVBZG9CLJ0K37PD5L6161S4HTM0HN","","770.1999999992549","img/food4.png","76","772.6000000014901","3","1","3","1","1,0.5,0,1,0.5,0,0.5,0,1","1,0.5,0,1,0.5,0,0.5,0,1","1","",""
"","html-keyboard-response","37","71184","0.0-37.0","3Q5C1WP23NNAGNOUR4EUKS4CPUC51E","AKNYT1NTK2UFK","3FVBZG9CLJ0K37PD5L6161S4HTM0HN","","null","<img src=""img/food4.png"" style=""width:200px; border:14px solid green;"">","null","","","","","","","","","",""
"","image-keyboard-response","38","72108","0.0-38.0","3Q5C1WP23NNAGNOUR4EUKS4CPUC51E","AKNYT1NTK2UFK","3FVBZG9CLJ0K37PD5L6161S4HTM0HN","","920.7000000029802","img/food6.png","74","922.6999999992549","1","1","1","1","1,0.5,0,1,0.5,0,0.5,0,1","1,0.5,0,1,0.5,0,0.5,0,1","1","",""
"","html-keyboard-response","39","72413","0.0-39.0","3Q5C1WP23NNAGNOUR4EUKS4CPUC51E","AKNYT1NTK2UFK","3FVBZG9CLJ0K37PD5L6161S4HTM0HN","","null","<img src=""img/food6.png"" style=""width:200px; border:14px solid green;"">","null","","","","","","","","","",""
"","image-keyboard-response","40","72964","0.0-40.0","3Q5C1WP23NNAGNOUR4EUKS4CPUC51E","AKNYT1NTK2UFK","3FVBZG9CLJ0K37PD5L6161S4HTM0HN","","549.9000000022352","img/food1.png","74","551.2999999970198","1","1","2","1","1,0.5,0,1,0.5,0,0.5,0,1","1,0.5,0,1,0.5,0,0.5,0,1","1","",""
"","html-keyboard-response","41","73267","0.0-41.0","3Q5C1WP23NNAGNOUR4EUKS4CPUC51E","AKNYT1NTK2UFK","3FVBZG9CLJ0K37PD5L6161S4HTM0HN","","null","<img src=""img/food1.png"" style=""width:200px; border:14px solid green;"">","null","","","","","","","","","",""
"","image-keyboard-response","42","73845","0.0-42.0","3Q5C1WP23NNAGNOUR4EUKS4CPUC51E","AKNYT1NTK2UFK","3FVBZG9CLJ0K37PD5L6161S4HTM0HN","","576.6999999992549","img/food6.png","74","578","1","1","1","1","1,0.5,0,1,0.5,0,0.5,0,1","1,0.5,0,1,0.5,0,0.5,0,1","1","",""
"","html-keyboard-response","43","74148","0.0-43.0","3Q5C1WP23NNAGNOUR4EUKS4CPUC51E","AKNYT1NTK2UFK","3FVBZG9CLJ0K37PD5L6161S4HTM0HN","","null","<img src=""img/food6.png"" style=""width:200px; border:14px solid green;"">","null","","","","","","","","","",""
"","image-keyboard-response","44","75228","0.0-44.0","3Q5C1WP23NNAGNOUR4EUKS4CPUC51E","AKNYT1NTK2UFK","3FVBZG9CLJ0K37PD5L6161S4HTM0HN","","1077.9000000022352","img/food4.png","76","1079.0999999977648","3","1","3","1","1,0.5,0,1,0.5,0,0.5,0,1","1,0.5,0,1,0.5,0,0.5,0,1","1","",""
"","html-keyboard-response","45","75532","0.0-45.0","3Q5C1WP23NNAGNOUR4EUKS4CPUC51E","AKNYT1NTK2UFK","3FVBZG9CLJ0K37PD5L6161S4HTM0HN","","null","<img src=""img/food4.png"" style=""width:200px; border:14px solid green;"">","null","","","","","","","","","",""
"","image-keyboard-response","46","76063","0.0-46.0","3Q5C1WP23NNAGNOUR4EUKS4CPUC51E","AKNYT1NTK2UFK","3FVBZG9CLJ0K37PD5L6161S4HTM0HN","","527.3999999985099","img/food6.png","76","531","3","0","1","1","1,0.5,0,1,0.5,0,0.5,0,1","1,0.5,0,1,0.5,0,0.5,0,1","1","",""
"","html-keyboard-response","47","76367","0.0-47.0","3Q5C1WP23NNAGNOUR4EUKS4CPUC51E","AKNYT1NTK2UFK","3FVBZG9CLJ0K37PD5L6161S4HTM0HN","","null","<img src=""img/food6.png"" style=""width:200px;border:14px solid red;"">","null","","","","","","","","","",""
"","image-keyboard-response","48","77357","0.0-48.0","3Q5C1WP23NNAGNOUR4EUKS4CPUC51E","AKNYT1NTK2UFK","3FVBZG9CLJ0K37PD5L6161S4HTM0HN","","986.3999999985099","img/food1.png","74","988.9000000022352","1","1","2","1","1,0.5,0,1,0.5,0,0.5,0,1","1,0.5,0,1,0.5,0,0.5,0,1","1","",""
"","html-keyboard-response","49","77661","0.0-49.0","3Q5C1WP23NNAGNOUR4EUKS4CPUC51E","AKNYT1NTK2UFK","3FVBZG9CLJ0K37PD5L6161S4HTM0HN","","null","<img src=""img/food1.png"" style=""width:200px; border:14px solid green;"">","null","","","","","","","","","",""
"","image-keyboard-response","50","78236","0.0-50.0","3Q5C1WP23NNAGNOUR4EUKS4CPUC51E","AKNYT1NTK2UFK","3FVBZG9CLJ0K37PD5L6161S4HTM0HN","","572.6000000014901","img/food6.png","74","574.7000000029802","1","1","1","1","1,0.5,0,1,0.5,0,0.5,0,1","1,0.5,0,1,0.5,0,0.5,0,1","1","",""
"","html-keyboard-response","51","78541","0.0-51.0","3Q5C1WP23NNAGNOUR4EUKS4CPUC51E","AKNYT1NTK2UFK","3FVBZG9CLJ0K37PD5L6161S4HTM0HN","","null","<img src=""img/food6.png"" style=""width:200px; border:14px solid green;"">","null","","","","","","","","","",""
"","image-keyboard-response","52","79492","0.0-52.0","3Q5C1WP23NNAGNOUR4EUKS4CPUC51E","AKNYT1NTK2UFK","3FVBZG9CLJ0K37PD5L6161S4HTM0HN","","948.3000000007451","img/food4.png","76","950.5","3","1","3","1","1,0.5,0,1,0.5,0,0.5,0,1","1,0.5,0,1,0.5,0,0.5,0,1","1","",""
"","html-keyboard-response","53","79796","0.0-53.0","3Q5C1WP23NNAGNOUR4EUKS4CPUC51E","AKNYT1NTK2UFK","3FVBZG9CLJ0K37PD5L6161S4HTM0HN","","null","<img src=""img/food4.png"" style=""width:200px; border:14px solid green;"">","null","","","","","","","","","",""
"","image-keyboard-response","54","80556","0.0-54.0","3Q5C1WP23NNAGNOUR4EUKS4CPUC51E","AKNYT1NTK2UFK","3FVBZG9CLJ0K37PD5L6161S4HTM0HN","","757.7999999970198","img/food1.png","74","760.1000000014901","1","1","2","1","1,0.5,0,1,0.5,0,0.5,0,1","1,0.5,0,1,0.5,0,0.5,0,1","1","",""
"","html-keyboard-response","55","80860","0.0-55.0","3Q5C1WP23NNAGNOUR4EUKS4CPUC51E","AKNYT1NTK2UFK","3FVBZG9CLJ0K37PD5L6161S4HTM0HN","","null","<img src=""img/food1.png"" style=""width:200px; border:14px solid green;"">","null","","","","","","","","","",""
"","image-keyboard-response","56","81259","0.0-56.0","3Q5C1WP23NNAGNOUR4EUKS4CPUC51E","AKNYT1NTK2UFK","3FVBZG9CLJ0K37PD5L6161S4HTM0HN","","397.69999999925494","img/food4.png","74","399.1000000014901","1","1","3","1","1,0.5,0,1,0.5,0,0.5,0,1","1,0.5,0,1,0.5,0,0.5,0,1","1","",""
"","html-keyboard-response","57","81564","0.0-57.0","3Q5C1WP23NNAGNOUR4EUKS4CPUC51E","AKNYT1NTK2UFK","3FVBZG9CLJ0K37PD5L6161S4HTM0HN","","null","<img src=""img/food4.png"" style=""width:200px; border:14px solid green;"">","null","","","","","","","","","",""
"","image-keyboard-response","58","82513","0.0-58.0","3Q5C1WP23NNAGNOUR4EUKS4CPUC51E","AKNYT1NTK2UFK","3FVBZG9CLJ0K37PD5L6161S4HTM0HN","","945.3000000007451","img/food6.png","74","947.2000000029802","1","1","1","1","1,0.5,0,1,0.5,0,0.5,0,1","1,0.5,0,1,0.5,0,0.5,0,1","1","",""
"","html-keyboard-response","59","82815","0.0-59.0","3Q5C1WP23NNAGNOUR4EUKS4CPUC51E","AKNYT1NTK2UFK","3FVBZG9CLJ0K37PD5L6161S4HTM0HN","","null","<img src=""img/food6.png"" style=""width:200px; border:14px solid green;"">","null","","","","","","","","","",""
"","image-keyboard-response","60","83802","0.0-60.0","3Q5C1WP23NNAGNOUR4EUKS4CPUC51E","AKNYT1NTK2UFK","3FVBZG9CLJ0K37PD5L6161S4HTM0HN","","983.9000000022352","img/food1.png","74","986.2999999970198","1","1","2","1","1,0.5,0,1,0.5,0,0.5,0,1","1,0.5,0,1,0.5,0,0.5,0,1","1","",""
"","html-keyboard-response","61","84106","0.0-61.0","3Q5C1WP23NNAGNOUR4EUKS4CPUC51E","AKNYT1NTK2UFK","3FVBZG9CLJ0K37PD5L6161S4HTM0HN","","null","<img src=""img/food1.png"" style=""width:200px; border:14px solid green;"">","null","","","","","","","","","",""
"","image-keyboard-response","62","84957","0.0-62.0","3Q5C1WP23NNAGNOUR4EUKS4CPUC51E","AKNYT1NTK2UFK","3FVBZG9CLJ0K37PD5L6161S4HTM0HN","","850.2000000029802","img/food4.png","76","851.3000000007451","3","1","3","1","1,0.5,0,1,0.5,0,0.5,0,1","1,0.5,0,1,0.5,0,0.5,0,1","1","",""
"","html-keyboard-response","63","85260","0.0-63.0","3Q5C1WP23NNAGNOUR4EUKS4CPUC51E","AKNYT1NTK2UFK","3FVBZG9CLJ0K37PD5L6161S4HTM0HN","","null","<img src=""img/food4.png"" style=""width:200px; border:14px solid green;"">","null","","","","","","","","","",""
"","image-keyboard-response","64","86977","0.0-64.0","3Q5C1WP23NNAGNOUR4EUKS4CPUC51E","AKNYT1NTK2UFK","3FVBZG9CLJ0K37PD5L6161S4HTM0HN","","1713.699999999255","img/food1.png","74","1715.5999999977648","1","1","2","1","1,0.5,0,1,0.5,0,0.5,0,1","1,0.5,0,1,0.5,0,0.5,0,1","1","",""
"","html-keyboard-response","65","87280","0.0-65.0","3Q5C1WP23NNAGNOUR4EUKS4CPUC51E","AKNYT1NTK2UFK","3FVBZG9CLJ0K37PD5L6161S4HTM0HN","","null","<img src=""img/food1.png"" style=""width:200px; border:14px solid green;"">","null","","","","","","","","","",""
"","image-keyboard-response","66","88209","0.0-66.0","3Q5C1WP23NNAGNOUR4EUKS4CPUC51E","AKNYT1NTK2UFK","3FVBZG9CLJ0K37PD5L6161S4HTM0HN","","926.3999999985099","img/food6.png","74","928.6000000014901","1","1","1","1","1,0.5,0,1,0.5,0,0.5,0,1","1,0.5,0,1,0.5,0,0.5,0,1","1","",""
"","html-keyboard-response","67","88513","0.0-67.0","3Q5C1WP23NNAGNOUR4EUKS4CPUC51E","AKNYT1NTK2UFK","3FVBZG9CLJ0K37PD5L6161S4HTM0HN","","null","<img src=""img/food6.png"" style=""width:200px; border:14px solid green;"">","null","","","","","","","","","",""
"","image-keyboard-response","68","89836","0.0-68.0","3Q5C1WP23NNAGNOUR4EUKS4CPUC51E","AKNYT1NTK2UFK","3FVBZG9CLJ0K37PD5L6161S4HTM0HN","","1320.199999999255","img/food4.png","76","1322.1000000014901","3","1","3","1","1,0.5,0,1,0.5,0,0.5,0,1","1,0.5,0,1,0.5,0,0.5,0,1","1","",""
"","html-keyboard-response","69","90139","0.0-69.0","3Q5C1WP23NNAGNOUR4EUKS4CPUC51E","AKNYT1NTK2UFK","3FVBZG9CLJ0K37PD5L6161S4HTM0HN","","null","<img src=""img/food4.png"" style=""width:200px; border:14px solid green;"">","null","","","","","","","","","",""
"","image-keyboard-response","70","91193","0.0-70.0","3Q5C1WP23NNAGNOUR4EUKS4CPUC51E","AKNYT1NTK2UFK","3FVBZG9CLJ0K37PD5L6161S4HTM0HN","","1051.3999999985099","img/food4.png","76","1053.6000000014901","3","1","3","1","1,0.5,0,1,0.5,0,0.5,0,1","1,0.5,0,1,0.5,0,0.5,0,1","1","",""
"","html-keyboard-response","71","91497","0.0-71.0","3Q5C1WP23NNAGNOUR4EUKS4CPUC51E","AKNYT1NTK2UFK","3FVBZG9CLJ0K37PD5L6161S4HTM0HN","","null","<img src=""img/food4.png"" style=""width:200px; border:14px solid green;"">","null","","","","","","","","","",""
"","image-keyboard-response","72","92380","0.0-72.0","3Q5C1WP23NNAGNOUR4EUKS4CPUC51E","AKNYT1NTK2UFK","3FVBZG9CLJ0K37PD5L6161S4HTM0HN","","879.8000000007451","img/food1.png","74","881.9000000022352","1","1","2","1","1,0.5,0,1,0.5,0,0.5,0,1","1,0.5,0,1,0.5,0,0.5,0,1","1","",""
"","html-keyboard-response","73","92685","0.0-73.0","3Q5C1WP23NNAGNOUR4EUKS4CPUC51E","AKNYT1NTK2UFK","3FVBZG9CLJ0K37PD5L6161S4HTM0HN","","null","<img src=""img/food1.png"" style=""width:200px; border:14px solid green;"">","null","","","","","","","","","",""
"","image-keyboard-response","74","93124","0.0-74.0","3Q5C1WP23NNAGNOUR4EUKS4CPUC51E","AKNYT1NTK2UFK","3FVBZG9CLJ0K37PD5L6161S4HTM0HN","","435.30000000074506","img/food4.png","74","438","1","1","3","1","1,0.5,0,1,0.5,0,0.5,0,1","1,0.5,0,1,0.5,0,0.5,0,1","1","",""
"","html-keyboard-response","75","93427","0.0-75.0","3Q5C1WP23NNAGNOUR4EUKS4CPUC51E","AKNYT1NTK2UFK","3FVBZG9CLJ0K37PD5L6161S4HTM0HN","","null","<img src=""img/food4.png"" style=""width:200px; border:14px solid green;"">","null","","","","","","","","","",""
"","image-keyboard-response","76","94157","0.0-76.0","3Q5C1WP23NNAGNOUR4EUKS4CPUC51E","AKNYT1NTK2UFK","3FVBZG9CLJ0K37PD5L6161S4HTM0HN","","728.7000000029802","img/food4.png","74","729.9000000022352","1","0","3","1","1,0.5,0,1,0.5,0,0.5,0,1","1,0.5,0,1,0.5,0,0.5,0,1","1","",""
"","html-keyboard-response","77","94460","0.0-77.0","3Q5C1WP23NNAGNOUR4EUKS4CPUC51E","AKNYT1NTK2UFK","3FVBZG9CLJ0K37PD5L6161S4HTM0HN","","null","<img src=""img/food4.png"" style=""width:200px;border:14px solid red;"">","null","","","","","","","","","",""
"","image-keyboard-response","78","95483","0.0-78.0","3Q5C1WP23NNAGNOUR4EUKS4CPUC51E","AKNYT1NTK2UFK","3FVBZG9CLJ0K37PD5L6161S4HTM0HN","","1019.5","img/food1.png","74","1022.1000000014901","1","1","2","1","1,0.5,0,1,0.5,0,0.5,0,1","1,0.5,0,1,0.5,0,0.5,0,1","1","",""
"","html-keyboard-response","79","95785","0.0-79.0","3Q5C1WP23NNAGNOUR4EUKS4CPUC51E","AKNYT1NTK2UFK","3FVBZG9CLJ0K37PD5L6161S4HTM0HN","","null","<img src=""img/food1.png"" style=""width:200px; border:14px solid green;"">","null","","","","","","","","","",""
"","image-keyboard-response","80","96607","0.0-80.0","3Q5C1WP23NNAGNOUR4EUKS4CPUC51E","AKNYT1NTK2UFK","3FVBZG9CLJ0K37PD5L6161S4HTM0HN","","819","img/food6.png","74","820.8999999985099","1","1","1","1","1,0.5,0,1,0.5,0,0.5,0,1","1,0.5,0,1,0.5,0,0.5,0,1","1","",""
"","html-keyboard-response","81","96910","0.0-81.0","3Q5C1WP23NNAGNOUR4EUKS4CPUC51E","AKNYT1NTK2UFK","3FVBZG9CLJ0K37PD5L6161S4HTM0HN","","null","<img src=""img/food6.png"" style=""width:200px; border:14px solid green;"">","null","","","","","","","","","",""
"","image-keyboard-response","82","97532","0.0-82.0","3Q5C1WP23NNAGNOUR4EUKS4CPUC51E","AKNYT1NTK2UFK","3FVBZG9CLJ0K37PD5L6161S4HTM0HN","","618.3000000007451","img/food1.png","76","620.8000000007451","3","0","2","1","1,0.5,0,1,0.5,0,0.5,0,1","1,0.5,0,1,0.5,0,0.5,0,1","1","",""
"","html-keyboard-response","83","97838","0.0-83.0","3Q5C1WP23NNAGNOUR4EUKS4CPUC51E","AKNYT1NTK2UFK","3FVBZG9CLJ0K37PD5L6161S4HTM0HN","","null","<img src=""img/food1.png"" style=""width:200px;border:14px solid red;"">","null","","","","","","","","","",""
"","image-keyboard-response","84","99022","0.0-84.0","3Q5C1WP23NNAGNOUR4EUKS4CPUC51E","AKNYT1NTK2UFK","3FVBZG9CLJ0K37PD5L6161S4HTM0HN","","1181.800000000745","img/food6.png","74","1183.699999999255","1","1","1","1","1,0.5,0,1,0.5,0,0.5,0,1","1,0.5,0,1,0.5,0,0.5,0,1","1","",""
"","html-keyboard-response","85","99324","0.0-85.0","3Q5C1WP23NNAGNOUR4EUKS4CPUC51E","AKNYT1NTK2UFK","3FVBZG9CLJ0K37PD5L6161S4HTM0HN","","null","<img src=""img/food6.png"" style=""width:200px; border:14px solid green;"">","null","","","","","","","","","",""
"","image-keyboard-response","86","99981","0.0-86.0","3Q5C1WP23NNAGNOUR4EUKS4CPUC51E","AKNYT1NTK2UFK","3FVBZG9CLJ0K37PD5L6161S4HTM0HN","","655.5","img/food1.png","74","656.8000000007451","1","1","2","1","1,0.5,0,1,0.5,0,0.5,0,1","1,0.5,0,1,0.5,0,0.5,0,1","1","",""
"","html-keyboard-response","87","100296","0.0-87.0","3Q5C1WP23NNAGNOUR4EUKS4CPUC51E","AKNYT1NTK2UFK","3FVBZG9CLJ0K37PD5L6161S4HTM0HN","","null","<img src=""img/food1.png"" style=""width:200px; border:14px solid green;"">","null","","","","","","","","","",""
"","image-keyboard-response","88","100998","0.0-88.0","3Q5C1WP23NNAGNOUR4EUKS4CPUC51E","AKNYT1NTK2UFK","3FVBZG9CLJ0K37PD5L6161S4HTM0HN","","699.3999999985099","img/food6.png","74","701.3999999985099","1","1","1","1","1,0.5,0,1,0.5,0,0.5,0,1","1,0.5,0,1,0.5,0,0.5,0,1","1","",""
"","html-keyboard-response","89","101302","0.0-89.0","3Q5C1WP23NNAGNOUR4EUKS4CPUC51E","AKNYT1NTK2UFK","3FVBZG9CLJ0K37PD5L6161S4HTM0HN","","null","<img src=""img/food6.png"" style=""width:200px; border:14px solid green;"">","null","","","","","","","","","",""
"","image-keyboard-response","90","101774","0.0-90.0","3Q5C1WP23NNAGNOUR4EUKS4CPUC51E","AKNYT1NTK2UFK","3FVBZG9CLJ0K37PD5L6161S4HTM0HN","","469.3999999985099","img/food1.png","74","472","1","1","2","1","1,0.5,0,1,0.5,0,0.5,0,1","1,0.5,0,1,0.5,0,0.5,0,1","1","",""
"","html-keyboard-response","91","102079","0.0-91.0","3Q5C1WP23NNAGNOUR4EUKS4CPUC51E","AKNYT1NTK2UFK","3FVBZG9CLJ0K37PD5L6161S4HTM0HN","","null","<img src=""img/food1.png"" style=""width:200px; border:14px solid green;"">","null","","","","","","","","","",""
"","image-keyboard-response","92","102954","0.0-92.0","3Q5C1WP23NNAGNOUR4EUKS4CPUC51E","AKNYT1NTK2UFK","3FVBZG9CLJ0K37PD5L6161S4HTM0HN","","871.5999999977648","img/food4.png","76","874.5","3","1","3","1","1,0.5,0,1,0.5,0,0.5,0,1","1,0.5,0,1,0.5,0,0.5,0,1","1","",""
"","html-keyboard-response","93","103258","0.0-93.0","3Q5C1WP23NNAGNOUR4EUKS4CPUC51E","AKNYT1NTK2UFK","3FVBZG9CLJ0K37PD5L6161S4HTM0HN","","null","<img src=""img/food4.png"" style=""width:200px; border:14px solid green;"">","null","","","","","","","","","",""
"","image-keyboard-response","94","104138","0.0-94.0","3Q5C1WP23NNAGNOUR4EUKS4CPUC51E","AKNYT1NTK2UFK","3FVBZG9CLJ0K37PD5L6161S4HTM0HN","","877.1999999992549","img/food1.png","74","879.1000000014901","1","1","2","1","1,0.5,0,1,0.5,0,0.5,0,1","1,0.5,0,1,0.5,0,0.5,0,1","1","",""
"","html-keyboard-response","95","104445","0.0-95.0","3Q5C1WP23NNAGNOUR4EUKS4CPUC51E","AKNYT1NTK2UFK","3FVBZG9CLJ0K37PD5L6161S4HTM0HN","","null","<img src=""img/food1.png"" style=""width:200px; border:14px solid green;"">","null","","","","","","","","","",""
"","image-keyboard-response","96","105043","0.0-96.0","3Q5C1WP23NNAGNOUR4EUKS4CPUC51E","AKNYT1NTK2UFK","3FVBZG9CLJ0K37PD5L6161S4HTM0HN","","596.6999999992549","img/food1.png","74","597.9000000022352","1","1","2","1","1,0.5,0,1,0.5,0,0.5,0,1","1,0.5,0,1,0.5,0,0.5,0,1","1","",""
"","html-keyboard-response","97","105347","0.0-97.0","3Q5C1WP23NNAGNOUR4EUKS4CPUC51E","AKNYT1NTK2UFK","3FVBZG9CLJ0K37PD5L6161S4HTM0HN","","null","<img src=""img/food1.png"" style=""width:200px; border:14px solid green;"">","null","","","","","","","","","",""
"","image-keyboard-response","98","106275","0.0-98.0","3Q5C1WP23NNAGNOUR4EUKS4CPUC51E","AKNYT1NTK2UFK","3FVBZG9CLJ0K37PD5L6161S4HTM0HN","","924.9000000022352","img/food4.png","76","927.1999999992549","3","1","3","1","1,0.5,0,1,0.5,0,0.5,0,1","1,0.5,0,1,0.5,0,0.5,0,1","1","",""
"","html-keyboard-response","99","106578","0.0-99.0","3Q5C1WP23NNAGNOUR4EUKS4CPUC51E","AKNYT1NTK2UFK","3FVBZG9CLJ0K37PD5L6161S4HTM0HN","","null","<img src=""img/food4.png"" style=""width:200px; border:14px solid green;"">","null","","","","","","","","","",""
"","image-keyboard-response","100","107535","0.0-100.0","3Q5C1WP23NNAGNOUR4EUKS4CPUC51E","AKNYT1NTK2UFK","3FVBZG9CLJ0K37PD5L6161S4HTM0HN","","953.1000000014901","img/food1.png","74","955.4000000022352","1","1","2","1","1,0.5,0,1,0.5,0,0.5,0,1","1,0.5,0,1,0.5,0,0.5,0,1","1","",""
"","html-keyboard-response","101","107838","0.0-101.0","3Q5C1WP23NNAGNOUR4EUKS4CPUC51E","AKNYT1NTK2UFK","3FVBZG9CLJ0K37PD5L6161S4HTM0HN","","null","<img src=""img/food1.png"" style=""width:200px; border:14px solid green;"">","null","","","","","","","","","",""
"","image-keyboard-response","102","108770","0.0-102.0","3Q5C1WP23NNAGNOUR4EUKS4CPUC51E","AKNYT1NTK2UFK","3FVBZG9CLJ0K37PD5L6161S4HTM0HN","","930.5999999977648","img/food6.png","74","931.9000000022352","1","1","1","1","1,0.5,0,1,0.5,0,0.5,0,1","1,0.5,0,1,0.5,0,0.5,0,1","1","",""
"","html-keyboard-response","103","109072","0.0-103.0","3Q5C1WP23NNAGNOUR4EUKS4CPUC51E","AKNYT1NTK2UFK","3FVBZG9CLJ0K37PD5L6161S4HTM0HN","","null","<img src=""img/food6.png"" style=""width:200px; border:14px solid green;"">","null","","","","","","","","","",""
"","image-keyboard-response","104","109635","0.0-104.0","3Q5C1WP23NNAGNOUR4EUKS4CPUC51E","AKNYT1NTK2UFK","3FVBZG9CLJ0K37PD5L6161S4HTM0HN","","560.4000000022352","img/food6.png","74","562.3000000007451","1","1","1","1","1,0.5,0,1,0.5,0,0.5,0,1","1,0.5,0,1,0.5,0,0.5,0,1","1","",""
"","html-keyboard-response","105","109938","0.0-105.0","3Q5C1WP23NNAGNOUR4EUKS4CPUC51E","AKNYT1NTK2UFK","3FVBZG9CLJ0K37PD5L6161S4HTM0HN","","null","<img src=""img/food6.png"" style=""width:200px; border:14px solid green;"">","null","","","","","","","","","",""
"","image-keyboard-response","106","111120","0.0-106.0","3Q5C1WP23NNAGNOUR4EUKS4CPUC51E","AKNYT1NTK2UFK","3FVBZG9CLJ0K37PD5L6161S4HTM0HN","","1179.9000000022352","img/food1.png","74","1181.199999999255","1","1","2","1","1,0.5,0,1,0.5,0,0.5,0,1","1,0.5,0,1,0.5,0,0.5,0,1","1","",""
"","html-keyboard-response","107","111423","0.0-107.0","3Q5C1WP23NNAGNOUR4EUKS4CPUC51E","AKNYT1NTK2UFK","3FVBZG9CLJ0K37PD5L6161S4HTM0HN","","null","<img src=""img/food1.png"" style=""width:200px; border:14px solid green;"">","null","","","","","","","","","",""
"","image-keyboard-response","108","112774","0.0-108.0","3Q5C1WP23NNAGNOUR4EUKS4CPUC51E","AKNYT1NTK2UFK","3FVBZG9CLJ0K37PD5L6161S4HTM0HN","","1349.5999999977648","img/food4.png","76","1350.8999999985099","3","1","3","1","1,0.5,0,1,0.5,0,0.5,0,1","1,0.5,0,1,0.5,0,0.5,0,1","1","",""
"","html-keyboard-response","109","113079","0.0-109.0","3Q5C1WP23NNAGNOUR4EUKS4CPUC51E","AKNYT1NTK2UFK","3FVBZG9CLJ0K37PD5L6161S4HTM0HN","","null","<img src=""img/food4.png"" style=""width:200px; border:14px solid green;"">","null","","","","","","","","","",""
"","image-keyboard-response","110","113955","0.0-110.0","3Q5C1WP23NNAGNOUR4EUKS4CPUC51E","AKNYT1NTK2UFK","3FVBZG9CLJ0K37PD5L6161S4HTM0HN","","871.1000000014901","img/food1.png","74","876","1","1","2","1","1,0.5,0,1,0.5,0,0.5,0,1","1,0.5,0,1,0.5,0,0.5,0,1","1","",""
"","html-keyboard-response","111","114259","0.0-111.0","3Q5C1WP23NNAGNOUR4EUKS4CPUC51E","AKNYT1NTK2UFK","3FVBZG9CLJ0K37PD5L6161S4HTM0HN","","null","<img src=""img/food1.png"" style=""width:200px; border:14px solid green;"">","null","","","","","","","","","",""
"","image-keyboard-response","112","115331","0.0-112.0","3Q5C1WP23NNAGNOUR4EUKS4CPUC51E","AKNYT1NTK2UFK","3FVBZG9CLJ0K37PD5L6161S4HTM0HN","","1071.0999999977648","img/food4.png","76","1072.5999999977648","3","1","3","1","1,0.5,0,1,0.5,0,0.5,0,1","1,0.5,0,1,0.5,0,0.5,0,1","1","",""
"","html-keyboard-response","113","115634","0.0-113.0","3Q5C1WP23NNAGNOUR4EUKS4CPUC51E","AKNYT1NTK2UFK","3FVBZG9CLJ0K37PD5L6161S4HTM0HN","","null","<img src=""img/food4.png"" style=""width:200px; border:14px solid green;"">","null","","","","","","","","","",""
"","image-keyboard-response","114","116537","0.0-114.0","3Q5C1WP23NNAGNOUR4EUKS4CPUC51E","AKNYT1NTK2UFK","3FVBZG9CLJ0K37PD5L6161S4HTM0HN","","901.3999999985099","img/food4.png","76","902.6999999992549","3","1","3","1","1,0.5,0,1,0.5,0,0.5,0,1","1,0.5,0,1,0.5,0,0.5,0,1","1","",""
"","html-keyboard-response","115","116840","0.0-115.0","3Q5C1WP23NNAGNOUR4EUKS4CPUC51E","AKNYT1NTK2UFK","3FVBZG9CLJ0K37PD5L6161S4HTM0HN","","null","<img src=""img/food4.png"" style=""width:200px; border:14px solid green;"">","null","","","","","","","","","",""
"","image-keyboard-response","116","117693","0.0-116.0","3Q5C1WP23NNAGNOUR4EUKS4CPUC51E","AKNYT1NTK2UFK","3FVBZG9CLJ0K37PD5L6161S4HTM0HN","","849.8000000007451","img/food6.png","74","852","1","1","1","1","1,0.5,0,1,0.5,0,0.5,0,1","1,0.5,0,1,0.5,0,0.5,0,1","1","",""
"","html-keyboard-response","117","117995","0.0-117.0","3Q5C1WP23NNAGNOUR4EUKS4CPUC51E","AKNYT1NTK2UFK","3FVBZG9CLJ0K37PD5L6161S4HTM0HN","","null","<img src=""img/food6.png"" style=""width:200px; border:14px solid green;"">","null","","","","","","","","","",""
"","image-keyboard-response","118","119166","0.0-118.0","3Q5C1WP23NNAGNOUR4EUKS4CPUC51E","AKNYT1NTK2UFK","3FVBZG9CLJ0K37PD5L6161S4HTM0HN","","1169.2999999970198","img/food4.png","76","1170.5999999977648","3","1","3","1","1,0.5,0,1,0.5,0,0.5,0,1","1,0.5,0,1,0.5,0,0.5,0,1","1","",""
"","html-keyboard-response","119","119470","0.0-119.0","3Q5C1WP23NNAGNOUR4EUKS4CPUC51E","AKNYT1NTK2UFK","3FVBZG9CLJ0K37PD5L6161S4HTM0HN","","null","<img src=""img/food4.png"" style=""width:200px; border:14px solid green;"">","null","","","","","","","","","",""
"","image-keyboard-response","120","120709","0.0-120.0","3Q5C1WP23NNAGNOUR4EUKS4CPUC51E","AKNYT1NTK2UFK","3FVBZG9CLJ0K37PD5L6161S4HTM0HN","","1236.6000000014901","img/food4.png","76","1238.7999999970198","3","1","3","1","1,0.5,0,1,0.5,0,0.5,0,1","1,0.5,0,1,0.5,0,0.5,0,1","1","",""
"","html-keyboard-response","121","121015","0.0-121.0","3Q5C1WP23NNAGNOUR4EUKS4CPUC51E","AKNYT1NTK2UFK","3FVBZG9CLJ0K37PD5L6161S4HTM0HN","","null","<img src=""img/food4.png"" style=""width:200px; border:14px solid green;"">","null","","","","","","","","","",""
"","image-keyboard-response","122","121833","0.0-122.0","3Q5C1WP23NNAGNOUR4EUKS4CPUC51E","AKNYT1NTK2UFK","3FVBZG9CLJ0K37PD5L6161S4HTM0HN","","815","img/food4.png","76","817.2000000029802","3","1","3","1","1,0.5,0,1,0.5,0,0.5,0,1","1,0.5,0,1,0.5,0,0.5,0,1","1","",""
"","html-keyboard-response","123","122137","0.0-123.0","3Q5C1WP23NNAGNOUR4EUKS4CPUC51E","AKNYT1NTK2UFK","3FVBZG9CLJ0K37PD5L6161S4HTM0HN","","null","<img src=""img/food4.png"" style=""width:200px; border:14px solid green;"">","null","","","","","","","","","",""
"","image-keyboard-response","124","123027","0.0-124.0","3Q5C1WP23NNAGNOUR4EUKS4CPUC51E","AKNYT1NTK2UFK","3FVBZG9CLJ0K37PD5L6161S4HTM0HN","","887.2000000029802","img/food1.png","74","889.1999999992549","1","1","2","1","1,0.5,0,1,0.5,0,0.5,0,1","1,0.5,0,1,0.5,0,0.5,0,1","1","",""
"","html-keyboard-response","125","123329","0.0-125.0","3Q5C1WP23NNAGNOUR4EUKS4CPUC51E","AKNYT1NTK2UFK","3FVBZG9CLJ0K37PD5L6161S4HTM0HN","","null","<img src=""img/food1.png"" style=""width:200px; border:14px solid green;"">","null","","","","","","","","","",""
"","image-keyboard-response","126","123861","0.0-126.0","3Q5C1WP23NNAGNOUR4EUKS4CPUC51E","AKNYT1NTK2UFK","3FVBZG9CLJ0K37PD5L6161S4HTM0HN","","529.1000000014901","img/food1.png","74","530.8000000007451","1","1","2","1","1,0.5,0,1,0.5,0,0.5,0,1","1,0.5,0,1,0.5,0,0.5,0,1","1","",""
"","html-keyboard-response","127","124164","0.0-127.0","3Q5C1WP23NNAGNOUR4EUKS4CPUC51E","AKNYT1NTK2UFK","3FVBZG9CLJ0K37PD5L6161S4HTM0HN","","null","<img src=""img/food1.png"" style=""width:200px; border:14px solid green;"">","null","","","","","","","","","",""
"","image-keyboard-response","128","125057","0.0-128.0","3Q5C1WP23NNAGNOUR4EUKS4CPUC51E","AKNYT1NTK2UFK","3FVBZG9CLJ0K37PD5L6161S4HTM0HN","","890.3999999985099","img/food6.png","74","892.3999999985099","1","1","1","1","1,0.5,0,1,0.5,0,0.5,0,1","1,0.5,0,1,0.5,0,0.5,0,1","1","",""
"","html-keyboard-response","129","125359","0.0-129.0","3Q5C1WP23NNAGNOUR4EUKS4CPUC51E","AKNYT1NTK2UFK","3FVBZG9CLJ0K37PD5L6161S4HTM0HN","","null","<img src=""img/food6.png"" style=""width:200px; border:14px solid green;"">","null","","","","","","","","","",""
"","image-keyboard-response","130","125970","0.0-130.0","3Q5C1WP23NNAGNOUR4EUKS4CPUC51E","AKNYT1NTK2UFK","3FVBZG9CLJ0K37PD5L6161S4HTM0HN","","609","img/food6.png","74","610.3000000007451","1","1","1","1","1,0.5,0,1,0.5,0,0.5,0,1","1,0.5,0,1,0.5,0,0.5,0,1","1","",""
"","html-keyboard-response","131","126273","0.0-131.0","3Q5C1WP23NNAGNOUR4EUKS4CPUC51E","AKNYT1NTK2UFK","3FVBZG9CLJ0K37PD5L6161S4HTM0HN","","null","<img src=""img/food6.png"" style=""width:200px; border:14px solid green;"">","null","","","","","","","","","",""
"","image-keyboard-response","132","127361","0.0-132.0","3Q5C1WP23NNAGNOUR4EUKS4CPUC51E","AKNYT1NTK2UFK","3FVBZG9CLJ0K37PD5L6161S4HTM0HN","","1085.5","img/food4.png","76","1086.7999999970198","3","1","3","1","1,0.5,0,1,0.5,0,0.5,0,1","1,0.5,0,1,0.5,0,0.5,0,1","1","",""
"","html-keyboard-response","133","127664","0.0-133.0","3Q5C1WP23NNAGNOUR4EUKS4CPUC51E","AKNYT1NTK2UFK","3FVBZG9CLJ0K37PD5L6161S4HTM0HN","","null","<img src=""img/food4.png"" style=""width:200px; border:14px solid green;"">","null","","","","","","","","","",""
"","image-keyboard-response","134","128042","0.0-134.0","3Q5C1WP23NNAGNOUR4EUKS4CPUC51E","AKNYT1NTK2UFK","3FVBZG9CLJ0K37PD5L6161S4HTM0HN","","376.69999999925494","img/food4.png","76","378","3","1","3","1","1,0.5,0,1,0.5,0,0.5,0,1","1,0.5,0,1,0.5,0,0.5,0,1","1","",""
"","html-keyboard-response","135","128345","0.0-135.0","3Q5C1WP23NNAGNOUR4EUKS4CPUC51E","AKNYT1NTK2UFK","3FVBZG9CLJ0K37PD5L6161S4HTM0HN","","null","<img src=""img/food4.png"" style=""width:200px; border:14px solid green;"">","null","","","","","","","","","",""
"","image-keyboard-response","136","129209","0.0-136.0","3Q5C1WP23NNAGNOUR4EUKS4CPUC51E","AKNYT1NTK2UFK","3FVBZG9CLJ0K37PD5L6161S4HTM0HN","","860.8000000007451","img/food6.png","74","863.4000000022352","1","1","1","1","1,0.5,0,1,0.5,0,0.5,0,1","1,0.5,0,1,0.5,0,0.5,0,1","1","",""
"","html-keyboard-response","137","129513","0.0-137.0","3Q5C1WP23NNAGNOUR4EUKS4CPUC51E","AKNYT1NTK2UFK","3FVBZG9CLJ0K37PD5L6161S4HTM0HN","","null","<img src=""img/food6.png"" style=""width:200px; border:14px solid green;"">","null","","","","","","","","","",""
"","image-keyboard-response","138","130214","0.0-138.0","3Q5C1WP23NNAGNOUR4EUKS4CPUC51E","AKNYT1NTK2UFK","3FVBZG9CLJ0K37PD5L6161S4HTM0HN","","699.8000000007451","img/food1.png","74","701.1999999992549","1","1","2","1","1,0.5,0,1,0.5,0,0.5,0,1","1,0.5,0,1,0.5,0,0.5,0,1","1","",""
"","html-keyboard-response","139","130518","0.0-139.0","3Q5C1WP23NNAGNOUR4EUKS4CPUC51E","AKNYT1NTK2UFK","3FVBZG9CLJ0K37PD5L6161S4HTM0HN","","null","<img src=""img/food1.png"" style=""width:200px; border:14px solid green;"">","null","","","","","","","","","",""
"","image-keyboard-response","140","130945","0.0-140.0","3Q5C1WP23NNAGNOUR4EUKS4CPUC51E","AKNYT1NTK2UFK","3FVBZG9CLJ0K37PD5L6161S4HTM0HN","","424.5","img/food1.png","74","426.79999999701977","1","1","2","1","1,0.5,0,1,0.5,0,0.5,0,1","1,0.5,0,1,0.5,0,0.5,0,1","1","",""
"","html-keyboard-response","141","131247","0.0-141.0","3Q5C1WP23NNAGNOUR4EUKS4CPUC51E","AKNYT1NTK2UFK","3FVBZG9CLJ0K37PD5L6161S4HTM0HN","","null","<img src=""img/food1.png"" style=""width:200px; border:14px solid green;"">","null","","","","","","","","","",""
"","image-keyboard-response","142","131699","0.0-142.0","3Q5C1WP23NNAGNOUR4EUKS4CPUC51E","AKNYT1NTK2UFK","3FVBZG9CLJ0K37PD5L6161S4HTM0HN","","449.80000000074506","img/food4.png","74","451","1","0","3","1","1,0.5,0,1,0.5,0,0.5,0,1","1,0.5,0,1,0.5,0,0.5,0,1","1","",""
"","html-keyboard-response","143","132002","0.0-143.0","3Q5C1WP23NNAGNOUR4EUKS4CPUC51E","AKNYT1NTK2UFK","3FVBZG9CLJ0K37PD5L6161S4HTM0HN","","null","<img src=""img/food4.png"" style=""width:200px;border:14px solid red;"">","null","","","","","","","","","",""
"","image-keyboard-response","144","132513","0.0-144.0","3Q5C1WP23NNAGNOUR4EUKS4CPUC51E","AKNYT1NTK2UFK","3FVBZG9CLJ0K37PD5L6161S4HTM0HN","","509.69999999925494","img/food6.png","74","511.5999999977648","1","1","1","1","1,0.5,0,1,0.5,0,0.5,0,1","1,0.5,0,1,0.5,0,0.5,0,1","1","",""
"","html-keyboard-response","145","132817","0.0-145.0","3Q5C1WP23NNAGNOUR4EUKS4CPUC51E","AKNYT1NTK2UFK","3FVBZG9CLJ0K37PD5L6161S4HTM0HN","","null","<img src=""img/food6.png"" style=""width:200px; border:14px solid green;"">","null","","","","","","","","","",""
"","image-keyboard-response","146","133782","0.0-146.0","3Q5C1WP23NNAGNOUR4EUKS4CPUC51E","AKNYT1NTK2UFK","3FVBZG9CLJ0K37PD5L6161S4HTM0HN","","963.3000000007451","img/food4.png","76","964.5","3","1","3","1","1,0.5,0,1,0.5,0,0.5,0,1","1,0.5,0,1,0.5,0,0.5,0,1","1","",""
"","html-keyboard-response","147","134085","0.0-147.0","3Q5C1WP23NNAGNOUR4EUKS4CPUC51E","AKNYT1NTK2UFK","3FVBZG9CLJ0K37PD5L6161S4HTM0HN","","null","<img src=""img/food4.png"" style=""width:200px; border:14px solid green;"">","null","","","","","","","","","",""
"","image-keyboard-response","148","135035","0.0-148.0","3Q5C1WP23NNAGNOUR4EUKS4CPUC51E","AKNYT1NTK2UFK","3FVBZG9CLJ0K37PD5L6161S4HTM0HN","","948.6999999992549","img/food6.png","74","949.9000000022352","1","1","1","1","1,0.5,0,1,0.5,0,0.5,0,1","1,0.5,0,1,0.5,0,0.5,0,1","1","",""
"","html-keyboard-response","149","135338","0.0-149.0","3Q5C1WP23NNAGNOUR4EUKS4CPUC51E","AKNYT1NTK2UFK","3FVBZG9CLJ0K37PD5L6161S4HTM0HN","","null","<img src=""img/food6.png"" style=""width:200px; border:14px solid green;"">","null","","","","","","","","","",""
"","image-keyboard-response","150","136120","0.0-150.0","3Q5C1WP23NNAGNOUR4EUKS4CPUC51E","AKNYT1NTK2UFK","3FVBZG9CLJ0K37PD5L6161S4HTM0HN","","781.1999999992549","img/food1.png","74","782.6000000014901","1","1","2","1","1,0.5,0,1,0.5,0,0.5,0,1","1,0.5,0,1,0.5,0,0.5,0,1","1","",""
"","html-keyboard-response","151","136424","0.0-151.0","3Q5C1WP23NNAGNOUR4EUKS4CPUC51E","AKNYT1NTK2UFK","3FVBZG9CLJ0K37PD5L6161S4HTM0HN","","null","<img src=""img/food1.png"" style=""width:200px; border:14px solid green;"">","null","","","","","","","","","",""
"","image-keyboard-response","152","136688","0.0-152.0","3Q5C1WP23NNAGNOUR4EUKS4CPUC51E","AKNYT1NTK2UFK","3FVBZG9CLJ0K37PD5L6161S4HTM0HN","","261.80000000074506","img/food6.png","74","264.1000000014901","1","1","1","1","1,0.5,0,1,0.5,0,0.5,0,1","1,0.5,0,1,0.5,0,0.5,0,1","1","",""
"","html-keyboard-response","153","136992","0.0-153.0","3Q5C1WP23NNAGNOUR4EUKS4CPUC51E","AKNYT1NTK2UFK","3FVBZG9CLJ0K37PD5L6161S4HTM0HN","","null","<img src=""img/food6.png"" style=""width:200px; border:14px solid green;"">","null","","","","","","","","","",""
"","image-keyboard-response","154","137487","0.0-154.0","3Q5C1WP23NNAGNOUR4EUKS4CPUC51E","AKNYT1NTK2UFK","3FVBZG9CLJ0K37PD5L6161S4HTM0HN","","494","img/food6.png","74","495.3999999985099","1","1","1","1","1,0.5,0,1,0.5,0,0.5,0,1","1,0.5,0,1,0.5,0,0.5,0,1","1","",""
"","html-keyboard-response","155","137791","0.0-155.0","3Q5C1WP23NNAGNOUR4EUKS4CPUC51E","AKNYT1NTK2UFK","3FVBZG9CLJ0K37PD5L6161S4HTM0HN","","null","<img src=""img/food6.png"" style=""width:200px; border:14px solid green;"">","null","","","","","","","","","",""
"","image-keyboard-response","156","138315","0.0-156.0","3Q5C1WP23NNAGNOUR4EUKS4CPUC51E","AKNYT1NTK2UFK","3FVBZG9CLJ0K37PD5L6161S4HTM0HN","","521.8999999985099","img/food6.png","74","523.1999999992549","1","1","1","1","1,0.5,0,1,0.5,0,0.5,0,1","1,0.5,0,1,0.5,0,0.5,0,1","1","",""
"","html-keyboard-response","157","138621","0.0-157.0","3Q5C1WP23NNAGNOUR4EUKS4CPUC51E","AKNYT1NTK2UFK","3FVBZG9CLJ0K37PD5L6161S4HTM0HN","","null","<img src=""img/food6.png"" style=""width:200px; border:14px solid green;"">","null","","","","","","","","","",""
"","image-keyboard-response","158","139709","0.0-158.0","3Q5C1WP23NNAGNOUR4EUKS4CPUC51E","AKNYT1NTK2UFK","3FVBZG9CLJ0K37PD5L6161S4HTM0HN","","1087","img/food4.png","76","1088.699999999255","3","1","3","1","1,0.5,0,1,0.5,0,0.5,0,1","1,0.5,0,1,0.5,0,0.5,0,1","1","",""
"","html-keyboard-response","159","140012","0.0-159.0","3Q5C1WP23NNAGNOUR4EUKS4CPUC51E","AKNYT1NTK2UFK","3FVBZG9CLJ0K37PD5L6161S4HTM0HN","","null","<img src=""img/food4.png"" style=""width:200px; border:14px solid green;"">","null","","","","","","","","","",""
"","image-keyboard-response","160","141125","0.0-160.0","3Q5C1WP23NNAGNOUR4EUKS4CPUC51E","AKNYT1NTK2UFK","3FVBZG9CLJ0K37PD5L6161S4HTM0HN","","1111.7999999970198","img/food4.png","76","1113","3","1","3","1","1,0.5,0,1,0.5,0,0.5,0,1","1,0.5,0,1,0.5,0,0.5,0,1","1","",""
"","html-keyboard-response","161","141428","0.0-161.0","3Q5C1WP23NNAGNOUR4EUKS4CPUC51E","AKNYT1NTK2UFK","3FVBZG9CLJ0K37PD5L6161S4HTM0HN","","null","<img src=""img/food4.png"" style=""width:200px; border:14px solid green;"">","null","","","","","","","","","",""
"","image-keyboard-response","162","142350","0.0-162.0","3Q5C1WP23NNAGNOUR4EUKS4CPUC51E","AKNYT1NTK2UFK","3FVBZG9CLJ0K37PD5L6161S4HTM0HN","","919.3999999985099","img/food6.png","74","921.5999999977648","1","1","1","1","1,0.5,0,1,0.5,0,0.5,0,1","1,0.5,0,1,0.5,0,0.5,0,1","1","",""
"","html-keyboard-response","163","142656","0.0-163.0","3Q5C1WP23NNAGNOUR4EUKS4CPUC51E","AKNYT1NTK2UFK","3FVBZG9CLJ0K37PD5L6161S4HTM0HN","","null","<img src=""img/food6.png"" style=""width:200px; border:14px solid green;"">","null","","","","","","","","","",""
"","image-keyboard-response","164","143838","0.0-164.0","3Q5C1WP23NNAGNOUR4EUKS4CPUC51E","AKNYT1NTK2UFK","3FVBZG9CLJ0K37PD5L6161S4HTM0HN","","1180.6000000014901","img/food4.png","76","1182.1000000014901","3","1","3","1","1,0.5,0,1,0.5,0,0.5,0,1","1,0.5,0,1,0.5,0,0.5,0,1","1","",""
"","html-keyboard-response","165","144140","0.0-165.0","3Q5C1WP23NNAGNOUR4EUKS4CPUC51E","AKNYT1NTK2UFK","3FVBZG9CLJ0K37PD5L6161S4HTM0HN","","null","<img src=""img/food4.png"" style=""width:200px; border:14px solid green;"">","null","","","","","","","","","",""
"","image-keyboard-response","166","145176","0.0-166.0","3Q5C1WP23NNAGNOUR4EUKS4CPUC51E","AKNYT1NTK2UFK","3FVBZG9CLJ0K37PD5L6161S4HTM0HN","","1033.4000000022352","img/food6.png","74","1035.199999999255","1","1","1","1","1,0.5,0,1,0.5,0,0.5,0,1","1,0.5,0,1,0.5,0,0.5,0,1","1","",""
"","html-keyboard-response","167","145478","0.0-167.0","3Q5C1WP23NNAGNOUR4EUKS4CPUC51E","AKNYT1NTK2UFK","3FVBZG9CLJ0K37PD5L6161S4HTM0HN","","null","<img src=""img/food6.png"" style=""width:200px; border:14px solid green;"">","null","","","","","","","","","",""
"","image-keyboard-response","168","146375","0.0-168.0","3Q5C1WP23NNAGNOUR4EUKS4CPUC51E","AKNYT1NTK2UFK","3FVBZG9CLJ0K37PD5L6161S4HTM0HN","","895.3000000007451","img/food1.png","74","896.6999999992549","1","1","2","1","1,0.5,0,1,0.5,0,0.5,0,1","1,0.5,0,1,0.5,0,0.5,0,1","1","",""
"","html-keyboard-response","169","146679","0.0-169.0","3Q5C1WP23NNAGNOUR4EUKS4CPUC51E","AKNYT1NTK2UFK","3FVBZG9CLJ0K37PD5L6161S4HTM0HN","","null","<img src=""img/food1.png"" style=""width:200px; border:14px solid green;"">","null","","","","","","","","","",""
"","image-keyboard-response","170","147499","0.0-170.0","3Q5C1WP23NNAGNOUR4EUKS4CPUC51E","AKNYT1NTK2UFK","3FVBZG9CLJ0K37PD5L6161S4HTM0HN","","816.0999999977648","img/food1.png","74","819","1","1","2","1","1,0.5,0,1,0.5,0,0.5,0,1","1,0.5,0,1,0.5,0,0.5,0,1","1","",""
"","html-keyboard-response","171","147803","0.0-171.0","3Q5C1WP23NNAGNOUR4EUKS4CPUC51E","AKNYT1NTK2UFK","3FVBZG9CLJ0K37PD5L6161S4HTM0HN","","null","<img src=""img/food1.png"" style=""width:200px; border:14px solid green;"">","null","","","","","","","","","",""
"","image-keyboard-response","172","148138","0.0-172.0","3Q5C1WP23NNAGNOUR4EUKS4CPUC51E","AKNYT1NTK2UFK","3FVBZG9CLJ0K37PD5L6161S4HTM0HN","","332.3999999985099","img/food1.png","74","334.20000000298023","1","1","2","1","1,0.5,0,1,0.5,0,0.5,0,1","1,0.5,0,1,0.5,0,0.5,0,1","1","",""
"","html-keyboard-response","173","148440","0.0-173.0","3Q5C1WP23NNAGNOUR4EUKS4CPUC51E","AKNYT1NTK2UFK","3FVBZG9CLJ0K37PD5L6161S4HTM0HN","","null","<img src=""img/food1.png"" style=""width:200px; border:14px solid green;"">","null","","","","","","","","","",""
"","image-keyboard-response","174","149339","0.0-174.0","3Q5C1WP23NNAGNOUR4EUKS4CPUC51E","AKNYT1NTK2UFK","3FVBZG9CLJ0K37PD5L6161S4HTM0HN","","896.5","img/food6.png","74","898.4000000022352","1","1","1","1","1,0.5,0,1,0.5,0,0.5,0,1","1,0.5,0,1,0.5,0,0.5,0,1","1","",""
"","html-keyboard-response","175","149643","0.0-175.0","3Q5C1WP23NNAGNOUR4EUKS4CPUC51E","AKNYT1NTK2UFK","3FVBZG9CLJ0K37PD5L6161S4HTM0HN","","null","<img src=""img/food6.png"" style=""width:200px; border:14px solid green;"">","null","","","","","","","","","",""
"","image-keyboard-response","176","150196","0.0-176.0","3Q5C1WP23NNAGNOUR4EUKS4CPUC51E","AKNYT1NTK2UFK","3FVBZG9CLJ0K37PD5L6161S4HTM0HN","","550","img/food6.png","74","552.3000000007451","1","1","1","1","1,0.5,0,1,0.5,0,0.5,0,1","1,0.5,0,1,0.5,0,0.5,0,1","1","",""
"","html-keyboard-response","177","150498","0.0-177.0","3Q5C1WP23NNAGNOUR4EUKS4CPUC51E","AKNYT1NTK2UFK","3FVBZG9CLJ0K37PD5L6161S4HTM0HN","","null","<img src=""img/food6.png"" style=""width:200px; border:14px solid green;"">","null","","","","","","","","","",""
"","image-keyboard-response","178","151238","0.0-178.0","3Q5C1WP23NNAGNOUR4EUKS4CPUC51E","AKNYT1NTK2UFK","3FVBZG9CLJ0K37PD5L6161S4HTM0HN","","737.5","img/food6.png","74","739.5","1","1","1","1","1,0.5,0,1,0.5,0,0.5,0,1","1,0.5,0,1,0.5,0,0.5,0,1","1","",""
"","html-keyboard-response","179","151542","0.0-179.0","3Q5C1WP23NNAGNOUR4EUKS4CPUC51E","AKNYT1NTK2UFK","3FVBZG9CLJ0K37PD5L6161S4HTM0HN","","null","<img src=""img/food6.png"" style=""width:200px; border:14px solid green;"">","null","","","","","","","","","",""
"","image-keyboard-response","180","152623","0.0-180.0","3Q5C1WP23NNAGNOUR4EUKS4CPUC51E","AKNYT1NTK2UFK","3FVBZG9CLJ0K37PD5L6161S4HTM0HN","","1078.7000000029802","img/food1.png","74","1080.800000000745","1","1","2","1","1,0.5,0,1,0.5,0,0.5,0,1","1,0.5,0,1,0.5,0,0.5,0,1","1","",""
"","html-keyboard-response","181","152927","0.0-181.0","3Q5C1WP23NNAGNOUR4EUKS4CPUC51E","AKNYT1NTK2UFK","3FVBZG9CLJ0K37PD5L6161S4HTM0HN","","null","<img src=""img/food1.png"" style=""width:200px; border:14px solid green;"">","null","","","","","","","","","",""
"","html-keyboard-response","182","159605","0.0-182.0","3Q5C1WP23NNAGNOUR4EUKS4CPUC51E","AKNYT1NTK2UFK","3FVBZG9CLJ0K37PD5L6161S4HTM0HN","","","","","","","","","","","","","",""
"","instructions","183","184918","0.0-183.0","3Q5C1WP23NNAGNOUR4EUKS4CPUC51E","AKNYT1NTK2UFK","3FVBZG9CLJ0K37PD5L6161S4HTM0HN","[{""page_index"":0,""viewing_time"":24062.300000000745},{""page_index"":1,""viewing_time"":1245.300000000745}]","25311","","","","","","","","","","","",""
"","image-keyboard-response","184","185924","0.0-184.0","3Q5C1WP23NNAGNOUR4EUKS4CPUC51E","AKNYT1NTK2UFK","3FVBZG9CLJ0K37PD5L6161S4HTM0HN","","","img/food5.png","","1004.6999999992549","-1","0","1","2","1,0.5,0,1,0.5,0,0.5,0,1","1,0.5,0,1,0.5,0,0.5,0,1","1","true",""
"","html-keyboard-response","185","186227","0.0-185.0","3Q5C1WP23NNAGNOUR4EUKS4CPUC51E","AKNYT1NTK2UFK","3FVBZG9CLJ0K37PD5L6161S4HTM0HN","","null","<img src=""img/food5.png"" style=""width:200px;border:14px solid red;"">","null","","","","","","","","","",""
"","html-keyboard-response","186","190463","0.0-186.0-0.0","3Q5C1WP23NNAGNOUR4EUKS4CPUC51E","AKNYT1NTK2UFK","3FVBZG9CLJ0K37PD5L6161S4HTM0HN","","","","","","","","","","","","","",""
"","image-keyboard-response","187","191470","0.0-187.0","3Q5C1WP23NNAGNOUR4EUKS4CPUC51E","AKNYT1NTK2UFK","3FVBZG9CLJ0K37PD5L6161S4HTM0HN","","","img/food2.png","","1005.7999999970198","-1","0","2","2","1,0.5,0,1,0.5,0,0.5,0,1","1,0.5,0,1,0.5,0,0.5,0,1","1","true",""
"","html-keyboard-response","188","191773","0.0-188.0","3Q5C1WP23NNAGNOUR4EUKS4CPUC51E","AKNYT1NTK2UFK","3FVBZG9CLJ0K37PD5L6161S4HTM0HN","","null","<img src=""img/food2.png"" style=""width:200px;border:14px solid red;"">","null","","","","","","","","","",""
"","html-keyboard-response","189","195504","0.0-189.0-0.0","3Q5C1WP23NNAGNOUR4EUKS4CPUC51E","AKNYT1NTK2UFK","3FVBZG9CLJ0K37PD5L6161S4HTM0HN","","","","","","","","","","","","","",""
"","image-keyboard-response","190","196507","0.0-190.0","3Q5C1WP23NNAGNOUR4EUKS4CPUC51E","AKNYT1NTK2UFK","3FVBZG9CLJ0K37PD5L6161S4HTM0HN","","","img/food5.png","","1002.5999999977648","-1","0","1","2","1,0.5,0,1,0.5,0,0.5,0,1","1,0.5,0,1,0.5,0,0.5,0,1","1","true",""
"","html-keyboard-response","191","196810","0.0-191.0","3Q5C1WP23NNAGNOUR4EUKS4CPUC51E","AKNYT1NTK2UFK","3FVBZG9CLJ0K37PD5L6161S4HTM0HN","","null","<img src=""img/food5.png"" style=""width:200px;border:14px solid red;"">","null","","","","","","","","","",""
"","html-keyboard-response","192","199937","0.0-192.0-0.0","3Q5C1WP23NNAGNOUR4EUKS4CPUC51E","AKNYT1NTK2UFK","3FVBZG9CLJ0K37PD5L6161S4HTM0HN","","","","","","","","","","","","","",""
"","image-keyboard-response","193","200941","0.0-193.0","3Q5C1WP23NNAGNOUR4EUKS4CPUC51E","AKNYT1NTK2UFK","3FVBZG9CLJ0K37PD5L6161S4HTM0HN","","","img/food3.png","","1004.4000000022352","-1","0","3","2","1,0.5,0,1,0.5,0,0.5,0,1","1,0.5,0,1,0.5,0,0.5,0,1","1","true",""
"","html-keyboard-response","194","201246","0.0-194.0","3Q5C1WP23NNAGNOUR4EUKS4CPUC51E","AKNYT1NTK2UFK","3FVBZG9CLJ0K37PD5L6161S4HTM0HN","","null","<img src=""img/food3.png"" style=""width:200px;border:14px solid red;"">","null","","","","","","","","","",""
"","html-keyboard-response","195","205812","0.0-195.0-0.0","3Q5C1WP23NNAGNOUR4EUKS4CPUC51E","AKNYT1NTK2UFK","3FVBZG9CLJ0K37PD5L6161S4HTM0HN","","","","","","","","","","","","","",""
"","image-keyboard-response","196","206816","0.0-196.0","3Q5C1WP23NNAGNOUR4EUKS4CPUC51E","AKNYT1NTK2UFK","3FVBZG9CLJ0K37PD5L6161S4HTM0HN","","","img/food5.png","","1003.8999999985099","-1","0","1","2","1,0.5,0,1,0.5,0,0.5,0,1","1,0.5,0,1,0.5,0,0.5,0,1","1","true",""
"","html-keyboard-response","197","207133","0.0-197.0","3Q5C1WP23NNAGNOUR4EUKS4CPUC51E","AKNYT1NTK2UFK","3FVBZG9CLJ0K37PD5L6161S4HTM0HN","","null","<img src=""img/food5.png"" style=""width:200px;border:14px solid red;"">","null","","","","","","","","","",""
"","html-keyboard-response","198","210606","0.0-198.0-0.0","3Q5C1WP23NNAGNOUR4EUKS4CPUC51E","AKNYT1NTK2UFK","3FVBZG9CLJ0K37PD5L6161S4HTM0HN","","","","","","","","","","","","","",""
"","image-keyboard-response","199","211610","0.0-199.0","3Q5C1WP23NNAGNOUR4EUKS4CPUC51E","AKNYT1NTK2UFK","3FVBZG9CLJ0K37PD5L6161S4HTM0HN","","","img/food5.png","","1003.9000000022352","-1","0","1","2","1,0.5,0,1,0.5,0,0.5,0,1","1,0.5,0,1,0.5,0,0.5,0,1","1","true",""
"","html-keyboard-response","200","211914","0.0-200.0","3Q5C1WP23NNAGNOUR4EUKS4CPUC51E","AKNYT1NTK2UFK","3FVBZG9CLJ0K37PD5L6161S4HTM0HN","","null","<img src=""img/food5.png"" style=""width:200px;border:14px solid red;"">","null","","","","","","","","","",""
"","html-keyboard-response","201","214567","0.0-201.0-0.0","3Q5C1WP23NNAGNOUR4EUKS4CPUC51E","AKNYT1NTK2UFK","3FVBZG9CLJ0K37PD5L6161S4HTM0HN","","","","","","","","","","","","","",""
"","image-keyboard-response","202","215571","0.0-202.0","3Q5C1WP23NNAGNOUR4EUKS4CPUC51E","AKNYT1NTK2UFK","3FVBZG9CLJ0K37PD5L6161S4HTM0HN","","","img/food3.png","","1002.5","-1","0","3","2","1,0.5,0,1,0.5,0,0.5,0,1","1,0.5,0,1,0.5,0,0.5,0,1","1","true",""
"","html-keyboard-response","203","215873","0.0-203.0","3Q5C1WP23NNAGNOUR4EUKS4CPUC51E","AKNYT1NTK2UFK","3FVBZG9CLJ0K37PD5L6161S4HTM0HN","","null","<img src=""img/food3.png"" style=""width:200px;border:14px solid red;"">","null","","","","","","","","","",""
"","html-keyboard-response","204","218920","0.0-204.0-0.0","3Q5C1WP23NNAGNOUR4EUKS4CPUC51E","AKNYT1NTK2UFK","3FVBZG9CLJ0K37PD5L6161S4HTM0HN","","","","","","","","","","","","","",""
"","image-keyboard-response","205","219938","0.0-205.0","3Q5C1WP23NNAGNOUR4EUKS4CPUC51E","AKNYT1NTK2UFK","3FVBZG9CLJ0K37PD5L6161S4HTM0HN","","","img/food2.png","","1017.9000000022352","-1","0","2","2","1,0.5,0,1,0.5,0,0.5,0,1","1,0.5,0,1,0.5,0,0.5,0,1","1","true",""
"","html-keyboard-response","206","220241","0.0-206.0","3Q5C1WP23NNAGNOUR4EUKS4CPUC51E","AKNYT1NTK2UFK","3FVBZG9CLJ0K37PD5L6161S4HTM0HN","","null","<img src=""img/food2.png"" style=""width:200px;border:14px solid red;"">","null","","","","","","","","","",""
"","html-keyboard-response","207","233709","0.0-207.0-0.0","3Q5C1WP23NNAGNOUR4EUKS4CPUC51E","AKNYT1NTK2UFK","3FVBZG9CLJ0K37PD5L6161S4HTM0HN","","","","","","","","","","","","","",""
"","image-keyboard-response","208","234714","0.0-208.0","3Q5C1WP23NNAGNOUR4EUKS4CPUC51E","AKNYT1NTK2UFK","3FVBZG9CLJ0K37PD5L6161S4HTM0HN","","","img/food5.png","","1004.3000000007451","-1","0","1","2","1,0.5,0,1,0.5,0,0.5,0,1","1,0.5,0,1,0.5,0,0.5,0,1","1","true",""
"","html-keyboard-response","209","235022","0.0-209.0","3Q5C1WP23NNAGNOUR4EUKS4CPUC51E","AKNYT1NTK2UFK","3FVBZG9CLJ0K37PD5L6161S4HTM0HN","","null","<img src=""img/food5.png"" style=""width:200px;border:14px solid red;"">","null","","","","","","","","","",""
"","html-keyboard-response","210","236080","0.0-210.0-0.0","3Q5C1WP23NNAGNOUR4EUKS4CPUC51E","AKNYT1NTK2UFK","3FVBZG9CLJ0K37PD5L6161S4HTM0HN","","","","","","","","","","","","","",""
"","image-keyboard-response","211","237085","0.0-211.0","3Q5C1WP23NNAGNOUR4EUKS4CPUC51E","AKNYT1NTK2UFK","3FVBZG9CLJ0K37PD5L6161S4HTM0HN","","","img/food5.png","","1004.6000000014901","-1","0","1","2","1,0.5,0,1,0.5,0,0.5,0,1","1,0.5,0,1,0.5,0,0.5,0,1","1","true",""
"","html-keyboard-response","212","237390","0.0-212.0","3Q5C1WP23NNAGNOUR4EUKS4CPUC51E","AKNYT1NTK2UFK","3FVBZG9CLJ0K37PD5L6161S4HTM0HN","","null","<img src=""img/food5.png"" style=""width:200px;border:14px solid red;"">","null","","","","","","","","","",""
"","html-keyboard-response","213","240481","0.0-213.0-0.0","3Q5C1WP23NNAGNOUR4EUKS4CPUC51E","AKNYT1NTK2UFK","3FVBZG9CLJ0K37PD5L6161S4HTM0HN","","","","","","","","","","","","","",""
"","image-keyboard-response","214","241486","0.0-214.0","3Q5C1WP23NNAGNOUR4EUKS4CPUC51E","AKNYT1NTK2UFK","3FVBZG9CLJ0K37PD5L6161S4HTM0HN","","","img/food3.png","","1004.4000000022352","-1","0","3","2","1,0.5,0,1,0.5,0,0.5,0,1","1,0.5,0,1,0.5,0,0.5,0,1","1","true",""
"","html-keyboard-response","215","241789","0.0-215.0","3Q5C1WP23NNAGNOUR4EUKS4CPUC51E","AKNYT1NTK2UFK","3FVBZG9CLJ0K37PD5L6161S4HTM0HN","","null","<img src=""img/food3.png"" style=""width:200px;border:14px solid red;"">","null","","","","","","","","","",""
"","html-keyboard-response","216","263442","0.0-216.0-0.0","3Q5C1WP23NNAGNOUR4EUKS4CPUC51E","AKNYT1NTK2UFK","3FVBZG9CLJ0K37PD5L6161S4HTM0HN","","","","","","","","","","","","","",""
"","image-keyboard-response","217","264446","0.0-217.0","3Q5C1WP23NNAGNOUR4EUKS4CPUC51E","AKNYT1NTK2UFK","3FVBZG9CLJ0K37PD5L6161S4HTM0HN","","","img/food3.png","","1003.7999999970198","-1","0","3","2","1,0.5,0,1,0.5,0,0.5,0,1","1,0.5,0,1,0.5,0,0.5,0,1","1","true",""
"","html-keyboard-response","218","264750","0.0-218.0","3Q5C1WP23NNAGNOUR4EUKS4CPUC51E","AKNYT1NTK2UFK","3FVBZG9CLJ0K37PD5L6161S4HTM0HN","","null","<img src=""img/food3.png"" style=""width:200px;border:14px solid red;"">","null","","","","","","","","","",""
"","html-keyboard-response","219","267031","0.0-219.0-0.0","3Q5C1WP23NNAGNOUR4EUKS4CPUC51E","AKNYT1NTK2UFK","3FVBZG9CLJ0K37PD5L6161S4HTM0HN","","","","","","","","","","","","","",""
"","image-keyboard-response","220","268036","0.0-220.0","3Q5C1WP23NNAGNOUR4EUKS4CPUC51E","AKNYT1NTK2UFK","3FVBZG9CLJ0K37PD5L6161S4HTM0HN","","","img/food5.png","","1004.1999999992549","-1","0","1","2","1,0.5,0,1,0.5,0,0.5,0,1","1,0.5,0,1,0.5,0,0.5,0,1","1","true",""
"","html-keyboard-response","221","268339","0.0-221.0","3Q5C1WP23NNAGNOUR4EUKS4CPUC51E","AKNYT1NTK2UFK","3FVBZG9CLJ0K37PD5L6161S4HTM0HN","","null","<img src=""img/food5.png"" style=""width:200px;border:14px solid red;"">","null","","","","","","","","","",""
"","html-keyboard-response","222","272406","0.0-222.0-0.0","3Q5C1WP23NNAGNOUR4EUKS4CPUC51E","AKNYT1NTK2UFK","3FVBZG9CLJ0K37PD5L6161S4HTM0HN","","","","","","","","","","","","","",""
"","image-keyboard-response","223","273410","0.0-223.0","3Q5C1WP23NNAGNOUR4EUKS4CPUC51E","AKNYT1NTK2UFK","3FVBZG9CLJ0K37PD5L6161S4HTM0HN","","","img/food5.png","","1003.6000000014901","-1","0","1","2","1,0.5,0,1,0.5,0,0.5,0,1","1,0.5,0,1,0.5,0,0.5,0,1","1","true",""
"","html-keyboard-response","224","273714","0.0-224.0","3Q5C1WP23NNAGNOUR4EUKS4CPUC51E","AKNYT1NTK2UFK","3FVBZG9CLJ0K37PD5L6161S4HTM0HN","","null","<img src=""img/food5.png"" style=""width:200px;border:14px solid red;"">","null","","","","","","","","","",""
"","html-keyboard-response","225","274798","0.0-225.0-0.0","3Q5C1WP23NNAGNOUR4EUKS4CPUC51E","AKNYT1NTK2UFK","3FVBZG9CLJ0K37PD5L6161S4HTM0HN","","","","","","","","","","","","","",""
"","image-keyboard-response","226","275811","0.0-226.0","3Q5C1WP23NNAGNOUR4EUKS4CPUC51E","AKNYT1NTK2UFK","3FVBZG9CLJ0K37PD5L6161S4HTM0HN","","","img/food5.png","","1013.5999999977648","-1","0","1","2","1,0.5,0,1,0.5,0,0.5,0,1","1,0.5,0,1,0.5,0,0.5,0,1","1","true",""
"","html-keyboard-response","227","276116","0.0-227.0","3Q5C1WP23NNAGNOUR4EUKS4CPUC51E","AKNYT1NTK2UFK","3FVBZG9CLJ0K37PD5L6161S4HTM0HN","","null","<img src=""img/food5.png"" style=""width:200px;border:14px solid red;"">","null","","","","","","","","","",""
"","html-keyboard-response","228","278078","0.0-228.0-0.0","3Q5C1WP23NNAGNOUR4EUKS4CPUC51E","AKNYT1NTK2UFK","3FVBZG9CLJ0K37PD5L6161S4HTM0HN","","","","","","","","","","","","","",""
"","image-keyboard-response","229","279083","0.0-229.0","3Q5C1WP23NNAGNOUR4EUKS4CPUC51E","AKNYT1NTK2UFK","3FVBZG9CLJ0K37PD5L6161S4HTM0HN","","","img/food2.png","","1004.3000000007451","-1","0","2","2","1,0.5,0,1,0.5,0,0.5,0,1","1,0.5,0,1,0.5,0,0.5,0,1","1","true",""
"","html-keyboard-response","230","279391","0.0-230.0","3Q5C1WP23NNAGNOUR4EUKS4CPUC51E","AKNYT1NTK2UFK","3FVBZG9CLJ0K37PD5L6161S4HTM0HN","","null","<img src=""img/food2.png"" style=""width:200px;border:14px solid red;"">","null","","","","","","","","","",""
"","html-keyboard-response","231","280145","0.0-231.0-0.0","3Q5C1WP23NNAGNOUR4EUKS4CPUC51E","AKNYT1NTK2UFK","3FVBZG9CLJ0K37PD5L6161S4HTM0HN","","","","","","","","","","","","","",""
"","image-keyboard-response","232","281160","0.0-232.0","3Q5C1WP23NNAGNOUR4EUKS4CPUC51E","AKNYT1NTK2UFK","3FVBZG9CLJ0K37PD5L6161S4HTM0HN","","","img/food5.png","","1013.2999999970198","-1","0","1","2","1,0.5,0,1,0.5,0,0.5,0,1","1,0.5,0,1,0.5,0,0.5,0,1","1","true",""
"","html-keyboard-response","233","281464","0.0-233.0","3Q5C1WP23NNAGNOUR4EUKS4CPUC51E","AKNYT1NTK2UFK","3FVBZG9CLJ0K37PD5L6161S4HTM0HN","","null","<img src=""img/food5.png"" style=""width:200px;border:14px solid red;"">","null","","","","","","","","","",""
"","html-keyboard-response","234","282059","0.0-234.0-0.0","3Q5C1WP23NNAGNOUR4EUKS4CPUC51E","AKNYT1NTK2UFK","3FVBZG9CLJ0K37PD5L6161S4HTM0HN","","","","","","","","","","","","","",""
"","image-keyboard-response","235","283063","0.0-235.0","3Q5C1WP23NNAGNOUR4EUKS4CPUC51E","AKNYT1NTK2UFK","3FVBZG9CLJ0K37PD5L6161S4HTM0HN","","","img/food3.png","","1003.5","-1","0","3","2","1,0.5,0,1,0.5,0,0.5,0,1","1,0.5,0,1,0.5,0,0.5,0,1","1","true",""
"","html-keyboard-response","236","283366","0.0-236.0","3Q5C1WP23NNAGNOUR4EUKS4CPUC51E","AKNYT1NTK2UFK","3FVBZG9CLJ0K37PD5L6161S4HTM0HN","","null","<img src=""img/food3.png"" style=""width:200px;border:14px solid red;"">","null","","","","","","","","","",""
"","html-keyboard-response","237","283902","0.0-237.0-0.0","3Q5C1WP23NNAGNOUR4EUKS4CPUC51E","AKNYT1NTK2UFK","3FVBZG9CLJ0K37PD5L6161S4HTM0HN","","","","","","","","","","","","","",""
"","image-keyboard-response","238","284907","0.0-238.0","3Q5C1WP23NNAGNOUR4EUKS4CPUC51E","AKNYT1NTK2UFK","3FVBZG9CLJ0K37PD5L6161S4HTM0HN","","","img/food5.png","","1004.5","-1","0","1","2","1,0.5,0,1,0.5,0,0.5,0,1","1,0.5,0,1,0.5,0,0.5,0,1","1","true",""
"","html-keyboard-response","239","285216","0.0-239.0","3Q5C1WP23NNAGNOUR4EUKS4CPUC51E","AKNYT1NTK2UFK","3FVBZG9CLJ0K37PD5L6161S4HTM0HN","","null","<img src=""img/food5.png"" style=""width:200px;border:14px solid red;"">","null","","","","","","","","","",""
"","html-keyboard-response","240","285734","0.0-240.0-0.0","3Q5C1WP23NNAGNOUR4EUKS4CPUC51E","AKNYT1NTK2UFK","3FVBZG9CLJ0K37PD5L6161S4HTM0HN","","","","","","","","","","","","","",""
"","image-keyboard-response","241","286739","0.0-241.0","3Q5C1WP23NNAGNOUR4EUKS4CPUC51E","AKNYT1NTK2UFK","3FVBZG9CLJ0K37PD5L6161S4HTM0HN","","","img/food5.png","","1004.3000000007451","-1","0","1","2","1,0.5,0,1,0.5,0,0.5,0,1","1,0.5,0,1,0.5,0,0.5,0,1","1","true",""
"","html-keyboard-response","242","287043","0.0-242.0","3Q5C1WP23NNAGNOUR4EUKS4CPUC51E","AKNYT1NTK2UFK","3FVBZG9CLJ0K37PD5L6161S4HTM0HN","","null","<img src=""img/food5.png"" style=""width:200px;border:14px solid red;"">","null","","","","","","","","","",""
"","html-keyboard-response","243","288073","0.0-243.0-0.0","3Q5C1WP23NNAGNOUR4EUKS4CPUC51E","AKNYT1NTK2UFK","3FVBZG9CLJ0K37PD5L6161S4HTM0HN","","","","","","","","","","","","","",""
"","image-keyboard-response","244","289077","0.0-244.0","3Q5C1WP23NNAGNOUR4EUKS4CPUC51E","AKNYT1NTK2UFK","3FVBZG9CLJ0K37PD5L6161S4HTM0HN","","","img/food3.png","","1003.4000000022352","-1","0","3","2","1,0.5,0,1,0.5,0,0.5,0,1","1,0.5,0,1,0.5,0,0.5,0,1","1","true",""
"","html-keyboard-response","245","289381","0.0-245.0","3Q5C1WP23NNAGNOUR4EUKS4CPUC51E","AKNYT1NTK2UFK","3FVBZG9CLJ0K37PD5L6161S4HTM0HN","","null","<img src=""img/food3.png"" style=""width:200px;border:14px solid red;"">","null","","","","","","","","","",""
"","html-keyboard-response","246","289886","0.0-246.0-0.0","3Q5C1WP23NNAGNOUR4EUKS4CPUC51E","AKNYT1NTK2UFK","3FVBZG9CLJ0K37PD5L6161S4HTM0HN","","","","","","","","","","","","","",""
"","image-keyboard-response","247","290892","0.0-247.0","3Q5C1WP23NNAGNOUR4EUKS4CPUC51E","AKNYT1NTK2UFK","3FVBZG9CLJ0K37PD5L6161S4HTM0HN","","","img/food3.png","","1004.9000000022352","-1","0","3","2","1,0.5,0,1,0.5,0,0.5,0,1","1,0.5,0,1,0.5,0,0.5,0,1","1","true",""
"","html-keyboard-response","248","291195","0.0-248.0","3Q5C1WP23NNAGNOUR4EUKS4CPUC51E","AKNYT1NTK2UFK","3FVBZG9CLJ0K37PD5L6161S4HTM0HN","","null","<img src=""img/food3.png"" style=""width:200px;border:14px solid red;"">","null","","","","","","","","","",""
"","html-keyboard-response","249","291723","0.0-249.0-0.0","3Q5C1WP23NNAGNOUR4EUKS4CPUC51E","AKNYT1NTK2UFK","3FVBZG9CLJ0K37PD5L6161S4HTM0HN","","","","","","","","","","","","","",""
"","image-keyboard-response","250","292727","0.0-250.0","3Q5C1WP23NNAGNOUR4EUKS4CPUC51E","AKNYT1NTK2UFK","3FVBZG9CLJ0K37PD5L6161S4HTM0HN","","","img/food5.png","","1003.9000000022352","-1","0","1","2","1,0.5,0,1,0.5,0,0.5,0,1","1,0.5,0,1,0.5,0,0.5,0,1","1","true",""
"","html-keyboard-response","251","293031","0.0-251.0","3Q5C1WP23NNAGNOUR4EUKS4CPUC51E","AKNYT1NTK2UFK","3FVBZG9CLJ0K37PD5L6161S4HTM0HN","","null","<img src=""img/food5.png"" style=""width:200px;border:14px solid red;"">","null","","","","","","","","","",""
"","html-keyboard-response","252","293563","0.0-252.0-0.0","3Q5C1WP23NNAGNOUR4EUKS4CPUC51E","AKNYT1NTK2UFK","3FVBZG9CLJ0K37PD5L6161S4HTM0HN","","","","","","","","","","","","","",""
"","image-keyboard-response","253","294567","0.0-253.0","3Q5C1WP23NNAGNOUR4EUKS4CPUC51E","AKNYT1NTK2UFK","3FVBZG9CLJ0K37PD5L6161S4HTM0HN","","","img/food5.png","","1003.5","-1","0","1","2","1,0.5,0,1,0.5,0,0.5,0,1","1,0.5,0,1,0.5,0,0.5,0,1","1","true",""
"","html-keyboard-response","254","294869","0.0-254.0","3Q5C1WP23NNAGNOUR4EUKS4CPUC51E","AKNYT1NTK2UFK","3FVBZG9CLJ0K37PD5L6161S4HTM0HN","","null","<img src=""img/food5.png"" style=""width:200px;border:14px solid red;"">","null","","","","","","","","","",""
"","html-keyboard-response","255","295343","0.0-255.0-0.0","3Q5C1WP23NNAGNOUR4EUKS4CPUC51E","AKNYT1NTK2UFK","3FVBZG9CLJ0K37PD5L6161S4HTM0HN","","","","","","","","","","","","","",""
"","image-keyboard-response","256","296347","0.0-256.0","3Q5C1WP23NNAGNOUR4EUKS4CPUC51E","AKNYT1NTK2UFK","3FVBZG9CLJ0K37PD5L6161S4HTM0HN","","","img/food3.png","","1003.7999999970198","-1","0","3","2","1,0.5,0,1,0.5,0,0.5,0,1","1,0.5,0,1,0.5,0,0.5,0,1","1","true",""
"","html-keyboard-response","257","296654","0.0-257.0","3Q5C1WP23NNAGNOUR4EUKS4CPUC51E","AKNYT1NTK2UFK","3FVBZG9CLJ0K37PD5L6161S4HTM0HN","","null","<img src=""img/food3.png"" style=""width:200px;border:14px solid red;"">","null","","","","","","","","","",""
"","html-keyboard-response","258","297130","0.0-258.0-0.0","3Q5C1WP23NNAGNOUR4EUKS4CPUC51E","AKNYT1NTK2UFK","3FVBZG9CLJ0K37PD5L6161S4HTM0HN","","","","","","","","","","","","","",""
"","image-keyboard-response","259","298136","0.0-259.0","3Q5C1WP23NNAGNOUR4EUKS4CPUC51E","AKNYT1NTK2UFK","3FVBZG9CLJ0K37PD5L6161S4HTM0HN","","","img/food2.png","","1005.8999999985099","-1","0","2","2","1,0.5,0,1,0.5,0,0.5,0,1","1,0.5,0,1,0.5,0,0.5,0,1","1","true",""
"","html-keyboard-response","260","298442","0.0-260.0","3Q5C1WP23NNAGNOUR4EUKS4CPUC51E","AKNYT1NTK2UFK","3FVBZG9CLJ0K37PD5L6161S4HTM0HN","","null","<img src=""img/food2.png"" style=""width:200px;border:14px solid red;"">","null","","","","","","","","","",""
"","html-keyboard-response","261","298967","0.0-261.0-0.0","3Q5C1WP23NNAGNOUR4EUKS4CPUC51E","AKNYT1NTK2UFK","3FVBZG9CLJ0K37PD5L6161S4HTM0HN","","","","","","","","","","","","","",""
"","image-keyboard-response","262","299970","0.0-262.0","3Q5C1WP23NNAGNOUR4EUKS4CPUC51E","AKNYT1NTK2UFK","3FVBZG9CLJ0K37PD5L6161S4HTM0HN","","","img/food3.png","","1002.8999999985099","-1","0","3","2","1,0.5,0,1,0.5,0,0.5,0,1","1,0.5,0,1,0.5,0,0.5,0,1","1","true",""
"","html-keyboard-response","263","300287","0.0-263.0","3Q5C1WP23NNAGNOUR4EUKS4CPUC51E","AKNYT1NTK2UFK","3FVBZG9CLJ0K37PD5L6161S4HTM0HN","","null","<img src=""img/food3.png"" style=""width:200px;border:14px solid red;"">","null","","","","","","","","","",""
"","html-keyboard-response","264","301074","0.0-264.0-0.0","3Q5C1WP23NNAGNOUR4EUKS4CPUC51E","AKNYT1NTK2UFK","3FVBZG9CLJ0K37PD5L6161S4HTM0HN","","","","","","","","","","","","","",""
"","image-keyboard-response","265","302081","0.0-265.0","3Q5C1WP23NNAGNOUR4EUKS4CPUC51E","AKNYT1NTK2UFK","3FVBZG9CLJ0K37PD5L6161S4HTM0HN","","","img/food2.png","","1005.6000000014901","-1","0","2","2","1,0.5,0,1,0.5,0,0.5,0,1","1,0.5,0,1,0.5,0,0.5,0,1","1","true",""
"","html-keyboard-response","266","302385","0.0-266.0","3Q5C1WP23NNAGNOUR4EUKS4CPUC51E","AKNYT1NTK2UFK","3FVBZG9CLJ0K37PD5L6161S4HTM0HN","","null","<img src=""img/food2.png"" style=""width:200px;border:14px solid red;"">","null","","","","","","","","","",""
"","html-keyboard-response","267","302993","0.0-267.0-0.0","3Q5C1WP23NNAGNOUR4EUKS4CPUC51E","AKNYT1NTK2UFK","3FVBZG9CLJ0K37PD5L6161S4HTM0HN","","","","","","","","","","","","","",""
"","image-keyboard-response","268","304010","0.0-268.0","3Q5C1WP23NNAGNOUR4EUKS4CPUC51E","AKNYT1NTK2UFK","3FVBZG9CLJ0K37PD5L6161S4HTM0HN","","","img/food3.png","","1017.3000000007451","-1","0","3","2","1,0.5,0,1,0.5,0,0.5,0,1","1,0.5,0,1,0.5,0,0.5,0,1","1","true",""
"","html-keyboard-response","269","304313","0.0-269.0","3Q5C1WP23NNAGNOUR4EUKS4CPUC51E","AKNYT1NTK2UFK","3FVBZG9CLJ0K37PD5L6161S4HTM0HN","","null","<img src=""img/food3.png"" style=""width:200px;border:14px solid red;"">","null","","","","","","","","","",""
"","html-keyboard-response","270","304852","0.0-270.0-0.0","3Q5C1WP23NNAGNOUR4EUKS4CPUC51E","AKNYT1NTK2UFK","3FVBZG9CLJ0K37PD5L6161S4HTM0HN","","","","","","","","","","","","","",""
"","image-keyboard-response","271","305856","0.0-271.0","3Q5C1WP23NNAGNOUR4EUKS4CPUC51E","AKNYT1NTK2UFK","3FVBZG9CLJ0K37PD5L6161S4HTM0HN","","","img/food3.png","","1003.6000000014901","-1","0","3","2","1,0.5,0,1,0.5,0,0.5,0,1","1,0.5,0,1,0.5,0,0.5,0,1","1","true",""
"","html-keyboard-response","272","306168","0.0-272.0","3Q5C1WP23NNAGNOUR4EUKS4CPUC51E","AKNYT1NTK2UFK","3FVBZG9CLJ0K37PD5L6161S4HTM0HN","","null","<img src=""img/food3.png"" style=""width:200px;border:14px solid red;"">","null","","","","","","","","","",""
"","html-keyboard-response","273","307079","0.0-273.0-0.0","3Q5C1WP23NNAGNOUR4EUKS4CPUC51E","AKNYT1NTK2UFK","3FVBZG9CLJ0K37PD5L6161S4HTM0HN","","","","","","","","","","","","","",""
"","image-keyboard-response","274","308082","0.0-274.0","3Q5C1WP23NNAGNOUR4EUKS4CPUC51E","AKNYT1NTK2UFK","3FVBZG9CLJ0K37PD5L6161S4HTM0HN","","","img/food3.png","","1003.3999999985099","-1","0","3","2","1,0.5,0,1,0.5,0,0.5,0,1","1,0.5,0,1,0.5,0,0.5,0,1","1","true",""
"","html-keyboard-response","275","308388","0.0-275.0","3Q5C1WP23NNAGNOUR4EUKS4CPUC51E","AKNYT1NTK2UFK","3FVBZG9CLJ0K37PD5L6161S4HTM0HN","","null","<img src=""img/food3.png"" style=""width:200px;border:14px solid red;"">","null","","","","","","","","","",""
"","html-keyboard-response","276","308977","0.0-276.0-0.0","3Q5C1WP23NNAGNOUR4EUKS4CPUC51E","AKNYT1NTK2UFK","3FVBZG9CLJ0K37PD5L6161S4HTM0HN","","","","","","","","","","","","","",""
"","image-keyboard-response","277","309982","0.0-277.0","3Q5C1WP23NNAGNOUR4EUKS4CPUC51E","AKNYT1NTK2UFK","3FVBZG9CLJ0K37PD5L6161S4HTM0HN","","","img/food3.png","","1004.3999999985099","-1","0","3","2","1,0.5,0,1,0.5,0,0.5,0,1","1,0.5,0,1,0.5,0,0.5,0,1","1","true",""
"","html-keyboard-response","278","310285","0.0-278.0","3Q5C1WP23NNAGNOUR4EUKS4CPUC51E","AKNYT1NTK2UFK","3FVBZG9CLJ0K37PD5L6161S4HTM0HN","","null","<img src=""img/food3.png"" style=""width:200px;border:14px solid red;"">","null","","","","","","","","","",""
"","html-keyboard-response","279","310873","0.0-279.0-0.0","3Q5C1WP23NNAGNOUR4EUKS4CPUC51E","AKNYT1NTK2UFK","3FVBZG9CLJ0K37PD5L6161S4HTM0HN","","","","","","","","","","","","","",""
"","image-keyboard-response","280","311878","0.0-280.0","3Q5C1WP23NNAGNOUR4EUKS4CPUC51E","AKNYT1NTK2UFK","3FVBZG9CLJ0K37PD5L6161S4HTM0HN","","","img/food3.png","","1004.0999999977648","-1","0","3","2","1,0.5,0,1,0.5,0,0.5,0,1","1,0.5,0,1,0.5,0,0.5,0,1","1","true",""
"","html-keyboard-response","281","312183","0.0-281.0","3Q5C1WP23NNAGNOUR4EUKS4CPUC51E","AKNYT1NTK2UFK","3FVBZG9CLJ0K37PD5L6161S4HTM0HN","","null","<img src=""img/food3.png"" style=""width:200px;border:14px solid red;"">","null","","","","","","","","","",""
"","html-keyboard-response","282","312797","0.0-282.0-0.0","3Q5C1WP23NNAGNOUR4EUKS4CPUC51E","AKNYT1NTK2UFK","3FVBZG9CLJ0K37PD5L6161S4HTM0HN","","","","","","","","","","","","","",""
"","image-keyboard-response","283","313801","0.0-283.0","3Q5C1WP23NNAGNOUR4EUKS4CPUC51E","AKNYT1NTK2UFK","3FVBZG9CLJ0K37PD5L6161S4HTM0HN","","","img/food5.png","","1003","-1","0","1","2","1,0.5,0,1,0.5,0,0.5,0,1","1,0.5,0,1,0.5,0,0.5,0,1","1","true",""
"","html-keyboard-response","284","314105","0.0-284.0","3Q5C1WP23NNAGNOUR4EUKS4CPUC51E","AKNYT1NTK2UFK","3FVBZG9CLJ0K37PD5L6161S4HTM0HN","","null","<img src=""img/food5.png"" style=""width:200px;border:14px solid red;"">","null","","","","","","","","","",""
"","html-keyboard-response","285","314586","0.0-285.0-0.0","3Q5C1WP23NNAGNOUR4EUKS4CPUC51E","AKNYT1NTK2UFK","3FVBZG9CLJ0K37PD5L6161S4HTM0HN","","","","","","","","","","","","","",""
"","image-keyboard-response","286","315591","0.0-286.0","3Q5C1WP23NNAGNOUR4EUKS4CPUC51E","AKNYT1NTK2UFK","3FVBZG9CLJ0K37PD5L6161S4HTM0HN","","","img/food2.png","","1004","-1","0","2","2","1,0.5,0,1,0.5,0,0.5,0,1","1,0.5,0,1,0.5,0,0.5,0,1","1","true",""
"","html-keyboard-response","287","315894","0.0-287.0","3Q5C1WP23NNAGNOUR4EUKS4CPUC51E","AKNYT1NTK2UFK","3FVBZG9CLJ0K37PD5L6161S4HTM0HN","","null","<img src=""img/food2.png"" style=""width:200px;border:14px solid red;"">","null","","","","","","","","","",""
"","html-keyboard-response","288","316380","0.0-288.0-0.0","3Q5C1WP23NNAGNOUR4EUKS4CPUC51E","AKNYT1NTK2UFK","3FVBZG9CLJ0K37PD5L6161S4HTM0HN","","","","","","","","","","","","","",""
"","image-keyboard-response","289","317386","0.0-289.0","3Q5C1WP23NNAGNOUR4EUKS4CPUC51E","AKNYT1NTK2UFK","3FVBZG9CLJ0K37PD5L6161S4HTM0HN","","","img/food5.png","","1005.4000000022352","-1","0","1","2","1,0.5,0,1,0.5,0,0.5,0,1","1,0.5,0,1,0.5,0,0.5,0,1","1","true",""
"","html-keyboard-response","290","317691","0.0-290.0","3Q5C1WP23NNAGNOUR4EUKS4CPUC51E","AKNYT1NTK2UFK","3FVBZG9CLJ0K37PD5L6161S4HTM0HN","","null","<img src=""img/food5.png"" style=""width:200px;border:14px solid red;"">","null","","","","","","","","","",""
"","html-keyboard-response","291","318197","0.0-291.0-0.0","3Q5C1WP23NNAGNOUR4EUKS4CPUC51E","AKNYT1NTK2UFK","3FVBZG9CLJ0K37PD5L6161S4HTM0HN","","","","","","","","","","","","","",""
"","image-keyboard-response","292","319203","0.0-292.0","3Q5C1WP23NNAGNOUR4EUKS4CPUC51E","AKNYT1NTK2UFK","3FVBZG9CLJ0K37PD5L6161S4HTM0HN","","","img/food2.png","","1005.2999999970198","-1","0","2","2","1,0.5,0,1,0.5,0,0.5,0,1","1,0.5,0,1,0.5,0,0.5,0,1","1","true",""
"","html-keyboard-response","293","319507","0.0-293.0","3Q5C1WP23NNAGNOUR4EUKS4CPUC51E","AKNYT1NTK2UFK","3FVBZG9CLJ0K37PD5L6161S4HTM0HN","","null","<img src=""img/food2.png"" style=""width:200px;border:14px solid red;"">","null","","","","","","","","","",""
"","html-keyboard-response","294","319966","0.0-294.0-0.0","3Q5C1WP23NNAGNOUR4EUKS4CPUC51E","AKNYT1NTK2UFK","3FVBZG9CLJ0K37PD5L6161S4HTM0HN","","","","","","","","","","","","","",""
"","image-keyboard-response","295","320973","0.0-295.0","3Q5C1WP23NNAGNOUR4EUKS4CPUC51E","AKNYT1NTK2UFK","3FVBZG9CLJ0K37PD5L6161S4HTM0HN","","","img/food5.png","","1006.5","-1","0","1","2","1,0.5,0,1,0.5,0,0.5,0,1","1,0.5,0,1,0.5,0,0.5,0,1","1","true",""
"","html-keyboard-response","296","321276","0.0-296.0","3Q5C1WP23NNAGNOUR4EUKS4CPUC51E","AKNYT1NTK2UFK","3FVBZG9CLJ0K37PD5L6161S4HTM0HN","","null","<img src=""img/food5.png"" style=""width:200px;border:14px solid red;"">","null","","","","","","","","","",""
"","html-keyboard-response","297","321730","0.0-297.0-0.0","3Q5C1WP23NNAGNOUR4EUKS4CPUC51E","AKNYT1NTK2UFK","3FVBZG9CLJ0K37PD5L6161S4HTM0HN","","","","","","","","","","","","","",""
"","image-keyboard-response","298","322734","0.0-298.0","3Q5C1WP23NNAGNOUR4EUKS4CPUC51E","AKNYT1NTK2UFK","3FVBZG9CLJ0K37PD5L6161S4HTM0HN","","","img/food5.png","","1003.1999999992549","-1","0","1","2","1,0.5,0,1,0.5,0,0.5,0,1","1,0.5,0,1,0.5,0,0.5,0,1","1","true",""
"","html-keyboard-response","299","323036","0.0-299.0","3Q5C1WP23NNAGNOUR4EUKS4CPUC51E","AKNYT1NTK2UFK","3FVBZG9CLJ0K37PD5L6161S4HTM0HN","","null","<img src=""img/food5.png"" style=""width:200px;border:14px solid red;"">","null","","","","","","","","","",""
"","html-keyboard-response","300","323527","0.0-300.0-0.0","3Q5C1WP23NNAGNOUR4EUKS4CPUC51E","AKNYT1NTK2UFK","3FVBZG9CLJ0K37PD5L6161S4HTM0HN","","","","","","","","","","","","","",""
"","image-keyboard-response","301","324530","0.0-301.0","3Q5C1WP23NNAGNOUR4EUKS4CPUC51E","AKNYT1NTK2UFK","3FVBZG9CLJ0K37PD5L6161S4HTM0HN","","","img/food3.png","","1003.1000000014901","-1","0","3","2","1,0.5,0,1,0.5,0,0.5,0,1","1,0.5,0,1,0.5,0,0.5,0,1","1","true",""
"","html-keyboard-response","302","324834","0.0-302.0","3Q5C1WP23NNAGNOUR4EUKS4CPUC51E","AKNYT1NTK2UFK","3FVBZG9CLJ0K37PD5L6161S4HTM0HN","","null","<img src=""img/food3.png"" style=""width:200px;border:14px solid red;"">","null","","","","","","","","","",""
"","html-keyboard-response","303","325345","0.0-303.0-0.0","3Q5C1WP23NNAGNOUR4EUKS4CPUC51E","AKNYT1NTK2UFK","3FVBZG9CLJ0K37PD5L6161S4HTM0HN","","","","","","","","","","","","","",""
"","image-keyboard-response","304","326348","0.0-304.0","3Q5C1WP23NNAGNOUR4EUKS4CPUC51E","AKNYT1NTK2UFK","3FVBZG9CLJ0K37PD5L6161S4HTM0HN","","","img/food3.png","","1002.4000000022352","-1","0","3","2","1,0.5,0,1,0.5,0,0.5,0,1","1,0.5,0,1,0.5,0,0.5,0,1","1","true",""
"","html-keyboard-response","305","326651","0.0-305.0","3Q5C1WP23NNAGNOUR4EUKS4CPUC51E","AKNYT1NTK2UFK","3FVBZG9CLJ0K37PD5L6161S4HTM0HN","","null","<img src=""img/food3.png"" style=""width:200px;border:14px solid red;"">","null","","","","","","","","","",""
"","html-keyboard-response","306","327139","0.0-306.0-0.0","3Q5C1WP23NNAGNOUR4EUKS4CPUC51E","AKNYT1NTK2UFK","3FVBZG9CLJ0K37PD5L6161S4HTM0HN","","","","","","","","","","","","","",""
"","image-keyboard-response","307","328142","0.0-307.0","3Q5C1WP23NNAGNOUR4EUKS4CPUC51E","AKNYT1NTK2UFK","3FVBZG9CLJ0K37PD5L6161S4HTM0HN","","","img/food2.png","","1003.1999999992549","-1","0","2","2","1,0.5,0,1,0.5,0,0.5,0,1","1,0.5,0,1,0.5,0,0.5,0,1","1","true",""
"","html-keyboard-response","308","328447","0.0-308.0","3Q5C1WP23NNAGNOUR4EUKS4CPUC51E","AKNYT1NTK2UFK","3FVBZG9CLJ0K37PD5L6161S4HTM0HN","","null","<img src=""img/food2.png"" style=""width:200px;border:14px solid red;"">","null","","","","","","","","","",""
"","html-keyboard-response","309","329086","0.0-309.0-0.0","3Q5C1WP23NNAGNOUR4EUKS4CPUC51E","AKNYT1NTK2UFK","3FVBZG9CLJ0K37PD5L6161S4HTM0HN","","","","","","","","","","","","","",""
"","image-keyboard-response","310","330089","0.0-310.0","3Q5C1WP23NNAGNOUR4EUKS4CPUC51E","AKNYT1NTK2UFK","3FVBZG9CLJ0K37PD5L6161S4HTM0HN","","","img/food3.png","","1002","-1","0","3","2","1,0.5,0,1,0.5,0,0.5,0,1","1,0.5,0,1,0.5,0,0.5,0,1","1","true",""
"","html-keyboard-response","311","330391","0.0-311.0","3Q5C1WP23NNAGNOUR4EUKS4CPUC51E","AKNYT1NTK2UFK","3FVBZG9CLJ0K37PD5L6161S4HTM0HN","","null","<img src=""img/food3.png"" style=""width:200px;border:14px solid red;"">","null","","","","","","","","","",""
"","html-keyboard-response","312","330850","0.0-312.0-0.0","3Q5C1WP23NNAGNOUR4EUKS4CPUC51E","AKNYT1NTK2UFK","3FVBZG9CLJ0K37PD5L6161S4HTM0HN","","","","","","","","","","","","","",""
"","image-keyboard-response","313","331855","0.0-313.0","3Q5C1WP23NNAGNOUR4EUKS4CPUC51E","AKNYT1NTK2UFK","3FVBZG9CLJ0K37PD5L6161S4HTM0HN","","","img/food3.png","","1004.3000000007451","-1","0","3","2","1,0.5,0,1,0.5,0,0.5,0,1","1,0.5,0,1,0.5,0,0.5,0,1","1","true",""
"","html-keyboard-response","314","332159","0.0-314.0","3Q5C1WP23NNAGNOUR4EUKS4CPUC51E","AKNYT1NTK2UFK","3FVBZG9CLJ0K37PD5L6161S4HTM0HN","","null","<img src=""img/food3.png"" style=""width:200px;border:14px solid red;"">","null","","","","","","","","","",""
"","html-keyboard-response","315","332661","0.0-315.0-0.0","3Q5C1WP23NNAGNOUR4EUKS4CPUC51E","AKNYT1NTK2UFK","3FVBZG9CLJ0K37PD5L6161S4HTM0HN","","","","","","","","","","","","","",""
"","image-keyboard-response","316","333671","0.0-316.0","3Q5C1WP23NNAGNOUR4EUKS4CPUC51E","AKNYT1NTK2UFK","3FVBZG9CLJ0K37PD5L6161S4HTM0HN","","","img/food2.png","","1008.7000000029802","-1","0","2","2","1,0.5,0,1,0.5,0,0.5,0,1","1,0.5,0,1,0.5,0,0.5,0,1","1","true",""
"","html-keyboard-response","317","333975","0.0-317.0","3Q5C1WP23NNAGNOUR4EUKS4CPUC51E","AKNYT1NTK2UFK","3FVBZG9CLJ0K37PD5L6161S4HTM0HN","","null","<img src=""img/food2.png"" style=""width:200px;border:14px solid red;"">","null","","","","","","","","","",""
"","html-keyboard-response","318","334451","0.0-318.0-0.0","3Q5C1WP23NNAGNOUR4EUKS4CPUC51E","AKNYT1NTK2UFK","3FVBZG9CLJ0K37PD5L6161S4HTM0HN","","","","","","","","","","","","","",""
"","image-keyboard-response","319","335454","0.0-319.0","3Q5C1WP23NNAGNOUR4EUKS4CPUC51E","AKNYT1NTK2UFK","3FVBZG9CLJ0K37PD5L6161S4HTM0HN","","","img/food3.png","","1002.8999999985099","-1","0","3","2","1,0.5,0,1,0.5,0,0.5,0,1","1,0.5,0,1,0.5,0,0.5,0,1","1","true",""
"","html-keyboard-response","320","335757","0.0-320.0","3Q5C1WP23NNAGNOUR4EUKS4CPUC51E","AKNYT1NTK2UFK","3FVBZG9CLJ0K37PD5L6161S4HTM0HN","","null","<img src=""img/food3.png"" style=""width:200px;border:14px solid red;"">","null","","","","","","","","","",""
"","html-keyboard-response","321","335942","0.0-321.0-0.0","3Q5C1WP23NNAGNOUR4EUKS4CPUC51E","AKNYT1NTK2UFK","3FVBZG9CLJ0K37PD5L6161S4HTM0HN","","","","","","","","","","","","","",""
"","image-keyboard-response","322","336957","0.0-322.0","3Q5C1WP23NNAGNOUR4EUKS4CPUC51E","AKNYT1NTK2UFK","3FVBZG9CLJ0K37PD5L6161S4HTM0HN","","","img/food2.png","","1014.2999999970198","-1","0","2","2","1,0.5,0,1,0.5,0,0.5,0,1","1,0.5,0,1,0.5,0,0.5,0,1","1","true",""
"","html-keyboard-response","323","337259","0.0-323.0","3Q5C1WP23NNAGNOUR4EUKS4CPUC51E","AKNYT1NTK2UFK","3FVBZG9CLJ0K37PD5L6161S4HTM0HN","","null","<img src=""img/food2.png"" style=""width:200px;border:14px solid red;"">","null","","","","","","","","","",""
"","html-keyboard-response","324","337317","0.0-324.0-0.0","3Q5C1WP23NNAGNOUR4EUKS4CPUC51E","AKNYT1NTK2UFK","3FVBZG9CLJ0K37PD5L6161S4HTM0HN","","","","","","","","","","","","","",""
"","image-keyboard-response","325","338320","0.0-325.0","3Q5C1WP23NNAGNOUR4EUKS4CPUC51E","AKNYT1NTK2UFK","3FVBZG9CLJ0K37PD5L6161S4HTM0HN","","","img/food2.png","","1002.7999999970198","-1","0","2","2","1,0.5,0,1,0.5,0,0.5,0,1","1,0.5,0,1,0.5,0,0.5,0,1","1","true",""
"","html-keyboard-response","326","338624","0.0-326.0","3Q5C1WP23NNAGNOUR4EUKS4CPUC51E","AKNYT1NTK2UFK","3FVBZG9CLJ0K37PD5L6161S4HTM0HN","","null","<img src=""img/food2.png"" style=""width:200px;border:14px solid red;"">","null","","","","","","","","","",""
"","html-keyboard-response","327","338629","0.0-327.0-0.0","3Q5C1WP23NNAGNOUR4EUKS4CPUC51E","AKNYT1NTK2UFK","3FVBZG9CLJ0K37PD5L6161S4HTM0HN","","","","","","","","","","","","","",""
"","image-keyboard-response","328","339633","0.0-328.0","3Q5C1WP23NNAGNOUR4EUKS4CPUC51E","AKNYT1NTK2UFK","3FVBZG9CLJ0K37PD5L6161S4HTM0HN","","","img/food2.png","","1004.1000000014901","-1","0","2","2","1,0.5,0,1,0.5,0,0.5,0,1","1,0.5,0,1,0.5,0,0.5,0,1","1","true",""
"","html-keyboard-response","329","339937","0.0-329.0","3Q5C1WP23NNAGNOUR4EUKS4CPUC51E","AKNYT1NTK2UFK","3FVBZG9CLJ0K37PD5L6161S4HTM0HN","","null","<img src=""img/food2.png"" style=""width:200px;border:14px solid red;"">","null","","","","","","","","","",""
"","html-keyboard-response","330","340016","0.0-330.0-0.0","3Q5C1WP23NNAGNOUR4EUKS4CPUC51E","AKNYT1NTK2UFK","3FVBZG9CLJ0K37PD5L6161S4HTM0HN","","","","","","","","","","","","","",""
"","image-keyboard-response","331","341021","0.0-331.0","3Q5C1WP23NNAGNOUR4EUKS4CPUC51E","AKNYT1NTK2UFK","3FVBZG9CLJ0K37PD5L6161S4HTM0HN","","","img/food3.png","","1004.1999999992549","-1","0","3","2","1,0.5,0,1,0.5,0,0.5,0,1","1,0.5,0,1,0.5,0,0.5,0,1","1","true",""
"","html-keyboard-response","332","341327","0.0-332.0","3Q5C1WP23NNAGNOUR4EUKS4CPUC51E","AKNYT1NTK2UFK","3FVBZG9CLJ0K37PD5L6161S4HTM0HN","","null","<img src=""img/food3.png"" style=""width:200px;border:14px solid red;"">","null","","","","","","","","","",""
"","html-keyboard-response","333","341431","0.0-333.0-0.0","3Q5C1WP23NNAGNOUR4EUKS4CPUC51E","AKNYT1NTK2UFK","3FVBZG9CLJ0K37PD5L6161S4HTM0HN","","","","","","","","","","","","","",""
"","image-keyboard-response","334","342435","0.0-334.0","3Q5C1WP23NNAGNOUR4EUKS4CPUC51E","AKNYT1NTK2UFK","3FVBZG9CLJ0K37PD5L6161S4HTM0HN","","","img/food2.png","","1002.8000000007451","-1","0","2","2","1,0.5,0,1,0.5,0,0.5,0,1","1,0.5,0,1,0.5,0,0.5,0,1","1","true",""
"","html-keyboard-response","335","342738","0.0-335.0","3Q5C1WP23NNAGNOUR4EUKS4CPUC51E","AKNYT1NTK2UFK","3FVBZG9CLJ0K37PD5L6161S4HTM0HN","","null","<img src=""img/food2.png"" style=""width:200px;border:14px solid red;"">","null","","","","","","","","","",""
"","html-keyboard-response","336","342858","0.0-336.0-0.0","3Q5C1WP23NNAGNOUR4EUKS4CPUC51E","AKNYT1NTK2UFK","3FVBZG9CLJ0K37PD5L6161S4HTM0HN","","","","","","","","","","","","","",""
"","image-keyboard-response","337","343862","0.0-337.0","3Q5C1WP23NNAGNOUR4EUKS4CPUC51E","AKNYT1NTK2UFK","3FVBZG9CLJ0K37PD5L6161S4HTM0HN","","","img/food5.png","","1002.7000000029802","-1","0","1","2","1,0.5,0,1,0.5,0,0.5,0,1","1,0.5,0,1,0.5,0,0.5,0,1","1","true",""
"","html-keyboard-response","338","344166","0.0-338.0","3Q5C1WP23NNAGNOUR4EUKS4CPUC51E","AKNYT1NTK2UFK","3FVBZG9CLJ0K37PD5L6161S4HTM0HN","","null","<img src=""img/food5.png"" style=""width:200px;border:14px solid red;"">","null","","","","","","","","","",""
"","html-keyboard-response","339","344291","0.0-339.0-0.0","3Q5C1WP23NNAGNOUR4EUKS4CPUC51E","AKNYT1NTK2UFK","3FVBZG9CLJ0K37PD5L6161S4HTM0HN","","","","","","","","","","","","","",""
"","image-keyboard-response","340","345294","0.0-340.0","3Q5C1WP23NNAGNOUR4EUKS4CPUC51E","AKNYT1NTK2UFK","3FVBZG9CLJ0K37PD5L6161S4HTM0HN","","","img/food3.png","","1003.3999999985099","-1","0","3","2","1,0.5,0,1,0.5,0,0.5,0,1","1,0.5,0,1,0.5,0,0.5,0,1","1","true",""
"","html-keyboard-response","341","345598","0.0-341.0","3Q5C1WP23NNAGNOUR4EUKS4CPUC51E","AKNYT1NTK2UFK","3FVBZG9CLJ0K37PD5L6161S4HTM0HN","","null","<img src=""img/food3.png"" style=""width:200px;border:14px solid red;"">","null","","","","","","","","","",""
"","html-keyboard-response","342","345754","0.0-342.0-0.0","3Q5C1WP23NNAGNOUR4EUKS4CPUC51E","AKNYT1NTK2UFK","3FVBZG9CLJ0K37PD5L6161S4HTM0HN","","","","","","","","","","","","","",""
"","image-keyboard-response","343","346758","0.0-343.0","3Q5C1WP23NNAGNOUR4EUKS4CPUC51E","AKNYT1NTK2UFK","3FVBZG9CLJ0K37PD5L6161S4HTM0HN","","","img/food2.png","","1003.5","-1","0","2","2","1,0.5,0,1,0.5,0,0.5,0,1","1,0.5,0,1,0.5,0,0.5,0,1","1","true",""
"","html-keyboard-response","344","347061","0.0-344.0","3Q5C1WP23NNAGNOUR4EUKS4CPUC51E","AKNYT1NTK2UFK","3FVBZG9CLJ0K37PD5L6161S4HTM0HN","","null","<img src=""img/food2.png"" style=""width:200px;border:14px solid red;"">","null","","","","","","","","","",""
"","html-keyboard-response","345","347240","0.0-345.0-0.0","3Q5C1WP23NNAGNOUR4EUKS4CPUC51E","AKNYT1NTK2UFK","3FVBZG9CLJ0K37PD5L6161S4HTM0HN","","","","","","","","","","","","","",""
"","image-keyboard-response","346","348243","0.0-346.0","3Q5C1WP23NNAGNOUR4EUKS4CPUC51E","AKNYT1NTK2UFK","3FVBZG9CLJ0K37PD5L6161S4HTM0HN","","","img/food5.png","","1003","-1","0","1","2","1,0.5,0,1,0.5,0,0.5,0,1","1,0.5,0,1,0.5,0,0.5,0,1","1","true",""
"","html-keyboard-response","347","348546","0.0-347.0","3Q5C1WP23NNAGNOUR4EUKS4CPUC51E","AKNYT1NTK2UFK","3FVBZG9CLJ0K37PD5L6161S4HTM0HN","","null","<img src=""img/food5.png"" style=""width:200px;border:14px solid red;"">","null","","","","","","","","","",""
"","html-keyboard-response","348","348720","0.0-348.0-0.0","3Q5C1WP23NNAGNOUR4EUKS4CPUC51E","AKNYT1NTK2UFK","3FVBZG9CLJ0K37PD5L6161S4HTM0HN","","","","","","","","","","","","","",""
"","image-keyboard-response","349","349724","0.0-349.0","3Q5C1WP23NNAGNOUR4EUKS4CPUC51E","AKNYT1NTK2UFK","3FVBZG9CLJ0K37PD5L6161S4HTM0HN","","","img/food3.png","","1003.5","-1","0","3","2","1,0.5,0,1,0.5,0,0.5,0,1","1,0.5,0,1,0.5,0,0.5,0,1","1","true",""
"","html-keyboard-response","350","350027","0.0-350.0","3Q5C1WP23NNAGNOUR4EUKS4CPUC51E","AKNYT1NTK2UFK","3FVBZG9CLJ0K37PD5L6161S4HTM0HN","","null","<img src=""img/food3.png"" style=""width:200px;border:14px solid red;"">","null","","","","","","","","","",""
"","html-keyboard-response","351","350188","0.0-351.0-0.0","3Q5C1WP23NNAGNOUR4EUKS4CPUC51E","AKNYT1NTK2UFK","3FVBZG9CLJ0K37PD5L6161S4HTM0HN","","","","","","","","","","","","","",""
"","image-keyboard-response","352","351191","0.0-352.0","3Q5C1WP23NNAGNOUR4EUKS4CPUC51E","AKNYT1NTK2UFK","3FVBZG9CLJ0K37PD5L6161S4HTM0HN","","","img/food5.png","","1003","-1","0","1","2","1,0.5,0,1,0.5,0,0.5,0,1","1,0.5,0,1,0.5,0,0.5,0,1","1","true",""
"","html-keyboard-response","353","351494","0.0-353.0","3Q5C1WP23NNAGNOUR4EUKS4CPUC51E","AKNYT1NTK2UFK","3FVBZG9CLJ0K37PD5L6161S4HTM0HN","","null","<img src=""img/food5.png"" style=""width:200px;border:14px solid red;"">","null","","","","","","","","","",""
"","html-keyboard-response","354","351666","0.0-354.0-0.0","3Q5C1WP23NNAGNOUR4EUKS4CPUC51E","AKNYT1NTK2UFK","3FVBZG9CLJ0K37PD5L6161S4HTM0HN","","","","","","","","","","","","","",""
"","image-keyboard-response","355","352671","0.0-355.0","3Q5C1WP23NNAGNOUR4EUKS4CPUC51E","AKNYT1NTK2UFK","3FVBZG9CLJ0K37PD5L6161S4HTM0HN","","","img/food2.png","","1004.7000000029802","-1","0","2","2","1,0.5,0,1,0.5,0,0.5,0,1","1,0.5,0,1,0.5,0,0.5,0,1","1","true",""
"","html-keyboard-response","356","352977","0.0-356.0","3Q5C1WP23NNAGNOUR4EUKS4CPUC51E","AKNYT1NTK2UFK","3FVBZG9CLJ0K37PD5L6161S4HTM0HN","","null","<img src=""img/food2.png"" style=""width:200px;border:14px solid red;"">","null","","","","","","","","","",""
"","html-keyboard-response","357","353795","0.0-357.0-0.0","3Q5C1WP23NNAGNOUR4EUKS4CPUC51E","AKNYT1NTK2UFK","3FVBZG9CLJ0K37PD5L6161S4HTM0HN","","","","","","","","","","","","","",""
"","image-keyboard-response","358","354801","0.0-358.0","3Q5C1WP23NNAGNOUR4EUKS4CPUC51E","AKNYT1NTK2UFK","3FVBZG9CLJ0K37PD5L6161S4HTM0HN","","","img/food2.png","","1005.8999999985099","-1","0","2","2","1,0.5,0,1,0.5,0,0.5,0,1","1,0.5,0,1,0.5,0,0.5,0,1","1","true",""
"","html-keyboard-response","359","355104","0.0-359.0","3Q5C1WP23NNAGNOUR4EUKS4CPUC51E","AKNYT1NTK2UFK","3FVBZG9CLJ0K37PD5L6161S4HTM0HN","","null","<img src=""img/food2.png"" style=""width:200px;border:14px solid red;"">","null","","","","","","","","","",""
"","html-keyboard-response","360","355271","0.0-360.0-0.0","3Q5C1WP23NNAGNOUR4EUKS4CPUC51E","AKNYT1NTK2UFK","3FVBZG9CLJ0K37PD5L6161S4HTM0HN","","","","","","","","","","","","","",""
"","image-keyboard-response","361","356274","0.0-361.0","3Q5C1WP23NNAGNOUR4EUKS4CPUC51E","AKNYT1NTK2UFK","3FVBZG9CLJ0K37PD5L6161S4HTM0HN","","","img/food2.png","","1002.3000000007451","-1","0","2","2","1,0.5,0,1,0.5,0,0.5,0,1","1,0.5,0,1,0.5,0,0.5,0,1","1","true",""
"","html-keyboard-response","362","356577","0.0-362.0","3Q5C1WP23NNAGNOUR4EUKS4CPUC51E","AKNYT1NTK2UFK","3FVBZG9CLJ0K37PD5L6161S4HTM0HN","","null","<img src=""img/food2.png"" style=""width:200px;border:14px solid red;"">","null","","","","","","","","","",""
"","html-keyboard-response","363","356687","0.0-363.0-0.0","3Q5C1WP23NNAGNOUR4EUKS4CPUC51E","AKNYT1NTK2UFK","3FVBZG9CLJ0K37PD5L6161S4HTM0HN","","","","","","","","","","","","","",""
"","image-keyboard-response","364","357691","0.0-364.0","3Q5C1WP23NNAGNOUR4EUKS4CPUC51E","AKNYT1NTK2UFK","3FVBZG9CLJ0K37PD5L6161S4HTM0HN","","","img/food2.png","","1004","-1","0","2","2","1,0.5,0,1,0.5,0,0.5,0,1","1,0.5,0,1,0.5,0,0.5,0,1","1","true",""
"","html-keyboard-response","365","357997","0.0-365.0","3Q5C1WP23NNAGNOUR4EUKS4CPUC51E","AKNYT1NTK2UFK","3FVBZG9CLJ0K37PD5L6161S4HTM0HN","","null","<img src=""img/food2.png"" style=""width:200px;border:14px solid red;"">","null","","","","","","","","","",""
"","html-keyboard-response","366","358125","0.0-366.0-0.0","3Q5C1WP23NNAGNOUR4EUKS4CPUC51E","AKNYT1NTK2UFK","3FVBZG9CLJ0K37PD5L6161S4HTM0HN","","","","","","","","","","","","","",""
"","image-keyboard-response","367","359129","0.0-367.0","3Q5C1WP23NNAGNOUR4EUKS4CPUC51E","AKNYT1NTK2UFK","3FVBZG9CLJ0K37PD5L6161S4HTM0HN","","","img/food2.png","","1003.7999999970198","-1","0","2","2","1,0.5,0,1,0.5,0,0.5,0,1","1,0.5,0,1,0.5,0,0.5,0,1","1","true",""
"","html-keyboard-response","368","359432","0.0-368.0","3Q5C1WP23NNAGNOUR4EUKS4CPUC51E","AKNYT1NTK2UFK","3FVBZG9CLJ0K37PD5L6161S4HTM0HN","","null","<img src=""img/food2.png"" style=""width:200px;border:14px solid red;"">","null","","","","","","","","","",""
"","html-keyboard-response","369","359562","0.0-369.0-0.0","3Q5C1WP23NNAGNOUR4EUKS4CPUC51E","AKNYT1NTK2UFK","3FVBZG9CLJ0K37PD5L6161S4HTM0HN","","","","","","","","","","","","","",""
"","image-keyboard-response","370","360565","0.0-370.0","3Q5C1WP23NNAGNOUR4EUKS4CPUC51E","AKNYT1NTK2UFK","3FVBZG9CLJ0K37PD5L6161S4HTM0HN","","","img/food3.png","","1003.0999999977648","-1","0","3","2","1,0.5,0,1,0.5,0,0.5,0,1","1,0.5,0,1,0.5,0,0.5,0,1","1","true",""
"","html-keyboard-response","371","360869","0.0-371.0","3Q5C1WP23NNAGNOUR4EUKS4CPUC51E","AKNYT1NTK2UFK","3FVBZG9CLJ0K37PD5L6161S4HTM0HN","","null","<img src=""img/food3.png"" style=""width:200px;border:14px solid red;"">","null","","","","","","","","","",""
"","html-keyboard-response","372","360989","0.0-372.0-0.0","3Q5C1WP23NNAGNOUR4EUKS4CPUC51E","AKNYT1NTK2UFK","3FVBZG9CLJ0K37PD5L6161S4HTM0HN","","","","","","","","","","","","","",""
"","image-keyboard-response","373","361992","0.0-373.0","3Q5C1WP23NNAGNOUR4EUKS4CPUC51E","AKNYT1NTK2UFK","3FVBZG9CLJ0K37PD5L6161S4HTM0HN","","","img/food2.png","","1003.6000000014901","-1","0","2","2","1,0.5,0,1,0.5,0,0.5,0,1","1,0.5,0,1,0.5,0,0.5,0,1","1","true",""
"","html-keyboard-response","374","362296","0.0-374.0","3Q5C1WP23NNAGNOUR4EUKS4CPUC51E","AKNYT1NTK2UFK","3FVBZG9CLJ0K37PD5L6161S4HTM0HN","","null","<img src=""img/food2.png"" style=""width:200px;border:14px solid red;"">","null","","","","","","","","","",""
"","html-keyboard-response","375","362463","0.0-375.0-0.0","3Q5C1WP23NNAGNOUR4EUKS4CPUC51E","AKNYT1NTK2UFK","3FVBZG9CLJ0K37PD5L6161S4HTM0HN","","","","","","","","","","","","","",""
"","image-keyboard-response","376","363467","0.0-376.0","3Q5C1WP23NNAGNOUR4EUKS4CPUC51E","AKNYT1NTK2UFK","3FVBZG9CLJ0K37PD5L6161S4HTM0HN","","","img/food3.png","","1003.7999999970198","-1","0","3","2","1,0.5,0,1,0.5,0,0.5,0,1","1,0.5,0,1,0.5,0,0.5,0,1","1","true",""
"","html-keyboard-response","377","363771","0.0-377.0","3Q5C1WP23NNAGNOUR4EUKS4CPUC51E","AKNYT1NTK2UFK","3FVBZG9CLJ0K37PD5L6161S4HTM0HN","","null","<img src=""img/food3.png"" style=""width:200px;border:14px solid red;"">","null","","","","","","","","","",""
"","html-keyboard-response","378","363913","0.0-378.0-0.0","3Q5C1WP23NNAGNOUR4EUKS4CPUC51E","AKNYT1NTK2UFK","3FVBZG9CLJ0K37PD5L6161S4HTM0HN","","","","","","","","","","","","","",""
"","image-keyboard-response","379","364917","0.0-379.0","3Q5C1WP23NNAGNOUR4EUKS4CPUC51E","AKNYT1NTK2UFK","3FVBZG9CLJ0K37PD5L6161S4HTM0HN","","","img/food3.png","","1003.5","-1","0","3","2","1,0.5,0,1,0.5,0,0.5,0,1","1,0.5,0,1,0.5,0,0.5,0,1","1","true",""
"","html-keyboard-response","380","365222","0.0-380.0","3Q5C1WP23NNAGNOUR4EUKS4CPUC51E","AKNYT1NTK2UFK","3FVBZG9CLJ0K37PD5L6161S4HTM0HN","","null","<img src=""img/food3.png"" style=""width:200px;border:14px solid red;"">","null","","","","","","","","","",""
"","html-keyboard-response","381","365335","0.0-381.0-0.0","3Q5C1WP23NNAGNOUR4EUKS4CPUC51E","AKNYT1NTK2UFK","3FVBZG9CLJ0K37PD5L6161S4HTM0HN","","","","","","","","","","","","","",""
"","image-keyboard-response","382","366344","0.0-382.0","3Q5C1WP23NNAGNOUR4EUKS4CPUC51E","AKNYT1NTK2UFK","3FVBZG9CLJ0K37PD5L6161S4HTM0HN","","","img/food3.png","","1008","-1","0","3","2","1,0.5,0,1,0.5,0,0.5,0,1","1,0.5,0,1,0.5,0,0.5,0,1","1","true",""
"","html-keyboard-response","383","366647","0.0-383.0","3Q5C1WP23NNAGNOUR4EUKS4CPUC51E","AKNYT1NTK2UFK","3FVBZG9CLJ0K37PD5L6161S4HTM0HN","","null","<img src=""img/food3.png"" style=""width:200px;border:14px solid red;"">","null","","","","","","","","","",""
"","html-keyboard-response","384","366687","0.0-384.0-0.0","3Q5C1WP23NNAGNOUR4EUKS4CPUC51E","AKNYT1NTK2UFK","3FVBZG9CLJ0K37PD5L6161S4HTM0HN","","","","","","","","","","","","","",""
"","image-keyboard-response","385","367694","0.0-385.0","3Q5C1WP23NNAGNOUR4EUKS4CPUC51E","AKNYT1NTK2UFK","3FVBZG9CLJ0K37PD5L6161S4HTM0HN","","","img/food2.png","","1005.6000000014901","-1","0","2","2","1,0.5,0,1,0.5,0,0.5,0,1","1,0.5,0,1,0.5,0,0.5,0,1","1","true",""
"","html-keyboard-response","386","368002","0.0-386.0","3Q5C1WP23NNAGNOUR4EUKS4CPUC51E","AKNYT1NTK2UFK","3FVBZG9CLJ0K37PD5L6161S4HTM0HN","","null","<img src=""img/food2.png"" style=""width:200px;border:14px solid red;"">","null","","","","","","","","","",""
"","html-keyboard-response","387","368013","0.0-387.0-0.0","3Q5C1WP23NNAGNOUR4EUKS4CPUC51E","AKNYT1NTK2UFK","3FVBZG9CLJ0K37PD5L6161S4HTM0HN","","","","","","","","","","","","","",""
"","image-keyboard-response","388","369017","0.0-388.0","3Q5C1WP23NNAGNOUR4EUKS4CPUC51E","AKNYT1NTK2UFK","3FVBZG9CLJ0K37PD5L6161S4HTM0HN","","","img/food2.png","","1003.1999999992549","-1","0","2","2","1,0.5,0,1,0.5,0,0.5,0,1","1,0.5,0,1,0.5,0,0.5,0,1","1","true",""
"","html-keyboard-response","389","369320","0.0-389.0","3Q5C1WP23NNAGNOUR4EUKS4CPUC51E","AKNYT1NTK2UFK","3FVBZG9CLJ0K37PD5L6161S4HTM0HN","","null","<img src=""img/food2.png"" style=""width:200px;border:14px solid red;"">","null","","","","","","","","","",""
"","html-keyboard-response","390","369389","0.0-390.0-0.0","3Q5C1WP23NNAGNOUR4EUKS4CPUC51E","AKNYT1NTK2UFK","3FVBZG9CLJ0K37PD5L6161S4HTM0HN","","","","","","","","","","","","","",""
"","image-keyboard-response","391","370395","0.0-391.0","3Q5C1WP23NNAGNOUR4EUKS4CPUC51E","AKNYT1NTK2UFK","3FVBZG9CLJ0K37PD5L6161S4HTM0HN","","","img/food2.png","","1006.1999999992549","-1","0","2","2","1,0.5,0,1,0.5,0,0.5,0,1","1,0.5,0,1,0.5,0,0.5,0,1","1","true",""
"","html-keyboard-response","392","370697","0.0-392.0","3Q5C1WP23NNAGNOUR4EUKS4CPUC51E","AKNYT1NTK2UFK","3FVBZG9CLJ0K37PD5L6161S4HTM0HN","","null","<img src=""img/food2.png"" style=""width:200px;border:14px solid red;"">","null","","","","","","","","","",""
"","html-keyboard-response","393","370720","0.0-393.0-0.0","3Q5C1WP23NNAGNOUR4EUKS4CPUC51E","AKNYT1NTK2UFK","3FVBZG9CLJ0K37PD5L6161S4HTM0HN","","","","","","","","","","","","","",""
"","image-keyboard-response","394","371725","0.0-394.0","3Q5C1WP23NNAGNOUR4EUKS4CPUC51E","AKNYT1NTK2UFK","3FVBZG9CLJ0K37PD5L6161S4HTM0HN","","","img/food2.png","","1004.5","-1","0","2","2","1,0.5,0,1,0.5,0,0.5,0,1","1,0.5,0,1,0.5,0,0.5,0,1","1","true",""
"","html-keyboard-response","395","372032","0.0-395.0","3Q5C1WP23NNAGNOUR4EUKS4CPUC51E","AKNYT1NTK2UFK","3FVBZG9CLJ0K37PD5L6161S4HTM0HN","","null","<img src=""img/food2.png"" style=""width:200px;border:14px solid red;"">","null","","","","","","","","","",""
"","html-keyboard-response","396","372085","0.0-396.0-0.0","3Q5C1WP23NNAGNOUR4EUKS4CPUC51E","AKNYT1NTK2UFK","3FVBZG9CLJ0K37PD5L6161S4HTM0HN","","","","","","","","","","","","","",""
"","image-keyboard-response","397","373089","0.0-397.0","3Q5C1WP23NNAGNOUR4EUKS4CPUC51E","AKNYT1NTK2UFK","3FVBZG9CLJ0K37PD5L6161S4HTM0HN","","","img/food5.png","","1003.6999999992549","-1","0","1","2","1,0.5,0,1,0.5,0,0.5,0,1","1,0.5,0,1,0.5,0,0.5,0,1","1","true",""
