"success","trial_type","trial_index","time_elapsed","internal_node_id","assignmentID","mturkID","hitID","view_history","rt","stimulus","key_press","reactionTime","a","r","s","cond","reward_cond","reward_cond_actual","reward_matrix_idx","warning","responses"
"true","fullscreen","0","3047","0.0-0.0","36PW28KO40I66UUNYO0QZN3S56WEA4","AKVDY8OXNMQED","3BA7SXOG1JCFAQ8JWUVADK0SNZTR8T","","","","","","","","","","","","","",""
"","instructions","1","43967","0.0-1.0","36PW28KO40I66UUNYO0QZN3S56WEA4","AKVDY8OXNMQED","3BA7SXOG1JCFAQ8JWUVADK0SNZTR8T","[{""page_index"":0,""viewing_time"":4286.599999904633},{""page_index"":1,""viewing_time"":5629.700000047684},{""page_index"":2,""viewing_time"":8378.5},{""page_index"":3,""viewing_time"":6908.299999952316},{""page_index"":4,""viewing_time"":5139.600000023842},{""page_index"":5,""viewing_time"":8458},{""page_index"":6,""viewing_time"":2117.2000000476837}]","40918.5","","","","","","","","","","","",""
"","image-keyboard-response","2","44686","0.0-2.0","36PW28KO40I66UUNYO0QZN3S56WEA4","AKVDY8OXNMQED","3BA7SXOG1JCFAQ8JWUVADK0SNZTR8T","","716.1000000238419","img/food5.png","74","717.8999999761581","1","1","1","1","1,0.7,0,1,0.7,0,0.7,0,1","0.7,0,1,0.7,0,1,0,1,0.7","2","",""
"","html-keyboard-response","3","44989","0.0-3.0","36PW28KO40I66UUNYO0QZN3S56WEA4","AKVDY8OXNMQED","3BA7SXOG1JCFAQ8JWUVADK0SNZTR8T","","null","<img src=""img/food5.png"" style=""width:200px; border:14px solid green;"">","null","","","","","","","","","",""
"","image-keyboard-response","4","45910","0.0-4.0","36PW28KO40I66UUNYO0QZN3S56WEA4","AKVDY8OXNMQED","3BA7SXOG1JCFAQ8JWUVADK0SNZTR8T","","920.3999999761581","img/food6.png","75","921.2000000476837","2","0","2","1","1,0.7,0,1,0.7,0,0.7,0,1","0.7,0,1,0.7,0,1,0,1,0.7","2","",""
"","html-keyboard-response","5","46217","0.0-5.0","36PW28KO40I66UUNYO0QZN3S56WEA4","AKVDY8OXNMQED","3BA7SXOG1JCFAQ8JWUVADK0SNZTR8T","","null","<img src=""img/food6.png"" style=""width:200px;border:14px solid red;"">","null","","","","","","","","","",""
"","image-keyboard-response","6","46805","0.0-6.0","36PW28KO40I66UUNYO0QZN3S56WEA4","AKVDY8OXNMQED","3BA7SXOG1JCFAQ8JWUVADK0SNZTR8T","","586.5","img/food6.png","76","587.7999999523163","3","1","2","1","1,0.7,0,1,0.7,0,0.7,0,1","0.7,0,1,0.7,0,1,0,1,0.7","2","",""
"","html-keyboard-response","7","47109","0.0-7.0","36PW28KO40I66UUNYO0QZN3S56WEA4","AKVDY8OXNMQED","3BA7SXOG1JCFAQ8JWUVADK0SNZTR8T","","null","<img src=""img/food6.png"" style=""width:200px; border:14px solid green;"">","null","","","","","","","","","",""
"","image-keyboard-response","8","48172","0.0-8.0","36PW28KO40I66UUNYO0QZN3S56WEA4","AKVDY8OXNMQED","3BA7SXOG1JCFAQ8JWUVADK0SNZTR8T","","1061.5","img/food6.png","74","1062.5","1","0","2","1","1,0.7,0,1,0.7,0,0.7,0,1","0.7,0,1,0.7,0,1,0,1,0.7","2","",""
"","html-keyboard-response","9","48477","0.0-9.0","36PW28KO40I66UUNYO0QZN3S56WEA4","AKVDY8OXNMQED","3BA7SXOG1JCFAQ8JWUVADK0SNZTR8T","","null","<img src=""img/food6.png"" style=""width:200px;border:14px solid red;"">","null","","","","","","","","","",""
"","image-keyboard-response","10","49014","0.0-10.0","36PW28KO40I66UUNYO0QZN3S56WEA4","AKVDY8OXNMQED","3BA7SXOG1JCFAQ8JWUVADK0SNZTR8T","","536.3999999761581","img/food2.png","74","536.9000000953674","1","0","3","1","1,0.7,0,1,0.7,0,0.7,0,1","0.7,0,1,0.7,0,1,0,1,0.7","2","",""
"","html-keyboard-response","11","49318","0.0-11.0","36PW28KO40I66UUNYO0QZN3S56WEA4","AKVDY8OXNMQED","3BA7SXOG1JCFAQ8JWUVADK0SNZTR8T","","null","<img src=""img/food2.png"" style=""width:200px;border:14px solid red;"">","null","","","","","","","","","",""
"","image-keyboard-response","12","49858","0.0-12.0","36PW28KO40I66UUNYO0QZN3S56WEA4","AKVDY8OXNMQED","3BA7SXOG1JCFAQ8JWUVADK0SNZTR8T","","539.1999999284744","img/food2.png","75","539.9000000953674","2","1","3","1","1,0.7,0,1,0.7,0,0.7,0,1","0.7,0,1,0.7,0,1,0,1,0.7","2","",""
"","html-keyboard-response","13","50162","0.0-13.0","36PW28KO40I66UUNYO0QZN3S56WEA4","AKVDY8OXNMQED","3BA7SXOG1JCFAQ8JWUVADK0SNZTR8T","","null","<img src=""img/food2.png"" style=""width:200px; border:14px solid green;"">","null","","","","","","","","","",""
"","image-keyboard-response","14","50826","0.0-14.0","36PW28KO40I66UUNYO0QZN3S56WEA4","AKVDY8OXNMQED","3BA7SXOG1JCFAQ8JWUVADK0SNZTR8T","","662.3000000715256","img/food2.png","75","663.5","2","1","3","1","1,0.7,0,1,0.7,0,0.7,0,1","0.7,0,1,0.7,0,1,0,1,0.7","2","",""
"","html-keyboard-response","15","51130","0.0-15.0","36PW28KO40I66UUNYO0QZN3S56WEA4","AKVDY8OXNMQED","3BA7SXOG1JCFAQ8JWUVADK0SNZTR8T","","null","<img src=""img/food2.png"" style=""width:200px; border:14px solid green;"">","null","","","","","","","","","",""
"","image-keyboard-response","16","51569","0.0-16.0","36PW28KO40I66UUNYO0QZN3S56WEA4","AKVDY8OXNMQED","3BA7SXOG1JCFAQ8JWUVADK0SNZTR8T","","438.1999999284744","img/food6.png","74","439.09999990463257","1","1","2","1","1,0.7,0,1,0.7,0,0.7,0,1","0.7,0,1,0.7,0,1,0,1,0.7","2","",""
"","html-keyboard-response","17","51875","0.0-17.0","36PW28KO40I66UUNYO0QZN3S56WEA4","AKVDY8OXNMQED","3BA7SXOG1JCFAQ8JWUVADK0SNZTR8T","","null","<img src=""img/food6.png"" style=""width:200px; border:14px solid green;"">","null","","","","","","","","","",""
"","image-keyboard-response","18","52165","0.0-18.0","36PW28KO40I66UUNYO0QZN3S56WEA4","AKVDY8OXNMQED","3BA7SXOG1JCFAQ8JWUVADK0SNZTR8T","","288","img/food5.png","75","289.3000000715256","2","0","1","1","1,0.7,0,1,0.7,0,0.7,0,1","0.7,0,1,0.7,0,1,0,1,0.7","2","",""
"","html-keyboard-response","19","52467","0.0-19.0","36PW28KO40I66UUNYO0QZN3S56WEA4","AKVDY8OXNMQED","3BA7SXOG1JCFAQ8JWUVADK0SNZTR8T","","null","<img src=""img/food5.png"" style=""width:200px;border:14px solid red;"">","null","","","","","","","","","",""
"","image-keyboard-response","20","52876","0.0-20.0","36PW28KO40I66UUNYO0QZN3S56WEA4","AKVDY8OXNMQED","3BA7SXOG1JCFAQ8JWUVADK0SNZTR8T","","407.6999999284744","img/food6.png","76","409.10000002384186","3","1","2","1","1,0.7,0,1,0.7,0,0.7,0,1","0.7,0,1,0.7,0,1,0,1,0.7","2","",""
"","html-keyboard-response","21","53181","0.0-21.0","36PW28KO40I66UUNYO0QZN3S56WEA4","AKVDY8OXNMQED","3BA7SXOG1JCFAQ8JWUVADK0SNZTR8T","","null","<img src=""img/food6.png"" style=""width:200px; border:14px solid green;"">","null","","","","","","","","","",""
"","image-keyboard-response","22","53585","0.0-22.0","36PW28KO40I66UUNYO0QZN3S56WEA4","AKVDY8OXNMQED","3BA7SXOG1JCFAQ8JWUVADK0SNZTR8T","","402.39999997615814","img/food6.png","74","403.5","1","1","2","1","1,0.7,0,1,0.7,0,0.7,0,1","0.7,0,1,0.7,0,1,0,1,0.7","2","",""
"","html-keyboard-response","23","53890","0.0-23.0","36PW28KO40I66UUNYO0QZN3S56WEA4","AKVDY8OXNMQED","3BA7SXOG1JCFAQ8JWUVADK0SNZTR8T","","null","<img src=""img/food6.png"" style=""width:200px; border:14px solid green;"">","null","","","","","","","","","",""
"","image-keyboard-response","24","54247","0.0-24.0","36PW28KO40I66UUNYO0QZN3S56WEA4","AKVDY8OXNMQED","3BA7SXOG1JCFAQ8JWUVADK0SNZTR8T","","355.39999997615814","img/food2.png","74","356.3000000715256","1","0","3","1","1,0.7,0,1,0.7,0,0.7,0,1","0.7,0,1,0.7,0,1,0,1,0.7","2","",""
"","html-keyboard-response","25","54551","0.0-25.0","36PW28KO40I66UUNYO0QZN3S56WEA4","AKVDY8OXNMQED","3BA7SXOG1JCFAQ8JWUVADK0SNZTR8T","","null","<img src=""img/food2.png"" style=""width:200px;border:14px solid red;"">","null","","","","","","","","","",""
"","image-keyboard-response","26","54711","0.0-26.0","36PW28KO40I66UUNYO0QZN3S56WEA4","AKVDY8OXNMQED","3BA7SXOG1JCFAQ8JWUVADK0SNZTR8T","","158.89999997615814","img/food5.png","75","159.69999992847443","2","0","1","1","1,0.7,0,1,0.7,0,0.7,0,1","0.7,0,1,0.7,0,1,0,1,0.7","2","",""
"","html-keyboard-response","27","55014","0.0-27.0","36PW28KO40I66UUNYO0QZN3S56WEA4","AKVDY8OXNMQED","3BA7SXOG1JCFAQ8JWUVADK0SNZTR8T","","null","<img src=""img/food5.png"" style=""width:200px;border:14px solid red;"">","null","","","","","","","","","",""
"","image-keyboard-response","28","55164","0.0-28.0","36PW28KO40I66UUNYO0QZN3S56WEA4","AKVDY8OXNMQED","3BA7SXOG1JCFAQ8JWUVADK0SNZTR8T","","149.29999995231628","img/food6.png","76","149.89999997615814","3","1","2","1","1,0.7,0,1,0.7,0,0.7,0,1","0.7,0,1,0.7,0,1,0,1,0.7","2","",""
"","html-keyboard-response","29","55467","0.0-29.0","36PW28KO40I66UUNYO0QZN3S56WEA4","AKVDY8OXNMQED","3BA7SXOG1JCFAQ8JWUVADK0SNZTR8T","","null","<img src=""img/food6.png"" style=""width:200px; border:14px solid green;"">","null","","","","","","","","","",""
"","image-keyboard-response","30","55662","0.0-30.0","36PW28KO40I66UUNYO0QZN3S56WEA4","AKVDY8OXNMQED","3BA7SXOG1JCFAQ8JWUVADK0SNZTR8T","","193.39999997615814","img/food5.png","74","194.60000002384186","1","1","1","1","1,0.7,0,1,0.7,0,0.7,0,1","0.7,0,1,0.7,0,1,0,1,0.7","2","",""
"","html-keyboard-response","31","55965","0.0-31.0","36PW28KO40I66UUNYO0QZN3S56WEA4","AKVDY8OXNMQED","3BA7SXOG1JCFAQ8JWUVADK0SNZTR8T","","null","<img src=""img/food5.png"" style=""width:200px; border:14px solid green;"">","null","","","","","","","","","",""
"","image-keyboard-response","32","56251","0.0-32.0","36PW28KO40I66UUNYO0QZN3S56WEA4","AKVDY8OXNMQED","3BA7SXOG1JCFAQ8JWUVADK0SNZTR8T","","284.39999997615814","img/food5.png","74","285.5","1","1","1","1","1,0.7,0,1,0.7,0,0.7,0,1","0.7,0,1,0.7,0,1,0,1,0.7","2","",""
"","html-keyboard-response","33","56557","0.0-33.0","36PW28KO40I66UUNYO0QZN3S56WEA4","AKVDY8OXNMQED","3BA7SXOG1JCFAQ8JWUVADK0SNZTR8T","","null","<img src=""img/food5.png"" style=""width:200px; border:14px solid green;"">","null","","","","","","","","","",""
"","image-keyboard-response","34","56715","0.0-34.0","36PW28KO40I66UUNYO0QZN3S56WEA4","AKVDY8OXNMQED","3BA7SXOG1JCFAQ8JWUVADK0SNZTR8T","","156","img/food6.png","75","157.09999990463257","2","0","2","1","1,0.7,0,1,0.7,0,0.7,0,1","0.7,0,1,0.7,0,1,0,1,0.7","2","",""
"","html-keyboard-response","35","57021","0.0-35.0","36PW28KO40I66UUNYO0QZN3S56WEA4","AKVDY8OXNMQED","3BA7SXOG1JCFAQ8JWUVADK0SNZTR8T","","null","<img src=""img/food6.png"" style=""width:200px;border:14px solid red;"">","null","","","","","","","","","",""
"","image-keyboard-response","36","57203","0.0-36.0","36PW28KO40I66UUNYO0QZN3S56WEA4","AKVDY8OXNMQED","3BA7SXOG1JCFAQ8JWUVADK0SNZTR8T","","180.89999997615814","img/food6.png","76","181.29999995231628","3","1","2","1","1,0.7,0,1,0.7,0,0.7,0,1","0.7,0,1,0.7,0,1,0,1,0.7","2","",""
"","html-keyboard-response","37","57508","0.0-37.0","36PW28KO40I66UUNYO0QZN3S56WEA4","AKVDY8OXNMQED","3BA7SXOG1JCFAQ8JWUVADK0SNZTR8T","","null","<img src=""img/food6.png"" style=""width:200px; border:14px solid green;"">","null","","","","","","","","","",""
"","image-keyboard-response","38","57676","0.0-38.0","36PW28KO40I66UUNYO0QZN3S56WEA4","AKVDY8OXNMQED","3BA7SXOG1JCFAQ8JWUVADK0SNZTR8T","","167.29999995231628","img/food5.png","76","167.89999997615814","3","1","1","1","1,0.7,0,1,0.7,0,0.7,0,1","0.7,0,1,0.7,0,1,0,1,0.7","2","",""
"","html-keyboard-response","39","57980","0.0-39.0","36PW28KO40I66UUNYO0QZN3S56WEA4","AKVDY8OXNMQED","3BA7SXOG1JCFAQ8JWUVADK0SNZTR8T","","null","<img src=""img/food5.png"" style=""width:200px; border:14px solid green;"">","null","","","","","","","","","",""
"","image-keyboard-response","40","58278","0.0-40.0","36PW28KO40I66UUNYO0QZN3S56WEA4","AKVDY8OXNMQED","3BA7SXOG1JCFAQ8JWUVADK0SNZTR8T","","296.60000002384186","img/food6.png","74","297.40000009536743","1","1","2","1","1,0.7,0,1,0.7,0,0.7,0,1","0.7,0,1,0.7,0,1,0,1,0.7","2","",""
"","html-keyboard-response","41","58580","0.0-41.0","36PW28KO40I66UUNYO0QZN3S56WEA4","AKVDY8OXNMQED","3BA7SXOG1JCFAQ8JWUVADK0SNZTR8T","","null","<img src=""img/food6.png"" style=""width:200px; border:14px solid green;"">","null","","","","","","","","","",""
"","image-keyboard-response","42","58645","0.0-42.0","36PW28KO40I66UUNYO0QZN3S56WEA4","AKVDY8OXNMQED","3BA7SXOG1JCFAQ8JWUVADK0SNZTR8T","","63.300000071525574","img/food2.png","75","64.5","2","1","3","1","1,0.7,0,1,0.7,0,0.7,0,1","0.7,0,1,0.7,0,1,0,1,0.7","2","",""
"","html-keyboard-response","43","58947","0.0-43.0","36PW28KO40I66UUNYO0QZN3S56WEA4","AKVDY8OXNMQED","3BA7SXOG1JCFAQ8JWUVADK0SNZTR8T","","null","<img src=""img/food2.png"" style=""width:200px; border:14px solid green;"">","null","","","","","","","","","",""
"","image-keyboard-response","44","59326","0.0-44.0","36PW28KO40I66UUNYO0QZN3S56WEA4","AKVDY8OXNMQED","3BA7SXOG1JCFAQ8JWUVADK0SNZTR8T","","377.60000002384186","img/food2.png","74","378.7000000476837","1","0","3","1","1,0.7,0,1,0.7,0,0.7,0,1","0.7,0,1,0.7,0,1,0,1,0.7","2","",""
"","html-keyboard-response","45","59629","0.0-45.0","36PW28KO40I66UUNYO0QZN3S56WEA4","AKVDY8OXNMQED","3BA7SXOG1JCFAQ8JWUVADK0SNZTR8T","","null","<img src=""img/food2.png"" style=""width:200px;border:14px solid red;"">","null","","","","","","","","","",""
"","image-keyboard-response","46","59658","0.0-46.0","36PW28KO40I66UUNYO0QZN3S56WEA4","AKVDY8OXNMQED","3BA7SXOG1JCFAQ8JWUVADK0SNZTR8T","","27.899999976158142","img/food5.png","75","28.699999928474426","2","0","1","1","1,0.7,0,1,0.7,0,0.7,0,1","0.7,0,1,0.7,0,1,0,1,0.7","2","",""
"","html-keyboard-response","47","59964","0.0-47.0","36PW28KO40I66UUNYO0QZN3S56WEA4","AKVDY8OXNMQED","3BA7SXOG1JCFAQ8JWUVADK0SNZTR8T","","null","<img src=""img/food5.png"" style=""width:200px;border:14px solid red;"">","null","","","","","","","","","",""
"","image-keyboard-response","48","60296","0.0-48.0","36PW28KO40I66UUNYO0QZN3S56WEA4","AKVDY8OXNMQED","3BA7SXOG1JCFAQ8JWUVADK0SNZTR8T","","331.89999997615814","img/food2.png","74","332.60000002384186","1","0","3","1","1,0.7,0,1,0.7,0,0.7,0,1","0.7,0,1,0.7,0,1,0,1,0.7","2","",""
"","html-keyboard-response","49","60601","0.0-49.0","36PW28KO40I66UUNYO0QZN3S56WEA4","AKVDY8OXNMQED","3BA7SXOG1JCFAQ8JWUVADK0SNZTR8T","","null","<img src=""img/food2.png"" style=""width:200px;border:14px solid red;"">","null","","","","","","","","","",""
"","image-keyboard-response","50","60666","0.0-50.0","36PW28KO40I66UUNYO0QZN3S56WEA4","AKVDY8OXNMQED","3BA7SXOG1JCFAQ8JWUVADK0SNZTR8T","","64.10000002384186","img/food6.png","75","64.79999995231628","2","0","2","1","1,0.7,0,1,0.7,0,0.7,0,1","0.7,0,1,0.7,0,1,0,1,0.7","2","",""
"","html-keyboard-response","51","60971","0.0-51.0","36PW28KO40I66UUNYO0QZN3S56WEA4","AKVDY8OXNMQED","3BA7SXOG1JCFAQ8JWUVADK0SNZTR8T","","null","<img src=""img/food6.png"" style=""width:200px;border:14px solid red;"">","null","","","","","","","","","",""
"","image-keyboard-response","52","61761","0.0-52.0","36PW28KO40I66UUNYO0QZN3S56WEA4","AKVDY8OXNMQED","3BA7SXOG1JCFAQ8JWUVADK0SNZTR8T","","789.2000000476837","img/food2.png","76","790.2999999523163","3","0","3","1","1,0.7,0,1,0.7,0,0.7,0,1","0.7,0,1,0.7,0,1,0,1,0.7","2","",""
"","html-keyboard-response","53","62067","0.0-53.0","36PW28KO40I66UUNYO0QZN3S56WEA4","AKVDY8OXNMQED","3BA7SXOG1JCFAQ8JWUVADK0SNZTR8T","","null","<img src=""img/food2.png"" style=""width:200px;border:14px solid red;"">","null","","","","","","","","","",""
"","image-keyboard-response","54","62272","0.0-54.0","36PW28KO40I66UUNYO0QZN3S56WEA4","AKVDY8OXNMQED","3BA7SXOG1JCFAQ8JWUVADK0SNZTR8T","","203.80000007152557","img/food6.png","74","204.89999997615814","1","0","2","1","1,0.7,0,1,0.7,0,0.7,0,1","0.7,0,1,0.7,0,1,0,1,0.7","2","",""
"","html-keyboard-response","55","62575","0.0-55.0","36PW28KO40I66UUNYO0QZN3S56WEA4","AKVDY8OXNMQED","3BA7SXOG1JCFAQ8JWUVADK0SNZTR8T","","null","<img src=""img/food6.png"" style=""width:200px;border:14px solid red;"">","null","","","","","","","","","",""
"","image-keyboard-response","56","62598","0.0-56.0","36PW28KO40I66UUNYO0QZN3S56WEA4","AKVDY8OXNMQED","3BA7SXOG1JCFAQ8JWUVADK0SNZTR8T","","22.100000023841858","img/food6.png","75","23.299999952316284","2","0","2","1","1,0.7,0,1,0.7,0,0.7,0,1","0.7,0,1,0.7,0,1,0,1,0.7","2","",""
"","html-keyboard-response","57","62904","0.0-57.0","36PW28KO40I66UUNYO0QZN3S56WEA4","AKVDY8OXNMQED","3BA7SXOG1JCFAQ8JWUVADK0SNZTR8T","","null","<img src=""img/food6.png"" style=""width:200px;border:14px solid red;"">","null","","","","","","","","","",""
"","image-keyboard-response","58","62932","0.0-58.0","36PW28KO40I66UUNYO0QZN3S56WEA4","AKVDY8OXNMQED","3BA7SXOG1JCFAQ8JWUVADK0SNZTR8T","","27.300000071525574","img/food6.png","76","28.100000023841858","3","1","2","1","1,0.7,0,1,0.7,0,0.7,0,1","0.7,0,1,0.7,0,1,0,1,0.7","2","",""
"","html-keyboard-response","59","63236","0.0-59.0","36PW28KO40I66UUNYO0QZN3S56WEA4","AKVDY8OXNMQED","3BA7SXOG1JCFAQ8JWUVADK0SNZTR8T","","null","<img src=""img/food6.png"" style=""width:200px; border:14px solid green;"">","null","","","","","","","","","",""
"","image-keyboard-response","60","63795","0.0-60.0","36PW28KO40I66UUNYO0QZN3S56WEA4","AKVDY8OXNMQED","3BA7SXOG1JCFAQ8JWUVADK0SNZTR8T","","558.5","img/food6.png","74","559.2000000476837","1","1","2","1","1,0.7,0,1,0.7,0,0.7,0,1","0.7,0,1,0.7,0,1,0,1,0.7","2","",""
"","html-keyboard-response","61","64099","0.0-61.0","36PW28KO40I66UUNYO0QZN3S56WEA4","AKVDY8OXNMQED","3BA7SXOG1JCFAQ8JWUVADK0SNZTR8T","","null","<img src=""img/food6.png"" style=""width:200px; border:14px solid green;"">","null","","","","","","","","","",""
"","image-keyboard-response","62","64179","0.0-62.0","36PW28KO40I66UUNYO0QZN3S56WEA4","AKVDY8OXNMQED","3BA7SXOG1JCFAQ8JWUVADK0SNZTR8T","","79.10000002384186","img/food2.png","75","80.20000004768372","2","1","3","1","1,0.7,0,1,0.7,0,0.7,0,1","0.7,0,1,0.7,0,1,0,1,0.7","2","",""
"","html-keyboard-response","63","64483","0.0-63.0","36PW28KO40I66UUNYO0QZN3S56WEA4","AKVDY8OXNMQED","3BA7SXOG1JCFAQ8JWUVADK0SNZTR8T","","null","<img src=""img/food2.png"" style=""width:200px; border:14px solid green;"">","null","","","","","","","","","",""
"","image-keyboard-response","64","64556","0.0-64.0","36PW28KO40I66UUNYO0QZN3S56WEA4","AKVDY8OXNMQED","3BA7SXOG1JCFAQ8JWUVADK0SNZTR8T","","71.5","img/food5.png","76","72.69999992847443","3","1","1","1","1,0.7,0,1,0.7,0,0.7,0,1","0.7,0,1,0.7,0,1,0,1,0.7","2","",""
"","html-keyboard-response","65","64867","0.0-65.0","36PW28KO40I66UUNYO0QZN3S56WEA4","AKVDY8OXNMQED","3BA7SXOG1JCFAQ8JWUVADK0SNZTR8T","","null","<img src=""img/food5.png"" style=""width:200px; border:14px solid green;"">","null","","","","","","","","","",""
"","image-keyboard-response","66","65105","0.0-66.0","36PW28KO40I66UUNYO0QZN3S56WEA4","AKVDY8OXNMQED","3BA7SXOG1JCFAQ8JWUVADK0SNZTR8T","","236.89999997615814","img/food2.png","74","237.5","1","0","3","1","1,0.7,0,1,0.7,0,0.7,0,1","0.7,0,1,0.7,0,1,0,1,0.7","2","",""
"","html-keyboard-response","67","65412","0.0-67.0","36PW28KO40I66UUNYO0QZN3S56WEA4","AKVDY8OXNMQED","3BA7SXOG1JCFAQ8JWUVADK0SNZTR8T","","null","<img src=""img/food2.png"" style=""width:200px;border:14px solid red;"">","null","","","","","","","","","",""
"","image-keyboard-response","68","65723","0.0-68.0","36PW28KO40I66UUNYO0QZN3S56WEA4","AKVDY8OXNMQED","3BA7SXOG1JCFAQ8JWUVADK0SNZTR8T","","309.60000002384186","img/food5.png","75","310.1999999284744","2","0","1","1","1,0.7,0,1,0.7,0,0.7,0,1","0.7,0,1,0.7,0,1,0,1,0.7","2","",""
"","html-keyboard-response","69","66027","0.0-69.0","36PW28KO40I66UUNYO0QZN3S56WEA4","AKVDY8OXNMQED","3BA7SXOG1JCFAQ8JWUVADK0SNZTR8T","","null","<img src=""img/food5.png"" style=""width:200px;border:14px solid red;"">","null","","","","","","","","","",""
"","image-keyboard-response","70","66377","0.0-70.0","36PW28KO40I66UUNYO0QZN3S56WEA4","AKVDY8OXNMQED","3BA7SXOG1JCFAQ8JWUVADK0SNZTR8T","","348.5","img/food6.png","76","349.60000002384186","3","1","2","1","1,0.7,0,1,0.7,0,0.7,0,1","0.7,0,1,0.7,0,1,0,1,0.7","2","",""
"","html-keyboard-response","71","66679","0.0-71.0","36PW28KO40I66UUNYO0QZN3S56WEA4","AKVDY8OXNMQED","3BA7SXOG1JCFAQ8JWUVADK0SNZTR8T","","null","<img src=""img/food6.png"" style=""width:200px; border:14px solid green;"">","null","","","","","","","","","",""
"","image-keyboard-response","72","66842","0.0-72.0","36PW28KO40I66UUNYO0QZN3S56WEA4","AKVDY8OXNMQED","3BA7SXOG1JCFAQ8JWUVADK0SNZTR8T","","162.70000004768372","img/food2.png","76","163.70000004768372","3","1","3","1","1,0.7,0,1,0.7,0,0.7,0,1","0.7,0,1,0.7,0,1,0,1,0.7","2","",""
"","html-keyboard-response","73","67149","0.0-73.0","36PW28KO40I66UUNYO0QZN3S56WEA4","AKVDY8OXNMQED","3BA7SXOG1JCFAQ8JWUVADK0SNZTR8T","","null","<img src=""img/food2.png"" style=""width:200px; border:14px solid green;"">","null","","","","","","","","","",""
"","image-keyboard-response","74","67276","0.0-74.0","36PW28KO40I66UUNYO0QZN3S56WEA4","AKVDY8OXNMQED","3BA7SXOG1JCFAQ8JWUVADK0SNZTR8T","","126.29999995231628","img/food2.png","74","126.80000007152557","1","0","3","1","1,0.7,0,1,0.7,0,0.7,0,1","0.7,0,1,0.7,0,1,0,1,0.7","2","",""
"","html-keyboard-response","75","67580","0.0-75.0","36PW28KO40I66UUNYO0QZN3S56WEA4","AKVDY8OXNMQED","3BA7SXOG1JCFAQ8JWUVADK0SNZTR8T","","null","<img src=""img/food2.png"" style=""width:200px;border:14px solid red;"">","null","","","","","","","","","",""
"","image-keyboard-response","76","67640","0.0-76.0","36PW28KO40I66UUNYO0QZN3S56WEA4","AKVDY8OXNMQED","3BA7SXOG1JCFAQ8JWUVADK0SNZTR8T","","58.199999928474426","img/food2.png","75","59","2","1","3","1","1,0.7,0,1,0.7,0,0.7,0,1","0.7,0,1,0.7,0,1,0,1,0.7","2","",""
"","html-keyboard-response","77","67942","0.0-77.0","36PW28KO40I66UUNYO0QZN3S56WEA4","AKVDY8OXNMQED","3BA7SXOG1JCFAQ8JWUVADK0SNZTR8T","","null","<img src=""img/food2.png"" style=""width:200px; border:14px solid green;"">","null","","","","","","","","","",""
"","image-keyboard-response","78","68018","0.0-78.0","36PW28KO40I66UUNYO0QZN3S56WEA4","AKVDY8OXNMQED","3BA7SXOG1JCFAQ8JWUVADK0SNZTR8T","","74.70000004768372","img/food5.png","76","75.89999997615814","3","1","1","1","1,0.7,0,1,0.7,0,0.7,0,1","0.7,0,1,0.7,0,1,0,1,0.7","2","",""
"","html-keyboard-response","79","68322","0.0-79.0","36PW28KO40I66UUNYO0QZN3S56WEA4","AKVDY8OXNMQED","3BA7SXOG1JCFAQ8JWUVADK0SNZTR8T","","null","<img src=""img/food5.png"" style=""width:200px; border:14px solid green;"">","null","","","","","","","","","",""
"","image-keyboard-response","80","68457","0.0-80.0","36PW28KO40I66UUNYO0QZN3S56WEA4","AKVDY8OXNMQED","3BA7SXOG1JCFAQ8JWUVADK0SNZTR8T","","133","img/food5.png","74","134.30000007152557","1","1","1","1","1,0.7,0,1,0.7,0,0.7,0,1","0.7,0,1,0.7,0,1,0,1,0.7","2","",""
"","html-keyboard-response","81","68759","0.0-81.0","36PW28KO40I66UUNYO0QZN3S56WEA4","AKVDY8OXNMQED","3BA7SXOG1JCFAQ8JWUVADK0SNZTR8T","","null","<img src=""img/food5.png"" style=""width:200px; border:14px solid green;"">","null","","","","","","","","","",""
"","image-keyboard-response","82","68915","0.0-82.0","36PW28KO40I66UUNYO0QZN3S56WEA4","AKVDY8OXNMQED","3BA7SXOG1JCFAQ8JWUVADK0SNZTR8T","","154.39999997615814","img/food2.png","75","155.60000002384186","2","1","3","1","1,0.7,0,1,0.7,0,0.7,0,1","0.7,0,1,0.7,0,1,0,1,0.7","2","",""
"","html-keyboard-response","83","69218","0.0-83.0","36PW28KO40I66UUNYO0QZN3S56WEA4","AKVDY8OXNMQED","3BA7SXOG1JCFAQ8JWUVADK0SNZTR8T","","null","<img src=""img/food2.png"" style=""width:200px; border:14px solid green;"">","null","","","","","","","","","",""
"","image-keyboard-response","84","69384","0.0-84.0","36PW28KO40I66UUNYO0QZN3S56WEA4","AKVDY8OXNMQED","3BA7SXOG1JCFAQ8JWUVADK0SNZTR8T","","165","img/food2.png","76","166.10000002384186","3","0","3","1","1,0.7,0,1,0.7,0,0.7,0,1","0.7,0,1,0.7,0,1,0,1,0.7","2","",""
"","html-keyboard-response","85","69688","0.0-85.0","36PW28KO40I66UUNYO0QZN3S56WEA4","AKVDY8OXNMQED","3BA7SXOG1JCFAQ8JWUVADK0SNZTR8T","","null","<img src=""img/food2.png"" style=""width:200px;border:14px solid red;"">","null","","","","","","","","","",""
"","image-keyboard-response","86","69784","0.0-86.0","36PW28KO40I66UUNYO0QZN3S56WEA4","AKVDY8OXNMQED","3BA7SXOG1JCFAQ8JWUVADK0SNZTR8T","","94.5","img/food5.png","74","95.79999995231628","1","1","1","1","1,0.7,0,1,0.7,0,0.7,0,1","0.7,0,1,0.7,0,1,0,1,0.7","2","",""
"","html-keyboard-response","87","70089","0.0-87.0","36PW28KO40I66UUNYO0QZN3S56WEA4","AKVDY8OXNMQED","3BA7SXOG1JCFAQ8JWUVADK0SNZTR8T","","null","<img src=""img/food5.png"" style=""width:200px; border:14px solid green;"">","null","","","","","","","","","",""
"","image-keyboard-response","88","70119","0.0-88.0","36PW28KO40I66UUNYO0QZN3S56WEA4","AKVDY8OXNMQED","3BA7SXOG1JCFAQ8JWUVADK0SNZTR8T","","28.600000023841858","img/food5.png","75","30.100000023841858","2","0","1","1","1,0.7,0,1,0.7,0,0.7,0,1","0.7,0,1,0.7,0,1,0,1,0.7","2","",""
"","html-keyboard-response","89","70424","0.0-89.0","36PW28KO40I66UUNYO0QZN3S56WEA4","AKVDY8OXNMQED","3BA7SXOG1JCFAQ8JWUVADK0SNZTR8T","","null","<img src=""img/food5.png"" style=""width:200px;border:14px solid red;"">","null","","","","","","","","","",""
"","image-keyboard-response","90","70493","0.0-90.0","36PW28KO40I66UUNYO0QZN3S56WEA4","AKVDY8OXNMQED","3BA7SXOG1JCFAQ8JWUVADK0SNZTR8T","","68.30000007152557","img/food2.png","76","69.10000002384186","3","0","3","1","1,0.7,0,1,0.7,0,0.7,0,1","0.7,0,1,0.7,0,1,0,1,0.7","2","",""
"","html-keyboard-response","91","70797","0.0-91.0","36PW28KO40I66UUNYO0QZN3S56WEA4","AKVDY8OXNMQED","3BA7SXOG1JCFAQ8JWUVADK0SNZTR8T","","null","<img src=""img/food2.png"" style=""width:200px;border:14px solid red;"">","null","","","","","","","","","",""
"","image-keyboard-response","92","70949","0.0-92.0","36PW28KO40I66UUNYO0QZN3S56WEA4","AKVDY8OXNMQED","3BA7SXOG1JCFAQ8JWUVADK0SNZTR8T","","151.19999992847443","img/food5.png","74","151.79999995231628","1","1","1","1","1,0.7,0,1,0.7,0,0.7,0,1","0.7,0,1,0.7,0,1,0,1,0.7","2","",""
"","html-keyboard-response","93","71253","0.0-93.0","36PW28KO40I66UUNYO0QZN3S56WEA4","AKVDY8OXNMQED","3BA7SXOG1JCFAQ8JWUVADK0SNZTR8T","","null","<img src=""img/food5.png"" style=""width:200px; border:14px solid green;"">","null","","","","","","","","","",""
"","image-keyboard-response","94","71561","0.0-94.0","36PW28KO40I66UUNYO0QZN3S56WEA4","AKVDY8OXNMQED","3BA7SXOG1JCFAQ8JWUVADK0SNZTR8T","","307","img/food5.png","76","307.89999997615814","3","1","1","1","1,0.7,0,1,0.7,0,0.7,0,1","0.7,0,1,0.7,0,1,0,1,0.7","2","",""
"","html-keyboard-response","95","71863","0.0-95.0","36PW28KO40I66UUNYO0QZN3S56WEA4","AKVDY8OXNMQED","3BA7SXOG1JCFAQ8JWUVADK0SNZTR8T","","null","<img src=""img/food5.png"" style=""width:200px; border:14px solid green;"">","null","","","","","","","","","",""
"","image-keyboard-response","96","72064","0.0-96.0","36PW28KO40I66UUNYO0QZN3S56WEA4","AKVDY8OXNMQED","3BA7SXOG1JCFAQ8JWUVADK0SNZTR8T","","200.39999997615814","img/food2.png","74","201.39999997615814","1","0","3","1","1,0.7,0,1,0.7,0,0.7,0,1","0.7,0,1,0.7,0,1,0,1,0.7","2","",""
"","html-keyboard-response","97","72370","0.0-97.0","36PW28KO40I66UUNYO0QZN3S56WEA4","AKVDY8OXNMQED","3BA7SXOG1JCFAQ8JWUVADK0SNZTR8T","","null","<img src=""img/food2.png"" style=""width:200px;border:14px solid red;"">","null","","","","","","","","","",""
"","image-keyboard-response","98","72698","0.0-98.0","36PW28KO40I66UUNYO0QZN3S56WEA4","AKVDY8OXNMQED","3BA7SXOG1JCFAQ8JWUVADK0SNZTR8T","","327","img/food5.png","76","327.60000002384186","3","1","1","1","1,0.7,0,1,0.7,0,0.7,0,1","0.7,0,1,0.7,0,1,0,1,0.7","2","",""
"","html-keyboard-response","99","73000","0.0-99.0","36PW28KO40I66UUNYO0QZN3S56WEA4","AKVDY8OXNMQED","3BA7SXOG1JCFAQ8JWUVADK0SNZTR8T","","null","<img src=""img/food5.png"" style=""width:200px; border:14px solid green;"">","null","","","","","","","","","",""
"","image-keyboard-response","100","73217","0.0-100.0","36PW28KO40I66UUNYO0QZN3S56WEA4","AKVDY8OXNMQED","3BA7SXOG1JCFAQ8JWUVADK0SNZTR8T","","215.69999992847443","img/food5.png","76","216.70000004768372","3","1","1","1","1,0.7,0,1,0.7,0,0.7,0,1","0.7,0,1,0.7,0,1,0,1,0.7","2","",""
"","html-keyboard-response","101","73522","0.0-101.0","36PW28KO40I66UUNYO0QZN3S56WEA4","AKVDY8OXNMQED","3BA7SXOG1JCFAQ8JWUVADK0SNZTR8T","","null","<img src=""img/food5.png"" style=""width:200px; border:14px solid green;"">","null","","","","","","","","","",""
"","image-keyboard-response","102","73749","0.0-102.0","36PW28KO40I66UUNYO0QZN3S56WEA4","AKVDY8OXNMQED","3BA7SXOG1JCFAQ8JWUVADK0SNZTR8T","","225.80000007152557","img/food5.png","74","226.79999995231628","1","0","1","1","1,0.7,0,1,0.7,0,0.7,0,1","0.7,0,1,0.7,0,1,0,1,0.7","2","",""
"","html-keyboard-response","103","74051","0.0-103.0","36PW28KO40I66UUNYO0QZN3S56WEA4","AKVDY8OXNMQED","3BA7SXOG1JCFAQ8JWUVADK0SNZTR8T","","null","<img src=""img/food5.png"" style=""width:200px;border:14px solid red;"">","null","","","","","","","","","",""
"","image-keyboard-response","104","74073","0.0-104.0","36PW28KO40I66UUNYO0QZN3S56WEA4","AKVDY8OXNMQED","3BA7SXOG1JCFAQ8JWUVADK0SNZTR8T","","20.600000023841858","img/food6.png","75","21.399999976158142","2","0","2","1","1,0.7,0,1,0.7,0,0.7,0,1","0.7,0,1,0.7,0,1,0,1,0.7","2","",""
"","html-keyboard-response","105","74376","0.0-105.0","36PW28KO40I66UUNYO0QZN3S56WEA4","AKVDY8OXNMQED","3BA7SXOG1JCFAQ8JWUVADK0SNZTR8T","","null","<img src=""img/food6.png"" style=""width:200px;border:14px solid red;"">","null","","","","","","","","","",""
"","image-keyboard-response","106","74782","0.0-106.0","36PW28KO40I66UUNYO0QZN3S56WEA4","AKVDY8OXNMQED","3BA7SXOG1JCFAQ8JWUVADK0SNZTR8T","","404.5","img/food6.png","76","405.60000002384186","3","1","2","1","1,0.7,0,1,0.7,0,0.7,0,1","0.7,0,1,0.7,0,1,0,1,0.7","2","",""
"","html-keyboard-response","107","75085","0.0-107.0","36PW28KO40I66UUNYO0QZN3S56WEA4","AKVDY8OXNMQED","3BA7SXOG1JCFAQ8JWUVADK0SNZTR8T","","null","<img src=""img/food6.png"" style=""width:200px; border:14px solid green;"">","null","","","","","","","","","",""
"","image-keyboard-response","108","75221","0.0-108.0","36PW28KO40I66UUNYO0QZN3S56WEA4","AKVDY8OXNMQED","3BA7SXOG1JCFAQ8JWUVADK0SNZTR8T","","135.39999997615814","img/food5.png","74","136","1","0","1","1","1,0.7,0,1,0.7,0,0.7,0,1","0.7,0,1,0.7,0,1,0,1,0.7","2","",""
"","html-keyboard-response","109","75525","0.0-109.0","36PW28KO40I66UUNYO0QZN3S56WEA4","AKVDY8OXNMQED","3BA7SXOG1JCFAQ8JWUVADK0SNZTR8T","","null","<img src=""img/food5.png"" style=""width:200px;border:14px solid red;"">","null","","","","","","","","","",""
"","image-keyboard-response","110","75912","0.0-110.0","36PW28KO40I66UUNYO0QZN3S56WEA4","AKVDY8OXNMQED","3BA7SXOG1JCFAQ8JWUVADK0SNZTR8T","","385.89999997615814","img/food2.png","76","386.5","3","1","3","1","1,0.7,0,1,0.7,0,0.7,0,1","0.7,0,1,0.7,0,1,0,1,0.7","2","",""
"","html-keyboard-response","111","76215","0.0-111.0","36PW28KO40I66UUNYO0QZN3S56WEA4","AKVDY8OXNMQED","3BA7SXOG1JCFAQ8JWUVADK0SNZTR8T","","null","<img src=""img/food2.png"" style=""width:200px; border:14px solid green;"">","null","","","","","","","","","",""
"","image-keyboard-response","112","76291","0.0-112.0","36PW28KO40I66UUNYO0QZN3S56WEA4","AKVDY8OXNMQED","3BA7SXOG1JCFAQ8JWUVADK0SNZTR8T","","75.89999997615814","img/food5.png","76","76.5","3","1","1","1","1,0.7,0,1,0.7,0,0.7,0,1","0.7,0,1,0.7,0,1,0,1,0.7","2","",""
"","html-keyboard-response","113","76595","0.0-113.0","36PW28KO40I66UUNYO0QZN3S56WEA4","AKVDY8OXNMQED","3BA7SXOG1JCFAQ8JWUVADK0SNZTR8T","","null","<img src=""img/food5.png"" style=""width:200px; border:14px solid green;"">","null","","","","","","","","","",""
"","image-keyboard-response","114","76696","0.0-114.0","36PW28KO40I66UUNYO0QZN3S56WEA4","AKVDY8OXNMQED","3BA7SXOG1JCFAQ8JWUVADK0SNZTR8T","","99.70000004768372","img/food6.png","74","101.60000002384186","1","1","2","1","1,0.7,0,1,0.7,0,0.7,0,1","0.7,0,1,0.7,0,1,0,1,0.7","2","",""
"","html-keyboard-response","115","76999","0.0-115.0","36PW28KO40I66UUNYO0QZN3S56WEA4","AKVDY8OXNMQED","3BA7SXOG1JCFAQ8JWUVADK0SNZTR8T","","null","<img src=""img/food6.png"" style=""width:200px; border:14px solid green;"">","null","","","","","","","","","",""
"","image-keyboard-response","116","77016","0.0-116.0","36PW28KO40I66UUNYO0QZN3S56WEA4","AKVDY8OXNMQED","3BA7SXOG1JCFAQ8JWUVADK0SNZTR8T","","16","img/food6.png","75","16.700000047683716","2","0","2","1","1,0.7,0,1,0.7,0,0.7,0,1","0.7,0,1,0.7,0,1,0,1,0.7","2","",""
"","html-keyboard-response","117","77318","0.0-117.0","36PW28KO40I66UUNYO0QZN3S56WEA4","AKVDY8OXNMQED","3BA7SXOG1JCFAQ8JWUVADK0SNZTR8T","","null","<img src=""img/food6.png"" style=""width:200px;border:14px solid red;"">","null","","","","","","","","","",""
"","image-keyboard-response","118","77502","0.0-118.0","36PW28KO40I66UUNYO0QZN3S56WEA4","AKVDY8OXNMQED","3BA7SXOG1JCFAQ8JWUVADK0SNZTR8T","","182.70000004768372","img/food5.png","76","183.5","3","1","1","1","1,0.7,0,1,0.7,0,0.7,0,1","0.7,0,1,0.7,0,1,0,1,0.7","2","",""
"","html-keyboard-response","119","77805","0.0-119.0","36PW28KO40I66UUNYO0QZN3S56WEA4","AKVDY8OXNMQED","3BA7SXOG1JCFAQ8JWUVADK0SNZTR8T","","null","<img src=""img/food5.png"" style=""width:200px; border:14px solid green;"">","null","","","","","","","","","",""
"","image-keyboard-response","120","77826","0.0-120.0","36PW28KO40I66UUNYO0QZN3S56WEA4","AKVDY8OXNMQED","3BA7SXOG1JCFAQ8JWUVADK0SNZTR8T","","19.600000023841858","img/food2.png","76","20.700000047683716","3","1","3","1","1,0.7,0,1,0.7,0,0.7,0,1","0.7,0,1,0.7,0,1,0,1,0.7","2","",""
"","html-keyboard-response","121","78130","0.0-121.0","36PW28KO40I66UUNYO0QZN3S56WEA4","AKVDY8OXNMQED","3BA7SXOG1JCFAQ8JWUVADK0SNZTR8T","","null","<img src=""img/food2.png"" style=""width:200px; border:14px solid green;"">","null","","","","","","","","","",""
"","image-keyboard-response","122","78301","0.0-122.0","36PW28KO40I66UUNYO0QZN3S56WEA4","AKVDY8OXNMQED","3BA7SXOG1JCFAQ8JWUVADK0SNZTR8T","","170.10000002384186","img/food2.png","74","170.80000007152557","1","0","3","1","1,0.7,0,1,0.7,0,0.7,0,1","0.7,0,1,0.7,0,1,0,1,0.7","2","",""
"","html-keyboard-response","123","78603","0.0-123.0","36PW28KO40I66UUNYO0QZN3S56WEA4","AKVDY8OXNMQED","3BA7SXOG1JCFAQ8JWUVADK0SNZTR8T","","null","<img src=""img/food2.png"" style=""width:200px;border:14px solid red;"">","null","","","","","","","","","",""
"","image-keyboard-response","124","78612","0.0-124.0","36PW28KO40I66UUNYO0QZN3S56WEA4","AKVDY8OXNMQED","3BA7SXOG1JCFAQ8JWUVADK0SNZTR8T","","7.799999952316284","img/food6.png","75","8.800000071525574","2","0","2","1","1,0.7,0,1,0.7,0,0.7,0,1","0.7,0,1,0.7,0,1,0,1,0.7","2","",""
"","html-keyboard-response","125","78915","0.0-125.0","36PW28KO40I66UUNYO0QZN3S56WEA4","AKVDY8OXNMQED","3BA7SXOG1JCFAQ8JWUVADK0SNZTR8T","","null","<img src=""img/food6.png"" style=""width:200px;border:14px solid red;"">","null","","","","","","","","","",""
"","image-keyboard-response","126","79173","0.0-126.0","36PW28KO40I66UUNYO0QZN3S56WEA4","AKVDY8OXNMQED","3BA7SXOG1JCFAQ8JWUVADK0SNZTR8T","","256.60000002384186","img/food2.png","76","257.89999997615814","3","0","3","1","1,0.7,0,1,0.7,0,0.7,0,1","0.7,0,1,0.7,0,1,0,1,0.7","2","",""
"","html-keyboard-response","127","79476","0.0-127.0","36PW28KO40I66UUNYO0QZN3S56WEA4","AKVDY8OXNMQED","3BA7SXOG1JCFAQ8JWUVADK0SNZTR8T","","null","<img src=""img/food2.png"" style=""width:200px;border:14px solid red;"">","null","","","","","","","","","",""
"","image-keyboard-response","128","79883","0.0-128.0","36PW28KO40I66UUNYO0QZN3S56WEA4","AKVDY8OXNMQED","3BA7SXOG1JCFAQ8JWUVADK0SNZTR8T","","405.6999999284744","img/food5.png","74","406.89999997615814","1","1","1","1","1,0.7,0,1,0.7,0,0.7,0,1","0.7,0,1,0.7,0,1,0,1,0.7","2","",""
"","html-keyboard-response","129","80188","0.0-129.0","36PW28KO40I66UUNYO0QZN3S56WEA4","AKVDY8OXNMQED","3BA7SXOG1JCFAQ8JWUVADK0SNZTR8T","","null","<img src=""img/food5.png"" style=""width:200px; border:14px solid green;"">","null","","","","","","","","","",""
"","image-keyboard-response","130","80274","0.0-130.0","36PW28KO40I66UUNYO0QZN3S56WEA4","AKVDY8OXNMQED","3BA7SXOG1JCFAQ8JWUVADK0SNZTR8T","","84.60000002384186","img/food6.png","75","86","2","0","2","1","1,0.7,0,1,0.7,0,0.7,0,1","0.7,0,1,0.7,0,1,0,1,0.7","2","",""
"","html-keyboard-response","131","80578","0.0-131.0","36PW28KO40I66UUNYO0QZN3S56WEA4","AKVDY8OXNMQED","3BA7SXOG1JCFAQ8JWUVADK0SNZTR8T","","null","<img src=""img/food6.png"" style=""width:200px;border:14px solid red;"">","null","","","","","","","","","",""
"","image-keyboard-response","132","80581","0.0-132.0","36PW28KO40I66UUNYO0QZN3S56WEA4","AKVDY8OXNMQED","3BA7SXOG1JCFAQ8JWUVADK0SNZTR8T","","1.399999976158142","img/food5.png","76","2.200000047683716","3","1","1","1","1,0.7,0,1,0.7,0,0.7,0,1","0.7,0,1,0.7,0,1,0,1,0.7","2","",""
"","html-keyboard-response","133","80887","0.0-133.0","36PW28KO40I66UUNYO0QZN3S56WEA4","AKVDY8OXNMQED","3BA7SXOG1JCFAQ8JWUVADK0SNZTR8T","","null","<img src=""img/food5.png"" style=""width:200px; border:14px solid green;"">","null","","","","","","","","","",""
"","image-keyboard-response","134","80939","0.0-134.0","36PW28KO40I66UUNYO0QZN3S56WEA4","AKVDY8OXNMQED","3BA7SXOG1JCFAQ8JWUVADK0SNZTR8T","","50.60000002384186","img/food5.png","74","51.60000002384186","1","0","1","1","1,0.7,0,1,0.7,0,0.7,0,1","0.7,0,1,0.7,0,1,0,1,0.7","2","",""
"","html-keyboard-response","135","81242","0.0-135.0","36PW28KO40I66UUNYO0QZN3S56WEA4","AKVDY8OXNMQED","3BA7SXOG1JCFAQ8JWUVADK0SNZTR8T","","null","<img src=""img/food5.png"" style=""width:200px;border:14px solid red;"">","null","","","","","","","","","",""
"","image-keyboard-response","136","81351","0.0-136.0","36PW28KO40I66UUNYO0QZN3S56WEA4","AKVDY8OXNMQED","3BA7SXOG1JCFAQ8JWUVADK0SNZTR8T","","108.79999995231628","img/food6.png","74","109.60000002384186","1","0","2","1","1,0.7,0,1,0.7,0,0.7,0,1","0.7,0,1,0.7,0,1,0,1,0.7","2","",""
"","html-keyboard-response","137","81656","0.0-137.0","36PW28KO40I66UUNYO0QZN3S56WEA4","AKVDY8OXNMQED","3BA7SXOG1JCFAQ8JWUVADK0SNZTR8T","","null","<img src=""img/food6.png"" style=""width:200px;border:14px solid red;"">","null","","","","","","","","","",""
"","image-keyboard-response","138","81682","0.0-138.0","36PW28KO40I66UUNYO0QZN3S56WEA4","AKVDY8OXNMQED","3BA7SXOG1JCFAQ8JWUVADK0SNZTR8T","","24.799999952316284","img/food6.png","75","25.899999976158142","2","0","2","1","1,0.7,0,1,0.7,0,0.7,0,1","0.7,0,1,0.7,0,1,0,1,0.7","2","",""
"","html-keyboard-response","139","81986","0.0-139.0","36PW28KO40I66UUNYO0QZN3S56WEA4","AKVDY8OXNMQED","3BA7SXOG1JCFAQ8JWUVADK0SNZTR8T","","null","<img src=""img/food6.png"" style=""width:200px;border:14px solid red;"">","null","","","","","","","","","",""
"","image-keyboard-response","140","82029","0.0-140.0","36PW28KO40I66UUNYO0QZN3S56WEA4","AKVDY8OXNMQED","3BA7SXOG1JCFAQ8JWUVADK0SNZTR8T","","42.39999997615814","img/food6.png","76","43","3","1","2","1","1,0.7,0,1,0.7,0,0.7,0,1","0.7,0,1,0.7,0,1,0,1,0.7","2","",""
"","html-keyboard-response","141","82332","0.0-141.0","36PW28KO40I66UUNYO0QZN3S56WEA4","AKVDY8OXNMQED","3BA7SXOG1JCFAQ8JWUVADK0SNZTR8T","","null","<img src=""img/food6.png"" style=""width:200px; border:14px solid green;"">","null","","","","","","","","","",""
"","image-keyboard-response","142","82750","0.0-142.0","36PW28KO40I66UUNYO0QZN3S56WEA4","AKVDY8OXNMQED","3BA7SXOG1JCFAQ8JWUVADK0SNZTR8T","","417.59999990463257","img/food6.png","76","418.2000000476837","3","1","2","1","1,0.7,0,1,0.7,0,0.7,0,1","0.7,0,1,0.7,0,1,0,1,0.7","2","",""
"","html-keyboard-response","143","83053","0.0-143.0","36PW28KO40I66UUNYO0QZN3S56WEA4","AKVDY8OXNMQED","3BA7SXOG1JCFAQ8JWUVADK0SNZTR8T","","null","<img src=""img/food6.png"" style=""width:200px; border:14px solid green;"">","null","","","","","","","","","",""
"","image-keyboard-response","144","83438","0.0-144.0","36PW28KO40I66UUNYO0QZN3S56WEA4","AKVDY8OXNMQED","3BA7SXOG1JCFAQ8JWUVADK0SNZTR8T","","384","img/food2.png","74","385","1","0","3","1","1,0.7,0,1,0.7,0,0.7,0,1","0.7,0,1,0.7,0,1,0,1,0.7","2","",""
"","html-keyboard-response","145","83741","0.0-145.0","36PW28KO40I66UUNYO0QZN3S56WEA4","AKVDY8OXNMQED","3BA7SXOG1JCFAQ8JWUVADK0SNZTR8T","","null","<img src=""img/food2.png"" style=""width:200px;border:14px solid red;"">","null","","","","","","","","","",""
"","image-keyboard-response","146","84214","0.0-146.0","36PW28KO40I66UUNYO0QZN3S56WEA4","AKVDY8OXNMQED","3BA7SXOG1JCFAQ8JWUVADK0SNZTR8T","","471.60000002384186","img/food5.png","75","472.59999990463257","2","0","1","1","1,0.7,0,1,0.7,0,0.7,0,1","0.7,0,1,0.7,0,1,0,1,0.7","2","",""
"","html-keyboard-response","147","84519","0.0-147.0","36PW28KO40I66UUNYO0QZN3S56WEA4","AKVDY8OXNMQED","3BA7SXOG1JCFAQ8JWUVADK0SNZTR8T","","null","<img src=""img/food5.png"" style=""width:200px;border:14px solid red;"">","null","","","","","","","","","",""
"","image-keyboard-response","148","84596","0.0-148.0","36PW28KO40I66UUNYO0QZN3S56WEA4","AKVDY8OXNMQED","3BA7SXOG1JCFAQ8JWUVADK0SNZTR8T","","76.79999995231628","img/food6.png","76","77.39999997615814","3","1","2","1","1,0.7,0,1,0.7,0,0.7,0,1","0.7,0,1,0.7,0,1,0,1,0.7","2","",""
"","html-keyboard-response","149","84899","0.0-149.0","36PW28KO40I66UUNYO0QZN3S56WEA4","AKVDY8OXNMQED","3BA7SXOG1JCFAQ8JWUVADK0SNZTR8T","","null","<img src=""img/food6.png"" style=""width:200px; border:14px solid green;"">","null","","","","","","","","","",""
"","image-keyboard-response","150","85066","0.0-150.0","36PW28KO40I66UUNYO0QZN3S56WEA4","AKVDY8OXNMQED","3BA7SXOG1JCFAQ8JWUVADK0SNZTR8T","","166","img/food6.png","74","167.20000004768372","1","0","2","1","1,0.7,0,1,0.7,0,0.7,0,1","0.7,0,1,0.7,0,1,0,1,0.7","2","",""
"","html-keyboard-response","151","85373","0.0-151.0","36PW28KO40I66UUNYO0QZN3S56WEA4","AKVDY8OXNMQED","3BA7SXOG1JCFAQ8JWUVADK0SNZTR8T","","null","<img src=""img/food6.png"" style=""width:200px;border:14px solid red;"">","null","","","","","","","","","",""
"","image-keyboard-response","152","85406","0.0-152.0","36PW28KO40I66UUNYO0QZN3S56WEA4","AKVDY8OXNMQED","3BA7SXOG1JCFAQ8JWUVADK0SNZTR8T","","31.59999990463257","img/food2.png","76","32.800000071525574","3","0","3","1","1,0.7,0,1,0.7,0,0.7,0,1","0.7,0,1,0.7,0,1,0,1,0.7","2","",""
"","html-keyboard-response","153","85709","0.0-153.0","36PW28KO40I66UUNYO0QZN3S56WEA4","AKVDY8OXNMQED","3BA7SXOG1JCFAQ8JWUVADK0SNZTR8T","","null","<img src=""img/food2.png"" style=""width:200px;border:14px solid red;"">","null","","","","","","","","","",""
"","image-keyboard-response","154","85982","0.0-154.0","36PW28KO40I66UUNYO0QZN3S56WEA4","AKVDY8OXNMQED","3BA7SXOG1JCFAQ8JWUVADK0SNZTR8T","","271.5","img/food2.png","76","272.6999999284744","3","1","3","1","1,0.7,0,1,0.7,0,0.7,0,1","0.7,0,1,0.7,0,1,0,1,0.7","2","",""
"","html-keyboard-response","155","86290","0.0-155.0","36PW28KO40I66UUNYO0QZN3S56WEA4","AKVDY8OXNMQED","3BA7SXOG1JCFAQ8JWUVADK0SNZTR8T","","null","<img src=""img/food2.png"" style=""width:200px; border:14px solid green;"">","null","","","","","","","","","",""
"","image-keyboard-response","156","86752","0.0-156.0","36PW28KO40I66UUNYO0QZN3S56WEA4","AKVDY8OXNMQED","3BA7SXOG1JCFAQ8JWUVADK0SNZTR8T","","461","img/food6.png","76","462.10000002384186","3","1","2","1","1,0.7,0,1,0.7,0,0.7,0,1","0.7,0,1,0.7,0,1,0,1,0.7","2","",""
"","html-keyboard-response","157","87054","0.0-157.0","36PW28KO40I66UUNYO0QZN3S56WEA4","AKVDY8OXNMQED","3BA7SXOG1JCFAQ8JWUVADK0SNZTR8T","","null","<img src=""img/food6.png"" style=""width:200px; border:14px solid green;"">","null","","","","","","","","","",""
"","image-keyboard-response","158","87862","0.0-158.0","36PW28KO40I66UUNYO0QZN3S56WEA4","AKVDY8OXNMQED","3BA7SXOG1JCFAQ8JWUVADK0SNZTR8T","","806.7999999523163","img/food2.png","76","807.5","3","1","3","1","1,0.7,0,1,0.7,0,0.7,0,1","0.7,0,1,0.7,0,1,0,1,0.7","2","",""
"","html-keyboard-response","159","88168","0.0-159.0","36PW28KO40I66UUNYO0QZN3S56WEA4","AKVDY8OXNMQED","3BA7SXOG1JCFAQ8JWUVADK0SNZTR8T","","null","<img src=""img/food2.png"" style=""width:200px; border:14px solid green;"">","null","","","","","","","","","",""
"","image-keyboard-response","160","88674","0.0-160.0","36PW28KO40I66UUNYO0QZN3S56WEA4","AKVDY8OXNMQED","3BA7SXOG1JCFAQ8JWUVADK0SNZTR8T","","504.6999999284744","img/food2.png","76","505.40000009536743","3","1","3","1","1,0.7,0,1,0.7,0,0.7,0,1","0.7,0,1,0.7,0,1,0,1,0.7","2","",""
"","html-keyboard-response","161","88978","0.0-161.0","36PW28KO40I66UUNYO0QZN3S56WEA4","AKVDY8OXNMQED","3BA7SXOG1JCFAQ8JWUVADK0SNZTR8T","","null","<img src=""img/food2.png"" style=""width:200px; border:14px solid green;"">","null","","","","","","","","","",""
"","image-keyboard-response","162","89420","0.0-162.0","36PW28KO40I66UUNYO0QZN3S56WEA4","AKVDY8OXNMQED","3BA7SXOG1JCFAQ8JWUVADK0SNZTR8T","","440.7999999523163","img/food6.png","76","442","3","1","2","1","1,0.7,0,1,0.7,0,0.7,0,1","0.7,0,1,0.7,0,1,0,1,0.7","2","",""
"","html-keyboard-response","163","89724","0.0-163.0","36PW28KO40I66UUNYO0QZN3S56WEA4","AKVDY8OXNMQED","3BA7SXOG1JCFAQ8JWUVADK0SNZTR8T","","null","<img src=""img/food6.png"" style=""width:200px; border:14px solid green;"">","null","","","","","","","","","",""
"","image-keyboard-response","164","90115","0.0-164.0","36PW28KO40I66UUNYO0QZN3S56WEA4","AKVDY8OXNMQED","3BA7SXOG1JCFAQ8JWUVADK0SNZTR8T","","388.60000002384186","img/food2.png","76","389.60000002384186","3","1","3","1","1,0.7,0,1,0.7,0,0.7,0,1","0.7,0,1,0.7,0,1,0,1,0.7","2","",""
"","html-keyboard-response","165","90419","0.0-165.0","36PW28KO40I66UUNYO0QZN3S56WEA4","AKVDY8OXNMQED","3BA7SXOG1JCFAQ8JWUVADK0SNZTR8T","","null","<img src=""img/food2.png"" style=""width:200px; border:14px solid green;"">","null","","","","","","","","","",""
"","image-keyboard-response","166","90748","0.0-166.0","36PW28KO40I66UUNYO0QZN3S56WEA4","AKVDY8OXNMQED","3BA7SXOG1JCFAQ8JWUVADK0SNZTR8T","","328.5","img/food5.png","76","329.3000000715256","3","1","1","1","1,0.7,0,1,0.7,0,0.7,0,1","0.7,0,1,0.7,0,1,0,1,0.7","2","",""
"","html-keyboard-response","167","91052","0.0-167.0","36PW28KO40I66UUNYO0QZN3S56WEA4","AKVDY8OXNMQED","3BA7SXOG1JCFAQ8JWUVADK0SNZTR8T","","null","<img src=""img/food5.png"" style=""width:200px; border:14px solid green;"">","null","","","","","","","","","",""
"","image-keyboard-response","168","91485","0.0-168.0","36PW28KO40I66UUNYO0QZN3S56WEA4","AKVDY8OXNMQED","3BA7SXOG1JCFAQ8JWUVADK0SNZTR8T","","432.10000002384186","img/food2.png","76","432.89999997615814","3","1","3","1","1,0.7,0,1,0.7,0,0.7,0,1","0.7,0,1,0.7,0,1,0,1,0.7","2","",""
"","html-keyboard-response","169","91789","0.0-169.0","36PW28KO40I66UUNYO0QZN3S56WEA4","AKVDY8OXNMQED","3BA7SXOG1JCFAQ8JWUVADK0SNZTR8T","","null","<img src=""img/food2.png"" style=""width:200px; border:14px solid green;"">","null","","","","","","","","","",""
"","image-keyboard-response","170","92210","0.0-170.0","36PW28KO40I66UUNYO0QZN3S56WEA4","AKVDY8OXNMQED","3BA7SXOG1JCFAQ8JWUVADK0SNZTR8T","","419","img/food2.png","76","420.2000000476837","3","0","3","1","1,0.7,0,1,0.7,0,0.7,0,1","0.7,0,1,0.7,0,1,0,1,0.7","2","",""
"","html-keyboard-response","171","92514","0.0-171.0","36PW28KO40I66UUNYO0QZN3S56WEA4","AKVDY8OXNMQED","3BA7SXOG1JCFAQ8JWUVADK0SNZTR8T","","null","<img src=""img/food2.png"" style=""width:200px;border:14px solid red;"">","null","","","","","","","","","",""
"","image-keyboard-response","172","92990","0.0-172.0","36PW28KO40I66UUNYO0QZN3S56WEA4","AKVDY8OXNMQED","3BA7SXOG1JCFAQ8JWUVADK0SNZTR8T","","473.89999997615814","img/food5.png","74","475","1","0","1","1","1,0.7,0,1,0.7,0,0.7,0,1","0.7,0,1,0.7,0,1,0,1,0.7","2","",""
"","html-keyboard-response","173","93292","0.0-173.0","36PW28KO40I66UUNYO0QZN3S56WEA4","AKVDY8OXNMQED","3BA7SXOG1JCFAQ8JWUVADK0SNZTR8T","","null","<img src=""img/food5.png"" style=""width:200px;border:14px solid red;"">","null","","","","","","","","","",""
"","image-keyboard-response","174","93424","0.0-174.0","36PW28KO40I66UUNYO0QZN3S56WEA4","AKVDY8OXNMQED","3BA7SXOG1JCFAQ8JWUVADK0SNZTR8T","","130.89999997615814","img/food5.png","75","131.5","2","0","1","1","1,0.7,0,1,0.7,0,0.7,0,1","0.7,0,1,0.7,0,1,0,1,0.7","2","",""
"","html-keyboard-response","175","93725","0.0-175.0","36PW28KO40I66UUNYO0QZN3S56WEA4","AKVDY8OXNMQED","3BA7SXOG1JCFAQ8JWUVADK0SNZTR8T","","null","<img src=""img/food5.png"" style=""width:200px;border:14px solid red;"">","null","","","","","","","","","",""
"","image-keyboard-response","176","93895","0.0-176.0","36PW28KO40I66UUNYO0QZN3S56WEA4","AKVDY8OXNMQED","3BA7SXOG1JCFAQ8JWUVADK0SNZTR8T","","167.70000004768372","img/food5.png","76","169","3","1","1","1","1,0.7,0,1,0.7,0,0.7,0,1","0.7,0,1,0.7,0,1,0,1,0.7","2","",""
"","html-keyboard-response","177","94200","0.0-177.0","36PW28KO40I66UUNYO0QZN3S56WEA4","AKVDY8OXNMQED","3BA7SXOG1JCFAQ8JWUVADK0SNZTR8T","","null","<img src=""img/food5.png"" style=""width:200px; border:14px solid green;"">","null","","","","","","","","","",""
"","image-keyboard-response","178","94474","0.0-178.0","36PW28KO40I66UUNYO0QZN3S56WEA4","AKVDY8OXNMQED","3BA7SXOG1JCFAQ8JWUVADK0SNZTR8T","","272.5","img/food2.png","76","273.10000002384186","3","1","3","1","1,0.7,0,1,0.7,0,0.7,0,1","0.7,0,1,0.7,0,1,0,1,0.7","2","",""
"","html-keyboard-response","179","94775","0.0-179.0","36PW28KO40I66UUNYO0QZN3S56WEA4","AKVDY8OXNMQED","3BA7SXOG1JCFAQ8JWUVADK0SNZTR8T","","null","<img src=""img/food2.png"" style=""width:200px; border:14px solid green;"">","null","","","","","","","","","",""
"","image-keyboard-response","180","95182","0.0-180.0","36PW28KO40I66UUNYO0QZN3S56WEA4","AKVDY8OXNMQED","3BA7SXOG1JCFAQ8JWUVADK0SNZTR8T","","406.5","img/food5.png","76","407.2999999523163","3","1","1","1","1,0.7,0,1,0.7,0,0.7,0,1","0.7,0,1,0.7,0,1,0,1,0.7","2","",""
"","html-keyboard-response","181","95487","0.0-181.0","36PW28KO40I66UUNYO0QZN3S56WEA4","AKVDY8OXNMQED","3BA7SXOG1JCFAQ8JWUVADK0SNZTR8T","","null","<img src=""img/food5.png"" style=""width:200px; border:14px solid green;"">","null","","","","","","","","","",""
"","html-keyboard-response","182","99571","0.0-182.0","36PW28KO40I66UUNYO0QZN3S56WEA4","AKVDY8OXNMQED","3BA7SXOG1JCFAQ8JWUVADK0SNZTR8T","","","","","","","","","","","","","",""
"","instructions","183","107700","0.0-183.0","36PW28KO40I66UUNYO0QZN3S56WEA4","AKVDY8OXNMQED","3BA7SXOG1JCFAQ8JWUVADK0SNZTR8T","[{""page_index"":0,""viewing_time"":6734.200000047684},{""page_index"":1,""viewing_time"":1393.7000000476837}]","8128.300000071526","","","","","","","","","","","",""
"","image-keyboard-response","184","108391","0.0-184.0","36PW28KO40I66UUNYO0QZN3S56WEA4","AKVDY8OXNMQED","3BA7SXOG1JCFAQ8JWUVADK0SNZTR8T","","689.6000000238419","img/food1.png","74","691.2999999523163","1","1","2","2","1,0.7,0,1,0.7,0,0.7,0,1","0.7,0,1,0.7,0,1,0,1,0.7","2","false",""
"","html-keyboard-response","185","108695","0.0-185.0","36PW28KO40I66UUNYO0QZN3S56WEA4","AKVDY8OXNMQED","3BA7SXOG1JCFAQ8JWUVADK0SNZTR8T","","null","<img src=""img/food1.png"" style=""width:200px; border:14px solid green;"">","null","","","","","","","","","",""
"","image-keyboard-response","186","108956","0.0-187.0","36PW28KO40I66UUNYO0QZN3S56WEA4","AKVDY8OXNMQED","3BA7SXOG1JCFAQ8JWUVADK0SNZTR8T","","259.10000002384186","img/food1.png","75","260.39999997615814","2","0","2","2","1,0.7,0,1,0.7,0,0.7,0,1","0.7,0,1,0.7,0,1,0,1,0.7","2","false",""
"","html-keyboard-response","187","109261","0.0-188.0","36PW28KO40I66UUNYO0QZN3S56WEA4","AKVDY8OXNMQED","3BA7SXOG1JCFAQ8JWUVADK0SNZTR8T","","null","<img src=""img/food1.png"" style=""width:200px;border:14px solid red;"">","null","","","","","","","","","",""
"","image-keyboard-response","188","109428","0.0-190.0","36PW28KO40I66UUNYO0QZN3S56WEA4","AKVDY8OXNMQED","3BA7SXOG1JCFAQ8JWUVADK0SNZTR8T","","165.39999997615814","img/food4.png","76","166.60000002384186","3","1","3","2","1,0.7,0,1,0.7,0,0.7,0,1","0.7,0,1,0.7,0,1,0,1,0.7","2","false",""
"","html-keyboard-response","189","109730","0.0-191.0","36PW28KO40I66UUNYO0QZN3S56WEA4","AKVDY8OXNMQED","3BA7SXOG1JCFAQ8JWUVADK0SNZTR8T","","null","<img src=""img/food4.png"" style=""width:200px; border:14px solid green;"">","null","","","","","","","","","",""
"","image-keyboard-response","190","109979","0.0-193.0","36PW28KO40I66UUNYO0QZN3S56WEA4","AKVDY8OXNMQED","3BA7SXOG1JCFAQ8JWUVADK0SNZTR8T","","246.10000002384186","img/food3.png","74","247.19999992847443","1","1","1","2","1,0.7,0,1,0.7,0,0.7,0,1","0.7,0,1,0.7,0,1,0,1,0.7","2","false",""
"","html-keyboard-response","191","110282","0.0-194.0","36PW28KO40I66UUNYO0QZN3S56WEA4","AKVDY8OXNMQED","3BA7SXOG1JCFAQ8JWUVADK0SNZTR8T","","null","<img src=""img/food3.png"" style=""width:200px; border:14px solid green;"">","null","","","","","","","","","",""
"","image-keyboard-response","192","110510","0.0-196.0","36PW28KO40I66UUNYO0QZN3S56WEA4","AKVDY8OXNMQED","3BA7SXOG1JCFAQ8JWUVADK0SNZTR8T","","226.79999995231628","img/food4.png","74","228","1","0","3","2","1,0.7,0,1,0.7,0,0.7,0,1","0.7,0,1,0.7,0,1,0,1,0.7","2","false",""
"","html-keyboard-response","193","110817","0.0-197.0","36PW28KO40I66UUNYO0QZN3S56WEA4","AKVDY8OXNMQED","3BA7SXOG1JCFAQ8JWUVADK0SNZTR8T","","null","<img src=""img/food4.png"" style=""width:200px;border:14px solid red;"">","null","","","","","","","","","",""
"","image-keyboard-response","194","111380","0.0-199.0","36PW28KO40I66UUNYO0QZN3S56WEA4","AKVDY8OXNMQED","3BA7SXOG1JCFAQ8JWUVADK0SNZTR8T","","562","img/food1.png","75","562.6999999284744","2","0","2","2","1,0.7,0,1,0.7,0,0.7,0,1","0.7,0,1,0.7,0,1,0,1,0.7","2","false",""
"","html-keyboard-response","195","111682","0.0-200.0","36PW28KO40I66UUNYO0QZN3S56WEA4","AKVDY8OXNMQED","3BA7SXOG1JCFAQ8JWUVADK0SNZTR8T","","null","<img src=""img/food1.png"" style=""width:200px;border:14px solid red;"">","null","","","","","","","","","",""
"","image-keyboard-response","196","111834","0.0-202.0","36PW28KO40I66UUNYO0QZN3S56WEA4","AKVDY8OXNMQED","3BA7SXOG1JCFAQ8JWUVADK0SNZTR8T","","150.89999997615814","img/food1.png","76","151.59999990463257","3","1","2","2","1,0.7,0,1,0.7,0,0.7,0,1","0.7,0,1,0.7,0,1,0,1,0.7","2","false",""
"","html-keyboard-response","197","112136","0.0-203.0","36PW28KO40I66UUNYO0QZN3S56WEA4","AKVDY8OXNMQED","3BA7SXOG1JCFAQ8JWUVADK0SNZTR8T","","null","<img src=""img/food1.png"" style=""width:200px; border:14px solid green;"">","null","","","","","","","","","",""
"","image-keyboard-response","198","112439","0.0-205.0","36PW28KO40I66UUNYO0QZN3S56WEA4","AKVDY8OXNMQED","3BA7SXOG1JCFAQ8JWUVADK0SNZTR8T","","301.7000000476837","img/food4.png","74","302.89999997615814","1","0","3","2","1,0.7,0,1,0.7,0,0.7,0,1","0.7,0,1,0.7,0,1,0,1,0.7","2","false",""
"","html-keyboard-response","199","112744","0.0-206.0","36PW28KO40I66UUNYO0QZN3S56WEA4","AKVDY8OXNMQED","3BA7SXOG1JCFAQ8JWUVADK0SNZTR8T","","null","<img src=""img/food4.png"" style=""width:200px;border:14px solid red;"">","null","","","","","","","","","",""
"","image-keyboard-response","200","112800","0.0-208.0","36PW28KO40I66UUNYO0QZN3S56WEA4","AKVDY8OXNMQED","3BA7SXOG1JCFAQ8JWUVADK0SNZTR8T","","55.199999928474426","img/food3.png","75","55.89999997615814","2","0","1","2","1,0.7,0,1,0.7,0,0.7,0,1","0.7,0,1,0.7,0,1,0,1,0.7","2","false",""
"","html-keyboard-response","201","113105","0.0-209.0","36PW28KO40I66UUNYO0QZN3S56WEA4","AKVDY8OXNMQED","3BA7SXOG1JCFAQ8JWUVADK0SNZTR8T","","null","<img src=""img/food3.png"" style=""width:200px;border:14px solid red;"">","null","","","","","","","","","",""
"","image-keyboard-response","202","113170","0.0-211.0","36PW28KO40I66UUNYO0QZN3S56WEA4","AKVDY8OXNMQED","3BA7SXOG1JCFAQ8JWUVADK0SNZTR8T","","64.10000002384186","img/food3.png","76","65","3","1","1","2","1,0.7,0,1,0.7,0,0.7,0,1","0.7,0,1,0.7,0,1,0,1,0.7","2","false",""
"","html-keyboard-response","203","113475","0.0-212.0","36PW28KO40I66UUNYO0QZN3S56WEA4","AKVDY8OXNMQED","3BA7SXOG1JCFAQ8JWUVADK0SNZTR8T","","null","<img src=""img/food3.png"" style=""width:200px; border:14px solid green;"">","null","","","","","","","","","",""
"","image-keyboard-response","204","113602","0.0-214.0","36PW28KO40I66UUNYO0QZN3S56WEA4","AKVDY8OXNMQED","3BA7SXOG1JCFAQ8JWUVADK0SNZTR8T","","126","img/food1.png","76","127.20000004768372","3","1","2","2","1,0.7,0,1,0.7,0,0.7,0,1","0.7,0,1,0.7,0,1,0,1,0.7","2","false",""
"","html-keyboard-response","205","113908","0.0-215.0","36PW28KO40I66UUNYO0QZN3S56WEA4","AKVDY8OXNMQED","3BA7SXOG1JCFAQ8JWUVADK0SNZTR8T","","null","<img src=""img/food1.png"" style=""width:200px; border:14px solid green;"">","null","","","","","","","","","",""
"","image-keyboard-response","206","114003","0.0-217.0","36PW28KO40I66UUNYO0QZN3S56WEA4","AKVDY8OXNMQED","3BA7SXOG1JCFAQ8JWUVADK0SNZTR8T","","94","img/food4.png","75","94.60000002384186","2","1","3","2","1,0.7,0,1,0.7,0,0.7,0,1","0.7,0,1,0.7,0,1,0,1,0.7","2","false",""
"","html-keyboard-response","207","114306","0.0-218.0","36PW28KO40I66UUNYO0QZN3S56WEA4","AKVDY8OXNMQED","3BA7SXOG1JCFAQ8JWUVADK0SNZTR8T","","null","<img src=""img/food4.png"" style=""width:200px; border:14px solid green;"">","null","","","","","","","","","",""
"","image-keyboard-response","208","114509","0.0-220.0","36PW28KO40I66UUNYO0QZN3S56WEA4","AKVDY8OXNMQED","3BA7SXOG1JCFAQ8JWUVADK0SNZTR8T","","201.89999997615814","img/food4.png","74","202.40000009536743","1","0","3","2","1,0.7,0,1,0.7,0,0.7,0,1","0.7,0,1,0.7,0,1,0,1,0.7","2","false",""
"","html-keyboard-response","209","114813","0.0-221.0","36PW28KO40I66UUNYO0QZN3S56WEA4","AKVDY8OXNMQED","3BA7SXOG1JCFAQ8JWUVADK0SNZTR8T","","null","<img src=""img/food4.png"" style=""width:200px;border:14px solid red;"">","null","","","","","","","","","",""
"","image-keyboard-response","210","114978","0.0-223.0","36PW28KO40I66UUNYO0QZN3S56WEA4","AKVDY8OXNMQED","3BA7SXOG1JCFAQ8JWUVADK0SNZTR8T","","163.29999995231628","img/food3.png","74","164.80000007152557","1","1","1","2","1,0.7,0,1,0.7,0,0.7,0,1","0.7,0,1,0.7,0,1,0,1,0.7","2","false",""
"","html-keyboard-response","211","115283","0.0-224.0","36PW28KO40I66UUNYO0QZN3S56WEA4","AKVDY8OXNMQED","3BA7SXOG1JCFAQ8JWUVADK0SNZTR8T","","null","<img src=""img/food3.png"" style=""width:200px; border:14px solid green;"">","null","","","","","","","","","",""
"","image-keyboard-response","212","115379","0.0-226.0","36PW28KO40I66UUNYO0QZN3S56WEA4","AKVDY8OXNMQED","3BA7SXOG1JCFAQ8JWUVADK0SNZTR8T","","94.79999995231628","img/food3.png","75","95.90000009536743","2","0","1","2","1,0.7,0,1,0.7,0,0.7,0,1","0.7,0,1,0.7,0,1,0,1,0.7","2","false",""
"","html-keyboard-response","213","115683","0.0-227.0","36PW28KO40I66UUNYO0QZN3S56WEA4","AKVDY8OXNMQED","3BA7SXOG1JCFAQ8JWUVADK0SNZTR8T","","null","<img src=""img/food3.png"" style=""width:200px;border:14px solid red;"">","null","","","","","","","","","",""
"","image-keyboard-response","214","115762","0.0-229.0","36PW28KO40I66UUNYO0QZN3S56WEA4","AKVDY8OXNMQED","3BA7SXOG1JCFAQ8JWUVADK0SNZTR8T","","78.39999997615814","img/food1.png","75","79","2","0","2","2","1,0.7,0,1,0.7,0,0.7,0,1","0.7,0,1,0.7,0,1,0,1,0.7","2","false",""
"","html-keyboard-response","215","116069","0.0-230.0","36PW28KO40I66UUNYO0QZN3S56WEA4","AKVDY8OXNMQED","3BA7SXOG1JCFAQ8JWUVADK0SNZTR8T","","null","<img src=""img/food1.png"" style=""width:200px;border:14px solid red;"">","null","","","","","","","","","",""
"","image-keyboard-response","216","116207","0.0-232.0","36PW28KO40I66UUNYO0QZN3S56WEA4","AKVDY8OXNMQED","3BA7SXOG1JCFAQ8JWUVADK0SNZTR8T","","137","img/food3.png","76","138.09999990463257","3","1","1","2","1,0.7,0,1,0.7,0,0.7,0,1","0.7,0,1,0.7,0,1,0,1,0.7","2","false",""
"","html-keyboard-response","217","116509","0.0-233.0","36PW28KO40I66UUNYO0QZN3S56WEA4","AKVDY8OXNMQED","3BA7SXOG1JCFAQ8JWUVADK0SNZTR8T","","null","<img src=""img/food3.png"" style=""width:200px; border:14px solid green;"">","null","","","","","","","","","",""
"","image-keyboard-response","218","116547","0.0-235.0","36PW28KO40I66UUNYO0QZN3S56WEA4","AKVDY8OXNMQED","3BA7SXOG1JCFAQ8JWUVADK0SNZTR8T","","36.39999997615814","img/food4.png","76","37.40000009536743","3","0","3","2","1,0.7,0,1,0.7,0,0.7,0,1","0.7,0,1,0.7,0,1,0,1,0.7","2","false",""
"","html-keyboard-response","219","116850","0.0-236.0","36PW28KO40I66UUNYO0QZN3S56WEA4","AKVDY8OXNMQED","3BA7SXOG1JCFAQ8JWUVADK0SNZTR8T","","null","<img src=""img/food4.png"" style=""width:200px;border:14px solid red;"">","null","","","","","","","","","",""
"","image-keyboard-response","220","117218","0.0-238.0","36PW28KO40I66UUNYO0QZN3S56WEA4","AKVDY8OXNMQED","3BA7SXOG1JCFAQ8JWUVADK0SNZTR8T","","367.10000002384186","img/food4.png","76","367.6999999284744","3","0","3","2","1,0.7,0,1,0.7,0,0.7,0,1","0.7,0,1,0.7,0,1,0,1,0.7","2","false",""
"","html-keyboard-response","221","117520","0.0-239.0","36PW28KO40I66UUNYO0QZN3S56WEA4","AKVDY8OXNMQED","3BA7SXOG1JCFAQ8JWUVADK0SNZTR8T","","null","<img src=""img/food4.png"" style=""width:200px;border:14px solid red;"">","null","","","","","","","","","",""
"","image-keyboard-response","222","117909","0.0-241.0","36PW28KO40I66UUNYO0QZN3S56WEA4","AKVDY8OXNMQED","3BA7SXOG1JCFAQ8JWUVADK0SNZTR8T","","388.09999990463257","img/food1.png","75","388.8000000715256","2","0","2","2","1,0.7,0,1,0.7,0,0.7,0,1","0.7,0,1,0.7,0,1,0,1,0.7","2","false",""
"","html-keyboard-response","223","118212","0.0-242.0","36PW28KO40I66UUNYO0QZN3S56WEA4","AKVDY8OXNMQED","3BA7SXOG1JCFAQ8JWUVADK0SNZTR8T","","null","<img src=""img/food1.png"" style=""width:200px;border:14px solid red;"">","null","","","","","","","","","",""
"","image-keyboard-response","224","118431","0.0-244.0","36PW28KO40I66UUNYO0QZN3S56WEA4","AKVDY8OXNMQED","3BA7SXOG1JCFAQ8JWUVADK0SNZTR8T","","218","img/food4.png","74","218.89999997615814","1","0","3","2","1,0.7,0,1,0.7,0,0.7,0,1","0.7,0,1,0.7,0,1,0,1,0.7","2","false",""
"","html-keyboard-response","225","118735","0.0-245.0","36PW28KO40I66UUNYO0QZN3S56WEA4","AKVDY8OXNMQED","3BA7SXOG1JCFAQ8JWUVADK0SNZTR8T","","null","<img src=""img/food4.png"" style=""width:200px;border:14px solid red;"">","null","","","","","","","","","",""
"","image-keyboard-response","226","118903","0.0-247.0","36PW28KO40I66UUNYO0QZN3S56WEA4","AKVDY8OXNMQED","3BA7SXOG1JCFAQ8JWUVADK0SNZTR8T","","165.5","img/food3.png","74","166.69999992847443","1","0","1","2","1,0.7,0,1,0.7,0,0.7,0,1","0.7,0,1,0.7,0,1,0,1,0.7","2","false",""
"","html-keyboard-response","227","119208","0.0-248.0","36PW28KO40I66UUNYO0QZN3S56WEA4","AKVDY8OXNMQED","3BA7SXOG1JCFAQ8JWUVADK0SNZTR8T","","null","<img src=""img/food3.png"" style=""width:200px;border:14px solid red;"">","null","","","","","","","","","",""
"","image-keyboard-response","228","119231","0.0-250.0","36PW28KO40I66UUNYO0QZN3S56WEA4","AKVDY8OXNMQED","3BA7SXOG1JCFAQ8JWUVADK0SNZTR8T","","21.399999976158142","img/food1.png","75","22.399999976158142","2","0","2","2","1,0.7,0,1,0.7,0,0.7,0,1","0.7,0,1,0.7,0,1,0,1,0.7","2","false",""
"","html-keyboard-response","229","119533","0.0-251.0","36PW28KO40I66UUNYO0QZN3S56WEA4","AKVDY8OXNMQED","3BA7SXOG1JCFAQ8JWUVADK0SNZTR8T","","null","<img src=""img/food1.png"" style=""width:200px;border:14px solid red;"">","null","","","","","","","","","",""
"","image-keyboard-response","230","119612","0.0-253.0","36PW28KO40I66UUNYO0QZN3S56WEA4","AKVDY8OXNMQED","3BA7SXOG1JCFAQ8JWUVADK0SNZTR8T","","76.80000007152557","img/food4.png","76","77.79999995231628","3","1","3","2","1,0.7,0,1,0.7,0,0.7,0,1","0.7,0,1,0.7,0,1,0,1,0.7","2","false",""
"","html-keyboard-response","231","119917","0.0-254.0","36PW28KO40I66UUNYO0QZN3S56WEA4","AKVDY8OXNMQED","3BA7SXOG1JCFAQ8JWUVADK0SNZTR8T","","null","<img src=""img/food4.png"" style=""width:200px; border:14px solid green;"">","null","","","","","","","","","",""
"","image-keyboard-response","232","119990","0.0-256.0","36PW28KO40I66UUNYO0QZN3S56WEA4","AKVDY8OXNMQED","3BA7SXOG1JCFAQ8JWUVADK0SNZTR8T","","71.79999995231628","img/food4.png","76","72.30000007152557","3","1","3","2","1,0.7,0,1,0.7,0,0.7,0,1","0.7,0,1,0.7,0,1,0,1,0.7","2","false",""
"","html-keyboard-response","233","120296","0.0-257.0","36PW28KO40I66UUNYO0QZN3S56WEA4","AKVDY8OXNMQED","3BA7SXOG1JCFAQ8JWUVADK0SNZTR8T","","null","<img src=""img/food4.png"" style=""width:200px; border:14px solid green;"">","null","","","","","","","","","",""
"","image-keyboard-response","234","120383","0.0-259.0","36PW28KO40I66UUNYO0QZN3S56WEA4","AKVDY8OXNMQED","3BA7SXOG1JCFAQ8JWUVADK0SNZTR8T","","86.5","img/food1.png","75","87.20000004768372","2","0","2","2","1,0.7,0,1,0.7,0,0.7,0,1","0.7,0,1,0.7,0,1,0,1,0.7","2","false",""
"","html-keyboard-response","235","120685","0.0-260.0","36PW28KO40I66UUNYO0QZN3S56WEA4","AKVDY8OXNMQED","3BA7SXOG1JCFAQ8JWUVADK0SNZTR8T","","null","<img src=""img/food1.png"" style=""width:200px;border:14px solid red;"">","null","","","","","","","","","",""
"","image-keyboard-response","236","120818","0.0-262.0","36PW28KO40I66UUNYO0QZN3S56WEA4","AKVDY8OXNMQED","3BA7SXOG1JCFAQ8JWUVADK0SNZTR8T","","132.5","img/food4.png","76","133.10000002384186","3","0","3","2","1,0.7,0,1,0.7,0,0.7,0,1","0.7,0,1,0.7,0,1,0,1,0.7","2","false",""
"","html-keyboard-response","237","121123","0.0-263.0","36PW28KO40I66UUNYO0QZN3S56WEA4","AKVDY8OXNMQED","3BA7SXOG1JCFAQ8JWUVADK0SNZTR8T","","null","<img src=""img/food4.png"" style=""width:200px;border:14px solid red;"">","null","","","","","","","","","",""
"","image-keyboard-response","238","121280","0.0-265.0","36PW28KO40I66UUNYO0QZN3S56WEA4","AKVDY8OXNMQED","3BA7SXOG1JCFAQ8JWUVADK0SNZTR8T","","155.60000002384186","img/food3.png","76","156.5","3","1","1","2","1,0.7,0,1,0.7,0,0.7,0,1","0.7,0,1,0.7,0,1,0,1,0.7","2","false",""
"","html-keyboard-response","239","121586","0.0-266.0","36PW28KO40I66UUNYO0QZN3S56WEA4","AKVDY8OXNMQED","3BA7SXOG1JCFAQ8JWUVADK0SNZTR8T","","null","<img src=""img/food3.png"" style=""width:200px; border:14px solid green;"">","null","","","","","","","","","",""
"","image-keyboard-response","240","121673","0.0-268.0","36PW28KO40I66UUNYO0QZN3S56WEA4","AKVDY8OXNMQED","3BA7SXOG1JCFAQ8JWUVADK0SNZTR8T","","85.5","img/food4.png","75","86.40000009536743","2","1","3","2","1,0.7,0,1,0.7,0,0.7,0,1","0.7,0,1,0.7,0,1,0,1,0.7","2","false",""
"","html-keyboard-response","241","121979","0.0-269.0","36PW28KO40I66UUNYO0QZN3S56WEA4","AKVDY8OXNMQED","3BA7SXOG1JCFAQ8JWUVADK0SNZTR8T","","null","<img src=""img/food4.png"" style=""width:200px; border:14px solid green;"">","null","","","","","","","","","",""
"","image-keyboard-response","242","122129","0.0-271.0","36PW28KO40I66UUNYO0QZN3S56WEA4","AKVDY8OXNMQED","3BA7SXOG1JCFAQ8JWUVADK0SNZTR8T","","148.39999997615814","img/food1.png","74","149.39999997615814","1","1","2","2","1,0.7,0,1,0.7,0,0.7,0,1","0.7,0,1,0.7,0,1,0,1,0.7","2","false",""
"","html-keyboard-response","243","122435","0.0-272.0","36PW28KO40I66UUNYO0QZN3S56WEA4","AKVDY8OXNMQED","3BA7SXOG1JCFAQ8JWUVADK0SNZTR8T","","null","<img src=""img/food1.png"" style=""width:200px; border:14px solid green;"">","null","","","","","","","","","",""
"","image-keyboard-response","244","122570","0.0-274.0","36PW28KO40I66UUNYO0QZN3S56WEA4","AKVDY8OXNMQED","3BA7SXOG1JCFAQ8JWUVADK0SNZTR8T","","133.5","img/food4.png","75","134.70000004768372","2","1","3","2","1,0.7,0,1,0.7,0,0.7,0,1","0.7,0,1,0.7,0,1,0,1,0.7","2","false",""
"","html-keyboard-response","245","122877","0.0-275.0","36PW28KO40I66UUNYO0QZN3S56WEA4","AKVDY8OXNMQED","3BA7SXOG1JCFAQ8JWUVADK0SNZTR8T","","null","<img src=""img/food4.png"" style=""width:200px; border:14px solid green;"">","null","","","","","","","","","",""
"","image-keyboard-response","246","123029","0.0-277.0","36PW28KO40I66UUNYO0QZN3S56WEA4","AKVDY8OXNMQED","3BA7SXOG1JCFAQ8JWUVADK0SNZTR8T","","150.5","img/food4.png","76","151.5","3","1","3","2","1,0.7,0,1,0.7,0,0.7,0,1","0.7,0,1,0.7,0,1,0,1,0.7","2","false",""
"","html-keyboard-response","247","123332","0.0-278.0","36PW28KO40I66UUNYO0QZN3S56WEA4","AKVDY8OXNMQED","3BA7SXOG1JCFAQ8JWUVADK0SNZTR8T","","null","<img src=""img/food4.png"" style=""width:200px; border:14px solid green;"">","null","","","","","","","","","",""
"","image-keyboard-response","248","123621","0.0-280.0","36PW28KO40I66UUNYO0QZN3S56WEA4","AKVDY8OXNMQED","3BA7SXOG1JCFAQ8JWUVADK0SNZTR8T","","287.60000002384186","img/food3.png","76","288.2999999523163","3","1","1","2","1,0.7,0,1,0.7,0,0.7,0,1","0.7,0,1,0.7,0,1,0,1,0.7","2","false",""
"","html-keyboard-response","249","123923","0.0-281.0","36PW28KO40I66UUNYO0QZN3S56WEA4","AKVDY8OXNMQED","3BA7SXOG1JCFAQ8JWUVADK0SNZTR8T","","null","<img src=""img/food3.png"" style=""width:200px; border:14px solid green;"">","null","","","","","","","","","",""
"","image-keyboard-response","250","124013","0.0-283.0","36PW28KO40I66UUNYO0QZN3S56WEA4","AKVDY8OXNMQED","3BA7SXOG1JCFAQ8JWUVADK0SNZTR8T","","88.29999995231628","img/food4.png","75","89.5","2","1","3","2","1,0.7,0,1,0.7,0,0.7,0,1","0.7,0,1,0.7,0,1,0,1,0.7","2","false",""
"","html-keyboard-response","251","124318","0.0-284.0","36PW28KO40I66UUNYO0QZN3S56WEA4","AKVDY8OXNMQED","3BA7SXOG1JCFAQ8JWUVADK0SNZTR8T","","null","<img src=""img/food4.png"" style=""width:200px; border:14px solid green;"">","null","","","","","","","","","",""
"","image-keyboard-response","252","124498","0.0-286.0","36PW28KO40I66UUNYO0QZN3S56WEA4","AKVDY8OXNMQED","3BA7SXOG1JCFAQ8JWUVADK0SNZTR8T","","178.19999992847443","img/food3.png","76","179.20000004768372","3","1","1","2","1,0.7,0,1,0.7,0,0.7,0,1","0.7,0,1,0.7,0,1,0,1,0.7","2","false",""
"","html-keyboard-response","253","124803","0.0-287.0","36PW28KO40I66UUNYO0QZN3S56WEA4","AKVDY8OXNMQED","3BA7SXOG1JCFAQ8JWUVADK0SNZTR8T","","null","<img src=""img/food3.png"" style=""width:200px; border:14px solid green;"">","null","","","","","","","","","",""
"","image-keyboard-response","254","124956","0.0-289.0","36PW28KO40I66UUNYO0QZN3S56WEA4","AKVDY8OXNMQED","3BA7SXOG1JCFAQ8JWUVADK0SNZTR8T","","152","img/food1.png","75","152.70000004768372","2","0","2","2","1,0.7,0,1,0.7,0,0.7,0,1","0.7,0,1,0.7,0,1,0,1,0.7","2","false",""
"","html-keyboard-response","255","125258","0.0-290.0","36PW28KO40I66UUNYO0QZN3S56WEA4","AKVDY8OXNMQED","3BA7SXOG1JCFAQ8JWUVADK0SNZTR8T","","null","<img src=""img/food1.png"" style=""width:200px;border:14px solid red;"">","null","","","","","","","","","",""
"","image-keyboard-response","256","125443","0.0-292.0","36PW28KO40I66UUNYO0QZN3S56WEA4","AKVDY8OXNMQED","3BA7SXOG1JCFAQ8JWUVADK0SNZTR8T","","183.20000004768372","img/food1.png","74","184.29999995231628","1","1","2","2","1,0.7,0,1,0.7,0,0.7,0,1","0.7,0,1,0.7,0,1,0,1,0.7","2","false",""
"","html-keyboard-response","257","125746","0.0-293.0","36PW28KO40I66UUNYO0QZN3S56WEA4","AKVDY8OXNMQED","3BA7SXOG1JCFAQ8JWUVADK0SNZTR8T","","null","<img src=""img/food1.png"" style=""width:200px; border:14px solid green;"">","null","","","","","","","","","",""
"","image-keyboard-response","258","125822","0.0-295.0","36PW28KO40I66UUNYO0QZN3S56WEA4","AKVDY8OXNMQED","3BA7SXOG1JCFAQ8JWUVADK0SNZTR8T","","76","img/food4.png","75","76.80000007152557","2","1","3","2","1,0.7,0,1,0.7,0,0.7,0,1","0.7,0,1,0.7,0,1,0,1,0.7","2","false",""
"","html-keyboard-response","259","126127","0.0-296.0","36PW28KO40I66UUNYO0QZN3S56WEA4","AKVDY8OXNMQED","3BA7SXOG1JCFAQ8JWUVADK0SNZTR8T","","null","<img src=""img/food4.png"" style=""width:200px; border:14px solid green;"">","null","","","","","","","","","",""
"","image-keyboard-response","260","126128","0.0-298.0","36PW28KO40I66UUNYO0QZN3S56WEA4","AKVDY8OXNMQED","3BA7SXOG1JCFAQ8JWUVADK0SNZTR8T","","0.5","img/food4.png","76","0.8999999761581421","3","1","3","2","1,0.7,0,1,0.7,0,0.7,0,1","0.7,0,1,0.7,0,1,0,1,0.7","2","false",""
"","html-keyboard-response","261","126432","0.0-299.0","36PW28KO40I66UUNYO0QZN3S56WEA4","AKVDY8OXNMQED","3BA7SXOG1JCFAQ8JWUVADK0SNZTR8T","","null","<img src=""img/food4.png"" style=""width:200px; border:14px solid green;"">","null","","","","","","","","","",""
"","image-keyboard-response","262","126846","0.0-301.0","36PW28KO40I66UUNYO0QZN3S56WEA4","AKVDY8OXNMQED","3BA7SXOG1JCFAQ8JWUVADK0SNZTR8T","","413.1999999284744","img/food3.png","74","414","1","1","1","2","1,0.7,0,1,0.7,0,0.7,0,1","0.7,0,1,0.7,0,1,0,1,0.7","2","false",""
"","html-keyboard-response","263","127149","0.0-302.0","36PW28KO40I66UUNYO0QZN3S56WEA4","AKVDY8OXNMQED","3BA7SXOG1JCFAQ8JWUVADK0SNZTR8T","","null","<img src=""img/food3.png"" style=""width:200px; border:14px solid green;"">","null","","","","","","","","","",""
"","image-keyboard-response","264","127182","0.0-304.0","36PW28KO40I66UUNYO0QZN3S56WEA4","AKVDY8OXNMQED","3BA7SXOG1JCFAQ8JWUVADK0SNZTR8T","","31","img/food1.png","75","32","2","0","2","2","1,0.7,0,1,0.7,0,0.7,0,1","0.7,0,1,0.7,0,1,0,1,0.7","2","false",""
"","html-keyboard-response","265","127485","0.0-305.0","36PW28KO40I66UUNYO0QZN3S56WEA4","AKVDY8OXNMQED","3BA7SXOG1JCFAQ8JWUVADK0SNZTR8T","","null","<img src=""img/food1.png"" style=""width:200px;border:14px solid red;"">","null","","","","","","","","","",""
"","image-keyboard-response","266","127550","0.0-307.0","36PW28KO40I66UUNYO0QZN3S56WEA4","AKVDY8OXNMQED","3BA7SXOG1JCFAQ8JWUVADK0SNZTR8T","","63.59999990463257","img/food3.png","74","64.60000002384186","1","1","1","2","1,0.7,0,1,0.7,0,0.7,0,1","0.7,0,1,0.7,0,1,0,1,0.7","2","false",""
"","html-keyboard-response","267","127858","0.0-308.0","36PW28KO40I66UUNYO0QZN3S56WEA4","AKVDY8OXNMQED","3BA7SXOG1JCFAQ8JWUVADK0SNZTR8T","","null","<img src=""img/food3.png"" style=""width:200px; border:14px solid green;"">","null","","","","","","","","","",""
"","image-keyboard-response","268","128113","0.0-310.0","36PW28KO40I66UUNYO0QZN3S56WEA4","AKVDY8OXNMQED","3BA7SXOG1JCFAQ8JWUVADK0SNZTR8T","","253.59999990463257","img/food3.png","74","254.70000004768372","1","0","1","2","1,0.7,0,1,0.7,0,0.7,0,1","0.7,0,1,0.7,0,1,0,1,0.7","2","false",""
"","html-keyboard-response","269","128419","0.0-311.0","36PW28KO40I66UUNYO0QZN3S56WEA4","AKVDY8OXNMQED","3BA7SXOG1JCFAQ8JWUVADK0SNZTR8T","","null","<img src=""img/food3.png"" style=""width:200px;border:14px solid red;"">","null","","","","","","","","","",""
"","image-keyboard-response","270","128503","0.0-313.0","36PW28KO40I66UUNYO0QZN3S56WEA4","AKVDY8OXNMQED","3BA7SXOG1JCFAQ8JWUVADK0SNZTR8T","","83.20000004768372","img/food3.png","75","84.29999995231628","2","0","1","2","1,0.7,0,1,0.7,0,0.7,0,1","0.7,0,1,0.7,0,1,0,1,0.7","2","false",""
"","html-keyboard-response","271","128807","0.0-314.0","36PW28KO40I66UUNYO0QZN3S56WEA4","AKVDY8OXNMQED","3BA7SXOG1JCFAQ8JWUVADK0SNZTR8T","","null","<img src=""img/food3.png"" style=""width:200px;border:14px solid red;"">","null","","","","","","","","","",""
"","image-keyboard-response","272","128879","0.0-316.0","36PW28KO40I66UUNYO0QZN3S56WEA4","AKVDY8OXNMQED","3BA7SXOG1JCFAQ8JWUVADK0SNZTR8T","","69.70000004768372","img/food4.png","76","70.70000004768372","3","1","3","2","1,0.7,0,1,0.7,0,0.7,0,1","0.7,0,1,0.7,0,1,0,1,0.7","2","false",""
"","html-keyboard-response","273","129182","0.0-317.0","36PW28KO40I66UUNYO0QZN3S56WEA4","AKVDY8OXNMQED","3BA7SXOG1JCFAQ8JWUVADK0SNZTR8T","","null","<img src=""img/food4.png"" style=""width:200px; border:14px solid green;"">","null","","","","","","","","","",""
"","image-keyboard-response","274","129231","0.0-319.0","36PW28KO40I66UUNYO0QZN3S56WEA4","AKVDY8OXNMQED","3BA7SXOG1JCFAQ8JWUVADK0SNZTR8T","","48.300000071525574","img/food3.png","76","49","3","1","1","2","1,0.7,0,1,0.7,0,0.7,0,1","0.7,0,1,0.7,0,1,0,1,0.7","2","false",""
"","html-keyboard-response","275","129537","0.0-320.0","36PW28KO40I66UUNYO0QZN3S56WEA4","AKVDY8OXNMQED","3BA7SXOG1JCFAQ8JWUVADK0SNZTR8T","","null","<img src=""img/food3.png"" style=""width:200px; border:14px solid green;"">","null","","","","","","","","","",""
"","image-keyboard-response","276","129595","0.0-322.0","36PW28KO40I66UUNYO0QZN3S56WEA4","AKVDY8OXNMQED","3BA7SXOG1JCFAQ8JWUVADK0SNZTR8T","","57.199999928474426","img/food1.png","75","58","2","0","2","2","1,0.7,0,1,0.7,0,0.7,0,1","0.7,0,1,0.7,0,1,0,1,0.7","2","false",""
"","html-keyboard-response","277","129901","0.0-323.0","36PW28KO40I66UUNYO0QZN3S56WEA4","AKVDY8OXNMQED","3BA7SXOG1JCFAQ8JWUVADK0SNZTR8T","","null","<img src=""img/food1.png"" style=""width:200px;border:14px solid red;"">","null","","","","","","","","","",""
"","image-keyboard-response","278","130003","0.0-325.0","36PW28KO40I66UUNYO0QZN3S56WEA4","AKVDY8OXNMQED","3BA7SXOG1JCFAQ8JWUVADK0SNZTR8T","","101.80000007152557","img/food3.png","74","102.60000002384186","1","1","1","2","1,0.7,0,1,0.7,0,0.7,0,1","0.7,0,1,0.7,0,1,0,1,0.7","2","false",""
"","html-keyboard-response","279","130309","0.0-326.0","36PW28KO40I66UUNYO0QZN3S56WEA4","AKVDY8OXNMQED","3BA7SXOG1JCFAQ8JWUVADK0SNZTR8T","","null","<img src=""img/food3.png"" style=""width:200px; border:14px solid green;"">","null","","","","","","","","","",""
"","image-keyboard-response","280","130321","0.0-328.0","36PW28KO40I66UUNYO0QZN3S56WEA4","AKVDY8OXNMQED","3BA7SXOG1JCFAQ8JWUVADK0SNZTR8T","","11.400000095367432","img/food4.png","75","12.200000047683716","2","1","3","2","1,0.7,0,1,0.7,0,0.7,0,1","0.7,0,1,0.7,0,1,0,1,0.7","2","false",""
"","html-keyboard-response","281","130624","0.0-329.0","36PW28KO40I66UUNYO0QZN3S56WEA4","AKVDY8OXNMQED","3BA7SXOG1JCFAQ8JWUVADK0SNZTR8T","","null","<img src=""img/food4.png"" style=""width:200px; border:14px solid green;"">","null","","","","","","","","","",""
"","image-keyboard-response","282","130750","0.0-331.0","36PW28KO40I66UUNYO0QZN3S56WEA4","AKVDY8OXNMQED","3BA7SXOG1JCFAQ8JWUVADK0SNZTR8T","","124.29999995231628","img/food3.png","76","125.20000004768372","3","1","1","2","1,0.7,0,1,0.7,0,0.7,0,1","0.7,0,1,0.7,0,1,0,1,0.7","2","false",""
"","html-keyboard-response","283","131053","0.0-332.0","36PW28KO40I66UUNYO0QZN3S56WEA4","AKVDY8OXNMQED","3BA7SXOG1JCFAQ8JWUVADK0SNZTR8T","","null","<img src=""img/food3.png"" style=""width:200px; border:14px solid green;"">","null","","","","","","","","","",""
"","image-keyboard-response","284","131087","0.0-334.0","36PW28KO40I66UUNYO0QZN3S56WEA4","AKVDY8OXNMQED","3BA7SXOG1JCFAQ8JWUVADK0SNZTR8T","","32.10000002384186","img/food4.png","75","33.199999928474426","2","1","3","2","1,0.7,0,1,0.7,0,0.7,0,1","0.7,0,1,0.7,0,1,0,1,0.7","2","false",""
"","html-keyboard-response","285","131388","0.0-335.0","36PW28KO40I66UUNYO0QZN3S56WEA4","AKVDY8OXNMQED","3BA7SXOG1JCFAQ8JWUVADK0SNZTR8T","","null","<img src=""img/food4.png"" style=""width:200px; border:14px solid green;"">","null","","","","","","","","","",""
"","image-keyboard-response","286","131702","0.0-337.0","36PW28KO40I66UUNYO0QZN3S56WEA4","AKVDY8OXNMQED","3BA7SXOG1JCFAQ8JWUVADK0SNZTR8T","","312.5","img/food1.png","74","313.2999999523163","1","1","2","2","1,0.7,0,1,0.7,0,0.7,0,1","0.7,0,1,0.7,0,1,0,1,0.7","2","false",""
"","html-keyboard-response","287","132004","0.0-338.0","36PW28KO40I66UUNYO0QZN3S56WEA4","AKVDY8OXNMQED","3BA7SXOG1JCFAQ8JWUVADK0SNZTR8T","","null","<img src=""img/food1.png"" style=""width:200px; border:14px solid green;"">","null","","","","","","","","","",""
"","image-keyboard-response","288","132367","0.0-340.0","36PW28KO40I66UUNYO0QZN3S56WEA4","AKVDY8OXNMQED","3BA7SXOG1JCFAQ8JWUVADK0SNZTR8T","","362.39999997615814","img/food4.png","76","363.2000000476837","3","1","3","2","1,0.7,0,1,0.7,0,0.7,0,1","0.7,0,1,0.7,0,1,0,1,0.7","2","false",""
"","html-keyboard-response","289","132673","0.0-341.0","36PW28KO40I66UUNYO0QZN3S56WEA4","AKVDY8OXNMQED","3BA7SXOG1JCFAQ8JWUVADK0SNZTR8T","","null","<img src=""img/food4.png"" style=""width:200px; border:14px solid green;"">","null","","","","","","","","","",""
"","image-keyboard-response","290","132844","0.0-343.0","36PW28KO40I66UUNYO0QZN3S56WEA4","AKVDY8OXNMQED","3BA7SXOG1JCFAQ8JWUVADK0SNZTR8T","","168.89999997615814","img/food3.png","76","170.09999990463257","3","1","1","2","1,0.7,0,1,0.7,0,0.7,0,1","0.7,0,1,0.7,0,1,0,1,0.7","2","false",""
"","html-keyboard-response","291","133149","0.0-344.0","36PW28KO40I66UUNYO0QZN3S56WEA4","AKVDY8OXNMQED","3BA7SXOG1JCFAQ8JWUVADK0SNZTR8T","","null","<img src=""img/food3.png"" style=""width:200px; border:14px solid green;"">","null","","","","","","","","","",""
"","image-keyboard-response","292","133339","0.0-346.0","36PW28KO40I66UUNYO0QZN3S56WEA4","AKVDY8OXNMQED","3BA7SXOG1JCFAQ8JWUVADK0SNZTR8T","","188.79999995231628","img/food1.png","76","189.89999997615814","3","1","2","2","1,0.7,0,1,0.7,0,0.7,0,1","0.7,0,1,0.7,0,1,0,1,0.7","2","false",""
"","html-keyboard-response","293","133645","0.0-347.0","36PW28KO40I66UUNYO0QZN3S56WEA4","AKVDY8OXNMQED","3BA7SXOG1JCFAQ8JWUVADK0SNZTR8T","","null","<img src=""img/food1.png"" style=""width:200px; border:14px solid green;"">","null","","","","","","","","","",""
"","image-keyboard-response","294","133758","0.0-349.0","36PW28KO40I66UUNYO0QZN3S56WEA4","AKVDY8OXNMQED","3BA7SXOG1JCFAQ8JWUVADK0SNZTR8T","","111.19999992847443","img/food3.png","76","112.10000002384186","3","1","1","2","1,0.7,0,1,0.7,0,0.7,0,1","0.7,0,1,0.7,0,1,0,1,0.7","2","false",""
"","html-keyboard-response","295","134061","0.0-350.0","36PW28KO40I66UUNYO0QZN3S56WEA4","AKVDY8OXNMQED","3BA7SXOG1JCFAQ8JWUVADK0SNZTR8T","","null","<img src=""img/food3.png"" style=""width:200px; border:14px solid green;"">","null","","","","","","","","","",""
"","image-keyboard-response","296","134127","0.0-352.0","36PW28KO40I66UUNYO0QZN3S56WEA4","AKVDY8OXNMQED","3BA7SXOG1JCFAQ8JWUVADK0SNZTR8T","","64.5","img/food3.png","76","65.79999995231628","3","1","1","2","1,0.7,0,1,0.7,0,0.7,0,1","0.7,0,1,0.7,0,1,0,1,0.7","2","false",""
"","html-keyboard-response","297","134429","0.0-353.0","36PW28KO40I66UUNYO0QZN3S56WEA4","AKVDY8OXNMQED","3BA7SXOG1JCFAQ8JWUVADK0SNZTR8T","","null","<img src=""img/food3.png"" style=""width:200px; border:14px solid green;"">","null","","","","","","","","","",""
"","image-keyboard-response","298","134489","0.0-355.0","36PW28KO40I66UUNYO0QZN3S56WEA4","AKVDY8OXNMQED","3BA7SXOG1JCFAQ8JWUVADK0SNZTR8T","","58.09999990463257","img/food1.png","76","59.10000002384186","3","1","2","2","1,0.7,0,1,0.7,0,0.7,0,1","0.7,0,1,0.7,0,1,0,1,0.7","2","false",""
"","html-keyboard-response","299","134792","0.0-356.0","36PW28KO40I66UUNYO0QZN3S56WEA4","AKVDY8OXNMQED","3BA7SXOG1JCFAQ8JWUVADK0SNZTR8T","","null","<img src=""img/food1.png"" style=""width:200px; border:14px solid green;"">","null","","","","","","","","","",""
"","image-keyboard-response","300","134895","0.0-358.0","36PW28KO40I66UUNYO0QZN3S56WEA4","AKVDY8OXNMQED","3BA7SXOG1JCFAQ8JWUVADK0SNZTR8T","","102.80000007152557","img/food1.png","76","103.29999995231628","3","1","2","2","1,0.7,0,1,0.7,0,0.7,0,1","0.7,0,1,0.7,0,1,0,1,0.7","2","false",""
"","html-keyboard-response","301","135201","0.0-359.0","36PW28KO40I66UUNYO0QZN3S56WEA4","AKVDY8OXNMQED","3BA7SXOG1JCFAQ8JWUVADK0SNZTR8T","","null","<img src=""img/food1.png"" style=""width:200px; border:14px solid green;"">","null","","","","","","","","","",""
"","image-keyboard-response","302","135242","0.0-361.0","36PW28KO40I66UUNYO0QZN3S56WEA4","AKVDY8OXNMQED","3BA7SXOG1JCFAQ8JWUVADK0SNZTR8T","","40.09999990463257","img/food1.png","76","40.700000047683716","3","1","2","2","1,0.7,0,1,0.7,0,0.7,0,1","0.7,0,1,0.7,0,1,0,1,0.7","2","false",""
"","html-keyboard-response","303","135544","0.0-362.0","36PW28KO40I66UUNYO0QZN3S56WEA4","AKVDY8OXNMQED","3BA7SXOG1JCFAQ8JWUVADK0SNZTR8T","","null","<img src=""img/food1.png"" style=""width:200px; border:14px solid green;"">","null","","","","","","","","","",""
"","image-keyboard-response","304","135567","0.0-364.0","36PW28KO40I66UUNYO0QZN3S56WEA4","AKVDY8OXNMQED","3BA7SXOG1JCFAQ8JWUVADK0SNZTR8T","","21.600000023841858","img/food4.png","76","22.399999976158142","3","1","3","2","1,0.7,0,1,0.7,0,0.7,0,1","0.7,0,1,0.7,0,1,0,1,0.7","2","false",""
"","html-keyboard-response","305","135869","0.0-365.0","36PW28KO40I66UUNYO0QZN3S56WEA4","AKVDY8OXNMQED","3BA7SXOG1JCFAQ8JWUVADK0SNZTR8T","","null","<img src=""img/food4.png"" style=""width:200px; border:14px solid green;"">","null","","","","","","","","","",""
"","image-keyboard-response","306","136220","0.0-367.0","36PW28KO40I66UUNYO0QZN3S56WEA4","AKVDY8OXNMQED","3BA7SXOG1JCFAQ8JWUVADK0SNZTR8T","","348.90000009536743","img/food1.png","76","350.10000002384186","3","1","2","2","1,0.7,0,1,0.7,0,0.7,0,1","0.7,0,1,0.7,0,1,0,1,0.7","2","false",""
"","html-keyboard-response","307","136525","0.0-368.0","36PW28KO40I66UUNYO0QZN3S56WEA4","AKVDY8OXNMQED","3BA7SXOG1JCFAQ8JWUVADK0SNZTR8T","","null","<img src=""img/food1.png"" style=""width:200px; border:14px solid green;"">","null","","","","","","","","","",""
"","image-keyboard-response","308","136749","0.0-370.0","36PW28KO40I66UUNYO0QZN3S56WEA4","AKVDY8OXNMQED","3BA7SXOG1JCFAQ8JWUVADK0SNZTR8T","","222.19999992847443","img/food1.png","76","223.10000002384186","3","1","2","2","1,0.7,0,1,0.7,0,0.7,0,1","0.7,0,1,0.7,0,1,0,1,0.7","2","false",""
"","html-keyboard-response","309","137051","0.0-371.0","36PW28KO40I66UUNYO0QZN3S56WEA4","AKVDY8OXNMQED","3BA7SXOG1JCFAQ8JWUVADK0SNZTR8T","","null","<img src=""img/food1.png"" style=""width:200px; border:14px solid green;"">","null","","","","","","","","","",""
"","image-keyboard-response","310","137335","0.0-373.0","36PW28KO40I66UUNYO0QZN3S56WEA4","AKVDY8OXNMQED","3BA7SXOG1JCFAQ8JWUVADK0SNZTR8T","","281.7999999523163","img/food1.png","76","282.90000009536743","3","1","2","2","1,0.7,0,1,0.7,0,0.7,0,1","0.7,0,1,0.7,0,1,0,1,0.7","2","false",""
"","html-keyboard-response","311","137640","0.0-374.0","36PW28KO40I66UUNYO0QZN3S56WEA4","AKVDY8OXNMQED","3BA7SXOG1JCFAQ8JWUVADK0SNZTR8T","","null","<img src=""img/food1.png"" style=""width:200px; border:14px solid green;"">","null","","","","","","","","","",""
"","image-keyboard-response","312","137828","0.0-376.0","36PW28KO40I66UUNYO0QZN3S56WEA4","AKVDY8OXNMQED","3BA7SXOG1JCFAQ8JWUVADK0SNZTR8T","","186.5","img/food4.png","76","187.40000009536743","3","0","3","2","1,0.7,0,1,0.7,0,0.7,0,1","0.7,0,1,0.7,0,1,0,1,0.7","2","false",""
"","html-keyboard-response","313","138132","0.0-377.0","36PW28KO40I66UUNYO0QZN3S56WEA4","AKVDY8OXNMQED","3BA7SXOG1JCFAQ8JWUVADK0SNZTR8T","","null","<img src=""img/food4.png"" style=""width:200px;border:14px solid red;"">","null","","","","","","","","","",""
"","image-keyboard-response","314","138258","0.0-379.0","36PW28KO40I66UUNYO0QZN3S56WEA4","AKVDY8OXNMQED","3BA7SXOG1JCFAQ8JWUVADK0SNZTR8T","","124.70000004768372","img/food3.png","76","125.39999997615814","3","1","1","2","1,0.7,0,1,0.7,0,0.7,0,1","0.7,0,1,0.7,0,1,0,1,0.7","2","false",""
"","html-keyboard-response","315","138562","0.0-380.0","36PW28KO40I66UUNYO0QZN3S56WEA4","AKVDY8OXNMQED","3BA7SXOG1JCFAQ8JWUVADK0SNZTR8T","","null","<img src=""img/food3.png"" style=""width:200px; border:14px solid green;"">","null","","","","","","","","","",""
"","image-keyboard-response","316","138696","0.0-382.0","36PW28KO40I66UUNYO0QZN3S56WEA4","AKVDY8OXNMQED","3BA7SXOG1JCFAQ8JWUVADK0SNZTR8T","","133.5","img/food4.png","74","134.29999995231628","1","0","3","2","1,0.7,0,1,0.7,0,0.7,0,1","0.7,0,1,0.7,0,1,0,1,0.7","2","false",""
"","html-keyboard-response","317","138999","0.0-383.0","36PW28KO40I66UUNYO0QZN3S56WEA4","AKVDY8OXNMQED","3BA7SXOG1JCFAQ8JWUVADK0SNZTR8T","","null","<img src=""img/food4.png"" style=""width:200px;border:14px solid red;"">","null","","","","","","","","","",""
"","image-keyboard-response","318","139024","0.0-385.0","36PW28KO40I66UUNYO0QZN3S56WEA4","AKVDY8OXNMQED","3BA7SXOG1JCFAQ8JWUVADK0SNZTR8T","","23","img/food3.png","75","24.09999990463257","2","0","1","2","1,0.7,0,1,0.7,0,0.7,0,1","0.7,0,1,0.7,0,1,0,1,0.7","2","false",""
"","html-keyboard-response","319","139325","0.0-386.0","36PW28KO40I66UUNYO0QZN3S56WEA4","AKVDY8OXNMQED","3BA7SXOG1JCFAQ8JWUVADK0SNZTR8T","","null","<img src=""img/food3.png"" style=""width:200px;border:14px solid red;"">","null","","","","","","","","","",""
"","image-keyboard-response","320","139395","0.0-388.0","36PW28KO40I66UUNYO0QZN3S56WEA4","AKVDY8OXNMQED","3BA7SXOG1JCFAQ8JWUVADK0SNZTR8T","","68.10000002384186","img/food4.png","76","69.39999997615814","3","1","3","2","1,0.7,0,1,0.7,0,0.7,0,1","0.7,0,1,0.7,0,1,0,1,0.7","2","false",""
"","html-keyboard-response","321","139698","0.0-389.0","36PW28KO40I66UUNYO0QZN3S56WEA4","AKVDY8OXNMQED","3BA7SXOG1JCFAQ8JWUVADK0SNZTR8T","","null","<img src=""img/food4.png"" style=""width:200px; border:14px solid green;"">","null","","","","","","","","","",""
"","image-keyboard-response","322","139814","0.0-391.0","36PW28KO40I66UUNYO0QZN3S56WEA4","AKVDY8OXNMQED","3BA7SXOG1JCFAQ8JWUVADK0SNZTR8T","","113.60000002384186","img/food1.png","76","114.80000007152557","3","1","2","2","1,0.7,0,1,0.7,0,0.7,0,1","0.7,0,1,0.7,0,1,0,1,0.7","2","false",""
"","html-keyboard-response","323","140120","0.0-392.0","36PW28KO40I66UUNYO0QZN3S56WEA4","AKVDY8OXNMQED","3BA7SXOG1JCFAQ8JWUVADK0SNZTR8T","","null","<img src=""img/food1.png"" style=""width:200px; border:14px solid green;"">","null","","","","","","","","","",""
"","image-keyboard-response","324","140336","0.0-394.0","36PW28KO40I66UUNYO0QZN3S56WEA4","AKVDY8OXNMQED","3BA7SXOG1JCFAQ8JWUVADK0SNZTR8T","","214.60000002384186","img/food3.png","76","215.39999997615814","3","1","1","2","1,0.7,0,1,0.7,0,0.7,0,1","0.7,0,1,0.7,0,1,0,1,0.7","2","false",""
"","html-keyboard-response","325","140637","0.0-395.0","36PW28KO40I66UUNYO0QZN3S56WEA4","AKVDY8OXNMQED","3BA7SXOG1JCFAQ8JWUVADK0SNZTR8T","","null","<img src=""img/food3.png"" style=""width:200px; border:14px solid green;"">","null","","","","","","","","","",""
"","image-keyboard-response","326","140730","0.0-397.0","36PW28KO40I66UUNYO0QZN3S56WEA4","AKVDY8OXNMQED","3BA7SXOG1JCFAQ8JWUVADK0SNZTR8T","","91.90000009536743","img/food1.png","76","92.60000002384186","3","1","2","2","1,0.7,0,1,0.7,0,0.7,0,1","0.7,0,1,0.7,0,1,0,1,0.7","2","false",""
"","html-keyboard-response","327","141035","0.0-398.0","36PW28KO40I66UUNYO0QZN3S56WEA4","AKVDY8OXNMQED","3BA7SXOG1JCFAQ8JWUVADK0SNZTR8T","","null","<img src=""img/food1.png"" style=""width:200px; border:14px solid green;"">","null","","","","","","","","","",""
"","image-keyboard-response","328","141190","0.0-400.0","36PW28KO40I66UUNYO0QZN3S56WEA4","AKVDY8OXNMQED","3BA7SXOG1JCFAQ8JWUVADK0SNZTR8T","","153.5","img/food4.png","76","154.39999997615814","3","1","3","2","1,0.7,0,1,0.7,0,0.7,0,1","0.7,0,1,0.7,0,1,0,1,0.7","2","false",""
"","html-keyboard-response","329","141495","0.0-401.0","36PW28KO40I66UUNYO0QZN3S56WEA4","AKVDY8OXNMQED","3BA7SXOG1JCFAQ8JWUVADK0SNZTR8T","","null","<img src=""img/food4.png"" style=""width:200px; border:14px solid green;"">","null","","","","","","","","","",""
"","image-keyboard-response","330","141807","0.0-403.0","36PW28KO40I66UUNYO0QZN3S56WEA4","AKVDY8OXNMQED","3BA7SXOG1JCFAQ8JWUVADK0SNZTR8T","","311.10000002384186","img/food3.png","76","311.89999997615814","3","1","1","2","1,0.7,0,1,0.7,0,0.7,0,1","0.7,0,1,0.7,0,1,0,1,0.7","2","false",""
"","html-keyboard-response","331","142109","0.0-404.0","36PW28KO40I66UUNYO0QZN3S56WEA4","AKVDY8OXNMQED","3BA7SXOG1JCFAQ8JWUVADK0SNZTR8T","","null","<img src=""img/food3.png"" style=""width:200px; border:14px solid green;"">","null","","","","","","","","","",""
"","image-keyboard-response","332","142184","0.0-406.0","36PW28KO40I66UUNYO0QZN3S56WEA4","AKVDY8OXNMQED","3BA7SXOG1JCFAQ8JWUVADK0SNZTR8T","","72.70000004768372","img/food1.png","76","74","3","1","2","2","1,0.7,0,1,0.7,0,0.7,0,1","0.7,0,1,0.7,0,1,0,1,0.7","2","false",""
"","html-keyboard-response","333","142487","0.0-407.0","36PW28KO40I66UUNYO0QZN3S56WEA4","AKVDY8OXNMQED","3BA7SXOG1JCFAQ8JWUVADK0SNZTR8T","","null","<img src=""img/food1.png"" style=""width:200px; border:14px solid green;"">","null","","","","","","","","","",""
"","image-keyboard-response","334","142538","0.0-409.0","36PW28KO40I66UUNYO0QZN3S56WEA4","AKVDY8OXNMQED","3BA7SXOG1JCFAQ8JWUVADK0SNZTR8T","","48.800000071525574","img/food1.png","76","50.200000047683716","3","1","2","2","1,0.7,0,1,0.7,0,0.7,0,1","0.7,0,1,0.7,0,1,0,1,0.7","2","false",""
"","html-keyboard-response","335","142845","0.0-410.0","36PW28KO40I66UUNYO0QZN3S56WEA4","AKVDY8OXNMQED","3BA7SXOG1JCFAQ8JWUVADK0SNZTR8T","","null","<img src=""img/food1.png"" style=""width:200px; border:14px solid green;"">","null","","","","","","","","","",""
"","image-keyboard-response","336","142892","0.0-412.0","36PW28KO40I66UUNYO0QZN3S56WEA4","AKVDY8OXNMQED","3BA7SXOG1JCFAQ8JWUVADK0SNZTR8T","","44.700000047683716","img/food3.png","76","45.799999952316284","3","1","1","2","1,0.7,0,1,0.7,0,0.7,0,1","0.7,0,1,0.7,0,1,0,1,0.7","2","false",""
"","html-keyboard-response","337","143197","0.0-413.0","36PW28KO40I66UUNYO0QZN3S56WEA4","AKVDY8OXNMQED","3BA7SXOG1JCFAQ8JWUVADK0SNZTR8T","","null","<img src=""img/food3.png"" style=""width:200px; border:14px solid green;"">","null","","","","","","","","","",""
"","image-keyboard-response","338","143455","0.0-415.0","36PW28KO40I66UUNYO0QZN3S56WEA4","AKVDY8OXNMQED","3BA7SXOG1JCFAQ8JWUVADK0SNZTR8T","","256.7000000476837","img/food4.png","76","257.89999997615814","3","1","3","2","1,0.7,0,1,0.7,0,0.7,0,1","0.7,0,1,0.7,0,1,0,1,0.7","2","false",""
"","html-keyboard-response","339","143761","0.0-416.0","36PW28KO40I66UUNYO0QZN3S56WEA4","AKVDY8OXNMQED","3BA7SXOG1JCFAQ8JWUVADK0SNZTR8T","","null","<img src=""img/food4.png"" style=""width:200px; border:14px solid green;"">","null","","","","","","","","","",""
"","image-keyboard-response","340","143830","0.0-418.0","36PW28KO40I66UUNYO0QZN3S56WEA4","AKVDY8OXNMQED","3BA7SXOG1JCFAQ8JWUVADK0SNZTR8T","","67.80000007152557","img/food3.png","76","68.60000002384186","3","1","1","2","1,0.7,0,1,0.7,0,0.7,0,1","0.7,0,1,0.7,0,1,0,1,0.7","2","false",""
"","html-keyboard-response","341","144131","0.0-419.0","36PW28KO40I66UUNYO0QZN3S56WEA4","AKVDY8OXNMQED","3BA7SXOG1JCFAQ8JWUVADK0SNZTR8T","","null","<img src=""img/food3.png"" style=""width:200px; border:14px solid green;"">","null","","","","","","","","","",""
"","image-keyboard-response","342","144360","0.0-421.0","36PW28KO40I66UUNYO0QZN3S56WEA4","AKVDY8OXNMQED","3BA7SXOG1JCFAQ8JWUVADK0SNZTR8T","","228.10000002384186","img/food1.png","76","229.09999990463257","3","1","2","2","1,0.7,0,1,0.7,0,0.7,0,1","0.7,0,1,0.7,0,1,0,1,0.7","2","false",""
"","html-keyboard-response","343","144663","0.0-422.0","36PW28KO40I66UUNYO0QZN3S56WEA4","AKVDY8OXNMQED","3BA7SXOG1JCFAQ8JWUVADK0SNZTR8T","","null","<img src=""img/food1.png"" style=""width:200px; border:14px solid green;"">","null","","","","","","","","","",""
"","image-keyboard-response","344","144889","0.0-424.0","36PW28KO40I66UUNYO0QZN3S56WEA4","AKVDY8OXNMQED","3BA7SXOG1JCFAQ8JWUVADK0SNZTR8T","","224","img/food4.png","76","225.20000004768372","3","0","3","2","1,0.7,0,1,0.7,0,0.7,0,1","0.7,0,1,0.7,0,1,0,1,0.7","2","false",""
"","html-keyboard-response","345","145193","0.0-425.0","36PW28KO40I66UUNYO0QZN3S56WEA4","AKVDY8OXNMQED","3BA7SXOG1JCFAQ8JWUVADK0SNZTR8T","","null","<img src=""img/food4.png"" style=""width:200px;border:14px solid red;"">","null","","","","","","","","","",""
"","image-keyboard-response","346","145341","0.0-427.0","36PW28KO40I66UUNYO0QZN3S56WEA4","AKVDY8OXNMQED","3BA7SXOG1JCFAQ8JWUVADK0SNZTR8T","","146.29999995231628","img/food3.png","76","147.29999995231628","3","1","1","2","1,0.7,0,1,0.7,0,0.7,0,1","0.7,0,1,0.7,0,1,0,1,0.7","2","false",""
"","html-keyboard-response","347","145645","0.0-428.0","36PW28KO40I66UUNYO0QZN3S56WEA4","AKVDY8OXNMQED","3BA7SXOG1JCFAQ8JWUVADK0SNZTR8T","","null","<img src=""img/food3.png"" style=""width:200px; border:14px solid green;"">","null","","","","","","","","","",""
"","image-keyboard-response","348","145978","0.0-430.0","36PW28KO40I66UUNYO0QZN3S56WEA4","AKVDY8OXNMQED","3BA7SXOG1JCFAQ8JWUVADK0SNZTR8T","","332","img/food4.png","74","332.7999999523163","1","0","3","2","1,0.7,0,1,0.7,0,0.7,0,1","0.7,0,1,0.7,0,1,0,1,0.7","2","false",""
"","html-keyboard-response","349","146282","0.0-431.0","36PW28KO40I66UUNYO0QZN3S56WEA4","AKVDY8OXNMQED","3BA7SXOG1JCFAQ8JWUVADK0SNZTR8T","","null","<img src=""img/food4.png"" style=""width:200px;border:14px solid red;"">","null","","","","","","","","","",""
"","image-keyboard-response","350","146298","0.0-433.0","36PW28KO40I66UUNYO0QZN3S56WEA4","AKVDY8OXNMQED","3BA7SXOG1JCFAQ8JWUVADK0SNZTR8T","","15.100000023841858","img/food3.png","75","15.799999952316284","2","0","1","2","1,0.7,0,1,0.7,0,0.7,0,1","0.7,0,1,0.7,0,1,0,1,0.7","2","false",""
"","html-keyboard-response","351","146605","0.0-434.0","36PW28KO40I66UUNYO0QZN3S56WEA4","AKVDY8OXNMQED","3BA7SXOG1JCFAQ8JWUVADK0SNZTR8T","","null","<img src=""img/food3.png"" style=""width:200px;border:14px solid red;"">","null","","","","","","","","","",""
"","image-keyboard-response","352","146665","0.0-436.0","36PW28KO40I66UUNYO0QZN3S56WEA4","AKVDY8OXNMQED","3BA7SXOG1JCFAQ8JWUVADK0SNZTR8T","","59.300000071525574","img/food1.png","76","59.89999997615814","3","1","2","2","1,0.7,0,1,0.7,0,0.7,0,1","0.7,0,1,0.7,0,1,0,1,0.7","2","false",""
"","html-keyboard-response","353","146968","0.0-437.0","36PW28KO40I66UUNYO0QZN3S56WEA4","AKVDY8OXNMQED","3BA7SXOG1JCFAQ8JWUVADK0SNZTR8T","","null","<img src=""img/food1.png"" style=""width:200px; border:14px solid green;"">","null","","","","","","","","","",""
"","image-keyboard-response","354","147001","0.0-439.0","36PW28KO40I66UUNYO0QZN3S56WEA4","AKVDY8OXNMQED","3BA7SXOG1JCFAQ8JWUVADK0SNZTR8T","","32.199999928474426","img/food1.png","76","32.699999928474426","3","1","2","2","1,0.7,0,1,0.7,0,0.7,0,1","0.7,0,1,0.7,0,1,0,1,0.7","2","false",""
"","html-keyboard-response","355","147303","0.0-440.0","36PW28KO40I66UUNYO0QZN3S56WEA4","AKVDY8OXNMQED","3BA7SXOG1JCFAQ8JWUVADK0SNZTR8T","","null","<img src=""img/food1.png"" style=""width:200px; border:14px solid green;"">","null","","","","","","","","","",""
"","image-keyboard-response","356","147304","0.0-442.0","36PW28KO40I66UUNYO0QZN3S56WEA4","AKVDY8OXNMQED","3BA7SXOG1JCFAQ8JWUVADK0SNZTR8T","","1","img/food4.png","76","1.7000000476837158","3","1","3","2","1,0.7,0,1,0.7,0,0.7,0,1","0.7,0,1,0.7,0,1,0,1,0.7","2","false",""
"","html-keyboard-response","357","147608","0.0-443.0","36PW28KO40I66UUNYO0QZN3S56WEA4","AKVDY8OXNMQED","3BA7SXOG1JCFAQ8JWUVADK0SNZTR8T","","null","<img src=""img/food4.png"" style=""width:200px; border:14px solid green;"">","null","","","","","","","","","",""
"","image-keyboard-response","358","147922","0.0-445.0","36PW28KO40I66UUNYO0QZN3S56WEA4","AKVDY8OXNMQED","3BA7SXOG1JCFAQ8JWUVADK0SNZTR8T","","313.10000002384186","img/food3.png","76","314","3","1","1","2","1,0.7,0,1,0.7,0,0.7,0,1","0.7,0,1,0.7,0,1,0,1,0.7","2","false",""
"","html-keyboard-response","359","148227","0.0-446.0","36PW28KO40I66UUNYO0QZN3S56WEA4","AKVDY8OXNMQED","3BA7SXOG1JCFAQ8JWUVADK0SNZTR8T","","null","<img src=""img/food3.png"" style=""width:200px; border:14px solid green;"">","null","","","","","","","","","",""
"","image-keyboard-response","360","148242","0.0-448.0","36PW28KO40I66UUNYO0QZN3S56WEA4","AKVDY8OXNMQED","3BA7SXOG1JCFAQ8JWUVADK0SNZTR8T","","13.399999976158142","img/food3.png","76","14.600000023841858","3","1","1","2","1,0.7,0,1,0.7,0,0.7,0,1","0.7,0,1,0.7,0,1,0,1,0.7","2","false",""
"","html-keyboard-response","361","148546","0.0-449.0","36PW28KO40I66UUNYO0QZN3S56WEA4","AKVDY8OXNMQED","3BA7SXOG1JCFAQ8JWUVADK0SNZTR8T","","null","<img src=""img/food3.png"" style=""width:200px; border:14px solid green;"">","null","","","","","","","","","",""
"","image-keyboard-response","362","148754","0.0-451.0","36PW28KO40I66UUNYO0QZN3S56WEA4","AKVDY8OXNMQED","3BA7SXOG1JCFAQ8JWUVADK0SNZTR8T","","206.10000002384186","img/food1.png","76","207","3","1","2","2","1,0.7,0,1,0.7,0,0.7,0,1","0.7,0,1,0.7,0,1,0,1,0.7","2","false",""
"","html-keyboard-response","363","149058","0.0-452.0","36PW28KO40I66UUNYO0QZN3S56WEA4","AKVDY8OXNMQED","3BA7SXOG1JCFAQ8JWUVADK0SNZTR8T","","null","<img src=""img/food1.png"" style=""width:200px; border:14px solid green;"">","null","","","","","","","","","",""
"","instructions","364","151767","0.0-454.0","36PW28KO40I66UUNYO0QZN3S56WEA4","AKVDY8OXNMQED","3BA7SXOG1JCFAQ8JWUVADK0SNZTR8T","[{""page_index"":0,""viewing_time"":2707.0999999046326}]","2707.2999999523163","","","","","","","","","","","",""
"","survey-text","365","214815","0.0-455.0","36PW28KO40I66UUNYO0QZN3S56WEA4","AKVDY8OXNMQED","3BA7SXOG1JCFAQ8JWUVADK0SNZTR8T","","63045","","","","","","","","","","","","{""Q0"":""AKVDY8OXNMQED""}"
