"success","trial_type","trial_index","time_elapsed","internal_node_id","assignmentID","mturkID","hitID","view_history","rt","stimulus","key_press","reactionTime","a","r","s","cond","reward_cond","reward_cond_actual","reward_matrix_idx","warning","responses"
"true","fullscreen","0","4202","0.0-0.0","3F6HPJW4JEMBIRLA691HFBRU07HW29","AKX4H8RT7BL7H","3WPCIUYH1AU470H2HRBLZRFBM95TDS","","","","","","","","","","","","","",""
"","instructions","1","33643","0.0-1.0","3F6HPJW4JEMBIRLA691HFBRU07HW29","AKX4H8RT7BL7H","3WPCIUYH1AU470H2HRBLZRFBM95TDS","[{""page_index"":0,""viewing_time"":2337.3999996185303},{""page_index"":1,""viewing_time"":848.5},{""page_index"":2,""viewing_time"":968.6000003814697},{""page_index"":3,""viewing_time"":19703.60000038147},{""page_index"":4,""viewing_time"":1678.7999992370605},{""page_index"":5,""viewing_time"":1849.8000001907349},{""page_index"":6,""viewing_time"":2053}]","29440","","","","","","","","","","","",""
"","image-keyboard-response","2","35184","0.0-2.0","3F6HPJW4JEMBIRLA691HFBRU07HW29","AKX4H8RT7BL7H","3WPCIUYH1AU470H2HRBLZRFBM95TDS","","1538.8000001907349","img/food4.png","74","1539.8999996185303","1","1","3","1","1,0.7,0,1,0.7,0,0.7,0,1","0,1,0.7,0,1,0.7,1,0.7,0","3","",""
"","html-keyboard-response","3","35491","0.0-3.0","3F6HPJW4JEMBIRLA691HFBRU07HW29","AKX4H8RT7BL7H","3WPCIUYH1AU470H2HRBLZRFBM95TDS","","null","<img src=""img/food4.png"" style=""width:200px; border:14px solid green;"">","null","","","","","","","","","",""
"","image-keyboard-response","4","36506","0.0-4.0","3F6HPJW4JEMBIRLA691HFBRU07HW29","AKX4H8RT7BL7H","3WPCIUYH1AU470H2HRBLZRFBM95TDS","","1014","img/food3.png","76","1015.0999994277954","3","0","1","1","1,0.7,0,1,0.7,0,0.7,0,1","0,1,0.7,0,1,0.7,1,0.7,0","3","",""
"","html-keyboard-response","5","36814","0.0-5.0","3F6HPJW4JEMBIRLA691HFBRU07HW29","AKX4H8RT7BL7H","3WPCIUYH1AU470H2HRBLZRFBM95TDS","","null","<img src=""img/food3.png"" style=""width:200px;border:14px solid red;"">","null","","","","","","","","","",""
"","image-keyboard-response","6","37247","0.0-6.0","3F6HPJW4JEMBIRLA691HFBRU07HW29","AKX4H8RT7BL7H","3WPCIUYH1AU470H2HRBLZRFBM95TDS","","430.6000003814697","img/food3.png","75","432.5","2","1","1","1","1,0.7,0,1,0.7,0,0.7,0,1","0,1,0.7,0,1,0.7,1,0.7,0","3","",""
"","html-keyboard-response","7","37554","0.0-7.0","3F6HPJW4JEMBIRLA691HFBRU07HW29","AKX4H8RT7BL7H","3WPCIUYH1AU470H2HRBLZRFBM95TDS","","null","<img src=""img/food3.png"" style=""width:200px; border:14px solid green;"">","null","","","","","","","","","",""
"","image-keyboard-response","8","38659","0.0-8.0","3F6HPJW4JEMBIRLA691HFBRU07HW29","AKX4H8RT7BL7H","3WPCIUYH1AU470H2HRBLZRFBM95TDS","","1103.1000003814697","img/food4.png","74","1105","1","1","3","1","1,0.7,0,1,0.7,0,0.7,0,1","0,1,0.7,0,1,0.7,1,0.7,0","3","",""
"","html-keyboard-response","9","38964","0.0-9.0","3F6HPJW4JEMBIRLA691HFBRU07HW29","AKX4H8RT7BL7H","3WPCIUYH1AU470H2HRBLZRFBM95TDS","","null","<img src=""img/food4.png"" style=""width:200px; border:14px solid green;"">","null","","","","","","","","","",""
"","image-keyboard-response","10","39394","0.0-10.0","3F6HPJW4JEMBIRLA691HFBRU07HW29","AKX4H8RT7BL7H","3WPCIUYH1AU470H2HRBLZRFBM95TDS","","428.3999996185303","img/food4.png","74","429.8999996185303","1","1","3","1","1,0.7,0,1,0.7,0,0.7,0,1","0,1,0.7,0,1,0.7,1,0.7,0","3","",""
"","html-keyboard-response","11","39699","0.0-11.0","3F6HPJW4JEMBIRLA691HFBRU07HW29","AKX4H8RT7BL7H","3WPCIUYH1AU470H2HRBLZRFBM95TDS","","null","<img src=""img/food4.png"" style=""width:200px; border:14px solid green;"">","null","","","","","","","","","",""
"","image-keyboard-response","12","40088","0.0-12.0","3F6HPJW4JEMBIRLA691HFBRU07HW29","AKX4H8RT7BL7H","3WPCIUYH1AU470H2HRBLZRFBM95TDS","","385.70000076293945","img/food4.png","74","387.69999980926514","1","1","3","1","1,0.7,0,1,0.7,0,0.7,0,1","0,1,0.7,0,1,0.7,1,0.7,0","3","",""
"","html-keyboard-response","13","40395","0.0-13.0","3F6HPJW4JEMBIRLA691HFBRU07HW29","AKX4H8RT7BL7H","3WPCIUYH1AU470H2HRBLZRFBM95TDS","","null","<img src=""img/food4.png"" style=""width:200px; border:14px solid green;"">","null","","","","","","","","","",""
"","image-keyboard-response","14","41135","0.0-14.0","3F6HPJW4JEMBIRLA691HFBRU07HW29","AKX4H8RT7BL7H","3WPCIUYH1AU470H2HRBLZRFBM95TDS","","738.6999998092651","img/food3.png","75","739.6999998092651","2","1","1","1","1,0.7,0,1,0.7,0,0.7,0,1","0,1,0.7,0,1,0.7,1,0.7,0","3","",""
"","html-keyboard-response","15","41438","0.0-15.0","3F6HPJW4JEMBIRLA691HFBRU07HW29","AKX4H8RT7BL7H","3WPCIUYH1AU470H2HRBLZRFBM95TDS","","null","<img src=""img/food3.png"" style=""width:200px; border:14px solid green;"">","null","","","","","","","","","",""
"","image-keyboard-response","16","42198","0.0-16.0","3F6HPJW4JEMBIRLA691HFBRU07HW29","AKX4H8RT7BL7H","3WPCIUYH1AU470H2HRBLZRFBM95TDS","","759.8000001907349","img/food6.png","76","760.8999996185303","3","0","2","1","1,0.7,0,1,0.7,0,0.7,0,1","0,1,0.7,0,1,0.7,1,0.7,0","3","",""
"","html-keyboard-response","17","42506","0.0-17.0","3F6HPJW4JEMBIRLA691HFBRU07HW29","AKX4H8RT7BL7H","3WPCIUYH1AU470H2HRBLZRFBM95TDS","","null","<img src=""img/food6.png"" style=""width:200px;border:14px solid red;"">","null","","","","","","","","","",""
"","image-keyboard-response","18","43365","0.0-18.0","3F6HPJW4JEMBIRLA691HFBRU07HW29","AKX4H8RT7BL7H","3WPCIUYH1AU470H2HRBLZRFBM95TDS","","856.2999992370605","img/food4.png","74","858.1999998092651","1","1","3","1","1,0.7,0,1,0.7,0,0.7,0,1","0,1,0.7,0,1,0.7,1,0.7,0","3","",""
"","html-keyboard-response","19","43672","0.0-19.0","3F6HPJW4JEMBIRLA691HFBRU07HW29","AKX4H8RT7BL7H","3WPCIUYH1AU470H2HRBLZRFBM95TDS","","null","<img src=""img/food4.png"" style=""width:200px; border:14px solid green;"">","null","","","","","","","","","",""
"","image-keyboard-response","20","44489","0.0-20.0","3F6HPJW4JEMBIRLA691HFBRU07HW29","AKX4H8RT7BL7H","3WPCIUYH1AU470H2HRBLZRFBM95TDS","","814.5","img/food6.png","75","816.4000005722046","2","1","2","1","1,0.7,0,1,0.7,0,0.7,0,1","0,1,0.7,0,1,0.7,1,0.7,0","3","",""
"","html-keyboard-response","21","44793","0.0-21.0","3F6HPJW4JEMBIRLA691HFBRU07HW29","AKX4H8RT7BL7H","3WPCIUYH1AU470H2HRBLZRFBM95TDS","","null","<img src=""img/food6.png"" style=""width:200px; border:14px solid green;"">","null","","","","","","","","","",""
"","image-keyboard-response","22","45706","0.0-22.0","3F6HPJW4JEMBIRLA691HFBRU07HW29","AKX4H8RT7BL7H","3WPCIUYH1AU470H2HRBLZRFBM95TDS","","911.7999992370605","img/food3.png","75","913.4000005722046","2","1","1","1","1,0.7,0,1,0.7,0,0.7,0,1","0,1,0.7,0,1,0.7,1,0.7,0","3","",""
"","html-keyboard-response","23","46009","0.0-23.0","3F6HPJW4JEMBIRLA691HFBRU07HW29","AKX4H8RT7BL7H","3WPCIUYH1AU470H2HRBLZRFBM95TDS","","null","<img src=""img/food3.png"" style=""width:200px; border:14px solid green;"">","null","","","","","","","","","",""
"","image-keyboard-response","24","46424","0.0-24.0","3F6HPJW4JEMBIRLA691HFBRU07HW29","AKX4H8RT7BL7H","3WPCIUYH1AU470H2HRBLZRFBM95TDS","","413.5999994277954","img/food3.png","75","415.0999994277954","2","1","1","1","1,0.7,0,1,0.7,0,0.7,0,1","0,1,0.7,0,1,0.7,1,0.7,0","3","",""
"","html-keyboard-response","25","46728","0.0-25.0","3F6HPJW4JEMBIRLA691HFBRU07HW29","AKX4H8RT7BL7H","3WPCIUYH1AU470H2HRBLZRFBM95TDS","","null","<img src=""img/food3.png"" style=""width:200px; border:14px solid green;"">","null","","","","","","","","","",""
"","image-keyboard-response","26","47113","0.0-26.0","3F6HPJW4JEMBIRLA691HFBRU07HW29","AKX4H8RT7BL7H","3WPCIUYH1AU470H2HRBLZRFBM95TDS","","384.5","img/food3.png","75","385.1000003814697","2","1","1","1","1,0.7,0,1,0.7,0,0.7,0,1","0,1,0.7,0,1,0.7,1,0.7,0","3","",""
"","html-keyboard-response","27","47420","0.0-27.0","3F6HPJW4JEMBIRLA691HFBRU07HW29","AKX4H8RT7BL7H","3WPCIUYH1AU470H2HRBLZRFBM95TDS","","null","<img src=""img/food3.png"" style=""width:200px; border:14px solid green;"">","null","","","","","","","","","",""
"","image-keyboard-response","28","48116","0.0-28.0","3F6HPJW4JEMBIRLA691HFBRU07HW29","AKX4H8RT7BL7H","3WPCIUYH1AU470H2HRBLZRFBM95TDS","","694.1999998092651","img/food6.png","75","696.1999998092651","2","1","2","1","1,0.7,0,1,0.7,0,0.7,0,1","0,1,0.7,0,1,0.7,1,0.7,0","3","",""
"","html-keyboard-response","29","48423","0.0-29.0","3F6HPJW4JEMBIRLA691HFBRU07HW29","AKX4H8RT7BL7H","3WPCIUYH1AU470H2HRBLZRFBM95TDS","","null","<img src=""img/food6.png"" style=""width:200px; border:14px solid green;"">","null","","","","","","","","","",""
"","image-keyboard-response","30","49064","0.0-30.0","3F6HPJW4JEMBIRLA691HFBRU07HW29","AKX4H8RT7BL7H","3WPCIUYH1AU470H2HRBLZRFBM95TDS","","639.9000005722046","img/food3.png","75","641","2","1","1","1","1,0.7,0,1,0.7,0,0.7,0,1","0,1,0.7,0,1,0.7,1,0.7,0","3","",""
"","html-keyboard-response","31","49370","0.0-31.0","3F6HPJW4JEMBIRLA691HFBRU07HW29","AKX4H8RT7BL7H","3WPCIUYH1AU470H2HRBLZRFBM95TDS","","null","<img src=""img/food3.png"" style=""width:200px; border:14px solid green;"">","null","","","","","","","","","",""
"","image-keyboard-response","32","49834","0.0-32.0","3F6HPJW4JEMBIRLA691HFBRU07HW29","AKX4H8RT7BL7H","3WPCIUYH1AU470H2HRBLZRFBM95TDS","","463.19999980926514","img/food3.png","75","463.69999980926514","2","1","1","1","1,0.7,0,1,0.7,0,0.7,0,1","0,1,0.7,0,1,0.7,1,0.7,0","3","",""
"","html-keyboard-response","33","50140","0.0-33.0","3F6HPJW4JEMBIRLA691HFBRU07HW29","AKX4H8RT7BL7H","3WPCIUYH1AU470H2HRBLZRFBM95TDS","","null","<img src=""img/food3.png"" style=""width:200px; border:14px solid green;"">","null","","","","","","","","","",""
"","image-keyboard-response","34","50436","0.0-34.0","3F6HPJW4JEMBIRLA691HFBRU07HW29","AKX4H8RT7BL7H","3WPCIUYH1AU470H2HRBLZRFBM95TDS","","294.3999996185303","img/food3.png","75","295.5","2","1","1","1","1,0.7,0,1,0.7,0,0.7,0,1","0,1,0.7,0,1,0.7,1,0.7,0","3","",""
"","html-keyboard-response","35","50743","0.0-35.0","3F6HPJW4JEMBIRLA691HFBRU07HW29","AKX4H8RT7BL7H","3WPCIUYH1AU470H2HRBLZRFBM95TDS","","null","<img src=""img/food3.png"" style=""width:200px; border:14px solid green;"">","null","","","","","","","","","",""
"","image-keyboard-response","36","51566","0.0-36.0","3F6HPJW4JEMBIRLA691HFBRU07HW29","AKX4H8RT7BL7H","3WPCIUYH1AU470H2HRBLZRFBM95TDS","","821.6999998092651","img/food6.png","75","822.5999994277954","2","1","2","1","1,0.7,0,1,0.7,0,0.7,0,1","0,1,0.7,0,1,0.7,1,0.7,0","3","",""
"","html-keyboard-response","37","51869","0.0-37.0","3F6HPJW4JEMBIRLA691HFBRU07HW29","AKX4H8RT7BL7H","3WPCIUYH1AU470H2HRBLZRFBM95TDS","","null","<img src=""img/food6.png"" style=""width:200px; border:14px solid green;"">","null","","","","","","","","","",""
"","image-keyboard-response","38","52350","0.0-38.0","3F6HPJW4JEMBIRLA691HFBRU07HW29","AKX4H8RT7BL7H","3WPCIUYH1AU470H2HRBLZRFBM95TDS","","480","img/food6.png","75","481.1000003814697","2","1","2","1","1,0.7,0,1,0.7,0,0.7,0,1","0,1,0.7,0,1,0.7,1,0.7,0","3","",""
"","html-keyboard-response","39","52658","0.0-39.0","3F6HPJW4JEMBIRLA691HFBRU07HW29","AKX4H8RT7BL7H","3WPCIUYH1AU470H2HRBLZRFBM95TDS","","null","<img src=""img/food6.png"" style=""width:200px; border:14px solid green;"">","null","","","","","","","","","",""
"","image-keyboard-response","40","53406","0.0-40.0","3F6HPJW4JEMBIRLA691HFBRU07HW29","AKX4H8RT7BL7H","3WPCIUYH1AU470H2HRBLZRFBM95TDS","","746.3000001907349","img/food4.png","74","747.8000001907349","1","1","3","1","1,0.7,0,1,0.7,0,0.7,0,1","0,1,0.7,0,1,0.7,1,0.7,0","3","",""
"","html-keyboard-response","41","53708","0.0-41.0","3F6HPJW4JEMBIRLA691HFBRU07HW29","AKX4H8RT7BL7H","3WPCIUYH1AU470H2HRBLZRFBM95TDS","","null","<img src=""img/food4.png"" style=""width:200px; border:14px solid green;"">","null","","","","","","","","","",""
"","image-keyboard-response","42","54705","0.0-42.0","3F6HPJW4JEMBIRLA691HFBRU07HW29","AKX4H8RT7BL7H","3WPCIUYH1AU470H2HRBLZRFBM95TDS","","996","img/food6.png","75","997.3000001907349","2","1","2","1","1,0.7,0,1,0.7,0,0.7,0,1","0,1,0.7,0,1,0.7,1,0.7,0","3","",""
"","html-keyboard-response","43","55007","0.0-43.0","3F6HPJW4JEMBIRLA691HFBRU07HW29","AKX4H8RT7BL7H","3WPCIUYH1AU470H2HRBLZRFBM95TDS","","null","<img src=""img/food6.png"" style=""width:200px; border:14px solid green;"">","null","","","","","","","","","",""
"","image-keyboard-response","44","55739","0.0-44.0","3F6HPJW4JEMBIRLA691HFBRU07HW29","AKX4H8RT7BL7H","3WPCIUYH1AU470H2HRBLZRFBM95TDS","","730.3999996185303","img/food6.png","75","731.5","2","1","2","1","1,0.7,0,1,0.7,0,0.7,0,1","0,1,0.7,0,1,0.7,1,0.7,0","3","",""
"","html-keyboard-response","45","56045","0.0-45.0","3F6HPJW4JEMBIRLA691HFBRU07HW29","AKX4H8RT7BL7H","3WPCIUYH1AU470H2HRBLZRFBM95TDS","","null","<img src=""img/food6.png"" style=""width:200px; border:14px solid green;"">","null","","","","","","","","","",""
"","image-keyboard-response","46","56650","0.0-46.0","3F6HPJW4JEMBIRLA691HFBRU07HW29","AKX4H8RT7BL7H","3WPCIUYH1AU470H2HRBLZRFBM95TDS","","602.5999994277954","img/food4.png","74","604.0999994277954","1","1","3","1","1,0.7,0,1,0.7,0,0.7,0,1","0,1,0.7,0,1,0.7,1,0.7,0","3","",""
"","html-keyboard-response","47","56957","0.0-47.0","3F6HPJW4JEMBIRLA691HFBRU07HW29","AKX4H8RT7BL7H","3WPCIUYH1AU470H2HRBLZRFBM95TDS","","null","<img src=""img/food4.png"" style=""width:200px; border:14px solid green;"">","null","","","","","","","","","",""
"","image-keyboard-response","48","57440","0.0-48.0","3F6HPJW4JEMBIRLA691HFBRU07HW29","AKX4H8RT7BL7H","3WPCIUYH1AU470H2HRBLZRFBM95TDS","","481.5","img/food4.png","74","482.80000019073486","1","1","3","1","1,0.7,0,1,0.7,0,0.7,0,1","0,1,0.7,0,1,0.7,1,0.7,0","3","",""
"","html-keyboard-response","49","57747","0.0-49.0","3F6HPJW4JEMBIRLA691HFBRU07HW29","AKX4H8RT7BL7H","3WPCIUYH1AU470H2HRBLZRFBM95TDS","","null","<img src=""img/food4.png"" style=""width:200px; border:14px solid green;"">","null","","","","","","","","","",""
"","image-keyboard-response","50","58316","0.0-50.0","3F6HPJW4JEMBIRLA691HFBRU07HW29","AKX4H8RT7BL7H","3WPCIUYH1AU470H2HRBLZRFBM95TDS","","568.1000003814697","img/food6.png","75","569","2","1","2","1","1,0.7,0,1,0.7,0,0.7,0,1","0,1,0.7,0,1,0.7,1,0.7,0","3","",""
"","html-keyboard-response","51","58623","0.0-51.0","3F6HPJW4JEMBIRLA691HFBRU07HW29","AKX4H8RT7BL7H","3WPCIUYH1AU470H2HRBLZRFBM95TDS","","null","<img src=""img/food6.png"" style=""width:200px; border:14px solid green;"">","null","","","","","","","","","",""
"","image-keyboard-response","52","59138","0.0-52.0","3F6HPJW4JEMBIRLA691HFBRU07HW29","AKX4H8RT7BL7H","3WPCIUYH1AU470H2HRBLZRFBM95TDS","","513.5","img/food6.png","75","514.3999996185303","2","1","2","1","1,0.7,0,1,0.7,0,0.7,0,1","0,1,0.7,0,1,0.7,1,0.7,0","3","",""
"","html-keyboard-response","53","59445","0.0-53.0","3F6HPJW4JEMBIRLA691HFBRU07HW29","AKX4H8RT7BL7H","3WPCIUYH1AU470H2HRBLZRFBM95TDS","","null","<img src=""img/food6.png"" style=""width:200px; border:14px solid green;"">","null","","","","","","","","","",""
"","image-keyboard-response","54","60324","0.0-54.0","3F6HPJW4JEMBIRLA691HFBRU07HW29","AKX4H8RT7BL7H","3WPCIUYH1AU470H2HRBLZRFBM95TDS","","876.8999996185303","img/food3.png","75","878.5999994277954","2","1","1","1","1,0.7,0,1,0.7,0,0.7,0,1","0,1,0.7,0,1,0.7,1,0.7,0","3","",""
"","html-keyboard-response","55","60627","0.0-55.0","3F6HPJW4JEMBIRLA691HFBRU07HW29","AKX4H8RT7BL7H","3WPCIUYH1AU470H2HRBLZRFBM95TDS","","null","<img src=""img/food3.png"" style=""width:200px; border:14px solid green;"">","null","","","","","","","","","",""
"","image-keyboard-response","56","61352","0.0-56.0","3F6HPJW4JEMBIRLA691HFBRU07HW29","AKX4H8RT7BL7H","3WPCIUYH1AU470H2HRBLZRFBM95TDS","","724.1000003814697","img/food4.png","74","724.8999996185303","1","1","3","1","1,0.7,0,1,0.7,0,0.7,0,1","0,1,0.7,0,1,0.7,1,0.7,0","3","",""
"","html-keyboard-response","57","61659","0.0-57.0","3F6HPJW4JEMBIRLA691HFBRU07HW29","AKX4H8RT7BL7H","3WPCIUYH1AU470H2HRBLZRFBM95TDS","","null","<img src=""img/food4.png"" style=""width:200px; border:14px solid green;"">","null","","","","","","","","","",""
"","image-keyboard-response","58","62524","0.0-58.0","3F6HPJW4JEMBIRLA691HFBRU07HW29","AKX4H8RT7BL7H","3WPCIUYH1AU470H2HRBLZRFBM95TDS","","863.5","img/food3.png","75","864.6000003814697","2","1","1","1","1,0.7,0,1,0.7,0,0.7,0,1","0,1,0.7,0,1,0.7,1,0.7,0","3","",""
"","html-keyboard-response","59","62829","0.0-59.0","3F6HPJW4JEMBIRLA691HFBRU07HW29","AKX4H8RT7BL7H","3WPCIUYH1AU470H2HRBLZRFBM95TDS","","null","<img src=""img/food3.png"" style=""width:200px; border:14px solid green;"">","null","","","","","","","","","",""
"","image-keyboard-response","60","63328","0.0-60.0","3F6HPJW4JEMBIRLA691HFBRU07HW29","AKX4H8RT7BL7H","3WPCIUYH1AU470H2HRBLZRFBM95TDS","","497.30000019073486","img/food6.png","75","498.69999980926514","2","1","2","1","1,0.7,0,1,0.7,0,0.7,0,1","0,1,0.7,0,1,0.7,1,0.7,0","3","",""
"","html-keyboard-response","61","63630","0.0-61.0","3F6HPJW4JEMBIRLA691HFBRU07HW29","AKX4H8RT7BL7H","3WPCIUYH1AU470H2HRBLZRFBM95TDS","","null","<img src=""img/food6.png"" style=""width:200px; border:14px solid green;"">","null","","","","","","","","","",""
"","image-keyboard-response","62","64339","0.0-62.0","3F6HPJW4JEMBIRLA691HFBRU07HW29","AKX4H8RT7BL7H","3WPCIUYH1AU470H2HRBLZRFBM95TDS","","707.8000001907349","img/food3.png","75","709.1000003814697","2","1","1","1","1,0.7,0,1,0.7,0,0.7,0,1","0,1,0.7,0,1,0.7,1,0.7,0","3","",""
"","html-keyboard-response","63","64647","0.0-63.0","3F6HPJW4JEMBIRLA691HFBRU07HW29","AKX4H8RT7BL7H","3WPCIUYH1AU470H2HRBLZRFBM95TDS","","null","<img src=""img/food3.png"" style=""width:200px; border:14px solid green;"">","null","","","","","","","","","",""
"","image-keyboard-response","64","65350","0.0-64.0","3F6HPJW4JEMBIRLA691HFBRU07HW29","AKX4H8RT7BL7H","3WPCIUYH1AU470H2HRBLZRFBM95TDS","","700.8999996185303","img/food6.png","75","702.3000001907349","2","1","2","1","1,0.7,0,1,0.7,0,0.7,0,1","0,1,0.7,0,1,0.7,1,0.7,0","3","",""
"","html-keyboard-response","65","65656","0.0-65.0","3F6HPJW4JEMBIRLA691HFBRU07HW29","AKX4H8RT7BL7H","3WPCIUYH1AU470H2HRBLZRFBM95TDS","","null","<img src=""img/food6.png"" style=""width:200px; border:14px solid green;"">","null","","","","","","","","","",""
"","image-keyboard-response","66","66186","0.0-66.0","3F6HPJW4JEMBIRLA691HFBRU07HW29","AKX4H8RT7BL7H","3WPCIUYH1AU470H2HRBLZRFBM95TDS","","528.3000001907349","img/food3.png","75","529.6000003814697","2","1","1","1","1,0.7,0,1,0.7,0,0.7,0,1","0,1,0.7,0,1,0.7,1,0.7,0","3","",""
"","html-keyboard-response","67","66494","0.0-67.0","3F6HPJW4JEMBIRLA691HFBRU07HW29","AKX4H8RT7BL7H","3WPCIUYH1AU470H2HRBLZRFBM95TDS","","null","<img src=""img/food3.png"" style=""width:200px; border:14px solid green;"">","null","","","","","","","","","",""
"","image-keyboard-response","68","66835","0.0-68.0","3F6HPJW4JEMBIRLA691HFBRU07HW29","AKX4H8RT7BL7H","3WPCIUYH1AU470H2HRBLZRFBM95TDS","","338.9000005722046","img/food3.png","75","340.70000076293945","2","1","1","1","1,0.7,0,1,0.7,0,0.7,0,1","0,1,0.7,0,1,0.7,1,0.7,0","3","",""
"","html-keyboard-response","69","67137","0.0-69.0","3F6HPJW4JEMBIRLA691HFBRU07HW29","AKX4H8RT7BL7H","3WPCIUYH1AU470H2HRBLZRFBM95TDS","","null","<img src=""img/food3.png"" style=""width:200px; border:14px solid green;"">","null","","","","","","","","","",""
"","image-keyboard-response","70","67697","0.0-70.0","3F6HPJW4JEMBIRLA691HFBRU07HW29","AKX4H8RT7BL7H","3WPCIUYH1AU470H2HRBLZRFBM95TDS","","557.4000005722046","img/food3.png","75","558.8000001907349","2","1","1","1","1,0.7,0,1,0.7,0,0.7,0,1","0,1,0.7,0,1,0.7,1,0.7,0","3","",""
"","html-keyboard-response","71","68003","0.0-71.0","3F6HPJW4JEMBIRLA691HFBRU07HW29","AKX4H8RT7BL7H","3WPCIUYH1AU470H2HRBLZRFBM95TDS","","null","<img src=""img/food3.png"" style=""width:200px; border:14px solid green;"">","null","","","","","","","","","",""
"","image-keyboard-response","72","68328","0.0-72.0","3F6HPJW4JEMBIRLA691HFBRU07HW29","AKX4H8RT7BL7H","3WPCIUYH1AU470H2HRBLZRFBM95TDS","","321.8999996185303","img/food3.png","75","323.8999996185303","2","1","1","1","1,0.7,0,1,0.7,0,0.7,0,1","0,1,0.7,0,1,0.7,1,0.7,0","3","",""
"","html-keyboard-response","73","68635","0.0-73.0","3F6HPJW4JEMBIRLA691HFBRU07HW29","AKX4H8RT7BL7H","3WPCIUYH1AU470H2HRBLZRFBM95TDS","","null","<img src=""img/food3.png"" style=""width:200px; border:14px solid green;"">","null","","","","","","","","","",""
"","image-keyboard-response","74","68984","0.0-74.0","3F6HPJW4JEMBIRLA691HFBRU07HW29","AKX4H8RT7BL7H","3WPCIUYH1AU470H2HRBLZRFBM95TDS","","346.80000019073486","img/food3.png","75","348.5999994277954","2","1","1","1","1,0.7,0,1,0.7,0,0.7,0,1","0,1,0.7,0,1,0.7,1,0.7,0","3","",""
"","html-keyboard-response","75","69290","0.0-75.0","3F6HPJW4JEMBIRLA691HFBRU07HW29","AKX4H8RT7BL7H","3WPCIUYH1AU470H2HRBLZRFBM95TDS","","null","<img src=""img/food3.png"" style=""width:200px; border:14px solid green;"">","null","","","","","","","","","",""
"","image-keyboard-response","76","69918","0.0-76.0","3F6HPJW4JEMBIRLA691HFBRU07HW29","AKX4H8RT7BL7H","3WPCIUYH1AU470H2HRBLZRFBM95TDS","","627.2999992370605","img/food4.png","74","628.1999998092651","1","1","3","1","1,0.7,0,1,0.7,0,0.7,0,1","0,1,0.7,0,1,0.7,1,0.7,0","3","",""
"","html-keyboard-response","77","70225","0.0-77.0","3F6HPJW4JEMBIRLA691HFBRU07HW29","AKX4H8RT7BL7H","3WPCIUYH1AU470H2HRBLZRFBM95TDS","","null","<img src=""img/food4.png"" style=""width:200px; border:14px solid green;"">","null","","","","","","","","","",""
"","image-keyboard-response","78","70870","0.0-78.0","3F6HPJW4JEMBIRLA691HFBRU07HW29","AKX4H8RT7BL7H","3WPCIUYH1AU470H2HRBLZRFBM95TDS","","642.3999996185303","img/food3.png","75","644.3999996185303","2","1","1","1","1,0.7,0,1,0.7,0,0.7,0,1","0,1,0.7,0,1,0.7,1,0.7,0","3","",""
"","html-keyboard-response","79","71177","0.0-79.0","3F6HPJW4JEMBIRLA691HFBRU07HW29","AKX4H8RT7BL7H","3WPCIUYH1AU470H2HRBLZRFBM95TDS","","null","<img src=""img/food3.png"" style=""width:200px; border:14px solid green;"">","null","","","","","","","","","",""
"","image-keyboard-response","80","71478","0.0-80.0","3F6HPJW4JEMBIRLA691HFBRU07HW29","AKX4H8RT7BL7H","3WPCIUYH1AU470H2HRBLZRFBM95TDS","","299.1000003814697","img/food4.png","75","300.69999980926514","2","0","3","1","1,0.7,0,1,0.7,0,0.7,0,1","0,1,0.7,0,1,0.7,1,0.7,0","3","",""
"","html-keyboard-response","81","71781","0.0-81.0","3F6HPJW4JEMBIRLA691HFBRU07HW29","AKX4H8RT7BL7H","3WPCIUYH1AU470H2HRBLZRFBM95TDS","","null","<img src=""img/food4.png"" style=""width:200px;border:14px solid red;"">","null","","","","","","","","","",""
"","image-keyboard-response","82","72584","0.0-82.0","3F6HPJW4JEMBIRLA691HFBRU07HW29","AKX4H8RT7BL7H","3WPCIUYH1AU470H2HRBLZRFBM95TDS","","801.1000003814697","img/food6.png","75","802.3000001907349","2","1","2","1","1,0.7,0,1,0.7,0,0.7,0,1","0,1,0.7,0,1,0.7,1,0.7,0","3","",""
"","html-keyboard-response","83","72891","0.0-83.0","3F6HPJW4JEMBIRLA691HFBRU07HW29","AKX4H8RT7BL7H","3WPCIUYH1AU470H2HRBLZRFBM95TDS","","null","<img src=""img/food6.png"" style=""width:200px; border:14px solid green;"">","null","","","","","","","","","",""
"","image-keyboard-response","84","73326","0.0-84.0","3F6HPJW4JEMBIRLA691HFBRU07HW29","AKX4H8RT7BL7H","3WPCIUYH1AU470H2HRBLZRFBM95TDS","","433.6000003814697","img/food6.png","75","434.80000019073486","2","1","2","1","1,0.7,0,1,0.7,0,0.7,0,1","0,1,0.7,0,1,0.7,1,0.7,0","3","",""
"","html-keyboard-response","85","73628","0.0-85.0","3F6HPJW4JEMBIRLA691HFBRU07HW29","AKX4H8RT7BL7H","3WPCIUYH1AU470H2HRBLZRFBM95TDS","","null","<img src=""img/food6.png"" style=""width:200px; border:14px solid green;"">","null","","","","","","","","","",""
"","image-keyboard-response","86","73986","0.0-86.0","3F6HPJW4JEMBIRLA691HFBRU07HW29","AKX4H8RT7BL7H","3WPCIUYH1AU470H2HRBLZRFBM95TDS","","356.8999996185303","img/food6.png","75","357.80000019073486","2","1","2","1","1,0.7,0,1,0.7,0,0.7,0,1","0,1,0.7,0,1,0.7,1,0.7,0","3","",""
"","html-keyboard-response","87","74293","0.0-87.0","3F6HPJW4JEMBIRLA691HFBRU07HW29","AKX4H8RT7BL7H","3WPCIUYH1AU470H2HRBLZRFBM95TDS","","null","<img src=""img/food6.png"" style=""width:200px; border:14px solid green;"">","null","","","","","","","","","",""
"","image-keyboard-response","88","74680","0.0-88.0","3F6HPJW4JEMBIRLA691HFBRU07HW29","AKX4H8RT7BL7H","3WPCIUYH1AU470H2HRBLZRFBM95TDS","","384.80000019073486","img/food6.png","75","386.80000019073486","2","1","2","1","1,0.7,0,1,0.7,0,0.7,0,1","0,1,0.7,0,1,0.7,1,0.7,0","3","",""
"","html-keyboard-response","89","74988","0.0-89.0","3F6HPJW4JEMBIRLA691HFBRU07HW29","AKX4H8RT7BL7H","3WPCIUYH1AU470H2HRBLZRFBM95TDS","","null","<img src=""img/food6.png"" style=""width:200px; border:14px solid green;"">","null","","","","","","","","","",""
"","image-keyboard-response","90","75276","0.0-90.0","3F6HPJW4JEMBIRLA691HFBRU07HW29","AKX4H8RT7BL7H","3WPCIUYH1AU470H2HRBLZRFBM95TDS","","286.29999923706055","img/food6.png","75","287.80000019073486","2","1","2","1","1,0.7,0,1,0.7,0,0.7,0,1","0,1,0.7,0,1,0.7,1,0.7,0","3","",""
"","html-keyboard-response","91","75583","0.0-91.0","3F6HPJW4JEMBIRLA691HFBRU07HW29","AKX4H8RT7BL7H","3WPCIUYH1AU470H2HRBLZRFBM95TDS","","null","<img src=""img/food6.png"" style=""width:200px; border:14px solid green;"">","null","","","","","","","","","",""
"","image-keyboard-response","92","76132","0.0-92.0","3F6HPJW4JEMBIRLA691HFBRU07HW29","AKX4H8RT7BL7H","3WPCIUYH1AU470H2HRBLZRFBM95TDS","","546.6000003814697","img/food4.png","74","548.5","1","1","3","1","1,0.7,0,1,0.7,0,0.7,0,1","0,1,0.7,0,1,0.7,1,0.7,0","3","",""
"","html-keyboard-response","93","76440","0.0-93.0","3F6HPJW4JEMBIRLA691HFBRU07HW29","AKX4H8RT7BL7H","3WPCIUYH1AU470H2HRBLZRFBM95TDS","","null","<img src=""img/food4.png"" style=""width:200px; border:14px solid green;"">","null","","","","","","","","","",""
"","image-keyboard-response","94","76901","0.0-94.0","3F6HPJW4JEMBIRLA691HFBRU07HW29","AKX4H8RT7BL7H","3WPCIUYH1AU470H2HRBLZRFBM95TDS","","458.80000019073486","img/food4.png","74","460.6000003814697","1","1","3","1","1,0.7,0,1,0.7,0,0.7,0,1","0,1,0.7,0,1,0.7,1,0.7,0","3","",""
"","html-keyboard-response","95","77204","0.0-95.0","3F6HPJW4JEMBIRLA691HFBRU07HW29","AKX4H8RT7BL7H","3WPCIUYH1AU470H2HRBLZRFBM95TDS","","null","<img src=""img/food4.png"" style=""width:200px; border:14px solid green;"">","null","","","","","","","","","",""
"","image-keyboard-response","96","77607","0.0-96.0","3F6HPJW4JEMBIRLA691HFBRU07HW29","AKX4H8RT7BL7H","3WPCIUYH1AU470H2HRBLZRFBM95TDS","","402.29999923706055","img/food4.png","74","403.29999923706055","1","1","3","1","1,0.7,0,1,0.7,0,0.7,0,1","0,1,0.7,0,1,0.7,1,0.7,0","3","",""
"","html-keyboard-response","97","77915","0.0-97.0","3F6HPJW4JEMBIRLA691HFBRU07HW29","AKX4H8RT7BL7H","3WPCIUYH1AU470H2HRBLZRFBM95TDS","","null","<img src=""img/food4.png"" style=""width:200px; border:14px solid green;"">","null","","","","","","","","","",""
"","image-keyboard-response","98","78468","0.0-98.0","3F6HPJW4JEMBIRLA691HFBRU07HW29","AKX4H8RT7BL7H","3WPCIUYH1AU470H2HRBLZRFBM95TDS","","550.8000001907349","img/food6.png","75","552.7000007629395","2","1","2","1","1,0.7,0,1,0.7,0,0.7,0,1","0,1,0.7,0,1,0.7,1,0.7,0","3","",""
"","html-keyboard-response","99","78776","0.0-99.0","3F6HPJW4JEMBIRLA691HFBRU07HW29","AKX4H8RT7BL7H","3WPCIUYH1AU470H2HRBLZRFBM95TDS","","null","<img src=""img/food6.png"" style=""width:200px; border:14px solid green;"">","null","","","","","","","","","",""
"","image-keyboard-response","100","79473","0.0-100.0","3F6HPJW4JEMBIRLA691HFBRU07HW29","AKX4H8RT7BL7H","3WPCIUYH1AU470H2HRBLZRFBM95TDS","","696.1999998092651","img/food4.png","74","697.5","1","1","3","1","1,0.7,0,1,0.7,0,0.7,0,1","0,1,0.7,0,1,0.7,1,0.7,0","3","",""
"","html-keyboard-response","101","79780","0.0-101.0","3F6HPJW4JEMBIRLA691HFBRU07HW29","AKX4H8RT7BL7H","3WPCIUYH1AU470H2HRBLZRFBM95TDS","","null","<img src=""img/food4.png"" style=""width:200px; border:14px solid green;"">","null","","","","","","","","","",""
"","image-keyboard-response","102","80296","0.0-102.0","3F6HPJW4JEMBIRLA691HFBRU07HW29","AKX4H8RT7BL7H","3WPCIUYH1AU470H2HRBLZRFBM95TDS","","514.5","img/food6.png","75","515.5999994277954","2","1","2","1","1,0.7,0,1,0.7,0,0.7,0,1","0,1,0.7,0,1,0.7,1,0.7,0","3","",""
"","html-keyboard-response","103","80602","0.0-103.0","3F6HPJW4JEMBIRLA691HFBRU07HW29","AKX4H8RT7BL7H","3WPCIUYH1AU470H2HRBLZRFBM95TDS","","null","<img src=""img/food6.png"" style=""width:200px; border:14px solid green;"">","null","","","","","","","","","",""
"","image-keyboard-response","104","81441","0.0-104.0","3F6HPJW4JEMBIRLA691HFBRU07HW29","AKX4H8RT7BL7H","3WPCIUYH1AU470H2HRBLZRFBM95TDS","","837.1999998092651","img/food3.png","75","838.3999996185303","2","1","1","1","1,0.7,0,1,0.7,0,0.7,0,1","0,1,0.7,0,1,0.7,1,0.7,0","3","",""
"","html-keyboard-response","105","81747","0.0-105.0","3F6HPJW4JEMBIRLA691HFBRU07HW29","AKX4H8RT7BL7H","3WPCIUYH1AU470H2HRBLZRFBM95TDS","","null","<img src=""img/food3.png"" style=""width:200px; border:14px solid green;"">","null","","","","","","","","","",""
"","image-keyboard-response","106","82108","0.0-106.0","3F6HPJW4JEMBIRLA691HFBRU07HW29","AKX4H8RT7BL7H","3WPCIUYH1AU470H2HRBLZRFBM95TDS","","360.5","img/food3.png","75","361.6000003814697","2","1","1","1","1,0.7,0,1,0.7,0,0.7,0,1","0,1,0.7,0,1,0.7,1,0.7,0","3","",""
"","html-keyboard-response","107","82415","0.0-107.0","3F6HPJW4JEMBIRLA691HFBRU07HW29","AKX4H8RT7BL7H","3WPCIUYH1AU470H2HRBLZRFBM95TDS","","null","<img src=""img/food3.png"" style=""width:200px; border:14px solid green;"">","null","","","","","","","","","",""
"","image-keyboard-response","108","83177","0.0-108.0","3F6HPJW4JEMBIRLA691HFBRU07HW29","AKX4H8RT7BL7H","3WPCIUYH1AU470H2HRBLZRFBM95TDS","","759.5","img/food4.png","74","761.1999998092651","1","1","3","1","1,0.7,0,1,0.7,0,0.7,0,1","0,1,0.7,0,1,0.7,1,0.7,0","3","",""
"","html-keyboard-response","109","83484","0.0-109.0","3F6HPJW4JEMBIRLA691HFBRU07HW29","AKX4H8RT7BL7H","3WPCIUYH1AU470H2HRBLZRFBM95TDS","","null","<img src=""img/food4.png"" style=""width:200px; border:14px solid green;"">","null","","","","","","","","","",""
"","image-keyboard-response","110","84192","0.0-110.0","3F6HPJW4JEMBIRLA691HFBRU07HW29","AKX4H8RT7BL7H","3WPCIUYH1AU470H2HRBLZRFBM95TDS","","707.2000007629395","img/food3.png","75","708","2","1","1","1","1,0.7,0,1,0.7,0,0.7,0,1","0,1,0.7,0,1,0.7,1,0.7,0","3","",""
"","html-keyboard-response","111","84499","0.0-111.0","3F6HPJW4JEMBIRLA691HFBRU07HW29","AKX4H8RT7BL7H","3WPCIUYH1AU470H2HRBLZRFBM95TDS","","null","<img src=""img/food3.png"" style=""width:200px; border:14px solid green;"">","null","","","","","","","","","",""
"","image-keyboard-response","112","84853","0.0-112.0","3F6HPJW4JEMBIRLA691HFBRU07HW29","AKX4H8RT7BL7H","3WPCIUYH1AU470H2HRBLZRFBM95TDS","","352.30000019073486","img/food3.png","75","354.20000076293945","2","1","1","1","1,0.7,0,1,0.7,0,0.7,0,1","0,1,0.7,0,1,0.7,1,0.7,0","3","",""
"","html-keyboard-response","113","85158","0.0-113.0","3F6HPJW4JEMBIRLA691HFBRU07HW29","AKX4H8RT7BL7H","3WPCIUYH1AU470H2HRBLZRFBM95TDS","","null","<img src=""img/food3.png"" style=""width:200px; border:14px solid green;"">","null","","","","","","","","","",""
"","image-keyboard-response","114","85759","0.0-114.0","3F6HPJW4JEMBIRLA691HFBRU07HW29","AKX4H8RT7BL7H","3WPCIUYH1AU470H2HRBLZRFBM95TDS","","599.5999994277954","img/food4.png","74","601.1999998092651","1","1","3","1","1,0.7,0,1,0.7,0,0.7,0,1","0,1,0.7,0,1,0.7,1,0.7,0","3","",""
"","html-keyboard-response","115","86063","0.0-115.0","3F6HPJW4JEMBIRLA691HFBRU07HW29","AKX4H8RT7BL7H","3WPCIUYH1AU470H2HRBLZRFBM95TDS","","null","<img src=""img/food4.png"" style=""width:200px; border:14px solid green;"">","null","","","","","","","","","",""
"","image-keyboard-response","116","86869","0.0-116.0","3F6HPJW4JEMBIRLA691HFBRU07HW29","AKX4H8RT7BL7H","3WPCIUYH1AU470H2HRBLZRFBM95TDS","","804.8000001907349","img/food4.png","74","806.3000001907349","1","1","3","1","1,0.7,0,1,0.7,0,0.7,0,1","0,1,0.7,0,1,0.7,1,0.7,0","3","",""
"","html-keyboard-response","117","87175","0.0-117.0","3F6HPJW4JEMBIRLA691HFBRU07HW29","AKX4H8RT7BL7H","3WPCIUYH1AU470H2HRBLZRFBM95TDS","","null","<img src=""img/food4.png"" style=""width:200px; border:14px solid green;"">","null","","","","","","","","","",""
"","image-keyboard-response","118","87619","0.0-118.0","3F6HPJW4JEMBIRLA691HFBRU07HW29","AKX4H8RT7BL7H","3WPCIUYH1AU470H2HRBLZRFBM95TDS","","442.5","img/food4.png","74","444.20000076293945","1","1","3","1","1,0.7,0,1,0.7,0,0.7,0,1","0,1,0.7,0,1,0.7,1,0.7,0","3","",""
"","html-keyboard-response","119","87926","0.0-119.0","3F6HPJW4JEMBIRLA691HFBRU07HW29","AKX4H8RT7BL7H","3WPCIUYH1AU470H2HRBLZRFBM95TDS","","null","<img src=""img/food4.png"" style=""width:200px; border:14px solid green;"">","null","","","","","","","","","",""
"","image-keyboard-response","120","88460","0.0-120.0","3F6HPJW4JEMBIRLA691HFBRU07HW29","AKX4H8RT7BL7H","3WPCIUYH1AU470H2HRBLZRFBM95TDS","","531.5999994277954","img/food3.png","75","533.6000003814697","2","1","1","1","1,0.7,0,1,0.7,0,0.7,0,1","0,1,0.7,0,1,0.7,1,0.7,0","3","",""
"","html-keyboard-response","121","88768","0.0-121.0","3F6HPJW4JEMBIRLA691HFBRU07HW29","AKX4H8RT7BL7H","3WPCIUYH1AU470H2HRBLZRFBM95TDS","","null","<img src=""img/food3.png"" style=""width:200px; border:14px solid green;"">","null","","","","","","","","","",""
"","image-keyboard-response","122","89128","0.0-122.0","3F6HPJW4JEMBIRLA691HFBRU07HW29","AKX4H8RT7BL7H","3WPCIUYH1AU470H2HRBLZRFBM95TDS","","357.79999923706055","img/food4.png","75","359.3999996185303","2","1","3","1","1,0.7,0,1,0.7,0,0.7,0,1","0,1,0.7,0,1,0.7,1,0.7,0","3","",""
"","html-keyboard-response","123","89432","0.0-123.0","3F6HPJW4JEMBIRLA691HFBRU07HW29","AKX4H8RT7BL7H","3WPCIUYH1AU470H2HRBLZRFBM95TDS","","null","<img src=""img/food4.png"" style=""width:200px; border:14px solid green;"">","null","","","","","","","","","",""
"","image-keyboard-response","124","90057","0.0-124.0","3F6HPJW4JEMBIRLA691HFBRU07HW29","AKX4H8RT7BL7H","3WPCIUYH1AU470H2HRBLZRFBM95TDS","","624.3999996185303","img/food4.png","75","625.3000001907349","2","1","3","1","1,0.7,0,1,0.7,0,0.7,0,1","0,1,0.7,0,1,0.7,1,0.7,0","3","",""
"","html-keyboard-response","125","90364","0.0-125.0","3F6HPJW4JEMBIRLA691HFBRU07HW29","AKX4H8RT7BL7H","3WPCIUYH1AU470H2HRBLZRFBM95TDS","","null","<img src=""img/food4.png"" style=""width:200px; border:14px solid green;"">","null","","","","","","","","","",""
"","image-keyboard-response","126","91809","0.0-126.0","3F6HPJW4JEMBIRLA691HFBRU07HW29","AKX4H8RT7BL7H","3WPCIUYH1AU470H2HRBLZRFBM95TDS","","1442.8000001907349","img/food6.png","75","1444.5","2","1","2","1","1,0.7,0,1,0.7,0,0.7,0,1","0,1,0.7,0,1,0.7,1,0.7,0","3","",""
"","html-keyboard-response","127","92116","0.0-127.0","3F6HPJW4JEMBIRLA691HFBRU07HW29","AKX4H8RT7BL7H","3WPCIUYH1AU470H2HRBLZRFBM95TDS","","null","<img src=""img/food6.png"" style=""width:200px; border:14px solid green;"">","null","","","","","","","","","",""
"","image-keyboard-response","128","92783","0.0-128.0","3F6HPJW4JEMBIRLA691HFBRU07HW29","AKX4H8RT7BL7H","3WPCIUYH1AU470H2HRBLZRFBM95TDS","","664.1000003814697","img/food6.png","75","666","2","1","2","1","1,0.7,0,1,0.7,0,0.7,0,1","0,1,0.7,0,1,0.7,1,0.7,0","3","",""
"","html-keyboard-response","129","93090","0.0-129.0","3F6HPJW4JEMBIRLA691HFBRU07HW29","AKX4H8RT7BL7H","3WPCIUYH1AU470H2HRBLZRFBM95TDS","","null","<img src=""img/food6.png"" style=""width:200px; border:14px solid green;"">","null","","","","","","","","","",""
"","image-keyboard-response","130","93480","0.0-130.0","3F6HPJW4JEMBIRLA691HFBRU07HW29","AKX4H8RT7BL7H","3WPCIUYH1AU470H2HRBLZRFBM95TDS","","389.5","img/food6.png","75","390.5999994277954","2","1","2","1","1,0.7,0,1,0.7,0,0.7,0,1","0,1,0.7,0,1,0.7,1,0.7,0","3","",""
"","html-keyboard-response","131","93787","0.0-131.0","3F6HPJW4JEMBIRLA691HFBRU07HW29","AKX4H8RT7BL7H","3WPCIUYH1AU470H2HRBLZRFBM95TDS","","null","<img src=""img/food6.png"" style=""width:200px; border:14px solid green;"">","null","","","","","","","","","",""
"","image-keyboard-response","132","94312","0.0-132.0","3F6HPJW4JEMBIRLA691HFBRU07HW29","AKX4H8RT7BL7H","3WPCIUYH1AU470H2HRBLZRFBM95TDS","","524.3000001907349","img/food4.png","74","525.5","1","1","3","1","1,0.7,0,1,0.7,0,0.7,0,1","0,1,0.7,0,1,0.7,1,0.7,0","3","",""
"","html-keyboard-response","133","94621","0.0-133.0","3F6HPJW4JEMBIRLA691HFBRU07HW29","AKX4H8RT7BL7H","3WPCIUYH1AU470H2HRBLZRFBM95TDS","","null","<img src=""img/food4.png"" style=""width:200px; border:14px solid green;"">","null","","","","","","","","","",""
"","image-keyboard-response","134","95154","0.0-134.0","3F6HPJW4JEMBIRLA691HFBRU07HW29","AKX4H8RT7BL7H","3WPCIUYH1AU470H2HRBLZRFBM95TDS","","531.0999994277954","img/food6.png","75","532.8000001907349","2","1","2","1","1,0.7,0,1,0.7,0,0.7,0,1","0,1,0.7,0,1,0.7,1,0.7,0","3","",""
"","html-keyboard-response","135","95460","0.0-135.0","3F6HPJW4JEMBIRLA691HFBRU07HW29","AKX4H8RT7BL7H","3WPCIUYH1AU470H2HRBLZRFBM95TDS","","null","<img src=""img/food6.png"" style=""width:200px; border:14px solid green;"">","null","","","","","","","","","",""
"","image-keyboard-response","136","95876","0.0-136.0","3F6HPJW4JEMBIRLA691HFBRU07HW29","AKX4H8RT7BL7H","3WPCIUYH1AU470H2HRBLZRFBM95TDS","","414.69999980926514","img/food6.png","75","415.5","2","1","2","1","1,0.7,0,1,0.7,0,0.7,0,1","0,1,0.7,0,1,0.7,1,0.7,0","3","",""
"","html-keyboard-response","137","96183","0.0-137.0","3F6HPJW4JEMBIRLA691HFBRU07HW29","AKX4H8RT7BL7H","3WPCIUYH1AU470H2HRBLZRFBM95TDS","","null","<img src=""img/food6.png"" style=""width:200px; border:14px solid green;"">","null","","","","","","","","","",""
"","image-keyboard-response","138","97034","0.0-138.0","3F6HPJW4JEMBIRLA691HFBRU07HW29","AKX4H8RT7BL7H","3WPCIUYH1AU470H2HRBLZRFBM95TDS","","849.3999996185303","img/food3.png","75","850.8999996185303","2","1","1","1","1,0.7,0,1,0.7,0,0.7,0,1","0,1,0.7,0,1,0.7,1,0.7,0","3","",""
"","html-keyboard-response","139","97341","0.0-139.0","3F6HPJW4JEMBIRLA691HFBRU07HW29","AKX4H8RT7BL7H","3WPCIUYH1AU470H2HRBLZRFBM95TDS","","null","<img src=""img/food3.png"" style=""width:200px; border:14px solid green;"">","null","","","","","","","","","",""
"","image-keyboard-response","140","97935","0.0-140.0","3F6HPJW4JEMBIRLA691HFBRU07HW29","AKX4H8RT7BL7H","3WPCIUYH1AU470H2HRBLZRFBM95TDS","","592","img/food3.png","75","593.5999994277954","2","1","1","1","1,0.7,0,1,0.7,0,0.7,0,1","0,1,0.7,0,1,0.7,1,0.7,0","3","",""
"","html-keyboard-response","141","98240","0.0-141.0","3F6HPJW4JEMBIRLA691HFBRU07HW29","AKX4H8RT7BL7H","3WPCIUYH1AU470H2HRBLZRFBM95TDS","","null","<img src=""img/food3.png"" style=""width:200px; border:14px solid green;"">","null","","","","","","","","","",""
"","image-keyboard-response","142","98643","0.0-142.0","3F6HPJW4JEMBIRLA691HFBRU07HW29","AKX4H8RT7BL7H","3WPCIUYH1AU470H2HRBLZRFBM95TDS","","401.5","img/food3.png","75","403.6000003814697","2","1","1","1","1,0.7,0,1,0.7,0,0.7,0,1","0,1,0.7,0,1,0.7,1,0.7,0","3","",""
"","html-keyboard-response","143","98951","0.0-143.0","3F6HPJW4JEMBIRLA691HFBRU07HW29","AKX4H8RT7BL7H","3WPCIUYH1AU470H2HRBLZRFBM95TDS","","null","<img src=""img/food3.png"" style=""width:200px; border:14px solid green;"">","null","","","","","","","","","",""
"","image-keyboard-response","144","99554","0.0-144.0","3F6HPJW4JEMBIRLA691HFBRU07HW29","AKX4H8RT7BL7H","3WPCIUYH1AU470H2HRBLZRFBM95TDS","","600.9000005722046","img/food4.png","74","602.7000007629395","1","1","3","1","1,0.7,0,1,0.7,0,0.7,0,1","0,1,0.7,0,1,0.7,1,0.7,0","3","",""
"","html-keyboard-response","145","99860","0.0-145.0","3F6HPJW4JEMBIRLA691HFBRU07HW29","AKX4H8RT7BL7H","3WPCIUYH1AU470H2HRBLZRFBM95TDS","","null","<img src=""img/food4.png"" style=""width:200px; border:14px solid green;"">","null","","","","","","","","","",""
"","image-keyboard-response","146","100331","0.0-146.0","3F6HPJW4JEMBIRLA691HFBRU07HW29","AKX4H8RT7BL7H","3WPCIUYH1AU470H2HRBLZRFBM95TDS","","469.5999994277954","img/food4.png","74","470.5","1","1","3","1","1,0.7,0,1,0.7,0,0.7,0,1","0,1,0.7,0,1,0.7,1,0.7,0","3","",""
"","html-keyboard-response","147","100638","0.0-147.0","3F6HPJW4JEMBIRLA691HFBRU07HW29","AKX4H8RT7BL7H","3WPCIUYH1AU470H2HRBLZRFBM95TDS","","null","<img src=""img/food4.png"" style=""width:200px; border:14px solid green;"">","null","","","","","","","","","",""
"","image-keyboard-response","148","101503","0.0-148.0","3F6HPJW4JEMBIRLA691HFBRU07HW29","AKX4H8RT7BL7H","3WPCIUYH1AU470H2HRBLZRFBM95TDS","","862.9000005722046","img/food6.png","75","864.5","2","1","2","1","1,0.7,0,1,0.7,0,0.7,0,1","0,1,0.7,0,1,0.7,1,0.7,0","3","",""
"","html-keyboard-response","149","101808","0.0-149.0","3F6HPJW4JEMBIRLA691HFBRU07HW29","AKX4H8RT7BL7H","3WPCIUYH1AU470H2HRBLZRFBM95TDS","","null","<img src=""img/food6.png"" style=""width:200px; border:14px solid green;"">","null","","","","","","","","","",""
"","image-keyboard-response","150","102222","0.0-150.0","3F6HPJW4JEMBIRLA691HFBRU07HW29","AKX4H8RT7BL7H","3WPCIUYH1AU470H2HRBLZRFBM95TDS","","412.80000019073486","img/food6.png","75","413.69999980926514","2","1","2","1","1,0.7,0,1,0.7,0,0.7,0,1","0,1,0.7,0,1,0.7,1,0.7,0","3","",""
"","html-keyboard-response","151","102529","0.0-151.0","3F6HPJW4JEMBIRLA691HFBRU07HW29","AKX4H8RT7BL7H","3WPCIUYH1AU470H2HRBLZRFBM95TDS","","null","<img src=""img/food6.png"" style=""width:200px; border:14px solid green;"">","null","","","","","","","","","",""
"","image-keyboard-response","152","103148","0.0-152.0","3F6HPJW4JEMBIRLA691HFBRU07HW29","AKX4H8RT7BL7H","3WPCIUYH1AU470H2HRBLZRFBM95TDS","","616.8999996185303","img/food4.png","74","618.6000003814697","1","1","3","1","1,0.7,0,1,0.7,0,0.7,0,1","0,1,0.7,0,1,0.7,1,0.7,0","3","",""
"","html-keyboard-response","153","103451","0.0-153.0","3F6HPJW4JEMBIRLA691HFBRU07HW29","AKX4H8RT7BL7H","3WPCIUYH1AU470H2HRBLZRFBM95TDS","","null","<img src=""img/food4.png"" style=""width:200px; border:14px solid green;"">","null","","","","","","","","","",""
"","image-keyboard-response","154","104457","0.0-154.0","3F6HPJW4JEMBIRLA691HFBRU07HW29","AKX4H8RT7BL7H","3WPCIUYH1AU470H2HRBLZRFBM95TDS","","1003.3999996185303","img/food6.png","75","1005.2999992370605","2","1","2","1","1,0.7,0,1,0.7,0,0.7,0,1","0,1,0.7,0,1,0.7,1,0.7,0","3","",""
"","html-keyboard-response","155","104765","0.0-155.0","3F6HPJW4JEMBIRLA691HFBRU07HW29","AKX4H8RT7BL7H","3WPCIUYH1AU470H2HRBLZRFBM95TDS","","null","<img src=""img/food6.png"" style=""width:200px; border:14px solid green;"">","null","","","","","","","","","",""
"","image-keyboard-response","156","105340","0.0-156.0","3F6HPJW4JEMBIRLA691HFBRU07HW29","AKX4H8RT7BL7H","3WPCIUYH1AU470H2HRBLZRFBM95TDS","","573.5999994277954","img/food3.png","74","575.1999998092651","1","0","1","1","1,0.7,0,1,0.7,0,0.7,0,1","0,1,0.7,0,1,0.7,1,0.7,0","3","",""
"","html-keyboard-response","157","105645","0.0-157.0","3F6HPJW4JEMBIRLA691HFBRU07HW29","AKX4H8RT7BL7H","3WPCIUYH1AU470H2HRBLZRFBM95TDS","","null","<img src=""img/food3.png"" style=""width:200px;border:14px solid red;"">","null","","","","","","","","","",""
"","image-keyboard-response","158","106535","0.0-158.0","3F6HPJW4JEMBIRLA691HFBRU07HW29","AKX4H8RT7BL7H","3WPCIUYH1AU470H2HRBLZRFBM95TDS","","888.6999998092651","img/food4.png","74","889.7999992370605","1","1","3","1","1,0.7,0,1,0.7,0,0.7,0,1","0,1,0.7,0,1,0.7,1,0.7,0","3","",""
"","html-keyboard-response","159","106838","0.0-159.0","3F6HPJW4JEMBIRLA691HFBRU07HW29","AKX4H8RT7BL7H","3WPCIUYH1AU470H2HRBLZRFBM95TDS","","null","<img src=""img/food4.png"" style=""width:200px; border:14px solid green;"">","null","","","","","","","","","",""
"","image-keyboard-response","160","107251","0.0-160.0","3F6HPJW4JEMBIRLA691HFBRU07HW29","AKX4H8RT7BL7H","3WPCIUYH1AU470H2HRBLZRFBM95TDS","","411.30000019073486","img/food4.png","74","413.19999980926514","1","1","3","1","1,0.7,0,1,0.7,0,0.7,0,1","0,1,0.7,0,1,0.7,1,0.7,0","3","",""
"","html-keyboard-response","161","107559","0.0-161.0","3F6HPJW4JEMBIRLA691HFBRU07HW29","AKX4H8RT7BL7H","3WPCIUYH1AU470H2HRBLZRFBM95TDS","","null","<img src=""img/food4.png"" style=""width:200px; border:14px solid green;"">","null","","","","","","","","","",""
"","image-keyboard-response","162","108191","0.0-162.0","3F6HPJW4JEMBIRLA691HFBRU07HW29","AKX4H8RT7BL7H","3WPCIUYH1AU470H2HRBLZRFBM95TDS","","629.6000003814697","img/food3.png","75","631.5","2","1","1","1","1,0.7,0,1,0.7,0,0.7,0,1","0,1,0.7,0,1,0.7,1,0.7,0","3","",""
"","html-keyboard-response","163","108496","0.0-163.0","3F6HPJW4JEMBIRLA691HFBRU07HW29","AKX4H8RT7BL7H","3WPCIUYH1AU470H2HRBLZRFBM95TDS","","null","<img src=""img/food3.png"" style=""width:200px; border:14px solid green;"">","null","","","","","","","","","",""
"","image-keyboard-response","164","109186","0.0-164.0","3F6HPJW4JEMBIRLA691HFBRU07HW29","AKX4H8RT7BL7H","3WPCIUYH1AU470H2HRBLZRFBM95TDS","","687.0999994277954","img/food6.png","75","689.1999998092651","2","1","2","1","1,0.7,0,1,0.7,0,0.7,0,1","0,1,0.7,0,1,0.7,1,0.7,0","3","",""
"","html-keyboard-response","165","109491","0.0-165.0","3F6HPJW4JEMBIRLA691HFBRU07HW29","AKX4H8RT7BL7H","3WPCIUYH1AU470H2HRBLZRFBM95TDS","","null","<img src=""img/food6.png"" style=""width:200px; border:14px solid green;"">","null","","","","","","","","","",""
"","image-keyboard-response","166","110151","0.0-166.0","3F6HPJW4JEMBIRLA691HFBRU07HW29","AKX4H8RT7BL7H","3WPCIUYH1AU470H2HRBLZRFBM95TDS","","658.6999998092651","img/food4.png","74","659.8000001907349","1","1","3","1","1,0.7,0,1,0.7,0,0.7,0,1","0,1,0.7,0,1,0.7,1,0.7,0","3","",""
"","html-keyboard-response","167","110458","0.0-167.0","3F6HPJW4JEMBIRLA691HFBRU07HW29","AKX4H8RT7BL7H","3WPCIUYH1AU470H2HRBLZRFBM95TDS","","null","<img src=""img/food4.png"" style=""width:200px; border:14px solid green;"">","null","","","","","","","","","",""
"","image-keyboard-response","168","111032","0.0-168.0","3F6HPJW4JEMBIRLA691HFBRU07HW29","AKX4H8RT7BL7H","3WPCIUYH1AU470H2HRBLZRFBM95TDS","","571","img/food6.png","75","573.0999994277954","2","1","2","1","1,0.7,0,1,0.7,0,0.7,0,1","0,1,0.7,0,1,0.7,1,0.7,0","3","",""
"","html-keyboard-response","169","111337","0.0-169.0","3F6HPJW4JEMBIRLA691HFBRU07HW29","AKX4H8RT7BL7H","3WPCIUYH1AU470H2HRBLZRFBM95TDS","","null","<img src=""img/food6.png"" style=""width:200px; border:14px solid green;"">","null","","","","","","","","","",""
"","image-keyboard-response","170","113036","0.0-170.0","3F6HPJW4JEMBIRLA691HFBRU07HW29","AKX4H8RT7BL7H","3WPCIUYH1AU470H2HRBLZRFBM95TDS","","1698.2000007629395","img/food4.png","74","1699.4000005722046","1","1","3","1","1,0.7,0,1,0.7,0,0.7,0,1","0,1,0.7,0,1,0.7,1,0.7,0","3","",""
"","html-keyboard-response","171","113342","0.0-171.0","3F6HPJW4JEMBIRLA691HFBRU07HW29","AKX4H8RT7BL7H","3WPCIUYH1AU470H2HRBLZRFBM95TDS","","null","<img src=""img/food4.png"" style=""width:200px; border:14px solid green;"">","null","","","","","","","","","",""
"","image-keyboard-response","172","113830","0.0-172.0","3F6HPJW4JEMBIRLA691HFBRU07HW29","AKX4H8RT7BL7H","3WPCIUYH1AU470H2HRBLZRFBM95TDS","","486.69999980926514","img/food4.png","74","487.19999980926514","1","1","3","1","1,0.7,0,1,0.7,0,0.7,0,1","0,1,0.7,0,1,0.7,1,0.7,0","3","",""
"","html-keyboard-response","173","114132","0.0-173.0","3F6HPJW4JEMBIRLA691HFBRU07HW29","AKX4H8RT7BL7H","3WPCIUYH1AU470H2HRBLZRFBM95TDS","","null","<img src=""img/food4.png"" style=""width:200px; border:14px solid green;"">","null","","","","","","","","","",""
"","image-keyboard-response","174","114932","0.0-174.0","3F6HPJW4JEMBIRLA691HFBRU07HW29","AKX4H8RT7BL7H","3WPCIUYH1AU470H2HRBLZRFBM95TDS","","796.8000001907349","img/food6.png","75","798.8000001907349","2","1","2","1","1,0.7,0,1,0.7,0,0.7,0,1","0,1,0.7,0,1,0.7,1,0.7,0","3","",""
"","html-keyboard-response","175","115238","0.0-175.0","3F6HPJW4JEMBIRLA691HFBRU07HW29","AKX4H8RT7BL7H","3WPCIUYH1AU470H2HRBLZRFBM95TDS","","null","<img src=""img/food6.png"" style=""width:200px; border:14px solid green;"">","null","","","","","","","","","",""
"","image-keyboard-response","176","115515","0.0-176.0","3F6HPJW4JEMBIRLA691HFBRU07HW29","AKX4H8RT7BL7H","3WPCIUYH1AU470H2HRBLZRFBM95TDS","","275.30000019073486","img/food3.png","75","276.8999996185303","2","1","1","1","1,0.7,0,1,0.7,0,0.7,0,1","0,1,0.7,0,1,0.7,1,0.7,0","3","",""
"","html-keyboard-response","177","115818","0.0-177.0","3F6HPJW4JEMBIRLA691HFBRU07HW29","AKX4H8RT7BL7H","3WPCIUYH1AU470H2HRBLZRFBM95TDS","","null","<img src=""img/food3.png"" style=""width:200px; border:14px solid green;"">","null","","","","","","","","","",""
"","image-keyboard-response","178","116477","0.0-178.0","3F6HPJW4JEMBIRLA691HFBRU07HW29","AKX4H8RT7BL7H","3WPCIUYH1AU470H2HRBLZRFBM95TDS","","658.1999998092651","img/food6.png","75","659.1000003814697","2","1","2","1","1,0.7,0,1,0.7,0,0.7,0,1","0,1,0.7,0,1,0.7,1,0.7,0","3","",""
"","html-keyboard-response","179","116782","0.0-179.0","3F6HPJW4JEMBIRLA691HFBRU07HW29","AKX4H8RT7BL7H","3WPCIUYH1AU470H2HRBLZRFBM95TDS","","null","<img src=""img/food6.png"" style=""width:200px; border:14px solid green;"">","null","","","","","","","","","",""
"","image-keyboard-response","180","117324","0.0-180.0","3F6HPJW4JEMBIRLA691HFBRU07HW29","AKX4H8RT7BL7H","3WPCIUYH1AU470H2HRBLZRFBM95TDS","","540.4000005722046","img/food3.png","75","541.9000005722046","2","1","1","1","1,0.7,0,1,0.7,0,0.7,0,1","0,1,0.7,0,1,0.7,1,0.7,0","3","",""
"","html-keyboard-response","181","117631","0.0-181.0","3F6HPJW4JEMBIRLA691HFBRU07HW29","AKX4H8RT7BL7H","3WPCIUYH1AU470H2HRBLZRFBM95TDS","","null","<img src=""img/food3.png"" style=""width:200px; border:14px solid green;"">","null","","","","","","","","","",""
"","html-keyboard-response","182","126345","0.0-182.0","3F6HPJW4JEMBIRLA691HFBRU07HW29","AKX4H8RT7BL7H","3WPCIUYH1AU470H2HRBLZRFBM95TDS","","","","","","","","","","","","","",""
"","instructions","183","149773","0.0-183.0","3F6HPJW4JEMBIRLA691HFBRU07HW29","AKX4H8RT7BL7H","3WPCIUYH1AU470H2HRBLZRFBM95TDS","[{""page_index"":0,""viewing_time"":18644.199999809265},{""page_index"":1,""viewing_time"":4783.10000038147}]","23427.300000190735","","","","","","","","","","","",""
"","image-keyboard-response","184","150662","0.0-184.0","3F6HPJW4JEMBIRLA691HFBRU07HW29","AKX4H8RT7BL7H","3WPCIUYH1AU470H2HRBLZRFBM95TDS","","887.9000005722046","img/food1.png","74","889.3000001907349","1","1","3","2","1,0.7,0,1,0.7,0,0.7,0,1","1,0.7,0,1,0.7,0,0.7,0,1","1","false",""
"","html-keyboard-response","185","150970","0.0-185.0","3F6HPJW4JEMBIRLA691HFBRU07HW29","AKX4H8RT7BL7H","3WPCIUYH1AU470H2HRBLZRFBM95TDS","","null","<img src=""img/food1.png"" style=""width:200px; border:14px solid green;"">","null","","","","","","","","","",""
"","image-keyboard-response","186","151519","0.0-187.0","3F6HPJW4JEMBIRLA691HFBRU07HW29","AKX4H8RT7BL7H","3WPCIUYH1AU470H2HRBLZRFBM95TDS","","545.2000007629395","img/food1.png","74","547.1000003814697","1","1","3","2","1,0.7,0,1,0.7,0,0.7,0,1","1,0.7,0,1,0.7,0,0.7,0,1","1","false",""
"","html-keyboard-response","187","151826","0.0-188.0","3F6HPJW4JEMBIRLA691HFBRU07HW29","AKX4H8RT7BL7H","3WPCIUYH1AU470H2HRBLZRFBM95TDS","","null","<img src=""img/food1.png"" style=""width:200px; border:14px solid green;"">","null","","","","","","","","","",""
"","image-keyboard-response","188","152181","0.0-190.0","3F6HPJW4JEMBIRLA691HFBRU07HW29","AKX4H8RT7BL7H","3WPCIUYH1AU470H2HRBLZRFBM95TDS","","353.8999996185303","img/food1.png","74","355.0999994277954","1","1","3","2","1,0.7,0,1,0.7,0,0.7,0,1","1,0.7,0,1,0.7,0,0.7,0,1","1","false",""
"","html-keyboard-response","189","152487","0.0-191.0","3F6HPJW4JEMBIRLA691HFBRU07HW29","AKX4H8RT7BL7H","3WPCIUYH1AU470H2HRBLZRFBM95TDS","","null","<img src=""img/food1.png"" style=""width:200px; border:14px solid green;"">","null","","","","","","","","","",""
"","image-keyboard-response","190","152738","0.0-193.0","3F6HPJW4JEMBIRLA691HFBRU07HW29","AKX4H8RT7BL7H","3WPCIUYH1AU470H2HRBLZRFBM95TDS","","248.69999980926514","img/food1.png","74","250.60000038146973","1","1","3","2","1,0.7,0,1,0.7,0,0.7,0,1","1,0.7,0,1,0.7,0,0.7,0,1","1","false",""
"","html-keyboard-response","191","153046","0.0-194.0","3F6HPJW4JEMBIRLA691HFBRU07HW29","AKX4H8RT7BL7H","3WPCIUYH1AU470H2HRBLZRFBM95TDS","","null","<img src=""img/food1.png"" style=""width:200px; border:14px solid green;"">","null","","","","","","","","","",""
"","image-keyboard-response","192","153688","0.0-196.0","3F6HPJW4JEMBIRLA691HFBRU07HW29","AKX4H8RT7BL7H","3WPCIUYH1AU470H2HRBLZRFBM95TDS","","639.1000003814697","img/food5.png","75","640.7999992370605","2","0","2","2","1,0.7,0,1,0.7,0,0.7,0,1","1,0.7,0,1,0.7,0,0.7,0,1","1","false",""
"","html-keyboard-response","193","153994","0.0-197.0","3F6HPJW4JEMBIRLA691HFBRU07HW29","AKX4H8RT7BL7H","3WPCIUYH1AU470H2HRBLZRFBM95TDS","","null","<img src=""img/food5.png"" style=""width:200px;border:14px solid red;"">","null","","","","","","","","","",""
"","image-keyboard-response","194","154689","0.0-199.0","3F6HPJW4JEMBIRLA691HFBRU07HW29","AKX4H8RT7BL7H","3WPCIUYH1AU470H2HRBLZRFBM95TDS","","692.7000007629395","img/food2.png","74","694.6000003814697","1","1","1","2","1,0.7,0,1,0.7,0,0.7,0,1","1,0.7,0,1,0.7,0,0.7,0,1","1","false",""
"","html-keyboard-response","195","154997","0.0-200.0","3F6HPJW4JEMBIRLA691HFBRU07HW29","AKX4H8RT7BL7H","3WPCIUYH1AU470H2HRBLZRFBM95TDS","","null","<img src=""img/food2.png"" style=""width:200px; border:14px solid green;"">","null","","","","","","","","","",""
"","image-keyboard-response","196","155255","0.0-202.0","3F6HPJW4JEMBIRLA691HFBRU07HW29","AKX4H8RT7BL7H","3WPCIUYH1AU470H2HRBLZRFBM95TDS","","256.1000003814697","img/food1.png","74","257.5","1","1","3","2","1,0.7,0,1,0.7,0,0.7,0,1","1,0.7,0,1,0.7,0,0.7,0,1","1","false",""
"","html-keyboard-response","197","155561","0.0-203.0","3F6HPJW4JEMBIRLA691HFBRU07HW29","AKX4H8RT7BL7H","3WPCIUYH1AU470H2HRBLZRFBM95TDS","","null","<img src=""img/food1.png"" style=""width:200px; border:14px solid green;"">","null","","","","","","","","","",""
"","image-keyboard-response","198","156017","0.0-205.0","3F6HPJW4JEMBIRLA691HFBRU07HW29","AKX4H8RT7BL7H","3WPCIUYH1AU470H2HRBLZRFBM95TDS","","453.8999996185303","img/food1.png","74","455.19999980926514","1","1","3","2","1,0.7,0,1,0.7,0,0.7,0,1","1,0.7,0,1,0.7,0,0.7,0,1","1","false",""
"","html-keyboard-response","199","156324","0.0-206.0","3F6HPJW4JEMBIRLA691HFBRU07HW29","AKX4H8RT7BL7H","3WPCIUYH1AU470H2HRBLZRFBM95TDS","","null","<img src=""img/food1.png"" style=""width:200px; border:14px solid green;"">","null","","","","","","","","","",""
"","image-keyboard-response","200","156681","0.0-208.0","3F6HPJW4JEMBIRLA691HFBRU07HW29","AKX4H8RT7BL7H","3WPCIUYH1AU470H2HRBLZRFBM95TDS","","354.19999980926514","img/food1.png","74","356.19999980926514","1","1","3","2","1,0.7,0,1,0.7,0,0.7,0,1","1,0.7,0,1,0.7,0,0.7,0,1","1","false",""
"","html-keyboard-response","201","156988","0.0-209.0","3F6HPJW4JEMBIRLA691HFBRU07HW29","AKX4H8RT7BL7H","3WPCIUYH1AU470H2HRBLZRFBM95TDS","","null","<img src=""img/food1.png"" style=""width:200px; border:14px solid green;"">","null","","","","","","","","","",""
"","image-keyboard-response","202","157337","0.0-211.0","3F6HPJW4JEMBIRLA691HFBRU07HW29","AKX4H8RT7BL7H","3WPCIUYH1AU470H2HRBLZRFBM95TDS","","346.5999994277954","img/food1.png","74","348.19999980926514","1","0","3","2","1,0.7,0,1,0.7,0,0.7,0,1","1,0.7,0,1,0.7,0,0.7,0,1","1","false",""
"","html-keyboard-response","203","157643","0.0-212.0","3F6HPJW4JEMBIRLA691HFBRU07HW29","AKX4H8RT7BL7H","3WPCIUYH1AU470H2HRBLZRFBM95TDS","","null","<img src=""img/food1.png"" style=""width:200px;border:14px solid red;"">","null","","","","","","","","","",""
"","image-keyboard-response","204","158022","0.0-214.0","3F6HPJW4JEMBIRLA691HFBRU07HW29","AKX4H8RT7BL7H","3WPCIUYH1AU470H2HRBLZRFBM95TDS","","377.9000005722046","img/food1.png","74","379","1","1","3","2","1,0.7,0,1,0.7,0,0.7,0,1","1,0.7,0,1,0.7,0,0.7,0,1","1","false",""
"","html-keyboard-response","205","158330","0.0-215.0","3F6HPJW4JEMBIRLA691HFBRU07HW29","AKX4H8RT7BL7H","3WPCIUYH1AU470H2HRBLZRFBM95TDS","","null","<img src=""img/food1.png"" style=""width:200px; border:14px solid green;"">","null","","","","","","","","","",""
"","image-keyboard-response","206","159154","0.0-217.0","3F6HPJW4JEMBIRLA691HFBRU07HW29","AKX4H8RT7BL7H","3WPCIUYH1AU470H2HRBLZRFBM95TDS","","821.5","img/food2.png","76","823.3999996185303","3","0","1","2","1,0.7,0,1,0.7,0,0.7,0,1","1,0.7,0,1,0.7,0,0.7,0,1","1","false",""
"","html-keyboard-response","207","159459","0.0-218.0","3F6HPJW4JEMBIRLA691HFBRU07HW29","AKX4H8RT7BL7H","3WPCIUYH1AU470H2HRBLZRFBM95TDS","","null","<img src=""img/food2.png"" style=""width:200px;border:14px solid red;"">","null","","","","","","","","","",""
"","image-keyboard-response","208","160148","0.0-220.0","3F6HPJW4JEMBIRLA691HFBRU07HW29","AKX4H8RT7BL7H","3WPCIUYH1AU470H2HRBLZRFBM95TDS","","687.8000001907349","img/food5.png","74","688.9000005722046","1","1","2","2","1,0.7,0,1,0.7,0,0.7,0,1","1,0.7,0,1,0.7,0,0.7,0,1","1","false",""
"","html-keyboard-response","209","160455","0.0-221.0","3F6HPJW4JEMBIRLA691HFBRU07HW29","AKX4H8RT7BL7H","3WPCIUYH1AU470H2HRBLZRFBM95TDS","","null","<img src=""img/food5.png"" style=""width:200px; border:14px solid green;"">","null","","","","","","","","","",""
"","image-keyboard-response","210","160929","0.0-223.0","3F6HPJW4JEMBIRLA691HFBRU07HW29","AKX4H8RT7BL7H","3WPCIUYH1AU470H2HRBLZRFBM95TDS","","471.69999980926514","img/food2.png","74","475","1","1","1","2","1,0.7,0,1,0.7,0,0.7,0,1","1,0.7,0,1,0.7,0,0.7,0,1","1","false",""
"","html-keyboard-response","211","161239","0.0-224.0","3F6HPJW4JEMBIRLA691HFBRU07HW29","AKX4H8RT7BL7H","3WPCIUYH1AU470H2HRBLZRFBM95TDS","","null","<img src=""img/food2.png"" style=""width:200px; border:14px solid green;"">","null","","","","","","","","","",""
"","image-keyboard-response","212","161767","0.0-226.0","3F6HPJW4JEMBIRLA691HFBRU07HW29","AKX4H8RT7BL7H","3WPCIUYH1AU470H2HRBLZRFBM95TDS","","525.8000001907349","img/food2.png","74","527.3000001907349","1","1","1","2","1,0.7,0,1,0.7,0,0.7,0,1","1,0.7,0,1,0.7,0,0.7,0,1","1","false",""
"","html-keyboard-response","213","162073","0.0-227.0","3F6HPJW4JEMBIRLA691HFBRU07HW29","AKX4H8RT7BL7H","3WPCIUYH1AU470H2HRBLZRFBM95TDS","","null","<img src=""img/food2.png"" style=""width:200px; border:14px solid green;"">","null","","","","","","","","","",""
"","image-keyboard-response","214","162856","0.0-229.0","3F6HPJW4JEMBIRLA691HFBRU07HW29","AKX4H8RT7BL7H","3WPCIUYH1AU470H2HRBLZRFBM95TDS","","779.8000001907349","img/food5.png","75","781.7999992370605","2","0","2","2","1,0.7,0,1,0.7,0,0.7,0,1","1,0.7,0,1,0.7,0,0.7,0,1","1","false",""
"","html-keyboard-response","215","163162","0.0-230.0","3F6HPJW4JEMBIRLA691HFBRU07HW29","AKX4H8RT7BL7H","3WPCIUYH1AU470H2HRBLZRFBM95TDS","","null","<img src=""img/food5.png"" style=""width:200px;border:14px solid red;"">","null","","","","","","","","","",""
"","image-keyboard-response","216","163685","0.0-232.0","3F6HPJW4JEMBIRLA691HFBRU07HW29","AKX4H8RT7BL7H","3WPCIUYH1AU470H2HRBLZRFBM95TDS","","520.5999994277954","img/food2.png","74","522.1999998092651","1","1","1","2","1,0.7,0,1,0.7,0,0.7,0,1","1,0.7,0,1,0.7,0,0.7,0,1","1","false",""
"","html-keyboard-response","217","163987","0.0-233.0","3F6HPJW4JEMBIRLA691HFBRU07HW29","AKX4H8RT7BL7H","3WPCIUYH1AU470H2HRBLZRFBM95TDS","","null","<img src=""img/food2.png"" style=""width:200px; border:14px solid green;"">","null","","","","","","","","","",""
"","image-keyboard-response","218","164390","0.0-235.0","3F6HPJW4JEMBIRLA691HFBRU07HW29","AKX4H8RT7BL7H","3WPCIUYH1AU470H2HRBLZRFBM95TDS","","400.1000003814697","img/food2.png","74","402.29999923706055","1","1","1","2","1,0.7,0,1,0.7,0,0.7,0,1","1,0.7,0,1,0.7,0,0.7,0,1","1","false",""
"","html-keyboard-response","219","164694","0.0-236.0","3F6HPJW4JEMBIRLA691HFBRU07HW29","AKX4H8RT7BL7H","3WPCIUYH1AU470H2HRBLZRFBM95TDS","","null","<img src=""img/food2.png"" style=""width:200px; border:14px solid green;"">","null","","","","","","","","","",""
"","image-keyboard-response","220","165055","0.0-238.0","3F6HPJW4JEMBIRLA691HFBRU07HW29","AKX4H8RT7BL7H","3WPCIUYH1AU470H2HRBLZRFBM95TDS","","358.29999923706055","img/food2.png","74","360.30000019073486","1","1","1","2","1,0.7,0,1,0.7,0,0.7,0,1","1,0.7,0,1,0.7,0,0.7,0,1","1","false",""
"","html-keyboard-response","221","165362","0.0-239.0","3F6HPJW4JEMBIRLA691HFBRU07HW29","AKX4H8RT7BL7H","3WPCIUYH1AU470H2HRBLZRFBM95TDS","","null","<img src=""img/food2.png"" style=""width:200px; border:14px solid green;"">","null","","","","","","","","","",""
"","image-keyboard-response","222","165747","0.0-241.0","3F6HPJW4JEMBIRLA691HFBRU07HW29","AKX4H8RT7BL7H","3WPCIUYH1AU470H2HRBLZRFBM95TDS","","383.80000019073486","img/food2.png","74","384.4000005722046","1","1","1","2","1,0.7,0,1,0.7,0,0.7,0,1","1,0.7,0,1,0.7,0,0.7,0,1","1","false",""
"","html-keyboard-response","223","166053","0.0-242.0","3F6HPJW4JEMBIRLA691HFBRU07HW29","AKX4H8RT7BL7H","3WPCIUYH1AU470H2HRBLZRFBM95TDS","","null","<img src=""img/food2.png"" style=""width:200px; border:14px solid green;"">","null","","","","","","","","","",""
"","image-keyboard-response","224","167062","0.0-244.0","3F6HPJW4JEMBIRLA691HFBRU07HW29","AKX4H8RT7BL7H","3WPCIUYH1AU470H2HRBLZRFBM95TDS","","","img/food5.png","","1007.8000001907349","-1","0","2","2","1,0.7,0,1,0.7,0,0.7,0,1","1,0.7,0,1,0.7,0,0.7,0,1","1","true",""
"","html-keyboard-response","225","167369","0.0-245.0","3F6HPJW4JEMBIRLA691HFBRU07HW29","AKX4H8RT7BL7H","3WPCIUYH1AU470H2HRBLZRFBM95TDS","","null","<img src=""img/food5.png"" style=""width:200px;border:14px solid red;"">","null","","","","","","","","","",""
"","html-keyboard-response","226","177073","0.0-246.0-0.0","3F6HPJW4JEMBIRLA691HFBRU07HW29","AKX4H8RT7BL7H","3WPCIUYH1AU470H2HRBLZRFBM95TDS","","","","","","","","","","","","","",""
"","image-keyboard-response","227","178077","0.0-247.0","3F6HPJW4JEMBIRLA691HFBRU07HW29","AKX4H8RT7BL7H","3WPCIUYH1AU470H2HRBLZRFBM95TDS","","","img/food5.png","","1004.5","-1","0","2","2","1,0.7,0,1,0.7,0,0.7,0,1","1,0.7,0,1,0.7,0,0.7,0,1","1","true",""
"","html-keyboard-response","228","178381","0.0-248.0","3F6HPJW4JEMBIRLA691HFBRU07HW29","AKX4H8RT7BL7H","3WPCIUYH1AU470H2HRBLZRFBM95TDS","","null","<img src=""img/food5.png"" style=""width:200px;border:14px solid red;"">","null","","","","","","","","","",""
"","html-keyboard-response","229","180658","0.0-249.0-0.0","3F6HPJW4JEMBIRLA691HFBRU07HW29","AKX4H8RT7BL7H","3WPCIUYH1AU470H2HRBLZRFBM95TDS","","","","","","","","","","","","","",""
"","image-keyboard-response","230","181209","0.0-250.0","3F6HPJW4JEMBIRLA691HFBRU07HW29","AKX4H8RT7BL7H","3WPCIUYH1AU470H2HRBLZRFBM95TDS","","548.8000001907349","img/food2.png","76","550.5","3","0","1","2","1,0.7,0,1,0.7,0,0.7,0,1","1,0.7,0,1,0.7,0,0.7,0,1","1","false",""
"","html-keyboard-response","231","181516","0.0-251.0","3F6HPJW4JEMBIRLA691HFBRU07HW29","AKX4H8RT7BL7H","3WPCIUYH1AU470H2HRBLZRFBM95TDS","","null","<img src=""img/food2.png"" style=""width:200px;border:14px solid red;"">","null","","","","","","","","","",""
"","image-keyboard-response","232","181953","0.0-253.0","3F6HPJW4JEMBIRLA691HFBRU07HW29","AKX4H8RT7BL7H","3WPCIUYH1AU470H2HRBLZRFBM95TDS","","434.70000076293945","img/food2.png","76","436.69999980926514","3","0","1","2","1,0.7,0,1,0.7,0,0.7,0,1","1,0.7,0,1,0.7,0,0.7,0,1","1","false",""
"","html-keyboard-response","233","182258","0.0-254.0","3F6HPJW4JEMBIRLA691HFBRU07HW29","AKX4H8RT7BL7H","3WPCIUYH1AU470H2HRBLZRFBM95TDS","","null","<img src=""img/food2.png"" style=""width:200px;border:14px solid red;"">","null","","","","","","","","","",""
"","image-keyboard-response","234","182459","0.0-256.0","3F6HPJW4JEMBIRLA691HFBRU07HW29","AKX4H8RT7BL7H","3WPCIUYH1AU470H2HRBLZRFBM95TDS","","198.4000005722046","img/food2.png","75","200.5","2","1","1","2","1,0.7,0,1,0.7,0,0.7,0,1","1,0.7,0,1,0.7,0,0.7,0,1","1","false",""
"","html-keyboard-response","235","182767","0.0-257.0","3F6HPJW4JEMBIRLA691HFBRU07HW29","AKX4H8RT7BL7H","3WPCIUYH1AU470H2HRBLZRFBM95TDS","","null","<img src=""img/food2.png"" style=""width:200px; border:14px solid green;"">","null","","","","","","","","","",""
"","image-keyboard-response","236","183048","0.0-259.0","3F6HPJW4JEMBIRLA691HFBRU07HW29","AKX4H8RT7BL7H","3WPCIUYH1AU470H2HRBLZRFBM95TDS","","278.80000019073486","img/food5.png","75","280.5","2","1","2","2","1,0.7,0,1,0.7,0,0.7,0,1","1,0.7,0,1,0.7,0,0.7,0,1","1","false",""
"","html-keyboard-response","237","183351","0.0-260.0","3F6HPJW4JEMBIRLA691HFBRU07HW29","AKX4H8RT7BL7H","3WPCIUYH1AU470H2HRBLZRFBM95TDS","","null","<img src=""img/food5.png"" style=""width:200px; border:14px solid green;"">","null","","","","","","","","","",""
"","image-keyboard-response","238","183588","0.0-262.0","3F6HPJW4JEMBIRLA691HFBRU07HW29","AKX4H8RT7BL7H","3WPCIUYH1AU470H2HRBLZRFBM95TDS","","236.19999980926514","img/food5.png","75","237","2","1","2","2","1,0.7,0,1,0.7,0,0.7,0,1","1,0.7,0,1,0.7,0,0.7,0,1","1","false",""
"","html-keyboard-response","239","183895","0.0-263.0","3F6HPJW4JEMBIRLA691HFBRU07HW29","AKX4H8RT7BL7H","3WPCIUYH1AU470H2HRBLZRFBM95TDS","","null","<img src=""img/food5.png"" style=""width:200px; border:14px solid green;"">","null","","","","","","","","","",""
"","image-keyboard-response","240","184020","0.0-265.0","3F6HPJW4JEMBIRLA691HFBRU07HW29","AKX4H8RT7BL7H","3WPCIUYH1AU470H2HRBLZRFBM95TDS","","122.59999942779541","img/food5.png","75","124.59999942779541","2","0","2","2","1,0.7,0,1,0.7,0,0.7,0,1","1,0.7,0,1,0.7,0,0.7,0,1","1","false",""
"","html-keyboard-response","241","184323","0.0-266.0","3F6HPJW4JEMBIRLA691HFBRU07HW29","AKX4H8RT7BL7H","3WPCIUYH1AU470H2HRBLZRFBM95TDS","","null","<img src=""img/food5.png"" style=""width:200px;border:14px solid red;"">","null","","","","","","","","","",""
"","image-keyboard-response","242","184627","0.0-268.0","3F6HPJW4JEMBIRLA691HFBRU07HW29","AKX4H8RT7BL7H","3WPCIUYH1AU470H2HRBLZRFBM95TDS","","300.80000019073486","img/food1.png","74","302.69999980926514","1","1","3","2","1,0.7,0,1,0.7,0,0.7,0,1","1,0.7,0,1,0.7,0,0.7,0,1","1","false",""
"","html-keyboard-response","243","184930","0.0-269.0","3F6HPJW4JEMBIRLA691HFBRU07HW29","AKX4H8RT7BL7H","3WPCIUYH1AU470H2HRBLZRFBM95TDS","","null","<img src=""img/food1.png"" style=""width:200px; border:14px solid green;"">","null","","","","","","","","","",""
"","image-keyboard-response","244","185042","0.0-271.0","3F6HPJW4JEMBIRLA691HFBRU07HW29","AKX4H8RT7BL7H","3WPCIUYH1AU470H2HRBLZRFBM95TDS","","109.80000019073486","img/food1.png","74","111.69999980926514","1","1","3","2","1,0.7,0,1,0.7,0,0.7,0,1","1,0.7,0,1,0.7,0,0.7,0,1","1","false",""
"","html-keyboard-response","245","185347","0.0-272.0","3F6HPJW4JEMBIRLA691HFBRU07HW29","AKX4H8RT7BL7H","3WPCIUYH1AU470H2HRBLZRFBM95TDS","","null","<img src=""img/food1.png"" style=""width:200px; border:14px solid green;"">","null","","","","","","","","","",""
"","image-keyboard-response","246","185511","0.0-274.0","3F6HPJW4JEMBIRLA691HFBRU07HW29","AKX4H8RT7BL7H","3WPCIUYH1AU470H2HRBLZRFBM95TDS","","163.19999980926514","img/food5.png","74","163.80000019073486","1","1","2","2","1,0.7,0,1,0.7,0,0.7,0,1","1,0.7,0,1,0.7,0,0.7,0,1","1","false",""
"","html-keyboard-response","247","185815","0.0-275.0","3F6HPJW4JEMBIRLA691HFBRU07HW29","AKX4H8RT7BL7H","3WPCIUYH1AU470H2HRBLZRFBM95TDS","","null","<img src=""img/food5.png"" style=""width:200px; border:14px solid green;"">","null","","","","","","","","","",""
"","image-keyboard-response","248","185844","0.0-277.0","3F6HPJW4JEMBIRLA691HFBRU07HW29","AKX4H8RT7BL7H","3WPCIUYH1AU470H2HRBLZRFBM95TDS","","28.5","img/food5.png","76","29.199999809265137","3","0","2","2","1,0.7,0,1,0.7,0,0.7,0,1","1,0.7,0,1,0.7,0,0.7,0,1","1","false",""
"","html-keyboard-response","249","186151","0.0-278.0","3F6HPJW4JEMBIRLA691HFBRU07HW29","AKX4H8RT7BL7H","3WPCIUYH1AU470H2HRBLZRFBM95TDS","","null","<img src=""img/food5.png"" style=""width:200px;border:14px solid red;"">","null","","","","","","","","","",""
"","image-keyboard-response","250","186463","0.0-280.0","3F6HPJW4JEMBIRLA691HFBRU07HW29","AKX4H8RT7BL7H","3WPCIUYH1AU470H2HRBLZRFBM95TDS","","309.6000003814697","img/food1.png","75","311.69999980926514","2","0","3","2","1,0.7,0,1,0.7,0,0.7,0,1","1,0.7,0,1,0.7,0,0.7,0,1","1","false",""
"","html-keyboard-response","251","186771","0.0-281.0","3F6HPJW4JEMBIRLA691HFBRU07HW29","AKX4H8RT7BL7H","3WPCIUYH1AU470H2HRBLZRFBM95TDS","","null","<img src=""img/food1.png"" style=""width:200px;border:14px solid red;"">","null","","","","","","","","","",""
"","image-keyboard-response","252","187008","0.0-283.0","3F6HPJW4JEMBIRLA691HFBRU07HW29","AKX4H8RT7BL7H","3WPCIUYH1AU470H2HRBLZRFBM95TDS","","234.89999961853027","img/food1.png","74","236.5999994277954","1","0","3","2","1,0.7,0,1,0.7,0,0.7,0,1","1,0.7,0,1,0.7,0,0.7,0,1","1","false",""
"","html-keyboard-response","253","187315","0.0-284.0","3F6HPJW4JEMBIRLA691HFBRU07HW29","AKX4H8RT7BL7H","3WPCIUYH1AU470H2HRBLZRFBM95TDS","","null","<img src=""img/food1.png"" style=""width:200px;border:14px solid red;"">","null","","","","","","","","","",""
"","image-keyboard-response","254","187381","0.0-286.0","3F6HPJW4JEMBIRLA691HFBRU07HW29","AKX4H8RT7BL7H","3WPCIUYH1AU470H2HRBLZRFBM95TDS","","64.59999942779541","img/food2.png","74","65.19999980926514","1","1","1","2","1,0.7,0,1,0.7,0,0.7,0,1","1,0.7,0,1,0.7,0,0.7,0,1","1","false",""
"","html-keyboard-response","255","187683","0.0-287.0","3F6HPJW4JEMBIRLA691HFBRU07HW29","AKX4H8RT7BL7H","3WPCIUYH1AU470H2HRBLZRFBM95TDS","","null","<img src=""img/food2.png"" style=""width:200px; border:14px solid green;"">","null","","","","","","","","","",""
"","image-keyboard-response","256","188070","0.0-289.0","3F6HPJW4JEMBIRLA691HFBRU07HW29","AKX4H8RT7BL7H","3WPCIUYH1AU470H2HRBLZRFBM95TDS","","384.9000005722046","img/food2.png","75","386.29999923706055","2","1","1","2","1,0.7,0,1,0.7,0,0.7,0,1","1,0.7,0,1,0.7,0,0.7,0,1","1","false",""
"","html-keyboard-response","257","188377","0.0-290.0","3F6HPJW4JEMBIRLA691HFBRU07HW29","AKX4H8RT7BL7H","3WPCIUYH1AU470H2HRBLZRFBM95TDS","","null","<img src=""img/food2.png"" style=""width:200px; border:14px solid green;"">","null","","","","","","","","","",""
"","image-keyboard-response","258","189092","0.0-292.0","3F6HPJW4JEMBIRLA691HFBRU07HW29","AKX4H8RT7BL7H","3WPCIUYH1AU470H2HRBLZRFBM95TDS","","712.5","img/food1.png","75","714.4000005722046","2","0","3","2","1,0.7,0,1,0.7,0,0.7,0,1","1,0.7,0,1,0.7,0,0.7,0,1","1","false",""
"","html-keyboard-response","259","189399","0.0-293.0","3F6HPJW4JEMBIRLA691HFBRU07HW29","AKX4H8RT7BL7H","3WPCIUYH1AU470H2HRBLZRFBM95TDS","","null","<img src=""img/food1.png"" style=""width:200px;border:14px solid red;"">","null","","","","","","","","","",""
"","image-keyboard-response","260","189494","0.0-295.0","3F6HPJW4JEMBIRLA691HFBRU07HW29","AKX4H8RT7BL7H","3WPCIUYH1AU470H2HRBLZRFBM95TDS","","93.80000019073486","img/food2.png","74","95","1","1","1","2","1,0.7,0,1,0.7,0,0.7,0,1","1,0.7,0,1,0.7,0,0.7,0,1","1","false",""
"","html-keyboard-response","261","189800","0.0-296.0","3F6HPJW4JEMBIRLA691HFBRU07HW29","AKX4H8RT7BL7H","3WPCIUYH1AU470H2HRBLZRFBM95TDS","","null","<img src=""img/food2.png"" style=""width:200px; border:14px solid green;"">","null","","","","","","","","","",""
"","image-keyboard-response","262","190012","0.0-298.0","3F6HPJW4JEMBIRLA691HFBRU07HW29","AKX4H8RT7BL7H","3WPCIUYH1AU470H2HRBLZRFBM95TDS","","211","img/food5.png","74","211.69999980926514","1","1","2","2","1,0.7,0,1,0.7,0,0.7,0,1","1,0.7,0,1,0.7,0,0.7,0,1","1","false",""
"","html-keyboard-response","263","190317","0.0-299.0","3F6HPJW4JEMBIRLA691HFBRU07HW29","AKX4H8RT7BL7H","3WPCIUYH1AU470H2HRBLZRFBM95TDS","","null","<img src=""img/food5.png"" style=""width:200px; border:14px solid green;"">","null","","","","","","","","","",""
"","image-keyboard-response","264","190724","0.0-301.0","3F6HPJW4JEMBIRLA691HFBRU07HW29","AKX4H8RT7BL7H","3WPCIUYH1AU470H2HRBLZRFBM95TDS","","404.5","img/food5.png","74","406.3999996185303","1","1","2","2","1,0.7,0,1,0.7,0,0.7,0,1","1,0.7,0,1,0.7,0,0.7,0,1","1","false",""
"","html-keyboard-response","265","191026","0.0-302.0","3F6HPJW4JEMBIRLA691HFBRU07HW29","AKX4H8RT7BL7H","3WPCIUYH1AU470H2HRBLZRFBM95TDS","","null","<img src=""img/food5.png"" style=""width:200px; border:14px solid green;"">","null","","","","","","","","","",""
"","image-keyboard-response","266","191744","0.0-304.0","3F6HPJW4JEMBIRLA691HFBRU07HW29","AKX4H8RT7BL7H","3WPCIUYH1AU470H2HRBLZRFBM95TDS","","715.8999996185303","img/food2.png","74","717.2999992370605","1","1","1","2","1,0.7,0,1,0.7,0,0.7,0,1","1,0.7,0,1,0.7,0,0.7,0,1","1","false",""
"","html-keyboard-response","267","192050","0.0-305.0","3F6HPJW4JEMBIRLA691HFBRU07HW29","AKX4H8RT7BL7H","3WPCIUYH1AU470H2HRBLZRFBM95TDS","","null","<img src=""img/food2.png"" style=""width:200px; border:14px solid green;"">","null","","","","","","","","","",""
"","image-keyboard-response","268","192401","0.0-307.0","3F6HPJW4JEMBIRLA691HFBRU07HW29","AKX4H8RT7BL7H","3WPCIUYH1AU470H2HRBLZRFBM95TDS","","347.80000019073486","img/food2.png","74","350.1000003814697","1","1","1","2","1,0.7,0,1,0.7,0,0.7,0,1","1,0.7,0,1,0.7,0,0.7,0,1","1","false",""
"","html-keyboard-response","269","192709","0.0-308.0","3F6HPJW4JEMBIRLA691HFBRU07HW29","AKX4H8RT7BL7H","3WPCIUYH1AU470H2HRBLZRFBM95TDS","","null","<img src=""img/food2.png"" style=""width:200px; border:14px solid green;"">","null","","","","","","","","","",""
"","image-keyboard-response","270","193452","0.0-310.0","3F6HPJW4JEMBIRLA691HFBRU07HW29","AKX4H8RT7BL7H","3WPCIUYH1AU470H2HRBLZRFBM95TDS","","740.8999996185303","img/food5.png","74","742.6000003814697","1","1","2","2","1,0.7,0,1,0.7,0,0.7,0,1","1,0.7,0,1,0.7,0,0.7,0,1","1","false",""
"","html-keyboard-response","271","193759","0.0-311.0","3F6HPJW4JEMBIRLA691HFBRU07HW29","AKX4H8RT7BL7H","3WPCIUYH1AU470H2HRBLZRFBM95TDS","","null","<img src=""img/food5.png"" style=""width:200px; border:14px solid green;"">","null","","","","","","","","","",""
"","image-keyboard-response","272","194001","0.0-313.0","3F6HPJW4JEMBIRLA691HFBRU07HW29","AKX4H8RT7BL7H","3WPCIUYH1AU470H2HRBLZRFBM95TDS","","241.19999980926514","img/food5.png","74","242.30000019073486","1","1","2","2","1,0.7,0,1,0.7,0,0.7,0,1","1,0.7,0,1,0.7,0,0.7,0,1","1","false",""
"","html-keyboard-response","273","194306","0.0-314.0","3F6HPJW4JEMBIRLA691HFBRU07HW29","AKX4H8RT7BL7H","3WPCIUYH1AU470H2HRBLZRFBM95TDS","","null","<img src=""img/food5.png"" style=""width:200px; border:14px solid green;"">","null","","","","","","","","","",""
"","image-keyboard-response","274","194542","0.0-316.0","3F6HPJW4JEMBIRLA691HFBRU07HW29","AKX4H8RT7BL7H","3WPCIUYH1AU470H2HRBLZRFBM95TDS","","233.5999994277954","img/food1.png","74","235.80000019073486","1","1","3","2","1,0.7,0,1,0.7,0,0.7,0,1","1,0.7,0,1,0.7,0,0.7,0,1","1","false",""
"","html-keyboard-response","275","194850","0.0-317.0","3F6HPJW4JEMBIRLA691HFBRU07HW29","AKX4H8RT7BL7H","3WPCIUYH1AU470H2HRBLZRFBM95TDS","","null","<img src=""img/food1.png"" style=""width:200px; border:14px solid green;"">","null","","","","","","","","","",""
"","image-keyboard-response","276","195047","0.0-319.0","3F6HPJW4JEMBIRLA691HFBRU07HW29","AKX4H8RT7BL7H","3WPCIUYH1AU470H2HRBLZRFBM95TDS","","195.19999980926514","img/food5.png","74","196.80000019073486","1","1","2","2","1,0.7,0,1,0.7,0,0.7,0,1","1,0.7,0,1,0.7,0,0.7,0,1","1","false",""
"","html-keyboard-response","277","195354","0.0-320.0","3F6HPJW4JEMBIRLA691HFBRU07HW29","AKX4H8RT7BL7H","3WPCIUYH1AU470H2HRBLZRFBM95TDS","","null","<img src=""img/food5.png"" style=""width:200px; border:14px solid green;"">","null","","","","","","","","","",""
"","image-keyboard-response","278","195609","0.0-322.0","3F6HPJW4JEMBIRLA691HFBRU07HW29","AKX4H8RT7BL7H","3WPCIUYH1AU470H2HRBLZRFBM95TDS","","254.5","img/food1.png","74","255.30000019073486","1","0","3","2","1,0.7,0,1,0.7,0,0.7,0,1","1,0.7,0,1,0.7,0,0.7,0,1","1","false",""
"","html-keyboard-response","279","195916","0.0-323.0","3F6HPJW4JEMBIRLA691HFBRU07HW29","AKX4H8RT7BL7H","3WPCIUYH1AU470H2HRBLZRFBM95TDS","","null","<img src=""img/food1.png"" style=""width:200px;border:14px solid red;"">","null","","","","","","","","","",""
"","image-keyboard-response","280","196129","0.0-325.0","3F6HPJW4JEMBIRLA691HFBRU07HW29","AKX4H8RT7BL7H","3WPCIUYH1AU470H2HRBLZRFBM95TDS","","210.10000038146973","img/food2.png","74","212","1","1","1","2","1,0.7,0,1,0.7,0,0.7,0,1","1,0.7,0,1,0.7,0,0.7,0,1","1","false",""
"","html-keyboard-response","281","196437","0.0-326.0","3F6HPJW4JEMBIRLA691HFBRU07HW29","AKX4H8RT7BL7H","3WPCIUYH1AU470H2HRBLZRFBM95TDS","","null","<img src=""img/food2.png"" style=""width:200px; border:14px solid green;"">","null","","","","","","","","","",""
"","image-keyboard-response","282","196748","0.0-328.0","3F6HPJW4JEMBIRLA691HFBRU07HW29","AKX4H8RT7BL7H","3WPCIUYH1AU470H2HRBLZRFBM95TDS","","308.1000003814697","img/food2.png","74","309.9000005722046","1","1","1","2","1,0.7,0,1,0.7,0,0.7,0,1","1,0.7,0,1,0.7,0,0.7,0,1","1","false",""
"","html-keyboard-response","283","197055","0.0-329.0","3F6HPJW4JEMBIRLA691HFBRU07HW29","AKX4H8RT7BL7H","3WPCIUYH1AU470H2HRBLZRFBM95TDS","","null","<img src=""img/food2.png"" style=""width:200px; border:14px solid green;"">","null","","","","","","","","","",""
"","image-keyboard-response","284","197310","0.0-331.0","3F6HPJW4JEMBIRLA691HFBRU07HW29","AKX4H8RT7BL7H","3WPCIUYH1AU470H2HRBLZRFBM95TDS","","253.10000038146973","img/food1.png","74","254.79999923706055","1","0","3","2","1,0.7,0,1,0.7,0,0.7,0,1","1,0.7,0,1,0.7,0,0.7,0,1","1","false",""
"","html-keyboard-response","285","197615","0.0-332.0","3F6HPJW4JEMBIRLA691HFBRU07HW29","AKX4H8RT7BL7H","3WPCIUYH1AU470H2HRBLZRFBM95TDS","","null","<img src=""img/food1.png"" style=""width:200px;border:14px solid red;"">","null","","","","","","","","","",""
"","image-keyboard-response","286","197899","0.0-334.0","3F6HPJW4JEMBIRLA691HFBRU07HW29","AKX4H8RT7BL7H","3WPCIUYH1AU470H2HRBLZRFBM95TDS","","283.30000019073486","img/food2.png","74","284.5","1","1","1","2","1,0.7,0,1,0.7,0,0.7,0,1","1,0.7,0,1,0.7,0,0.7,0,1","1","false",""
"","html-keyboard-response","287","198204","0.0-335.0","3F6HPJW4JEMBIRLA691HFBRU07HW29","AKX4H8RT7BL7H","3WPCIUYH1AU470H2HRBLZRFBM95TDS","","null","<img src=""img/food2.png"" style=""width:200px; border:14px solid green;"">","null","","","","","","","","","",""
"","image-keyboard-response","288","198374","0.0-337.0","3F6HPJW4JEMBIRLA691HFBRU07HW29","AKX4H8RT7BL7H","3WPCIUYH1AU470H2HRBLZRFBM95TDS","","167","img/food1.png","75","169.0999994277954","2","0","3","2","1,0.7,0,1,0.7,0,0.7,0,1","1,0.7,0,1,0.7,0,0.7,0,1","1","false",""
"","html-keyboard-response","289","198682","0.0-338.0","3F6HPJW4JEMBIRLA691HFBRU07HW29","AKX4H8RT7BL7H","3WPCIUYH1AU470H2HRBLZRFBM95TDS","","null","<img src=""img/food1.png"" style=""width:200px;border:14px solid red;"">","null","","","","","","","","","",""
"","image-keyboard-response","290","198741","0.0-340.0","3F6HPJW4JEMBIRLA691HFBRU07HW29","AKX4H8RT7BL7H","3WPCIUYH1AU470H2HRBLZRFBM95TDS","","56.59999942779541","img/food5.png","74","58.5","1","1","2","2","1,0.7,0,1,0.7,0,0.7,0,1","1,0.7,0,1,0.7,0,0.7,0,1","1","false",""
"","html-keyboard-response","291","199049","0.0-341.0","3F6HPJW4JEMBIRLA691HFBRU07HW29","AKX4H8RT7BL7H","3WPCIUYH1AU470H2HRBLZRFBM95TDS","","null","<img src=""img/food5.png"" style=""width:200px; border:14px solid green;"">","null","","","","","","","","","",""
"","image-keyboard-response","292","199171","0.0-343.0","3F6HPJW4JEMBIRLA691HFBRU07HW29","AKX4H8RT7BL7H","3WPCIUYH1AU470H2HRBLZRFBM95TDS","","119.5","img/food2.png","74","121.40000057220459","1","1","1","2","1,0.7,0,1,0.7,0,0.7,0,1","1,0.7,0,1,0.7,0,0.7,0,1","1","false",""
"","html-keyboard-response","293","199477","0.0-344.0","3F6HPJW4JEMBIRLA691HFBRU07HW29","AKX4H8RT7BL7H","3WPCIUYH1AU470H2HRBLZRFBM95TDS","","null","<img src=""img/food2.png"" style=""width:200px; border:14px solid green;"">","null","","","","","","","","","",""
"","image-keyboard-response","294","199997","0.0-346.0","3F6HPJW4JEMBIRLA691HFBRU07HW29","AKX4H8RT7BL7H","3WPCIUYH1AU470H2HRBLZRFBM95TDS","","518.5","img/food1.png","74","519.6000003814697","1","1","3","2","1,0.7,0,1,0.7,0,0.7,0,1","1,0.7,0,1,0.7,0,0.7,0,1","1","false",""
"","html-keyboard-response","295","200304","0.0-347.0","3F6HPJW4JEMBIRLA691HFBRU07HW29","AKX4H8RT7BL7H","3WPCIUYH1AU470H2HRBLZRFBM95TDS","","null","<img src=""img/food1.png"" style=""width:200px; border:14px solid green;"">","null","","","","","","","","","",""
"","image-keyboard-response","296","200400","0.0-349.0","3F6HPJW4JEMBIRLA691HFBRU07HW29","AKX4H8RT7BL7H","3WPCIUYH1AU470H2HRBLZRFBM95TDS","","93.39999961853027","img/food1.png","74","95.39999961853027","1","1","3","2","1,0.7,0,1,0.7,0,0.7,0,1","1,0.7,0,1,0.7,0,0.7,0,1","1","false",""
"","html-keyboard-response","297","200705","0.0-350.0","3F6HPJW4JEMBIRLA691HFBRU07HW29","AKX4H8RT7BL7H","3WPCIUYH1AU470H2HRBLZRFBM95TDS","","null","<img src=""img/food1.png"" style=""width:200px; border:14px solid green;"">","null","","","","","","","","","",""
"","image-keyboard-response","298","200933","0.0-352.0","3F6HPJW4JEMBIRLA691HFBRU07HW29","AKX4H8RT7BL7H","3WPCIUYH1AU470H2HRBLZRFBM95TDS","","225","img/food1.png","74","227","1","1","3","2","1,0.7,0,1,0.7,0,0.7,0,1","1,0.7,0,1,0.7,0,0.7,0,1","1","false",""
"","html-keyboard-response","299","201236","0.0-353.0","3F6HPJW4JEMBIRLA691HFBRU07HW29","AKX4H8RT7BL7H","3WPCIUYH1AU470H2HRBLZRFBM95TDS","","null","<img src=""img/food1.png"" style=""width:200px; border:14px solid green;"">","null","","","","","","","","","",""
"","image-keyboard-response","300","201387","0.0-355.0","3F6HPJW4JEMBIRLA691HFBRU07HW29","AKX4H8RT7BL7H","3WPCIUYH1AU470H2HRBLZRFBM95TDS","","149","img/food5.png","74","150.39999961853027","1","1","2","2","1,0.7,0,1,0.7,0,0.7,0,1","1,0.7,0,1,0.7,0,0.7,0,1","1","false",""
"","html-keyboard-response","301","201692","0.0-356.0","3F6HPJW4JEMBIRLA691HFBRU07HW29","AKX4H8RT7BL7H","3WPCIUYH1AU470H2HRBLZRFBM95TDS","","null","<img src=""img/food5.png"" style=""width:200px; border:14px solid green;"">","null","","","","","","","","","",""
"","image-keyboard-response","302","201885","0.0-358.0","3F6HPJW4JEMBIRLA691HFBRU07HW29","AKX4H8RT7BL7H","3WPCIUYH1AU470H2HRBLZRFBM95TDS","","189.0999994277954","img/food5.png","76","189.89999961853027","3","0","2","2","1,0.7,0,1,0.7,0,0.7,0,1","1,0.7,0,1,0.7,0,0.7,0,1","1","false",""
"","html-keyboard-response","303","202188","0.0-359.0","3F6HPJW4JEMBIRLA691HFBRU07HW29","AKX4H8RT7BL7H","3WPCIUYH1AU470H2HRBLZRFBM95TDS","","null","<img src=""img/food5.png"" style=""width:200px;border:14px solid red;"">","null","","","","","","","","","",""
"","image-keyboard-response","304","202322","0.0-361.0","3F6HPJW4JEMBIRLA691HFBRU07HW29","AKX4H8RT7BL7H","3WPCIUYH1AU470H2HRBLZRFBM95TDS","","131","img/food5.png","74","133.10000038146973","1","1","2","2","1,0.7,0,1,0.7,0,0.7,0,1","1,0.7,0,1,0.7,0,0.7,0,1","1","false",""
"","html-keyboard-response","305","202626","0.0-362.0","3F6HPJW4JEMBIRLA691HFBRU07HW29","AKX4H8RT7BL7H","3WPCIUYH1AU470H2HRBLZRFBM95TDS","","null","<img src=""img/food5.png"" style=""width:200px; border:14px solid green;"">","null","","","","","","","","","",""
"","image-keyboard-response","306","202722","0.0-364.0","3F6HPJW4JEMBIRLA691HFBRU07HW29","AKX4H8RT7BL7H","3WPCIUYH1AU470H2HRBLZRFBM95TDS","","93.60000038146973","img/food2.png","74","95.59999942779541","1","1","1","2","1,0.7,0,1,0.7,0,0.7,0,1","1,0.7,0,1,0.7,0,0.7,0,1","1","false",""
"","html-keyboard-response","307","203025","0.0-365.0","3F6HPJW4JEMBIRLA691HFBRU07HW29","AKX4H8RT7BL7H","3WPCIUYH1AU470H2HRBLZRFBM95TDS","","null","<img src=""img/food2.png"" style=""width:200px; border:14px solid green;"">","null","","","","","","","","","",""
"","image-keyboard-response","308","203315","0.0-367.0","3F6HPJW4JEMBIRLA691HFBRU07HW29","AKX4H8RT7BL7H","3WPCIUYH1AU470H2HRBLZRFBM95TDS","","287.70000076293945","img/food2.png","74","289.3999996185303","1","1","1","2","1,0.7,0,1,0.7,0,0.7,0,1","1,0.7,0,1,0.7,0,0.7,0,1","1","false",""
"","html-keyboard-response","309","203622","0.0-368.0","3F6HPJW4JEMBIRLA691HFBRU07HW29","AKX4H8RT7BL7H","3WPCIUYH1AU470H2HRBLZRFBM95TDS","","null","<img src=""img/food2.png"" style=""width:200px; border:14px solid green;"">","null","","","","","","","","","",""
"","image-keyboard-response","310","203728","0.0-370.0","3F6HPJW4JEMBIRLA691HFBRU07HW29","AKX4H8RT7BL7H","3WPCIUYH1AU470H2HRBLZRFBM95TDS","","105.10000038146973","img/food5.png","74","105.80000019073486","1","1","2","2","1,0.7,0,1,0.7,0,0.7,0,1","1,0.7,0,1,0.7,0,0.7,0,1","1","false",""
"","html-keyboard-response","311","204033","0.0-371.0","3F6HPJW4JEMBIRLA691HFBRU07HW29","AKX4H8RT7BL7H","3WPCIUYH1AU470H2HRBLZRFBM95TDS","","null","<img src=""img/food5.png"" style=""width:200px; border:14px solid green;"">","null","","","","","","","","","",""
"","image-keyboard-response","312","204172","0.0-373.0","3F6HPJW4JEMBIRLA691HFBRU07HW29","AKX4H8RT7BL7H","3WPCIUYH1AU470H2HRBLZRFBM95TDS","","135.5","img/food5.png","74","137.9000005722046","1","1","2","2","1,0.7,0,1,0.7,0,0.7,0,1","1,0.7,0,1,0.7,0,0.7,0,1","1","false",""
"","html-keyboard-response","313","204476","0.0-374.0","3F6HPJW4JEMBIRLA691HFBRU07HW29","AKX4H8RT7BL7H","3WPCIUYH1AU470H2HRBLZRFBM95TDS","","null","<img src=""img/food5.png"" style=""width:200px; border:14px solid green;"">","null","","","","","","","","","",""
"","image-keyboard-response","314","205157","0.0-376.0","3F6HPJW4JEMBIRLA691HFBRU07HW29","AKX4H8RT7BL7H","3WPCIUYH1AU470H2HRBLZRFBM95TDS","","678.8000001907349","img/food1.png","74","680.6000003814697","1","0","3","2","1,0.7,0,1,0.7,0,0.7,0,1","1,0.7,0,1,0.7,0,0.7,0,1","1","false",""
"","html-keyboard-response","315","205459","0.0-377.0","3F6HPJW4JEMBIRLA691HFBRU07HW29","AKX4H8RT7BL7H","3WPCIUYH1AU470H2HRBLZRFBM95TDS","","null","<img src=""img/food1.png"" style=""width:200px;border:14px solid red;"">","null","","","","","","","","","",""
"","image-keyboard-response","316","205585","0.0-379.0","3F6HPJW4JEMBIRLA691HFBRU07HW29","AKX4H8RT7BL7H","3WPCIUYH1AU470H2HRBLZRFBM95TDS","","124.79999923706055","img/food1.png","74","125.80000019073486","1","1","3","2","1,0.7,0,1,0.7,0,0.7,0,1","1,0.7,0,1,0.7,0,0.7,0,1","1","false",""
"","html-keyboard-response","317","205887","0.0-380.0","3F6HPJW4JEMBIRLA691HFBRU07HW29","AKX4H8RT7BL7H","3WPCIUYH1AU470H2HRBLZRFBM95TDS","","null","<img src=""img/food1.png"" style=""width:200px; border:14px solid green;"">","null","","","","","","","","","",""
"","image-keyboard-response","318","206079","0.0-382.0","3F6HPJW4JEMBIRLA691HFBRU07HW29","AKX4H8RT7BL7H","3WPCIUYH1AU470H2HRBLZRFBM95TDS","","190.39999961853027","img/food2.png","74","191.19999980926514","1","1","1","2","1,0.7,0,1,0.7,0,0.7,0,1","1,0.7,0,1,0.7,0,0.7,0,1","1","false",""
"","html-keyboard-response","319","206382","0.0-383.0","3F6HPJW4JEMBIRLA691HFBRU07HW29","AKX4H8RT7BL7H","3WPCIUYH1AU470H2HRBLZRFBM95TDS","","null","<img src=""img/food2.png"" style=""width:200px; border:14px solid green;"">","null","","","","","","","","","",""
"","image-keyboard-response","320","206457","0.0-385.0","3F6HPJW4JEMBIRLA691HFBRU07HW29","AKX4H8RT7BL7H","3WPCIUYH1AU470H2HRBLZRFBM95TDS","","72.39999961853027","img/food5.png","74","74.5","1","1","2","2","1,0.7,0,1,0.7,0,0.7,0,1","1,0.7,0,1,0.7,0,0.7,0,1","1","false",""
"","html-keyboard-response","321","206762","0.0-386.0","3F6HPJW4JEMBIRLA691HFBRU07HW29","AKX4H8RT7BL7H","3WPCIUYH1AU470H2HRBLZRFBM95TDS","","null","<img src=""img/food5.png"" style=""width:200px; border:14px solid green;"">","null","","","","","","","","","",""
"","image-keyboard-response","322","206984","0.0-388.0","3F6HPJW4JEMBIRLA691HFBRU07HW29","AKX4H8RT7BL7H","3WPCIUYH1AU470H2HRBLZRFBM95TDS","","219.60000038146973","img/food5.png","74","221.60000038146973","1","1","2","2","1,0.7,0,1,0.7,0,0.7,0,1","1,0.7,0,1,0.7,0,0.7,0,1","1","false",""
"","html-keyboard-response","323","207291","0.0-389.0","3F6HPJW4JEMBIRLA691HFBRU07HW29","AKX4H8RT7BL7H","3WPCIUYH1AU470H2HRBLZRFBM95TDS","","null","<img src=""img/food5.png"" style=""width:200px; border:14px solid green;"">","null","","","","","","","","","",""
"","image-keyboard-response","324","207437","0.0-391.0","3F6HPJW4JEMBIRLA691HFBRU07HW29","AKX4H8RT7BL7H","3WPCIUYH1AU470H2HRBLZRFBM95TDS","","145.4000005722046","img/food5.png","74","145.69999980926514","1","1","2","2","1,0.7,0,1,0.7,0,0.7,0,1","1,0.7,0,1,0.7,0,0.7,0,1","1","false",""
"","html-keyboard-response","325","207739","0.0-392.0","3F6HPJW4JEMBIRLA691HFBRU07HW29","AKX4H8RT7BL7H","3WPCIUYH1AU470H2HRBLZRFBM95TDS","","null","<img src=""img/food5.png"" style=""width:200px; border:14px solid green;"">","null","","","","","","","","","",""
"","image-keyboard-response","326","208295","0.0-394.0","3F6HPJW4JEMBIRLA691HFBRU07HW29","AKX4H8RT7BL7H","3WPCIUYH1AU470H2HRBLZRFBM95TDS","","554.3000001907349","img/food1.png","74","555.5","1","0","3","2","1,0.7,0,1,0.7,0,0.7,0,1","1,0.7,0,1,0.7,0,0.7,0,1","1","false",""
"","html-keyboard-response","327","208600","0.0-395.0","3F6HPJW4JEMBIRLA691HFBRU07HW29","AKX4H8RT7BL7H","3WPCIUYH1AU470H2HRBLZRFBM95TDS","","null","<img src=""img/food1.png"" style=""width:200px;border:14px solid red;"">","null","","","","","","","","","",""
"","image-keyboard-response","328","208922","0.0-397.0","3F6HPJW4JEMBIRLA691HFBRU07HW29","AKX4H8RT7BL7H","3WPCIUYH1AU470H2HRBLZRFBM95TDS","","320","img/food5.png","74","321.5","1","1","2","2","1,0.7,0,1,0.7,0,0.7,0,1","1,0.7,0,1,0.7,0,0.7,0,1","1","false",""
"","html-keyboard-response","329","209229","0.0-398.0","3F6HPJW4JEMBIRLA691HFBRU07HW29","AKX4H8RT7BL7H","3WPCIUYH1AU470H2HRBLZRFBM95TDS","","null","<img src=""img/food5.png"" style=""width:200px; border:14px solid green;"">","null","","","","","","","","","",""
"","image-keyboard-response","330","209441","0.0-400.0","3F6HPJW4JEMBIRLA691HFBRU07HW29","AKX4H8RT7BL7H","3WPCIUYH1AU470H2HRBLZRFBM95TDS","","211","img/food1.png","74","212.19999980926514","1","0","3","2","1,0.7,0,1,0.7,0,0.7,0,1","1,0.7,0,1,0.7,0,0.7,0,1","1","false",""
"","html-keyboard-response","331","209747","0.0-401.0","3F6HPJW4JEMBIRLA691HFBRU07HW29","AKX4H8RT7BL7H","3WPCIUYH1AU470H2HRBLZRFBM95TDS","","null","<img src=""img/food1.png"" style=""width:200px;border:14px solid red;"">","null","","","","","","","","","",""
"","image-keyboard-response","332","210061","0.0-403.0","3F6HPJW4JEMBIRLA691HFBRU07HW29","AKX4H8RT7BL7H","3WPCIUYH1AU470H2HRBLZRFBM95TDS","","312.79999923706055","img/food2.png","74","314","1","1","1","2","1,0.7,0,1,0.7,0,0.7,0,1","1,0.7,0,1,0.7,0,0.7,0,1","1","false",""
"","html-keyboard-response","333","210369","0.0-404.0","3F6HPJW4JEMBIRLA691HFBRU07HW29","AKX4H8RT7BL7H","3WPCIUYH1AU470H2HRBLZRFBM95TDS","","null","<img src=""img/food2.png"" style=""width:200px; border:14px solid green;"">","null","","","","","","","","","",""
"","image-keyboard-response","334","210591","0.0-406.0","3F6HPJW4JEMBIRLA691HFBRU07HW29","AKX4H8RT7BL7H","3WPCIUYH1AU470H2HRBLZRFBM95TDS","","220","img/food5.png","74","222.19999980926514","1","1","2","2","1,0.7,0,1,0.7,0,0.7,0,1","1,0.7,0,1,0.7,0,0.7,0,1","1","false",""
"","html-keyboard-response","335","210900","0.0-407.0","3F6HPJW4JEMBIRLA691HFBRU07HW29","AKX4H8RT7BL7H","3WPCIUYH1AU470H2HRBLZRFBM95TDS","","null","<img src=""img/food5.png"" style=""width:200px; border:14px solid green;"">","null","","","","","","","","","",""
"","image-keyboard-response","336","211087","0.0-409.0","3F6HPJW4JEMBIRLA691HFBRU07HW29","AKX4H8RT7BL7H","3WPCIUYH1AU470H2HRBLZRFBM95TDS","","184.60000038146973","img/food5.png","74","186.5","1","1","2","2","1,0.7,0,1,0.7,0,0.7,0,1","1,0.7,0,1,0.7,0,0.7,0,1","1","false",""
"","html-keyboard-response","337","211394","0.0-410.0","3F6HPJW4JEMBIRLA691HFBRU07HW29","AKX4H8RT7BL7H","3WPCIUYH1AU470H2HRBLZRFBM95TDS","","null","<img src=""img/food5.png"" style=""width:200px; border:14px solid green;"">","null","","","","","","","","","",""
"","image-keyboard-response","338","211614","0.0-412.0","3F6HPJW4JEMBIRLA691HFBRU07HW29","AKX4H8RT7BL7H","3WPCIUYH1AU470H2HRBLZRFBM95TDS","","219.5","img/food1.png","74","220.30000019073486","1","0","3","2","1,0.7,0,1,0.7,0,0.7,0,1","1,0.7,0,1,0.7,0,0.7,0,1","1","false",""
"","html-keyboard-response","339","211921","0.0-413.0","3F6HPJW4JEMBIRLA691HFBRU07HW29","AKX4H8RT7BL7H","3WPCIUYH1AU470H2HRBLZRFBM95TDS","","null","<img src=""img/food1.png"" style=""width:200px;border:14px solid red;"">","null","","","","","","","","","",""
"","image-keyboard-response","340","212140","0.0-415.0","3F6HPJW4JEMBIRLA691HFBRU07HW29","AKX4H8RT7BL7H","3WPCIUYH1AU470H2HRBLZRFBM95TDS","","215.69999980926514","img/food1.png","74","217.9000005722046","1","1","3","2","1,0.7,0,1,0.7,0,0.7,0,1","1,0.7,0,1,0.7,0,0.7,0,1","1","false",""
"","html-keyboard-response","341","212444","0.0-416.0","3F6HPJW4JEMBIRLA691HFBRU07HW29","AKX4H8RT7BL7H","3WPCIUYH1AU470H2HRBLZRFBM95TDS","","null","<img src=""img/food1.png"" style=""width:200px; border:14px solid green;"">","null","","","","","","","","","",""
"","image-keyboard-response","342","212590","0.0-418.0","3F6HPJW4JEMBIRLA691HFBRU07HW29","AKX4H8RT7BL7H","3WPCIUYH1AU470H2HRBLZRFBM95TDS","","143.89999961853027","img/food1.png","74","146.10000038146973","1","1","3","2","1,0.7,0,1,0.7,0,0.7,0,1","1,0.7,0,1,0.7,0,0.7,0,1","1","false",""
"","html-keyboard-response","343","212898","0.0-419.0","3F6HPJW4JEMBIRLA691HFBRU07HW29","AKX4H8RT7BL7H","3WPCIUYH1AU470H2HRBLZRFBM95TDS","","null","<img src=""img/food1.png"" style=""width:200px; border:14px solid green;"">","null","","","","","","","","","",""
"","image-keyboard-response","344","213087","0.0-421.0","3F6HPJW4JEMBIRLA691HFBRU07HW29","AKX4H8RT7BL7H","3WPCIUYH1AU470H2HRBLZRFBM95TDS","","185.89999961853027","img/food2.png","74","187.89999961853027","1","1","1","2","1,0.7,0,1,0.7,0,0.7,0,1","1,0.7,0,1,0.7,0,0.7,0,1","1","false",""
"","html-keyboard-response","345","213394","0.0-422.0","3F6HPJW4JEMBIRLA691HFBRU07HW29","AKX4H8RT7BL7H","3WPCIUYH1AU470H2HRBLZRFBM95TDS","","null","<img src=""img/food2.png"" style=""width:200px; border:14px solid green;"">","null","","","","","","","","","",""
"","image-keyboard-response","346","213557","0.0-424.0","3F6HPJW4JEMBIRLA691HFBRU07HW29","AKX4H8RT7BL7H","3WPCIUYH1AU470H2HRBLZRFBM95TDS","","161.5","img/food5.png","74","162.80000019073486","1","1","2","2","1,0.7,0,1,0.7,0,0.7,0,1","1,0.7,0,1,0.7,0,0.7,0,1","1","false",""
"","html-keyboard-response","347","213864","0.0-425.0","3F6HPJW4JEMBIRLA691HFBRU07HW29","AKX4H8RT7BL7H","3WPCIUYH1AU470H2HRBLZRFBM95TDS","","null","<img src=""img/food5.png"" style=""width:200px; border:14px solid green;"">","null","","","","","","","","","",""
"","image-keyboard-response","348","213968","0.0-427.0","3F6HPJW4JEMBIRLA691HFBRU07HW29","AKX4H8RT7BL7H","3WPCIUYH1AU470H2HRBLZRFBM95TDS","","102.09999942779541","img/food2.png","74","103.60000038146973","1","1","1","2","1,0.7,0,1,0.7,0,0.7,0,1","1,0.7,0,1,0.7,0,0.7,0,1","1","false",""
"","html-keyboard-response","349","214273","0.0-428.0","3F6HPJW4JEMBIRLA691HFBRU07HW29","AKX4H8RT7BL7H","3WPCIUYH1AU470H2HRBLZRFBM95TDS","","null","<img src=""img/food2.png"" style=""width:200px; border:14px solid green;"">","null","","","","","","","","","",""
"","image-keyboard-response","350","214400","0.0-430.0","3F6HPJW4JEMBIRLA691HFBRU07HW29","AKX4H8RT7BL7H","3WPCIUYH1AU470H2HRBLZRFBM95TDS","","123.59999942779541","img/food2.png","74","125.89999961853027","1","1","1","2","1,0.7,0,1,0.7,0,0.7,0,1","1,0.7,0,1,0.7,0,0.7,0,1","1","false",""
"","html-keyboard-response","351","214707","0.0-431.0","3F6HPJW4JEMBIRLA691HFBRU07HW29","AKX4H8RT7BL7H","3WPCIUYH1AU470H2HRBLZRFBM95TDS","","null","<img src=""img/food2.png"" style=""width:200px; border:14px solid green;"">","null","","","","","","","","","",""
"","image-keyboard-response","352","214943","0.0-433.0","3F6HPJW4JEMBIRLA691HFBRU07HW29","AKX4H8RT7BL7H","3WPCIUYH1AU470H2HRBLZRFBM95TDS","","234.9000005722046","img/food2.png","74","236.5","1","1","1","2","1,0.7,0,1,0.7,0,0.7,0,1","1,0.7,0,1,0.7,0,0.7,0,1","1","false",""
"","html-keyboard-response","353","215248","0.0-434.0","3F6HPJW4JEMBIRLA691HFBRU07HW29","AKX4H8RT7BL7H","3WPCIUYH1AU470H2HRBLZRFBM95TDS","","null","<img src=""img/food2.png"" style=""width:200px; border:14px solid green;"">","null","","","","","","","","","",""
"","image-keyboard-response","354","215378","0.0-436.0","3F6HPJW4JEMBIRLA691HFBRU07HW29","AKX4H8RT7BL7H","3WPCIUYH1AU470H2HRBLZRFBM95TDS","","127.69999980926514","img/food1.png","74","129","1","1","3","2","1,0.7,0,1,0.7,0,0.7,0,1","1,0.7,0,1,0.7,0,0.7,0,1","1","false",""
"","html-keyboard-response","355","215681","0.0-437.0","3F6HPJW4JEMBIRLA691HFBRU07HW29","AKX4H8RT7BL7H","3WPCIUYH1AU470H2HRBLZRFBM95TDS","","null","<img src=""img/food1.png"" style=""width:200px; border:14px solid green;"">","null","","","","","","","","","",""
"","image-keyboard-response","356","215837","0.0-439.0","3F6HPJW4JEMBIRLA691HFBRU07HW29","AKX4H8RT7BL7H","3WPCIUYH1AU470H2HRBLZRFBM95TDS","","155.10000038146973","img/food1.png","74","155.70000076293945","1","0","3","2","1,0.7,0,1,0.7,0,0.7,0,1","1,0.7,0,1,0.7,0,0.7,0,1","1","false",""
"","html-keyboard-response","357","216140","0.0-440.0","3F6HPJW4JEMBIRLA691HFBRU07HW29","AKX4H8RT7BL7H","3WPCIUYH1AU470H2HRBLZRFBM95TDS","","null","<img src=""img/food1.png"" style=""width:200px;border:14px solid red;"">","null","","","","","","","","","",""
"","image-keyboard-response","358","216534","0.0-442.0","3F6HPJW4JEMBIRLA691HFBRU07HW29","AKX4H8RT7BL7H","3WPCIUYH1AU470H2HRBLZRFBM95TDS","","390.9000005722046","img/food2.png","74","393.29999923706055","1","1","1","2","1,0.7,0,1,0.7,0,0.7,0,1","1,0.7,0,1,0.7,0,0.7,0,1","1","false",""
"","html-keyboard-response","359","216840","0.0-443.0","3F6HPJW4JEMBIRLA691HFBRU07HW29","AKX4H8RT7BL7H","3WPCIUYH1AU470H2HRBLZRFBM95TDS","","null","<img src=""img/food2.png"" style=""width:200px; border:14px solid green;"">","null","","","","","","","","","",""
"","image-keyboard-response","360","217069","0.0-445.0","3F6HPJW4JEMBIRLA691HFBRU07HW29","AKX4H8RT7BL7H","3WPCIUYH1AU470H2HRBLZRFBM95TDS","","225.89999961853027","img/food2.png","74","227.9000005722046","1","1","1","2","1,0.7,0,1,0.7,0,0.7,0,1","1,0.7,0,1,0.7,0,0.7,0,1","1","false",""
"","html-keyboard-response","361","217376","0.0-446.0","3F6HPJW4JEMBIRLA691HFBRU07HW29","AKX4H8RT7BL7H","3WPCIUYH1AU470H2HRBLZRFBM95TDS","","null","<img src=""img/food2.png"" style=""width:200px; border:14px solid green;"">","null","","","","","","","","","",""
"","image-keyboard-response","362","217785","0.0-448.0","3F6HPJW4JEMBIRLA691HFBRU07HW29","AKX4H8RT7BL7H","3WPCIUYH1AU470H2HRBLZRFBM95TDS","","409.1000003814697","img/food5.png","74","409.6000003814697","1","1","2","2","1,0.7,0,1,0.7,0,0.7,0,1","1,0.7,0,1,0.7,0,0.7,0,1","1","false",""
"","html-keyboard-response","363","218092","0.0-449.0","3F6HPJW4JEMBIRLA691HFBRU07HW29","AKX4H8RT7BL7H","3WPCIUYH1AU470H2HRBLZRFBM95TDS","","null","<img src=""img/food5.png"" style=""width:200px; border:14px solid green;"">","null","","","","","","","","","",""
"","image-keyboard-response","364","218236","0.0-451.0","3F6HPJW4JEMBIRLA691HFBRU07HW29","AKX4H8RT7BL7H","3WPCIUYH1AU470H2HRBLZRFBM95TDS","","142.30000019073486","img/food5.png","74","144","1","1","2","2","1,0.7,0,1,0.7,0,0.7,0,1","1,0.7,0,1,0.7,0,0.7,0,1","1","false",""
"","html-keyboard-response","365","218545","0.0-452.0","3F6HPJW4JEMBIRLA691HFBRU07HW29","AKX4H8RT7BL7H","3WPCIUYH1AU470H2HRBLZRFBM95TDS","","null","<img src=""img/food5.png"" style=""width:200px; border:14px solid green;"">","null","","","","","","","","","",""
"","instructions","366","224773","0.0-454.0","3F6HPJW4JEMBIRLA691HFBRU07HW29","AKX4H8RT7BL7H","3WPCIUYH1AU470H2HRBLZRFBM95TDS","[{""page_index"":0,""viewing_time"":6226.800000190735}]","6227.099999427795","","","","","","","","","","","",""
"","survey-text","367","231307","0.0-455.0","3F6HPJW4JEMBIRLA691HFBRU07HW29","AKX4H8RT7BL7H","3WPCIUYH1AU470H2HRBLZRFBM95TDS","","6530.300000190735","","","","","","","","","","","","{""Q0"":""AKX4H8RT7BL7H""}"
