"success","trial_type","trial_index","time_elapsed","internal_node_id","assignmentID","mturkID","hitID","view_history","rt","stimulus","key_press","reactionTime","a","r","s","cond","reward_cond","reward_cond_actual","reward_matrix_idx","warning","responses"
"true","fullscreen","0","2556","0.0-0.0","3N2BF7Y2VRGJS5UELSY1THV5SIJMHD","ALVNMQMD3Q3ZE","3THR0FZ95PF7SK0MYRNAOUHTWDJOLG","","","","","","","","","","","","","",""
"","instructions","1","34387","0.0-1.0","3N2BF7Y2VRGJS5UELSY1THV5SIJMHD","ALVNMQMD3Q3ZE","3THR0FZ95PF7SK0MYRNAOUHTWDJOLG","[{""page_index"":0,""viewing_time"":6467.800000190735},{""page_index"":1,""viewing_time"":3038.7999999523163},{""page_index"":2,""viewing_time"":4530},{""page_index"":3,""viewing_time"":7422},{""page_index"":4,""viewing_time"":5468.700000047684},{""page_index"":5,""viewing_time"":3402.5999999046326},{""page_index"":6,""viewing_time"":1498.5}]","31828.800000190735","","","","","","","","","","","",""
"","image-keyboard-response","2","36516","0.0-2.0","3N2BF7Y2VRGJS5UELSY1THV5SIJMHD","ALVNMQMD3Q3ZE","3THR0FZ95PF7SK0MYRNAOUHTWDJOLG","","2127","img/food5.png","74","2128.7000000476837","1","1","2","1","1,0.5,0,1,0.5,0,0.5,0,1","1,0.5,0,1,0.5,0,0.5,0,1","1","",""
"","html-keyboard-response","3","36819","0.0-3.0","3N2BF7Y2VRGJS5UELSY1THV5SIJMHD","ALVNMQMD3Q3ZE","3THR0FZ95PF7SK0MYRNAOUHTWDJOLG","","null","<img src=""img/food5.png"" style=""width:200px; border:14px solid green;"">","null","","","","","","","","","",""
"","image-keyboard-response","4","39076","0.0-4.0","3N2BF7Y2VRGJS5UELSY1THV5SIJMHD","ALVNMQMD3Q3ZE","3THR0FZ95PF7SK0MYRNAOUHTWDJOLG","","2254.699999809265","img/food3.png","75","2256.2000000476837","2","0","3","1","1,0.5,0,1,0.5,0,0.5,0,1","1,0.5,0,1,0.5,0,0.5,0,1","1","",""
"","html-keyboard-response","5","39378","0.0-5.0","3N2BF7Y2VRGJS5UELSY1THV5SIJMHD","ALVNMQMD3Q3ZE","3THR0FZ95PF7SK0MYRNAOUHTWDJOLG","","null","<img src=""img/food3.png"" style=""width:200px;border:14px solid red;"">","null","","","","","","","","","",""
"","image-keyboard-response","6","39673","0.0-6.0","3N2BF7Y2VRGJS5UELSY1THV5SIJMHD","ALVNMQMD3Q3ZE","3THR0FZ95PF7SK0MYRNAOUHTWDJOLG","","292.7999999523163","img/food3.png","74","293.90000009536743","1","1","3","1","1,0.5,0,1,0.5,0,0.5,0,1","1,0.5,0,1,0.5,0,0.5,0,1","1","",""
"","html-keyboard-response","7","39974","0.0-7.0","3N2BF7Y2VRGJS5UELSY1THV5SIJMHD","ALVNMQMD3Q3ZE","3THR0FZ95PF7SK0MYRNAOUHTWDJOLG","","null","<img src=""img/food3.png"" style=""width:200px; border:14px solid green;"">","null","","","","","","","","","",""
"","image-keyboard-response","8","41787","0.0-8.0","3N2BF7Y2VRGJS5UELSY1THV5SIJMHD","ALVNMQMD3Q3ZE","3THR0FZ95PF7SK0MYRNAOUHTWDJOLG","","1811.5999999046326","img/food1.png","75","1812.6000001430511","2","1","1","1","1,0.5,0,1,0.5,0,0.5,0,1","1,0.5,0,1,0.5,0,0.5,0,1","1","",""
"","html-keyboard-response","9","42089","0.0-9.0","3N2BF7Y2VRGJS5UELSY1THV5SIJMHD","ALVNMQMD3Q3ZE","3THR0FZ95PF7SK0MYRNAOUHTWDJOLG","","null","<img src=""img/food1.png"" style=""width:200px; border:14px solid green;"">","null","","","","","","","","","",""
"","image-keyboard-response","10","43325","0.0-10.0","3N2BF7Y2VRGJS5UELSY1THV5SIJMHD","ALVNMQMD3Q3ZE","3THR0FZ95PF7SK0MYRNAOUHTWDJOLG","","1234.6000001430511","img/food3.png","74","1235.8000001907349","1","1","3","1","1,0.5,0,1,0.5,0,0.5,0,1","1,0.5,0,1,0.5,0,0.5,0,1","1","",""
"","html-keyboard-response","11","43628","0.0-11.0","3N2BF7Y2VRGJS5UELSY1THV5SIJMHD","ALVNMQMD3Q3ZE","3THR0FZ95PF7SK0MYRNAOUHTWDJOLG","","null","<img src=""img/food3.png"" style=""width:200px; border:14px solid green;"">","null","","","","","","","","","",""
"","image-keyboard-response","12","45074","0.0-12.0","3N2BF7Y2VRGJS5UELSY1THV5SIJMHD","ALVNMQMD3Q3ZE","3THR0FZ95PF7SK0MYRNAOUHTWDJOLG","","1443.9000000953674","img/food3.png","74","1445.4000000953674","1","0","3","1","1,0.5,0,1,0.5,0,0.5,0,1","1,0.5,0,1,0.5,0,0.5,0,1","1","",""
"","html-keyboard-response","13","45377","0.0-13.0","3N2BF7Y2VRGJS5UELSY1THV5SIJMHD","ALVNMQMD3Q3ZE","3THR0FZ95PF7SK0MYRNAOUHTWDJOLG","","null","<img src=""img/food3.png"" style=""width:200px;border:14px solid red;"">","null","","","","","","","","","",""
"","image-keyboard-response","14","46233","0.0-14.0","3N2BF7Y2VRGJS5UELSY1THV5SIJMHD","ALVNMQMD3Q3ZE","3THR0FZ95PF7SK0MYRNAOUHTWDJOLG","","854.9000000953674","img/food1.png","75","855.8999998569489","2","1","1","1","1,0.5,0,1,0.5,0,0.5,0,1","1,0.5,0,1,0.5,0,0.5,0,1","1","",""
"","html-keyboard-response","15","46541","0.0-15.0","3N2BF7Y2VRGJS5UELSY1THV5SIJMHD","ALVNMQMD3Q3ZE","3THR0FZ95PF7SK0MYRNAOUHTWDJOLG","","null","<img src=""img/food1.png"" style=""width:200px; border:14px solid green;"">","null","","","","","","","","","",""
"","image-keyboard-response","16","47584","0.0-16.0","3N2BF7Y2VRGJS5UELSY1THV5SIJMHD","ALVNMQMD3Q3ZE","3THR0FZ95PF7SK0MYRNAOUHTWDJOLG","","1042.2000000476837","img/food1.png","75","1043","2","0","1","1","1,0.5,0,1,0.5,0,0.5,0,1","1,0.5,0,1,0.5,0,0.5,0,1","1","",""
"","html-keyboard-response","17","47885","0.0-17.0","3N2BF7Y2VRGJS5UELSY1THV5SIJMHD","ALVNMQMD3Q3ZE","3THR0FZ95PF7SK0MYRNAOUHTWDJOLG","","null","<img src=""img/food1.png"" style=""width:200px;border:14px solid red;"">","null","","","","","","","","","",""
"","image-keyboard-response","18","48650","0.0-18.0","3N2BF7Y2VRGJS5UELSY1THV5SIJMHD","ALVNMQMD3Q3ZE","3THR0FZ95PF7SK0MYRNAOUHTWDJOLG","","763.7000000476837","img/food3.png","74","764.5999999046326","1","0","3","1","1,0.5,0,1,0.5,0,0.5,0,1","1,0.5,0,1,0.5,0,0.5,0,1","1","",""
"","html-keyboard-response","19","48952","0.0-19.0","3N2BF7Y2VRGJS5UELSY1THV5SIJMHD","ALVNMQMD3Q3ZE","3THR0FZ95PF7SK0MYRNAOUHTWDJOLG","","null","<img src=""img/food3.png"" style=""width:200px;border:14px solid red;"">","null","","","","","","","","","",""
"","image-keyboard-response","20","50325","0.0-20.0","3N2BF7Y2VRGJS5UELSY1THV5SIJMHD","ALVNMQMD3Q3ZE","3THR0FZ95PF7SK0MYRNAOUHTWDJOLG","","1371.7000000476837","img/food3.png","76","1372.7999999523163","3","1","3","1","1,0.5,0,1,0.5,0,0.5,0,1","1,0.5,0,1,0.5,0,0.5,0,1","1","",""
"","html-keyboard-response","21","50626","0.0-21.0","3N2BF7Y2VRGJS5UELSY1THV5SIJMHD","ALVNMQMD3Q3ZE","3THR0FZ95PF7SK0MYRNAOUHTWDJOLG","","null","<img src=""img/food3.png"" style=""width:200px; border:14px solid green;"">","null","","","","","","","","","",""
"","image-keyboard-response","22","51387","0.0-22.0","3N2BF7Y2VRGJS5UELSY1THV5SIJMHD","ALVNMQMD3Q3ZE","3THR0FZ95PF7SK0MYRNAOUHTWDJOLG","","760","img/food1.png","76","760.8000001907349","3","0","1","1","1,0.5,0,1,0.5,0,0.5,0,1","1,0.5,0,1,0.5,0,0.5,0,1","1","",""
"","html-keyboard-response","23","51689","0.0-23.0","3N2BF7Y2VRGJS5UELSY1THV5SIJMHD","ALVNMQMD3Q3ZE","3THR0FZ95PF7SK0MYRNAOUHTWDJOLG","","null","<img src=""img/food1.png"" style=""width:200px;border:14px solid red;"">","null","","","","","","","","","",""
"","image-keyboard-response","24","51828","0.0-24.0","3N2BF7Y2VRGJS5UELSY1THV5SIJMHD","ALVNMQMD3Q3ZE","3THR0FZ95PF7SK0MYRNAOUHTWDJOLG","","137.30000019073486","img/food5.png","75","138.29999995231628","2","1","2","1","1,0.5,0,1,0.5,0,0.5,0,1","1,0.5,0,1,0.5,0,0.5,0,1","1","",""
"","html-keyboard-response","25","52130","0.0-25.0","3N2BF7Y2VRGJS5UELSY1THV5SIJMHD","ALVNMQMD3Q3ZE","3THR0FZ95PF7SK0MYRNAOUHTWDJOLG","","null","<img src=""img/food5.png"" style=""width:200px; border:14px solid green;"">","null","","","","","","","","","",""
"","image-keyboard-response","26","52827","0.0-26.0","3N2BF7Y2VRGJS5UELSY1THV5SIJMHD","ALVNMQMD3Q3ZE","3THR0FZ95PF7SK0MYRNAOUHTWDJOLG","","695.9000000953674","img/food5.png","75","696.6000001430511","2","0","2","1","1,0.5,0,1,0.5,0,0.5,0,1","1,0.5,0,1,0.5,0,0.5,0,1","1","",""
"","html-keyboard-response","27","53130","0.0-27.0","3N2BF7Y2VRGJS5UELSY1THV5SIJMHD","ALVNMQMD3Q3ZE","3THR0FZ95PF7SK0MYRNAOUHTWDJOLG","","null","<img src=""img/food5.png"" style=""width:200px;border:14px solid red;"">","null","","","","","","","","","",""
"","image-keyboard-response","28","53698","0.0-28.0","3N2BF7Y2VRGJS5UELSY1THV5SIJMHD","ALVNMQMD3Q3ZE","3THR0FZ95PF7SK0MYRNAOUHTWDJOLG","","567.4000000953674","img/food3.png","75","568.2000000476837","2","0","3","1","1,0.5,0,1,0.5,0,0.5,0,1","1,0.5,0,1,0.5,0,0.5,0,1","1","",""
"","html-keyboard-response","29","54013","0.0-29.0","3N2BF7Y2VRGJS5UELSY1THV5SIJMHD","ALVNMQMD3Q3ZE","3THR0FZ95PF7SK0MYRNAOUHTWDJOLG","","null","<img src=""img/food3.png"" style=""width:200px;border:14px solid red;"">","null","","","","","","","","","",""
"","image-keyboard-response","30","55596","0.0-30.0","3N2BF7Y2VRGJS5UELSY1THV5SIJMHD","ALVNMQMD3Q3ZE","3THR0FZ95PF7SK0MYRNAOUHTWDJOLG","","1581.3999998569489","img/food3.png","74","1582.5","1","0","3","1","1,0.5,0,1,0.5,0,0.5,0,1","1,0.5,0,1,0.5,0,0.5,0,1","1","",""
"","html-keyboard-response","31","55898","0.0-31.0","3N2BF7Y2VRGJS5UELSY1THV5SIJMHD","ALVNMQMD3Q3ZE","3THR0FZ95PF7SK0MYRNAOUHTWDJOLG","","null","<img src=""img/food3.png"" style=""width:200px;border:14px solid red;"">","null","","","","","","","","","",""
"","image-keyboard-response","32","56503","0.0-32.0","3N2BF7Y2VRGJS5UELSY1THV5SIJMHD","ALVNMQMD3Q3ZE","3THR0FZ95PF7SK0MYRNAOUHTWDJOLG","","604.3999998569489","img/food1.png","75","605.2999999523163","2","1","1","1","1,0.5,0,1,0.5,0,0.5,0,1","1,0.5,0,1,0.5,0,0.5,0,1","1","",""
"","html-keyboard-response","33","56806","0.0-33.0","3N2BF7Y2VRGJS5UELSY1THV5SIJMHD","ALVNMQMD3Q3ZE","3THR0FZ95PF7SK0MYRNAOUHTWDJOLG","","null","<img src=""img/food1.png"" style=""width:200px; border:14px solid green;"">","null","","","","","","","","","",""
"","image-keyboard-response","34","57556","0.0-34.0","3N2BF7Y2VRGJS5UELSY1THV5SIJMHD","ALVNMQMD3Q3ZE","3THR0FZ95PF7SK0MYRNAOUHTWDJOLG","","748.7999999523163","img/food5.png","75","749.4000000953674","2","1","2","1","1,0.5,0,1,0.5,0,0.5,0,1","1,0.5,0,1,0.5,0,0.5,0,1","1","",""
"","html-keyboard-response","35","57858","0.0-35.0","3N2BF7Y2VRGJS5UELSY1THV5SIJMHD","ALVNMQMD3Q3ZE","3THR0FZ95PF7SK0MYRNAOUHTWDJOLG","","null","<img src=""img/food5.png"" style=""width:200px; border:14px solid green;"">","null","","","","","","","","","",""
"","image-keyboard-response","36","58588","0.0-36.0","3N2BF7Y2VRGJS5UELSY1THV5SIJMHD","ALVNMQMD3Q3ZE","3THR0FZ95PF7SK0MYRNAOUHTWDJOLG","","729.6999998092651","img/food3.png","75","730.5999999046326","2","0","3","1","1,0.5,0,1,0.5,0,0.5,0,1","1,0.5,0,1,0.5,0,0.5,0,1","1","",""
"","html-keyboard-response","37","58892","0.0-37.0","3N2BF7Y2VRGJS5UELSY1THV5SIJMHD","ALVNMQMD3Q3ZE","3THR0FZ95PF7SK0MYRNAOUHTWDJOLG","","null","<img src=""img/food3.png"" style=""width:200px;border:14px solid red;"">","null","","","","","","","","","",""
"","image-keyboard-response","38","59107","0.0-38.0","3N2BF7Y2VRGJS5UELSY1THV5SIJMHD","ALVNMQMD3Q3ZE","3THR0FZ95PF7SK0MYRNAOUHTWDJOLG","","213.89999985694885","img/food3.png","74","214.89999985694885","1","1","3","1","1,0.5,0,1,0.5,0,0.5,0,1","1,0.5,0,1,0.5,0,0.5,0,1","1","",""
"","html-keyboard-response","39","59409","0.0-39.0","3N2BF7Y2VRGJS5UELSY1THV5SIJMHD","ALVNMQMD3Q3ZE","3THR0FZ95PF7SK0MYRNAOUHTWDJOLG","","null","<img src=""img/food3.png"" style=""width:200px; border:14px solid green;"">","null","","","","","","","","","",""
"","image-keyboard-response","40","60266","0.0-40.0","3N2BF7Y2VRGJS5UELSY1THV5SIJMHD","ALVNMQMD3Q3ZE","3THR0FZ95PF7SK0MYRNAOUHTWDJOLG","","856.7000000476837","img/food5.png","74","857.6000001430511","1","1","2","1","1,0.5,0,1,0.5,0,0.5,0,1","1,0.5,0,1,0.5,0,0.5,0,1","1","",""
"","html-keyboard-response","41","60569","0.0-41.0","3N2BF7Y2VRGJS5UELSY1THV5SIJMHD","ALVNMQMD3Q3ZE","3THR0FZ95PF7SK0MYRNAOUHTWDJOLG","","null","<img src=""img/food5.png"" style=""width:200px; border:14px solid green;"">","null","","","","","","","","","",""
"","image-keyboard-response","42","61330","0.0-42.0","3N2BF7Y2VRGJS5UELSY1THV5SIJMHD","ALVNMQMD3Q3ZE","3THR0FZ95PF7SK0MYRNAOUHTWDJOLG","","759.3999998569489","img/food1.png","74","761.5999999046326","1","1","1","1","1,0.5,0,1,0.5,0,0.5,0,1","1,0.5,0,1,0.5,0,0.5,0,1","1","",""
"","html-keyboard-response","43","61637","0.0-43.0","3N2BF7Y2VRGJS5UELSY1THV5SIJMHD","ALVNMQMD3Q3ZE","3THR0FZ95PF7SK0MYRNAOUHTWDJOLG","","null","<img src=""img/food1.png"" style=""width:200px; border:14px solid green;"">","null","","","","","","","","","",""
"","image-keyboard-response","44","62078","0.0-44.0","3N2BF7Y2VRGJS5UELSY1THV5SIJMHD","ALVNMQMD3Q3ZE","3THR0FZ95PF7SK0MYRNAOUHTWDJOLG","","440","img/food1.png","74","441.10000014305115","1","1","1","1","1,0.5,0,1,0.5,0,0.5,0,1","1,0.5,0,1,0.5,0,0.5,0,1","1","",""
"","html-keyboard-response","45","62381","0.0-45.0","3N2BF7Y2VRGJS5UELSY1THV5SIJMHD","ALVNMQMD3Q3ZE","3THR0FZ95PF7SK0MYRNAOUHTWDJOLG","","null","<img src=""img/food1.png"" style=""width:200px; border:14px solid green;"">","null","","","","","","","","","",""
"","image-keyboard-response","46","63217","0.0-46.0","3N2BF7Y2VRGJS5UELSY1THV5SIJMHD","ALVNMQMD3Q3ZE","3THR0FZ95PF7SK0MYRNAOUHTWDJOLG","","834.7000000476837","img/food5.png","74","835.5","1","1","2","1","1,0.5,0,1,0.5,0,0.5,0,1","1,0.5,0,1,0.5,0,0.5,0,1","1","",""
"","html-keyboard-response","47","63520","0.0-47.0","3N2BF7Y2VRGJS5UELSY1THV5SIJMHD","ALVNMQMD3Q3ZE","3THR0FZ95PF7SK0MYRNAOUHTWDJOLG","","null","<img src=""img/food5.png"" style=""width:200px; border:14px solid green;"">","null","","","","","","","","","",""
"","image-keyboard-response","48","63976","0.0-48.0","3N2BF7Y2VRGJS5UELSY1THV5SIJMHD","ALVNMQMD3Q3ZE","3THR0FZ95PF7SK0MYRNAOUHTWDJOLG","","455.2000000476837","img/food5.png","74","456.10000014305115","1","1","2","1","1,0.5,0,1,0.5,0,0.5,0,1","1,0.5,0,1,0.5,0,0.5,0,1","1","",""
"","html-keyboard-response","49","64279","0.0-49.0","3N2BF7Y2VRGJS5UELSY1THV5SIJMHD","ALVNMQMD3Q3ZE","3THR0FZ95PF7SK0MYRNAOUHTWDJOLG","","null","<img src=""img/food5.png"" style=""width:200px; border:14px solid green;"">","null","","","","","","","","","",""
"","image-keyboard-response","50","64811","0.0-50.0","3N2BF7Y2VRGJS5UELSY1THV5SIJMHD","ALVNMQMD3Q3ZE","3THR0FZ95PF7SK0MYRNAOUHTWDJOLG","","531.7999999523163","img/food1.png","74","532.5","1","1","1","1","1,0.5,0,1,0.5,0,0.5,0,1","1,0.5,0,1,0.5,0,0.5,0,1","1","",""
"","html-keyboard-response","51","65113","0.0-51.0","3N2BF7Y2VRGJS5UELSY1THV5SIJMHD","ALVNMQMD3Q3ZE","3THR0FZ95PF7SK0MYRNAOUHTWDJOLG","","null","<img src=""img/food1.png"" style=""width:200px; border:14px solid green;"">","null","","","","","","","","","",""
"","image-keyboard-response","52","65545","0.0-52.0","3N2BF7Y2VRGJS5UELSY1THV5SIJMHD","ALVNMQMD3Q3ZE","3THR0FZ95PF7SK0MYRNAOUHTWDJOLG","","431.59999990463257","img/food3.png","74","432.40000009536743","1","1","3","1","1,0.5,0,1,0.5,0,0.5,0,1","1,0.5,0,1,0.5,0,0.5,0,1","1","",""
"","html-keyboard-response","53","65847","0.0-53.0","3N2BF7Y2VRGJS5UELSY1THV5SIJMHD","ALVNMQMD3Q3ZE","3THR0FZ95PF7SK0MYRNAOUHTWDJOLG","","null","<img src=""img/food3.png"" style=""width:200px; border:14px solid green;"">","null","","","","","","","","","",""
"","image-keyboard-response","54","66224","0.0-54.0","3N2BF7Y2VRGJS5UELSY1THV5SIJMHD","ALVNMQMD3Q3ZE","3THR0FZ95PF7SK0MYRNAOUHTWDJOLG","","376.2999999523163","img/food5.png","74","376.89999985694885","1","1","2","1","1,0.5,0,1,0.5,0,0.5,0,1","1,0.5,0,1,0.5,0,0.5,0,1","1","",""
"","html-keyboard-response","55","66527","0.0-55.0","3N2BF7Y2VRGJS5UELSY1THV5SIJMHD","ALVNMQMD3Q3ZE","3THR0FZ95PF7SK0MYRNAOUHTWDJOLG","","null","<img src=""img/food5.png"" style=""width:200px; border:14px solid green;"">","null","","","","","","","","","",""
"","image-keyboard-response","56","66890","0.0-56.0","3N2BF7Y2VRGJS5UELSY1THV5SIJMHD","ALVNMQMD3Q3ZE","3THR0FZ95PF7SK0MYRNAOUHTWDJOLG","","362","img/food5.png","74","363","1","1","2","1","1,0.5,0,1,0.5,0,0.5,0,1","1,0.5,0,1,0.5,0,0.5,0,1","1","",""
"","html-keyboard-response","57","67191","0.0-57.0","3N2BF7Y2VRGJS5UELSY1THV5SIJMHD","ALVNMQMD3Q3ZE","3THR0FZ95PF7SK0MYRNAOUHTWDJOLG","","null","<img src=""img/food5.png"" style=""width:200px; border:14px solid green;"">","null","","","","","","","","","",""
"","image-keyboard-response","58","67571","0.0-58.0","3N2BF7Y2VRGJS5UELSY1THV5SIJMHD","ALVNMQMD3Q3ZE","3THR0FZ95PF7SK0MYRNAOUHTWDJOLG","","379.10000014305115","img/food3.png","74","379.80000019073486","1","1","3","1","1,0.5,0,1,0.5,0,0.5,0,1","1,0.5,0,1,0.5,0,0.5,0,1","1","",""
"","html-keyboard-response","59","67874","0.0-59.0","3N2BF7Y2VRGJS5UELSY1THV5SIJMHD","ALVNMQMD3Q3ZE","3THR0FZ95PF7SK0MYRNAOUHTWDJOLG","","null","<img src=""img/food3.png"" style=""width:200px; border:14px solid green;"">","null","","","","","","","","","",""
"","image-keyboard-response","60","68207","0.0-60.0","3N2BF7Y2VRGJS5UELSY1THV5SIJMHD","ALVNMQMD3Q3ZE","3THR0FZ95PF7SK0MYRNAOUHTWDJOLG","","331.39999985694885","img/food5.png","74","332.5","1","1","2","1","1,0.5,0,1,0.5,0,0.5,0,1","1,0.5,0,1,0.5,0,0.5,0,1","1","",""
"","html-keyboard-response","61","68509","0.0-61.0","3N2BF7Y2VRGJS5UELSY1THV5SIJMHD","ALVNMQMD3Q3ZE","3THR0FZ95PF7SK0MYRNAOUHTWDJOLG","","null","<img src=""img/food5.png"" style=""width:200px; border:14px solid green;"">","null","","","","","","","","","",""
"","image-keyboard-response","62","68821","0.0-62.0","3N2BF7Y2VRGJS5UELSY1THV5SIJMHD","ALVNMQMD3Q3ZE","3THR0FZ95PF7SK0MYRNAOUHTWDJOLG","","309.2000000476837","img/food1.png","74","311.40000009536743","1","1","1","1","1,0.5,0,1,0.5,0,0.5,0,1","1,0.5,0,1,0.5,0,0.5,0,1","1","",""
"","html-keyboard-response","63","69123","0.0-63.0","3N2BF7Y2VRGJS5UELSY1THV5SIJMHD","ALVNMQMD3Q3ZE","3THR0FZ95PF7SK0MYRNAOUHTWDJOLG","","null","<img src=""img/food1.png"" style=""width:200px; border:14px solid green;"">","null","","","","","","","","","",""
"","image-keyboard-response","64","69439","0.0-64.0","3N2BF7Y2VRGJS5UELSY1THV5SIJMHD","ALVNMQMD3Q3ZE","3THR0FZ95PF7SK0MYRNAOUHTWDJOLG","","315.10000014305115","img/food5.png","74","315.80000019073486","1","1","2","1","1,0.5,0,1,0.5,0,0.5,0,1","1,0.5,0,1,0.5,0,0.5,0,1","1","",""
"","html-keyboard-response","65","69741","0.0-65.0","3N2BF7Y2VRGJS5UELSY1THV5SIJMHD","ALVNMQMD3Q3ZE","3THR0FZ95PF7SK0MYRNAOUHTWDJOLG","","null","<img src=""img/food5.png"" style=""width:200px; border:14px solid green;"">","null","","","","","","","","","",""
"","image-keyboard-response","66","70040","0.0-66.0","3N2BF7Y2VRGJS5UELSY1THV5SIJMHD","ALVNMQMD3Q3ZE","3THR0FZ95PF7SK0MYRNAOUHTWDJOLG","","297.5","img/food5.png","74","298.2999999523163","1","1","2","1","1,0.5,0,1,0.5,0,0.5,0,1","1,0.5,0,1,0.5,0,0.5,0,1","1","",""
"","html-keyboard-response","67","70341","0.0-67.0","3N2BF7Y2VRGJS5UELSY1THV5SIJMHD","ALVNMQMD3Q3ZE","3THR0FZ95PF7SK0MYRNAOUHTWDJOLG","","null","<img src=""img/food5.png"" style=""width:200px; border:14px solid green;"">","null","","","","","","","","","",""
"","image-keyboard-response","68","70610","0.0-68.0","3N2BF7Y2VRGJS5UELSY1THV5SIJMHD","ALVNMQMD3Q3ZE","3THR0FZ95PF7SK0MYRNAOUHTWDJOLG","","267.90000009536743","img/food3.png","74","268.7999999523163","1","1","3","1","1,0.5,0,1,0.5,0,0.5,0,1","1,0.5,0,1,0.5,0,0.5,0,1","1","",""
"","html-keyboard-response","69","70914","0.0-69.0","3N2BF7Y2VRGJS5UELSY1THV5SIJMHD","ALVNMQMD3Q3ZE","3THR0FZ95PF7SK0MYRNAOUHTWDJOLG","","null","<img src=""img/food3.png"" style=""width:200px; border:14px solid green;"">","null","","","","","","","","","",""
"","image-keyboard-response","70","71223","0.0-70.0","3N2BF7Y2VRGJS5UELSY1THV5SIJMHD","ALVNMQMD3Q3ZE","3THR0FZ95PF7SK0MYRNAOUHTWDJOLG","","307.2000000476837","img/food1.png","74","308.10000014305115","1","1","1","1","1,0.5,0,1,0.5,0,0.5,0,1","1,0.5,0,1,0.5,0,0.5,0,1","1","",""
"","html-keyboard-response","71","71525","0.0-71.0","3N2BF7Y2VRGJS5UELSY1THV5SIJMHD","ALVNMQMD3Q3ZE","3THR0FZ95PF7SK0MYRNAOUHTWDJOLG","","null","<img src=""img/food1.png"" style=""width:200px; border:14px solid green;"">","null","","","","","","","","","",""
"","image-keyboard-response","72","71847","0.0-72.0","3N2BF7Y2VRGJS5UELSY1THV5SIJMHD","ALVNMQMD3Q3ZE","3THR0FZ95PF7SK0MYRNAOUHTWDJOLG","","320.7999999523163","img/food3.png","74","321.59999990463257","1","1","3","1","1,0.5,0,1,0.5,0,0.5,0,1","1,0.5,0,1,0.5,0,0.5,0,1","1","",""
"","html-keyboard-response","73","72148","0.0-73.0","3N2BF7Y2VRGJS5UELSY1THV5SIJMHD","ALVNMQMD3Q3ZE","3THR0FZ95PF7SK0MYRNAOUHTWDJOLG","","null","<img src=""img/food3.png"" style=""width:200px; border:14px solid green;"">","null","","","","","","","","","",""
"","image-keyboard-response","74","72366","0.0-74.0","3N2BF7Y2VRGJS5UELSY1THV5SIJMHD","ALVNMQMD3Q3ZE","3THR0FZ95PF7SK0MYRNAOUHTWDJOLG","","216.59999990463257","img/food5.png","74","217.40000009536743","1","1","2","1","1,0.5,0,1,0.5,0,0.5,0,1","1,0.5,0,1,0.5,0,0.5,0,1","1","",""
"","html-keyboard-response","75","72668","0.0-75.0","3N2BF7Y2VRGJS5UELSY1THV5SIJMHD","ALVNMQMD3Q3ZE","3THR0FZ95PF7SK0MYRNAOUHTWDJOLG","","null","<img src=""img/food5.png"" style=""width:200px; border:14px solid green;"">","null","","","","","","","","","",""
"","image-keyboard-response","76","72914","0.0-76.0","3N2BF7Y2VRGJS5UELSY1THV5SIJMHD","ALVNMQMD3Q3ZE","3THR0FZ95PF7SK0MYRNAOUHTWDJOLG","","244.80000019073486","img/food5.png","74","245.69999980926514","1","1","2","1","1,0.5,0,1,0.5,0,0.5,0,1","1,0.5,0,1,0.5,0,0.5,0,1","1","",""
"","html-keyboard-response","77","73218","0.0-77.0","3N2BF7Y2VRGJS5UELSY1THV5SIJMHD","ALVNMQMD3Q3ZE","3THR0FZ95PF7SK0MYRNAOUHTWDJOLG","","null","<img src=""img/food5.png"" style=""width:200px; border:14px solid green;"">","null","","","","","","","","","",""
"","image-keyboard-response","78","73365","0.0-78.0","3N2BF7Y2VRGJS5UELSY1THV5SIJMHD","ALVNMQMD3Q3ZE","3THR0FZ95PF7SK0MYRNAOUHTWDJOLG","","146.79999995231628","img/food3.png","74","147.59999990463257","1","1","3","1","1,0.5,0,1,0.5,0,0.5,0,1","1,0.5,0,1,0.5,0,0.5,0,1","1","",""
"","html-keyboard-response","79","73668","0.0-79.0","3N2BF7Y2VRGJS5UELSY1THV5SIJMHD","ALVNMQMD3Q3ZE","3THR0FZ95PF7SK0MYRNAOUHTWDJOLG","","null","<img src=""img/food3.png"" style=""width:200px; border:14px solid green;"">","null","","","","","","","","","",""
"","image-keyboard-response","80","73951","0.0-80.0","3N2BF7Y2VRGJS5UELSY1THV5SIJMHD","ALVNMQMD3Q3ZE","3THR0FZ95PF7SK0MYRNAOUHTWDJOLG","","282.59999990463257","img/food1.png","74","283.5","1","1","1","1","1,0.5,0,1,0.5,0,0.5,0,1","1,0.5,0,1,0.5,0,0.5,0,1","1","",""
"","html-keyboard-response","81","74267","0.0-81.0","3N2BF7Y2VRGJS5UELSY1THV5SIJMHD","ALVNMQMD3Q3ZE","3THR0FZ95PF7SK0MYRNAOUHTWDJOLG","","null","<img src=""img/food1.png"" style=""width:200px; border:14px solid green;"">","null","","","","","","","","","",""
"","image-keyboard-response","82","74591","0.0-82.0","3N2BF7Y2VRGJS5UELSY1THV5SIJMHD","ALVNMQMD3Q3ZE","3THR0FZ95PF7SK0MYRNAOUHTWDJOLG","","322.40000009536743","img/food1.png","74","323.2999999523163","1","1","1","1","1,0.5,0,1,0.5,0,0.5,0,1","1,0.5,0,1,0.5,0,0.5,0,1","1","",""
"","html-keyboard-response","83","74893","0.0-83.0","3N2BF7Y2VRGJS5UELSY1THV5SIJMHD","ALVNMQMD3Q3ZE","3THR0FZ95PF7SK0MYRNAOUHTWDJOLG","","null","<img src=""img/food1.png"" style=""width:200px; border:14px solid green;"">","null","","","","","","","","","",""
"","image-keyboard-response","84","75128","0.0-84.0","3N2BF7Y2VRGJS5UELSY1THV5SIJMHD","ALVNMQMD3Q3ZE","3THR0FZ95PF7SK0MYRNAOUHTWDJOLG","","233.29999995231628","img/food1.png","74","234.60000014305115","1","1","1","1","1,0.5,0,1,0.5,0,0.5,0,1","1,0.5,0,1,0.5,0,0.5,0,1","1","",""
"","html-keyboard-response","85","75431","0.0-85.0","3N2BF7Y2VRGJS5UELSY1THV5SIJMHD","ALVNMQMD3Q3ZE","3THR0FZ95PF7SK0MYRNAOUHTWDJOLG","","null","<img src=""img/food1.png"" style=""width:200px; border:14px solid green;"">","null","","","","","","","","","",""
"","image-keyboard-response","86","75676","0.0-86.0","3N2BF7Y2VRGJS5UELSY1THV5SIJMHD","ALVNMQMD3Q3ZE","3THR0FZ95PF7SK0MYRNAOUHTWDJOLG","","243.70000004768372","img/food1.png","74","245","1","1","1","1","1,0.5,0,1,0.5,0,0.5,0,1","1,0.5,0,1,0.5,0,0.5,0,1","1","",""
"","html-keyboard-response","87","75978","0.0-87.0","3N2BF7Y2VRGJS5UELSY1THV5SIJMHD","ALVNMQMD3Q3ZE","3THR0FZ95PF7SK0MYRNAOUHTWDJOLG","","null","<img src=""img/food1.png"" style=""width:200px; border:14px solid green;"">","null","","","","","","","","","",""
"","image-keyboard-response","88","76174","0.0-88.0","3N2BF7Y2VRGJS5UELSY1THV5SIJMHD","ALVNMQMD3Q3ZE","3THR0FZ95PF7SK0MYRNAOUHTWDJOLG","","195.29999995231628","img/food1.png","74","197","1","1","1","1","1,0.5,0,1,0.5,0,0.5,0,1","1,0.5,0,1,0.5,0,0.5,0,1","1","",""
"","html-keyboard-response","89","76479","0.0-89.0","3N2BF7Y2VRGJS5UELSY1THV5SIJMHD","ALVNMQMD3Q3ZE","3THR0FZ95PF7SK0MYRNAOUHTWDJOLG","","null","<img src=""img/food1.png"" style=""width:200px; border:14px solid green;"">","null","","","","","","","","","",""
"","image-keyboard-response","90","76820","0.0-90.0","3N2BF7Y2VRGJS5UELSY1THV5SIJMHD","ALVNMQMD3Q3ZE","3THR0FZ95PF7SK0MYRNAOUHTWDJOLG","","340","img/food5.png","74","341.09999990463257","1","1","2","1","1,0.5,0,1,0.5,0,0.5,0,1","1,0.5,0,1,0.5,0,0.5,0,1","1","",""
"","html-keyboard-response","91","77122","0.0-91.0","3N2BF7Y2VRGJS5UELSY1THV5SIJMHD","ALVNMQMD3Q3ZE","3THR0FZ95PF7SK0MYRNAOUHTWDJOLG","","null","<img src=""img/food5.png"" style=""width:200px; border:14px solid green;"">","null","","","","","","","","","",""
"","image-keyboard-response","92","77483","0.0-92.0","3N2BF7Y2VRGJS5UELSY1THV5SIJMHD","ALVNMQMD3Q3ZE","3THR0FZ95PF7SK0MYRNAOUHTWDJOLG","","358.7000000476837","img/food3.png","74","360.5","1","0","3","1","1,0.5,0,1,0.5,0,0.5,0,1","1,0.5,0,1,0.5,0,0.5,0,1","1","",""
"","html-keyboard-response","93","77786","0.0-93.0","3N2BF7Y2VRGJS5UELSY1THV5SIJMHD","ALVNMQMD3Q3ZE","3THR0FZ95PF7SK0MYRNAOUHTWDJOLG","","null","<img src=""img/food3.png"" style=""width:200px;border:14px solid red;"">","null","","","","","","","","","",""
"","image-keyboard-response","94","78762","0.0-94.0","3N2BF7Y2VRGJS5UELSY1THV5SIJMHD","ALVNMQMD3Q3ZE","3THR0FZ95PF7SK0MYRNAOUHTWDJOLG","","975.2999999523163","img/food3.png","74","976.1999998092651","1","0","3","1","1,0.5,0,1,0.5,0,0.5,0,1","1,0.5,0,1,0.5,0,0.5,0,1","1","",""
"","html-keyboard-response","95","79064","0.0-95.0","3N2BF7Y2VRGJS5UELSY1THV5SIJMHD","ALVNMQMD3Q3ZE","3THR0FZ95PF7SK0MYRNAOUHTWDJOLG","","null","<img src=""img/food3.png"" style=""width:200px;border:14px solid red;"">","null","","","","","","","","","",""
"","image-keyboard-response","96","79348","0.0-96.0","3N2BF7Y2VRGJS5UELSY1THV5SIJMHD","ALVNMQMD3Q3ZE","3THR0FZ95PF7SK0MYRNAOUHTWDJOLG","","282.2000000476837","img/food1.png","74","283.09999990463257","1","1","1","1","1,0.5,0,1,0.5,0,0.5,0,1","1,0.5,0,1,0.5,0,0.5,0,1","1","",""
"","html-keyboard-response","97","79649","0.0-97.0","3N2BF7Y2VRGJS5UELSY1THV5SIJMHD","ALVNMQMD3Q3ZE","3THR0FZ95PF7SK0MYRNAOUHTWDJOLG","","null","<img src=""img/food1.png"" style=""width:200px; border:14px solid green;"">","null","","","","","","","","","",""
"","image-keyboard-response","98","79990","0.0-98.0","3N2BF7Y2VRGJS5UELSY1THV5SIJMHD","ALVNMQMD3Q3ZE","3THR0FZ95PF7SK0MYRNAOUHTWDJOLG","","339.09999990463257","img/food3.png","74","339.7000000476837","1","0","3","1","1,0.5,0,1,0.5,0,0.5,0,1","1,0.5,0,1,0.5,0,0.5,0,1","1","",""
"","html-keyboard-response","99","80292","0.0-99.0","3N2BF7Y2VRGJS5UELSY1THV5SIJMHD","ALVNMQMD3Q3ZE","3THR0FZ95PF7SK0MYRNAOUHTWDJOLG","","null","<img src=""img/food3.png"" style=""width:200px;border:14px solid red;"">","null","","","","","","","","","",""
"","image-keyboard-response","100","80622","0.0-100.0","3N2BF7Y2VRGJS5UELSY1THV5SIJMHD","ALVNMQMD3Q3ZE","3THR0FZ95PF7SK0MYRNAOUHTWDJOLG","","329.7999999523163","img/food1.png","74","330.60000014305115","1","1","1","1","1,0.5,0,1,0.5,0,0.5,0,1","1,0.5,0,1,0.5,0,0.5,0,1","1","",""
"","html-keyboard-response","101","80924","0.0-101.0","3N2BF7Y2VRGJS5UELSY1THV5SIJMHD","ALVNMQMD3Q3ZE","3THR0FZ95PF7SK0MYRNAOUHTWDJOLG","","null","<img src=""img/food1.png"" style=""width:200px; border:14px solid green;"">","null","","","","","","","","","",""
"","image-keyboard-response","102","81223","0.0-102.0","3N2BF7Y2VRGJS5UELSY1THV5SIJMHD","ALVNMQMD3Q3ZE","3THR0FZ95PF7SK0MYRNAOUHTWDJOLG","","297.5","img/food1.png","74","298.60000014305115","1","1","1","1","1,0.5,0,1,0.5,0,0.5,0,1","1,0.5,0,1,0.5,0,0.5,0,1","1","",""
"","html-keyboard-response","103","81526","0.0-103.0","3N2BF7Y2VRGJS5UELSY1THV5SIJMHD","ALVNMQMD3Q3ZE","3THR0FZ95PF7SK0MYRNAOUHTWDJOLG","","null","<img src=""img/food1.png"" style=""width:200px; border:14px solid green;"">","null","","","","","","","","","",""
"","image-keyboard-response","104","81897","0.0-104.0","3N2BF7Y2VRGJS5UELSY1THV5SIJMHD","ALVNMQMD3Q3ZE","3THR0FZ95PF7SK0MYRNAOUHTWDJOLG","","370.09999990463257","img/food3.png","74","370.89999985694885","1","0","3","1","1,0.5,0,1,0.5,0,0.5,0,1","1,0.5,0,1,0.5,0,0.5,0,1","1","",""
"","html-keyboard-response","105","82198","0.0-105.0","3N2BF7Y2VRGJS5UELSY1THV5SIJMHD","ALVNMQMD3Q3ZE","3THR0FZ95PF7SK0MYRNAOUHTWDJOLG","","null","<img src=""img/food3.png"" style=""width:200px;border:14px solid red;"">","null","","","","","","","","","",""
"","image-keyboard-response","106","82427","0.0-106.0","3N2BF7Y2VRGJS5UELSY1THV5SIJMHD","ALVNMQMD3Q3ZE","3THR0FZ95PF7SK0MYRNAOUHTWDJOLG","","227.20000004768372","img/food5.png","74","228.40000009536743","1","1","2","1","1,0.5,0,1,0.5,0,0.5,0,1","1,0.5,0,1,0.5,0,0.5,0,1","1","",""
"","html-keyboard-response","107","82729","0.0-107.0","3N2BF7Y2VRGJS5UELSY1THV5SIJMHD","ALVNMQMD3Q3ZE","3THR0FZ95PF7SK0MYRNAOUHTWDJOLG","","null","<img src=""img/food5.png"" style=""width:200px; border:14px solid green;"">","null","","","","","","","","","",""
"","image-keyboard-response","108","83062","0.0-108.0","3N2BF7Y2VRGJS5UELSY1THV5SIJMHD","ALVNMQMD3Q3ZE","3THR0FZ95PF7SK0MYRNAOUHTWDJOLG","","332.09999990463257","img/food5.png","74","333.09999990463257","1","1","2","1","1,0.5,0,1,0.5,0,0.5,0,1","1,0.5,0,1,0.5,0,0.5,0,1","1","",""
"","html-keyboard-response","109","83364","0.0-109.0","3N2BF7Y2VRGJS5UELSY1THV5SIJMHD","ALVNMQMD3Q3ZE","3THR0FZ95PF7SK0MYRNAOUHTWDJOLG","","null","<img src=""img/food5.png"" style=""width:200px; border:14px solid green;"">","null","","","","","","","","","",""
"","image-keyboard-response","110","83536","0.0-110.0","3N2BF7Y2VRGJS5UELSY1THV5SIJMHD","ALVNMQMD3Q3ZE","3THR0FZ95PF7SK0MYRNAOUHTWDJOLG","","170.60000014305115","img/food1.png","74","171.5","1","1","1","1","1,0.5,0,1,0.5,0,0.5,0,1","1,0.5,0,1,0.5,0,0.5,0,1","1","",""
"","html-keyboard-response","111","83837","0.0-111.0","3N2BF7Y2VRGJS5UELSY1THV5SIJMHD","ALVNMQMD3Q3ZE","3THR0FZ95PF7SK0MYRNAOUHTWDJOLG","","null","<img src=""img/food1.png"" style=""width:200px; border:14px solid green;"">","null","","","","","","","","","",""
"","image-keyboard-response","112","83916","0.0-112.0","3N2BF7Y2VRGJS5UELSY1THV5SIJMHD","ALVNMQMD3Q3ZE","3THR0FZ95PF7SK0MYRNAOUHTWDJOLG","","78.09999990463257","img/food5.png","74","79","1","1","2","1","1,0.5,0,1,0.5,0,0.5,0,1","1,0.5,0,1,0.5,0,0.5,0,1","1","",""
"","html-keyboard-response","113","84219","0.0-113.0","3N2BF7Y2VRGJS5UELSY1THV5SIJMHD","ALVNMQMD3Q3ZE","3THR0FZ95PF7SK0MYRNAOUHTWDJOLG","","null","<img src=""img/food5.png"" style=""width:200px; border:14px solid green;"">","null","","","","","","","","","",""
"","image-keyboard-response","114","84536","0.0-114.0","3N2BF7Y2VRGJS5UELSY1THV5SIJMHD","ALVNMQMD3Q3ZE","3THR0FZ95PF7SK0MYRNAOUHTWDJOLG","","316.89999985694885","img/food1.png","74","317.7000000476837","1","1","1","1","1,0.5,0,1,0.5,0,0.5,0,1","1,0.5,0,1,0.5,0,0.5,0,1","1","",""
"","html-keyboard-response","115","84838","0.0-115.0","3N2BF7Y2VRGJS5UELSY1THV5SIJMHD","ALVNMQMD3Q3ZE","3THR0FZ95PF7SK0MYRNAOUHTWDJOLG","","null","<img src=""img/food1.png"" style=""width:200px; border:14px solid green;"">","null","","","","","","","","","",""
"","image-keyboard-response","116","84888","0.0-116.0","3N2BF7Y2VRGJS5UELSY1THV5SIJMHD","ALVNMQMD3Q3ZE","3THR0FZ95PF7SK0MYRNAOUHTWDJOLG","","47.700000047683716","img/food5.png","74","49","1","1","2","1","1,0.5,0,1,0.5,0,0.5,0,1","1,0.5,0,1,0.5,0,0.5,0,1","1","",""
"","html-keyboard-response","117","85189","0.0-117.0","3N2BF7Y2VRGJS5UELSY1THV5SIJMHD","ALVNMQMD3Q3ZE","3THR0FZ95PF7SK0MYRNAOUHTWDJOLG","","null","<img src=""img/food5.png"" style=""width:200px; border:14px solid green;"">","null","","","","","","","","","",""
"","image-keyboard-response","118","85370","0.0-118.0","3N2BF7Y2VRGJS5UELSY1THV5SIJMHD","ALVNMQMD3Q3ZE","3THR0FZ95PF7SK0MYRNAOUHTWDJOLG","","179.60000014305115","img/food3.png","74","180.70000004768372","1","0","3","1","1,0.5,0,1,0.5,0,0.5,0,1","1,0.5,0,1,0.5,0,0.5,0,1","1","",""
"","html-keyboard-response","119","85673","0.0-119.0","3N2BF7Y2VRGJS5UELSY1THV5SIJMHD","ALVNMQMD3Q3ZE","3THR0FZ95PF7SK0MYRNAOUHTWDJOLG","","null","<img src=""img/food3.png"" style=""width:200px;border:14px solid red;"">","null","","","","","","","","","",""
"","image-keyboard-response","120","85701","0.0-120.0","3N2BF7Y2VRGJS5UELSY1THV5SIJMHD","ALVNMQMD3Q3ZE","3THR0FZ95PF7SK0MYRNAOUHTWDJOLG","","26.100000143051147","img/food1.png","74","27.700000047683716","1","1","1","1","1,0.5,0,1,0.5,0,0.5,0,1","1,0.5,0,1,0.5,0,0.5,0,1","1","",""
"","html-keyboard-response","121","86004","0.0-121.0","3N2BF7Y2VRGJS5UELSY1THV5SIJMHD","ALVNMQMD3Q3ZE","3THR0FZ95PF7SK0MYRNAOUHTWDJOLG","","null","<img src=""img/food1.png"" style=""width:200px; border:14px solid green;"">","null","","","","","","","","","",""
"","image-keyboard-response","122","86203","0.0-122.0","3N2BF7Y2VRGJS5UELSY1THV5SIJMHD","ALVNMQMD3Q3ZE","3THR0FZ95PF7SK0MYRNAOUHTWDJOLG","","197.69999980926514","img/food1.png","74","198.39999985694885","1","1","1","1","1,0.5,0,1,0.5,0,0.5,0,1","1,0.5,0,1,0.5,0,0.5,0,1","1","",""
"","html-keyboard-response","123","86506","0.0-123.0","3N2BF7Y2VRGJS5UELSY1THV5SIJMHD","ALVNMQMD3Q3ZE","3THR0FZ95PF7SK0MYRNAOUHTWDJOLG","","null","<img src=""img/food1.png"" style=""width:200px; border:14px solid green;"">","null","","","","","","","","","",""
"","image-keyboard-response","124","86631","0.0-124.0","3N2BF7Y2VRGJS5UELSY1THV5SIJMHD","ALVNMQMD3Q3ZE","3THR0FZ95PF7SK0MYRNAOUHTWDJOLG","","123.70000004768372","img/food1.png","74","124.59999990463257","1","1","1","1","1,0.5,0,1,0.5,0,0.5,0,1","1,0.5,0,1,0.5,0,0.5,0,1","1","",""
"","html-keyboard-response","125","86933","0.0-125.0","3N2BF7Y2VRGJS5UELSY1THV5SIJMHD","ALVNMQMD3Q3ZE","3THR0FZ95PF7SK0MYRNAOUHTWDJOLG","","null","<img src=""img/food1.png"" style=""width:200px; border:14px solid green;"">","null","","","","","","","","","",""
"","image-keyboard-response","126","87095","0.0-126.0","3N2BF7Y2VRGJS5UELSY1THV5SIJMHD","ALVNMQMD3Q3ZE","3THR0FZ95PF7SK0MYRNAOUHTWDJOLG","","161.40000009536743","img/food3.png","74","162.39999985694885","1","0","3","1","1,0.5,0,1,0.5,0,0.5,0,1","1,0.5,0,1,0.5,0,0.5,0,1","1","",""
"","html-keyboard-response","127","87410","0.0-127.0","3N2BF7Y2VRGJS5UELSY1THV5SIJMHD","ALVNMQMD3Q3ZE","3THR0FZ95PF7SK0MYRNAOUHTWDJOLG","","null","<img src=""img/food3.png"" style=""width:200px;border:14px solid red;"">","null","","","","","","","","","",""
"","image-keyboard-response","128","87503","0.0-128.0","3N2BF7Y2VRGJS5UELSY1THV5SIJMHD","ALVNMQMD3Q3ZE","3THR0FZ95PF7SK0MYRNAOUHTWDJOLG","","92","img/food3.png","74","93.40000009536743","1","0","3","1","1,0.5,0,1,0.5,0,0.5,0,1","1,0.5,0,1,0.5,0,0.5,0,1","1","",""
"","html-keyboard-response","129","87804","0.0-129.0","3N2BF7Y2VRGJS5UELSY1THV5SIJMHD","ALVNMQMD3Q3ZE","3THR0FZ95PF7SK0MYRNAOUHTWDJOLG","","null","<img src=""img/food3.png"" style=""width:200px;border:14px solid red;"">","null","","","","","","","","","",""
"","image-keyboard-response","130","87859","0.0-130.0","3N2BF7Y2VRGJS5UELSY1THV5SIJMHD","ALVNMQMD3Q3ZE","3THR0FZ95PF7SK0MYRNAOUHTWDJOLG","","53.90000009536743","img/food1.png","74","54.700000047683716","1","1","1","1","1,0.5,0,1,0.5,0,0.5,0,1","1,0.5,0,1,0.5,0,0.5,0,1","1","",""
"","html-keyboard-response","131","88162","0.0-131.0","3N2BF7Y2VRGJS5UELSY1THV5SIJMHD","ALVNMQMD3Q3ZE","3THR0FZ95PF7SK0MYRNAOUHTWDJOLG","","null","<img src=""img/food1.png"" style=""width:200px; border:14px solid green;"">","null","","","","","","","","","",""
"","image-keyboard-response","132","88328","0.0-132.0","3N2BF7Y2VRGJS5UELSY1THV5SIJMHD","ALVNMQMD3Q3ZE","3THR0FZ95PF7SK0MYRNAOUHTWDJOLG","","165.29999995231628","img/food5.png","74","166.20000004768372","1","1","2","1","1,0.5,0,1,0.5,0,0.5,0,1","1,0.5,0,1,0.5,0,0.5,0,1","1","",""
"","html-keyboard-response","133","88630","0.0-133.0","3N2BF7Y2VRGJS5UELSY1THV5SIJMHD","ALVNMQMD3Q3ZE","3THR0FZ95PF7SK0MYRNAOUHTWDJOLG","","null","<img src=""img/food5.png"" style=""width:200px; border:14px solid green;"">","null","","","","","","","","","",""
"","image-keyboard-response","134","88765","0.0-134.0","3N2BF7Y2VRGJS5UELSY1THV5SIJMHD","ALVNMQMD3Q3ZE","3THR0FZ95PF7SK0MYRNAOUHTWDJOLG","","134.10000014305115","img/food5.png","74","135","1","1","2","1","1,0.5,0,1,0.5,0,0.5,0,1","1,0.5,0,1,0.5,0,0.5,0,1","1","",""
"","html-keyboard-response","135","89068","0.0-135.0","3N2BF7Y2VRGJS5UELSY1THV5SIJMHD","ALVNMQMD3Q3ZE","3THR0FZ95PF7SK0MYRNAOUHTWDJOLG","","null","<img src=""img/food5.png"" style=""width:200px; border:14px solid green;"">","null","","","","","","","","","",""
"","image-keyboard-response","136","89464","0.0-136.0","3N2BF7Y2VRGJS5UELSY1THV5SIJMHD","ALVNMQMD3Q3ZE","3THR0FZ95PF7SK0MYRNAOUHTWDJOLG","","395.10000014305115","img/food1.png","74","395.90000009536743","1","1","1","1","1,0.5,0,1,0.5,0,0.5,0,1","1,0.5,0,1,0.5,0,0.5,0,1","1","",""
"","html-keyboard-response","137","89766","0.0-137.0","3N2BF7Y2VRGJS5UELSY1THV5SIJMHD","ALVNMQMD3Q3ZE","3THR0FZ95PF7SK0MYRNAOUHTWDJOLG","","null","<img src=""img/food1.png"" style=""width:200px; border:14px solid green;"">","null","","","","","","","","","",""
"","image-keyboard-response","138","89855","0.0-138.0","3N2BF7Y2VRGJS5UELSY1THV5SIJMHD","ALVNMQMD3Q3ZE","3THR0FZ95PF7SK0MYRNAOUHTWDJOLG","","87.80000019073486","img/food5.png","74","88.90000009536743","1","1","2","1","1,0.5,0,1,0.5,0,0.5,0,1","1,0.5,0,1,0.5,0,0.5,0,1","1","",""
"","html-keyboard-response","139","90157","0.0-139.0","3N2BF7Y2VRGJS5UELSY1THV5SIJMHD","ALVNMQMD3Q3ZE","3THR0FZ95PF7SK0MYRNAOUHTWDJOLG","","null","<img src=""img/food5.png"" style=""width:200px; border:14px solid green;"">","null","","","","","","","","","",""
"","image-keyboard-response","140","90540","0.0-140.0","3N2BF7Y2VRGJS5UELSY1THV5SIJMHD","ALVNMQMD3Q3ZE","3THR0FZ95PF7SK0MYRNAOUHTWDJOLG","","382.2999999523163","img/food1.png","74","383.09999990463257","1","1","1","1","1,0.5,0,1,0.5,0,0.5,0,1","1,0.5,0,1,0.5,0,0.5,0,1","1","",""
"","html-keyboard-response","141","90842","0.0-141.0","3N2BF7Y2VRGJS5UELSY1THV5SIJMHD","ALVNMQMD3Q3ZE","3THR0FZ95PF7SK0MYRNAOUHTWDJOLG","","null","<img src=""img/food1.png"" style=""width:200px; border:14px solid green;"">","null","","","","","","","","","",""
"","image-keyboard-response","142","90997","0.0-142.0","3N2BF7Y2VRGJS5UELSY1THV5SIJMHD","ALVNMQMD3Q3ZE","3THR0FZ95PF7SK0MYRNAOUHTWDJOLG","","154.10000014305115","img/food1.png","74","154.89999985694885","1","1","1","1","1,0.5,0,1,0.5,0,0.5,0,1","1,0.5,0,1,0.5,0,0.5,0,1","1","",""
"","html-keyboard-response","143","91300","0.0-143.0","3N2BF7Y2VRGJS5UELSY1THV5SIJMHD","ALVNMQMD3Q3ZE","3THR0FZ95PF7SK0MYRNAOUHTWDJOLG","","null","<img src=""img/food1.png"" style=""width:200px; border:14px solid green;"">","null","","","","","","","","","",""
"","image-keyboard-response","144","91587","0.0-144.0","3N2BF7Y2VRGJS5UELSY1THV5SIJMHD","ALVNMQMD3Q3ZE","3THR0FZ95PF7SK0MYRNAOUHTWDJOLG","","286.5","img/food3.png","74","287.2999999523163","1","0","3","1","1,0.5,0,1,0.5,0,0.5,0,1","1,0.5,0,1,0.5,0,0.5,0,1","1","",""
"","html-keyboard-response","145","91889","0.0-145.0","3N2BF7Y2VRGJS5UELSY1THV5SIJMHD","ALVNMQMD3Q3ZE","3THR0FZ95PF7SK0MYRNAOUHTWDJOLG","","null","<img src=""img/food3.png"" style=""width:200px;border:14px solid red;"">","null","","","","","","","","","",""
"","image-keyboard-response","146","92111","0.0-146.0","3N2BF7Y2VRGJS5UELSY1THV5SIJMHD","ALVNMQMD3Q3ZE","3THR0FZ95PF7SK0MYRNAOUHTWDJOLG","","220.70000004768372","img/food5.png","74","221.90000009536743","1","1","2","1","1,0.5,0,1,0.5,0,0.5,0,1","1,0.5,0,1,0.5,0,0.5,0,1","1","",""
"","html-keyboard-response","147","92413","0.0-147.0","3N2BF7Y2VRGJS5UELSY1THV5SIJMHD","ALVNMQMD3Q3ZE","3THR0FZ95PF7SK0MYRNAOUHTWDJOLG","","null","<img src=""img/food5.png"" style=""width:200px; border:14px solid green;"">","null","","","","","","","","","",""
"","image-keyboard-response","148","92565","0.0-148.0","3N2BF7Y2VRGJS5UELSY1THV5SIJMHD","ALVNMQMD3Q3ZE","3THR0FZ95PF7SK0MYRNAOUHTWDJOLG","","151.09999990463257","img/food1.png","74","151.89999985694885","1","1","1","1","1,0.5,0,1,0.5,0,0.5,0,1","1,0.5,0,1,0.5,0,0.5,0,1","1","",""
"","html-keyboard-response","149","92867","0.0-149.0","3N2BF7Y2VRGJS5UELSY1THV5SIJMHD","ALVNMQMD3Q3ZE","3THR0FZ95PF7SK0MYRNAOUHTWDJOLG","","null","<img src=""img/food1.png"" style=""width:200px; border:14px solid green;"">","null","","","","","","","","","",""
"","image-keyboard-response","150","92896","0.0-150.0","3N2BF7Y2VRGJS5UELSY1THV5SIJMHD","ALVNMQMD3Q3ZE","3THR0FZ95PF7SK0MYRNAOUHTWDJOLG","","28.5","img/food3.png","74","29.100000143051147","1","1","3","1","1,0.5,0,1,0.5,0,0.5,0,1","1,0.5,0,1,0.5,0,0.5,0,1","1","",""
"","html-keyboard-response","151","93199","0.0-151.0","3N2BF7Y2VRGJS5UELSY1THV5SIJMHD","ALVNMQMD3Q3ZE","3THR0FZ95PF7SK0MYRNAOUHTWDJOLG","","null","<img src=""img/food3.png"" style=""width:200px; border:14px solid green;"">","null","","","","","","","","","",""
"","image-keyboard-response","152","93394","0.0-152.0","3N2BF7Y2VRGJS5UELSY1THV5SIJMHD","ALVNMQMD3Q3ZE","3THR0FZ95PF7SK0MYRNAOUHTWDJOLG","","193.90000009536743","img/food1.png","74","195","1","1","1","1","1,0.5,0,1,0.5,0,0.5,0,1","1,0.5,0,1,0.5,0,0.5,0,1","1","",""
"","html-keyboard-response","153","93697","0.0-153.0","3N2BF7Y2VRGJS5UELSY1THV5SIJMHD","ALVNMQMD3Q3ZE","3THR0FZ95PF7SK0MYRNAOUHTWDJOLG","","null","<img src=""img/food1.png"" style=""width:200px; border:14px solid green;"">","null","","","","","","","","","",""
"","image-keyboard-response","154","93861","0.0-154.0","3N2BF7Y2VRGJS5UELSY1THV5SIJMHD","ALVNMQMD3Q3ZE","3THR0FZ95PF7SK0MYRNAOUHTWDJOLG","","162.39999985694885","img/food5.png","74","163.5","1","1","2","1","1,0.5,0,1,0.5,0,0.5,0,1","1,0.5,0,1,0.5,0,0.5,0,1","1","",""
"","html-keyboard-response","155","94163","0.0-155.0","3N2BF7Y2VRGJS5UELSY1THV5SIJMHD","ALVNMQMD3Q3ZE","3THR0FZ95PF7SK0MYRNAOUHTWDJOLG","","null","<img src=""img/food5.png"" style=""width:200px; border:14px solid green;"">","null","","","","","","","","","",""
"","image-keyboard-response","156","94313","0.0-156.0","3N2BF7Y2VRGJS5UELSY1THV5SIJMHD","ALVNMQMD3Q3ZE","3THR0FZ95PF7SK0MYRNAOUHTWDJOLG","","148.79999995231628","img/food3.png","74","149.79999995231628","1","1","3","1","1,0.5,0,1,0.5,0,0.5,0,1","1,0.5,0,1,0.5,0,0.5,0,1","1","",""
"","html-keyboard-response","157","94615","0.0-157.0","3N2BF7Y2VRGJS5UELSY1THV5SIJMHD","ALVNMQMD3Q3ZE","3THR0FZ95PF7SK0MYRNAOUHTWDJOLG","","null","<img src=""img/food3.png"" style=""width:200px; border:14px solid green;"">","null","","","","","","","","","",""
"","image-keyboard-response","158","94711","0.0-158.0","3N2BF7Y2VRGJS5UELSY1THV5SIJMHD","ALVNMQMD3Q3ZE","3THR0FZ95PF7SK0MYRNAOUHTWDJOLG","","94.59999990463257","img/food5.png","74","95.20000004768372","1","1","2","1","1,0.5,0,1,0.5,0,0.5,0,1","1,0.5,0,1,0.5,0,0.5,0,1","1","",""
"","html-keyboard-response","159","95013","0.0-159.0","3N2BF7Y2VRGJS5UELSY1THV5SIJMHD","ALVNMQMD3Q3ZE","3THR0FZ95PF7SK0MYRNAOUHTWDJOLG","","null","<img src=""img/food5.png"" style=""width:200px; border:14px solid green;"">","null","","","","","","","","","",""
"","image-keyboard-response","160","95094","0.0-160.0","3N2BF7Y2VRGJS5UELSY1THV5SIJMHD","ALVNMQMD3Q3ZE","3THR0FZ95PF7SK0MYRNAOUHTWDJOLG","","80.20000004768372","img/food3.png","74","81","1","1","3","1","1,0.5,0,1,0.5,0,0.5,0,1","1,0.5,0,1,0.5,0,0.5,0,1","1","",""
"","html-keyboard-response","161","95396","0.0-161.0","3N2BF7Y2VRGJS5UELSY1THV5SIJMHD","ALVNMQMD3Q3ZE","3THR0FZ95PF7SK0MYRNAOUHTWDJOLG","","null","<img src=""img/food3.png"" style=""width:200px; border:14px solid green;"">","null","","","","","","","","","",""
"","image-keyboard-response","162","95680","0.0-162.0","3N2BF7Y2VRGJS5UELSY1THV5SIJMHD","ALVNMQMD3Q3ZE","3THR0FZ95PF7SK0MYRNAOUHTWDJOLG","","283.2000000476837","img/food5.png","74","284","1","1","2","1","1,0.5,0,1,0.5,0,0.5,0,1","1,0.5,0,1,0.5,0,0.5,0,1","1","",""
"","html-keyboard-response","163","95981","0.0-163.0","3N2BF7Y2VRGJS5UELSY1THV5SIJMHD","ALVNMQMD3Q3ZE","3THR0FZ95PF7SK0MYRNAOUHTWDJOLG","","null","<img src=""img/food5.png"" style=""width:200px; border:14px solid green;"">","null","","","","","","","","","",""
"","image-keyboard-response","164","96004","0.0-164.0","3N2BF7Y2VRGJS5UELSY1THV5SIJMHD","ALVNMQMD3Q3ZE","3THR0FZ95PF7SK0MYRNAOUHTWDJOLG","","21.700000047683716","img/food3.png","74","22.5","1","0","3","1","1,0.5,0,1,0.5,0,0.5,0,1","1,0.5,0,1,0.5,0,0.5,0,1","1","",""
"","html-keyboard-response","165","96305","0.0-165.0","3N2BF7Y2VRGJS5UELSY1THV5SIJMHD","ALVNMQMD3Q3ZE","3THR0FZ95PF7SK0MYRNAOUHTWDJOLG","","null","<img src=""img/food3.png"" style=""width:200px;border:14px solid red;"">","null","","","","","","","","","",""
"","image-keyboard-response","166","96648","0.0-166.0","3N2BF7Y2VRGJS5UELSY1THV5SIJMHD","ALVNMQMD3Q3ZE","3THR0FZ95PF7SK0MYRNAOUHTWDJOLG","","341","img/food5.png","74","342","1","1","2","1","1,0.5,0,1,0.5,0,0.5,0,1","1,0.5,0,1,0.5,0,0.5,0,1","1","",""
"","html-keyboard-response","167","96950","0.0-167.0","3N2BF7Y2VRGJS5UELSY1THV5SIJMHD","ALVNMQMD3Q3ZE","3THR0FZ95PF7SK0MYRNAOUHTWDJOLG","","null","<img src=""img/food5.png"" style=""width:200px; border:14px solid green;"">","null","","","","","","","","","",""
"","image-keyboard-response","168","97166","0.0-168.0","3N2BF7Y2VRGJS5UELSY1THV5SIJMHD","ALVNMQMD3Q3ZE","3THR0FZ95PF7SK0MYRNAOUHTWDJOLG","","214.79999995231628","img/food3.png","74","215.5","1","0","3","1","1,0.5,0,1,0.5,0,0.5,0,1","1,0.5,0,1,0.5,0,0.5,0,1","1","",""
"","html-keyboard-response","169","97468","0.0-169.0","3N2BF7Y2VRGJS5UELSY1THV5SIJMHD","ALVNMQMD3Q3ZE","3THR0FZ95PF7SK0MYRNAOUHTWDJOLG","","null","<img src=""img/food3.png"" style=""width:200px;border:14px solid red;"">","null","","","","","","","","","",""
"","image-keyboard-response","170","97714","0.0-170.0","3N2BF7Y2VRGJS5UELSY1THV5SIJMHD","ALVNMQMD3Q3ZE","3THR0FZ95PF7SK0MYRNAOUHTWDJOLG","","244.79999995231628","img/food5.png","74","245.5","1","1","2","1","1,0.5,0,1,0.5,0,0.5,0,1","1,0.5,0,1,0.5,0,0.5,0,1","1","",""
"","html-keyboard-response","171","98016","0.0-171.0","3N2BF7Y2VRGJS5UELSY1THV5SIJMHD","ALVNMQMD3Q3ZE","3THR0FZ95PF7SK0MYRNAOUHTWDJOLG","","null","<img src=""img/food5.png"" style=""width:200px; border:14px solid green;"">","null","","","","","","","","","",""
"","image-keyboard-response","172","98187","0.0-172.0","3N2BF7Y2VRGJS5UELSY1THV5SIJMHD","ALVNMQMD3Q3ZE","3THR0FZ95PF7SK0MYRNAOUHTWDJOLG","","168.90000009536743","img/food1.png","74","171.20000004768372","1","1","1","1","1,0.5,0,1,0.5,0,0.5,0,1","1,0.5,0,1,0.5,0,0.5,0,1","1","",""
"","html-keyboard-response","173","98504","0.0-173.0","3N2BF7Y2VRGJS5UELSY1THV5SIJMHD","ALVNMQMD3Q3ZE","3THR0FZ95PF7SK0MYRNAOUHTWDJOLG","","null","<img src=""img/food1.png"" style=""width:200px; border:14px solid green;"">","null","","","","","","","","","",""
"","image-keyboard-response","174","98685","0.0-174.0","3N2BF7Y2VRGJS5UELSY1THV5SIJMHD","ALVNMQMD3Q3ZE","3THR0FZ95PF7SK0MYRNAOUHTWDJOLG","","180.09999990463257","img/food3.png","74","180.89999985694885","1","0","3","1","1,0.5,0,1,0.5,0,0.5,0,1","1,0.5,0,1,0.5,0,0.5,0,1","1","",""
"","html-keyboard-response","175","98988","0.0-175.0","3N2BF7Y2VRGJS5UELSY1THV5SIJMHD","ALVNMQMD3Q3ZE","3THR0FZ95PF7SK0MYRNAOUHTWDJOLG","","null","<img src=""img/food3.png"" style=""width:200px;border:14px solid red;"">","null","","","","","","","","","",""
"","image-keyboard-response","176","99134","0.0-176.0","3N2BF7Y2VRGJS5UELSY1THV5SIJMHD","ALVNMQMD3Q3ZE","3THR0FZ95PF7SK0MYRNAOUHTWDJOLG","","143.59999990463257","img/food3.png","74","144.5","1","0","3","1","1,0.5,0,1,0.5,0,0.5,0,1","1,0.5,0,1,0.5,0,0.5,0,1","1","",""
"","html-keyboard-response","177","99448","0.0-177.0","3N2BF7Y2VRGJS5UELSY1THV5SIJMHD","ALVNMQMD3Q3ZE","3THR0FZ95PF7SK0MYRNAOUHTWDJOLG","","null","<img src=""img/food3.png"" style=""width:200px;border:14px solid red;"">","null","","","","","","","","","",""
"","image-keyboard-response","178","99583","0.0-178.0","3N2BF7Y2VRGJS5UELSY1THV5SIJMHD","ALVNMQMD3Q3ZE","3THR0FZ95PF7SK0MYRNAOUHTWDJOLG","","134.40000009536743","img/food5.png","74","135.20000004768372","1","1","2","1","1,0.5,0,1,0.5,0,0.5,0,1","1,0.5,0,1,0.5,0,0.5,0,1","1","",""
"","html-keyboard-response","179","99885","0.0-179.0","3N2BF7Y2VRGJS5UELSY1THV5SIJMHD","ALVNMQMD3Q3ZE","3THR0FZ95PF7SK0MYRNAOUHTWDJOLG","","null","<img src=""img/food5.png"" style=""width:200px; border:14px solid green;"">","null","","","","","","","","","",""
"","image-keyboard-response","180","100019","0.0-180.0","3N2BF7Y2VRGJS5UELSY1THV5SIJMHD","ALVNMQMD3Q3ZE","3THR0FZ95PF7SK0MYRNAOUHTWDJOLG","","132.10000014305115","img/food5.png","74","133.20000004768372","1","1","2","1","1,0.5,0,1,0.5,0,0.5,0,1","1,0.5,0,1,0.5,0,0.5,0,1","1","",""
"","html-keyboard-response","181","100321","0.0-181.0","3N2BF7Y2VRGJS5UELSY1THV5SIJMHD","ALVNMQMD3Q3ZE","3THR0FZ95PF7SK0MYRNAOUHTWDJOLG","","null","<img src=""img/food5.png"" style=""width:200px; border:14px solid green;"">","null","","","","","","","","","",""
"","html-keyboard-response","182","102914","0.0-182.0","3N2BF7Y2VRGJS5UELSY1THV5SIJMHD","ALVNMQMD3Q3ZE","3THR0FZ95PF7SK0MYRNAOUHTWDJOLG","","","","","","","","","","","","","",""
"","instructions","183","124006","0.0-183.0","3N2BF7Y2VRGJS5UELSY1THV5SIJMHD","ALVNMQMD3Q3ZE","3THR0FZ95PF7SK0MYRNAOUHTWDJOLG","[{""page_index"":0,""viewing_time"":19093.900000095367},{""page_index"":1,""viewing_time"":1997.3999998569489}]","21091.599999904633","","","","","","","","","","","",""
"","image-keyboard-response","184","124434","0.0-184.0","3N2BF7Y2VRGJS5UELSY1THV5SIJMHD","ALVNMQMD3Q3ZE","3THR0FZ95PF7SK0MYRNAOUHTWDJOLG","","426.60000014305115","img/food4.png","74","427.90000009536743","1","0","2","2","1,0.5,0,1,0.5,0,0.5,0,1","0,1,0.5,0,1,0.5,1,0.5,0","3","false",""
"","html-keyboard-response","185","124737","0.0-185.0","3N2BF7Y2VRGJS5UELSY1THV5SIJMHD","ALVNMQMD3Q3ZE","3THR0FZ95PF7SK0MYRNAOUHTWDJOLG","","null","<img src=""img/food4.png"" style=""width:200px;border:14px solid red;"">","null","","","","","","","","","",""
"","image-keyboard-response","186","124872","0.0-187.0","3N2BF7Y2VRGJS5UELSY1THV5SIJMHD","ALVNMQMD3Q3ZE","3THR0FZ95PF7SK0MYRNAOUHTWDJOLG","","132.70000004768372","img/food4.png","74","133.79999995231628","1","0","2","2","1,0.5,0,1,0.5,0,0.5,0,1","0,1,0.5,0,1,0.5,1,0.5,0","3","false",""
"","html-keyboard-response","187","125174","0.0-188.0","3N2BF7Y2VRGJS5UELSY1THV5SIJMHD","ALVNMQMD3Q3ZE","3THR0FZ95PF7SK0MYRNAOUHTWDJOLG","","null","<img src=""img/food4.png"" style=""width:200px;border:14px solid red;"">","null","","","","","","","","","",""
"","image-keyboard-response","188","125287","0.0-190.0","3N2BF7Y2VRGJS5UELSY1THV5SIJMHD","ALVNMQMD3Q3ZE","3THR0FZ95PF7SK0MYRNAOUHTWDJOLG","","110.5","img/food6.png","74","112.19999980926514","1","0","1","2","1,0.5,0,1,0.5,0,0.5,0,1","0,1,0.5,0,1,0.5,1,0.5,0","3","false",""
"","html-keyboard-response","189","125589","0.0-191.0","3N2BF7Y2VRGJS5UELSY1THV5SIJMHD","ALVNMQMD3Q3ZE","3THR0FZ95PF7SK0MYRNAOUHTWDJOLG","","null","<img src=""img/food6.png"" style=""width:200px;border:14px solid red;"">","null","","","","","","","","","",""
"","image-keyboard-response","190","125706","0.0-193.0","3N2BF7Y2VRGJS5UELSY1THV5SIJMHD","ALVNMQMD3Q3ZE","3THR0FZ95PF7SK0MYRNAOUHTWDJOLG","","115.10000014305115","img/food2.png","74","116.20000004768372","1","1","3","2","1,0.5,0,1,0.5,0,0.5,0,1","0,1,0.5,0,1,0.5,1,0.5,0","3","false",""
"","html-keyboard-response","191","126009","0.0-194.0","3N2BF7Y2VRGJS5UELSY1THV5SIJMHD","ALVNMQMD3Q3ZE","3THR0FZ95PF7SK0MYRNAOUHTWDJOLG","","null","<img src=""img/food2.png"" style=""width:200px; border:14px solid green;"">","null","","","","","","","","","",""
"","image-keyboard-response","192","126119","0.0-196.0","3N2BF7Y2VRGJS5UELSY1THV5SIJMHD","ALVNMQMD3Q3ZE","3THR0FZ95PF7SK0MYRNAOUHTWDJOLG","","107.5","img/food2.png","75","109.09999990463257","2","1","3","2","1,0.5,0,1,0.5,0,0.5,0,1","0,1,0.5,0,1,0.5,1,0.5,0","3","false",""
"","html-keyboard-response","193","126422","0.0-197.0","3N2BF7Y2VRGJS5UELSY1THV5SIJMHD","ALVNMQMD3Q3ZE","3THR0FZ95PF7SK0MYRNAOUHTWDJOLG","","null","<img src=""img/food2.png"" style=""width:200px; border:14px solid green;"">","null","","","","","","","","","",""
"","image-keyboard-response","194","126589","0.0-199.0","3N2BF7Y2VRGJS5UELSY1THV5SIJMHD","ALVNMQMD3Q3ZE","3THR0FZ95PF7SK0MYRNAOUHTWDJOLG","","165.79999995231628","img/food4.png","74","167","1","0","2","2","1,0.5,0,1,0.5,0,0.5,0,1","0,1,0.5,0,1,0.5,1,0.5,0","3","false",""
"","html-keyboard-response","195","126892","0.0-200.0","3N2BF7Y2VRGJS5UELSY1THV5SIJMHD","ALVNMQMD3Q3ZE","3THR0FZ95PF7SK0MYRNAOUHTWDJOLG","","null","<img src=""img/food4.png"" style=""width:200px;border:14px solid red;"">","null","","","","","","","","","",""
"","image-keyboard-response","196","126900","0.0-202.0","3N2BF7Y2VRGJS5UELSY1THV5SIJMHD","ALVNMQMD3Q3ZE","3THR0FZ95PF7SK0MYRNAOUHTWDJOLG","","6.1000001430511475","img/food6.png","74","7.099999904632568","1","0","1","2","1,0.5,0,1,0.5,0,0.5,0,1","0,1,0.5,0,1,0.5,1,0.5,0","3","false",""
"","html-keyboard-response","197","127202","0.0-203.0","3N2BF7Y2VRGJS5UELSY1THV5SIJMHD","ALVNMQMD3Q3ZE","3THR0FZ95PF7SK0MYRNAOUHTWDJOLG","","null","<img src=""img/food6.png"" style=""width:200px;border:14px solid red;"">","null","","","","","","","","","",""
"","image-keyboard-response","198","127226","0.0-205.0","3N2BF7Y2VRGJS5UELSY1THV5SIJMHD","ALVNMQMD3Q3ZE","3THR0FZ95PF7SK0MYRNAOUHTWDJOLG","","23","img/food4.png","75","23.700000047683716","2","1","2","2","1,0.5,0,1,0.5,0,0.5,0,1","0,1,0.5,0,1,0.5,1,0.5,0","3","false",""
"","html-keyboard-response","199","127528","0.0-206.0","3N2BF7Y2VRGJS5UELSY1THV5SIJMHD","ALVNMQMD3Q3ZE","3THR0FZ95PF7SK0MYRNAOUHTWDJOLG","","null","<img src=""img/food4.png"" style=""width:200px; border:14px solid green;"">","null","","","","","","","","","",""
"","image-keyboard-response","200","127673","0.0-208.0","3N2BF7Y2VRGJS5UELSY1THV5SIJMHD","ALVNMQMD3Q3ZE","3THR0FZ95PF7SK0MYRNAOUHTWDJOLG","","142.90000009536743","img/food6.png","74","144.19999980926514","1","0","1","2","1,0.5,0,1,0.5,0,0.5,0,1","0,1,0.5,0,1,0.5,1,0.5,0","3","false",""
"","html-keyboard-response","201","127976","0.0-209.0","3N2BF7Y2VRGJS5UELSY1THV5SIJMHD","ALVNMQMD3Q3ZE","3THR0FZ95PF7SK0MYRNAOUHTWDJOLG","","null","<img src=""img/food6.png"" style=""width:200px;border:14px solid red;"">","null","","","","","","","","","",""
"","image-keyboard-response","202","128078","0.0-211.0","3N2BF7Y2VRGJS5UELSY1THV5SIJMHD","ALVNMQMD3Q3ZE","3THR0FZ95PF7SK0MYRNAOUHTWDJOLG","","100.59999990463257","img/food2.png","74","101.30000019073486","1","1","3","2","1,0.5,0,1,0.5,0,0.5,0,1","0,1,0.5,0,1,0.5,1,0.5,0","3","false",""
"","html-keyboard-response","203","128380","0.0-212.0","3N2BF7Y2VRGJS5UELSY1THV5SIJMHD","ALVNMQMD3Q3ZE","3THR0FZ95PF7SK0MYRNAOUHTWDJOLG","","null","<img src=""img/food2.png"" style=""width:200px; border:14px solid green;"">","null","","","","","","","","","",""
"","image-keyboard-response","204","128576","0.0-214.0","3N2BF7Y2VRGJS5UELSY1THV5SIJMHD","ALVNMQMD3Q3ZE","3THR0FZ95PF7SK0MYRNAOUHTWDJOLG","","194.60000014305115","img/food4.png","74","195.69999980926514","1","0","2","2","1,0.5,0,1,0.5,0,0.5,0,1","0,1,0.5,0,1,0.5,1,0.5,0","3","false",""
"","html-keyboard-response","205","128878","0.0-215.0","3N2BF7Y2VRGJS5UELSY1THV5SIJMHD","ALVNMQMD3Q3ZE","3THR0FZ95PF7SK0MYRNAOUHTWDJOLG","","null","<img src=""img/food4.png"" style=""width:200px;border:14px solid red;"">","null","","","","","","","","","",""
"","image-keyboard-response","206","129167","0.0-217.0","3N2BF7Y2VRGJS5UELSY1THV5SIJMHD","ALVNMQMD3Q3ZE","3THR0FZ95PF7SK0MYRNAOUHTWDJOLG","","288.19999980926514","img/food4.png","76","289","3","1","2","2","1,0.5,0,1,0.5,0,0.5,0,1","0,1,0.5,0,1,0.5,1,0.5,0","3","false",""
"","html-keyboard-response","207","129470","0.0-218.0","3N2BF7Y2VRGJS5UELSY1THV5SIJMHD","ALVNMQMD3Q3ZE","3THR0FZ95PF7SK0MYRNAOUHTWDJOLG","","null","<img src=""img/food4.png"" style=""width:200px; border:14px solid green;"">","null","","","","","","","","","",""
"","image-keyboard-response","208","129628","0.0-220.0","3N2BF7Y2VRGJS5UELSY1THV5SIJMHD","ALVNMQMD3Q3ZE","3THR0FZ95PF7SK0MYRNAOUHTWDJOLG","","156.40000009536743","img/food4.png","75","157.5","2","1","2","2","1,0.5,0,1,0.5,0,0.5,0,1","0,1,0.5,0,1,0.5,1,0.5,0","3","false",""
"","html-keyboard-response","209","129932","0.0-221.0","3N2BF7Y2VRGJS5UELSY1THV5SIJMHD","ALVNMQMD3Q3ZE","3THR0FZ95PF7SK0MYRNAOUHTWDJOLG","","null","<img src=""img/food4.png"" style=""width:200px; border:14px solid green;"">","null","","","","","","","","","",""
"","image-keyboard-response","210","129941","0.0-223.0","3N2BF7Y2VRGJS5UELSY1THV5SIJMHD","ALVNMQMD3Q3ZE","3THR0FZ95PF7SK0MYRNAOUHTWDJOLG","","8.199999809265137","img/food6.png","76","9.5","3","1","1","2","1,0.5,0,1,0.5,0,0.5,0,1","0,1,0.5,0,1,0.5,1,0.5,0","3","false",""
"","html-keyboard-response","211","130243","0.0-224.0","3N2BF7Y2VRGJS5UELSY1THV5SIJMHD","ALVNMQMD3Q3ZE","3THR0FZ95PF7SK0MYRNAOUHTWDJOLG","","null","<img src=""img/food6.png"" style=""width:200px; border:14px solid green;"">","null","","","","","","","","","",""
"","image-keyboard-response","212","130434","0.0-226.0","3N2BF7Y2VRGJS5UELSY1THV5SIJMHD","ALVNMQMD3Q3ZE","3THR0FZ95PF7SK0MYRNAOUHTWDJOLG","","189.5","img/food2.png","75","190.60000014305115","2","1","3","2","1,0.5,0,1,0.5,0,0.5,0,1","0,1,0.5,0,1,0.5,1,0.5,0","3","false",""
"","html-keyboard-response","213","130737","0.0-227.0","3N2BF7Y2VRGJS5UELSY1THV5SIJMHD","ALVNMQMD3Q3ZE","3THR0FZ95PF7SK0MYRNAOUHTWDJOLG","","null","<img src=""img/food2.png"" style=""width:200px; border:14px solid green;"">","null","","","","","","","","","",""
"","image-keyboard-response","214","130930","0.0-229.0","3N2BF7Y2VRGJS5UELSY1THV5SIJMHD","ALVNMQMD3Q3ZE","3THR0FZ95PF7SK0MYRNAOUHTWDJOLG","","191.79999995231628","img/food6.png","76","192.89999985694885","3","0","1","2","1,0.5,0,1,0.5,0,0.5,0,1","0,1,0.5,0,1,0.5,1,0.5,0","3","false",""
"","html-keyboard-response","215","131241","0.0-230.0","3N2BF7Y2VRGJS5UELSY1THV5SIJMHD","ALVNMQMD3Q3ZE","3THR0FZ95PF7SK0MYRNAOUHTWDJOLG","","null","<img src=""img/food6.png"" style=""width:200px;border:14px solid red;"">","null","","","","","","","","","",""
"","image-keyboard-response","216","131354","0.0-232.0","3N2BF7Y2VRGJS5UELSY1THV5SIJMHD","ALVNMQMD3Q3ZE","3THR0FZ95PF7SK0MYRNAOUHTWDJOLG","","111.29999995231628","img/food4.png","75","112.19999980926514","2","1","2","2","1,0.5,0,1,0.5,0,0.5,0,1","0,1,0.5,0,1,0.5,1,0.5,0","3","false",""
"","html-keyboard-response","217","131656","0.0-233.0","3N2BF7Y2VRGJS5UELSY1THV5SIJMHD","ALVNMQMD3Q3ZE","3THR0FZ95PF7SK0MYRNAOUHTWDJOLG","","null","<img src=""img/food4.png"" style=""width:200px; border:14px solid green;"">","null","","","","","","","","","",""
"","image-keyboard-response","218","131900","0.0-235.0","3N2BF7Y2VRGJS5UELSY1THV5SIJMHD","ALVNMQMD3Q3ZE","3THR0FZ95PF7SK0MYRNAOUHTWDJOLG","","241.5","img/food4.png","74","242.79999995231628","1","0","2","2","1,0.5,0,1,0.5,0,0.5,0,1","0,1,0.5,0,1,0.5,1,0.5,0","3","false",""
"","html-keyboard-response","219","132203","0.0-236.0","3N2BF7Y2VRGJS5UELSY1THV5SIJMHD","ALVNMQMD3Q3ZE","3THR0FZ95PF7SK0MYRNAOUHTWDJOLG","","null","<img src=""img/food4.png"" style=""width:200px;border:14px solid red;"">","null","","","","","","","","","",""
"","image-keyboard-response","220","132212","0.0-238.0","3N2BF7Y2VRGJS5UELSY1THV5SIJMHD","ALVNMQMD3Q3ZE","3THR0FZ95PF7SK0MYRNAOUHTWDJOLG","","6.5","img/food4.png","75","7.5","2","1","2","2","1,0.5,0,1,0.5,0,0.5,0,1","0,1,0.5,0,1,0.5,1,0.5,0","3","false",""
"","html-keyboard-response","221","132513","0.0-239.0","3N2BF7Y2VRGJS5UELSY1THV5SIJMHD","ALVNMQMD3Q3ZE","3THR0FZ95PF7SK0MYRNAOUHTWDJOLG","","null","<img src=""img/food4.png"" style=""width:200px; border:14px solid green;"">","null","","","","","","","","","",""
"","image-keyboard-response","222","132614","0.0-241.0","3N2BF7Y2VRGJS5UELSY1THV5SIJMHD","ALVNMQMD3Q3ZE","3THR0FZ95PF7SK0MYRNAOUHTWDJOLG","","99.90000009536743","img/food6.png","75","100.70000004768372","2","1","1","2","1,0.5,0,1,0.5,0,0.5,0,1","0,1,0.5,0,1,0.5,1,0.5,0","3","false",""
"","html-keyboard-response","223","132917","0.0-242.0","3N2BF7Y2VRGJS5UELSY1THV5SIJMHD","ALVNMQMD3Q3ZE","3THR0FZ95PF7SK0MYRNAOUHTWDJOLG","","null","<img src=""img/food6.png"" style=""width:200px; border:14px solid green;"">","null","","","","","","","","","",""
"","image-keyboard-response","224","132995","0.0-244.0","3N2BF7Y2VRGJS5UELSY1THV5SIJMHD","ALVNMQMD3Q3ZE","3THR0FZ95PF7SK0MYRNAOUHTWDJOLG","","75.19999980926514","img/food6.png","75","76.5","2","1","1","2","1,0.5,0,1,0.5,0,0.5,0,1","0,1,0.5,0,1,0.5,1,0.5,0","3","false",""
"","html-keyboard-response","225","133296","0.0-245.0","3N2BF7Y2VRGJS5UELSY1THV5SIJMHD","ALVNMQMD3Q3ZE","3THR0FZ95PF7SK0MYRNAOUHTWDJOLG","","null","<img src=""img/food6.png"" style=""width:200px; border:14px solid green;"">","null","","","","","","","","","",""
"","image-keyboard-response","226","133436","0.0-247.0","3N2BF7Y2VRGJS5UELSY1THV5SIJMHD","ALVNMQMD3Q3ZE","3THR0FZ95PF7SK0MYRNAOUHTWDJOLG","","137.39999985694885","img/food6.png","75","138.70000004768372","2","1","1","2","1,0.5,0,1,0.5,0,0.5,0,1","0,1,0.5,0,1,0.5,1,0.5,0","3","false",""
"","html-keyboard-response","227","133739","0.0-248.0","3N2BF7Y2VRGJS5UELSY1THV5SIJMHD","ALVNMQMD3Q3ZE","3THR0FZ95PF7SK0MYRNAOUHTWDJOLG","","null","<img src=""img/food6.png"" style=""width:200px; border:14px solid green;"">","null","","","","","","","","","",""
"","image-keyboard-response","228","133777","0.0-250.0","3N2BF7Y2VRGJS5UELSY1THV5SIJMHD","ALVNMQMD3Q3ZE","3THR0FZ95PF7SK0MYRNAOUHTWDJOLG","","37.09999990463257","img/food6.png","74","38.200000047683716","1","0","1","2","1,0.5,0,1,0.5,0,0.5,0,1","0,1,0.5,0,1,0.5,1,0.5,0","3","false",""
"","html-keyboard-response","229","134080","0.0-251.0","3N2BF7Y2VRGJS5UELSY1THV5SIJMHD","ALVNMQMD3Q3ZE","3THR0FZ95PF7SK0MYRNAOUHTWDJOLG","","null","<img src=""img/food6.png"" style=""width:200px;border:14px solid red;"">","null","","","","","","","","","",""
"","image-keyboard-response","230","134295","0.0-253.0","3N2BF7Y2VRGJS5UELSY1THV5SIJMHD","ALVNMQMD3Q3ZE","3THR0FZ95PF7SK0MYRNAOUHTWDJOLG","","213.30000019073486","img/food6.png","75","214.09999990463257","2","1","1","2","1,0.5,0,1,0.5,0,0.5,0,1","0,1,0.5,0,1,0.5,1,0.5,0","3","false",""
"","html-keyboard-response","231","134598","0.0-254.0","3N2BF7Y2VRGJS5UELSY1THV5SIJMHD","ALVNMQMD3Q3ZE","3THR0FZ95PF7SK0MYRNAOUHTWDJOLG","","null","<img src=""img/food6.png"" style=""width:200px; border:14px solid green;"">","null","","","","","","","","","",""
"","image-keyboard-response","232","134703","0.0-256.0","3N2BF7Y2VRGJS5UELSY1THV5SIJMHD","ALVNMQMD3Q3ZE","3THR0FZ95PF7SK0MYRNAOUHTWDJOLG","","103.79999995231628","img/food4.png","75","105","2","1","2","2","1,0.5,0,1,0.5,0,0.5,0,1","0,1,0.5,0,1,0.5,1,0.5,0","3","false",""
"","html-keyboard-response","233","135005","0.0-257.0","3N2BF7Y2VRGJS5UELSY1THV5SIJMHD","ALVNMQMD3Q3ZE","3THR0FZ95PF7SK0MYRNAOUHTWDJOLG","","null","<img src=""img/food4.png"" style=""width:200px; border:14px solid green;"">","null","","","","","","","","","",""
"","image-keyboard-response","234","135210","0.0-259.0","3N2BF7Y2VRGJS5UELSY1THV5SIJMHD","ALVNMQMD3Q3ZE","3THR0FZ95PF7SK0MYRNAOUHTWDJOLG","","203.39999985694885","img/food2.png","74","204.29999995231628","1","1","3","2","1,0.5,0,1,0.5,0,0.5,0,1","0,1,0.5,0,1,0.5,1,0.5,0","3","false",""
"","html-keyboard-response","235","135513","0.0-260.0","3N2BF7Y2VRGJS5UELSY1THV5SIJMHD","ALVNMQMD3Q3ZE","3THR0FZ95PF7SK0MYRNAOUHTWDJOLG","","null","<img src=""img/food2.png"" style=""width:200px; border:14px solid green;"">","null","","","","","","","","","",""
"","image-keyboard-response","236","135649","0.0-262.0","3N2BF7Y2VRGJS5UELSY1THV5SIJMHD","ALVNMQMD3Q3ZE","3THR0FZ95PF7SK0MYRNAOUHTWDJOLG","","134.60000014305115","img/food4.png","75","135.89999985694885","2","1","2","2","1,0.5,0,1,0.5,0,0.5,0,1","0,1,0.5,0,1,0.5,1,0.5,0","3","false",""
"","html-keyboard-response","237","135958","0.0-263.0","3N2BF7Y2VRGJS5UELSY1THV5SIJMHD","ALVNMQMD3Q3ZE","3THR0FZ95PF7SK0MYRNAOUHTWDJOLG","","null","<img src=""img/food4.png"" style=""width:200px; border:14px solid green;"">","null","","","","","","","","","",""
"","image-keyboard-response","238","136099","0.0-265.0","3N2BF7Y2VRGJS5UELSY1THV5SIJMHD","ALVNMQMD3Q3ZE","3THR0FZ95PF7SK0MYRNAOUHTWDJOLG","","140.29999995231628","img/food2.png","74","141.20000004768372","1","1","3","2","1,0.5,0,1,0.5,0,0.5,0,1","0,1,0.5,0,1,0.5,1,0.5,0","3","false",""
"","html-keyboard-response","239","136401","0.0-266.0","3N2BF7Y2VRGJS5UELSY1THV5SIJMHD","ALVNMQMD3Q3ZE","3THR0FZ95PF7SK0MYRNAOUHTWDJOLG","","null","<img src=""img/food2.png"" style=""width:200px; border:14px solid green;"">","null","","","","","","","","","",""
"","image-keyboard-response","240","136570","0.0-268.0","3N2BF7Y2VRGJS5UELSY1THV5SIJMHD","ALVNMQMD3Q3ZE","3THR0FZ95PF7SK0MYRNAOUHTWDJOLG","","168.19999980926514","img/food4.png","76","169.10000014305115","3","0","2","2","1,0.5,0,1,0.5,0,0.5,0,1","0,1,0.5,0,1,0.5,1,0.5,0","3","false",""
"","html-keyboard-response","241","136872","0.0-269.0","3N2BF7Y2VRGJS5UELSY1THV5SIJMHD","ALVNMQMD3Q3ZE","3THR0FZ95PF7SK0MYRNAOUHTWDJOLG","","null","<img src=""img/food4.png"" style=""width:200px;border:14px solid red;"">","null","","","","","","","","","",""
"","image-keyboard-response","242","137038","0.0-271.0","3N2BF7Y2VRGJS5UELSY1THV5SIJMHD","ALVNMQMD3Q3ZE","3THR0FZ95PF7SK0MYRNAOUHTWDJOLG","","164.59999990463257","img/food2.png","74","165.79999995231628","1","1","3","2","1,0.5,0,1,0.5,0,0.5,0,1","0,1,0.5,0,1,0.5,1,0.5,0","3","false",""
"","html-keyboard-response","243","137343","0.0-272.0","3N2BF7Y2VRGJS5UELSY1THV5SIJMHD","ALVNMQMD3Q3ZE","3THR0FZ95PF7SK0MYRNAOUHTWDJOLG","","null","<img src=""img/food2.png"" style=""width:200px; border:14px solid green;"">","null","","","","","","","","","",""
"","image-keyboard-response","244","137474","0.0-274.0","3N2BF7Y2VRGJS5UELSY1THV5SIJMHD","ALVNMQMD3Q3ZE","3THR0FZ95PF7SK0MYRNAOUHTWDJOLG","","129.20000004768372","img/food2.png","74","130.10000014305115","1","1","3","2","1,0.5,0,1,0.5,0,0.5,0,1","0,1,0.5,0,1,0.5,1,0.5,0","3","false",""
"","html-keyboard-response","245","137776","0.0-275.0","3N2BF7Y2VRGJS5UELSY1THV5SIJMHD","ALVNMQMD3Q3ZE","3THR0FZ95PF7SK0MYRNAOUHTWDJOLG","","null","<img src=""img/food2.png"" style=""width:200px; border:14px solid green;"">","null","","","","","","","","","",""
"","image-keyboard-response","246","137914","0.0-277.0","3N2BF7Y2VRGJS5UELSY1THV5SIJMHD","ALVNMQMD3Q3ZE","3THR0FZ95PF7SK0MYRNAOUHTWDJOLG","","134.5","img/food4.png","74","135.5","1","0","2","2","1,0.5,0,1,0.5,0,0.5,0,1","0,1,0.5,0,1,0.5,1,0.5,0","3","false",""
"","html-keyboard-response","247","138216","0.0-278.0","3N2BF7Y2VRGJS5UELSY1THV5SIJMHD","ALVNMQMD3Q3ZE","3THR0FZ95PF7SK0MYRNAOUHTWDJOLG","","null","<img src=""img/food4.png"" style=""width:200px;border:14px solid red;"">","null","","","","","","","","","",""
"","image-keyboard-response","248","138298","0.0-280.0","3N2BF7Y2VRGJS5UELSY1THV5SIJMHD","ALVNMQMD3Q3ZE","3THR0FZ95PF7SK0MYRNAOUHTWDJOLG","","80.79999995231628","img/food2.png","74","81.60000014305115","1","1","3","2","1,0.5,0,1,0.5,0,0.5,0,1","0,1,0.5,0,1,0.5,1,0.5,0","3","false",""
"","html-keyboard-response","249","138601","0.0-281.0","3N2BF7Y2VRGJS5UELSY1THV5SIJMHD","ALVNMQMD3Q3ZE","3THR0FZ95PF7SK0MYRNAOUHTWDJOLG","","null","<img src=""img/food2.png"" style=""width:200px; border:14px solid green;"">","null","","","","","","","","","",""
"","image-keyboard-response","250","138628","0.0-283.0","3N2BF7Y2VRGJS5UELSY1THV5SIJMHD","ALVNMQMD3Q3ZE","3THR0FZ95PF7SK0MYRNAOUHTWDJOLG","","25.799999952316284","img/food2.png","74","26.600000143051147","1","1","3","2","1,0.5,0,1,0.5,0,0.5,0,1","0,1,0.5,0,1,0.5,1,0.5,0","3","false",""
"","html-keyboard-response","251","138929","0.0-284.0","3N2BF7Y2VRGJS5UELSY1THV5SIJMHD","ALVNMQMD3Q3ZE","3THR0FZ95PF7SK0MYRNAOUHTWDJOLG","","null","<img src=""img/food2.png"" style=""width:200px; border:14px solid green;"">","null","","","","","","","","","",""
"","image-keyboard-response","252","139036","0.0-286.0","3N2BF7Y2VRGJS5UELSY1THV5SIJMHD","ALVNMQMD3Q3ZE","3THR0FZ95PF7SK0MYRNAOUHTWDJOLG","","104.40000009536743","img/food6.png","74","105.80000019073486","1","0","1","2","1,0.5,0,1,0.5,0,0.5,0,1","0,1,0.5,0,1,0.5,1,0.5,0","3","false",""
"","html-keyboard-response","253","139339","0.0-287.0","3N2BF7Y2VRGJS5UELSY1THV5SIJMHD","ALVNMQMD3Q3ZE","3THR0FZ95PF7SK0MYRNAOUHTWDJOLG","","null","<img src=""img/food6.png"" style=""width:200px;border:14px solid red;"">","null","","","","","","","","","",""
"","image-keyboard-response","254","139371","0.0-289.0","3N2BF7Y2VRGJS5UELSY1THV5SIJMHD","ALVNMQMD3Q3ZE","3THR0FZ95PF7SK0MYRNAOUHTWDJOLG","","31.09999990463257","img/food4.png","74","32.40000009536743","1","0","2","2","1,0.5,0,1,0.5,0,0.5,0,1","0,1,0.5,0,1,0.5,1,0.5,0","3","false",""
"","html-keyboard-response","255","139675","0.0-290.0","3N2BF7Y2VRGJS5UELSY1THV5SIJMHD","ALVNMQMD3Q3ZE","3THR0FZ95PF7SK0MYRNAOUHTWDJOLG","","null","<img src=""img/food4.png"" style=""width:200px;border:14px solid red;"">","null","","","","","","","","","",""
"","image-keyboard-response","256","139741","0.0-292.0","3N2BF7Y2VRGJS5UELSY1THV5SIJMHD","ALVNMQMD3Q3ZE","3THR0FZ95PF7SK0MYRNAOUHTWDJOLG","","64.79999995231628","img/food6.png","74","65.69999980926514","1","0","1","2","1,0.5,0,1,0.5,0,0.5,0,1","0,1,0.5,0,1,0.5,1,0.5,0","3","false",""
"","html-keyboard-response","257","140044","0.0-293.0","3N2BF7Y2VRGJS5UELSY1THV5SIJMHD","ALVNMQMD3Q3ZE","3THR0FZ95PF7SK0MYRNAOUHTWDJOLG","","null","<img src=""img/food6.png"" style=""width:200px;border:14px solid red;"">","null","","","","","","","","","",""
"","image-keyboard-response","258","140238","0.0-295.0","3N2BF7Y2VRGJS5UELSY1THV5SIJMHD","ALVNMQMD3Q3ZE","3THR0FZ95PF7SK0MYRNAOUHTWDJOLG","","191.29999995231628","img/food6.png","75","192.90000009536743","2","1","1","2","1,0.5,0,1,0.5,0,0.5,0,1","0,1,0.5,0,1,0.5,1,0.5,0","3","false",""
"","html-keyboard-response","259","140541","0.0-296.0","3N2BF7Y2VRGJS5UELSY1THV5SIJMHD","ALVNMQMD3Q3ZE","3THR0FZ95PF7SK0MYRNAOUHTWDJOLG","","null","<img src=""img/food6.png"" style=""width:200px; border:14px solid green;"">","null","","","","","","","","","",""
"","image-keyboard-response","260","140637","0.0-298.0","3N2BF7Y2VRGJS5UELSY1THV5SIJMHD","ALVNMQMD3Q3ZE","3THR0FZ95PF7SK0MYRNAOUHTWDJOLG","","95.10000014305115","img/food4.png","75","96.10000014305115","2","1","2","2","1,0.5,0,1,0.5,0,0.5,0,1","0,1,0.5,0,1,0.5,1,0.5,0","3","false",""
"","html-keyboard-response","261","140939","0.0-299.0","3N2BF7Y2VRGJS5UELSY1THV5SIJMHD","ALVNMQMD3Q3ZE","3THR0FZ95PF7SK0MYRNAOUHTWDJOLG","","null","<img src=""img/food4.png"" style=""width:200px; border:14px solid green;"">","null","","","","","","","","","",""
"","image-keyboard-response","262","141116","0.0-301.0","3N2BF7Y2VRGJS5UELSY1THV5SIJMHD","ALVNMQMD3Q3ZE","3THR0FZ95PF7SK0MYRNAOUHTWDJOLG","","175.20000004768372","img/food2.png","75","176.5","2","0","3","2","1,0.5,0,1,0.5,0,0.5,0,1","0,1,0.5,0,1,0.5,1,0.5,0","3","false",""
"","html-keyboard-response","263","141419","0.0-302.0","3N2BF7Y2VRGJS5UELSY1THV5SIJMHD","ALVNMQMD3Q3ZE","3THR0FZ95PF7SK0MYRNAOUHTWDJOLG","","null","<img src=""img/food2.png"" style=""width:200px;border:14px solid red;"">","null","","","","","","","","","",""
"","image-keyboard-response","264","141455","0.0-304.0","3N2BF7Y2VRGJS5UELSY1THV5SIJMHD","ALVNMQMD3Q3ZE","3THR0FZ95PF7SK0MYRNAOUHTWDJOLG","","35","img/food6.png","74","35.69999980926514","1","0","1","2","1,0.5,0,1,0.5,0,0.5,0,1","0,1,0.5,0,1,0.5,1,0.5,0","3","false",""
"","html-keyboard-response","265","141757","0.0-305.0","3N2BF7Y2VRGJS5UELSY1THV5SIJMHD","ALVNMQMD3Q3ZE","3THR0FZ95PF7SK0MYRNAOUHTWDJOLG","","null","<img src=""img/food6.png"" style=""width:200px;border:14px solid red;"">","null","","","","","","","","","",""
"","image-keyboard-response","266","141991","0.0-307.0","3N2BF7Y2VRGJS5UELSY1THV5SIJMHD","ALVNMQMD3Q3ZE","3THR0FZ95PF7SK0MYRNAOUHTWDJOLG","","232.5","img/food2.png","75","233.79999995231628","2","1","3","2","1,0.5,0,1,0.5,0,0.5,0,1","0,1,0.5,0,1,0.5,1,0.5,0","3","false",""
"","html-keyboard-response","267","142294","0.0-308.0","3N2BF7Y2VRGJS5UELSY1THV5SIJMHD","ALVNMQMD3Q3ZE","3THR0FZ95PF7SK0MYRNAOUHTWDJOLG","","null","<img src=""img/food2.png"" style=""width:200px; border:14px solid green;"">","null","","","","","","","","","",""
"","image-keyboard-response","268","142474","0.0-310.0","3N2BF7Y2VRGJS5UELSY1THV5SIJMHD","ALVNMQMD3Q3ZE","3THR0FZ95PF7SK0MYRNAOUHTWDJOLG","","178.5","img/food2.png","74","179.29999995231628","1","1","3","2","1,0.5,0,1,0.5,0,0.5,0,1","0,1,0.5,0,1,0.5,1,0.5,0","3","false",""
"","html-keyboard-response","269","142777","0.0-311.0","3N2BF7Y2VRGJS5UELSY1THV5SIJMHD","ALVNMQMD3Q3ZE","3THR0FZ95PF7SK0MYRNAOUHTWDJOLG","","null","<img src=""img/food2.png"" style=""width:200px; border:14px solid green;"">","null","","","","","","","","","",""
"","image-keyboard-response","270","142927","0.0-313.0","3N2BF7Y2VRGJS5UELSY1THV5SIJMHD","ALVNMQMD3Q3ZE","3THR0FZ95PF7SK0MYRNAOUHTWDJOLG","","148.90000009536743","img/food6.png","76","149.90000009536743","3","0","1","2","1,0.5,0,1,0.5,0,0.5,0,1","0,1,0.5,0,1,0.5,1,0.5,0","3","false",""
"","html-keyboard-response","271","143229","0.0-314.0","3N2BF7Y2VRGJS5UELSY1THV5SIJMHD","ALVNMQMD3Q3ZE","3THR0FZ95PF7SK0MYRNAOUHTWDJOLG","","null","<img src=""img/food6.png"" style=""width:200px;border:14px solid red;"">","null","","","","","","","","","",""
"","image-keyboard-response","272","143360","0.0-316.0","3N2BF7Y2VRGJS5UELSY1THV5SIJMHD","ALVNMQMD3Q3ZE","3THR0FZ95PF7SK0MYRNAOUHTWDJOLG","","129.70000004768372","img/food2.png","74","130.80000019073486","1","1","3","2","1,0.5,0,1,0.5,0,0.5,0,1","0,1,0.5,0,1,0.5,1,0.5,0","3","false",""
"","html-keyboard-response","273","143662","0.0-317.0","3N2BF7Y2VRGJS5UELSY1THV5SIJMHD","ALVNMQMD3Q3ZE","3THR0FZ95PF7SK0MYRNAOUHTWDJOLG","","null","<img src=""img/food2.png"" style=""width:200px; border:14px solid green;"">","null","","","","","","","","","",""
"","image-keyboard-response","274","143795","0.0-319.0","3N2BF7Y2VRGJS5UELSY1THV5SIJMHD","ALVNMQMD3Q3ZE","3THR0FZ95PF7SK0MYRNAOUHTWDJOLG","","131.09999990463257","img/food2.png","74","132.29999995231628","1","1","3","2","1,0.5,0,1,0.5,0,0.5,0,1","0,1,0.5,0,1,0.5,1,0.5,0","3","false",""
"","html-keyboard-response","275","144097","0.0-320.0","3N2BF7Y2VRGJS5UELSY1THV5SIJMHD","ALVNMQMD3Q3ZE","3THR0FZ95PF7SK0MYRNAOUHTWDJOLG","","null","<img src=""img/food2.png"" style=""width:200px; border:14px solid green;"">","null","","","","","","","","","",""
"","image-keyboard-response","276","144234","0.0-322.0","3N2BF7Y2VRGJS5UELSY1THV5SIJMHD","ALVNMQMD3Q3ZE","3THR0FZ95PF7SK0MYRNAOUHTWDJOLG","","134.69999980926514","img/food2.png","74","135.79999995231628","1","1","3","2","1,0.5,0,1,0.5,0,0.5,0,1","0,1,0.5,0,1,0.5,1,0.5,0","3","false",""
"","html-keyboard-response","277","144535","0.0-323.0","3N2BF7Y2VRGJS5UELSY1THV5SIJMHD","ALVNMQMD3Q3ZE","3THR0FZ95PF7SK0MYRNAOUHTWDJOLG","","null","<img src=""img/food2.png"" style=""width:200px; border:14px solid green;"">","null","","","","","","","","","",""
"","image-keyboard-response","278","144645","0.0-325.0","3N2BF7Y2VRGJS5UELSY1THV5SIJMHD","ALVNMQMD3Q3ZE","3THR0FZ95PF7SK0MYRNAOUHTWDJOLG","","109","img/food4.png","74","109.89999985694885","1","0","2","2","1,0.5,0,1,0.5,0,0.5,0,1","0,1,0.5,0,1,0.5,1,0.5,0","3","false",""
"","html-keyboard-response","279","144948","0.0-326.0","3N2BF7Y2VRGJS5UELSY1THV5SIJMHD","ALVNMQMD3Q3ZE","3THR0FZ95PF7SK0MYRNAOUHTWDJOLG","","null","<img src=""img/food4.png"" style=""width:200px;border:14px solid red;"">","null","","","","","","","","","",""
"","image-keyboard-response","280","145248","0.0-328.0","3N2BF7Y2VRGJS5UELSY1THV5SIJMHD","ALVNMQMD3Q3ZE","3THR0FZ95PF7SK0MYRNAOUHTWDJOLG","","298.5","img/food4.png","75","299.40000009536743","2","1","2","2","1,0.5,0,1,0.5,0,0.5,0,1","0,1,0.5,0,1,0.5,1,0.5,0","3","false",""
"","html-keyboard-response","281","145551","0.0-329.0","3N2BF7Y2VRGJS5UELSY1THV5SIJMHD","ALVNMQMD3Q3ZE","3THR0FZ95PF7SK0MYRNAOUHTWDJOLG","","null","<img src=""img/food4.png"" style=""width:200px; border:14px solid green;"">","null","","","","","","","","","",""
"","image-keyboard-response","282","145738","0.0-331.0","3N2BF7Y2VRGJS5UELSY1THV5SIJMHD","ALVNMQMD3Q3ZE","3THR0FZ95PF7SK0MYRNAOUHTWDJOLG","","186.20000004768372","img/food4.png","76","187.09999990463257","3","0","2","2","1,0.5,0,1,0.5,0,0.5,0,1","0,1,0.5,0,1,0.5,1,0.5,0","3","false",""
"","html-keyboard-response","283","146040","0.0-332.0","3N2BF7Y2VRGJS5UELSY1THV5SIJMHD","ALVNMQMD3Q3ZE","3THR0FZ95PF7SK0MYRNAOUHTWDJOLG","","null","<img src=""img/food4.png"" style=""width:200px;border:14px solid red;"">","null","","","","","","","","","",""
"","image-keyboard-response","284","146148","0.0-334.0","3N2BF7Y2VRGJS5UELSY1THV5SIJMHD","ALVNMQMD3Q3ZE","3THR0FZ95PF7SK0MYRNAOUHTWDJOLG","","106.29999995231628","img/food6.png","75","107.39999985694885","2","1","1","2","1,0.5,0,1,0.5,0,0.5,0,1","0,1,0.5,0,1,0.5,1,0.5,0","3","false",""
"","html-keyboard-response","285","146451","0.0-335.0","3N2BF7Y2VRGJS5UELSY1THV5SIJMHD","ALVNMQMD3Q3ZE","3THR0FZ95PF7SK0MYRNAOUHTWDJOLG","","null","<img src=""img/food6.png"" style=""width:200px; border:14px solid green;"">","null","","","","","","","","","",""
"","image-keyboard-response","286","146629","0.0-337.0","3N2BF7Y2VRGJS5UELSY1THV5SIJMHD","ALVNMQMD3Q3ZE","3THR0FZ95PF7SK0MYRNAOUHTWDJOLG","","177.70000004768372","img/food4.png","74","178.39999985694885","1","0","2","2","1,0.5,0,1,0.5,0,0.5,0,1","0,1,0.5,0,1,0.5,1,0.5,0","3","false",""
"","html-keyboard-response","287","146932","0.0-338.0","3N2BF7Y2VRGJS5UELSY1THV5SIJMHD","ALVNMQMD3Q3ZE","3THR0FZ95PF7SK0MYRNAOUHTWDJOLG","","null","<img src=""img/food4.png"" style=""width:200px;border:14px solid red;"">","null","","","","","","","","","",""
"","image-keyboard-response","288","147173","0.0-340.0","3N2BF7Y2VRGJS5UELSY1THV5SIJMHD","ALVNMQMD3Q3ZE","3THR0FZ95PF7SK0MYRNAOUHTWDJOLG","","240.09999990463257","img/food4.png","76","241.19999980926514","3","1","2","2","1,0.5,0,1,0.5,0,0.5,0,1","0,1,0.5,0,1,0.5,1,0.5,0","3","false",""
"","html-keyboard-response","289","147475","0.0-341.0","3N2BF7Y2VRGJS5UELSY1THV5SIJMHD","ALVNMQMD3Q3ZE","3THR0FZ95PF7SK0MYRNAOUHTWDJOLG","","null","<img src=""img/food4.png"" style=""width:200px; border:14px solid green;"">","null","","","","","","","","","",""
"","image-keyboard-response","290","147688","0.0-343.0","3N2BF7Y2VRGJS5UELSY1THV5SIJMHD","ALVNMQMD3Q3ZE","3THR0FZ95PF7SK0MYRNAOUHTWDJOLG","","209.90000009536743","img/food2.png","74","212.40000009536743","1","1","3","2","1,0.5,0,1,0.5,0,0.5,0,1","0,1,0.5,0,1,0.5,1,0.5,0","3","false",""
"","html-keyboard-response","291","147991","0.0-344.0","3N2BF7Y2VRGJS5UELSY1THV5SIJMHD","ALVNMQMD3Q3ZE","3THR0FZ95PF7SK0MYRNAOUHTWDJOLG","","null","<img src=""img/food2.png"" style=""width:200px; border:14px solid green;"">","null","","","","","","","","","",""
"","image-keyboard-response","292","148161","0.0-346.0","3N2BF7Y2VRGJS5UELSY1THV5SIJMHD","ALVNMQMD3Q3ZE","3THR0FZ95PF7SK0MYRNAOUHTWDJOLG","","168.79999995231628","img/food6.png","74","169.70000004768372","1","0","1","2","1,0.5,0,1,0.5,0,0.5,0,1","0,1,0.5,0,1,0.5,1,0.5,0","3","false",""
"","html-keyboard-response","293","148463","0.0-347.0","3N2BF7Y2VRGJS5UELSY1THV5SIJMHD","ALVNMQMD3Q3ZE","3THR0FZ95PF7SK0MYRNAOUHTWDJOLG","","null","<img src=""img/food6.png"" style=""width:200px;border:14px solid red;"">","null","","","","","","","","","",""
"","image-keyboard-response","294","148650","0.0-349.0","3N2BF7Y2VRGJS5UELSY1THV5SIJMHD","ALVNMQMD3Q3ZE","3THR0FZ95PF7SK0MYRNAOUHTWDJOLG","","186.29999995231628","img/food2.png","74","187","1","1","3","2","1,0.5,0,1,0.5,0,0.5,0,1","0,1,0.5,0,1,0.5,1,0.5,0","3","false",""
"","html-keyboard-response","295","148955","0.0-350.0","3N2BF7Y2VRGJS5UELSY1THV5SIJMHD","ALVNMQMD3Q3ZE","3THR0FZ95PF7SK0MYRNAOUHTWDJOLG","","null","<img src=""img/food2.png"" style=""width:200px; border:14px solid green;"">","null","","","","","","","","","",""
"","image-keyboard-response","296","149265","0.0-352.0","3N2BF7Y2VRGJS5UELSY1THV5SIJMHD","ALVNMQMD3Q3ZE","3THR0FZ95PF7SK0MYRNAOUHTWDJOLG","","308.7000000476837","img/food2.png","76","309.39999985694885","3","0","3","2","1,0.5,0,1,0.5,0,0.5,0,1","0,1,0.5,0,1,0.5,1,0.5,0","3","false",""
"","html-keyboard-response","297","149567","0.0-353.0","3N2BF7Y2VRGJS5UELSY1THV5SIJMHD","ALVNMQMD3Q3ZE","3THR0FZ95PF7SK0MYRNAOUHTWDJOLG","","null","<img src=""img/food2.png"" style=""width:200px;border:14px solid red;"">","null","","","","","","","","","",""
"","image-keyboard-response","298","149777","0.0-355.0","3N2BF7Y2VRGJS5UELSY1THV5SIJMHD","ALVNMQMD3Q3ZE","3THR0FZ95PF7SK0MYRNAOUHTWDJOLG","","208.59999990463257","img/food6.png","74","210.10000014305115","1","0","1","2","1,0.5,0,1,0.5,0,0.5,0,1","0,1,0.5,0,1,0.5,1,0.5,0","3","false",""
"","html-keyboard-response","299","150080","0.0-356.0","3N2BF7Y2VRGJS5UELSY1THV5SIJMHD","ALVNMQMD3Q3ZE","3THR0FZ95PF7SK0MYRNAOUHTWDJOLG","","null","<img src=""img/food6.png"" style=""width:200px;border:14px solid red;"">","null","","","","","","","","","",""
"","image-keyboard-response","300","150313","0.0-358.0","3N2BF7Y2VRGJS5UELSY1THV5SIJMHD","ALVNMQMD3Q3ZE","3THR0FZ95PF7SK0MYRNAOUHTWDJOLG","","231.79999995231628","img/food4.png","75","232.69999980926514","2","1","2","2","1,0.5,0,1,0.5,0,0.5,0,1","0,1,0.5,0,1,0.5,1,0.5,0","3","false",""
"","html-keyboard-response","301","150616","0.0-359.0","3N2BF7Y2VRGJS5UELSY1THV5SIJMHD","ALVNMQMD3Q3ZE","3THR0FZ95PF7SK0MYRNAOUHTWDJOLG","","null","<img src=""img/food4.png"" style=""width:200px; border:14px solid green;"">","null","","","","","","","","","",""
"","image-keyboard-response","302","150864","0.0-361.0","3N2BF7Y2VRGJS5UELSY1THV5SIJMHD","ALVNMQMD3Q3ZE","3THR0FZ95PF7SK0MYRNAOUHTWDJOLG","","247.39999985694885","img/food2.png","75","248.29999995231628","2","0","3","2","1,0.5,0,1,0.5,0,0.5,0,1","0,1,0.5,0,1,0.5,1,0.5,0","3","false",""
"","html-keyboard-response","303","151167","0.0-362.0","3N2BF7Y2VRGJS5UELSY1THV5SIJMHD","ALVNMQMD3Q3ZE","3THR0FZ95PF7SK0MYRNAOUHTWDJOLG","","null","<img src=""img/food2.png"" style=""width:200px;border:14px solid red;"">","null","","","","","","","","","",""
"","image-keyboard-response","304","151446","0.0-364.0","3N2BF7Y2VRGJS5UELSY1THV5SIJMHD","ALVNMQMD3Q3ZE","3THR0FZ95PF7SK0MYRNAOUHTWDJOLG","","277.2000000476837","img/food2.png","74","278.39999985694885","1","1","3","2","1,0.5,0,1,0.5,0,0.5,0,1","0,1,0.5,0,1,0.5,1,0.5,0","3","false",""
"","html-keyboard-response","305","151748","0.0-365.0","3N2BF7Y2VRGJS5UELSY1THV5SIJMHD","ALVNMQMD3Q3ZE","3THR0FZ95PF7SK0MYRNAOUHTWDJOLG","","null","<img src=""img/food2.png"" style=""width:200px; border:14px solid green;"">","null","","","","","","","","","",""
"","image-keyboard-response","306","151900","0.0-367.0","3N2BF7Y2VRGJS5UELSY1THV5SIJMHD","ALVNMQMD3Q3ZE","3THR0FZ95PF7SK0MYRNAOUHTWDJOLG","","150.40000009536743","img/food2.png","74","151.29999995231628","1","1","3","2","1,0.5,0,1,0.5,0,0.5,0,1","0,1,0.5,0,1,0.5,1,0.5,0","3","false",""
"","html-keyboard-response","307","152202","0.0-368.0","3N2BF7Y2VRGJS5UELSY1THV5SIJMHD","ALVNMQMD3Q3ZE","3THR0FZ95PF7SK0MYRNAOUHTWDJOLG","","null","<img src=""img/food2.png"" style=""width:200px; border:14px solid green;"">","null","","","","","","","","","",""
"","image-keyboard-response","308","152336","0.0-370.0","3N2BF7Y2VRGJS5UELSY1THV5SIJMHD","ALVNMQMD3Q3ZE","3THR0FZ95PF7SK0MYRNAOUHTWDJOLG","","132.70000004768372","img/food2.png","74","133.40000009536743","1","1","3","2","1,0.5,0,1,0.5,0,0.5,0,1","0,1,0.5,0,1,0.5,1,0.5,0","3","false",""
"","html-keyboard-response","309","152638","0.0-371.0","3N2BF7Y2VRGJS5UELSY1THV5SIJMHD","ALVNMQMD3Q3ZE","3THR0FZ95PF7SK0MYRNAOUHTWDJOLG","","null","<img src=""img/food2.png"" style=""width:200px; border:14px solid green;"">","null","","","","","","","","","",""
"","image-keyboard-response","310","152771","0.0-373.0","3N2BF7Y2VRGJS5UELSY1THV5SIJMHD","ALVNMQMD3Q3ZE","3THR0FZ95PF7SK0MYRNAOUHTWDJOLG","","132.70000004768372","img/food4.png","74","133.60000014305115","1","0","2","2","1,0.5,0,1,0.5,0,0.5,0,1","0,1,0.5,0,1,0.5,1,0.5,0","3","false",""
"","html-keyboard-response","311","153073","0.0-374.0","3N2BF7Y2VRGJS5UELSY1THV5SIJMHD","ALVNMQMD3Q3ZE","3THR0FZ95PF7SK0MYRNAOUHTWDJOLG","","null","<img src=""img/food4.png"" style=""width:200px;border:14px solid red;"">","null","","","","","","","","","",""
"","image-keyboard-response","312","153350","0.0-376.0","3N2BF7Y2VRGJS5UELSY1THV5SIJMHD","ALVNMQMD3Q3ZE","3THR0FZ95PF7SK0MYRNAOUHTWDJOLG","","275.7999999523163","img/food4.png","75","276.60000014305115","2","1","2","2","1,0.5,0,1,0.5,0,0.5,0,1","0,1,0.5,0,1,0.5,1,0.5,0","3","false",""
"","html-keyboard-response","313","153652","0.0-377.0","3N2BF7Y2VRGJS5UELSY1THV5SIJMHD","ALVNMQMD3Q3ZE","3THR0FZ95PF7SK0MYRNAOUHTWDJOLG","","null","<img src=""img/food4.png"" style=""width:200px; border:14px solid green;"">","null","","","","","","","","","",""
"","image-keyboard-response","314","153833","0.0-379.0","3N2BF7Y2VRGJS5UELSY1THV5SIJMHD","ALVNMQMD3Q3ZE","3THR0FZ95PF7SK0MYRNAOUHTWDJOLG","","178.70000004768372","img/food6.png","74","179.79999995231628","1","0","1","2","1,0.5,0,1,0.5,0,0.5,0,1","0,1,0.5,0,1,0.5,1,0.5,0","3","false",""
"","html-keyboard-response","315","154134","0.0-380.0","3N2BF7Y2VRGJS5UELSY1THV5SIJMHD","ALVNMQMD3Q3ZE","3THR0FZ95PF7SK0MYRNAOUHTWDJOLG","","null","<img src=""img/food6.png"" style=""width:200px;border:14px solid red;"">","null","","","","","","","","","",""
"","image-keyboard-response","316","154300","0.0-382.0","3N2BF7Y2VRGJS5UELSY1THV5SIJMHD","ALVNMQMD3Q3ZE","3THR0FZ95PF7SK0MYRNAOUHTWDJOLG","","164.29999995231628","img/food2.png","74","165.20000004768372","1","1","3","2","1,0.5,0,1,0.5,0,0.5,0,1","0,1,0.5,0,1,0.5,1,0.5,0","3","false",""
"","html-keyboard-response","317","154603","0.0-383.0","3N2BF7Y2VRGJS5UELSY1THV5SIJMHD","ALVNMQMD3Q3ZE","3THR0FZ95PF7SK0MYRNAOUHTWDJOLG","","null","<img src=""img/food2.png"" style=""width:200px; border:14px solid green;"">","null","","","","","","","","","",""
"","image-keyboard-response","318","154784","0.0-385.0","3N2BF7Y2VRGJS5UELSY1THV5SIJMHD","ALVNMQMD3Q3ZE","3THR0FZ95PF7SK0MYRNAOUHTWDJOLG","","180.19999980926514","img/food2.png","76","180.90000009536743","3","0","3","2","1,0.5,0,1,0.5,0,0.5,0,1","0,1,0.5,0,1,0.5,1,0.5,0","3","false",""
"","html-keyboard-response","319","155087","0.0-386.0","3N2BF7Y2VRGJS5UELSY1THV5SIJMHD","ALVNMQMD3Q3ZE","3THR0FZ95PF7SK0MYRNAOUHTWDJOLG","","null","<img src=""img/food2.png"" style=""width:200px;border:14px solid red;"">","null","","","","","","","","","",""
"","image-keyboard-response","320","155300","0.0-388.0","3N2BF7Y2VRGJS5UELSY1THV5SIJMHD","ALVNMQMD3Q3ZE","3THR0FZ95PF7SK0MYRNAOUHTWDJOLG","","211.79999995231628","img/food6.png","74","213","1","0","1","2","1,0.5,0,1,0.5,0,0.5,0,1","0,1,0.5,0,1,0.5,1,0.5,0","3","false",""
"","html-keyboard-response","321","155603","0.0-389.0","3N2BF7Y2VRGJS5UELSY1THV5SIJMHD","ALVNMQMD3Q3ZE","3THR0FZ95PF7SK0MYRNAOUHTWDJOLG","","null","<img src=""img/food6.png"" style=""width:200px;border:14px solid red;"">","null","","","","","","","","","",""
"","image-keyboard-response","322","155753","0.0-391.0","3N2BF7Y2VRGJS5UELSY1THV5SIJMHD","ALVNMQMD3Q3ZE","3THR0FZ95PF7SK0MYRNAOUHTWDJOLG","","148.29999995231628","img/food4.png","74","149.59999990463257","1","0","2","2","1,0.5,0,1,0.5,0,0.5,0,1","0,1,0.5,0,1,0.5,1,0.5,0","3","false",""
"","html-keyboard-response","323","156055","0.0-392.0","3N2BF7Y2VRGJS5UELSY1THV5SIJMHD","ALVNMQMD3Q3ZE","3THR0FZ95PF7SK0MYRNAOUHTWDJOLG","","null","<img src=""img/food4.png"" style=""width:200px;border:14px solid red;"">","null","","","","","","","","","",""
"","image-keyboard-response","324","156215","0.0-394.0","3N2BF7Y2VRGJS5UELSY1THV5SIJMHD","ALVNMQMD3Q3ZE","3THR0FZ95PF7SK0MYRNAOUHTWDJOLG","","158.29999995231628","img/food6.png","74","159.5","1","0","1","2","1,0.5,0,1,0.5,0,0.5,0,1","0,1,0.5,0,1,0.5,1,0.5,0","3","false",""
"","html-keyboard-response","325","156517","0.0-395.0","3N2BF7Y2VRGJS5UELSY1THV5SIJMHD","ALVNMQMD3Q3ZE","3THR0FZ95PF7SK0MYRNAOUHTWDJOLG","","null","<img src=""img/food6.png"" style=""width:200px;border:14px solid red;"">","null","","","","","","","","","",""
"","image-keyboard-response","326","156840","0.0-397.0","3N2BF7Y2VRGJS5UELSY1THV5SIJMHD","ALVNMQMD3Q3ZE","3THR0FZ95PF7SK0MYRNAOUHTWDJOLG","","321.7999999523163","img/food6.png","75","322.7000000476837","2","1","1","2","1,0.5,0,1,0.5,0,0.5,0,1","0,1,0.5,0,1,0.5,1,0.5,0","3","false",""
"","html-keyboard-response","327","157142","0.0-398.0","3N2BF7Y2VRGJS5UELSY1THV5SIJMHD","ALVNMQMD3Q3ZE","3THR0FZ95PF7SK0MYRNAOUHTWDJOLG","","null","<img src=""img/food6.png"" style=""width:200px; border:14px solid green;"">","null","","","","","","","","","",""
"","image-keyboard-response","328","157305","0.0-400.0","3N2BF7Y2VRGJS5UELSY1THV5SIJMHD","ALVNMQMD3Q3ZE","3THR0FZ95PF7SK0MYRNAOUHTWDJOLG","","161.69999980926514","img/food6.png","75","162.59999990463257","2","1","1","2","1,0.5,0,1,0.5,0,0.5,0,1","0,1,0.5,0,1,0.5,1,0.5,0","3","false",""
"","html-keyboard-response","329","157608","0.0-401.0","3N2BF7Y2VRGJS5UELSY1THV5SIJMHD","ALVNMQMD3Q3ZE","3THR0FZ95PF7SK0MYRNAOUHTWDJOLG","","null","<img src=""img/food6.png"" style=""width:200px; border:14px solid green;"">","null","","","","","","","","","",""
"","image-keyboard-response","330","157629","0.0-403.0","3N2BF7Y2VRGJS5UELSY1THV5SIJMHD","ALVNMQMD3Q3ZE","3THR0FZ95PF7SK0MYRNAOUHTWDJOLG","","19.299999952316284","img/food6.png","76","20.299999952316284","3","1","1","2","1,0.5,0,1,0.5,0,0.5,0,1","0,1,0.5,0,1,0.5,1,0.5,0","3","false",""
"","html-keyboard-response","331","157931","0.0-404.0","3N2BF7Y2VRGJS5UELSY1THV5SIJMHD","ALVNMQMD3Q3ZE","3THR0FZ95PF7SK0MYRNAOUHTWDJOLG","","null","<img src=""img/food6.png"" style=""width:200px; border:14px solid green;"">","null","","","","","","","","","",""
"","image-keyboard-response","332","158095","0.0-406.0","3N2BF7Y2VRGJS5UELSY1THV5SIJMHD","ALVNMQMD3Q3ZE","3THR0FZ95PF7SK0MYRNAOUHTWDJOLG","","163","img/food4.png","75","164","2","1","2","2","1,0.5,0,1,0.5,0,0.5,0,1","0,1,0.5,0,1,0.5,1,0.5,0","3","false",""
"","html-keyboard-response","333","158398","0.0-407.0","3N2BF7Y2VRGJS5UELSY1THV5SIJMHD","ALVNMQMD3Q3ZE","3THR0FZ95PF7SK0MYRNAOUHTWDJOLG","","null","<img src=""img/food4.png"" style=""width:200px; border:14px solid green;"">","null","","","","","","","","","",""
"","image-keyboard-response","334","158534","0.0-409.0","3N2BF7Y2VRGJS5UELSY1THV5SIJMHD","ALVNMQMD3Q3ZE","3THR0FZ95PF7SK0MYRNAOUHTWDJOLG","","134.29999995231628","img/food2.png","75","135.09999990463257","2","0","3","2","1,0.5,0,1,0.5,0,0.5,0,1","0,1,0.5,0,1,0.5,1,0.5,0","3","false",""
"","html-keyboard-response","335","158835","0.0-410.0","3N2BF7Y2VRGJS5UELSY1THV5SIJMHD","ALVNMQMD3Q3ZE","3THR0FZ95PF7SK0MYRNAOUHTWDJOLG","","null","<img src=""img/food2.png"" style=""width:200px;border:14px solid red;"">","null","","","","","","","","","",""
"","image-keyboard-response","336","159113","0.0-412.0","3N2BF7Y2VRGJS5UELSY1THV5SIJMHD","ALVNMQMD3Q3ZE","3THR0FZ95PF7SK0MYRNAOUHTWDJOLG","","276.2000000476837","img/food6.png","74","277.40000009536743","1","0","1","2","1,0.5,0,1,0.5,0,0.5,0,1","0,1,0.5,0,1,0.5,1,0.5,0","3","false",""
"","html-keyboard-response","337","159414","0.0-413.0","3N2BF7Y2VRGJS5UELSY1THV5SIJMHD","ALVNMQMD3Q3ZE","3THR0FZ95PF7SK0MYRNAOUHTWDJOLG","","null","<img src=""img/food6.png"" style=""width:200px;border:14px solid red;"">","null","","","","","","","","","",""
"","image-keyboard-response","338","159600","0.0-415.0","3N2BF7Y2VRGJS5UELSY1THV5SIJMHD","ALVNMQMD3Q3ZE","3THR0FZ95PF7SK0MYRNAOUHTWDJOLG","","184.70000004768372","img/food6.png","75","185.60000014305115","2","1","1","2","1,0.5,0,1,0.5,0,0.5,0,1","0,1,0.5,0,1,0.5,1,0.5,0","3","false",""
"","html-keyboard-response","339","159902","0.0-416.0","3N2BF7Y2VRGJS5UELSY1THV5SIJMHD","ALVNMQMD3Q3ZE","3THR0FZ95PF7SK0MYRNAOUHTWDJOLG","","null","<img src=""img/food6.png"" style=""width:200px; border:14px solid green;"">","null","","","","","","","","","",""
"","image-keyboard-response","340","160127","0.0-418.0","3N2BF7Y2VRGJS5UELSY1THV5SIJMHD","ALVNMQMD3Q3ZE","3THR0FZ95PF7SK0MYRNAOUHTWDJOLG","","223","img/food4.png","75","223.89999985694885","2","1","2","2","1,0.5,0,1,0.5,0,0.5,0,1","0,1,0.5,0,1,0.5,1,0.5,0","3","false",""
"","html-keyboard-response","341","160429","0.0-419.0","3N2BF7Y2VRGJS5UELSY1THV5SIJMHD","ALVNMQMD3Q3ZE","3THR0FZ95PF7SK0MYRNAOUHTWDJOLG","","null","<img src=""img/food4.png"" style=""width:200px; border:14px solid green;"">","null","","","","","","","","","",""
"","image-keyboard-response","342","160443","0.0-421.0","3N2BF7Y2VRGJS5UELSY1THV5SIJMHD","ALVNMQMD3Q3ZE","3THR0FZ95PF7SK0MYRNAOUHTWDJOLG","","12.200000047683716","img/food4.png","75","12.900000095367432","2","1","2","2","1,0.5,0,1,0.5,0,0.5,0,1","0,1,0.5,0,1,0.5,1,0.5,0","3","false",""
"","html-keyboard-response","343","160745","0.0-422.0","3N2BF7Y2VRGJS5UELSY1THV5SIJMHD","ALVNMQMD3Q3ZE","3THR0FZ95PF7SK0MYRNAOUHTWDJOLG","","null","<img src=""img/food4.png"" style=""width:200px; border:14px solid green;"">","null","","","","","","","","","",""
"","image-keyboard-response","344","160893","0.0-424.0","3N2BF7Y2VRGJS5UELSY1THV5SIJMHD","ALVNMQMD3Q3ZE","3THR0FZ95PF7SK0MYRNAOUHTWDJOLG","","146.70000004768372","img/food2.png","75","148","2","1","3","2","1,0.5,0,1,0.5,0,0.5,0,1","0,1,0.5,0,1,0.5,1,0.5,0","3","false",""
"","html-keyboard-response","345","161195","0.0-425.0","3N2BF7Y2VRGJS5UELSY1THV5SIJMHD","ALVNMQMD3Q3ZE","3THR0FZ95PF7SK0MYRNAOUHTWDJOLG","","null","<img src=""img/food2.png"" style=""width:200px; border:14px solid green;"">","null","","","","","","","","","",""
"","image-keyboard-response","346","161355","0.0-427.0","3N2BF7Y2VRGJS5UELSY1THV5SIJMHD","ALVNMQMD3Q3ZE","3THR0FZ95PF7SK0MYRNAOUHTWDJOLG","","158.29999995231628","img/food2.png","75","159.20000004768372","2","0","3","2","1,0.5,0,1,0.5,0,0.5,0,1","0,1,0.5,0,1,0.5,1,0.5,0","3","false",""
"","html-keyboard-response","347","161659","0.0-428.0","3N2BF7Y2VRGJS5UELSY1THV5SIJMHD","ALVNMQMD3Q3ZE","3THR0FZ95PF7SK0MYRNAOUHTWDJOLG","","null","<img src=""img/food2.png"" style=""width:200px;border:14px solid red;"">","null","","","","","","","","","",""
"","image-keyboard-response","348","161764","0.0-430.0","3N2BF7Y2VRGJS5UELSY1THV5SIJMHD","ALVNMQMD3Q3ZE","3THR0FZ95PF7SK0MYRNAOUHTWDJOLG","","103.89999985694885","img/food6.png","75","104.89999985694885","2","1","1","2","1,0.5,0,1,0.5,0,0.5,0,1","0,1,0.5,0,1,0.5,1,0.5,0","3","false",""
"","html-keyboard-response","349","162073","0.0-431.0","3N2BF7Y2VRGJS5UELSY1THV5SIJMHD","ALVNMQMD3Q3ZE","3THR0FZ95PF7SK0MYRNAOUHTWDJOLG","","null","<img src=""img/food6.png"" style=""width:200px; border:14px solid green;"">","null","","","","","","","","","",""
"","image-keyboard-response","350","162263","0.0-433.0","3N2BF7Y2VRGJS5UELSY1THV5SIJMHD","ALVNMQMD3Q3ZE","3THR0FZ95PF7SK0MYRNAOUHTWDJOLG","","187.5","img/food4.png","75","188.39999985694885","2","1","2","2","1,0.5,0,1,0.5,0,0.5,0,1","0,1,0.5,0,1,0.5,1,0.5,0","3","false",""
"","html-keyboard-response","351","162571","0.0-434.0","3N2BF7Y2VRGJS5UELSY1THV5SIJMHD","ALVNMQMD3Q3ZE","3THR0FZ95PF7SK0MYRNAOUHTWDJOLG","","null","<img src=""img/food4.png"" style=""width:200px; border:14px solid green;"">","null","","","","","","","","","",""
"","image-keyboard-response","352","162903","0.0-436.0","3N2BF7Y2VRGJS5UELSY1THV5SIJMHD","ALVNMQMD3Q3ZE","3THR0FZ95PF7SK0MYRNAOUHTWDJOLG","","329.90000009536743","img/food2.png","75","330.7999999523163","2","0","3","2","1,0.5,0,1,0.5,0,0.5,0,1","0,1,0.5,0,1,0.5,1,0.5,0","3","false",""
"","html-keyboard-response","353","163205","0.0-437.0","3N2BF7Y2VRGJS5UELSY1THV5SIJMHD","ALVNMQMD3Q3ZE","3THR0FZ95PF7SK0MYRNAOUHTWDJOLG","","null","<img src=""img/food2.png"" style=""width:200px;border:14px solid red;"">","null","","","","","","","","","",""
"","image-keyboard-response","354","163359","0.0-439.0","3N2BF7Y2VRGJS5UELSY1THV5SIJMHD","ALVNMQMD3Q3ZE","3THR0FZ95PF7SK0MYRNAOUHTWDJOLG","","151.60000014305115","img/food4.png","74","153","1","0","2","2","1,0.5,0,1,0.5,0,0.5,0,1","0,1,0.5,0,1,0.5,1,0.5,0","3","false",""
"","html-keyboard-response","355","163661","0.0-440.0","3N2BF7Y2VRGJS5UELSY1THV5SIJMHD","ALVNMQMD3Q3ZE","3THR0FZ95PF7SK0MYRNAOUHTWDJOLG","","null","<img src=""img/food4.png"" style=""width:200px;border:14px solid red;"">","null","","","","","","","","","",""
"","image-keyboard-response","356","163889","0.0-442.0","3N2BF7Y2VRGJS5UELSY1THV5SIJMHD","ALVNMQMD3Q3ZE","3THR0FZ95PF7SK0MYRNAOUHTWDJOLG","","227.60000014305115","img/food6.png","75","228.70000004768372","2","1","1","2","1,0.5,0,1,0.5,0,0.5,0,1","0,1,0.5,0,1,0.5,1,0.5,0","3","false",""
"","html-keyboard-response","357","164191","0.0-443.0","3N2BF7Y2VRGJS5UELSY1THV5SIJMHD","ALVNMQMD3Q3ZE","3THR0FZ95PF7SK0MYRNAOUHTWDJOLG","","null","<img src=""img/food6.png"" style=""width:200px; border:14px solid green;"">","null","","","","","","","","","",""
"","image-keyboard-response","358","164464","0.0-445.0","3N2BF7Y2VRGJS5UELSY1THV5SIJMHD","ALVNMQMD3Q3ZE","3THR0FZ95PF7SK0MYRNAOUHTWDJOLG","","271.7000000476837","img/food6.png","76","272.7999999523163","3","1","1","2","1,0.5,0,1,0.5,0,0.5,0,1","0,1,0.5,0,1,0.5,1,0.5,0","3","false",""
"","html-keyboard-response","359","164767","0.0-446.0","3N2BF7Y2VRGJS5UELSY1THV5SIJMHD","ALVNMQMD3Q3ZE","3THR0FZ95PF7SK0MYRNAOUHTWDJOLG","","null","<img src=""img/food6.png"" style=""width:200px; border:14px solid green;"">","null","","","","","","","","","",""
"","image-keyboard-response","360","164919","0.0-448.0","3N2BF7Y2VRGJS5UELSY1THV5SIJMHD","ALVNMQMD3Q3ZE","3THR0FZ95PF7SK0MYRNAOUHTWDJOLG","","150.29999995231628","img/food2.png","75","151.5","2","1","3","2","1,0.5,0,1,0.5,0,0.5,0,1","0,1,0.5,0,1,0.5,1,0.5,0","3","false",""
"","html-keyboard-response","361","165222","0.0-449.0","3N2BF7Y2VRGJS5UELSY1THV5SIJMHD","ALVNMQMD3Q3ZE","3THR0FZ95PF7SK0MYRNAOUHTWDJOLG","","null","<img src=""img/food2.png"" style=""width:200px; border:14px solid green;"">","null","","","","","","","","","",""
"","image-keyboard-response","362","165448","0.0-451.0","3N2BF7Y2VRGJS5UELSY1THV5SIJMHD","ALVNMQMD3Q3ZE","3THR0FZ95PF7SK0MYRNAOUHTWDJOLG","","224.29999995231628","img/food6.png","75","225.70000004768372","2","1","1","2","1,0.5,0,1,0.5,0,0.5,0,1","0,1,0.5,0,1,0.5,1,0.5,0","3","false",""
"","html-keyboard-response","363","165751","0.0-452.0","3N2BF7Y2VRGJS5UELSY1THV5SIJMHD","ALVNMQMD3Q3ZE","3THR0FZ95PF7SK0MYRNAOUHTWDJOLG","","null","<img src=""img/food6.png"" style=""width:200px; border:14px solid green;"">","null","","","","","","","","","",""
"","instructions","364","168477","0.0-454.0","3N2BF7Y2VRGJS5UELSY1THV5SIJMHD","ALVNMQMD3Q3ZE","3THR0FZ95PF7SK0MYRNAOUHTWDJOLG","[{""page_index"":0,""viewing_time"":2724.9000000953674}]","2725.2000000476837","","","","","","","","","","","",""
"","survey-text","365","172633","0.0-455.0","3N2BF7Y2VRGJS5UELSY1THV5SIJMHD","ALVNMQMD3Q3ZE","3THR0FZ95PF7SK0MYRNAOUHTWDJOLG","","4142.799999952316","","","","","","","","","","","","{""Q0"":""ALVNMQMD3Q3ZE""}"
