"success","trial_type","trial_index","time_elapsed","internal_node_id","assignmentID","mturkID","hitID","view_history","rt","stimulus","key_press","reactionTime","a","r","s","cond","reward_cond","reward_cond_actual","reward_matrix_idx","warning","responses"
"true","fullscreen","0","3877","0.0-0.0","340UGXU9DZN7NEU7ZJ6RZS38DEWUVS","AM2KK02JXXW48","36U4VBVNQOZD8NFWZXWF9CIHKRIURB","","","","","","","","","","","","","",""
"","instructions","1","76180","0.0-1.0","340UGXU9DZN7NEU7ZJ6RZS38DEWUVS","AM2KK02JXXW48","36U4VBVNQOZD8NFWZXWF9CIHKRIURB","[{""page_index"":0,""viewing_time"":6744},{""page_index"":1,""viewing_time"":9831},{""page_index"":2,""viewing_time"":11133},{""page_index"":3,""viewing_time"":12607},{""page_index"":4,""viewing_time"":10057},{""page_index"":5,""viewing_time"":17088},{""page_index"":6,""viewing_time"":4832}]","72295","","","","","","","","","","","",""
"","image-keyboard-response","2","76992","0.0-2.0","340UGXU9DZN7NEU7ZJ6RZS38DEWUVS","AM2KK02JXXW48","36U4VBVNQOZD8NFWZXWF9CIHKRIURB","","809","img/food5.png","74","812","1","1","3","1","1,0.5,0,1,0.5,0,0.5,0,1","0,1,0.5,0,1,0.5,1,0.5,0","3","",""
"","html-keyboard-response","3","77293","0.0-3.0","340UGXU9DZN7NEU7ZJ6RZS38DEWUVS","AM2KK02JXXW48","36U4VBVNQOZD8NFWZXWF9CIHKRIURB","","null","<img src=""img/food5.png"" style=""width:200px; border:14px solid green;"">","null","","","","","","","","","",""
"","image-keyboard-response","4","78241","0.0-4.0","340UGXU9DZN7NEU7ZJ6RZS38DEWUVS","AM2KK02JXXW48","36U4VBVNQOZD8NFWZXWF9CIHKRIURB","","946","img/food6.png","75","947","2","1","2","1","1,0.5,0,1,0.5,0,0.5,0,1","0,1,0.5,0,1,0.5,1,0.5,0","3","",""
"","html-keyboard-response","5","78542","0.0-5.0","340UGXU9DZN7NEU7ZJ6RZS38DEWUVS","AM2KK02JXXW48","36U4VBVNQOZD8NFWZXWF9CIHKRIURB","","null","<img src=""img/food6.png"" style=""width:200px; border:14px solid green;"">","null","","","","","","","","","",""
"","image-keyboard-response","6","79487","0.0-6.0","340UGXU9DZN7NEU7ZJ6RZS38DEWUVS","AM2KK02JXXW48","36U4VBVNQOZD8NFWZXWF9CIHKRIURB","","944","img/food6.png","75","945","2","1","2","1","1,0.5,0,1,0.5,0,0.5,0,1","0,1,0.5,0,1,0.5,1,0.5,0","3","",""
"","html-keyboard-response","7","79789","0.0-7.0","340UGXU9DZN7NEU7ZJ6RZS38DEWUVS","AM2KK02JXXW48","36U4VBVNQOZD8NFWZXWF9CIHKRIURB","","null","<img src=""img/food6.png"" style=""width:200px; border:14px solid green;"">","null","","","","","","","","","",""
"","image-keyboard-response","8","80447","0.0-8.0","340UGXU9DZN7NEU7ZJ6RZS38DEWUVS","AM2KK02JXXW48","36U4VBVNQOZD8NFWZXWF9CIHKRIURB","","657","img/food5.png","76","658","3","0","3","1","1,0.5,0,1,0.5,0,0.5,0,1","0,1,0.5,0,1,0.5,1,0.5,0","3","",""
"","html-keyboard-response","9","80748","0.0-9.0","340UGXU9DZN7NEU7ZJ6RZS38DEWUVS","AM2KK02JXXW48","36U4VBVNQOZD8NFWZXWF9CIHKRIURB","","null","<img src=""img/food5.png"" style=""width:200px;border:14px solid red;"">","null","","","","","","","","","",""
"","image-keyboard-response","10","81455","0.0-10.0","340UGXU9DZN7NEU7ZJ6RZS38DEWUVS","AM2KK02JXXW48","36U4VBVNQOZD8NFWZXWF9CIHKRIURB","","706","img/food5.png","76","708","3","0","3","1","1,0.5,0,1,0.5,0,0.5,0,1","0,1,0.5,0,1,0.5,1,0.5,0","3","",""
"","html-keyboard-response","11","81757","0.0-11.0","340UGXU9DZN7NEU7ZJ6RZS38DEWUVS","AM2KK02JXXW48","36U4VBVNQOZD8NFWZXWF9CIHKRIURB","","null","<img src=""img/food5.png"" style=""width:200px;border:14px solid red;"">","null","","","","","","","","","",""
"","image-keyboard-response","12","82655","0.0-12.0","340UGXU9DZN7NEU7ZJ6RZS38DEWUVS","AM2KK02JXXW48","36U4VBVNQOZD8NFWZXWF9CIHKRIURB","","897","img/food5.png","76","898","3","0","3","1","1,0.5,0,1,0.5,0,0.5,0,1","0,1,0.5,0,1,0.5,1,0.5,0","3","",""
"","html-keyboard-response","13","82956","0.0-13.0","340UGXU9DZN7NEU7ZJ6RZS38DEWUVS","AM2KK02JXXW48","36U4VBVNQOZD8NFWZXWF9CIHKRIURB","","null","<img src=""img/food5.png"" style=""width:200px;border:14px solid red;"">","null","","","","","","","","","",""
"","image-keyboard-response","14","84687","0.0-14.0","340UGXU9DZN7NEU7ZJ6RZS38DEWUVS","AM2KK02JXXW48","36U4VBVNQOZD8NFWZXWF9CIHKRIURB","","1729","img/food5.png","76","1731","3","0","3","1","1,0.5,0,1,0.5,0,0.5,0,1","0,1,0.5,0,1,0.5,1,0.5,0","3","",""
"","html-keyboard-response","15","84987","0.0-15.0","340UGXU9DZN7NEU7ZJ6RZS38DEWUVS","AM2KK02JXXW48","36U4VBVNQOZD8NFWZXWF9CIHKRIURB","","null","<img src=""img/food5.png"" style=""width:200px;border:14px solid red;"">","null","","","","","","","","","",""
"","image-keyboard-response","16","85790","0.0-16.0","340UGXU9DZN7NEU7ZJ6RZS38DEWUVS","AM2KK02JXXW48","36U4VBVNQOZD8NFWZXWF9CIHKRIURB","","802","img/food5.png","75","803","2","0","3","1","1,0.5,0,1,0.5,0,0.5,0,1","0,1,0.5,0,1,0.5,1,0.5,0","3","",""
"","html-keyboard-response","17","86157","0.0-17.0","340UGXU9DZN7NEU7ZJ6RZS38DEWUVS","AM2KK02JXXW48","36U4VBVNQOZD8NFWZXWF9CIHKRIURB","","null","<img src=""img/food5.png"" style=""width:200px;border:14px solid red;"">","null","","","","","","","","","",""
"","image-keyboard-response","18","87055","0.0-18.0","340UGXU9DZN7NEU7ZJ6RZS38DEWUVS","AM2KK02JXXW48","36U4VBVNQOZD8NFWZXWF9CIHKRIURB","","897","img/food6.png","75","898","2","1","2","1","1,0.5,0,1,0.5,0,0.5,0,1","0,1,0.5,0,1,0.5,1,0.5,0","3","",""
"","html-keyboard-response","19","87357","0.0-19.0","340UGXU9DZN7NEU7ZJ6RZS38DEWUVS","AM2KK02JXXW48","36U4VBVNQOZD8NFWZXWF9CIHKRIURB","","null","<img src=""img/food6.png"" style=""width:200px; border:14px solid green;"">","null","","","","","","","","","",""
"","image-keyboard-response","20","88183","0.0-20.0","340UGXU9DZN7NEU7ZJ6RZS38DEWUVS","AM2KK02JXXW48","36U4VBVNQOZD8NFWZXWF9CIHKRIURB","","824","img/food1.png","74","826","1","0","1","1","1,0.5,0,1,0.5,0,0.5,0,1","0,1,0.5,0,1,0.5,1,0.5,0","3","",""
"","html-keyboard-response","21","88485","0.0-21.0","340UGXU9DZN7NEU7ZJ6RZS38DEWUVS","AM2KK02JXXW48","36U4VBVNQOZD8NFWZXWF9CIHKRIURB","","null","<img src=""img/food1.png"" style=""width:200px;border:14px solid red;"">","null","","","","","","","","","",""
"","image-keyboard-response","22","89240","0.0-22.0","340UGXU9DZN7NEU7ZJ6RZS38DEWUVS","AM2KK02JXXW48","36U4VBVNQOZD8NFWZXWF9CIHKRIURB","","753","img/food1.png","74","755","1","0","1","1","1,0.5,0,1,0.5,0,0.5,0,1","0,1,0.5,0,1,0.5,1,0.5,0","3","",""
"","html-keyboard-response","23","89541","0.0-23.0","340UGXU9DZN7NEU7ZJ6RZS38DEWUVS","AM2KK02JXXW48","36U4VBVNQOZD8NFWZXWF9CIHKRIURB","","null","<img src=""img/food1.png"" style=""width:200px;border:14px solid red;"">","null","","","","","","","","","",""
"","image-keyboard-response","24","90863","0.0-24.0","340UGXU9DZN7NEU7ZJ6RZS38DEWUVS","AM2KK02JXXW48","36U4VBVNQOZD8NFWZXWF9CIHKRIURB","","1322","img/food6.png","76","1322","3","0","2","1","1,0.5,0,1,0.5,0,0.5,0,1","0,1,0.5,0,1,0.5,1,0.5,0","3","",""
"","html-keyboard-response","25","91164","0.0-25.0","340UGXU9DZN7NEU7ZJ6RZS38DEWUVS","AM2KK02JXXW48","36U4VBVNQOZD8NFWZXWF9CIHKRIURB","","null","<img src=""img/food6.png"" style=""width:200px;border:14px solid red;"">","null","","","","","","","","","",""
"","image-keyboard-response","26","92888","0.0-26.0","340UGXU9DZN7NEU7ZJ6RZS38DEWUVS","AM2KK02JXXW48","36U4VBVNQOZD8NFWZXWF9CIHKRIURB","","1723","img/food1.png","74","1724","1","0","1","1","1,0.5,0,1,0.5,0,0.5,0,1","0,1,0.5,0,1,0.5,1,0.5,0","3","",""
"","html-keyboard-response","27","93189","0.0-27.0","340UGXU9DZN7NEU7ZJ6RZS38DEWUVS","AM2KK02JXXW48","36U4VBVNQOZD8NFWZXWF9CIHKRIURB","","null","<img src=""img/food1.png"" style=""width:200px;border:14px solid red;"">","null","","","","","","","","","",""
"","image-keyboard-response","28","94455","0.0-28.0","340UGXU9DZN7NEU7ZJ6RZS38DEWUVS","AM2KK02JXXW48","36U4VBVNQOZD8NFWZXWF9CIHKRIURB","","1265","img/food5.png","75","1266","2","1","3","1","1,0.5,0,1,0.5,0,0.5,0,1","0,1,0.5,0,1,0.5,1,0.5,0","3","",""
"","html-keyboard-response","29","94756","0.0-29.0","340UGXU9DZN7NEU7ZJ6RZS38DEWUVS","AM2KK02JXXW48","36U4VBVNQOZD8NFWZXWF9CIHKRIURB","","null","<img src=""img/food5.png"" style=""width:200px; border:14px solid green;"">","null","","","","","","","","","",""
"","image-keyboard-response","30","95815","0.0-30.0","340UGXU9DZN7NEU7ZJ6RZS38DEWUVS","AM2KK02JXXW48","36U4VBVNQOZD8NFWZXWF9CIHKRIURB","","1058","img/food1.png","74","1059","1","0","1","1","1,0.5,0,1,0.5,0,0.5,0,1","0,1,0.5,0,1,0.5,1,0.5,0","3","",""
"","html-keyboard-response","31","96116","0.0-31.0","340UGXU9DZN7NEU7ZJ6RZS38DEWUVS","AM2KK02JXXW48","36U4VBVNQOZD8NFWZXWF9CIHKRIURB","","null","<img src=""img/food1.png"" style=""width:200px;border:14px solid red;"">","null","","","","","","","","","",""
"","image-keyboard-response","32","96951","0.0-32.0","340UGXU9DZN7NEU7ZJ6RZS38DEWUVS","AM2KK02JXXW48","36U4VBVNQOZD8NFWZXWF9CIHKRIURB","","834","img/food5.png","75","835","2","1","3","1","1,0.5,0,1,0.5,0,0.5,0,1","0,1,0.5,0,1,0.5,1,0.5,0","3","",""
"","html-keyboard-response","33","97252","0.0-33.0","340UGXU9DZN7NEU7ZJ6RZS38DEWUVS","AM2KK02JXXW48","36U4VBVNQOZD8NFWZXWF9CIHKRIURB","","null","<img src=""img/food5.png"" style=""width:200px; border:14px solid green;"">","null","","","","","","","","","",""
"","image-keyboard-response","34","98367","0.0-34.0","340UGXU9DZN7NEU7ZJ6RZS38DEWUVS","AM2KK02JXXW48","36U4VBVNQOZD8NFWZXWF9CIHKRIURB","","1114","img/food6.png","74","1115","1","0","2","1","1,0.5,0,1,0.5,0,0.5,0,1","0,1,0.5,0,1,0.5,1,0.5,0","3","",""
"","html-keyboard-response","35","98668","0.0-35.0","340UGXU9DZN7NEU7ZJ6RZS38DEWUVS","AM2KK02JXXW48","36U4VBVNQOZD8NFWZXWF9CIHKRIURB","","null","<img src=""img/food6.png"" style=""width:200px;border:14px solid red;"">","null","","","","","","","","","",""
"","image-keyboard-response","36","99375","0.0-36.0","340UGXU9DZN7NEU7ZJ6RZS38DEWUVS","AM2KK02JXXW48","36U4VBVNQOZD8NFWZXWF9CIHKRIURB","","705","img/food6.png","74","707","1","0","2","1","1,0.5,0,1,0.5,0,0.5,0,1","0,1,0.5,0,1,0.5,1,0.5,0","3","",""
"","html-keyboard-response","37","99676","0.0-37.0","340UGXU9DZN7NEU7ZJ6RZS38DEWUVS","AM2KK02JXXW48","36U4VBVNQOZD8NFWZXWF9CIHKRIURB","","null","<img src=""img/food6.png"" style=""width:200px;border:14px solid red;"">","null","","","","","","","","","",""
"","image-keyboard-response","38","101239","0.0-38.0","340UGXU9DZN7NEU7ZJ6RZS38DEWUVS","AM2KK02JXXW48","36U4VBVNQOZD8NFWZXWF9CIHKRIURB","","1562","img/food5.png","74","1563","1","1","3","1","1,0.5,0,1,0.5,0,0.5,0,1","0,1,0.5,0,1,0.5,1,0.5,0","3","",""
"","html-keyboard-response","39","101540","0.0-39.0","340UGXU9DZN7NEU7ZJ6RZS38DEWUVS","AM2KK02JXXW48","36U4VBVNQOZD8NFWZXWF9CIHKRIURB","","null","<img src=""img/food5.png"" style=""width:200px; border:14px solid green;"">","null","","","","","","","","","",""
"","image-keyboard-response","40","102255","0.0-40.0","340UGXU9DZN7NEU7ZJ6RZS38DEWUVS","AM2KK02JXXW48","36U4VBVNQOZD8NFWZXWF9CIHKRIURB","","714","img/food5.png","74","715","1","1","3","1","1,0.5,0,1,0.5,0,0.5,0,1","0,1,0.5,0,1,0.5,1,0.5,0","3","",""
"","html-keyboard-response","41","102557","0.0-41.0","340UGXU9DZN7NEU7ZJ6RZS38DEWUVS","AM2KK02JXXW48","36U4VBVNQOZD8NFWZXWF9CIHKRIURB","","null","<img src=""img/food5.png"" style=""width:200px; border:14px solid green;"">","null","","","","","","","","","",""
"","image-keyboard-response","42","103495","0.0-42.0","340UGXU9DZN7NEU7ZJ6RZS38DEWUVS","AM2KK02JXXW48","36U4VBVNQOZD8NFWZXWF9CIHKRIURB","","937","img/food1.png","74","938","1","0","1","1","1,0.5,0,1,0.5,0,0.5,0,1","0,1,0.5,0,1,0.5,1,0.5,0","3","",""
"","html-keyboard-response","43","103796","0.0-43.0","340UGXU9DZN7NEU7ZJ6RZS38DEWUVS","AM2KK02JXXW48","36U4VBVNQOZD8NFWZXWF9CIHKRIURB","","null","<img src=""img/food1.png"" style=""width:200px;border:14px solid red;"">","null","","","","","","","","","",""
"","image-keyboard-response","44","104775","0.0-44.0","340UGXU9DZN7NEU7ZJ6RZS38DEWUVS","AM2KK02JXXW48","36U4VBVNQOZD8NFWZXWF9CIHKRIURB","","977","img/food6.png","75","979","2","1","2","1","1,0.5,0,1,0.5,0,0.5,0,1","0,1,0.5,0,1,0.5,1,0.5,0","3","",""
"","html-keyboard-response","45","105076","0.0-45.0","340UGXU9DZN7NEU7ZJ6RZS38DEWUVS","AM2KK02JXXW48","36U4VBVNQOZD8NFWZXWF9CIHKRIURB","","null","<img src=""img/food6.png"" style=""width:200px; border:14px solid green;"">","null","","","","","","","","","",""
"","image-keyboard-response","46","105639","0.0-46.0","340UGXU9DZN7NEU7ZJ6RZS38DEWUVS","AM2KK02JXXW48","36U4VBVNQOZD8NFWZXWF9CIHKRIURB","","562","img/food6.png","75","563","2","1","2","1","1,0.5,0,1,0.5,0,0.5,0,1","0,1,0.5,0,1,0.5,1,0.5,0","3","",""
"","html-keyboard-response","47","105940","0.0-47.0","340UGXU9DZN7NEU7ZJ6RZS38DEWUVS","AM2KK02JXXW48","36U4VBVNQOZD8NFWZXWF9CIHKRIURB","","null","<img src=""img/food6.png"" style=""width:200px; border:14px solid green;"">","null","","","","","","","","","",""
"","image-keyboard-response","48","106919","0.0-48.0","340UGXU9DZN7NEU7ZJ6RZS38DEWUVS","AM2KK02JXXW48","36U4VBVNQOZD8NFWZXWF9CIHKRIURB","","978","img/food5.png","75","979","2","1","3","1","1,0.5,0,1,0.5,0,0.5,0,1","0,1,0.5,0,1,0.5,1,0.5,0","3","",""
"","html-keyboard-response","49","107221","0.0-49.0","340UGXU9DZN7NEU7ZJ6RZS38DEWUVS","AM2KK02JXXW48","36U4VBVNQOZD8NFWZXWF9CIHKRIURB","","null","<img src=""img/food5.png"" style=""width:200px; border:14px solid green;"">","null","","","","","","","","","",""
"","image-keyboard-response","50","108143","0.0-50.0","340UGXU9DZN7NEU7ZJ6RZS38DEWUVS","AM2KK02JXXW48","36U4VBVNQOZD8NFWZXWF9CIHKRIURB","","922","img/food1.png","75","922","2","1","1","1","1,0.5,0,1,0.5,0,0.5,0,1","0,1,0.5,0,1,0.5,1,0.5,0","3","",""
"","html-keyboard-response","51","108445","0.0-51.0","340UGXU9DZN7NEU7ZJ6RZS38DEWUVS","AM2KK02JXXW48","36U4VBVNQOZD8NFWZXWF9CIHKRIURB","","null","<img src=""img/food1.png"" style=""width:200px; border:14px solid green;"">","null","","","","","","","","","",""
"","image-keyboard-response","52","109199","0.0-52.0","340UGXU9DZN7NEU7ZJ6RZS38DEWUVS","AM2KK02JXXW48","36U4VBVNQOZD8NFWZXWF9CIHKRIURB","","753","img/food6.png","75","755","2","1","2","1","1,0.5,0,1,0.5,0,0.5,0,1","0,1,0.5,0,1,0.5,1,0.5,0","3","",""
"","html-keyboard-response","53","109500","0.0-53.0","340UGXU9DZN7NEU7ZJ6RZS38DEWUVS","AM2KK02JXXW48","36U4VBVNQOZD8NFWZXWF9CIHKRIURB","","null","<img src=""img/food6.png"" style=""width:200px; border:14px solid green;"">","null","","","","","","","","","",""
"","image-keyboard-response","54","110200","0.0-54.0","340UGXU9DZN7NEU7ZJ6RZS38DEWUVS","AM2KK02JXXW48","36U4VBVNQOZD8NFWZXWF9CIHKRIURB","","698","img/food1.png","75","700","2","1","1","1","1,0.5,0,1,0.5,0,0.5,0,1","0,1,0.5,0,1,0.5,1,0.5,0","3","",""
"","html-keyboard-response","55","110502","0.0-55.0","340UGXU9DZN7NEU7ZJ6RZS38DEWUVS","AM2KK02JXXW48","36U4VBVNQOZD8NFWZXWF9CIHKRIURB","","null","<img src=""img/food1.png"" style=""width:200px; border:14px solid green;"">","null","","","","","","","","","",""
"","image-keyboard-response","56","111023","0.0-56.0","340UGXU9DZN7NEU7ZJ6RZS38DEWUVS","AM2KK02JXXW48","36U4VBVNQOZD8NFWZXWF9CIHKRIURB","","520","img/food1.png","75","521","2","1","1","1","1,0.5,0,1,0.5,0,0.5,0,1","0,1,0.5,0,1,0.5,1,0.5,0","3","",""
"","html-keyboard-response","57","111324","0.0-57.0","340UGXU9DZN7NEU7ZJ6RZS38DEWUVS","AM2KK02JXXW48","36U4VBVNQOZD8NFWZXWF9CIHKRIURB","","null","<img src=""img/food1.png"" style=""width:200px; border:14px solid green;"">","null","","","","","","","","","",""
"","image-keyboard-response","58","111887","0.0-58.0","340UGXU9DZN7NEU7ZJ6RZS38DEWUVS","AM2KK02JXXW48","36U4VBVNQOZD8NFWZXWF9CIHKRIURB","","561","img/food5.png","75","563","2","1","3","1","1,0.5,0,1,0.5,0,0.5,0,1","0,1,0.5,0,1,0.5,1,0.5,0","3","",""
"","html-keyboard-response","59","112187","0.0-59.0","340UGXU9DZN7NEU7ZJ6RZS38DEWUVS","AM2KK02JXXW48","36U4VBVNQOZD8NFWZXWF9CIHKRIURB","","null","<img src=""img/food5.png"" style=""width:200px; border:14px solid green;"">","null","","","","","","","","","",""
"","image-keyboard-response","60","112719","0.0-60.0","340UGXU9DZN7NEU7ZJ6RZS38DEWUVS","AM2KK02JXXW48","36U4VBVNQOZD8NFWZXWF9CIHKRIURB","","531","img/food6.png","75","531","2","1","2","1","1,0.5,0,1,0.5,0,0.5,0,1","0,1,0.5,0,1,0.5,1,0.5,0","3","",""
"","html-keyboard-response","61","113020","0.0-61.0","340UGXU9DZN7NEU7ZJ6RZS38DEWUVS","AM2KK02JXXW48","36U4VBVNQOZD8NFWZXWF9CIHKRIURB","","null","<img src=""img/food6.png"" style=""width:200px; border:14px solid green;"">","null","","","","","","","","","",""
"","image-keyboard-response","62","113503","0.0-62.0","340UGXU9DZN7NEU7ZJ6RZS38DEWUVS","AM2KK02JXXW48","36U4VBVNQOZD8NFWZXWF9CIHKRIURB","","482","img/food5.png","75","483","2","0","3","1","1,0.5,0,1,0.5,0,0.5,0,1","0,1,0.5,0,1,0.5,1,0.5,0","3","",""
"","html-keyboard-response","63","113810","0.0-63.0","340UGXU9DZN7NEU7ZJ6RZS38DEWUVS","AM2KK02JXXW48","36U4VBVNQOZD8NFWZXWF9CIHKRIURB","","null","<img src=""img/food5.png"" style=""width:200px;border:14px solid red;"">","null","","","","","","","","","",""
"","image-keyboard-response","64","114383","0.0-64.0","340UGXU9DZN7NEU7ZJ6RZS38DEWUVS","AM2KK02JXXW48","36U4VBVNQOZD8NFWZXWF9CIHKRIURB","","572","img/food1.png","75","573","2","1","1","1","1,0.5,0,1,0.5,0,0.5,0,1","0,1,0.5,0,1,0.5,1,0.5,0","3","",""
"","html-keyboard-response","65","114685","0.0-65.0","340UGXU9DZN7NEU7ZJ6RZS38DEWUVS","AM2KK02JXXW48","36U4VBVNQOZD8NFWZXWF9CIHKRIURB","","null","<img src=""img/food1.png"" style=""width:200px; border:14px solid green;"">","null","","","","","","","","","",""
"","image-keyboard-response","66","115247","0.0-66.0","340UGXU9DZN7NEU7ZJ6RZS38DEWUVS","AM2KK02JXXW48","36U4VBVNQOZD8NFWZXWF9CIHKRIURB","","561","img/food6.png","75","562","2","1","2","1","1,0.5,0,1,0.5,0,0.5,0,1","0,1,0.5,0,1,0.5,1,0.5,0","3","",""
"","html-keyboard-response","67","115548","0.0-67.0","340UGXU9DZN7NEU7ZJ6RZS38DEWUVS","AM2KK02JXXW48","36U4VBVNQOZD8NFWZXWF9CIHKRIURB","","null","<img src=""img/food6.png"" style=""width:200px; border:14px solid green;"">","null","","","","","","","","","",""
"","image-keyboard-response","68","115951","0.0-68.0","340UGXU9DZN7NEU7ZJ6RZS38DEWUVS","AM2KK02JXXW48","36U4VBVNQOZD8NFWZXWF9CIHKRIURB","","401","img/food6.png","75","403","2","1","2","1","1,0.5,0,1,0.5,0,0.5,0,1","0,1,0.5,0,1,0.5,1,0.5,0","3","",""
"","html-keyboard-response","69","116252","0.0-69.0","340UGXU9DZN7NEU7ZJ6RZS38DEWUVS","AM2KK02JXXW48","36U4VBVNQOZD8NFWZXWF9CIHKRIURB","","null","<img src=""img/food6.png"" style=""width:200px; border:14px solid green;"">","null","","","","","","","","","",""
"","image-keyboard-response","70","116798","0.0-70.0","340UGXU9DZN7NEU7ZJ6RZS38DEWUVS","AM2KK02JXXW48","36U4VBVNQOZD8NFWZXWF9CIHKRIURB","","545","img/food1.png","75","547","2","1","1","1","1,0.5,0,1,0.5,0,0.5,0,1","0,1,0.5,0,1,0.5,1,0.5,0","3","",""
"","html-keyboard-response","71","117099","0.0-71.0","340UGXU9DZN7NEU7ZJ6RZS38DEWUVS","AM2KK02JXXW48","36U4VBVNQOZD8NFWZXWF9CIHKRIURB","","null","<img src=""img/food1.png"" style=""width:200px; border:14px solid green;"">","null","","","","","","","","","",""
"","image-keyboard-response","72","117503","0.0-72.0","340UGXU9DZN7NEU7ZJ6RZS38DEWUVS","AM2KK02JXXW48","36U4VBVNQOZD8NFWZXWF9CIHKRIURB","","403","img/food1.png","75","404","2","1","1","1","1,0.5,0,1,0.5,0,0.5,0,1","0,1,0.5,0,1,0.5,1,0.5,0","3","",""
"","html-keyboard-response","73","117804","0.0-73.0","340UGXU9DZN7NEU7ZJ6RZS38DEWUVS","AM2KK02JXXW48","36U4VBVNQOZD8NFWZXWF9CIHKRIURB","","null","<img src=""img/food1.png"" style=""width:200px; border:14px solid green;"">","null","","","","","","","","","",""
"","image-keyboard-response","74","118176","0.0-74.0","340UGXU9DZN7NEU7ZJ6RZS38DEWUVS","AM2KK02JXXW48","36U4VBVNQOZD8NFWZXWF9CIHKRIURB","","371","img/food1.png","75","372","2","1","1","1","1,0.5,0,1,0.5,0,0.5,0,1","0,1,0.5,0,1,0.5,1,0.5,0","3","",""
"","html-keyboard-response","75","118482","0.0-75.0","340UGXU9DZN7NEU7ZJ6RZS38DEWUVS","AM2KK02JXXW48","36U4VBVNQOZD8NFWZXWF9CIHKRIURB","","null","<img src=""img/food1.png"" style=""width:200px; border:14px solid green;"">","null","","","","","","","","","",""
"","image-keyboard-response","76","119175","0.0-76.0","340UGXU9DZN7NEU7ZJ6RZS38DEWUVS","AM2KK02JXXW48","36U4VBVNQOZD8NFWZXWF9CIHKRIURB","","692","img/food5.png","75","693","2","1","3","1","1,0.5,0,1,0.5,0,0.5,0,1","0,1,0.5,0,1,0.5,1,0.5,0","3","",""
"","html-keyboard-response","77","119476","0.0-77.0","340UGXU9DZN7NEU7ZJ6RZS38DEWUVS","AM2KK02JXXW48","36U4VBVNQOZD8NFWZXWF9CIHKRIURB","","null","<img src=""img/food5.png"" style=""width:200px; border:14px solid green;"">","null","","","","","","","","","",""
"","image-keyboard-response","78","119936","0.0-78.0","340UGXU9DZN7NEU7ZJ6RZS38DEWUVS","AM2KK02JXXW48","36U4VBVNQOZD8NFWZXWF9CIHKRIURB","","458","img/food1.png","75","460","2","1","1","1","1,0.5,0,1,0.5,0,0.5,0,1","0,1,0.5,0,1,0.5,1,0.5,0","3","",""
"","html-keyboard-response","79","120238","0.0-79.0","340UGXU9DZN7NEU7ZJ6RZS38DEWUVS","AM2KK02JXXW48","36U4VBVNQOZD8NFWZXWF9CIHKRIURB","","null","<img src=""img/food1.png"" style=""width:200px; border:14px solid green;"">","null","","","","","","","","","",""
"","image-keyboard-response","80","120783","0.0-80.0","340UGXU9DZN7NEU7ZJ6RZS38DEWUVS","AM2KK02JXXW48","36U4VBVNQOZD8NFWZXWF9CIHKRIURB","","544","img/food6.png","75","546","2","1","2","1","1,0.5,0,1,0.5,0,0.5,0,1","0,1,0.5,0,1,0.5,1,0.5,0","3","",""
"","html-keyboard-response","81","121084","0.0-81.0","340UGXU9DZN7NEU7ZJ6RZS38DEWUVS","AM2KK02JXXW48","36U4VBVNQOZD8NFWZXWF9CIHKRIURB","","null","<img src=""img/food6.png"" style=""width:200px; border:14px solid green;"">","null","","","","","","","","","",""
"","image-keyboard-response","82","121519","0.0-82.0","340UGXU9DZN7NEU7ZJ6RZS38DEWUVS","AM2KK02JXXW48","36U4VBVNQOZD8NFWZXWF9CIHKRIURB","","433","img/food1.png","75","435","2","1","1","1","1,0.5,0,1,0.5,0,0.5,0,1","0,1,0.5,0,1,0.5,1,0.5,0","3","",""
"","html-keyboard-response","83","121820","0.0-83.0","340UGXU9DZN7NEU7ZJ6RZS38DEWUVS","AM2KK02JXXW48","36U4VBVNQOZD8NFWZXWF9CIHKRIURB","","null","<img src=""img/food1.png"" style=""width:200px; border:14px solid green;"">","null","","","","","","","","","",""
"","image-keyboard-response","84","122215","0.0-84.0","340UGXU9DZN7NEU7ZJ6RZS38DEWUVS","AM2KK02JXXW48","36U4VBVNQOZD8NFWZXWF9CIHKRIURB","","394","img/food6.png","75","395","2","1","2","1","1,0.5,0,1,0.5,0,0.5,0,1","0,1,0.5,0,1,0.5,1,0.5,0","3","",""
"","html-keyboard-response","85","122516","0.0-85.0","340UGXU9DZN7NEU7ZJ6RZS38DEWUVS","AM2KK02JXXW48","36U4VBVNQOZD8NFWZXWF9CIHKRIURB","","null","<img src=""img/food6.png"" style=""width:200px; border:14px solid green;"">","null","","","","","","","","","",""
"","image-keyboard-response","86","122839","0.0-86.0","340UGXU9DZN7NEU7ZJ6RZS38DEWUVS","AM2KK02JXXW48","36U4VBVNQOZD8NFWZXWF9CIHKRIURB","","321","img/food5.png","75","323","2","1","3","1","1,0.5,0,1,0.5,0,0.5,0,1","0,1,0.5,0,1,0.5,1,0.5,0","3","",""
"","html-keyboard-response","87","123140","0.0-87.0","340UGXU9DZN7NEU7ZJ6RZS38DEWUVS","AM2KK02JXXW48","36U4VBVNQOZD8NFWZXWF9CIHKRIURB","","null","<img src=""img/food5.png"" style=""width:200px; border:14px solid green;"">","null","","","","","","","","","",""
"","image-keyboard-response","88","123471","0.0-88.0","340UGXU9DZN7NEU7ZJ6RZS38DEWUVS","AM2KK02JXXW48","36U4VBVNQOZD8NFWZXWF9CIHKRIURB","","330","img/food6.png","75","331","2","1","2","1","1,0.5,0,1,0.5,0,0.5,0,1","0,1,0.5,0,1,0.5,1,0.5,0","3","",""
"","html-keyboard-response","89","123772","0.0-89.0","340UGXU9DZN7NEU7ZJ6RZS38DEWUVS","AM2KK02JXXW48","36U4VBVNQOZD8NFWZXWF9CIHKRIURB","","null","<img src=""img/food6.png"" style=""width:200px; border:14px solid green;"">","null","","","","","","","","","",""
"","image-keyboard-response","90","124096","0.0-90.0","340UGXU9DZN7NEU7ZJ6RZS38DEWUVS","AM2KK02JXXW48","36U4VBVNQOZD8NFWZXWF9CIHKRIURB","","323","img/food5.png","75","324","2","1","3","1","1,0.5,0,1,0.5,0,0.5,0,1","0,1,0.5,0,1,0.5,1,0.5,0","3","",""
"","html-keyboard-response","91","124398","0.0-91.0","340UGXU9DZN7NEU7ZJ6RZS38DEWUVS","AM2KK02JXXW48","36U4VBVNQOZD8NFWZXWF9CIHKRIURB","","null","<img src=""img/food5.png"" style=""width:200px; border:14px solid green;"">","null","","","","","","","","","",""
"","image-keyboard-response","92","124695","0.0-92.0","340UGXU9DZN7NEU7ZJ6RZS38DEWUVS","AM2KK02JXXW48","36U4VBVNQOZD8NFWZXWF9CIHKRIURB","","296","img/food1.png","75","297","2","1","1","1","1,0.5,0,1,0.5,0,0.5,0,1","0,1,0.5,0,1,0.5,1,0.5,0","3","",""
"","html-keyboard-response","93","124997","0.0-93.0","340UGXU9DZN7NEU7ZJ6RZS38DEWUVS","AM2KK02JXXW48","36U4VBVNQOZD8NFWZXWF9CIHKRIURB","","null","<img src=""img/food1.png"" style=""width:200px; border:14px solid green;"">","null","","","","","","","","","",""
"","image-keyboard-response","94","125239","0.0-94.0","340UGXU9DZN7NEU7ZJ6RZS38DEWUVS","AM2KK02JXXW48","36U4VBVNQOZD8NFWZXWF9CIHKRIURB","","241","img/food5.png","75","242","2","0","3","1","1,0.5,0,1,0.5,0,0.5,0,1","0,1,0.5,0,1,0.5,1,0.5,0","3","",""
"","html-keyboard-response","95","125540","0.0-95.0","340UGXU9DZN7NEU7ZJ6RZS38DEWUVS","AM2KK02JXXW48","36U4VBVNQOZD8NFWZXWF9CIHKRIURB","","null","<img src=""img/food5.png"" style=""width:200px;border:14px solid red;"">","null","","","","","","","","","",""
"","image-keyboard-response","96","125792","0.0-96.0","340UGXU9DZN7NEU7ZJ6RZS38DEWUVS","AM2KK02JXXW48","36U4VBVNQOZD8NFWZXWF9CIHKRIURB","","250","img/food1.png","75","252","2","1","1","1","1,0.5,0,1,0.5,0,0.5,0,1","0,1,0.5,0,1,0.5,1,0.5,0","3","",""
"","html-keyboard-response","97","126092","0.0-97.0","340UGXU9DZN7NEU7ZJ6RZS38DEWUVS","AM2KK02JXXW48","36U4VBVNQOZD8NFWZXWF9CIHKRIURB","","null","<img src=""img/food1.png"" style=""width:200px; border:14px solid green;"">","null","","","","","","","","","",""
"","image-keyboard-response","98","126344","0.0-98.0","340UGXU9DZN7NEU7ZJ6RZS38DEWUVS","AM2KK02JXXW48","36U4VBVNQOZD8NFWZXWF9CIHKRIURB","","250","img/food5.png","75","252","2","0","3","1","1,0.5,0,1,0.5,0,0.5,0,1","0,1,0.5,0,1,0.5,1,0.5,0","3","",""
"","html-keyboard-response","99","126644","0.0-99.0","340UGXU9DZN7NEU7ZJ6RZS38DEWUVS","AM2KK02JXXW48","36U4VBVNQOZD8NFWZXWF9CIHKRIURB","","null","<img src=""img/food5.png"" style=""width:200px;border:14px solid red;"">","null","","","","","","","","","",""
"","image-keyboard-response","100","126856","0.0-100.0","340UGXU9DZN7NEU7ZJ6RZS38DEWUVS","AM2KK02JXXW48","36U4VBVNQOZD8NFWZXWF9CIHKRIURB","","210","img/food6.png","75","212","2","1","2","1","1,0.5,0,1,0.5,0,0.5,0,1","0,1,0.5,0,1,0.5,1,0.5,0","3","",""
"","html-keyboard-response","101","127156","0.0-101.0","340UGXU9DZN7NEU7ZJ6RZS38DEWUVS","AM2KK02JXXW48","36U4VBVNQOZD8NFWZXWF9CIHKRIURB","","null","<img src=""img/food6.png"" style=""width:200px; border:14px solid green;"">","null","","","","","","","","","",""
"","image-keyboard-response","102","127415","0.0-102.0","340UGXU9DZN7NEU7ZJ6RZS38DEWUVS","AM2KK02JXXW48","36U4VBVNQOZD8NFWZXWF9CIHKRIURB","","258","img/food6.png","75","260","2","1","2","1","1,0.5,0,1,0.5,0,0.5,0,1","0,1,0.5,0,1,0.5,1,0.5,0","3","",""
"","html-keyboard-response","103","127720","0.0-103.0","340UGXU9DZN7NEU7ZJ6RZS38DEWUVS","AM2KK02JXXW48","36U4VBVNQOZD8NFWZXWF9CIHKRIURB","","null","<img src=""img/food6.png"" style=""width:200px; border:14px solid green;"">","null","","","","","","","","","",""
"","image-keyboard-response","104","127959","0.0-104.0","340UGXU9DZN7NEU7ZJ6RZS38DEWUVS","AM2KK02JXXW48","36U4VBVNQOZD8NFWZXWF9CIHKRIURB","","237","img/food1.png","75","239","2","1","1","1","1,0.5,0,1,0.5,0,0.5,0,1","0,1,0.5,0,1,0.5,1,0.5,0","3","",""
"","html-keyboard-response","105","128259","0.0-105.0","340UGXU9DZN7NEU7ZJ6RZS38DEWUVS","AM2KK02JXXW48","36U4VBVNQOZD8NFWZXWF9CIHKRIURB","","null","<img src=""img/food1.png"" style=""width:200px; border:14px solid green;"">","null","","","","","","","","","",""
"","image-keyboard-response","106","128463","0.0-106.0","340UGXU9DZN7NEU7ZJ6RZS38DEWUVS","AM2KK02JXXW48","36U4VBVNQOZD8NFWZXWF9CIHKRIURB","","203","img/food5.png","75","204","2","1","3","1","1,0.5,0,1,0.5,0,0.5,0,1","0,1,0.5,0,1,0.5,1,0.5,0","3","",""
"","html-keyboard-response","107","128764","0.0-107.0","340UGXU9DZN7NEU7ZJ6RZS38DEWUVS","AM2KK02JXXW48","36U4VBVNQOZD8NFWZXWF9CIHKRIURB","","null","<img src=""img/food5.png"" style=""width:200px; border:14px solid green;"">","null","","","","","","","","","",""
"","image-keyboard-response","108","128982","0.0-108.0","340UGXU9DZN7NEU7ZJ6RZS38DEWUVS","AM2KK02JXXW48","36U4VBVNQOZD8NFWZXWF9CIHKRIURB","","217","img/food1.png","75","218","2","1","1","1","1,0.5,0,1,0.5,0,0.5,0,1","0,1,0.5,0,1,0.5,1,0.5,0","3","",""
"","html-keyboard-response","109","129284","0.0-109.0","340UGXU9DZN7NEU7ZJ6RZS38DEWUVS","AM2KK02JXXW48","36U4VBVNQOZD8NFWZXWF9CIHKRIURB","","null","<img src=""img/food1.png"" style=""width:200px; border:14px solid green;"">","null","","","","","","","","","",""
"","image-keyboard-response","110","129510","0.0-110.0","340UGXU9DZN7NEU7ZJ6RZS38DEWUVS","AM2KK02JXXW48","36U4VBVNQOZD8NFWZXWF9CIHKRIURB","","226","img/food1.png","75","227","2","1","1","1","1,0.5,0,1,0.5,0,0.5,0,1","0,1,0.5,0,1,0.5,1,0.5,0","3","",""
"","html-keyboard-response","111","129811","0.0-111.0","340UGXU9DZN7NEU7ZJ6RZS38DEWUVS","AM2KK02JXXW48","36U4VBVNQOZD8NFWZXWF9CIHKRIURB","","null","<img src=""img/food1.png"" style=""width:200px; border:14px solid green;"">","null","","","","","","","","","",""
"","image-keyboard-response","112","130030","0.0-112.0","340UGXU9DZN7NEU7ZJ6RZS38DEWUVS","AM2KK02JXXW48","36U4VBVNQOZD8NFWZXWF9CIHKRIURB","","218","img/food6.png","75","219","2","1","2","1","1,0.5,0,1,0.5,0,0.5,0,1","0,1,0.5,0,1,0.5,1,0.5,0","3","",""
"","html-keyboard-response","113","130331","0.0-113.0","340UGXU9DZN7NEU7ZJ6RZS38DEWUVS","AM2KK02JXXW48","36U4VBVNQOZD8NFWZXWF9CIHKRIURB","","null","<img src=""img/food6.png"" style=""width:200px; border:14px solid green;"">","null","","","","","","","","","",""
"","image-keyboard-response","114","130542","0.0-114.0","340UGXU9DZN7NEU7ZJ6RZS38DEWUVS","AM2KK02JXXW48","36U4VBVNQOZD8NFWZXWF9CIHKRIURB","","210","img/food5.png","75","211","2","0","3","1","1,0.5,0,1,0.5,0,0.5,0,1","0,1,0.5,0,1,0.5,1,0.5,0","3","",""
"","html-keyboard-response","115","130843","0.0-115.0","340UGXU9DZN7NEU7ZJ6RZS38DEWUVS","AM2KK02JXXW48","36U4VBVNQOZD8NFWZXWF9CIHKRIURB","","null","<img src=""img/food5.png"" style=""width:200px;border:14px solid red;"">","null","","","","","","","","","",""
"","image-keyboard-response","116","131062","0.0-116.0","340UGXU9DZN7NEU7ZJ6RZS38DEWUVS","AM2KK02JXXW48","36U4VBVNQOZD8NFWZXWF9CIHKRIURB","","218","img/food1.png","75","219","2","1","1","1","1,0.5,0,1,0.5,0,0.5,0,1","0,1,0.5,0,1,0.5,1,0.5,0","3","",""
"","html-keyboard-response","117","131363","0.0-117.0","340UGXU9DZN7NEU7ZJ6RZS38DEWUVS","AM2KK02JXXW48","36U4VBVNQOZD8NFWZXWF9CIHKRIURB","","null","<img src=""img/food1.png"" style=""width:200px; border:14px solid green;"">","null","","","","","","","","","",""
"","image-keyboard-response","118","131550","0.0-118.0","340UGXU9DZN7NEU7ZJ6RZS38DEWUVS","AM2KK02JXXW48","36U4VBVNQOZD8NFWZXWF9CIHKRIURB","","186","img/food5.png","75","187","2","1","3","1","1,0.5,0,1,0.5,0,0.5,0,1","0,1,0.5,0,1,0.5,1,0.5,0","3","",""
"","html-keyboard-response","119","131851","0.0-119.0","340UGXU9DZN7NEU7ZJ6RZS38DEWUVS","AM2KK02JXXW48","36U4VBVNQOZD8NFWZXWF9CIHKRIURB","","null","<img src=""img/food5.png"" style=""width:200px; border:14px solid green;"">","null","","","","","","","","","",""
"","image-keyboard-response","120","132038","0.0-120.0","340UGXU9DZN7NEU7ZJ6RZS38DEWUVS","AM2KK02JXXW48","36U4VBVNQOZD8NFWZXWF9CIHKRIURB","","185","img/food1.png","75","187","2","1","1","1","1,0.5,0,1,0.5,0,0.5,0,1","0,1,0.5,0,1,0.5,1,0.5,0","3","",""
"","html-keyboard-response","121","132339","0.0-121.0","340UGXU9DZN7NEU7ZJ6RZS38DEWUVS","AM2KK02JXXW48","36U4VBVNQOZD8NFWZXWF9CIHKRIURB","","null","<img src=""img/food1.png"" style=""width:200px; border:14px solid green;"">","null","","","","","","","","","",""
"","image-keyboard-response","122","132534","0.0-122.0","340UGXU9DZN7NEU7ZJ6RZS38DEWUVS","AM2KK02JXXW48","36U4VBVNQOZD8NFWZXWF9CIHKRIURB","","194","img/food6.png","75","196","2","1","2","1","1,0.5,0,1,0.5,0,0.5,0,1","0,1,0.5,0,1,0.5,1,0.5,0","3","",""
"","html-keyboard-response","123","132835","0.0-123.0","340UGXU9DZN7NEU7ZJ6RZS38DEWUVS","AM2KK02JXXW48","36U4VBVNQOZD8NFWZXWF9CIHKRIURB","","null","<img src=""img/food6.png"" style=""width:200px; border:14px solid green;"">","null","","","","","","","","","",""
"","image-keyboard-response","124","133006","0.0-124.0","340UGXU9DZN7NEU7ZJ6RZS38DEWUVS","AM2KK02JXXW48","36U4VBVNQOZD8NFWZXWF9CIHKRIURB","","170","img/food5.png","75","171","2","0","3","1","1,0.5,0,1,0.5,0,0.5,0,1","0,1,0.5,0,1,0.5,1,0.5,0","3","",""
"","html-keyboard-response","125","133307","0.0-125.0","340UGXU9DZN7NEU7ZJ6RZS38DEWUVS","AM2KK02JXXW48","36U4VBVNQOZD8NFWZXWF9CIHKRIURB","","null","<img src=""img/food5.png"" style=""width:200px;border:14px solid red;"">","null","","","","","","","","","",""
"","image-keyboard-response","126","133494","0.0-126.0","340UGXU9DZN7NEU7ZJ6RZS38DEWUVS","AM2KK02JXXW48","36U4VBVNQOZD8NFWZXWF9CIHKRIURB","","186","img/food1.png","75","187","2","1","1","1","1,0.5,0,1,0.5,0,0.5,0,1","0,1,0.5,0,1,0.5,1,0.5,0","3","",""
"","html-keyboard-response","127","133796","0.0-127.0","340UGXU9DZN7NEU7ZJ6RZS38DEWUVS","AM2KK02JXXW48","36U4VBVNQOZD8NFWZXWF9CIHKRIURB","","null","<img src=""img/food1.png"" style=""width:200px; border:14px solid green;"">","null","","","","","","","","","",""
"","image-keyboard-response","128","133998","0.0-128.0","340UGXU9DZN7NEU7ZJ6RZS38DEWUVS","AM2KK02JXXW48","36U4VBVNQOZD8NFWZXWF9CIHKRIURB","","201","img/food6.png","75","202","2","1","2","1","1,0.5,0,1,0.5,0,0.5,0,1","0,1,0.5,0,1,0.5,1,0.5,0","3","",""
"","html-keyboard-response","129","134299","0.0-129.0","340UGXU9DZN7NEU7ZJ6RZS38DEWUVS","AM2KK02JXXW48","36U4VBVNQOZD8NFWZXWF9CIHKRIURB","","null","<img src=""img/food6.png"" style=""width:200px; border:14px solid green;"">","null","","","","","","","","","",""
"","image-keyboard-response","130","134518","0.0-130.0","340UGXU9DZN7NEU7ZJ6RZS38DEWUVS","AM2KK02JXXW48","36U4VBVNQOZD8NFWZXWF9CIHKRIURB","","218","img/food6.png","75","219","2","1","2","1","1,0.5,0,1,0.5,0,0.5,0,1","0,1,0.5,0,1,0.5,1,0.5,0","3","",""
"","html-keyboard-response","131","134819","0.0-131.0","340UGXU9DZN7NEU7ZJ6RZS38DEWUVS","AM2KK02JXXW48","36U4VBVNQOZD8NFWZXWF9CIHKRIURB","","null","<img src=""img/food6.png"" style=""width:200px; border:14px solid green;"">","null","","","","","","","","","",""
"","image-keyboard-response","132","134998","0.0-132.0","340UGXU9DZN7NEU7ZJ6RZS38DEWUVS","AM2KK02JXXW48","36U4VBVNQOZD8NFWZXWF9CIHKRIURB","","178","img/food5.png","75","179","2","1","3","1","1,0.5,0,1,0.5,0,0.5,0,1","0,1,0.5,0,1,0.5,1,0.5,0","3","",""
"","html-keyboard-response","133","135301","0.0-133.0","340UGXU9DZN7NEU7ZJ6RZS38DEWUVS","AM2KK02JXXW48","36U4VBVNQOZD8NFWZXWF9CIHKRIURB","","null","<img src=""img/food5.png"" style=""width:200px; border:14px solid green;"">","null","","","","","","","","","",""
"","image-keyboard-response","134","135462","0.0-134.0","340UGXU9DZN7NEU7ZJ6RZS38DEWUVS","AM2KK02JXXW48","36U4VBVNQOZD8NFWZXWF9CIHKRIURB","","161","img/food5.png","75","161","2","0","3","1","1,0.5,0,1,0.5,0,0.5,0,1","0,1,0.5,0,1,0.5,1,0.5,0","3","",""
"","html-keyboard-response","135","135764","0.0-135.0","340UGXU9DZN7NEU7ZJ6RZS38DEWUVS","AM2KK02JXXW48","36U4VBVNQOZD8NFWZXWF9CIHKRIURB","","null","<img src=""img/food5.png"" style=""width:200px;border:14px solid red;"">","null","","","","","","","","","",""
"","image-keyboard-response","136","135998","0.0-136.0","340UGXU9DZN7NEU7ZJ6RZS38DEWUVS","AM2KK02JXXW48","36U4VBVNQOZD8NFWZXWF9CIHKRIURB","","233","img/food1.png","75","234","2","1","1","1","1,0.5,0,1,0.5,0,0.5,0,1","0,1,0.5,0,1,0.5,1,0.5,0","3","",""
"","html-keyboard-response","137","136314","0.0-137.0","340UGXU9DZN7NEU7ZJ6RZS38DEWUVS","AM2KK02JXXW48","36U4VBVNQOZD8NFWZXWF9CIHKRIURB","","null","<img src=""img/food1.png"" style=""width:200px; border:14px solid green;"">","null","","","","","","","","","",""
"","image-keyboard-response","138","136478","0.0-138.0","340UGXU9DZN7NEU7ZJ6RZS38DEWUVS","AM2KK02JXXW48","36U4VBVNQOZD8NFWZXWF9CIHKRIURB","","163","img/food1.png","75","164","2","1","1","1","1,0.5,0,1,0.5,0,0.5,0,1","0,1,0.5,0,1,0.5,1,0.5,0","3","",""
"","html-keyboard-response","139","136786","0.0-139.0","340UGXU9DZN7NEU7ZJ6RZS38DEWUVS","AM2KK02JXXW48","36U4VBVNQOZD8NFWZXWF9CIHKRIURB","","null","<img src=""img/food1.png"" style=""width:200px; border:14px solid green;"">","null","","","","","","","","","",""
"","image-keyboard-response","140","136974","0.0-140.0","340UGXU9DZN7NEU7ZJ6RZS38DEWUVS","AM2KK02JXXW48","36U4VBVNQOZD8NFWZXWF9CIHKRIURB","","187","img/food6.png","75","188","2","1","2","1","1,0.5,0,1,0.5,0,0.5,0,1","0,1,0.5,0,1,0.5,1,0.5,0","3","",""
"","html-keyboard-response","141","137275","0.0-141.0","340UGXU9DZN7NEU7ZJ6RZS38DEWUVS","AM2KK02JXXW48","36U4VBVNQOZD8NFWZXWF9CIHKRIURB","","null","<img src=""img/food6.png"" style=""width:200px; border:14px solid green;"">","null","","","","","","","","","",""
"","image-keyboard-response","142","137462","0.0-142.0","340UGXU9DZN7NEU7ZJ6RZS38DEWUVS","AM2KK02JXXW48","36U4VBVNQOZD8NFWZXWF9CIHKRIURB","","186","img/food5.png","75","187","2","0","3","1","1,0.5,0,1,0.5,0,0.5,0,1","0,1,0.5,0,1,0.5,1,0.5,0","3","",""
"","html-keyboard-response","143","137764","0.0-143.0","340UGXU9DZN7NEU7ZJ6RZS38DEWUVS","AM2KK02JXXW48","36U4VBVNQOZD8NFWZXWF9CIHKRIURB","","null","<img src=""img/food5.png"" style=""width:200px;border:14px solid red;"">","null","","","","","","","","","",""
"","image-keyboard-response","144","137974","0.0-144.0","340UGXU9DZN7NEU7ZJ6RZS38DEWUVS","AM2KK02JXXW48","36U4VBVNQOZD8NFWZXWF9CIHKRIURB","","209","img/food6.png","75","210","2","1","2","1","1,0.5,0,1,0.5,0,0.5,0,1","0,1,0.5,0,1,0.5,1,0.5,0","3","",""
"","html-keyboard-response","145","138275","0.0-145.0","340UGXU9DZN7NEU7ZJ6RZS38DEWUVS","AM2KK02JXXW48","36U4VBVNQOZD8NFWZXWF9CIHKRIURB","","null","<img src=""img/food6.png"" style=""width:200px; border:14px solid green;"">","null","","","","","","","","","",""
"","image-keyboard-response","146","138438","0.0-146.0","340UGXU9DZN7NEU7ZJ6RZS38DEWUVS","AM2KK02JXXW48","36U4VBVNQOZD8NFWZXWF9CIHKRIURB","","162","img/food1.png","75","163","2","1","1","1","1,0.5,0,1,0.5,0,0.5,0,1","0,1,0.5,0,1,0.5,1,0.5,0","3","",""
"","html-keyboard-response","147","138739","0.0-147.0","340UGXU9DZN7NEU7ZJ6RZS38DEWUVS","AM2KK02JXXW48","36U4VBVNQOZD8NFWZXWF9CIHKRIURB","","null","<img src=""img/food1.png"" style=""width:200px; border:14px solid green;"">","null","","","","","","","","","",""
"","image-keyboard-response","148","138942","0.0-148.0","340UGXU9DZN7NEU7ZJ6RZS38DEWUVS","AM2KK02JXXW48","36U4VBVNQOZD8NFWZXWF9CIHKRIURB","","202","img/food1.png","75","203","2","1","1","1","1,0.5,0,1,0.5,0,0.5,0,1","0,1,0.5,0,1,0.5,1,0.5,0","3","",""
"","html-keyboard-response","149","139243","0.0-149.0","340UGXU9DZN7NEU7ZJ6RZS38DEWUVS","AM2KK02JXXW48","36U4VBVNQOZD8NFWZXWF9CIHKRIURB","","null","<img src=""img/food1.png"" style=""width:200px; border:14px solid green;"">","null","","","","","","","","","",""
"","image-keyboard-response","150","139470","0.0-150.0","340UGXU9DZN7NEU7ZJ6RZS38DEWUVS","AM2KK02JXXW48","36U4VBVNQOZD8NFWZXWF9CIHKRIURB","","226","img/food1.png","75","227","2","1","1","1","1,0.5,0,1,0.5,0,0.5,0,1","0,1,0.5,0,1,0.5,1,0.5,0","3","",""
"","html-keyboard-response","151","139771","0.0-151.0","340UGXU9DZN7NEU7ZJ6RZS38DEWUVS","AM2KK02JXXW48","36U4VBVNQOZD8NFWZXWF9CIHKRIURB","","null","<img src=""img/food1.png"" style=""width:200px; border:14px solid green;"">","null","","","","","","","","","",""
"","image-keyboard-response","152","140246","0.0-152.0","340UGXU9DZN7NEU7ZJ6RZS38DEWUVS","AM2KK02JXXW48","36U4VBVNQOZD8NFWZXWF9CIHKRIURB","","473","img/food6.png","75","475","2","1","2","1","1,0.5,0,1,0.5,0,0.5,0,1","0,1,0.5,0,1,0.5,1,0.5,0","3","",""
"","html-keyboard-response","153","140547","0.0-153.0","340UGXU9DZN7NEU7ZJ6RZS38DEWUVS","AM2KK02JXXW48","36U4VBVNQOZD8NFWZXWF9CIHKRIURB","","null","<img src=""img/food6.png"" style=""width:200px; border:14px solid green;"">","null","","","","","","","","","",""
"","image-keyboard-response","154","140718","0.0-154.0","340UGXU9DZN7NEU7ZJ6RZS38DEWUVS","AM2KK02JXXW48","36U4VBVNQOZD8NFWZXWF9CIHKRIURB","","170","img/food6.png","75","171","2","1","2","1","1,0.5,0,1,0.5,0,0.5,0,1","0,1,0.5,0,1,0.5,1,0.5,0","3","",""
"","html-keyboard-response","155","141019","0.0-155.0","340UGXU9DZN7NEU7ZJ6RZS38DEWUVS","AM2KK02JXXW48","36U4VBVNQOZD8NFWZXWF9CIHKRIURB","","null","<img src=""img/food6.png"" style=""width:200px; border:14px solid green;"">","null","","","","","","","","","",""
"","image-keyboard-response","156","141190","0.0-156.0","340UGXU9DZN7NEU7ZJ6RZS38DEWUVS","AM2KK02JXXW48","36U4VBVNQOZD8NFWZXWF9CIHKRIURB","","170","img/food5.png","75","171","2","0","3","1","1,0.5,0,1,0.5,0,0.5,0,1","0,1,0.5,0,1,0.5,1,0.5,0","3","",""
"","html-keyboard-response","157","141491","0.0-157.0","340UGXU9DZN7NEU7ZJ6RZS38DEWUVS","AM2KK02JXXW48","36U4VBVNQOZD8NFWZXWF9CIHKRIURB","","null","<img src=""img/food5.png"" style=""width:200px;border:14px solid red;"">","null","","","","","","","","","",""
"","image-keyboard-response","158","141654","0.0-158.0","340UGXU9DZN7NEU7ZJ6RZS38DEWUVS","AM2KK02JXXW48","36U4VBVNQOZD8NFWZXWF9CIHKRIURB","","161","img/food5.png","75","163","2","0","3","1","1,0.5,0,1,0.5,0,0.5,0,1","0,1,0.5,0,1,0.5,1,0.5,0","3","",""
"","html-keyboard-response","159","141956","0.0-159.0","340UGXU9DZN7NEU7ZJ6RZS38DEWUVS","AM2KK02JXXW48","36U4VBVNQOZD8NFWZXWF9CIHKRIURB","","null","<img src=""img/food5.png"" style=""width:200px;border:14px solid red;"">","null","","","","","","","","","",""
"","image-keyboard-response","160","142212","0.0-160.0","340UGXU9DZN7NEU7ZJ6RZS38DEWUVS","AM2KK02JXXW48","36U4VBVNQOZD8NFWZXWF9CIHKRIURB","","254","img/food1.png","76","256","3","0","1","1","1,0.5,0,1,0.5,0,0.5,0,1","0,1,0.5,0,1,0.5,1,0.5,0","3","",""
"","html-keyboard-response","161","142513","0.0-161.0","340UGXU9DZN7NEU7ZJ6RZS38DEWUVS","AM2KK02JXXW48","36U4VBVNQOZD8NFWZXWF9CIHKRIURB","","null","<img src=""img/food1.png"" style=""width:200px;border:14px solid red;"">","null","","","","","","","","","",""
"","image-keyboard-response","162","142694","0.0-162.0","340UGXU9DZN7NEU7ZJ6RZS38DEWUVS","AM2KK02JXXW48","36U4VBVNQOZD8NFWZXWF9CIHKRIURB","","180","img/food5.png","76","182","3","0","3","1","1,0.5,0,1,0.5,0,0.5,0,1","0,1,0.5,0,1,0.5,1,0.5,0","3","",""
"","html-keyboard-response","163","142996","0.0-163.0","340UGXU9DZN7NEU7ZJ6RZS38DEWUVS","AM2KK02JXXW48","36U4VBVNQOZD8NFWZXWF9CIHKRIURB","","null","<img src=""img/food5.png"" style=""width:200px;border:14px solid red;"">","null","","","","","","","","","",""
"","image-keyboard-response","164","143166","0.0-164.0","340UGXU9DZN7NEU7ZJ6RZS38DEWUVS","AM2KK02JXXW48","36U4VBVNQOZD8NFWZXWF9CIHKRIURB","","169","img/food6.png","76","170","3","0","2","1","1,0.5,0,1,0.5,0,0.5,0,1","0,1,0.5,0,1,0.5,1,0.5,0","3","",""
"","html-keyboard-response","165","143468","0.0-165.0","340UGXU9DZN7NEU7ZJ6RZS38DEWUVS","AM2KK02JXXW48","36U4VBVNQOZD8NFWZXWF9CIHKRIURB","","null","<img src=""img/food6.png"" style=""width:200px;border:14px solid red;"">","null","","","","","","","","","",""
"","image-keyboard-response","166","143630","0.0-166.0","340UGXU9DZN7NEU7ZJ6RZS38DEWUVS","AM2KK02JXXW48","36U4VBVNQOZD8NFWZXWF9CIHKRIURB","","161","img/food5.png","76","162","3","0","3","1","1,0.5,0,1,0.5,0,0.5,0,1","0,1,0.5,0,1,0.5,1,0.5,0","3","",""
"","html-keyboard-response","167","143931","0.0-167.0","340UGXU9DZN7NEU7ZJ6RZS38DEWUVS","AM2KK02JXXW48","36U4VBVNQOZD8NFWZXWF9CIHKRIURB","","null","<img src=""img/food5.png"" style=""width:200px;border:14px solid red;"">","null","","","","","","","","","",""
"","image-keyboard-response","168","144014","0.0-168.0","340UGXU9DZN7NEU7ZJ6RZS38DEWUVS","AM2KK02JXXW48","36U4VBVNQOZD8NFWZXWF9CIHKRIURB","","82","img/food5.png","75","83","2","0","3","1","1,0.5,0,1,0.5,0,0.5,0,1","0,1,0.5,0,1,0.5,1,0.5,0","3","",""
"","html-keyboard-response","169","144315","0.0-169.0","340UGXU9DZN7NEU7ZJ6RZS38DEWUVS","AM2KK02JXXW48","36U4VBVNQOZD8NFWZXWF9CIHKRIURB","","null","<img src=""img/food5.png"" style=""width:200px;border:14px solid red;"">","null","","","","","","","","","",""
"","image-keyboard-response","170","144422","0.0-170.0","340UGXU9DZN7NEU7ZJ6RZS38DEWUVS","AM2KK02JXXW48","36U4VBVNQOZD8NFWZXWF9CIHKRIURB","","106","img/food6.png","75","107","2","1","2","1","1,0.5,0,1,0.5,0,0.5,0,1","0,1,0.5,0,1,0.5,1,0.5,0","3","",""
"","html-keyboard-response","171","144723","0.0-171.0","340UGXU9DZN7NEU7ZJ6RZS38DEWUVS","AM2KK02JXXW48","36U4VBVNQOZD8NFWZXWF9CIHKRIURB","","null","<img src=""img/food6.png"" style=""width:200px; border:14px solid green;"">","null","","","","","","","","","",""
"","image-keyboard-response","172","144871","0.0-172.0","340UGXU9DZN7NEU7ZJ6RZS38DEWUVS","AM2KK02JXXW48","36U4VBVNQOZD8NFWZXWF9CIHKRIURB","","146","img/food6.png","75","148","2","1","2","1","1,0.5,0,1,0.5,0,0.5,0,1","0,1,0.5,0,1,0.5,1,0.5,0","3","",""
"","html-keyboard-response","173","145176","0.0-173.0","340UGXU9DZN7NEU7ZJ6RZS38DEWUVS","AM2KK02JXXW48","36U4VBVNQOZD8NFWZXWF9CIHKRIURB","","null","<img src=""img/food6.png"" style=""width:200px; border:14px solid green;"">","null","","","","","","","","","",""
"","image-keyboard-response","174","145270","0.0-174.0","340UGXU9DZN7NEU7ZJ6RZS38DEWUVS","AM2KK02JXXW48","36U4VBVNQOZD8NFWZXWF9CIHKRIURB","","94","img/food6.png","75","94","2","1","2","1","1,0.5,0,1,0.5,0,0.5,0,1","0,1,0.5,0,1,0.5,1,0.5,0","3","",""
"","html-keyboard-response","175","145571","0.0-175.0","340UGXU9DZN7NEU7ZJ6RZS38DEWUVS","AM2KK02JXXW48","36U4VBVNQOZD8NFWZXWF9CIHKRIURB","","null","<img src=""img/food6.png"" style=""width:200px; border:14px solid green;"">","null","","","","","","","","","",""
"","image-keyboard-response","176","145678","0.0-176.0","340UGXU9DZN7NEU7ZJ6RZS38DEWUVS","AM2KK02JXXW48","36U4VBVNQOZD8NFWZXWF9CIHKRIURB","","105","img/food6.png","74","107","1","0","2","1","1,0.5,0,1,0.5,0,0.5,0,1","0,1,0.5,0,1,0.5,1,0.5,0","3","",""
"","html-keyboard-response","177","145979","0.0-177.0","340UGXU9DZN7NEU7ZJ6RZS38DEWUVS","AM2KK02JXXW48","36U4VBVNQOZD8NFWZXWF9CIHKRIURB","","null","<img src=""img/food6.png"" style=""width:200px;border:14px solid red;"">","null","","","","","","","","","",""
"","image-keyboard-response","178","146182","0.0-178.0","340UGXU9DZN7NEU7ZJ6RZS38DEWUVS","AM2KK02JXXW48","36U4VBVNQOZD8NFWZXWF9CIHKRIURB","","201","img/food1.png","74","203","1","0","1","1","1,0.5,0,1,0.5,0,0.5,0,1","0,1,0.5,0,1,0.5,1,0.5,0","3","",""
"","html-keyboard-response","179","146490","0.0-179.0","340UGXU9DZN7NEU7ZJ6RZS38DEWUVS","AM2KK02JXXW48","36U4VBVNQOZD8NFWZXWF9CIHKRIURB","","null","<img src=""img/food1.png"" style=""width:200px;border:14px solid red;"">","null","","","","","","","","","",""
"","image-keyboard-response","180","146878","0.0-180.0","340UGXU9DZN7NEU7ZJ6RZS38DEWUVS","AM2KK02JXXW48","36U4VBVNQOZD8NFWZXWF9CIHKRIURB","","388","img/food1.png","74","388","1","0","1","1","1,0.5,0,1,0.5,0,0.5,0,1","0,1,0.5,0,1,0.5,1,0.5,0","3","",""
"","html-keyboard-response","181","147179","0.0-181.0","340UGXU9DZN7NEU7ZJ6RZS38DEWUVS","AM2KK02JXXW48","36U4VBVNQOZD8NFWZXWF9CIHKRIURB","","null","<img src=""img/food1.png"" style=""width:200px;border:14px solid red;"">","null","","","","","","","","","",""
"","html-keyboard-response","182","150512","0.0-182.0","340UGXU9DZN7NEU7ZJ6RZS38DEWUVS","AM2KK02JXXW48","36U4VBVNQOZD8NFWZXWF9CIHKRIURB","","","","","","","","","","","","","",""
"","instructions","183","163921","0.0-183.0","340UGXU9DZN7NEU7ZJ6RZS38DEWUVS","AM2KK02JXXW48","36U4VBVNQOZD8NFWZXWF9CIHKRIURB","[{""page_index"":0,""viewing_time"":11910},{""page_index"":1,""viewing_time"":1497}]","13407","","","","","","","","","","","",""
"","image-keyboard-response","184","164462","0.0-184.0","340UGXU9DZN7NEU7ZJ6RZS38DEWUVS","AM2KK02JXXW48","36U4VBVNQOZD8NFWZXWF9CIHKRIURB","","540","img/food2.png","74","541","1","0","1","2","1,0.5,0,1,0.5,0,0.5,0,1","0.5,0,1,0.5,0,1,0,1,0.5","2","false",""
"","html-keyboard-response","185","164763","0.0-185.0","340UGXU9DZN7NEU7ZJ6RZS38DEWUVS","AM2KK02JXXW48","36U4VBVNQOZD8NFWZXWF9CIHKRIURB","","null","<img src=""img/food2.png"" style=""width:200px;border:14px solid red;"">","null","","","","","","","","","",""
"","image-keyboard-response","186","165205","0.0-187.0","340UGXU9DZN7NEU7ZJ6RZS38DEWUVS","AM2KK02JXXW48","36U4VBVNQOZD8NFWZXWF9CIHKRIURB","","441","img/food4.png","75","441","2","0","2","2","1,0.5,0,1,0.5,0,0.5,0,1","0.5,0,1,0.5,0,1,0,1,0.5","2","false",""
"","html-keyboard-response","187","165506","0.0-188.0","340UGXU9DZN7NEU7ZJ6RZS38DEWUVS","AM2KK02JXXW48","36U4VBVNQOZD8NFWZXWF9CIHKRIURB","","null","<img src=""img/food4.png"" style=""width:200px;border:14px solid red;"">","null","","","","","","","","","",""
"","image-keyboard-response","188","165862","0.0-190.0","340UGXU9DZN7NEU7ZJ6RZS38DEWUVS","AM2KK02JXXW48","36U4VBVNQOZD8NFWZXWF9CIHKRIURB","","355","img/food3.png","76","355","3","1","3","2","1,0.5,0,1,0.5,0,0.5,0,1","0.5,0,1,0.5,0,1,0,1,0.5","2","false",""
"","html-keyboard-response","189","166163","0.0-191.0","340UGXU9DZN7NEU7ZJ6RZS38DEWUVS","AM2KK02JXXW48","36U4VBVNQOZD8NFWZXWF9CIHKRIURB","","null","<img src=""img/food3.png"" style=""width:200px; border:14px solid green;"">","null","","","","","","","","","",""
"","image-keyboard-response","190","166566","0.0-193.0","340UGXU9DZN7NEU7ZJ6RZS38DEWUVS","AM2KK02JXXW48","36U4VBVNQOZD8NFWZXWF9CIHKRIURB","","402","img/food4.png","76","403","3","1","2","2","1,0.5,0,1,0.5,0,0.5,0,1","0.5,0,1,0.5,0,1,0,1,0.5","2","false",""
"","html-keyboard-response","191","166868","0.0-194.0","340UGXU9DZN7NEU7ZJ6RZS38DEWUVS","AM2KK02JXXW48","36U4VBVNQOZD8NFWZXWF9CIHKRIURB","","null","<img src=""img/food4.png"" style=""width:200px; border:14px solid green;"">","null","","","","","","","","","",""
"","image-keyboard-response","192","167254","0.0-196.0","340UGXU9DZN7NEU7ZJ6RZS38DEWUVS","AM2KK02JXXW48","36U4VBVNQOZD8NFWZXWF9CIHKRIURB","","385","img/food4.png","76","386","3","1","2","2","1,0.5,0,1,0.5,0,0.5,0,1","0.5,0,1,0.5,0,1,0,1,0.5","2","false",""
"","html-keyboard-response","193","167556","0.0-197.0","340UGXU9DZN7NEU7ZJ6RZS38DEWUVS","AM2KK02JXXW48","36U4VBVNQOZD8NFWZXWF9CIHKRIURB","","null","<img src=""img/food4.png"" style=""width:200px; border:14px solid green;"">","null","","","","","","","","","",""
"","image-keyboard-response","194","167942","0.0-199.0","340UGXU9DZN7NEU7ZJ6RZS38DEWUVS","AM2KK02JXXW48","36U4VBVNQOZD8NFWZXWF9CIHKRIURB","","385","img/food2.png","76","386","3","1","1","2","1,0.5,0,1,0.5,0,0.5,0,1","0.5,0,1,0.5,0,1,0,1,0.5","2","false",""
"","html-keyboard-response","195","168243","0.0-200.0","340UGXU9DZN7NEU7ZJ6RZS38DEWUVS","AM2KK02JXXW48","36U4VBVNQOZD8NFWZXWF9CIHKRIURB","","null","<img src=""img/food2.png"" style=""width:200px; border:14px solid green;"">","null","","","","","","","","","",""
"","image-keyboard-response","196","168550","0.0-202.0","340UGXU9DZN7NEU7ZJ6RZS38DEWUVS","AM2KK02JXXW48","36U4VBVNQOZD8NFWZXWF9CIHKRIURB","","305","img/food2.png","76","306","3","1","1","2","1,0.5,0,1,0.5,0,0.5,0,1","0.5,0,1,0.5,0,1,0,1,0.5","2","false",""
"","html-keyboard-response","197","168851","0.0-203.0","340UGXU9DZN7NEU7ZJ6RZS38DEWUVS","AM2KK02JXXW48","36U4VBVNQOZD8NFWZXWF9CIHKRIURB","","null","<img src=""img/food2.png"" style=""width:200px; border:14px solid green;"">","null","","","","","","","","","",""
"","image-keyboard-response","198","169174","0.0-205.0","340UGXU9DZN7NEU7ZJ6RZS38DEWUVS","AM2KK02JXXW48","36U4VBVNQOZD8NFWZXWF9CIHKRIURB","","322","img/food3.png","76","322","3","0","3","2","1,0.5,0,1,0.5,0,0.5,0,1","0.5,0,1,0.5,0,1,0,1,0.5","2","false",""
"","html-keyboard-response","199","169476","0.0-206.0","340UGXU9DZN7NEU7ZJ6RZS38DEWUVS","AM2KK02JXXW48","36U4VBVNQOZD8NFWZXWF9CIHKRIURB","","null","<img src=""img/food3.png"" style=""width:200px;border:14px solid red;"">","null","","","","","","","","","",""
"","image-keyboard-response","200","169830","0.0-208.0","340UGXU9DZN7NEU7ZJ6RZS38DEWUVS","AM2KK02JXXW48","36U4VBVNQOZD8NFWZXWF9CIHKRIURB","","352","img/food2.png","76","354","3","1","1","2","1,0.5,0,1,0.5,0,0.5,0,1","0.5,0,1,0.5,0,1,0,1,0.5","2","false",""
"","html-keyboard-response","201","170132","0.0-209.0","340UGXU9DZN7NEU7ZJ6RZS38DEWUVS","AM2KK02JXXW48","36U4VBVNQOZD8NFWZXWF9CIHKRIURB","","null","<img src=""img/food2.png"" style=""width:200px; border:14px solid green;"">","null","","","","","","","","","",""
"","image-keyboard-response","202","170438","0.0-211.0","340UGXU9DZN7NEU7ZJ6RZS38DEWUVS","AM2KK02JXXW48","36U4VBVNQOZD8NFWZXWF9CIHKRIURB","","305","img/food3.png","76","305","3","0","3","2","1,0.5,0,1,0.5,0,0.5,0,1","0.5,0,1,0.5,0,1,0,1,0.5","2","false",""
"","html-keyboard-response","203","170739","0.0-212.0","340UGXU9DZN7NEU7ZJ6RZS38DEWUVS","AM2KK02JXXW48","36U4VBVNQOZD8NFWZXWF9CIHKRIURB","","null","<img src=""img/food3.png"" style=""width:200px;border:14px solid red;"">","null","","","","","","","","","",""
"","image-keyboard-response","204","171026","0.0-214.0","340UGXU9DZN7NEU7ZJ6RZS38DEWUVS","AM2KK02JXXW48","36U4VBVNQOZD8NFWZXWF9CIHKRIURB","","286","img/food2.png","76","287","3","1","1","2","1,0.5,0,1,0.5,0,0.5,0,1","0.5,0,1,0.5,0,1,0,1,0.5","2","false",""
"","html-keyboard-response","205","171330","0.0-215.0","340UGXU9DZN7NEU7ZJ6RZS38DEWUVS","AM2KK02JXXW48","36U4VBVNQOZD8NFWZXWF9CIHKRIURB","","null","<img src=""img/food2.png"" style=""width:200px; border:14px solid green;"">","null","","","","","","","","","",""
"","image-keyboard-response","206","171614","0.0-217.0","340UGXU9DZN7NEU7ZJ6RZS38DEWUVS","AM2KK02JXXW48","36U4VBVNQOZD8NFWZXWF9CIHKRIURB","","283","img/food4.png","76","285","3","1","2","2","1,0.5,0,1,0.5,0,0.5,0,1","0.5,0,1,0.5,0,1,0,1,0.5","2","false",""
"","html-keyboard-response","207","171915","0.0-218.0","340UGXU9DZN7NEU7ZJ6RZS38DEWUVS","AM2KK02JXXW48","36U4VBVNQOZD8NFWZXWF9CIHKRIURB","","null","<img src=""img/food4.png"" style=""width:200px; border:14px solid green;"">","null","","","","","","","","","",""
"","image-keyboard-response","208","172222","0.0-220.0","340UGXU9DZN7NEU7ZJ6RZS38DEWUVS","AM2KK02JXXW48","36U4VBVNQOZD8NFWZXWF9CIHKRIURB","","306","img/food3.png","76","306","3","0","3","2","1,0.5,0,1,0.5,0,0.5,0,1","0.5,0,1,0.5,0,1,0,1,0.5","2","false",""
"","html-keyboard-response","209","172523","0.0-221.0","340UGXU9DZN7NEU7ZJ6RZS38DEWUVS","AM2KK02JXXW48","36U4VBVNQOZD8NFWZXWF9CIHKRIURB","","null","<img src=""img/food3.png"" style=""width:200px;border:14px solid red;"">","null","","","","","","","","","",""
"","image-keyboard-response","210","172799","0.0-223.0","340UGXU9DZN7NEU7ZJ6RZS38DEWUVS","AM2KK02JXXW48","36U4VBVNQOZD8NFWZXWF9CIHKRIURB","","274","img/food4.png","76","276","3","1","2","2","1,0.5,0,1,0.5,0,0.5,0,1","0.5,0,1,0.5,0,1,0,1,0.5","2","false",""
"","html-keyboard-response","211","173101","0.0-224.0","340UGXU9DZN7NEU7ZJ6RZS38DEWUVS","AM2KK02JXXW48","36U4VBVNQOZD8NFWZXWF9CIHKRIURB","","null","<img src=""img/food4.png"" style=""width:200px; border:14px solid green;"">","null","","","","","","","","","",""
"","image-keyboard-response","212","173479","0.0-226.0","340UGXU9DZN7NEU7ZJ6RZS38DEWUVS","AM2KK02JXXW48","36U4VBVNQOZD8NFWZXWF9CIHKRIURB","","376","img/food4.png","76","377","3","1","2","2","1,0.5,0,1,0.5,0,0.5,0,1","0.5,0,1,0.5,0,1,0,1,0.5","2","false",""
"","html-keyboard-response","213","173780","0.0-227.0","340UGXU9DZN7NEU7ZJ6RZS38DEWUVS","AM2KK02JXXW48","36U4VBVNQOZD8NFWZXWF9CIHKRIURB","","null","<img src=""img/food4.png"" style=""width:200px; border:14px solid green;"">","null","","","","","","","","","",""
"","image-keyboard-response","214","174086","0.0-229.0","340UGXU9DZN7NEU7ZJ6RZS38DEWUVS","AM2KK02JXXW48","36U4VBVNQOZD8NFWZXWF9CIHKRIURB","","304","img/food4.png","76","306","3","1","2","2","1,0.5,0,1,0.5,0,0.5,0,1","0.5,0,1,0.5,0,1,0,1,0.5","2","false",""
"","html-keyboard-response","215","174387","0.0-230.0","340UGXU9DZN7NEU7ZJ6RZS38DEWUVS","AM2KK02JXXW48","36U4VBVNQOZD8NFWZXWF9CIHKRIURB","","null","<img src=""img/food4.png"" style=""width:200px; border:14px solid green;"">","null","","","","","","","","","",""
"","image-keyboard-response","216","174774","0.0-232.0","340UGXU9DZN7NEU7ZJ6RZS38DEWUVS","AM2KK02JXXW48","36U4VBVNQOZD8NFWZXWF9CIHKRIURB","","383","img/food3.png","76","383","3","0","3","2","1,0.5,0,1,0.5,0,0.5,0,1","0.5,0,1,0.5,0,1,0,1,0.5","2","false",""
"","html-keyboard-response","217","175075","0.0-233.0","340UGXU9DZN7NEU7ZJ6RZS38DEWUVS","AM2KK02JXXW48","36U4VBVNQOZD8NFWZXWF9CIHKRIURB","","null","<img src=""img/food3.png"" style=""width:200px;border:14px solid red;"">","null","","","","","","","","","",""
"","image-keyboard-response","218","175390","0.0-235.0","340UGXU9DZN7NEU7ZJ6RZS38DEWUVS","AM2KK02JXXW48","36U4VBVNQOZD8NFWZXWF9CIHKRIURB","","314","img/food3.png","76","314","3","0","3","2","1,0.5,0,1,0.5,0,0.5,0,1","0.5,0,1,0.5,0,1,0,1,0.5","2","false",""
"","html-keyboard-response","219","175692","0.0-236.0","340UGXU9DZN7NEU7ZJ6RZS38DEWUVS","AM2KK02JXXW48","36U4VBVNQOZD8NFWZXWF9CIHKRIURB","","null","<img src=""img/food3.png"" style=""width:200px;border:14px solid red;"">","null","","","","","","","","","",""
"","image-keyboard-response","220","176039","0.0-238.0","340UGXU9DZN7NEU7ZJ6RZS38DEWUVS","AM2KK02JXXW48","36U4VBVNQOZD8NFWZXWF9CIHKRIURB","","345","img/food2.png","76","347","3","1","1","2","1,0.5,0,1,0.5,0,0.5,0,1","0.5,0,1,0.5,0,1,0,1,0.5","2","false",""
"","html-keyboard-response","221","176340","0.0-239.0","340UGXU9DZN7NEU7ZJ6RZS38DEWUVS","AM2KK02JXXW48","36U4VBVNQOZD8NFWZXWF9CIHKRIURB","","null","<img src=""img/food2.png"" style=""width:200px; border:14px solid green;"">","null","","","","","","","","","",""
"","image-keyboard-response","222","176678","0.0-241.0","340UGXU9DZN7NEU7ZJ6RZS38DEWUVS","AM2KK02JXXW48","36U4VBVNQOZD8NFWZXWF9CIHKRIURB","","336","img/food2.png","76","337","3","1","1","2","1,0.5,0,1,0.5,0,0.5,0,1","0.5,0,1,0.5,0,1,0,1,0.5","2","false",""
"","html-keyboard-response","223","176979","0.0-242.0","340UGXU9DZN7NEU7ZJ6RZS38DEWUVS","AM2KK02JXXW48","36U4VBVNQOZD8NFWZXWF9CIHKRIURB","","null","<img src=""img/food2.png"" style=""width:200px; border:14px solid green;"">","null","","","","","","","","","",""
"","image-keyboard-response","224","177590","0.0-244.0","340UGXU9DZN7NEU7ZJ6RZS38DEWUVS","AM2KK02JXXW48","36U4VBVNQOZD8NFWZXWF9CIHKRIURB","","610","img/food4.png","75","611","2","0","2","2","1,0.5,0,1,0.5,0,0.5,0,1","0.5,0,1,0.5,0,1,0,1,0.5","2","false",""
"","html-keyboard-response","225","177891","0.0-245.0","340UGXU9DZN7NEU7ZJ6RZS38DEWUVS","AM2KK02JXXW48","36U4VBVNQOZD8NFWZXWF9CIHKRIURB","","null","<img src=""img/food4.png"" style=""width:200px;border:14px solid red;"">","null","","","","","","","","","",""
"","image-keyboard-response","226","178142","0.0-247.0","340UGXU9DZN7NEU7ZJ6RZS38DEWUVS","AM2KK02JXXW48","36U4VBVNQOZD8NFWZXWF9CIHKRIURB","","250","img/food2.png","75","251","2","0","1","2","1,0.5,0,1,0.5,0,0.5,0,1","0.5,0,1,0.5,0,1,0,1,0.5","2","false",""
"","html-keyboard-response","227","178443","0.0-248.0","340UGXU9DZN7NEU7ZJ6RZS38DEWUVS","AM2KK02JXXW48","36U4VBVNQOZD8NFWZXWF9CIHKRIURB","","null","<img src=""img/food2.png"" style=""width:200px;border:14px solid red;"">","null","","","","","","","","","",""
"","image-keyboard-response","228","178790","0.0-250.0","340UGXU9DZN7NEU7ZJ6RZS38DEWUVS","AM2KK02JXXW48","36U4VBVNQOZD8NFWZXWF9CIHKRIURB","","346","img/food2.png","75","348","2","0","1","2","1,0.5,0,1,0.5,0,0.5,0,1","0.5,0,1,0.5,0,1,0,1,0.5","2","false",""
"","html-keyboard-response","229","179092","0.0-251.0","340UGXU9DZN7NEU7ZJ6RZS38DEWUVS","AM2KK02JXXW48","36U4VBVNQOZD8NFWZXWF9CIHKRIURB","","null","<img src=""img/food2.png"" style=""width:200px;border:14px solid red;"">","null","","","","","","","","","",""
"","image-keyboard-response","230","179414","0.0-253.0","340UGXU9DZN7NEU7ZJ6RZS38DEWUVS","AM2KK02JXXW48","36U4VBVNQOZD8NFWZXWF9CIHKRIURB","","321","img/food3.png","74","321","1","0","3","2","1,0.5,0,1,0.5,0,0.5,0,1","0.5,0,1,0.5,0,1,0,1,0.5","2","false",""
"","html-keyboard-response","231","179715","0.0-254.0","340UGXU9DZN7NEU7ZJ6RZS38DEWUVS","AM2KK02JXXW48","36U4VBVNQOZD8NFWZXWF9CIHKRIURB","","null","<img src=""img/food3.png"" style=""width:200px;border:14px solid red;"">","null","","","","","","","","","",""
"","image-keyboard-response","232","179950","0.0-256.0","340UGXU9DZN7NEU7ZJ6RZS38DEWUVS","AM2KK02JXXW48","36U4VBVNQOZD8NFWZXWF9CIHKRIURB","","234","img/food3.png","74","235","1","0","3","2","1,0.5,0,1,0.5,0,0.5,0,1","0.5,0,1,0.5,0,1,0,1,0.5","2","false",""
"","html-keyboard-response","233","180251","0.0-257.0","340UGXU9DZN7NEU7ZJ6RZS38DEWUVS","AM2KK02JXXW48","36U4VBVNQOZD8NFWZXWF9CIHKRIURB","","null","<img src=""img/food3.png"" style=""width:200px;border:14px solid red;"">","null","","","","","","","","","",""
"","image-keyboard-response","234","180534","0.0-259.0","340UGXU9DZN7NEU7ZJ6RZS38DEWUVS","AM2KK02JXXW48","36U4VBVNQOZD8NFWZXWF9CIHKRIURB","","282","img/food4.png","74","283","1","1","2","2","1,0.5,0,1,0.5,0,0.5,0,1","0.5,0,1,0.5,0,1,0,1,0.5","2","false",""
"","html-keyboard-response","235","180835","0.0-260.0","340UGXU9DZN7NEU7ZJ6RZS38DEWUVS","AM2KK02JXXW48","36U4VBVNQOZD8NFWZXWF9CIHKRIURB","","null","<img src=""img/food4.png"" style=""width:200px; border:14px solid green;"">","null","","","","","","","","","",""
"","image-keyboard-response","236","181102","0.0-262.0","340UGXU9DZN7NEU7ZJ6RZS38DEWUVS","AM2KK02JXXW48","36U4VBVNQOZD8NFWZXWF9CIHKRIURB","","266","img/food3.png","74","267","1","0","3","2","1,0.5,0,1,0.5,0,0.5,0,1","0.5,0,1,0.5,0,1,0,1,0.5","2","false",""
"","html-keyboard-response","237","181403","0.0-263.0","340UGXU9DZN7NEU7ZJ6RZS38DEWUVS","AM2KK02JXXW48","36U4VBVNQOZD8NFWZXWF9CIHKRIURB","","null","<img src=""img/food3.png"" style=""width:200px;border:14px solid red;"">","null","","","","","","","","","",""
"","image-keyboard-response","238","181871","0.0-265.0","340UGXU9DZN7NEU7ZJ6RZS38DEWUVS","AM2KK02JXXW48","36U4VBVNQOZD8NFWZXWF9CIHKRIURB","","466","img/food2.png","74","467","1","0","1","2","1,0.5,0,1,0.5,0,0.5,0,1","0.5,0,1,0.5,0,1,0,1,0.5","2","false",""
"","html-keyboard-response","239","182172","0.0-266.0","340UGXU9DZN7NEU7ZJ6RZS38DEWUVS","AM2KK02JXXW48","36U4VBVNQOZD8NFWZXWF9CIHKRIURB","","null","<img src=""img/food2.png"" style=""width:200px;border:14px solid red;"">","null","","","","","","","","","",""
"","image-keyboard-response","240","182462","0.0-268.0","340UGXU9DZN7NEU7ZJ6RZS38DEWUVS","AM2KK02JXXW48","36U4VBVNQOZD8NFWZXWF9CIHKRIURB","","289","img/food2.png","74","289","1","1","1","2","1,0.5,0,1,0.5,0,0.5,0,1","0.5,0,1,0.5,0,1,0,1,0.5","2","false",""
"","html-keyboard-response","241","182763","0.0-269.0","340UGXU9DZN7NEU7ZJ6RZS38DEWUVS","AM2KK02JXXW48","36U4VBVNQOZD8NFWZXWF9CIHKRIURB","","null","<img src=""img/food2.png"" style=""width:200px; border:14px solid green;"">","null","","","","","","","","","",""
"","image-keyboard-response","242","183119","0.0-271.0","340UGXU9DZN7NEU7ZJ6RZS38DEWUVS","AM2KK02JXXW48","36U4VBVNQOZD8NFWZXWF9CIHKRIURB","","353","img/food3.png","74","354","1","0","3","2","1,0.5,0,1,0.5,0,0.5,0,1","0.5,0,1,0.5,0,1,0,1,0.5","2","false",""
"","html-keyboard-response","243","183420","0.0-272.0","340UGXU9DZN7NEU7ZJ6RZS38DEWUVS","AM2KK02JXXW48","36U4VBVNQOZD8NFWZXWF9CIHKRIURB","","null","<img src=""img/food3.png"" style=""width:200px;border:14px solid red;"">","null","","","","","","","","","",""
"","image-keyboard-response","244","183918","0.0-274.0","340UGXU9DZN7NEU7ZJ6RZS38DEWUVS","AM2KK02JXXW48","36U4VBVNQOZD8NFWZXWF9CIHKRIURB","","497","img/food4.png","74","498","1","1","2","2","1,0.5,0,1,0.5,0,0.5,0,1","0.5,0,1,0.5,0,1,0,1,0.5","2","false",""
"","html-keyboard-response","245","184228","0.0-275.0","340UGXU9DZN7NEU7ZJ6RZS38DEWUVS","AM2KK02JXXW48","36U4VBVNQOZD8NFWZXWF9CIHKRIURB","","null","<img src=""img/food4.png"" style=""width:200px; border:14px solid green;"">","null","","","","","","","","","",""
"","image-keyboard-response","246","184686","0.0-277.0","340UGXU9DZN7NEU7ZJ6RZS38DEWUVS","AM2KK02JXXW48","36U4VBVNQOZD8NFWZXWF9CIHKRIURB","","457","img/food3.png","74","458","1","0","3","2","1,0.5,0,1,0.5,0,0.5,0,1","0.5,0,1,0.5,0,1,0,1,0.5","2","false",""
"","html-keyboard-response","247","184987","0.0-278.0","340UGXU9DZN7NEU7ZJ6RZS38DEWUVS","AM2KK02JXXW48","36U4VBVNQOZD8NFWZXWF9CIHKRIURB","","null","<img src=""img/food3.png"" style=""width:200px;border:14px solid red;"">","null","","","","","","","","","",""
"","image-keyboard-response","248","185326","0.0-280.0","340UGXU9DZN7NEU7ZJ6RZS38DEWUVS","AM2KK02JXXW48","36U4VBVNQOZD8NFWZXWF9CIHKRIURB","","338","img/food4.png","74","339","1","1","2","2","1,0.5,0,1,0.5,0,0.5,0,1","0.5,0,1,0.5,0,1,0,1,0.5","2","false",""
"","html-keyboard-response","249","185627","0.0-281.0","340UGXU9DZN7NEU7ZJ6RZS38DEWUVS","AM2KK02JXXW48","36U4VBVNQOZD8NFWZXWF9CIHKRIURB","","null","<img src=""img/food4.png"" style=""width:200px; border:14px solid green;"">","null","","","","","","","","","",""
"","image-keyboard-response","250","185950","0.0-283.0","340UGXU9DZN7NEU7ZJ6RZS38DEWUVS","AM2KK02JXXW48","36U4VBVNQOZD8NFWZXWF9CIHKRIURB","","322","img/food2.png","76","323","3","1","1","2","1,0.5,0,1,0.5,0,0.5,0,1","0.5,0,1,0.5,0,1,0,1,0.5","2","false",""
"","html-keyboard-response","251","186251","0.0-284.0","340UGXU9DZN7NEU7ZJ6RZS38DEWUVS","AM2KK02JXXW48","36U4VBVNQOZD8NFWZXWF9CIHKRIURB","","null","<img src=""img/food2.png"" style=""width:200px; border:14px solid green;"">","null","","","","","","","","","",""
"","image-keyboard-response","252","186614","0.0-286.0","340UGXU9DZN7NEU7ZJ6RZS38DEWUVS","AM2KK02JXXW48","36U4VBVNQOZD8NFWZXWF9CIHKRIURB","","362","img/food3.png","76","362","3","1","3","2","1,0.5,0,1,0.5,0,0.5,0,1","0.5,0,1,0.5,0,1,0,1,0.5","2","false",""
"","html-keyboard-response","253","186915","0.0-287.0","340UGXU9DZN7NEU7ZJ6RZS38DEWUVS","AM2KK02JXXW48","36U4VBVNQOZD8NFWZXWF9CIHKRIURB","","null","<img src=""img/food3.png"" style=""width:200px; border:14px solid green;"">","null","","","","","","","","","",""
"","image-keyboard-response","254","187246","0.0-289.0","340UGXU9DZN7NEU7ZJ6RZS38DEWUVS","AM2KK02JXXW48","36U4VBVNQOZD8NFWZXWF9CIHKRIURB","","330","img/food3.png","76","330","3","1","3","2","1,0.5,0,1,0.5,0,0.5,0,1","0.5,0,1,0.5,0,1,0,1,0.5","2","false",""
"","html-keyboard-response","255","187547","0.0-290.0","340UGXU9DZN7NEU7ZJ6RZS38DEWUVS","AM2KK02JXXW48","36U4VBVNQOZD8NFWZXWF9CIHKRIURB","","null","<img src=""img/food3.png"" style=""width:200px; border:14px solid green;"">","null","","","","","","","","","",""
"","image-keyboard-response","256","187847","0.0-292.0","340UGXU9DZN7NEU7ZJ6RZS38DEWUVS","AM2KK02JXXW48","36U4VBVNQOZD8NFWZXWF9CIHKRIURB","","298","img/food2.png","76","300","3","1","1","2","1,0.5,0,1,0.5,0,0.5,0,1","0.5,0,1,0.5,0,1,0,1,0.5","2","false",""
"","html-keyboard-response","257","188148","0.0-293.0","340UGXU9DZN7NEU7ZJ6RZS38DEWUVS","AM2KK02JXXW48","36U4VBVNQOZD8NFWZXWF9CIHKRIURB","","null","<img src=""img/food2.png"" style=""width:200px; border:14px solid green;"">","null","","","","","","","","","",""
"","image-keyboard-response","258","188423","0.0-295.0","340UGXU9DZN7NEU7ZJ6RZS38DEWUVS","AM2KK02JXXW48","36U4VBVNQOZD8NFWZXWF9CIHKRIURB","","273","img/food4.png","76","274","3","1","2","2","1,0.5,0,1,0.5,0,0.5,0,1","0.5,0,1,0.5,0,1,0,1,0.5","2","false",""
"","html-keyboard-response","259","188723","0.0-296.0","340UGXU9DZN7NEU7ZJ6RZS38DEWUVS","AM2KK02JXXW48","36U4VBVNQOZD8NFWZXWF9CIHKRIURB","","null","<img src=""img/food4.png"" style=""width:200px; border:14px solid green;"">","null","","","","","","","","","",""
"","image-keyboard-response","260","189017","0.0-298.0","340UGXU9DZN7NEU7ZJ6RZS38DEWUVS","AM2KK02JXXW48","36U4VBVNQOZD8NFWZXWF9CIHKRIURB","","290","img/food3.png","76","291","3","1","3","2","1,0.5,0,1,0.5,0,0.5,0,1","0.5,0,1,0.5,0,1,0,1,0.5","2","false",""
"","html-keyboard-response","261","189318","0.0-299.0","340UGXU9DZN7NEU7ZJ6RZS38DEWUVS","AM2KK02JXXW48","36U4VBVNQOZD8NFWZXWF9CIHKRIURB","","null","<img src=""img/food3.png"" style=""width:200px; border:14px solid green;"">","null","","","","","","","","","",""
"","image-keyboard-response","262","189570","0.0-301.0","340UGXU9DZN7NEU7ZJ6RZS38DEWUVS","AM2KK02JXXW48","36U4VBVNQOZD8NFWZXWF9CIHKRIURB","","250","img/food4.png","76","251","3","1","2","2","1,0.5,0,1,0.5,0,0.5,0,1","0.5,0,1,0.5,0,1,0,1,0.5","2","false",""
"","html-keyboard-response","263","189871","0.0-302.0","340UGXU9DZN7NEU7ZJ6RZS38DEWUVS","AM2KK02JXXW48","36U4VBVNQOZD8NFWZXWF9CIHKRIURB","","null","<img src=""img/food4.png"" style=""width:200px; border:14px solid green;"">","null","","","","","","","","","",""
"","image-keyboard-response","264","190113","0.0-304.0","340UGXU9DZN7NEU7ZJ6RZS38DEWUVS","AM2KK02JXXW48","36U4VBVNQOZD8NFWZXWF9CIHKRIURB","","241","img/food3.png","76","241","3","0","3","2","1,0.5,0,1,0.5,0,0.5,0,1","0.5,0,1,0.5,0,1,0,1,0.5","2","false",""
"","html-keyboard-response","265","190415","0.0-305.0","340UGXU9DZN7NEU7ZJ6RZS38DEWUVS","AM2KK02JXXW48","36U4VBVNQOZD8NFWZXWF9CIHKRIURB","","null","<img src=""img/food3.png"" style=""width:200px;border:14px solid red;"">","null","","","","","","","","","",""
"","image-keyboard-response","266","190665","0.0-307.0","340UGXU9DZN7NEU7ZJ6RZS38DEWUVS","AM2KK02JXXW48","36U4VBVNQOZD8NFWZXWF9CIHKRIURB","","249","img/food3.png","76","250","3","0","3","2","1,0.5,0,1,0.5,0,0.5,0,1","0.5,0,1,0.5,0,1,0,1,0.5","2","false",""
"","html-keyboard-response","267","190966","0.0-308.0","340UGXU9DZN7NEU7ZJ6RZS38DEWUVS","AM2KK02JXXW48","36U4VBVNQOZD8NFWZXWF9CIHKRIURB","","null","<img src=""img/food3.png"" style=""width:200px;border:14px solid red;"">","null","","","","","","","","","",""
"","image-keyboard-response","268","191233","0.0-310.0","340UGXU9DZN7NEU7ZJ6RZS38DEWUVS","AM2KK02JXXW48","36U4VBVNQOZD8NFWZXWF9CIHKRIURB","","266","img/food4.png","76","267","3","1","2","2","1,0.5,0,1,0.5,0,0.5,0,1","0.5,0,1,0.5,0,1,0,1,0.5","2","false",""
"","html-keyboard-response","269","191534","0.0-311.0","340UGXU9DZN7NEU7ZJ6RZS38DEWUVS","AM2KK02JXXW48","36U4VBVNQOZD8NFWZXWF9CIHKRIURB","","null","<img src=""img/food4.png"" style=""width:200px; border:14px solid green;"">","null","","","","","","","","","",""
"","image-keyboard-response","270","191769","0.0-313.0","340UGXU9DZN7NEU7ZJ6RZS38DEWUVS","AM2KK02JXXW48","36U4VBVNQOZD8NFWZXWF9CIHKRIURB","","234","img/food3.png","76","235","3","0","3","2","1,0.5,0,1,0.5,0,0.5,0,1","0.5,0,1,0.5,0,1,0,1,0.5","2","false",""
"","html-keyboard-response","271","192072","0.0-314.0","340UGXU9DZN7NEU7ZJ6RZS38DEWUVS","AM2KK02JXXW48","36U4VBVNQOZD8NFWZXWF9CIHKRIURB","","null","<img src=""img/food3.png"" style=""width:200px;border:14px solid red;"">","null","","","","","","","","","",""
"","image-keyboard-response","272","192289","0.0-316.0","340UGXU9DZN7NEU7ZJ6RZS38DEWUVS","AM2KK02JXXW48","36U4VBVNQOZD8NFWZXWF9CIHKRIURB","","216","img/food4.png","76","217","3","1","2","2","1,0.5,0,1,0.5,0,0.5,0,1","0.5,0,1,0.5,0,1,0,1,0.5","2","false",""
"","html-keyboard-response","273","192590","0.0-317.0","340UGXU9DZN7NEU7ZJ6RZS38DEWUVS","AM2KK02JXXW48","36U4VBVNQOZD8NFWZXWF9CIHKRIURB","","null","<img src=""img/food4.png"" style=""width:200px; border:14px solid green;"">","null","","","","","","","","","",""
"","image-keyboard-response","274","192794","0.0-319.0","340UGXU9DZN7NEU7ZJ6RZS38DEWUVS","AM2KK02JXXW48","36U4VBVNQOZD8NFWZXWF9CIHKRIURB","","202","img/food3.png","76","204","3","1","3","2","1,0.5,0,1,0.5,0,0.5,0,1","0.5,0,1,0.5,0,1,0,1,0.5","2","false",""
"","html-keyboard-response","275","193094","0.0-320.0","340UGXU9DZN7NEU7ZJ6RZS38DEWUVS","AM2KK02JXXW48","36U4VBVNQOZD8NFWZXWF9CIHKRIURB","","null","<img src=""img/food3.png"" style=""width:200px; border:14px solid green;"">","null","","","","","","","","","",""
"","image-keyboard-response","276","193370","0.0-322.0","340UGXU9DZN7NEU7ZJ6RZS38DEWUVS","AM2KK02JXXW48","36U4VBVNQOZD8NFWZXWF9CIHKRIURB","","275","img/food4.png","76","276","3","1","2","2","1,0.5,0,1,0.5,0,0.5,0,1","0.5,0,1,0.5,0,1,0,1,0.5","2","false",""
"","html-keyboard-response","277","193671","0.0-323.0","340UGXU9DZN7NEU7ZJ6RZS38DEWUVS","AM2KK02JXXW48","36U4VBVNQOZD8NFWZXWF9CIHKRIURB","","null","<img src=""img/food4.png"" style=""width:200px; border:14px solid green;"">","null","","","","","","","","","",""
"","image-keyboard-response","278","193809","0.0-325.0","340UGXU9DZN7NEU7ZJ6RZS38DEWUVS","AM2KK02JXXW48","36U4VBVNQOZD8NFWZXWF9CIHKRIURB","","137","img/food3.png","74","138","1","0","3","2","1,0.5,0,1,0.5,0,0.5,0,1","0.5,0,1,0.5,0,1,0,1,0.5","2","false",""
"","html-keyboard-response","279","194110","0.0-326.0","340UGXU9DZN7NEU7ZJ6RZS38DEWUVS","AM2KK02JXXW48","36U4VBVNQOZD8NFWZXWF9CIHKRIURB","","null","<img src=""img/food3.png"" style=""width:200px;border:14px solid red;"">","null","","","","","","","","","",""
"","image-keyboard-response","280","194289","0.0-328.0","340UGXU9DZN7NEU7ZJ6RZS38DEWUVS","AM2KK02JXXW48","36U4VBVNQOZD8NFWZXWF9CIHKRIURB","","178","img/food3.png","74","179","1","0","3","2","1,0.5,0,1,0.5,0,0.5,0,1","0.5,0,1,0.5,0,1,0,1,0.5","2","false",""
"","html-keyboard-response","281","194590","0.0-329.0","340UGXU9DZN7NEU7ZJ6RZS38DEWUVS","AM2KK02JXXW48","36U4VBVNQOZD8NFWZXWF9CIHKRIURB","","null","<img src=""img/food3.png"" style=""width:200px;border:14px solid red;"">","null","","","","","","","","","",""
"","image-keyboard-response","282","194793","0.0-331.0","340UGXU9DZN7NEU7ZJ6RZS38DEWUVS","AM2KK02JXXW48","36U4VBVNQOZD8NFWZXWF9CIHKRIURB","","201","img/food4.png","74","203","1","0","2","2","1,0.5,0,1,0.5,0,0.5,0,1","0.5,0,1,0.5,0,1,0,1,0.5","2","false",""
"","html-keyboard-response","283","195094","0.0-332.0","340UGXU9DZN7NEU7ZJ6RZS38DEWUVS","AM2KK02JXXW48","36U4VBVNQOZD8NFWZXWF9CIHKRIURB","","null","<img src=""img/food4.png"" style=""width:200px;border:14px solid red;"">","null","","","","","","","","","",""
"","image-keyboard-response","284","195265","0.0-334.0","340UGXU9DZN7NEU7ZJ6RZS38DEWUVS","AM2KK02JXXW48","36U4VBVNQOZD8NFWZXWF9CIHKRIURB","","170","img/food2.png","74","170","1","0","1","2","1,0.5,0,1,0.5,0,0.5,0,1","0.5,0,1,0.5,0,1,0,1,0.5","2","false",""
"","html-keyboard-response","285","195566","0.0-335.0","340UGXU9DZN7NEU7ZJ6RZS38DEWUVS","AM2KK02JXXW48","36U4VBVNQOZD8NFWZXWF9CIHKRIURB","","null","<img src=""img/food2.png"" style=""width:200px;border:14px solid red;"">","null","","","","","","","","","",""
"","image-keyboard-response","286","195737","0.0-337.0","340UGXU9DZN7NEU7ZJ6RZS38DEWUVS","AM2KK02JXXW48","36U4VBVNQOZD8NFWZXWF9CIHKRIURB","","170","img/food3.png","74","171","1","0","3","2","1,0.5,0,1,0.5,0,0.5,0,1","0.5,0,1,0.5,0,1,0,1,0.5","2","false",""
"","html-keyboard-response","287","196038","0.0-338.0","340UGXU9DZN7NEU7ZJ6RZS38DEWUVS","AM2KK02JXXW48","36U4VBVNQOZD8NFWZXWF9CIHKRIURB","","null","<img src=""img/food3.png"" style=""width:200px;border:14px solid red;"">","null","","","","","","","","","",""
"","image-keyboard-response","288","196194","0.0-340.0","340UGXU9DZN7NEU7ZJ6RZS38DEWUVS","AM2KK02JXXW48","36U4VBVNQOZD8NFWZXWF9CIHKRIURB","","154","img/food4.png","74","156","1","1","2","2","1,0.5,0,1,0.5,0,0.5,0,1","0.5,0,1,0.5,0,1,0,1,0.5","2","false",""
"","html-keyboard-response","289","196495","0.0-341.0","340UGXU9DZN7NEU7ZJ6RZS38DEWUVS","AM2KK02JXXW48","36U4VBVNQOZD8NFWZXWF9CIHKRIURB","","null","<img src=""img/food4.png"" style=""width:200px; border:14px solid green;"">","null","","","","","","","","","",""
"","image-keyboard-response","290","196689","0.0-343.0","340UGXU9DZN7NEU7ZJ6RZS38DEWUVS","AM2KK02JXXW48","36U4VBVNQOZD8NFWZXWF9CIHKRIURB","","193","img/food2.png","74","194","1","0","1","2","1,0.5,0,1,0.5,0,0.5,0,1","0.5,0,1,0.5,0,1,0,1,0.5","2","false",""
"","html-keyboard-response","291","196990","0.0-344.0","340UGXU9DZN7NEU7ZJ6RZS38DEWUVS","AM2KK02JXXW48","36U4VBVNQOZD8NFWZXWF9CIHKRIURB","","null","<img src=""img/food2.png"" style=""width:200px;border:14px solid red;"">","null","","","","","","","","","",""
"","image-keyboard-response","292","197121","0.0-346.0","340UGXU9DZN7NEU7ZJ6RZS38DEWUVS","AM2KK02JXXW48","36U4VBVNQOZD8NFWZXWF9CIHKRIURB","","129","img/food3.png","74","131","1","0","3","2","1,0.5,0,1,0.5,0,0.5,0,1","0.5,0,1,0.5,0,1,0,1,0.5","2","false",""
"","html-keyboard-response","293","197422","0.0-347.0","340UGXU9DZN7NEU7ZJ6RZS38DEWUVS","AM2KK02JXXW48","36U4VBVNQOZD8NFWZXWF9CIHKRIURB","","null","<img src=""img/food3.png"" style=""width:200px;border:14px solid red;"">","null","","","","","","","","","",""
"","image-keyboard-response","294","197577","0.0-349.0","340UGXU9DZN7NEU7ZJ6RZS38DEWUVS","AM2KK02JXXW48","36U4VBVNQOZD8NFWZXWF9CIHKRIURB","","154","img/food2.png","76","154","3","1","1","2","1,0.5,0,1,0.5,0,0.5,0,1","0.5,0,1,0.5,0,1,0,1,0.5","2","false",""
"","html-keyboard-response","295","197878","0.0-350.0","340UGXU9DZN7NEU7ZJ6RZS38DEWUVS","AM2KK02JXXW48","36U4VBVNQOZD8NFWZXWF9CIHKRIURB","","null","<img src=""img/food2.png"" style=""width:200px; border:14px solid green;"">","null","","","","","","","","","",""
"","image-keyboard-response","296","198020","0.0-352.0","340UGXU9DZN7NEU7ZJ6RZS38DEWUVS","AM2KK02JXXW48","36U4VBVNQOZD8NFWZXWF9CIHKRIURB","","141","img/food3.png","76","141","3","0","3","2","1,0.5,0,1,0.5,0,0.5,0,1","0.5,0,1,0.5,0,1,0,1,0.5","2","false",""
"","html-keyboard-response","297","198321","0.0-353.0","340UGXU9DZN7NEU7ZJ6RZS38DEWUVS","AM2KK02JXXW48","36U4VBVNQOZD8NFWZXWF9CIHKRIURB","","null","<img src=""img/food3.png"" style=""width:200px;border:14px solid red;"">","null","","","","","","","","","",""
"","image-keyboard-response","298","198450","0.0-355.0","340UGXU9DZN7NEU7ZJ6RZS38DEWUVS","AM2KK02JXXW48","36U4VBVNQOZD8NFWZXWF9CIHKRIURB","","127","img/food2.png","76","128","3","1","1","2","1,0.5,0,1,0.5,0,0.5,0,1","0.5,0,1,0.5,0,1,0,1,0.5","2","false",""
"","html-keyboard-response","299","198751","0.0-356.0","340UGXU9DZN7NEU7ZJ6RZS38DEWUVS","AM2KK02JXXW48","36U4VBVNQOZD8NFWZXWF9CIHKRIURB","","null","<img src=""img/food2.png"" style=""width:200px; border:14px solid green;"">","null","","","","","","","","","",""
"","image-keyboard-response","300","198881","0.0-358.0","340UGXU9DZN7NEU7ZJ6RZS38DEWUVS","AM2KK02JXXW48","36U4VBVNQOZD8NFWZXWF9CIHKRIURB","","129","img/food3.png","76","130","3","1","3","2","1,0.5,0,1,0.5,0,0.5,0,1","0.5,0,1,0.5,0,1,0,1,0.5","2","false",""
"","html-keyboard-response","301","199184","0.0-359.0","340UGXU9DZN7NEU7ZJ6RZS38DEWUVS","AM2KK02JXXW48","36U4VBVNQOZD8NFWZXWF9CIHKRIURB","","null","<img src=""img/food3.png"" style=""width:200px; border:14px solid green;"">","null","","","","","","","","","",""
"","image-keyboard-response","302","199281","0.0-361.0","340UGXU9DZN7NEU7ZJ6RZS38DEWUVS","AM2KK02JXXW48","36U4VBVNQOZD8NFWZXWF9CIHKRIURB","","96","img/food2.png","76","97","3","1","1","2","1,0.5,0,1,0.5,0,0.5,0,1","0.5,0,1,0.5,0,1,0,1,0.5","2","false",""
"","html-keyboard-response","303","199582","0.0-362.0","340UGXU9DZN7NEU7ZJ6RZS38DEWUVS","AM2KK02JXXW48","36U4VBVNQOZD8NFWZXWF9CIHKRIURB","","null","<img src=""img/food2.png"" style=""width:200px; border:14px solid green;"">","null","","","","","","","","","",""
"","image-keyboard-response","304","199625","0.0-364.0","340UGXU9DZN7NEU7ZJ6RZS38DEWUVS","AM2KK02JXXW48","36U4VBVNQOZD8NFWZXWF9CIHKRIURB","","42","img/food3.png","76","43","3","1","3","2","1,0.5,0,1,0.5,0,0.5,0,1","0.5,0,1,0.5,0,1,0,1,0.5","2","false",""
"","html-keyboard-response","305","199926","0.0-365.0","340UGXU9DZN7NEU7ZJ6RZS38DEWUVS","AM2KK02JXXW48","36U4VBVNQOZD8NFWZXWF9CIHKRIURB","","null","<img src=""img/food3.png"" style=""width:200px; border:14px solid green;"">","null","","","","","","","","","",""
"","image-keyboard-response","306","200185","0.0-367.0","340UGXU9DZN7NEU7ZJ6RZS38DEWUVS","AM2KK02JXXW48","36U4VBVNQOZD8NFWZXWF9CIHKRIURB","","258","img/food3.png","76","259","3","1","3","2","1,0.5,0,1,0.5,0,0.5,0,1","0.5,0,1,0.5,0,1,0,1,0.5","2","false",""
"","html-keyboard-response","307","200486","0.0-368.0","340UGXU9DZN7NEU7ZJ6RZS38DEWUVS","AM2KK02JXXW48","36U4VBVNQOZD8NFWZXWF9CIHKRIURB","","null","<img src=""img/food3.png"" style=""width:200px; border:14px solid green;"">","null","","","","","","","","","",""
"","image-keyboard-response","308","200505","0.0-370.0","340UGXU9DZN7NEU7ZJ6RZS38DEWUVS","AM2KK02JXXW48","36U4VBVNQOZD8NFWZXWF9CIHKRIURB","","18","img/food4.png","76","18","3","1","2","2","1,0.5,0,1,0.5,0,0.5,0,1","0.5,0,1,0.5,0,1,0,1,0.5","2","false",""
"","html-keyboard-response","309","200806","0.0-371.0","340UGXU9DZN7NEU7ZJ6RZS38DEWUVS","AM2KK02JXXW48","36U4VBVNQOZD8NFWZXWF9CIHKRIURB","","null","<img src=""img/food4.png"" style=""width:200px; border:14px solid green;"">","null","","","","","","","","","",""
"","image-keyboard-response","310","201025","0.0-373.0","340UGXU9DZN7NEU7ZJ6RZS38DEWUVS","AM2KK02JXXW48","36U4VBVNQOZD8NFWZXWF9CIHKRIURB","","218","img/food4.png","76","219","3","1","2","2","1,0.5,0,1,0.5,0,0.5,0,1","0.5,0,1,0.5,0,1,0,1,0.5","2","false",""
"","html-keyboard-response","311","201326","0.0-374.0","340UGXU9DZN7NEU7ZJ6RZS38DEWUVS","AM2KK02JXXW48","36U4VBVNQOZD8NFWZXWF9CIHKRIURB","","null","<img src=""img/food4.png"" style=""width:200px; border:14px solid green;"">","null","","","","","","","","","",""
"","image-keyboard-response","312","201433","0.0-376.0","340UGXU9DZN7NEU7ZJ6RZS38DEWUVS","AM2KK02JXXW48","36U4VBVNQOZD8NFWZXWF9CIHKRIURB","","106","img/food4.png","76","108","3","1","2","2","1,0.5,0,1,0.5,0,0.5,0,1","0.5,0,1,0.5,0,1,0,1,0.5","2","false",""
"","html-keyboard-response","313","201734","0.0-377.0","340UGXU9DZN7NEU7ZJ6RZS38DEWUVS","AM2KK02JXXW48","36U4VBVNQOZD8NFWZXWF9CIHKRIURB","","null","<img src=""img/food4.png"" style=""width:200px; border:14px solid green;"">","null","","","","","","","","","",""
"","image-keyboard-response","314","201826","0.0-379.0","340UGXU9DZN7NEU7ZJ6RZS38DEWUVS","AM2KK02JXXW48","36U4VBVNQOZD8NFWZXWF9CIHKRIURB","","90","img/food2.png","76","91","3","1","1","2","1,0.5,0,1,0.5,0,0.5,0,1","0.5,0,1,0.5,0,1,0,1,0.5","2","false",""
"","html-keyboard-response","315","202127","0.0-380.0","340UGXU9DZN7NEU7ZJ6RZS38DEWUVS","AM2KK02JXXW48","36U4VBVNQOZD8NFWZXWF9CIHKRIURB","","null","<img src=""img/food2.png"" style=""width:200px; border:14px solid green;"">","null","","","","","","","","","",""
"","image-keyboard-response","316","202266","0.0-382.0","340UGXU9DZN7NEU7ZJ6RZS38DEWUVS","AM2KK02JXXW48","36U4VBVNQOZD8NFWZXWF9CIHKRIURB","","137","img/food4.png","76","138","3","1","2","2","1,0.5,0,1,0.5,0,0.5,0,1","0.5,0,1,0.5,0,1,0,1,0.5","2","false",""
"","html-keyboard-response","317","202568","0.0-383.0","340UGXU9DZN7NEU7ZJ6RZS38DEWUVS","AM2KK02JXXW48","36U4VBVNQOZD8NFWZXWF9CIHKRIURB","","null","<img src=""img/food4.png"" style=""width:200px; border:14px solid green;"">","null","","","","","","","","","",""
"","image-keyboard-response","318","202617","0.0-385.0","340UGXU9DZN7NEU7ZJ6RZS38DEWUVS","AM2KK02JXXW48","36U4VBVNQOZD8NFWZXWF9CIHKRIURB","","47","img/food4.png","76","49","3","1","2","2","1,0.5,0,1,0.5,0,0.5,0,1","0.5,0,1,0.5,0,1,0,1,0.5","2","false",""
"","html-keyboard-response","319","202918","0.0-386.0","340UGXU9DZN7NEU7ZJ6RZS38DEWUVS","AM2KK02JXXW48","36U4VBVNQOZD8NFWZXWF9CIHKRIURB","","null","<img src=""img/food4.png"" style=""width:200px; border:14px solid green;"">","null","","","","","","","","","",""
"","image-keyboard-response","320","202970","0.0-388.0","340UGXU9DZN7NEU7ZJ6RZS38DEWUVS","AM2KK02JXXW48","36U4VBVNQOZD8NFWZXWF9CIHKRIURB","","50","img/food2.png","76","52","3","1","1","2","1,0.5,0,1,0.5,0,0.5,0,1","0.5,0,1,0.5,0,1,0,1,0.5","2","false",""
"","html-keyboard-response","321","203281","0.0-389.0","340UGXU9DZN7NEU7ZJ6RZS38DEWUVS","AM2KK02JXXW48","36U4VBVNQOZD8NFWZXWF9CIHKRIURB","","null","<img src=""img/food2.png"" style=""width:200px; border:14px solid green;"">","null","","","","","","","","","",""
"","image-keyboard-response","322","203293","0.0-391.0","340UGXU9DZN7NEU7ZJ6RZS38DEWUVS","AM2KK02JXXW48","36U4VBVNQOZD8NFWZXWF9CIHKRIURB","","11","img/food2.png","76","12","3","1","1","2","1,0.5,0,1,0.5,0,0.5,0,1","0.5,0,1,0.5,0,1,0,1,0.5","2","false",""
"","html-keyboard-response","323","203594","0.0-392.0","340UGXU9DZN7NEU7ZJ6RZS38DEWUVS","AM2KK02JXXW48","36U4VBVNQOZD8NFWZXWF9CIHKRIURB","","null","<img src=""img/food2.png"" style=""width:200px; border:14px solid green;"">","null","","","","","","","","","",""
"","image-keyboard-response","324","203697","0.0-394.0","340UGXU9DZN7NEU7ZJ6RZS38DEWUVS","AM2KK02JXXW48","36U4VBVNQOZD8NFWZXWF9CIHKRIURB","","102","img/food4.png","76","103","3","1","2","2","1,0.5,0,1,0.5,0,0.5,0,1","0.5,0,1,0.5,0,1,0,1,0.5","2","false",""
"","html-keyboard-response","325","203998","0.0-395.0","340UGXU9DZN7NEU7ZJ6RZS38DEWUVS","AM2KK02JXXW48","36U4VBVNQOZD8NFWZXWF9CIHKRIURB","","null","<img src=""img/food4.png"" style=""width:200px; border:14px solid green;"">","null","","","","","","","","","",""
"","image-keyboard-response","326","204017","0.0-397.0","340UGXU9DZN7NEU7ZJ6RZS38DEWUVS","AM2KK02JXXW48","36U4VBVNQOZD8NFWZXWF9CIHKRIURB","","18","img/food4.png","76","19","3","1","2","2","1,0.5,0,1,0.5,0,0.5,0,1","0.5,0,1,0.5,0,1,0,1,0.5","2","false",""
"","html-keyboard-response","327","204319","0.0-398.0","340UGXU9DZN7NEU7ZJ6RZS38DEWUVS","AM2KK02JXXW48","36U4VBVNQOZD8NFWZXWF9CIHKRIURB","","null","<img src=""img/food4.png"" style=""width:200px; border:14px solid green;"">","null","","","","","","","","","",""
"","image-keyboard-response","328","204385","0.0-400.0","340UGXU9DZN7NEU7ZJ6RZS38DEWUVS","AM2KK02JXXW48","36U4VBVNQOZD8NFWZXWF9CIHKRIURB","","65","img/food2.png","76","65","3","1","1","2","1,0.5,0,1,0.5,0,0.5,0,1","0.5,0,1,0.5,0,1,0,1,0.5","2","false",""
"","html-keyboard-response","329","204689","0.0-401.0","340UGXU9DZN7NEU7ZJ6RZS38DEWUVS","AM2KK02JXXW48","36U4VBVNQOZD8NFWZXWF9CIHKRIURB","","null","<img src=""img/food2.png"" style=""width:200px; border:14px solid green;"">","null","","","","","","","","","",""
"","image-keyboard-response","330","204745","0.0-403.0","340UGXU9DZN7NEU7ZJ6RZS38DEWUVS","AM2KK02JXXW48","36U4VBVNQOZD8NFWZXWF9CIHKRIURB","","55","img/food3.png","76","55","3","0","3","2","1,0.5,0,1,0.5,0,0.5,0,1","0.5,0,1,0.5,0,1,0,1,0.5","2","false",""
"","html-keyboard-response","331","205047","0.0-404.0","340UGXU9DZN7NEU7ZJ6RZS38DEWUVS","AM2KK02JXXW48","36U4VBVNQOZD8NFWZXWF9CIHKRIURB","","null","<img src=""img/food3.png"" style=""width:200px;border:14px solid red;"">","null","","","","","","","","","",""
"","image-keyboard-response","332","205113","0.0-406.0","340UGXU9DZN7NEU7ZJ6RZS38DEWUVS","AM2KK02JXXW48","36U4VBVNQOZD8NFWZXWF9CIHKRIURB","","65","img/food2.png","76","66","3","1","1","2","1,0.5,0,1,0.5,0,0.5,0,1","0.5,0,1,0.5,0,1,0,1,0.5","2","false",""
"","html-keyboard-response","333","205414","0.0-407.0","340UGXU9DZN7NEU7ZJ6RZS38DEWUVS","AM2KK02JXXW48","36U4VBVNQOZD8NFWZXWF9CIHKRIURB","","null","<img src=""img/food2.png"" style=""width:200px; border:14px solid green;"">","null","","","","","","","","","",""
"","image-keyboard-response","334","205673","0.0-409.0","340UGXU9DZN7NEU7ZJ6RZS38DEWUVS","AM2KK02JXXW48","36U4VBVNQOZD8NFWZXWF9CIHKRIURB","","258","img/food4.png","76","258","3","1","2","2","1,0.5,0,1,0.5,0,0.5,0,1","0.5,0,1,0.5,0,1,0,1,0.5","2","false",""
"","html-keyboard-response","335","205975","0.0-410.0","340UGXU9DZN7NEU7ZJ6RZS38DEWUVS","AM2KK02JXXW48","36U4VBVNQOZD8NFWZXWF9CIHKRIURB","","null","<img src=""img/food4.png"" style=""width:200px; border:14px solid green;"">","null","","","","","","","","","",""
"","image-keyboard-response","336","206113","0.0-412.0","340UGXU9DZN7NEU7ZJ6RZS38DEWUVS","AM2KK02JXXW48","36U4VBVNQOZD8NFWZXWF9CIHKRIURB","","136","img/food4.png","76","137","3","1","2","2","1,0.5,0,1,0.5,0,0.5,0,1","0.5,0,1,0.5,0,1,0,1,0.5","2","false",""
"","html-keyboard-response","337","206414","0.0-413.0","340UGXU9DZN7NEU7ZJ6RZS38DEWUVS","AM2KK02JXXW48","36U4VBVNQOZD8NFWZXWF9CIHKRIURB","","null","<img src=""img/food4.png"" style=""width:200px; border:14px solid green;"">","null","","","","","","","","","",""
"","image-keyboard-response","338","206615","0.0-415.0","340UGXU9DZN7NEU7ZJ6RZS38DEWUVS","AM2KK02JXXW48","36U4VBVNQOZD8NFWZXWF9CIHKRIURB","","200","img/food3.png","76","201","3","1","3","2","1,0.5,0,1,0.5,0,0.5,0,1","0.5,0,1,0.5,0,1,0,1,0.5","2","false",""
"","html-keyboard-response","339","206939","0.0-416.0","340UGXU9DZN7NEU7ZJ6RZS38DEWUVS","AM2KK02JXXW48","36U4VBVNQOZD8NFWZXWF9CIHKRIURB","","null","<img src=""img/food3.png"" style=""width:200px; border:14px solid green;"">","null","","","","","","","","","",""
"","image-keyboard-response","340","207233","0.0-418.0","340UGXU9DZN7NEU7ZJ6RZS38DEWUVS","AM2KK02JXXW48","36U4VBVNQOZD8NFWZXWF9CIHKRIURB","","293","img/food3.png","76","294","3","0","3","2","1,0.5,0,1,0.5,0,0.5,0,1","0.5,0,1,0.5,0,1,0,1,0.5","2","false",""
"","html-keyboard-response","341","207534","0.0-419.0","340UGXU9DZN7NEU7ZJ6RZS38DEWUVS","AM2KK02JXXW48","36U4VBVNQOZD8NFWZXWF9CIHKRIURB","","null","<img src=""img/food3.png"" style=""width:200px;border:14px solid red;"">","null","","","","","","","","","",""
"","image-keyboard-response","342","207553","0.0-421.0","340UGXU9DZN7NEU7ZJ6RZS38DEWUVS","AM2KK02JXXW48","36U4VBVNQOZD8NFWZXWF9CIHKRIURB","","18","img/food4.png","76","18","3","1","2","2","1,0.5,0,1,0.5,0,0.5,0,1","0.5,0,1,0.5,0,1,0,1,0.5","2","false",""
"","html-keyboard-response","343","207854","0.0-422.0","340UGXU9DZN7NEU7ZJ6RZS38DEWUVS","AM2KK02JXXW48","36U4VBVNQOZD8NFWZXWF9CIHKRIURB","","null","<img src=""img/food4.png"" style=""width:200px; border:14px solid green;"">","null","","","","","","","","","",""
"","image-keyboard-response","344","207873","0.0-424.0","340UGXU9DZN7NEU7ZJ6RZS38DEWUVS","AM2KK02JXXW48","36U4VBVNQOZD8NFWZXWF9CIHKRIURB","","18","img/food2.png","76","19","3","1","1","2","1,0.5,0,1,0.5,0,0.5,0,1","0.5,0,1,0.5,0,1,0,1,0.5","2","false",""
"","html-keyboard-response","345","208175","0.0-425.0","340UGXU9DZN7NEU7ZJ6RZS38DEWUVS","AM2KK02JXXW48","36U4VBVNQOZD8NFWZXWF9CIHKRIURB","","null","<img src=""img/food2.png"" style=""width:200px; border:14px solid green;"">","null","","","","","","","","","",""
"","image-keyboard-response","346","208186","0.0-427.0","340UGXU9DZN7NEU7ZJ6RZS38DEWUVS","AM2KK02JXXW48","36U4VBVNQOZD8NFWZXWF9CIHKRIURB","","9","img/food2.png","76","10","3","1","1","2","1,0.5,0,1,0.5,0,0.5,0,1","0.5,0,1,0.5,0,1,0,1,0.5","2","false",""
"","html-keyboard-response","347","208487","0.0-428.0","340UGXU9DZN7NEU7ZJ6RZS38DEWUVS","AM2KK02JXXW48","36U4VBVNQOZD8NFWZXWF9CIHKRIURB","","null","<img src=""img/food2.png"" style=""width:200px; border:14px solid green;"">","null","","","","","","","","","",""
"","image-keyboard-response","348","208705","0.0-430.0","340UGXU9DZN7NEU7ZJ6RZS38DEWUVS","AM2KK02JXXW48","36U4VBVNQOZD8NFWZXWF9CIHKRIURB","","216","img/food2.png","76","218","3","1","1","2","1,0.5,0,1,0.5,0,0.5,0,1","0.5,0,1,0.5,0,1,0,1,0.5","2","false",""
"","html-keyboard-response","349","209006","0.0-431.0","340UGXU9DZN7NEU7ZJ6RZS38DEWUVS","AM2KK02JXXW48","36U4VBVNQOZD8NFWZXWF9CIHKRIURB","","null","<img src=""img/food2.png"" style=""width:200px; border:14px solid green;"">","null","","","","","","","","","",""
"","image-keyboard-response","350","209257","0.0-433.0","340UGXU9DZN7NEU7ZJ6RZS38DEWUVS","AM2KK02JXXW48","36U4VBVNQOZD8NFWZXWF9CIHKRIURB","","250","img/food2.png","76","251","3","1","1","2","1,0.5,0,1,0.5,0,0.5,0,1","0.5,0,1,0.5,0,1,0,1,0.5","2","false",""
"","html-keyboard-response","351","209558","0.0-434.0","340UGXU9DZN7NEU7ZJ6RZS38DEWUVS","AM2KK02JXXW48","36U4VBVNQOZD8NFWZXWF9CIHKRIURB","","null","<img src=""img/food2.png"" style=""width:200px; border:14px solid green;"">","null","","","","","","","","","",""
"","image-keyboard-response","352","209562","0.0-436.0","340UGXU9DZN7NEU7ZJ6RZS38DEWUVS","AM2KK02JXXW48","36U4VBVNQOZD8NFWZXWF9CIHKRIURB","","2","img/food4.png","76","4","3","1","2","2","1,0.5,0,1,0.5,0,0.5,0,1","0.5,0,1,0.5,0,1,0,1,0.5","2","false",""
"","html-keyboard-response","353","209862","0.0-437.0","340UGXU9DZN7NEU7ZJ6RZS38DEWUVS","AM2KK02JXXW48","36U4VBVNQOZD8NFWZXWF9CIHKRIURB","","null","<img src=""img/food4.png"" style=""width:200px; border:14px solid green;"">","null","","","","","","","","","",""
"","image-keyboard-response","354","210104","0.0-439.0","340UGXU9DZN7NEU7ZJ6RZS38DEWUVS","AM2KK02JXXW48","36U4VBVNQOZD8NFWZXWF9CIHKRIURB","","241","img/food4.png","76","243","3","1","2","2","1,0.5,0,1,0.5,0,0.5,0,1","0.5,0,1,0.5,0,1,0,1,0.5","2","false",""
"","html-keyboard-response","355","210405","0.0-440.0","340UGXU9DZN7NEU7ZJ6RZS38DEWUVS","AM2KK02JXXW48","36U4VBVNQOZD8NFWZXWF9CIHKRIURB","","null","<img src=""img/food4.png"" style=""width:200px; border:14px solid green;"">","null","","","","","","","","","",""
"","image-keyboard-response","356","210417","0.0-442.0","340UGXU9DZN7NEU7ZJ6RZS38DEWUVS","AM2KK02JXXW48","36U4VBVNQOZD8NFWZXWF9CIHKRIURB","","11","img/food3.png","76","12","3","0","3","2","1,0.5,0,1,0.5,0,0.5,0,1","0.5,0,1,0.5,0,1,0,1,0.5","2","false",""
"","html-keyboard-response","357","210718","0.0-443.0","340UGXU9DZN7NEU7ZJ6RZS38DEWUVS","AM2KK02JXXW48","36U4VBVNQOZD8NFWZXWF9CIHKRIURB","","null","<img src=""img/food3.png"" style=""width:200px;border:14px solid red;"">","null","","","","","","","","","",""
"","image-keyboard-response","358","210969","0.0-445.0","340UGXU9DZN7NEU7ZJ6RZS38DEWUVS","AM2KK02JXXW48","36U4VBVNQOZD8NFWZXWF9CIHKRIURB","","250","img/food2.png","76","251","3","1","1","2","1,0.5,0,1,0.5,0,0.5,0,1","0.5,0,1,0.5,0,1,0,1,0.5","2","false",""
"","html-keyboard-response","359","211270","0.0-446.0","340UGXU9DZN7NEU7ZJ6RZS38DEWUVS","AM2KK02JXXW48","36U4VBVNQOZD8NFWZXWF9CIHKRIURB","","null","<img src=""img/food2.png"" style=""width:200px; border:14px solid green;"">","null","","","","","","","","","",""
"","image-keyboard-response","360","211546","0.0-448.0","340UGXU9DZN7NEU7ZJ6RZS38DEWUVS","AM2KK02JXXW48","36U4VBVNQOZD8NFWZXWF9CIHKRIURB","","274","img/food2.png","76","275","3","1","1","2","1,0.5,0,1,0.5,0,0.5,0,1","0.5,0,1,0.5,0,1,0,1,0.5","2","false",""
"","html-keyboard-response","361","211847","0.0-449.0","340UGXU9DZN7NEU7ZJ6RZS38DEWUVS","AM2KK02JXXW48","36U4VBVNQOZD8NFWZXWF9CIHKRIURB","","null","<img src=""img/food2.png"" style=""width:200px; border:14px solid green;"">","null","","","","","","","","","",""
"","image-keyboard-response","362","211873","0.0-451.0","340UGXU9DZN7NEU7ZJ6RZS38DEWUVS","AM2KK02JXXW48","36U4VBVNQOZD8NFWZXWF9CIHKRIURB","","25","img/food2.png","76","26","3","1","1","2","1,0.5,0,1,0.5,0,0.5,0,1","0.5,0,1,0.5,0,1,0,1,0.5","2","false",""
"","html-keyboard-response","363","212183","0.0-452.0","340UGXU9DZN7NEU7ZJ6RZS38DEWUVS","AM2KK02JXXW48","36U4VBVNQOZD8NFWZXWF9CIHKRIURB","","null","<img src=""img/food2.png"" style=""width:200px; border:14px solid green;"">","null","","","","","","","","","",""
"","instructions","364","218091","0.0-454.0","340UGXU9DZN7NEU7ZJ6RZS38DEWUVS","AM2KK02JXXW48","36U4VBVNQOZD8NFWZXWF9CIHKRIURB","[{""page_index"":0,""viewing_time"":5907}]","5907","","","","","","","","","","","",""
"","survey-text","365","235553","0.0-455.0","340UGXU9DZN7NEU7ZJ6RZS38DEWUVS","AM2KK02JXXW48","36U4VBVNQOZD8NFWZXWF9CIHKRIURB","","17444","","","","","","","","","","","","{""Q0"":""AM2KK02JXXW48""}"
