"success","trial_type","trial_index","time_elapsed","internal_node_id","assignmentID","mturkID","hitID","view_history","rt","stimulus","key_press","reactionTime","a","r","s","reward_cond","responses"
"true","fullscreen","0","3264","0.0-0.0","3WQQ9FUS6BGUG3PORZEM2ORC9GD8BB","AMHUDJ44HF1ZH","3WPCIUYH1AU470H2HRBLZRFBM3CTDN","","","","","","","","","",""
"","instructions","1","12538","0.0-1.0","3WQQ9FUS6BGUG3PORZEM2ORC9GD8BB","AMHUDJ44HF1ZH","3WPCIUYH1AU470H2HRBLZRFBM3CTDN","[{""page_index"":0,""viewing_time"":2493.800000011921},{""page_index"":1,""viewing_time"":849.8000000119209},{""page_index"":2,""viewing_time"":575.8999999761581},{""page_index"":3,""viewing_time"":418},{""page_index"":4,""viewing_time"":2026.300000011921},{""page_index"":5,""viewing_time"":1194.300000011921},{""page_index"":6,""viewing_time"":959.8999999761581},{""page_index"":7,""viewing_time"":754.1000000238419}]","9272.600000023842","","","","","","","",""
"","image-keyboard-response","2","15644","0.0-2.0","3WQQ9FUS6BGUG3PORZEM2ORC9GD8BB","AMHUDJ44HF1ZH","3WPCIUYH1AU470H2HRBLZRFBM3CTDN","","3105.0999999940395","img/food4.png","75","3105.9000000059605","1","1","2","0.8,0.2,0.8,0.2,0.2,0.8,0.2,0.8",""
"","html-keyboard-response","3","15946","0.0-3.0","3WQQ9FUS6BGUG3PORZEM2ORC9GD8BB","AMHUDJ44HF1ZH","3WPCIUYH1AU470H2HRBLZRFBM3CTDN","","null","<img src=""img/food4.png"" style=""width:200px; border:14px solid green;"">","null","","","","","",""
"","image-keyboard-response","4","16471","0.0-4.0","3WQQ9FUS6BGUG3PORZEM2ORC9GD8BB","AMHUDJ44HF1ZH","3WPCIUYH1AU470H2HRBLZRFBM3CTDN","","524.9000000059605","img/food4.png","75","525.5","1","1","2","0.8,0.2,0.8,0.2,0.2,0.8,0.2,0.8",""
"","html-keyboard-response","5","16778","0.0-5.0","3WQQ9FUS6BGUG3PORZEM2ORC9GD8BB","AMHUDJ44HF1ZH","3WPCIUYH1AU470H2HRBLZRFBM3CTDN","","null","<img src=""img/food4.png"" style=""width:200px; border:14px solid green;"">","null","","","","","",""
"","image-keyboard-response","6","19323","0.0-6.0","3WQQ9FUS6BGUG3PORZEM2ORC9GD8BB","AMHUDJ44HF1ZH","3WPCIUYH1AU470H2HRBLZRFBM3CTDN","","2544.600000023842","img/food5.png","75","2545.199999988079","1","1","3","0.8,0.2,0.8,0.2,0.2,0.8,0.2,0.8",""
"","html-keyboard-response","7","19629","0.0-7.0","3WQQ9FUS6BGUG3PORZEM2ORC9GD8BB","AMHUDJ44HF1ZH","3WPCIUYH1AU470H2HRBLZRFBM3CTDN","","null","<img src=""img/food5.png"" style=""width:200px; border:14px solid green;"">","null","","","","","",""
"","image-keyboard-response","8","19968","0.0-8.0","3WQQ9FUS6BGUG3PORZEM2ORC9GD8BB","AMHUDJ44HF1ZH","3WPCIUYH1AU470H2HRBLZRFBM3CTDN","","339","img/food1.png","75","339.59999999403954","1","0","4","0.8,0.2,0.8,0.2,0.2,0.8,0.2,0.8",""
"","html-keyboard-response","9","20276","0.0-9.0","3WQQ9FUS6BGUG3PORZEM2ORC9GD8BB","AMHUDJ44HF1ZH","3WPCIUYH1AU470H2HRBLZRFBM3CTDN","","null","<img src=""img/food1.png"" style=""width:200px;border:14px solid red;"">","null","","","","","",""
"","image-keyboard-response","10","21108","0.0-10.0","3WQQ9FUS6BGUG3PORZEM2ORC9GD8BB","AMHUDJ44HF1ZH","3WPCIUYH1AU470H2HRBLZRFBM3CTDN","","832.0999999940395","img/food4.png","75","832.7000000178814","1","0","2","0.8,0.2,0.8,0.2,0.2,0.8,0.2,0.8",""
"","html-keyboard-response","11","21425","0.0-11.0","3WQQ9FUS6BGUG3PORZEM2ORC9GD8BB","AMHUDJ44HF1ZH","3WPCIUYH1AU470H2HRBLZRFBM3CTDN","","null","<img src=""img/food4.png"" style=""width:200px;border:14px solid red;"">","null","","","","","",""
"","image-keyboard-response","12","26127","0.0-12.0","3WQQ9FUS6BGUG3PORZEM2ORC9GD8BB","AMHUDJ44HF1ZH","3WPCIUYH1AU470H2HRBLZRFBM3CTDN","","4701.5999999940395","img/food1.png","76","4702","2","1","4","0.8,0.2,0.8,0.2,0.2,0.8,0.2,0.8",""
"","html-keyboard-response","13","26432","0.0-13.0","3WQQ9FUS6BGUG3PORZEM2ORC9GD8BB","AMHUDJ44HF1ZH","3WPCIUYH1AU470H2HRBLZRFBM3CTDN","","null","<img src=""img/food1.png"" style=""width:200px; border:14px solid green;"">","null","","","","","",""
"","image-keyboard-response","14","27727","0.0-14.0","3WQQ9FUS6BGUG3PORZEM2ORC9GD8BB","AMHUDJ44HF1ZH","3WPCIUYH1AU470H2HRBLZRFBM3CTDN","","1294.3999999761581","img/food4.png","75","1294.9000000059605","1","1","2","0.8,0.2,0.8,0.2,0.2,0.8,0.2,0.8",""
"","html-keyboard-response","15","28033","0.0-15.0","3WQQ9FUS6BGUG3PORZEM2ORC9GD8BB","AMHUDJ44HF1ZH","3WPCIUYH1AU470H2HRBLZRFBM3CTDN","","null","<img src=""img/food4.png"" style=""width:200px; border:14px solid green;"">","null","","","","","",""
"","image-keyboard-response","16","28611","0.0-16.0","3WQQ9FUS6BGUG3PORZEM2ORC9GD8BB","AMHUDJ44HF1ZH","3WPCIUYH1AU470H2HRBLZRFBM3CTDN","","577.5999999940395","img/food1.png","76","578","2","0","4","0.8,0.2,0.8,0.2,0.2,0.8,0.2,0.8",""
"","html-keyboard-response","17","28926","0.0-17.0","3WQQ9FUS6BGUG3PORZEM2ORC9GD8BB","AMHUDJ44HF1ZH","3WPCIUYH1AU470H2HRBLZRFBM3CTDN","","null","<img src=""img/food1.png"" style=""width:200px;border:14px solid red;"">","null","","","","","",""
"","image-keyboard-response","18","29549","0.0-18.0","3WQQ9FUS6BGUG3PORZEM2ORC9GD8BB","AMHUDJ44HF1ZH","3WPCIUYH1AU470H2HRBLZRFBM3CTDN","","622.4000000059605","img/food1.png","76","622.9000000059605","2","1","4","0.8,0.2,0.8,0.2,0.2,0.8,0.2,0.8",""
"","html-keyboard-response","19","29851","0.0-19.0","3WQQ9FUS6BGUG3PORZEM2ORC9GD8BB","AMHUDJ44HF1ZH","3WPCIUYH1AU470H2HRBLZRFBM3CTDN","","null","<img src=""img/food1.png"" style=""width:200px; border:14px solid green;"">","null","","","","","",""
"","image-keyboard-response","20","30454","0.0-20.0","3WQQ9FUS6BGUG3PORZEM2ORC9GD8BB","AMHUDJ44HF1ZH","3WPCIUYH1AU470H2HRBLZRFBM3CTDN","","602.8999999761581","img/food5.png","75","603.5","1","0","3","0.8,0.2,0.8,0.2,0.2,0.8,0.2,0.8",""
"","html-keyboard-response","21","30755","0.0-21.0","3WQQ9FUS6BGUG3PORZEM2ORC9GD8BB","AMHUDJ44HF1ZH","3WPCIUYH1AU470H2HRBLZRFBM3CTDN","","null","<img src=""img/food5.png"" style=""width:200px;border:14px solid red;"">","null","","","","","",""
"","image-keyboard-response","22","32432","0.0-22.0","3WQQ9FUS6BGUG3PORZEM2ORC9GD8BB","AMHUDJ44HF1ZH","3WPCIUYH1AU470H2HRBLZRFBM3CTDN","","1676","img/food1.png","76","1676.7000000178814","2","1","4","0.8,0.2,0.8,0.2,0.2,0.8,0.2,0.8",""
"","html-keyboard-response","23","32734","0.0-23.0","3WQQ9FUS6BGUG3PORZEM2ORC9GD8BB","AMHUDJ44HF1ZH","3WPCIUYH1AU470H2HRBLZRFBM3CTDN","","null","<img src=""img/food1.png"" style=""width:200px; border:14px solid green;"">","null","","","","","",""
"","image-keyboard-response","24","34906","0.0-24.0","3WQQ9FUS6BGUG3PORZEM2ORC9GD8BB","AMHUDJ44HF1ZH","3WPCIUYH1AU470H2HRBLZRFBM3CTDN","","2171.4000000059605","img/food1.png","75","2171.9000000059605","1","0","4","0.8,0.2,0.8,0.2,0.2,0.8,0.2,0.8",""
"","html-keyboard-response","25","35206","0.0-25.0","3WQQ9FUS6BGUG3PORZEM2ORC9GD8BB","AMHUDJ44HF1ZH","3WPCIUYH1AU470H2HRBLZRFBM3CTDN","","null","<img src=""img/food1.png"" style=""width:200px;border:14px solid red;"">","null","","","","","",""
"","image-keyboard-response","26","35938","0.0-26.0","3WQQ9FUS6BGUG3PORZEM2ORC9GD8BB","AMHUDJ44HF1ZH","3WPCIUYH1AU470H2HRBLZRFBM3CTDN","","730.5999999940395","img/food2.png","75","731.0999999940395","1","1","1","0.8,0.2,0.8,0.2,0.2,0.8,0.2,0.8",""
"","html-keyboard-response","27","36239","0.0-27.0","3WQQ9FUS6BGUG3PORZEM2ORC9GD8BB","AMHUDJ44HF1ZH","3WPCIUYH1AU470H2HRBLZRFBM3CTDN","","null","<img src=""img/food2.png"" style=""width:200px; border:14px solid green;"">","null","","","","","",""
"","image-keyboard-response","28","38016","0.0-28.0","3WQQ9FUS6BGUG3PORZEM2ORC9GD8BB","AMHUDJ44HF1ZH","3WPCIUYH1AU470H2HRBLZRFBM3CTDN","","1776.5","img/food4.png","75","1777","1","0","2","0.8,0.2,0.8,0.2,0.2,0.8,0.2,0.8",""
"","html-keyboard-response","29","38317","0.0-29.0","3WQQ9FUS6BGUG3PORZEM2ORC9GD8BB","AMHUDJ44HF1ZH","3WPCIUYH1AU470H2HRBLZRFBM3CTDN","","null","<img src=""img/food4.png"" style=""width:200px;border:14px solid red;"">","null","","","","","",""
"","image-keyboard-response","30","39136","0.0-30.0","3WQQ9FUS6BGUG3PORZEM2ORC9GD8BB","AMHUDJ44HF1ZH","3WPCIUYH1AU470H2HRBLZRFBM3CTDN","","818.2999999821186","img/food2.png","75","818.7999999821186","1","0","1","0.8,0.2,0.8,0.2,0.2,0.8,0.2,0.8",""
"","html-keyboard-response","31","39437","0.0-31.0","3WQQ9FUS6BGUG3PORZEM2ORC9GD8BB","AMHUDJ44HF1ZH","3WPCIUYH1AU470H2HRBLZRFBM3CTDN","","null","<img src=""img/food2.png"" style=""width:200px;border:14px solid red;"">","null","","","","","",""
"","image-keyboard-response","32","40212","0.0-32.0","3WQQ9FUS6BGUG3PORZEM2ORC9GD8BB","AMHUDJ44HF1ZH","3WPCIUYH1AU470H2HRBLZRFBM3CTDN","","774.4000000059605","img/food5.png","76","774.8999999761581","2","0","3","0.8,0.2,0.8,0.2,0.2,0.8,0.2,0.8",""
"","html-keyboard-response","33","40515","0.0-33.0","3WQQ9FUS6BGUG3PORZEM2ORC9GD8BB","AMHUDJ44HF1ZH","3WPCIUYH1AU470H2HRBLZRFBM3CTDN","","null","<img src=""img/food5.png"" style=""width:200px;border:14px solid red;"">","null","","","","","",""
"","image-keyboard-response","34","40784","0.0-34.0","3WQQ9FUS6BGUG3PORZEM2ORC9GD8BB","AMHUDJ44HF1ZH","3WPCIUYH1AU470H2HRBLZRFBM3CTDN","","269","img/food2.png","76","269.5","2","0","1","0.8,0.2,0.8,0.2,0.2,0.8,0.2,0.8",""
"","html-keyboard-response","35","41085","0.0-35.0","3WQQ9FUS6BGUG3PORZEM2ORC9GD8BB","AMHUDJ44HF1ZH","3WPCIUYH1AU470H2HRBLZRFBM3CTDN","","null","<img src=""img/food2.png"" style=""width:200px;border:14px solid red;"">","null","","","","","",""
"","image-keyboard-response","36","41561","0.0-36.0","3WQQ9FUS6BGUG3PORZEM2ORC9GD8BB","AMHUDJ44HF1ZH","3WPCIUYH1AU470H2HRBLZRFBM3CTDN","","475.90000000596046","img/food4.png","75","476.40000000596046","1","1","2","0.8,0.2,0.8,0.2,0.2,0.8,0.2,0.8",""
"","html-keyboard-response","37","41863","0.0-37.0","3WQQ9FUS6BGUG3PORZEM2ORC9GD8BB","AMHUDJ44HF1ZH","3WPCIUYH1AU470H2HRBLZRFBM3CTDN","","null","<img src=""img/food4.png"" style=""width:200px; border:14px solid green;"">","null","","","","","",""
"","image-keyboard-response","38","42154","0.0-38.0","3WQQ9FUS6BGUG3PORZEM2ORC9GD8BB","AMHUDJ44HF1ZH","3WPCIUYH1AU470H2HRBLZRFBM3CTDN","","290.59999999403954","img/food4.png","75","291.10000002384186","1","1","2","0.8,0.2,0.8,0.2,0.2,0.8,0.2,0.8",""
"","html-keyboard-response","39","42456","0.0-39.0","3WQQ9FUS6BGUG3PORZEM2ORC9GD8BB","AMHUDJ44HF1ZH","3WPCIUYH1AU470H2HRBLZRFBM3CTDN","","null","<img src=""img/food4.png"" style=""width:200px; border:14px solid green;"">","null","","","","","",""
"","image-keyboard-response","40","42913","0.0-40.0","3WQQ9FUS6BGUG3PORZEM2ORC9GD8BB","AMHUDJ44HF1ZH","3WPCIUYH1AU470H2HRBLZRFBM3CTDN","","456.5","img/food5.png","75","457","1","0","3","0.8,0.2,0.8,0.2,0.2,0.8,0.2,0.8",""
"","html-keyboard-response","41","43214","0.0-41.0","3WQQ9FUS6BGUG3PORZEM2ORC9GD8BB","AMHUDJ44HF1ZH","3WPCIUYH1AU470H2HRBLZRFBM3CTDN","","null","<img src=""img/food5.png"" style=""width:200px;border:14px solid red;"">","null","","","","","",""
"","image-keyboard-response","42","44278","0.0-42.0","3WQQ9FUS6BGUG3PORZEM2ORC9GD8BB","AMHUDJ44HF1ZH","3WPCIUYH1AU470H2HRBLZRFBM3CTDN","","1063.5999999940395","img/food4.png","75","1064.0999999940395","1","1","2","0.8,0.2,0.8,0.2,0.2,0.8,0.2,0.8",""
"","html-keyboard-response","43","44580","0.0-43.0","3WQQ9FUS6BGUG3PORZEM2ORC9GD8BB","AMHUDJ44HF1ZH","3WPCIUYH1AU470H2HRBLZRFBM3CTDN","","null","<img src=""img/food4.png"" style=""width:200px; border:14px solid green;"">","null","","","","","",""
"","image-keyboard-response","44","44865","0.0-44.0","3WQQ9FUS6BGUG3PORZEM2ORC9GD8BB","AMHUDJ44HF1ZH","3WPCIUYH1AU470H2HRBLZRFBM3CTDN","","285.30000001192093","img/food1.png","75","285.90000000596046","1","1","4","0.8,0.2,0.8,0.2,0.2,0.8,0.2,0.8",""
"","html-keyboard-response","45","45167","0.0-45.0","3WQQ9FUS6BGUG3PORZEM2ORC9GD8BB","AMHUDJ44HF1ZH","3WPCIUYH1AU470H2HRBLZRFBM3CTDN","","null","<img src=""img/food1.png"" style=""width:200px; border:14px solid green;"">","null","","","","","",""
"","image-keyboard-response","46","45436","0.0-46.0","3WQQ9FUS6BGUG3PORZEM2ORC9GD8BB","AMHUDJ44HF1ZH","3WPCIUYH1AU470H2HRBLZRFBM3CTDN","","268.09999999403954","img/food2.png","75","268.59999999403954","1","1","1","0.8,0.2,0.8,0.2,0.2,0.8,0.2,0.8",""
"","html-keyboard-response","47","45737","0.0-47.0","3WQQ9FUS6BGUG3PORZEM2ORC9GD8BB","AMHUDJ44HF1ZH","3WPCIUYH1AU470H2HRBLZRFBM3CTDN","","null","<img src=""img/food2.png"" style=""width:200px; border:14px solid green;"">","null","","","","","",""
"","image-keyboard-response","48","46289","0.0-48.0","3WQQ9FUS6BGUG3PORZEM2ORC9GD8BB","AMHUDJ44HF1ZH","3WPCIUYH1AU470H2HRBLZRFBM3CTDN","","551.4000000059605","img/food1.png","75","552","1","0","4","0.8,0.2,0.8,0.2,0.2,0.8,0.2,0.8",""
"","html-keyboard-response","49","46591","0.0-49.0","3WQQ9FUS6BGUG3PORZEM2ORC9GD8BB","AMHUDJ44HF1ZH","3WPCIUYH1AU470H2HRBLZRFBM3CTDN","","null","<img src=""img/food1.png"" style=""width:200px;border:14px solid red;"">","null","","","","","",""
"","image-keyboard-response","50","60875","0.0-50.0","3WQQ9FUS6BGUG3PORZEM2ORC9GD8BB","AMHUDJ44HF1ZH","3WPCIUYH1AU470H2HRBLZRFBM3CTDN","","14282.90000000596","img/food2.png","75","14283.399999976158","1","1","1","0.8,0.2,0.8,0.2,0.2,0.8,0.2,0.8",""
"","html-keyboard-response","51","61176","0.0-51.0","3WQQ9FUS6BGUG3PORZEM2ORC9GD8BB","AMHUDJ44HF1ZH","3WPCIUYH1AU470H2HRBLZRFBM3CTDN","","null","<img src=""img/food2.png"" style=""width:200px; border:14px solid green;"">","null","","","","","",""
"","image-keyboard-response","52","62399","0.0-52.0","3WQQ9FUS6BGUG3PORZEM2ORC9GD8BB","AMHUDJ44HF1ZH","3WPCIUYH1AU470H2HRBLZRFBM3CTDN","","1222.7000000178814","img/food5.png","76","1223.199999988079","2","0","3","0.8,0.2,0.8,0.2,0.2,0.8,0.2,0.8",""
"","html-keyboard-response","53","62701","0.0-53.0","3WQQ9FUS6BGUG3PORZEM2ORC9GD8BB","AMHUDJ44HF1ZH","3WPCIUYH1AU470H2HRBLZRFBM3CTDN","","null","<img src=""img/food5.png"" style=""width:200px;border:14px solid red;"">","null","","","","","",""
"","image-keyboard-response","54","63734","0.0-54.0","3WQQ9FUS6BGUG3PORZEM2ORC9GD8BB","AMHUDJ44HF1ZH","3WPCIUYH1AU470H2HRBLZRFBM3CTDN","","1032.5","img/food4.png","75","1033","1","1","2","0.8,0.2,0.8,0.2,0.2,0.8,0.2,0.8",""
"","html-keyboard-response","55","64035","0.0-55.0","3WQQ9FUS6BGUG3PORZEM2ORC9GD8BB","AMHUDJ44HF1ZH","3WPCIUYH1AU470H2HRBLZRFBM3CTDN","","null","<img src=""img/food4.png"" style=""width:200px; border:14px solid green;"">","null","","","","","",""
"","image-keyboard-response","56","65031","0.0-56.0","3WQQ9FUS6BGUG3PORZEM2ORC9GD8BB","AMHUDJ44HF1ZH","3WPCIUYH1AU470H2HRBLZRFBM3CTDN","","995.0999999940395","img/food1.png","76","995.7000000178814","2","0","4","0.8,0.2,0.8,0.2,0.2,0.8,0.2,0.8",""
"","html-keyboard-response","57","65332","0.0-57.0","3WQQ9FUS6BGUG3PORZEM2ORC9GD8BB","AMHUDJ44HF1ZH","3WPCIUYH1AU470H2HRBLZRFBM3CTDN","","null","<img src=""img/food1.png"" style=""width:200px;border:14px solid red;"">","null","","","","","",""
"","image-keyboard-response","58","65949","0.0-58.0","3WQQ9FUS6BGUG3PORZEM2ORC9GD8BB","AMHUDJ44HF1ZH","3WPCIUYH1AU470H2HRBLZRFBM3CTDN","","616.3000000119209","img/food2.png","75","616.6999999880791","1","1","1","0.8,0.2,0.8,0.2,0.2,0.8,0.2,0.8",""
"","html-keyboard-response","59","66250","0.0-59.0","3WQQ9FUS6BGUG3PORZEM2ORC9GD8BB","AMHUDJ44HF1ZH","3WPCIUYH1AU470H2HRBLZRFBM3CTDN","","null","<img src=""img/food2.png"" style=""width:200px; border:14px solid green;"">","null","","","","","",""
"","image-keyboard-response","60","66559","0.0-60.0","3WQQ9FUS6BGUG3PORZEM2ORC9GD8BB","AMHUDJ44HF1ZH","3WPCIUYH1AU470H2HRBLZRFBM3CTDN","","307.80000001192093","img/food1.png","75","308.59999999403954","1","1","4","0.8,0.2,0.8,0.2,0.2,0.8,0.2,0.8",""
"","html-keyboard-response","61","66860","0.0-61.0","3WQQ9FUS6BGUG3PORZEM2ORC9GD8BB","AMHUDJ44HF1ZH","3WPCIUYH1AU470H2HRBLZRFBM3CTDN","","null","<img src=""img/food1.png"" style=""width:200px; border:14px solid green;"">","null","","","","","",""
"","image-keyboard-response","62","67133","0.0-62.0","3WQQ9FUS6BGUG3PORZEM2ORC9GD8BB","AMHUDJ44HF1ZH","3WPCIUYH1AU470H2HRBLZRFBM3CTDN","","272.09999999403954","img/food2.png","75","272.59999999403954","1","1","1","0.8,0.2,0.8,0.2,0.2,0.8,0.2,0.8",""
"","html-keyboard-response","63","67434","0.0-63.0","3WQQ9FUS6BGUG3PORZEM2ORC9GD8BB","AMHUDJ44HF1ZH","3WPCIUYH1AU470H2HRBLZRFBM3CTDN","","null","<img src=""img/food2.png"" style=""width:200px; border:14px solid green;"">","null","","","","","",""
"","image-keyboard-response","64","67704","0.0-64.0","3WQQ9FUS6BGUG3PORZEM2ORC9GD8BB","AMHUDJ44HF1ZH","3WPCIUYH1AU470H2HRBLZRFBM3CTDN","","268.69999998807907","img/food1.png","75","269.09999999403954","1","0","4","0.8,0.2,0.8,0.2,0.2,0.8,0.2,0.8",""
"","html-keyboard-response","65","68005","0.0-65.0","3WQQ9FUS6BGUG3PORZEM2ORC9GD8BB","AMHUDJ44HF1ZH","3WPCIUYH1AU470H2HRBLZRFBM3CTDN","","null","<img src=""img/food1.png"" style=""width:200px;border:14px solid red;"">","null","","","","","",""
"","image-keyboard-response","66","68293","0.0-66.0","3WQQ9FUS6BGUG3PORZEM2ORC9GD8BB","AMHUDJ44HF1ZH","3WPCIUYH1AU470H2HRBLZRFBM3CTDN","","286.90000000596046","img/food4.png","75","287.40000000596046","1","0","2","0.8,0.2,0.8,0.2,0.2,0.8,0.2,0.8",""
"","html-keyboard-response","67","68594","0.0-67.0","3WQQ9FUS6BGUG3PORZEM2ORC9GD8BB","AMHUDJ44HF1ZH","3WPCIUYH1AU470H2HRBLZRFBM3CTDN","","null","<img src=""img/food4.png"" style=""width:200px;border:14px solid red;"">","null","","","","","",""
"","image-keyboard-response","68","69363","0.0-68.0","3WQQ9FUS6BGUG3PORZEM2ORC9GD8BB","AMHUDJ44HF1ZH","3WPCIUYH1AU470H2HRBLZRFBM3CTDN","","768.0999999940395","img/food5.png","76","768.5","2","0","3","0.8,0.2,0.8,0.2,0.2,0.8,0.2,0.8",""
"","html-keyboard-response","69","69665","0.0-69.0","3WQQ9FUS6BGUG3PORZEM2ORC9GD8BB","AMHUDJ44HF1ZH","3WPCIUYH1AU470H2HRBLZRFBM3CTDN","","null","<img src=""img/food5.png"" style=""width:200px;border:14px solid red;"">","null","","","","","",""
"","image-keyboard-response","70","69916","0.0-70.0","3WQQ9FUS6BGUG3PORZEM2ORC9GD8BB","AMHUDJ44HF1ZH","3WPCIUYH1AU470H2HRBLZRFBM3CTDN","","250.90000000596046","img/food2.png","76","251.39999997615814","2","0","1","0.8,0.2,0.8,0.2,0.2,0.8,0.2,0.8",""
"","html-keyboard-response","71","70218","0.0-71.0","3WQQ9FUS6BGUG3PORZEM2ORC9GD8BB","AMHUDJ44HF1ZH","3WPCIUYH1AU470H2HRBLZRFBM3CTDN","","null","<img src=""img/food2.png"" style=""width:200px;border:14px solid red;"">","null","","","","","",""
"","image-keyboard-response","72","70491","0.0-72.0","3WQQ9FUS6BGUG3PORZEM2ORC9GD8BB","AMHUDJ44HF1ZH","3WPCIUYH1AU470H2HRBLZRFBM3CTDN","","272.30000001192093","img/food2.png","75","272.7999999821186","1","0","1","0.8,0.2,0.8,0.2,0.2,0.8,0.2,0.8",""
"","html-keyboard-response","73","70792","0.0-73.0","3WQQ9FUS6BGUG3PORZEM2ORC9GD8BB","AMHUDJ44HF1ZH","3WPCIUYH1AU470H2HRBLZRFBM3CTDN","","null","<img src=""img/food2.png"" style=""width:200px;border:14px solid red;"">","null","","","","","",""
"","image-keyboard-response","74","70973","0.0-74.0","3WQQ9FUS6BGUG3PORZEM2ORC9GD8BB","AMHUDJ44HF1ZH","3WPCIUYH1AU470H2HRBLZRFBM3CTDN","","181.2000000178814","img/food2.png","75","181.69999998807907","1","1","1","0.8,0.2,0.8,0.2,0.2,0.8,0.2,0.8",""
"","html-keyboard-response","75","71275","0.0-75.0","3WQQ9FUS6BGUG3PORZEM2ORC9GD8BB","AMHUDJ44HF1ZH","3WPCIUYH1AU470H2HRBLZRFBM3CTDN","","null","<img src=""img/food2.png"" style=""width:200px; border:14px solid green;"">","null","","","","","",""
"","image-keyboard-response","76","71532","0.0-76.0","3WQQ9FUS6BGUG3PORZEM2ORC9GD8BB","AMHUDJ44HF1ZH","3WPCIUYH1AU470H2HRBLZRFBM3CTDN","","256.59999999403954","img/food4.png","75","257.2000000178814","1","1","2","0.8,0.2,0.8,0.2,0.2,0.8,0.2,0.8",""
"","html-keyboard-response","77","71833","0.0-77.0","3WQQ9FUS6BGUG3PORZEM2ORC9GD8BB","AMHUDJ44HF1ZH","3WPCIUYH1AU470H2HRBLZRFBM3CTDN","","null","<img src=""img/food4.png"" style=""width:200px; border:14px solid green;"">","null","","","","","",""
"","image-keyboard-response","78","72072","0.0-78.0","3WQQ9FUS6BGUG3PORZEM2ORC9GD8BB","AMHUDJ44HF1ZH","3WPCIUYH1AU470H2HRBLZRFBM3CTDN","","238.59999999403954","img/food2.png","75","239","1","1","1","0.8,0.2,0.8,0.2,0.2,0.8,0.2,0.8",""
"","html-keyboard-response","79","72374","0.0-79.0","3WQQ9FUS6BGUG3PORZEM2ORC9GD8BB","AMHUDJ44HF1ZH","3WPCIUYH1AU470H2HRBLZRFBM3CTDN","","null","<img src=""img/food2.png"" style=""width:200px; border:14px solid green;"">","null","","","","","",""
"","image-keyboard-response","80","72597","0.0-80.0","3WQQ9FUS6BGUG3PORZEM2ORC9GD8BB","AMHUDJ44HF1ZH","3WPCIUYH1AU470H2HRBLZRFBM3CTDN","","221.90000000596046","img/food5.png","75","222.40000000596046","1","0","3","0.8,0.2,0.8,0.2,0.2,0.8,0.2,0.8",""
"","html-keyboard-response","81","72898","0.0-81.0","3WQQ9FUS6BGUG3PORZEM2ORC9GD8BB","AMHUDJ44HF1ZH","3WPCIUYH1AU470H2HRBLZRFBM3CTDN","","null","<img src=""img/food5.png"" style=""width:200px;border:14px solid red;"">","null","","","","","",""
"","image-keyboard-response","82","73131","0.0-82.0","3WQQ9FUS6BGUG3PORZEM2ORC9GD8BB","AMHUDJ44HF1ZH","3WPCIUYH1AU470H2HRBLZRFBM3CTDN","","232.19999998807907","img/food5.png","75","232.69999998807907","1","0","3","0.8,0.2,0.8,0.2,0.2,0.8,0.2,0.8",""
"","html-keyboard-response","83","73433","0.0-83.0","3WQQ9FUS6BGUG3PORZEM2ORC9GD8BB","AMHUDJ44HF1ZH","3WPCIUYH1AU470H2HRBLZRFBM3CTDN","","null","<img src=""img/food5.png"" style=""width:200px;border:14px solid red;"">","null","","","","","",""
"","image-keyboard-response","84","73944","0.0-84.0","3WQQ9FUS6BGUG3PORZEM2ORC9GD8BB","AMHUDJ44HF1ZH","3WPCIUYH1AU470H2HRBLZRFBM3CTDN","","510.5","img/food5.png","76","511","2","1","3","0.8,0.2,0.8,0.2,0.2,0.8,0.2,0.8",""
"","html-keyboard-response","85","74246","0.0-85.0","3WQQ9FUS6BGUG3PORZEM2ORC9GD8BB","AMHUDJ44HF1ZH","3WPCIUYH1AU470H2HRBLZRFBM3CTDN","","null","<img src=""img/food5.png"" style=""width:200px; border:14px solid green;"">","null","","","","","",""
"","image-keyboard-response","86","74893","0.0-86.0","3WQQ9FUS6BGUG3PORZEM2ORC9GD8BB","AMHUDJ44HF1ZH","3WPCIUYH1AU470H2HRBLZRFBM3CTDN","","646.5","img/food4.png","75","646.9000000059605","1","1","2","0.8,0.2,0.8,0.2,0.2,0.8,0.2,0.8",""
"","html-keyboard-response","87","75194","0.0-87.0","3WQQ9FUS6BGUG3PORZEM2ORC9GD8BB","AMHUDJ44HF1ZH","3WPCIUYH1AU470H2HRBLZRFBM3CTDN","","null","<img src=""img/food4.png"" style=""width:200px; border:14px solid green;"">","null","","","","","",""
"","image-keyboard-response","88","75476","0.0-88.0","3WQQ9FUS6BGUG3PORZEM2ORC9GD8BB","AMHUDJ44HF1ZH","3WPCIUYH1AU470H2HRBLZRFBM3CTDN","","281.69999998807907","img/food1.png","75","282.09999999403954","1","1","4","0.8,0.2,0.8,0.2,0.2,0.8,0.2,0.8",""
"","html-keyboard-response","89","75778","0.0-89.0","3WQQ9FUS6BGUG3PORZEM2ORC9GD8BB","AMHUDJ44HF1ZH","3WPCIUYH1AU470H2HRBLZRFBM3CTDN","","null","<img src=""img/food1.png"" style=""width:200px; border:14px solid green;"">","null","","","","","",""
"","image-keyboard-response","90","75980","0.0-90.0","3WQQ9FUS6BGUG3PORZEM2ORC9GD8BB","AMHUDJ44HF1ZH","3WPCIUYH1AU470H2HRBLZRFBM3CTDN","","201.59999999403954","img/food5.png","75","202","1","0","3","0.8,0.2,0.8,0.2,0.2,0.8,0.2,0.8",""
"","html-keyboard-response","91","76281","0.0-91.0","3WQQ9FUS6BGUG3PORZEM2ORC9GD8BB","AMHUDJ44HF1ZH","3WPCIUYH1AU470H2HRBLZRFBM3CTDN","","null","<img src=""img/food5.png"" style=""width:200px;border:14px solid red;"">","null","","","","","",""
"","image-keyboard-response","92","76404","0.0-92.0","3WQQ9FUS6BGUG3PORZEM2ORC9GD8BB","AMHUDJ44HF1ZH","3WPCIUYH1AU470H2HRBLZRFBM3CTDN","","121.90000000596046","img/food1.png","76","122.5","2","0","4","0.8,0.2,0.8,0.2,0.2,0.8,0.2,0.8",""
"","html-keyboard-response","93","76705","0.0-93.0","3WQQ9FUS6BGUG3PORZEM2ORC9GD8BB","AMHUDJ44HF1ZH","3WPCIUYH1AU470H2HRBLZRFBM3CTDN","","null","<img src=""img/food1.png"" style=""width:200px;border:14px solid red;"">","null","","","","","",""
"","image-keyboard-response","94","77098","0.0-94.0","3WQQ9FUS6BGUG3PORZEM2ORC9GD8BB","AMHUDJ44HF1ZH","3WPCIUYH1AU470H2HRBLZRFBM3CTDN","","391.89999997615814","img/food5.png","75","392.40000000596046","1","1","3","0.8,0.2,0.8,0.2,0.2,0.8,0.2,0.8",""
"","html-keyboard-response","95","77400","0.0-95.0","3WQQ9FUS6BGUG3PORZEM2ORC9GD8BB","AMHUDJ44HF1ZH","3WPCIUYH1AU470H2HRBLZRFBM3CTDN","","null","<img src=""img/food5.png"" style=""width:200px; border:14px solid green;"">","null","","","","","",""
"","image-keyboard-response","96","79042","0.0-96.0","3WQQ9FUS6BGUG3PORZEM2ORC9GD8BB","AMHUDJ44HF1ZH","3WPCIUYH1AU470H2HRBLZRFBM3CTDN","","1641.699999988079","img/food2.png","76","1642.2999999821186","2","1","1","0.8,0.2,0.8,0.2,0.2,0.8,0.2,0.8",""
"","html-keyboard-response","97","79343","0.0-97.0","3WQQ9FUS6BGUG3PORZEM2ORC9GD8BB","AMHUDJ44HF1ZH","3WPCIUYH1AU470H2HRBLZRFBM3CTDN","","null","<img src=""img/food2.png"" style=""width:200px; border:14px solid green;"">","null","","","","","",""
"","image-keyboard-response","98","79635","0.0-98.0","3WQQ9FUS6BGUG3PORZEM2ORC9GD8BB","AMHUDJ44HF1ZH","3WPCIUYH1AU470H2HRBLZRFBM3CTDN","","290.59999999403954","img/food2.png","76","291.10000002384186","2","0","1","0.8,0.2,0.8,0.2,0.2,0.8,0.2,0.8",""
"","html-keyboard-response","99","79936","0.0-99.0","3WQQ9FUS6BGUG3PORZEM2ORC9GD8BB","AMHUDJ44HF1ZH","3WPCIUYH1AU470H2HRBLZRFBM3CTDN","","null","<img src=""img/food2.png"" style=""width:200px;border:14px solid red;"">","null","","","","","",""
"","image-keyboard-response","100","80611","0.0-100.0","3WQQ9FUS6BGUG3PORZEM2ORC9GD8BB","AMHUDJ44HF1ZH","3WPCIUYH1AU470H2HRBLZRFBM3CTDN","","674.5999999940395","img/food4.png","75","675.0999999940395","1","1","2","0.8,0.2,0.8,0.2,0.2,0.8,0.2,0.8",""
"","html-keyboard-response","101","80913","0.0-101.0","3WQQ9FUS6BGUG3PORZEM2ORC9GD8BB","AMHUDJ44HF1ZH","3WPCIUYH1AU470H2HRBLZRFBM3CTDN","","null","<img src=""img/food4.png"" style=""width:200px; border:14px solid green;"">","null","","","","","",""
"","image-keyboard-response","102","81267","0.0-102.0","3WQQ9FUS6BGUG3PORZEM2ORC9GD8BB","AMHUDJ44HF1ZH","3WPCIUYH1AU470H2HRBLZRFBM3CTDN","","353.5","img/food2.png","75","354","1","1","1","0.8,0.2,0.8,0.2,0.2,0.8,0.2,0.8",""
"","html-keyboard-response","103","81568","0.0-103.0","3WQQ9FUS6BGUG3PORZEM2ORC9GD8BB","AMHUDJ44HF1ZH","3WPCIUYH1AU470H2HRBLZRFBM3CTDN","","null","<img src=""img/food2.png"" style=""width:200px; border:14px solid green;"">","null","","","","","",""
"","image-keyboard-response","104","82840","0.0-104.0","3WQQ9FUS6BGUG3PORZEM2ORC9GD8BB","AMHUDJ44HF1ZH","3WPCIUYH1AU470H2HRBLZRFBM3CTDN","","1271.7000000178814","img/food2.png","76","1272.199999988079","2","0","1","0.8,0.2,0.8,0.2,0.2,0.8,0.2,0.8",""
"","html-keyboard-response","105","83141","0.0-105.0","3WQQ9FUS6BGUG3PORZEM2ORC9GD8BB","AMHUDJ44HF1ZH","3WPCIUYH1AU470H2HRBLZRFBM3CTDN","","null","<img src=""img/food2.png"" style=""width:200px;border:14px solid red;"">","null","","","","","",""
"","image-keyboard-response","106","83748","0.0-106.0","3WQQ9FUS6BGUG3PORZEM2ORC9GD8BB","AMHUDJ44HF1ZH","3WPCIUYH1AU470H2HRBLZRFBM3CTDN","","606.8000000119209","img/food1.png","75","607.2999999821186","1","0","4","0.8,0.2,0.8,0.2,0.2,0.8,0.2,0.8",""
"","html-keyboard-response","107","84049","0.0-107.0","3WQQ9FUS6BGUG3PORZEM2ORC9GD8BB","AMHUDJ44HF1ZH","3WPCIUYH1AU470H2HRBLZRFBM3CTDN","","null","<img src=""img/food1.png"" style=""width:200px;border:14px solid red;"">","null","","","","","",""
"","image-keyboard-response","108","85067","0.0-108.0","3WQQ9FUS6BGUG3PORZEM2ORC9GD8BB","AMHUDJ44HF1ZH","3WPCIUYH1AU470H2HRBLZRFBM3CTDN","","1016.6999999880791","img/food1.png","76","1017.1000000238419","2","1","4","0.8,0.2,0.8,0.2,0.2,0.8,0.2,0.8",""
"","html-keyboard-response","109","85368","0.0-109.0","3WQQ9FUS6BGUG3PORZEM2ORC9GD8BB","AMHUDJ44HF1ZH","3WPCIUYH1AU470H2HRBLZRFBM3CTDN","","null","<img src=""img/food1.png"" style=""width:200px; border:14px solid green;"">","null","","","","","",""
"","image-keyboard-response","110","85696","0.0-110.0","3WQQ9FUS6BGUG3PORZEM2ORC9GD8BB","AMHUDJ44HF1ZH","3WPCIUYH1AU470H2HRBLZRFBM3CTDN","","327.2999999821186","img/food1.png","76","327.80000001192093","2","1","4","0.8,0.2,0.8,0.2,0.2,0.8,0.2,0.8",""
"","html-keyboard-response","111","85996","0.0-111.0","3WQQ9FUS6BGUG3PORZEM2ORC9GD8BB","AMHUDJ44HF1ZH","3WPCIUYH1AU470H2HRBLZRFBM3CTDN","","null","<img src=""img/food1.png"" style=""width:200px; border:14px solid green;"">","null","","","","","",""
"","image-keyboard-response","112","86266","0.0-112.0","3WQQ9FUS6BGUG3PORZEM2ORC9GD8BB","AMHUDJ44HF1ZH","3WPCIUYH1AU470H2HRBLZRFBM3CTDN","","269.5","img/food5.png","76","269.90000000596046","2","0","3","0.8,0.2,0.8,0.2,0.2,0.8,0.2,0.8",""
"","html-keyboard-response","113","86567","0.0-113.0","3WQQ9FUS6BGUG3PORZEM2ORC9GD8BB","AMHUDJ44HF1ZH","3WPCIUYH1AU470H2HRBLZRFBM3CTDN","","null","<img src=""img/food5.png"" style=""width:200px;border:14px solid red;"">","null","","","","","",""
"","image-keyboard-response","114","87668","0.0-114.0","3WQQ9FUS6BGUG3PORZEM2ORC9GD8BB","AMHUDJ44HF1ZH","3WPCIUYH1AU470H2HRBLZRFBM3CTDN","","1100.4000000059605","img/food1.png","76","1101","2","1","4","0.8,0.2,0.8,0.2,0.2,0.8,0.2,0.8",""
"","html-keyboard-response","115","87969","0.0-115.0","3WQQ9FUS6BGUG3PORZEM2ORC9GD8BB","AMHUDJ44HF1ZH","3WPCIUYH1AU470H2HRBLZRFBM3CTDN","","null","<img src=""img/food1.png"" style=""width:200px; border:14px solid green;"">","null","","","","","",""
"","image-keyboard-response","116","88284","0.0-116.0","3WQQ9FUS6BGUG3PORZEM2ORC9GD8BB","AMHUDJ44HF1ZH","3WPCIUYH1AU470H2HRBLZRFBM3CTDN","","314.30000001192093","img/food4.png","76","314.89999997615814","2","0","2","0.8,0.2,0.8,0.2,0.2,0.8,0.2,0.8",""
"","html-keyboard-response","117","88586","0.0-117.0","3WQQ9FUS6BGUG3PORZEM2ORC9GD8BB","AMHUDJ44HF1ZH","3WPCIUYH1AU470H2HRBLZRFBM3CTDN","","null","<img src=""img/food4.png"" style=""width:200px;border:14px solid red;"">","null","","","","","",""
"","image-keyboard-response","118","89540","0.0-118.0","3WQQ9FUS6BGUG3PORZEM2ORC9GD8BB","AMHUDJ44HF1ZH","3WPCIUYH1AU470H2HRBLZRFBM3CTDN","","953.1000000238419","img/food1.png","76","953.6999999880791","2","1","4","0.8,0.2,0.8,0.2,0.2,0.8,0.2,0.8",""
"","html-keyboard-response","119","89841","0.0-119.0","3WQQ9FUS6BGUG3PORZEM2ORC9GD8BB","AMHUDJ44HF1ZH","3WPCIUYH1AU470H2HRBLZRFBM3CTDN","","null","<img src=""img/food1.png"" style=""width:200px; border:14px solid green;"">","null","","","","","",""
"","image-keyboard-response","120","90167","0.0-120.0","3WQQ9FUS6BGUG3PORZEM2ORC9GD8BB","AMHUDJ44HF1ZH","3WPCIUYH1AU470H2HRBLZRFBM3CTDN","","325.2999999821186","img/food1.png","76","325.7999999821186","2","0","4","0.8,0.2,0.8,0.2,0.2,0.8,0.2,0.8",""
"","html-keyboard-response","121","90468","0.0-121.0","3WQQ9FUS6BGUG3PORZEM2ORC9GD8BB","AMHUDJ44HF1ZH","3WPCIUYH1AU470H2HRBLZRFBM3CTDN","","null","<img src=""img/food1.png"" style=""width:200px;border:14px solid red;"">","null","","","","","",""
"","image-keyboard-response","122","91802","0.0-122.0","3WQQ9FUS6BGUG3PORZEM2ORC9GD8BB","AMHUDJ44HF1ZH","3WPCIUYH1AU470H2HRBLZRFBM3CTDN","","1333.2999999821186","img/food2.png","76","1333.800000011921","2","0","1","0.8,0.2,0.8,0.2,0.2,0.8,0.2,0.8",""
"","html-keyboard-response","123","92103","0.0-123.0","3WQQ9FUS6BGUG3PORZEM2ORC9GD8BB","AMHUDJ44HF1ZH","3WPCIUYH1AU470H2HRBLZRFBM3CTDN","","null","<img src=""img/food2.png"" style=""width:200px;border:14px solid red;"">","null","","","","","",""
"","image-keyboard-response","124","92382","0.0-124.0","3WQQ9FUS6BGUG3PORZEM2ORC9GD8BB","AMHUDJ44HF1ZH","3WPCIUYH1AU470H2HRBLZRFBM3CTDN","","277.90000000596046","img/food2.png","76","278.40000000596046","2","0","1","0.8,0.2,0.8,0.2,0.2,0.8,0.2,0.8",""
"","html-keyboard-response","125","92684","0.0-125.0","3WQQ9FUS6BGUG3PORZEM2ORC9GD8BB","AMHUDJ44HF1ZH","3WPCIUYH1AU470H2HRBLZRFBM3CTDN","","null","<img src=""img/food2.png"" style=""width:200px;border:14px solid red;"">","null","","","","","",""
"","image-keyboard-response","126","94194","0.0-126.0","3WQQ9FUS6BGUG3PORZEM2ORC9GD8BB","AMHUDJ44HF1ZH","3WPCIUYH1AU470H2HRBLZRFBM3CTDN","","1509.4000000059605","img/food5.png","76","1510","2","1","3","0.8,0.2,0.8,0.2,0.2,0.8,0.2,0.8",""
"","html-keyboard-response","127","94495","0.0-127.0","3WQQ9FUS6BGUG3PORZEM2ORC9GD8BB","AMHUDJ44HF1ZH","3WPCIUYH1AU470H2HRBLZRFBM3CTDN","","null","<img src=""img/food5.png"" style=""width:200px; border:14px solid green;"">","null","","","","","",""
"","image-keyboard-response","128","95218","0.0-128.0","3WQQ9FUS6BGUG3PORZEM2ORC9GD8BB","AMHUDJ44HF1ZH","3WPCIUYH1AU470H2HRBLZRFBM3CTDN","","722.5999999940395","img/food4.png","75","723.0999999940395","1","1","2","0.8,0.2,0.8,0.2,0.2,0.8,0.2,0.8",""
"","html-keyboard-response","129","95519","0.0-129.0","3WQQ9FUS6BGUG3PORZEM2ORC9GD8BB","AMHUDJ44HF1ZH","3WPCIUYH1AU470H2HRBLZRFBM3CTDN","","null","<img src=""img/food4.png"" style=""width:200px; border:14px solid green;"">","null","","","","","",""
"","image-keyboard-response","130","96630","0.0-130.0","3WQQ9FUS6BGUG3PORZEM2ORC9GD8BB","AMHUDJ44HF1ZH","3WPCIUYH1AU470H2HRBLZRFBM3CTDN","","1110.0999999940395","img/food5.png","75","1110.5","1","0","3","0.8,0.2,0.8,0.2,0.2,0.8,0.2,0.8",""
"","html-keyboard-response","131","96931","0.0-131.0","3WQQ9FUS6BGUG3PORZEM2ORC9GD8BB","AMHUDJ44HF1ZH","3WPCIUYH1AU470H2HRBLZRFBM3CTDN","","null","<img src=""img/food5.png"" style=""width:200px;border:14px solid red;"">","null","","","","","",""
"","image-keyboard-response","132","97145","0.0-132.0","3WQQ9FUS6BGUG3PORZEM2ORC9GD8BB","AMHUDJ44HF1ZH","3WPCIUYH1AU470H2HRBLZRFBM3CTDN","","213.30000001192093","img/food4.png","76","213.90000000596046","2","0","2","0.8,0.2,0.8,0.2,0.2,0.8,0.2,0.8",""
"","html-keyboard-response","133","97446","0.0-133.0","3WQQ9FUS6BGUG3PORZEM2ORC9GD8BB","AMHUDJ44HF1ZH","3WPCIUYH1AU470H2HRBLZRFBM3CTDN","","null","<img src=""img/food4.png"" style=""width:200px;border:14px solid red;"">","null","","","","","",""
"","image-keyboard-response","134","98188","0.0-134.0","3WQQ9FUS6BGUG3PORZEM2ORC9GD8BB","AMHUDJ44HF1ZH","3WPCIUYH1AU470H2HRBLZRFBM3CTDN","","741.1999999880791","img/food2.png","75","741.7000000178814","1","1","1","0.8,0.2,0.8,0.2,0.2,0.8,0.2,0.8",""
"","html-keyboard-response","135","98489","0.0-135.0","3WQQ9FUS6BGUG3PORZEM2ORC9GD8BB","AMHUDJ44HF1ZH","3WPCIUYH1AU470H2HRBLZRFBM3CTDN","","null","<img src=""img/food2.png"" style=""width:200px; border:14px solid green;"">","null","","","","","",""
"","image-keyboard-response","136","99784","0.0-136.0","3WQQ9FUS6BGUG3PORZEM2ORC9GD8BB","AMHUDJ44HF1ZH","3WPCIUYH1AU470H2HRBLZRFBM3CTDN","","1294.5","img/food5.png","76","1295.1000000238419","2","1","3","0.8,0.2,0.8,0.2,0.2,0.8,0.2,0.8",""
"","html-keyboard-response","137","100086","0.0-137.0","3WQQ9FUS6BGUG3PORZEM2ORC9GD8BB","AMHUDJ44HF1ZH","3WPCIUYH1AU470H2HRBLZRFBM3CTDN","","null","<img src=""img/food5.png"" style=""width:200px; border:14px solid green;"">","null","","","","","",""
"","image-keyboard-response","138","101658","0.0-138.0","3WQQ9FUS6BGUG3PORZEM2ORC9GD8BB","AMHUDJ44HF1ZH","3WPCIUYH1AU470H2HRBLZRFBM3CTDN","","1572.2999999821186","img/food2.png","75","1572.699999988079","1","1","1","0.8,0.2,0.8,0.2,0.2,0.8,0.2,0.8",""
"","html-keyboard-response","139","101959","0.0-139.0","3WQQ9FUS6BGUG3PORZEM2ORC9GD8BB","AMHUDJ44HF1ZH","3WPCIUYH1AU470H2HRBLZRFBM3CTDN","","null","<img src=""img/food2.png"" style=""width:200px; border:14px solid green;"">","null","","","","","",""
"","image-keyboard-response","140","102803","0.0-140.0","3WQQ9FUS6BGUG3PORZEM2ORC9GD8BB","AMHUDJ44HF1ZH","3WPCIUYH1AU470H2HRBLZRFBM3CTDN","","842.9000000059605","img/food4.png","75","843.4000000059605","1","1","2","0.8,0.2,0.8,0.2,0.2,0.8,0.2,0.8",""
"","html-keyboard-response","141","103104","0.0-141.0","3WQQ9FUS6BGUG3PORZEM2ORC9GD8BB","AMHUDJ44HF1ZH","3WPCIUYH1AU470H2HRBLZRFBM3CTDN","","null","<img src=""img/food4.png"" style=""width:200px; border:14px solid green;"">","null","","","","","",""
"","image-keyboard-response","142","104153","0.0-142.0","3WQQ9FUS6BGUG3PORZEM2ORC9GD8BB","AMHUDJ44HF1ZH","3WPCIUYH1AU470H2HRBLZRFBM3CTDN","","1047.5999999940395","img/food1.png","76","1048","2","1","4","0.8,0.2,0.8,0.2,0.2,0.8,0.2,0.8",""
"","html-keyboard-response","143","104454","0.0-143.0","3WQQ9FUS6BGUG3PORZEM2ORC9GD8BB","AMHUDJ44HF1ZH","3WPCIUYH1AU470H2HRBLZRFBM3CTDN","","null","<img src=""img/food1.png"" style=""width:200px; border:14px solid green;"">","null","","","","","",""
"","image-keyboard-response","144","104935","0.0-144.0","3WQQ9FUS6BGUG3PORZEM2ORC9GD8BB","AMHUDJ44HF1ZH","3WPCIUYH1AU470H2HRBLZRFBM3CTDN","","480.5","img/food1.png","76","481","2","0","4","0.8,0.2,0.8,0.2,0.2,0.8,0.2,0.8",""
"","html-keyboard-response","145","105237","0.0-145.0","3WQQ9FUS6BGUG3PORZEM2ORC9GD8BB","AMHUDJ44HF1ZH","3WPCIUYH1AU470H2HRBLZRFBM3CTDN","","null","<img src=""img/food1.png"" style=""width:200px;border:14px solid red;"">","null","","","","","",""
"","image-keyboard-response","146","106337","0.0-146.0","3WQQ9FUS6BGUG3PORZEM2ORC9GD8BB","AMHUDJ44HF1ZH","3WPCIUYH1AU470H2HRBLZRFBM3CTDN","","1099.1000000238419","img/food2.png","75","1099.5","1","1","1","0.8,0.2,0.8,0.2,0.2,0.8,0.2,0.8",""
"","html-keyboard-response","147","106638","0.0-147.0","3WQQ9FUS6BGUG3PORZEM2ORC9GD8BB","AMHUDJ44HF1ZH","3WPCIUYH1AU470H2HRBLZRFBM3CTDN","","null","<img src=""img/food2.png"" style=""width:200px; border:14px solid green;"">","null","","","","","",""
"","image-keyboard-response","148","107068","0.0-148.0","3WQQ9FUS6BGUG3PORZEM2ORC9GD8BB","AMHUDJ44HF1ZH","3WPCIUYH1AU470H2HRBLZRFBM3CTDN","","429.39999997615814","img/food2.png","75","429.90000000596046","1","1","1","0.8,0.2,0.8,0.2,0.2,0.8,0.2,0.8",""
"","html-keyboard-response","149","107370","0.0-149.0","3WQQ9FUS6BGUG3PORZEM2ORC9GD8BB","AMHUDJ44HF1ZH","3WPCIUYH1AU470H2HRBLZRFBM3CTDN","","null","<img src=""img/food2.png"" style=""width:200px; border:14px solid green;"">","null","","","","","",""
"","image-keyboard-response","150","108309","0.0-150.0","3WQQ9FUS6BGUG3PORZEM2ORC9GD8BB","AMHUDJ44HF1ZH","3WPCIUYH1AU470H2HRBLZRFBM3CTDN","","939","img/food5.png","76","939.5","2","1","3","0.8,0.2,0.8,0.2,0.2,0.8,0.2,0.8",""
"","html-keyboard-response","151","108611","0.0-151.0","3WQQ9FUS6BGUG3PORZEM2ORC9GD8BB","AMHUDJ44HF1ZH","3WPCIUYH1AU470H2HRBLZRFBM3CTDN","","null","<img src=""img/food5.png"" style=""width:200px; border:14px solid green;"">","null","","","","","",""
"","image-keyboard-response","152","109001","0.0-152.0","3WQQ9FUS6BGUG3PORZEM2ORC9GD8BB","AMHUDJ44HF1ZH","3WPCIUYH1AU470H2HRBLZRFBM3CTDN","","389.7999999821186","img/food5.png","76","390.40000000596046","2","0","3","0.8,0.2,0.8,0.2,0.2,0.8,0.2,0.8",""
"","html-keyboard-response","153","109303","0.0-153.0","3WQQ9FUS6BGUG3PORZEM2ORC9GD8BB","AMHUDJ44HF1ZH","3WPCIUYH1AU470H2HRBLZRFBM3CTDN","","null","<img src=""img/food5.png"" style=""width:200px;border:14px solid red;"">","null","","","","","",""
"","image-keyboard-response","154","111498","0.0-154.0","3WQQ9FUS6BGUG3PORZEM2ORC9GD8BB","AMHUDJ44HF1ZH","3WPCIUYH1AU470H2HRBLZRFBM3CTDN","","2194.399999976158","img/food1.png","76","2195","2","0","4","0.8,0.2,0.8,0.2,0.2,0.8,0.2,0.8",""
"","html-keyboard-response","155","111800","0.0-155.0","3WQQ9FUS6BGUG3PORZEM2ORC9GD8BB","AMHUDJ44HF1ZH","3WPCIUYH1AU470H2HRBLZRFBM3CTDN","","null","<img src=""img/food1.png"" style=""width:200px;border:14px solid red;"">","null","","","","","",""
"","image-keyboard-response","156","112213","0.0-156.0","3WQQ9FUS6BGUG3PORZEM2ORC9GD8BB","AMHUDJ44HF1ZH","3WPCIUYH1AU470H2HRBLZRFBM3CTDN","","412.7999999821186","img/food1.png","76","413.2999999821186","2","1","4","0.8,0.2,0.8,0.2,0.2,0.8,0.2,0.8",""
"","html-keyboard-response","157","112515","0.0-157.0","3WQQ9FUS6BGUG3PORZEM2ORC9GD8BB","AMHUDJ44HF1ZH","3WPCIUYH1AU470H2HRBLZRFBM3CTDN","","null","<img src=""img/food1.png"" style=""width:200px; border:14px solid green;"">","null","","","","","",""
"","image-keyboard-response","158","113275","0.0-158.0","3WQQ9FUS6BGUG3PORZEM2ORC9GD8BB","AMHUDJ44HF1ZH","3WPCIUYH1AU470H2HRBLZRFBM3CTDN","","759.9000000059605","img/food2.png","75","760.2999999821186","1","1","1","0.8,0.2,0.8,0.2,0.2,0.8,0.2,0.8",""
"","html-keyboard-response","159","113576","0.0-159.0","3WQQ9FUS6BGUG3PORZEM2ORC9GD8BB","AMHUDJ44HF1ZH","3WPCIUYH1AU470H2HRBLZRFBM3CTDN","","null","<img src=""img/food2.png"" style=""width:200px; border:14px solid green;"">","null","","","","","",""
"","image-keyboard-response","160","113966","0.0-160.0","3WQQ9FUS6BGUG3PORZEM2ORC9GD8BB","AMHUDJ44HF1ZH","3WPCIUYH1AU470H2HRBLZRFBM3CTDN","","388.5","img/food1.png","75","389","1","0","4","0.8,0.2,0.8,0.2,0.2,0.8,0.2,0.8",""
"","html-keyboard-response","161","114267","0.0-161.0","3WQQ9FUS6BGUG3PORZEM2ORC9GD8BB","AMHUDJ44HF1ZH","3WPCIUYH1AU470H2HRBLZRFBM3CTDN","","null","<img src=""img/food1.png"" style=""width:200px;border:14px solid red;"">","null","","","","","",""
"","image-keyboard-response","162","114939","0.0-162.0","3WQQ9FUS6BGUG3PORZEM2ORC9GD8BB","AMHUDJ44HF1ZH","3WPCIUYH1AU470H2HRBLZRFBM3CTDN","","671.5","img/food1.png","76","671.9000000059605","2","1","4","0.8,0.2,0.8,0.2,0.2,0.8,0.2,0.8",""
"","html-keyboard-response","163","115240","0.0-163.0","3WQQ9FUS6BGUG3PORZEM2ORC9GD8BB","AMHUDJ44HF1ZH","3WPCIUYH1AU470H2HRBLZRFBM3CTDN","","null","<img src=""img/food1.png"" style=""width:200px; border:14px solid green;"">","null","","","","","",""
"","image-keyboard-response","164","115830","0.0-164.0","3WQQ9FUS6BGUG3PORZEM2ORC9GD8BB","AMHUDJ44HF1ZH","3WPCIUYH1AU470H2HRBLZRFBM3CTDN","","589.4000000059605","img/food5.png","76","589.8000000119209","2","1","3","0.8,0.2,0.8,0.2,0.2,0.8,0.2,0.8",""
"","html-keyboard-response","165","116132","0.0-165.0","3WQQ9FUS6BGUG3PORZEM2ORC9GD8BB","AMHUDJ44HF1ZH","3WPCIUYH1AU470H2HRBLZRFBM3CTDN","","null","<img src=""img/food5.png"" style=""width:200px; border:14px solid green;"">","null","","","","","",""
"","image-keyboard-response","166","116858","0.0-166.0","3WQQ9FUS6BGUG3PORZEM2ORC9GD8BB","AMHUDJ44HF1ZH","3WPCIUYH1AU470H2HRBLZRFBM3CTDN","","725.5999999940395","img/food5.png","75","726.0999999940395","1","1","3","0.8,0.2,0.8,0.2,0.2,0.8,0.2,0.8",""
"","html-keyboard-response","167","117160","0.0-167.0","3WQQ9FUS6BGUG3PORZEM2ORC9GD8BB","AMHUDJ44HF1ZH","3WPCIUYH1AU470H2HRBLZRFBM3CTDN","","null","<img src=""img/food5.png"" style=""width:200px; border:14px solid green;"">","null","","","","","",""
"","image-keyboard-response","168","117589","0.0-168.0","3WQQ9FUS6BGUG3PORZEM2ORC9GD8BB","AMHUDJ44HF1ZH","3WPCIUYH1AU470H2HRBLZRFBM3CTDN","","428.40000000596046","img/food5.png","75","429","1","0","3","0.8,0.2,0.8,0.2,0.2,0.8,0.2,0.8",""
"","html-keyboard-response","169","117896","0.0-169.0","3WQQ9FUS6BGUG3PORZEM2ORC9GD8BB","AMHUDJ44HF1ZH","3WPCIUYH1AU470H2HRBLZRFBM3CTDN","","null","<img src=""img/food5.png"" style=""width:200px;border:14px solid red;"">","null","","","","","",""
"","image-keyboard-response","170","118813","0.0-170.0","3WQQ9FUS6BGUG3PORZEM2ORC9GD8BB","AMHUDJ44HF1ZH","3WPCIUYH1AU470H2HRBLZRFBM3CTDN","","916.5999999940395","img/food1.png","76","917.1000000238419","2","1","4","0.8,0.2,0.8,0.2,0.2,0.8,0.2,0.8",""
"","html-keyboard-response","171","119114","0.0-171.0","3WQQ9FUS6BGUG3PORZEM2ORC9GD8BB","AMHUDJ44HF1ZH","3WPCIUYH1AU470H2HRBLZRFBM3CTDN","","null","<img src=""img/food1.png"" style=""width:200px; border:14px solid green;"">","null","","","","","",""
"","image-keyboard-response","172","119377","0.0-172.0","3WQQ9FUS6BGUG3PORZEM2ORC9GD8BB","AMHUDJ44HF1ZH","3WPCIUYH1AU470H2HRBLZRFBM3CTDN","","262","img/food5.png","76","262.60000002384186","2","1","3","0.8,0.2,0.8,0.2,0.2,0.8,0.2,0.8",""
"","html-keyboard-response","173","119678","0.0-173.0","3WQQ9FUS6BGUG3PORZEM2ORC9GD8BB","AMHUDJ44HF1ZH","3WPCIUYH1AU470H2HRBLZRFBM3CTDN","","null","<img src=""img/food5.png"" style=""width:200px; border:14px solid green;"">","null","","","","","",""
"","image-keyboard-response","174","120132","0.0-174.0","3WQQ9FUS6BGUG3PORZEM2ORC9GD8BB","AMHUDJ44HF1ZH","3WPCIUYH1AU470H2HRBLZRFBM3CTDN","","453.60000002384186","img/food1.png","76","454.19999998807907","2","0","4","0.8,0.2,0.8,0.2,0.2,0.8,0.2,0.8",""
"","html-keyboard-response","175","120434","0.0-175.0","3WQQ9FUS6BGUG3PORZEM2ORC9GD8BB","AMHUDJ44HF1ZH","3WPCIUYH1AU470H2HRBLZRFBM3CTDN","","null","<img src=""img/food1.png"" style=""width:200px;border:14px solid red;"">","null","","","","","",""
"","image-keyboard-response","176","121630","0.0-176.0","3WQQ9FUS6BGUG3PORZEM2ORC9GD8BB","AMHUDJ44HF1ZH","3WPCIUYH1AU470H2HRBLZRFBM3CTDN","","1195.7000000178814","img/food4.png","75","1196.199999988079","1","1","2","0.8,0.2,0.8,0.2,0.2,0.8,0.2,0.8",""
"","html-keyboard-response","177","121931","0.0-177.0","3WQQ9FUS6BGUG3PORZEM2ORC9GD8BB","AMHUDJ44HF1ZH","3WPCIUYH1AU470H2HRBLZRFBM3CTDN","","null","<img src=""img/food4.png"" style=""width:200px; border:14px solid green;"">","null","","","","","",""
"","image-keyboard-response","178","124077","0.0-178.0","3WQQ9FUS6BGUG3PORZEM2ORC9GD8BB","AMHUDJ44HF1ZH","3WPCIUYH1AU470H2HRBLZRFBM3CTDN","","2145.7000000178814","img/food2.png","75","2146.199999988079","1","1","1","0.8,0.2,0.8,0.2,0.2,0.8,0.2,0.8",""
"","html-keyboard-response","179","124378","0.0-179.0","3WQQ9FUS6BGUG3PORZEM2ORC9GD8BB","AMHUDJ44HF1ZH","3WPCIUYH1AU470H2HRBLZRFBM3CTDN","","null","<img src=""img/food2.png"" style=""width:200px; border:14px solid green;"">","null","","","","","",""
"","image-keyboard-response","180","124799","0.0-180.0","3WQQ9FUS6BGUG3PORZEM2ORC9GD8BB","AMHUDJ44HF1ZH","3WPCIUYH1AU470H2HRBLZRFBM3CTDN","","420.30000001192093","img/food4.png","75","420.80000001192093","1","1","2","0.8,0.2,0.8,0.2,0.2,0.8,0.2,0.8",""
"","html-keyboard-response","181","125100","0.0-181.0","3WQQ9FUS6BGUG3PORZEM2ORC9GD8BB","AMHUDJ44HF1ZH","3WPCIUYH1AU470H2HRBLZRFBM3CTDN","","null","<img src=""img/food4.png"" style=""width:200px; border:14px solid green;"">","null","","","","","",""
"","image-keyboard-response","182","125631","0.0-182.0","3WQQ9FUS6BGUG3PORZEM2ORC9GD8BB","AMHUDJ44HF1ZH","3WPCIUYH1AU470H2HRBLZRFBM3CTDN","","530.8000000119209","img/food2.png","75","531.1999999880791","1","1","1","0.8,0.2,0.8,0.2,0.2,0.8,0.2,0.8",""
"","html-keyboard-response","183","125934","0.0-183.0","3WQQ9FUS6BGUG3PORZEM2ORC9GD8BB","AMHUDJ44HF1ZH","3WPCIUYH1AU470H2HRBLZRFBM3CTDN","","null","<img src=""img/food2.png"" style=""width:200px; border:14px solid green;"">","null","","","","","",""
"","image-keyboard-response","184","126490","0.0-184.0","3WQQ9FUS6BGUG3PORZEM2ORC9GD8BB","AMHUDJ44HF1ZH","3WPCIUYH1AU470H2HRBLZRFBM3CTDN","","555.8999999761581","img/food4.png","75","556.5","1","1","2","0.8,0.2,0.8,0.2,0.2,0.8,0.2,0.8",""
"","html-keyboard-response","185","126792","0.0-185.0","3WQQ9FUS6BGUG3PORZEM2ORC9GD8BB","AMHUDJ44HF1ZH","3WPCIUYH1AU470H2HRBLZRFBM3CTDN","","null","<img src=""img/food4.png"" style=""width:200px; border:14px solid green;"">","null","","","","","",""
"","image-keyboard-response","186","127637","0.0-186.0","3WQQ9FUS6BGUG3PORZEM2ORC9GD8BB","AMHUDJ44HF1ZH","3WPCIUYH1AU470H2HRBLZRFBM3CTDN","","844.7000000178814","img/food5.png","76","845.1999999880791","2","1","3","0.8,0.2,0.8,0.2,0.2,0.8,0.2,0.8",""
"","html-keyboard-response","187","127939","0.0-187.0","3WQQ9FUS6BGUG3PORZEM2ORC9GD8BB","AMHUDJ44HF1ZH","3WPCIUYH1AU470H2HRBLZRFBM3CTDN","","null","<img src=""img/food5.png"" style=""width:200px; border:14px solid green;"">","null","","","","","",""
"","image-keyboard-response","188","128224","0.0-188.0","3WQQ9FUS6BGUG3PORZEM2ORC9GD8BB","AMHUDJ44HF1ZH","3WPCIUYH1AU470H2HRBLZRFBM3CTDN","","284.90000000596046","img/food1.png","76","285.40000000596046","2","1","4","0.8,0.2,0.8,0.2,0.2,0.8,0.2,0.8",""
"","html-keyboard-response","189","128526","0.0-189.0","3WQQ9FUS6BGUG3PORZEM2ORC9GD8BB","AMHUDJ44HF1ZH","3WPCIUYH1AU470H2HRBLZRFBM3CTDN","","null","<img src=""img/food1.png"" style=""width:200px; border:14px solid green;"">","null","","","","","",""
"","image-keyboard-response","190","129010","0.0-190.0","3WQQ9FUS6BGUG3PORZEM2ORC9GD8BB","AMHUDJ44HF1ZH","3WPCIUYH1AU470H2HRBLZRFBM3CTDN","","483","img/food2.png","76","483.59999999403954","2","0","1","0.8,0.2,0.8,0.2,0.2,0.8,0.2,0.8",""
"","html-keyboard-response","191","129311","0.0-191.0","3WQQ9FUS6BGUG3PORZEM2ORC9GD8BB","AMHUDJ44HF1ZH","3WPCIUYH1AU470H2HRBLZRFBM3CTDN","","null","<img src=""img/food2.png"" style=""width:200px;border:14px solid red;"">","null","","","","","",""
"","image-keyboard-response","192","130127","0.0-192.0","3WQQ9FUS6BGUG3PORZEM2ORC9GD8BB","AMHUDJ44HF1ZH","3WPCIUYH1AU470H2HRBLZRFBM3CTDN","","815.6999999880791","img/food4.png","75","816.1999999880791","1","1","2","0.8,0.2,0.8,0.2,0.2,0.8,0.2,0.8",""
"","html-keyboard-response","193","130428","0.0-193.0","3WQQ9FUS6BGUG3PORZEM2ORC9GD8BB","AMHUDJ44HF1ZH","3WPCIUYH1AU470H2HRBLZRFBM3CTDN","","null","<img src=""img/food4.png"" style=""width:200px; border:14px solid green;"">","null","","","","","",""
"","image-keyboard-response","194","131330","0.0-194.0","3WQQ9FUS6BGUG3PORZEM2ORC9GD8BB","AMHUDJ44HF1ZH","3WPCIUYH1AU470H2HRBLZRFBM3CTDN","","901","img/food2.png","76","901.5","2","0","1","0.8,0.2,0.8,0.2,0.2,0.8,0.2,0.8",""
"","html-keyboard-response","195","131632","0.0-195.0","3WQQ9FUS6BGUG3PORZEM2ORC9GD8BB","AMHUDJ44HF1ZH","3WPCIUYH1AU470H2HRBLZRFBM3CTDN","","null","<img src=""img/food2.png"" style=""width:200px;border:14px solid red;"">","null","","","","","",""
"","image-keyboard-response","196","132413","0.0-196.0","3WQQ9FUS6BGUG3PORZEM2ORC9GD8BB","AMHUDJ44HF1ZH","3WPCIUYH1AU470H2HRBLZRFBM3CTDN","","780.8999999761581","img/food1.png","76","781.5","2","1","4","0.8,0.2,0.8,0.2,0.2,0.8,0.2,0.8",""
"","html-keyboard-response","197","132715","0.0-197.0","3WQQ9FUS6BGUG3PORZEM2ORC9GD8BB","AMHUDJ44HF1ZH","3WPCIUYH1AU470H2HRBLZRFBM3CTDN","","null","<img src=""img/food1.png"" style=""width:200px; border:14px solid green;"">","null","","","","","",""
"","image-keyboard-response","198","133040","0.0-198.0","3WQQ9FUS6BGUG3PORZEM2ORC9GD8BB","AMHUDJ44HF1ZH","3WPCIUYH1AU470H2HRBLZRFBM3CTDN","","325","img/food4.png","76","325.40000000596046","2","0","2","0.8,0.2,0.8,0.2,0.2,0.8,0.2,0.8",""
"","html-keyboard-response","199","133343","0.0-199.0","3WQQ9FUS6BGUG3PORZEM2ORC9GD8BB","AMHUDJ44HF1ZH","3WPCIUYH1AU470H2HRBLZRFBM3CTDN","","null","<img src=""img/food4.png"" style=""width:200px;border:14px solid red;"">","null","","","","","",""
"","image-keyboard-response","200","134199","0.0-200.0","3WQQ9FUS6BGUG3PORZEM2ORC9GD8BB","AMHUDJ44HF1ZH","3WPCIUYH1AU470H2HRBLZRFBM3CTDN","","855.4000000059605","img/food4.png","75","855.8000000119209","1","1","2","0.8,0.2,0.8,0.2,0.2,0.8,0.2,0.8",""
"","html-keyboard-response","201","134501","0.0-201.0","3WQQ9FUS6BGUG3PORZEM2ORC9GD8BB","AMHUDJ44HF1ZH","3WPCIUYH1AU470H2HRBLZRFBM3CTDN","","null","<img src=""img/food4.png"" style=""width:200px; border:14px solid green;"">","null","","","","","",""
"","image-keyboard-response","202","134820","0.0-202.0","3WQQ9FUS6BGUG3PORZEM2ORC9GD8BB","AMHUDJ44HF1ZH","3WPCIUYH1AU470H2HRBLZRFBM3CTDN","","318.09999999403954","img/food4.png","75","318.59999999403954","1","0","2","0.8,0.2,0.8,0.2,0.2,0.8,0.2,0.8",""
"","html-keyboard-response","203","135121","0.0-203.0","3WQQ9FUS6BGUG3PORZEM2ORC9GD8BB","AMHUDJ44HF1ZH","3WPCIUYH1AU470H2HRBLZRFBM3CTDN","","null","<img src=""img/food4.png"" style=""width:200px;border:14px solid red;"">","null","","","","","",""
"","image-keyboard-response","204","135709","0.0-204.0","3WQQ9FUS6BGUG3PORZEM2ORC9GD8BB","AMHUDJ44HF1ZH","3WPCIUYH1AU470H2HRBLZRFBM3CTDN","","587.5","img/food5.png","75","588.0999999940395","1","1","3","0.8,0.2,0.8,0.2,0.2,0.8,0.2,0.8",""
"","html-keyboard-response","205","136011","0.0-205.0","3WQQ9FUS6BGUG3PORZEM2ORC9GD8BB","AMHUDJ44HF1ZH","3WPCIUYH1AU470H2HRBLZRFBM3CTDN","","null","<img src=""img/food5.png"" style=""width:200px; border:14px solid green;"">","null","","","","","",""
"","image-keyboard-response","206","136525","0.0-206.0","3WQQ9FUS6BGUG3PORZEM2ORC9GD8BB","AMHUDJ44HF1ZH","3WPCIUYH1AU470H2HRBLZRFBM3CTDN","","513.8000000119209","img/food5.png","75","514.4000000059605","1","0","3","0.8,0.2,0.8,0.2,0.2,0.8,0.2,0.8",""
"","html-keyboard-response","207","136826","0.0-207.0","3WQQ9FUS6BGUG3PORZEM2ORC9GD8BB","AMHUDJ44HF1ZH","3WPCIUYH1AU470H2HRBLZRFBM3CTDN","","null","<img src=""img/food5.png"" style=""width:200px;border:14px solid red;"">","null","","","","","",""
"","image-keyboard-response","208","137109","0.0-208.0","3WQQ9FUS6BGUG3PORZEM2ORC9GD8BB","AMHUDJ44HF1ZH","3WPCIUYH1AU470H2HRBLZRFBM3CTDN","","282.30000001192093","img/food5.png","75","282.80000001192093","1","0","3","0.8,0.2,0.8,0.2,0.2,0.8,0.2,0.8",""
"","html-keyboard-response","209","137411","0.0-209.0","3WQQ9FUS6BGUG3PORZEM2ORC9GD8BB","AMHUDJ44HF1ZH","3WPCIUYH1AU470H2HRBLZRFBM3CTDN","","null","<img src=""img/food5.png"" style=""width:200px;border:14px solid red;"">","null","","","","","",""
"","image-keyboard-response","210","138158","0.0-210.0","3WQQ9FUS6BGUG3PORZEM2ORC9GD8BB","AMHUDJ44HF1ZH","3WPCIUYH1AU470H2HRBLZRFBM3CTDN","","746","img/food2.png","75","746.5999999940395","1","1","1","0.8,0.2,0.8,0.2,0.2,0.8,0.2,0.8",""
"","html-keyboard-response","211","138459","0.0-211.0","3WQQ9FUS6BGUG3PORZEM2ORC9GD8BB","AMHUDJ44HF1ZH","3WPCIUYH1AU470H2HRBLZRFBM3CTDN","","null","<img src=""img/food2.png"" style=""width:200px; border:14px solid green;"">","null","","","","","",""
"","image-keyboard-response","212","139439","0.0-212.0","3WQQ9FUS6BGUG3PORZEM2ORC9GD8BB","AMHUDJ44HF1ZH","3WPCIUYH1AU470H2HRBLZRFBM3CTDN","","980","img/food5.png","76","980.5","2","1","3","0.8,0.2,0.8,0.2,0.2,0.8,0.2,0.8",""
"","html-keyboard-response","213","139742","0.0-213.0","3WQQ9FUS6BGUG3PORZEM2ORC9GD8BB","AMHUDJ44HF1ZH","3WPCIUYH1AU470H2HRBLZRFBM3CTDN","","null","<img src=""img/food5.png"" style=""width:200px; border:14px solid green;"">","null","","","","","",""
"","image-keyboard-response","214","140063","0.0-214.0","3WQQ9FUS6BGUG3PORZEM2ORC9GD8BB","AMHUDJ44HF1ZH","3WPCIUYH1AU470H2HRBLZRFBM3CTDN","","320.80000001192093","img/food4.png","76","321.2000000178814","2","0","2","0.8,0.2,0.8,0.2,0.2,0.8,0.2,0.8",""
"","html-keyboard-response","215","140364","0.0-215.0","3WQQ9FUS6BGUG3PORZEM2ORC9GD8BB","AMHUDJ44HF1ZH","3WPCIUYH1AU470H2HRBLZRFBM3CTDN","","null","<img src=""img/food4.png"" style=""width:200px;border:14px solid red;"">","null","","","","","",""
"","image-keyboard-response","216","140965","0.0-216.0","3WQQ9FUS6BGUG3PORZEM2ORC9GD8BB","AMHUDJ44HF1ZH","3WPCIUYH1AU470H2HRBLZRFBM3CTDN","","600.3000000119209","img/food4.png","75","600.6999999880791","1","1","2","0.8,0.2,0.8,0.2,0.2,0.8,0.2,0.8",""
"","html-keyboard-response","217","141266","0.0-217.0","3WQQ9FUS6BGUG3PORZEM2ORC9GD8BB","AMHUDJ44HF1ZH","3WPCIUYH1AU470H2HRBLZRFBM3CTDN","","null","<img src=""img/food4.png"" style=""width:200px; border:14px solid green;"">","null","","","","","",""
"","image-keyboard-response","218","141589","0.0-218.0","3WQQ9FUS6BGUG3PORZEM2ORC9GD8BB","AMHUDJ44HF1ZH","3WPCIUYH1AU470H2HRBLZRFBM3CTDN","","321.90000000596046","img/food5.png","75","322.40000000596046","1","0","3","0.8,0.2,0.8,0.2,0.2,0.8,0.2,0.8",""
"","html-keyboard-response","219","141890","0.0-219.0","3WQQ9FUS6BGUG3PORZEM2ORC9GD8BB","AMHUDJ44HF1ZH","3WPCIUYH1AU470H2HRBLZRFBM3CTDN","","null","<img src=""img/food5.png"" style=""width:200px;border:14px solid red;"">","null","","","","","",""
"","image-keyboard-response","220","142963","0.0-220.0","3WQQ9FUS6BGUG3PORZEM2ORC9GD8BB","AMHUDJ44HF1ZH","3WPCIUYH1AU470H2HRBLZRFBM3CTDN","","1072.0999999940395","img/food4.png","75","1072.5999999940395","1","1","2","0.8,0.2,0.8,0.2,0.2,0.8,0.2,0.8",""
"","html-keyboard-response","221","143265","0.0-221.0","3WQQ9FUS6BGUG3PORZEM2ORC9GD8BB","AMHUDJ44HF1ZH","3WPCIUYH1AU470H2HRBLZRFBM3CTDN","","null","<img src=""img/food4.png"" style=""width:200px; border:14px solid green;"">","null","","","","","",""
"","image-keyboard-response","222","144005","0.0-222.0","3WQQ9FUS6BGUG3PORZEM2ORC9GD8BB","AMHUDJ44HF1ZH","3WPCIUYH1AU470H2HRBLZRFBM3CTDN","","740.2000000178814","img/food1.png","76","740.5999999940395","2","1","4","0.8,0.2,0.8,0.2,0.2,0.8,0.2,0.8",""
"","html-keyboard-response","223","144307","0.0-223.0","3WQQ9FUS6BGUG3PORZEM2ORC9GD8BB","AMHUDJ44HF1ZH","3WPCIUYH1AU470H2HRBLZRFBM3CTDN","","null","<img src=""img/food1.png"" style=""width:200px; border:14px solid green;"">","null","","","","","",""
"","image-keyboard-response","224","145174","0.0-224.0","3WQQ9FUS6BGUG3PORZEM2ORC9GD8BB","AMHUDJ44HF1ZH","3WPCIUYH1AU470H2HRBLZRFBM3CTDN","","866.6999999880791","img/food4.png","75","867","1","1","2","0.8,0.2,0.8,0.2,0.2,0.8,0.2,0.8",""
"","html-keyboard-response","225","145475","0.0-225.0","3WQQ9FUS6BGUG3PORZEM2ORC9GD8BB","AMHUDJ44HF1ZH","3WPCIUYH1AU470H2HRBLZRFBM3CTDN","","null","<img src=""img/food4.png"" style=""width:200px; border:14px solid green;"">","null","","","","","",""
"","image-keyboard-response","226","147250","0.0-226.0","3WQQ9FUS6BGUG3PORZEM2ORC9GD8BB","AMHUDJ44HF1ZH","3WPCIUYH1AU470H2HRBLZRFBM3CTDN","","1774.5","img/food2.png","75","1775","1","1","1","0.8,0.2,0.8,0.2,0.2,0.8,0.2,0.8",""
"","html-keyboard-response","227","147551","0.0-227.0","3WQQ9FUS6BGUG3PORZEM2ORC9GD8BB","AMHUDJ44HF1ZH","3WPCIUYH1AU470H2HRBLZRFBM3CTDN","","null","<img src=""img/food2.png"" style=""width:200px; border:14px solid green;"">","null","","","","","",""
"","image-keyboard-response","228","148075","0.0-228.0","3WQQ9FUS6BGUG3PORZEM2ORC9GD8BB","AMHUDJ44HF1ZH","3WPCIUYH1AU470H2HRBLZRFBM3CTDN","","522.8000000119209","img/food2.png","75","523.3999999761581","1","1","1","0.8,0.2,0.8,0.2,0.2,0.8,0.2,0.8",""
"","html-keyboard-response","229","148376","0.0-229.0","3WQQ9FUS6BGUG3PORZEM2ORC9GD8BB","AMHUDJ44HF1ZH","3WPCIUYH1AU470H2HRBLZRFBM3CTDN","","null","<img src=""img/food2.png"" style=""width:200px; border:14px solid green;"">","null","","","","","",""
"","image-keyboard-response","230","149159","0.0-230.0","3WQQ9FUS6BGUG3PORZEM2ORC9GD8BB","AMHUDJ44HF1ZH","3WPCIUYH1AU470H2HRBLZRFBM3CTDN","","781.8999999761581","img/food5.png","76","782.5","2","0","3","0.8,0.2,0.8,0.2,0.2,0.8,0.2,0.8",""
"","html-keyboard-response","231","149461","0.0-231.0","3WQQ9FUS6BGUG3PORZEM2ORC9GD8BB","AMHUDJ44HF1ZH","3WPCIUYH1AU470H2HRBLZRFBM3CTDN","","null","<img src=""img/food5.png"" style=""width:200px;border:14px solid red;"">","null","","","","","",""
"","image-keyboard-response","232","149816","0.0-232.0","3WQQ9FUS6BGUG3PORZEM2ORC9GD8BB","AMHUDJ44HF1ZH","3WPCIUYH1AU470H2HRBLZRFBM3CTDN","","354.40000000596046","img/food5.png","76","354.90000000596046","2","1","3","0.8,0.2,0.8,0.2,0.2,0.8,0.2,0.8",""
"","html-keyboard-response","233","150124","0.0-233.0","3WQQ9FUS6BGUG3PORZEM2ORC9GD8BB","AMHUDJ44HF1ZH","3WPCIUYH1AU470H2HRBLZRFBM3CTDN","","null","<img src=""img/food5.png"" style=""width:200px; border:14px solid green;"">","null","","","","","",""
"","image-keyboard-response","234","150435","0.0-234.0","3WQQ9FUS6BGUG3PORZEM2ORC9GD8BB","AMHUDJ44HF1ZH","3WPCIUYH1AU470H2HRBLZRFBM3CTDN","","310.60000002384186","img/food5.png","76","311","2","1","3","0.8,0.2,0.8,0.2,0.2,0.8,0.2,0.8",""
"","html-keyboard-response","235","150736","0.0-235.0","3WQQ9FUS6BGUG3PORZEM2ORC9GD8BB","AMHUDJ44HF1ZH","3WPCIUYH1AU470H2HRBLZRFBM3CTDN","","null","<img src=""img/food5.png"" style=""width:200px; border:14px solid green;"">","null","","","","","",""
"","image-keyboard-response","236","151445","0.0-236.0","3WQQ9FUS6BGUG3PORZEM2ORC9GD8BB","AMHUDJ44HF1ZH","3WPCIUYH1AU470H2HRBLZRFBM3CTDN","","707.8000000119209","img/food4.png","75","708.1999999880791","1","1","2","0.8,0.2,0.8,0.2,0.2,0.8,0.2,0.8",""
"","html-keyboard-response","237","151746","0.0-237.0","3WQQ9FUS6BGUG3PORZEM2ORC9GD8BB","AMHUDJ44HF1ZH","3WPCIUYH1AU470H2HRBLZRFBM3CTDN","","null","<img src=""img/food4.png"" style=""width:200px; border:14px solid green;"">","null","","","","","",""
"","image-keyboard-response","238","152071","0.0-238.0","3WQQ9FUS6BGUG3PORZEM2ORC9GD8BB","AMHUDJ44HF1ZH","3WPCIUYH1AU470H2HRBLZRFBM3CTDN","","324.69999998807907","img/food4.png","75","325.30000001192093","1","0","2","0.8,0.2,0.8,0.2,0.2,0.8,0.2,0.8",""
"","html-keyboard-response","239","152372","0.0-239.0","3WQQ9FUS6BGUG3PORZEM2ORC9GD8BB","AMHUDJ44HF1ZH","3WPCIUYH1AU470H2HRBLZRFBM3CTDN","","null","<img src=""img/food4.png"" style=""width:200px;border:14px solid red;"">","null","","","","","",""
"","image-keyboard-response","240","152833","0.0-240.0","3WQQ9FUS6BGUG3PORZEM2ORC9GD8BB","AMHUDJ44HF1ZH","3WPCIUYH1AU470H2HRBLZRFBM3CTDN","","460.2999999821186","img/food2.png","76","460.80000001192093","2","0","1","0.8,0.2,0.8,0.2,0.2,0.8,0.2,0.8",""
"","html-keyboard-response","241","153134","0.0-241.0","3WQQ9FUS6BGUG3PORZEM2ORC9GD8BB","AMHUDJ44HF1ZH","3WPCIUYH1AU470H2HRBLZRFBM3CTDN","","null","<img src=""img/food2.png"" style=""width:200px;border:14px solid red;"">","null","","","","","",""
"","html-keyboard-response","242","158291","0.0-242.0","3WQQ9FUS6BGUG3PORZEM2ORC9GD8BB","AMHUDJ44HF1ZH","3WPCIUYH1AU470H2HRBLZRFBM3CTDN","","","","","","","","","",""
"","image-keyboard-response","243","162290","0.0-243.0","3WQQ9FUS6BGUG3PORZEM2ORC9GD8BB","AMHUDJ44HF1ZH","3WPCIUYH1AU470H2HRBLZRFBM3CTDN","","3998","img/food8.png","75","3998.699999988079","1","0","1","0.2,0.8,0.2,0.8,0.2,0.8,0.8,0.2",""
"","html-keyboard-response","244","162590","0.0-244.0","3WQQ9FUS6BGUG3PORZEM2ORC9GD8BB","AMHUDJ44HF1ZH","3WPCIUYH1AU470H2HRBLZRFBM3CTDN","","null","<img src=""img/food8.png"" style=""width:200px;border:14px solid red;"">","null","","","","","",""
"","image-keyboard-response","245","163054","0.0-245.0","3WQQ9FUS6BGUG3PORZEM2ORC9GD8BB","AMHUDJ44HF1ZH","3WPCIUYH1AU470H2HRBLZRFBM3CTDN","","463","img/food6.png","76","463.59999999403954","2","1","4","0.2,0.8,0.2,0.8,0.2,0.8,0.8,0.2",""
"","html-keyboard-response","246","163355","0.0-246.0","3WQQ9FUS6BGUG3PORZEM2ORC9GD8BB","AMHUDJ44HF1ZH","3WPCIUYH1AU470H2HRBLZRFBM3CTDN","","null","<img src=""img/food6.png"" style=""width:200px; border:14px solid green;"">","null","","","","","",""
"","image-keyboard-response","247","164523","0.0-247.0","3WQQ9FUS6BGUG3PORZEM2ORC9GD8BB","AMHUDJ44HF1ZH","3WPCIUYH1AU470H2HRBLZRFBM3CTDN","","1167.5","img/food6.png","76","1168","2","0","4","0.2,0.8,0.2,0.8,0.2,0.8,0.8,0.2",""
"","html-keyboard-response","248","164824","0.0-248.0","3WQQ9FUS6BGUG3PORZEM2ORC9GD8BB","AMHUDJ44HF1ZH","3WPCIUYH1AU470H2HRBLZRFBM3CTDN","","null","<img src=""img/food6.png"" style=""width:200px;border:14px solid red;"">","null","","","","","",""
"","image-keyboard-response","249","165103","0.0-249.0","3WQQ9FUS6BGUG3PORZEM2ORC9GD8BB","AMHUDJ44HF1ZH","3WPCIUYH1AU470H2HRBLZRFBM3CTDN","","278.60000002384186","img/food7.png","76","279","2","1","2","0.2,0.8,0.2,0.8,0.2,0.8,0.8,0.2",""
"","html-keyboard-response","250","165404","0.0-250.0","3WQQ9FUS6BGUG3PORZEM2ORC9GD8BB","AMHUDJ44HF1ZH","3WPCIUYH1AU470H2HRBLZRFBM3CTDN","","null","<img src=""img/food7.png"" style=""width:200px; border:14px solid green;"">","null","","","","","",""
"","image-keyboard-response","251","165810","0.0-251.0","3WQQ9FUS6BGUG3PORZEM2ORC9GD8BB","AMHUDJ44HF1ZH","3WPCIUYH1AU470H2HRBLZRFBM3CTDN","","404.59999999403954","img/food8.png","76","405.09999999403954","2","1","1","0.2,0.8,0.2,0.8,0.2,0.8,0.8,0.2",""
"","html-keyboard-response","252","166119","0.0-252.0","3WQQ9FUS6BGUG3PORZEM2ORC9GD8BB","AMHUDJ44HF1ZH","3WPCIUYH1AU470H2HRBLZRFBM3CTDN","","null","<img src=""img/food8.png"" style=""width:200px; border:14px solid green;"">","null","","","","","",""
"","image-keyboard-response","253","166478","0.0-253.0","3WQQ9FUS6BGUG3PORZEM2ORC9GD8BB","AMHUDJ44HF1ZH","3WPCIUYH1AU470H2HRBLZRFBM3CTDN","","359.2000000178814","img/food3.png","76","359.59999999403954","2","1","3","0.2,0.8,0.2,0.8,0.2,0.8,0.8,0.2",""
"","html-keyboard-response","254","166779","0.0-254.0","3WQQ9FUS6BGUG3PORZEM2ORC9GD8BB","AMHUDJ44HF1ZH","3WPCIUYH1AU470H2HRBLZRFBM3CTDN","","null","<img src=""img/food3.png"" style=""width:200px; border:14px solid green;"">","null","","","","","",""
"","image-keyboard-response","255","167047","0.0-255.0","3WQQ9FUS6BGUG3PORZEM2ORC9GD8BB","AMHUDJ44HF1ZH","3WPCIUYH1AU470H2HRBLZRFBM3CTDN","","267.30000001192093","img/food3.png","76","267.90000000596046","2","1","3","0.2,0.8,0.2,0.8,0.2,0.8,0.8,0.2",""
"","html-keyboard-response","256","167348","0.0-256.0","3WQQ9FUS6BGUG3PORZEM2ORC9GD8BB","AMHUDJ44HF1ZH","3WPCIUYH1AU470H2HRBLZRFBM3CTDN","","null","<img src=""img/food3.png"" style=""width:200px; border:14px solid green;"">","null","","","","","",""
"","image-keyboard-response","257","167615","0.0-257.0","3WQQ9FUS6BGUG3PORZEM2ORC9GD8BB","AMHUDJ44HF1ZH","3WPCIUYH1AU470H2HRBLZRFBM3CTDN","","266.7000000178814","img/food7.png","76","267.09999999403954","2","0","2","0.2,0.8,0.2,0.8,0.2,0.8,0.8,0.2",""
"","html-keyboard-response","258","167916","0.0-258.0","3WQQ9FUS6BGUG3PORZEM2ORC9GD8BB","AMHUDJ44HF1ZH","3WPCIUYH1AU470H2HRBLZRFBM3CTDN","","null","<img src=""img/food7.png"" style=""width:200px;border:14px solid red;"">","null","","","","","",""
"","image-keyboard-response","259","168552","0.0-259.0","3WQQ9FUS6BGUG3PORZEM2ORC9GD8BB","AMHUDJ44HF1ZH","3WPCIUYH1AU470H2HRBLZRFBM3CTDN","","635.1999999880791","img/food7.png","75","635.6999999880791","1","0","2","0.2,0.8,0.2,0.8,0.2,0.8,0.8,0.2",""
"","html-keyboard-response","260","168854","0.0-260.0","3WQQ9FUS6BGUG3PORZEM2ORC9GD8BB","AMHUDJ44HF1ZH","3WPCIUYH1AU470H2HRBLZRFBM3CTDN","","null","<img src=""img/food7.png"" style=""width:200px;border:14px solid red;"">","null","","","","","",""
"","image-keyboard-response","261","169478","0.0-261.0","3WQQ9FUS6BGUG3PORZEM2ORC9GD8BB","AMHUDJ44HF1ZH","3WPCIUYH1AU470H2HRBLZRFBM3CTDN","","623.3999999761581","img/food7.png","75","623.9000000059605","1","0","2","0.2,0.8,0.2,0.8,0.2,0.8,0.8,0.2",""
"","html-keyboard-response","262","169779","0.0-262.0","3WQQ9FUS6BGUG3PORZEM2ORC9GD8BB","AMHUDJ44HF1ZH","3WPCIUYH1AU470H2HRBLZRFBM3CTDN","","null","<img src=""img/food7.png"" style=""width:200px;border:14px solid red;"">","null","","","","","",""
"","image-keyboard-response","263","170374","0.0-263.0","3WQQ9FUS6BGUG3PORZEM2ORC9GD8BB","AMHUDJ44HF1ZH","3WPCIUYH1AU470H2HRBLZRFBM3CTDN","","594.5","img/food3.png","76","595","2","1","3","0.2,0.8,0.2,0.8,0.2,0.8,0.8,0.2",""
"","html-keyboard-response","264","170675","0.0-264.0","3WQQ9FUS6BGUG3PORZEM2ORC9GD8BB","AMHUDJ44HF1ZH","3WPCIUYH1AU470H2HRBLZRFBM3CTDN","","null","<img src=""img/food3.png"" style=""width:200px; border:14px solid green;"">","null","","","","","",""
"","image-keyboard-response","265","170906","0.0-265.0","3WQQ9FUS6BGUG3PORZEM2ORC9GD8BB","AMHUDJ44HF1ZH","3WPCIUYH1AU470H2HRBLZRFBM3CTDN","","229.40000000596046","img/food3.png","76","230","2","1","3","0.2,0.8,0.2,0.8,0.2,0.8,0.8,0.2",""
"","html-keyboard-response","266","171207","0.0-266.0","3WQQ9FUS6BGUG3PORZEM2ORC9GD8BB","AMHUDJ44HF1ZH","3WPCIUYH1AU470H2HRBLZRFBM3CTDN","","null","<img src=""img/food3.png"" style=""width:200px; border:14px solid green;"">","null","","","","","",""
"","image-keyboard-response","267","171449","0.0-267.0","3WQQ9FUS6BGUG3PORZEM2ORC9GD8BB","AMHUDJ44HF1ZH","3WPCIUYH1AU470H2HRBLZRFBM3CTDN","","241.90000000596046","img/food3.png","76","242.40000000596046","2","1","3","0.2,0.8,0.2,0.8,0.2,0.8,0.8,0.2",""
"","html-keyboard-response","268","171751","0.0-268.0","3WQQ9FUS6BGUG3PORZEM2ORC9GD8BB","AMHUDJ44HF1ZH","3WPCIUYH1AU470H2HRBLZRFBM3CTDN","","null","<img src=""img/food3.png"" style=""width:200px; border:14px solid green;"">","null","","","","","",""
"","image-keyboard-response","269","171963","0.0-269.0","3WQQ9FUS6BGUG3PORZEM2ORC9GD8BB","AMHUDJ44HF1ZH","3WPCIUYH1AU470H2HRBLZRFBM3CTDN","","211.2999999821186","img/food6.png","76","211.69999998807907","2","0","4","0.2,0.8,0.2,0.8,0.2,0.8,0.8,0.2",""
"","html-keyboard-response","270","172265","0.0-270.0","3WQQ9FUS6BGUG3PORZEM2ORC9GD8BB","AMHUDJ44HF1ZH","3WPCIUYH1AU470H2HRBLZRFBM3CTDN","","null","<img src=""img/food6.png"" style=""width:200px;border:14px solid red;"">","null","","","","","",""
"","image-keyboard-response","271","172730","0.0-271.0","3WQQ9FUS6BGUG3PORZEM2ORC9GD8BB","AMHUDJ44HF1ZH","3WPCIUYH1AU470H2HRBLZRFBM3CTDN","","464.40000000596046","img/food8.png","75","465","1","0","1","0.2,0.8,0.2,0.8,0.2,0.8,0.8,0.2",""
"","html-keyboard-response","272","173031","0.0-272.0","3WQQ9FUS6BGUG3PORZEM2ORC9GD8BB","AMHUDJ44HF1ZH","3WPCIUYH1AU470H2HRBLZRFBM3CTDN","","null","<img src=""img/food8.png"" style=""width:200px;border:14px solid red;"">","null","","","","","",""
"","image-keyboard-response","273","173206","0.0-273.0","3WQQ9FUS6BGUG3PORZEM2ORC9GD8BB","AMHUDJ44HF1ZH","3WPCIUYH1AU470H2HRBLZRFBM3CTDN","","174.2000000178814","img/food8.png","75","174.80000001192093","1","0","1","0.2,0.8,0.2,0.8,0.2,0.8,0.8,0.2",""
"","html-keyboard-response","274","173507","0.0-274.0","3WQQ9FUS6BGUG3PORZEM2ORC9GD8BB","AMHUDJ44HF1ZH","3WPCIUYH1AU470H2HRBLZRFBM3CTDN","","null","<img src=""img/food8.png"" style=""width:200px;border:14px solid red;"">","null","","","","","",""
"","image-keyboard-response","275","174198","0.0-275.0","3WQQ9FUS6BGUG3PORZEM2ORC9GD8BB","AMHUDJ44HF1ZH","3WPCIUYH1AU470H2HRBLZRFBM3CTDN","","690.3000000119209","img/food6.png","76","690.7999999821186","2","0","4","0.2,0.8,0.2,0.8,0.2,0.8,0.8,0.2",""
"","html-keyboard-response","276","174499","0.0-276.0","3WQQ9FUS6BGUG3PORZEM2ORC9GD8BB","AMHUDJ44HF1ZH","3WPCIUYH1AU470H2HRBLZRFBM3CTDN","","null","<img src=""img/food6.png"" style=""width:200px;border:14px solid red;"">","null","","","","","",""
"","image-keyboard-response","277","174834","0.0-277.0","3WQQ9FUS6BGUG3PORZEM2ORC9GD8BB","AMHUDJ44HF1ZH","3WPCIUYH1AU470H2HRBLZRFBM3CTDN","","334.19999998807907","img/food7.png","76","334.80000001192093","2","0","2","0.2,0.8,0.2,0.8,0.2,0.8,0.8,0.2",""
"","html-keyboard-response","278","175135","0.0-278.0","3WQQ9FUS6BGUG3PORZEM2ORC9GD8BB","AMHUDJ44HF1ZH","3WPCIUYH1AU470H2HRBLZRFBM3CTDN","","null","<img src=""img/food7.png"" style=""width:200px;border:14px solid red;"">","null","","","","","",""
"","image-keyboard-response","279","175555","0.0-279.0","3WQQ9FUS6BGUG3PORZEM2ORC9GD8BB","AMHUDJ44HF1ZH","3WPCIUYH1AU470H2HRBLZRFBM3CTDN","","419.7000000178814","img/food7.png","75","420.09999999403954","1","0","2","0.2,0.8,0.2,0.8,0.2,0.8,0.8,0.2",""
"","html-keyboard-response","280","175858","0.0-280.0","3WQQ9FUS6BGUG3PORZEM2ORC9GD8BB","AMHUDJ44HF1ZH","3WPCIUYH1AU470H2HRBLZRFBM3CTDN","","null","<img src=""img/food7.png"" style=""width:200px;border:14px solid red;"">","null","","","","","",""
"","image-keyboard-response","281","176050","0.0-281.0","3WQQ9FUS6BGUG3PORZEM2ORC9GD8BB","AMHUDJ44HF1ZH","3WPCIUYH1AU470H2HRBLZRFBM3CTDN","","192.19999998807907","img/food6.png","75","192.7000000178814","1","1","4","0.2,0.8,0.2,0.8,0.2,0.8,0.8,0.2",""
"","html-keyboard-response","282","176351","0.0-282.0","3WQQ9FUS6BGUG3PORZEM2ORC9GD8BB","AMHUDJ44HF1ZH","3WPCIUYH1AU470H2HRBLZRFBM3CTDN","","null","<img src=""img/food6.png"" style=""width:200px; border:14px solid green;"">","null","","","","","",""
"","image-keyboard-response","283","176876","0.0-283.0","3WQQ9FUS6BGUG3PORZEM2ORC9GD8BB","AMHUDJ44HF1ZH","3WPCIUYH1AU470H2HRBLZRFBM3CTDN","","524.8999999761581","img/food3.png","75","525.4000000059605","1","1","3","0.2,0.8,0.2,0.8,0.2,0.8,0.8,0.2",""
"","html-keyboard-response","284","177178","0.0-284.0","3WQQ9FUS6BGUG3PORZEM2ORC9GD8BB","AMHUDJ44HF1ZH","3WPCIUYH1AU470H2HRBLZRFBM3CTDN","","null","<img src=""img/food3.png"" style=""width:200px; border:14px solid green;"">","null","","","","","",""
"","image-keyboard-response","285","177429","0.0-285.0","3WQQ9FUS6BGUG3PORZEM2ORC9GD8BB","AMHUDJ44HF1ZH","3WPCIUYH1AU470H2HRBLZRFBM3CTDN","","250.09999999403954","img/food7.png","75","250.59999999403954","1","0","2","0.2,0.8,0.2,0.8,0.2,0.8,0.8,0.2",""
"","html-keyboard-response","286","177730","0.0-286.0","3WQQ9FUS6BGUG3PORZEM2ORC9GD8BB","AMHUDJ44HF1ZH","3WPCIUYH1AU470H2HRBLZRFBM3CTDN","","null","<img src=""img/food7.png"" style=""width:200px;border:14px solid red;"">","null","","","","","",""
"","image-keyboard-response","287","178240","0.0-287.0","3WQQ9FUS6BGUG3PORZEM2ORC9GD8BB","AMHUDJ44HF1ZH","3WPCIUYH1AU470H2HRBLZRFBM3CTDN","","509","img/food3.png","75","509.7000000178814","1","0","3","0.2,0.8,0.2,0.8,0.2,0.8,0.8,0.2",""
"","html-keyboard-response","288","178541","0.0-288.0","3WQQ9FUS6BGUG3PORZEM2ORC9GD8BB","AMHUDJ44HF1ZH","3WPCIUYH1AU470H2HRBLZRFBM3CTDN","","null","<img src=""img/food3.png"" style=""width:200px;border:14px solid red;"">","null","","","","","",""
"","image-keyboard-response","289","178814","0.0-289.0","3WQQ9FUS6BGUG3PORZEM2ORC9GD8BB","AMHUDJ44HF1ZH","3WPCIUYH1AU470H2HRBLZRFBM3CTDN","","272.40000000596046","img/food8.png","75","272.89999997615814","1","1","1","0.2,0.8,0.2,0.8,0.2,0.8,0.8,0.2",""
"","html-keyboard-response","290","179116","0.0-290.0","3WQQ9FUS6BGUG3PORZEM2ORC9GD8BB","AMHUDJ44HF1ZH","3WPCIUYH1AU470H2HRBLZRFBM3CTDN","","null","<img src=""img/food8.png"" style=""width:200px; border:14px solid green;"">","null","","","","","",""
"","image-keyboard-response","291","179507","0.0-291.0","3WQQ9FUS6BGUG3PORZEM2ORC9GD8BB","AMHUDJ44HF1ZH","3WPCIUYH1AU470H2HRBLZRFBM3CTDN","","390.30000001192093","img/food3.png","75","390.7999999821186","1","0","3","0.2,0.8,0.2,0.8,0.2,0.8,0.8,0.2",""
"","html-keyboard-response","292","179817","0.0-292.0","3WQQ9FUS6BGUG3PORZEM2ORC9GD8BB","AMHUDJ44HF1ZH","3WPCIUYH1AU470H2HRBLZRFBM3CTDN","","null","<img src=""img/food3.png"" style=""width:200px;border:14px solid red;"">","null","","","","","",""
"","image-keyboard-response","293","180109","0.0-293.0","3WQQ9FUS6BGUG3PORZEM2ORC9GD8BB","AMHUDJ44HF1ZH","3WPCIUYH1AU470H2HRBLZRFBM3CTDN","","291.5","img/food8.png","75","292","1","0","1","0.2,0.8,0.2,0.8,0.2,0.8,0.8,0.2",""
"","html-keyboard-response","294","180411","0.0-294.0","3WQQ9FUS6BGUG3PORZEM2ORC9GD8BB","AMHUDJ44HF1ZH","3WPCIUYH1AU470H2HRBLZRFBM3CTDN","","null","<img src=""img/food8.png"" style=""width:200px;border:14px solid red;"">","null","","","","","",""
"","image-keyboard-response","295","180717","0.0-295.0","3WQQ9FUS6BGUG3PORZEM2ORC9GD8BB","AMHUDJ44HF1ZH","3WPCIUYH1AU470H2HRBLZRFBM3CTDN","","305.39999997615814","img/food6.png","75","305.90000000596046","1","1","4","0.2,0.8,0.2,0.8,0.2,0.8,0.8,0.2",""
"","html-keyboard-response","296","181019","0.0-296.0","3WQQ9FUS6BGUG3PORZEM2ORC9GD8BB","AMHUDJ44HF1ZH","3WPCIUYH1AU470H2HRBLZRFBM3CTDN","","null","<img src=""img/food6.png"" style=""width:200px; border:14px solid green;"">","null","","","","","",""
"","image-keyboard-response","297","181368","0.0-297.0","3WQQ9FUS6BGUG3PORZEM2ORC9GD8BB","AMHUDJ44HF1ZH","3WPCIUYH1AU470H2HRBLZRFBM3CTDN","","348.59999999403954","img/food8.png","76","349.09999999403954","2","1","1","0.2,0.8,0.2,0.8,0.2,0.8,0.8,0.2",""
"","html-keyboard-response","298","181669","0.0-298.0","3WQQ9FUS6BGUG3PORZEM2ORC9GD8BB","AMHUDJ44HF1ZH","3WPCIUYH1AU470H2HRBLZRFBM3CTDN","","null","<img src=""img/food8.png"" style=""width:200px; border:14px solid green;"">","null","","","","","",""
"","image-keyboard-response","299","181900","0.0-299.0","3WQQ9FUS6BGUG3PORZEM2ORC9GD8BB","AMHUDJ44HF1ZH","3WPCIUYH1AU470H2HRBLZRFBM3CTDN","","231","img/food8.png","76","231.5","2","1","1","0.2,0.8,0.2,0.8,0.2,0.8,0.8,0.2",""
"","html-keyboard-response","300","182202","0.0-300.0","3WQQ9FUS6BGUG3PORZEM2ORC9GD8BB","AMHUDJ44HF1ZH","3WPCIUYH1AU470H2HRBLZRFBM3CTDN","","null","<img src=""img/food8.png"" style=""width:200px; border:14px solid green;"">","null","","","","","",""
"","image-keyboard-response","301","182462","0.0-301.0","3WQQ9FUS6BGUG3PORZEM2ORC9GD8BB","AMHUDJ44HF1ZH","3WPCIUYH1AU470H2HRBLZRFBM3CTDN","","259.19999998807907","img/food7.png","76","259.59999999403954","2","1","2","0.2,0.8,0.2,0.8,0.2,0.8,0.8,0.2",""
"","html-keyboard-response","302","182764","0.0-302.0","3WQQ9FUS6BGUG3PORZEM2ORC9GD8BB","AMHUDJ44HF1ZH","3WPCIUYH1AU470H2HRBLZRFBM3CTDN","","null","<img src=""img/food7.png"" style=""width:200px; border:14px solid green;"">","null","","","","","",""
"","image-keyboard-response","303","182926","0.0-303.0","3WQQ9FUS6BGUG3PORZEM2ORC9GD8BB","AMHUDJ44HF1ZH","3WPCIUYH1AU470H2HRBLZRFBM3CTDN","","161.5","img/food8.png","76","162.09999999403954","2","1","1","0.2,0.8,0.2,0.8,0.2,0.8,0.8,0.2",""
"","html-keyboard-response","304","183228","0.0-304.0","3WQQ9FUS6BGUG3PORZEM2ORC9GD8BB","AMHUDJ44HF1ZH","3WPCIUYH1AU470H2HRBLZRFBM3CTDN","","null","<img src=""img/food8.png"" style=""width:200px; border:14px solid green;"">","null","","","","","",""
"","image-keyboard-response","305","183387","0.0-305.0","3WQQ9FUS6BGUG3PORZEM2ORC9GD8BB","AMHUDJ44HF1ZH","3WPCIUYH1AU470H2HRBLZRFBM3CTDN","","159.40000000596046","img/food6.png","76","159.80000001192093","2","1","4","0.2,0.8,0.2,0.8,0.2,0.8,0.8,0.2",""
"","html-keyboard-response","306","183689","0.0-306.0","3WQQ9FUS6BGUG3PORZEM2ORC9GD8BB","AMHUDJ44HF1ZH","3WPCIUYH1AU470H2HRBLZRFBM3CTDN","","null","<img src=""img/food6.png"" style=""width:200px; border:14px solid green;"">","null","","","","","",""
"","image-keyboard-response","307","183803","0.0-307.0","3WQQ9FUS6BGUG3PORZEM2ORC9GD8BB","AMHUDJ44HF1ZH","3WPCIUYH1AU470H2HRBLZRFBM3CTDN","","113.19999998807907","img/food3.png","76","113.69999998807907","2","1","3","0.2,0.8,0.2,0.8,0.2,0.8,0.8,0.2",""
"","html-keyboard-response","308","184105","0.0-308.0","3WQQ9FUS6BGUG3PORZEM2ORC9GD8BB","AMHUDJ44HF1ZH","3WPCIUYH1AU470H2HRBLZRFBM3CTDN","","null","<img src=""img/food3.png"" style=""width:200px; border:14px solid green;"">","null","","","","","",""
"","image-keyboard-response","309","184301","0.0-309.0","3WQQ9FUS6BGUG3PORZEM2ORC9GD8BB","AMHUDJ44HF1ZH","3WPCIUYH1AU470H2HRBLZRFBM3CTDN","","195.30000001192093","img/food6.png","76","195.90000000596046","2","1","4","0.2,0.8,0.2,0.8,0.2,0.8,0.8,0.2",""
"","html-keyboard-response","310","184603","0.0-310.0","3WQQ9FUS6BGUG3PORZEM2ORC9GD8BB","AMHUDJ44HF1ZH","3WPCIUYH1AU470H2HRBLZRFBM3CTDN","","null","<img src=""img/food6.png"" style=""width:200px; border:14px solid green;"">","null","","","","","",""
"","image-keyboard-response","311","184794","0.0-311.0","3WQQ9FUS6BGUG3PORZEM2ORC9GD8BB","AMHUDJ44HF1ZH","3WPCIUYH1AU470H2HRBLZRFBM3CTDN","","190.7999999821186","img/food6.png","76","191.30000001192093","2","0","4","0.2,0.8,0.2,0.8,0.2,0.8,0.8,0.2",""
"","html-keyboard-response","312","185095","0.0-312.0","3WQQ9FUS6BGUG3PORZEM2ORC9GD8BB","AMHUDJ44HF1ZH","3WPCIUYH1AU470H2HRBLZRFBM3CTDN","","null","<img src=""img/food6.png"" style=""width:200px;border:14px solid red;"">","null","","","","","",""
"","image-keyboard-response","313","185396","0.0-313.0","3WQQ9FUS6BGUG3PORZEM2ORC9GD8BB","AMHUDJ44HF1ZH","3WPCIUYH1AU470H2HRBLZRFBM3CTDN","","300.69999998807907","img/food8.png","76","301.30000001192093","2","1","1","0.2,0.8,0.2,0.8,0.2,0.8,0.8,0.2",""
"","html-keyboard-response","314","185697","0.0-314.0","3WQQ9FUS6BGUG3PORZEM2ORC9GD8BB","AMHUDJ44HF1ZH","3WPCIUYH1AU470H2HRBLZRFBM3CTDN","","null","<img src=""img/food8.png"" style=""width:200px; border:14px solid green;"">","null","","","","","",""
"","image-keyboard-response","315","185728","0.0-315.0","3WQQ9FUS6BGUG3PORZEM2ORC9GD8BB","AMHUDJ44HF1ZH","3WPCIUYH1AU470H2HRBLZRFBM3CTDN","","29.900000005960464","img/food7.png","76","30.400000005960464","2","1","2","0.2,0.8,0.2,0.8,0.2,0.8,0.8,0.2",""
"","html-keyboard-response","316","186030","0.0-316.0","3WQQ9FUS6BGUG3PORZEM2ORC9GD8BB","AMHUDJ44HF1ZH","3WPCIUYH1AU470H2HRBLZRFBM3CTDN","","null","<img src=""img/food7.png"" style=""width:200px; border:14px solid green;"">","null","","","","","",""
"","image-keyboard-response","317","186170","0.0-317.0","3WQQ9FUS6BGUG3PORZEM2ORC9GD8BB","AMHUDJ44HF1ZH","3WPCIUYH1AU470H2HRBLZRFBM3CTDN","","139.09999999403954","img/food6.png","76","139.59999999403954","2","0","4","0.2,0.8,0.2,0.8,0.2,0.8,0.8,0.2",""
"","html-keyboard-response","318","186470","0.0-318.0","3WQQ9FUS6BGUG3PORZEM2ORC9GD8BB","AMHUDJ44HF1ZH","3WPCIUYH1AU470H2HRBLZRFBM3CTDN","","null","<img src=""img/food6.png"" style=""width:200px;border:14px solid red;"">","null","","","","","",""
"","image-keyboard-response","319","186501","0.0-319.0","3WQQ9FUS6BGUG3PORZEM2ORC9GD8BB","AMHUDJ44HF1ZH","3WPCIUYH1AU470H2HRBLZRFBM3CTDN","","30.69999998807907","img/food3.png","76","31.30000001192093","2","1","3","0.2,0.8,0.2,0.8,0.2,0.8,0.8,0.2",""
"","html-keyboard-response","320","186803","0.0-320.0","3WQQ9FUS6BGUG3PORZEM2ORC9GD8BB","AMHUDJ44HF1ZH","3WPCIUYH1AU470H2HRBLZRFBM3CTDN","","null","<img src=""img/food3.png"" style=""width:200px; border:14px solid green;"">","null","","","","","",""
"","image-keyboard-response","321","186867","0.0-321.0","3WQQ9FUS6BGUG3PORZEM2ORC9GD8BB","AMHUDJ44HF1ZH","3WPCIUYH1AU470H2HRBLZRFBM3CTDN","","63.70000001788139","img/food6.png","76","64.19999998807907","2","1","4","0.2,0.8,0.2,0.8,0.2,0.8,0.8,0.2",""
"","html-keyboard-response","322","187168","0.0-322.0","3WQQ9FUS6BGUG3PORZEM2ORC9GD8BB","AMHUDJ44HF1ZH","3WPCIUYH1AU470H2HRBLZRFBM3CTDN","","null","<img src=""img/food6.png"" style=""width:200px; border:14px solid green;"">","null","","","","","",""
"","image-keyboard-response","323","187426","0.0-323.0","3WQQ9FUS6BGUG3PORZEM2ORC9GD8BB","AMHUDJ44HF1ZH","3WPCIUYH1AU470H2HRBLZRFBM3CTDN","","257.2000000178814","img/food6.png","76","257.59999999403954","2","0","4","0.2,0.8,0.2,0.8,0.2,0.8,0.8,0.2",""
"","html-keyboard-response","324","187727","0.0-324.0","3WQQ9FUS6BGUG3PORZEM2ORC9GD8BB","AMHUDJ44HF1ZH","3WPCIUYH1AU470H2HRBLZRFBM3CTDN","","null","<img src=""img/food6.png"" style=""width:200px;border:14px solid red;"">","null","","","","","",""
"","image-keyboard-response","325","187961","0.0-325.0","3WQQ9FUS6BGUG3PORZEM2ORC9GD8BB","AMHUDJ44HF1ZH","3WPCIUYH1AU470H2HRBLZRFBM3CTDN","","233.2000000178814","img/food8.png","76","233.69999998807907","2","1","1","0.2,0.8,0.2,0.8,0.2,0.8,0.8,0.2",""
"","html-keyboard-response","326","188262","0.0-326.0","3WQQ9FUS6BGUG3PORZEM2ORC9GD8BB","AMHUDJ44HF1ZH","3WPCIUYH1AU470H2HRBLZRFBM3CTDN","","null","<img src=""img/food8.png"" style=""width:200px; border:14px solid green;"">","null","","","","","",""
"","image-keyboard-response","327","189191","0.0-327.0","3WQQ9FUS6BGUG3PORZEM2ORC9GD8BB","AMHUDJ44HF1ZH","3WPCIUYH1AU470H2HRBLZRFBM3CTDN","","928","img/food7.png","76","928.5","2","1","2","0.2,0.8,0.2,0.8,0.2,0.8,0.8,0.2",""
"","html-keyboard-response","328","189492","0.0-328.0","3WQQ9FUS6BGUG3PORZEM2ORC9GD8BB","AMHUDJ44HF1ZH","3WPCIUYH1AU470H2HRBLZRFBM3CTDN","","null","<img src=""img/food7.png"" style=""width:200px; border:14px solid green;"">","null","","","","","",""
"","image-keyboard-response","329","189848","0.0-329.0","3WQQ9FUS6BGUG3PORZEM2ORC9GD8BB","AMHUDJ44HF1ZH","3WPCIUYH1AU470H2HRBLZRFBM3CTDN","","356.09999999403954","img/food8.png","76","356.59999999403954","2","1","1","0.2,0.8,0.2,0.8,0.2,0.8,0.8,0.2",""
"","html-keyboard-response","330","190150","0.0-330.0","3WQQ9FUS6BGUG3PORZEM2ORC9GD8BB","AMHUDJ44HF1ZH","3WPCIUYH1AU470H2HRBLZRFBM3CTDN","","null","<img src=""img/food8.png"" style=""width:200px; border:14px solid green;"">","null","","","","","",""
"","image-keyboard-response","331","190220","0.0-331.0","3WQQ9FUS6BGUG3PORZEM2ORC9GD8BB","AMHUDJ44HF1ZH","3WPCIUYH1AU470H2HRBLZRFBM3CTDN","","69.19999998807907","img/food8.png","76","69.80000001192093","2","0","1","0.2,0.8,0.2,0.8,0.2,0.8,0.8,0.2",""
"","html-keyboard-response","332","190522","0.0-332.0","3WQQ9FUS6BGUG3PORZEM2ORC9GD8BB","AMHUDJ44HF1ZH","3WPCIUYH1AU470H2HRBLZRFBM3CTDN","","null","<img src=""img/food8.png"" style=""width:200px;border:14px solid red;"">","null","","","","","",""
"","image-keyboard-response","333","190927","0.0-333.0","3WQQ9FUS6BGUG3PORZEM2ORC9GD8BB","AMHUDJ44HF1ZH","3WPCIUYH1AU470H2HRBLZRFBM3CTDN","","404.80000001192093","img/food8.png","76","405.30000001192093","2","1","1","0.2,0.8,0.2,0.8,0.2,0.8,0.8,0.2",""
"","html-keyboard-response","334","191228","0.0-334.0","3WQQ9FUS6BGUG3PORZEM2ORC9GD8BB","AMHUDJ44HF1ZH","3WPCIUYH1AU470H2HRBLZRFBM3CTDN","","null","<img src=""img/food8.png"" style=""width:200px; border:14px solid green;"">","null","","","","","",""
"","image-keyboard-response","335","191420","0.0-335.0","3WQQ9FUS6BGUG3PORZEM2ORC9GD8BB","AMHUDJ44HF1ZH","3WPCIUYH1AU470H2HRBLZRFBM3CTDN","","191.5","img/food3.png","76","191.80000001192093","2","1","3","0.2,0.8,0.2,0.8,0.2,0.8,0.8,0.2",""
"","html-keyboard-response","336","191722","0.0-336.0","3WQQ9FUS6BGUG3PORZEM2ORC9GD8BB","AMHUDJ44HF1ZH","3WPCIUYH1AU470H2HRBLZRFBM3CTDN","","null","<img src=""img/food3.png"" style=""width:200px; border:14px solid green;"">","null","","","","","",""
"","image-keyboard-response","337","192011","0.0-337.0","3WQQ9FUS6BGUG3PORZEM2ORC9GD8BB","AMHUDJ44HF1ZH","3WPCIUYH1AU470H2HRBLZRFBM3CTDN","","288.89999997615814","img/food8.png","76","289.30000001192093","2","0","1","0.2,0.8,0.2,0.8,0.2,0.8,0.8,0.2",""
"","html-keyboard-response","338","192313","0.0-338.0","3WQQ9FUS6BGUG3PORZEM2ORC9GD8BB","AMHUDJ44HF1ZH","3WPCIUYH1AU470H2HRBLZRFBM3CTDN","","null","<img src=""img/food8.png"" style=""width:200px;border:14px solid red;"">","null","","","","","",""
"","image-keyboard-response","339","192429","0.0-339.0","3WQQ9FUS6BGUG3PORZEM2ORC9GD8BB","AMHUDJ44HF1ZH","3WPCIUYH1AU470H2HRBLZRFBM3CTDN","","115.5","img/food3.png","76","116","2","1","3","0.2,0.8,0.2,0.8,0.2,0.8,0.8,0.2",""
"","html-keyboard-response","340","192730","0.0-340.0","3WQQ9FUS6BGUG3PORZEM2ORC9GD8BB","AMHUDJ44HF1ZH","3WPCIUYH1AU470H2HRBLZRFBM3CTDN","","null","<img src=""img/food3.png"" style=""width:200px; border:14px solid green;"">","null","","","","","",""
"","image-keyboard-response","341","192739","0.0-341.0","3WQQ9FUS6BGUG3PORZEM2ORC9GD8BB","AMHUDJ44HF1ZH","3WPCIUYH1AU470H2HRBLZRFBM3CTDN","","8.599999994039536","img/food8.png","76","9","2","1","1","0.2,0.8,0.2,0.8,0.2,0.8,0.8,0.2",""
"","html-keyboard-response","342","193040","0.0-342.0","3WQQ9FUS6BGUG3PORZEM2ORC9GD8BB","AMHUDJ44HF1ZH","3WPCIUYH1AU470H2HRBLZRFBM3CTDN","","null","<img src=""img/food8.png"" style=""width:200px; border:14px solid green;"">","null","","","","","",""
"","image-keyboard-response","343","193326","0.0-343.0","3WQQ9FUS6BGUG3PORZEM2ORC9GD8BB","AMHUDJ44HF1ZH","3WPCIUYH1AU470H2HRBLZRFBM3CTDN","","285.7999999821186","img/food8.png","76","286.30000001192093","2","0","1","0.2,0.8,0.2,0.8,0.2,0.8,0.8,0.2",""
"","html-keyboard-response","344","193637","0.0-344.0","3WQQ9FUS6BGUG3PORZEM2ORC9GD8BB","AMHUDJ44HF1ZH","3WPCIUYH1AU470H2HRBLZRFBM3CTDN","","null","<img src=""img/food8.png"" style=""width:200px;border:14px solid red;"">","null","","","","","",""
"","image-keyboard-response","345","193751","0.0-345.0","3WQQ9FUS6BGUG3PORZEM2ORC9GD8BB","AMHUDJ44HF1ZH","3WPCIUYH1AU470H2HRBLZRFBM3CTDN","","113.5","img/food7.png","76","114.09999999403954","2","1","2","0.2,0.8,0.2,0.8,0.2,0.8,0.8,0.2",""
"","html-keyboard-response","346","194052","0.0-346.0","3WQQ9FUS6BGUG3PORZEM2ORC9GD8BB","AMHUDJ44HF1ZH","3WPCIUYH1AU470H2HRBLZRFBM3CTDN","","null","<img src=""img/food7.png"" style=""width:200px; border:14px solid green;"">","null","","","","","",""
"","image-keyboard-response","347","194291","0.0-347.0","3WQQ9FUS6BGUG3PORZEM2ORC9GD8BB","AMHUDJ44HF1ZH","3WPCIUYH1AU470H2HRBLZRFBM3CTDN","","238","img/food3.png","76","238.59999999403954","2","1","3","0.2,0.8,0.2,0.8,0.2,0.8,0.8,0.2",""
"","html-keyboard-response","348","194593","0.0-348.0","3WQQ9FUS6BGUG3PORZEM2ORC9GD8BB","AMHUDJ44HF1ZH","3WPCIUYH1AU470H2HRBLZRFBM3CTDN","","null","<img src=""img/food3.png"" style=""width:200px; border:14px solid green;"">","null","","","","","",""
"","image-keyboard-response","349","194783","0.0-349.0","3WQQ9FUS6BGUG3PORZEM2ORC9GD8BB","AMHUDJ44HF1ZH","3WPCIUYH1AU470H2HRBLZRFBM3CTDN","","189.7999999821186","img/food7.png","76","190.2000000178814","2","1","2","0.2,0.8,0.2,0.8,0.2,0.8,0.8,0.2",""
"","html-keyboard-response","350","195085","0.0-350.0","3WQQ9FUS6BGUG3PORZEM2ORC9GD8BB","AMHUDJ44HF1ZH","3WPCIUYH1AU470H2HRBLZRFBM3CTDN","","null","<img src=""img/food7.png"" style=""width:200px; border:14px solid green;"">","null","","","","","",""
"","image-keyboard-response","351","195579","0.0-351.0","3WQQ9FUS6BGUG3PORZEM2ORC9GD8BB","AMHUDJ44HF1ZH","3WPCIUYH1AU470H2HRBLZRFBM3CTDN","","493.30000001192093","img/food7.png","76","493.7999999821186","2","1","2","0.2,0.8,0.2,0.8,0.2,0.8,0.8,0.2",""
"","html-keyboard-response","352","195881","0.0-352.0","3WQQ9FUS6BGUG3PORZEM2ORC9GD8BB","AMHUDJ44HF1ZH","3WPCIUYH1AU470H2HRBLZRFBM3CTDN","","null","<img src=""img/food7.png"" style=""width:200px; border:14px solid green;"">","null","","","","","",""
"","image-keyboard-response","353","196224","0.0-353.0","3WQQ9FUS6BGUG3PORZEM2ORC9GD8BB","AMHUDJ44HF1ZH","3WPCIUYH1AU470H2HRBLZRFBM3CTDN","","342.40000000596046","img/food3.png","76","342.80000001192093","2","1","3","0.2,0.8,0.2,0.8,0.2,0.8,0.8,0.2",""
"","html-keyboard-response","354","196525","0.0-354.0","3WQQ9FUS6BGUG3PORZEM2ORC9GD8BB","AMHUDJ44HF1ZH","3WPCIUYH1AU470H2HRBLZRFBM3CTDN","","null","<img src=""img/food3.png"" style=""width:200px; border:14px solid green;"">","null","","","","","",""
"","image-keyboard-response","355","196749","0.0-355.0","3WQQ9FUS6BGUG3PORZEM2ORC9GD8BB","AMHUDJ44HF1ZH","3WPCIUYH1AU470H2HRBLZRFBM3CTDN","","223.60000002384186","img/food3.png","76","224.09999999403954","2","1","3","0.2,0.8,0.2,0.8,0.2,0.8,0.8,0.2",""
"","html-keyboard-response","356","197051","0.0-356.0","3WQQ9FUS6BGUG3PORZEM2ORC9GD8BB","AMHUDJ44HF1ZH","3WPCIUYH1AU470H2HRBLZRFBM3CTDN","","null","<img src=""img/food3.png"" style=""width:200px; border:14px solid green;"">","null","","","","","",""
"","image-keyboard-response","357","197162","0.0-357.0","3WQQ9FUS6BGUG3PORZEM2ORC9GD8BB","AMHUDJ44HF1ZH","3WPCIUYH1AU470H2HRBLZRFBM3CTDN","","110","img/food8.png","76","110.59999999403954","2","1","1","0.2,0.8,0.2,0.8,0.2,0.8,0.8,0.2",""
"","html-keyboard-response","358","197463","0.0-358.0","3WQQ9FUS6BGUG3PORZEM2ORC9GD8BB","AMHUDJ44HF1ZH","3WPCIUYH1AU470H2HRBLZRFBM3CTDN","","null","<img src=""img/food8.png"" style=""width:200px; border:14px solid green;"">","null","","","","","",""
"","image-keyboard-response","359","197578","0.0-359.0","3WQQ9FUS6BGUG3PORZEM2ORC9GD8BB","AMHUDJ44HF1ZH","3WPCIUYH1AU470H2HRBLZRFBM3CTDN","","114.2999999821186","img/food7.png","76","114.69999998807907","2","1","2","0.2,0.8,0.2,0.8,0.2,0.8,0.8,0.2",""
"","html-keyboard-response","360","197878","0.0-360.0","3WQQ9FUS6BGUG3PORZEM2ORC9GD8BB","AMHUDJ44HF1ZH","3WPCIUYH1AU470H2HRBLZRFBM3CTDN","","null","<img src=""img/food7.png"" style=""width:200px; border:14px solid green;"">","null","","","","","",""
"","image-keyboard-response","361","198150","0.0-361.0","3WQQ9FUS6BGUG3PORZEM2ORC9GD8BB","AMHUDJ44HF1ZH","3WPCIUYH1AU470H2HRBLZRFBM3CTDN","","270.90000000596046","img/food7.png","76","271.5","2","1","2","0.2,0.8,0.2,0.8,0.2,0.8,0.8,0.2",""
"","html-keyboard-response","362","198453","0.0-362.0","3WQQ9FUS6BGUG3PORZEM2ORC9GD8BB","AMHUDJ44HF1ZH","3WPCIUYH1AU470H2HRBLZRFBM3CTDN","","null","<img src=""img/food7.png"" style=""width:200px; border:14px solid green;"">","null","","","","","",""
"","image-keyboard-response","363","198595","0.0-363.0","3WQQ9FUS6BGUG3PORZEM2ORC9GD8BB","AMHUDJ44HF1ZH","3WPCIUYH1AU470H2HRBLZRFBM3CTDN","","140.69999998807907","img/food6.png","76","141.2999999821186","2","0","4","0.2,0.8,0.2,0.8,0.2,0.8,0.8,0.2",""
"","html-keyboard-response","364","198896","0.0-364.0","3WQQ9FUS6BGUG3PORZEM2ORC9GD8BB","AMHUDJ44HF1ZH","3WPCIUYH1AU470H2HRBLZRFBM3CTDN","","null","<img src=""img/food6.png"" style=""width:200px;border:14px solid red;"">","null","","","","","",""
"","image-keyboard-response","365","199135","0.0-365.0","3WQQ9FUS6BGUG3PORZEM2ORC9GD8BB","AMHUDJ44HF1ZH","3WPCIUYH1AU470H2HRBLZRFBM3CTDN","","238.30000001192093","img/food3.png","76","238.7000000178814","2","1","3","0.2,0.8,0.2,0.8,0.2,0.8,0.8,0.2",""
"","html-keyboard-response","366","199436","0.0-366.0","3WQQ9FUS6BGUG3PORZEM2ORC9GD8BB","AMHUDJ44HF1ZH","3WPCIUYH1AU470H2HRBLZRFBM3CTDN","","null","<img src=""img/food3.png"" style=""width:200px; border:14px solid green;"">","null","","","","","",""
"","image-keyboard-response","367","199525","0.0-367.0","3WQQ9FUS6BGUG3PORZEM2ORC9GD8BB","AMHUDJ44HF1ZH","3WPCIUYH1AU470H2HRBLZRFBM3CTDN","","88.2000000178814","img/food3.png","76","88.7000000178814","2","1","3","0.2,0.8,0.2,0.8,0.2,0.8,0.8,0.2",""
"","html-keyboard-response","368","199826","0.0-368.0","3WQQ9FUS6BGUG3PORZEM2ORC9GD8BB","AMHUDJ44HF1ZH","3WPCIUYH1AU470H2HRBLZRFBM3CTDN","","null","<img src=""img/food3.png"" style=""width:200px; border:14px solid green;"">","null","","","","","",""
"","image-keyboard-response","369","199949","0.0-369.0","3WQQ9FUS6BGUG3PORZEM2ORC9GD8BB","AMHUDJ44HF1ZH","3WPCIUYH1AU470H2HRBLZRFBM3CTDN","","122.90000000596046","img/food6.png","76","123.40000000596046","2","0","4","0.2,0.8,0.2,0.8,0.2,0.8,0.8,0.2",""
"","html-keyboard-response","370","200250","0.0-370.0","3WQQ9FUS6BGUG3PORZEM2ORC9GD8BB","AMHUDJ44HF1ZH","3WPCIUYH1AU470H2HRBLZRFBM3CTDN","","null","<img src=""img/food6.png"" style=""width:200px;border:14px solid red;"">","null","","","","","",""
"","image-keyboard-response","371","200343","0.0-371.0","3WQQ9FUS6BGUG3PORZEM2ORC9GD8BB","AMHUDJ44HF1ZH","3WPCIUYH1AU470H2HRBLZRFBM3CTDN","","92.2000000178814","img/food7.png","76","92.69999998807907","2","1","2","0.2,0.8,0.2,0.8,0.2,0.8,0.8,0.2",""
"","html-keyboard-response","372","200644","0.0-372.0","3WQQ9FUS6BGUG3PORZEM2ORC9GD8BB","AMHUDJ44HF1ZH","3WPCIUYH1AU470H2HRBLZRFBM3CTDN","","null","<img src=""img/food7.png"" style=""width:200px; border:14px solid green;"">","null","","","","","",""
"","image-keyboard-response","373","200657","0.0-373.0","3WQQ9FUS6BGUG3PORZEM2ORC9GD8BB","AMHUDJ44HF1ZH","3WPCIUYH1AU470H2HRBLZRFBM3CTDN","","12.099999994039536","img/food6.png","76","12.599999994039536","2","0","4","0.2,0.8,0.2,0.8,0.2,0.8,0.8,0.2",""
"","html-keyboard-response","374","200958","0.0-374.0","3WQQ9FUS6BGUG3PORZEM2ORC9GD8BB","AMHUDJ44HF1ZH","3WPCIUYH1AU470H2HRBLZRFBM3CTDN","","null","<img src=""img/food6.png"" style=""width:200px;border:14px solid red;"">","null","","","","","",""
"","image-keyboard-response","375","201161","0.0-375.0","3WQQ9FUS6BGUG3PORZEM2ORC9GD8BB","AMHUDJ44HF1ZH","3WPCIUYH1AU470H2HRBLZRFBM3CTDN","","202.69999998807907","img/food7.png","76","203.09999999403954","2","0","2","0.2,0.8,0.2,0.8,0.2,0.8,0.8,0.2",""
"","html-keyboard-response","376","201462","0.0-376.0","3WQQ9FUS6BGUG3PORZEM2ORC9GD8BB","AMHUDJ44HF1ZH","3WPCIUYH1AU470H2HRBLZRFBM3CTDN","","null","<img src=""img/food7.png"" style=""width:200px;border:14px solid red;"">","null","","","","","",""
"","image-keyboard-response","377","201640","0.0-377.0","3WQQ9FUS6BGUG3PORZEM2ORC9GD8BB","AMHUDJ44HF1ZH","3WPCIUYH1AU470H2HRBLZRFBM3CTDN","","177.2000000178814","img/food3.png","76","177.5","2","1","3","0.2,0.8,0.2,0.8,0.2,0.8,0.8,0.2",""
"","html-keyboard-response","378","201941","0.0-378.0","3WQQ9FUS6BGUG3PORZEM2ORC9GD8BB","AMHUDJ44HF1ZH","3WPCIUYH1AU470H2HRBLZRFBM3CTDN","","null","<img src=""img/food3.png"" style=""width:200px; border:14px solid green;"">","null","","","","","",""
"","image-keyboard-response","379","202153","0.0-379.0","3WQQ9FUS6BGUG3PORZEM2ORC9GD8BB","AMHUDJ44HF1ZH","3WPCIUYH1AU470H2HRBLZRFBM3CTDN","","211.39999997615814","img/food3.png","76","212","2","0","3","0.2,0.8,0.2,0.8,0.2,0.8,0.8,0.2",""
"","html-keyboard-response","380","202454","0.0-380.0","3WQQ9FUS6BGUG3PORZEM2ORC9GD8BB","AMHUDJ44HF1ZH","3WPCIUYH1AU470H2HRBLZRFBM3CTDN","","null","<img src=""img/food3.png"" style=""width:200px;border:14px solid red;"">","null","","","","","",""
"","image-keyboard-response","381","202589","0.0-381.0","3WQQ9FUS6BGUG3PORZEM2ORC9GD8BB","AMHUDJ44HF1ZH","3WPCIUYH1AU470H2HRBLZRFBM3CTDN","","134.2999999821186","img/food6.png","76","134.80000001192093","2","0","4","0.2,0.8,0.2,0.8,0.2,0.8,0.8,0.2",""
"","html-keyboard-response","382","202891","0.0-382.0","3WQQ9FUS6BGUG3PORZEM2ORC9GD8BB","AMHUDJ44HF1ZH","3WPCIUYH1AU470H2HRBLZRFBM3CTDN","","null","<img src=""img/food6.png"" style=""width:200px;border:14px solid red;"">","null","","","","","",""
"","image-keyboard-response","383","203092","0.0-383.0","3WQQ9FUS6BGUG3PORZEM2ORC9GD8BB","AMHUDJ44HF1ZH","3WPCIUYH1AU470H2HRBLZRFBM3CTDN","","200.90000000596046","img/food3.png","76","201.40000000596046","2","1","3","0.2,0.8,0.2,0.8,0.2,0.8,0.8,0.2",""
"","html-keyboard-response","384","203394","0.0-384.0","3WQQ9FUS6BGUG3PORZEM2ORC9GD8BB","AMHUDJ44HF1ZH","3WPCIUYH1AU470H2HRBLZRFBM3CTDN","","null","<img src=""img/food3.png"" style=""width:200px; border:14px solid green;"">","null","","","","","",""
"","image-keyboard-response","385","203467","0.0-385.0","3WQQ9FUS6BGUG3PORZEM2ORC9GD8BB","AMHUDJ44HF1ZH","3WPCIUYH1AU470H2HRBLZRFBM3CTDN","","73.19999998807907","img/food8.png","76","73.60000002384186","2","1","1","0.2,0.8,0.2,0.8,0.2,0.8,0.8,0.2",""
"","html-keyboard-response","386","203768","0.0-386.0","3WQQ9FUS6BGUG3PORZEM2ORC9GD8BB","AMHUDJ44HF1ZH","3WPCIUYH1AU470H2HRBLZRFBM3CTDN","","null","<img src=""img/food8.png"" style=""width:200px; border:14px solid green;"">","null","","","","","",""
"","image-keyboard-response","387","203898","0.0-387.0","3WQQ9FUS6BGUG3PORZEM2ORC9GD8BB","AMHUDJ44HF1ZH","3WPCIUYH1AU470H2HRBLZRFBM3CTDN","","129.19999998807907","img/food8.png","76","129.69999998807907","2","1","1","0.2,0.8,0.2,0.8,0.2,0.8,0.8,0.2",""
"","html-keyboard-response","388","204199","0.0-388.0","3WQQ9FUS6BGUG3PORZEM2ORC9GD8BB","AMHUDJ44HF1ZH","3WPCIUYH1AU470H2HRBLZRFBM3CTDN","","null","<img src=""img/food8.png"" style=""width:200px; border:14px solid green;"">","null","","","","","",""
"","image-keyboard-response","389","204291","0.0-389.0","3WQQ9FUS6BGUG3PORZEM2ORC9GD8BB","AMHUDJ44HF1ZH","3WPCIUYH1AU470H2HRBLZRFBM3CTDN","","91.69999998807907","img/food6.png","76","92.30000001192093","2","0","4","0.2,0.8,0.2,0.8,0.2,0.8,0.8,0.2",""
"","html-keyboard-response","390","204592","0.0-390.0","3WQQ9FUS6BGUG3PORZEM2ORC9GD8BB","AMHUDJ44HF1ZH","3WPCIUYH1AU470H2HRBLZRFBM3CTDN","","null","<img src=""img/food6.png"" style=""width:200px;border:14px solid red;"">","null","","","","","",""
"","image-keyboard-response","391","204658","0.0-391.0","3WQQ9FUS6BGUG3PORZEM2ORC9GD8BB","AMHUDJ44HF1ZH","3WPCIUYH1AU470H2HRBLZRFBM3CTDN","","65.19999998807907","img/food6.png","76","65.69999998807907","2","1","4","0.2,0.8,0.2,0.8,0.2,0.8,0.8,0.2",""
"","html-keyboard-response","392","204959","0.0-392.0","3WQQ9FUS6BGUG3PORZEM2ORC9GD8BB","AMHUDJ44HF1ZH","3WPCIUYH1AU470H2HRBLZRFBM3CTDN","","null","<img src=""img/food6.png"" style=""width:200px; border:14px solid green;"">","null","","","","","",""
"","image-keyboard-response","393","205321","0.0-393.0","3WQQ9FUS6BGUG3PORZEM2ORC9GD8BB","AMHUDJ44HF1ZH","3WPCIUYH1AU470H2HRBLZRFBM3CTDN","","361.39999997615814","img/food3.png","76","362","2","1","3","0.2,0.8,0.2,0.8,0.2,0.8,0.8,0.2",""
"","html-keyboard-response","394","205622","0.0-394.0","3WQQ9FUS6BGUG3PORZEM2ORC9GD8BB","AMHUDJ44HF1ZH","3WPCIUYH1AU470H2HRBLZRFBM3CTDN","","null","<img src=""img/food3.png"" style=""width:200px; border:14px solid green;"">","null","","","","","",""
"","image-keyboard-response","395","205834","0.0-395.0","3WQQ9FUS6BGUG3PORZEM2ORC9GD8BB","AMHUDJ44HF1ZH","3WPCIUYH1AU470H2HRBLZRFBM3CTDN","","211.5","img/food3.png","76","212","2","1","3","0.2,0.8,0.2,0.8,0.2,0.8,0.8,0.2",""
"","html-keyboard-response","396","206136","0.0-396.0","3WQQ9FUS6BGUG3PORZEM2ORC9GD8BB","AMHUDJ44HF1ZH","3WPCIUYH1AU470H2HRBLZRFBM3CTDN","","null","<img src=""img/food3.png"" style=""width:200px; border:14px solid green;"">","null","","","","","",""
"","image-keyboard-response","397","206280","0.0-397.0","3WQQ9FUS6BGUG3PORZEM2ORC9GD8BB","AMHUDJ44HF1ZH","3WPCIUYH1AU470H2HRBLZRFBM3CTDN","","143.40000000596046","img/food3.png","76","144.09999999403954","2","1","3","0.2,0.8,0.2,0.8,0.2,0.8,0.8,0.2",""
"","html-keyboard-response","398","206582","0.0-398.0","3WQQ9FUS6BGUG3PORZEM2ORC9GD8BB","AMHUDJ44HF1ZH","3WPCIUYH1AU470H2HRBLZRFBM3CTDN","","null","<img src=""img/food3.png"" style=""width:200px; border:14px solid green;"">","null","","","","","",""
"","image-keyboard-response","399","206792","0.0-399.0","3WQQ9FUS6BGUG3PORZEM2ORC9GD8BB","AMHUDJ44HF1ZH","3WPCIUYH1AU470H2HRBLZRFBM3CTDN","","209.2999999821186","img/food6.png","76","209.90000000596046","2","0","4","0.2,0.8,0.2,0.8,0.2,0.8,0.8,0.2",""
"","html-keyboard-response","400","207093","0.0-400.0","3WQQ9FUS6BGUG3PORZEM2ORC9GD8BB","AMHUDJ44HF1ZH","3WPCIUYH1AU470H2HRBLZRFBM3CTDN","","null","<img src=""img/food6.png"" style=""width:200px;border:14px solid red;"">","null","","","","","",""
"","image-keyboard-response","401","207514","0.0-401.0","3WQQ9FUS6BGUG3PORZEM2ORC9GD8BB","AMHUDJ44HF1ZH","3WPCIUYH1AU470H2HRBLZRFBM3CTDN","","419.80000001192093","img/food6.png","76","420.2999999821186","2","0","4","0.2,0.8,0.2,0.8,0.2,0.8,0.8,0.2",""
"","html-keyboard-response","402","207815","0.0-402.0","3WQQ9FUS6BGUG3PORZEM2ORC9GD8BB","AMHUDJ44HF1ZH","3WPCIUYH1AU470H2HRBLZRFBM3CTDN","","null","<img src=""img/food6.png"" style=""width:200px;border:14px solid red;"">","null","","","","","",""
