"success","trial_type","trial_index","time_elapsed","internal_node_id","assignmentID","mturkID","hitID","view_history","rt","stimulus","key_press","reactionTime","a","r","s","cond","reward_cond","reward_cond_actual","reward_matrix_idx","warning","responses"
"true","fullscreen","0","5174","0.0-0.0","3DHE4R9OCXXFL5VAR4XZT856781G2J","AMNYS937UWC8M","3MXX6RQ9EVRTFC527Z18RDK8KW6P4R","","","","","","","","","","","","","",""
"","instructions","1","13518","0.0-1.0","3DHE4R9OCXXFL5VAR4XZT856781G2J","AMNYS937UWC8M","3MXX6RQ9EVRTFC527Z18RDK8KW6P4R","[{""page_index"":0,""viewing_time"":1380},{""page_index"":1,""viewing_time"":930},{""page_index"":2,""viewing_time"":830},{""page_index"":3,""viewing_time"":1430},{""page_index"":4,""viewing_time"":1370},{""page_index"":5,""viewing_time"":1218},{""page_index"":6,""viewing_time"":1182}]","8341","","","","","","","","","","","",""
"","image-keyboard-response","2","14698","0.0-2.0","3DHE4R9OCXXFL5VAR4XZT856781G2J","AMNYS937UWC8M","3MXX6RQ9EVRTFC527Z18RDK8KW6P4R","","1178","img/food4.png","76","1180","3","1","3","1","1,0.5,0,1,0.5,0,0.5,0,1","1,0.5,0,1,0.5,0,0.5,0,1","1","",""
"","html-keyboard-response","3","14999","0.0-3.0","3DHE4R9OCXXFL5VAR4XZT856781G2J","AMNYS937UWC8M","3MXX6RQ9EVRTFC527Z18RDK8KW6P4R","","null","<img src=""img/food4.png"" style=""width:200px; border:14px solid green;"">","null","","","","","","","","","",""
"","image-keyboard-response","4","15017","0.0-4.0","3DHE4R9OCXXFL5VAR4XZT856781G2J","AMNYS937UWC8M","3MXX6RQ9EVRTFC527Z18RDK8KW6P4R","","17","img/food4.png","76","18","3","1","3","1","1,0.5,0,1,0.5,0,0.5,0,1","1,0.5,0,1,0.5,0,0.5,0,1","1","",""
"","html-keyboard-response","5","15318","0.0-5.0","3DHE4R9OCXXFL5VAR4XZT856781G2J","AMNYS937UWC8M","3MXX6RQ9EVRTFC527Z18RDK8KW6P4R","","null","<img src=""img/food4.png"" style=""width:200px; border:14px solid green;"">","null","","","","","","","","","",""
"","image-keyboard-response","6","15367","0.0-6.0","3DHE4R9OCXXFL5VAR4XZT856781G2J","AMNYS937UWC8M","3MXX6RQ9EVRTFC527Z18RDK8KW6P4R","","47","img/food1.png","74","49","1","1","2","1","1,0.5,0,1,0.5,0,0.5,0,1","1,0.5,0,1,0.5,0,0.5,0,1","1","",""
"","html-keyboard-response","7","15668","0.0-7.0","3DHE4R9OCXXFL5VAR4XZT856781G2J","AMNYS937UWC8M","3MXX6RQ9EVRTFC527Z18RDK8KW6P4R","","null","<img src=""img/food1.png"" style=""width:200px; border:14px solid green;"">","null","","","","","","","","","",""
"","image-keyboard-response","8","15717","0.0-8.0","3DHE4R9OCXXFL5VAR4XZT856781G2J","AMNYS937UWC8M","3MXX6RQ9EVRTFC527Z18RDK8KW6P4R","","48","img/food6.png","74","49","1","1","1","1","1,0.5,0,1,0.5,0,0.5,0,1","1,0.5,0,1,0.5,0,0.5,0,1","1","",""
"","html-keyboard-response","9","16019","0.0-9.0","3DHE4R9OCXXFL5VAR4XZT856781G2J","AMNYS937UWC8M","3MXX6RQ9EVRTFC527Z18RDK8KW6P4R","","null","<img src=""img/food6.png"" style=""width:200px; border:14px solid green;"">","null","","","","","","","","","",""
"","image-keyboard-response","10","16087","0.0-10.0","3DHE4R9OCXXFL5VAR4XZT856781G2J","AMNYS937UWC8M","3MXX6RQ9EVRTFC527Z18RDK8KW6P4R","","68","img/food4.png","74","68","1","1","3","1","1,0.5,0,1,0.5,0,0.5,0,1","1,0.5,0,1,0.5,0,0.5,0,1","1","",""
"","html-keyboard-response","11","16389","0.0-11.0","3DHE4R9OCXXFL5VAR4XZT856781G2J","AMNYS937UWC8M","3MXX6RQ9EVRTFC527Z18RDK8KW6P4R","","null","<img src=""img/food4.png"" style=""width:200px; border:14px solid green;"">","null","","","","","","","","","",""
"","image-keyboard-response","12","16477","0.0-12.0","3DHE4R9OCXXFL5VAR4XZT856781G2J","AMNYS937UWC8M","3MXX6RQ9EVRTFC527Z18RDK8KW6P4R","","88","img/food4.png","74","88","1","0","3","1","1,0.5,0,1,0.5,0,0.5,0,1","1,0.5,0,1,0.5,0,0.5,0,1","1","",""
"","html-keyboard-response","13","16778","0.0-13.0","3DHE4R9OCXXFL5VAR4XZT856781G2J","AMNYS937UWC8M","3MXX6RQ9EVRTFC527Z18RDK8KW6P4R","","null","<img src=""img/food4.png"" style=""width:200px;border:14px solid red;"">","null","","","","","","","","","",""
"","image-keyboard-response","14","16805","0.0-14.0","3DHE4R9OCXXFL5VAR4XZT856781G2J","AMNYS937UWC8M","3MXX6RQ9EVRTFC527Z18RDK8KW6P4R","","27","img/food6.png","74","27","1","1","1","1","1,0.5,0,1,0.5,0,0.5,0,1","1,0.5,0,1,0.5,0,0.5,0,1","1","",""
"","html-keyboard-response","15","17107","0.0-15.0","3DHE4R9OCXXFL5VAR4XZT856781G2J","AMNYS937UWC8M","3MXX6RQ9EVRTFC527Z18RDK8KW6P4R","","null","<img src=""img/food6.png"" style=""width:200px; border:14px solid green;"">","null","","","","","","","","","",""
"","image-keyboard-response","16","17107","0.0-16.0","3DHE4R9OCXXFL5VAR4XZT856781G2J","AMNYS937UWC8M","3MXX6RQ9EVRTFC527Z18RDK8KW6P4R","","0","img/food1.png","76","0","3","0","2","1","1,0.5,0,1,0.5,0,0.5,0,1","1,0.5,0,1,0.5,0,0.5,0,1","1","",""
"","html-keyboard-response","17","17409","0.0-17.0","3DHE4R9OCXXFL5VAR4XZT856781G2J","AMNYS937UWC8M","3MXX6RQ9EVRTFC527Z18RDK8KW6P4R","","null","<img src=""img/food1.png"" style=""width:200px;border:14px solid red;"">","null","","","","","","","","","",""
"","image-keyboard-response","18","17432","0.0-18.0","3DHE4R9OCXXFL5VAR4XZT856781G2J","AMNYS937UWC8M","3MXX6RQ9EVRTFC527Z18RDK8KW6P4R","","23","img/food4.png","74","23","1","1","3","1","1,0.5,0,1,0.5,0,0.5,0,1","1,0.5,0,1,0.5,0,0.5,0,1","1","",""
"","html-keyboard-response","19","17734","0.0-19.0","3DHE4R9OCXXFL5VAR4XZT856781G2J","AMNYS937UWC8M","3MXX6RQ9EVRTFC527Z18RDK8KW6P4R","","null","<img src=""img/food4.png"" style=""width:200px; border:14px solid green;"">","null","","","","","","","","","",""
"","image-keyboard-response","20","17741","0.0-20.0","3DHE4R9OCXXFL5VAR4XZT856781G2J","AMNYS937UWC8M","3MXX6RQ9EVRTFC527Z18RDK8KW6P4R","","6","img/food4.png","76","7","3","1","3","1","1,0.5,0,1,0.5,0,0.5,0,1","1,0.5,0,1,0.5,0,0.5,0,1","1","",""
"","html-keyboard-response","21","18042","0.0-21.0","3DHE4R9OCXXFL5VAR4XZT856781G2J","AMNYS937UWC8M","3MXX6RQ9EVRTFC527Z18RDK8KW6P4R","","null","<img src=""img/food4.png"" style=""width:200px; border:14px solid green;"">","null","","","","","","","","","",""
"","image-keyboard-response","22","18067","0.0-22.0","3DHE4R9OCXXFL5VAR4XZT856781G2J","AMNYS937UWC8M","3MXX6RQ9EVRTFC527Z18RDK8KW6P4R","","24","img/food1.png","74","25","1","1","2","1","1,0.5,0,1,0.5,0,0.5,0,1","1,0.5,0,1,0.5,0,0.5,0,1","1","",""
"","html-keyboard-response","23","18369","0.0-23.0","3DHE4R9OCXXFL5VAR4XZT856781G2J","AMNYS937UWC8M","3MXX6RQ9EVRTFC527Z18RDK8KW6P4R","","null","<img src=""img/food1.png"" style=""width:200px; border:14px solid green;"">","null","","","","","","","","","",""
"","image-keyboard-response","24","18473","0.0-24.0","3DHE4R9OCXXFL5VAR4XZT856781G2J","AMNYS937UWC8M","3MXX6RQ9EVRTFC527Z18RDK8KW6P4R","","104","img/food6.png","74","104","1","1","1","1","1,0.5,0,1,0.5,0,0.5,0,1","1,0.5,0,1,0.5,0,0.5,0,1","1","",""
"","html-keyboard-response","25","18775","0.0-25.0","3DHE4R9OCXXFL5VAR4XZT856781G2J","AMNYS937UWC8M","3MXX6RQ9EVRTFC527Z18RDK8KW6P4R","","null","<img src=""img/food6.png"" style=""width:200px; border:14px solid green;"">","null","","","","","","","","","",""
"","image-keyboard-response","26","18800","0.0-26.0","3DHE4R9OCXXFL5VAR4XZT856781G2J","AMNYS937UWC8M","3MXX6RQ9EVRTFC527Z18RDK8KW6P4R","","25","img/food1.png","76","25","3","0","2","1","1,0.5,0,1,0.5,0,0.5,0,1","1,0.5,0,1,0.5,0,0.5,0,1","1","",""
"","html-keyboard-response","27","19101","0.0-27.0","3DHE4R9OCXXFL5VAR4XZT856781G2J","AMNYS937UWC8M","3MXX6RQ9EVRTFC527Z18RDK8KW6P4R","","null","<img src=""img/food1.png"" style=""width:200px;border:14px solid red;"">","null","","","","","","","","","",""
"","image-keyboard-response","28","19127","0.0-28.0","3DHE4R9OCXXFL5VAR4XZT856781G2J","AMNYS937UWC8M","3MXX6RQ9EVRTFC527Z18RDK8KW6P4R","","25","img/food1.png","74","27","1","1","2","1","1,0.5,0,1,0.5,0,0.5,0,1","1,0.5,0,1,0.5,0,0.5,0,1","1","",""
"","html-keyboard-response","29","19431","0.0-29.0","3DHE4R9OCXXFL5VAR4XZT856781G2J","AMNYS937UWC8M","3MXX6RQ9EVRTFC527Z18RDK8KW6P4R","","null","<img src=""img/food1.png"" style=""width:200px; border:14px solid green;"">","null","","","","","","","","","",""
"","image-keyboard-response","30","19547","0.0-30.0","3DHE4R9OCXXFL5VAR4XZT856781G2J","AMNYS937UWC8M","3MXX6RQ9EVRTFC527Z18RDK8KW6P4R","","115","img/food6.png","74","116","1","1","1","1","1,0.5,0,1,0.5,0,0.5,0,1","1,0.5,0,1,0.5,0,0.5,0,1","1","",""
"","html-keyboard-response","31","19848","0.0-31.0","3DHE4R9OCXXFL5VAR4XZT856781G2J","AMNYS937UWC8M","3MXX6RQ9EVRTFC527Z18RDK8KW6P4R","","null","<img src=""img/food6.png"" style=""width:200px; border:14px solid green;"">","null","","","","","","","","","",""
"","image-keyboard-response","32","19967","0.0-32.0","3DHE4R9OCXXFL5VAR4XZT856781G2J","AMNYS937UWC8M","3MXX6RQ9EVRTFC527Z18RDK8KW6P4R","","119","img/food4.png","74","119","1","0","3","1","1,0.5,0,1,0.5,0,0.5,0,1","1,0.5,0,1,0.5,0,0.5,0,1","1","",""
"","html-keyboard-response","33","20269","0.0-33.0","3DHE4R9OCXXFL5VAR4XZT856781G2J","AMNYS937UWC8M","3MXX6RQ9EVRTFC527Z18RDK8KW6P4R","","null","<img src=""img/food4.png"" style=""width:200px;border:14px solid red;"">","null","","","","","","","","","",""
"","image-keyboard-response","34","20288","0.0-34.0","3DHE4R9OCXXFL5VAR4XZT856781G2J","AMNYS937UWC8M","3MXX6RQ9EVRTFC527Z18RDK8KW6P4R","","16","img/food4.png","76","19","3","1","3","1","1,0.5,0,1,0.5,0,0.5,0,1","1,0.5,0,1,0.5,0,0.5,0,1","1","",""
"","html-keyboard-response","35","20589","0.0-35.0","3DHE4R9OCXXFL5VAR4XZT856781G2J","AMNYS937UWC8M","3MXX6RQ9EVRTFC527Z18RDK8KW6P4R","","null","<img src=""img/food4.png"" style=""width:200px; border:14px solid green;"">","null","","","","","","","","","",""
"","image-keyboard-response","36","20618","0.0-36.0","3DHE4R9OCXXFL5VAR4XZT856781G2J","AMNYS937UWC8M","3MXX6RQ9EVRTFC527Z18RDK8KW6P4R","","29","img/food1.png","74","29","1","1","2","1","1,0.5,0,1,0.5,0,0.5,0,1","1,0.5,0,1,0.5,0,0.5,0,1","1","",""
"","html-keyboard-response","37","20920","0.0-37.0","3DHE4R9OCXXFL5VAR4XZT856781G2J","AMNYS937UWC8M","3MXX6RQ9EVRTFC527Z18RDK8KW6P4R","","null","<img src=""img/food1.png"" style=""width:200px; border:14px solid green;"">","null","","","","","","","","","",""
"","image-keyboard-response","38","21025","0.0-38.0","3DHE4R9OCXXFL5VAR4XZT856781G2J","AMNYS937UWC8M","3MXX6RQ9EVRTFC527Z18RDK8KW6P4R","","105","img/food6.png","74","105","1","1","1","1","1,0.5,0,1,0.5,0,0.5,0,1","1,0.5,0,1,0.5,0,0.5,0,1","1","",""
"","html-keyboard-response","39","21327","0.0-39.0","3DHE4R9OCXXFL5VAR4XZT856781G2J","AMNYS937UWC8M","3MXX6RQ9EVRTFC527Z18RDK8KW6P4R","","null","<img src=""img/food6.png"" style=""width:200px; border:14px solid green;"">","null","","","","","","","","","",""
"","image-keyboard-response","40","21457","0.0-40.0","3DHE4R9OCXXFL5VAR4XZT856781G2J","AMNYS937UWC8M","3MXX6RQ9EVRTFC527Z18RDK8KW6P4R","","130","img/food1.png","74","130","1","1","2","1","1,0.5,0,1,0.5,0,0.5,0,1","1,0.5,0,1,0.5,0,0.5,0,1","1","",""
"","html-keyboard-response","41","21758","0.0-41.0","3DHE4R9OCXXFL5VAR4XZT856781G2J","AMNYS937UWC8M","3MXX6RQ9EVRTFC527Z18RDK8KW6P4R","","null","<img src=""img/food1.png"" style=""width:200px; border:14px solid green;"">","null","","","","","","","","","",""
"","image-keyboard-response","42","21817","0.0-42.0","3DHE4R9OCXXFL5VAR4XZT856781G2J","AMNYS937UWC8M","3MXX6RQ9EVRTFC527Z18RDK8KW6P4R","","59","img/food1.png","74","59","1","1","2","1","1,0.5,0,1,0.5,0,0.5,0,1","1,0.5,0,1,0.5,0,0.5,0,1","1","",""
"","html-keyboard-response","43","22119","0.0-43.0","3DHE4R9OCXXFL5VAR4XZT856781G2J","AMNYS937UWC8M","3MXX6RQ9EVRTFC527Z18RDK8KW6P4R","","null","<img src=""img/food1.png"" style=""width:200px; border:14px solid green;"">","null","","","","","","","","","",""
"","image-keyboard-response","44","22213","0.0-44.0","3DHE4R9OCXXFL5VAR4XZT856781G2J","AMNYS937UWC8M","3MXX6RQ9EVRTFC527Z18RDK8KW6P4R","","91","img/food1.png","74","93","1","1","2","1","1,0.5,0,1,0.5,0,0.5,0,1","1,0.5,0,1,0.5,0,0.5,0,1","1","",""
"","html-keyboard-response","45","22514","0.0-45.0","3DHE4R9OCXXFL5VAR4XZT856781G2J","AMNYS937UWC8M","3MXX6RQ9EVRTFC527Z18RDK8KW6P4R","","null","<img src=""img/food1.png"" style=""width:200px; border:14px solid green;"">","null","","","","","","","","","",""
"","image-keyboard-response","46","22537","0.0-46.0","3DHE4R9OCXXFL5VAR4XZT856781G2J","AMNYS937UWC8M","3MXX6RQ9EVRTFC527Z18RDK8KW6P4R","","23","img/food1.png","74","23","1","1","2","1","1,0.5,0,1,0.5,0,0.5,0,1","1,0.5,0,1,0.5,0,0.5,0,1","1","",""
"","html-keyboard-response","47","22837","0.0-47.0","3DHE4R9OCXXFL5VAR4XZT856781G2J","AMNYS937UWC8M","3MXX6RQ9EVRTFC527Z18RDK8KW6P4R","","null","<img src=""img/food1.png"" style=""width:200px; border:14px solid green;"">","null","","","","","","","","","",""
"","image-keyboard-response","48","22847","0.0-48.0","3DHE4R9OCXXFL5VAR4XZT856781G2J","AMNYS937UWC8M","3MXX6RQ9EVRTFC527Z18RDK8KW6P4R","","9","img/food1.png","74","10","1","1","2","1","1,0.5,0,1,0.5,0,0.5,0,1","1,0.5,0,1,0.5,0,0.5,0,1","1","",""
"","html-keyboard-response","49","23147","0.0-49.0","3DHE4R9OCXXFL5VAR4XZT856781G2J","AMNYS937UWC8M","3MXX6RQ9EVRTFC527Z18RDK8KW6P4R","","null","<img src=""img/food1.png"" style=""width:200px; border:14px solid green;"">","null","","","","","","","","","",""
"","image-keyboard-response","50","23187","0.0-50.0","3DHE4R9OCXXFL5VAR4XZT856781G2J","AMNYS937UWC8M","3MXX6RQ9EVRTFC527Z18RDK8KW6P4R","","38","img/food6.png","74","40","1","1","1","1","1,0.5,0,1,0.5,0,0.5,0,1","1,0.5,0,1,0.5,0,0.5,0,1","1","",""
"","html-keyboard-response","51","23488","0.0-51.0","3DHE4R9OCXXFL5VAR4XZT856781G2J","AMNYS937UWC8M","3MXX6RQ9EVRTFC527Z18RDK8KW6P4R","","null","<img src=""img/food6.png"" style=""width:200px; border:14px solid green;"">","null","","","","","","","","","",""
"","image-keyboard-response","52","23547","0.0-52.0","3DHE4R9OCXXFL5VAR4XZT856781G2J","AMNYS937UWC8M","3MXX6RQ9EVRTFC527Z18RDK8KW6P4R","","59","img/food4.png","74","59","1","1","3","1","1,0.5,0,1,0.5,0,0.5,0,1","1,0.5,0,1,0.5,0,0.5,0,1","1","",""
"","html-keyboard-response","53","23848","0.0-53.0","3DHE4R9OCXXFL5VAR4XZT856781G2J","AMNYS937UWC8M","3MXX6RQ9EVRTFC527Z18RDK8KW6P4R","","null","<img src=""img/food4.png"" style=""width:200px; border:14px solid green;"">","null","","","","","","","","","",""
"","image-keyboard-response","54","23907","0.0-54.0","3DHE4R9OCXXFL5VAR4XZT856781G2J","AMNYS937UWC8M","3MXX6RQ9EVRTFC527Z18RDK8KW6P4R","","59","img/food1.png","74","59","1","1","2","1","1,0.5,0,1,0.5,0,0.5,0,1","1,0.5,0,1,0.5,0,0.5,0,1","1","",""
"","html-keyboard-response","55","24209","0.0-55.0","3DHE4R9OCXXFL5VAR4XZT856781G2J","AMNYS937UWC8M","3MXX6RQ9EVRTFC527Z18RDK8KW6P4R","","null","<img src=""img/food1.png"" style=""width:200px; border:14px solid green;"">","null","","","","","","","","","",""
"","image-keyboard-response","56","24298","0.0-56.0","3DHE4R9OCXXFL5VAR4XZT856781G2J","AMNYS937UWC8M","3MXX6RQ9EVRTFC527Z18RDK8KW6P4R","","88","img/food6.png","74","89","1","1","1","1","1,0.5,0,1,0.5,0,0.5,0,1","1,0.5,0,1,0.5,0,0.5,0,1","1","",""
"","html-keyboard-response","57","24599","0.0-57.0","3DHE4R9OCXXFL5VAR4XZT856781G2J","AMNYS937UWC8M","3MXX6RQ9EVRTFC527Z18RDK8KW6P4R","","null","<img src=""img/food6.png"" style=""width:200px; border:14px solid green;"">","null","","","","","","","","","",""
"","image-keyboard-response","58","24687","0.0-58.0","3DHE4R9OCXXFL5VAR4XZT856781G2J","AMNYS937UWC8M","3MXX6RQ9EVRTFC527Z18RDK8KW6P4R","","87","img/food1.png","74","88","1","1","2","1","1,0.5,0,1,0.5,0,0.5,0,1","1,0.5,0,1,0.5,0,0.5,0,1","1","",""
"","html-keyboard-response","59","24988","0.0-59.0","3DHE4R9OCXXFL5VAR4XZT856781G2J","AMNYS937UWC8M","3MXX6RQ9EVRTFC527Z18RDK8KW6P4R","","null","<img src=""img/food1.png"" style=""width:200px; border:14px solid green;"">","null","","","","","","","","","",""
"","image-keyboard-response","60","24997","0.0-60.0","3DHE4R9OCXXFL5VAR4XZT856781G2J","AMNYS937UWC8M","3MXX6RQ9EVRTFC527Z18RDK8KW6P4R","","8","img/food4.png","76","9","3","1","3","1","1,0.5,0,1,0.5,0,0.5,0,1","1,0.5,0,1,0.5,0,0.5,0,1","1","",""
"","html-keyboard-response","61","25298","0.0-61.0","3DHE4R9OCXXFL5VAR4XZT856781G2J","AMNYS937UWC8M","3MXX6RQ9EVRTFC527Z18RDK8KW6P4R","","null","<img src=""img/food4.png"" style=""width:200px; border:14px solid green;"">","null","","","","","","","","","",""
"","image-keyboard-response","62","25334","0.0-62.0","3DHE4R9OCXXFL5VAR4XZT856781G2J","AMNYS937UWC8M","3MXX6RQ9EVRTFC527Z18RDK8KW6P4R","","35","img/food4.png","74","36","1","0","3","1","1,0.5,0,1,0.5,0,0.5,0,1","1,0.5,0,1,0.5,0,0.5,0,1","1","",""
"","html-keyboard-response","63","25635","0.0-63.0","3DHE4R9OCXXFL5VAR4XZT856781G2J","AMNYS937UWC8M","3MXX6RQ9EVRTFC527Z18RDK8KW6P4R","","null","<img src=""img/food4.png"" style=""width:200px;border:14px solid red;"">","null","","","","","","","","","",""
"","image-keyboard-response","64","25717","0.0-64.0","3DHE4R9OCXXFL5VAR4XZT856781G2J","AMNYS937UWC8M","3MXX6RQ9EVRTFC527Z18RDK8KW6P4R","","81","img/food1.png","74","82","1","1","2","1","1,0.5,0,1,0.5,0,0.5,0,1","1,0.5,0,1,0.5,0,0.5,0,1","1","",""
"","html-keyboard-response","65","26019","0.0-65.0","3DHE4R9OCXXFL5VAR4XZT856781G2J","AMNYS937UWC8M","3MXX6RQ9EVRTFC527Z18RDK8KW6P4R","","null","<img src=""img/food1.png"" style=""width:200px; border:14px solid green;"">","null","","","","","","","","","",""
"","image-keyboard-response","66","26037","0.0-66.0","3DHE4R9OCXXFL5VAR4XZT856781G2J","AMNYS937UWC8M","3MXX6RQ9EVRTFC527Z18RDK8KW6P4R","","17","img/food1.png","76","18","3","0","2","1","1,0.5,0,1,0.5,0,0.5,0,1","1,0.5,0,1,0.5,0,0.5,0,1","1","",""
"","html-keyboard-response","67","26338","0.0-67.0","3DHE4R9OCXXFL5VAR4XZT856781G2J","AMNYS937UWC8M","3MXX6RQ9EVRTFC527Z18RDK8KW6P4R","","null","<img src=""img/food1.png"" style=""width:200px;border:14px solid red;"">","null","","","","","","","","","",""
"","image-keyboard-response","68","26347","0.0-68.0","3DHE4R9OCXXFL5VAR4XZT856781G2J","AMNYS937UWC8M","3MXX6RQ9EVRTFC527Z18RDK8KW6P4R","","8","img/food4.png","74","9","1","0","3","1","1,0.5,0,1,0.5,0,0.5,0,1","1,0.5,0,1,0.5,0,0.5,0,1","1","",""
"","html-keyboard-response","69","26648","0.0-69.0","3DHE4R9OCXXFL5VAR4XZT856781G2J","AMNYS937UWC8M","3MXX6RQ9EVRTFC527Z18RDK8KW6P4R","","null","<img src=""img/food4.png"" style=""width:200px;border:14px solid red;"">","null","","","","","","","","","",""
"","image-keyboard-response","70","26745","0.0-70.0","3DHE4R9OCXXFL5VAR4XZT856781G2J","AMNYS937UWC8M","3MXX6RQ9EVRTFC527Z18RDK8KW6P4R","","97","img/food6.png","74","97","1","1","1","1","1,0.5,0,1,0.5,0,0.5,0,1","1,0.5,0,1,0.5,0,0.5,0,1","1","",""
"","html-keyboard-response","71","27047","0.0-71.0","3DHE4R9OCXXFL5VAR4XZT856781G2J","AMNYS937UWC8M","3MXX6RQ9EVRTFC527Z18RDK8KW6P4R","","null","<img src=""img/food6.png"" style=""width:200px; border:14px solid green;"">","null","","","","","","","","","",""
"","image-keyboard-response","72","27132","0.0-72.0","3DHE4R9OCXXFL5VAR4XZT856781G2J","AMNYS937UWC8M","3MXX6RQ9EVRTFC527Z18RDK8KW6P4R","","85","img/food6.png","74","85","1","1","1","1","1,0.5,0,1,0.5,0,0.5,0,1","1,0.5,0,1,0.5,0,0.5,0,1","1","",""
"","html-keyboard-response","73","27434","0.0-73.0","3DHE4R9OCXXFL5VAR4XZT856781G2J","AMNYS937UWC8M","3MXX6RQ9EVRTFC527Z18RDK8KW6P4R","","null","<img src=""img/food6.png"" style=""width:200px; border:14px solid green;"">","null","","","","","","","","","",""
"","image-keyboard-response","74","27543","0.0-74.0","3DHE4R9OCXXFL5VAR4XZT856781G2J","AMNYS937UWC8M","3MXX6RQ9EVRTFC527Z18RDK8KW6P4R","","107","img/food6.png","74","109","1","1","1","1","1,0.5,0,1,0.5,0,0.5,0,1","1,0.5,0,1,0.5,0,0.5,0,1","1","",""
"","html-keyboard-response","75","27845","0.0-75.0","3DHE4R9OCXXFL5VAR4XZT856781G2J","AMNYS937UWC8M","3MXX6RQ9EVRTFC527Z18RDK8KW6P4R","","null","<img src=""img/food6.png"" style=""width:200px; border:14px solid green;"">","null","","","","","","","","","",""
"","image-keyboard-response","76","27947","0.0-76.0","3DHE4R9OCXXFL5VAR4XZT856781G2J","AMNYS937UWC8M","3MXX6RQ9EVRTFC527Z18RDK8KW6P4R","","101","img/food4.png","74","102","1","0","3","1","1,0.5,0,1,0.5,0,0.5,0,1","1,0.5,0,1,0.5,0,0.5,0,1","1","",""
"","html-keyboard-response","77","28267","0.0-77.0","3DHE4R9OCXXFL5VAR4XZT856781G2J","AMNYS937UWC8M","3MXX6RQ9EVRTFC527Z18RDK8KW6P4R","","null","<img src=""img/food4.png"" style=""width:200px;border:14px solid red;"">","null","","","","","","","","","",""
"","image-keyboard-response","78","28387","0.0-78.0","3DHE4R9OCXXFL5VAR4XZT856781G2J","AMNYS937UWC8M","3MXX6RQ9EVRTFC527Z18RDK8KW6P4R","","119","img/food1.png","74","120","1","1","2","1","1,0.5,0,1,0.5,0,0.5,0,1","1,0.5,0,1,0.5,0,0.5,0,1","1","",""
"","html-keyboard-response","79","28688","0.0-79.0","3DHE4R9OCXXFL5VAR4XZT856781G2J","AMNYS937UWC8M","3MXX6RQ9EVRTFC527Z18RDK8KW6P4R","","null","<img src=""img/food1.png"" style=""width:200px; border:14px solid green;"">","null","","","","","","","","","",""
"","image-keyboard-response","80","28826","0.0-80.0","3DHE4R9OCXXFL5VAR4XZT856781G2J","AMNYS937UWC8M","3MXX6RQ9EVRTFC527Z18RDK8KW6P4R","","137","img/food6.png","74","139","1","1","1","1","1,0.5,0,1,0.5,0,0.5,0,1","1,0.5,0,1,0.5,0,0.5,0,1","1","",""
"","html-keyboard-response","81","29128","0.0-81.0","3DHE4R9OCXXFL5VAR4XZT856781G2J","AMNYS937UWC8M","3MXX6RQ9EVRTFC527Z18RDK8KW6P4R","","null","<img src=""img/food6.png"" style=""width:200px; border:14px solid green;"">","null","","","","","","","","","",""
"","image-keyboard-response","82","29134","0.0-82.0","3DHE4R9OCXXFL5VAR4XZT856781G2J","AMNYS937UWC8M","3MXX6RQ9EVRTFC527Z18RDK8KW6P4R","","6","img/food1.png","76","7","3","0","2","1","1,0.5,0,1,0.5,0,0.5,0,1","1,0.5,0,1,0.5,0,0.5,0,1","1","",""
"","html-keyboard-response","83","29435","0.0-83.0","3DHE4R9OCXXFL5VAR4XZT856781G2J","AMNYS937UWC8M","3MXX6RQ9EVRTFC527Z18RDK8KW6P4R","","null","<img src=""img/food1.png"" style=""width:200px;border:14px solid red;"">","null","","","","","","","","","",""
"","image-keyboard-response","84","29512","0.0-84.0","3DHE4R9OCXXFL5VAR4XZT856781G2J","AMNYS937UWC8M","3MXX6RQ9EVRTFC527Z18RDK8KW6P4R","","77","img/food4.png","74","77","1","0","3","1","1,0.5,0,1,0.5,0,0.5,0,1","1,0.5,0,1,0.5,0,0.5,0,1","1","",""
"","html-keyboard-response","85","29821","0.0-85.0","3DHE4R9OCXXFL5VAR4XZT856781G2J","AMNYS937UWC8M","3MXX6RQ9EVRTFC527Z18RDK8KW6P4R","","null","<img src=""img/food4.png"" style=""width:200px;border:14px solid red;"">","null","","","","","","","","","",""
"","image-keyboard-response","86","29856","0.0-86.0","3DHE4R9OCXXFL5VAR4XZT856781G2J","AMNYS937UWC8M","3MXX6RQ9EVRTFC527Z18RDK8KW6P4R","","34","img/food6.png","76","35","3","0","1","1","1,0.5,0,1,0.5,0,0.5,0,1","1,0.5,0,1,0.5,0,0.5,0,1","1","",""
"","html-keyboard-response","87","30157","0.0-87.0","3DHE4R9OCXXFL5VAR4XZT856781G2J","AMNYS937UWC8M","3MXX6RQ9EVRTFC527Z18RDK8KW6P4R","","null","<img src=""img/food6.png"" style=""width:200px;border:14px solid red;"">","null","","","","","","","","","",""
"","image-keyboard-response","88","30217","0.0-88.0","3DHE4R9OCXXFL5VAR4XZT856781G2J","AMNYS937UWC8M","3MXX6RQ9EVRTFC527Z18RDK8KW6P4R","","60","img/food4.png","76","60","3","1","3","1","1,0.5,0,1,0.5,0,0.5,0,1","1,0.5,0,1,0.5,0,0.5,0,1","1","",""
"","html-keyboard-response","89","30519","0.0-89.0","3DHE4R9OCXXFL5VAR4XZT856781G2J","AMNYS937UWC8M","3MXX6RQ9EVRTFC527Z18RDK8KW6P4R","","null","<img src=""img/food4.png"" style=""width:200px; border:14px solid green;"">","null","","","","","","","","","",""
"","image-keyboard-response","90","30530","0.0-90.0","3DHE4R9OCXXFL5VAR4XZT856781G2J","AMNYS937UWC8M","3MXX6RQ9EVRTFC527Z18RDK8KW6P4R","","11","img/food1.png","74","11","1","1","2","1","1,0.5,0,1,0.5,0,0.5,0,1","1,0.5,0,1,0.5,0,0.5,0,1","1","",""
"","html-keyboard-response","91","30832","0.0-91.0","3DHE4R9OCXXFL5VAR4XZT856781G2J","AMNYS937UWC8M","3MXX6RQ9EVRTFC527Z18RDK8KW6P4R","","null","<img src=""img/food1.png"" style=""width:200px; border:14px solid green;"">","null","","","","","","","","","",""
"","image-keyboard-response","92","30927","0.0-92.0","3DHE4R9OCXXFL5VAR4XZT856781G2J","AMNYS937UWC8M","3MXX6RQ9EVRTFC527Z18RDK8KW6P4R","","93","img/food6.png","74","95","1","1","1","1","1,0.5,0,1,0.5,0,0.5,0,1","1,0.5,0,1,0.5,0,0.5,0,1","1","",""
"","html-keyboard-response","93","31228","0.0-93.0","3DHE4R9OCXXFL5VAR4XZT856781G2J","AMNYS937UWC8M","3MXX6RQ9EVRTFC527Z18RDK8KW6P4R","","null","<img src=""img/food6.png"" style=""width:200px; border:14px solid green;"">","null","","","","","","","","","",""
"","image-keyboard-response","94","31337","0.0-94.0","3DHE4R9OCXXFL5VAR4XZT856781G2J","AMNYS937UWC8M","3MXX6RQ9EVRTFC527Z18RDK8KW6P4R","","109","img/food4.png","74","109","1","0","3","1","1,0.5,0,1,0.5,0,0.5,0,1","1,0.5,0,1,0.5,0,0.5,0,1","1","",""
"","html-keyboard-response","95","31640","0.0-95.0","3DHE4R9OCXXFL5VAR4XZT856781G2J","AMNYS937UWC8M","3MXX6RQ9EVRTFC527Z18RDK8KW6P4R","","null","<img src=""img/food4.png"" style=""width:200px;border:14px solid red;"">","null","","","","","","","","","",""
"","image-keyboard-response","96","31727","0.0-96.0","3DHE4R9OCXXFL5VAR4XZT856781G2J","AMNYS937UWC8M","3MXX6RQ9EVRTFC527Z18RDK8KW6P4R","","86","img/food4.png","74","87","1","1","3","1","1,0.5,0,1,0.5,0,0.5,0,1","1,0.5,0,1,0.5,0,0.5,0,1","1","",""
"","html-keyboard-response","97","32028","0.0-97.0","3DHE4R9OCXXFL5VAR4XZT856781G2J","AMNYS937UWC8M","3MXX6RQ9EVRTFC527Z18RDK8KW6P4R","","null","<img src=""img/food4.png"" style=""width:200px; border:14px solid green;"">","null","","","","","","","","","",""
"","image-keyboard-response","98","32037","0.0-98.0","3DHE4R9OCXXFL5VAR4XZT856781G2J","AMNYS937UWC8M","3MXX6RQ9EVRTFC527Z18RDK8KW6P4R","","8","img/food1.png","76","9","3","0","2","1","1,0.5,0,1,0.5,0,0.5,0,1","1,0.5,0,1,0.5,0,0.5,0,1","1","",""
"","html-keyboard-response","99","32339","0.0-99.0","3DHE4R9OCXXFL5VAR4XZT856781G2J","AMNYS937UWC8M","3MXX6RQ9EVRTFC527Z18RDK8KW6P4R","","null","<img src=""img/food1.png"" style=""width:200px;border:14px solid red;"">","null","","","","","","","","","",""
"","image-keyboard-response","100","32397","0.0-100.0","3DHE4R9OCXXFL5VAR4XZT856781G2J","AMNYS937UWC8M","3MXX6RQ9EVRTFC527Z18RDK8KW6P4R","","56","img/food6.png","74","58","1","1","1","1","1,0.5,0,1,0.5,0,0.5,0,1","1,0.5,0,1,0.5,0,0.5,0,1","1","",""
"","html-keyboard-response","101","32697","0.0-101.0","3DHE4R9OCXXFL5VAR4XZT856781G2J","AMNYS937UWC8M","3MXX6RQ9EVRTFC527Z18RDK8KW6P4R","","null","<img src=""img/food6.png"" style=""width:200px; border:14px solid green;"">","null","","","","","","","","","",""
"","image-keyboard-response","102","32809","0.0-102.0","3DHE4R9OCXXFL5VAR4XZT856781G2J","AMNYS937UWC8M","3MXX6RQ9EVRTFC527Z18RDK8KW6P4R","","112","img/food6.png","75","112","2","1","1","1","1,0.5,0,1,0.5,0,0.5,0,1","1,0.5,0,1,0.5,0,0.5,0,1","1","",""
"","html-keyboard-response","103","33111","0.0-103.0","3DHE4R9OCXXFL5VAR4XZT856781G2J","AMNYS937UWC8M","3MXX6RQ9EVRTFC527Z18RDK8KW6P4R","","null","<img src=""img/food6.png"" style=""width:200px; border:14px solid green;"">","null","","","","","","","","","",""
"","image-keyboard-response","104","33136","0.0-104.0","3DHE4R9OCXXFL5VAR4XZT856781G2J","AMNYS937UWC8M","3MXX6RQ9EVRTFC527Z18RDK8KW6P4R","","25","img/food6.png","76","25","3","0","1","1","1,0.5,0,1,0.5,0,0.5,0,1","1,0.5,0,1,0.5,0,0.5,0,1","1","",""
"","html-keyboard-response","105","33438","0.0-105.0","3DHE4R9OCXXFL5VAR4XZT856781G2J","AMNYS937UWC8M","3MXX6RQ9EVRTFC527Z18RDK8KW6P4R","","null","<img src=""img/food6.png"" style=""width:200px;border:14px solid red;"">","null","","","","","","","","","",""
"","image-keyboard-response","106","33507","0.0-106.0","3DHE4R9OCXXFL5VAR4XZT856781G2J","AMNYS937UWC8M","3MXX6RQ9EVRTFC527Z18RDK8KW6P4R","","69","img/food6.png","74","69","1","1","1","1","1,0.5,0,1,0.5,0,0.5,0,1","1,0.5,0,1,0.5,0,0.5,0,1","1","",""
"","html-keyboard-response","107","33809","0.0-107.0","3DHE4R9OCXXFL5VAR4XZT856781G2J","AMNYS937UWC8M","3MXX6RQ9EVRTFC527Z18RDK8KW6P4R","","null","<img src=""img/food6.png"" style=""width:200px; border:14px solid green;"">","null","","","","","","","","","",""
"","image-keyboard-response","108","33835","0.0-108.0","3DHE4R9OCXXFL5VAR4XZT856781G2J","AMNYS937UWC8M","3MXX6RQ9EVRTFC527Z18RDK8KW6P4R","","25","img/food1.png","76","26","3","0","2","1","1,0.5,0,1,0.5,0,0.5,0,1","1,0.5,0,1,0.5,0,0.5,0,1","1","",""
"","html-keyboard-response","109","34136","0.0-109.0","3DHE4R9OCXXFL5VAR4XZT856781G2J","AMNYS937UWC8M","3MXX6RQ9EVRTFC527Z18RDK8KW6P4R","","null","<img src=""img/food1.png"" style=""width:200px;border:14px solid red;"">","null","","","","","","","","","",""
"","image-keyboard-response","110","34155","0.0-110.0","3DHE4R9OCXXFL5VAR4XZT856781G2J","AMNYS937UWC8M","3MXX6RQ9EVRTFC527Z18RDK8KW6P4R","","19","img/food4.png","74","19","1","1","3","1","1,0.5,0,1,0.5,0,0.5,0,1","1,0.5,0,1,0.5,0,0.5,0,1","1","",""
"","html-keyboard-response","111","34456","0.0-111.0","3DHE4R9OCXXFL5VAR4XZT856781G2J","AMNYS937UWC8M","3MXX6RQ9EVRTFC527Z18RDK8KW6P4R","","null","<img src=""img/food4.png"" style=""width:200px; border:14px solid green;"">","null","","","","","","","","","",""
"","image-keyboard-response","112","34475","0.0-112.0","3DHE4R9OCXXFL5VAR4XZT856781G2J","AMNYS937UWC8M","3MXX6RQ9EVRTFC527Z18RDK8KW6P4R","","17","img/food1.png","76","19","3","0","2","1","1,0.5,0,1,0.5,0,0.5,0,1","1,0.5,0,1,0.5,0,0.5,0,1","1","",""
"","html-keyboard-response","113","34775","0.0-113.0","3DHE4R9OCXXFL5VAR4XZT856781G2J","AMNYS937UWC8M","3MXX6RQ9EVRTFC527Z18RDK8KW6P4R","","null","<img src=""img/food1.png"" style=""width:200px;border:14px solid red;"">","null","","","","","","","","","",""
"","image-keyboard-response","114","34806","0.0-114.0","3DHE4R9OCXXFL5VAR4XZT856781G2J","AMNYS937UWC8M","3MXX6RQ9EVRTFC527Z18RDK8KW6P4R","","30","img/food1.png","75","32","2","1","2","1","1,0.5,0,1,0.5,0,0.5,0,1","1,0.5,0,1,0.5,0,0.5,0,1","1","",""
"","html-keyboard-response","115","35107","0.0-115.0","3DHE4R9OCXXFL5VAR4XZT856781G2J","AMNYS937UWC8M","3MXX6RQ9EVRTFC527Z18RDK8KW6P4R","","null","<img src=""img/food1.png"" style=""width:200px; border:14px solid green;"">","null","","","","","","","","","",""
"","image-keyboard-response","116","35275","0.0-116.0","3DHE4R9OCXXFL5VAR4XZT856781G2J","AMNYS937UWC8M","3MXX6RQ9EVRTFC527Z18RDK8KW6P4R","","168","img/food4.png","76","168","3","1","3","1","1,0.5,0,1,0.5,0,0.5,0,1","1,0.5,0,1,0.5,0,0.5,0,1","1","",""
"","html-keyboard-response","117","35576","0.0-117.0","3DHE4R9OCXXFL5VAR4XZT856781G2J","AMNYS937UWC8M","3MXX6RQ9EVRTFC527Z18RDK8KW6P4R","","null","<img src=""img/food4.png"" style=""width:200px; border:14px solid green;"">","null","","","","","","","","","",""
"","image-keyboard-response","118","35607","0.0-118.0","3DHE4R9OCXXFL5VAR4XZT856781G2J","AMNYS937UWC8M","3MXX6RQ9EVRTFC527Z18RDK8KW6P4R","","31","img/food4.png","74","31","1","0","3","1","1,0.5,0,1,0.5,0,0.5,0,1","1,0.5,0,1,0.5,0,0.5,0,1","1","",""
"","html-keyboard-response","119","35909","0.0-119.0","3DHE4R9OCXXFL5VAR4XZT856781G2J","AMNYS937UWC8M","3MXX6RQ9EVRTFC527Z18RDK8KW6P4R","","null","<img src=""img/food4.png"" style=""width:200px;border:14px solid red;"">","null","","","","","","","","","",""
"","image-keyboard-response","120","36027","0.0-120.0","3DHE4R9OCXXFL5VAR4XZT856781G2J","AMNYS937UWC8M","3MXX6RQ9EVRTFC527Z18RDK8KW6P4R","","115","img/food4.png","74","118","1","1","3","1","1,0.5,0,1,0.5,0,0.5,0,1","1,0.5,0,1,0.5,0,0.5,0,1","1","",""
"","html-keyboard-response","121","36328","0.0-121.0","3DHE4R9OCXXFL5VAR4XZT856781G2J","AMNYS937UWC8M","3MXX6RQ9EVRTFC527Z18RDK8KW6P4R","","null","<img src=""img/food4.png"" style=""width:200px; border:14px solid green;"">","null","","","","","","","","","",""
"","image-keyboard-response","122","36467","0.0-122.0","3DHE4R9OCXXFL5VAR4XZT856781G2J","AMNYS937UWC8M","3MXX6RQ9EVRTFC527Z18RDK8KW6P4R","","138","img/food4.png","74","139","1","0","3","1","1,0.5,0,1,0.5,0,0.5,0,1","1,0.5,0,1,0.5,0,0.5,0,1","1","",""
"","html-keyboard-response","123","36768","0.0-123.0","3DHE4R9OCXXFL5VAR4XZT856781G2J","AMNYS937UWC8M","3MXX6RQ9EVRTFC527Z18RDK8KW6P4R","","null","<img src=""img/food4.png"" style=""width:200px;border:14px solid red;"">","null","","","","","","","","","",""
"","image-keyboard-response","124","36928","0.0-124.0","3DHE4R9OCXXFL5VAR4XZT856781G2J","AMNYS937UWC8M","3MXX6RQ9EVRTFC527Z18RDK8KW6P4R","","158","img/food1.png","74","160","1","1","2","1","1,0.5,0,1,0.5,0,0.5,0,1","1,0.5,0,1,0.5,0,0.5,0,1","1","",""
"","html-keyboard-response","125","37229","0.0-125.0","3DHE4R9OCXXFL5VAR4XZT856781G2J","AMNYS937UWC8M","3MXX6RQ9EVRTFC527Z18RDK8KW6P4R","","null","<img src=""img/food1.png"" style=""width:200px; border:14px solid green;"">","null","","","","","","","","","",""
"","image-keyboard-response","126","37397","0.0-126.0","3DHE4R9OCXXFL5VAR4XZT856781G2J","AMNYS937UWC8M","3MXX6RQ9EVRTFC527Z18RDK8KW6P4R","","168","img/food6.png","74","168","1","1","1","1","1,0.5,0,1,0.5,0,0.5,0,1","1,0.5,0,1,0.5,0,0.5,0,1","1","",""
"","html-keyboard-response","127","37701","0.0-127.0","3DHE4R9OCXXFL5VAR4XZT856781G2J","AMNYS937UWC8M","3MXX6RQ9EVRTFC527Z18RDK8KW6P4R","","null","<img src=""img/food6.png"" style=""width:200px; border:14px solid green;"">","null","","","","","","","","","",""
"","image-keyboard-response","128","37817","0.0-128.0","3DHE4R9OCXXFL5VAR4XZT856781G2J","AMNYS937UWC8M","3MXX6RQ9EVRTFC527Z18RDK8KW6P4R","","114","img/food4.png","74","116","1","0","3","1","1,0.5,0,1,0.5,0,0.5,0,1","1,0.5,0,1,0.5,0,0.5,0,1","1","",""
"","html-keyboard-response","129","38117","0.0-129.0","3DHE4R9OCXXFL5VAR4XZT856781G2J","AMNYS937UWC8M","3MXX6RQ9EVRTFC527Z18RDK8KW6P4R","","null","<img src=""img/food4.png"" style=""width:200px;border:14px solid red;"">","null","","","","","","","","","",""
"","image-keyboard-response","130","38187","0.0-130.0","3DHE4R9OCXXFL5VAR4XZT856781G2J","AMNYS937UWC8M","3MXX6RQ9EVRTFC527Z18RDK8KW6P4R","","68","img/food4.png","76","70","3","1","3","1","1,0.5,0,1,0.5,0,0.5,0,1","1,0.5,0,1,0.5,0,0.5,0,1","1","",""
"","html-keyboard-response","131","38488","0.0-131.0","3DHE4R9OCXXFL5VAR4XZT856781G2J","AMNYS937UWC8M","3MXX6RQ9EVRTFC527Z18RDK8KW6P4R","","null","<img src=""img/food4.png"" style=""width:200px; border:14px solid green;"">","null","","","","","","","","","",""
"","image-keyboard-response","132","38517","0.0-132.0","3DHE4R9OCXXFL5VAR4XZT856781G2J","AMNYS937UWC8M","3MXX6RQ9EVRTFC527Z18RDK8KW6P4R","","28","img/food6.png","74","29","1","1","1","1","1,0.5,0,1,0.5,0,0.5,0,1","1,0.5,0,1,0.5,0,0.5,0,1","1","",""
"","html-keyboard-response","133","38818","0.0-133.0","3DHE4R9OCXXFL5VAR4XZT856781G2J","AMNYS937UWC8M","3MXX6RQ9EVRTFC527Z18RDK8KW6P4R","","null","<img src=""img/food6.png"" style=""width:200px; border:14px solid green;"">","null","","","","","","","","","",""
"","image-keyboard-response","134","38944","0.0-134.0","3DHE4R9OCXXFL5VAR4XZT856781G2J","AMNYS937UWC8M","3MXX6RQ9EVRTFC527Z18RDK8KW6P4R","","125","img/food1.png","74","126","1","1","2","1","1,0.5,0,1,0.5,0,0.5,0,1","1,0.5,0,1,0.5,0,0.5,0,1","1","",""
"","html-keyboard-response","135","39246","0.0-135.0","3DHE4R9OCXXFL5VAR4XZT856781G2J","AMNYS937UWC8M","3MXX6RQ9EVRTFC527Z18RDK8KW6P4R","","null","<img src=""img/food1.png"" style=""width:200px; border:14px solid green;"">","null","","","","","","","","","",""
"","image-keyboard-response","136","39256","0.0-136.0","3DHE4R9OCXXFL5VAR4XZT856781G2J","AMNYS937UWC8M","3MXX6RQ9EVRTFC527Z18RDK8KW6P4R","","10","img/food6.png","76","11","3","0","1","1","1,0.5,0,1,0.5,0,0.5,0,1","1,0.5,0,1,0.5,0,0.5,0,1","1","",""
"","html-keyboard-response","137","39558","0.0-137.0","3DHE4R9OCXXFL5VAR4XZT856781G2J","AMNYS937UWC8M","3MXX6RQ9EVRTFC527Z18RDK8KW6P4R","","null","<img src=""img/food6.png"" style=""width:200px;border:14px solid red;"">","null","","","","","","","","","",""
"","image-keyboard-response","138","39589","0.0-138.0","3DHE4R9OCXXFL5VAR4XZT856781G2J","AMNYS937UWC8M","3MXX6RQ9EVRTFC527Z18RDK8KW6P4R","","30","img/food4.png","74","31","1","0","3","1","1,0.5,0,1,0.5,0,0.5,0,1","1,0.5,0,1,0.5,0,0.5,0,1","1","",""
"","html-keyboard-response","139","39891","0.0-139.0","3DHE4R9OCXXFL5VAR4XZT856781G2J","AMNYS937UWC8M","3MXX6RQ9EVRTFC527Z18RDK8KW6P4R","","null","<img src=""img/food4.png"" style=""width:200px;border:14px solid red;"">","null","","","","","","","","","",""
"","image-keyboard-response","140","40007","0.0-140.0","3DHE4R9OCXXFL5VAR4XZT856781G2J","AMNYS937UWC8M","3MXX6RQ9EVRTFC527Z18RDK8KW6P4R","","116","img/food6.png","74","116","1","1","1","1","1,0.5,0,1,0.5,0,0.5,0,1","1,0.5,0,1,0.5,0,0.5,0,1","1","",""
"","html-keyboard-response","141","40309","0.0-141.0","3DHE4R9OCXXFL5VAR4XZT856781G2J","AMNYS937UWC8M","3MXX6RQ9EVRTFC527Z18RDK8KW6P4R","","null","<img src=""img/food6.png"" style=""width:200px; border:14px solid green;"">","null","","","","","","","","","",""
"","image-keyboard-response","142","40427","0.0-142.0","3DHE4R9OCXXFL5VAR4XZT856781G2J","AMNYS937UWC8M","3MXX6RQ9EVRTFC527Z18RDK8KW6P4R","","118","img/food6.png","74","118","1","1","1","1","1,0.5,0,1,0.5,0,0.5,0,1","1,0.5,0,1,0.5,0,0.5,0,1","1","",""
"","html-keyboard-response","143","40729","0.0-143.0","3DHE4R9OCXXFL5VAR4XZT856781G2J","AMNYS937UWC8M","3MXX6RQ9EVRTFC527Z18RDK8KW6P4R","","null","<img src=""img/food6.png"" style=""width:200px; border:14px solid green;"">","null","","","","","","","","","",""
"","image-keyboard-response","144","40848","0.0-144.0","3DHE4R9OCXXFL5VAR4XZT856781G2J","AMNYS937UWC8M","3MXX6RQ9EVRTFC527Z18RDK8KW6P4R","","119","img/food6.png","75","119","2","0","1","1","1,0.5,0,1,0.5,0,0.5,0,1","1,0.5,0,1,0.5,0,0.5,0,1","1","",""
"","html-keyboard-response","145","41149","0.0-145.0","3DHE4R9OCXXFL5VAR4XZT856781G2J","AMNYS937UWC8M","3MXX6RQ9EVRTFC527Z18RDK8KW6P4R","","null","<img src=""img/food6.png"" style=""width:200px;border:14px solid red;"">","null","","","","","","","","","",""
"","image-keyboard-response","146","41247","0.0-146.0","3DHE4R9OCXXFL5VAR4XZT856781G2J","AMNYS937UWC8M","3MXX6RQ9EVRTFC527Z18RDK8KW6P4R","","97","img/food1.png","74","97","1","1","2","1","1,0.5,0,1,0.5,0,0.5,0,1","1,0.5,0,1,0.5,0,0.5,0,1","1","",""
"","html-keyboard-response","147","41549","0.0-147.0","3DHE4R9OCXXFL5VAR4XZT856781G2J","AMNYS937UWC8M","3MXX6RQ9EVRTFC527Z18RDK8KW6P4R","","null","<img src=""img/food1.png"" style=""width:200px; border:14px solid green;"">","null","","","","","","","","","",""
"","image-keyboard-response","148","41637","0.0-148.0","3DHE4R9OCXXFL5VAR4XZT856781G2J","AMNYS937UWC8M","3MXX6RQ9EVRTFC527Z18RDK8KW6P4R","","88","img/food4.png","74","88","1","1","3","1","1,0.5,0,1,0.5,0,0.5,0,1","1,0.5,0,1,0.5,0,0.5,0,1","1","",""
"","html-keyboard-response","149","41939","0.0-149.0","3DHE4R9OCXXFL5VAR4XZT856781G2J","AMNYS937UWC8M","3MXX6RQ9EVRTFC527Z18RDK8KW6P4R","","null","<img src=""img/food4.png"" style=""width:200px; border:14px solid green;"">","null","","","","","","","","","",""
"","image-keyboard-response","150","42069","0.0-150.0","3DHE4R9OCXXFL5VAR4XZT856781G2J","AMNYS937UWC8M","3MXX6RQ9EVRTFC527Z18RDK8KW6P4R","","129","img/food1.png","74","131","1","1","2","1","1,0.5,0,1,0.5,0,0.5,0,1","1,0.5,0,1,0.5,0,0.5,0,1","1","",""
"","html-keyboard-response","151","42370","0.0-151.0","3DHE4R9OCXXFL5VAR4XZT856781G2J","AMNYS937UWC8M","3MXX6RQ9EVRTFC527Z18RDK8KW6P4R","","null","<img src=""img/food1.png"" style=""width:200px; border:14px solid green;"">","null","","","","","","","","","",""
"","image-keyboard-response","152","42487","0.0-152.0","3DHE4R9OCXXFL5VAR4XZT856781G2J","AMNYS937UWC8M","3MXX6RQ9EVRTFC527Z18RDK8KW6P4R","","116","img/food6.png","74","117","1","1","1","1","1,0.5,0,1,0.5,0,0.5,0,1","1,0.5,0,1,0.5,0,0.5,0,1","1","",""
"","html-keyboard-response","153","42789","0.0-153.0","3DHE4R9OCXXFL5VAR4XZT856781G2J","AMNYS937UWC8M","3MXX6RQ9EVRTFC527Z18RDK8KW6P4R","","null","<img src=""img/food6.png"" style=""width:200px; border:14px solid green;"">","null","","","","","","","","","",""
"","image-keyboard-response","154","42807","0.0-154.0","3DHE4R9OCXXFL5VAR4XZT856781G2J","AMNYS937UWC8M","3MXX6RQ9EVRTFC527Z18RDK8KW6P4R","","17","img/food6.png","76","18","3","0","1","1","1,0.5,0,1,0.5,0,0.5,0,1","1,0.5,0,1,0.5,0,0.5,0,1","1","",""
"","html-keyboard-response","155","43109","0.0-155.0","3DHE4R9OCXXFL5VAR4XZT856781G2J","AMNYS937UWC8M","3MXX6RQ9EVRTFC527Z18RDK8KW6P4R","","null","<img src=""img/food6.png"" style=""width:200px;border:14px solid red;"">","null","","","","","","","","","",""
"","image-keyboard-response","156","43177","0.0-156.0","3DHE4R9OCXXFL5VAR4XZT856781G2J","AMNYS937UWC8M","3MXX6RQ9EVRTFC527Z18RDK8KW6P4R","","68","img/food6.png","74","68","1","1","1","1","1,0.5,0,1,0.5,0,0.5,0,1","1,0.5,0,1,0.5,0,0.5,0,1","1","",""
"","html-keyboard-response","157","43480","0.0-157.0","3DHE4R9OCXXFL5VAR4XZT856781G2J","AMNYS937UWC8M","3MXX6RQ9EVRTFC527Z18RDK8KW6P4R","","null","<img src=""img/food6.png"" style=""width:200px; border:14px solid green;"">","null","","","","","","","","","",""
"","image-keyboard-response","158","43567","0.0-158.0","3DHE4R9OCXXFL5VAR4XZT856781G2J","AMNYS937UWC8M","3MXX6RQ9EVRTFC527Z18RDK8KW6P4R","","87","img/food1.png","74","87","1","1","2","1","1,0.5,0,1,0.5,0,0.5,0,1","1,0.5,0,1,0.5,0,0.5,0,1","1","",""
"","html-keyboard-response","159","43868","0.0-159.0","3DHE4R9OCXXFL5VAR4XZT856781G2J","AMNYS937UWC8M","3MXX6RQ9EVRTFC527Z18RDK8KW6P4R","","null","<img src=""img/food1.png"" style=""width:200px; border:14px solid green;"">","null","","","","","","","","","",""
"","image-keyboard-response","160","43957","0.0-160.0","3DHE4R9OCXXFL5VAR4XZT856781G2J","AMNYS937UWC8M","3MXX6RQ9EVRTFC527Z18RDK8KW6P4R","","89","img/food6.png","74","89","1","1","1","1","1,0.5,0,1,0.5,0,0.5,0,1","1,0.5,0,1,0.5,0,0.5,0,1","1","",""
"","html-keyboard-response","161","44259","0.0-161.0","3DHE4R9OCXXFL5VAR4XZT856781G2J","AMNYS937UWC8M","3MXX6RQ9EVRTFC527Z18RDK8KW6P4R","","null","<img src=""img/food6.png"" style=""width:200px; border:14px solid green;"">","null","","","","","","","","","",""
"","image-keyboard-response","162","44397","0.0-162.0","3DHE4R9OCXXFL5VAR4XZT856781G2J","AMNYS937UWC8M","3MXX6RQ9EVRTFC527Z18RDK8KW6P4R","","138","img/food4.png","74","138","1","1","3","1","1,0.5,0,1,0.5,0,0.5,0,1","1,0.5,0,1,0.5,0,0.5,0,1","1","",""
"","html-keyboard-response","163","44719","0.0-163.0","3DHE4R9OCXXFL5VAR4XZT856781G2J","AMNYS937UWC8M","3MXX6RQ9EVRTFC527Z18RDK8KW6P4R","","null","<img src=""img/food4.png"" style=""width:200px; border:14px solid green;"">","null","","","","","","","","","",""
"","image-keyboard-response","164","44738","0.0-164.0","3DHE4R9OCXXFL5VAR4XZT856781G2J","AMNYS937UWC8M","3MXX6RQ9EVRTFC527Z18RDK8KW6P4R","","17","img/food1.png","76","18","3","0","2","1","1,0.5,0,1,0.5,0,0.5,0,1","1,0.5,0,1,0.5,0,0.5,0,1","1","",""
"","html-keyboard-response","165","45041","0.0-165.0","3DHE4R9OCXXFL5VAR4XZT856781G2J","AMNYS937UWC8M","3MXX6RQ9EVRTFC527Z18RDK8KW6P4R","","null","<img src=""img/food1.png"" style=""width:200px;border:14px solid red;"">","null","","","","","","","","","",""
"","image-keyboard-response","166","45055","0.0-166.0","3DHE4R9OCXXFL5VAR4XZT856781G2J","AMNYS937UWC8M","3MXX6RQ9EVRTFC527Z18RDK8KW6P4R","","13","img/food4.png","74","15","1","1","3","1","1,0.5,0,1,0.5,0,0.5,0,1","1,0.5,0,1,0.5,0,0.5,0,1","1","",""
"","html-keyboard-response","167","45402","0.0-167.0","3DHE4R9OCXXFL5VAR4XZT856781G2J","AMNYS937UWC8M","3MXX6RQ9EVRTFC527Z18RDK8KW6P4R","","null","<img src=""img/food4.png"" style=""width:200px; border:14px solid green;"">","null","","","","","","","","","",""
"","image-keyboard-response","168","45427","0.0-168.0","3DHE4R9OCXXFL5VAR4XZT856781G2J","AMNYS937UWC8M","3MXX6RQ9EVRTFC527Z18RDK8KW6P4R","","24","img/food6.png","76","25","3","0","1","1","1,0.5,0,1,0.5,0,0.5,0,1","1,0.5,0,1,0.5,0,0.5,0,1","1","",""
"","html-keyboard-response","169","45729","0.0-169.0","3DHE4R9OCXXFL5VAR4XZT856781G2J","AMNYS937UWC8M","3MXX6RQ9EVRTFC527Z18RDK8KW6P4R","","null","<img src=""img/food6.png"" style=""width:200px;border:14px solid red;"">","null","","","","","","","","","",""
"","image-keyboard-response","170","45787","0.0-170.0","3DHE4R9OCXXFL5VAR4XZT856781G2J","AMNYS937UWC8M","3MXX6RQ9EVRTFC527Z18RDK8KW6P4R","","58","img/food1.png","76","58","3","0","2","1","1,0.5,0,1,0.5,0,0.5,0,1","1,0.5,0,1,0.5,0,0.5,0,1","1","",""
"","html-keyboard-response","171","46088","0.0-171.0","3DHE4R9OCXXFL5VAR4XZT856781G2J","AMNYS937UWC8M","3MXX6RQ9EVRTFC527Z18RDK8KW6P4R","","null","<img src=""img/food1.png"" style=""width:200px;border:14px solid red;"">","null","","","","","","","","","",""
"","image-keyboard-response","172","46127","0.0-172.0","3DHE4R9OCXXFL5VAR4XZT856781G2J","AMNYS937UWC8M","3MXX6RQ9EVRTFC527Z18RDK8KW6P4R","","39","img/food6.png","74","39","1","1","1","1","1,0.5,0,1,0.5,0,0.5,0,1","1,0.5,0,1,0.5,0,0.5,0,1","1","",""
"","html-keyboard-response","173","46428","0.0-173.0","3DHE4R9OCXXFL5VAR4XZT856781G2J","AMNYS937UWC8M","3MXX6RQ9EVRTFC527Z18RDK8KW6P4R","","null","<img src=""img/food6.png"" style=""width:200px; border:14px solid green;"">","null","","","","","","","","","",""
"","image-keyboard-response","174","46518","0.0-174.0","3DHE4R9OCXXFL5VAR4XZT856781G2J","AMNYS937UWC8M","3MXX6RQ9EVRTFC527Z18RDK8KW6P4R","","88","img/food6.png","74","90","1","1","1","1","1,0.5,0,1,0.5,0,0.5,0,1","1,0.5,0,1,0.5,0,0.5,0,1","1","",""
"","html-keyboard-response","175","46820","0.0-175.0","3DHE4R9OCXXFL5VAR4XZT856781G2J","AMNYS937UWC8M","3MXX6RQ9EVRTFC527Z18RDK8KW6P4R","","null","<img src=""img/food6.png"" style=""width:200px; border:14px solid green;"">","null","","","","","","","","","",""
"","image-keyboard-response","176","46997","0.0-176.0","3DHE4R9OCXXFL5VAR4XZT856781G2J","AMNYS937UWC8M","3MXX6RQ9EVRTFC527Z18RDK8KW6P4R","","176","img/food1.png","74","177","1","1","2","1","1,0.5,0,1,0.5,0,0.5,0,1","1,0.5,0,1,0.5,0,0.5,0,1","1","",""
"","html-keyboard-response","177","47298","0.0-177.0","3DHE4R9OCXXFL5VAR4XZT856781G2J","AMNYS937UWC8M","3MXX6RQ9EVRTFC527Z18RDK8KW6P4R","","null","<img src=""img/food1.png"" style=""width:200px; border:14px solid green;"">","null","","","","","","","","","",""
"","image-keyboard-response","178","47416","0.0-178.0","3DHE4R9OCXXFL5VAR4XZT856781G2J","AMNYS937UWC8M","3MXX6RQ9EVRTFC527Z18RDK8KW6P4R","","117","img/food4.png","74","119","1","0","3","1","1,0.5,0,1,0.5,0,0.5,0,1","1,0.5,0,1,0.5,0,0.5,0,1","1","",""
"","html-keyboard-response","179","47719","0.0-179.0","3DHE4R9OCXXFL5VAR4XZT856781G2J","AMNYS937UWC8M","3MXX6RQ9EVRTFC527Z18RDK8KW6P4R","","null","<img src=""img/food4.png"" style=""width:200px;border:14px solid red;"">","null","","","","","","","","","",""
"","image-keyboard-response","180","47827","0.0-180.0","3DHE4R9OCXXFL5VAR4XZT856781G2J","AMNYS937UWC8M","3MXX6RQ9EVRTFC527Z18RDK8KW6P4R","","107","img/food4.png","74","108","1","0","3","1","1,0.5,0,1,0.5,0,0.5,0,1","1,0.5,0,1,0.5,0,0.5,0,1","1","",""
"","html-keyboard-response","181","48128","0.0-181.0","3DHE4R9OCXXFL5VAR4XZT856781G2J","AMNYS937UWC8M","3MXX6RQ9EVRTFC527Z18RDK8KW6P4R","","null","<img src=""img/food4.png"" style=""width:200px;border:14px solid red;"">","null","","","","","","","","","",""
"","html-keyboard-response","182","50907","0.0-182.0","3DHE4R9OCXXFL5VAR4XZT856781G2J","AMNYS937UWC8M","3MXX6RQ9EVRTFC527Z18RDK8KW6P4R","","","","","","","","","","","","","",""
"","instructions","183","55477","0.0-183.0","3DHE4R9OCXXFL5VAR4XZT856781G2J","AMNYS937UWC8M","3MXX6RQ9EVRTFC527Z18RDK8KW6P4R","[{""page_index"":0,""viewing_time"":2210},{""page_index"":1,""viewing_time"":2360}]","4570","","","","","","","","","","","",""
"","image-keyboard-response","184","56335","0.0-184.0","3DHE4R9OCXXFL5VAR4XZT856781G2J","AMNYS937UWC8M","3MXX6RQ9EVRTFC527Z18RDK8KW6P4R","","855","img/food2.png","74","858","1","1","3","2","1,0.5,0,1,0.5,0,0.5,0,1","1,0.5,0,1,0.5,0,0.5,0,1","1","false",""
"","html-keyboard-response","185","56637","0.0-185.0","3DHE4R9OCXXFL5VAR4XZT856781G2J","AMNYS937UWC8M","3MXX6RQ9EVRTFC527Z18RDK8KW6P4R","","null","<img src=""img/food2.png"" style=""width:200px; border:14px solid green;"">","null","","","","","","","","","",""
"","image-keyboard-response","186","56755","0.0-187.0","3DHE4R9OCXXFL5VAR4XZT856781G2J","AMNYS937UWC8M","3MXX6RQ9EVRTFC527Z18RDK8KW6P4R","","117","img/food3.png","74","117","1","1","1","2","1,0.5,0,1,0.5,0,0.5,0,1","1,0.5,0,1,0.5,0,0.5,0,1","1","false",""
"","html-keyboard-response","187","57068","0.0-188.0","3DHE4R9OCXXFL5VAR4XZT856781G2J","AMNYS937UWC8M","3MXX6RQ9EVRTFC527Z18RDK8KW6P4R","","null","<img src=""img/food3.png"" style=""width:200px; border:14px solid green;"">","null","","","","","","","","","",""
"","image-keyboard-response","188","57096","0.0-190.0","3DHE4R9OCXXFL5VAR4XZT856781G2J","AMNYS937UWC8M","3MXX6RQ9EVRTFC527Z18RDK8KW6P4R","","27","img/food3.png","74","27","1","1","1","2","1,0.5,0,1,0.5,0,0.5,0,1","1,0.5,0,1,0.5,0,0.5,0,1","1","false",""
"","html-keyboard-response","189","57397","0.0-191.0","3DHE4R9OCXXFL5VAR4XZT856781G2J","AMNYS937UWC8M","3MXX6RQ9EVRTFC527Z18RDK8KW6P4R","","null","<img src=""img/food3.png"" style=""width:200px; border:14px solid green;"">","null","","","","","","","","","",""
"","image-keyboard-response","190","57496","0.0-193.0","3DHE4R9OCXXFL5VAR4XZT856781G2J","AMNYS937UWC8M","3MXX6RQ9EVRTFC527Z18RDK8KW6P4R","","98","img/food2.png","74","99","1","0","3","2","1,0.5,0,1,0.5,0,0.5,0,1","1,0.5,0,1,0.5,0,0.5,0,1","1","false",""
"","html-keyboard-response","191","57797","0.0-194.0","3DHE4R9OCXXFL5VAR4XZT856781G2J","AMNYS937UWC8M","3MXX6RQ9EVRTFC527Z18RDK8KW6P4R","","null","<img src=""img/food2.png"" style=""width:200px;border:14px solid red;"">","null","","","","","","","","","",""
"","image-keyboard-response","192","57877","0.0-196.0","3DHE4R9OCXXFL5VAR4XZT856781G2J","AMNYS937UWC8M","3MXX6RQ9EVRTFC527Z18RDK8KW6P4R","","79","img/food5.png","74","80","1","1","2","2","1,0.5,0,1,0.5,0,0.5,0,1","1,0.5,0,1,0.5,0,0.5,0,1","1","false",""
"","html-keyboard-response","193","58187","0.0-197.0","3DHE4R9OCXXFL5VAR4XZT856781G2J","AMNYS937UWC8M","3MXX6RQ9EVRTFC527Z18RDK8KW6P4R","","null","<img src=""img/food5.png"" style=""width:200px; border:14px solid green;"">","null","","","","","","","","","",""
"","image-keyboard-response","194","58197","0.0-199.0","3DHE4R9OCXXFL5VAR4XZT856781G2J","AMNYS937UWC8M","3MXX6RQ9EVRTFC527Z18RDK8KW6P4R","","8","img/food5.png","76","10","3","0","2","2","1,0.5,0,1,0.5,0,0.5,0,1","1,0.5,0,1,0.5,0,0.5,0,1","1","false",""
"","html-keyboard-response","195","58498","0.0-200.0","3DHE4R9OCXXFL5VAR4XZT856781G2J","AMNYS937UWC8M","3MXX6RQ9EVRTFC527Z18RDK8KW6P4R","","null","<img src=""img/food5.png"" style=""width:200px;border:14px solid red;"">","null","","","","","","","","","",""
"","image-keyboard-response","196","58531","0.0-202.0","3DHE4R9OCXXFL5VAR4XZT856781G2J","AMNYS937UWC8M","3MXX6RQ9EVRTFC527Z18RDK8KW6P4R","","33","img/food3.png","76","33","3","0","1","2","1,0.5,0,1,0.5,0,0.5,0,1","1,0.5,0,1,0.5,0,0.5,0,1","1","false",""
"","html-keyboard-response","197","58832","0.0-203.0","3DHE4R9OCXXFL5VAR4XZT856781G2J","AMNYS937UWC8M","3MXX6RQ9EVRTFC527Z18RDK8KW6P4R","","null","<img src=""img/food3.png"" style=""width:200px;border:14px solid red;"">","null","","","","","","","","","",""
"","image-keyboard-response","198","58845","0.0-205.0","3DHE4R9OCXXFL5VAR4XZT856781G2J","AMNYS937UWC8M","3MXX6RQ9EVRTFC527Z18RDK8KW6P4R","","12","img/food3.png","74","14","1","1","1","2","1,0.5,0,1,0.5,0,0.5,0,1","1,0.5,0,1,0.5,0,0.5,0,1","1","false",""
"","html-keyboard-response","199","59146","0.0-206.0","3DHE4R9OCXXFL5VAR4XZT856781G2J","AMNYS937UWC8M","3MXX6RQ9EVRTFC527Z18RDK8KW6P4R","","null","<img src=""img/food3.png"" style=""width:200px; border:14px solid green;"">","null","","","","","","","","","",""
"","image-keyboard-response","200","59248","0.0-208.0","3DHE4R9OCXXFL5VAR4XZT856781G2J","AMNYS937UWC8M","3MXX6RQ9EVRTFC527Z18RDK8KW6P4R","","102","img/food5.png","74","102","1","1","2","2","1,0.5,0,1,0.5,0,0.5,0,1","1,0.5,0,1,0.5,0,0.5,0,1","1","false",""
"","html-keyboard-response","201","59552","0.0-209.0","3DHE4R9OCXXFL5VAR4XZT856781G2J","AMNYS937UWC8M","3MXX6RQ9EVRTFC527Z18RDK8KW6P4R","","null","<img src=""img/food5.png"" style=""width:200px; border:14px solid green;"">","null","","","","","","","","","",""
"","image-keyboard-response","202","59666","0.0-211.0","3DHE4R9OCXXFL5VAR4XZT856781G2J","AMNYS937UWC8M","3MXX6RQ9EVRTFC527Z18RDK8KW6P4R","","113","img/food3.png","74","114","1","1","1","2","1,0.5,0,1,0.5,0,0.5,0,1","1,0.5,0,1,0.5,0,0.5,0,1","1","false",""
"","html-keyboard-response","203","59968","0.0-212.0","3DHE4R9OCXXFL5VAR4XZT856781G2J","AMNYS937UWC8M","3MXX6RQ9EVRTFC527Z18RDK8KW6P4R","","null","<img src=""img/food3.png"" style=""width:200px; border:14px solid green;"">","null","","","","","","","","","",""
"","image-keyboard-response","204","60036","0.0-214.0","3DHE4R9OCXXFL5VAR4XZT856781G2J","AMNYS937UWC8M","3MXX6RQ9EVRTFC527Z18RDK8KW6P4R","","67","img/food2.png","74","68","1","0","3","2","1,0.5,0,1,0.5,0,0.5,0,1","1,0.5,0,1,0.5,0,0.5,0,1","1","false",""
"","html-keyboard-response","205","60338","0.0-215.0","3DHE4R9OCXXFL5VAR4XZT856781G2J","AMNYS937UWC8M","3MXX6RQ9EVRTFC527Z18RDK8KW6P4R","","null","<img src=""img/food2.png"" style=""width:200px;border:14px solid red;"">","null","","","","","","","","","",""
"","image-keyboard-response","206","60397","0.0-217.0","3DHE4R9OCXXFL5VAR4XZT856781G2J","AMNYS937UWC8M","3MXX6RQ9EVRTFC527Z18RDK8KW6P4R","","57","img/food3.png","74","59","1","1","1","2","1,0.5,0,1,0.5,0,0.5,0,1","1,0.5,0,1,0.5,0,0.5,0,1","1","false",""
"","html-keyboard-response","207","60698","0.0-218.0","3DHE4R9OCXXFL5VAR4XZT856781G2J","AMNYS937UWC8M","3MXX6RQ9EVRTFC527Z18RDK8KW6P4R","","null","<img src=""img/food3.png"" style=""width:200px; border:14px solid green;"">","null","","","","","","","","","",""
"","image-keyboard-response","208","60821","0.0-220.0","3DHE4R9OCXXFL5VAR4XZT856781G2J","AMNYS937UWC8M","3MXX6RQ9EVRTFC527Z18RDK8KW6P4R","","121","img/food5.png","74","123","1","1","2","2","1,0.5,0,1,0.5,0,0.5,0,1","1,0.5,0,1,0.5,0,0.5,0,1","1","false",""
"","html-keyboard-response","209","61123","0.0-221.0","3DHE4R9OCXXFL5VAR4XZT856781G2J","AMNYS937UWC8M","3MXX6RQ9EVRTFC527Z18RDK8KW6P4R","","null","<img src=""img/food5.png"" style=""width:200px; border:14px solid green;"">","null","","","","","","","","","",""
"","image-keyboard-response","210","61196","0.0-223.0","3DHE4R9OCXXFL5VAR4XZT856781G2J","AMNYS937UWC8M","3MXX6RQ9EVRTFC527Z18RDK8KW6P4R","","71","img/food5.png","74","73","1","1","2","2","1,0.5,0,1,0.5,0,0.5,0,1","1,0.5,0,1,0.5,0,0.5,0,1","1","false",""
"","html-keyboard-response","211","61498","0.0-224.0","3DHE4R9OCXXFL5VAR4XZT856781G2J","AMNYS937UWC8M","3MXX6RQ9EVRTFC527Z18RDK8KW6P4R","","null","<img src=""img/food5.png"" style=""width:200px; border:14px solid green;"">","null","","","","","","","","","",""
"","image-keyboard-response","212","61586","0.0-226.0","3DHE4R9OCXXFL5VAR4XZT856781G2J","AMNYS937UWC8M","3MXX6RQ9EVRTFC527Z18RDK8KW6P4R","","87","img/food2.png","74","88","1","0","3","2","1,0.5,0,1,0.5,0,0.5,0,1","1,0.5,0,1,0.5,0,0.5,0,1","1","false",""
"","html-keyboard-response","213","61888","0.0-227.0","3DHE4R9OCXXFL5VAR4XZT856781G2J","AMNYS937UWC8M","3MXX6RQ9EVRTFC527Z18RDK8KW6P4R","","null","<img src=""img/food2.png"" style=""width:200px;border:14px solid red;"">","null","","","","","","","","","",""
"","image-keyboard-response","214","61951","0.0-229.0","3DHE4R9OCXXFL5VAR4XZT856781G2J","AMNYS937UWC8M","3MXX6RQ9EVRTFC527Z18RDK8KW6P4R","","62","img/food3.png","74","63","1","1","1","2","1,0.5,0,1,0.5,0,0.5,0,1","1,0.5,0,1,0.5,0,0.5,0,1","1","false",""
"","html-keyboard-response","215","62267","0.0-230.0","3DHE4R9OCXXFL5VAR4XZT856781G2J","AMNYS937UWC8M","3MXX6RQ9EVRTFC527Z18RDK8KW6P4R","","null","<img src=""img/food3.png"" style=""width:200px; border:14px solid green;"">","null","","","","","","","","","",""
"","image-keyboard-response","216","62306","0.0-232.0","3DHE4R9OCXXFL5VAR4XZT856781G2J","AMNYS937UWC8M","3MXX6RQ9EVRTFC527Z18RDK8KW6P4R","","38","img/food3.png","74","39","1","1","1","2","1,0.5,0,1,0.5,0,0.5,0,1","1,0.5,0,1,0.5,0,0.5,0,1","1","false",""
"","html-keyboard-response","217","62607","0.0-233.0","3DHE4R9OCXXFL5VAR4XZT856781G2J","AMNYS937UWC8M","3MXX6RQ9EVRTFC527Z18RDK8KW6P4R","","null","<img src=""img/food3.png"" style=""width:200px; border:14px solid green;"">","null","","","","","","","","","",""
"","image-keyboard-response","218","62696","0.0-235.0","3DHE4R9OCXXFL5VAR4XZT856781G2J","AMNYS937UWC8M","3MXX6RQ9EVRTFC527Z18RDK8KW6P4R","","88","img/food3.png","74","89","1","1","1","2","1,0.5,0,1,0.5,0,0.5,0,1","1,0.5,0,1,0.5,0,0.5,0,1","1","false",""
"","html-keyboard-response","219","62998","0.0-236.0","3DHE4R9OCXXFL5VAR4XZT856781G2J","AMNYS937UWC8M","3MXX6RQ9EVRTFC527Z18RDK8KW6P4R","","null","<img src=""img/food3.png"" style=""width:200px; border:14px solid green;"">","null","","","","","","","","","",""
"","image-keyboard-response","220","63016","0.0-238.0","3DHE4R9OCXXFL5VAR4XZT856781G2J","AMNYS937UWC8M","3MXX6RQ9EVRTFC527Z18RDK8KW6P4R","","17","img/food5.png","76","17","3","0","2","2","1,0.5,0,1,0.5,0,0.5,0,1","1,0.5,0,1,0.5,0,0.5,0,1","1","false",""
"","html-keyboard-response","221","63317","0.0-239.0","3DHE4R9OCXXFL5VAR4XZT856781G2J","AMNYS937UWC8M","3MXX6RQ9EVRTFC527Z18RDK8KW6P4R","","null","<img src=""img/food5.png"" style=""width:200px;border:14px solid red;"">","null","","","","","","","","","",""
"","image-keyboard-response","222","63344","0.0-241.0","3DHE4R9OCXXFL5VAR4XZT856781G2J","AMNYS937UWC8M","3MXX6RQ9EVRTFC527Z18RDK8KW6P4R","","26","img/food2.png","74","26","1","0","3","2","1,0.5,0,1,0.5,0,0.5,0,1","1,0.5,0,1,0.5,0,0.5,0,1","1","false",""
"","html-keyboard-response","223","63646","0.0-242.0","3DHE4R9OCXXFL5VAR4XZT856781G2J","AMNYS937UWC8M","3MXX6RQ9EVRTFC527Z18RDK8KW6P4R","","null","<img src=""img/food2.png"" style=""width:200px;border:14px solid red;"">","null","","","","","","","","","",""
"","image-keyboard-response","224","63756","0.0-244.0","3DHE4R9OCXXFL5VAR4XZT856781G2J","AMNYS937UWC8M","3MXX6RQ9EVRTFC527Z18RDK8KW6P4R","","109","img/food2.png","74","110","1","1","3","2","1,0.5,0,1,0.5,0,0.5,0,1","1,0.5,0,1,0.5,0,0.5,0,1","1","false",""
"","html-keyboard-response","225","64056","0.0-245.0","3DHE4R9OCXXFL5VAR4XZT856781G2J","AMNYS937UWC8M","3MXX6RQ9EVRTFC527Z18RDK8KW6P4R","","null","<img src=""img/food2.png"" style=""width:200px; border:14px solid green;"">","null","","","","","","","","","",""
"","image-keyboard-response","226","64066","0.0-247.0","3DHE4R9OCXXFL5VAR4XZT856781G2J","AMNYS937UWC8M","3MXX6RQ9EVRTFC527Z18RDK8KW6P4R","","9","img/food3.png","76","9","3","0","1","2","1,0.5,0,1,0.5,0,0.5,0,1","1,0.5,0,1,0.5,0,0.5,0,1","1","false",""
"","html-keyboard-response","227","64368","0.0-248.0","3DHE4R9OCXXFL5VAR4XZT856781G2J","AMNYS937UWC8M","3MXX6RQ9EVRTFC527Z18RDK8KW6P4R","","null","<img src=""img/food3.png"" style=""width:200px;border:14px solid red;"">","null","","","","","","","","","",""
"","image-keyboard-response","228","64385","0.0-250.0","3DHE4R9OCXXFL5VAR4XZT856781G2J","AMNYS937UWC8M","3MXX6RQ9EVRTFC527Z18RDK8KW6P4R","","16","img/food2.png","74","17","1","1","3","2","1,0.5,0,1,0.5,0,0.5,0,1","1,0.5,0,1,0.5,0,0.5,0,1","1","false",""
"","html-keyboard-response","229","64686","0.0-251.0","3DHE4R9OCXXFL5VAR4XZT856781G2J","AMNYS937UWC8M","3MXX6RQ9EVRTFC527Z18RDK8KW6P4R","","null","<img src=""img/food2.png"" style=""width:200px; border:14px solid green;"">","null","","","","","","","","","",""
"","image-keyboard-response","230","64720","0.0-253.0","3DHE4R9OCXXFL5VAR4XZT856781G2J","AMNYS937UWC8M","3MXX6RQ9EVRTFC527Z18RDK8KW6P4R","","31","img/food2.png","76","32","3","1","3","2","1,0.5,0,1,0.5,0,0.5,0,1","1,0.5,0,1,0.5,0,0.5,0,1","1","false",""
"","html-keyboard-response","231","65022","0.0-254.0","3DHE4R9OCXXFL5VAR4XZT856781G2J","AMNYS937UWC8M","3MXX6RQ9EVRTFC527Z18RDK8KW6P4R","","null","<img src=""img/food2.png"" style=""width:200px; border:14px solid green;"">","null","","","","","","","","","",""
"","image-keyboard-response","232","65076","0.0-256.0","3DHE4R9OCXXFL5VAR4XZT856781G2J","AMNYS937UWC8M","3MXX6RQ9EVRTFC527Z18RDK8KW6P4R","","52","img/food2.png","74","53","1","1","3","2","1,0.5,0,1,0.5,0,0.5,0,1","1,0.5,0,1,0.5,0,0.5,0,1","1","false",""
"","html-keyboard-response","233","65377","0.0-257.0","3DHE4R9OCXXFL5VAR4XZT856781G2J","AMNYS937UWC8M","3MXX6RQ9EVRTFC527Z18RDK8KW6P4R","","null","<img src=""img/food2.png"" style=""width:200px; border:14px solid green;"">","null","","","","","","","","","",""
"","image-keyboard-response","234","65397","0.0-259.0","3DHE4R9OCXXFL5VAR4XZT856781G2J","AMNYS937UWC8M","3MXX6RQ9EVRTFC527Z18RDK8KW6P4R","","17","img/food3.png","76","19","3","0","1","2","1,0.5,0,1,0.5,0,0.5,0,1","1,0.5,0,1,0.5,0,0.5,0,1","1","false",""
"","html-keyboard-response","235","65699","0.0-260.0","3DHE4R9OCXXFL5VAR4XZT856781G2J","AMNYS937UWC8M","3MXX6RQ9EVRTFC527Z18RDK8KW6P4R","","null","<img src=""img/food3.png"" style=""width:200px;border:14px solid red;"">","null","","","","","","","","","",""
"","image-keyboard-response","236","65759","0.0-262.0","3DHE4R9OCXXFL5VAR4XZT856781G2J","AMNYS937UWC8M","3MXX6RQ9EVRTFC527Z18RDK8KW6P4R","","58","img/food5.png","75","59","2","1","2","2","1,0.5,0,1,0.5,0,0.5,0,1","1,0.5,0,1,0.5,0,0.5,0,1","1","false",""
"","html-keyboard-response","237","66061","0.0-263.0","3DHE4R9OCXXFL5VAR4XZT856781G2J","AMNYS937UWC8M","3MXX6RQ9EVRTFC527Z18RDK8KW6P4R","","null","<img src=""img/food5.png"" style=""width:200px; border:14px solid green;"">","null","","","","","","","","","",""
"","image-keyboard-response","238","66226","0.0-265.0","3DHE4R9OCXXFL5VAR4XZT856781G2J","AMNYS937UWC8M","3MXX6RQ9EVRTFC527Z18RDK8KW6P4R","","164","img/food5.png","75","165","2","0","2","2","1,0.5,0,1,0.5,0,0.5,0,1","1,0.5,0,1,0.5,0,0.5,0,1","1","false",""
"","html-keyboard-response","239","66527","0.0-266.0","3DHE4R9OCXXFL5VAR4XZT856781G2J","AMNYS937UWC8M","3MXX6RQ9EVRTFC527Z18RDK8KW6P4R","","null","<img src=""img/food5.png"" style=""width:200px;border:14px solid red;"">","null","","","","","","","","","",""
"","image-keyboard-response","240","66696","0.0-268.0","3DHE4R9OCXXFL5VAR4XZT856781G2J","AMNYS937UWC8M","3MXX6RQ9EVRTFC527Z18RDK8KW6P4R","","168","img/food3.png","74","169","1","1","1","2","1,0.5,0,1,0.5,0,0.5,0,1","1,0.5,0,1,0.5,0,0.5,0,1","1","false",""
"","html-keyboard-response","241","66997","0.0-269.0","3DHE4R9OCXXFL5VAR4XZT856781G2J","AMNYS937UWC8M","3MXX6RQ9EVRTFC527Z18RDK8KW6P4R","","null","<img src=""img/food3.png"" style=""width:200px; border:14px solid green;"">","null","","","","","","","","","",""
"","image-keyboard-response","242","67129","0.0-271.0","3DHE4R9OCXXFL5VAR4XZT856781G2J","AMNYS937UWC8M","3MXX6RQ9EVRTFC527Z18RDK8KW6P4R","","131","img/food5.png","75","131","2","0","2","2","1,0.5,0,1,0.5,0,0.5,0,1","1,0.5,0,1,0.5,0,0.5,0,1","1","false",""
"","html-keyboard-response","243","67431","0.0-272.0","3DHE4R9OCXXFL5VAR4XZT856781G2J","AMNYS937UWC8M","3MXX6RQ9EVRTFC527Z18RDK8KW6P4R","","null","<img src=""img/food5.png"" style=""width:200px;border:14px solid red;"">","null","","","","","","","","","",""
"","image-keyboard-response","244","67536","0.0-274.0","3DHE4R9OCXXFL5VAR4XZT856781G2J","AMNYS937UWC8M","3MXX6RQ9EVRTFC527Z18RDK8KW6P4R","","103","img/food2.png","75","105","2","0","3","2","1,0.5,0,1,0.5,0,0.5,0,1","1,0.5,0,1,0.5,0,0.5,0,1","1","false",""
"","html-keyboard-response","245","67838","0.0-275.0","3DHE4R9OCXXFL5VAR4XZT856781G2J","AMNYS937UWC8M","3MXX6RQ9EVRTFC527Z18RDK8KW6P4R","","null","<img src=""img/food2.png"" style=""width:200px;border:14px solid red;"">","null","","","","","","","","","",""
"","image-keyboard-response","246","67851","0.0-277.0","3DHE4R9OCXXFL5VAR4XZT856781G2J","AMNYS937UWC8M","3MXX6RQ9EVRTFC527Z18RDK8KW6P4R","","10","img/food2.png","76","13","3","1","3","2","1,0.5,0,1,0.5,0,0.5,0,1","1,0.5,0,1,0.5,0,0.5,0,1","1","false",""
"","html-keyboard-response","247","68153","0.0-278.0","3DHE4R9OCXXFL5VAR4XZT856781G2J","AMNYS937UWC8M","3MXX6RQ9EVRTFC527Z18RDK8KW6P4R","","null","<img src=""img/food2.png"" style=""width:200px; border:14px solid green;"">","null","","","","","","","","","",""
"","image-keyboard-response","248","68214","0.0-280.0","3DHE4R9OCXXFL5VAR4XZT856781G2J","AMNYS937UWC8M","3MXX6RQ9EVRTFC527Z18RDK8KW6P4R","","60","img/food2.png","74","61","1","0","3","2","1,0.5,0,1,0.5,0,0.5,0,1","1,0.5,0,1,0.5,0,0.5,0,1","1","false",""
"","html-keyboard-response","249","68516","0.0-281.0","3DHE4R9OCXXFL5VAR4XZT856781G2J","AMNYS937UWC8M","3MXX6RQ9EVRTFC527Z18RDK8KW6P4R","","null","<img src=""img/food2.png"" style=""width:200px;border:14px solid red;"">","null","","","","","","","","","",""
"","image-keyboard-response","250","68647","0.0-283.0","3DHE4R9OCXXFL5VAR4XZT856781G2J","AMNYS937UWC8M","3MXX6RQ9EVRTFC527Z18RDK8KW6P4R","","130","img/food2.png","74","131","1","1","3","2","1,0.5,0,1,0.5,0,0.5,0,1","1,0.5,0,1,0.5,0,0.5,0,1","1","false",""
"","html-keyboard-response","251","68948","0.0-284.0","3DHE4R9OCXXFL5VAR4XZT856781G2J","AMNYS937UWC8M","3MXX6RQ9EVRTFC527Z18RDK8KW6P4R","","null","<img src=""img/food2.png"" style=""width:200px; border:14px solid green;"">","null","","","","","","","","","",""
"","image-keyboard-response","252","68966","0.0-286.0","3DHE4R9OCXXFL5VAR4XZT856781G2J","AMNYS937UWC8M","3MXX6RQ9EVRTFC527Z18RDK8KW6P4R","","17","img/food5.png","76","17","3","0","2","2","1,0.5,0,1,0.5,0,0.5,0,1","1,0.5,0,1,0.5,0,0.5,0,1","1","false",""
"","html-keyboard-response","253","69269","0.0-287.0","3DHE4R9OCXXFL5VAR4XZT856781G2J","AMNYS937UWC8M","3MXX6RQ9EVRTFC527Z18RDK8KW6P4R","","null","<img src=""img/food5.png"" style=""width:200px;border:14px solid red;"">","null","","","","","","","","","",""
"","image-keyboard-response","254","69337","0.0-289.0","3DHE4R9OCXXFL5VAR4XZT856781G2J","AMNYS937UWC8M","3MXX6RQ9EVRTFC527Z18RDK8KW6P4R","","67","img/food5.png","74","67","1","1","2","2","1,0.5,0,1,0.5,0,0.5,0,1","1,0.5,0,1,0.5,0,0.5,0,1","1","false",""
"","html-keyboard-response","255","69638","0.0-290.0","3DHE4R9OCXXFL5VAR4XZT856781G2J","AMNYS937UWC8M","3MXX6RQ9EVRTFC527Z18RDK8KW6P4R","","null","<img src=""img/food5.png"" style=""width:200px; border:14px solid green;"">","null","","","","","","","","","",""
"","image-keyboard-response","256","69708","0.0-292.0","3DHE4R9OCXXFL5VAR4XZT856781G2J","AMNYS937UWC8M","3MXX6RQ9EVRTFC527Z18RDK8KW6P4R","","68","img/food3.png","74","70","1","1","1","2","1,0.5,0,1,0.5,0,0.5,0,1","1,0.5,0,1,0.5,0,0.5,0,1","1","false",""
"","html-keyboard-response","257","70010","0.0-293.0","3DHE4R9OCXXFL5VAR4XZT856781G2J","AMNYS937UWC8M","3MXX6RQ9EVRTFC527Z18RDK8KW6P4R","","null","<img src=""img/food3.png"" style=""width:200px; border:14px solid green;"">","null","","","","","","","","","",""
"","image-keyboard-response","258","70116","0.0-295.0","3DHE4R9OCXXFL5VAR4XZT856781G2J","AMNYS937UWC8M","3MXX6RQ9EVRTFC527Z18RDK8KW6P4R","","105","img/food3.png","74","106","1","1","1","2","1,0.5,0,1,0.5,0,0.5,0,1","1,0.5,0,1,0.5,0,0.5,0,1","1","false",""
"","html-keyboard-response","259","70418","0.0-296.0","3DHE4R9OCXXFL5VAR4XZT856781G2J","AMNYS937UWC8M","3MXX6RQ9EVRTFC527Z18RDK8KW6P4R","","null","<img src=""img/food3.png"" style=""width:200px; border:14px solid green;"">","null","","","","","","","","","",""
"","image-keyboard-response","260","70436","0.0-298.0","3DHE4R9OCXXFL5VAR4XZT856781G2J","AMNYS937UWC8M","3MXX6RQ9EVRTFC527Z18RDK8KW6P4R","","17","img/food5.png","76","17","3","0","2","2","1,0.5,0,1,0.5,0,0.5,0,1","1,0.5,0,1,0.5,0,0.5,0,1","1","false",""
"","html-keyboard-response","261","70737","0.0-299.0","3DHE4R9OCXXFL5VAR4XZT856781G2J","AMNYS937UWC8M","3MXX6RQ9EVRTFC527Z18RDK8KW6P4R","","null","<img src=""img/food5.png"" style=""width:200px;border:14px solid red;"">","null","","","","","","","","","",""
"","image-keyboard-response","262","70746","0.0-301.0","3DHE4R9OCXXFL5VAR4XZT856781G2J","AMNYS937UWC8M","3MXX6RQ9EVRTFC527Z18RDK8KW6P4R","","7","img/food3.png","74","9","1","1","1","2","1,0.5,0,1,0.5,0,0.5,0,1","1,0.5,0,1,0.5,0,0.5,0,1","1","false",""
"","html-keyboard-response","263","71051","0.0-302.0","3DHE4R9OCXXFL5VAR4XZT856781G2J","AMNYS937UWC8M","3MXX6RQ9EVRTFC527Z18RDK8KW6P4R","","null","<img src=""img/food3.png"" style=""width:200px; border:14px solid green;"">","null","","","","","","","","","",""
"","image-keyboard-response","264","71060","0.0-304.0","3DHE4R9OCXXFL5VAR4XZT856781G2J","AMNYS937UWC8M","3MXX6RQ9EVRTFC527Z18RDK8KW6P4R","","7","img/food5.png","76","8","3","0","2","2","1,0.5,0,1,0.5,0,0.5,0,1","1,0.5,0,1,0.5,0,0.5,0,1","1","false",""
"","html-keyboard-response","265","71360","0.0-305.0","3DHE4R9OCXXFL5VAR4XZT856781G2J","AMNYS937UWC8M","3MXX6RQ9EVRTFC527Z18RDK8KW6P4R","","null","<img src=""img/food5.png"" style=""width:200px;border:14px solid red;"">","null","","","","","","","","","",""
"","image-keyboard-response","266","71367","0.0-307.0","3DHE4R9OCXXFL5VAR4XZT856781G2J","AMNYS937UWC8M","3MXX6RQ9EVRTFC527Z18RDK8KW6P4R","","5","img/food3.png","74","7","1","1","1","2","1,0.5,0,1,0.5,0,0.5,0,1","1,0.5,0,1,0.5,0,0.5,0,1","1","false",""
"","html-keyboard-response","267","71689","0.0-308.0","3DHE4R9OCXXFL5VAR4XZT856781G2J","AMNYS937UWC8M","3MXX6RQ9EVRTFC527Z18RDK8KW6P4R","","null","<img src=""img/food3.png"" style=""width:200px; border:14px solid green;"">","null","","","","","","","","","",""
"","image-keyboard-response","268","71701","0.0-310.0","3DHE4R9OCXXFL5VAR4XZT856781G2J","AMNYS937UWC8M","3MXX6RQ9EVRTFC527Z18RDK8KW6P4R","","10","img/food2.png","76","10","3","1","3","2","1,0.5,0,1,0.5,0,0.5,0,1","1,0.5,0,1,0.5,0,0.5,0,1","1","false",""
"","html-keyboard-response","269","72002","0.0-311.0","3DHE4R9OCXXFL5VAR4XZT856781G2J","AMNYS937UWC8M","3MXX6RQ9EVRTFC527Z18RDK8KW6P4R","","null","<img src=""img/food2.png"" style=""width:200px; border:14px solid green;"">","null","","","","","","","","","",""
"","image-keyboard-response","270","72046","0.0-313.0","3DHE4R9OCXXFL5VAR4XZT856781G2J","AMNYS937UWC8M","3MXX6RQ9EVRTFC527Z18RDK8KW6P4R","","43","img/food3.png","74","43","1","1","1","2","1,0.5,0,1,0.5,0,0.5,0,1","1,0.5,0,1,0.5,0,0.5,0,1","1","false",""
"","html-keyboard-response","271","72348","0.0-314.0","3DHE4R9OCXXFL5VAR4XZT856781G2J","AMNYS937UWC8M","3MXX6RQ9EVRTFC527Z18RDK8KW6P4R","","null","<img src=""img/food3.png"" style=""width:200px; border:14px solid green;"">","null","","","","","","","","","",""
"","image-keyboard-response","272","72365","0.0-316.0","3DHE4R9OCXXFL5VAR4XZT856781G2J","AMNYS937UWC8M","3MXX6RQ9EVRTFC527Z18RDK8KW6P4R","","16","img/food5.png","76","17","3","0","2","2","1,0.5,0,1,0.5,0,0.5,0,1","1,0.5,0,1,0.5,0,0.5,0,1","1","false",""
"","html-keyboard-response","273","72667","0.0-317.0","3DHE4R9OCXXFL5VAR4XZT856781G2J","AMNYS937UWC8M","3MXX6RQ9EVRTFC527Z18RDK8KW6P4R","","null","<img src=""img/food5.png"" style=""width:200px;border:14px solid red;"">","null","","","","","","","","","",""
"","image-keyboard-response","274","72757","0.0-319.0","3DHE4R9OCXXFL5VAR4XZT856781G2J","AMNYS937UWC8M","3MXX6RQ9EVRTFC527Z18RDK8KW6P4R","","87","img/food2.png","74","89","1","1","3","2","1,0.5,0,1,0.5,0,0.5,0,1","1,0.5,0,1,0.5,0,0.5,0,1","1","false",""
"","html-keyboard-response","275","73083","0.0-320.0","3DHE4R9OCXXFL5VAR4XZT856781G2J","AMNYS937UWC8M","3MXX6RQ9EVRTFC527Z18RDK8KW6P4R","","null","<img src=""img/food2.png"" style=""width:200px; border:14px solid green;"">","null","","","","","","","","","",""
"","image-keyboard-response","276","73095","0.0-322.0","3DHE4R9OCXXFL5VAR4XZT856781G2J","AMNYS937UWC8M","3MXX6RQ9EVRTFC527Z18RDK8KW6P4R","","11","img/food5.png","76","12","3","0","2","2","1,0.5,0,1,0.5,0,0.5,0,1","1,0.5,0,1,0.5,0,0.5,0,1","1","false",""
"","html-keyboard-response","277","73396","0.0-323.0","3DHE4R9OCXXFL5VAR4XZT856781G2J","AMNYS937UWC8M","3MXX6RQ9EVRTFC527Z18RDK8KW6P4R","","null","<img src=""img/food5.png"" style=""width:200px;border:14px solid red;"">","null","","","","","","","","","",""
"","image-keyboard-response","278","73436","0.0-325.0","3DHE4R9OCXXFL5VAR4XZT856781G2J","AMNYS937UWC8M","3MXX6RQ9EVRTFC527Z18RDK8KW6P4R","","38","img/food2.png","74","40","1","0","3","2","1,0.5,0,1,0.5,0,0.5,0,1","1,0.5,0,1,0.5,0,0.5,0,1","1","false",""
"","html-keyboard-response","279","73736","0.0-326.0","3DHE4R9OCXXFL5VAR4XZT856781G2J","AMNYS937UWC8M","3MXX6RQ9EVRTFC527Z18RDK8KW6P4R","","null","<img src=""img/food2.png"" style=""width:200px;border:14px solid red;"">","null","","","","","","","","","",""
"","image-keyboard-response","280","73766","0.0-328.0","3DHE4R9OCXXFL5VAR4XZT856781G2J","AMNYS937UWC8M","3MXX6RQ9EVRTFC527Z18RDK8KW6P4R","","29","img/food5.png","76","30","3","0","2","2","1,0.5,0,1,0.5,0,0.5,0,1","1,0.5,0,1,0.5,0,0.5,0,1","1","false",""
"","html-keyboard-response","281","74068","0.0-329.0","3DHE4R9OCXXFL5VAR4XZT856781G2J","AMNYS937UWC8M","3MXX6RQ9EVRTFC527Z18RDK8KW6P4R","","null","<img src=""img/food5.png"" style=""width:200px;border:14px solid red;"">","null","","","","","","","","","",""
"","image-keyboard-response","282","74117","0.0-331.0","3DHE4R9OCXXFL5VAR4XZT856781G2J","AMNYS937UWC8M","3MXX6RQ9EVRTFC527Z18RDK8KW6P4R","","47","img/food3.png","74","47","1","1","1","2","1,0.5,0,1,0.5,0,0.5,0,1","1,0.5,0,1,0.5,0,0.5,0,1","1","false",""
"","html-keyboard-response","283","74419","0.0-332.0","3DHE4R9OCXXFL5VAR4XZT856781G2J","AMNYS937UWC8M","3MXX6RQ9EVRTFC527Z18RDK8KW6P4R","","null","<img src=""img/food3.png"" style=""width:200px; border:14px solid green;"">","null","","","","","","","","","",""
"","image-keyboard-response","284","74427","0.0-334.0","3DHE4R9OCXXFL5VAR4XZT856781G2J","AMNYS937UWC8M","3MXX6RQ9EVRTFC527Z18RDK8KW6P4R","","7","img/food2.png","76","8","3","1","3","2","1,0.5,0,1,0.5,0,0.5,0,1","1,0.5,0,1,0.5,0,0.5,0,1","1","false",""
"","html-keyboard-response","285","74729","0.0-335.0","3DHE4R9OCXXFL5VAR4XZT856781G2J","AMNYS937UWC8M","3MXX6RQ9EVRTFC527Z18RDK8KW6P4R","","null","<img src=""img/food2.png"" style=""width:200px; border:14px solid green;"">","null","","","","","","","","","",""
"","image-keyboard-response","286","74864","0.0-337.0","3DHE4R9OCXXFL5VAR4XZT856781G2J","AMNYS937UWC8M","3MXX6RQ9EVRTFC527Z18RDK8KW6P4R","","133","img/food5.png","75","135","2","0","2","2","1,0.5,0,1,0.5,0,0.5,0,1","1,0.5,0,1,0.5,0,0.5,0,1","1","false",""
"","html-keyboard-response","287","75164","0.0-338.0","3DHE4R9OCXXFL5VAR4XZT856781G2J","AMNYS937UWC8M","3MXX6RQ9EVRTFC527Z18RDK8KW6P4R","","null","<img src=""img/food5.png"" style=""width:200px;border:14px solid red;"">","null","","","","","","","","","",""
"","image-keyboard-response","288","75224","0.0-340.0","3DHE4R9OCXXFL5VAR4XZT856781G2J","AMNYS937UWC8M","3MXX6RQ9EVRTFC527Z18RDK8KW6P4R","","58","img/food2.png","74","60","1","0","3","2","1,0.5,0,1,0.5,0,0.5,0,1","1,0.5,0,1,0.5,0,0.5,0,1","1","false",""
"","html-keyboard-response","289","75525","0.0-341.0","3DHE4R9OCXXFL5VAR4XZT856781G2J","AMNYS937UWC8M","3MXX6RQ9EVRTFC527Z18RDK8KW6P4R","","null","<img src=""img/food2.png"" style=""width:200px;border:14px solid red;"">","null","","","","","","","","","",""
"","image-keyboard-response","290","75636","0.0-343.0","3DHE4R9OCXXFL5VAR4XZT856781G2J","AMNYS937UWC8M","3MXX6RQ9EVRTFC527Z18RDK8KW6P4R","","110","img/food5.png","74","111","1","1","2","2","1,0.5,0,1,0.5,0,0.5,0,1","1,0.5,0,1,0.5,0,0.5,0,1","1","false",""
"","html-keyboard-response","291","75938","0.0-344.0","3DHE4R9OCXXFL5VAR4XZT856781G2J","AMNYS937UWC8M","3MXX6RQ9EVRTFC527Z18RDK8KW6P4R","","null","<img src=""img/food5.png"" style=""width:200px; border:14px solid green;"">","null","","","","","","","","","",""
"","image-keyboard-response","292","76039","0.0-346.0","3DHE4R9OCXXFL5VAR4XZT856781G2J","AMNYS937UWC8M","3MXX6RQ9EVRTFC527Z18RDK8KW6P4R","","100","img/food3.png","76","101","3","0","1","2","1,0.5,0,1,0.5,0,0.5,0,1","1,0.5,0,1,0.5,0,0.5,0,1","1","false",""
"","html-keyboard-response","293","76341","0.0-347.0","3DHE4R9OCXXFL5VAR4XZT856781G2J","AMNYS937UWC8M","3MXX6RQ9EVRTFC527Z18RDK8KW6P4R","","null","<img src=""img/food3.png"" style=""width:200px;border:14px solid red;"">","null","","","","","","","","","",""
"","image-keyboard-response","294","76356","0.0-349.0","3DHE4R9OCXXFL5VAR4XZT856781G2J","AMNYS937UWC8M","3MXX6RQ9EVRTFC527Z18RDK8KW6P4R","","14","img/food5.png","76","14","3","0","2","2","1,0.5,0,1,0.5,0,0.5,0,1","1,0.5,0,1,0.5,0,0.5,0,1","1","false",""
"","html-keyboard-response","295","76657","0.0-350.0","3DHE4R9OCXXFL5VAR4XZT856781G2J","AMNYS937UWC8M","3MXX6RQ9EVRTFC527Z18RDK8KW6P4R","","null","<img src=""img/food5.png"" style=""width:200px;border:14px solid red;"">","null","","","","","","","","","",""
"","image-keyboard-response","296","76746","0.0-352.0","3DHE4R9OCXXFL5VAR4XZT856781G2J","AMNYS937UWC8M","3MXX6RQ9EVRTFC527Z18RDK8KW6P4R","","88","img/food3.png","74","89","1","1","1","2","1,0.5,0,1,0.5,0,0.5,0,1","1,0.5,0,1,0.5,0,0.5,0,1","1","false",""
"","html-keyboard-response","297","77050","0.0-353.0","3DHE4R9OCXXFL5VAR4XZT856781G2J","AMNYS937UWC8M","3MXX6RQ9EVRTFC527Z18RDK8KW6P4R","","null","<img src=""img/food3.png"" style=""width:200px; border:14px solid green;"">","null","","","","","","","","","",""
"","image-keyboard-response","298","77058","0.0-355.0","3DHE4R9OCXXFL5VAR4XZT856781G2J","AMNYS937UWC8M","3MXX6RQ9EVRTFC527Z18RDK8KW6P4R","","7","img/food5.png","76","7","3","0","2","2","1,0.5,0,1,0.5,0,0.5,0,1","1,0.5,0,1,0.5,0,0.5,0,1","1","false",""
"","html-keyboard-response","299","77359","0.0-356.0","3DHE4R9OCXXFL5VAR4XZT856781G2J","AMNYS937UWC8M","3MXX6RQ9EVRTFC527Z18RDK8KW6P4R","","null","<img src=""img/food5.png"" style=""width:200px;border:14px solid red;"">","null","","","","","","","","","",""
"","image-keyboard-response","300","77426","0.0-358.0","3DHE4R9OCXXFL5VAR4XZT856781G2J","AMNYS937UWC8M","3MXX6RQ9EVRTFC527Z18RDK8KW6P4R","","66","img/food5.png","74","67","1","1","2","2","1,0.5,0,1,0.5,0,0.5,0,1","1,0.5,0,1,0.5,0,0.5,0,1","1","false",""
"","html-keyboard-response","301","77727","0.0-359.0","3DHE4R9OCXXFL5VAR4XZT856781G2J","AMNYS937UWC8M","3MXX6RQ9EVRTFC527Z18RDK8KW6P4R","","null","<img src=""img/food5.png"" style=""width:200px; border:14px solid green;"">","null","","","","","","","","","",""
"","image-keyboard-response","302","77866","0.0-361.0","3DHE4R9OCXXFL5VAR4XZT856781G2J","AMNYS937UWC8M","3MXX6RQ9EVRTFC527Z18RDK8KW6P4R","","138","img/food5.png","74","139","1","1","2","2","1,0.5,0,1,0.5,0,0.5,0,1","1,0.5,0,1,0.5,0,0.5,0,1","1","false",""
"","html-keyboard-response","303","78168","0.0-362.0","3DHE4R9OCXXFL5VAR4XZT856781G2J","AMNYS937UWC8M","3MXX6RQ9EVRTFC527Z18RDK8KW6P4R","","null","<img src=""img/food5.png"" style=""width:200px; border:14px solid green;"">","null","","","","","","","","","",""
"","image-keyboard-response","304","78186","0.0-364.0","3DHE4R9OCXXFL5VAR4XZT856781G2J","AMNYS937UWC8M","3MXX6RQ9EVRTFC527Z18RDK8KW6P4R","","17","img/food5.png","76","17","3","0","2","2","1,0.5,0,1,0.5,0,0.5,0,1","1,0.5,0,1,0.5,0,0.5,0,1","1","false",""
"","html-keyboard-response","305","78487","0.0-365.0","3DHE4R9OCXXFL5VAR4XZT856781G2J","AMNYS937UWC8M","3MXX6RQ9EVRTFC527Z18RDK8KW6P4R","","null","<img src=""img/food5.png"" style=""width:200px;border:14px solid red;"">","null","","","","","","","","","",""
"","image-keyboard-response","306","78569","0.0-367.0","3DHE4R9OCXXFL5VAR4XZT856781G2J","AMNYS937UWC8M","3MXX6RQ9EVRTFC527Z18RDK8KW6P4R","","81","img/food5.png","74","82","1","1","2","2","1,0.5,0,1,0.5,0,0.5,0,1","1,0.5,0,1,0.5,0,0.5,0,1","1","false",""
"","html-keyboard-response","307","78870","0.0-368.0","3DHE4R9OCXXFL5VAR4XZT856781G2J","AMNYS937UWC8M","3MXX6RQ9EVRTFC527Z18RDK8KW6P4R","","null","<img src=""img/food5.png"" style=""width:200px; border:14px solid green;"">","null","","","","","","","","","",""
"","image-keyboard-response","308","78986","0.0-370.0","3DHE4R9OCXXFL5VAR4XZT856781G2J","AMNYS937UWC8M","3MXX6RQ9EVRTFC527Z18RDK8KW6P4R","","114","img/food5.png","75","115","2","1","2","2","1,0.5,0,1,0.5,0,0.5,0,1","1,0.5,0,1,0.5,0,0.5,0,1","1","false",""
"","html-keyboard-response","309","79288","0.0-371.0","3DHE4R9OCXXFL5VAR4XZT856781G2J","AMNYS937UWC8M","3MXX6RQ9EVRTFC527Z18RDK8KW6P4R","","null","<img src=""img/food5.png"" style=""width:200px; border:14px solid green;"">","null","","","","","","","","","",""
"","image-keyboard-response","310","79446","0.0-373.0","3DHE4R9OCXXFL5VAR4XZT856781G2J","AMNYS937UWC8M","3MXX6RQ9EVRTFC527Z18RDK8KW6P4R","","157","img/food2.png","74","158","1","0","3","2","1,0.5,0,1,0.5,0,0.5,0,1","1,0.5,0,1,0.5,0,0.5,0,1","1","false",""
"","html-keyboard-response","311","79750","0.0-374.0","3DHE4R9OCXXFL5VAR4XZT856781G2J","AMNYS937UWC8M","3MXX6RQ9EVRTFC527Z18RDK8KW6P4R","","null","<img src=""img/food2.png"" style=""width:200px;border:14px solid red;"">","null","","","","","","","","","",""
"","image-keyboard-response","312","79766","0.0-376.0","3DHE4R9OCXXFL5VAR4XZT856781G2J","AMNYS937UWC8M","3MXX6RQ9EVRTFC527Z18RDK8KW6P4R","","15","img/food5.png","76","15","3","0","2","2","1,0.5,0,1,0.5,0,0.5,0,1","1,0.5,0,1,0.5,0,0.5,0,1","1","false",""
"","html-keyboard-response","313","80067","0.0-377.0","3DHE4R9OCXXFL5VAR4XZT856781G2J","AMNYS937UWC8M","3MXX6RQ9EVRTFC527Z18RDK8KW6P4R","","null","<img src=""img/food5.png"" style=""width:200px;border:14px solid red;"">","null","","","","","","","","","",""
"","image-keyboard-response","314","80146","0.0-379.0","3DHE4R9OCXXFL5VAR4XZT856781G2J","AMNYS937UWC8M","3MXX6RQ9EVRTFC527Z18RDK8KW6P4R","","77","img/food2.png","74","78","1","1","3","2","1,0.5,0,1,0.5,0,0.5,0,1","1,0.5,0,1,0.5,0,0.5,0,1","1","false",""
"","html-keyboard-response","315","80448","0.0-380.0","3DHE4R9OCXXFL5VAR4XZT856781G2J","AMNYS937UWC8M","3MXX6RQ9EVRTFC527Z18RDK8KW6P4R","","null","<img src=""img/food2.png"" style=""width:200px; border:14px solid green;"">","null","","","","","","","","","",""
"","image-keyboard-response","316","80476","0.0-382.0","3DHE4R9OCXXFL5VAR4XZT856781G2J","AMNYS937UWC8M","3MXX6RQ9EVRTFC527Z18RDK8KW6P4R","","26","img/food5.png","76","27","3","0","2","2","1,0.5,0,1,0.5,0,0.5,0,1","1,0.5,0,1,0.5,0,0.5,0,1","1","false",""
"","html-keyboard-response","317","80777","0.0-383.0","3DHE4R9OCXXFL5VAR4XZT856781G2J","AMNYS937UWC8M","3MXX6RQ9EVRTFC527Z18RDK8KW6P4R","","null","<img src=""img/food5.png"" style=""width:200px;border:14px solid red;"">","null","","","","","","","","","",""
"","image-keyboard-response","318","80866","0.0-385.0","3DHE4R9OCXXFL5VAR4XZT856781G2J","AMNYS937UWC8M","3MXX6RQ9EVRTFC527Z18RDK8KW6P4R","","87","img/food3.png","74","89","1","1","1","2","1,0.5,0,1,0.5,0,0.5,0,1","1,0.5,0,1,0.5,0,0.5,0,1","1","false",""
"","html-keyboard-response","319","81168","0.0-386.0","3DHE4R9OCXXFL5VAR4XZT856781G2J","AMNYS937UWC8M","3MXX6RQ9EVRTFC527Z18RDK8KW6P4R","","null","<img src=""img/food3.png"" style=""width:200px; border:14px solid green;"">","null","","","","","","","","","",""
"","image-keyboard-response","320","81179","0.0-388.0","3DHE4R9OCXXFL5VAR4XZT856781G2J","AMNYS937UWC8M","3MXX6RQ9EVRTFC527Z18RDK8KW6P4R","","10","img/food2.png","76","10","3","1","3","2","1,0.5,0,1,0.5,0,0.5,0,1","1,0.5,0,1,0.5,0,0.5,0,1","1","false",""
"","html-keyboard-response","321","81480","0.0-389.0","3DHE4R9OCXXFL5VAR4XZT856781G2J","AMNYS937UWC8M","3MXX6RQ9EVRTFC527Z18RDK8KW6P4R","","null","<img src=""img/food2.png"" style=""width:200px; border:14px solid green;"">","null","","","","","","","","","",""
"","image-keyboard-response","322","81526","0.0-391.0","3DHE4R9OCXXFL5VAR4XZT856781G2J","AMNYS937UWC8M","3MXX6RQ9EVRTFC527Z18RDK8KW6P4R","","45","img/food2.png","74","46","1","0","3","2","1,0.5,0,1,0.5,0,0.5,0,1","1,0.5,0,1,0.5,0,0.5,0,1","1","false",""
"","html-keyboard-response","323","81829","0.0-392.0","3DHE4R9OCXXFL5VAR4XZT856781G2J","AMNYS937UWC8M","3MXX6RQ9EVRTFC527Z18RDK8KW6P4R","","null","<img src=""img/food2.png"" style=""width:200px;border:14px solid red;"">","null","","","","","","","","","",""
"","image-keyboard-response","324","81929","0.0-394.0","3DHE4R9OCXXFL5VAR4XZT856781G2J","AMNYS937UWC8M","3MXX6RQ9EVRTFC527Z18RDK8KW6P4R","","98","img/food3.png","74","99","1","1","1","2","1,0.5,0,1,0.5,0,0.5,0,1","1,0.5,0,1,0.5,0,0.5,0,1","1","false",""
"","html-keyboard-response","325","82230","0.0-395.0","3DHE4R9OCXXFL5VAR4XZT856781G2J","AMNYS937UWC8M","3MXX6RQ9EVRTFC527Z18RDK8KW6P4R","","null","<img src=""img/food3.png"" style=""width:200px; border:14px solid green;"">","null","","","","","","","","","",""
"","image-keyboard-response","326","82268","0.0-397.0","3DHE4R9OCXXFL5VAR4XZT856781G2J","AMNYS937UWC8M","3MXX6RQ9EVRTFC527Z18RDK8KW6P4R","","37","img/food2.png","76","37","3","1","3","2","1,0.5,0,1,0.5,0,0.5,0,1","1,0.5,0,1,0.5,0,0.5,0,1","1","false",""
"","html-keyboard-response","327","82570","0.0-398.0","3DHE4R9OCXXFL5VAR4XZT856781G2J","AMNYS937UWC8M","3MXX6RQ9EVRTFC527Z18RDK8KW6P4R","","null","<img src=""img/food2.png"" style=""width:200px; border:14px solid green;"">","null","","","","","","","","","",""
"","image-keyboard-response","328","82626","0.0-400.0","3DHE4R9OCXXFL5VAR4XZT856781G2J","AMNYS937UWC8M","3MXX6RQ9EVRTFC527Z18RDK8KW6P4R","","54","img/food2.png","74","55","1","1","3","2","1,0.5,0,1,0.5,0,0.5,0,1","1,0.5,0,1,0.5,0,0.5,0,1","1","false",""
"","html-keyboard-response","329","82928","0.0-401.0","3DHE4R9OCXXFL5VAR4XZT856781G2J","AMNYS937UWC8M","3MXX6RQ9EVRTFC527Z18RDK8KW6P4R","","null","<img src=""img/food2.png"" style=""width:200px; border:14px solid green;"">","null","","","","","","","","","",""
"","image-keyboard-response","330","83086","0.0-403.0","3DHE4R9OCXXFL5VAR4XZT856781G2J","AMNYS937UWC8M","3MXX6RQ9EVRTFC527Z18RDK8KW6P4R","","156","img/food3.png","74","158","1","1","1","2","1,0.5,0,1,0.5,0,0.5,0,1","1,0.5,0,1,0.5,0,0.5,0,1","1","false",""
"","html-keyboard-response","331","83386","0.0-404.0","3DHE4R9OCXXFL5VAR4XZT856781G2J","AMNYS937UWC8M","3MXX6RQ9EVRTFC527Z18RDK8KW6P4R","","null","<img src=""img/food3.png"" style=""width:200px; border:14px solid green;"">","null","","","","","","","","","",""
"","image-keyboard-response","332","83466","0.0-406.0","3DHE4R9OCXXFL5VAR4XZT856781G2J","AMNYS937UWC8M","3MXX6RQ9EVRTFC527Z18RDK8KW6P4R","","78","img/food5.png","74","80","1","1","2","2","1,0.5,0,1,0.5,0,0.5,0,1","1,0.5,0,1,0.5,0,0.5,0,1","1","false",""
"","html-keyboard-response","333","83767","0.0-407.0","3DHE4R9OCXXFL5VAR4XZT856781G2J","AMNYS937UWC8M","3MXX6RQ9EVRTFC527Z18RDK8KW6P4R","","null","<img src=""img/food5.png"" style=""width:200px; border:14px solid green;"">","null","","","","","","","","","",""
"","image-keyboard-response","334","83786","0.0-409.0","3DHE4R9OCXXFL5VAR4XZT856781G2J","AMNYS937UWC8M","3MXX6RQ9EVRTFC527Z18RDK8KW6P4R","","17","img/food5.png","76","18","3","0","2","2","1,0.5,0,1,0.5,0,0.5,0,1","1,0.5,0,1,0.5,0,0.5,0,1","1","false",""
"","html-keyboard-response","335","84089","0.0-410.0","3DHE4R9OCXXFL5VAR4XZT856781G2J","AMNYS937UWC8M","3MXX6RQ9EVRTFC527Z18RDK8KW6P4R","","null","<img src=""img/food5.png"" style=""width:200px;border:14px solid red;"">","null","","","","","","","","","",""
"","image-keyboard-response","336","84156","0.0-412.0","3DHE4R9OCXXFL5VAR4XZT856781G2J","AMNYS937UWC8M","3MXX6RQ9EVRTFC527Z18RDK8KW6P4R","","65","img/food3.png","74","66","1","1","1","2","1,0.5,0,1,0.5,0,0.5,0,1","1,0.5,0,1,0.5,0,0.5,0,1","1","false",""
"","html-keyboard-response","337","84458","0.0-413.0","3DHE4R9OCXXFL5VAR4XZT856781G2J","AMNYS937UWC8M","3MXX6RQ9EVRTFC527Z18RDK8KW6P4R","","null","<img src=""img/food3.png"" style=""width:200px; border:14px solid green;"">","null","","","","","","","","","",""
"","image-keyboard-response","338","84486","0.0-415.0","3DHE4R9OCXXFL5VAR4XZT856781G2J","AMNYS937UWC8M","3MXX6RQ9EVRTFC527Z18RDK8KW6P4R","","28","img/food2.png","76","28","3","1","3","2","1,0.5,0,1,0.5,0,0.5,0,1","1,0.5,0,1,0.5,0,0.5,0,1","1","false",""
"","html-keyboard-response","339","84788","0.0-416.0","3DHE4R9OCXXFL5VAR4XZT856781G2J","AMNYS937UWC8M","3MXX6RQ9EVRTFC527Z18RDK8KW6P4R","","null","<img src=""img/food2.png"" style=""width:200px; border:14px solid green;"">","null","","","","","","","","","",""
"","image-keyboard-response","340","85026","0.0-418.0","3DHE4R9OCXXFL5VAR4XZT856781G2J","AMNYS937UWC8M","3MXX6RQ9EVRTFC527Z18RDK8KW6P4R","","237","img/food3.png","74","238","1","1","1","2","1,0.5,0,1,0.5,0,0.5,0,1","1,0.5,0,1,0.5,0,0.5,0,1","1","false",""
"","html-keyboard-response","341","85328","0.0-419.0","3DHE4R9OCXXFL5VAR4XZT856781G2J","AMNYS937UWC8M","3MXX6RQ9EVRTFC527Z18RDK8KW6P4R","","null","<img src=""img/food3.png"" style=""width:200px; border:14px solid green;"">","null","","","","","","","","","",""
"","image-keyboard-response","342","85507","0.0-421.0","3DHE4R9OCXXFL5VAR4XZT856781G2J","AMNYS937UWC8M","3MXX6RQ9EVRTFC527Z18RDK8KW6P4R","","178","img/food3.png","74","179","1","1","1","2","1,0.5,0,1,0.5,0,0.5,0,1","1,0.5,0,1,0.5,0,0.5,0,1","1","false",""
"","html-keyboard-response","343","85809","0.0-422.0","3DHE4R9OCXXFL5VAR4XZT856781G2J","AMNYS937UWC8M","3MXX6RQ9EVRTFC527Z18RDK8KW6P4R","","null","<img src=""img/food3.png"" style=""width:200px; border:14px solid green;"">","null","","","","","","","","","",""
"","image-keyboard-response","344","85927","0.0-424.0","3DHE4R9OCXXFL5VAR4XZT856781G2J","AMNYS937UWC8M","3MXX6RQ9EVRTFC527Z18RDK8KW6P4R","","114","img/food3.png","75","115","2","1","1","2","1,0.5,0,1,0.5,0,0.5,0,1","1,0.5,0,1,0.5,0,0.5,0,1","1","false",""
"","html-keyboard-response","345","86229","0.0-425.0","3DHE4R9OCXXFL5VAR4XZT856781G2J","AMNYS937UWC8M","3MXX6RQ9EVRTFC527Z18RDK8KW6P4R","","null","<img src=""img/food3.png"" style=""width:200px; border:14px solid green;"">","null","","","","","","","","","",""
"","image-keyboard-response","346","86526","0.0-427.0","3DHE4R9OCXXFL5VAR4XZT856781G2J","AMNYS937UWC8M","3MXX6RQ9EVRTFC527Z18RDK8KW6P4R","","296","img/food3.png","74","297","1","1","1","2","1,0.5,0,1,0.5,0,0.5,0,1","1,0.5,0,1,0.5,0,0.5,0,1","1","false",""
"","html-keyboard-response","347","86828","0.0-428.0","3DHE4R9OCXXFL5VAR4XZT856781G2J","AMNYS937UWC8M","3MXX6RQ9EVRTFC527Z18RDK8KW6P4R","","null","<img src=""img/food3.png"" style=""width:200px; border:14px solid green;"">","null","","","","","","","","","",""
"","image-keyboard-response","348","86986","0.0-430.0","3DHE4R9OCXXFL5VAR4XZT856781G2J","AMNYS937UWC8M","3MXX6RQ9EVRTFC527Z18RDK8KW6P4R","","156","img/food2.png","74","158","1","1","3","2","1,0.5,0,1,0.5,0,0.5,0,1","1,0.5,0,1,0.5,0,0.5,0,1","1","false",""
"","html-keyboard-response","349","87288","0.0-431.0","3DHE4R9OCXXFL5VAR4XZT856781G2J","AMNYS937UWC8M","3MXX6RQ9EVRTFC527Z18RDK8KW6P4R","","null","<img src=""img/food2.png"" style=""width:200px; border:14px solid green;"">","null","","","","","","","","","",""
"","image-keyboard-response","350","87305","0.0-433.0","3DHE4R9OCXXFL5VAR4XZT856781G2J","AMNYS937UWC8M","3MXX6RQ9EVRTFC527Z18RDK8KW6P4R","","16","img/food3.png","74","17","1","1","1","2","1,0.5,0,1,0.5,0,0.5,0,1","1,0.5,0,1,0.5,0,0.5,0,1","1","false",""
"","html-keyboard-response","351","87607","0.0-434.0","3DHE4R9OCXXFL5VAR4XZT856781G2J","AMNYS937UWC8M","3MXX6RQ9EVRTFC527Z18RDK8KW6P4R","","null","<img src=""img/food3.png"" style=""width:200px; border:14px solid green;"">","null","","","","","","","","","",""
"","image-keyboard-response","352","87615","0.0-436.0","3DHE4R9OCXXFL5VAR4XZT856781G2J","AMNYS937UWC8M","3MXX6RQ9EVRTFC527Z18RDK8KW6P4R","","7","img/food2.png","76","8","3","1","3","2","1,0.5,0,1,0.5,0,0.5,0,1","1,0.5,0,1,0.5,0,0.5,0,1","1","false",""
"","html-keyboard-response","353","87916","0.0-437.0","3DHE4R9OCXXFL5VAR4XZT856781G2J","AMNYS937UWC8M","3MXX6RQ9EVRTFC527Z18RDK8KW6P4R","","null","<img src=""img/food2.png"" style=""width:200px; border:14px solid green;"">","null","","","","","","","","","",""
"","image-keyboard-response","354","88006","0.0-439.0","3DHE4R9OCXXFL5VAR4XZT856781G2J","AMNYS937UWC8M","3MXX6RQ9EVRTFC527Z18RDK8KW6P4R","","88","img/food5.png","74","89","1","1","2","2","1,0.5,0,1,0.5,0,0.5,0,1","1,0.5,0,1,0.5,0,0.5,0,1","1","false",""
"","html-keyboard-response","355","88308","0.0-440.0","3DHE4R9OCXXFL5VAR4XZT856781G2J","AMNYS937UWC8M","3MXX6RQ9EVRTFC527Z18RDK8KW6P4R","","null","<img src=""img/food5.png"" style=""width:200px; border:14px solid green;"">","null","","","","","","","","","",""
"","image-keyboard-response","356","88325","0.0-442.0","3DHE4R9OCXXFL5VAR4XZT856781G2J","AMNYS937UWC8M","3MXX6RQ9EVRTFC527Z18RDK8KW6P4R","","16","img/food2.png","76","17","3","1","3","2","1,0.5,0,1,0.5,0,0.5,0,1","1,0.5,0,1,0.5,0,0.5,0,1","1","false",""
"","html-keyboard-response","357","88626","0.0-443.0","3DHE4R9OCXXFL5VAR4XZT856781G2J","AMNYS937UWC8M","3MXX6RQ9EVRTFC527Z18RDK8KW6P4R","","null","<img src=""img/food2.png"" style=""width:200px; border:14px solid green;"">","null","","","","","","","","","",""
"","image-keyboard-response","358","88746","0.0-445.0","3DHE4R9OCXXFL5VAR4XZT856781G2J","AMNYS937UWC8M","3MXX6RQ9EVRTFC527Z18RDK8KW6P4R","","119","img/food2.png","74","119","1","0","3","2","1,0.5,0,1,0.5,0,0.5,0,1","1,0.5,0,1,0.5,0,0.5,0,1","1","false",""
"","html-keyboard-response","359","89047","0.0-446.0","3DHE4R9OCXXFL5VAR4XZT856781G2J","AMNYS937UWC8M","3MXX6RQ9EVRTFC527Z18RDK8KW6P4R","","null","<img src=""img/food2.png"" style=""width:200px;border:14px solid red;"">","null","","","","","","","","","",""
"","image-keyboard-response","360","89106","0.0-448.0","3DHE4R9OCXXFL5VAR4XZT856781G2J","AMNYS937UWC8M","3MXX6RQ9EVRTFC527Z18RDK8KW6P4R","","58","img/food3.png","76","59","3","0","1","2","1,0.5,0,1,0.5,0,0.5,0,1","1,0.5,0,1,0.5,0,0.5,0,1","1","false",""
"","html-keyboard-response","361","89409","0.0-449.0","3DHE4R9OCXXFL5VAR4XZT856781G2J","AMNYS937UWC8M","3MXX6RQ9EVRTFC527Z18RDK8KW6P4R","","null","<img src=""img/food3.png"" style=""width:200px;border:14px solid red;"">","null","","","","","","","","","",""
"","image-keyboard-response","362","89946","0.0-451.0","3DHE4R9OCXXFL5VAR4XZT856781G2J","AMNYS937UWC8M","3MXX6RQ9EVRTFC527Z18RDK8KW6P4R","","536","img/food2.png","76","537","3","1","3","2","1,0.5,0,1,0.5,0,0.5,0,1","1,0.5,0,1,0.5,0,0.5,0,1","1","false",""
"","html-keyboard-response","363","90247","0.0-452.0","3DHE4R9OCXXFL5VAR4XZT856781G2J","AMNYS937UWC8M","3MXX6RQ9EVRTFC527Z18RDK8KW6P4R","","null","<img src=""img/food2.png"" style=""width:200px; border:14px solid green;"">","null","","","","","","","","","",""
"","instructions","364","92366","0.0-454.0","3DHE4R9OCXXFL5VAR4XZT856781G2J","AMNYS937UWC8M","3MXX6RQ9EVRTFC527Z18RDK8KW6P4R","[{""page_index"":0,""viewing_time"":2118}]","2118","","","","","","","","","","","",""
"","survey-text","365","96709","0.0-455.0","3DHE4R9OCXXFL5VAR4XZT856781G2J","AMNYS937UWC8M","3MXX6RQ9EVRTFC527Z18RDK8KW6P4R","","4334","","","","","","","","","","","","{""Q0"":""AMNYS937UWC8M""}"
