"success","trial_type","trial_index","time_elapsed","internal_node_id","assignmentID","mturkID","hitID","view_history","rt","stimulus","key_press","reactionTime","a","r","warning","s","cond","reward_cond","reward_cond_actual","reward_matrix_idx","responses"
"true","fullscreen","0","25661","0.0-0.0","3GA6AFUKOPAI6JM4FATMXIMZSNHH3Z","ANK8K5WTHJ61C","3UUIU9GZC5R93N292LT21FRJ9VS5TN","","","","","","","","","","","","","",""
"","instructions","1","91825","0.0-1.0","3GA6AFUKOPAI6JM4FATMXIMZSNHH3Z","ANK8K5WTHJ61C","3UUIU9GZC5R93N292LT21FRJ9VS5TN","[{""page_index"":0,""viewing_time"":14296},{""page_index"":1,""viewing_time"":5715.399999976158},{""page_index"":2,""viewing_time"":7950.5},{""page_index"":3,""viewing_time"":17349.600000023842},{""page_index"":4,""viewing_time"":3867.899999976158},{""page_index"":5,""viewing_time"":4866.600000023842},{""page_index"":6,""viewing_time"":12116}]","66162.69999992847","","","","","","","","","","","",""
"","instructions","2","127661","0.0-2.0","3GA6AFUKOPAI6JM4FATMXIMZSNHH3Z","ANK8K5WTHJ61C","3UUIU9GZC5R93N292LT21FRJ9VS5TN","[{""page_index"":0,""viewing_time"":33050.60000002384},{""page_index"":1,""viewing_time"":2783.6999999284744}]","35834.89999997616","","","","","","","","","","","",""
"","image-keyboard-response","3","128090","0.0-3.0","3GA6AFUKOPAI6JM4FATMXIMZSNHH3Z","ANK8K5WTHJ61C","3UUIU9GZC5R93N292LT21FRJ9VS5TN","","425.3000000715256","img/food3.png","74","428.2999999523163","1","0","false","2","2","1,0.5,0,1,0.5,0,0.5,0,1","0,1,0.5,0,1,0.5,1,0.5,0","3",""
"","html-keyboard-response","4","128398","0.0-4.0","3GA6AFUKOPAI6JM4FATMXIMZSNHH3Z","ANK8K5WTHJ61C","3UUIU9GZC5R93N292LT21FRJ9VS5TN","","null","<img src=""img/food3.png"" style=""width:200px;border:14px solid red;"">","null","","","","","","","","","",""
"","image-keyboard-response","5","128927","0.0-6.0","3GA6AFUKOPAI6JM4FATMXIMZSNHH3Z","ANK8K5WTHJ61C","3UUIU9GZC5R93N292LT21FRJ9VS5TN","","525.6999999284744","img/food2.png","75","527.8999999761581","2","1","false","3","2","1,0.5,0,1,0.5,0,0.5,0,1","0,1,0.5,0,1,0.5,1,0.5,0","3",""
"","html-keyboard-response","6","129235","0.0-7.0","3GA6AFUKOPAI6JM4FATMXIMZSNHH3Z","ANK8K5WTHJ61C","3UUIU9GZC5R93N292LT21FRJ9VS5TN","","null","<img src=""img/food2.png"" style=""width:200px; border:14px solid green;"">","null","","","","","","","","","",""
"","image-keyboard-response","7","129824","0.0-9.0","3GA6AFUKOPAI6JM4FATMXIMZSNHH3Z","ANK8K5WTHJ61C","3UUIU9GZC5R93N292LT21FRJ9VS5TN","","588.5","img/food2.png","75","589","2","1","false","3","2","1,0.5,0,1,0.5,0,0.5,0,1","0,1,0.5,0,1,0.5,1,0.5,0","3",""
"","html-keyboard-response","8","130131","0.0-10.0","3GA6AFUKOPAI6JM4FATMXIMZSNHH3Z","ANK8K5WTHJ61C","3UUIU9GZC5R93N292LT21FRJ9VS5TN","","null","<img src=""img/food2.png"" style=""width:200px; border:14px solid green;"">","null","","","","","","","","","",""
"","image-keyboard-response","9","130635","0.0-12.0","3GA6AFUKOPAI6JM4FATMXIMZSNHH3Z","ANK8K5WTHJ61C","3UUIU9GZC5R93N292LT21FRJ9VS5TN","","501.6999999284744","img/food3.png","76","503.7000000476837","3","1","false","2","2","1,0.5,0,1,0.5,0,0.5,0,1","0,1,0.5,0,1,0.5,1,0.5,0","3",""
"","html-keyboard-response","10","130942","0.0-13.0","3GA6AFUKOPAI6JM4FATMXIMZSNHH3Z","ANK8K5WTHJ61C","3UUIU9GZC5R93N292LT21FRJ9VS5TN","","null","<img src=""img/food3.png"" style=""width:200px; border:14px solid green;"">","null","","","","","","","","","",""
"","image-keyboard-response","11","131537","0.0-15.0","3GA6AFUKOPAI6JM4FATMXIMZSNHH3Z","ANK8K5WTHJ61C","3UUIU9GZC5R93N292LT21FRJ9VS5TN","","592.8999999761581","img/food2.png","75","594.3000000715256","2","1","false","3","2","1,0.5,0,1,0.5,0,0.5,0,1","0,1,0.5,0,1,0.5,1,0.5,0","3",""
"","html-keyboard-response","12","131844","0.0-16.0","3GA6AFUKOPAI6JM4FATMXIMZSNHH3Z","ANK8K5WTHJ61C","3UUIU9GZC5R93N292LT21FRJ9VS5TN","","null","<img src=""img/food2.png"" style=""width:200px; border:14px solid green;"">","null","","","","","","","","","",""
"","image-keyboard-response","13","132286","0.0-18.0","3GA6AFUKOPAI6JM4FATMXIMZSNHH3Z","ANK8K5WTHJ61C","3UUIU9GZC5R93N292LT21FRJ9VS5TN","","440.7999999523163","img/food1.png","76","441.90000009536743","3","0","false","1","2","1,0.5,0,1,0.5,0,0.5,0,1","0,1,0.5,0,1,0.5,1,0.5,0","3",""
"","html-keyboard-response","14","132594","0.0-19.0","3GA6AFUKOPAI6JM4FATMXIMZSNHH3Z","ANK8K5WTHJ61C","3UUIU9GZC5R93N292LT21FRJ9VS5TN","","null","<img src=""img/food1.png"" style=""width:200px;border:14px solid red;"">","null","","","","","","","","","",""
"","image-keyboard-response","15","132973","0.0-21.0","3GA6AFUKOPAI6JM4FATMXIMZSNHH3Z","ANK8K5WTHJ61C","3UUIU9GZC5R93N292LT21FRJ9VS5TN","","376.89999997615814","img/food3.png","75","378.5","2","1","false","2","2","1,0.5,0,1,0.5,0,0.5,0,1","0,1,0.5,0,1,0.5,1,0.5,0","3",""
"","html-keyboard-response","16","133279","0.0-22.0","3GA6AFUKOPAI6JM4FATMXIMZSNHH3Z","ANK8K5WTHJ61C","3UUIU9GZC5R93N292LT21FRJ9VS5TN","","null","<img src=""img/food3.png"" style=""width:200px; border:14px solid green;"">","null","","","","","","","","","",""
"","image-keyboard-response","17","133782","0.0-24.0","3GA6AFUKOPAI6JM4FATMXIMZSNHH3Z","ANK8K5WTHJ61C","3UUIU9GZC5R93N292LT21FRJ9VS5TN","","501.6999999284744","img/food2.png","76","502.89999997615814","3","0","false","3","2","1,0.5,0,1,0.5,0,0.5,0,1","0,1,0.5,0,1,0.5,1,0.5,0","3",""
"","html-keyboard-response","18","134086","0.0-25.0","3GA6AFUKOPAI6JM4FATMXIMZSNHH3Z","ANK8K5WTHJ61C","3UUIU9GZC5R93N292LT21FRJ9VS5TN","","null","<img src=""img/food2.png"" style=""width:200px;border:14px solid red;"">","null","","","","","","","","","",""
"","image-keyboard-response","19","134656","0.0-27.0","3GA6AFUKOPAI6JM4FATMXIMZSNHH3Z","ANK8K5WTHJ61C","3UUIU9GZC5R93N292LT21FRJ9VS5TN","","568.2999999523163","img/food1.png","75","570.1999999284744","2","1","false","1","2","1,0.5,0,1,0.5,0,0.5,0,1","0,1,0.5,0,1,0.5,1,0.5,0","3",""
"","html-keyboard-response","20","134960","0.0-28.0","3GA6AFUKOPAI6JM4FATMXIMZSNHH3Z","ANK8K5WTHJ61C","3UUIU9GZC5R93N292LT21FRJ9VS5TN","","null","<img src=""img/food1.png"" style=""width:200px; border:14px solid green;"">","null","","","","","","","","","",""
"","image-keyboard-response","21","135585","0.0-30.0","3GA6AFUKOPAI6JM4FATMXIMZSNHH3Z","ANK8K5WTHJ61C","3UUIU9GZC5R93N292LT21FRJ9VS5TN","","623.8999999761581","img/food2.png","74","624.9000000953674","1","1","false","3","2","1,0.5,0,1,0.5,0,0.5,0,1","0,1,0.5,0,1,0.5,1,0.5,0","3",""
"","html-keyboard-response","22","135892","0.0-31.0","3GA6AFUKOPAI6JM4FATMXIMZSNHH3Z","ANK8K5WTHJ61C","3UUIU9GZC5R93N292LT21FRJ9VS5TN","","null","<img src=""img/food2.png"" style=""width:200px; border:14px solid green;"">","null","","","","","","","","","",""
"","image-keyboard-response","23","136365","0.0-33.0","3GA6AFUKOPAI6JM4FATMXIMZSNHH3Z","ANK8K5WTHJ61C","3UUIU9GZC5R93N292LT21FRJ9VS5TN","","472","img/food3.png","75","473.09999990463257","2","1","false","2","2","1,0.5,0,1,0.5,0,0.5,0,1","0,1,0.5,0,1,0.5,1,0.5,0","3",""
"","html-keyboard-response","24","136672","0.0-34.0","3GA6AFUKOPAI6JM4FATMXIMZSNHH3Z","ANK8K5WTHJ61C","3UUIU9GZC5R93N292LT21FRJ9VS5TN","","null","<img src=""img/food3.png"" style=""width:200px; border:14px solid green;"">","null","","","","","","","","","",""
"","image-keyboard-response","25","137327","0.0-36.0","3GA6AFUKOPAI6JM4FATMXIMZSNHH3Z","ANK8K5WTHJ61C","3UUIU9GZC5R93N292LT21FRJ9VS5TN","","652.7999999523163","img/food3.png","75","654.8000000715256","2","1","false","2","2","1,0.5,0,1,0.5,0,0.5,0,1","0,1,0.5,0,1,0.5,1,0.5,0","3",""
"","html-keyboard-response","26","137634","0.0-37.0","3GA6AFUKOPAI6JM4FATMXIMZSNHH3Z","ANK8K5WTHJ61C","3UUIU9GZC5R93N292LT21FRJ9VS5TN","","null","<img src=""img/food3.png"" style=""width:200px; border:14px solid green;"">","null","","","","","","","","","",""
"","image-keyboard-response","27","138257","0.0-39.0","3GA6AFUKOPAI6JM4FATMXIMZSNHH3Z","ANK8K5WTHJ61C","3UUIU9GZC5R93N292LT21FRJ9VS5TN","","620.2000000476837","img/food2.png","76","622","3","0","false","3","2","1,0.5,0,1,0.5,0,0.5,0,1","0,1,0.5,0,1,0.5,1,0.5,0","3",""
"","html-keyboard-response","28","138563","0.0-40.0","3GA6AFUKOPAI6JM4FATMXIMZSNHH3Z","ANK8K5WTHJ61C","3UUIU9GZC5R93N292LT21FRJ9VS5TN","","null","<img src=""img/food2.png"" style=""width:200px;border:14px solid red;"">","null","","","","","","","","","",""
"","image-keyboard-response","29","138972","0.0-42.0","3GA6AFUKOPAI6JM4FATMXIMZSNHH3Z","ANK8K5WTHJ61C","3UUIU9GZC5R93N292LT21FRJ9VS5TN","","406.7000000476837","img/food1.png","75","407.8000000715256","2","1","false","1","2","1,0.5,0,1,0.5,0,0.5,0,1","0,1,0.5,0,1,0.5,1,0.5,0","3",""
"","html-keyboard-response","30","139277","0.0-43.0","3GA6AFUKOPAI6JM4FATMXIMZSNHH3Z","ANK8K5WTHJ61C","3UUIU9GZC5R93N292LT21FRJ9VS5TN","","null","<img src=""img/food1.png"" style=""width:200px; border:14px solid green;"">","null","","","","","","","","","",""
"","image-keyboard-response","31","139725","0.0-45.0","3GA6AFUKOPAI6JM4FATMXIMZSNHH3Z","ANK8K5WTHJ61C","3UUIU9GZC5R93N292LT21FRJ9VS5TN","","445.10000002384186","img/food2.png","75","447","2","0","false","3","2","1,0.5,0,1,0.5,0,0.5,0,1","0,1,0.5,0,1,0.5,1,0.5,0","3",""
"","html-keyboard-response","32","140033","0.0-46.0","3GA6AFUKOPAI6JM4FATMXIMZSNHH3Z","ANK8K5WTHJ61C","3UUIU9GZC5R93N292LT21FRJ9VS5TN","","null","<img src=""img/food2.png"" style=""width:200px;border:14px solid red;"">","null","","","","","","","","","",""
"","image-keyboard-response","33","140567","0.0-48.0","3GA6AFUKOPAI6JM4FATMXIMZSNHH3Z","ANK8K5WTHJ61C","3UUIU9GZC5R93N292LT21FRJ9VS5TN","","531.8999999761581","img/food1.png","74","533.6999999284744","1","0","false","1","2","1,0.5,0,1,0.5,0,0.5,0,1","0,1,0.5,0,1,0.5,1,0.5,0","3",""
"","html-keyboard-response","34","140875","0.0-49.0","3GA6AFUKOPAI6JM4FATMXIMZSNHH3Z","ANK8K5WTHJ61C","3UUIU9GZC5R93N292LT21FRJ9VS5TN","","null","<img src=""img/food1.png"" style=""width:200px;border:14px solid red;"">","null","","","","","","","","","",""
"","image-keyboard-response","35","141287","0.0-51.0","3GA6AFUKOPAI6JM4FATMXIMZSNHH3Z","ANK8K5WTHJ61C","3UUIU9GZC5R93N292LT21FRJ9VS5TN","","409.8000000715256","img/food3.png","75","411.5","2","1","false","2","2","1,0.5,0,1,0.5,0,0.5,0,1","0,1,0.5,0,1,0.5,1,0.5,0","3",""
"","html-keyboard-response","36","141594","0.0-52.0","3GA6AFUKOPAI6JM4FATMXIMZSNHH3Z","ANK8K5WTHJ61C","3UUIU9GZC5R93N292LT21FRJ9VS5TN","","null","<img src=""img/food3.png"" style=""width:200px; border:14px solid green;"">","null","","","","","","","","","",""
"","image-keyboard-response","37","142186","0.0-54.0","3GA6AFUKOPAI6JM4FATMXIMZSNHH3Z","ANK8K5WTHJ61C","3UUIU9GZC5R93N292LT21FRJ9VS5TN","","589","img/food1.png","74","590.7999999523163","1","0","false","1","2","1,0.5,0,1,0.5,0,0.5,0,1","0,1,0.5,0,1,0.5,1,0.5,0","3",""
"","html-keyboard-response","38","142493","0.0-55.0","3GA6AFUKOPAI6JM4FATMXIMZSNHH3Z","ANK8K5WTHJ61C","3UUIU9GZC5R93N292LT21FRJ9VS5TN","","null","<img src=""img/food1.png"" style=""width:200px;border:14px solid red;"">","null","","","","","","","","","",""
"","image-keyboard-response","39","142877","0.0-57.0","3GA6AFUKOPAI6JM4FATMXIMZSNHH3Z","ANK8K5WTHJ61C","3UUIU9GZC5R93N292LT21FRJ9VS5TN","","381.2999999523163","img/food3.png","75","383","2","1","false","2","2","1,0.5,0,1,0.5,0,0.5,0,1","0,1,0.5,0,1,0.5,1,0.5,0","3",""
"","html-keyboard-response","40","143184","0.0-58.0","3GA6AFUKOPAI6JM4FATMXIMZSNHH3Z","ANK8K5WTHJ61C","3UUIU9GZC5R93N292LT21FRJ9VS5TN","","null","<img src=""img/food3.png"" style=""width:200px; border:14px solid green;"">","null","","","","","","","","","",""
"","image-keyboard-response","41","143686","0.0-60.0","3GA6AFUKOPAI6JM4FATMXIMZSNHH3Z","ANK8K5WTHJ61C","3UUIU9GZC5R93N292LT21FRJ9VS5TN","","500.6999999284744","img/food1.png","75","501.8000000715256","2","1","false","1","2","1,0.5,0,1,0.5,0,0.5,0,1","0,1,0.5,0,1,0.5,1,0.5,0","3",""
"","html-keyboard-response","42","143990","0.0-61.0","3GA6AFUKOPAI6JM4FATMXIMZSNHH3Z","ANK8K5WTHJ61C","3UUIU9GZC5R93N292LT21FRJ9VS5TN","","null","<img src=""img/food1.png"" style=""width:200px; border:14px solid green;"">","null","","","","","","","","","",""
"","image-keyboard-response","43","144527","0.0-63.0","3GA6AFUKOPAI6JM4FATMXIMZSNHH3Z","ANK8K5WTHJ61C","3UUIU9GZC5R93N292LT21FRJ9VS5TN","","532.7000000476837","img/food1.png","75","534.4000000953674","2","1","false","1","2","1,0.5,0,1,0.5,0,0.5,0,1","0,1,0.5,0,1,0.5,1,0.5,0","3",""
"","html-keyboard-response","44","144834","0.0-64.0","3GA6AFUKOPAI6JM4FATMXIMZSNHH3Z","ANK8K5WTHJ61C","3UUIU9GZC5R93N292LT21FRJ9VS5TN","","null","<img src=""img/food1.png"" style=""width:200px; border:14px solid green;"">","null","","","","","","","","","",""
"","image-keyboard-response","45","145182","0.0-66.0","3GA6AFUKOPAI6JM4FATMXIMZSNHH3Z","ANK8K5WTHJ61C","3UUIU9GZC5R93N292LT21FRJ9VS5TN","","346","img/food3.png","75","347.2999999523163","2","1","false","2","2","1,0.5,0,1,0.5,0,0.5,0,1","0,1,0.5,0,1,0.5,1,0.5,0","3",""
"","html-keyboard-response","46","145488","0.0-67.0","3GA6AFUKOPAI6JM4FATMXIMZSNHH3Z","ANK8K5WTHJ61C","3UUIU9GZC5R93N292LT21FRJ9VS5TN","","null","<img src=""img/food3.png"" style=""width:200px; border:14px solid green;"">","null","","","","","","","","","",""
"","image-keyboard-response","47","145842","0.0-69.0","3GA6AFUKOPAI6JM4FATMXIMZSNHH3Z","ANK8K5WTHJ61C","3UUIU9GZC5R93N292LT21FRJ9VS5TN","","352.5","img/food2.png","76","353.89999997615814","3","0","false","3","2","1,0.5,0,1,0.5,0,0.5,0,1","0,1,0.5,0,1,0.5,1,0.5,0","3",""
"","html-keyboard-response","48","146145","0.0-70.0","3GA6AFUKOPAI6JM4FATMXIMZSNHH3Z","ANK8K5WTHJ61C","3UUIU9GZC5R93N292LT21FRJ9VS5TN","","null","<img src=""img/food2.png"" style=""width:200px;border:14px solid red;"">","null","","","","","","","","","",""
"","image-keyboard-response","49","146595","0.0-72.0","3GA6AFUKOPAI6JM4FATMXIMZSNHH3Z","ANK8K5WTHJ61C","3UUIU9GZC5R93N292LT21FRJ9VS5TN","","448.2000000476837","img/food1.png","75","450.1999999284744","2","1","false","1","2","1,0.5,0,1,0.5,0,0.5,0,1","0,1,0.5,0,1,0.5,1,0.5,0","3",""
"","html-keyboard-response","50","146902","0.0-73.0","3GA6AFUKOPAI6JM4FATMXIMZSNHH3Z","ANK8K5WTHJ61C","3UUIU9GZC5R93N292LT21FRJ9VS5TN","","null","<img src=""img/food1.png"" style=""width:200px; border:14px solid green;"">","null","","","","","","","","","",""
"","image-keyboard-response","51","147347","0.0-75.0","3GA6AFUKOPAI6JM4FATMXIMZSNHH3Z","ANK8K5WTHJ61C","3UUIU9GZC5R93N292LT21FRJ9VS5TN","","442.5","img/food3.png","75","444.39999997615814","2","1","false","2","2","1,0.5,0,1,0.5,0,0.5,0,1","0,1,0.5,0,1,0.5,1,0.5,0","3",""
"","html-keyboard-response","52","147655","0.0-76.0","3GA6AFUKOPAI6JM4FATMXIMZSNHH3Z","ANK8K5WTHJ61C","3UUIU9GZC5R93N292LT21FRJ9VS5TN","","null","<img src=""img/food3.png"" style=""width:200px; border:14px solid green;"">","null","","","","","","","","","",""
"","image-keyboard-response","53","148035","0.0-78.0","3GA6AFUKOPAI6JM4FATMXIMZSNHH3Z","ANK8K5WTHJ61C","3UUIU9GZC5R93N292LT21FRJ9VS5TN","","377.60000002384186","img/food3.png","75","379.39999997615814","2","1","false","2","2","1,0.5,0,1,0.5,0,0.5,0,1","0,1,0.5,0,1,0.5,1,0.5,0","3",""
"","html-keyboard-response","54","148342","0.0-79.0","3GA6AFUKOPAI6JM4FATMXIMZSNHH3Z","ANK8K5WTHJ61C","3UUIU9GZC5R93N292LT21FRJ9VS5TN","","null","<img src=""img/food3.png"" style=""width:200px; border:14px solid green;"">","null","","","","","","","","","",""
"","image-keyboard-response","55","148755","0.0-81.0","3GA6AFUKOPAI6JM4FATMXIMZSNHH3Z","ANK8K5WTHJ61C","3UUIU9GZC5R93N292LT21FRJ9VS5TN","","411.1999999284744","img/food3.png","75","413.10000002384186","2","1","false","2","2","1,0.5,0,1,0.5,0,0.5,0,1","0,1,0.5,0,1,0.5,1,0.5,0","3",""
"","html-keyboard-response","56","149058","0.0-82.0","3GA6AFUKOPAI6JM4FATMXIMZSNHH3Z","ANK8K5WTHJ61C","3UUIU9GZC5R93N292LT21FRJ9VS5TN","","null","<img src=""img/food3.png"" style=""width:200px; border:14px solid green;"">","null","","","","","","","","","",""
"","image-keyboard-response","57","149475","0.0-84.0","3GA6AFUKOPAI6JM4FATMXIMZSNHH3Z","ANK8K5WTHJ61C","3UUIU9GZC5R93N292LT21FRJ9VS5TN","","415.89999997615814","img/food3.png","75","416.59999990463257","2","1","false","2","2","1,0.5,0,1,0.5,0,0.5,0,1","0,1,0.5,0,1,0.5,1,0.5,0","3",""
"","html-keyboard-response","58","149782","0.0-85.0","3GA6AFUKOPAI6JM4FATMXIMZSNHH3Z","ANK8K5WTHJ61C","3UUIU9GZC5R93N292LT21FRJ9VS5TN","","null","<img src=""img/food3.png"" style=""width:200px; border:14px solid green;"">","null","","","","","","","","","",""
"","image-keyboard-response","59","150405","0.0-87.0","3GA6AFUKOPAI6JM4FATMXIMZSNHH3Z","ANK8K5WTHJ61C","3UUIU9GZC5R93N292LT21FRJ9VS5TN","","622.7000000476837","img/food1.png","75","623.7999999523163","2","1","false","1","2","1,0.5,0,1,0.5,0,0.5,0,1","0,1,0.5,0,1,0.5,1,0.5,0","3",""
"","html-keyboard-response","60","150713","0.0-88.0","3GA6AFUKOPAI6JM4FATMXIMZSNHH3Z","ANK8K5WTHJ61C","3UUIU9GZC5R93N292LT21FRJ9VS5TN","","null","<img src=""img/food1.png"" style=""width:200px; border:14px solid green;"">","null","","","","","","","","","",""
"","image-keyboard-response","61","151335","0.0-90.0","3GA6AFUKOPAI6JM4FATMXIMZSNHH3Z","ANK8K5WTHJ61C","3UUIU9GZC5R93N292LT21FRJ9VS5TN","","619.5999999046326","img/food2.png","74","621.0999999046326","1","1","false","3","2","1,0.5,0,1,0.5,0,0.5,0,1","0,1,0.5,0,1,0.5,1,0.5,0","3",""
"","html-keyboard-response","62","151641","0.0-91.0","3GA6AFUKOPAI6JM4FATMXIMZSNHH3Z","ANK8K5WTHJ61C","3UUIU9GZC5R93N292LT21FRJ9VS5TN","","null","<img src=""img/food2.png"" style=""width:200px; border:14px solid green;"">","null","","","","","","","","","",""
"","image-keyboard-response","63","152025","0.0-93.0","3GA6AFUKOPAI6JM4FATMXIMZSNHH3Z","ANK8K5WTHJ61C","3UUIU9GZC5R93N292LT21FRJ9VS5TN","","381.5","img/food3.png","75","383.3000000715256","2","1","false","2","2","1,0.5,0,1,0.5,0,0.5,0,1","0,1,0.5,0,1,0.5,1,0.5,0","3",""
"","html-keyboard-response","64","152332","0.0-94.0","3GA6AFUKOPAI6JM4FATMXIMZSNHH3Z","ANK8K5WTHJ61C","3UUIU9GZC5R93N292LT21FRJ9VS5TN","","null","<img src=""img/food3.png"" style=""width:200px; border:14px solid green;"">","null","","","","","","","","","",""
"","image-keyboard-response","65","152626","0.0-96.0","3GA6AFUKOPAI6JM4FATMXIMZSNHH3Z","ANK8K5WTHJ61C","3UUIU9GZC5R93N292LT21FRJ9VS5TN","","291.7999999523163","img/food1.png","75","293.5","2","1","false","1","2","1,0.5,0,1,0.5,0,0.5,0,1","0,1,0.5,0,1,0.5,1,0.5,0","3",""
"","html-keyboard-response","66","152934","0.0-97.0","3GA6AFUKOPAI6JM4FATMXIMZSNHH3Z","ANK8K5WTHJ61C","3UUIU9GZC5R93N292LT21FRJ9VS5TN","","null","<img src=""img/food1.png"" style=""width:200px; border:14px solid green;"">","null","","","","","","","","","",""
"","image-keyboard-response","67","153345","0.0-99.0","3GA6AFUKOPAI6JM4FATMXIMZSNHH3Z","ANK8K5WTHJ61C","3UUIU9GZC5R93N292LT21FRJ9VS5TN","","408.7999999523163","img/food3.png","75","410.60000002384186","2","1","false","2","2","1,0.5,0,1,0.5,0,0.5,0,1","0,1,0.5,0,1,0.5,1,0.5,0","3",""
"","html-keyboard-response","68","153654","0.0-100.0","3GA6AFUKOPAI6JM4FATMXIMZSNHH3Z","ANK8K5WTHJ61C","3UUIU9GZC5R93N292LT21FRJ9VS5TN","","null","<img src=""img/food3.png"" style=""width:200px; border:14px solid green;"">","null","","","","","","","","","",""
"","image-keyboard-response","69","154035","0.0-102.0","3GA6AFUKOPAI6JM4FATMXIMZSNHH3Z","ANK8K5WTHJ61C","3UUIU9GZC5R93N292LT21FRJ9VS5TN","","379.1999999284744","img/food1.png","75","381","2","1","false","1","2","1,0.5,0,1,0.5,0,0.5,0,1","0,1,0.5,0,1,0.5,1,0.5,0","3",""
"","html-keyboard-response","70","154342","0.0-103.0","3GA6AFUKOPAI6JM4FATMXIMZSNHH3Z","ANK8K5WTHJ61C","3UUIU9GZC5R93N292LT21FRJ9VS5TN","","null","<img src=""img/food1.png"" style=""width:200px; border:14px solid green;"">","null","","","","","","","","","",""
"","image-keyboard-response","71","154726","0.0-105.0","3GA6AFUKOPAI6JM4FATMXIMZSNHH3Z","ANK8K5WTHJ61C","3UUIU9GZC5R93N292LT21FRJ9VS5TN","","381.39999997615814","img/food1.png","75","383.10000002384186","2","1","false","1","2","1,0.5,0,1,0.5,0,0.5,0,1","0,1,0.5,0,1,0.5,1,0.5,0","3",""
"","html-keyboard-response","72","155030","0.0-106.0","3GA6AFUKOPAI6JM4FATMXIMZSNHH3Z","ANK8K5WTHJ61C","3UUIU9GZC5R93N292LT21FRJ9VS5TN","","null","<img src=""img/food1.png"" style=""width:200px; border:14px solid green;"">","null","","","","","","","","","",""
"","image-keyboard-response","73","155446","0.0-108.0","3GA6AFUKOPAI6JM4FATMXIMZSNHH3Z","ANK8K5WTHJ61C","3UUIU9GZC5R93N292LT21FRJ9VS5TN","","413.6999999284744","img/food1.png","75","415.2999999523163","2","1","false","1","2","1,0.5,0,1,0.5,0,0.5,0,1","0,1,0.5,0,1,0.5,1,0.5,0","3",""
"","html-keyboard-response","74","155750","0.0-109.0","3GA6AFUKOPAI6JM4FATMXIMZSNHH3Z","ANK8K5WTHJ61C","3UUIU9GZC5R93N292LT21FRJ9VS5TN","","null","<img src=""img/food1.png"" style=""width:200px; border:14px solid green;"">","null","","","","","","","","","",""
"","image-keyboard-response","75","156257","0.0-111.0","3GA6AFUKOPAI6JM4FATMXIMZSNHH3Z","ANK8K5WTHJ61C","3UUIU9GZC5R93N292LT21FRJ9VS5TN","","505.6999999284744","img/food3.png","75","506.7999999523163","2","1","false","2","2","1,0.5,0,1,0.5,0,0.5,0,1","0,1,0.5,0,1,0.5,1,0.5,0","3",""
"","html-keyboard-response","76","156565","0.0-112.0","3GA6AFUKOPAI6JM4FATMXIMZSNHH3Z","ANK8K5WTHJ61C","3UUIU9GZC5R93N292LT21FRJ9VS5TN","","null","<img src=""img/food3.png"" style=""width:200px; border:14px solid green;"">","null","","","","","","","","","",""
"","image-keyboard-response","77","156945","0.0-114.0","3GA6AFUKOPAI6JM4FATMXIMZSNHH3Z","ANK8K5WTHJ61C","3UUIU9GZC5R93N292LT21FRJ9VS5TN","","378.5","img/food3.png","75","380.3000000715256","2","1","false","2","2","1,0.5,0,1,0.5,0,0.5,0,1","0,1,0.5,0,1,0.5,1,0.5,0","3",""
"","html-keyboard-response","78","157252","0.0-115.0","3GA6AFUKOPAI6JM4FATMXIMZSNHH3Z","ANK8K5WTHJ61C","3UUIU9GZC5R93N292LT21FRJ9VS5TN","","null","<img src=""img/food3.png"" style=""width:200px; border:14px solid green;"">","null","","","","","","","","","",""
"","image-keyboard-response","79","157814","0.0-117.0","3GA6AFUKOPAI6JM4FATMXIMZSNHH3Z","ANK8K5WTHJ61C","3UUIU9GZC5R93N292LT21FRJ9VS5TN","","560.8999999761581","img/food2.png","74","561.8999999761581","1","1","false","3","2","1,0.5,0,1,0.5,0,0.5,0,1","0,1,0.5,0,1,0.5,1,0.5,0","3",""
"","html-keyboard-response","80","158121","0.0-118.0","3GA6AFUKOPAI6JM4FATMXIMZSNHH3Z","ANK8K5WTHJ61C","3UUIU9GZC5R93N292LT21FRJ9VS5TN","","null","<img src=""img/food2.png"" style=""width:200px; border:14px solid green;"">","null","","","","","","","","","",""
"","image-keyboard-response","81","158507","0.0-120.0","3GA6AFUKOPAI6JM4FATMXIMZSNHH3Z","ANK8K5WTHJ61C","3UUIU9GZC5R93N292LT21FRJ9VS5TN","","383.5","img/food3.png","75","385.39999997615814","2","1","false","2","2","1,0.5,0,1,0.5,0,0.5,0,1","0,1,0.5,0,1,0.5,1,0.5,0","3",""
"","html-keyboard-response","82","158811","0.0-121.0","3GA6AFUKOPAI6JM4FATMXIMZSNHH3Z","ANK8K5WTHJ61C","3UUIU9GZC5R93N292LT21FRJ9VS5TN","","null","<img src=""img/food3.png"" style=""width:200px; border:14px solid green;"">","null","","","","","","","","","",""
"","image-keyboard-response","83","159284","0.0-123.0","3GA6AFUKOPAI6JM4FATMXIMZSNHH3Z","ANK8K5WTHJ61C","3UUIU9GZC5R93N292LT21FRJ9VS5TN","","471.2000000476837","img/food2.png","75","472.39999997615814","2","1","false","3","2","1,0.5,0,1,0.5,0,0.5,0,1","0,1,0.5,0,1,0.5,1,0.5,0","3",""
"","html-keyboard-response","84","159590","0.0-124.0","3GA6AFUKOPAI6JM4FATMXIMZSNHH3Z","ANK8K5WTHJ61C","3UUIU9GZC5R93N292LT21FRJ9VS5TN","","null","<img src=""img/food2.png"" style=""width:200px; border:14px solid green;"">","null","","","","","","","","","",""
"","image-keyboard-response","85","160037","0.0-126.0","3GA6AFUKOPAI6JM4FATMXIMZSNHH3Z","ANK8K5WTHJ61C","3UUIU9GZC5R93N292LT21FRJ9VS5TN","","444.3000000715256","img/food2.png","75","446.2000000476837","2","0","false","3","2","1,0.5,0,1,0.5,0,0.5,0,1","0,1,0.5,0,1,0.5,1,0.5,0","3",""
"","html-keyboard-response","86","160344","0.0-127.0","3GA6AFUKOPAI6JM4FATMXIMZSNHH3Z","ANK8K5WTHJ61C","3UUIU9GZC5R93N292LT21FRJ9VS5TN","","null","<img src=""img/food2.png"" style=""width:200px;border:14px solid red;"">","null","","","","","","","","","",""
"","image-keyboard-response","87","160726","0.0-129.0","3GA6AFUKOPAI6JM4FATMXIMZSNHH3Z","ANK8K5WTHJ61C","3UUIU9GZC5R93N292LT21FRJ9VS5TN","","379.10000002384186","img/food2.png","75","381.10000002384186","2","0","false","3","2","1,0.5,0,1,0.5,0,0.5,0,1","0,1,0.5,0,1,0.5,1,0.5,0","3",""
"","html-keyboard-response","88","161033","0.0-130.0","3GA6AFUKOPAI6JM4FATMXIMZSNHH3Z","ANK8K5WTHJ61C","3UUIU9GZC5R93N292LT21FRJ9VS5TN","","null","<img src=""img/food2.png"" style=""width:200px;border:14px solid red;"">","null","","","","","","","","","",""
"","image-keyboard-response","89","161142","0.0-132.0","3GA6AFUKOPAI6JM4FATMXIMZSNHH3Z","ANK8K5WTHJ61C","3UUIU9GZC5R93N292LT21FRJ9VS5TN","","109.10000002384186","img/food1.png","74","109.5","1","0","false","1","2","1,0.5,0,1,0.5,0,0.5,0,1","0,1,0.5,0,1,0.5,1,0.5,0","3",""
"","html-keyboard-response","90","161446","0.0-133.0","3GA6AFUKOPAI6JM4FATMXIMZSNHH3Z","ANK8K5WTHJ61C","3UUIU9GZC5R93N292LT21FRJ9VS5TN","","null","<img src=""img/food1.png"" style=""width:200px;border:14px solid red;"">","null","","","","","","","","","",""
"","image-keyboard-response","91","161729","0.0-135.0","3GA6AFUKOPAI6JM4FATMXIMZSNHH3Z","ANK8K5WTHJ61C","3UUIU9GZC5R93N292LT21FRJ9VS5TN","","280.2999999523163","img/food3.png","75","282.10000002384186","2","1","false","2","2","1,0.5,0,1,0.5,0,0.5,0,1","0,1,0.5,0,1,0.5,1,0.5,0","3",""
"","html-keyboard-response","92","162036","0.0-136.0","3GA6AFUKOPAI6JM4FATMXIMZSNHH3Z","ANK8K5WTHJ61C","3UUIU9GZC5R93N292LT21FRJ9VS5TN","","null","<img src=""img/food3.png"" style=""width:200px; border:14px solid green;"">","null","","","","","","","","","",""
"","image-keyboard-response","93","162346","0.0-138.0","3GA6AFUKOPAI6JM4FATMXIMZSNHH3Z","ANK8K5WTHJ61C","3UUIU9GZC5R93N292LT21FRJ9VS5TN","","307.89999997615814","img/food3.png","75","311.1999999284744","2","1","false","2","2","1,0.5,0,1,0.5,0,0.5,0,1","0,1,0.5,0,1,0.5,1,0.5,0","3",""
"","html-keyboard-response","94","162655","0.0-139.0","3GA6AFUKOPAI6JM4FATMXIMZSNHH3Z","ANK8K5WTHJ61C","3UUIU9GZC5R93N292LT21FRJ9VS5TN","","null","<img src=""img/food3.png"" style=""width:200px; border:14px solid green;"">","null","","","","","","","","","",""
"","image-keyboard-response","95","163122","0.0-141.0","3GA6AFUKOPAI6JM4FATMXIMZSNHH3Z","ANK8K5WTHJ61C","3UUIU9GZC5R93N292LT21FRJ9VS5TN","","464.7000000476837","img/food1.png","75","466","2","1","false","1","2","1,0.5,0,1,0.5,0,0.5,0,1","0,1,0.5,0,1,0.5,1,0.5,0","3",""
"","html-keyboard-response","96","163424","0.0-142.0","3GA6AFUKOPAI6JM4FATMXIMZSNHH3Z","ANK8K5WTHJ61C","3UUIU9GZC5R93N292LT21FRJ9VS5TN","","null","<img src=""img/food1.png"" style=""width:200px; border:14px solid green;"">","null","","","","","","","","","",""
"","image-keyboard-response","97","163814","0.0-144.0","3GA6AFUKOPAI6JM4FATMXIMZSNHH3Z","ANK8K5WTHJ61C","3UUIU9GZC5R93N292LT21FRJ9VS5TN","","387.5","img/food1.png","75","389.2999999523163","2","1","false","1","2","1,0.5,0,1,0.5,0,0.5,0,1","0,1,0.5,0,1,0.5,1,0.5,0","3",""
"","html-keyboard-response","98","164117","0.0-145.0","3GA6AFUKOPAI6JM4FATMXIMZSNHH3Z","ANK8K5WTHJ61C","3UUIU9GZC5R93N292LT21FRJ9VS5TN","","null","<img src=""img/food1.png"" style=""width:200px; border:14px solid green;"">","null","","","","","","","","","",""
"","image-keyboard-response","99","164612","0.0-147.0","3GA6AFUKOPAI6JM4FATMXIMZSNHH3Z","ANK8K5WTHJ61C","3UUIU9GZC5R93N292LT21FRJ9VS5TN","","492.89999997615814","img/food1.png","76","494.7000000476837","3","0","false","1","2","1,0.5,0,1,0.5,0,0.5,0,1","0,1,0.5,0,1,0.5,1,0.5,0","3",""
"","html-keyboard-response","100","164917","0.0-148.0","3GA6AFUKOPAI6JM4FATMXIMZSNHH3Z","ANK8K5WTHJ61C","3UUIU9GZC5R93N292LT21FRJ9VS5TN","","null","<img src=""img/food1.png"" style=""width:200px;border:14px solid red;"">","null","","","","","","","","","",""
"","image-keyboard-response","101","165252","0.0-150.0","3GA6AFUKOPAI6JM4FATMXIMZSNHH3Z","ANK8K5WTHJ61C","3UUIU9GZC5R93N292LT21FRJ9VS5TN","","333.89999997615814","img/food3.png","75","335","2","1","false","2","2","1,0.5,0,1,0.5,0,0.5,0,1","0,1,0.5,0,1,0.5,1,0.5,0","3",""
"","html-keyboard-response","102","165557","0.0-151.0","3GA6AFUKOPAI6JM4FATMXIMZSNHH3Z","ANK8K5WTHJ61C","3UUIU9GZC5R93N292LT21FRJ9VS5TN","","null","<img src=""img/food3.png"" style=""width:200px; border:14px solid green;"">","null","","","","","","","","","",""
"","image-keyboard-response","103","165823","0.0-153.0","3GA6AFUKOPAI6JM4FATMXIMZSNHH3Z","ANK8K5WTHJ61C","3UUIU9GZC5R93N292LT21FRJ9VS5TN","","263.2000000476837","img/food2.png","75","264.90000009536743","2","1","false","3","2","1,0.5,0,1,0.5,0,0.5,0,1","0,1,0.5,0,1,0.5,1,0.5,0","3",""
"","html-keyboard-response","104","166128","0.0-154.0","3GA6AFUKOPAI6JM4FATMXIMZSNHH3Z","ANK8K5WTHJ61C","3UUIU9GZC5R93N292LT21FRJ9VS5TN","","null","<img src=""img/food2.png"" style=""width:200px; border:14px solid green;"">","null","","","","","","","","","",""
"","image-keyboard-response","105","166247","0.0-156.0","3GA6AFUKOPAI6JM4FATMXIMZSNHH3Z","ANK8K5WTHJ61C","3UUIU9GZC5R93N292LT21FRJ9VS5TN","","115.89999997615814","img/food1.png","74","117.80000007152557","1","0","false","1","2","1,0.5,0,1,0.5,0,0.5,0,1","0,1,0.5,0,1,0.5,1,0.5,0","3",""
"","html-keyboard-response","106","166555","0.0-157.0","3GA6AFUKOPAI6JM4FATMXIMZSNHH3Z","ANK8K5WTHJ61C","3UUIU9GZC5R93N292LT21FRJ9VS5TN","","null","<img src=""img/food1.png"" style=""width:200px;border:14px solid red;"">","null","","","","","","","","","",""
"","image-keyboard-response","107","167082","0.0-159.0","3GA6AFUKOPAI6JM4FATMXIMZSNHH3Z","ANK8K5WTHJ61C","3UUIU9GZC5R93N292LT21FRJ9VS5TN","","525","img/food1.png","75","526.3999999761581","2","1","false","1","2","1,0.5,0,1,0.5,0,0.5,0,1","0,1,0.5,0,1,0.5,1,0.5,0","3",""
"","html-keyboard-response","108","167387","0.0-160.0","3GA6AFUKOPAI6JM4FATMXIMZSNHH3Z","ANK8K5WTHJ61C","3UUIU9GZC5R93N292LT21FRJ9VS5TN","","null","<img src=""img/food1.png"" style=""width:200px; border:14px solid green;"">","null","","","","","","","","","",""
"","image-keyboard-response","109","167805","0.0-162.0","3GA6AFUKOPAI6JM4FATMXIMZSNHH3Z","ANK8K5WTHJ61C","3UUIU9GZC5R93N292LT21FRJ9VS5TN","","417","img/food1.png","75","417.6999999284744","2","1","false","1","2","1,0.5,0,1,0.5,0,0.5,0,1","0,1,0.5,0,1,0.5,1,0.5,0","3",""
"","html-keyboard-response","110","168107","0.0-163.0","3GA6AFUKOPAI6JM4FATMXIMZSNHH3Z","ANK8K5WTHJ61C","3UUIU9GZC5R93N292LT21FRJ9VS5TN","","null","<img src=""img/food1.png"" style=""width:200px; border:14px solid green;"">","null","","","","","","","","","",""
"","image-keyboard-response","111","168406","0.0-165.0","3GA6AFUKOPAI6JM4FATMXIMZSNHH3Z","ANK8K5WTHJ61C","3UUIU9GZC5R93N292LT21FRJ9VS5TN","","296.6999999284744","img/food1.png","75","298.60000002384186","2","1","false","1","2","1,0.5,0,1,0.5,0,0.5,0,1","0,1,0.5,0,1,0.5,1,0.5,0","3",""
"","html-keyboard-response","112","168714","0.0-166.0","3GA6AFUKOPAI6JM4FATMXIMZSNHH3Z","ANK8K5WTHJ61C","3UUIU9GZC5R93N292LT21FRJ9VS5TN","","null","<img src=""img/food1.png"" style=""width:200px; border:14px solid green;"">","null","","","","","","","","","",""
"","image-keyboard-response","113","169093","0.0-168.0","3GA6AFUKOPAI6JM4FATMXIMZSNHH3Z","ANK8K5WTHJ61C","3UUIU9GZC5R93N292LT21FRJ9VS5TN","","377.6999999284744","img/food1.png","75","378.7999999523163","2","1","false","1","2","1,0.5,0,1,0.5,0,0.5,0,1","0,1,0.5,0,1,0.5,1,0.5,0","3",""
"","html-keyboard-response","114","169399","0.0-169.0","3GA6AFUKOPAI6JM4FATMXIMZSNHH3Z","ANK8K5WTHJ61C","3UUIU9GZC5R93N292LT21FRJ9VS5TN","","null","<img src=""img/food1.png"" style=""width:200px; border:14px solid green;"">","null","","","","","","","","","",""
"","image-keyboard-response","115","169872","0.0-171.0","3GA6AFUKOPAI6JM4FATMXIMZSNHH3Z","ANK8K5WTHJ61C","3UUIU9GZC5R93N292LT21FRJ9VS5TN","","470.5","img/food2.png","74","471.89999997615814","1","1","false","3","2","1,0.5,0,1,0.5,0,0.5,0,1","0,1,0.5,0,1,0.5,1,0.5,0","3",""
"","html-keyboard-response","116","170175","0.0-172.0","3GA6AFUKOPAI6JM4FATMXIMZSNHH3Z","ANK8K5WTHJ61C","3UUIU9GZC5R93N292LT21FRJ9VS5TN","","null","<img src=""img/food2.png"" style=""width:200px; border:14px solid green;"">","null","","","","","","","","","",""
"","image-keyboard-response","117","170476","0.0-174.0","3GA6AFUKOPAI6JM4FATMXIMZSNHH3Z","ANK8K5WTHJ61C","3UUIU9GZC5R93N292LT21FRJ9VS5TN","","298.7999999523163","img/food1.png","75","300.89999997615814","2","1","false","1","2","1,0.5,0,1,0.5,0,0.5,0,1","0,1,0.5,0,1,0.5,1,0.5,0","3",""
"","html-keyboard-response","118","170781","0.0-175.0","3GA6AFUKOPAI6JM4FATMXIMZSNHH3Z","ANK8K5WTHJ61C","3UUIU9GZC5R93N292LT21FRJ9VS5TN","","null","<img src=""img/food1.png"" style=""width:200px; border:14px solid green;"">","null","","","","","","","","","",""
"","image-keyboard-response","119","171301","0.0-177.0","3GA6AFUKOPAI6JM4FATMXIMZSNHH3Z","ANK8K5WTHJ61C","3UUIU9GZC5R93N292LT21FRJ9VS5TN","","517.2999999523163","img/food3.png","75","519.1000000238419","2","1","false","2","2","1,0.5,0,1,0.5,0,0.5,0,1","0,1,0.5,0,1,0.5,1,0.5,0","3",""
"","html-keyboard-response","120","171606","0.0-178.0","3GA6AFUKOPAI6JM4FATMXIMZSNHH3Z","ANK8K5WTHJ61C","3UUIU9GZC5R93N292LT21FRJ9VS5TN","","null","<img src=""img/food3.png"" style=""width:200px; border:14px solid green;"">","null","","","","","","","","","",""
"","image-keyboard-response","121","172037","0.0-180.0","3GA6AFUKOPAI6JM4FATMXIMZSNHH3Z","ANK8K5WTHJ61C","3UUIU9GZC5R93N292LT21FRJ9VS5TN","","429","img/food2.png","75","431","2","0","false","3","2","1,0.5,0,1,0.5,0,0.5,0,1","0,1,0.5,0,1,0.5,1,0.5,0","3",""
"","html-keyboard-response","122","172345","0.0-181.0","3GA6AFUKOPAI6JM4FATMXIMZSNHH3Z","ANK8K5WTHJ61C","3UUIU9GZC5R93N292LT21FRJ9VS5TN","","null","<img src=""img/food2.png"" style=""width:200px;border:14px solid red;"">","null","","","","","","","","","",""
"","image-keyboard-response","123","172651","0.0-183.0","3GA6AFUKOPAI6JM4FATMXIMZSNHH3Z","ANK8K5WTHJ61C","3UUIU9GZC5R93N292LT21FRJ9VS5TN","","303.89999997615814","img/food2.png","75","305.7999999523163","2","0","false","3","2","1,0.5,0,1,0.5,0,0.5,0,1","0,1,0.5,0,1,0.5,1,0.5,0","3",""
"","html-keyboard-response","124","172954","0.0-184.0","3GA6AFUKOPAI6JM4FATMXIMZSNHH3Z","ANK8K5WTHJ61C","3UUIU9GZC5R93N292LT21FRJ9VS5TN","","null","<img src=""img/food2.png"" style=""width:200px;border:14px solid red;"">","null","","","","","","","","","",""
"","image-keyboard-response","125","173022","0.0-186.0","3GA6AFUKOPAI6JM4FATMXIMZSNHH3Z","ANK8K5WTHJ61C","3UUIU9GZC5R93N292LT21FRJ9VS5TN","","67.30000007152557","img/food3.png","74","67.89999997615814","1","0","false","2","2","1,0.5,0,1,0.5,0,0.5,0,1","0,1,0.5,0,1,0.5,1,0.5,0","3",""
"","html-keyboard-response","126","173328","0.0-187.0","3GA6AFUKOPAI6JM4FATMXIMZSNHH3Z","ANK8K5WTHJ61C","3UUIU9GZC5R93N292LT21FRJ9VS5TN","","null","<img src=""img/food3.png"" style=""width:200px;border:14px solid red;"">","null","","","","","","","","","",""
"","image-keyboard-response","127","173567","0.0-189.0","3GA6AFUKOPAI6JM4FATMXIMZSNHH3Z","ANK8K5WTHJ61C","3UUIU9GZC5R93N292LT21FRJ9VS5TN","","237.70000004768372","img/food3.png","75","239","2","1","false","2","2","1,0.5,0,1,0.5,0,0.5,0,1","0,1,0.5,0,1,0.5,1,0.5,0","3",""
"","html-keyboard-response","128","173875","0.0-190.0","3GA6AFUKOPAI6JM4FATMXIMZSNHH3Z","ANK8K5WTHJ61C","3UUIU9GZC5R93N292LT21FRJ9VS5TN","","null","<img src=""img/food3.png"" style=""width:200px; border:14px solid green;"">","null","","","","","","","","","",""
"","image-keyboard-response","129","174182","0.0-192.0","3GA6AFUKOPAI6JM4FATMXIMZSNHH3Z","ANK8K5WTHJ61C","3UUIU9GZC5R93N292LT21FRJ9VS5TN","","305.2999999523163","img/food1.png","75","306.7999999523163","2","1","false","1","2","1,0.5,0,1,0.5,0,0.5,0,1","0,1,0.5,0,1,0.5,1,0.5,0","3",""
"","html-keyboard-response","130","174491","0.0-193.0","3GA6AFUKOPAI6JM4FATMXIMZSNHH3Z","ANK8K5WTHJ61C","3UUIU9GZC5R93N292LT21FRJ9VS5TN","","null","<img src=""img/food1.png"" style=""width:200px; border:14px solid green;"">","null","","","","","","","","","",""
"","image-keyboard-response","131","175123","0.0-195.0","3GA6AFUKOPAI6JM4FATMXIMZSNHH3Z","ANK8K5WTHJ61C","3UUIU9GZC5R93N292LT21FRJ9VS5TN","","630.2999999523163","img/food2.png","74","631.7999999523163","1","1","false","3","2","1,0.5,0,1,0.5,0,0.5,0,1","0,1,0.5,0,1,0.5,1,0.5,0","3",""
"","html-keyboard-response","132","175428","0.0-196.0","3GA6AFUKOPAI6JM4FATMXIMZSNHH3Z","ANK8K5WTHJ61C","3UUIU9GZC5R93N292LT21FRJ9VS5TN","","null","<img src=""img/food2.png"" style=""width:200px; border:14px solid green;"">","null","","","","","","","","","",""
"","image-keyboard-response","133","175813","0.0-198.0","3GA6AFUKOPAI6JM4FATMXIMZSNHH3Z","ANK8K5WTHJ61C","3UUIU9GZC5R93N292LT21FRJ9VS5TN","","382.60000002384186","img/food3.png","75","383.89999997615814","2","1","false","2","2","1,0.5,0,1,0.5,0,0.5,0,1","0,1,0.5,0,1,0.5,1,0.5,0","3",""
"","html-keyboard-response","134","176118","0.0-199.0","3GA6AFUKOPAI6JM4FATMXIMZSNHH3Z","ANK8K5WTHJ61C","3UUIU9GZC5R93N292LT21FRJ9VS5TN","","null","<img src=""img/food3.png"" style=""width:200px; border:14px solid green;"">","null","","","","","","","","","",""
"","image-keyboard-response","135","176418","0.0-201.0","3GA6AFUKOPAI6JM4FATMXIMZSNHH3Z","ANK8K5WTHJ61C","3UUIU9GZC5R93N292LT21FRJ9VS5TN","","297.6999999284744","img/food1.png","75","299.39999997615814","2","1","false","1","2","1,0.5,0,1,0.5,0,0.5,0,1","0,1,0.5,0,1,0.5,1,0.5,0","3",""
"","html-keyboard-response","136","176725","0.0-202.0","3GA6AFUKOPAI6JM4FATMXIMZSNHH3Z","ANK8K5WTHJ61C","3UUIU9GZC5R93N292LT21FRJ9VS5TN","","null","<img src=""img/food1.png"" style=""width:200px; border:14px solid green;"">","null","","","","","","","","","",""
"","image-keyboard-response","137","177314","0.0-204.0","3GA6AFUKOPAI6JM4FATMXIMZSNHH3Z","ANK8K5WTHJ61C","3UUIU9GZC5R93N292LT21FRJ9VS5TN","","586.6999999284744","img/food3.png","75","588.2999999523163","2","1","false","2","2","1,0.5,0,1,0.5,0,0.5,0,1","0,1,0.5,0,1,0.5,1,0.5,0","3",""
"","html-keyboard-response","138","177616","0.0-205.0","3GA6AFUKOPAI6JM4FATMXIMZSNHH3Z","ANK8K5WTHJ61C","3UUIU9GZC5R93N292LT21FRJ9VS5TN","","null","<img src=""img/food3.png"" style=""width:200px; border:14px solid green;"">","null","","","","","","","","","",""
"","image-keyboard-response","139","178217","0.0-207.0","3GA6AFUKOPAI6JM4FATMXIMZSNHH3Z","ANK8K5WTHJ61C","3UUIU9GZC5R93N292LT21FRJ9VS5TN","","598.3000000715256","img/food2.png","74","600.2000000476837","1","1","false","3","2","1,0.5,0,1,0.5,0,0.5,0,1","0,1,0.5,0,1,0.5,1,0.5,0","3",""
"","html-keyboard-response","140","178525","0.0-208.0","3GA6AFUKOPAI6JM4FATMXIMZSNHH3Z","ANK8K5WTHJ61C","3UUIU9GZC5R93N292LT21FRJ9VS5TN","","null","<img src=""img/food2.png"" style=""width:200px; border:14px solid green;"">","null","","","","","","","","","",""
"","image-keyboard-response","141","178846","0.0-210.0","3GA6AFUKOPAI6JM4FATMXIMZSNHH3Z","ANK8K5WTHJ61C","3UUIU9GZC5R93N292LT21FRJ9VS5TN","","318.60000002384186","img/food3.png","75","320.59999990463257","2","1","false","2","2","1,0.5,0,1,0.5,0,0.5,0,1","0,1,0.5,0,1,0.5,1,0.5,0","3",""
"","html-keyboard-response","142","179153","0.0-211.0","3GA6AFUKOPAI6JM4FATMXIMZSNHH3Z","ANK8K5WTHJ61C","3UUIU9GZC5R93N292LT21FRJ9VS5TN","","null","<img src=""img/food3.png"" style=""width:200px; border:14px solid green;"">","null","","","","","","","","","",""
"","image-keyboard-response","143","179552","0.0-213.0","3GA6AFUKOPAI6JM4FATMXIMZSNHH3Z","ANK8K5WTHJ61C","3UUIU9GZC5R93N292LT21FRJ9VS5TN","","397.09999990463257","img/food3.png","75","398.2000000476837","2","1","false","2","2","1,0.5,0,1,0.5,0,0.5,0,1","0,1,0.5,0,1,0.5,1,0.5,0","3",""
"","html-keyboard-response","144","179856","0.0-214.0","3GA6AFUKOPAI6JM4FATMXIMZSNHH3Z","ANK8K5WTHJ61C","3UUIU9GZC5R93N292LT21FRJ9VS5TN","","null","<img src=""img/food3.png"" style=""width:200px; border:14px solid green;"">","null","","","","","","","","","",""
"","image-keyboard-response","145","180405","0.0-216.0","3GA6AFUKOPAI6JM4FATMXIMZSNHH3Z","ANK8K5WTHJ61C","3UUIU9GZC5R93N292LT21FRJ9VS5TN","","546.8000000715256","img/food2.png","75","548.6000000238419","2","1","false","3","2","1,0.5,0,1,0.5,0,0.5,0,1","0,1,0.5,0,1,0.5,1,0.5,0","3",""
"","html-keyboard-response","146","180709","0.0-217.0","3GA6AFUKOPAI6JM4FATMXIMZSNHH3Z","ANK8K5WTHJ61C","3UUIU9GZC5R93N292LT21FRJ9VS5TN","","null","<img src=""img/food2.png"" style=""width:200px; border:14px solid green;"">","null","","","","","","","","","",""
"","image-keyboard-response","147","181182","0.0-219.0","3GA6AFUKOPAI6JM4FATMXIMZSNHH3Z","ANK8K5WTHJ61C","3UUIU9GZC5R93N292LT21FRJ9VS5TN","","471.5","img/food2.png","75","472.60000002384186","2","0","false","3","2","1,0.5,0,1,0.5,0,0.5,0,1","0,1,0.5,0,1,0.5,1,0.5,0","3",""
"","html-keyboard-response","148","181487","0.0-220.0","3GA6AFUKOPAI6JM4FATMXIMZSNHH3Z","ANK8K5WTHJ61C","3UUIU9GZC5R93N292LT21FRJ9VS5TN","","null","<img src=""img/food2.png"" style=""width:200px;border:14px solid red;"">","null","","","","","","","","","",""
"","image-keyboard-response","149","181906","0.0-222.0","3GA6AFUKOPAI6JM4FATMXIMZSNHH3Z","ANK8K5WTHJ61C","3UUIU9GZC5R93N292LT21FRJ9VS5TN","","416.39999997615814","img/food2.png","74","418.2000000476837","1","1","false","3","2","1,0.5,0,1,0.5,0,0.5,0,1","0,1,0.5,0,1,0.5,1,0.5,0","3",""
"","html-keyboard-response","150","182213","0.0-223.0","3GA6AFUKOPAI6JM4FATMXIMZSNHH3Z","ANK8K5WTHJ61C","3UUIU9GZC5R93N292LT21FRJ9VS5TN","","null","<img src=""img/food2.png"" style=""width:200px; border:14px solid green;"">","null","","","","","","","","","",""
"","image-keyboard-response","151","182567","0.0-225.0","3GA6AFUKOPAI6JM4FATMXIMZSNHH3Z","ANK8K5WTHJ61C","3UUIU9GZC5R93N292LT21FRJ9VS5TN","","352.39999997615814","img/food2.png","74","353.7999999523163","1","1","false","3","2","1,0.5,0,1,0.5,0,0.5,0,1","0,1,0.5,0,1,0.5,1,0.5,0","3",""
"","html-keyboard-response","152","182875","0.0-226.0","3GA6AFUKOPAI6JM4FATMXIMZSNHH3Z","ANK8K5WTHJ61C","3UUIU9GZC5R93N292LT21FRJ9VS5TN","","null","<img src=""img/food2.png"" style=""width:200px; border:14px solid green;"">","null","","","","","","","","","",""
"","image-keyboard-response","153","183326","0.0-228.0","3GA6AFUKOPAI6JM4FATMXIMZSNHH3Z","ANK8K5WTHJ61C","3UUIU9GZC5R93N292LT21FRJ9VS5TN","","449.7000000476837","img/food3.png","75","450.89999997615814","2","1","false","2","2","1,0.5,0,1,0.5,0,0.5,0,1","0,1,0.5,0,1,0.5,1,0.5,0","3",""
"","html-keyboard-response","154","183633","0.0-229.0","3GA6AFUKOPAI6JM4FATMXIMZSNHH3Z","ANK8K5WTHJ61C","3UUIU9GZC5R93N292LT21FRJ9VS5TN","","null","<img src=""img/food3.png"" style=""width:200px; border:14px solid green;"">","null","","","","","","","","","",""
"","image-keyboard-response","155","184096","0.0-231.0","3GA6AFUKOPAI6JM4FATMXIMZSNHH3Z","ANK8K5WTHJ61C","3UUIU9GZC5R93N292LT21FRJ9VS5TN","","460.7999999523163","img/food2.png","75","462.6999999284744","2","0","false","3","2","1,0.5,0,1,0.5,0,0.5,0,1","0,1,0.5,0,1,0.5,1,0.5,0","3",""
"","html-keyboard-response","156","184401","0.0-232.0","3GA6AFUKOPAI6JM4FATMXIMZSNHH3Z","ANK8K5WTHJ61C","3UUIU9GZC5R93N292LT21FRJ9VS5TN","","null","<img src=""img/food2.png"" style=""width:200px;border:14px solid red;"">","null","","","","","","","","","",""
"","image-keyboard-response","157","185116","0.0-234.0","3GA6AFUKOPAI6JM4FATMXIMZSNHH3Z","ANK8K5WTHJ61C","3UUIU9GZC5R93N292LT21FRJ9VS5TN","","712.1000000238419","img/food1.png","75","713.9000000953674","2","1","false","1","2","1,0.5,0,1,0.5,0,0.5,0,1","0,1,0.5,0,1,0.5,1,0.5,0","3",""
"","html-keyboard-response","158","185420","0.0-235.0","3GA6AFUKOPAI6JM4FATMXIMZSNHH3Z","ANK8K5WTHJ61C","3UUIU9GZC5R93N292LT21FRJ9VS5TN","","null","<img src=""img/food1.png"" style=""width:200px; border:14px solid green;"">","null","","","","","","","","","",""
"","image-keyboard-response","159","185772","0.0-237.0","3GA6AFUKOPAI6JM4FATMXIMZSNHH3Z","ANK8K5WTHJ61C","3UUIU9GZC5R93N292LT21FRJ9VS5TN","","351.60000002384186","img/food1.png","75","352.10000002384186","2","1","false","1","2","1,0.5,0,1,0.5,0,0.5,0,1","0,1,0.5,0,1,0.5,1,0.5,0","3",""
"","html-keyboard-response","160","186079","0.0-238.0","3GA6AFUKOPAI6JM4FATMXIMZSNHH3Z","ANK8K5WTHJ61C","3UUIU9GZC5R93N292LT21FRJ9VS5TN","","null","<img src=""img/food1.png"" style=""width:200px; border:14px solid green;"">","null","","","","","","","","","",""
"","image-keyboard-response","161","186466","0.0-240.0","3GA6AFUKOPAI6JM4FATMXIMZSNHH3Z","ANK8K5WTHJ61C","3UUIU9GZC5R93N292LT21FRJ9VS5TN","","385.10000002384186","img/food1.png","75","386.90000009536743","2","1","false","1","2","1,0.5,0,1,0.5,0,0.5,0,1","0,1,0.5,0,1,0.5,1,0.5,0","3",""
"","html-keyboard-response","162","186774","0.0-241.0","3GA6AFUKOPAI6JM4FATMXIMZSNHH3Z","ANK8K5WTHJ61C","3UUIU9GZC5R93N292LT21FRJ9VS5TN","","null","<img src=""img/food1.png"" style=""width:200px; border:14px solid green;"">","null","","","","","","","","","",""
"","image-keyboard-response","163","187336","0.0-243.0","3GA6AFUKOPAI6JM4FATMXIMZSNHH3Z","ANK8K5WTHJ61C","3UUIU9GZC5R93N292LT21FRJ9VS5TN","","559.6999999284744","img/food2.png","74","561.5","1","1","false","3","2","1,0.5,0,1,0.5,0,0.5,0,1","0,1,0.5,0,1,0.5,1,0.5,0","3",""
"","html-keyboard-response","164","187643","0.0-244.0","3GA6AFUKOPAI6JM4FATMXIMZSNHH3Z","ANK8K5WTHJ61C","3UUIU9GZC5R93N292LT21FRJ9VS5TN","","null","<img src=""img/food2.png"" style=""width:200px; border:14px solid green;"">","null","","","","","","","","","",""
"","image-keyboard-response","165","188385","0.0-246.0","3GA6AFUKOPAI6JM4FATMXIMZSNHH3Z","ANK8K5WTHJ61C","3UUIU9GZC5R93N292LT21FRJ9VS5TN","","740.3999999761581","img/food3.png","75","742.1000000238419","2","1","false","2","2","1,0.5,0,1,0.5,0,0.5,0,1","0,1,0.5,0,1,0.5,1,0.5,0","3",""
"","html-keyboard-response","166","188690","0.0-247.0","3GA6AFUKOPAI6JM4FATMXIMZSNHH3Z","ANK8K5WTHJ61C","3UUIU9GZC5R93N292LT21FRJ9VS5TN","","null","<img src=""img/food3.png"" style=""width:200px; border:14px solid green;"">","null","","","","","","","","","",""
"","image-keyboard-response","167","189192","0.0-249.0","3GA6AFUKOPAI6JM4FATMXIMZSNHH3Z","ANK8K5WTHJ61C","3UUIU9GZC5R93N292LT21FRJ9VS5TN","","500.90000009536743","img/food2.png","74","502.1999999284744","1","1","false","3","2","1,0.5,0,1,0.5,0,0.5,0,1","0,1,0.5,0,1,0.5,1,0.5,0","3",""
"","html-keyboard-response","168","189497","0.0-250.0","3GA6AFUKOPAI6JM4FATMXIMZSNHH3Z","ANK8K5WTHJ61C","3UUIU9GZC5R93N292LT21FRJ9VS5TN","","null","<img src=""img/food2.png"" style=""width:200px; border:14px solid green;"">","null","","","","","","","","","",""
"","image-keyboard-response","169","189944","0.0-252.0","3GA6AFUKOPAI6JM4FATMXIMZSNHH3Z","ANK8K5WTHJ61C","3UUIU9GZC5R93N292LT21FRJ9VS5TN","","444.60000002384186","img/food2.png","74","446.1999999284744","1","1","false","3","2","1,0.5,0,1,0.5,0,0.5,0,1","0,1,0.5,0,1,0.5,1,0.5,0","3",""
"","html-keyboard-response","170","190251","0.0-253.0","3GA6AFUKOPAI6JM4FATMXIMZSNHH3Z","ANK8K5WTHJ61C","3UUIU9GZC5R93N292LT21FRJ9VS5TN","","null","<img src=""img/food2.png"" style=""width:200px; border:14px solid green;"">","null","","","","","","","","","",""
"","image-keyboard-response","171","190696","0.0-255.0","3GA6AFUKOPAI6JM4FATMXIMZSNHH3Z","ANK8K5WTHJ61C","3UUIU9GZC5R93N292LT21FRJ9VS5TN","","442.10000002384186","img/food3.png","75","444.2000000476837","2","1","false","2","2","1,0.5,0,1,0.5,0,0.5,0,1","0,1,0.5,0,1,0.5,1,0.5,0","3",""
"","html-keyboard-response","172","191002","0.0-256.0","3GA6AFUKOPAI6JM4FATMXIMZSNHH3Z","ANK8K5WTHJ61C","3UUIU9GZC5R93N292LT21FRJ9VS5TN","","null","<img src=""img/food3.png"" style=""width:200px; border:14px solid green;"">","null","","","","","","","","","",""
"","image-keyboard-response","173","191412","0.0-258.0","3GA6AFUKOPAI6JM4FATMXIMZSNHH3Z","ANK8K5WTHJ61C","3UUIU9GZC5R93N292LT21FRJ9VS5TN","","409.10000002384186","img/food2.png","75","409.6999999284744","2","1","false","3","2","1,0.5,0,1,0.5,0,0.5,0,1","0,1,0.5,0,1,0.5,1,0.5,0","3",""
"","html-keyboard-response","174","191715","0.0-259.0","3GA6AFUKOPAI6JM4FATMXIMZSNHH3Z","ANK8K5WTHJ61C","3UUIU9GZC5R93N292LT21FRJ9VS5TN","","null","<img src=""img/food2.png"" style=""width:200px; border:14px solid green;"">","null","","","","","","","","","",""
"","image-keyboard-response","175","192495","0.0-261.0","3GA6AFUKOPAI6JM4FATMXIMZSNHH3Z","ANK8K5WTHJ61C","3UUIU9GZC5R93N292LT21FRJ9VS5TN","","778.2999999523163","img/food1.png","75","780.1000000238419","2","1","false","1","2","1,0.5,0,1,0.5,0,0.5,0,1","0,1,0.5,0,1,0.5,1,0.5,0","3",""
"","html-keyboard-response","176","192800","0.0-262.0","3GA6AFUKOPAI6JM4FATMXIMZSNHH3Z","ANK8K5WTHJ61C","3UUIU9GZC5R93N292LT21FRJ9VS5TN","","null","<img src=""img/food1.png"" style=""width:200px; border:14px solid green;"">","null","","","","","","","","","",""
"","image-keyboard-response","177","193183","0.0-264.0","3GA6AFUKOPAI6JM4FATMXIMZSNHH3Z","ANK8K5WTHJ61C","3UUIU9GZC5R93N292LT21FRJ9VS5TN","","380.89999997615814","img/food1.png","75","382","2","1","false","1","2","1,0.5,0,1,0.5,0,0.5,0,1","0,1,0.5,0,1,0.5,1,0.5,0","3",""
"","html-keyboard-response","178","193486","0.0-265.0","3GA6AFUKOPAI6JM4FATMXIMZSNHH3Z","ANK8K5WTHJ61C","3UUIU9GZC5R93N292LT21FRJ9VS5TN","","null","<img src=""img/food1.png"" style=""width:200px; border:14px solid green;"">","null","","","","","","","","","",""
"","image-keyboard-response","179","193903","0.0-267.0","3GA6AFUKOPAI6JM4FATMXIMZSNHH3Z","ANK8K5WTHJ61C","3UUIU9GZC5R93N292LT21FRJ9VS5TN","","415.5","img/food2.png","74","416.7000000476837","1","1","false","3","2","1,0.5,0,1,0.5,0,0.5,0,1","0,1,0.5,0,1,0.5,1,0.5,0","3",""
"","html-keyboard-response","180","194210","0.0-268.0","3GA6AFUKOPAI6JM4FATMXIMZSNHH3Z","ANK8K5WTHJ61C","3UUIU9GZC5R93N292LT21FRJ9VS5TN","","null","<img src=""img/food2.png"" style=""width:200px; border:14px solid green;"">","null","","","","","","","","","",""
"","image-keyboard-response","181","194596","0.0-270.0","3GA6AFUKOPAI6JM4FATMXIMZSNHH3Z","ANK8K5WTHJ61C","3UUIU9GZC5R93N292LT21FRJ9VS5TN","","382.89999997615814","img/food2.png","74","384.90000009536743","1","1","false","3","2","1,0.5,0,1,0.5,0,0.5,0,1","0,1,0.5,0,1,0.5,1,0.5,0","3",""
"","html-keyboard-response","182","194901","0.0-271.0","3GA6AFUKOPAI6JM4FATMXIMZSNHH3Z","ANK8K5WTHJ61C","3UUIU9GZC5R93N292LT21FRJ9VS5TN","","null","<img src=""img/food2.png"" style=""width:200px; border:14px solid green;"">","null","","","","","","","","","",""
"","instructions","183","210011","0.0-273.0","3GA6AFUKOPAI6JM4FATMXIMZSNHH3Z","ANK8K5WTHJ61C","3UUIU9GZC5R93N292LT21FRJ9VS5TN","[{""page_index"":0,""viewing_time"":10973.899999976158},{""page_index"":1,""viewing_time"":4134.300000071526}]","15108.700000047684","","","","","","","","","","","",""
"","image-keyboard-response","184","210825","0.0-274.0","3GA6AFUKOPAI6JM4FATMXIMZSNHH3Z","ANK8K5WTHJ61C","3UUIU9GZC5R93N292LT21FRJ9VS5TN","","811.5","img/food4.png","75","813.7999999523163","2","0","","2","1","1,0.5,0,1,0.5,0,0.5,0,1","0.5,0,1,0.5,0,1,0,1,0.5","2",""
"","html-keyboard-response","185","211131","0.0-275.0","3GA6AFUKOPAI6JM4FATMXIMZSNHH3Z","ANK8K5WTHJ61C","3UUIU9GZC5R93N292LT21FRJ9VS5TN","","null","<img src=""img/food4.png"" style=""width:200px;border:14px solid red;"">","null","","","","","","","","","",""
"","image-keyboard-response","186","212236","0.0-276.0","3GA6AFUKOPAI6JM4FATMXIMZSNHH3Z","ANK8K5WTHJ61C","3UUIU9GZC5R93N292LT21FRJ9VS5TN","","1104.2000000476837","img/food5.png","75","1105.2999999523163","2","0","","1","1","1,0.5,0,1,0.5,0,0.5,0,1","0.5,0,1,0.5,0,1,0,1,0.5","2",""
"","html-keyboard-response","187","212543","0.0-277.0","3GA6AFUKOPAI6JM4FATMXIMZSNHH3Z","ANK8K5WTHJ61C","3UUIU9GZC5R93N292LT21FRJ9VS5TN","","null","<img src=""img/food5.png"" style=""width:200px;border:14px solid red;"">","null","","","","","","","","","",""
"","image-keyboard-response","188","213284","0.0-278.0","3GA6AFUKOPAI6JM4FATMXIMZSNHH3Z","ANK8K5WTHJ61C","3UUIU9GZC5R93N292LT21FRJ9VS5TN","","738.6999999284744","img/food6.png","75","740.5","2","1","","3","1","1,0.5,0,1,0.5,0,0.5,0,1","0.5,0,1,0.5,0,1,0,1,0.5","2",""
"","html-keyboard-response","189","213589","0.0-279.0","3GA6AFUKOPAI6JM4FATMXIMZSNHH3Z","ANK8K5WTHJ61C","3UUIU9GZC5R93N292LT21FRJ9VS5TN","","null","<img src=""img/food6.png"" style=""width:200px; border:14px solid green;"">","null","","","","","","","","","",""
"","image-keyboard-response","190","214546","0.0-280.0","3GA6AFUKOPAI6JM4FATMXIMZSNHH3Z","ANK8K5WTHJ61C","3UUIU9GZC5R93N292LT21FRJ9VS5TN","","954.5999999046326","img/food6.png","75","956.5","2","1","","3","1","1,0.5,0,1,0.5,0,0.5,0,1","0.5,0,1,0.5,0,1,0,1,0.5","2",""
"","html-keyboard-response","191","214850","0.0-281.0","3GA6AFUKOPAI6JM4FATMXIMZSNHH3Z","ANK8K5WTHJ61C","3UUIU9GZC5R93N292LT21FRJ9VS5TN","","null","<img src=""img/food6.png"" style=""width:200px; border:14px solid green;"">","null","","","","","","","","","",""
"","image-keyboard-response","192","215323","0.0-282.0","3GA6AFUKOPAI6JM4FATMXIMZSNHH3Z","ANK8K5WTHJ61C","3UUIU9GZC5R93N292LT21FRJ9VS5TN","","471.7000000476837","img/food6.png","75","472.90000009536743","2","1","","3","1","1,0.5,0,1,0.5,0,0.5,0,1","0.5,0,1,0.5,0,1,0,1,0.5","2",""
"","html-keyboard-response","193","215626","0.0-283.0","3GA6AFUKOPAI6JM4FATMXIMZSNHH3Z","ANK8K5WTHJ61C","3UUIU9GZC5R93N292LT21FRJ9VS5TN","","null","<img src=""img/food6.png"" style=""width:200px; border:14px solid green;"">","null","","","","","","","","","",""
"","image-keyboard-response","194","216496","0.0-284.0","3GA6AFUKOPAI6JM4FATMXIMZSNHH3Z","ANK8K5WTHJ61C","3UUIU9GZC5R93N292LT21FRJ9VS5TN","","867.6000000238419","img/food5.png","74","869.5","1","1","","1","1","1,0.5,0,1,0.5,0,0.5,0,1","0.5,0,1,0.5,0,1,0,1,0.5","2",""
"","html-keyboard-response","195","216803","0.0-285.0","3GA6AFUKOPAI6JM4FATMXIMZSNHH3Z","ANK8K5WTHJ61C","3UUIU9GZC5R93N292LT21FRJ9VS5TN","","null","<img src=""img/food5.png"" style=""width:200px; border:14px solid green;"">","null","","","","","","","","","",""
"","image-keyboard-response","196","217814","0.0-286.0","3GA6AFUKOPAI6JM4FATMXIMZSNHH3Z","ANK8K5WTHJ61C","3UUIU9GZC5R93N292LT21FRJ9VS5TN","","1008.7999999523163","img/food4.png","76","1010.7000000476837","3","1","","2","1","1,0.5,0,1,0.5,0,0.5,0,1","0.5,0,1,0.5,0,1,0,1,0.5","2",""
"","html-keyboard-response","197","218122","0.0-287.0","3GA6AFUKOPAI6JM4FATMXIMZSNHH3Z","ANK8K5WTHJ61C","3UUIU9GZC5R93N292LT21FRJ9VS5TN","","null","<img src=""img/food4.png"" style=""width:200px; border:14px solid green;"">","null","","","","","","","","","",""
"","image-keyboard-response","198","219047","0.0-288.0","3GA6AFUKOPAI6JM4FATMXIMZSNHH3Z","ANK8K5WTHJ61C","3UUIU9GZC5R93N292LT21FRJ9VS5TN","","922.5","img/food5.png","74","924.5","1","1","","1","1","1,0.5,0,1,0.5,0,0.5,0,1","0.5,0,1,0.5,0,1,0,1,0.5","2",""
"","html-keyboard-response","199","219354","0.0-289.0","3GA6AFUKOPAI6JM4FATMXIMZSNHH3Z","ANK8K5WTHJ61C","3UUIU9GZC5R93N292LT21FRJ9VS5TN","","null","<img src=""img/food5.png"" style=""width:200px; border:14px solid green;"">","null","","","","","","","","","",""
"","image-keyboard-response","200","220126","0.0-290.0","3GA6AFUKOPAI6JM4FATMXIMZSNHH3Z","ANK8K5WTHJ61C","3UUIU9GZC5R93N292LT21FRJ9VS5TN","","770.3999999761581","img/food4.png","76","771.6000000238419","3","1","","2","1","1,0.5,0,1,0.5,0,0.5,0,1","0.5,0,1,0.5,0,1,0,1,0.5","2",""
"","html-keyboard-response","201","220432","0.0-291.0","3GA6AFUKOPAI6JM4FATMXIMZSNHH3Z","ANK8K5WTHJ61C","3UUIU9GZC5R93N292LT21FRJ9VS5TN","","null","<img src=""img/food4.png"" style=""width:200px; border:14px solid green;"">","null","","","","","","","","","",""
"","image-keyboard-response","202","221056","0.0-292.0","3GA6AFUKOPAI6JM4FATMXIMZSNHH3Z","ANK8K5WTHJ61C","3UUIU9GZC5R93N292LT21FRJ9VS5TN","","621.9000000953674","img/food5.png","74","623.7999999523163","1","0","","1","1","1,0.5,0,1,0.5,0,0.5,0,1","0.5,0,1,0.5,0,1,0,1,0.5","2",""
"","html-keyboard-response","203","221363","0.0-293.0","3GA6AFUKOPAI6JM4FATMXIMZSNHH3Z","ANK8K5WTHJ61C","3UUIU9GZC5R93N292LT21FRJ9VS5TN","","null","<img src=""img/food5.png"" style=""width:200px;border:14px solid red;"">","null","","","","","","","","","",""
"","image-keyboard-response","204","222014","0.0-294.0","3GA6AFUKOPAI6JM4FATMXIMZSNHH3Z","ANK8K5WTHJ61C","3UUIU9GZC5R93N292LT21FRJ9VS5TN","","650.8000000715256","img/food6.png","75","651.2999999523163","2","1","","3","1","1,0.5,0,1,0.5,0,0.5,0,1","0.5,0,1,0.5,0,1,0,1,0.5","2",""
"","html-keyboard-response","205","222320","0.0-295.0","3GA6AFUKOPAI6JM4FATMXIMZSNHH3Z","ANK8K5WTHJ61C","3UUIU9GZC5R93N292LT21FRJ9VS5TN","","null","<img src=""img/food6.png"" style=""width:200px; border:14px solid green;"">","null","","","","","","","","","",""
"","image-keyboard-response","206","223032","0.0-296.0","3GA6AFUKOPAI6JM4FATMXIMZSNHH3Z","ANK8K5WTHJ61C","3UUIU9GZC5R93N292LT21FRJ9VS5TN","","711.1000000238419","img/food5.png","76","712.1999999284744","3","1","","1","1","1,0.5,0,1,0.5,0,0.5,0,1","0.5,0,1,0.5,0,1,0,1,0.5","2",""
"","html-keyboard-response","207","223338","0.0-297.0","3GA6AFUKOPAI6JM4FATMXIMZSNHH3Z","ANK8K5WTHJ61C","3UUIU9GZC5R93N292LT21FRJ9VS5TN","","null","<img src=""img/food5.png"" style=""width:200px; border:14px solid green;"">","null","","","","","","","","","",""
"","image-keyboard-response","208","224116","0.0-298.0","3GA6AFUKOPAI6JM4FATMXIMZSNHH3Z","ANK8K5WTHJ61C","3UUIU9GZC5R93N292LT21FRJ9VS5TN","","775","img/food4.png","74","777","1","0","","2","1","1,0.5,0,1,0.5,0,0.5,0,1","0.5,0,1,0.5,0,1,0,1,0.5","2",""
"","html-keyboard-response","209","224421","0.0-299.0","3GA6AFUKOPAI6JM4FATMXIMZSNHH3Z","ANK8K5WTHJ61C","3UUIU9GZC5R93N292LT21FRJ9VS5TN","","null","<img src=""img/food4.png"" style=""width:200px;border:14px solid red;"">","null","","","","","","","","","",""
"","image-keyboard-response","210","225102","0.0-300.0","3GA6AFUKOPAI6JM4FATMXIMZSNHH3Z","ANK8K5WTHJ61C","3UUIU9GZC5R93N292LT21FRJ9VS5TN","","679.3999999761581","img/food5.png","75","680.7000000476837","2","0","","1","1","1,0.5,0,1,0.5,0,0.5,0,1","0.5,0,1,0.5,0,1,0,1,0.5","2",""
"","html-keyboard-response","211","225408","0.0-301.0","3GA6AFUKOPAI6JM4FATMXIMZSNHH3Z","ANK8K5WTHJ61C","3UUIU9GZC5R93N292LT21FRJ9VS5TN","","null","<img src=""img/food5.png"" style=""width:200px;border:14px solid red;"">","null","","","","","","","","","",""
"","image-keyboard-response","212","226276","0.0-302.0","3GA6AFUKOPAI6JM4FATMXIMZSNHH3Z","ANK8K5WTHJ61C","3UUIU9GZC5R93N292LT21FRJ9VS5TN","","865.1000000238419","img/food6.png","75","867.2000000476837","2","1","","3","1","1,0.5,0,1,0.5,0,0.5,0,1","0.5,0,1,0.5,0,1,0,1,0.5","2",""
"","html-keyboard-response","213","226584","0.0-303.0","3GA6AFUKOPAI6JM4FATMXIMZSNHH3Z","ANK8K5WTHJ61C","3UUIU9GZC5R93N292LT21FRJ9VS5TN","","null","<img src=""img/food6.png"" style=""width:200px; border:14px solid green;"">","null","","","","","","","","","",""
"","image-keyboard-response","214","227596","0.0-304.0","3GA6AFUKOPAI6JM4FATMXIMZSNHH3Z","ANK8K5WTHJ61C","3UUIU9GZC5R93N292LT21FRJ9VS5TN","","1010.5","img/food4.png","76","1012.2999999523163","3","1","","2","1","1,0.5,0,1,0.5,0,0.5,0,1","0.5,0,1,0.5,0,1,0,1,0.5","2",""
"","html-keyboard-response","215","227900","0.0-305.0","3GA6AFUKOPAI6JM4FATMXIMZSNHH3Z","ANK8K5WTHJ61C","3UUIU9GZC5R93N292LT21FRJ9VS5TN","","null","<img src=""img/food4.png"" style=""width:200px; border:14px solid green;"">","null","","","","","","","","","",""
"","image-keyboard-response","216","228736","0.0-306.0","3GA6AFUKOPAI6JM4FATMXIMZSNHH3Z","ANK8K5WTHJ61C","3UUIU9GZC5R93N292LT21FRJ9VS5TN","","834.2999999523163","img/food4.png","76","835.5","3","1","","2","1","1,0.5,0,1,0.5,0,0.5,0,1","0.5,0,1,0.5,0,1,0,1,0.5","2",""
"","html-keyboard-response","217","229041","0.0-307.0","3GA6AFUKOPAI6JM4FATMXIMZSNHH3Z","ANK8K5WTHJ61C","3UUIU9GZC5R93N292LT21FRJ9VS5TN","","null","<img src=""img/food4.png"" style=""width:200px; border:14px solid green;"">","null","","","","","","","","","",""
"","image-keyboard-response","218","229873","0.0-308.0","3GA6AFUKOPAI6JM4FATMXIMZSNHH3Z","ANK8K5WTHJ61C","3UUIU9GZC5R93N292LT21FRJ9VS5TN","","829.7999999523163","img/food5.png","75","831.1000000238419","2","0","","1","1","1,0.5,0,1,0.5,0,0.5,0,1","0.5,0,1,0.5,0,1,0,1,0.5","2",""
"","html-keyboard-response","219","230180","0.0-309.0","3GA6AFUKOPAI6JM4FATMXIMZSNHH3Z","ANK8K5WTHJ61C","3UUIU9GZC5R93N292LT21FRJ9VS5TN","","null","<img src=""img/food5.png"" style=""width:200px;border:14px solid red;"">","null","","","","","","","","","",""
"","image-keyboard-response","220","231012","0.0-310.0","3GA6AFUKOPAI6JM4FATMXIMZSNHH3Z","ANK8K5WTHJ61C","3UUIU9GZC5R93N292LT21FRJ9VS5TN","","830.6000000238419","img/food6.png","75","832","2","1","","3","1","1,0.5,0,1,0.5,0,0.5,0,1","0.5,0,1,0.5,0,1,0,1,0.5","2",""
"","html-keyboard-response","221","231317","0.0-311.0","3GA6AFUKOPAI6JM4FATMXIMZSNHH3Z","ANK8K5WTHJ61C","3UUIU9GZC5R93N292LT21FRJ9VS5TN","","null","<img src=""img/food6.png"" style=""width:200px; border:14px solid green;"">","null","","","","","","","","","",""
"","image-keyboard-response","222","232066","0.0-312.0","3GA6AFUKOPAI6JM4FATMXIMZSNHH3Z","ANK8K5WTHJ61C","3UUIU9GZC5R93N292LT21FRJ9VS5TN","","746.8999999761581","img/food6.png","75","748.8999999761581","2","1","","3","1","1,0.5,0,1,0.5,0,0.5,0,1","0.5,0,1,0.5,0,1,0,1,0.5","2",""
"","html-keyboard-response","223","232373","0.0-313.0","3GA6AFUKOPAI6JM4FATMXIMZSNHH3Z","ANK8K5WTHJ61C","3UUIU9GZC5R93N292LT21FRJ9VS5TN","","null","<img src=""img/food6.png"" style=""width:200px; border:14px solid green;"">","null","","","","","","","","","",""
"","image-keyboard-response","224","233082","0.0-314.0","3GA6AFUKOPAI6JM4FATMXIMZSNHH3Z","ANK8K5WTHJ61C","3UUIU9GZC5R93N292LT21FRJ9VS5TN","","707.8999999761581","img/food5.png","76","709","3","1","","1","1","1,0.5,0,1,0.5,0,0.5,0,1","0.5,0,1,0.5,0,1,0,1,0.5","2",""
"","html-keyboard-response","225","233386","0.0-315.0","3GA6AFUKOPAI6JM4FATMXIMZSNHH3Z","ANK8K5WTHJ61C","3UUIU9GZC5R93N292LT21FRJ9VS5TN","","null","<img src=""img/food5.png"" style=""width:200px; border:14px solid green;"">","null","","","","","","","","","",""
"","image-keyboard-response","226","234076","0.0-316.0","3GA6AFUKOPAI6JM4FATMXIMZSNHH3Z","ANK8K5WTHJ61C","3UUIU9GZC5R93N292LT21FRJ9VS5TN","","688.3999999761581","img/food6.png","75","689.6999999284744","2","1","","3","1","1,0.5,0,1,0.5,0,0.5,0,1","0.5,0,1,0.5,0,1,0,1,0.5","2",""
"","html-keyboard-response","227","234383","0.0-317.0","3GA6AFUKOPAI6JM4FATMXIMZSNHH3Z","ANK8K5WTHJ61C","3UUIU9GZC5R93N292LT21FRJ9VS5TN","","null","<img src=""img/food6.png"" style=""width:200px; border:14px solid green;"">","null","","","","","","","","","",""
"","image-keyboard-response","228","235006","0.0-318.0","3GA6AFUKOPAI6JM4FATMXIMZSNHH3Z","ANK8K5WTHJ61C","3UUIU9GZC5R93N292LT21FRJ9VS5TN","","620.5","img/food6.png","75","622.3000000715256","2","1","","3","1","1,0.5,0,1,0.5,0,0.5,0,1","0.5,0,1,0.5,0,1,0,1,0.5","2",""
"","html-keyboard-response","229","235313","0.0-319.0","3GA6AFUKOPAI6JM4FATMXIMZSNHH3Z","ANK8K5WTHJ61C","3UUIU9GZC5R93N292LT21FRJ9VS5TN","","null","<img src=""img/food6.png"" style=""width:200px; border:14px solid green;"">","null","","","","","","","","","",""
"","image-keyboard-response","230","236177","0.0-320.0","3GA6AFUKOPAI6JM4FATMXIMZSNHH3Z","ANK8K5WTHJ61C","3UUIU9GZC5R93N292LT21FRJ9VS5TN","","862.0999999046326","img/food4.png","76","863.4000000953674","3","1","","2","1","1,0.5,0,1,0.5,0,0.5,0,1","0.5,0,1,0.5,0,1,0,1,0.5","2",""
"","html-keyboard-response","231","236484","0.0-321.0","3GA6AFUKOPAI6JM4FATMXIMZSNHH3Z","ANK8K5WTHJ61C","3UUIU9GZC5R93N292LT21FRJ9VS5TN","","null","<img src=""img/food4.png"" style=""width:200px; border:14px solid green;"">","null","","","","","","","","","",""
"","image-keyboard-response","232","237707","0.0-322.0","3GA6AFUKOPAI6JM4FATMXIMZSNHH3Z","ANK8K5WTHJ61C","3UUIU9GZC5R93N292LT21FRJ9VS5TN","","1220","img/food5.png","74","1221.8999999761581","1","1","","1","1","1,0.5,0,1,0.5,0,0.5,0,1","0.5,0,1,0.5,0,1,0,1,0.5","2",""
"","html-keyboard-response","233","238015","0.0-323.0","3GA6AFUKOPAI6JM4FATMXIMZSNHH3Z","ANK8K5WTHJ61C","3UUIU9GZC5R93N292LT21FRJ9VS5TN","","null","<img src=""img/food5.png"" style=""width:200px; border:14px solid green;"">","null","","","","","","","","","",""
"","image-keyboard-response","234","238875","0.0-324.0","3GA6AFUKOPAI6JM4FATMXIMZSNHH3Z","ANK8K5WTHJ61C","3UUIU9GZC5R93N292LT21FRJ9VS5TN","","858.7000000476837","img/food4.png","76","860.5","3","1","","2","1","1,0.5,0,1,0.5,0,0.5,0,1","0.5,0,1,0.5,0,1,0,1,0.5","2",""
"","html-keyboard-response","235","239182","0.0-325.0","3GA6AFUKOPAI6JM4FATMXIMZSNHH3Z","ANK8K5WTHJ61C","3UUIU9GZC5R93N292LT21FRJ9VS5TN","","null","<img src=""img/food4.png"" style=""width:200px; border:14px solid green;"">","null","","","","","","","","","",""
"","image-keyboard-response","236","240017","0.0-326.0","3GA6AFUKOPAI6JM4FATMXIMZSNHH3Z","ANK8K5WTHJ61C","3UUIU9GZC5R93N292LT21FRJ9VS5TN","","833.7999999523163","img/food6.png","75","834.8999999761581","2","1","","3","1","1,0.5,0,1,0.5,0,0.5,0,1","0.5,0,1,0.5,0,1,0,1,0.5","2",""
"","html-keyboard-response","237","240325","0.0-327.0","3GA6AFUKOPAI6JM4FATMXIMZSNHH3Z","ANK8K5WTHJ61C","3UUIU9GZC5R93N292LT21FRJ9VS5TN","","null","<img src=""img/food6.png"" style=""width:200px; border:14px solid green;"">","null","","","","","","","","","",""
"","image-keyboard-response","238","240914","0.0-328.0","3GA6AFUKOPAI6JM4FATMXIMZSNHH3Z","ANK8K5WTHJ61C","3UUIU9GZC5R93N292LT21FRJ9VS5TN","","587.7000000476837","img/food6.png","75","589.2000000476837","2","1","","3","1","1,0.5,0,1,0.5,0,0.5,0,1","0.5,0,1,0.5,0,1,0,1,0.5","2",""
"","html-keyboard-response","239","241220","0.0-329.0","3GA6AFUKOPAI6JM4FATMXIMZSNHH3Z","ANK8K5WTHJ61C","3UUIU9GZC5R93N292LT21FRJ9VS5TN","","null","<img src=""img/food6.png"" style=""width:200px; border:14px solid green;"">","null","","","","","","","","","",""
"","image-keyboard-response","240","241902","0.0-330.0","3GA6AFUKOPAI6JM4FATMXIMZSNHH3Z","ANK8K5WTHJ61C","3UUIU9GZC5R93N292LT21FRJ9VS5TN","","681.3999999761581","img/food5.png","74","682.2999999523163","1","1","","1","1","1,0.5,0,1,0.5,0,0.5,0,1","0.5,0,1,0.5,0,1,0,1,0.5","2",""
"","html-keyboard-response","241","242210","0.0-331.0","3GA6AFUKOPAI6JM4FATMXIMZSNHH3Z","ANK8K5WTHJ61C","3UUIU9GZC5R93N292LT21FRJ9VS5TN","","null","<img src=""img/food5.png"" style=""width:200px; border:14px solid green;"">","null","","","","","","","","","",""
"","image-keyboard-response","242","242776","0.0-332.0","3GA6AFUKOPAI6JM4FATMXIMZSNHH3Z","ANK8K5WTHJ61C","3UUIU9GZC5R93N292LT21FRJ9VS5TN","","564.2999999523163","img/food6.png","75","565.9000000953674","2","1","","3","1","1,0.5,0,1,0.5,0,0.5,0,1","0.5,0,1,0.5,0,1,0,1,0.5","2",""
"","html-keyboard-response","243","243084","0.0-333.0","3GA6AFUKOPAI6JM4FATMXIMZSNHH3Z","ANK8K5WTHJ61C","3UUIU9GZC5R93N292LT21FRJ9VS5TN","","null","<img src=""img/food6.png"" style=""width:200px; border:14px solid green;"">","null","","","","","","","","","",""
"","image-keyboard-response","244","243676","0.0-334.0","3GA6AFUKOPAI6JM4FATMXIMZSNHH3Z","ANK8K5WTHJ61C","3UUIU9GZC5R93N292LT21FRJ9VS5TN","","591.1000000238419","img/food4.png","76","592.1000000238419","3","1","","2","1","1,0.5,0,1,0.5,0,0.5,0,1","0.5,0,1,0.5,0,1,0,1,0.5","2",""
"","html-keyboard-response","245","243984","0.0-335.0","3GA6AFUKOPAI6JM4FATMXIMZSNHH3Z","ANK8K5WTHJ61C","3UUIU9GZC5R93N292LT21FRJ9VS5TN","","null","<img src=""img/food4.png"" style=""width:200px; border:14px solid green;"">","null","","","","","","","","","",""
"","image-keyboard-response","246","244635","0.0-336.0","3GA6AFUKOPAI6JM4FATMXIMZSNHH3Z","ANK8K5WTHJ61C","3UUIU9GZC5R93N292LT21FRJ9VS5TN","","649.6000000238419","img/food6.png","75","651.2999999523163","2","1","","3","1","1,0.5,0,1,0.5,0,0.5,0,1","0.5,0,1,0.5,0,1,0,1,0.5","2",""
"","html-keyboard-response","247","244943","0.0-337.0","3GA6AFUKOPAI6JM4FATMXIMZSNHH3Z","ANK8K5WTHJ61C","3UUIU9GZC5R93N292LT21FRJ9VS5TN","","null","<img src=""img/food6.png"" style=""width:200px; border:14px solid green;"">","null","","","","","","","","","",""
"","image-keyboard-response","248","245386","0.0-338.0","3GA6AFUKOPAI6JM4FATMXIMZSNHH3Z","ANK8K5WTHJ61C","3UUIU9GZC5R93N292LT21FRJ9VS5TN","","441.6999999284744","img/food5.png","74","443","1","1","","1","1","1,0.5,0,1,0.5,0,0.5,0,1","0.5,0,1,0.5,0,1,0,1,0.5","2",""
"","html-keyboard-response","249","245694","0.0-339.0","3GA6AFUKOPAI6JM4FATMXIMZSNHH3Z","ANK8K5WTHJ61C","3UUIU9GZC5R93N292LT21FRJ9VS5TN","","null","<img src=""img/food5.png"" style=""width:200px; border:14px solid green;"">","null","","","","","","","","","",""
"","image-keyboard-response","250","246286","0.0-340.0","3GA6AFUKOPAI6JM4FATMXIMZSNHH3Z","ANK8K5WTHJ61C","3UUIU9GZC5R93N292LT21FRJ9VS5TN","","589.4000000953674","img/food4.png","76","591.3999999761581","3","1","","2","1","1,0.5,0,1,0.5,0,0.5,0,1","0.5,0,1,0.5,0,1,0,1,0.5","2",""
"","html-keyboard-response","251","246590","0.0-341.0","3GA6AFUKOPAI6JM4FATMXIMZSNHH3Z","ANK8K5WTHJ61C","3UUIU9GZC5R93N292LT21FRJ9VS5TN","","null","<img src=""img/food4.png"" style=""width:200px; border:14px solid green;"">","null","","","","","","","","","",""
"","image-keyboard-response","252","247274","0.0-342.0","3GA6AFUKOPAI6JM4FATMXIMZSNHH3Z","ANK8K5WTHJ61C","3UUIU9GZC5R93N292LT21FRJ9VS5TN","","682.2000000476837","img/food5.png","74","683.3000000715256","1","0","","1","1","1,0.5,0,1,0.5,0,0.5,0,1","0.5,0,1,0.5,0,1,0,1,0.5","2",""
"","html-keyboard-response","253","247578","0.0-343.0","3GA6AFUKOPAI6JM4FATMXIMZSNHH3Z","ANK8K5WTHJ61C","3UUIU9GZC5R93N292LT21FRJ9VS5TN","","null","<img src=""img/food5.png"" style=""width:200px;border:14px solid red;"">","null","","","","","","","","","",""
"","image-keyboard-response","254","248296","0.0-344.0","3GA6AFUKOPAI6JM4FATMXIMZSNHH3Z","ANK8K5WTHJ61C","3UUIU9GZC5R93N292LT21FRJ9VS5TN","","716.1000000238419","img/food4.png","75","718","2","0","","2","1","1,0.5,0,1,0.5,0,0.5,0,1","0.5,0,1,0.5,0,1,0,1,0.5","2",""
"","html-keyboard-response","255","248604","0.0-345.0","3GA6AFUKOPAI6JM4FATMXIMZSNHH3Z","ANK8K5WTHJ61C","3UUIU9GZC5R93N292LT21FRJ9VS5TN","","null","<img src=""img/food4.png"" style=""width:200px;border:14px solid red;"">","null","","","","","","","","","",""
"","image-keyboard-response","256","249497","0.0-346.0","3GA6AFUKOPAI6JM4FATMXIMZSNHH3Z","ANK8K5WTHJ61C","3UUIU9GZC5R93N292LT21FRJ9VS5TN","","891.3000000715256","img/food4.png","76","893.1999999284744","3","1","","2","1","1,0.5,0,1,0.5,0,0.5,0,1","0.5,0,1,0.5,0,1,0,1,0.5","2",""
"","html-keyboard-response","257","249801","0.0-347.0","3GA6AFUKOPAI6JM4FATMXIMZSNHH3Z","ANK8K5WTHJ61C","3UUIU9GZC5R93N292LT21FRJ9VS5TN","","null","<img src=""img/food4.png"" style=""width:200px; border:14px solid green;"">","null","","","","","","","","","",""
"","image-keyboard-response","258","250756","0.0-348.0","3GA6AFUKOPAI6JM4FATMXIMZSNHH3Z","ANK8K5WTHJ61C","3UUIU9GZC5R93N292LT21FRJ9VS5TN","","953.7000000476837","img/food5.png","74","954.7999999523163","1","0","","1","1","1,0.5,0,1,0.5,0,0.5,0,1","0.5,0,1,0.5,0,1,0,1,0.5","2",""
"","html-keyboard-response","259","251060","0.0-349.0","3GA6AFUKOPAI6JM4FATMXIMZSNHH3Z","ANK8K5WTHJ61C","3UUIU9GZC5R93N292LT21FRJ9VS5TN","","null","<img src=""img/food5.png"" style=""width:200px;border:14px solid red;"">","null","","","","","","","","","",""
"","image-keyboard-response","260","251862","0.0-350.0","3GA6AFUKOPAI6JM4FATMXIMZSNHH3Z","ANK8K5WTHJ61C","3UUIU9GZC5R93N292LT21FRJ9VS5TN","","801.1999999284744","img/food4.png","76","801.8000000715256","3","1","","2","1","1,0.5,0,1,0.5,0,0.5,0,1","0.5,0,1,0.5,0,1,0,1,0.5","2",""
"","html-keyboard-response","261","252165","0.0-351.0","3GA6AFUKOPAI6JM4FATMXIMZSNHH3Z","ANK8K5WTHJ61C","3UUIU9GZC5R93N292LT21FRJ9VS5TN","","null","<img src=""img/food4.png"" style=""width:200px; border:14px solid green;"">","null","","","","","","","","","",""
"","image-keyboard-response","262","252751","0.0-352.0","3GA6AFUKOPAI6JM4FATMXIMZSNHH3Z","ANK8K5WTHJ61C","3UUIU9GZC5R93N292LT21FRJ9VS5TN","","584.2999999523163","img/food4.png","76","586.2999999523163","3","1","","2","1","1,0.5,0,1,0.5,0,0.5,0,1","0.5,0,1,0.5,0,1,0,1,0.5","2",""
"","html-keyboard-response","263","253058","0.0-353.0","3GA6AFUKOPAI6JM4FATMXIMZSNHH3Z","ANK8K5WTHJ61C","3UUIU9GZC5R93N292LT21FRJ9VS5TN","","null","<img src=""img/food4.png"" style=""width:200px; border:14px solid green;"">","null","","","","","","","","","",""
"","image-keyboard-response","264","253782","0.0-354.0","3GA6AFUKOPAI6JM4FATMXIMZSNHH3Z","ANK8K5WTHJ61C","3UUIU9GZC5R93N292LT21FRJ9VS5TN","","722.8999999761581","img/food6.png","75","723.3000000715256","2","1","","3","1","1,0.5,0,1,0.5,0,0.5,0,1","0.5,0,1,0.5,0,1,0,1,0.5","2",""
"","html-keyboard-response","265","254088","0.0-355.0","3GA6AFUKOPAI6JM4FATMXIMZSNHH3Z","ANK8K5WTHJ61C","3UUIU9GZC5R93N292LT21FRJ9VS5TN","","null","<img src=""img/food6.png"" style=""width:200px; border:14px solid green;"">","null","","","","","","","","","",""
"","image-keyboard-response","266","254836","0.0-356.0","3GA6AFUKOPAI6JM4FATMXIMZSNHH3Z","ANK8K5WTHJ61C","3UUIU9GZC5R93N292LT21FRJ9VS5TN","","746","img/food4.png","76","748","3","1","","2","1","1,0.5,0,1,0.5,0,0.5,0,1","0.5,0,1,0.5,0,1,0,1,0.5","2",""
"","html-keyboard-response","267","255140","0.0-357.0","3GA6AFUKOPAI6JM4FATMXIMZSNHH3Z","ANK8K5WTHJ61C","3UUIU9GZC5R93N292LT21FRJ9VS5TN","","null","<img src=""img/food4.png"" style=""width:200px; border:14px solid green;"">","null","","","","","","","","","",""
"","image-keyboard-response","268","256037","0.0-358.0","3GA6AFUKOPAI6JM4FATMXIMZSNHH3Z","ANK8K5WTHJ61C","3UUIU9GZC5R93N292LT21FRJ9VS5TN","","895.7000000476837","img/food5.png","74","896.7999999523163","1","1","","1","1","1,0.5,0,1,0.5,0,0.5,0,1","0.5,0,1,0.5,0,1,0,1,0.5","2",""
"","html-keyboard-response","269","256345","0.0-359.0","3GA6AFUKOPAI6JM4FATMXIMZSNHH3Z","ANK8K5WTHJ61C","3UUIU9GZC5R93N292LT21FRJ9VS5TN","","null","<img src=""img/food5.png"" style=""width:200px; border:14px solid green;"">","null","","","","","","","","","",""
"","image-keyboard-response","270","256902","0.0-360.0","3GA6AFUKOPAI6JM4FATMXIMZSNHH3Z","ANK8K5WTHJ61C","3UUIU9GZC5R93N292LT21FRJ9VS5TN","","554.6999999284744","img/food5.png","74","556.1000000238419","1","1","","1","1","1,0.5,0,1,0.5,0,0.5,0,1","0.5,0,1,0.5,0,1,0,1,0.5","2",""
"","html-keyboard-response","271","257207","0.0-361.0","3GA6AFUKOPAI6JM4FATMXIMZSNHH3Z","ANK8K5WTHJ61C","3UUIU9GZC5R93N292LT21FRJ9VS5TN","","null","<img src=""img/food5.png"" style=""width:200px; border:14px solid green;"">","null","","","","","","","","","",""
"","image-keyboard-response","272","257925","0.0-362.0","3GA6AFUKOPAI6JM4FATMXIMZSNHH3Z","ANK8K5WTHJ61C","3UUIU9GZC5R93N292LT21FRJ9VS5TN","","715.7000000476837","img/food5.png","74","717.2000000476837","1","1","","1","1","1,0.5,0,1,0.5,0,0.5,0,1","0.5,0,1,0.5,0,1,0,1,0.5","2",""
"","html-keyboard-response","273","258232","0.0-363.0","3GA6AFUKOPAI6JM4FATMXIMZSNHH3Z","ANK8K5WTHJ61C","3UUIU9GZC5R93N292LT21FRJ9VS5TN","","null","<img src=""img/food5.png"" style=""width:200px; border:14px solid green;"">","null","","","","","","","","","",""
"","image-keyboard-response","274","258677","0.0-364.0","3GA6AFUKOPAI6JM4FATMXIMZSNHH3Z","ANK8K5WTHJ61C","3UUIU9GZC5R93N292LT21FRJ9VS5TN","","442.2000000476837","img/food5.png","74","444.2000000476837","1","1","","1","1","1,0.5,0,1,0.5,0,0.5,0,1","0.5,0,1,0.5,0,1,0,1,0.5","2",""
"","html-keyboard-response","275","258985","0.0-365.0","3GA6AFUKOPAI6JM4FATMXIMZSNHH3Z","ANK8K5WTHJ61C","3UUIU9GZC5R93N292LT21FRJ9VS5TN","","null","<img src=""img/food5.png"" style=""width:200px; border:14px solid green;"">","null","","","","","","","","","",""
"","image-keyboard-response","276","259666","0.0-366.0","3GA6AFUKOPAI6JM4FATMXIMZSNHH3Z","ANK8K5WTHJ61C","3UUIU9GZC5R93N292LT21FRJ9VS5TN","","679.1000000238419","img/food4.png","76","681.0999999046326","3","1","","2","1","1,0.5,0,1,0.5,0,0.5,0,1","0.5,0,1,0.5,0,1,0,1,0.5","2",""
"","html-keyboard-response","277","259974","0.0-367.0","3GA6AFUKOPAI6JM4FATMXIMZSNHH3Z","ANK8K5WTHJ61C","3UUIU9GZC5R93N292LT21FRJ9VS5TN","","null","<img src=""img/food4.png"" style=""width:200px; border:14px solid green;"">","null","","","","","","","","","",""
"","image-keyboard-response","278","260537","0.0-368.0","3GA6AFUKOPAI6JM4FATMXIMZSNHH3Z","ANK8K5WTHJ61C","3UUIU9GZC5R93N292LT21FRJ9VS5TN","","561.7999999523163","img/food6.png","75","563.3999999761581","2","1","","3","1","1,0.5,0,1,0.5,0,0.5,0,1","0.5,0,1,0.5,0,1,0,1,0.5","2",""
"","html-keyboard-response","279","260845","0.0-369.0","3GA6AFUKOPAI6JM4FATMXIMZSNHH3Z","ANK8K5WTHJ61C","3UUIU9GZC5R93N292LT21FRJ9VS5TN","","null","<img src=""img/food6.png"" style=""width:200px; border:14px solid green;"">","null","","","","","","","","","",""
"","image-keyboard-response","280","261317","0.0-370.0","3GA6AFUKOPAI6JM4FATMXIMZSNHH3Z","ANK8K5WTHJ61C","3UUIU9GZC5R93N292LT21FRJ9VS5TN","","469.8000000715256","img/food6.png","75","471.89999997615814","2","1","","3","1","1,0.5,0,1,0.5,0,0.5,0,1","0.5,0,1,0.5,0,1,0,1,0.5","2",""
"","html-keyboard-response","281","261623","0.0-371.0","3GA6AFUKOPAI6JM4FATMXIMZSNHH3Z","ANK8K5WTHJ61C","3UUIU9GZC5R93N292LT21FRJ9VS5TN","","null","<img src=""img/food6.png"" style=""width:200px; border:14px solid green;"">","null","","","","","","","","","",""
"","image-keyboard-response","282","262096","0.0-372.0","3GA6AFUKOPAI6JM4FATMXIMZSNHH3Z","ANK8K5WTHJ61C","3UUIU9GZC5R93N292LT21FRJ9VS5TN","","471","img/food4.png","76","472.3000000715256","3","1","","2","1","1,0.5,0,1,0.5,0,0.5,0,1","0.5,0,1,0.5,0,1,0,1,0.5","2",""
"","html-keyboard-response","283","262404","0.0-373.0","3GA6AFUKOPAI6JM4FATMXIMZSNHH3Z","ANK8K5WTHJ61C","3UUIU9GZC5R93N292LT21FRJ9VS5TN","","null","<img src=""img/food4.png"" style=""width:200px; border:14px solid green;"">","null","","","","","","","","","",""
"","image-keyboard-response","284","262962","0.0-374.0","3GA6AFUKOPAI6JM4FATMXIMZSNHH3Z","ANK8K5WTHJ61C","3UUIU9GZC5R93N292LT21FRJ9VS5TN","","556.1000000238419","img/food6.png","75","557.2000000476837","2","1","","3","1","1,0.5,0,1,0.5,0,0.5,0,1","0.5,0,1,0.5,0,1,0,1,0.5","2",""
"","html-keyboard-response","285","263269","0.0-375.0","3GA6AFUKOPAI6JM4FATMXIMZSNHH3Z","ANK8K5WTHJ61C","3UUIU9GZC5R93N292LT21FRJ9VS5TN","","null","<img src=""img/food6.png"" style=""width:200px; border:14px solid green;"">","null","","","","","","","","","",""
"","image-keyboard-response","286","263894","0.0-376.0","3GA6AFUKOPAI6JM4FATMXIMZSNHH3Z","ANK8K5WTHJ61C","3UUIU9GZC5R93N292LT21FRJ9VS5TN","","622","img/food5.png","74","623.3999999761581","1","1","","1","1","1,0.5,0,1,0.5,0,0.5,0,1","0.5,0,1,0.5,0,1,0,1,0.5","2",""
"","html-keyboard-response","287","264199","0.0-377.0","3GA6AFUKOPAI6JM4FATMXIMZSNHH3Z","ANK8K5WTHJ61C","3UUIU9GZC5R93N292LT21FRJ9VS5TN","","null","<img src=""img/food5.png"" style=""width:200px; border:14px solid green;"">","null","","","","","","","","","",""
"","image-keyboard-response","288","264855","0.0-378.0","3GA6AFUKOPAI6JM4FATMXIMZSNHH3Z","ANK8K5WTHJ61C","3UUIU9GZC5R93N292LT21FRJ9VS5TN","","653.5","img/food4.png","76","655.1999999284744","3","1","","2","1","1,0.5,0,1,0.5,0,0.5,0,1","0.5,0,1,0.5,0,1,0,1,0.5","2",""
"","html-keyboard-response","289","265163","0.0-379.0","3GA6AFUKOPAI6JM4FATMXIMZSNHH3Z","ANK8K5WTHJ61C","3UUIU9GZC5R93N292LT21FRJ9VS5TN","","null","<img src=""img/food4.png"" style=""width:200px; border:14px solid green;"">","null","","","","","","","","","",""
"","image-keyboard-response","290","265666","0.0-380.0","3GA6AFUKOPAI6JM4FATMXIMZSNHH3Z","ANK8K5WTHJ61C","3UUIU9GZC5R93N292LT21FRJ9VS5TN","","502.39999997615814","img/food4.png","76","503.60000002384186","3","1","","2","1","1,0.5,0,1,0.5,0,0.5,0,1","0.5,0,1,0.5,0,1,0,1,0.5","2",""
"","html-keyboard-response","291","265974","0.0-381.0","3GA6AFUKOPAI6JM4FATMXIMZSNHH3Z","ANK8K5WTHJ61C","3UUIU9GZC5R93N292LT21FRJ9VS5TN","","null","<img src=""img/food4.png"" style=""width:200px; border:14px solid green;"">","null","","","","","","","","","",""
"","image-keyboard-response","292","266597","0.0-382.0","3GA6AFUKOPAI6JM4FATMXIMZSNHH3Z","ANK8K5WTHJ61C","3UUIU9GZC5R93N292LT21FRJ9VS5TN","","620.7000000476837","img/food6.png","75","622.6000000238419","2","1","","3","1","1,0.5,0,1,0.5,0,0.5,0,1","0.5,0,1,0.5,0,1,0,1,0.5","2",""
"","html-keyboard-response","293","266900","0.0-383.0","3GA6AFUKOPAI6JM4FATMXIMZSNHH3Z","ANK8K5WTHJ61C","3UUIU9GZC5R93N292LT21FRJ9VS5TN","","null","<img src=""img/food6.png"" style=""width:200px; border:14px solid green;"">","null","","","","","","","","","",""
"","image-keyboard-response","294","267467","0.0-384.0","3GA6AFUKOPAI6JM4FATMXIMZSNHH3Z","ANK8K5WTHJ61C","3UUIU9GZC5R93N292LT21FRJ9VS5TN","","564.6999999284744","img/food5.png","74","566.5","1","1","","1","1","1,0.5,0,1,0.5,0,0.5,0,1","0.5,0,1,0.5,0,1,0,1,0.5","2",""
"","html-keyboard-response","295","267775","0.0-385.0","3GA6AFUKOPAI6JM4FATMXIMZSNHH3Z","ANK8K5WTHJ61C","3UUIU9GZC5R93N292LT21FRJ9VS5TN","","null","<img src=""img/food5.png"" style=""width:200px; border:14px solid green;"">","null","","","","","","","","","",""
"","image-keyboard-response","296","268366","0.0-386.0","3GA6AFUKOPAI6JM4FATMXIMZSNHH3Z","ANK8K5WTHJ61C","3UUIU9GZC5R93N292LT21FRJ9VS5TN","","589.3999999761581","img/food4.png","76","590.8000000715256","3","1","","2","1","1,0.5,0,1,0.5,0,0.5,0,1","0.5,0,1,0.5,0,1,0,1,0.5","2",""
"","html-keyboard-response","297","268671","0.0-387.0","3GA6AFUKOPAI6JM4FATMXIMZSNHH3Z","ANK8K5WTHJ61C","3UUIU9GZC5R93N292LT21FRJ9VS5TN","","null","<img src=""img/food4.png"" style=""width:200px; border:14px solid green;"">","null","","","","","","","","","",""
"","image-keyboard-response","298","269386","0.0-388.0","3GA6AFUKOPAI6JM4FATMXIMZSNHH3Z","ANK8K5WTHJ61C","3UUIU9GZC5R93N292LT21FRJ9VS5TN","","712.9000000953674","img/food5.png","74","715","1","0","","1","1","1,0.5,0,1,0.5,0,0.5,0,1","0.5,0,1,0.5,0,1,0,1,0.5","2",""
"","html-keyboard-response","299","269690","0.0-389.0","3GA6AFUKOPAI6JM4FATMXIMZSNHH3Z","ANK8K5WTHJ61C","3UUIU9GZC5R93N292LT21FRJ9VS5TN","","null","<img src=""img/food5.png"" style=""width:200px;border:14px solid red;"">","null","","","","","","","","","",""
"","image-keyboard-response","300","270256","0.0-390.0","3GA6AFUKOPAI6JM4FATMXIMZSNHH3Z","ANK8K5WTHJ61C","3UUIU9GZC5R93N292LT21FRJ9VS5TN","","563.6000000238419","img/food5.png","74","565.6999999284744","1","0","","1","1","1,0.5,0,1,0.5,0,0.5,0,1","0.5,0,1,0.5,0,1,0,1,0.5","2",""
"","html-keyboard-response","301","270564","0.0-391.0","3GA6AFUKOPAI6JM4FATMXIMZSNHH3Z","ANK8K5WTHJ61C","3UUIU9GZC5R93N292LT21FRJ9VS5TN","","null","<img src=""img/food5.png"" style=""width:200px;border:14px solid red;"">","null","","","","","","","","","",""
"","image-keyboard-response","302","271065","0.0-392.0","3GA6AFUKOPAI6JM4FATMXIMZSNHH3Z","ANK8K5WTHJ61C","3UUIU9GZC5R93N292LT21FRJ9VS5TN","","499.1999999284744","img/food5.png","74","501","1","1","","1","1","1,0.5,0,1,0.5,0,0.5,0,1","0.5,0,1,0.5,0,1,0,1,0.5","2",""
"","html-keyboard-response","303","271372","0.0-393.0","3GA6AFUKOPAI6JM4FATMXIMZSNHH3Z","ANK8K5WTHJ61C","3UUIU9GZC5R93N292LT21FRJ9VS5TN","","null","<img src=""img/food5.png"" style=""width:200px; border:14px solid green;"">","null","","","","","","","","","",""
"","image-keyboard-response","304","272087","0.0-394.0","3GA6AFUKOPAI6JM4FATMXIMZSNHH3Z","ANK8K5WTHJ61C","3UUIU9GZC5R93N292LT21FRJ9VS5TN","","714","img/food5.png","74","715.3999999761581","1","0","","1","1","1,0.5,0,1,0.5,0,0.5,0,1","0.5,0,1,0.5,0,1,0,1,0.5","2",""
"","html-keyboard-response","305","272394","0.0-395.0","3GA6AFUKOPAI6JM4FATMXIMZSNHH3Z","ANK8K5WTHJ61C","3UUIU9GZC5R93N292LT21FRJ9VS5TN","","null","<img src=""img/food5.png"" style=""width:200px;border:14px solid red;"">","null","","","","","","","","","",""
"","image-keyboard-response","306","273012","0.0-396.0","3GA6AFUKOPAI6JM4FATMXIMZSNHH3Z","ANK8K5WTHJ61C","3UUIU9GZC5R93N292LT21FRJ9VS5TN","","616.2000000476837","img/food5.png","74","617.6999999284744","1","1","","1","1","1,0.5,0,1,0.5,0,0.5,0,1","0.5,0,1,0.5,0,1,0,1,0.5","2",""
"","html-keyboard-response","307","273319","0.0-397.0","3GA6AFUKOPAI6JM4FATMXIMZSNHH3Z","ANK8K5WTHJ61C","3UUIU9GZC5R93N292LT21FRJ9VS5TN","","null","<img src=""img/food5.png"" style=""width:200px; border:14px solid green;"">","null","","","","","","","","","",""
"","image-keyboard-response","308","273977","0.0-398.0","3GA6AFUKOPAI6JM4FATMXIMZSNHH3Z","ANK8K5WTHJ61C","3UUIU9GZC5R93N292LT21FRJ9VS5TN","","656.8999999761581","img/food4.png","76","658.2000000476837","3","1","","2","1","1,0.5,0,1,0.5,0,0.5,0,1","0.5,0,1,0.5,0,1,0,1,0.5","2",""
"","html-keyboard-response","309","274286","0.0-399.0","3GA6AFUKOPAI6JM4FATMXIMZSNHH3Z","ANK8K5WTHJ61C","3UUIU9GZC5R93N292LT21FRJ9VS5TN","","null","<img src=""img/food4.png"" style=""width:200px; border:14px solid green;"">","null","","","","","","","","","",""
"","image-keyboard-response","310","274756","0.0-400.0","3GA6AFUKOPAI6JM4FATMXIMZSNHH3Z","ANK8K5WTHJ61C","3UUIU9GZC5R93N292LT21FRJ9VS5TN","","468.10000002384186","img/food4.png","76","470.10000002384186","3","1","","2","1","1,0.5,0,1,0.5,0,0.5,0,1","0.5,0,1,0.5,0,1,0,1,0.5","2",""
"","html-keyboard-response","311","275060","0.0-401.0","3GA6AFUKOPAI6JM4FATMXIMZSNHH3Z","ANK8K5WTHJ61C","3UUIU9GZC5R93N292LT21FRJ9VS5TN","","null","<img src=""img/food4.png"" style=""width:200px; border:14px solid green;"">","null","","","","","","","","","",""
"","image-keyboard-response","312","275536","0.0-402.0","3GA6AFUKOPAI6JM4FATMXIMZSNHH3Z","ANK8K5WTHJ61C","3UUIU9GZC5R93N292LT21FRJ9VS5TN","","475","img/food6.png","75","476","2","1","","3","1","1,0.5,0,1,0.5,0,0.5,0,1","0.5,0,1,0.5,0,1,0,1,0.5","2",""
"","html-keyboard-response","313","275843","0.0-403.0","3GA6AFUKOPAI6JM4FATMXIMZSNHH3Z","ANK8K5WTHJ61C","3UUIU9GZC5R93N292LT21FRJ9VS5TN","","null","<img src=""img/food6.png"" style=""width:200px; border:14px solid green;"">","null","","","","","","","","","",""
"","image-keyboard-response","314","276437","0.0-404.0","3GA6AFUKOPAI6JM4FATMXIMZSNHH3Z","ANK8K5WTHJ61C","3UUIU9GZC5R93N292LT21FRJ9VS5TN","","593.5","img/food5.png","74","594.8000000715256","1","1","","1","1","1,0.5,0,1,0.5,0,0.5,0,1","0.5,0,1,0.5,0,1,0,1,0.5","2",""
"","html-keyboard-response","315","276740","0.0-405.0","3GA6AFUKOPAI6JM4FATMXIMZSNHH3Z","ANK8K5WTHJ61C","3UUIU9GZC5R93N292LT21FRJ9VS5TN","","null","<img src=""img/food5.png"" style=""width:200px; border:14px solid green;"">","null","","","","","","","","","",""
"","image-keyboard-response","316","277457","0.0-406.0","3GA6AFUKOPAI6JM4FATMXIMZSNHH3Z","ANK8K5WTHJ61C","3UUIU9GZC5R93N292LT21FRJ9VS5TN","","714.1999999284744","img/food4.png","76","716.0999999046326","3","1","","2","1","1,0.5,0,1,0.5,0,0.5,0,1","0.5,0,1,0.5,0,1,0,1,0.5","2",""
"","html-keyboard-response","317","277762","0.0-407.0","3GA6AFUKOPAI6JM4FATMXIMZSNHH3Z","ANK8K5WTHJ61C","3UUIU9GZC5R93N292LT21FRJ9VS5TN","","null","<img src=""img/food4.png"" style=""width:200px; border:14px solid green;"">","null","","","","","","","","","",""
"","image-keyboard-response","318","278327","0.0-408.0","3GA6AFUKOPAI6JM4FATMXIMZSNHH3Z","ANK8K5WTHJ61C","3UUIU9GZC5R93N292LT21FRJ9VS5TN","","563.6999999284744","img/food6.png","75","564.9000000953674","2","1","","3","1","1,0.5,0,1,0.5,0,0.5,0,1","0.5,0,1,0.5,0,1,0,1,0.5","2",""
"","html-keyboard-response","319","278630","0.0-409.0","3GA6AFUKOPAI6JM4FATMXIMZSNHH3Z","ANK8K5WTHJ61C","3UUIU9GZC5R93N292LT21FRJ9VS5TN","","null","<img src=""img/food6.png"" style=""width:200px; border:14px solid green;"">","null","","","","","","","","","",""
"","image-keyboard-response","320","279072","0.0-410.0","3GA6AFUKOPAI6JM4FATMXIMZSNHH3Z","ANK8K5WTHJ61C","3UUIU9GZC5R93N292LT21FRJ9VS5TN","","440.2999999523163","img/food6.png","75","441.2999999523163","2","1","","3","1","1,0.5,0,1,0.5,0,0.5,0,1","0.5,0,1,0.5,0,1,0,1,0.5","2",""
"","html-keyboard-response","321","279377","0.0-411.0","3GA6AFUKOPAI6JM4FATMXIMZSNHH3Z","ANK8K5WTHJ61C","3UUIU9GZC5R93N292LT21FRJ9VS5TN","","null","<img src=""img/food6.png"" style=""width:200px; border:14px solid green;"">","null","","","","","","","","","",""
"","image-keyboard-response","322","279793","0.0-412.0","3GA6AFUKOPAI6JM4FATMXIMZSNHH3Z","ANK8K5WTHJ61C","3UUIU9GZC5R93N292LT21FRJ9VS5TN","","413.90000009536743","img/food6.png","75","415.2999999523163","2","1","","3","1","1,0.5,0,1,0.5,0,0.5,0,1","0.5,0,1,0.5,0,1,0,1,0.5","2",""
"","html-keyboard-response","323","280100","0.0-413.0","3GA6AFUKOPAI6JM4FATMXIMZSNHH3Z","ANK8K5WTHJ61C","3UUIU9GZC5R93N292LT21FRJ9VS5TN","","null","<img src=""img/food6.png"" style=""width:200px; border:14px solid green;"">","null","","","","","","","","","",""
"","image-keyboard-response","324","280562","0.0-414.0","3GA6AFUKOPAI6JM4FATMXIMZSNHH3Z","ANK8K5WTHJ61C","3UUIU9GZC5R93N292LT21FRJ9VS5TN","","460.39999997615814","img/food4.png","76","463.8000000715256","3","1","","2","1","1,0.5,0,1,0.5,0,0.5,0,1","0.5,0,1,0.5,0,1,0,1,0.5","2",""
"","html-keyboard-response","325","280871","0.0-415.0","3GA6AFUKOPAI6JM4FATMXIMZSNHH3Z","ANK8K5WTHJ61C","3UUIU9GZC5R93N292LT21FRJ9VS5TN","","null","<img src=""img/food4.png"" style=""width:200px; border:14px solid green;"">","null","","","","","","","","","",""
"","image-keyboard-response","326","281371","0.0-416.0","3GA6AFUKOPAI6JM4FATMXIMZSNHH3Z","ANK8K5WTHJ61C","3UUIU9GZC5R93N292LT21FRJ9VS5TN","","498.7999999523163","img/food6.png","75","500.10000002384186","2","1","","3","1","1,0.5,0,1,0.5,0,0.5,0,1","0.5,0,1,0.5,0,1,0,1,0.5","2",""
"","html-keyboard-response","327","281679","0.0-417.0","3GA6AFUKOPAI6JM4FATMXIMZSNHH3Z","ANK8K5WTHJ61C","3UUIU9GZC5R93N292LT21FRJ9VS5TN","","null","<img src=""img/food6.png"" style=""width:200px; border:14px solid green;"">","null","","","","","","","","","",""
"","image-keyboard-response","328","282196","0.0-418.0","3GA6AFUKOPAI6JM4FATMXIMZSNHH3Z","ANK8K5WTHJ61C","3UUIU9GZC5R93N292LT21FRJ9VS5TN","","515.2000000476837","img/food5.png","74","517","1","1","","1","1","1,0.5,0,1,0.5,0,0.5,0,1","0.5,0,1,0.5,0,1,0,1,0.5","2",""
"","html-keyboard-response","329","282504","0.0-419.0","3GA6AFUKOPAI6JM4FATMXIMZSNHH3Z","ANK8K5WTHJ61C","3UUIU9GZC5R93N292LT21FRJ9VS5TN","","null","<img src=""img/food5.png"" style=""width:200px; border:14px solid green;"">","null","","","","","","","","","",""
"","image-keyboard-response","330","283093","0.0-420.0","3GA6AFUKOPAI6JM4FATMXIMZSNHH3Z","ANK8K5WTHJ61C","3UUIU9GZC5R93N292LT21FRJ9VS5TN","","586.5","img/food6.png","75","587.7999999523163","2","1","","3","1","1,0.5,0,1,0.5,0,0.5,0,1","0.5,0,1,0.5,0,1,0,1,0.5","2",""
"","html-keyboard-response","331","283396","0.0-421.0","3GA6AFUKOPAI6JM4FATMXIMZSNHH3Z","ANK8K5WTHJ61C","3UUIU9GZC5R93N292LT21FRJ9VS5TN","","null","<img src=""img/food6.png"" style=""width:200px; border:14px solid green;"">","null","","","","","","","","","",""
"","image-keyboard-response","332","283998","0.0-422.0","3GA6AFUKOPAI6JM4FATMXIMZSNHH3Z","ANK8K5WTHJ61C","3UUIU9GZC5R93N292LT21FRJ9VS5TN","","598.8999999761581","img/food4.png","76","601","3","1","","2","1","1,0.5,0,1,0.5,0,0.5,0,1","0.5,0,1,0.5,0,1,0,1,0.5","2",""
"","html-keyboard-response","333","284301","0.0-423.0","3GA6AFUKOPAI6JM4FATMXIMZSNHH3Z","ANK8K5WTHJ61C","3UUIU9GZC5R93N292LT21FRJ9VS5TN","","null","<img src=""img/food4.png"" style=""width:200px; border:14px solid green;"">","null","","","","","","","","","",""
"","image-keyboard-response","334","285018","0.0-424.0","3GA6AFUKOPAI6JM4FATMXIMZSNHH3Z","ANK8K5WTHJ61C","3UUIU9GZC5R93N292LT21FRJ9VS5TN","","713.8999999761581","img/food5.png","74","715.8000000715256","1","1","","1","1","1,0.5,0,1,0.5,0,0.5,0,1","0.5,0,1,0.5,0,1,0,1,0.5","2",""
"","html-keyboard-response","335","285325","0.0-425.0","3GA6AFUKOPAI6JM4FATMXIMZSNHH3Z","ANK8K5WTHJ61C","3UUIU9GZC5R93N292LT21FRJ9VS5TN","","null","<img src=""img/food5.png"" style=""width:200px; border:14px solid green;"">","null","","","","","","","","","",""
"","image-keyboard-response","336","286127","0.0-426.0","3GA6AFUKOPAI6JM4FATMXIMZSNHH3Z","ANK8K5WTHJ61C","3UUIU9GZC5R93N292LT21FRJ9VS5TN","","801.1999999284744","img/food6.png","75","802.2999999523163","2","1","","3","1","1,0.5,0,1,0.5,0,0.5,0,1","0.5,0,1,0.5,0,1,0,1,0.5","2",""
"","html-keyboard-response","337","286431","0.0-427.0","3GA6AFUKOPAI6JM4FATMXIMZSNHH3Z","ANK8K5WTHJ61C","3UUIU9GZC5R93N292LT21FRJ9VS5TN","","null","<img src=""img/food6.png"" style=""width:200px; border:14px solid green;"">","null","","","","","","","","","",""
"","image-keyboard-response","338","286992","0.0-428.0","3GA6AFUKOPAI6JM4FATMXIMZSNHH3Z","ANK8K5WTHJ61C","3UUIU9GZC5R93N292LT21FRJ9VS5TN","","559.4000000953674","img/food5.png","76","560.6999999284744","3","1","","1","1","1,0.5,0,1,0.5,0,0.5,0,1","0.5,0,1,0.5,0,1,0,1,0.5","2",""
"","html-keyboard-response","339","287298","0.0-429.0","3GA6AFUKOPAI6JM4FATMXIMZSNHH3Z","ANK8K5WTHJ61C","3UUIU9GZC5R93N292LT21FRJ9VS5TN","","null","<img src=""img/food5.png"" style=""width:200px; border:14px solid green;"">","null","","","","","","","","","",""
"","image-keyboard-response","340","288107","0.0-430.0","3GA6AFUKOPAI6JM4FATMXIMZSNHH3Z","ANK8K5WTHJ61C","3UUIU9GZC5R93N292LT21FRJ9VS5TN","","806.6000000238419","img/food4.png","76","808.7000000476837","3","1","","2","1","1,0.5,0,1,0.5,0,0.5,0,1","0.5,0,1,0.5,0,1,0,1,0.5","2",""
"","html-keyboard-response","341","288415","0.0-431.0","3GA6AFUKOPAI6JM4FATMXIMZSNHH3Z","ANK8K5WTHJ61C","3UUIU9GZC5R93N292LT21FRJ9VS5TN","","null","<img src=""img/food4.png"" style=""width:200px; border:14px solid green;"">","null","","","","","","","","","",""
"","image-keyboard-response","342","288942","0.0-432.0","3GA6AFUKOPAI6JM4FATMXIMZSNHH3Z","ANK8K5WTHJ61C","3UUIU9GZC5R93N292LT21FRJ9VS5TN","","524.8999999761581","img/food4.png","76","526.2999999523163","3","1","","2","1","1,0.5,0,1,0.5,0,0.5,0,1","0.5,0,1,0.5,0,1,0,1,0.5","2",""
"","html-keyboard-response","343","289244","0.0-433.0","3GA6AFUKOPAI6JM4FATMXIMZSNHH3Z","ANK8K5WTHJ61C","3UUIU9GZC5R93N292LT21FRJ9VS5TN","","null","<img src=""img/food4.png"" style=""width:200px; border:14px solid green;"">","null","","","","","","","","","",""
"","image-keyboard-response","344","289816","0.0-434.0","3GA6AFUKOPAI6JM4FATMXIMZSNHH3Z","ANK8K5WTHJ61C","3UUIU9GZC5R93N292LT21FRJ9VS5TN","","570.7999999523163","img/food6.png","75","571.8000000715256","2","1","","3","1","1,0.5,0,1,0.5,0,0.5,0,1","0.5,0,1,0.5,0,1,0,1,0.5","2",""
"","html-keyboard-response","345","290123","0.0-435.0","3GA6AFUKOPAI6JM4FATMXIMZSNHH3Z","ANK8K5WTHJ61C","3UUIU9GZC5R93N292LT21FRJ9VS5TN","","null","<img src=""img/food6.png"" style=""width:200px; border:14px solid green;"">","null","","","","","","","","","",""
"","image-keyboard-response","346","290566","0.0-436.0","3GA6AFUKOPAI6JM4FATMXIMZSNHH3Z","ANK8K5WTHJ61C","3UUIU9GZC5R93N292LT21FRJ9VS5TN","","440.7000000476837","img/food5.png","74","442.5","1","0","","1","1","1,0.5,0,1,0.5,0,0.5,0,1","0.5,0,1,0.5,0,1,0,1,0.5","2",""
"","html-keyboard-response","347","290874","0.0-437.0","3GA6AFUKOPAI6JM4FATMXIMZSNHH3Z","ANK8K5WTHJ61C","3UUIU9GZC5R93N292LT21FRJ9VS5TN","","null","<img src=""img/food5.png"" style=""width:200px;border:14px solid red;"">","null","","","","","","","","","",""
"","image-keyboard-response","348","291345","0.0-438.0","3GA6AFUKOPAI6JM4FATMXIMZSNHH3Z","ANK8K5WTHJ61C","3UUIU9GZC5R93N292LT21FRJ9VS5TN","","468.60000002384186","img/food5.png","74","470","1","1","","1","1","1,0.5,0,1,0.5,0,0.5,0,1","0.5,0,1,0.5,0,1,0,1,0.5","2",""
"","html-keyboard-response","349","291651","0.0-439.0","3GA6AFUKOPAI6JM4FATMXIMZSNHH3Z","ANK8K5WTHJ61C","3UUIU9GZC5R93N292LT21FRJ9VS5TN","","null","<img src=""img/food5.png"" style=""width:200px; border:14px solid green;"">","null","","","","","","","","","",""
"","image-keyboard-response","350","292339","0.0-440.0","3GA6AFUKOPAI6JM4FATMXIMZSNHH3Z","ANK8K5WTHJ61C","3UUIU9GZC5R93N292LT21FRJ9VS5TN","","684.7999999523163","img/food4.png","76","686.8999999761581","3","1","","2","1","1,0.5,0,1,0.5,0,0.5,0,1","0.5,0,1,0.5,0,1,0,1,0.5","2",""
"","html-keyboard-response","351","292647","0.0-441.0","3GA6AFUKOPAI6JM4FATMXIMZSNHH3Z","ANK8K5WTHJ61C","3UUIU9GZC5R93N292LT21FRJ9VS5TN","","null","<img src=""img/food4.png"" style=""width:200px; border:14px solid green;"">","null","","","","","","","","","",""
"","image-keyboard-response","352","293234","0.0-442.0","3GA6AFUKOPAI6JM4FATMXIMZSNHH3Z","ANK8K5WTHJ61C","3UUIU9GZC5R93N292LT21FRJ9VS5TN","","584.8999999761581","img/food6.png","75","586.7999999523163","2","1","","3","1","1,0.5,0,1,0.5,0,0.5,0,1","0.5,0,1,0.5,0,1,0,1,0.5","2",""
"","html-keyboard-response","353","293542","0.0-443.0","3GA6AFUKOPAI6JM4FATMXIMZSNHH3Z","ANK8K5WTHJ61C","3UUIU9GZC5R93N292LT21FRJ9VS5TN","","null","<img src=""img/food6.png"" style=""width:200px; border:14px solid green;"">","null","","","","","","","","","",""
"","image-keyboard-response","354","294317","0.0-444.0","3GA6AFUKOPAI6JM4FATMXIMZSNHH3Z","ANK8K5WTHJ61C","3UUIU9GZC5R93N292LT21FRJ9VS5TN","","773.1000000238419","img/food4.png","76","775.2999999523163","3","1","","2","1","1,0.5,0,1,0.5,0,0.5,0,1","0.5,0,1,0.5,0,1,0,1,0.5","2",""
"","html-keyboard-response","355","294625","0.0-445.0","3GA6AFUKOPAI6JM4FATMXIMZSNHH3Z","ANK8K5WTHJ61C","3UUIU9GZC5R93N292LT21FRJ9VS5TN","","null","<img src=""img/food4.png"" style=""width:200px; border:14px solid green;"">","null","","","","","","","","","",""
"","image-keyboard-response","356","295183","0.0-446.0","3GA6AFUKOPAI6JM4FATMXIMZSNHH3Z","ANK8K5WTHJ61C","3UUIU9GZC5R93N292LT21FRJ9VS5TN","","556.5","img/food4.png","76","557.3999999761581","3","1","","2","1","1,0.5,0,1,0.5,0,0.5,0,1","0.5,0,1,0.5,0,1,0,1,0.5","2",""
"","html-keyboard-response","357","295488","0.0-447.0","3GA6AFUKOPAI6JM4FATMXIMZSNHH3Z","ANK8K5WTHJ61C","3UUIU9GZC5R93N292LT21FRJ9VS5TN","","null","<img src=""img/food4.png"" style=""width:200px; border:14px solid green;"">","null","","","","","","","","","",""
"","image-keyboard-response","358","296147","0.0-448.0","3GA6AFUKOPAI6JM4FATMXIMZSNHH3Z","ANK8K5WTHJ61C","3UUIU9GZC5R93N292LT21FRJ9VS5TN","","657.2000000476837","img/food6.png","75","659.2999999523163","2","1","","3","1","1,0.5,0,1,0.5,0,0.5,0,1","0.5,0,1,0.5,0,1,0,1,0.5","2",""
"","html-keyboard-response","359","296452","0.0-449.0","3GA6AFUKOPAI6JM4FATMXIMZSNHH3Z","ANK8K5WTHJ61C","3UUIU9GZC5R93N292LT21FRJ9VS5TN","","null","<img src=""img/food6.png"" style=""width:200px; border:14px solid green;"">","null","","","","","","","","","",""
"","image-keyboard-response","360","297348","0.0-450.0","3GA6AFUKOPAI6JM4FATMXIMZSNHH3Z","ANK8K5WTHJ61C","3UUIU9GZC5R93N292LT21FRJ9VS5TN","","893.1000000238419","img/food6.png","75","895.0999999046326","2","1","","3","1","1,0.5,0,1,0.5,0,0.5,0,1","0.5,0,1,0.5,0,1,0,1,0.5","2",""
"","html-keyboard-response","361","297655","0.0-451.0","3GA6AFUKOPAI6JM4FATMXIMZSNHH3Z","ANK8K5WTHJ61C","3UUIU9GZC5R93N292LT21FRJ9VS5TN","","null","<img src=""img/food6.png"" style=""width:200px; border:14px solid green;"">","null","","","","","","","","","",""
"","image-keyboard-response","362","298156","0.0-452.0","3GA6AFUKOPAI6JM4FATMXIMZSNHH3Z","ANK8K5WTHJ61C","3UUIU9GZC5R93N292LT21FRJ9VS5TN","","498.10000002384186","img/food6.png","75","499.89999997615814","2","1","","3","1","1,0.5,0,1,0.5,0,0.5,0,1","0.5,0,1,0.5,0,1,0,1,0.5","2",""
"","html-keyboard-response","363","298463","0.0-453.0","3GA6AFUKOPAI6JM4FATMXIMZSNHH3Z","ANK8K5WTHJ61C","3UUIU9GZC5R93N292LT21FRJ9VS5TN","","null","<img src=""img/food6.png"" style=""width:200px; border:14px solid green;"">","null","","","","","","","","","",""
"","html-keyboard-response","364","307446","0.0-454.0","3GA6AFUKOPAI6JM4FATMXIMZSNHH3Z","ANK8K5WTHJ61C","3UUIU9GZC5R93N292LT21FRJ9VS5TN","","","","","","","","","","","","","",""
"","instructions","365","318746","0.0-455.0","3GA6AFUKOPAI6JM4FATMXIMZSNHH3Z","ANK8K5WTHJ61C","3UUIU9GZC5R93N292LT21FRJ9VS5TN","[{""page_index"":0,""viewing_time"":11298.300000071526}]","11298.900000095367","","","","","","","","","","","",""
"","survey-text","366","327811","0.0-456.0","3GA6AFUKOPAI6JM4FATMXIMZSNHH3Z","ANK8K5WTHJ61C","3UUIU9GZC5R93N292LT21FRJ9VS5TN","","9060.399999976158","","","","","","","","","","","","{""Q0"":""ANK8K5WTHJ61C""}"
