"success","trial_type","trial_index","time_elapsed","internal_node_id","assignmentID","mturkID","hitID","view_history","rt","stimulus","key_press","reactionTime","a","r","warning","s","cond","reward_cond","reward_cond_actual","reward_matrix_idx","responses"
"true","fullscreen","0","2838","0.0-0.0","3RWE2M8QWIWEZN9IZL6G04LOBKV0NF","ANOPPPGFNTUPN","3TKXBROM5TWR181JXBYSOI8FGFVJIU","","","","","","","","","","","","","",""
"","instructions","1","23476","0.0-1.0","3RWE2M8QWIWEZN9IZL6G04LOBKV0NF","ANOPPPGFNTUPN","3TKXBROM5TWR181JXBYSOI8FGFVJIU","[{""page_index"":0,""viewing_time"":1575},{""page_index"":1,""viewing_time"":797},{""page_index"":2,""viewing_time"":13287},{""page_index"":3,""viewing_time"":1601},{""page_index"":4,""viewing_time"":1097},{""page_index"":5,""viewing_time"":1218},{""page_index"":6,""viewing_time"":1057}]","20633","","","","","","","","","","","",""
"","instructions","2","25745","0.0-2.0","3RWE2M8QWIWEZN9IZL6G04LOBKV0NF","ANOPPPGFNTUPN","3TKXBROM5TWR181JXBYSOI8FGFVJIU","[{""page_index"":0,""viewing_time"":1321},{""page_index"":1,""viewing_time"":944}]","2267","","","","","","","","","","","",""
"","image-keyboard-response","3","26644","0.0-3.0","3RWE2M8QWIWEZN9IZL6G04LOBKV0NF","ANOPPPGFNTUPN","3TKXBROM5TWR181JXBYSOI8FGFVJIU","","894","img/food5.png","75","899","2","1","false","2","2","1,0.5,0,1,0.5,0,0.5,0,1","0,1,0.5,0,1,0.5,1,0.5,0","3",""
"","html-keyboard-response","4","27029","0.0-4.0","3RWE2M8QWIWEZN9IZL6G04LOBKV0NF","ANOPPPGFNTUPN","3TKXBROM5TWR181JXBYSOI8FGFVJIU","","null","<img src=""img/food5.png"" style=""width:200px; border:14px solid green;"">","null","","","","","","","","","",""
"","image-keyboard-response","5","27184","0.0-6.0","3RWE2M8QWIWEZN9IZL6G04LOBKV0NF","ANOPPPGFNTUPN","3TKXBROM5TWR181JXBYSOI8FGFVJIU","","151","img/food5.png","75","154","2","1","false","2","2","1,0.5,0,1,0.5,0,0.5,0,1","0,1,0.5,0,1,0.5,1,0.5,0","3",""
"","html-keyboard-response","6","27519","0.0-7.0","3RWE2M8QWIWEZN9IZL6G04LOBKV0NF","ANOPPPGFNTUPN","3TKXBROM5TWR181JXBYSOI8FGFVJIU","","null","<img src=""img/food5.png"" style=""width:200px; border:14px solid green;"">","null","","","","","","","","","",""
"","image-keyboard-response","7","27737","0.0-9.0","3RWE2M8QWIWEZN9IZL6G04LOBKV0NF","ANOPPPGFNTUPN","3TKXBROM5TWR181JXBYSOI8FGFVJIU","","216","img/food6.png","75","218","2","0","false","3","2","1,0.5,0,1,0.5,0,0.5,0,1","0,1,0.5,0,1,0.5,1,0.5,0","3",""
"","html-keyboard-response","8","28039","0.0-10.0","3RWE2M8QWIWEZN9IZL6G04LOBKV0NF","ANOPPPGFNTUPN","3TKXBROM5TWR181JXBYSOI8FGFVJIU","","null","<img src=""img/food6.png"" style=""width:200px;border:14px solid red;"">","null","","","","","","","","","",""
"","image-keyboard-response","9","28281","0.0-12.0","3RWE2M8QWIWEZN9IZL6G04LOBKV0NF","ANOPPPGFNTUPN","3TKXBROM5TWR181JXBYSOI8FGFVJIU","","237","img/food5.png","75","240","2","1","false","2","2","1,0.5,0,1,0.5,0,0.5,0,1","0,1,0.5,0,1,0.5,1,0.5,0","3",""
"","html-keyboard-response","10","28582","0.0-13.0","3RWE2M8QWIWEZN9IZL6G04LOBKV0NF","ANOPPPGFNTUPN","3TKXBROM5TWR181JXBYSOI8FGFVJIU","","null","<img src=""img/food5.png"" style=""width:200px; border:14px solid green;"">","null","","","","","","","","","",""
"","image-keyboard-response","11","28691","0.0-15.0","3RWE2M8QWIWEZN9IZL6G04LOBKV0NF","ANOPPPGFNTUPN","3TKXBROM5TWR181JXBYSOI8FGFVJIU","","104","img/food6.png","76","107","3","0","false","3","2","1,0.5,0,1,0.5,0,0.5,0,1","0,1,0.5,0,1,0.5,1,0.5,0","3",""
"","html-keyboard-response","12","28993","0.0-16.0","3RWE2M8QWIWEZN9IZL6G04LOBKV0NF","ANOPPPGFNTUPN","3TKXBROM5TWR181JXBYSOI8FGFVJIU","","null","<img src=""img/food6.png"" style=""width:200px;border:14px solid red;"">","null","","","","","","","","","",""
"","image-keyboard-response","13","29281","0.0-18.0","3RWE2M8QWIWEZN9IZL6G04LOBKV0NF","ANOPPPGFNTUPN","3TKXBROM5TWR181JXBYSOI8FGFVJIU","","285","img/food6.png","75","287","2","0","false","3","2","1,0.5,0,1,0.5,0,0.5,0,1","0,1,0.5,0,1,0.5,1,0.5,0","3",""
"","html-keyboard-response","14","29583","0.0-19.0","3RWE2M8QWIWEZN9IZL6G04LOBKV0NF","ANOPPPGFNTUPN","3TKXBROM5TWR181JXBYSOI8FGFVJIU","","null","<img src=""img/food6.png"" style=""width:200px;border:14px solid red;"">","null","","","","","","","","","",""
"","image-keyboard-response","15","29697","0.0-21.0","3RWE2M8QWIWEZN9IZL6G04LOBKV0NF","ANOPPPGFNTUPN","3TKXBROM5TWR181JXBYSOI8FGFVJIU","","110","img/food5.png","74","112","1","0","false","2","2","1,0.5,0,1,0.5,0,0.5,0,1","0,1,0.5,0,1,0.5,1,0.5,0","3",""
"","html-keyboard-response","16","30012","0.0-22.0","3RWE2M8QWIWEZN9IZL6G04LOBKV0NF","ANOPPPGFNTUPN","3TKXBROM5TWR181JXBYSOI8FGFVJIU","","null","<img src=""img/food5.png"" style=""width:200px;border:14px solid red;"">","null","","","","","","","","","",""
"","image-keyboard-response","17","30214","0.0-24.0","3RWE2M8QWIWEZN9IZL6G04LOBKV0NF","ANOPPPGFNTUPN","3TKXBROM5TWR181JXBYSOI8FGFVJIU","","201","img/food6.png","74","202","1","1","false","3","2","1,0.5,0,1,0.5,0,0.5,0,1","0,1,0.5,0,1,0.5,1,0.5,0","3",""
"","html-keyboard-response","18","30517","0.0-25.0","3RWE2M8QWIWEZN9IZL6G04LOBKV0NF","ANOPPPGFNTUPN","3TKXBROM5TWR181JXBYSOI8FGFVJIU","","null","<img src=""img/food6.png"" style=""width:200px; border:14px solid green;"">","null","","","","","","","","","",""
"","image-keyboard-response","19","30591","0.0-27.0","3RWE2M8QWIWEZN9IZL6G04LOBKV0NF","ANOPPPGFNTUPN","3TKXBROM5TWR181JXBYSOI8FGFVJIU","","69","img/food6.png","75","73","2","1","false","3","2","1,0.5,0,1,0.5,0,0.5,0,1","0,1,0.5,0,1,0.5,1,0.5,0","3",""
"","html-keyboard-response","20","30892","0.0-28.0","3RWE2M8QWIWEZN9IZL6G04LOBKV0NF","ANOPPPGFNTUPN","3TKXBROM5TWR181JXBYSOI8FGFVJIU","","null","<img src=""img/food6.png"" style=""width:200px; border:14px solid green;"">","null","","","","","","","","","",""
"","image-keyboard-response","21","31082","0.0-30.0","3RWE2M8QWIWEZN9IZL6G04LOBKV0NF","ANOPPPGFNTUPN","3TKXBROM5TWR181JXBYSOI8FGFVJIU","","187","img/food5.png","75","189","2","1","false","2","2","1,0.5,0,1,0.5,0,0.5,0,1","0,1,0.5,0,1,0.5,1,0.5,0","3",""
"","html-keyboard-response","22","31384","0.0-31.0","3RWE2M8QWIWEZN9IZL6G04LOBKV0NF","ANOPPPGFNTUPN","3TKXBROM5TWR181JXBYSOI8FGFVJIU","","null","<img src=""img/food5.png"" style=""width:200px; border:14px solid green;"">","null","","","","","","","","","",""
"","image-keyboard-response","23","31488","0.0-33.0","3RWE2M8QWIWEZN9IZL6G04LOBKV0NF","ANOPPPGFNTUPN","3TKXBROM5TWR181JXBYSOI8FGFVJIU","","102","img/food6.png","75","103","2","0","false","3","2","1,0.5,0,1,0.5,0,0.5,0,1","0,1,0.5,0,1,0.5,1,0.5,0","3",""
"","html-keyboard-response","24","31793","0.0-34.0","3RWE2M8QWIWEZN9IZL6G04LOBKV0NF","ANOPPPGFNTUPN","3TKXBROM5TWR181JXBYSOI8FGFVJIU","","null","<img src=""img/food6.png"" style=""width:200px;border:14px solid red;"">","null","","","","","","","","","",""
"","image-keyboard-response","25","31952","0.0-36.0","3RWE2M8QWIWEZN9IZL6G04LOBKV0NF","ANOPPPGFNTUPN","3TKXBROM5TWR181JXBYSOI8FGFVJIU","","158","img/food6.png","75","158","2","1","false","3","2","1,0.5,0,1,0.5,0,0.5,0,1","0,1,0.5,0,1,0.5,1,0.5,0","3",""
"","html-keyboard-response","26","32253","0.0-37.0","3RWE2M8QWIWEZN9IZL6G04LOBKV0NF","ANOPPPGFNTUPN","3TKXBROM5TWR181JXBYSOI8FGFVJIU","","null","<img src=""img/food6.png"" style=""width:200px; border:14px solid green;"">","null","","","","","","","","","",""
"","image-keyboard-response","27","32288","0.0-39.0","3RWE2M8QWIWEZN9IZL6G04LOBKV0NF","ANOPPPGFNTUPN","3TKXBROM5TWR181JXBYSOI8FGFVJIU","","31","img/food6.png","74","33","1","1","false","3","2","1,0.5,0,1,0.5,0,0.5,0,1","0,1,0.5,0,1,0.5,1,0.5,0","3",""
"","html-keyboard-response","28","32590","0.0-40.0","3RWE2M8QWIWEZN9IZL6G04LOBKV0NF","ANOPPPGFNTUPN","3TKXBROM5TWR181JXBYSOI8FGFVJIU","","null","<img src=""img/food6.png"" style=""width:200px; border:14px solid green;"">","null","","","","","","","","","",""
"","image-keyboard-response","29","32912","0.0-42.0","3RWE2M8QWIWEZN9IZL6G04LOBKV0NF","ANOPPPGFNTUPN","3TKXBROM5TWR181JXBYSOI8FGFVJIU","","321","img/food5.png","74","321","1","0","false","2","2","1,0.5,0,1,0.5,0,0.5,0,1","0,1,0.5,0,1,0.5,1,0.5,0","3",""
"","html-keyboard-response","30","33213","0.0-43.0","3RWE2M8QWIWEZN9IZL6G04LOBKV0NF","ANOPPPGFNTUPN","3TKXBROM5TWR181JXBYSOI8FGFVJIU","","null","<img src=""img/food5.png"" style=""width:200px;border:14px solid red;"">","null","","","","","","","","","",""
"","image-keyboard-response","31","33487","0.0-45.0","3RWE2M8QWIWEZN9IZL6G04LOBKV0NF","ANOPPPGFNTUPN","3TKXBROM5TWR181JXBYSOI8FGFVJIU","","271","img/food5.png","74","273","1","0","false","2","2","1,0.5,0,1,0.5,0,0.5,0,1","0,1,0.5,0,1,0.5,1,0.5,0","3",""
"","html-keyboard-response","32","33788","0.0-46.0","3RWE2M8QWIWEZN9IZL6G04LOBKV0NF","ANOPPPGFNTUPN","3TKXBROM5TWR181JXBYSOI8FGFVJIU","","null","<img src=""img/food5.png"" style=""width:200px;border:14px solid red;"">","null","","","","","","","","","",""
"","image-keyboard-response","33","33848","0.0-48.0","3RWE2M8QWIWEZN9IZL6G04LOBKV0NF","ANOPPPGFNTUPN","3TKXBROM5TWR181JXBYSOI8FGFVJIU","","56","img/food3.png","75","58","2","1","false","1","2","1,0.5,0,1,0.5,0,0.5,0,1","0,1,0.5,0,1,0.5,1,0.5,0","3",""
"","html-keyboard-response","34","34149","0.0-49.0","3RWE2M8QWIWEZN9IZL6G04LOBKV0NF","ANOPPPGFNTUPN","3TKXBROM5TWR181JXBYSOI8FGFVJIU","","null","<img src=""img/food3.png"" style=""width:200px; border:14px solid green;"">","null","","","","","","","","","",""
"","image-keyboard-response","35","34362","0.0-51.0","3RWE2M8QWIWEZN9IZL6G04LOBKV0NF","ANOPPPGFNTUPN","3TKXBROM5TWR181JXBYSOI8FGFVJIU","","210","img/food3.png","76","212","3","0","false","1","2","1,0.5,0,1,0.5,0,0.5,0,1","0,1,0.5,0,1,0.5,1,0.5,0","3",""
"","html-keyboard-response","36","34706","0.0-52.0","3RWE2M8QWIWEZN9IZL6G04LOBKV0NF","ANOPPPGFNTUPN","3TKXBROM5TWR181JXBYSOI8FGFVJIU","","null","<img src=""img/food3.png"" style=""width:200px;border:14px solid red;"">","null","","","","","","","","","",""
"","image-keyboard-response","37","34780","0.0-54.0","3RWE2M8QWIWEZN9IZL6G04LOBKV0NF","ANOPPPGFNTUPN","3TKXBROM5TWR181JXBYSOI8FGFVJIU","","73","img/food3.png","75","74","2","1","false","1","2","1,0.5,0,1,0.5,0,0.5,0,1","0,1,0.5,0,1,0.5,1,0.5,0","3",""
"","html-keyboard-response","38","35082","0.0-55.0","3RWE2M8QWIWEZN9IZL6G04LOBKV0NF","ANOPPPGFNTUPN","3TKXBROM5TWR181JXBYSOI8FGFVJIU","","null","<img src=""img/food3.png"" style=""width:200px; border:14px solid green;"">","null","","","","","","","","","",""
"","image-keyboard-response","39","35185","0.0-57.0","3RWE2M8QWIWEZN9IZL6G04LOBKV0NF","ANOPPPGFNTUPN","3TKXBROM5TWR181JXBYSOI8FGFVJIU","","100","img/food5.png","75","102","2","1","false","2","2","1,0.5,0,1,0.5,0,0.5,0,1","0,1,0.5,0,1,0.5,1,0.5,0","3",""
"","html-keyboard-response","40","35487","0.0-58.0","3RWE2M8QWIWEZN9IZL6G04LOBKV0NF","ANOPPPGFNTUPN","3TKXBROM5TWR181JXBYSOI8FGFVJIU","","null","<img src=""img/food5.png"" style=""width:200px; border:14px solid green;"">","null","","","","","","","","","",""
"","image-keyboard-response","41","35769","0.0-60.0","3RWE2M8QWIWEZN9IZL6G04LOBKV0NF","ANOPPPGFNTUPN","3TKXBROM5TWR181JXBYSOI8FGFVJIU","","280","img/food6.png","75","281","2","0","false","3","2","1,0.5,0,1,0.5,0,0.5,0,1","0,1,0.5,0,1,0.5,1,0.5,0","3",""
"","html-keyboard-response","42","36071","0.0-61.0","3RWE2M8QWIWEZN9IZL6G04LOBKV0NF","ANOPPPGFNTUPN","3TKXBROM5TWR181JXBYSOI8FGFVJIU","","null","<img src=""img/food6.png"" style=""width:200px;border:14px solid red;"">","null","","","","","","","","","",""
"","image-keyboard-response","43","36106","0.0-63.0","3RWE2M8QWIWEZN9IZL6G04LOBKV0NF","ANOPPPGFNTUPN","3TKXBROM5TWR181JXBYSOI8FGFVJIU","","32","img/food6.png","75","34","2","0","false","3","2","1,0.5,0,1,0.5,0,0.5,0,1","0,1,0.5,0,1,0.5,1,0.5,0","3",""
"","html-keyboard-response","44","36467","0.0-64.0","3RWE2M8QWIWEZN9IZL6G04LOBKV0NF","ANOPPPGFNTUPN","3TKXBROM5TWR181JXBYSOI8FGFVJIU","","null","<img src=""img/food6.png"" style=""width:200px;border:14px solid red;"">","null","","","","","","","","","",""
"","image-keyboard-response","45","36561","0.0-66.0","3RWE2M8QWIWEZN9IZL6G04LOBKV0NF","ANOPPPGFNTUPN","3TKXBROM5TWR181JXBYSOI8FGFVJIU","","93","img/food5.png","75","93","2","1","false","2","2","1,0.5,0,1,0.5,0,0.5,0,1","0,1,0.5,0,1,0.5,1,0.5,0","3",""
"","html-keyboard-response","46","36862","0.0-67.0","3RWE2M8QWIWEZN9IZL6G04LOBKV0NF","ANOPPPGFNTUPN","3TKXBROM5TWR181JXBYSOI8FGFVJIU","","null","<img src=""img/food5.png"" style=""width:200px; border:14px solid green;"">","null","","","","","","","","","",""
"","image-keyboard-response","47","37058","0.0-69.0","3RWE2M8QWIWEZN9IZL6G04LOBKV0NF","ANOPPPGFNTUPN","3TKXBROM5TWR181JXBYSOI8FGFVJIU","","194","img/food3.png","75","194","2","1","false","1","2","1,0.5,0,1,0.5,0,0.5,0,1","0,1,0.5,0,1,0.5,1,0.5,0","3",""
"","html-keyboard-response","48","37362","0.0-70.0","3RWE2M8QWIWEZN9IZL6G04LOBKV0NF","ANOPPPGFNTUPN","3TKXBROM5TWR181JXBYSOI8FGFVJIU","","null","<img src=""img/food3.png"" style=""width:200px; border:14px solid green;"">","null","","","","","","","","","",""
"","image-keyboard-response","49","37380","0.0-72.0","3RWE2M8QWIWEZN9IZL6G04LOBKV0NF","ANOPPPGFNTUPN","3TKXBROM5TWR181JXBYSOI8FGFVJIU","","16","img/food6.png","74","17","1","1","false","3","2","1,0.5,0,1,0.5,0,0.5,0,1","0,1,0.5,0,1,0.5,1,0.5,0","3",""
"","html-keyboard-response","50","37731","0.0-73.0","3RWE2M8QWIWEZN9IZL6G04LOBKV0NF","ANOPPPGFNTUPN","3TKXBROM5TWR181JXBYSOI8FGFVJIU","","null","<img src=""img/food6.png"" style=""width:200px; border:14px solid green;"">","null","","","","","","","","","",""
"","image-keyboard-response","51","37787","0.0-75.0","3RWE2M8QWIWEZN9IZL6G04LOBKV0NF","ANOPPPGFNTUPN","3TKXBROM5TWR181JXBYSOI8FGFVJIU","","52","img/food5.png","75","54","2","1","false","2","2","1,0.5,0,1,0.5,0,0.5,0,1","0,1,0.5,0,1,0.5,1,0.5,0","3",""
"","html-keyboard-response","52","38089","0.0-76.0","3RWE2M8QWIWEZN9IZL6G04LOBKV0NF","ANOPPPGFNTUPN","3TKXBROM5TWR181JXBYSOI8FGFVJIU","","null","<img src=""img/food5.png"" style=""width:200px; border:14px solid green;"">","null","","","","","","","","","",""
"","image-keyboard-response","53","38178","0.0-78.0","3RWE2M8QWIWEZN9IZL6G04LOBKV0NF","ANOPPPGFNTUPN","3TKXBROM5TWR181JXBYSOI8FGFVJIU","","86","img/food6.png","74","88","1","1","false","3","2","1,0.5,0,1,0.5,0,0.5,0,1","0,1,0.5,0,1,0.5,1,0.5,0","3",""
"","html-keyboard-response","54","38480","0.0-79.0","3RWE2M8QWIWEZN9IZL6G04LOBKV0NF","ANOPPPGFNTUPN","3TKXBROM5TWR181JXBYSOI8FGFVJIU","","null","<img src=""img/food6.png"" style=""width:200px; border:14px solid green;"">","null","","","","","","","","","",""
"","image-keyboard-response","55","38672","0.0-81.0","3RWE2M8QWIWEZN9IZL6G04LOBKV0NF","ANOPPPGFNTUPN","3TKXBROM5TWR181JXBYSOI8FGFVJIU","","189","img/food3.png","74","191","1","0","false","1","2","1,0.5,0,1,0.5,0,0.5,0,1","0,1,0.5,0,1,0.5,1,0.5,0","3",""
"","html-keyboard-response","56","38975","0.0-82.0","3RWE2M8QWIWEZN9IZL6G04LOBKV0NF","ANOPPPGFNTUPN","3TKXBROM5TWR181JXBYSOI8FGFVJIU","","null","<img src=""img/food3.png"" style=""width:200px;border:14px solid red;"">","null","","","","","","","","","",""
"","image-keyboard-response","57","39097","0.0-84.0","3RWE2M8QWIWEZN9IZL6G04LOBKV0NF","ANOPPPGFNTUPN","3TKXBROM5TWR181JXBYSOI8FGFVJIU","","119","img/food5.png","74","121","1","0","false","2","2","1,0.5,0,1,0.5,0,0.5,0,1","0,1,0.5,0,1,0.5,1,0.5,0","3",""
"","html-keyboard-response","58","39483","0.0-85.0","3RWE2M8QWIWEZN9IZL6G04LOBKV0NF","ANOPPPGFNTUPN","3TKXBROM5TWR181JXBYSOI8FGFVJIU","","null","<img src=""img/food5.png"" style=""width:200px;border:14px solid red;"">","null","","","","","","","","","",""
"","image-keyboard-response","59","39683","0.0-87.0","3RWE2M8QWIWEZN9IZL6G04LOBKV0NF","ANOPPPGFNTUPN","3TKXBROM5TWR181JXBYSOI8FGFVJIU","","199","img/food3.png","74","200","1","0","false","1","2","1,0.5,0,1,0.5,0,0.5,0,1","0,1,0.5,0,1,0.5,1,0.5,0","3",""
"","html-keyboard-response","60","39986","0.0-88.0","3RWE2M8QWIWEZN9IZL6G04LOBKV0NF","ANOPPPGFNTUPN","3TKXBROM5TWR181JXBYSOI8FGFVJIU","","null","<img src=""img/food3.png"" style=""width:200px;border:14px solid red;"">","null","","","","","","","","","",""
"","image-keyboard-response","61","39998","0.0-90.0","3RWE2M8QWIWEZN9IZL6G04LOBKV0NF","ANOPPPGFNTUPN","3TKXBROM5TWR181JXBYSOI8FGFVJIU","","8","img/food5.png","74","10","1","0","false","2","2","1,0.5,0,1,0.5,0,0.5,0,1","0,1,0.5,0,1,0.5,1,0.5,0","3",""
"","html-keyboard-response","62","40307","0.0-91.0","3RWE2M8QWIWEZN9IZL6G04LOBKV0NF","ANOPPPGFNTUPN","3TKXBROM5TWR181JXBYSOI8FGFVJIU","","null","<img src=""img/food5.png"" style=""width:200px;border:14px solid red;"">","null","","","","","","","","","",""
"","image-keyboard-response","63","40464","0.0-93.0","3RWE2M8QWIWEZN9IZL6G04LOBKV0NF","ANOPPPGFNTUPN","3TKXBROM5TWR181JXBYSOI8FGFVJIU","","154","img/food6.png","75","156","2","1","false","3","2","1,0.5,0,1,0.5,0,0.5,0,1","0,1,0.5,0,1,0.5,1,0.5,0","3",""
"","html-keyboard-response","64","40766","0.0-94.0","3RWE2M8QWIWEZN9IZL6G04LOBKV0NF","ANOPPPGFNTUPN","3TKXBROM5TWR181JXBYSOI8FGFVJIU","","null","<img src=""img/food6.png"" style=""width:200px; border:14px solid green;"">","null","","","","","","","","","",""
"","image-keyboard-response","65","40929","0.0-96.0","3RWE2M8QWIWEZN9IZL6G04LOBKV0NF","ANOPPPGFNTUPN","3TKXBROM5TWR181JXBYSOI8FGFVJIU","","155","img/food5.png","76","158","3","1","false","2","2","1,0.5,0,1,0.5,0,0.5,0,1","0,1,0.5,0,1,0.5,1,0.5,0","3",""
"","html-keyboard-response","66","41230","0.0-97.0","3RWE2M8QWIWEZN9IZL6G04LOBKV0NF","ANOPPPGFNTUPN","3TKXBROM5TWR181JXBYSOI8FGFVJIU","","null","<img src=""img/food5.png"" style=""width:200px; border:14px solid green;"">","null","","","","","","","","","",""
"","image-keyboard-response","67","41354","0.0-99.0","3RWE2M8QWIWEZN9IZL6G04LOBKV0NF","ANOPPPGFNTUPN","3TKXBROM5TWR181JXBYSOI8FGFVJIU","","121","img/food6.png","75","122","2","1","false","3","2","1,0.5,0,1,0.5,0,0.5,0,1","0,1,0.5,0,1,0.5,1,0.5,0","3",""
"","html-keyboard-response","68","41662","0.0-100.0","3RWE2M8QWIWEZN9IZL6G04LOBKV0NF","ANOPPPGFNTUPN","3TKXBROM5TWR181JXBYSOI8FGFVJIU","","null","<img src=""img/food6.png"" style=""width:200px; border:14px solid green;"">","null","","","","","","","","","",""
"","image-keyboard-response","69","41769","0.0-102.0","3RWE2M8QWIWEZN9IZL6G04LOBKV0NF","ANOPPPGFNTUPN","3TKXBROM5TWR181JXBYSOI8FGFVJIU","","104","img/food5.png","74","106","1","0","false","2","2","1,0.5,0,1,0.5,0,0.5,0,1","0,1,0.5,0,1,0.5,1,0.5,0","3",""
"","html-keyboard-response","70","42070","0.0-103.0","3RWE2M8QWIWEZN9IZL6G04LOBKV0NF","ANOPPPGFNTUPN","3TKXBROM5TWR181JXBYSOI8FGFVJIU","","null","<img src=""img/food5.png"" style=""width:200px;border:14px solid red;"">","null","","","","","","","","","",""
"","image-keyboard-response","71","42137","0.0-105.0","3RWE2M8QWIWEZN9IZL6G04LOBKV0NF","ANOPPPGFNTUPN","3TKXBROM5TWR181JXBYSOI8FGFVJIU","","65","img/food5.png","75","66","2","1","false","2","2","1,0.5,0,1,0.5,0,0.5,0,1","0,1,0.5,0,1,0.5,1,0.5,0","3",""
"","html-keyboard-response","72","42438","0.0-106.0","3RWE2M8QWIWEZN9IZL6G04LOBKV0NF","ANOPPPGFNTUPN","3TKXBROM5TWR181JXBYSOI8FGFVJIU","","null","<img src=""img/food5.png"" style=""width:200px; border:14px solid green;"">","null","","","","","","","","","",""
"","image-keyboard-response","73","42562","0.0-108.0","3RWE2M8QWIWEZN9IZL6G04LOBKV0NF","ANOPPPGFNTUPN","3TKXBROM5TWR181JXBYSOI8FGFVJIU","","119","img/food3.png","76","122","3","1","false","1","2","1,0.5,0,1,0.5,0,0.5,0,1","0,1,0.5,0,1,0.5,1,0.5,0","3",""
"","html-keyboard-response","74","42892","0.0-109.0","3RWE2M8QWIWEZN9IZL6G04LOBKV0NF","ANOPPPGFNTUPN","3TKXBROM5TWR181JXBYSOI8FGFVJIU","","null","<img src=""img/food3.png"" style=""width:200px; border:14px solid green;"">","null","","","","","","","","","",""
"","image-keyboard-response","75","42985","0.0-111.0","3RWE2M8QWIWEZN9IZL6G04LOBKV0NF","ANOPPPGFNTUPN","3TKXBROM5TWR181JXBYSOI8FGFVJIU","","90","img/food6.png","76","92","3","0","false","3","2","1,0.5,0,1,0.5,0,0.5,0,1","0,1,0.5,0,1,0.5,1,0.5,0","3",""
"","html-keyboard-response","76","43289","0.0-112.0","3RWE2M8QWIWEZN9IZL6G04LOBKV0NF","ANOPPPGFNTUPN","3TKXBROM5TWR181JXBYSOI8FGFVJIU","","null","<img src=""img/food6.png"" style=""width:200px;border:14px solid red;"">","null","","","","","","","","","",""
"","image-keyboard-response","77","43480","0.0-114.0","3RWE2M8QWIWEZN9IZL6G04LOBKV0NF","ANOPPPGFNTUPN","3TKXBROM5TWR181JXBYSOI8FGFVJIU","","188","img/food3.png","76","190","3","1","false","1","2","1,0.5,0,1,0.5,0,0.5,0,1","0,1,0.5,0,1,0.5,1,0.5,0","3",""
"","html-keyboard-response","78","43781","0.0-115.0","3RWE2M8QWIWEZN9IZL6G04LOBKV0NF","ANOPPPGFNTUPN","3TKXBROM5TWR181JXBYSOI8FGFVJIU","","null","<img src=""img/food3.png"" style=""width:200px; border:14px solid green;"">","null","","","","","","","","","",""
"","image-keyboard-response","79","43798","0.0-117.0","3RWE2M8QWIWEZN9IZL6G04LOBKV0NF","ANOPPPGFNTUPN","3TKXBROM5TWR181JXBYSOI8FGFVJIU","","13","img/food5.png","75","15","2","1","false","2","2","1,0.5,0,1,0.5,0,0.5,0,1","0,1,0.5,0,1,0.5,1,0.5,0","3",""
"","html-keyboard-response","80","44161","0.0-118.0","3RWE2M8QWIWEZN9IZL6G04LOBKV0NF","ANOPPPGFNTUPN","3TKXBROM5TWR181JXBYSOI8FGFVJIU","","null","<img src=""img/food5.png"" style=""width:200px; border:14px solid green;"">","null","","","","","","","","","",""
"","image-keyboard-response","81","44296","0.0-120.0","3RWE2M8QWIWEZN9IZL6G04LOBKV0NF","ANOPPPGFNTUPN","3TKXBROM5TWR181JXBYSOI8FGFVJIU","","134","img/food6.png","75","134","2","1","false","3","2","1,0.5,0,1,0.5,0,0.5,0,1","0,1,0.5,0,1,0.5,1,0.5,0","3",""
"","html-keyboard-response","82","44598","0.0-121.0","3RWE2M8QWIWEZN9IZL6G04LOBKV0NF","ANOPPPGFNTUPN","3TKXBROM5TWR181JXBYSOI8FGFVJIU","","null","<img src=""img/food6.png"" style=""width:200px; border:14px solid green;"">","null","","","","","","","","","",""
"","image-keyboard-response","83","44873","0.0-123.0","3RWE2M8QWIWEZN9IZL6G04LOBKV0NF","ANOPPPGFNTUPN","3TKXBROM5TWR181JXBYSOI8FGFVJIU","","272","img/food6.png","75","274","2","0","false","3","2","1,0.5,0,1,0.5,0,0.5,0,1","0,1,0.5,0,1,0.5,1,0.5,0","3",""
"","html-keyboard-response","84","45175","0.0-124.0","3RWE2M8QWIWEZN9IZL6G04LOBKV0NF","ANOPPPGFNTUPN","3TKXBROM5TWR181JXBYSOI8FGFVJIU","","null","<img src=""img/food6.png"" style=""width:200px;border:14px solid red;"">","null","","","","","","","","","",""
"","image-keyboard-response","85","45201","0.0-126.0","3RWE2M8QWIWEZN9IZL6G04LOBKV0NF","ANOPPPGFNTUPN","3TKXBROM5TWR181JXBYSOI8FGFVJIU","","24","img/food5.png","75","24","2","1","false","2","2","1,0.5,0,1,0.5,0,0.5,0,1","0,1,0.5,0,1,0.5,1,0.5,0","3",""
"","html-keyboard-response","86","45509","0.0-127.0","3RWE2M8QWIWEZN9IZL6G04LOBKV0NF","ANOPPPGFNTUPN","3TKXBROM5TWR181JXBYSOI8FGFVJIU","","null","<img src=""img/food5.png"" style=""width:200px; border:14px solid green;"">","null","","","","","","","","","",""
"","image-keyboard-response","87","45552","0.0-129.0","3RWE2M8QWIWEZN9IZL6G04LOBKV0NF","ANOPPPGFNTUPN","3TKXBROM5TWR181JXBYSOI8FGFVJIU","","42","img/food3.png","75","44","2","1","false","1","2","1,0.5,0,1,0.5,0,0.5,0,1","0,1,0.5,0,1,0.5,1,0.5,0","3",""
"","html-keyboard-response","88","45895","0.0-130.0","3RWE2M8QWIWEZN9IZL6G04LOBKV0NF","ANOPPPGFNTUPN","3TKXBROM5TWR181JXBYSOI8FGFVJIU","","null","<img src=""img/food3.png"" style=""width:200px; border:14px solid green;"">","null","","","","","","","","","",""
"","image-keyboard-response","89","45917","0.0-132.0","3RWE2M8QWIWEZN9IZL6G04LOBKV0NF","ANOPPPGFNTUPN","3TKXBROM5TWR181JXBYSOI8FGFVJIU","","20","img/food6.png","75","21","2","0","false","3","2","1,0.5,0,1,0.5,0,0.5,0,1","0,1,0.5,0,1,0.5,1,0.5,0","3",""
"","html-keyboard-response","90","46221","0.0-133.0","3RWE2M8QWIWEZN9IZL6G04LOBKV0NF","ANOPPPGFNTUPN","3TKXBROM5TWR181JXBYSOI8FGFVJIU","","null","<img src=""img/food6.png"" style=""width:200px;border:14px solid red;"">","null","","","","","","","","","",""
"","image-keyboard-response","91","46352","0.0-135.0","3RWE2M8QWIWEZN9IZL6G04LOBKV0NF","ANOPPPGFNTUPN","3TKXBROM5TWR181JXBYSOI8FGFVJIU","","128","img/food6.png","75","130","2","1","false","3","2","1,0.5,0,1,0.5,0,0.5,0,1","0,1,0.5,0,1,0.5,1,0.5,0","3",""
"","html-keyboard-response","92","46653","0.0-136.0","3RWE2M8QWIWEZN9IZL6G04LOBKV0NF","ANOPPPGFNTUPN","3TKXBROM5TWR181JXBYSOI8FGFVJIU","","null","<img src=""img/food6.png"" style=""width:200px; border:14px solid green;"">","null","","","","","","","","","",""
"","image-keyboard-response","93","46984","0.0-138.0","3RWE2M8QWIWEZN9IZL6G04LOBKV0NF","ANOPPPGFNTUPN","3TKXBROM5TWR181JXBYSOI8FGFVJIU","","330","img/food3.png","76","330","3","1","false","1","2","1,0.5,0,1,0.5,0,0.5,0,1","0,1,0.5,0,1,0.5,1,0.5,0","3",""
"","html-keyboard-response","94","47286","0.0-139.0","3RWE2M8QWIWEZN9IZL6G04LOBKV0NF","ANOPPPGFNTUPN","3TKXBROM5TWR181JXBYSOI8FGFVJIU","","null","<img src=""img/food3.png"" style=""width:200px; border:14px solid green;"">","null","","","","","","","","","",""
"","image-keyboard-response","95","47288","0.0-141.0","3RWE2M8QWIWEZN9IZL6G04LOBKV0NF","ANOPPPGFNTUPN","3TKXBROM5TWR181JXBYSOI8FGFVJIU","","0","img/food5.png","76","1","3","1","false","2","2","1,0.5,0,1,0.5,0,0.5,0,1","0,1,0.5,0,1,0.5,1,0.5,0","3",""
"","html-keyboard-response","96","47650","0.0-142.0","3RWE2M8QWIWEZN9IZL6G04LOBKV0NF","ANOPPPGFNTUPN","3TKXBROM5TWR181JXBYSOI8FGFVJIU","","null","<img src=""img/food5.png"" style=""width:200px; border:14px solid green;"">","null","","","","","","","","","",""
"","image-keyboard-response","97","47660","0.0-144.0","3RWE2M8QWIWEZN9IZL6G04LOBKV0NF","ANOPPPGFNTUPN","3TKXBROM5TWR181JXBYSOI8FGFVJIU","","8","img/food3.png","76","9","3","0","false","1","2","1,0.5,0,1,0.5,0,0.5,0,1","0,1,0.5,0,1,0.5,1,0.5,0","3",""
"","html-keyboard-response","98","47962","0.0-145.0","3RWE2M8QWIWEZN9IZL6G04LOBKV0NF","ANOPPPGFNTUPN","3TKXBROM5TWR181JXBYSOI8FGFVJIU","","null","<img src=""img/food3.png"" style=""width:200px;border:14px solid red;"">","null","","","","","","","","","",""
"","image-keyboard-response","99","48129","0.0-147.0","3RWE2M8QWIWEZN9IZL6G04LOBKV0NF","ANOPPPGFNTUPN","3TKXBROM5TWR181JXBYSOI8FGFVJIU","","165","img/food3.png","75","166","2","1","false","1","2","1,0.5,0,1,0.5,0,0.5,0,1","0,1,0.5,0,1,0.5,1,0.5,0","3",""
"","html-keyboard-response","100","48432","0.0-148.0","3RWE2M8QWIWEZN9IZL6G04LOBKV0NF","ANOPPPGFNTUPN","3TKXBROM5TWR181JXBYSOI8FGFVJIU","","null","<img src=""img/food3.png"" style=""width:200px; border:14px solid green;"">","null","","","","","","","","","",""
"","image-keyboard-response","101","48641","0.0-150.0","3RWE2M8QWIWEZN9IZL6G04LOBKV0NF","ANOPPPGFNTUPN","3TKXBROM5TWR181JXBYSOI8FGFVJIU","","205","img/food6.png","75","209","2","0","false","3","2","1,0.5,0,1,0.5,0,0.5,0,1","0,1,0.5,0,1,0.5,1,0.5,0","3",""
"","html-keyboard-response","102","48976","0.0-151.0","3RWE2M8QWIWEZN9IZL6G04LOBKV0NF","ANOPPPGFNTUPN","3TKXBROM5TWR181JXBYSOI8FGFVJIU","","null","<img src=""img/food6.png"" style=""width:200px;border:14px solid red;"">","null","","","","","","","","","",""
"","image-keyboard-response","103","48989","0.0-153.0","3RWE2M8QWIWEZN9IZL6G04LOBKV0NF","ANOPPPGFNTUPN","3TKXBROM5TWR181JXBYSOI8FGFVJIU","","11","img/food3.png","75","12","2","1","false","1","2","1,0.5,0,1,0.5,0,0.5,0,1","0,1,0.5,0,1,0.5,1,0.5,0","3",""
"","html-keyboard-response","104","49291","0.0-154.0","3RWE2M8QWIWEZN9IZL6G04LOBKV0NF","ANOPPPGFNTUPN","3TKXBROM5TWR181JXBYSOI8FGFVJIU","","null","<img src=""img/food3.png"" style=""width:200px; border:14px solid green;"">","null","","","","","","","","","",""
"","image-keyboard-response","105","49466","0.0-156.0","3RWE2M8QWIWEZN9IZL6G04LOBKV0NF","ANOPPPGFNTUPN","3TKXBROM5TWR181JXBYSOI8FGFVJIU","","174","img/food5.png","74","174","1","0","false","2","2","1,0.5,0,1,0.5,0,0.5,0,1","0,1,0.5,0,1,0.5,1,0.5,0","3",""
"","html-keyboard-response","106","49769","0.0-157.0","3RWE2M8QWIWEZN9IZL6G04LOBKV0NF","ANOPPPGFNTUPN","3TKXBROM5TWR181JXBYSOI8FGFVJIU","","null","<img src=""img/food5.png"" style=""width:200px;border:14px solid red;"">","null","","","","","","","","","",""
"","image-keyboard-response","107","50016","0.0-159.0","3RWE2M8QWIWEZN9IZL6G04LOBKV0NF","ANOPPPGFNTUPN","3TKXBROM5TWR181JXBYSOI8FGFVJIU","","245","img/food6.png","74","246","1","1","false","3","2","1,0.5,0,1,0.5,0,0.5,0,1","0,1,0.5,0,1,0.5,1,0.5,0","3",""
"","html-keyboard-response","108","50329","0.0-160.0","3RWE2M8QWIWEZN9IZL6G04LOBKV0NF","ANOPPPGFNTUPN","3TKXBROM5TWR181JXBYSOI8FGFVJIU","","null","<img src=""img/food6.png"" style=""width:200px; border:14px solid green;"">","null","","","","","","","","","",""
"","image-keyboard-response","109","50445","0.0-162.0","3RWE2M8QWIWEZN9IZL6G04LOBKV0NF","ANOPPPGFNTUPN","3TKXBROM5TWR181JXBYSOI8FGFVJIU","","112","img/food5.png","75","114","2","1","false","2","2","1,0.5,0,1,0.5,0,0.5,0,1","0,1,0.5,0,1,0.5,1,0.5,0","3",""
"","html-keyboard-response","110","50747","0.0-163.0","3RWE2M8QWIWEZN9IZL6G04LOBKV0NF","ANOPPPGFNTUPN","3TKXBROM5TWR181JXBYSOI8FGFVJIU","","null","<img src=""img/food5.png"" style=""width:200px; border:14px solid green;"">","null","","","","","","","","","",""
"","image-keyboard-response","111","50773","0.0-165.0","3RWE2M8QWIWEZN9IZL6G04LOBKV0NF","ANOPPPGFNTUPN","3TKXBROM5TWR181JXBYSOI8FGFVJIU","","18","img/food3.png","75","19","2","1","false","1","2","1,0.5,0,1,0.5,0,0.5,0,1","0,1,0.5,0,1,0.5,1,0.5,0","3",""
"","html-keyboard-response","112","51075","0.0-166.0","3RWE2M8QWIWEZN9IZL6G04LOBKV0NF","ANOPPPGFNTUPN","3TKXBROM5TWR181JXBYSOI8FGFVJIU","","null","<img src=""img/food3.png"" style=""width:200px; border:14px solid green;"">","null","","","","","","","","","",""
"","image-keyboard-response","113","51249","0.0-168.0","3RWE2M8QWIWEZN9IZL6G04LOBKV0NF","ANOPPPGFNTUPN","3TKXBROM5TWR181JXBYSOI8FGFVJIU","","171","img/food6.png","75","172","2","1","false","3","2","1,0.5,0,1,0.5,0,0.5,0,1","0,1,0.5,0,1,0.5,1,0.5,0","3",""
"","html-keyboard-response","114","51588","0.0-169.0","3RWE2M8QWIWEZN9IZL6G04LOBKV0NF","ANOPPPGFNTUPN","3TKXBROM5TWR181JXBYSOI8FGFVJIU","","null","<img src=""img/food6.png"" style=""width:200px; border:14px solid green;"">","null","","","","","","","","","",""
"","image-keyboard-response","115","51593","0.0-171.0","3RWE2M8QWIWEZN9IZL6G04LOBKV0NF","ANOPPPGFNTUPN","3TKXBROM5TWR181JXBYSOI8FGFVJIU","","4","img/food5.png","75","4","2","1","false","2","2","1,0.5,0,1,0.5,0,0.5,0,1","0,1,0.5,0,1,0.5,1,0.5,0","3",""
"","html-keyboard-response","116","51896","0.0-172.0","3RWE2M8QWIWEZN9IZL6G04LOBKV0NF","ANOPPPGFNTUPN","3TKXBROM5TWR181JXBYSOI8FGFVJIU","","null","<img src=""img/food5.png"" style=""width:200px; border:14px solid green;"">","null","","","","","","","","","",""
"","image-keyboard-response","117","51949","0.0-174.0","3RWE2M8QWIWEZN9IZL6G04LOBKV0NF","ANOPPPGFNTUPN","3TKXBROM5TWR181JXBYSOI8FGFVJIU","","50","img/food3.png","75","52","2","1","false","1","2","1,0.5,0,1,0.5,0,0.5,0,1","0,1,0.5,0,1,0.5,1,0.5,0","3",""
"","html-keyboard-response","118","52253","0.0-175.0","3RWE2M8QWIWEZN9IZL6G04LOBKV0NF","ANOPPPGFNTUPN","3TKXBROM5TWR181JXBYSOI8FGFVJIU","","null","<img src=""img/food3.png"" style=""width:200px; border:14px solid green;"">","null","","","","","","","","","",""
"","image-keyboard-response","119","52417","0.0-177.0","3RWE2M8QWIWEZN9IZL6G04LOBKV0NF","ANOPPPGFNTUPN","3TKXBROM5TWR181JXBYSOI8FGFVJIU","","162","img/food6.png","75","163","2","1","false","3","2","1,0.5,0,1,0.5,0,0.5,0,1","0,1,0.5,0,1,0.5,1,0.5,0","3",""
"","html-keyboard-response","120","52719","0.0-178.0","3RWE2M8QWIWEZN9IZL6G04LOBKV0NF","ANOPPPGFNTUPN","3TKXBROM5TWR181JXBYSOI8FGFVJIU","","null","<img src=""img/food6.png"" style=""width:200px; border:14px solid green;"">","null","","","","","","","","","",""
"","image-keyboard-response","121","52738","0.0-180.0","3RWE2M8QWIWEZN9IZL6G04LOBKV0NF","ANOPPPGFNTUPN","3TKXBROM5TWR181JXBYSOI8FGFVJIU","","17","img/food3.png","75","19","2","1","false","1","2","1,0.5,0,1,0.5,0,0.5,0,1","0,1,0.5,0,1,0.5,1,0.5,0","3",""
"","html-keyboard-response","122","53053","0.0-181.0","3RWE2M8QWIWEZN9IZL6G04LOBKV0NF","ANOPPPGFNTUPN","3TKXBROM5TWR181JXBYSOI8FGFVJIU","","null","<img src=""img/food3.png"" style=""width:200px; border:14px solid green;"">","null","","","","","","","","","",""
"","image-keyboard-response","123","53177","0.0-183.0","3RWE2M8QWIWEZN9IZL6G04LOBKV0NF","ANOPPPGFNTUPN","3TKXBROM5TWR181JXBYSOI8FGFVJIU","","122","img/food5.png","75","123","2","1","false","2","2","1,0.5,0,1,0.5,0,0.5,0,1","0,1,0.5,0,1,0.5,1,0.5,0","3",""
"","html-keyboard-response","124","53478","0.0-184.0","3RWE2M8QWIWEZN9IZL6G04LOBKV0NF","ANOPPPGFNTUPN","3TKXBROM5TWR181JXBYSOI8FGFVJIU","","null","<img src=""img/food5.png"" style=""width:200px; border:14px solid green;"">","null","","","","","","","","","",""
"","image-keyboard-response","125","53552","0.0-186.0","3RWE2M8QWIWEZN9IZL6G04LOBKV0NF","ANOPPPGFNTUPN","3TKXBROM5TWR181JXBYSOI8FGFVJIU","","73","img/food5.png","75","73","2","1","false","2","2","1,0.5,0,1,0.5,0,0.5,0,1","0,1,0.5,0,1,0.5,1,0.5,0","3",""
"","html-keyboard-response","126","53854","0.0-187.0","3RWE2M8QWIWEZN9IZL6G04LOBKV0NF","ANOPPPGFNTUPN","3TKXBROM5TWR181JXBYSOI8FGFVJIU","","null","<img src=""img/food5.png"" style=""width:200px; border:14px solid green;"">","null","","","","","","","","","",""
"","image-keyboard-response","127","54074","0.0-189.0","3RWE2M8QWIWEZN9IZL6G04LOBKV0NF","ANOPPPGFNTUPN","3TKXBROM5TWR181JXBYSOI8FGFVJIU","","215","img/food6.png","75","218","2","0","false","3","2","1,0.5,0,1,0.5,0,0.5,0,1","0,1,0.5,0,1,0.5,1,0.5,0","3",""
"","html-keyboard-response","128","54378","0.0-190.0","3RWE2M8QWIWEZN9IZL6G04LOBKV0NF","ANOPPPGFNTUPN","3TKXBROM5TWR181JXBYSOI8FGFVJIU","","null","<img src=""img/food6.png"" style=""width:200px;border:14px solid red;"">","null","","","","","","","","","",""
"","image-keyboard-response","129","54577","0.0-192.0","3RWE2M8QWIWEZN9IZL6G04LOBKV0NF","ANOPPPGFNTUPN","3TKXBROM5TWR181JXBYSOI8FGFVJIU","","198","img/food3.png","75","199","2","1","false","1","2","1,0.5,0,1,0.5,0,0.5,0,1","0,1,0.5,0,1,0.5,1,0.5,0","3",""
"","html-keyboard-response","130","54879","0.0-193.0","3RWE2M8QWIWEZN9IZL6G04LOBKV0NF","ANOPPPGFNTUPN","3TKXBROM5TWR181JXBYSOI8FGFVJIU","","null","<img src=""img/food3.png"" style=""width:200px; border:14px solid green;"">","null","","","","","","","","","",""
"","image-keyboard-response","131","55033","0.0-195.0","3RWE2M8QWIWEZN9IZL6G04LOBKV0NF","ANOPPPGFNTUPN","3TKXBROM5TWR181JXBYSOI8FGFVJIU","","153","img/food6.png","76","153","3","0","false","3","2","1,0.5,0,1,0.5,0,0.5,0,1","0,1,0.5,0,1,0.5,1,0.5,0","3",""
"","html-keyboard-response","132","55337","0.0-196.0","3RWE2M8QWIWEZN9IZL6G04LOBKV0NF","ANOPPPGFNTUPN","3TKXBROM5TWR181JXBYSOI8FGFVJIU","","null","<img src=""img/food6.png"" style=""width:200px;border:14px solid red;"">","null","","","","","","","","","",""
"","image-keyboard-response","133","55624","0.0-198.0","3RWE2M8QWIWEZN9IZL6G04LOBKV0NF","ANOPPPGFNTUPN","3TKXBROM5TWR181JXBYSOI8FGFVJIU","","284","img/food3.png","76","285","3","1","false","1","2","1,0.5,0,1,0.5,0,0.5,0,1","0,1,0.5,0,1,0.5,1,0.5,0","3",""
"","html-keyboard-response","134","55925","0.0-199.0","3RWE2M8QWIWEZN9IZL6G04LOBKV0NF","ANOPPPGFNTUPN","3TKXBROM5TWR181JXBYSOI8FGFVJIU","","null","<img src=""img/food3.png"" style=""width:200px; border:14px solid green;"">","null","","","","","","","","","",""
"","image-keyboard-response","135","56018","0.0-201.0","3RWE2M8QWIWEZN9IZL6G04LOBKV0NF","ANOPPPGFNTUPN","3TKXBROM5TWR181JXBYSOI8FGFVJIU","","90","img/food3.png","75","91","2","1","false","1","2","1,0.5,0,1,0.5,0,0.5,0,1","0,1,0.5,0,1,0.5,1,0.5,0","3",""
"","html-keyboard-response","136","56321","0.0-202.0","3RWE2M8QWIWEZN9IZL6G04LOBKV0NF","ANOPPPGFNTUPN","3TKXBROM5TWR181JXBYSOI8FGFVJIU","","null","<img src=""img/food3.png"" style=""width:200px; border:14px solid green;"">","null","","","","","","","","","",""
"","image-keyboard-response","137","56380","0.0-204.0","3RWE2M8QWIWEZN9IZL6G04LOBKV0NF","ANOPPPGFNTUPN","3TKXBROM5TWR181JXBYSOI8FGFVJIU","","55","img/food6.png","75","58","2","1","false","3","2","1,0.5,0,1,0.5,0,0.5,0,1","0,1,0.5,0,1,0.5,1,0.5,0","3",""
"","html-keyboard-response","138","56681","0.0-205.0","3RWE2M8QWIWEZN9IZL6G04LOBKV0NF","ANOPPPGFNTUPN","3TKXBROM5TWR181JXBYSOI8FGFVJIU","","null","<img src=""img/food6.png"" style=""width:200px; border:14px solid green;"">","null","","","","","","","","","",""
"","image-keyboard-response","139","56745","0.0-207.0","3RWE2M8QWIWEZN9IZL6G04LOBKV0NF","ANOPPPGFNTUPN","3TKXBROM5TWR181JXBYSOI8FGFVJIU","","61","img/food3.png","75","63","2","1","false","1","2","1,0.5,0,1,0.5,0,0.5,0,1","0,1,0.5,0,1,0.5,1,0.5,0","3",""
"","html-keyboard-response","140","57047","0.0-208.0","3RWE2M8QWIWEZN9IZL6G04LOBKV0NF","ANOPPPGFNTUPN","3TKXBROM5TWR181JXBYSOI8FGFVJIU","","null","<img src=""img/food3.png"" style=""width:200px; border:14px solid green;"">","null","","","","","","","","","",""
"","image-keyboard-response","141","57105","0.0-210.0","3RWE2M8QWIWEZN9IZL6G04LOBKV0NF","ANOPPPGFNTUPN","3TKXBROM5TWR181JXBYSOI8FGFVJIU","","55","img/food3.png","75","57","2","1","false","1","2","1,0.5,0,1,0.5,0,0.5,0,1","0,1,0.5,0,1,0.5,1,0.5,0","3",""
"","html-keyboard-response","142","57407","0.0-211.0","3RWE2M8QWIWEZN9IZL6G04LOBKV0NF","ANOPPPGFNTUPN","3TKXBROM5TWR181JXBYSOI8FGFVJIU","","null","<img src=""img/food3.png"" style=""width:200px; border:14px solid green;"">","null","","","","","","","","","",""
"","image-keyboard-response","143","57583","0.0-213.0","3RWE2M8QWIWEZN9IZL6G04LOBKV0NF","ANOPPPGFNTUPN","3TKXBROM5TWR181JXBYSOI8FGFVJIU","","174","img/food3.png","75","175","2","1","false","1","2","1,0.5,0,1,0.5,0,0.5,0,1","0,1,0.5,0,1,0.5,1,0.5,0","3",""
"","html-keyboard-response","144","57886","0.0-214.0","3RWE2M8QWIWEZN9IZL6G04LOBKV0NF","ANOPPPGFNTUPN","3TKXBROM5TWR181JXBYSOI8FGFVJIU","","null","<img src=""img/food3.png"" style=""width:200px; border:14px solid green;"">","null","","","","","","","","","",""
"","image-keyboard-response","145","57889","0.0-216.0","3RWE2M8QWIWEZN9IZL6G04LOBKV0NF","ANOPPPGFNTUPN","3TKXBROM5TWR181JXBYSOI8FGFVJIU","","0","img/food3.png","75","2","2","1","false","1","2","1,0.5,0,1,0.5,0,0.5,0,1","0,1,0.5,0,1,0.5,1,0.5,0","3",""
"","html-keyboard-response","146","58231","0.0-217.0","3RWE2M8QWIWEZN9IZL6G04LOBKV0NF","ANOPPPGFNTUPN","3TKXBROM5TWR181JXBYSOI8FGFVJIU","","null","<img src=""img/food3.png"" style=""width:200px; border:14px solid green;"">","null","","","","","","","","","",""
"","image-keyboard-response","147","58244","0.0-219.0","3RWE2M8QWIWEZN9IZL6G04LOBKV0NF","ANOPPPGFNTUPN","3TKXBROM5TWR181JXBYSOI8FGFVJIU","","12","img/food6.png","75","12","2","1","false","3","2","1,0.5,0,1,0.5,0,0.5,0,1","0,1,0.5,0,1,0.5,1,0.5,0","3",""
"","html-keyboard-response","148","58546","0.0-220.0","3RWE2M8QWIWEZN9IZL6G04LOBKV0NF","ANOPPPGFNTUPN","3TKXBROM5TWR181JXBYSOI8FGFVJIU","","null","<img src=""img/food6.png"" style=""width:200px; border:14px solid green;"">","null","","","","","","","","","",""
"","image-keyboard-response","149","58618","0.0-222.0","3RWE2M8QWIWEZN9IZL6G04LOBKV0NF","ANOPPPGFNTUPN","3TKXBROM5TWR181JXBYSOI8FGFVJIU","","70","img/food3.png","75","71","2","1","false","1","2","1,0.5,0,1,0.5,0,0.5,0,1","0,1,0.5,0,1,0.5,1,0.5,0","3",""
"","html-keyboard-response","150","58924","0.0-223.0","3RWE2M8QWIWEZN9IZL6G04LOBKV0NF","ANOPPPGFNTUPN","3TKXBROM5TWR181JXBYSOI8FGFVJIU","","null","<img src=""img/food3.png"" style=""width:200px; border:14px solid green;"">","null","","","","","","","","","",""
"","image-keyboard-response","151","59082","0.0-225.0","3RWE2M8QWIWEZN9IZL6G04LOBKV0NF","ANOPPPGFNTUPN","3TKXBROM5TWR181JXBYSOI8FGFVJIU","","157","img/food5.png","75","158","2","1","false","2","2","1,0.5,0,1,0.5,0,0.5,0,1","0,1,0.5,0,1,0.5,1,0.5,0","3",""
"","html-keyboard-response","152","59384","0.0-226.0","3RWE2M8QWIWEZN9IZL6G04LOBKV0NF","ANOPPPGFNTUPN","3TKXBROM5TWR181JXBYSOI8FGFVJIU","","null","<img src=""img/food5.png"" style=""width:200px; border:14px solid green;"">","null","","","","","","","","","",""
"","image-keyboard-response","153","59449","0.0-228.0","3RWE2M8QWIWEZN9IZL6G04LOBKV0NF","ANOPPPGFNTUPN","3TKXBROM5TWR181JXBYSOI8FGFVJIU","","63","img/food5.png","75","64","2","1","false","2","2","1,0.5,0,1,0.5,0,0.5,0,1","0,1,0.5,0,1,0.5,1,0.5,0","3",""
"","html-keyboard-response","154","59766","0.0-229.0","3RWE2M8QWIWEZN9IZL6G04LOBKV0NF","ANOPPPGFNTUPN","3TKXBROM5TWR181JXBYSOI8FGFVJIU","","null","<img src=""img/food5.png"" style=""width:200px; border:14px solid green;"">","null","","","","","","","","","",""
"","image-keyboard-response","155","59801","0.0-231.0","3RWE2M8QWIWEZN9IZL6G04LOBKV0NF","ANOPPPGFNTUPN","3TKXBROM5TWR181JXBYSOI8FGFVJIU","","0","img/food6.png","75","3","2","0","false","3","2","1,0.5,0,1,0.5,0,0.5,0,1","0,1,0.5,0,1,0.5,1,0.5,0","3",""
"","html-keyboard-response","156","60103","0.0-232.0","3RWE2M8QWIWEZN9IZL6G04LOBKV0NF","ANOPPPGFNTUPN","3TKXBROM5TWR181JXBYSOI8FGFVJIU","","null","<img src=""img/food6.png"" style=""width:200px;border:14px solid red;"">","null","","","","","","","","","",""
"","image-keyboard-response","157","60122","0.0-234.0","3RWE2M8QWIWEZN9IZL6G04LOBKV0NF","ANOPPPGFNTUPN","3TKXBROM5TWR181JXBYSOI8FGFVJIU","","16","img/food6.png","75","18","2","0","false","3","2","1,0.5,0,1,0.5,0,0.5,0,1","0,1,0.5,0,1,0.5,1,0.5,0","3",""
"","html-keyboard-response","158","60423","0.0-235.0","3RWE2M8QWIWEZN9IZL6G04LOBKV0NF","ANOPPPGFNTUPN","3TKXBROM5TWR181JXBYSOI8FGFVJIU","","null","<img src=""img/food6.png"" style=""width:200px;border:14px solid red;"">","null","","","","","","","","","",""
"","image-keyboard-response","159","60592","0.0-237.0","3RWE2M8QWIWEZN9IZL6G04LOBKV0NF","ANOPPPGFNTUPN","3TKXBROM5TWR181JXBYSOI8FGFVJIU","","167","img/food3.png","75","168","2","1","false","1","2","1,0.5,0,1,0.5,0,0.5,0,1","0,1,0.5,0,1,0.5,1,0.5,0","3",""
"","html-keyboard-response","160","60915","0.0-238.0","3RWE2M8QWIWEZN9IZL6G04LOBKV0NF","ANOPPPGFNTUPN","3TKXBROM5TWR181JXBYSOI8FGFVJIU","","null","<img src=""img/food3.png"" style=""width:200px; border:14px solid green;"">","null","","","","","","","","","",""
"","image-keyboard-response","161","60943","0.0-240.0","3RWE2M8QWIWEZN9IZL6G04LOBKV0NF","ANOPPPGFNTUPN","3TKXBROM5TWR181JXBYSOI8FGFVJIU","","28","img/food3.png","75","29","2","1","false","1","2","1,0.5,0,1,0.5,0,0.5,0,1","0,1,0.5,0,1,0.5,1,0.5,0","3",""
"","html-keyboard-response","162","61245","0.0-241.0","3RWE2M8QWIWEZN9IZL6G04LOBKV0NF","ANOPPPGFNTUPN","3TKXBROM5TWR181JXBYSOI8FGFVJIU","","null","<img src=""img/food3.png"" style=""width:200px; border:14px solid green;"">","null","","","","","","","","","",""
"","image-keyboard-response","163","61289","0.0-243.0","3RWE2M8QWIWEZN9IZL6G04LOBKV0NF","ANOPPPGFNTUPN","3TKXBROM5TWR181JXBYSOI8FGFVJIU","","41","img/food3.png","75","42","2","1","false","1","2","1,0.5,0,1,0.5,0,0.5,0,1","0,1,0.5,0,1,0.5,1,0.5,0","3",""
"","html-keyboard-response","164","61592","0.0-244.0","3RWE2M8QWIWEZN9IZL6G04LOBKV0NF","ANOPPPGFNTUPN","3TKXBROM5TWR181JXBYSOI8FGFVJIU","","null","<img src=""img/food3.png"" style=""width:200px; border:14px solid green;"">","null","","","","","","","","","",""
"","image-keyboard-response","165","61626","0.0-246.0","3RWE2M8QWIWEZN9IZL6G04LOBKV0NF","ANOPPPGFNTUPN","3TKXBROM5TWR181JXBYSOI8FGFVJIU","","29","img/food6.png","75","31","2","1","false","3","2","1,0.5,0,1,0.5,0,0.5,0,1","0,1,0.5,0,1,0.5,1,0.5,0","3",""
"","html-keyboard-response","166","61928","0.0-247.0","3RWE2M8QWIWEZN9IZL6G04LOBKV0NF","ANOPPPGFNTUPN","3TKXBROM5TWR181JXBYSOI8FGFVJIU","","null","<img src=""img/food6.png"" style=""width:200px; border:14px solid green;"">","null","","","","","","","","","",""
"","image-keyboard-response","167","61974","0.0-249.0","3RWE2M8QWIWEZN9IZL6G04LOBKV0NF","ANOPPPGFNTUPN","3TKXBROM5TWR181JXBYSOI8FGFVJIU","","44","img/food5.png","75","45","2","1","false","2","2","1,0.5,0,1,0.5,0,0.5,0,1","0,1,0.5,0,1,0.5,1,0.5,0","3",""
"","html-keyboard-response","168","62275","0.0-250.0","3RWE2M8QWIWEZN9IZL6G04LOBKV0NF","ANOPPPGFNTUPN","3TKXBROM5TWR181JXBYSOI8FGFVJIU","","null","<img src=""img/food5.png"" style=""width:200px; border:14px solid green;"">","null","","","","","","","","","",""
"","image-keyboard-response","169","62284","0.0-252.0","3RWE2M8QWIWEZN9IZL6G04LOBKV0NF","ANOPPPGFNTUPN","3TKXBROM5TWR181JXBYSOI8FGFVJIU","","7","img/food5.png","75","9","2","1","false","2","2","1,0.5,0,1,0.5,0,0.5,0,1","0,1,0.5,0,1,0.5,1,0.5,0","3",""
"","html-keyboard-response","170","62774","0.0-253.0","3RWE2M8QWIWEZN9IZL6G04LOBKV0NF","ANOPPPGFNTUPN","3TKXBROM5TWR181JXBYSOI8FGFVJIU","","null","<img src=""img/food5.png"" style=""width:200px; border:14px solid green;"">","null","","","","","","","","","",""
"","image-keyboard-response","171","62797","0.0-255.0","3RWE2M8QWIWEZN9IZL6G04LOBKV0NF","ANOPPPGFNTUPN","3TKXBROM5TWR181JXBYSOI8FGFVJIU","","21","img/food5.png","75","22","2","1","false","2","2","1,0.5,0,1,0.5,0,0.5,0,1","0,1,0.5,0,1,0.5,1,0.5,0","3",""
"","html-keyboard-response","172","63099","0.0-256.0","3RWE2M8QWIWEZN9IZL6G04LOBKV0NF","ANOPPPGFNTUPN","3TKXBROM5TWR181JXBYSOI8FGFVJIU","","null","<img src=""img/food5.png"" style=""width:200px; border:14px solid green;"">","null","","","","","","","","","",""
"","image-keyboard-response","173","63130","0.0-258.0","3RWE2M8QWIWEZN9IZL6G04LOBKV0NF","ANOPPPGFNTUPN","3TKXBROM5TWR181JXBYSOI8FGFVJIU","","29","img/food5.png","75","31","2","1","false","2","2","1,0.5,0,1,0.5,0,0.5,0,1","0,1,0.5,0,1,0.5,1,0.5,0","3",""
"","html-keyboard-response","174","63463","0.0-259.0","3RWE2M8QWIWEZN9IZL6G04LOBKV0NF","ANOPPPGFNTUPN","3TKXBROM5TWR181JXBYSOI8FGFVJIU","","null","<img src=""img/food5.png"" style=""width:200px; border:14px solid green;"">","null","","","","","","","","","",""
"","image-keyboard-response","175","63496","0.0-261.0","3RWE2M8QWIWEZN9IZL6G04LOBKV0NF","ANOPPPGFNTUPN","3TKXBROM5TWR181JXBYSOI8FGFVJIU","","31","img/food5.png","75","31","2","1","false","2","2","1,0.5,0,1,0.5,0,0.5,0,1","0,1,0.5,0,1,0.5,1,0.5,0","3",""
"","html-keyboard-response","176","63799","0.0-262.0","3RWE2M8QWIWEZN9IZL6G04LOBKV0NF","ANOPPPGFNTUPN","3TKXBROM5TWR181JXBYSOI8FGFVJIU","","null","<img src=""img/food5.png"" style=""width:200px; border:14px solid green;"">","null","","","","","","","","","",""
"","image-keyboard-response","177","63867","0.0-264.0","3RWE2M8QWIWEZN9IZL6G04LOBKV0NF","ANOPPPGFNTUPN","3TKXBROM5TWR181JXBYSOI8FGFVJIU","","64","img/food3.png","75","66","2","1","false","1","2","1,0.5,0,1,0.5,0,0.5,0,1","0,1,0.5,0,1,0.5,1,0.5,0","3",""
"","html-keyboard-response","178","64168","0.0-265.0","3RWE2M8QWIWEZN9IZL6G04LOBKV0NF","ANOPPPGFNTUPN","3TKXBROM5TWR181JXBYSOI8FGFVJIU","","null","<img src=""img/food3.png"" style=""width:200px; border:14px solid green;"">","null","","","","","","","","","",""
"","image-keyboard-response","179","64276","0.0-267.0","3RWE2M8QWIWEZN9IZL6G04LOBKV0NF","ANOPPPGFNTUPN","3TKXBROM5TWR181JXBYSOI8FGFVJIU","","104","img/food3.png","75","106","2","1","false","1","2","1,0.5,0,1,0.5,0,0.5,0,1","0,1,0.5,0,1,0.5,1,0.5,0","3",""
"","html-keyboard-response","180","64581","0.0-268.0","3RWE2M8QWIWEZN9IZL6G04LOBKV0NF","ANOPPPGFNTUPN","3TKXBROM5TWR181JXBYSOI8FGFVJIU","","null","<img src=""img/food3.png"" style=""width:200px; border:14px solid green;"">","null","","","","","","","","","",""
"","image-keyboard-response","181","64629","0.0-270.0","3RWE2M8QWIWEZN9IZL6G04LOBKV0NF","ANOPPPGFNTUPN","3TKXBROM5TWR181JXBYSOI8FGFVJIU","","43","img/food3.png","75","46","2","1","false","1","2","1,0.5,0,1,0.5,0,0.5,0,1","0,1,0.5,0,1,0.5,1,0.5,0","3",""
"","html-keyboard-response","182","64931","0.0-271.0","3RWE2M8QWIWEZN9IZL6G04LOBKV0NF","ANOPPPGFNTUPN","3TKXBROM5TWR181JXBYSOI8FGFVJIU","","null","<img src=""img/food3.png"" style=""width:200px; border:14px solid green;"">","null","","","","","","","","","",""
"","instructions","183","69968","0.0-273.0","3RWE2M8QWIWEZN9IZL6G04LOBKV0NF","ANOPPPGFNTUPN","3TKXBROM5TWR181JXBYSOI8FGFVJIU","[{""page_index"":0,""viewing_time"":2734},{""page_index"":1,""viewing_time"":2301}]","5036","","","","","","","","","","","",""
"","image-keyboard-response","184","71059","0.0-274.0","3RWE2M8QWIWEZN9IZL6G04LOBKV0NF","ANOPPPGFNTUPN","3TKXBROM5TWR181JXBYSOI8FGFVJIU","","1087","img/food1.png","75","1089","2","1","","3","1","1,0.5,0,1,0.5,0,0.5,0,1","0.5,0,1,0.5,0,1,0,1,0.5","2",""
"","html-keyboard-response","185","71406","0.0-275.0","3RWE2M8QWIWEZN9IZL6G04LOBKV0NF","ANOPPPGFNTUPN","3TKXBROM5TWR181JXBYSOI8FGFVJIU","","null","<img src=""img/food1.png"" style=""width:200px; border:14px solid green;"">","null","","","","","","","","","",""
"","image-keyboard-response","186","71545","0.0-276.0","3RWE2M8QWIWEZN9IZL6G04LOBKV0NF","ANOPPPGFNTUPN","3TKXBROM5TWR181JXBYSOI8FGFVJIU","","134","img/food1.png","75","137","2","1","","3","1","1,0.5,0,1,0.5,0,0.5,0,1","0.5,0,1,0.5,0,1,0,1,0.5","2",""
"","html-keyboard-response","187","71849","0.0-277.0","3RWE2M8QWIWEZN9IZL6G04LOBKV0NF","ANOPPPGFNTUPN","3TKXBROM5TWR181JXBYSOI8FGFVJIU","","null","<img src=""img/food1.png"" style=""width:200px; border:14px solid green;"">","null","","","","","","","","","",""
"","image-keyboard-response","188","71876","0.0-278.0","3RWE2M8QWIWEZN9IZL6G04LOBKV0NF","ANOPPPGFNTUPN","3TKXBROM5TWR181JXBYSOI8FGFVJIU","","25","img/food1.png","75","27","2","1","","3","1","1,0.5,0,1,0.5,0,0.5,0,1","0.5,0,1,0.5,0,1,0,1,0.5","2",""
"","html-keyboard-response","189","72178","0.0-279.0","3RWE2M8QWIWEZN9IZL6G04LOBKV0NF","ANOPPPGFNTUPN","3TKXBROM5TWR181JXBYSOI8FGFVJIU","","null","<img src=""img/food1.png"" style=""width:200px; border:14px solid green;"">","null","","","","","","","","","",""
"","image-keyboard-response","190","72181","0.0-280.0","3RWE2M8QWIWEZN9IZL6G04LOBKV0NF","ANOPPPGFNTUPN","3TKXBROM5TWR181JXBYSOI8FGFVJIU","","0","img/food2.png","75","2","2","0","","1","1","1,0.5,0,1,0.5,0,0.5,0,1","0.5,0,1,0.5,0,1,0,1,0.5","2",""
"","html-keyboard-response","191","72608","0.0-281.0","3RWE2M8QWIWEZN9IZL6G04LOBKV0NF","ANOPPPGFNTUPN","3TKXBROM5TWR181JXBYSOI8FGFVJIU","","null","<img src=""img/food2.png"" style=""width:200px;border:14px solid red;"">","null","","","","","","","","","",""
"","image-keyboard-response","192","72660","0.0-282.0","3RWE2M8QWIWEZN9IZL6G04LOBKV0NF","ANOPPPGFNTUPN","3TKXBROM5TWR181JXBYSOI8FGFVJIU","","51","img/food4.png","75","51","2","0","","2","1","1,0.5,0,1,0.5,0,0.5,0,1","0.5,0,1,0.5,0,1,0,1,0.5","2",""
"","html-keyboard-response","193","72979","0.0-283.0","3RWE2M8QWIWEZN9IZL6G04LOBKV0NF","ANOPPPGFNTUPN","3TKXBROM5TWR181JXBYSOI8FGFVJIU","","null","<img src=""img/food4.png"" style=""width:200px;border:14px solid red;"">","null","","","","","","","","","",""
"","image-keyboard-response","194","73241","0.0-284.0","3RWE2M8QWIWEZN9IZL6G04LOBKV0NF","ANOPPPGFNTUPN","3TKXBROM5TWR181JXBYSOI8FGFVJIU","","260","img/food1.png","75","262","2","1","","3","1","1,0.5,0,1,0.5,0,0.5,0,1","0.5,0,1,0.5,0,1,0,1,0.5","2",""
"","html-keyboard-response","195","73545","0.0-285.0","3RWE2M8QWIWEZN9IZL6G04LOBKV0NF","ANOPPPGFNTUPN","3TKXBROM5TWR181JXBYSOI8FGFVJIU","","null","<img src=""img/food1.png"" style=""width:200px; border:14px solid green;"">","null","","","","","","","","","",""
"","image-keyboard-response","196","73675","0.0-286.0","3RWE2M8QWIWEZN9IZL6G04LOBKV0NF","ANOPPPGFNTUPN","3TKXBROM5TWR181JXBYSOI8FGFVJIU","","128","img/food1.png","75","129","2","1","","3","1","1,0.5,0,1,0.5,0,0.5,0,1","0.5,0,1,0.5,0,1,0,1,0.5","2",""
"","html-keyboard-response","197","74014","0.0-287.0","3RWE2M8QWIWEZN9IZL6G04LOBKV0NF","ANOPPPGFNTUPN","3TKXBROM5TWR181JXBYSOI8FGFVJIU","","null","<img src=""img/food1.png"" style=""width:200px; border:14px solid green;"">","null","","","","","","","","","",""
"","image-keyboard-response","198","74027","0.0-288.0","3RWE2M8QWIWEZN9IZL6G04LOBKV0NF","ANOPPPGFNTUPN","3TKXBROM5TWR181JXBYSOI8FGFVJIU","","12","img/food4.png","75","12","2","0","","2","1","1,0.5,0,1,0.5,0,0.5,0,1","0.5,0,1,0.5,0,1,0,1,0.5","2",""
"","html-keyboard-response","199","74328","0.0-289.0","3RWE2M8QWIWEZN9IZL6G04LOBKV0NF","ANOPPPGFNTUPN","3TKXBROM5TWR181JXBYSOI8FGFVJIU","","null","<img src=""img/food4.png"" style=""width:200px;border:14px solid red;"">","null","","","","","","","","","",""
"","image-keyboard-response","200","74345","0.0-290.0","3RWE2M8QWIWEZN9IZL6G04LOBKV0NF","ANOPPPGFNTUPN","3TKXBROM5TWR181JXBYSOI8FGFVJIU","","16","img/food2.png","75","18","2","0","","1","1","1,0.5,0,1,0.5,0,0.5,0,1","0.5,0,1,0.5,0,1,0,1,0.5","2",""
"","html-keyboard-response","201","74648","0.0-291.0","3RWE2M8QWIWEZN9IZL6G04LOBKV0NF","ANOPPPGFNTUPN","3TKXBROM5TWR181JXBYSOI8FGFVJIU","","null","<img src=""img/food2.png"" style=""width:200px;border:14px solid red;"">","null","","","","","","","","","",""
"","image-keyboard-response","202","74698","0.0-292.0","3RWE2M8QWIWEZN9IZL6G04LOBKV0NF","ANOPPPGFNTUPN","3TKXBROM5TWR181JXBYSOI8FGFVJIU","","49","img/food1.png","75","51","2","1","","3","1","1,0.5,0,1,0.5,0,0.5,0,1","0.5,0,1,0.5,0,1,0,1,0.5","2",""
"","html-keyboard-response","203","75002","0.0-293.0","3RWE2M8QWIWEZN9IZL6G04LOBKV0NF","ANOPPPGFNTUPN","3TKXBROM5TWR181JXBYSOI8FGFVJIU","","null","<img src=""img/food1.png"" style=""width:200px; border:14px solid green;"">","null","","","","","","","","","",""
"","image-keyboard-response","204","75105","0.0-294.0","3RWE2M8QWIWEZN9IZL6G04LOBKV0NF","ANOPPPGFNTUPN","3TKXBROM5TWR181JXBYSOI8FGFVJIU","","101","img/food2.png","75","103","2","0","","1","1","1,0.5,0,1,0.5,0,0.5,0,1","0.5,0,1,0.5,0,1,0,1,0.5","2",""
"","html-keyboard-response","205","75452","0.0-295.0","3RWE2M8QWIWEZN9IZL6G04LOBKV0NF","ANOPPPGFNTUPN","3TKXBROM5TWR181JXBYSOI8FGFVJIU","","null","<img src=""img/food2.png"" style=""width:200px;border:14px solid red;"">","null","","","","","","","","","",""
"","image-keyboard-response","206","75636","0.0-296.0","3RWE2M8QWIWEZN9IZL6G04LOBKV0NF","ANOPPPGFNTUPN","3TKXBROM5TWR181JXBYSOI8FGFVJIU","","181","img/food1.png","75","182","2","1","","3","1","1,0.5,0,1,0.5,0,0.5,0,1","0.5,0,1,0.5,0,1,0,1,0.5","2",""
"","html-keyboard-response","207","75937","0.0-297.0","3RWE2M8QWIWEZN9IZL6G04LOBKV0NF","ANOPPPGFNTUPN","3TKXBROM5TWR181JXBYSOI8FGFVJIU","","null","<img src=""img/food1.png"" style=""width:200px; border:14px solid green;"">","null","","","","","","","","","",""
"","image-keyboard-response","208","76115","0.0-298.0","3RWE2M8QWIWEZN9IZL6G04LOBKV0NF","ANOPPPGFNTUPN","3TKXBROM5TWR181JXBYSOI8FGFVJIU","","176","img/food4.png","75","177","2","0","","2","1","1,0.5,0,1,0.5,0,0.5,0,1","0.5,0,1,0.5,0,1,0,1,0.5","2",""
"","html-keyboard-response","209","76419","0.0-299.0","3RWE2M8QWIWEZN9IZL6G04LOBKV0NF","ANOPPPGFNTUPN","3TKXBROM5TWR181JXBYSOI8FGFVJIU","","null","<img src=""img/food4.png"" style=""width:200px;border:14px solid red;"">","null","","","","","","","","","",""
"","image-keyboard-response","210","76489","0.0-300.0","3RWE2M8QWIWEZN9IZL6G04LOBKV0NF","ANOPPPGFNTUPN","3TKXBROM5TWR181JXBYSOI8FGFVJIU","","66","img/food2.png","75","67","2","0","","1","1","1,0.5,0,1,0.5,0,0.5,0,1","0.5,0,1,0.5,0,1,0,1,0.5","2",""
"","html-keyboard-response","211","76791","0.0-301.0","3RWE2M8QWIWEZN9IZL6G04LOBKV0NF","ANOPPPGFNTUPN","3TKXBROM5TWR181JXBYSOI8FGFVJIU","","null","<img src=""img/food2.png"" style=""width:200px;border:14px solid red;"">","null","","","","","","","","","",""
"","image-keyboard-response","212","76889","0.0-302.0","3RWE2M8QWIWEZN9IZL6G04LOBKV0NF","ANOPPPGFNTUPN","3TKXBROM5TWR181JXBYSOI8FGFVJIU","","96","img/food2.png","75","98","2","0","","1","1","1,0.5,0,1,0.5,0,0.5,0,1","0.5,0,1,0.5,0,1,0,1,0.5","2",""
"","html-keyboard-response","213","77193","0.0-303.0","3RWE2M8QWIWEZN9IZL6G04LOBKV0NF","ANOPPPGFNTUPN","3TKXBROM5TWR181JXBYSOI8FGFVJIU","","null","<img src=""img/food2.png"" style=""width:200px;border:14px solid red;"">","null","","","","","","","","","",""
"","image-keyboard-response","214","77452","0.0-304.0","3RWE2M8QWIWEZN9IZL6G04LOBKV0NF","ANOPPPGFNTUPN","3TKXBROM5TWR181JXBYSOI8FGFVJIU","","258","img/food4.png","75","259","2","0","","2","1","1,0.5,0,1,0.5,0,0.5,0,1","0.5,0,1,0.5,0,1,0,1,0.5","2",""
"","html-keyboard-response","215","77754","0.0-305.0","3RWE2M8QWIWEZN9IZL6G04LOBKV0NF","ANOPPPGFNTUPN","3TKXBROM5TWR181JXBYSOI8FGFVJIU","","null","<img src=""img/food4.png"" style=""width:200px;border:14px solid red;"">","null","","","","","","","","","",""
"","image-keyboard-response","216","77985","0.0-306.0","3RWE2M8QWIWEZN9IZL6G04LOBKV0NF","ANOPPPGFNTUPN","3TKXBROM5TWR181JXBYSOI8FGFVJIU","","230","img/food1.png","75","230","2","1","","3","1","1,0.5,0,1,0.5,0,0.5,0,1","0.5,0,1,0.5,0,1,0,1,0.5","2",""
"","html-keyboard-response","217","78287","0.0-307.0","3RWE2M8QWIWEZN9IZL6G04LOBKV0NF","ANOPPPGFNTUPN","3TKXBROM5TWR181JXBYSOI8FGFVJIU","","null","<img src=""img/food1.png"" style=""width:200px; border:14px solid green;"">","null","","","","","","","","","",""
"","image-keyboard-response","218","78304","0.0-308.0","3RWE2M8QWIWEZN9IZL6G04LOBKV0NF","ANOPPPGFNTUPN","3TKXBROM5TWR181JXBYSOI8FGFVJIU","","13","img/food4.png","74","16","1","0","","2","1","1,0.5,0,1,0.5,0,0.5,0,1","0.5,0,1,0.5,0,1,0,1,0.5","2",""
"","html-keyboard-response","219","78608","0.0-309.0","3RWE2M8QWIWEZN9IZL6G04LOBKV0NF","ANOPPPGFNTUPN","3TKXBROM5TWR181JXBYSOI8FGFVJIU","","null","<img src=""img/food4.png"" style=""width:200px;border:14px solid red;"">","null","","","","","","","","","",""
"","image-keyboard-response","220","78738","0.0-310.0","3RWE2M8QWIWEZN9IZL6G04LOBKV0NF","ANOPPPGFNTUPN","3TKXBROM5TWR181JXBYSOI8FGFVJIU","","127","img/food4.png","75","130","2","0","","2","1","1,0.5,0,1,0.5,0,0.5,0,1","0.5,0,1,0.5,0,1,0,1,0.5","2",""
"","html-keyboard-response","221","79040","0.0-311.0","3RWE2M8QWIWEZN9IZL6G04LOBKV0NF","ANOPPPGFNTUPN","3TKXBROM5TWR181JXBYSOI8FGFVJIU","","null","<img src=""img/food4.png"" style=""width:200px;border:14px solid red;"">","null","","","","","","","","","",""
"","image-keyboard-response","222","79313","0.0-312.0","3RWE2M8QWIWEZN9IZL6G04LOBKV0NF","ANOPPPGFNTUPN","3TKXBROM5TWR181JXBYSOI8FGFVJIU","","271","img/food4.png","75","273","2","0","","2","1","1,0.5,0,1,0.5,0,0.5,0,1","0.5,0,1,0.5,0,1,0,1,0.5","2",""
"","html-keyboard-response","223","79616","0.0-313.0","3RWE2M8QWIWEZN9IZL6G04LOBKV0NF","ANOPPPGFNTUPN","3TKXBROM5TWR181JXBYSOI8FGFVJIU","","null","<img src=""img/food4.png"" style=""width:200px;border:14px solid red;"">","null","","","","","","","","","",""
"","image-keyboard-response","224","79641","0.0-314.0","3RWE2M8QWIWEZN9IZL6G04LOBKV0NF","ANOPPPGFNTUPN","3TKXBROM5TWR181JXBYSOI8FGFVJIU","","23","img/food2.png","75","25","2","0","","1","1","1,0.5,0,1,0.5,0,0.5,0,1","0.5,0,1,0.5,0,1,0,1,0.5","2",""
"","html-keyboard-response","225","79943","0.0-315.0","3RWE2M8QWIWEZN9IZL6G04LOBKV0NF","ANOPPPGFNTUPN","3TKXBROM5TWR181JXBYSOI8FGFVJIU","","null","<img src=""img/food2.png"" style=""width:200px;border:14px solid red;"">","null","","","","","","","","","",""
"","image-keyboard-response","226","80132","0.0-316.0","3RWE2M8QWIWEZN9IZL6G04LOBKV0NF","ANOPPPGFNTUPN","3TKXBROM5TWR181JXBYSOI8FGFVJIU","","185","img/food4.png","75","188","2","0","","2","1","1,0.5,0,1,0.5,0,0.5,0,1","0.5,0,1,0.5,0,1,0,1,0.5","2",""
"","html-keyboard-response","227","80437","0.0-317.0","3RWE2M8QWIWEZN9IZL6G04LOBKV0NF","ANOPPPGFNTUPN","3TKXBROM5TWR181JXBYSOI8FGFVJIU","","null","<img src=""img/food4.png"" style=""width:200px;border:14px solid red;"">","null","","","","","","","","","",""
"","image-keyboard-response","228","80643","0.0-318.0","3RWE2M8QWIWEZN9IZL6G04LOBKV0NF","ANOPPPGFNTUPN","3TKXBROM5TWR181JXBYSOI8FGFVJIU","","203","img/food2.png","74","206","1","1","","1","1","1,0.5,0,1,0.5,0,0.5,0,1","0.5,0,1,0.5,0,1,0,1,0.5","2",""
"","html-keyboard-response","229","80946","0.0-319.0","3RWE2M8QWIWEZN9IZL6G04LOBKV0NF","ANOPPPGFNTUPN","3TKXBROM5TWR181JXBYSOI8FGFVJIU","","null","<img src=""img/food2.png"" style=""width:200px; border:14px solid green;"">","null","","","","","","","","","",""
"","image-keyboard-response","230","81003","0.0-320.0","3RWE2M8QWIWEZN9IZL6G04LOBKV0NF","ANOPPPGFNTUPN","3TKXBROM5TWR181JXBYSOI8FGFVJIU","","54","img/food1.png","75","56","2","1","","3","1","1,0.5,0,1,0.5,0,0.5,0,1","0.5,0,1,0.5,0,1,0,1,0.5","2",""
"","html-keyboard-response","231","81395","0.0-321.0","3RWE2M8QWIWEZN9IZL6G04LOBKV0NF","ANOPPPGFNTUPN","3TKXBROM5TWR181JXBYSOI8FGFVJIU","","null","<img src=""img/food1.png"" style=""width:200px; border:14px solid green;"">","null","","","","","","","","","",""
"","image-keyboard-response","232","81408","0.0-322.0","3RWE2M8QWIWEZN9IZL6G04LOBKV0NF","ANOPPPGFNTUPN","3TKXBROM5TWR181JXBYSOI8FGFVJIU","","12","img/food1.png","74","13","1","0","","3","1","1,0.5,0,1,0.5,0,0.5,0,1","0.5,0,1,0.5,0,1,0,1,0.5","2",""
"","html-keyboard-response","233","81716","0.0-323.0","3RWE2M8QWIWEZN9IZL6G04LOBKV0NF","ANOPPPGFNTUPN","3TKXBROM5TWR181JXBYSOI8FGFVJIU","","null","<img src=""img/food1.png"" style=""width:200px;border:14px solid red;"">","null","","","","","","","","","",""
"","image-keyboard-response","234","81741","0.0-324.0","3RWE2M8QWIWEZN9IZL6G04LOBKV0NF","ANOPPPGFNTUPN","3TKXBROM5TWR181JXBYSOI8FGFVJIU","","23","img/food4.png","74","25","1","0","","2","1","1,0.5,0,1,0.5,0,0.5,0,1","0.5,0,1,0.5,0,1,0,1,0.5","2",""
"","html-keyboard-response","235","82043","0.0-325.0","3RWE2M8QWIWEZN9IZL6G04LOBKV0NF","ANOPPPGFNTUPN","3TKXBROM5TWR181JXBYSOI8FGFVJIU","","null","<img src=""img/food4.png"" style=""width:200px;border:14px solid red;"">","null","","","","","","","","","",""
"","image-keyboard-response","236","82211","0.0-326.0","3RWE2M8QWIWEZN9IZL6G04LOBKV0NF","ANOPPPGFNTUPN","3TKXBROM5TWR181JXBYSOI8FGFVJIU","","166","img/food4.png","75","167","2","0","","2","1","1,0.5,0,1,0.5,0,0.5,0,1","0.5,0,1,0.5,0,1,0,1,0.5","2",""
"","html-keyboard-response","237","82514","0.0-327.0","3RWE2M8QWIWEZN9IZL6G04LOBKV0NF","ANOPPPGFNTUPN","3TKXBROM5TWR181JXBYSOI8FGFVJIU","","null","<img src=""img/food4.png"" style=""width:200px;border:14px solid red;"">","null","","","","","","","","","",""
"","image-keyboard-response","238","82580","0.0-328.0","3RWE2M8QWIWEZN9IZL6G04LOBKV0NF","ANOPPPGFNTUPN","3TKXBROM5TWR181JXBYSOI8FGFVJIU","","61","img/food2.png","75","62","2","0","","1","1","1,0.5,0,1,0.5,0,0.5,0,1","0.5,0,1,0.5,0,1,0,1,0.5","2",""
"","html-keyboard-response","239","82904","0.0-329.0","3RWE2M8QWIWEZN9IZL6G04LOBKV0NF","ANOPPPGFNTUPN","3TKXBROM5TWR181JXBYSOI8FGFVJIU","","null","<img src=""img/food2.png"" style=""width:200px;border:14px solid red;"">","null","","","","","","","","","",""
"","image-keyboard-response","240","83144","0.0-330.0","3RWE2M8QWIWEZN9IZL6G04LOBKV0NF","ANOPPPGFNTUPN","3TKXBROM5TWR181JXBYSOI8FGFVJIU","","237","img/food4.png","76","237","3","1","","2","1","1,0.5,0,1,0.5,0,0.5,0,1","0.5,0,1,0.5,0,1,0,1,0.5","2",""
"","html-keyboard-response","241","83486","0.0-331.0","3RWE2M8QWIWEZN9IZL6G04LOBKV0NF","ANOPPPGFNTUPN","3TKXBROM5TWR181JXBYSOI8FGFVJIU","","null","<img src=""img/food4.png"" style=""width:200px; border:14px solid green;"">","null","","","","","","","","","",""
"","image-keyboard-response","242","83602","0.0-332.0","3RWE2M8QWIWEZN9IZL6G04LOBKV0NF","ANOPPPGFNTUPN","3TKXBROM5TWR181JXBYSOI8FGFVJIU","","112","img/food2.png","75","113","2","0","","1","1","1,0.5,0,1,0.5,0,0.5,0,1","0.5,0,1,0.5,0,1,0,1,0.5","2",""
"","html-keyboard-response","243","83904","0.0-333.0","3RWE2M8QWIWEZN9IZL6G04LOBKV0NF","ANOPPPGFNTUPN","3TKXBROM5TWR181JXBYSOI8FGFVJIU","","null","<img src=""img/food2.png"" style=""width:200px;border:14px solid red;"">","null","","","","","","","","","",""
"","image-keyboard-response","244","84081","0.0-334.0","3RWE2M8QWIWEZN9IZL6G04LOBKV0NF","ANOPPPGFNTUPN","3TKXBROM5TWR181JXBYSOI8FGFVJIU","","175","img/food4.png","75","177","2","0","","2","1","1,0.5,0,1,0.5,0,0.5,0,1","0.5,0,1,0.5,0,1,0,1,0.5","2",""
"","html-keyboard-response","245","84383","0.0-335.0","3RWE2M8QWIWEZN9IZL6G04LOBKV0NF","ANOPPPGFNTUPN","3TKXBROM5TWR181JXBYSOI8FGFVJIU","","null","<img src=""img/food4.png"" style=""width:200px;border:14px solid red;"">","null","","","","","","","","","",""
"","image-keyboard-response","246","84513","0.0-336.0","3RWE2M8QWIWEZN9IZL6G04LOBKV0NF","ANOPPPGFNTUPN","3TKXBROM5TWR181JXBYSOI8FGFVJIU","","129","img/food4.png","76","129","3","1","","2","1","1,0.5,0,1,0.5,0,0.5,0,1","0.5,0,1,0.5,0,1,0,1,0.5","2",""
"","html-keyboard-response","247","84831","0.0-337.0","3RWE2M8QWIWEZN9IZL6G04LOBKV0NF","ANOPPPGFNTUPN","3TKXBROM5TWR181JXBYSOI8FGFVJIU","","null","<img src=""img/food4.png"" style=""width:200px; border:14px solid green;"">","null","","","","","","","","","",""
"","image-keyboard-response","248","84891","0.0-338.0","3RWE2M8QWIWEZN9IZL6G04LOBKV0NF","ANOPPPGFNTUPN","3TKXBROM5TWR181JXBYSOI8FGFVJIU","","55","img/food4.png","75","57","2","0","","2","1","1,0.5,0,1,0.5,0,0.5,0,1","0.5,0,1,0.5,0,1,0,1,0.5","2",""
"","html-keyboard-response","249","85192","0.0-339.0","3RWE2M8QWIWEZN9IZL6G04LOBKV0NF","ANOPPPGFNTUPN","3TKXBROM5TWR181JXBYSOI8FGFVJIU","","null","<img src=""img/food4.png"" style=""width:200px;border:14px solid red;"">","null","","","","","","","","","",""
"","image-keyboard-response","250","85417","0.0-340.0","3RWE2M8QWIWEZN9IZL6G04LOBKV0NF","ANOPPPGFNTUPN","3TKXBROM5TWR181JXBYSOI8FGFVJIU","","222","img/food4.png","75","224","2","0","","2","1","1,0.5,0,1,0.5,0,0.5,0,1","0.5,0,1,0.5,0,1,0,1,0.5","2",""
"","html-keyboard-response","251","85719","0.0-341.0","3RWE2M8QWIWEZN9IZL6G04LOBKV0NF","ANOPPPGFNTUPN","3TKXBROM5TWR181JXBYSOI8FGFVJIU","","null","<img src=""img/food4.png"" style=""width:200px;border:14px solid red;"">","null","","","","","","","","","",""
"","image-keyboard-response","252","85761","0.0-342.0","3RWE2M8QWIWEZN9IZL6G04LOBKV0NF","ANOPPPGFNTUPN","3TKXBROM5TWR181JXBYSOI8FGFVJIU","","38","img/food2.png","76","41","3","1","","1","1","1,0.5,0,1,0.5,0,0.5,0,1","0.5,0,1,0.5,0,1,0,1,0.5","2",""
"","html-keyboard-response","253","86063","0.0-343.0","3RWE2M8QWIWEZN9IZL6G04LOBKV0NF","ANOPPPGFNTUPN","3TKXBROM5TWR181JXBYSOI8FGFVJIU","","null","<img src=""img/food2.png"" style=""width:200px; border:14px solid green;"">","null","","","","","","","","","",""
"","image-keyboard-response","254","86170","0.0-344.0","3RWE2M8QWIWEZN9IZL6G04LOBKV0NF","ANOPPPGFNTUPN","3TKXBROM5TWR181JXBYSOI8FGFVJIU","","104","img/food1.png","76","106","3","1","","3","1","1,0.5,0,1,0.5,0,0.5,0,1","0.5,0,1,0.5,0,1,0,1,0.5","2",""
"","html-keyboard-response","255","86589","0.0-345.0","3RWE2M8QWIWEZN9IZL6G04LOBKV0NF","ANOPPPGFNTUPN","3TKXBROM5TWR181JXBYSOI8FGFVJIU","","null","<img src=""img/food1.png"" style=""width:200px; border:14px solid green;"">","null","","","","","","","","","",""
"","image-keyboard-response","256","86660","0.0-346.0","3RWE2M8QWIWEZN9IZL6G04LOBKV0NF","ANOPPPGFNTUPN","3TKXBROM5TWR181JXBYSOI8FGFVJIU","","70","img/food2.png","75","71","2","0","","1","1","1,0.5,0,1,0.5,0,0.5,0,1","0.5,0,1,0.5,0,1,0,1,0.5","2",""
"","html-keyboard-response","257","86962","0.0-347.0","3RWE2M8QWIWEZN9IZL6G04LOBKV0NF","ANOPPPGFNTUPN","3TKXBROM5TWR181JXBYSOI8FGFVJIU","","null","<img src=""img/food2.png"" style=""width:200px;border:14px solid red;"">","null","","","","","","","","","",""
"","image-keyboard-response","258","86978","0.0-348.0","3RWE2M8QWIWEZN9IZL6G04LOBKV0NF","ANOPPPGFNTUPN","3TKXBROM5TWR181JXBYSOI8FGFVJIU","","14","img/food1.png","76","15","3","1","","3","1","1,0.5,0,1,0.5,0,0.5,0,1","0.5,0,1,0.5,0,1,0,1,0.5","2",""
"","html-keyboard-response","259","87283","0.0-349.0","3RWE2M8QWIWEZN9IZL6G04LOBKV0NF","ANOPPPGFNTUPN","3TKXBROM5TWR181JXBYSOI8FGFVJIU","","null","<img src=""img/food1.png"" style=""width:200px; border:14px solid green;"">","null","","","","","","","","","",""
"","image-keyboard-response","260","87500","0.0-350.0","3RWE2M8QWIWEZN9IZL6G04LOBKV0NF","ANOPPPGFNTUPN","3TKXBROM5TWR181JXBYSOI8FGFVJIU","","211","img/food4.png","76","214","3","1","","2","1","1,0.5,0,1,0.5,0,0.5,0,1","0.5,0,1,0.5,0,1,0,1,0.5","2",""
"","html-keyboard-response","261","87939","0.0-351.0","3RWE2M8QWIWEZN9IZL6G04LOBKV0NF","ANOPPPGFNTUPN","3TKXBROM5TWR181JXBYSOI8FGFVJIU","","null","<img src=""img/food4.png"" style=""width:200px; border:14px solid green;"">","null","","","","","","","","","",""
"","image-keyboard-response","262","88062","0.0-352.0","3RWE2M8QWIWEZN9IZL6G04LOBKV0NF","ANOPPPGFNTUPN","3TKXBROM5TWR181JXBYSOI8FGFVJIU","","121","img/food2.png","76","123","3","1","","1","1","1,0.5,0,1,0.5,0,0.5,0,1","0.5,0,1,0.5,0,1,0,1,0.5","2",""
"","html-keyboard-response","263","88364","0.0-353.0","3RWE2M8QWIWEZN9IZL6G04LOBKV0NF","ANOPPPGFNTUPN","3TKXBROM5TWR181JXBYSOI8FGFVJIU","","null","<img src=""img/food2.png"" style=""width:200px; border:14px solid green;"">","null","","","","","","","","","",""
"","image-keyboard-response","264","88537","0.0-354.0","3RWE2M8QWIWEZN9IZL6G04LOBKV0NF","ANOPPPGFNTUPN","3TKXBROM5TWR181JXBYSOI8FGFVJIU","","172","img/food2.png","76","172","3","1","","1","1","1,0.5,0,1,0.5,0,0.5,0,1","0.5,0,1,0.5,0,1,0,1,0.5","2",""
"","html-keyboard-response","265","88840","0.0-355.0","3RWE2M8QWIWEZN9IZL6G04LOBKV0NF","ANOPPPGFNTUPN","3TKXBROM5TWR181JXBYSOI8FGFVJIU","","null","<img src=""img/food2.png"" style=""width:200px; border:14px solid green;"">","null","","","","","","","","","",""
"","image-keyboard-response","266","89012","0.0-356.0","3RWE2M8QWIWEZN9IZL6G04LOBKV0NF","ANOPPPGFNTUPN","3TKXBROM5TWR181JXBYSOI8FGFVJIU","","171","img/food1.png","76","171","3","1","","3","1","1,0.5,0,1,0.5,0,0.5,0,1","0.5,0,1,0.5,0,1,0,1,0.5","2",""
"","html-keyboard-response","267","89314","0.0-357.0","3RWE2M8QWIWEZN9IZL6G04LOBKV0NF","ANOPPPGFNTUPN","3TKXBROM5TWR181JXBYSOI8FGFVJIU","","null","<img src=""img/food1.png"" style=""width:200px; border:14px solid green;"">","null","","","","","","","","","",""
"","image-keyboard-response","268","89329","0.0-358.0","3RWE2M8QWIWEZN9IZL6G04LOBKV0NF","ANOPPPGFNTUPN","3TKXBROM5TWR181JXBYSOI8FGFVJIU","","13","img/food2.png","76","15","3","1","","1","1","1,0.5,0,1,0.5,0,0.5,0,1","0.5,0,1,0.5,0,1,0,1,0.5","2",""
"","html-keyboard-response","269","89654","0.0-359.0","3RWE2M8QWIWEZN9IZL6G04LOBKV0NF","ANOPPPGFNTUPN","3TKXBROM5TWR181JXBYSOI8FGFVJIU","","null","<img src=""img/food2.png"" style=""width:200px; border:14px solid green;"">","null","","","","","","","","","",""
"","image-keyboard-response","270","89991","0.0-360.0","3RWE2M8QWIWEZN9IZL6G04LOBKV0NF","ANOPPPGFNTUPN","3TKXBROM5TWR181JXBYSOI8FGFVJIU","","336","img/food1.png","76","338","3","1","","3","1","1,0.5,0,1,0.5,0,0.5,0,1","0.5,0,1,0.5,0,1,0,1,0.5","2",""
"","html-keyboard-response","271","90294","0.0-361.0","3RWE2M8QWIWEZN9IZL6G04LOBKV0NF","ANOPPPGFNTUPN","3TKXBROM5TWR181JXBYSOI8FGFVJIU","","null","<img src=""img/food1.png"" style=""width:200px; border:14px solid green;"">","null","","","","","","","","","",""
"","image-keyboard-response","272","90532","0.0-362.0","3RWE2M8QWIWEZN9IZL6G04LOBKV0NF","ANOPPPGFNTUPN","3TKXBROM5TWR181JXBYSOI8FGFVJIU","","236","img/food4.png","75","238","2","0","","2","1","1,0.5,0,1,0.5,0,0.5,0,1","0.5,0,1,0.5,0,1,0,1,0.5","2",""
"","html-keyboard-response","273","90835","0.0-363.0","3RWE2M8QWIWEZN9IZL6G04LOBKV0NF","ANOPPPGFNTUPN","3TKXBROM5TWR181JXBYSOI8FGFVJIU","","null","<img src=""img/food4.png"" style=""width:200px;border:14px solid red;"">","null","","","","","","","","","",""
"","image-keyboard-response","274","90926","0.0-364.0","3RWE2M8QWIWEZN9IZL6G04LOBKV0NF","ANOPPPGFNTUPN","3TKXBROM5TWR181JXBYSOI8FGFVJIU","","85","img/food4.png","76","87","3","1","","2","1","1,0.5,0,1,0.5,0,0.5,0,1","0.5,0,1,0.5,0,1,0,1,0.5","2",""
"","html-keyboard-response","275","91229","0.0-365.0","3RWE2M8QWIWEZN9IZL6G04LOBKV0NF","ANOPPPGFNTUPN","3TKXBROM5TWR181JXBYSOI8FGFVJIU","","null","<img src=""img/food4.png"" style=""width:200px; border:14px solid green;"">","null","","","","","","","","","",""
"","image-keyboard-response","276","91572","0.0-366.0","3RWE2M8QWIWEZN9IZL6G04LOBKV0NF","ANOPPPGFNTUPN","3TKXBROM5TWR181JXBYSOI8FGFVJIU","","340","img/food1.png","74","342","1","0","","3","1","1,0.5,0,1,0.5,0,0.5,0,1","0.5,0,1,0.5,0,1,0,1,0.5","2",""
"","html-keyboard-response","277","91874","0.0-367.0","3RWE2M8QWIWEZN9IZL6G04LOBKV0NF","ANOPPPGFNTUPN","3TKXBROM5TWR181JXBYSOI8FGFVJIU","","null","<img src=""img/food1.png"" style=""width:200px;border:14px solid red;"">","null","","","","","","","","","",""
"","image-keyboard-response","278","91886","0.0-368.0","3RWE2M8QWIWEZN9IZL6G04LOBKV0NF","ANOPPPGFNTUPN","3TKXBROM5TWR181JXBYSOI8FGFVJIU","","9","img/food1.png","75","10","2","1","","3","1","1,0.5,0,1,0.5,0,0.5,0,1","0.5,0,1,0.5,0,1,0,1,0.5","2",""
"","html-keyboard-response","279","92188","0.0-369.0","3RWE2M8QWIWEZN9IZL6G04LOBKV0NF","ANOPPPGFNTUPN","3TKXBROM5TWR181JXBYSOI8FGFVJIU","","null","<img src=""img/food1.png"" style=""width:200px; border:14px solid green;"">","null","","","","","","","","","",""
"","image-keyboard-response","280","92564","0.0-370.0","3RWE2M8QWIWEZN9IZL6G04LOBKV0NF","ANOPPPGFNTUPN","3TKXBROM5TWR181JXBYSOI8FGFVJIU","","374","img/food1.png","75","376","2","1","","3","1","1,0.5,0,1,0.5,0,0.5,0,1","0.5,0,1,0.5,0,1,0,1,0.5","2",""
"","html-keyboard-response","281","92867","0.0-371.0","3RWE2M8QWIWEZN9IZL6G04LOBKV0NF","ANOPPPGFNTUPN","3TKXBROM5TWR181JXBYSOI8FGFVJIU","","null","<img src=""img/food1.png"" style=""width:200px; border:14px solid green;"">","null","","","","","","","","","",""
"","image-keyboard-response","282","92921","0.0-372.0","3RWE2M8QWIWEZN9IZL6G04LOBKV0NF","ANOPPPGFNTUPN","3TKXBROM5TWR181JXBYSOI8FGFVJIU","","53","img/food2.png","75","53","2","0","","1","1","1,0.5,0,1,0.5,0,0.5,0,1","0.5,0,1,0.5,0,1,0,1,0.5","2",""
"","html-keyboard-response","283","93223","0.0-373.0","3RWE2M8QWIWEZN9IZL6G04LOBKV0NF","ANOPPPGFNTUPN","3TKXBROM5TWR181JXBYSOI8FGFVJIU","","null","<img src=""img/food2.png"" style=""width:200px;border:14px solid red;"">","null","","","","","","","","","",""
"","image-keyboard-response","284","93472","0.0-374.0","3RWE2M8QWIWEZN9IZL6G04LOBKV0NF","ANOPPPGFNTUPN","3TKXBROM5TWR181JXBYSOI8FGFVJIU","","247","img/food2.png","75","248","2","0","","1","1","1,0.5,0,1,0.5,0,0.5,0,1","0.5,0,1,0.5,0,1,0,1,0.5","2",""
"","html-keyboard-response","285","93773","0.0-375.0","3RWE2M8QWIWEZN9IZL6G04LOBKV0NF","ANOPPPGFNTUPN","3TKXBROM5TWR181JXBYSOI8FGFVJIU","","null","<img src=""img/food2.png"" style=""width:200px;border:14px solid red;"">","null","","","","","","","","","",""
"","image-keyboard-response","286","93852","0.0-376.0","3RWE2M8QWIWEZN9IZL6G04LOBKV0NF","ANOPPPGFNTUPN","3TKXBROM5TWR181JXBYSOI8FGFVJIU","","76","img/food4.png","74","78","1","1","","2","1","1,0.5,0,1,0.5,0,0.5,0,1","0.5,0,1,0.5,0,1,0,1,0.5","2",""
"","html-keyboard-response","287","94154","0.0-377.0","3RWE2M8QWIWEZN9IZL6G04LOBKV0NF","ANOPPPGFNTUPN","3TKXBROM5TWR181JXBYSOI8FGFVJIU","","null","<img src=""img/food4.png"" style=""width:200px; border:14px solid green;"">","null","","","","","","","","","",""
"","image-keyboard-response","288","94306","0.0-378.0","3RWE2M8QWIWEZN9IZL6G04LOBKV0NF","ANOPPPGFNTUPN","3TKXBROM5TWR181JXBYSOI8FGFVJIU","","148","img/food2.png","75","150","2","0","","1","1","1,0.5,0,1,0.5,0,0.5,0,1","0.5,0,1,0.5,0,1,0,1,0.5","2",""
"","html-keyboard-response","289","94671","0.0-379.0","3RWE2M8QWIWEZN9IZL6G04LOBKV0NF","ANOPPPGFNTUPN","3TKXBROM5TWR181JXBYSOI8FGFVJIU","","null","<img src=""img/food2.png"" style=""width:200px;border:14px solid red;"">","null","","","","","","","","","",""
"","image-keyboard-response","290","94702","0.0-380.0","3RWE2M8QWIWEZN9IZL6G04LOBKV0NF","ANOPPPGFNTUPN","3TKXBROM5TWR181JXBYSOI8FGFVJIU","","25","img/food4.png","74","30","1","1","","2","1","1,0.5,0,1,0.5,0,0.5,0,1","0.5,0,1,0.5,0,1,0,1,0.5","2",""
"","html-keyboard-response","291","95006","0.0-381.0","3RWE2M8QWIWEZN9IZL6G04LOBKV0NF","ANOPPPGFNTUPN","3TKXBROM5TWR181JXBYSOI8FGFVJIU","","null","<img src=""img/food4.png"" style=""width:200px; border:14px solid green;"">","null","","","","","","","","","",""
"","image-keyboard-response","292","95024","0.0-382.0","3RWE2M8QWIWEZN9IZL6G04LOBKV0NF","ANOPPPGFNTUPN","3TKXBROM5TWR181JXBYSOI8FGFVJIU","","16","img/food1.png","75","17","2","1","","3","1","1,0.5,0,1,0.5,0,0.5,0,1","0.5,0,1,0.5,0,1,0,1,0.5","2",""
"","html-keyboard-response","293","95325","0.0-383.0","3RWE2M8QWIWEZN9IZL6G04LOBKV0NF","ANOPPPGFNTUPN","3TKXBROM5TWR181JXBYSOI8FGFVJIU","","null","<img src=""img/food1.png"" style=""width:200px; border:14px solid green;"">","null","","","","","","","","","",""
"","image-keyboard-response","294","95490","0.0-384.0","3RWE2M8QWIWEZN9IZL6G04LOBKV0NF","ANOPPPGFNTUPN","3TKXBROM5TWR181JXBYSOI8FGFVJIU","","162","img/food2.png","75","164","2","0","","1","1","1,0.5,0,1,0.5,0,0.5,0,1","0.5,0,1,0.5,0,1,0,1,0.5","2",""
"","html-keyboard-response","295","95795","0.0-385.0","3RWE2M8QWIWEZN9IZL6G04LOBKV0NF","ANOPPPGFNTUPN","3TKXBROM5TWR181JXBYSOI8FGFVJIU","","null","<img src=""img/food2.png"" style=""width:200px;border:14px solid red;"">","null","","","","","","","","","",""
"","image-keyboard-response","296","95904","0.0-386.0","3RWE2M8QWIWEZN9IZL6G04LOBKV0NF","ANOPPPGFNTUPN","3TKXBROM5TWR181JXBYSOI8FGFVJIU","","107","img/food2.png","75","109","2","0","","1","1","1,0.5,0,1,0.5,0,0.5,0,1","0.5,0,1,0.5,0,1,0,1,0.5","2",""
"","html-keyboard-response","297","96246","0.0-387.0","3RWE2M8QWIWEZN9IZL6G04LOBKV0NF","ANOPPPGFNTUPN","3TKXBROM5TWR181JXBYSOI8FGFVJIU","","null","<img src=""img/food2.png"" style=""width:200px;border:14px solid red;"">","null","","","","","","","","","",""
"","image-keyboard-response","298","96278","0.0-388.0","3RWE2M8QWIWEZN9IZL6G04LOBKV0NF","ANOPPPGFNTUPN","3TKXBROM5TWR181JXBYSOI8FGFVJIU","","31","img/food1.png","74","32","1","0","","3","1","1,0.5,0,1,0.5,0,0.5,0,1","0.5,0,1,0.5,0,1,0,1,0.5","2",""
"","html-keyboard-response","299","96581","0.0-389.0","3RWE2M8QWIWEZN9IZL6G04LOBKV0NF","ANOPPPGFNTUPN","3TKXBROM5TWR181JXBYSOI8FGFVJIU","","null","<img src=""img/food1.png"" style=""width:200px;border:14px solid red;"">","null","","","","","","","","","",""
"","image-keyboard-response","300","96721","0.0-390.0","3RWE2M8QWIWEZN9IZL6G04LOBKV0NF","ANOPPPGFNTUPN","3TKXBROM5TWR181JXBYSOI8FGFVJIU","","138","img/food2.png","76","139","3","1","","1","1","1,0.5,0,1,0.5,0,0.5,0,1","0.5,0,1,0.5,0,1,0,1,0.5","2",""
"","html-keyboard-response","301","97024","0.0-391.0","3RWE2M8QWIWEZN9IZL6G04LOBKV0NF","ANOPPPGFNTUPN","3TKXBROM5TWR181JXBYSOI8FGFVJIU","","null","<img src=""img/food2.png"" style=""width:200px; border:14px solid green;"">","null","","","","","","","","","",""
"","image-keyboard-response","302","97139","0.0-392.0","3RWE2M8QWIWEZN9IZL6G04LOBKV0NF","ANOPPPGFNTUPN","3TKXBROM5TWR181JXBYSOI8FGFVJIU","","112","img/food1.png","75","114","2","1","","3","1","1,0.5,0,1,0.5,0,0.5,0,1","0.5,0,1,0.5,0,1,0,1,0.5","2",""
"","html-keyboard-response","303","97441","0.0-393.0","3RWE2M8QWIWEZN9IZL6G04LOBKV0NF","ANOPPPGFNTUPN","3TKXBROM5TWR181JXBYSOI8FGFVJIU","","null","<img src=""img/food1.png"" style=""width:200px; border:14px solid green;"">","null","","","","","","","","","",""
"","image-keyboard-response","304","97545","0.0-394.0","3RWE2M8QWIWEZN9IZL6G04LOBKV0NF","ANOPPPGFNTUPN","3TKXBROM5TWR181JXBYSOI8FGFVJIU","","103","img/food1.png","76","104","3","0","","3","1","1,0.5,0,1,0.5,0,0.5,0,1","0.5,0,1,0.5,0,1,0,1,0.5","2",""
"","html-keyboard-response","305","97845","0.0-395.0","3RWE2M8QWIWEZN9IZL6G04LOBKV0NF","ANOPPPGFNTUPN","3TKXBROM5TWR181JXBYSOI8FGFVJIU","","null","<img src=""img/food1.png"" style=""width:200px;border:14px solid red;"">","null","","","","","","","","","",""
"","image-keyboard-response","306","97960","0.0-396.0","3RWE2M8QWIWEZN9IZL6G04LOBKV0NF","ANOPPPGFNTUPN","3TKXBROM5TWR181JXBYSOI8FGFVJIU","","113","img/food4.png","75","113","2","0","","2","1","1,0.5,0,1,0.5,0,0.5,0,1","0.5,0,1,0.5,0,1,0,1,0.5","2",""
"","html-keyboard-response","307","98261","0.0-397.0","3RWE2M8QWIWEZN9IZL6G04LOBKV0NF","ANOPPPGFNTUPN","3TKXBROM5TWR181JXBYSOI8FGFVJIU","","null","<img src=""img/food4.png"" style=""width:200px;border:14px solid red;"">","null","","","","","","","","","",""
"","image-keyboard-response","308","98371","0.0-398.0","3RWE2M8QWIWEZN9IZL6G04LOBKV0NF","ANOPPPGFNTUPN","3TKXBROM5TWR181JXBYSOI8FGFVJIU","","108","img/food2.png","75","109","2","0","","1","1","1,0.5,0,1,0.5,0,0.5,0,1","0.5,0,1,0.5,0,1,0,1,0.5","2",""
"","html-keyboard-response","309","98673","0.0-399.0","3RWE2M8QWIWEZN9IZL6G04LOBKV0NF","ANOPPPGFNTUPN","3TKXBROM5TWR181JXBYSOI8FGFVJIU","","null","<img src=""img/food2.png"" style=""width:200px;border:14px solid red;"">","null","","","","","","","","","",""
"","image-keyboard-response","310","98724","0.0-400.0","3RWE2M8QWIWEZN9IZL6G04LOBKV0NF","ANOPPPGFNTUPN","3TKXBROM5TWR181JXBYSOI8FGFVJIU","","49","img/food1.png","75","50","2","1","","3","1","1,0.5,0,1,0.5,0,0.5,0,1","0.5,0,1,0.5,0,1,0,1,0.5","2",""
"","html-keyboard-response","311","99026","0.0-401.0","3RWE2M8QWIWEZN9IZL6G04LOBKV0NF","ANOPPPGFNTUPN","3TKXBROM5TWR181JXBYSOI8FGFVJIU","","null","<img src=""img/food1.png"" style=""width:200px; border:14px solid green;"">","null","","","","","","","","","",""
"","image-keyboard-response","312","100548","0.0-402.0","3RWE2M8QWIWEZN9IZL6G04LOBKV0NF","ANOPPPGFNTUPN","3TKXBROM5TWR181JXBYSOI8FGFVJIU","","1520","img/food1.png","75","1522","2","1","","3","1","1,0.5,0,1,0.5,0,0.5,0,1","0.5,0,1,0.5,0,1,0,1,0.5","2",""
"","html-keyboard-response","313","100853","0.0-403.0","3RWE2M8QWIWEZN9IZL6G04LOBKV0NF","ANOPPPGFNTUPN","3TKXBROM5TWR181JXBYSOI8FGFVJIU","","null","<img src=""img/food1.png"" style=""width:200px; border:14px solid green;"">","null","","","","","","","","","",""
"","image-keyboard-response","314","101010","0.0-404.0","3RWE2M8QWIWEZN9IZL6G04LOBKV0NF","ANOPPPGFNTUPN","3TKXBROM5TWR181JXBYSOI8FGFVJIU","","155","img/food4.png","75","156","2","0","","2","1","1,0.5,0,1,0.5,0,0.5,0,1","0.5,0,1,0.5,0,1,0,1,0.5","2",""
"","html-keyboard-response","315","101313","0.0-405.0","3RWE2M8QWIWEZN9IZL6G04LOBKV0NF","ANOPPPGFNTUPN","3TKXBROM5TWR181JXBYSOI8FGFVJIU","","null","<img src=""img/food4.png"" style=""width:200px;border:14px solid red;"">","null","","","","","","","","","",""
"","image-keyboard-response","316","101410","0.0-406.0","3RWE2M8QWIWEZN9IZL6G04LOBKV0NF","ANOPPPGFNTUPN","3TKXBROM5TWR181JXBYSOI8FGFVJIU","","96","img/food1.png","76","97","3","1","","3","1","1,0.5,0,1,0.5,0,0.5,0,1","0.5,0,1,0.5,0,1,0,1,0.5","2",""
"","html-keyboard-response","317","101712","0.0-407.0","3RWE2M8QWIWEZN9IZL6G04LOBKV0NF","ANOPPPGFNTUPN","3TKXBROM5TWR181JXBYSOI8FGFVJIU","","null","<img src=""img/food1.png"" style=""width:200px; border:14px solid green;"">","null","","","","","","","","","",""
"","image-keyboard-response","318","101769","0.0-408.0","3RWE2M8QWIWEZN9IZL6G04LOBKV0NF","ANOPPPGFNTUPN","3TKXBROM5TWR181JXBYSOI8FGFVJIU","","54","img/food2.png","75","56","2","0","","1","1","1,0.5,0,1,0.5,0,0.5,0,1","0.5,0,1,0.5,0,1,0,1,0.5","2",""
"","html-keyboard-response","319","102071","0.0-409.0","3RWE2M8QWIWEZN9IZL6G04LOBKV0NF","ANOPPPGFNTUPN","3TKXBROM5TWR181JXBYSOI8FGFVJIU","","null","<img src=""img/food2.png"" style=""width:200px;border:14px solid red;"">","null","","","","","","","","","",""
"","image-keyboard-response","320","102209","0.0-410.0","3RWE2M8QWIWEZN9IZL6G04LOBKV0NF","ANOPPPGFNTUPN","3TKXBROM5TWR181JXBYSOI8FGFVJIU","","137","img/food1.png","75","138","2","1","","3","1","1,0.5,0,1,0.5,0,0.5,0,1","0.5,0,1,0.5,0,1,0,1,0.5","2",""
"","html-keyboard-response","321","102512","0.0-411.0","3RWE2M8QWIWEZN9IZL6G04LOBKV0NF","ANOPPPGFNTUPN","3TKXBROM5TWR181JXBYSOI8FGFVJIU","","null","<img src=""img/food1.png"" style=""width:200px; border:14px solid green;"">","null","","","","","","","","","",""
"","image-keyboard-response","322","102538","0.0-412.0","3RWE2M8QWIWEZN9IZL6G04LOBKV0NF","ANOPPPGFNTUPN","3TKXBROM5TWR181JXBYSOI8FGFVJIU","","23","img/food1.png","76","25","3","1","","3","1","1,0.5,0,1,0.5,0,0.5,0,1","0.5,0,1,0.5,0,1,0,1,0.5","2",""
"","html-keyboard-response","323","102841","0.0-413.0","3RWE2M8QWIWEZN9IZL6G04LOBKV0NF","ANOPPPGFNTUPN","3TKXBROM5TWR181JXBYSOI8FGFVJIU","","null","<img src=""img/food1.png"" style=""width:200px; border:14px solid green;"">","null","","","","","","","","","",""
"","image-keyboard-response","324","102977","0.0-414.0","3RWE2M8QWIWEZN9IZL6G04LOBKV0NF","ANOPPPGFNTUPN","3TKXBROM5TWR181JXBYSOI8FGFVJIU","","134","img/food4.png","76","135","3","1","","2","1","1,0.5,0,1,0.5,0,0.5,0,1","0.5,0,1,0.5,0,1,0,1,0.5","2",""
"","html-keyboard-response","325","103279","0.0-415.0","3RWE2M8QWIWEZN9IZL6G04LOBKV0NF","ANOPPPGFNTUPN","3TKXBROM5TWR181JXBYSOI8FGFVJIU","","null","<img src=""img/food4.png"" style=""width:200px; border:14px solid green;"">","null","","","","","","","","","",""
"","image-keyboard-response","326","103387","0.0-416.0","3RWE2M8QWIWEZN9IZL6G04LOBKV0NF","ANOPPPGFNTUPN","3TKXBROM5TWR181JXBYSOI8FGFVJIU","","104","img/food2.png","76","107","3","1","","1","1","1,0.5,0,1,0.5,0,0.5,0,1","0.5,0,1,0.5,0,1,0,1,0.5","2",""
"","html-keyboard-response","327","103698","0.0-417.0","3RWE2M8QWIWEZN9IZL6G04LOBKV0NF","ANOPPPGFNTUPN","3TKXBROM5TWR181JXBYSOI8FGFVJIU","","null","<img src=""img/food2.png"" style=""width:200px; border:14px solid green;"">","null","","","","","","","","","",""
"","image-keyboard-response","328","103761","0.0-418.0","3RWE2M8QWIWEZN9IZL6G04LOBKV0NF","ANOPPPGFNTUPN","3TKXBROM5TWR181JXBYSOI8FGFVJIU","","62","img/food2.png","76","63","3","1","","1","1","1,0.5,0,1,0.5,0,0.5,0,1","0.5,0,1,0.5,0,1,0,1,0.5","2",""
"","html-keyboard-response","329","104063","0.0-419.0","3RWE2M8QWIWEZN9IZL6G04LOBKV0NF","ANOPPPGFNTUPN","3TKXBROM5TWR181JXBYSOI8FGFVJIU","","null","<img src=""img/food2.png"" style=""width:200px; border:14px solid green;"">","null","","","","","","","","","",""
"","image-keyboard-response","330","104081","0.0-420.0","3RWE2M8QWIWEZN9IZL6G04LOBKV0NF","ANOPPPGFNTUPN","3TKXBROM5TWR181JXBYSOI8FGFVJIU","","15","img/food4.png","75","17","2","0","","2","1","1,0.5,0,1,0.5,0,0.5,0,1","0.5,0,1,0.5,0,1,0,1,0.5","2",""
"","html-keyboard-response","331","104383","0.0-421.0","3RWE2M8QWIWEZN9IZL6G04LOBKV0NF","ANOPPPGFNTUPN","3TKXBROM5TWR181JXBYSOI8FGFVJIU","","null","<img src=""img/food4.png"" style=""width:200px;border:14px solid red;"">","null","","","","","","","","","",""
"","image-keyboard-response","332","104728","0.0-422.0","3RWE2M8QWIWEZN9IZL6G04LOBKV0NF","ANOPPPGFNTUPN","3TKXBROM5TWR181JXBYSOI8FGFVJIU","","343","img/food4.png","76","345","3","1","","2","1","1,0.5,0,1,0.5,0,0.5,0,1","0.5,0,1,0.5,0,1,0,1,0.5","2",""
"","html-keyboard-response","333","105029","0.0-423.0","3RWE2M8QWIWEZN9IZL6G04LOBKV0NF","ANOPPPGFNTUPN","3TKXBROM5TWR181JXBYSOI8FGFVJIU","","null","<img src=""img/food4.png"" style=""width:200px; border:14px solid green;"">","null","","","","","","","","","",""
"","image-keyboard-response","334","105177","0.0-424.0","3RWE2M8QWIWEZN9IZL6G04LOBKV0NF","ANOPPPGFNTUPN","3TKXBROM5TWR181JXBYSOI8FGFVJIU","","145","img/food1.png","75","147","2","1","","3","1","1,0.5,0,1,0.5,0,0.5,0,1","0.5,0,1,0.5,0,1,0,1,0.5","2",""
"","html-keyboard-response","335","105478","0.0-425.0","3RWE2M8QWIWEZN9IZL6G04LOBKV0NF","ANOPPPGFNTUPN","3TKXBROM5TWR181JXBYSOI8FGFVJIU","","null","<img src=""img/food1.png"" style=""width:200px; border:14px solid green;"">","null","","","","","","","","","",""
"","image-keyboard-response","336","105771","0.0-426.0","3RWE2M8QWIWEZN9IZL6G04LOBKV0NF","ANOPPPGFNTUPN","3TKXBROM5TWR181JXBYSOI8FGFVJIU","","289","img/food1.png","75","291","2","1","","3","1","1,0.5,0,1,0.5,0,0.5,0,1","0.5,0,1,0.5,0,1,0,1,0.5","2",""
"","html-keyboard-response","337","106074","0.0-427.0","3RWE2M8QWIWEZN9IZL6G04LOBKV0NF","ANOPPPGFNTUPN","3TKXBROM5TWR181JXBYSOI8FGFVJIU","","null","<img src=""img/food1.png"" style=""width:200px; border:14px solid green;"">","null","","","","","","","","","",""
"","image-keyboard-response","338","106154","0.0-428.0","3RWE2M8QWIWEZN9IZL6G04LOBKV0NF","ANOPPPGFNTUPN","3TKXBROM5TWR181JXBYSOI8FGFVJIU","","78","img/food2.png","74","81","1","0","","1","1","1,0.5,0,1,0.5,0,0.5,0,1","0.5,0,1,0.5,0,1,0,1,0.5","2",""
"","html-keyboard-response","339","106459","0.0-429.0","3RWE2M8QWIWEZN9IZL6G04LOBKV0NF","ANOPPPGFNTUPN","3TKXBROM5TWR181JXBYSOI8FGFVJIU","","null","<img src=""img/food2.png"" style=""width:200px;border:14px solid red;"">","null","","","","","","","","","",""
"","image-keyboard-response","340","106722","0.0-430.0","3RWE2M8QWIWEZN9IZL6G04LOBKV0NF","ANOPPPGFNTUPN","3TKXBROM5TWR181JXBYSOI8FGFVJIU","","260","img/food2.png","74","262","1","0","","1","1","1,0.5,0,1,0.5,0,0.5,0,1","0.5,0,1,0.5,0,1,0,1,0.5","2",""
"","html-keyboard-response","341","107024","0.0-431.0","3RWE2M8QWIWEZN9IZL6G04LOBKV0NF","ANOPPPGFNTUPN","3TKXBROM5TWR181JXBYSOI8FGFVJIU","","null","<img src=""img/food2.png"" style=""width:200px;border:14px solid red;"">","null","","","","","","","","","",""
"","image-keyboard-response","342","107287","0.0-432.0","3RWE2M8QWIWEZN9IZL6G04LOBKV0NF","ANOPPPGFNTUPN","3TKXBROM5TWR181JXBYSOI8FGFVJIU","","260","img/food4.png","76","262","3","1","","2","1","1,0.5,0,1,0.5,0,0.5,0,1","0.5,0,1,0.5,0,1,0,1,0.5","2",""
"","html-keyboard-response","343","107588","0.0-433.0","3RWE2M8QWIWEZN9IZL6G04LOBKV0NF","ANOPPPGFNTUPN","3TKXBROM5TWR181JXBYSOI8FGFVJIU","","null","<img src=""img/food4.png"" style=""width:200px; border:14px solid green;"">","null","","","","","","","","","",""
"","image-keyboard-response","344","107598","0.0-434.0","3RWE2M8QWIWEZN9IZL6G04LOBKV0NF","ANOPPPGFNTUPN","3TKXBROM5TWR181JXBYSOI8FGFVJIU","","8","img/food4.png","75","9","2","0","","2","1","1,0.5,0,1,0.5,0,0.5,0,1","0.5,0,1,0.5,0,1,0,1,0.5","2",""
"","html-keyboard-response","345","107900","0.0-435.0","3RWE2M8QWIWEZN9IZL6G04LOBKV0NF","ANOPPPGFNTUPN","3TKXBROM5TWR181JXBYSOI8FGFVJIU","","null","<img src=""img/food4.png"" style=""width:200px;border:14px solid red;"">","null","","","","","","","","","",""
"","image-keyboard-response","346","108084","0.0-436.0","3RWE2M8QWIWEZN9IZL6G04LOBKV0NF","ANOPPPGFNTUPN","3TKXBROM5TWR181JXBYSOI8FGFVJIU","","182","img/food4.png","75","182","2","0","","2","1","1,0.5,0,1,0.5,0,0.5,0,1","0.5,0,1,0.5,0,1,0,1,0.5","2",""
"","html-keyboard-response","347","108387","0.0-437.0","3RWE2M8QWIWEZN9IZL6G04LOBKV0NF","ANOPPPGFNTUPN","3TKXBROM5TWR181JXBYSOI8FGFVJIU","","null","<img src=""img/food4.png"" style=""width:200px;border:14px solid red;"">","null","","","","","","","","","",""
"","image-keyboard-response","348","108522","0.0-438.0","3RWE2M8QWIWEZN9IZL6G04LOBKV0NF","ANOPPPGFNTUPN","3TKXBROM5TWR181JXBYSOI8FGFVJIU","","132","img/food4.png","74","134","1","0","","2","1","1,0.5,0,1,0.5,0,0.5,0,1","0.5,0,1,0.5,0,1,0,1,0.5","2",""
"","html-keyboard-response","349","108824","0.0-439.0","3RWE2M8QWIWEZN9IZL6G04LOBKV0NF","ANOPPPGFNTUPN","3TKXBROM5TWR181JXBYSOI8FGFVJIU","","null","<img src=""img/food4.png"" style=""width:200px;border:14px solid red;"">","null","","","","","","","","","",""
"","image-keyboard-response","350","108945","0.0-440.0","3RWE2M8QWIWEZN9IZL6G04LOBKV0NF","ANOPPPGFNTUPN","3TKXBROM5TWR181JXBYSOI8FGFVJIU","","120","img/food2.png","75","120","2","0","","1","1","1,0.5,0,1,0.5,0,0.5,0,1","0.5,0,1,0.5,0,1,0,1,0.5","2",""
"","html-keyboard-response","351","109246","0.0-441.0","3RWE2M8QWIWEZN9IZL6G04LOBKV0NF","ANOPPPGFNTUPN","3TKXBROM5TWR181JXBYSOI8FGFVJIU","","null","<img src=""img/food2.png"" style=""width:200px;border:14px solid red;"">","null","","","","","","","","","",""
"","image-keyboard-response","352","109332","0.0-442.0","3RWE2M8QWIWEZN9IZL6G04LOBKV0NF","ANOPPPGFNTUPN","3TKXBROM5TWR181JXBYSOI8FGFVJIU","","82","img/food2.png","76","85","3","1","","1","1","1,0.5,0,1,0.5,0,0.5,0,1","0.5,0,1,0.5,0,1,0,1,0.5","2",""
"","html-keyboard-response","353","109663","0.0-443.0","3RWE2M8QWIWEZN9IZL6G04LOBKV0NF","ANOPPPGFNTUPN","3TKXBROM5TWR181JXBYSOI8FGFVJIU","","null","<img src=""img/food2.png"" style=""width:200px; border:14px solid green;"">","null","","","","","","","","","",""
"","image-keyboard-response","354","109746","0.0-444.0","3RWE2M8QWIWEZN9IZL6G04LOBKV0NF","ANOPPPGFNTUPN","3TKXBROM5TWR181JXBYSOI8FGFVJIU","","82","img/food1.png","76","83","3","0","","3","1","1,0.5,0,1,0.5,0,0.5,0,1","0.5,0,1,0.5,0,1,0,1,0.5","2",""
"","html-keyboard-response","355","110049","0.0-445.0","3RWE2M8QWIWEZN9IZL6G04LOBKV0NF","ANOPPPGFNTUPN","3TKXBROM5TWR181JXBYSOI8FGFVJIU","","null","<img src=""img/food1.png"" style=""width:200px;border:14px solid red;"">","null","","","","","","","","","",""
"","image-keyboard-response","356","110114","0.0-446.0","3RWE2M8QWIWEZN9IZL6G04LOBKV0NF","ANOPPPGFNTUPN","3TKXBROM5TWR181JXBYSOI8FGFVJIU","","62","img/food4.png","76","65","3","1","","2","1","1,0.5,0,1,0.5,0,0.5,0,1","0.5,0,1,0.5,0,1,0,1,0.5","2",""
"","html-keyboard-response","357","110416","0.0-447.0","3RWE2M8QWIWEZN9IZL6G04LOBKV0NF","ANOPPPGFNTUPN","3TKXBROM5TWR181JXBYSOI8FGFVJIU","","null","<img src=""img/food4.png"" style=""width:200px; border:14px solid green;"">","null","","","","","","","","","",""
"","image-keyboard-response","358","110489","0.0-448.0","3RWE2M8QWIWEZN9IZL6G04LOBKV0NF","ANOPPPGFNTUPN","3TKXBROM5TWR181JXBYSOI8FGFVJIU","","70","img/food2.png","76","72","3","1","","1","1","1,0.5,0,1,0.5,0,0.5,0,1","0.5,0,1,0.5,0,1,0,1,0.5","2",""
"","html-keyboard-response","359","110792","0.0-449.0","3RWE2M8QWIWEZN9IZL6G04LOBKV0NF","ANOPPPGFNTUPN","3TKXBROM5TWR181JXBYSOI8FGFVJIU","","null","<img src=""img/food2.png"" style=""width:200px; border:14px solid green;"">","null","","","","","","","","","",""
"","image-keyboard-response","360","110924","0.0-450.0","3RWE2M8QWIWEZN9IZL6G04LOBKV0NF","ANOPPPGFNTUPN","3TKXBROM5TWR181JXBYSOI8FGFVJIU","","131","img/food2.png","76","131","3","1","","1","1","1,0.5,0,1,0.5,0,0.5,0,1","0.5,0,1,0.5,0,1,0,1,0.5","2",""
"","html-keyboard-response","361","111227","0.0-451.0","3RWE2M8QWIWEZN9IZL6G04LOBKV0NF","ANOPPPGFNTUPN","3TKXBROM5TWR181JXBYSOI8FGFVJIU","","null","<img src=""img/food2.png"" style=""width:200px; border:14px solid green;"">","null","","","","","","","","","",""
"","image-keyboard-response","362","111275","0.0-452.0","3RWE2M8QWIWEZN9IZL6G04LOBKV0NF","ANOPPPGFNTUPN","3TKXBROM5TWR181JXBYSOI8FGFVJIU","","46","img/food1.png","76","47","3","1","","3","1","1,0.5,0,1,0.5,0,0.5,0,1","0.5,0,1,0.5,0,1,0,1,0.5","2",""
"","html-keyboard-response","363","111579","0.0-453.0","3RWE2M8QWIWEZN9IZL6G04LOBKV0NF","ANOPPPGFNTUPN","3TKXBROM5TWR181JXBYSOI8FGFVJIU","","null","<img src=""img/food1.png"" style=""width:200px; border:14px solid green;"">","null","","","","","","","","","",""
"","html-keyboard-response","364","349519","0.0-454.0","3RWE2M8QWIWEZN9IZL6G04LOBKV0NF","ANOPPPGFNTUPN","3TKXBROM5TWR181JXBYSOI8FGFVJIU","","","","","","","","","","","","","",""
"","instructions","365","350595","0.0-455.0","3RWE2M8QWIWEZN9IZL6G04LOBKV0NF","ANOPPPGFNTUPN","3TKXBROM5TWR181JXBYSOI8FGFVJIU","[{""page_index"":0,""viewing_time"":1071}]","1072","","","","","","","","","","","",""
"","survey-text","366","354830","0.0-456.0","3RWE2M8QWIWEZN9IZL6G04LOBKV0NF","ANOPPPGFNTUPN","3TKXBROM5TWR181JXBYSOI8FGFVJIU","","4224","","","","","","","","","","","","{""Q0"":""ANOPPPGFNTUPN""}"
