"success","trial_type","trial_index","time_elapsed","internal_node_id","assignmentID","mturkID","hitID","view_history","rt","stimulus","key_press","reactionTime","a","r","s","reward_cond","responses"
"true","fullscreen","0","2281","0.0-0.0","3MRNMEIQW6SIA77RZKEW2J1IW1OLDH","AOAZMLP27GD81","368IUKXGA5U7UZ9GQNUNOB4MGE4P6M","","","","","","","","","",""
"","instructions","1","28184","0.0-1.0","3MRNMEIQW6SIA77RZKEW2J1IW1OLDH","AOAZMLP27GD81","368IUKXGA5U7UZ9GQNUNOB4MGE4P6M","[{""page_index"":0,""viewing_time"":1062.2999999970198},{""page_index"":1,""viewing_time"":1208},{""page_index"":2,""viewing_time"":568},{""page_index"":3,""viewing_time"":735.8999999985099},{""page_index"":4,""viewing_time"":6592},{""page_index"":3,""viewing_time"":1816.2000000029802},{""page_index"":2,""viewing_time"":1648.1000000014901},{""page_index"":3,""viewing_time"":967.8999999985099},{""page_index"":4,""viewing_time"":3064.39999999851},{""page_index"":5,""viewing_time"":3863.39999999851},{""page_index"":6,""viewing_time"":1248.9000000059605},{""page_index"":7,""viewing_time"":3127.0999999940395}]","25902.69999999553","","","","","","","",""
"","image-keyboard-response","2","30584","0.0-2.0","3MRNMEIQW6SIA77RZKEW2J1IW1OLDH","AOAZMLP27GD81","368IUKXGA5U7UZ9GQNUNOB4MGE4P6M","","2399.5","img/food7.png","75","2400.10000000149","1","0","3","0.8,0.2,0.8,0.2,0.2,0.8,0.2,0.8",""
"","html-keyboard-response","3","30885","0.0-3.0","3MRNMEIQW6SIA77RZKEW2J1IW1OLDH","AOAZMLP27GD81","368IUKXGA5U7UZ9GQNUNOB4MGE4P6M","","null","<img src=""img/food7.png"" style=""width:200px;border:14px solid red;"">","null","","","","","",""
"","image-keyboard-response","4","32003","0.0-4.0","3MRNMEIQW6SIA77RZKEW2J1IW1OLDH","AOAZMLP27GD81","368IUKXGA5U7UZ9GQNUNOB4MGE4P6M","","1117.5999999940395","img/food2.png","75","1118.2000000029802","1","1","2","0.8,0.2,0.8,0.2,0.2,0.8,0.2,0.8",""
"","html-keyboard-response","5","32305","0.0-5.0","3MRNMEIQW6SIA77RZKEW2J1IW1OLDH","AOAZMLP27GD81","368IUKXGA5U7UZ9GQNUNOB4MGE4P6M","","null","<img src=""img/food2.png"" style=""width:200px; border:14px solid green;"">","null","","","","","",""
"","image-keyboard-response","6","33052","0.0-6.0","3MRNMEIQW6SIA77RZKEW2J1IW1OLDH","AOAZMLP27GD81","368IUKXGA5U7UZ9GQNUNOB4MGE4P6M","","745.7000000029802","img/food7.png","76","746","2","0","3","0.8,0.2,0.8,0.2,0.2,0.8,0.2,0.8",""
"","html-keyboard-response","7","33353","0.0-7.0","3MRNMEIQW6SIA77RZKEW2J1IW1OLDH","AOAZMLP27GD81","368IUKXGA5U7UZ9GQNUNOB4MGE4P6M","","null","<img src=""img/food7.png"" style=""width:200px;border:14px solid red;"">","null","","","","","",""
"","image-keyboard-response","8","34326","0.0-8.0","3MRNMEIQW6SIA77RZKEW2J1IW1OLDH","AOAZMLP27GD81","368IUKXGA5U7UZ9GQNUNOB4MGE4P6M","","973","img/food6.png","76","973.3999999985099","2","0","1","0.8,0.2,0.8,0.2,0.2,0.8,0.2,0.8",""
"","html-keyboard-response","9","34627","0.0-9.0","3MRNMEIQW6SIA77RZKEW2J1IW1OLDH","AOAZMLP27GD81","368IUKXGA5U7UZ9GQNUNOB4MGE4P6M","","null","<img src=""img/food6.png"" style=""width:200px;border:14px solid red;"">","null","","","","","",""
"","image-keyboard-response","10","35447","0.0-10.0","3MRNMEIQW6SIA77RZKEW2J1IW1OLDH","AOAZMLP27GD81","368IUKXGA5U7UZ9GQNUNOB4MGE4P6M","","819.2000000029802","img/food1.png","75","819.6000000014901","1","1","4","0.8,0.2,0.8,0.2,0.2,0.8,0.2,0.8",""
"","html-keyboard-response","11","35749","0.0-11.0","3MRNMEIQW6SIA77RZKEW2J1IW1OLDH","AOAZMLP27GD81","368IUKXGA5U7UZ9GQNUNOB4MGE4P6M","","null","<img src=""img/food1.png"" style=""width:200px; border:14px solid green;"">","null","","","","","",""
"","image-keyboard-response","12","36532","0.0-12.0","3MRNMEIQW6SIA77RZKEW2J1IW1OLDH","AOAZMLP27GD81","368IUKXGA5U7UZ9GQNUNOB4MGE4P6M","","782.5","img/food1.png","75","782.7999999970198","1","1","4","0.8,0.2,0.8,0.2,0.2,0.8,0.2,0.8",""
"","html-keyboard-response","13","36833","0.0-13.0","3MRNMEIQW6SIA77RZKEW2J1IW1OLDH","AOAZMLP27GD81","368IUKXGA5U7UZ9GQNUNOB4MGE4P6M","","null","<img src=""img/food1.png"" style=""width:200px; border:14px solid green;"">","null","","","","","",""
"","image-keyboard-response","14","38214","0.0-14.0","3MRNMEIQW6SIA77RZKEW2J1IW1OLDH","AOAZMLP27GD81","368IUKXGA5U7UZ9GQNUNOB4MGE4P6M","","1380.7999999970198","img/food7.png","75","1381.2000000029802","1","1","3","0.8,0.2,0.8,0.2,0.2,0.8,0.2,0.8",""
"","html-keyboard-response","15","38515","0.0-15.0","3MRNMEIQW6SIA77RZKEW2J1IW1OLDH","AOAZMLP27GD81","368IUKXGA5U7UZ9GQNUNOB4MGE4P6M","","null","<img src=""img/food7.png"" style=""width:200px; border:14px solid green;"">","null","","","","","",""
"","image-keyboard-response","16","40436","0.0-16.0","3MRNMEIQW6SIA77RZKEW2J1IW1OLDH","AOAZMLP27GD81","368IUKXGA5U7UZ9GQNUNOB4MGE4P6M","","1920.5","img/food7.png","75","1920.8999999985099","1","0","3","0.8,0.2,0.8,0.2,0.2,0.8,0.2,0.8",""
"","html-keyboard-response","17","40737","0.0-17.0","3MRNMEIQW6SIA77RZKEW2J1IW1OLDH","AOAZMLP27GD81","368IUKXGA5U7UZ9GQNUNOB4MGE4P6M","","null","<img src=""img/food7.png"" style=""width:200px;border:14px solid red;"">","null","","","","","",""
"","image-keyboard-response","18","41511","0.0-18.0","3MRNMEIQW6SIA77RZKEW2J1IW1OLDH","AOAZMLP27GD81","368IUKXGA5U7UZ9GQNUNOB4MGE4P6M","","772.7000000029802","img/food6.png","76","773.1000000014901","2","0","1","0.8,0.2,0.8,0.2,0.2,0.8,0.2,0.8",""
"","html-keyboard-response","19","41812","0.0-19.0","3MRNMEIQW6SIA77RZKEW2J1IW1OLDH","AOAZMLP27GD81","368IUKXGA5U7UZ9GQNUNOB4MGE4P6M","","null","<img src=""img/food6.png"" style=""width:200px;border:14px solid red;"">","null","","","","","",""
"","image-keyboard-response","20","42438","0.0-20.0","3MRNMEIQW6SIA77RZKEW2J1IW1OLDH","AOAZMLP27GD81","368IUKXGA5U7UZ9GQNUNOB4MGE4P6M","","625.3999999985099","img/food1.png","75","625.6999999955297","1","0","4","0.8,0.2,0.8,0.2,0.2,0.8,0.2,0.8",""
"","html-keyboard-response","21","42739","0.0-21.0","3MRNMEIQW6SIA77RZKEW2J1IW1OLDH","AOAZMLP27GD81","368IUKXGA5U7UZ9GQNUNOB4MGE4P6M","","null","<img src=""img/food1.png"" style=""width:200px;border:14px solid red;"">","null","","","","","",""
"","image-keyboard-response","22","44003","0.0-22.0","3MRNMEIQW6SIA77RZKEW2J1IW1OLDH","AOAZMLP27GD81","368IUKXGA5U7UZ9GQNUNOB4MGE4P6M","","1263.1000000014901","img/food6.png","76","1263.5","2","0","1","0.8,0.2,0.8,0.2,0.2,0.8,0.2,0.8",""
"","html-keyboard-response","23","44304","0.0-23.0","3MRNMEIQW6SIA77RZKEW2J1IW1OLDH","AOAZMLP27GD81","368IUKXGA5U7UZ9GQNUNOB4MGE4P6M","","null","<img src=""img/food6.png"" style=""width:200px;border:14px solid red;"">","null","","","","","",""
"","image-keyboard-response","24","45155","0.0-24.0","3MRNMEIQW6SIA77RZKEW2J1IW1OLDH","AOAZMLP27GD81","368IUKXGA5U7UZ9GQNUNOB4MGE4P6M","","850.3000000044703","img/food7.png","76","850.6000000014901","2","1","3","0.8,0.2,0.8,0.2,0.2,0.8,0.2,0.8",""
"","html-keyboard-response","25","45457","0.0-25.0","3MRNMEIQW6SIA77RZKEW2J1IW1OLDH","AOAZMLP27GD81","368IUKXGA5U7UZ9GQNUNOB4MGE4P6M","","null","<img src=""img/food7.png"" style=""width:200px; border:14px solid green;"">","null","","","","","",""
"","image-keyboard-response","26","45862","0.0-26.0","3MRNMEIQW6SIA77RZKEW2J1IW1OLDH","AOAZMLP27GD81","368IUKXGA5U7UZ9GQNUNOB4MGE4P6M","","405.3999999985099","img/food7.png","76","405.70000000298023","2","1","3","0.8,0.2,0.8,0.2,0.2,0.8,0.2,0.8",""
"","html-keyboard-response","27","46163","0.0-27.0","3MRNMEIQW6SIA77RZKEW2J1IW1OLDH","AOAZMLP27GD81","368IUKXGA5U7UZ9GQNUNOB4MGE4P6M","","null","<img src=""img/food7.png"" style=""width:200px; border:14px solid green;"">","null","","","","","",""
"","image-keyboard-response","28","47078","0.0-28.0","3MRNMEIQW6SIA77RZKEW2J1IW1OLDH","AOAZMLP27GD81","368IUKXGA5U7UZ9GQNUNOB4MGE4P6M","","914.5","img/food2.png","76","915","2","1","2","0.8,0.2,0.8,0.2,0.2,0.8,0.2,0.8",""
"","html-keyboard-response","29","47380","0.0-29.0","3MRNMEIQW6SIA77RZKEW2J1IW1OLDH","AOAZMLP27GD81","368IUKXGA5U7UZ9GQNUNOB4MGE4P6M","","null","<img src=""img/food2.png"" style=""width:200px; border:14px solid green;"">","null","","","","","",""
"","image-keyboard-response","30","47810","0.0-30.0","3MRNMEIQW6SIA77RZKEW2J1IW1OLDH","AOAZMLP27GD81","368IUKXGA5U7UZ9GQNUNOB4MGE4P6M","","429.20000000298023","img/food2.png","76","429.79999999701977","2","0","2","0.8,0.2,0.8,0.2,0.2,0.8,0.2,0.8",""
"","html-keyboard-response","31","48111","0.0-31.0","3MRNMEIQW6SIA77RZKEW2J1IW1OLDH","AOAZMLP27GD81","368IUKXGA5U7UZ9GQNUNOB4MGE4P6M","","null","<img src=""img/food2.png"" style=""width:200px;border:14px solid red;"">","null","","","","","",""
"","image-keyboard-response","32","49080","0.0-32.0","3MRNMEIQW6SIA77RZKEW2J1IW1OLDH","AOAZMLP27GD81","368IUKXGA5U7UZ9GQNUNOB4MGE4P6M","","968.7999999970198","img/food6.png","75","969.1000000014901","1","1","1","0.8,0.2,0.8,0.2,0.2,0.8,0.2,0.8",""
"","html-keyboard-response","33","49381","0.0-33.0","3MRNMEIQW6SIA77RZKEW2J1IW1OLDH","AOAZMLP27GD81","368IUKXGA5U7UZ9GQNUNOB4MGE4P6M","","null","<img src=""img/food6.png"" style=""width:200px; border:14px solid green;"">","null","","","","","",""
"","image-keyboard-response","34","50102","0.0-34.0","3MRNMEIQW6SIA77RZKEW2J1IW1OLDH","AOAZMLP27GD81","368IUKXGA5U7UZ9GQNUNOB4MGE4P6M","","720.7999999970198","img/food7.png","76","721.1000000014901","2","1","3","0.8,0.2,0.8,0.2,0.2,0.8,0.2,0.8",""
"","html-keyboard-response","35","50403","0.0-35.0","3MRNMEIQW6SIA77RZKEW2J1IW1OLDH","AOAZMLP27GD81","368IUKXGA5U7UZ9GQNUNOB4MGE4P6M","","null","<img src=""img/food7.png"" style=""width:200px; border:14px solid green;"">","null","","","","","",""
"","image-keyboard-response","36","51269","0.0-36.0","3MRNMEIQW6SIA77RZKEW2J1IW1OLDH","AOAZMLP27GD81","368IUKXGA5U7UZ9GQNUNOB4MGE4P6M","","864.7000000029802","img/food1.png","75","865","1","0","4","0.8,0.2,0.8,0.2,0.2,0.8,0.2,0.8",""
"","html-keyboard-response","37","51570","0.0-37.0","3MRNMEIQW6SIA77RZKEW2J1IW1OLDH","AOAZMLP27GD81","368IUKXGA5U7UZ9GQNUNOB4MGE4P6M","","null","<img src=""img/food1.png"" style=""width:200px;border:14px solid red;"">","null","","","","","",""
"","image-keyboard-response","38","52099","0.0-38.0","3MRNMEIQW6SIA77RZKEW2J1IW1OLDH","AOAZMLP27GD81","368IUKXGA5U7UZ9GQNUNOB4MGE4P6M","","528.5","img/food1.png","75","528.8999999985099","1","1","4","0.8,0.2,0.8,0.2,0.2,0.8,0.2,0.8",""
"","html-keyboard-response","39","52400","0.0-39.0","3MRNMEIQW6SIA77RZKEW2J1IW1OLDH","AOAZMLP27GD81","368IUKXGA5U7UZ9GQNUNOB4MGE4P6M","","null","<img src=""img/food1.png"" style=""width:200px; border:14px solid green;"">","null","","","","","",""
"","image-keyboard-response","40","53843","0.0-40.0","3MRNMEIQW6SIA77RZKEW2J1IW1OLDH","AOAZMLP27GD81","368IUKXGA5U7UZ9GQNUNOB4MGE4P6M","","1442.5","img/food6.png","75","1442.8999999985099","1","1","1","0.8,0.2,0.8,0.2,0.2,0.8,0.2,0.8",""
"","html-keyboard-response","41","54144","0.0-41.0","3MRNMEIQW6SIA77RZKEW2J1IW1OLDH","AOAZMLP27GD81","368IUKXGA5U7UZ9GQNUNOB4MGE4P6M","","null","<img src=""img/food6.png"" style=""width:200px; border:14px solid green;"">","null","","","","","",""
"","image-keyboard-response","42","54715","0.0-42.0","3MRNMEIQW6SIA77RZKEW2J1IW1OLDH","AOAZMLP27GD81","368IUKXGA5U7UZ9GQNUNOB4MGE4P6M","","570.5","img/food7.png","76","570.7999999970198","2","1","3","0.8,0.2,0.8,0.2,0.2,0.8,0.2,0.8",""
"","html-keyboard-response","43","55017","0.0-43.0","3MRNMEIQW6SIA77RZKEW2J1IW1OLDH","AOAZMLP27GD81","368IUKXGA5U7UZ9GQNUNOB4MGE4P6M","","null","<img src=""img/food7.png"" style=""width:200px; border:14px solid green;"">","null","","","","","",""
"","image-keyboard-response","44","55851","0.0-44.0","3MRNMEIQW6SIA77RZKEW2J1IW1OLDH","AOAZMLP27GD81","368IUKXGA5U7UZ9GQNUNOB4MGE4P6M","","833.6000000014901","img/food6.png","75","833.8000000044703","1","1","1","0.8,0.2,0.8,0.2,0.2,0.8,0.2,0.8",""
"","html-keyboard-response","45","56152","0.0-45.0","3MRNMEIQW6SIA77RZKEW2J1IW1OLDH","AOAZMLP27GD81","368IUKXGA5U7UZ9GQNUNOB4MGE4P6M","","null","<img src=""img/food6.png"" style=""width:200px; border:14px solid green;"">","null","","","","","",""
"","image-keyboard-response","46","56958","0.0-46.0","3MRNMEIQW6SIA77RZKEW2J1IW1OLDH","AOAZMLP27GD81","368IUKXGA5U7UZ9GQNUNOB4MGE4P6M","","805.5999999940395","img/food2.png","76","806","2","1","2","0.8,0.2,0.8,0.2,0.2,0.8,0.2,0.8",""
"","html-keyboard-response","47","57260","0.0-47.0","3MRNMEIQW6SIA77RZKEW2J1IW1OLDH","AOAZMLP27GD81","368IUKXGA5U7UZ9GQNUNOB4MGE4P6M","","null","<img src=""img/food2.png"" style=""width:200px; border:14px solid green;"">","null","","","","","",""
"","image-keyboard-response","48","59178","0.0-48.0","3MRNMEIQW6SIA77RZKEW2J1IW1OLDH","AOAZMLP27GD81","368IUKXGA5U7UZ9GQNUNOB4MGE4P6M","","1918.1999999955297","img/food6.png","75","1918.6000000014901","1","1","1","0.8,0.2,0.8,0.2,0.2,0.8,0.2,0.8",""
"","html-keyboard-response","49","59480","0.0-49.0","3MRNMEIQW6SIA77RZKEW2J1IW1OLDH","AOAZMLP27GD81","368IUKXGA5U7UZ9GQNUNOB4MGE4P6M","","null","<img src=""img/food6.png"" style=""width:200px; border:14px solid green;"">","null","","","","","",""
"","image-keyboard-response","50","60083","0.0-50.0","3MRNMEIQW6SIA77RZKEW2J1IW1OLDH","AOAZMLP27GD81","368IUKXGA5U7UZ9GQNUNOB4MGE4P6M","","603.2999999970198","img/food7.png","76","603.6000000014901","2","1","3","0.8,0.2,0.8,0.2,0.2,0.8,0.2,0.8",""
"","html-keyboard-response","51","60385","0.0-51.0","3MRNMEIQW6SIA77RZKEW2J1IW1OLDH","AOAZMLP27GD81","368IUKXGA5U7UZ9GQNUNOB4MGE4P6M","","null","<img src=""img/food7.png"" style=""width:200px; border:14px solid green;"">","null","","","","","",""
"","image-keyboard-response","52","61508","0.0-52.0","3MRNMEIQW6SIA77RZKEW2J1IW1OLDH","AOAZMLP27GD81","368IUKXGA5U7UZ9GQNUNOB4MGE4P6M","","1122.5","img/food1.png","75","1122.8999999985099","1","0","4","0.8,0.2,0.8,0.2,0.2,0.8,0.2,0.8",""
"","html-keyboard-response","53","61808","0.0-53.0","3MRNMEIQW6SIA77RZKEW2J1IW1OLDH","AOAZMLP27GD81","368IUKXGA5U7UZ9GQNUNOB4MGE4P6M","","null","<img src=""img/food1.png"" style=""width:200px;border:14px solid red;"">","null","","","","","",""
"","image-keyboard-response","54","62640","0.0-54.0","3MRNMEIQW6SIA77RZKEW2J1IW1OLDH","AOAZMLP27GD81","368IUKXGA5U7UZ9GQNUNOB4MGE4P6M","","831.5","img/food2.png","76","831.8999999985099","2","0","2","0.8,0.2,0.8,0.2,0.2,0.8,0.2,0.8",""
"","html-keyboard-response","55","62942","0.0-55.0","3MRNMEIQW6SIA77RZKEW2J1IW1OLDH","AOAZMLP27GD81","368IUKXGA5U7UZ9GQNUNOB4MGE4P6M","","null","<img src=""img/food2.png"" style=""width:200px;border:14px solid red;"">","null","","","","","",""
"","image-keyboard-response","56","63948","0.0-56.0","3MRNMEIQW6SIA77RZKEW2J1IW1OLDH","AOAZMLP27GD81","368IUKXGA5U7UZ9GQNUNOB4MGE4P6M","","1006","img/food6.png","75","1006.2000000029802","1","1","1","0.8,0.2,0.8,0.2,0.2,0.8,0.2,0.8",""
"","html-keyboard-response","57","64249","0.0-57.0","3MRNMEIQW6SIA77RZKEW2J1IW1OLDH","AOAZMLP27GD81","368IUKXGA5U7UZ9GQNUNOB4MGE4P6M","","null","<img src=""img/food6.png"" style=""width:200px; border:14px solid green;"">","null","","","","","",""
"","image-keyboard-response","58","64706","0.0-58.0","3MRNMEIQW6SIA77RZKEW2J1IW1OLDH","AOAZMLP27GD81","368IUKXGA5U7UZ9GQNUNOB4MGE4P6M","","457","img/food6.png","75","457.30000000447035","1","1","1","0.8,0.2,0.8,0.2,0.2,0.8,0.2,0.8",""
"","html-keyboard-response","59","65007","0.0-59.0","3MRNMEIQW6SIA77RZKEW2J1IW1OLDH","AOAZMLP27GD81","368IUKXGA5U7UZ9GQNUNOB4MGE4P6M","","null","<img src=""img/food6.png"" style=""width:200px; border:14px solid green;"">","null","","","","","",""
"","image-keyboard-response","60","65750","0.0-60.0","3MRNMEIQW6SIA77RZKEW2J1IW1OLDH","AOAZMLP27GD81","368IUKXGA5U7UZ9GQNUNOB4MGE4P6M","","742.1000000014901","img/food1.png","75","742.5999999940395","1","0","4","0.8,0.2,0.8,0.2,0.2,0.8,0.2,0.8",""
"","html-keyboard-response","61","66051","0.0-61.0","3MRNMEIQW6SIA77RZKEW2J1IW1OLDH","AOAZMLP27GD81","368IUKXGA5U7UZ9GQNUNOB4MGE4P6M","","null","<img src=""img/food1.png"" style=""width:200px;border:14px solid red;"">","null","","","","","",""
"","image-keyboard-response","62","66638","0.0-62.0","3MRNMEIQW6SIA77RZKEW2J1IW1OLDH","AOAZMLP27GD81","368IUKXGA5U7UZ9GQNUNOB4MGE4P6M","","586.7000000029802","img/food7.png","76","586.8999999985099","2","1","3","0.8,0.2,0.8,0.2,0.2,0.8,0.2,0.8",""
"","html-keyboard-response","63","66940","0.0-63.0","3MRNMEIQW6SIA77RZKEW2J1IW1OLDH","AOAZMLP27GD81","368IUKXGA5U7UZ9GQNUNOB4MGE4P6M","","null","<img src=""img/food7.png"" style=""width:200px; border:14px solid green;"">","null","","","","","",""
"","image-keyboard-response","64","67614","0.0-64.0","3MRNMEIQW6SIA77RZKEW2J1IW1OLDH","AOAZMLP27GD81","368IUKXGA5U7UZ9GQNUNOB4MGE4P6M","","673.7999999970198","img/food1.png","76","674.4000000059605","2","1","4","0.8,0.2,0.8,0.2,0.2,0.8,0.2,0.8",""
"","html-keyboard-response","65","67916","0.0-65.0","3MRNMEIQW6SIA77RZKEW2J1IW1OLDH","AOAZMLP27GD81","368IUKXGA5U7UZ9GQNUNOB4MGE4P6M","","null","<img src=""img/food1.png"" style=""width:200px; border:14px solid green;"">","null","","","","","",""
"","image-keyboard-response","66","68799","0.0-66.0","3MRNMEIQW6SIA77RZKEW2J1IW1OLDH","AOAZMLP27GD81","368IUKXGA5U7UZ9GQNUNOB4MGE4P6M","","882.8999999985099","img/food6.png","75","883.2000000029802","1","0","1","0.8,0.2,0.8,0.2,0.2,0.8,0.2,0.8",""
"","html-keyboard-response","67","69100","0.0-67.0","3MRNMEIQW6SIA77RZKEW2J1IW1OLDH","AOAZMLP27GD81","368IUKXGA5U7UZ9GQNUNOB4MGE4P6M","","null","<img src=""img/food6.png"" style=""width:200px;border:14px solid red;"">","null","","","","","",""
"","image-keyboard-response","68","69842","0.0-68.0","3MRNMEIQW6SIA77RZKEW2J1IW1OLDH","AOAZMLP27GD81","368IUKXGA5U7UZ9GQNUNOB4MGE4P6M","","742.2000000029802","img/food6.png","75","742.4000000059605","1","1","1","0.8,0.2,0.8,0.2,0.2,0.8,0.2,0.8",""
"","html-keyboard-response","69","70143","0.0-69.0","3MRNMEIQW6SIA77RZKEW2J1IW1OLDH","AOAZMLP27GD81","368IUKXGA5U7UZ9GQNUNOB4MGE4P6M","","null","<img src=""img/food6.png"" style=""width:200px; border:14px solid green;"">","null","","","","","",""
"","image-keyboard-response","70","70494","0.0-70.0","3MRNMEIQW6SIA77RZKEW2J1IW1OLDH","AOAZMLP27GD81","368IUKXGA5U7UZ9GQNUNOB4MGE4P6M","","350.3999999985099","img/food6.png","75","350.80000000447035","1","1","1","0.8,0.2,0.8,0.2,0.2,0.8,0.2,0.8",""
"","html-keyboard-response","71","70796","0.0-71.0","3MRNMEIQW6SIA77RZKEW2J1IW1OLDH","AOAZMLP27GD81","368IUKXGA5U7UZ9GQNUNOB4MGE4P6M","","null","<img src=""img/food6.png"" style=""width:200px; border:14px solid green;"">","null","","","","","",""
"","image-keyboard-response","72","71515","0.0-72.0","3MRNMEIQW6SIA77RZKEW2J1IW1OLDH","AOAZMLP27GD81","368IUKXGA5U7UZ9GQNUNOB4MGE4P6M","","718.5999999940395","img/food1.png","76","719.1000000014901","2","1","4","0.8,0.2,0.8,0.2,0.2,0.8,0.2,0.8",""
"","html-keyboard-response","73","71817","0.0-73.0","3MRNMEIQW6SIA77RZKEW2J1IW1OLDH","AOAZMLP27GD81","368IUKXGA5U7UZ9GQNUNOB4MGE4P6M","","null","<img src=""img/food1.png"" style=""width:200px; border:14px solid green;"">","null","","","","","",""
"","image-keyboard-response","74","72394","0.0-74.0","3MRNMEIQW6SIA77RZKEW2J1IW1OLDH","AOAZMLP27GD81","368IUKXGA5U7UZ9GQNUNOB4MGE4P6M","","577","img/food7.png","76","577.5","2","1","3","0.8,0.2,0.8,0.2,0.2,0.8,0.2,0.8",""
"","html-keyboard-response","75","72696","0.0-75.0","3MRNMEIQW6SIA77RZKEW2J1IW1OLDH","AOAZMLP27GD81","368IUKXGA5U7UZ9GQNUNOB4MGE4P6M","","null","<img src=""img/food7.png"" style=""width:200px; border:14px solid green;"">","null","","","","","",""
"","image-keyboard-response","76","73376","0.0-76.0","3MRNMEIQW6SIA77RZKEW2J1IW1OLDH","AOAZMLP27GD81","368IUKXGA5U7UZ9GQNUNOB4MGE4P6M","","679.3999999985099","img/food1.png","76","679.7999999970198","2","1","4","0.8,0.2,0.8,0.2,0.2,0.8,0.2,0.8",""
"","html-keyboard-response","77","73677","0.0-77.0","3MRNMEIQW6SIA77RZKEW2J1IW1OLDH","AOAZMLP27GD81","368IUKXGA5U7UZ9GQNUNOB4MGE4P6M","","null","<img src=""img/food1.png"" style=""width:200px; border:14px solid green;"">","null","","","","","",""
"","image-keyboard-response","78","74158","0.0-78.0","3MRNMEIQW6SIA77RZKEW2J1IW1OLDH","AOAZMLP27GD81","368IUKXGA5U7UZ9GQNUNOB4MGE4P6M","","480.5","img/food1.png","76","480.90000000596046","2","1","4","0.8,0.2,0.8,0.2,0.2,0.8,0.2,0.8",""
"","html-keyboard-response","79","74459","0.0-79.0","3MRNMEIQW6SIA77RZKEW2J1IW1OLDH","AOAZMLP27GD81","368IUKXGA5U7UZ9GQNUNOB4MGE4P6M","","null","<img src=""img/food1.png"" style=""width:200px; border:14px solid green;"">","null","","","","","",""
"","image-keyboard-response","80","75067","0.0-80.0","3MRNMEIQW6SIA77RZKEW2J1IW1OLDH","AOAZMLP27GD81","368IUKXGA5U7UZ9GQNUNOB4MGE4P6M","","607.3999999985099","img/food2.png","76","607.6999999955297","2","0","2","0.8,0.2,0.8,0.2,0.2,0.8,0.2,0.8",""
"","html-keyboard-response","81","75369","0.0-81.0","3MRNMEIQW6SIA77RZKEW2J1IW1OLDH","AOAZMLP27GD81","368IUKXGA5U7UZ9GQNUNOB4MGE4P6M","","null","<img src=""img/food2.png"" style=""width:200px;border:14px solid red;"">","null","","","","","",""
"","image-keyboard-response","82","76175","0.0-82.0","3MRNMEIQW6SIA77RZKEW2J1IW1OLDH","AOAZMLP27GD81","368IUKXGA5U7UZ9GQNUNOB4MGE4P6M","","806","img/food7.png","76","806.5","2","1","3","0.8,0.2,0.8,0.2,0.2,0.8,0.2,0.8",""
"","html-keyboard-response","83","76477","0.0-83.0","3MRNMEIQW6SIA77RZKEW2J1IW1OLDH","AOAZMLP27GD81","368IUKXGA5U7UZ9GQNUNOB4MGE4P6M","","null","<img src=""img/food7.png"" style=""width:200px; border:14px solid green;"">","null","","","","","",""
"","image-keyboard-response","84","77154","0.0-84.0","3MRNMEIQW6SIA77RZKEW2J1IW1OLDH","AOAZMLP27GD81","368IUKXGA5U7UZ9GQNUNOB4MGE4P6M","","677","img/food1.png","76","677.3000000044703","2","1","4","0.8,0.2,0.8,0.2,0.2,0.8,0.2,0.8",""
"","html-keyboard-response","85","77456","0.0-85.0","3MRNMEIQW6SIA77RZKEW2J1IW1OLDH","AOAZMLP27GD81","368IUKXGA5U7UZ9GQNUNOB4MGE4P6M","","null","<img src=""img/food1.png"" style=""width:200px; border:14px solid green;"">","null","","","","","",""
"","image-keyboard-response","86","77903","0.0-86.0","3MRNMEIQW6SIA77RZKEW2J1IW1OLDH","AOAZMLP27GD81","368IUKXGA5U7UZ9GQNUNOB4MGE4P6M","","446.70000000298023","img/food7.png","76","447.20000000298023","2","1","3","0.8,0.2,0.8,0.2,0.2,0.8,0.2,0.8",""
"","html-keyboard-response","87","78205","0.0-87.0","3MRNMEIQW6SIA77RZKEW2J1IW1OLDH","AOAZMLP27GD81","368IUKXGA5U7UZ9GQNUNOB4MGE4P6M","","null","<img src=""img/food7.png"" style=""width:200px; border:14px solid green;"">","null","","","","","",""
"","image-keyboard-response","88","78671","0.0-88.0","3MRNMEIQW6SIA77RZKEW2J1IW1OLDH","AOAZMLP27GD81","368IUKXGA5U7UZ9GQNUNOB4MGE4P6M","","465.79999999701977","img/food1.png","76","466.29999999701977","2","1","4","0.8,0.2,0.8,0.2,0.2,0.8,0.2,0.8",""
"","html-keyboard-response","89","78972","0.0-89.0","3MRNMEIQW6SIA77RZKEW2J1IW1OLDH","AOAZMLP27GD81","368IUKXGA5U7UZ9GQNUNOB4MGE4P6M","","null","<img src=""img/food1.png"" style=""width:200px; border:14px solid green;"">","null","","","","","",""
"","image-keyboard-response","90","79397","0.0-90.0","3MRNMEIQW6SIA77RZKEW2J1IW1OLDH","AOAZMLP27GD81","368IUKXGA5U7UZ9GQNUNOB4MGE4P6M","","424.1000000014901","img/food7.png","76","424.6000000014901","2","1","3","0.8,0.2,0.8,0.2,0.2,0.8,0.2,0.8",""
"","html-keyboard-response","91","79698","0.0-91.0","3MRNMEIQW6SIA77RZKEW2J1IW1OLDH","AOAZMLP27GD81","368IUKXGA5U7UZ9GQNUNOB4MGE4P6M","","null","<img src=""img/food7.png"" style=""width:200px; border:14px solid green;"">","null","","","","","",""
"","image-keyboard-response","92","80288","0.0-92.0","3MRNMEIQW6SIA77RZKEW2J1IW1OLDH","AOAZMLP27GD81","368IUKXGA5U7UZ9GQNUNOB4MGE4P6M","","589.5","img/food6.png","75","589.7999999970198","1","0","1","0.8,0.2,0.8,0.2,0.2,0.8,0.2,0.8",""
"","html-keyboard-response","93","80589","0.0-93.0","3MRNMEIQW6SIA77RZKEW2J1IW1OLDH","AOAZMLP27GD81","368IUKXGA5U7UZ9GQNUNOB4MGE4P6M","","null","<img src=""img/food6.png"" style=""width:200px;border:14px solid red;"">","null","","","","","",""
"","image-keyboard-response","94","81281","0.0-94.0","3MRNMEIQW6SIA77RZKEW2J1IW1OLDH","AOAZMLP27GD81","368IUKXGA5U7UZ9GQNUNOB4MGE4P6M","","692.1000000014901","img/food2.png","76","692.5","2","0","2","0.8,0.2,0.8,0.2,0.2,0.8,0.2,0.8",""
"","html-keyboard-response","95","81583","0.0-95.0","3MRNMEIQW6SIA77RZKEW2J1IW1OLDH","AOAZMLP27GD81","368IUKXGA5U7UZ9GQNUNOB4MGE4P6M","","null","<img src=""img/food2.png"" style=""width:200px;border:14px solid red;"">","null","","","","","",""
"","image-keyboard-response","96","82312","0.0-96.0","3MRNMEIQW6SIA77RZKEW2J1IW1OLDH","AOAZMLP27GD81","368IUKXGA5U7UZ9GQNUNOB4MGE4P6M","","728.7999999970198","img/food7.png","76","729","2","1","3","0.8,0.2,0.8,0.2,0.2,0.8,0.2,0.8",""
"","html-keyboard-response","97","82614","0.0-97.0","3MRNMEIQW6SIA77RZKEW2J1IW1OLDH","AOAZMLP27GD81","368IUKXGA5U7UZ9GQNUNOB4MGE4P6M","","null","<img src=""img/food7.png"" style=""width:200px; border:14px solid green;"">","null","","","","","",""
"","image-keyboard-response","98","83157","0.0-98.0","3MRNMEIQW6SIA77RZKEW2J1IW1OLDH","AOAZMLP27GD81","368IUKXGA5U7UZ9GQNUNOB4MGE4P6M","","542.3999999985099","img/food2.png","76","542.8999999985099","2","1","2","0.8,0.2,0.8,0.2,0.2,0.8,0.2,0.8",""
"","html-keyboard-response","99","83459","0.0-99.0","3MRNMEIQW6SIA77RZKEW2J1IW1OLDH","AOAZMLP27GD81","368IUKXGA5U7UZ9GQNUNOB4MGE4P6M","","null","<img src=""img/food2.png"" style=""width:200px; border:14px solid green;"">","null","","","","","",""
"","image-keyboard-response","100","83834","0.0-100.0","3MRNMEIQW6SIA77RZKEW2J1IW1OLDH","AOAZMLP27GD81","368IUKXGA5U7UZ9GQNUNOB4MGE4P6M","","374.6000000014901","img/food2.png","76","374.8999999985099","2","0","2","0.8,0.2,0.8,0.2,0.2,0.8,0.2,0.8",""
"","html-keyboard-response","101","84136","0.0-101.0","3MRNMEIQW6SIA77RZKEW2J1IW1OLDH","AOAZMLP27GD81","368IUKXGA5U7UZ9GQNUNOB4MGE4P6M","","null","<img src=""img/food2.png"" style=""width:200px;border:14px solid red;"">","null","","","","","",""
"","image-keyboard-response","102","84742","0.0-102.0","3MRNMEIQW6SIA77RZKEW2J1IW1OLDH","AOAZMLP27GD81","368IUKXGA5U7UZ9GQNUNOB4MGE4P6M","","606","img/food7.png","76","606.3999999985099","2","0","3","0.8,0.2,0.8,0.2,0.2,0.8,0.2,0.8",""
"","html-keyboard-response","103","85043","0.0-103.0","3MRNMEIQW6SIA77RZKEW2J1IW1OLDH","AOAZMLP27GD81","368IUKXGA5U7UZ9GQNUNOB4MGE4P6M","","null","<img src=""img/food7.png"" style=""width:200px;border:14px solid red;"">","null","","","","","",""
"","image-keyboard-response","104","85607","0.0-104.0","3MRNMEIQW6SIA77RZKEW2J1IW1OLDH","AOAZMLP27GD81","368IUKXGA5U7UZ9GQNUNOB4MGE4P6M","","563.6999999955297","img/food1.png","76","564.2000000029802","2","0","4","0.8,0.2,0.8,0.2,0.2,0.8,0.2,0.8",""
"","html-keyboard-response","105","85909","0.0-105.0","3MRNMEIQW6SIA77RZKEW2J1IW1OLDH","AOAZMLP27GD81","368IUKXGA5U7UZ9GQNUNOB4MGE4P6M","","null","<img src=""img/food1.png"" style=""width:200px;border:14px solid red;"">","null","","","","","",""
"","image-keyboard-response","106","86585","0.0-106.0","3MRNMEIQW6SIA77RZKEW2J1IW1OLDH","AOAZMLP27GD81","368IUKXGA5U7UZ9GQNUNOB4MGE4P6M","","675.5","img/food2.png","76","676","2","1","2","0.8,0.2,0.8,0.2,0.2,0.8,0.2,0.8",""
"","html-keyboard-response","107","86887","0.0-107.0","3MRNMEIQW6SIA77RZKEW2J1IW1OLDH","AOAZMLP27GD81","368IUKXGA5U7UZ9GQNUNOB4MGE4P6M","","null","<img src=""img/food2.png"" style=""width:200px; border:14px solid green;"">","null","","","","","",""
"","image-keyboard-response","108","87386","0.0-108.0","3MRNMEIQW6SIA77RZKEW2J1IW1OLDH","AOAZMLP27GD81","368IUKXGA5U7UZ9GQNUNOB4MGE4P6M","","498.79999999701977","img/food1.png","76","499.30000000447035","2","1","4","0.8,0.2,0.8,0.2,0.2,0.8,0.2,0.8",""
"","html-keyboard-response","109","87688","0.0-109.0","3MRNMEIQW6SIA77RZKEW2J1IW1OLDH","AOAZMLP27GD81","368IUKXGA5U7UZ9GQNUNOB4MGE4P6M","","null","<img src=""img/food1.png"" style=""width:200px; border:14px solid green;"">","null","","","","","",""
"","image-keyboard-response","110","88229","0.0-110.0","3MRNMEIQW6SIA77RZKEW2J1IW1OLDH","AOAZMLP27GD81","368IUKXGA5U7UZ9GQNUNOB4MGE4P6M","","540.5","img/food7.png","76","541","2","0","3","0.8,0.2,0.8,0.2,0.2,0.8,0.2,0.8",""
"","html-keyboard-response","111","88530","0.0-111.0","3MRNMEIQW6SIA77RZKEW2J1IW1OLDH","AOAZMLP27GD81","368IUKXGA5U7UZ9GQNUNOB4MGE4P6M","","null","<img src=""img/food7.png"" style=""width:200px;border:14px solid red;"">","null","","","","","",""
"","image-keyboard-response","112","89142","0.0-112.0","3MRNMEIQW6SIA77RZKEW2J1IW1OLDH","AOAZMLP27GD81","368IUKXGA5U7UZ9GQNUNOB4MGE4P6M","","611.2999999970198","img/food1.png","76","611.6000000014901","2","0","4","0.8,0.2,0.8,0.2,0.2,0.8,0.2,0.8",""
"","html-keyboard-response","113","89443","0.0-113.0","3MRNMEIQW6SIA77RZKEW2J1IW1OLDH","AOAZMLP27GD81","368IUKXGA5U7UZ9GQNUNOB4MGE4P6M","","null","<img src=""img/food1.png"" style=""width:200px;border:14px solid red;"">","null","","","","","",""
"","image-keyboard-response","114","89910","0.0-114.0","3MRNMEIQW6SIA77RZKEW2J1IW1OLDH","AOAZMLP27GD81","368IUKXGA5U7UZ9GQNUNOB4MGE4P6M","","466.8999999985099","img/food7.png","76","467.29999999701977","2","1","3","0.8,0.2,0.8,0.2,0.2,0.8,0.2,0.8",""
"","html-keyboard-response","115","90211","0.0-115.0","3MRNMEIQW6SIA77RZKEW2J1IW1OLDH","AOAZMLP27GD81","368IUKXGA5U7UZ9GQNUNOB4MGE4P6M","","null","<img src=""img/food7.png"" style=""width:200px; border:14px solid green;"">","null","","","","","",""
"","image-keyboard-response","116","91066","0.0-116.0","3MRNMEIQW6SIA77RZKEW2J1IW1OLDH","AOAZMLP27GD81","368IUKXGA5U7UZ9GQNUNOB4MGE4P6M","","853.6999999955297","img/food2.png","76","854","2","0","2","0.8,0.2,0.8,0.2,0.2,0.8,0.2,0.8",""
"","html-keyboard-response","117","91367","0.0-117.0","3MRNMEIQW6SIA77RZKEW2J1IW1OLDH","AOAZMLP27GD81","368IUKXGA5U7UZ9GQNUNOB4MGE4P6M","","null","<img src=""img/food2.png"" style=""width:200px;border:14px solid red;"">","null","","","","","",""
"","image-keyboard-response","118","91874","0.0-118.0","3MRNMEIQW6SIA77RZKEW2J1IW1OLDH","AOAZMLP27GD81","368IUKXGA5U7UZ9GQNUNOB4MGE4P6M","","507.1000000014901","img/food1.png","76","507.5","2","1","4","0.8,0.2,0.8,0.2,0.2,0.8,0.2,0.8",""
"","html-keyboard-response","119","92175","0.0-119.0","3MRNMEIQW6SIA77RZKEW2J1IW1OLDH","AOAZMLP27GD81","368IUKXGA5U7UZ9GQNUNOB4MGE4P6M","","null","<img src=""img/food1.png"" style=""width:200px; border:14px solid green;"">","null","","","","","",""
"","image-keyboard-response","120","92615","0.0-120.0","3MRNMEIQW6SIA77RZKEW2J1IW1OLDH","AOAZMLP27GD81","368IUKXGA5U7UZ9GQNUNOB4MGE4P6M","","439.79999999701977","img/food2.png","76","440.1000000014901","2","0","2","0.8,0.2,0.8,0.2,0.2,0.8,0.2,0.8",""
"","html-keyboard-response","121","92917","0.0-121.0","3MRNMEIQW6SIA77RZKEW2J1IW1OLDH","AOAZMLP27GD81","368IUKXGA5U7UZ9GQNUNOB4MGE4P6M","","null","<img src=""img/food2.png"" style=""width:200px;border:14px solid red;"">","null","","","","","",""
"","image-keyboard-response","122","93385","0.0-122.0","3MRNMEIQW6SIA77RZKEW2J1IW1OLDH","AOAZMLP27GD81","368IUKXGA5U7UZ9GQNUNOB4MGE4P6M","","467.09999999403954","img/food6.png","75","467.70000000298023","1","1","1","0.8,0.2,0.8,0.2,0.2,0.8,0.2,0.8",""
"","html-keyboard-response","123","93685","0.0-123.0","3MRNMEIQW6SIA77RZKEW2J1IW1OLDH","AOAZMLP27GD81","368IUKXGA5U7UZ9GQNUNOB4MGE4P6M","","null","<img src=""img/food6.png"" style=""width:200px; border:14px solid green;"">","null","","","","","",""
"","image-keyboard-response","124","94302","0.0-124.0","3MRNMEIQW6SIA77RZKEW2J1IW1OLDH","AOAZMLP27GD81","368IUKXGA5U7UZ9GQNUNOB4MGE4P6M","","616.5","img/food7.png","76","617","2","1","3","0.8,0.2,0.8,0.2,0.2,0.8,0.2,0.8",""
"","html-keyboard-response","125","94605","0.0-125.0","3MRNMEIQW6SIA77RZKEW2J1IW1OLDH","AOAZMLP27GD81","368IUKXGA5U7UZ9GQNUNOB4MGE4P6M","","null","<img src=""img/food7.png"" style=""width:200px; border:14px solid green;"">","null","","","","","",""
"","image-keyboard-response","126","95732","0.0-126.0","3MRNMEIQW6SIA77RZKEW2J1IW1OLDH","AOAZMLP27GD81","368IUKXGA5U7UZ9GQNUNOB4MGE4P6M","","1127.5","img/food2.png","76","1127.7999999970198","2","0","2","0.8,0.2,0.8,0.2,0.2,0.8,0.2,0.8",""
"","html-keyboard-response","127","96033","0.0-127.0","3MRNMEIQW6SIA77RZKEW2J1IW1OLDH","AOAZMLP27GD81","368IUKXGA5U7UZ9GQNUNOB4MGE4P6M","","null","<img src=""img/food2.png"" style=""width:200px;border:14px solid red;"">","null","","","","","",""
"","image-keyboard-response","128","96403","0.0-128.0","3MRNMEIQW6SIA77RZKEW2J1IW1OLDH","AOAZMLP27GD81","368IUKXGA5U7UZ9GQNUNOB4MGE4P6M","","369.29999999701977","img/food2.png","76","369.70000000298023","2","0","2","0.8,0.2,0.8,0.2,0.2,0.8,0.2,0.8",""
"","html-keyboard-response","129","96705","0.0-129.0","3MRNMEIQW6SIA77RZKEW2J1IW1OLDH","AOAZMLP27GD81","368IUKXGA5U7UZ9GQNUNOB4MGE4P6M","","null","<img src=""img/food2.png"" style=""width:200px;border:14px solid red;"">","null","","","","","",""
"","image-keyboard-response","130","97126","0.0-130.0","3MRNMEIQW6SIA77RZKEW2J1IW1OLDH","AOAZMLP27GD81","368IUKXGA5U7UZ9GQNUNOB4MGE4P6M","","420.29999999701977","img/food6.png","76","420.70000000298023","2","0","1","0.8,0.2,0.8,0.2,0.2,0.8,0.2,0.8",""
"","html-keyboard-response","131","97428","0.0-131.0","3MRNMEIQW6SIA77RZKEW2J1IW1OLDH","AOAZMLP27GD81","368IUKXGA5U7UZ9GQNUNOB4MGE4P6M","","null","<img src=""img/food6.png"" style=""width:200px;border:14px solid red;"">","null","","","","","",""
"","image-keyboard-response","132","98244","0.0-132.0","3MRNMEIQW6SIA77RZKEW2J1IW1OLDH","AOAZMLP27GD81","368IUKXGA5U7UZ9GQNUNOB4MGE4P6M","","816.1999999955297","img/food2.png","76","816.6000000014901","2","0","2","0.8,0.2,0.8,0.2,0.2,0.8,0.2,0.8",""
"","html-keyboard-response","133","98546","0.0-133.0","3MRNMEIQW6SIA77RZKEW2J1IW1OLDH","AOAZMLP27GD81","368IUKXGA5U7UZ9GQNUNOB4MGE4P6M","","null","<img src=""img/food2.png"" style=""width:200px;border:14px solid red;"">","null","","","","","",""
"","image-keyboard-response","134","99143","0.0-134.0","3MRNMEIQW6SIA77RZKEW2J1IW1OLDH","AOAZMLP27GD81","368IUKXGA5U7UZ9GQNUNOB4MGE4P6M","","596.8999999985099","img/food2.png","76","597.2000000029802","2","0","2","0.8,0.2,0.8,0.2,0.2,0.8,0.2,0.8",""
"","html-keyboard-response","135","99445","0.0-135.0","3MRNMEIQW6SIA77RZKEW2J1IW1OLDH","AOAZMLP27GD81","368IUKXGA5U7UZ9GQNUNOB4MGE4P6M","","null","<img src=""img/food2.png"" style=""width:200px;border:14px solid red;"">","null","","","","","",""
"","image-keyboard-response","136","100225","0.0-136.0","3MRNMEIQW6SIA77RZKEW2J1IW1OLDH","AOAZMLP27GD81","368IUKXGA5U7UZ9GQNUNOB4MGE4P6M","","779.6000000014901","img/food7.png","76","780.1000000014901","2","1","3","0.8,0.2,0.8,0.2,0.2,0.8,0.2,0.8",""
"","html-keyboard-response","137","100526","0.0-137.0","3MRNMEIQW6SIA77RZKEW2J1IW1OLDH","AOAZMLP27GD81","368IUKXGA5U7UZ9GQNUNOB4MGE4P6M","","null","<img src=""img/food7.png"" style=""width:200px; border:14px solid green;"">","null","","","","","",""
"","image-keyboard-response","138","101278","0.0-138.0","3MRNMEIQW6SIA77RZKEW2J1IW1OLDH","AOAZMLP27GD81","368IUKXGA5U7UZ9GQNUNOB4MGE4P6M","","751.5","img/food6.png","75","751.7999999970198","1","1","1","0.8,0.2,0.8,0.2,0.2,0.8,0.2,0.8",""
"","html-keyboard-response","139","101580","0.0-139.0","3MRNMEIQW6SIA77RZKEW2J1IW1OLDH","AOAZMLP27GD81","368IUKXGA5U7UZ9GQNUNOB4MGE4P6M","","null","<img src=""img/food6.png"" style=""width:200px; border:14px solid green;"">","null","","","","","",""
"","image-keyboard-response","140","102374","0.0-140.0","3MRNMEIQW6SIA77RZKEW2J1IW1OLDH","AOAZMLP27GD81","368IUKXGA5U7UZ9GQNUNOB4MGE4P6M","","793.8999999985099","img/food7.png","76","794.3999999985099","2","1","3","0.8,0.2,0.8,0.2,0.2,0.8,0.2,0.8",""
"","html-keyboard-response","141","102675","0.0-141.0","3MRNMEIQW6SIA77RZKEW2J1IW1OLDH","AOAZMLP27GD81","368IUKXGA5U7UZ9GQNUNOB4MGE4P6M","","null","<img src=""img/food7.png"" style=""width:200px; border:14px solid green;"">","null","","","","","",""
"","image-keyboard-response","142","103709","0.0-142.0","3MRNMEIQW6SIA77RZKEW2J1IW1OLDH","AOAZMLP27GD81","368IUKXGA5U7UZ9GQNUNOB4MGE4P6M","","1033.2999999970198","img/food1.png","76","1033.5","2","1","4","0.8,0.2,0.8,0.2,0.2,0.8,0.2,0.8",""
"","html-keyboard-response","143","104011","0.0-143.0","3MRNMEIQW6SIA77RZKEW2J1IW1OLDH","AOAZMLP27GD81","368IUKXGA5U7UZ9GQNUNOB4MGE4P6M","","null","<img src=""img/food1.png"" style=""width:200px; border:14px solid green;"">","null","","","","","",""
"","image-keyboard-response","144","104488","0.0-144.0","3MRNMEIQW6SIA77RZKEW2J1IW1OLDH","AOAZMLP27GD81","368IUKXGA5U7UZ9GQNUNOB4MGE4P6M","","476.8999999985099","img/food2.png","75","477.20000000298023","1","1","2","0.8,0.2,0.8,0.2,0.2,0.8,0.2,0.8",""
"","html-keyboard-response","145","104790","0.0-145.0","3MRNMEIQW6SIA77RZKEW2J1IW1OLDH","AOAZMLP27GD81","368IUKXGA5U7UZ9GQNUNOB4MGE4P6M","","null","<img src=""img/food2.png"" style=""width:200px; border:14px solid green;"">","null","","","","","",""
"","image-keyboard-response","146","105652","0.0-146.0","3MRNMEIQW6SIA77RZKEW2J1IW1OLDH","AOAZMLP27GD81","368IUKXGA5U7UZ9GQNUNOB4MGE4P6M","","861.9000000059605","img/food7.png","76","862.1999999955297","2","1","3","0.8,0.2,0.8,0.2,0.2,0.8,0.2,0.8",""
"","html-keyboard-response","147","105954","0.0-147.0","3MRNMEIQW6SIA77RZKEW2J1IW1OLDH","AOAZMLP27GD81","368IUKXGA5U7UZ9GQNUNOB4MGE4P6M","","null","<img src=""img/food7.png"" style=""width:200px; border:14px solid green;"">","null","","","","","",""
"","image-keyboard-response","148","107276","0.0-148.0","3MRNMEIQW6SIA77RZKEW2J1IW1OLDH","AOAZMLP27GD81","368IUKXGA5U7UZ9GQNUNOB4MGE4P6M","","1321.6000000014901","img/food1.png","76","1322","2","0","4","0.8,0.2,0.8,0.2,0.2,0.8,0.2,0.8",""
"","html-keyboard-response","149","107578","0.0-149.0","3MRNMEIQW6SIA77RZKEW2J1IW1OLDH","AOAZMLP27GD81","368IUKXGA5U7UZ9GQNUNOB4MGE4P6M","","null","<img src=""img/food1.png"" style=""width:200px;border:14px solid red;"">","null","","","","","",""
"","image-keyboard-response","150","108359","0.0-150.0","3MRNMEIQW6SIA77RZKEW2J1IW1OLDH","AOAZMLP27GD81","368IUKXGA5U7UZ9GQNUNOB4MGE4P6M","","780.3999999985099","img/food2.png","75","781","1","1","2","0.8,0.2,0.8,0.2,0.2,0.8,0.2,0.8",""
"","html-keyboard-response","151","108659","0.0-151.0","3MRNMEIQW6SIA77RZKEW2J1IW1OLDH","AOAZMLP27GD81","368IUKXGA5U7UZ9GQNUNOB4MGE4P6M","","null","<img src=""img/food2.png"" style=""width:200px; border:14px solid green;"">","null","","","","","",""
"","image-keyboard-response","152","109390","0.0-152.0","3MRNMEIQW6SIA77RZKEW2J1IW1OLDH","AOAZMLP27GD81","368IUKXGA5U7UZ9GQNUNOB4MGE4P6M","","730.2000000029802","img/food1.png","76","730.6000000014901","2","1","4","0.8,0.2,0.8,0.2,0.2,0.8,0.2,0.8",""
"","html-keyboard-response","153","109692","0.0-153.0","3MRNMEIQW6SIA77RZKEW2J1IW1OLDH","AOAZMLP27GD81","368IUKXGA5U7UZ9GQNUNOB4MGE4P6M","","null","<img src=""img/food1.png"" style=""width:200px; border:14px solid green;"">","null","","","","","",""
"","image-keyboard-response","154","110291","0.0-154.0","3MRNMEIQW6SIA77RZKEW2J1IW1OLDH","AOAZMLP27GD81","368IUKXGA5U7UZ9GQNUNOB4MGE4P6M","","598.7999999970198","img/food7.png","76","599.1000000014901","2","1","3","0.8,0.2,0.8,0.2,0.2,0.8,0.2,0.8",""
"","html-keyboard-response","155","110593","0.0-155.0","3MRNMEIQW6SIA77RZKEW2J1IW1OLDH","AOAZMLP27GD81","368IUKXGA5U7UZ9GQNUNOB4MGE4P6M","","null","<img src=""img/food7.png"" style=""width:200px; border:14px solid green;"">","null","","","","","",""
"","image-keyboard-response","156","111189","0.0-156.0","3MRNMEIQW6SIA77RZKEW2J1IW1OLDH","AOAZMLP27GD81","368IUKXGA5U7UZ9GQNUNOB4MGE4P6M","","595.9000000059605","img/food6.png","75","596.1999999955297","1","1","1","0.8,0.2,0.8,0.2,0.2,0.8,0.2,0.8",""
"","html-keyboard-response","157","111490","0.0-157.0","3MRNMEIQW6SIA77RZKEW2J1IW1OLDH","AOAZMLP27GD81","368IUKXGA5U7UZ9GQNUNOB4MGE4P6M","","null","<img src=""img/food6.png"" style=""width:200px; border:14px solid green;"">","null","","","","","",""
"","image-keyboard-response","158","112191","0.0-158.0","3MRNMEIQW6SIA77RZKEW2J1IW1OLDH","AOAZMLP27GD81","368IUKXGA5U7UZ9GQNUNOB4MGE4P6M","","700.1000000014901","img/food7.png","76","700.3999999985099","2","1","3","0.8,0.2,0.8,0.2,0.2,0.8,0.2,0.8",""
"","html-keyboard-response","159","112491","0.0-159.0","3MRNMEIQW6SIA77RZKEW2J1IW1OLDH","AOAZMLP27GD81","368IUKXGA5U7UZ9GQNUNOB4MGE4P6M","","null","<img src=""img/food7.png"" style=""width:200px; border:14px solid green;"">","null","","","","","",""
"","image-keyboard-response","160","113127","0.0-160.0","3MRNMEIQW6SIA77RZKEW2J1IW1OLDH","AOAZMLP27GD81","368IUKXGA5U7UZ9GQNUNOB4MGE4P6M","","635.8000000044703","img/food6.png","75","636","1","0","1","0.8,0.2,0.8,0.2,0.2,0.8,0.2,0.8",""
"","html-keyboard-response","161","113429","0.0-161.0","3MRNMEIQW6SIA77RZKEW2J1IW1OLDH","AOAZMLP27GD81","368IUKXGA5U7UZ9GQNUNOB4MGE4P6M","","null","<img src=""img/food6.png"" style=""width:200px;border:14px solid red;"">","null","","","","","",""
"","image-keyboard-response","162","113993","0.0-162.0","3MRNMEIQW6SIA77RZKEW2J1IW1OLDH","AOAZMLP27GD81","368IUKXGA5U7UZ9GQNUNOB4MGE4P6M","","563.8999999985099","img/food2.png","75","564.1999999955297","1","0","2","0.8,0.2,0.8,0.2,0.2,0.8,0.2,0.8",""
"","html-keyboard-response","163","114295","0.0-163.0","3MRNMEIQW6SIA77RZKEW2J1IW1OLDH","AOAZMLP27GD81","368IUKXGA5U7UZ9GQNUNOB4MGE4P6M","","null","<img src=""img/food2.png"" style=""width:200px;border:14px solid red;"">","null","","","","","",""
"","image-keyboard-response","164","117081","0.0-164.0","3MRNMEIQW6SIA77RZKEW2J1IW1OLDH","AOAZMLP27GD81","368IUKXGA5U7UZ9GQNUNOB4MGE4P6M","","2785.2999999970198","img/food1.png","75","2785.7999999970198","1","0","4","0.8,0.2,0.8,0.2,0.2,0.8,0.2,0.8",""
"","html-keyboard-response","165","117382","0.0-165.0","3MRNMEIQW6SIA77RZKEW2J1IW1OLDH","AOAZMLP27GD81","368IUKXGA5U7UZ9GQNUNOB4MGE4P6M","","null","<img src=""img/food1.png"" style=""width:200px;border:14px solid red;"">","null","","","","","",""
"","image-keyboard-response","166","118126","0.0-166.0","3MRNMEIQW6SIA77RZKEW2J1IW1OLDH","AOAZMLP27GD81","368IUKXGA5U7UZ9GQNUNOB4MGE4P6M","","744.0999999940395","img/food1.png","75","744.3999999985099","1","1","4","0.8,0.2,0.8,0.2,0.2,0.8,0.2,0.8",""
"","html-keyboard-response","167","118427","0.0-167.0","3MRNMEIQW6SIA77RZKEW2J1IW1OLDH","AOAZMLP27GD81","368IUKXGA5U7UZ9GQNUNOB4MGE4P6M","","null","<img src=""img/food1.png"" style=""width:200px; border:14px solid green;"">","null","","","","","",""
"","image-keyboard-response","168","119214","0.0-168.0","3MRNMEIQW6SIA77RZKEW2J1IW1OLDH","AOAZMLP27GD81","368IUKXGA5U7UZ9GQNUNOB4MGE4P6M","","786.3999999985099","img/food6.png","75","786.6000000014901","1","1","1","0.8,0.2,0.8,0.2,0.2,0.8,0.2,0.8",""
"","html-keyboard-response","169","119515","0.0-169.0","3MRNMEIQW6SIA77RZKEW2J1IW1OLDH","AOAZMLP27GD81","368IUKXGA5U7UZ9GQNUNOB4MGE4P6M","","null","<img src=""img/food6.png"" style=""width:200px; border:14px solid green;"">","null","","","","","",""
"","image-keyboard-response","170","119958","0.0-170.0","3MRNMEIQW6SIA77RZKEW2J1IW1OLDH","AOAZMLP27GD81","368IUKXGA5U7UZ9GQNUNOB4MGE4P6M","","442.79999999701977","img/food6.png","75","443.1000000014901","1","1","1","0.8,0.2,0.8,0.2,0.2,0.8,0.2,0.8",""
"","html-keyboard-response","171","120260","0.0-171.0","3MRNMEIQW6SIA77RZKEW2J1IW1OLDH","AOAZMLP27GD81","368IUKXGA5U7UZ9GQNUNOB4MGE4P6M","","null","<img src=""img/food6.png"" style=""width:200px; border:14px solid green;"">","null","","","","","",""
"","image-keyboard-response","172","120953","0.0-172.0","3MRNMEIQW6SIA77RZKEW2J1IW1OLDH","AOAZMLP27GD81","368IUKXGA5U7UZ9GQNUNOB4MGE4P6M","","693.3000000044703","img/food1.png","76","693.7999999970198","2","1","4","0.8,0.2,0.8,0.2,0.2,0.8,0.2,0.8",""
"","html-keyboard-response","173","121255","0.0-173.0","3MRNMEIQW6SIA77RZKEW2J1IW1OLDH","AOAZMLP27GD81","368IUKXGA5U7UZ9GQNUNOB4MGE4P6M","","null","<img src=""img/food1.png"" style=""width:200px; border:14px solid green;"">","null","","","","","",""
"","image-keyboard-response","174","121893","0.0-174.0","3MRNMEIQW6SIA77RZKEW2J1IW1OLDH","AOAZMLP27GD81","368IUKXGA5U7UZ9GQNUNOB4MGE4P6M","","638.4000000059605","img/food7.png","76","638.5999999940395","2","1","3","0.8,0.2,0.8,0.2,0.2,0.8,0.2,0.8",""
"","html-keyboard-response","175","122196","0.0-175.0","3MRNMEIQW6SIA77RZKEW2J1IW1OLDH","AOAZMLP27GD81","368IUKXGA5U7UZ9GQNUNOB4MGE4P6M","","null","<img src=""img/food7.png"" style=""width:200px; border:14px solid green;"">","null","","","","","",""
"","image-keyboard-response","176","122803","0.0-176.0","3MRNMEIQW6SIA77RZKEW2J1IW1OLDH","AOAZMLP27GD81","368IUKXGA5U7UZ9GQNUNOB4MGE4P6M","","607.0999999940395","img/food2.png","75","607.5","1","0","2","0.8,0.2,0.8,0.2,0.2,0.8,0.2,0.8",""
"","html-keyboard-response","177","123104","0.0-177.0","3MRNMEIQW6SIA77RZKEW2J1IW1OLDH","AOAZMLP27GD81","368IUKXGA5U7UZ9GQNUNOB4MGE4P6M","","null","<img src=""img/food2.png"" style=""width:200px;border:14px solid red;"">","null","","","","","",""
"","image-keyboard-response","178","125396","0.0-178.0","3MRNMEIQW6SIA77RZKEW2J1IW1OLDH","AOAZMLP27GD81","368IUKXGA5U7UZ9GQNUNOB4MGE4P6M","","2290.60000000149","img/food2.png","76","2290.89999999851","2","0","2","0.8,0.2,0.8,0.2,0.2,0.8,0.2,0.8",""
"","html-keyboard-response","179","125698","0.0-179.0","3MRNMEIQW6SIA77RZKEW2J1IW1OLDH","AOAZMLP27GD81","368IUKXGA5U7UZ9GQNUNOB4MGE4P6M","","null","<img src=""img/food2.png"" style=""width:200px;border:14px solid red;"">","null","","","","","",""
"","image-keyboard-response","180","126393","0.0-180.0","3MRNMEIQW6SIA77RZKEW2J1IW1OLDH","AOAZMLP27GD81","368IUKXGA5U7UZ9GQNUNOB4MGE4P6M","","694.6999999955297","img/food7.png","76","695","2","1","3","0.8,0.2,0.8,0.2,0.2,0.8,0.2,0.8",""
"","html-keyboard-response","181","126694","0.0-181.0","3MRNMEIQW6SIA77RZKEW2J1IW1OLDH","AOAZMLP27GD81","368IUKXGA5U7UZ9GQNUNOB4MGE4P6M","","null","<img src=""img/food7.png"" style=""width:200px; border:14px solid green;"">","null","","","","","",""
"","image-keyboard-response","182","127210","0.0-182.0","3MRNMEIQW6SIA77RZKEW2J1IW1OLDH","AOAZMLP27GD81","368IUKXGA5U7UZ9GQNUNOB4MGE4P6M","","515.1999999955297","img/food2.png","76","515.6000000014901","2","1","2","0.8,0.2,0.8,0.2,0.2,0.8,0.2,0.8",""
"","html-keyboard-response","183","127511","0.0-183.0","3MRNMEIQW6SIA77RZKEW2J1IW1OLDH","AOAZMLP27GD81","368IUKXGA5U7UZ9GQNUNOB4MGE4P6M","","null","<img src=""img/food2.png"" style=""width:200px; border:14px solid green;"">","null","","","","","",""
"","image-keyboard-response","184","128270","0.0-184.0","3MRNMEIQW6SIA77RZKEW2J1IW1OLDH","AOAZMLP27GD81","368IUKXGA5U7UZ9GQNUNOB4MGE4P6M","","758.2999999970198","img/food6.png","75","758.7000000029802","1","1","1","0.8,0.2,0.8,0.2,0.2,0.8,0.2,0.8",""
"","html-keyboard-response","185","128571","0.0-185.0","3MRNMEIQW6SIA77RZKEW2J1IW1OLDH","AOAZMLP27GD81","368IUKXGA5U7UZ9GQNUNOB4MGE4P6M","","null","<img src=""img/food6.png"" style=""width:200px; border:14px solid green;"">","null","","","","","",""
"","image-keyboard-response","186","129283","0.0-186.0","3MRNMEIQW6SIA77RZKEW2J1IW1OLDH","AOAZMLP27GD81","368IUKXGA5U7UZ9GQNUNOB4MGE4P6M","","711.8999999985099","img/food2.png","76","712.2999999970198","2","0","2","0.8,0.2,0.8,0.2,0.2,0.8,0.2,0.8",""
"","html-keyboard-response","187","129584","0.0-187.0","3MRNMEIQW6SIA77RZKEW2J1IW1OLDH","AOAZMLP27GD81","368IUKXGA5U7UZ9GQNUNOB4MGE4P6M","","null","<img src=""img/food2.png"" style=""width:200px;border:14px solid red;"">","null","","","","","",""
"","image-keyboard-response","188","130428","0.0-188.0","3MRNMEIQW6SIA77RZKEW2J1IW1OLDH","AOAZMLP27GD81","368IUKXGA5U7UZ9GQNUNOB4MGE4P6M","","843","img/food6.png","75","843.5","1","1","1","0.8,0.2,0.8,0.2,0.2,0.8,0.2,0.8",""
"","html-keyboard-response","189","130729","0.0-189.0","3MRNMEIQW6SIA77RZKEW2J1IW1OLDH","AOAZMLP27GD81","368IUKXGA5U7UZ9GQNUNOB4MGE4P6M","","null","<img src=""img/food6.png"" style=""width:200px; border:14px solid green;"">","null","","","","","",""
"","image-keyboard-response","190","131380","0.0-190.0","3MRNMEIQW6SIA77RZKEW2J1IW1OLDH","AOAZMLP27GD81","368IUKXGA5U7UZ9GQNUNOB4MGE4P6M","","650.2999999970198","img/food1.png","75","650.7000000029802","1","1","4","0.8,0.2,0.8,0.2,0.2,0.8,0.2,0.8",""
"","html-keyboard-response","191","131682","0.0-191.0","3MRNMEIQW6SIA77RZKEW2J1IW1OLDH","AOAZMLP27GD81","368IUKXGA5U7UZ9GQNUNOB4MGE4P6M","","null","<img src=""img/food1.png"" style=""width:200px; border:14px solid green;"">","null","","","","","",""
"","image-keyboard-response","192","132226","0.0-192.0","3MRNMEIQW6SIA77RZKEW2J1IW1OLDH","AOAZMLP27GD81","368IUKXGA5U7UZ9GQNUNOB4MGE4P6M","","544","img/food2.png","76","544.3000000044703","2","0","2","0.8,0.2,0.8,0.2,0.2,0.8,0.2,0.8",""
"","html-keyboard-response","193","132528","0.0-193.0","3MRNMEIQW6SIA77RZKEW2J1IW1OLDH","AOAZMLP27GD81","368IUKXGA5U7UZ9GQNUNOB4MGE4P6M","","null","<img src=""img/food2.png"" style=""width:200px;border:14px solid red;"">","null","","","","","",""
"","image-keyboard-response","194","133027","0.0-194.0","3MRNMEIQW6SIA77RZKEW2J1IW1OLDH","AOAZMLP27GD81","368IUKXGA5U7UZ9GQNUNOB4MGE4P6M","","498","img/food2.png","76","498.3999999985099","2","1","2","0.8,0.2,0.8,0.2,0.2,0.8,0.2,0.8",""
"","html-keyboard-response","195","133328","0.0-195.0","3MRNMEIQW6SIA77RZKEW2J1IW1OLDH","AOAZMLP27GD81","368IUKXGA5U7UZ9GQNUNOB4MGE4P6M","","null","<img src=""img/food2.png"" style=""width:200px; border:14px solid green;"">","null","","","","","",""
"","image-keyboard-response","196","134085","0.0-196.0","3MRNMEIQW6SIA77RZKEW2J1IW1OLDH","AOAZMLP27GD81","368IUKXGA5U7UZ9GQNUNOB4MGE4P6M","","755.5999999940395","img/food6.png","75","756.6999999955297","1","1","1","0.8,0.2,0.8,0.2,0.2,0.8,0.2,0.8",""
"","html-keyboard-response","197","134386","0.0-197.0","3MRNMEIQW6SIA77RZKEW2J1IW1OLDH","AOAZMLP27GD81","368IUKXGA5U7UZ9GQNUNOB4MGE4P6M","","null","<img src=""img/food6.png"" style=""width:200px; border:14px solid green;"">","null","","","","","",""
"","image-keyboard-response","198","134955","0.0-198.0","3MRNMEIQW6SIA77RZKEW2J1IW1OLDH","AOAZMLP27GD81","368IUKXGA5U7UZ9GQNUNOB4MGE4P6M","","568.7999999970198","img/food7.png","76","569.1000000014901","2","1","3","0.8,0.2,0.8,0.2,0.2,0.8,0.2,0.8",""
"","html-keyboard-response","199","135256","0.0-199.0","3MRNMEIQW6SIA77RZKEW2J1IW1OLDH","AOAZMLP27GD81","368IUKXGA5U7UZ9GQNUNOB4MGE4P6M","","null","<img src=""img/food7.png"" style=""width:200px; border:14px solid green;"">","null","","","","","",""
"","image-keyboard-response","200","136104","0.0-200.0","3MRNMEIQW6SIA77RZKEW2J1IW1OLDH","AOAZMLP27GD81","368IUKXGA5U7UZ9GQNUNOB4MGE4P6M","","847.2000000029802","img/food6.png","75","847.6999999955297","1","1","1","0.8,0.2,0.8,0.2,0.2,0.8,0.2,0.8",""
"","html-keyboard-response","201","136406","0.0-201.0","3MRNMEIQW6SIA77RZKEW2J1IW1OLDH","AOAZMLP27GD81","368IUKXGA5U7UZ9GQNUNOB4MGE4P6M","","null","<img src=""img/food6.png"" style=""width:200px; border:14px solid green;"">","null","","","","","",""
"","image-keyboard-response","202","137600","0.0-202.0","3MRNMEIQW6SIA77RZKEW2J1IW1OLDH","AOAZMLP27GD81","368IUKXGA5U7UZ9GQNUNOB4MGE4P6M","","1193.7000000029802","img/food2.png","76","1194","2","0","2","0.8,0.2,0.8,0.2,0.2,0.8,0.2,0.8",""
"","html-keyboard-response","203","137901","0.0-203.0","3MRNMEIQW6SIA77RZKEW2J1IW1OLDH","AOAZMLP27GD81","368IUKXGA5U7UZ9GQNUNOB4MGE4P6M","","null","<img src=""img/food2.png"" style=""width:200px;border:14px solid red;"">","null","","","","","",""
"","image-keyboard-response","204","138466","0.0-204.0","3MRNMEIQW6SIA77RZKEW2J1IW1OLDH","AOAZMLP27GD81","368IUKXGA5U7UZ9GQNUNOB4MGE4P6M","","564.5","img/food1.png","75","564.7000000029802","1","0","4","0.8,0.2,0.8,0.2,0.2,0.8,0.2,0.8",""
"","html-keyboard-response","205","138768","0.0-205.0","3MRNMEIQW6SIA77RZKEW2J1IW1OLDH","AOAZMLP27GD81","368IUKXGA5U7UZ9GQNUNOB4MGE4P6M","","null","<img src=""img/food1.png"" style=""width:200px;border:14px solid red;"">","null","","","","","",""
"","image-keyboard-response","206","139729","0.0-206.0","3MRNMEIQW6SIA77RZKEW2J1IW1OLDH","AOAZMLP27GD81","368IUKXGA5U7UZ9GQNUNOB4MGE4P6M","","961","img/food6.png","75","961.4000000059605","1","0","1","0.8,0.2,0.8,0.2,0.2,0.8,0.2,0.8",""
"","html-keyboard-response","207","140030","0.0-207.0","3MRNMEIQW6SIA77RZKEW2J1IW1OLDH","AOAZMLP27GD81","368IUKXGA5U7UZ9GQNUNOB4MGE4P6M","","null","<img src=""img/food6.png"" style=""width:200px;border:14px solid red;"">","null","","","","","",""
"","image-keyboard-response","208","140644","0.0-208.0","3MRNMEIQW6SIA77RZKEW2J1IW1OLDH","AOAZMLP27GD81","368IUKXGA5U7UZ9GQNUNOB4MGE4P6M","","613.3000000044703","img/food7.png","76","613.6999999955297","2","1","3","0.8,0.2,0.8,0.2,0.2,0.8,0.2,0.8",""
"","html-keyboard-response","209","140945","0.0-209.0","3MRNMEIQW6SIA77RZKEW2J1IW1OLDH","AOAZMLP27GD81","368IUKXGA5U7UZ9GQNUNOB4MGE4P6M","","null","<img src=""img/food7.png"" style=""width:200px; border:14px solid green;"">","null","","","","","",""
"","image-keyboard-response","210","141616","0.0-210.0","3MRNMEIQW6SIA77RZKEW2J1IW1OLDH","AOAZMLP27GD81","368IUKXGA5U7UZ9GQNUNOB4MGE4P6M","","670.5","img/food2.png","76","671","2","0","2","0.8,0.2,0.8,0.2,0.2,0.8,0.2,0.8",""
"","html-keyboard-response","211","141918","0.0-211.0","3MRNMEIQW6SIA77RZKEW2J1IW1OLDH","AOAZMLP27GD81","368IUKXGA5U7UZ9GQNUNOB4MGE4P6M","","null","<img src=""img/food2.png"" style=""width:200px;border:14px solid red;"">","null","","","","","",""
"","image-keyboard-response","212","142547","0.0-212.0","3MRNMEIQW6SIA77RZKEW2J1IW1OLDH","AOAZMLP27GD81","368IUKXGA5U7UZ9GQNUNOB4MGE4P6M","","628.1999999955297","img/food1.png","75","628.5","1","0","4","0.8,0.2,0.8,0.2,0.2,0.8,0.2,0.8",""
"","html-keyboard-response","213","142848","0.0-213.0","3MRNMEIQW6SIA77RZKEW2J1IW1OLDH","AOAZMLP27GD81","368IUKXGA5U7UZ9GQNUNOB4MGE4P6M","","null","<img src=""img/food1.png"" style=""width:200px;border:14px solid red;"">","null","","","","","",""
"","image-keyboard-response","214","143433","0.0-214.0","3MRNMEIQW6SIA77RZKEW2J1IW1OLDH","AOAZMLP27GD81","368IUKXGA5U7UZ9GQNUNOB4MGE4P6M","","584.6999999955297","img/food6.png","75","585.1000000014901","1","0","1","0.8,0.2,0.8,0.2,0.2,0.8,0.2,0.8",""
"","html-keyboard-response","215","143734","0.0-215.0","3MRNMEIQW6SIA77RZKEW2J1IW1OLDH","AOAZMLP27GD81","368IUKXGA5U7UZ9GQNUNOB4MGE4P6M","","null","<img src=""img/food6.png"" style=""width:200px;border:14px solid red;"">","null","","","","","",""
"","image-keyboard-response","216","144395","0.0-216.0","3MRNMEIQW6SIA77RZKEW2J1IW1OLDH","AOAZMLP27GD81","368IUKXGA5U7UZ9GQNUNOB4MGE4P6M","","660.5","img/food6.png","75","661","1","1","1","0.8,0.2,0.8,0.2,0.2,0.8,0.2,0.8",""
"","html-keyboard-response","217","144696","0.0-217.0","3MRNMEIQW6SIA77RZKEW2J1IW1OLDH","AOAZMLP27GD81","368IUKXGA5U7UZ9GQNUNOB4MGE4P6M","","null","<img src=""img/food6.png"" style=""width:200px; border:14px solid green;"">","null","","","","","",""
"","image-keyboard-response","218","145356","0.0-218.0","3MRNMEIQW6SIA77RZKEW2J1IW1OLDH","AOAZMLP27GD81","368IUKXGA5U7UZ9GQNUNOB4MGE4P6M","","659.3999999985099","img/food1.png","75","659.8999999985099","1","0","4","0.8,0.2,0.8,0.2,0.2,0.8,0.2,0.8",""
"","html-keyboard-response","219","145656","0.0-219.0","3MRNMEIQW6SIA77RZKEW2J1IW1OLDH","AOAZMLP27GD81","368IUKXGA5U7UZ9GQNUNOB4MGE4P6M","","null","<img src=""img/food1.png"" style=""width:200px;border:14px solid red;"">","null","","","","","",""
"","image-keyboard-response","220","146302","0.0-220.0","3MRNMEIQW6SIA77RZKEW2J1IW1OLDH","AOAZMLP27GD81","368IUKXGA5U7UZ9GQNUNOB4MGE4P6M","","645.3999999985099","img/food6.png","75","645.6000000014901","1","1","1","0.8,0.2,0.8,0.2,0.2,0.8,0.2,0.8",""
"","html-keyboard-response","221","146604","0.0-221.0","3MRNMEIQW6SIA77RZKEW2J1IW1OLDH","AOAZMLP27GD81","368IUKXGA5U7UZ9GQNUNOB4MGE4P6M","","null","<img src=""img/food6.png"" style=""width:200px; border:14px solid green;"">","null","","","","","",""
"","image-keyboard-response","222","147111","0.0-222.0","3MRNMEIQW6SIA77RZKEW2J1IW1OLDH","AOAZMLP27GD81","368IUKXGA5U7UZ9GQNUNOB4MGE4P6M","","506.8999999985099","img/food1.png","75","507.30000000447035","1","0","4","0.8,0.2,0.8,0.2,0.2,0.8,0.2,0.8",""
"","html-keyboard-response","223","147412","0.0-223.0","3MRNMEIQW6SIA77RZKEW2J1IW1OLDH","AOAZMLP27GD81","368IUKXGA5U7UZ9GQNUNOB4MGE4P6M","","null","<img src=""img/food1.png"" style=""width:200px;border:14px solid red;"">","null","","","","","",""
"","image-keyboard-response","224","148018","0.0-224.0","3MRNMEIQW6SIA77RZKEW2J1IW1OLDH","AOAZMLP27GD81","368IUKXGA5U7UZ9GQNUNOB4MGE4P6M","","606.1000000014901","img/food2.png","76","606.5","2","0","2","0.8,0.2,0.8,0.2,0.2,0.8,0.2,0.8",""
"","html-keyboard-response","225","148320","0.0-225.0","3MRNMEIQW6SIA77RZKEW2J1IW1OLDH","AOAZMLP27GD81","368IUKXGA5U7UZ9GQNUNOB4MGE4P6M","","null","<img src=""img/food2.png"" style=""width:200px;border:14px solid red;"">","null","","","","","",""
"","image-keyboard-response","226","149020","0.0-226.0","3MRNMEIQW6SIA77RZKEW2J1IW1OLDH","AOAZMLP27GD81","368IUKXGA5U7UZ9GQNUNOB4MGE4P6M","","699.6999999955297","img/food7.png","76","699.8999999985099","2","0","3","0.8,0.2,0.8,0.2,0.2,0.8,0.2,0.8",""
"","html-keyboard-response","227","149322","0.0-227.0","3MRNMEIQW6SIA77RZKEW2J1IW1OLDH","AOAZMLP27GD81","368IUKXGA5U7UZ9GQNUNOB4MGE4P6M","","null","<img src=""img/food7.png"" style=""width:200px;border:14px solid red;"">","null","","","","","",""
"","image-keyboard-response","228","150609","0.0-228.0","3MRNMEIQW6SIA77RZKEW2J1IW1OLDH","AOAZMLP27GD81","368IUKXGA5U7UZ9GQNUNOB4MGE4P6M","","1287","img/food2.png","76","1287.3000000044703","2","0","2","0.8,0.2,0.8,0.2,0.2,0.8,0.2,0.8",""
"","html-keyboard-response","229","150910","0.0-229.0","3MRNMEIQW6SIA77RZKEW2J1IW1OLDH","AOAZMLP27GD81","368IUKXGA5U7UZ9GQNUNOB4MGE4P6M","","null","<img src=""img/food2.png"" style=""width:200px;border:14px solid red;"">","null","","","","","",""
"","image-keyboard-response","230","152342","0.0-230.0","3MRNMEIQW6SIA77RZKEW2J1IW1OLDH","AOAZMLP27GD81","368IUKXGA5U7UZ9GQNUNOB4MGE4P6M","","1431.2999999970198","img/food1.png","75","1431.6000000014901","1","0","4","0.8,0.2,0.8,0.2,0.2,0.8,0.2,0.8",""
"","html-keyboard-response","231","152643","0.0-231.0","3MRNMEIQW6SIA77RZKEW2J1IW1OLDH","AOAZMLP27GD81","368IUKXGA5U7UZ9GQNUNOB4MGE4P6M","","null","<img src=""img/food1.png"" style=""width:200px;border:14px solid red;"">","null","","","","","",""
"","image-keyboard-response","232","153222","0.0-232.0","3MRNMEIQW6SIA77RZKEW2J1IW1OLDH","AOAZMLP27GD81","368IUKXGA5U7UZ9GQNUNOB4MGE4P6M","","578","img/food1.png","76","578.3999999985099","2","1","4","0.8,0.2,0.8,0.2,0.2,0.8,0.2,0.8",""
"","html-keyboard-response","233","153523","0.0-233.0","3MRNMEIQW6SIA77RZKEW2J1IW1OLDH","AOAZMLP27GD81","368IUKXGA5U7UZ9GQNUNOB4MGE4P6M","","null","<img src=""img/food1.png"" style=""width:200px; border:14px solid green;"">","null","","","","","",""
"","image-keyboard-response","234","154665","0.0-234.0","3MRNMEIQW6SIA77RZKEW2J1IW1OLDH","AOAZMLP27GD81","368IUKXGA5U7UZ9GQNUNOB4MGE4P6M","","1140.9000000059605","img/food6.png","76","1141.2999999970198","2","0","1","0.8,0.2,0.8,0.2,0.2,0.8,0.2,0.8",""
"","html-keyboard-response","235","154966","0.0-235.0","3MRNMEIQW6SIA77RZKEW2J1IW1OLDH","AOAZMLP27GD81","368IUKXGA5U7UZ9GQNUNOB4MGE4P6M","","null","<img src=""img/food6.png"" style=""width:200px;border:14px solid red;"">","null","","","","","",""
"","image-keyboard-response","236","155522","0.0-236.0","3MRNMEIQW6SIA77RZKEW2J1IW1OLDH","AOAZMLP27GD81","368IUKXGA5U7UZ9GQNUNOB4MGE4P6M","","555","img/food7.png","75","555.2999999970198","1","0","3","0.8,0.2,0.8,0.2,0.2,0.8,0.2,0.8",""
"","html-keyboard-response","237","155823","0.0-237.0","3MRNMEIQW6SIA77RZKEW2J1IW1OLDH","AOAZMLP27GD81","368IUKXGA5U7UZ9GQNUNOB4MGE4P6M","","null","<img src=""img/food7.png"" style=""width:200px;border:14px solid red;"">","null","","","","","",""
"","image-keyboard-response","238","156590","0.0-238.0","3MRNMEIQW6SIA77RZKEW2J1IW1OLDH","AOAZMLP27GD81","368IUKXGA5U7UZ9GQNUNOB4MGE4P6M","","767","img/food6.png","76","767.0999999940395","2","1","1","0.8,0.2,0.8,0.2,0.2,0.8,0.2,0.8",""
"","html-keyboard-response","239","156892","0.0-239.0","3MRNMEIQW6SIA77RZKEW2J1IW1OLDH","AOAZMLP27GD81","368IUKXGA5U7UZ9GQNUNOB4MGE4P6M","","null","<img src=""img/food6.png"" style=""width:200px; border:14px solid green;"">","null","","","","","",""
"","image-keyboard-response","240","158574","0.0-240.0","3MRNMEIQW6SIA77RZKEW2J1IW1OLDH","AOAZMLP27GD81","368IUKXGA5U7UZ9GQNUNOB4MGE4P6M","","1681.6999999955297","img/food2.png","76","1682","2","0","2","0.8,0.2,0.8,0.2,0.2,0.8,0.2,0.8",""
"","html-keyboard-response","241","158875","0.0-241.0","3MRNMEIQW6SIA77RZKEW2J1IW1OLDH","AOAZMLP27GD81","368IUKXGA5U7UZ9GQNUNOB4MGE4P6M","","null","<img src=""img/food2.png"" style=""width:200px;border:14px solid red;"">","null","","","","","",""
"","html-keyboard-response","242","161272","0.0-242.0","3MRNMEIQW6SIA77RZKEW2J1IW1OLDH","AOAZMLP27GD81","368IUKXGA5U7UZ9GQNUNOB4MGE4P6M","","","","","","","","","",""
"","image-keyboard-response","243","164268","0.0-243.0","3MRNMEIQW6SIA77RZKEW2J1IW1OLDH","AOAZMLP27GD81","368IUKXGA5U7UZ9GQNUNOB4MGE4P6M","","2995.5","img/food3.png","75","2996","1","0","2","0.2,0.8,0.2,0.8,0.2,0.8,0.8,0.2",""
"","html-keyboard-response","244","164570","0.0-244.0","3MRNMEIQW6SIA77RZKEW2J1IW1OLDH","AOAZMLP27GD81","368IUKXGA5U7UZ9GQNUNOB4MGE4P6M","","null","<img src=""img/food3.png"" style=""width:200px;border:14px solid red;"">","null","","","","","",""
"","image-keyboard-response","245","165621","0.0-245.0","3MRNMEIQW6SIA77RZKEW2J1IW1OLDH","AOAZMLP27GD81","368IUKXGA5U7UZ9GQNUNOB4MGE4P6M","","1050.3999999985099","img/food8.png","75","1050.7999999970198","1","1","4","0.2,0.8,0.2,0.8,0.2,0.8,0.8,0.2",""
"","html-keyboard-response","246","165923","0.0-246.0","3MRNMEIQW6SIA77RZKEW2J1IW1OLDH","AOAZMLP27GD81","368IUKXGA5U7UZ9GQNUNOB4MGE4P6M","","null","<img src=""img/food8.png"" style=""width:200px; border:14px solid green;"">","null","","","","","",""
"","image-keyboard-response","247","166934","0.0-247.0","3MRNMEIQW6SIA77RZKEW2J1IW1OLDH","AOAZMLP27GD81","368IUKXGA5U7UZ9GQNUNOB4MGE4P6M","","1010.9000000059605","img/food3.png","76","1011.2999999970198","2","1","2","0.2,0.8,0.2,0.8,0.2,0.8,0.8,0.2",""
"","html-keyboard-response","248","167236","0.0-248.0","3MRNMEIQW6SIA77RZKEW2J1IW1OLDH","AOAZMLP27GD81","368IUKXGA5U7UZ9GQNUNOB4MGE4P6M","","null","<img src=""img/food3.png"" style=""width:200px; border:14px solid green;"">","null","","","","","",""
"","image-keyboard-response","249","167690","0.0-249.0","3MRNMEIQW6SIA77RZKEW2J1IW1OLDH","AOAZMLP27GD81","368IUKXGA5U7UZ9GQNUNOB4MGE4P6M","","453.6000000014901","img/food3.png","76","454","2","1","2","0.2,0.8,0.2,0.8,0.2,0.8,0.8,0.2",""
"","html-keyboard-response","250","167992","0.0-250.0","3MRNMEIQW6SIA77RZKEW2J1IW1OLDH","AOAZMLP27GD81","368IUKXGA5U7UZ9GQNUNOB4MGE4P6M","","null","<img src=""img/food3.png"" style=""width:200px; border:14px solid green;"">","null","","","","","",""
"","image-keyboard-response","251","168807","0.0-251.0","3MRNMEIQW6SIA77RZKEW2J1IW1OLDH","AOAZMLP27GD81","368IUKXGA5U7UZ9GQNUNOB4MGE4P6M","","814.8999999985099","img/food4.png","76","815.3000000044703","2","1","1","0.2,0.8,0.2,0.8,0.2,0.8,0.8,0.2",""
"","html-keyboard-response","252","169108","0.0-252.0","3MRNMEIQW6SIA77RZKEW2J1IW1OLDH","AOAZMLP27GD81","368IUKXGA5U7UZ9GQNUNOB4MGE4P6M","","null","<img src=""img/food4.png"" style=""width:200px; border:14px solid green;"">","null","","","","","",""
"","image-keyboard-response","253","169927","0.0-253.0","3MRNMEIQW6SIA77RZKEW2J1IW1OLDH","AOAZMLP27GD81","368IUKXGA5U7UZ9GQNUNOB4MGE4P6M","","818.1000000014901","img/food5.png","76","818.7000000029802","2","1","3","0.2,0.8,0.2,0.8,0.2,0.8,0.8,0.2",""
"","html-keyboard-response","254","170229","0.0-254.0","3MRNMEIQW6SIA77RZKEW2J1IW1OLDH","AOAZMLP27GD81","368IUKXGA5U7UZ9GQNUNOB4MGE4P6M","","null","<img src=""img/food5.png"" style=""width:200px; border:14px solid green;"">","null","","","","","",""
"","image-keyboard-response","255","170659","0.0-255.0","3MRNMEIQW6SIA77RZKEW2J1IW1OLDH","AOAZMLP27GD81","368IUKXGA5U7UZ9GQNUNOB4MGE4P6M","","429.29999999701977","img/food5.png","76","429.69999999552965","2","1","3","0.2,0.8,0.2,0.8,0.2,0.8,0.8,0.2",""
"","html-keyboard-response","256","170961","0.0-256.0","3MRNMEIQW6SIA77RZKEW2J1IW1OLDH","AOAZMLP27GD81","368IUKXGA5U7UZ9GQNUNOB4MGE4P6M","","null","<img src=""img/food5.png"" style=""width:200px; border:14px solid green;"">","null","","","","","",""
"","image-keyboard-response","257","171577","0.0-257.0","3MRNMEIQW6SIA77RZKEW2J1IW1OLDH","AOAZMLP27GD81","368IUKXGA5U7UZ9GQNUNOB4MGE4P6M","","616.0999999940395","img/food4.png","76","616.3999999985099","2","1","1","0.2,0.8,0.2,0.8,0.2,0.8,0.8,0.2",""
"","html-keyboard-response","258","171879","0.0-258.0","3MRNMEIQW6SIA77RZKEW2J1IW1OLDH","AOAZMLP27GD81","368IUKXGA5U7UZ9GQNUNOB4MGE4P6M","","null","<img src=""img/food4.png"" style=""width:200px; border:14px solid green;"">","null","","","","","",""
"","image-keyboard-response","259","172796","0.0-259.0","3MRNMEIQW6SIA77RZKEW2J1IW1OLDH","AOAZMLP27GD81","368IUKXGA5U7UZ9GQNUNOB4MGE4P6M","","916.6000000014901","img/food8.png","75","917","1","1","4","0.2,0.8,0.2,0.8,0.2,0.8,0.8,0.2",""
"","html-keyboard-response","260","173097","0.0-260.0","3MRNMEIQW6SIA77RZKEW2J1IW1OLDH","AOAZMLP27GD81","368IUKXGA5U7UZ9GQNUNOB4MGE4P6M","","null","<img src=""img/food8.png"" style=""width:200px; border:14px solid green;"">","null","","","","","",""
"","image-keyboard-response","261","173626","0.0-261.0","3MRNMEIQW6SIA77RZKEW2J1IW1OLDH","AOAZMLP27GD81","368IUKXGA5U7UZ9GQNUNOB4MGE4P6M","","527.9000000059605","img/food8.png","75","528.3999999985099","1","1","4","0.2,0.8,0.2,0.8,0.2,0.8,0.8,0.2",""
"","html-keyboard-response","262","173927","0.0-262.0","3MRNMEIQW6SIA77RZKEW2J1IW1OLDH","AOAZMLP27GD81","368IUKXGA5U7UZ9GQNUNOB4MGE4P6M","","null","<img src=""img/food8.png"" style=""width:200px; border:14px solid green;"">","null","","","","","",""
"","image-keyboard-response","263","174477","0.0-263.0","3MRNMEIQW6SIA77RZKEW2J1IW1OLDH","AOAZMLP27GD81","368IUKXGA5U7UZ9GQNUNOB4MGE4P6M","","549.5","img/food3.png","76","549.8999999985099","2","1","2","0.2,0.8,0.2,0.8,0.2,0.8,0.8,0.2",""
"","html-keyboard-response","264","174778","0.0-264.0","3MRNMEIQW6SIA77RZKEW2J1IW1OLDH","AOAZMLP27GD81","368IUKXGA5U7UZ9GQNUNOB4MGE4P6M","","null","<img src=""img/food3.png"" style=""width:200px; border:14px solid green;"">","null","","","","","",""
"","image-keyboard-response","265","175347","0.0-265.0","3MRNMEIQW6SIA77RZKEW2J1IW1OLDH","AOAZMLP27GD81","368IUKXGA5U7UZ9GQNUNOB4MGE4P6M","","567.8999999985099","img/food8.png","75","568.3999999985099","1","1","4","0.2,0.8,0.2,0.8,0.2,0.8,0.8,0.2",""
"","html-keyboard-response","266","175649","0.0-266.0","3MRNMEIQW6SIA77RZKEW2J1IW1OLDH","AOAZMLP27GD81","368IUKXGA5U7UZ9GQNUNOB4MGE4P6M","","null","<img src=""img/food8.png"" style=""width:200px; border:14px solid green;"">","null","","","","","",""
"","image-keyboard-response","267","176056","0.0-267.0","3MRNMEIQW6SIA77RZKEW2J1IW1OLDH","AOAZMLP27GD81","368IUKXGA5U7UZ9GQNUNOB4MGE4P6M","","405.80000000447035","img/food8.png","75","406.29999999701977","1","1","4","0.2,0.8,0.2,0.8,0.2,0.8,0.8,0.2",""
"","html-keyboard-response","268","176356","0.0-268.0","3MRNMEIQW6SIA77RZKEW2J1IW1OLDH","AOAZMLP27GD81","368IUKXGA5U7UZ9GQNUNOB4MGE4P6M","","null","<img src=""img/food8.png"" style=""width:200px; border:14px solid green;"">","null","","","","","",""
"","image-keyboard-response","269","176903","0.0-269.0","3MRNMEIQW6SIA77RZKEW2J1IW1OLDH","AOAZMLP27GD81","368IUKXGA5U7UZ9GQNUNOB4MGE4P6M","","546.2000000029802","img/food5.png","76","546.5","2","1","3","0.2,0.8,0.2,0.8,0.2,0.8,0.8,0.2",""
"","html-keyboard-response","270","177204","0.0-270.0","3MRNMEIQW6SIA77RZKEW2J1IW1OLDH","AOAZMLP27GD81","368IUKXGA5U7UZ9GQNUNOB4MGE4P6M","","null","<img src=""img/food5.png"" style=""width:200px; border:14px solid green;"">","null","","","","","",""
"","image-keyboard-response","271","177834","0.0-271.0","3MRNMEIQW6SIA77RZKEW2J1IW1OLDH","AOAZMLP27GD81","368IUKXGA5U7UZ9GQNUNOB4MGE4P6M","","629.1000000014901","img/food3.png","76","629.5","2","1","2","0.2,0.8,0.2,0.8,0.2,0.8,0.8,0.2",""
"","html-keyboard-response","272","178135","0.0-272.0","3MRNMEIQW6SIA77RZKEW2J1IW1OLDH","AOAZMLP27GD81","368IUKXGA5U7UZ9GQNUNOB4MGE4P6M","","null","<img src=""img/food3.png"" style=""width:200px; border:14px solid green;"">","null","","","","","",""
"","image-keyboard-response","273","178670","0.0-273.0","3MRNMEIQW6SIA77RZKEW2J1IW1OLDH","AOAZMLP27GD81","368IUKXGA5U7UZ9GQNUNOB4MGE4P6M","","534.3999999985099","img/food4.png","76","534.7999999970198","2","1","1","0.2,0.8,0.2,0.8,0.2,0.8,0.8,0.2",""
"","html-keyboard-response","274","178972","0.0-274.0","3MRNMEIQW6SIA77RZKEW2J1IW1OLDH","AOAZMLP27GD81","368IUKXGA5U7UZ9GQNUNOB4MGE4P6M","","null","<img src=""img/food4.png"" style=""width:200px; border:14px solid green;"">","null","","","","","",""
"","image-keyboard-response","275","179468","0.0-275.0","3MRNMEIQW6SIA77RZKEW2J1IW1OLDH","AOAZMLP27GD81","368IUKXGA5U7UZ9GQNUNOB4MGE4P6M","","495.8999999985099","img/food3.png","76","496.69999999552965","2","1","2","0.2,0.8,0.2,0.8,0.2,0.8,0.8,0.2",""
"","html-keyboard-response","276","179771","0.0-276.0","3MRNMEIQW6SIA77RZKEW2J1IW1OLDH","AOAZMLP27GD81","368IUKXGA5U7UZ9GQNUNOB4MGE4P6M","","null","<img src=""img/food3.png"" style=""width:200px; border:14px solid green;"">","null","","","","","",""
"","image-keyboard-response","277","180343","0.0-277.0","3MRNMEIQW6SIA77RZKEW2J1IW1OLDH","AOAZMLP27GD81","368IUKXGA5U7UZ9GQNUNOB4MGE4P6M","","572.1999999955297","img/food5.png","76","572.6000000014901","2","1","3","0.2,0.8,0.2,0.8,0.2,0.8,0.8,0.2",""
"","html-keyboard-response","278","180645","0.0-278.0","3MRNMEIQW6SIA77RZKEW2J1IW1OLDH","AOAZMLP27GD81","368IUKXGA5U7UZ9GQNUNOB4MGE4P6M","","null","<img src=""img/food5.png"" style=""width:200px; border:14px solid green;"">","null","","","","","",""
"","image-keyboard-response","279","181268","0.0-279.0","3MRNMEIQW6SIA77RZKEW2J1IW1OLDH","AOAZMLP27GD81","368IUKXGA5U7UZ9GQNUNOB4MGE4P6M","","622.7999999970198","img/food4.png","76","623.1000000014901","2","1","1","0.2,0.8,0.2,0.8,0.2,0.8,0.8,0.2",""
"","html-keyboard-response","280","181570","0.0-280.0","3MRNMEIQW6SIA77RZKEW2J1IW1OLDH","AOAZMLP27GD81","368IUKXGA5U7UZ9GQNUNOB4MGE4P6M","","null","<img src=""img/food4.png"" style=""width:200px; border:14px solid green;"">","null","","","","","",""
"","image-keyboard-response","281","182190","0.0-281.0","3MRNMEIQW6SIA77RZKEW2J1IW1OLDH","AOAZMLP27GD81","368IUKXGA5U7UZ9GQNUNOB4MGE4P6M","","619.7000000029802","img/food8.png","75","620","1","1","4","0.2,0.8,0.2,0.8,0.2,0.8,0.8,0.2",""
"","html-keyboard-response","282","182492","0.0-282.0","3MRNMEIQW6SIA77RZKEW2J1IW1OLDH","AOAZMLP27GD81","368IUKXGA5U7UZ9GQNUNOB4MGE4P6M","","null","<img src=""img/food8.png"" style=""width:200px; border:14px solid green;"">","null","","","","","",""
"","image-keyboard-response","283","182931","0.0-283.0","3MRNMEIQW6SIA77RZKEW2J1IW1OLDH","AOAZMLP27GD81","368IUKXGA5U7UZ9GQNUNOB4MGE4P6M","","438.30000000447035","img/food8.png","75","438.59999999403954","1","1","4","0.2,0.8,0.2,0.8,0.2,0.8,0.8,0.2",""
"","html-keyboard-response","284","183231","0.0-284.0","3MRNMEIQW6SIA77RZKEW2J1IW1OLDH","AOAZMLP27GD81","368IUKXGA5U7UZ9GQNUNOB4MGE4P6M","","null","<img src=""img/food8.png"" style=""width:200px; border:14px solid green;"">","null","","","","","",""
"","image-keyboard-response","285","183814","0.0-285.0","3MRNMEIQW6SIA77RZKEW2J1IW1OLDH","AOAZMLP27GD81","368IUKXGA5U7UZ9GQNUNOB4MGE4P6M","","581.8000000044703","img/food3.png","76","582.0999999940395","2","1","2","0.2,0.8,0.2,0.8,0.2,0.8,0.8,0.2",""
"","html-keyboard-response","286","184114","0.0-286.0","3MRNMEIQW6SIA77RZKEW2J1IW1OLDH","AOAZMLP27GD81","368IUKXGA5U7UZ9GQNUNOB4MGE4P6M","","null","<img src=""img/food3.png"" style=""width:200px; border:14px solid green;"">","null","","","","","",""
"","image-keyboard-response","287","185012","0.0-287.0","3MRNMEIQW6SIA77RZKEW2J1IW1OLDH","AOAZMLP27GD81","368IUKXGA5U7UZ9GQNUNOB4MGE4P6M","","896.9000000059605","img/food4.png","76","897.5","2","1","1","0.2,0.8,0.2,0.8,0.2,0.8,0.8,0.2",""
"","html-keyboard-response","288","185313","0.0-288.0","3MRNMEIQW6SIA77RZKEW2J1IW1OLDH","AOAZMLP27GD81","368IUKXGA5U7UZ9GQNUNOB4MGE4P6M","","null","<img src=""img/food4.png"" style=""width:200px; border:14px solid green;"">","null","","","","","",""
"","image-keyboard-response","289","185792","0.0-289.0","3MRNMEIQW6SIA77RZKEW2J1IW1OLDH","AOAZMLP27GD81","368IUKXGA5U7UZ9GQNUNOB4MGE4P6M","","478.5","img/food5.png","76","479","2","1","3","0.2,0.8,0.2,0.8,0.2,0.8,0.8,0.2",""
"","html-keyboard-response","290","186093","0.0-290.0","3MRNMEIQW6SIA77RZKEW2J1IW1OLDH","AOAZMLP27GD81","368IUKXGA5U7UZ9GQNUNOB4MGE4P6M","","null","<img src=""img/food5.png"" style=""width:200px; border:14px solid green;"">","null","","","","","",""
"","image-keyboard-response","291","186556","0.0-291.0","3MRNMEIQW6SIA77RZKEW2J1IW1OLDH","AOAZMLP27GD81","368IUKXGA5U7UZ9GQNUNOB4MGE4P6M","","461.79999999701977","img/food8.png","75","462.1000000014901","1","1","4","0.2,0.8,0.2,0.8,0.2,0.8,0.8,0.2",""
"","html-keyboard-response","292","186857","0.0-292.0","3MRNMEIQW6SIA77RZKEW2J1IW1OLDH","AOAZMLP27GD81","368IUKXGA5U7UZ9GQNUNOB4MGE4P6M","","null","<img src=""img/food8.png"" style=""width:200px; border:14px solid green;"">","null","","","","","",""
"","image-keyboard-response","293","187513","0.0-293.0","3MRNMEIQW6SIA77RZKEW2J1IW1OLDH","AOAZMLP27GD81","368IUKXGA5U7UZ9GQNUNOB4MGE4P6M","","656.2999999970198","img/food4.png","76","656.6000000014901","2","1","1","0.2,0.8,0.2,0.8,0.2,0.8,0.8,0.2",""
"","html-keyboard-response","294","187814","0.0-294.0","3MRNMEIQW6SIA77RZKEW2J1IW1OLDH","AOAZMLP27GD81","368IUKXGA5U7UZ9GQNUNOB4MGE4P6M","","null","<img src=""img/food4.png"" style=""width:200px; border:14px solid green;"">","null","","","","","",""
"","image-keyboard-response","295","188253","0.0-295.0","3MRNMEIQW6SIA77RZKEW2J1IW1OLDH","AOAZMLP27GD81","368IUKXGA5U7UZ9GQNUNOB4MGE4P6M","","438.3999999985099","img/food3.png","76","438.70000000298023","2","0","2","0.2,0.8,0.2,0.8,0.2,0.8,0.8,0.2",""
"","html-keyboard-response","296","188554","0.0-296.0","3MRNMEIQW6SIA77RZKEW2J1IW1OLDH","AOAZMLP27GD81","368IUKXGA5U7UZ9GQNUNOB4MGE4P6M","","null","<img src=""img/food3.png"" style=""width:200px;border:14px solid red;"">","null","","","","","",""
"","image-keyboard-response","297","189151","0.0-297.0","3MRNMEIQW6SIA77RZKEW2J1IW1OLDH","AOAZMLP27GD81","368IUKXGA5U7UZ9GQNUNOB4MGE4P6M","","596.5","img/food3.png","76","596.7999999970198","2","0","2","0.2,0.8,0.2,0.8,0.2,0.8,0.8,0.2",""
"","html-keyboard-response","298","189452","0.0-298.0","3MRNMEIQW6SIA77RZKEW2J1IW1OLDH","AOAZMLP27GD81","368IUKXGA5U7UZ9GQNUNOB4MGE4P6M","","null","<img src=""img/food3.png"" style=""width:200px;border:14px solid red;"">","null","","","","","",""
"","image-keyboard-response","299","190309","0.0-299.0","3MRNMEIQW6SIA77RZKEW2J1IW1OLDH","AOAZMLP27GD81","368IUKXGA5U7UZ9GQNUNOB4MGE4P6M","","856.6999999955297","img/food3.png","76","857.2000000029802","2","1","2","0.2,0.8,0.2,0.8,0.2,0.8,0.8,0.2",""
"","html-keyboard-response","300","190611","0.0-300.0","3MRNMEIQW6SIA77RZKEW2J1IW1OLDH","AOAZMLP27GD81","368IUKXGA5U7UZ9GQNUNOB4MGE4P6M","","null","<img src=""img/food3.png"" style=""width:200px; border:14px solid green;"">","null","","","","","",""
"","image-keyboard-response","301","191001","0.0-301.0","3MRNMEIQW6SIA77RZKEW2J1IW1OLDH","AOAZMLP27GD81","368IUKXGA5U7UZ9GQNUNOB4MGE4P6M","","389","img/food3.png","76","389.6000000014901","2","1","2","0.2,0.8,0.2,0.8,0.2,0.8,0.8,0.2",""
"","html-keyboard-response","302","191303","0.0-302.0","3MRNMEIQW6SIA77RZKEW2J1IW1OLDH","AOAZMLP27GD81","368IUKXGA5U7UZ9GQNUNOB4MGE4P6M","","null","<img src=""img/food3.png"" style=""width:200px; border:14px solid green;"">","null","","","","","",""
"","image-keyboard-response","303","191941","0.0-303.0","3MRNMEIQW6SIA77RZKEW2J1IW1OLDH","AOAZMLP27GD81","368IUKXGA5U7UZ9GQNUNOB4MGE4P6M","","637.6000000014901","img/food4.png","76","637.8999999985099","2","0","1","0.2,0.8,0.2,0.8,0.2,0.8,0.8,0.2",""
"","html-keyboard-response","304","192242","0.0-304.0","3MRNMEIQW6SIA77RZKEW2J1IW1OLDH","AOAZMLP27GD81","368IUKXGA5U7UZ9GQNUNOB4MGE4P6M","","null","<img src=""img/food4.png"" style=""width:200px;border:14px solid red;"">","null","","","","","",""
"","image-keyboard-response","305","192952","0.0-305.0","3MRNMEIQW6SIA77RZKEW2J1IW1OLDH","AOAZMLP27GD81","368IUKXGA5U7UZ9GQNUNOB4MGE4P6M","","709.7000000029802","img/food3.png","76","710","2","1","2","0.2,0.8,0.2,0.8,0.2,0.8,0.8,0.2",""
"","html-keyboard-response","306","193253","0.0-306.0","3MRNMEIQW6SIA77RZKEW2J1IW1OLDH","AOAZMLP27GD81","368IUKXGA5U7UZ9GQNUNOB4MGE4P6M","","null","<img src=""img/food3.png"" style=""width:200px; border:14px solid green;"">","null","","","","","",""
"","image-keyboard-response","307","193916","0.0-307.0","3MRNMEIQW6SIA77RZKEW2J1IW1OLDH","AOAZMLP27GD81","368IUKXGA5U7UZ9GQNUNOB4MGE4P6M","","661.8999999985099","img/food5.png","76","662.2999999970198","2","1","3","0.2,0.8,0.2,0.8,0.2,0.8,0.8,0.2",""
"","html-keyboard-response","308","194218","0.0-308.0","3MRNMEIQW6SIA77RZKEW2J1IW1OLDH","AOAZMLP27GD81","368IUKXGA5U7UZ9GQNUNOB4MGE4P6M","","null","<img src=""img/food5.png"" style=""width:200px; border:14px solid green;"">","null","","","","","",""
"","image-keyboard-response","309","194573","0.0-309.0","3MRNMEIQW6SIA77RZKEW2J1IW1OLDH","AOAZMLP27GD81","368IUKXGA5U7UZ9GQNUNOB4MGE4P6M","","354.6000000014901","img/food5.png","76","355","2","1","3","0.2,0.8,0.2,0.8,0.2,0.8,0.8,0.2",""
"","html-keyboard-response","310","194874","0.0-310.0","3MRNMEIQW6SIA77RZKEW2J1IW1OLDH","AOAZMLP27GD81","368IUKXGA5U7UZ9GQNUNOB4MGE4P6M","","null","<img src=""img/food5.png"" style=""width:200px; border:14px solid green;"">","null","","","","","",""
"","image-keyboard-response","311","195510","0.0-311.0","3MRNMEIQW6SIA77RZKEW2J1IW1OLDH","AOAZMLP27GD81","368IUKXGA5U7UZ9GQNUNOB4MGE4P6M","","635.3999999985099","img/food3.png","76","635.8999999985099","2","0","2","0.2,0.8,0.2,0.8,0.2,0.8,0.8,0.2",""
"","html-keyboard-response","312","195812","0.0-312.0","3MRNMEIQW6SIA77RZKEW2J1IW1OLDH","AOAZMLP27GD81","368IUKXGA5U7UZ9GQNUNOB4MGE4P6M","","null","<img src=""img/food3.png"" style=""width:200px;border:14px solid red;"">","null","","","","","",""
"","image-keyboard-response","313","196324","0.0-313.0","3MRNMEIQW6SIA77RZKEW2J1IW1OLDH","AOAZMLP27GD81","368IUKXGA5U7UZ9GQNUNOB4MGE4P6M","","511.5","img/food8.png","75","512","1","1","4","0.2,0.8,0.2,0.8,0.2,0.8,0.8,0.2",""
"","html-keyboard-response","314","196625","0.0-314.0","3MRNMEIQW6SIA77RZKEW2J1IW1OLDH","AOAZMLP27GD81","368IUKXGA5U7UZ9GQNUNOB4MGE4P6M","","null","<img src=""img/food8.png"" style=""width:200px; border:14px solid green;"">","null","","","","","",""
"","image-keyboard-response","315","197184","0.0-315.0","3MRNMEIQW6SIA77RZKEW2J1IW1OLDH","AOAZMLP27GD81","368IUKXGA5U7UZ9GQNUNOB4MGE4P6M","","558.3999999985099","img/food3.png","76","558.7999999970198","2","0","2","0.2,0.8,0.2,0.8,0.2,0.8,0.8,0.2",""
"","html-keyboard-response","316","197485","0.0-316.0","3MRNMEIQW6SIA77RZKEW2J1IW1OLDH","AOAZMLP27GD81","368IUKXGA5U7UZ9GQNUNOB4MGE4P6M","","null","<img src=""img/food3.png"" style=""width:200px;border:14px solid red;"">","null","","","","","",""
"","image-keyboard-response","317","198135","0.0-317.0","3MRNMEIQW6SIA77RZKEW2J1IW1OLDH","AOAZMLP27GD81","368IUKXGA5U7UZ9GQNUNOB4MGE4P6M","","648.8999999985099","img/food4.png","76","649.1000000014901","2","1","1","0.2,0.8,0.2,0.8,0.2,0.8,0.8,0.2",""
"","html-keyboard-response","318","198436","0.0-318.0","3MRNMEIQW6SIA77RZKEW2J1IW1OLDH","AOAZMLP27GD81","368IUKXGA5U7UZ9GQNUNOB4MGE4P6M","","null","<img src=""img/food4.png"" style=""width:200px; border:14px solid green;"">","null","","","","","",""
"","image-keyboard-response","319","198853","0.0-319.0","3MRNMEIQW6SIA77RZKEW2J1IW1OLDH","AOAZMLP27GD81","368IUKXGA5U7UZ9GQNUNOB4MGE4P6M","","415.8999999985099","img/food5.png","76","416.19999999552965","2","1","3","0.2,0.8,0.2,0.8,0.2,0.8,0.8,0.2",""
"","html-keyboard-response","320","199154","0.0-320.0","3MRNMEIQW6SIA77RZKEW2J1IW1OLDH","AOAZMLP27GD81","368IUKXGA5U7UZ9GQNUNOB4MGE4P6M","","null","<img src=""img/food5.png"" style=""width:200px; border:14px solid green;"">","null","","","","","",""
"","image-keyboard-response","321","199655","0.0-321.0","3MRNMEIQW6SIA77RZKEW2J1IW1OLDH","AOAZMLP27GD81","368IUKXGA5U7UZ9GQNUNOB4MGE4P6M","","500.5","img/food8.png","75","500.69999999552965","1","0","4","0.2,0.8,0.2,0.8,0.2,0.8,0.8,0.2",""
"","html-keyboard-response","322","199956","0.0-322.0","3MRNMEIQW6SIA77RZKEW2J1IW1OLDH","AOAZMLP27GD81","368IUKXGA5U7UZ9GQNUNOB4MGE4P6M","","null","<img src=""img/food8.png"" style=""width:200px;border:14px solid red;"">","null","","","","","",""
"","image-keyboard-response","323","200442","0.0-323.0","3MRNMEIQW6SIA77RZKEW2J1IW1OLDH","AOAZMLP27GD81","368IUKXGA5U7UZ9GQNUNOB4MGE4P6M","","485.29999999701977","img/food5.png","76","485.70000000298023","2","1","3","0.2,0.8,0.2,0.8,0.2,0.8,0.8,0.2",""
"","html-keyboard-response","324","200743","0.0-324.0","3MRNMEIQW6SIA77RZKEW2J1IW1OLDH","AOAZMLP27GD81","368IUKXGA5U7UZ9GQNUNOB4MGE4P6M","","null","<img src=""img/food5.png"" style=""width:200px; border:14px solid green;"">","null","","","","","",""
"","image-keyboard-response","325","200947","0.0-325.0","3MRNMEIQW6SIA77RZKEW2J1IW1OLDH","AOAZMLP27GD81","368IUKXGA5U7UZ9GQNUNOB4MGE4P6M","","203.5","img/food3.png","76","203.90000000596046","2","1","2","0.2,0.8,0.2,0.8,0.2,0.8,0.8,0.2",""
"","html-keyboard-response","326","201249","0.0-326.0","3MRNMEIQW6SIA77RZKEW2J1IW1OLDH","AOAZMLP27GD81","368IUKXGA5U7UZ9GQNUNOB4MGE4P6M","","null","<img src=""img/food3.png"" style=""width:200px; border:14px solid green;"">","null","","","","","",""
"","image-keyboard-response","327","201417","0.0-327.0","3MRNMEIQW6SIA77RZKEW2J1IW1OLDH","AOAZMLP27GD81","368IUKXGA5U7UZ9GQNUNOB4MGE4P6M","","167.39999999850988","img/food5.png","76","167.60000000149012","2","1","3","0.2,0.8,0.2,0.8,0.2,0.8,0.8,0.2",""
"","html-keyboard-response","328","201719","0.0-328.0","3MRNMEIQW6SIA77RZKEW2J1IW1OLDH","AOAZMLP27GD81","368IUKXGA5U7UZ9GQNUNOB4MGE4P6M","","null","<img src=""img/food5.png"" style=""width:200px; border:14px solid green;"">","null","","","","","",""
"","image-keyboard-response","329","202236","0.0-329.0","3MRNMEIQW6SIA77RZKEW2J1IW1OLDH","AOAZMLP27GD81","368IUKXGA5U7UZ9GQNUNOB4MGE4P6M","","516.8999999985099","img/food8.png","75","517.3000000044703","1","0","4","0.2,0.8,0.2,0.8,0.2,0.8,0.8,0.2",""
"","html-keyboard-response","330","202537","0.0-330.0","3MRNMEIQW6SIA77RZKEW2J1IW1OLDH","AOAZMLP27GD81","368IUKXGA5U7UZ9GQNUNOB4MGE4P6M","","null","<img src=""img/food8.png"" style=""width:200px;border:14px solid red;"">","null","","","","","",""
"","image-keyboard-response","331","203068","0.0-331.0","3MRNMEIQW6SIA77RZKEW2J1IW1OLDH","AOAZMLP27GD81","368IUKXGA5U7UZ9GQNUNOB4MGE4P6M","","530","img/food5.png","76","530.5","2","1","3","0.2,0.8,0.2,0.8,0.2,0.8,0.8,0.2",""
"","html-keyboard-response","332","203369","0.0-332.0","3MRNMEIQW6SIA77RZKEW2J1IW1OLDH","AOAZMLP27GD81","368IUKXGA5U7UZ9GQNUNOB4MGE4P6M","","null","<img src=""img/food5.png"" style=""width:200px; border:14px solid green;"">","null","","","","","",""
"","image-keyboard-response","333","203688","0.0-333.0","3MRNMEIQW6SIA77RZKEW2J1IW1OLDH","AOAZMLP27GD81","368IUKXGA5U7UZ9GQNUNOB4MGE4P6M","","318.59999999403954","img/food4.png","76","318.8999999985099","2","1","1","0.2,0.8,0.2,0.8,0.2,0.8,0.8,0.2",""
"","html-keyboard-response","334","203989","0.0-334.0","3MRNMEIQW6SIA77RZKEW2J1IW1OLDH","AOAZMLP27GD81","368IUKXGA5U7UZ9GQNUNOB4MGE4P6M","","null","<img src=""img/food4.png"" style=""width:200px; border:14px solid green;"">","null","","","","","",""
"","image-keyboard-response","335","204351","0.0-335.0","3MRNMEIQW6SIA77RZKEW2J1IW1OLDH","AOAZMLP27GD81","368IUKXGA5U7UZ9GQNUNOB4MGE4P6M","","361.69999999552965","img/food3.png","76","362","2","1","2","0.2,0.8,0.2,0.8,0.2,0.8,0.8,0.2",""
"","html-keyboard-response","336","204653","0.0-336.0","3MRNMEIQW6SIA77RZKEW2J1IW1OLDH","AOAZMLP27GD81","368IUKXGA5U7UZ9GQNUNOB4MGE4P6M","","null","<img src=""img/food3.png"" style=""width:200px; border:14px solid green;"">","null","","","","","",""
"","image-keyboard-response","337","205201","0.0-337.0","3MRNMEIQW6SIA77RZKEW2J1IW1OLDH","AOAZMLP27GD81","368IUKXGA5U7UZ9GQNUNOB4MGE4P6M","","547.0999999940395","img/food5.png","76","547.6000000014901","2","1","3","0.2,0.8,0.2,0.8,0.2,0.8,0.8,0.2",""
"","html-keyboard-response","338","205502","0.0-338.0","3MRNMEIQW6SIA77RZKEW2J1IW1OLDH","AOAZMLP27GD81","368IUKXGA5U7UZ9GQNUNOB4MGE4P6M","","null","<img src=""img/food5.png"" style=""width:200px; border:14px solid green;"">","null","","","","","",""
"","image-keyboard-response","339","206065","0.0-339.0","3MRNMEIQW6SIA77RZKEW2J1IW1OLDH","AOAZMLP27GD81","368IUKXGA5U7UZ9GQNUNOB4MGE4P6M","","562.3000000044703","img/food3.png","76","562.5999999940395","2","1","2","0.2,0.8,0.2,0.8,0.2,0.8,0.8,0.2",""
"","html-keyboard-response","340","206366","0.0-340.0","3MRNMEIQW6SIA77RZKEW2J1IW1OLDH","AOAZMLP27GD81","368IUKXGA5U7UZ9GQNUNOB4MGE4P6M","","null","<img src=""img/food3.png"" style=""width:200px; border:14px solid green;"">","null","","","","","",""
"","image-keyboard-response","341","206743","0.0-341.0","3MRNMEIQW6SIA77RZKEW2J1IW1OLDH","AOAZMLP27GD81","368IUKXGA5U7UZ9GQNUNOB4MGE4P6M","","376.5","img/food3.png","76","377","2","1","2","0.2,0.8,0.2,0.8,0.2,0.8,0.8,0.2",""
"","html-keyboard-response","342","207044","0.0-342.0","3MRNMEIQW6SIA77RZKEW2J1IW1OLDH","AOAZMLP27GD81","368IUKXGA5U7UZ9GQNUNOB4MGE4P6M","","null","<img src=""img/food3.png"" style=""width:200px; border:14px solid green;"">","null","","","","","",""
"","image-keyboard-response","343","207532","0.0-343.0","3MRNMEIQW6SIA77RZKEW2J1IW1OLDH","AOAZMLP27GD81","368IUKXGA5U7UZ9GQNUNOB4MGE4P6M","","487.1000000014901","img/food8.png","75","487.5","1","1","4","0.2,0.8,0.2,0.8,0.2,0.8,0.8,0.2",""
"","html-keyboard-response","344","207834","0.0-344.0","3MRNMEIQW6SIA77RZKEW2J1IW1OLDH","AOAZMLP27GD81","368IUKXGA5U7UZ9GQNUNOB4MGE4P6M","","null","<img src=""img/food8.png"" style=""width:200px; border:14px solid green;"">","null","","","","","",""
"","image-keyboard-response","345","208324","0.0-345.0","3MRNMEIQW6SIA77RZKEW2J1IW1OLDH","AOAZMLP27GD81","368IUKXGA5U7UZ9GQNUNOB4MGE4P6M","","489.6000000014901","img/food3.png","76","489.8999999985099","2","1","2","0.2,0.8,0.2,0.8,0.2,0.8,0.8,0.2",""
"","html-keyboard-response","346","208625","0.0-346.0","3MRNMEIQW6SIA77RZKEW2J1IW1OLDH","AOAZMLP27GD81","368IUKXGA5U7UZ9GQNUNOB4MGE4P6M","","null","<img src=""img/food3.png"" style=""width:200px; border:14px solid green;"">","null","","","","","",""
"","image-keyboard-response","347","208892","0.0-347.0","3MRNMEIQW6SIA77RZKEW2J1IW1OLDH","AOAZMLP27GD81","368IUKXGA5U7UZ9GQNUNOB4MGE4P6M","","266.8999999985099","img/food3.png","76","267.30000000447035","2","1","2","0.2,0.8,0.2,0.8,0.2,0.8,0.8,0.2",""
"","html-keyboard-response","348","209192","0.0-348.0","3MRNMEIQW6SIA77RZKEW2J1IW1OLDH","AOAZMLP27GD81","368IUKXGA5U7UZ9GQNUNOB4MGE4P6M","","null","<img src=""img/food3.png"" style=""width:200px; border:14px solid green;"">","null","","","","","",""
"","image-keyboard-response","349","209597","0.0-349.0","3MRNMEIQW6SIA77RZKEW2J1IW1OLDH","AOAZMLP27GD81","368IUKXGA5U7UZ9GQNUNOB4MGE4P6M","","403.8999999985099","img/food4.png","76","404.29999999701977","2","1","1","0.2,0.8,0.2,0.8,0.2,0.8,0.8,0.2",""
"","html-keyboard-response","350","209898","0.0-350.0","3MRNMEIQW6SIA77RZKEW2J1IW1OLDH","AOAZMLP27GD81","368IUKXGA5U7UZ9GQNUNOB4MGE4P6M","","null","<img src=""img/food4.png"" style=""width:200px; border:14px solid green;"">","null","","","","","",""
"","image-keyboard-response","351","210164","0.0-351.0","3MRNMEIQW6SIA77RZKEW2J1IW1OLDH","AOAZMLP27GD81","368IUKXGA5U7UZ9GQNUNOB4MGE4P6M","","265.29999999701977","img/food8.png","76","265.6000000014901","2","1","4","0.2,0.8,0.2,0.8,0.2,0.8,0.8,0.2",""
"","html-keyboard-response","352","210465","0.0-352.0","3MRNMEIQW6SIA77RZKEW2J1IW1OLDH","AOAZMLP27GD81","368IUKXGA5U7UZ9GQNUNOB4MGE4P6M","","null","<img src=""img/food8.png"" style=""width:200px; border:14px solid green;"">","null","","","","","",""
"","image-keyboard-response","353","210952","0.0-353.0","3MRNMEIQW6SIA77RZKEW2J1IW1OLDH","AOAZMLP27GD81","368IUKXGA5U7UZ9GQNUNOB4MGE4P6M","","486.80000000447035","img/food8.png","75","487.20000000298023","1","1","4","0.2,0.8,0.2,0.8,0.2,0.8,0.8,0.2",""
"","html-keyboard-response","354","211254","0.0-354.0","3MRNMEIQW6SIA77RZKEW2J1IW1OLDH","AOAZMLP27GD81","368IUKXGA5U7UZ9GQNUNOB4MGE4P6M","","null","<img src=""img/food8.png"" style=""width:200px; border:14px solid green;"">","null","","","","","",""
"","image-keyboard-response","355","212204","0.0-355.0","3MRNMEIQW6SIA77RZKEW2J1IW1OLDH","AOAZMLP27GD81","368IUKXGA5U7UZ9GQNUNOB4MGE4P6M","","949.5","img/food3.png","76","949.7999999970198","2","0","2","0.2,0.8,0.2,0.8,0.2,0.8,0.8,0.2",""
"","html-keyboard-response","356","212506","0.0-356.0","3MRNMEIQW6SIA77RZKEW2J1IW1OLDH","AOAZMLP27GD81","368IUKXGA5U7UZ9GQNUNOB4MGE4P6M","","null","<img src=""img/food3.png"" style=""width:200px;border:14px solid red;"">","null","","","","","",""
"","image-keyboard-response","357","213288","0.0-357.0","3MRNMEIQW6SIA77RZKEW2J1IW1OLDH","AOAZMLP27GD81","368IUKXGA5U7UZ9GQNUNOB4MGE4P6M","","781.5","img/food8.png","75","781.8999999985099","1","0","4","0.2,0.8,0.2,0.8,0.2,0.8,0.8,0.2",""
"","html-keyboard-response","358","213589","0.0-358.0","3MRNMEIQW6SIA77RZKEW2J1IW1OLDH","AOAZMLP27GD81","368IUKXGA5U7UZ9GQNUNOB4MGE4P6M","","null","<img src=""img/food8.png"" style=""width:200px;border:14px solid red;"">","null","","","","","",""
"","image-keyboard-response","359","214154","0.0-359.0","3MRNMEIQW6SIA77RZKEW2J1IW1OLDH","AOAZMLP27GD81","368IUKXGA5U7UZ9GQNUNOB4MGE4P6M","","564.6000000014901","img/food4.png","76","565","2","1","1","0.2,0.8,0.2,0.8,0.2,0.8,0.8,0.2",""
"","html-keyboard-response","360","214454","0.0-360.0","3MRNMEIQW6SIA77RZKEW2J1IW1OLDH","AOAZMLP27GD81","368IUKXGA5U7UZ9GQNUNOB4MGE4P6M","","null","<img src=""img/food4.png"" style=""width:200px; border:14px solid green;"">","null","","","","","",""
"","image-keyboard-response","361","214820","0.0-361.0","3MRNMEIQW6SIA77RZKEW2J1IW1OLDH","AOAZMLP27GD81","368IUKXGA5U7UZ9GQNUNOB4MGE4P6M","","365.19999999552965","img/food4.png","76","365.6000000014901","2","0","1","0.2,0.8,0.2,0.8,0.2,0.8,0.8,0.2",""
"","html-keyboard-response","362","215122","0.0-362.0","3MRNMEIQW6SIA77RZKEW2J1IW1OLDH","AOAZMLP27GD81","368IUKXGA5U7UZ9GQNUNOB4MGE4P6M","","null","<img src=""img/food4.png"" style=""width:200px;border:14px solid red;"">","null","","","","","",""
"","image-keyboard-response","363","215429","0.0-363.0","3MRNMEIQW6SIA77RZKEW2J1IW1OLDH","AOAZMLP27GD81","368IUKXGA5U7UZ9GQNUNOB4MGE4P6M","","306.19999999552965","img/food4.png","76","306.69999999552965","2","1","1","0.2,0.8,0.2,0.8,0.2,0.8,0.8,0.2",""
"","html-keyboard-response","364","215729","0.0-364.0","3MRNMEIQW6SIA77RZKEW2J1IW1OLDH","AOAZMLP27GD81","368IUKXGA5U7UZ9GQNUNOB4MGE4P6M","","null","<img src=""img/food4.png"" style=""width:200px; border:14px solid green;"">","null","","","","","",""
"","image-keyboard-response","365","216034","0.0-365.0","3MRNMEIQW6SIA77RZKEW2J1IW1OLDH","AOAZMLP27GD81","368IUKXGA5U7UZ9GQNUNOB4MGE4P6M","","304.79999999701977","img/food4.png","76","305","2","1","1","0.2,0.8,0.2,0.8,0.2,0.8,0.8,0.2",""
"","html-keyboard-response","366","216336","0.0-366.0","3MRNMEIQW6SIA77RZKEW2J1IW1OLDH","AOAZMLP27GD81","368IUKXGA5U7UZ9GQNUNOB4MGE4P6M","","null","<img src=""img/food4.png"" style=""width:200px; border:14px solid green;"">","null","","","","","",""
"","image-keyboard-response","367","216925","0.0-367.0","3MRNMEIQW6SIA77RZKEW2J1IW1OLDH","AOAZMLP27GD81","368IUKXGA5U7UZ9GQNUNOB4MGE4P6M","","587.7000000029802","img/food5.png","76","588.0999999940395","2","1","3","0.2,0.8,0.2,0.8,0.2,0.8,0.8,0.2",""
"","html-keyboard-response","368","217226","0.0-368.0","3MRNMEIQW6SIA77RZKEW2J1IW1OLDH","AOAZMLP27GD81","368IUKXGA5U7UZ9GQNUNOB4MGE4P6M","","null","<img src=""img/food5.png"" style=""width:200px; border:14px solid green;"">","null","","","","","",""
"","image-keyboard-response","369","217542","0.0-369.0","3MRNMEIQW6SIA77RZKEW2J1IW1OLDH","AOAZMLP27GD81","368IUKXGA5U7UZ9GQNUNOB4MGE4P6M","","315.8999999985099","img/food5.png","76","316.40000000596046","2","0","3","0.2,0.8,0.2,0.8,0.2,0.8,0.8,0.2",""
"","html-keyboard-response","370","217844","0.0-370.0","3MRNMEIQW6SIA77RZKEW2J1IW1OLDH","AOAZMLP27GD81","368IUKXGA5U7UZ9GQNUNOB4MGE4P6M","","null","<img src=""img/food5.png"" style=""width:200px;border:14px solid red;"">","null","","","","","",""
"","image-keyboard-response","371","218584","0.0-371.0","3MRNMEIQW6SIA77RZKEW2J1IW1OLDH","AOAZMLP27GD81","368IUKXGA5U7UZ9GQNUNOB4MGE4P6M","","739.2000000029802","img/food4.png","76","739.5","2","1","1","0.2,0.8,0.2,0.8,0.2,0.8,0.8,0.2",""
"","html-keyboard-response","372","218885","0.0-372.0","3MRNMEIQW6SIA77RZKEW2J1IW1OLDH","AOAZMLP27GD81","368IUKXGA5U7UZ9GQNUNOB4MGE4P6M","","null","<img src=""img/food4.png"" style=""width:200px; border:14px solid green;"">","null","","","","","",""
"","image-keyboard-response","373","219302","0.0-373.0","3MRNMEIQW6SIA77RZKEW2J1IW1OLDH","AOAZMLP27GD81","368IUKXGA5U7UZ9GQNUNOB4MGE4P6M","","416.59999999403954","img/food5.png","76","417.1000000014901","2","0","3","0.2,0.8,0.2,0.8,0.2,0.8,0.8,0.2",""
"","html-keyboard-response","374","219604","0.0-374.0","3MRNMEIQW6SIA77RZKEW2J1IW1OLDH","AOAZMLP27GD81","368IUKXGA5U7UZ9GQNUNOB4MGE4P6M","","null","<img src=""img/food5.png"" style=""width:200px;border:14px solid red;"">","null","","","","","",""
"","image-keyboard-response","375","219898","0.0-375.0","3MRNMEIQW6SIA77RZKEW2J1IW1OLDH","AOAZMLP27GD81","368IUKXGA5U7UZ9GQNUNOB4MGE4P6M","","293.6000000014901","img/food5.png","76","293.8999999985099","2","1","3","0.2,0.8,0.2,0.8,0.2,0.8,0.8,0.2",""
"","html-keyboard-response","376","220199","0.0-376.0","3MRNMEIQW6SIA77RZKEW2J1IW1OLDH","AOAZMLP27GD81","368IUKXGA5U7UZ9GQNUNOB4MGE4P6M","","null","<img src=""img/food5.png"" style=""width:200px; border:14px solid green;"">","null","","","","","",""
"","image-keyboard-response","377","220682","0.0-377.0","3MRNMEIQW6SIA77RZKEW2J1IW1OLDH","AOAZMLP27GD81","368IUKXGA5U7UZ9GQNUNOB4MGE4P6M","","482.19999999552965","img/food3.png","76","482.6000000014901","2","1","2","0.2,0.8,0.2,0.8,0.2,0.8,0.8,0.2",""
"","html-keyboard-response","378","220983","0.0-378.0","3MRNMEIQW6SIA77RZKEW2J1IW1OLDH","AOAZMLP27GD81","368IUKXGA5U7UZ9GQNUNOB4MGE4P6M","","null","<img src=""img/food3.png"" style=""width:200px; border:14px solid green;"">","null","","","","","",""
"","image-keyboard-response","379","221441","0.0-379.0","3MRNMEIQW6SIA77RZKEW2J1IW1OLDH","AOAZMLP27GD81","368IUKXGA5U7UZ9GQNUNOB4MGE4P6M","","457.20000000298023","img/food4.png","76","457.59999999403954","2","0","1","0.2,0.8,0.2,0.8,0.2,0.8,0.8,0.2",""
"","html-keyboard-response","380","221742","0.0-380.0","3MRNMEIQW6SIA77RZKEW2J1IW1OLDH","AOAZMLP27GD81","368IUKXGA5U7UZ9GQNUNOB4MGE4P6M","","null","<img src=""img/food4.png"" style=""width:200px;border:14px solid red;"">","null","","","","","",""
"","image-keyboard-response","381","221981","0.0-381.0","3MRNMEIQW6SIA77RZKEW2J1IW1OLDH","AOAZMLP27GD81","368IUKXGA5U7UZ9GQNUNOB4MGE4P6M","","238.40000000596046","img/food4.png","76","238.60000000149012","2","1","1","0.2,0.8,0.2,0.8,0.2,0.8,0.8,0.2",""
"","html-keyboard-response","382","222282","0.0-382.0","3MRNMEIQW6SIA77RZKEW2J1IW1OLDH","AOAZMLP27GD81","368IUKXGA5U7UZ9GQNUNOB4MGE4P6M","","null","<img src=""img/food4.png"" style=""width:200px; border:14px solid green;"">","null","","","","","",""
"","image-keyboard-response","383","222574","0.0-383.0","3MRNMEIQW6SIA77RZKEW2J1IW1OLDH","AOAZMLP27GD81","368IUKXGA5U7UZ9GQNUNOB4MGE4P6M","","291.6000000014901","img/food4.png","76","292","2","1","1","0.2,0.8,0.2,0.8,0.2,0.8,0.8,0.2",""
"","html-keyboard-response","384","222876","0.0-384.0","3MRNMEIQW6SIA77RZKEW2J1IW1OLDH","AOAZMLP27GD81","368IUKXGA5U7UZ9GQNUNOB4MGE4P6M","","null","<img src=""img/food4.png"" style=""width:200px; border:14px solid green;"">","null","","","","","",""
"","image-keyboard-response","385","223334","0.0-385.0","3MRNMEIQW6SIA77RZKEW2J1IW1OLDH","AOAZMLP27GD81","368IUKXGA5U7UZ9GQNUNOB4MGE4P6M","","457.5","img/food3.png","76","457.8999999985099","2","0","2","0.2,0.8,0.2,0.8,0.2,0.8,0.8,0.2",""
"","html-keyboard-response","386","223635","0.0-386.0","3MRNMEIQW6SIA77RZKEW2J1IW1OLDH","AOAZMLP27GD81","368IUKXGA5U7UZ9GQNUNOB4MGE4P6M","","null","<img src=""img/food3.png"" style=""width:200px;border:14px solid red;"">","null","","","","","",""
"","image-keyboard-response","387","223851","0.0-387.0","3MRNMEIQW6SIA77RZKEW2J1IW1OLDH","AOAZMLP27GD81","368IUKXGA5U7UZ9GQNUNOB4MGE4P6M","","215.29999999701977","img/food8.png","76","215.70000000298023","2","0","4","0.2,0.8,0.2,0.8,0.2,0.8,0.8,0.2",""
"","html-keyboard-response","388","224152","0.0-388.0","3MRNMEIQW6SIA77RZKEW2J1IW1OLDH","AOAZMLP27GD81","368IUKXGA5U7UZ9GQNUNOB4MGE4P6M","","null","<img src=""img/food8.png"" style=""width:200px;border:14px solid red;"">","null","","","","","",""
"","image-keyboard-response","389","224770","0.0-389.0","3MRNMEIQW6SIA77RZKEW2J1IW1OLDH","AOAZMLP27GD81","368IUKXGA5U7UZ9GQNUNOB4MGE4P6M","","616.8000000044703","img/food4.png","76","617.0999999940395","2","1","1","0.2,0.8,0.2,0.8,0.2,0.8,0.8,0.2",""
"","html-keyboard-response","390","225071","0.0-390.0","3MRNMEIQW6SIA77RZKEW2J1IW1OLDH","AOAZMLP27GD81","368IUKXGA5U7UZ9GQNUNOB4MGE4P6M","","null","<img src=""img/food4.png"" style=""width:200px; border:14px solid green;"">","null","","","","","",""
"","image-keyboard-response","391","225617","0.0-391.0","3MRNMEIQW6SIA77RZKEW2J1IW1OLDH","AOAZMLP27GD81","368IUKXGA5U7UZ9GQNUNOB4MGE4P6M","","545.3000000044703","img/food8.png","75","545.5999999940395","1","0","4","0.2,0.8,0.2,0.8,0.2,0.8,0.8,0.2",""
"","html-keyboard-response","392","225919","0.0-392.0","3MRNMEIQW6SIA77RZKEW2J1IW1OLDH","AOAZMLP27GD81","368IUKXGA5U7UZ9GQNUNOB4MGE4P6M","","null","<img src=""img/food8.png"" style=""width:200px;border:14px solid red;"">","null","","","","","",""
"","image-keyboard-response","393","226345","0.0-393.0","3MRNMEIQW6SIA77RZKEW2J1IW1OLDH","AOAZMLP27GD81","368IUKXGA5U7UZ9GQNUNOB4MGE4P6M","","426.1000000014901","img/food8.png","75","426.40000000596046","1","0","4","0.2,0.8,0.2,0.8,0.2,0.8,0.8,0.2",""
"","html-keyboard-response","394","226646","0.0-394.0","3MRNMEIQW6SIA77RZKEW2J1IW1OLDH","AOAZMLP27GD81","368IUKXGA5U7UZ9GQNUNOB4MGE4P6M","","null","<img src=""img/food8.png"" style=""width:200px;border:14px solid red;"">","null","","","","","",""
"","image-keyboard-response","395","227332","0.0-395.0","3MRNMEIQW6SIA77RZKEW2J1IW1OLDH","AOAZMLP27GD81","368IUKXGA5U7UZ9GQNUNOB4MGE4P6M","","686","img/food8.png","75","686.3000000044703","1","1","4","0.2,0.8,0.2,0.8,0.2,0.8,0.8,0.2",""
"","html-keyboard-response","396","227633","0.0-396.0","3MRNMEIQW6SIA77RZKEW2J1IW1OLDH","AOAZMLP27GD81","368IUKXGA5U7UZ9GQNUNOB4MGE4P6M","","null","<img src=""img/food8.png"" style=""width:200px; border:14px solid green;"">","null","","","","","",""
"","image-keyboard-response","397","228151","0.0-397.0","3MRNMEIQW6SIA77RZKEW2J1IW1OLDH","AOAZMLP27GD81","368IUKXGA5U7UZ9GQNUNOB4MGE4P6M","","517.5","img/food3.png","76","518.1000000014901","2","1","2","0.2,0.8,0.2,0.8,0.2,0.8,0.8,0.2",""
"","html-keyboard-response","398","228452","0.0-398.0","3MRNMEIQW6SIA77RZKEW2J1IW1OLDH","AOAZMLP27GD81","368IUKXGA5U7UZ9GQNUNOB4MGE4P6M","","null","<img src=""img/food3.png"" style=""width:200px; border:14px solid green;"">","null","","","","","",""
"","image-keyboard-response","399","229222","0.0-399.0","3MRNMEIQW6SIA77RZKEW2J1IW1OLDH","AOAZMLP27GD81","368IUKXGA5U7UZ9GQNUNOB4MGE4P6M","","768.8999999985099","img/food8.png","75","769.2999999970198","1","1","4","0.2,0.8,0.2,0.8,0.2,0.8,0.8,0.2",""
"","html-keyboard-response","400","229523","0.0-400.0","3MRNMEIQW6SIA77RZKEW2J1IW1OLDH","AOAZMLP27GD81","368IUKXGA5U7UZ9GQNUNOB4MGE4P6M","","null","<img src=""img/food8.png"" style=""width:200px; border:14px solid green;"">","null","","","","","",""
"","image-keyboard-response","401","229921","0.0-401.0","3MRNMEIQW6SIA77RZKEW2J1IW1OLDH","AOAZMLP27GD81","368IUKXGA5U7UZ9GQNUNOB4MGE4P6M","","397.40000000596046","img/food5.png","76","397.69999999552965","2","1","3","0.2,0.8,0.2,0.8,0.2,0.8,0.8,0.2",""
"","html-keyboard-response","402","230222","0.0-402.0","3MRNMEIQW6SIA77RZKEW2J1IW1OLDH","AOAZMLP27GD81","368IUKXGA5U7UZ9GQNUNOB4MGE4P6M","","null","<img src=""img/food5.png"" style=""width:200px; border:14px solid green;"">","null","","","","","",""
