"success","trial_type","trial_index","time_elapsed","internal_node_id","assignmentID","mturkID","hitID","view_history","rt","stimulus","key_press","reactionTime","a","r","s","cond","reward_cond","reward_cond_actual","reward_matrix_idx","warning","responses"
"true","fullscreen","0","2967","0.0-0.0","3X65QVEQI1985F1DZOJLIDJ0FG0CLU","AOCZRH4QWLCMF","37SDSEDIN9ORHL92Y0GV7TIFJ2X187","","","","","","","","","","","","","",""
"","instructions","1","66755","0.0-1.0","3X65QVEQI1985F1DZOJLIDJ0FG0CLU","AOCZRH4QWLCMF","37SDSEDIN9ORHL92Y0GV7TIFJ2X187","[{""page_index"":0,""viewing_time"":3765.7999999523163},{""page_index"":1,""viewing_time"":4069.7000000476837},{""page_index"":2,""viewing_time"":3504.5},{""page_index"":3,""viewing_time"":8357.700000047684},{""page_index"":4,""viewing_time"":4434.099999904633},{""page_index"":5,""viewing_time"":37549.90000009537},{""page_index"":6,""viewing_time"":2103.7999999523163}]","63786.299999952316","","","","","","","","","","","",""
"","image-keyboard-response","2","68154","0.0-2.0","3X65QVEQI1985F1DZOJLIDJ0FG0CLU","AOCZRH4QWLCMF","37SDSEDIN9ORHL92Y0GV7TIFJ2X187","","1397.7999999523163","img/food3.png","74","1398.9000000953674","1","1","2","1","1,0.5,0,1,0.5,0,0.5,0,1","0.5,0,1,0.5,0,1,0,1,0.5","2","",""
"","html-keyboard-response","3","68457","0.0-3.0","3X65QVEQI1985F1DZOJLIDJ0FG0CLU","AOCZRH4QWLCMF","37SDSEDIN9ORHL92Y0GV7TIFJ2X187","","null","<img src=""img/food3.png"" style=""width:200px; border:14px solid green;"">","null","","","","","","","","","",""
"","image-keyboard-response","4","69450","0.0-4.0","3X65QVEQI1985F1DZOJLIDJ0FG0CLU","AOCZRH4QWLCMF","37SDSEDIN9ORHL92Y0GV7TIFJ2X187","","992.2000000476837","img/food5.png","75","993.1000001430511","2","0","1","1","1,0.5,0,1,0.5,0,0.5,0,1","0.5,0,1,0.5,0,1,0,1,0.5","2","",""
"","html-keyboard-response","5","69758","0.0-5.0","3X65QVEQI1985F1DZOJLIDJ0FG0CLU","AOCZRH4QWLCMF","37SDSEDIN9ORHL92Y0GV7TIFJ2X187","","null","<img src=""img/food5.png"" style=""width:200px;border:14px solid red;"">","null","","","","","","","","","",""
"","image-keyboard-response","6","71082","0.0-6.0","3X65QVEQI1985F1DZOJLIDJ0FG0CLU","AOCZRH4QWLCMF","37SDSEDIN9ORHL92Y0GV7TIFJ2X187","","1322.5","img/food6.png","76","1323.5","3","0","3","1","1,0.5,0,1,0.5,0,0.5,0,1","0.5,0,1,0.5,0,1,0,1,0.5","2","",""
"","html-keyboard-response","7","71385","0.0-7.0","3X65QVEQI1985F1DZOJLIDJ0FG0CLU","AOCZRH4QWLCMF","37SDSEDIN9ORHL92Y0GV7TIFJ2X187","","null","<img src=""img/food6.png"" style=""width:200px;border:14px solid red;"">","null","","","","","","","","","",""
"","image-keyboard-response","8","72321","0.0-8.0","3X65QVEQI1985F1DZOJLIDJ0FG0CLU","AOCZRH4QWLCMF","37SDSEDIN9ORHL92Y0GV7TIFJ2X187","","935.6000001430511","img/food6.png","75","936.6000001430511","2","1","3","1","1,0.5,0,1,0.5,0,0.5,0,1","0.5,0,1,0.5,0,1,0,1,0.5","2","",""
"","html-keyboard-response","9","72624","0.0-9.0","3X65QVEQI1985F1DZOJLIDJ0FG0CLU","AOCZRH4QWLCMF","37SDSEDIN9ORHL92Y0GV7TIFJ2X187","","null","<img src=""img/food6.png"" style=""width:200px; border:14px solid green;"">","null","","","","","","","","","",""
"","image-keyboard-response","10","73666","0.0-10.0","3X65QVEQI1985F1DZOJLIDJ0FG0CLU","AOCZRH4QWLCMF","37SDSEDIN9ORHL92Y0GV7TIFJ2X187","","1040.7999999523163","img/food3.png","74","1041.6999998092651","1","1","2","1","1,0.5,0,1,0.5,0,0.5,0,1","0.5,0,1,0.5,0,1,0,1,0.5","2","",""
"","html-keyboard-response","11","73968","0.0-11.0","3X65QVEQI1985F1DZOJLIDJ0FG0CLU","AOCZRH4QWLCMF","37SDSEDIN9ORHL92Y0GV7TIFJ2X187","","null","<img src=""img/food3.png"" style=""width:200px; border:14px solid green;"">","null","","","","","","","","","",""
"","image-keyboard-response","12","74850","0.0-12.0","3X65QVEQI1985F1DZOJLIDJ0FG0CLU","AOCZRH4QWLCMF","37SDSEDIN9ORHL92Y0GV7TIFJ2X187","","880.7000000476837","img/food5.png","76","881.2999999523163","3","1","1","1","1,0.5,0,1,0.5,0,0.5,0,1","0.5,0,1,0.5,0,1,0,1,0.5","2","",""
"","html-keyboard-response","13","75152","0.0-13.0","3X65QVEQI1985F1DZOJLIDJ0FG0CLU","AOCZRH4QWLCMF","37SDSEDIN9ORHL92Y0GV7TIFJ2X187","","null","<img src=""img/food5.png"" style=""width:200px; border:14px solid green;"">","null","","","","","","","","","",""
"","image-keyboard-response","14","76090","0.0-14.0","3X65QVEQI1985F1DZOJLIDJ0FG0CLU","AOCZRH4QWLCMF","37SDSEDIN9ORHL92Y0GV7TIFJ2X187","","936.2000000476837","img/food6.png","75","937.8999998569489","2","1","3","1","1,0.5,0,1,0.5,0,0.5,0,1","0.5,0,1,0.5,0,1,0,1,0.5","2","",""
"","html-keyboard-response","15","76391","0.0-15.0","3X65QVEQI1985F1DZOJLIDJ0FG0CLU","AOCZRH4QWLCMF","37SDSEDIN9ORHL92Y0GV7TIFJ2X187","","null","<img src=""img/food6.png"" style=""width:200px; border:14px solid green;"">","null","","","","","","","","","",""
"","image-keyboard-response","16","77045","0.0-16.0","3X65QVEQI1985F1DZOJLIDJ0FG0CLU","AOCZRH4QWLCMF","37SDSEDIN9ORHL92Y0GV7TIFJ2X187","","651.7999999523163","img/food3.png","74","653.1000001430511","1","0","2","1","1,0.5,0,1,0.5,0,0.5,0,1","0.5,0,1,0.5,0,1,0,1,0.5","2","",""
"","html-keyboard-response","17","77346","0.0-17.0","3X65QVEQI1985F1DZOJLIDJ0FG0CLU","AOCZRH4QWLCMF","37SDSEDIN9ORHL92Y0GV7TIFJ2X187","","null","<img src=""img/food3.png"" style=""width:200px;border:14px solid red;"">","null","","","","","","","","","",""
"","image-keyboard-response","18","78194","0.0-18.0","3X65QVEQI1985F1DZOJLIDJ0FG0CLU","AOCZRH4QWLCMF","37SDSEDIN9ORHL92Y0GV7TIFJ2X187","","846.3999998569489","img/food3.png","74","848","1","0","2","1","1,0.5,0,1,0.5,0,0.5,0,1","0.5,0,1,0.5,0,1,0,1,0.5","2","",""
"","html-keyboard-response","19","78497","0.0-19.0","3X65QVEQI1985F1DZOJLIDJ0FG0CLU","AOCZRH4QWLCMF","37SDSEDIN9ORHL92Y0GV7TIFJ2X187","","null","<img src=""img/food3.png"" style=""width:200px;border:14px solid red;"">","null","","","","","","","","","",""
"","image-keyboard-response","20","79353","0.0-20.0","3X65QVEQI1985F1DZOJLIDJ0FG0CLU","AOCZRH4QWLCMF","37SDSEDIN9ORHL92Y0GV7TIFJ2X187","","855.1000001430511","img/food6.png","75","856.1000001430511","2","1","3","1","1,0.5,0,1,0.5,0,0.5,0,1","0.5,0,1,0.5,0,1,0,1,0.5","2","",""
"","html-keyboard-response","21","79657","0.0-21.0","3X65QVEQI1985F1DZOJLIDJ0FG0CLU","AOCZRH4QWLCMF","37SDSEDIN9ORHL92Y0GV7TIFJ2X187","","null","<img src=""img/food6.png"" style=""width:200px; border:14px solid green;"">","null","","","","","","","","","",""
"","image-keyboard-response","22","80315","0.0-22.0","3X65QVEQI1985F1DZOJLIDJ0FG0CLU","AOCZRH4QWLCMF","37SDSEDIN9ORHL92Y0GV7TIFJ2X187","","656.6000001430511","img/food5.png","76","658","3","1","1","1","1,0.5,0,1,0.5,0,0.5,0,1","0.5,0,1,0.5,0,1,0,1,0.5","2","",""
"","html-keyboard-response","23","80616","0.0-23.0","3X65QVEQI1985F1DZOJLIDJ0FG0CLU","AOCZRH4QWLCMF","37SDSEDIN9ORHL92Y0GV7TIFJ2X187","","null","<img src=""img/food5.png"" style=""width:200px; border:14px solid green;"">","null","","","","","","","","","",""
"","image-keyboard-response","24","81328","0.0-24.0","3X65QVEQI1985F1DZOJLIDJ0FG0CLU","AOCZRH4QWLCMF","37SDSEDIN9ORHL92Y0GV7TIFJ2X187","","711.5999999046326","img/food3.png","74","712","1","0","2","1","1,0.5,0,1,0.5,0,0.5,0,1","0.5,0,1,0.5,0,1,0,1,0.5","2","",""
"","html-keyboard-response","25","81631","0.0-25.0","3X65QVEQI1985F1DZOJLIDJ0FG0CLU","AOCZRH4QWLCMF","37SDSEDIN9ORHL92Y0GV7TIFJ2X187","","null","<img src=""img/food3.png"" style=""width:200px;border:14px solid red;"">","null","","","","","","","","","",""
"","image-keyboard-response","26","82442","0.0-26.0","3X65QVEQI1985F1DZOJLIDJ0FG0CLU","AOCZRH4QWLCMF","37SDSEDIN9ORHL92Y0GV7TIFJ2X187","","809.7999999523163","img/food5.png","76","810.9000000953674","3","1","1","1","1,0.5,0,1,0.5,0,0.5,0,1","0.5,0,1,0.5,0,1,0,1,0.5","2","",""
"","html-keyboard-response","27","82744","0.0-27.0","3X65QVEQI1985F1DZOJLIDJ0FG0CLU","AOCZRH4QWLCMF","37SDSEDIN9ORHL92Y0GV7TIFJ2X187","","null","<img src=""img/food5.png"" style=""width:200px; border:14px solid green;"">","null","","","","","","","","","",""
"","image-keyboard-response","28","83354","0.0-28.0","3X65QVEQI1985F1DZOJLIDJ0FG0CLU","AOCZRH4QWLCMF","37SDSEDIN9ORHL92Y0GV7TIFJ2X187","","607.6999998092651","img/food3.png","74","609.0999999046326","1","1","2","1","1,0.5,0,1,0.5,0,0.5,0,1","0.5,0,1,0.5,0,1,0,1,0.5","2","",""
"","html-keyboard-response","29","83656","0.0-29.0","3X65QVEQI1985F1DZOJLIDJ0FG0CLU","AOCZRH4QWLCMF","37SDSEDIN9ORHL92Y0GV7TIFJ2X187","","null","<img src=""img/food3.png"" style=""width:200px; border:14px solid green;"">","null","","","","","","","","","",""
"","image-keyboard-response","30","84449","0.0-30.0","3X65QVEQI1985F1DZOJLIDJ0FG0CLU","AOCZRH4QWLCMF","37SDSEDIN9ORHL92Y0GV7TIFJ2X187","","792.5","img/food5.png","76","793.2000000476837","3","1","1","1","1,0.5,0,1,0.5,0,0.5,0,1","0.5,0,1,0.5,0,1,0,1,0.5","2","",""
"","html-keyboard-response","31","84751","0.0-31.0","3X65QVEQI1985F1DZOJLIDJ0FG0CLU","AOCZRH4QWLCMF","37SDSEDIN9ORHL92Y0GV7TIFJ2X187","","null","<img src=""img/food5.png"" style=""width:200px; border:14px solid green;"">","null","","","","","","","","","",""
"","image-keyboard-response","32","85178","0.0-32.0","3X65QVEQI1985F1DZOJLIDJ0FG0CLU","AOCZRH4QWLCMF","37SDSEDIN9ORHL92Y0GV7TIFJ2X187","","426.09999990463257","img/food5.png","76","426.80000019073486","3","1","1","1","1,0.5,0,1,0.5,0,0.5,0,1","0.5,0,1,0.5,0,1,0,1,0.5","2","",""
"","html-keyboard-response","33","85480","0.0-33.0","3X65QVEQI1985F1DZOJLIDJ0FG0CLU","AOCZRH4QWLCMF","37SDSEDIN9ORHL92Y0GV7TIFJ2X187","","null","<img src=""img/food5.png"" style=""width:200px; border:14px solid green;"">","null","","","","","","","","","",""
"","image-keyboard-response","34","86193","0.0-34.0","3X65QVEQI1985F1DZOJLIDJ0FG0CLU","AOCZRH4QWLCMF","37SDSEDIN9ORHL92Y0GV7TIFJ2X187","","712.2999999523163","img/food3.png","74","713.7000000476837","1","0","2","1","1,0.5,0,1,0.5,0,0.5,0,1","0.5,0,1,0.5,0,1,0,1,0.5","2","",""
"","html-keyboard-response","35","86496","0.0-35.0","3X65QVEQI1985F1DZOJLIDJ0FG0CLU","AOCZRH4QWLCMF","37SDSEDIN9ORHL92Y0GV7TIFJ2X187","","null","<img src=""img/food3.png"" style=""width:200px;border:14px solid red;"">","null","","","","","","","","","",""
"","image-keyboard-response","36","87137","0.0-36.0","3X65QVEQI1985F1DZOJLIDJ0FG0CLU","AOCZRH4QWLCMF","37SDSEDIN9ORHL92Y0GV7TIFJ2X187","","639.6000001430511","img/food6.png","75","640.7999999523163","2","1","3","1","1,0.5,0,1,0.5,0,0.5,0,1","0.5,0,1,0.5,0,1,0,1,0.5","2","",""
"","html-keyboard-response","37","87439","0.0-37.0","3X65QVEQI1985F1DZOJLIDJ0FG0CLU","AOCZRH4QWLCMF","37SDSEDIN9ORHL92Y0GV7TIFJ2X187","","null","<img src=""img/food6.png"" style=""width:200px; border:14px solid green;"">","null","","","","","","","","","",""
"","image-keyboard-response","38","87905","0.0-38.0","3X65QVEQI1985F1DZOJLIDJ0FG0CLU","AOCZRH4QWLCMF","37SDSEDIN9ORHL92Y0GV7TIFJ2X187","","465.10000014305115","img/food6.png","75","466.09999990463257","2","1","3","1","1,0.5,0,1,0.5,0,0.5,0,1","0.5,0,1,0.5,0,1,0,1,0.5","2","",""
"","html-keyboard-response","39","88209","0.0-39.0","3X65QVEQI1985F1DZOJLIDJ0FG0CLU","AOCZRH4QWLCMF","37SDSEDIN9ORHL92Y0GV7TIFJ2X187","","null","<img src=""img/food6.png"" style=""width:200px; border:14px solid green;"">","null","","","","","","","","","",""
"","image-keyboard-response","40","88622","0.0-40.0","3X65QVEQI1985F1DZOJLIDJ0FG0CLU","AOCZRH4QWLCMF","37SDSEDIN9ORHL92Y0GV7TIFJ2X187","","411.7999999523163","img/food6.png","75","413.30000019073486","2","1","3","1","1,0.5,0,1,0.5,0,0.5,0,1","0.5,0,1,0.5,0,1,0,1,0.5","2","",""
"","html-keyboard-response","41","88926","0.0-41.0","3X65QVEQI1985F1DZOJLIDJ0FG0CLU","AOCZRH4QWLCMF","37SDSEDIN9ORHL92Y0GV7TIFJ2X187","","null","<img src=""img/food6.png"" style=""width:200px; border:14px solid green;"">","null","","","","","","","","","",""
"","image-keyboard-response","42","89682","0.0-42.0","3X65QVEQI1985F1DZOJLIDJ0FG0CLU","AOCZRH4QWLCMF","37SDSEDIN9ORHL92Y0GV7TIFJ2X187","","754.1000001430511","img/food3.png","76","755.5","3","1","2","1","1,0.5,0,1,0.5,0,0.5,0,1","0.5,0,1,0.5,0,1,0,1,0.5","2","",""
"","html-keyboard-response","43","89987","0.0-43.0","3X65QVEQI1985F1DZOJLIDJ0FG0CLU","AOCZRH4QWLCMF","37SDSEDIN9ORHL92Y0GV7TIFJ2X187","","null","<img src=""img/food3.png"" style=""width:200px; border:14px solid green;"">","null","","","","","","","","","",""
"","image-keyboard-response","44","90920","0.0-44.0","3X65QVEQI1985F1DZOJLIDJ0FG0CLU","AOCZRH4QWLCMF","37SDSEDIN9ORHL92Y0GV7TIFJ2X187","","931.6999998092651","img/food6.png","75","932.0999999046326","2","1","3","1","1,0.5,0,1,0.5,0,0.5,0,1","0.5,0,1,0.5,0,1,0,1,0.5","2","",""
"","html-keyboard-response","45","91222","0.0-45.0","3X65QVEQI1985F1DZOJLIDJ0FG0CLU","AOCZRH4QWLCMF","37SDSEDIN9ORHL92Y0GV7TIFJ2X187","","null","<img src=""img/food6.png"" style=""width:200px; border:14px solid green;"">","null","","","","","","","","","",""
"","image-keyboard-response","46","91573","0.0-46.0","3X65QVEQI1985F1DZOJLIDJ0FG0CLU","AOCZRH4QWLCMF","37SDSEDIN9ORHL92Y0GV7TIFJ2X187","","350.60000014305115","img/food6.png","75","351.2000000476837","2","1","3","1","1,0.5,0,1,0.5,0,0.5,0,1","0.5,0,1,0.5,0,1,0,1,0.5","2","",""
"","html-keyboard-response","47","91875","0.0-47.0","3X65QVEQI1985F1DZOJLIDJ0FG0CLU","AOCZRH4QWLCMF","37SDSEDIN9ORHL92Y0GV7TIFJ2X187","","null","<img src=""img/food6.png"" style=""width:200px; border:14px solid green;"">","null","","","","","","","","","",""
"","image-keyboard-response","48","92233","0.0-48.0","3X65QVEQI1985F1DZOJLIDJ0FG0CLU","AOCZRH4QWLCMF","37SDSEDIN9ORHL92Y0GV7TIFJ2X187","","356.89999985694885","img/food5.png","76","358.2999999523163","3","1","1","1","1,0.5,0,1,0.5,0,0.5,0,1","0.5,0,1,0.5,0,1,0,1,0.5","2","",""
"","html-keyboard-response","49","92536","0.0-49.0","3X65QVEQI1985F1DZOJLIDJ0FG0CLU","AOCZRH4QWLCMF","37SDSEDIN9ORHL92Y0GV7TIFJ2X187","","null","<img src=""img/food5.png"" style=""width:200px; border:14px solid green;"">","null","","","","","","","","","",""
"","image-keyboard-response","50","92909","0.0-50.0","3X65QVEQI1985F1DZOJLIDJ0FG0CLU","AOCZRH4QWLCMF","37SDSEDIN9ORHL92Y0GV7TIFJ2X187","","372.40000009536743","img/food5.png","76","373.5","3","1","1","1","1,0.5,0,1,0.5,0,0.5,0,1","0.5,0,1,0.5,0,1,0,1,0.5","2","",""
"","html-keyboard-response","51","93212","0.0-51.0","3X65QVEQI1985F1DZOJLIDJ0FG0CLU","AOCZRH4QWLCMF","37SDSEDIN9ORHL92Y0GV7TIFJ2X187","","null","<img src=""img/food5.png"" style=""width:200px; border:14px solid green;"">","null","","","","","","","","","",""
"","image-keyboard-response","52","93649","0.0-52.0","3X65QVEQI1985F1DZOJLIDJ0FG0CLU","AOCZRH4QWLCMF","37SDSEDIN9ORHL92Y0GV7TIFJ2X187","","435.2000000476837","img/food6.png","76","436.2999999523163","3","1","3","1","1,0.5,0,1,0.5,0,0.5,0,1","0.5,0,1,0.5,0,1,0,1,0.5","2","",""
"","html-keyboard-response","53","93951","0.0-53.0","3X65QVEQI1985F1DZOJLIDJ0FG0CLU","AOCZRH4QWLCMF","37SDSEDIN9ORHL92Y0GV7TIFJ2X187","","null","<img src=""img/food6.png"" style=""width:200px; border:14px solid green;"">","null","","","","","","","","","",""
"","image-keyboard-response","54","94586","0.0-54.0","3X65QVEQI1985F1DZOJLIDJ0FG0CLU","AOCZRH4QWLCMF","37SDSEDIN9ORHL92Y0GV7TIFJ2X187","","633.5","img/food5.png","76","634.9000000953674","3","1","1","1","1,0.5,0,1,0.5,0,0.5,0,1","0.5,0,1,0.5,0,1,0,1,0.5","2","",""
"","html-keyboard-response","55","94888","0.0-55.0","3X65QVEQI1985F1DZOJLIDJ0FG0CLU","AOCZRH4QWLCMF","37SDSEDIN9ORHL92Y0GV7TIFJ2X187","","null","<img src=""img/food5.png"" style=""width:200px; border:14px solid green;"">","null","","","","","","","","","",""
"","image-keyboard-response","56","95218","0.0-56.0","3X65QVEQI1985F1DZOJLIDJ0FG0CLU","AOCZRH4QWLCMF","37SDSEDIN9ORHL92Y0GV7TIFJ2X187","","328.10000014305115","img/food5.png","76","329.5","3","1","1","1","1,0.5,0,1,0.5,0,0.5,0,1","0.5,0,1,0.5,0,1,0,1,0.5","2","",""
"","html-keyboard-response","57","95519","0.0-57.0","3X65QVEQI1985F1DZOJLIDJ0FG0CLU","AOCZRH4QWLCMF","37SDSEDIN9ORHL92Y0GV7TIFJ2X187","","null","<img src=""img/food5.png"" style=""width:200px; border:14px solid green;"">","null","","","","","","","","","",""
"","image-keyboard-response","58","95842","0.0-58.0","3X65QVEQI1985F1DZOJLIDJ0FG0CLU","AOCZRH4QWLCMF","37SDSEDIN9ORHL92Y0GV7TIFJ2X187","","322","img/food5.png","76","323","3","1","1","1","1,0.5,0,1,0.5,0,0.5,0,1","0.5,0,1,0.5,0,1,0,1,0.5","2","",""
"","html-keyboard-response","59","96144","0.0-59.0","3X65QVEQI1985F1DZOJLIDJ0FG0CLU","AOCZRH4QWLCMF","37SDSEDIN9ORHL92Y0GV7TIFJ2X187","","null","<img src=""img/food5.png"" style=""width:200px; border:14px solid green;"">","null","","","","","","","","","",""
"","image-keyboard-response","60","96889","0.0-60.0","3X65QVEQI1985F1DZOJLIDJ0FG0CLU","AOCZRH4QWLCMF","37SDSEDIN9ORHL92Y0GV7TIFJ2X187","","743.8999998569489","img/food3.png","76","745.0999999046326","3","1","2","1","1,0.5,0,1,0.5,0,0.5,0,1","0.5,0,1,0.5,0,1,0,1,0.5","2","",""
"","html-keyboard-response","61","97192","0.0-61.0","3X65QVEQI1985F1DZOJLIDJ0FG0CLU","AOCZRH4QWLCMF","37SDSEDIN9ORHL92Y0GV7TIFJ2X187","","null","<img src=""img/food3.png"" style=""width:200px; border:14px solid green;"">","null","","","","","","","","","",""
"","image-keyboard-response","62","97586","0.0-62.0","3X65QVEQI1985F1DZOJLIDJ0FG0CLU","AOCZRH4QWLCMF","37SDSEDIN9ORHL92Y0GV7TIFJ2X187","","393.09999990463257","img/food3.png","76","393.89999985694885","3","1","2","1","1,0.5,0,1,0.5,0,0.5,0,1","0.5,0,1,0.5,0,1,0,1,0.5","2","",""
"","html-keyboard-response","63","97888","0.0-63.0","3X65QVEQI1985F1DZOJLIDJ0FG0CLU","AOCZRH4QWLCMF","37SDSEDIN9ORHL92Y0GV7TIFJ2X187","","null","<img src=""img/food3.png"" style=""width:200px; border:14px solid green;"">","null","","","","","","","","","",""
"","image-keyboard-response","64","98568","0.0-64.0","3X65QVEQI1985F1DZOJLIDJ0FG0CLU","AOCZRH4QWLCMF","37SDSEDIN9ORHL92Y0GV7TIFJ2X187","","679.1000001430511","img/food6.png","76","680","3","1","3","1","1,0.5,0,1,0.5,0,0.5,0,1","0.5,0,1,0.5,0,1,0,1,0.5","2","",""
"","html-keyboard-response","65","98870","0.0-65.0","3X65QVEQI1985F1DZOJLIDJ0FG0CLU","AOCZRH4QWLCMF","37SDSEDIN9ORHL92Y0GV7TIFJ2X187","","null","<img src=""img/food6.png"" style=""width:200px; border:14px solid green;"">","null","","","","","","","","","",""
"","image-keyboard-response","66","99898","0.0-66.0","3X65QVEQI1985F1DZOJLIDJ0FG0CLU","AOCZRH4QWLCMF","37SDSEDIN9ORHL92Y0GV7TIFJ2X187","","1026.7000000476837","img/food3.png","76","1027.5999999046326","3","1","2","1","1,0.5,0,1,0.5,0,0.5,0,1","0.5,0,1,0.5,0,1,0,1,0.5","2","",""
"","html-keyboard-response","67","100201","0.0-67.0","3X65QVEQI1985F1DZOJLIDJ0FG0CLU","AOCZRH4QWLCMF","37SDSEDIN9ORHL92Y0GV7TIFJ2X187","","null","<img src=""img/food3.png"" style=""width:200px; border:14px solid green;"">","null","","","","","","","","","",""
"","image-keyboard-response","68","101185","0.0-68.0","3X65QVEQI1985F1DZOJLIDJ0FG0CLU","AOCZRH4QWLCMF","37SDSEDIN9ORHL92Y0GV7TIFJ2X187","","983.7999999523163","img/food3.png","74","984.5999999046326","1","0","2","1","1,0.5,0,1,0.5,0,0.5,0,1","0.5,0,1,0.5,0,1,0,1,0.5","2","",""
"","html-keyboard-response","69","101487","0.0-69.0","3X65QVEQI1985F1DZOJLIDJ0FG0CLU","AOCZRH4QWLCMF","37SDSEDIN9ORHL92Y0GV7TIFJ2X187","","null","<img src=""img/food3.png"" style=""width:200px;border:14px solid red;"">","null","","","","","","","","","",""
"","image-keyboard-response","70","102473","0.0-70.0","3X65QVEQI1985F1DZOJLIDJ0FG0CLU","AOCZRH4QWLCMF","37SDSEDIN9ORHL92Y0GV7TIFJ2X187","","985.2000000476837","img/food3.png","76","985.8999998569489","3","1","2","1","1,0.5,0,1,0.5,0,0.5,0,1","0.5,0,1,0.5,0,1,0,1,0.5","2","",""
"","html-keyboard-response","71","102776","0.0-71.0","3X65QVEQI1985F1DZOJLIDJ0FG0CLU","AOCZRH4QWLCMF","37SDSEDIN9ORHL92Y0GV7TIFJ2X187","","null","<img src=""img/food3.png"" style=""width:200px; border:14px solid green;"">","null","","","","","","","","","",""
"","image-keyboard-response","72","103242","0.0-72.0","3X65QVEQI1985F1DZOJLIDJ0FG0CLU","AOCZRH4QWLCMF","37SDSEDIN9ORHL92Y0GV7TIFJ2X187","","465","img/food3.png","76","466.5","3","1","2","1","1,0.5,0,1,0.5,0,0.5,0,1","0.5,0,1,0.5,0,1,0,1,0.5","2","",""
"","html-keyboard-response","73","103546","0.0-73.0","3X65QVEQI1985F1DZOJLIDJ0FG0CLU","AOCZRH4QWLCMF","37SDSEDIN9ORHL92Y0GV7TIFJ2X187","","null","<img src=""img/food3.png"" style=""width:200px; border:14px solid green;"">","null","","","","","","","","","",""
"","image-keyboard-response","74","104412","0.0-74.0","3X65QVEQI1985F1DZOJLIDJ0FG0CLU","AOCZRH4QWLCMF","37SDSEDIN9ORHL92Y0GV7TIFJ2X187","","864.9000000953674","img/food5.png","75","865.8999998569489","2","0","1","1","1,0.5,0,1,0.5,0,0.5,0,1","0.5,0,1,0.5,0,1,0,1,0.5","2","",""
"","html-keyboard-response","75","104714","0.0-75.0","3X65QVEQI1985F1DZOJLIDJ0FG0CLU","AOCZRH4QWLCMF","37SDSEDIN9ORHL92Y0GV7TIFJ2X187","","null","<img src=""img/food5.png"" style=""width:200px;border:14px solid red;"">","null","","","","","","","","","",""
"","image-keyboard-response","76","106160","0.0-76.0","3X65QVEQI1985F1DZOJLIDJ0FG0CLU","AOCZRH4QWLCMF","37SDSEDIN9ORHL92Y0GV7TIFJ2X187","","1445","img/food3.png","76","1445.9000000953674","3","1","2","1","1,0.5,0,1,0.5,0,0.5,0,1","0.5,0,1,0.5,0,1,0,1,0.5","2","",""
"","html-keyboard-response","77","106461","0.0-77.0","3X65QVEQI1985F1DZOJLIDJ0FG0CLU","AOCZRH4QWLCMF","37SDSEDIN9ORHL92Y0GV7TIFJ2X187","","null","<img src=""img/food3.png"" style=""width:200px; border:14px solid green;"">","null","","","","","","","","","",""
"","image-keyboard-response","78","106880","0.0-78.0","3X65QVEQI1985F1DZOJLIDJ0FG0CLU","AOCZRH4QWLCMF","37SDSEDIN9ORHL92Y0GV7TIFJ2X187","","418","img/food3.png","76","419.09999990463257","3","1","2","1","1,0.5,0,1,0.5,0,0.5,0,1","0.5,0,1,0.5,0,1,0,1,0.5","2","",""
"","html-keyboard-response","79","107182","0.0-79.0","3X65QVEQI1985F1DZOJLIDJ0FG0CLU","AOCZRH4QWLCMF","37SDSEDIN9ORHL92Y0GV7TIFJ2X187","","null","<img src=""img/food3.png"" style=""width:200px; border:14px solid green;"">","null","","","","","","","","","",""
"","image-keyboard-response","80","107698","0.0-80.0","3X65QVEQI1985F1DZOJLIDJ0FG0CLU","AOCZRH4QWLCMF","37SDSEDIN9ORHL92Y0GV7TIFJ2X187","","514.9000000953674","img/food5.png","76","515.5999999046326","3","1","1","1","1,0.5,0,1,0.5,0,0.5,0,1","0.5,0,1,0.5,0,1,0,1,0.5","2","",""
"","html-keyboard-response","81","108000","0.0-81.0","3X65QVEQI1985F1DZOJLIDJ0FG0CLU","AOCZRH4QWLCMF","37SDSEDIN9ORHL92Y0GV7TIFJ2X187","","null","<img src=""img/food5.png"" style=""width:200px; border:14px solid green;"">","null","","","","","","","","","",""
"","image-keyboard-response","82","108627","0.0-82.0","3X65QVEQI1985F1DZOJLIDJ0FG0CLU","AOCZRH4QWLCMF","37SDSEDIN9ORHL92Y0GV7TIFJ2X187","","625.7000000476837","img/food6.png","75","626.8999998569489","2","1","3","1","1,0.5,0,1,0.5,0,0.5,0,1","0.5,0,1,0.5,0,1,0,1,0.5","2","",""
"","html-keyboard-response","83","108929","0.0-83.0","3X65QVEQI1985F1DZOJLIDJ0FG0CLU","AOCZRH4QWLCMF","37SDSEDIN9ORHL92Y0GV7TIFJ2X187","","null","<img src=""img/food6.png"" style=""width:200px; border:14px solid green;"">","null","","","","","","","","","",""
"","image-keyboard-response","84","109544","0.0-84.0","3X65QVEQI1985F1DZOJLIDJ0FG0CLU","AOCZRH4QWLCMF","37SDSEDIN9ORHL92Y0GV7TIFJ2X187","","614.2999999523163","img/food5.png","76","615","3","1","1","1","1,0.5,0,1,0.5,0,0.5,0,1","0.5,0,1,0.5,0,1,0,1,0.5","2","",""
"","html-keyboard-response","85","109845","0.0-85.0","3X65QVEQI1985F1DZOJLIDJ0FG0CLU","AOCZRH4QWLCMF","37SDSEDIN9ORHL92Y0GV7TIFJ2X187","","null","<img src=""img/food5.png"" style=""width:200px; border:14px solid green;"">","null","","","","","","","","","",""
"","image-keyboard-response","86","110164","0.0-86.0","3X65QVEQI1985F1DZOJLIDJ0FG0CLU","AOCZRH4QWLCMF","37SDSEDIN9ORHL92Y0GV7TIFJ2X187","","316.89999985694885","img/food5.png","76","318","3","1","1","1","1,0.5,0,1,0.5,0,0.5,0,1","0.5,0,1,0.5,0,1,0,1,0.5","2","",""
"","html-keyboard-response","87","110465","0.0-87.0","3X65QVEQI1985F1DZOJLIDJ0FG0CLU","AOCZRH4QWLCMF","37SDSEDIN9ORHL92Y0GV7TIFJ2X187","","null","<img src=""img/food5.png"" style=""width:200px; border:14px solid green;"">","null","","","","","","","","","",""
"","image-keyboard-response","88","111521","0.0-88.0","3X65QVEQI1985F1DZOJLIDJ0FG0CLU","AOCZRH4QWLCMF","37SDSEDIN9ORHL92Y0GV7TIFJ2X187","","1055.0999999046326","img/food3.png","76","1056","3","1","2","1","1,0.5,0,1,0.5,0,0.5,0,1","0.5,0,1,0.5,0,1,0,1,0.5","2","",""
"","html-keyboard-response","89","111824","0.0-89.0","3X65QVEQI1985F1DZOJLIDJ0FG0CLU","AOCZRH4QWLCMF","37SDSEDIN9ORHL92Y0GV7TIFJ2X187","","null","<img src=""img/food3.png"" style=""width:200px; border:14px solid green;"">","null","","","","","","","","","",""
"","image-keyboard-response","90","112200","0.0-90.0","3X65QVEQI1985F1DZOJLIDJ0FG0CLU","AOCZRH4QWLCMF","37SDSEDIN9ORHL92Y0GV7TIFJ2X187","","375.89999985694885","img/food3.png","76","376.5","3","1","2","1","1,0.5,0,1,0.5,0,0.5,0,1","0.5,0,1,0.5,0,1,0,1,0.5","2","",""
"","html-keyboard-response","91","112502","0.0-91.0","3X65QVEQI1985F1DZOJLIDJ0FG0CLU","AOCZRH4QWLCMF","37SDSEDIN9ORHL92Y0GV7TIFJ2X187","","null","<img src=""img/food3.png"" style=""width:200px; border:14px solid green;"">","null","","","","","","","","","",""
"","image-keyboard-response","92","113745","0.0-92.0","3X65QVEQI1985F1DZOJLIDJ0FG0CLU","AOCZRH4QWLCMF","37SDSEDIN9ORHL92Y0GV7TIFJ2X187","","1243.0999999046326","img/food5.png","76","1243.4000000953674","3","1","1","1","1,0.5,0,1,0.5,0,0.5,0,1","0.5,0,1,0.5,0,1,0,1,0.5","2","",""
"","html-keyboard-response","93","114046","0.0-93.0","3X65QVEQI1985F1DZOJLIDJ0FG0CLU","AOCZRH4QWLCMF","37SDSEDIN9ORHL92Y0GV7TIFJ2X187","","null","<img src=""img/food5.png"" style=""width:200px; border:14px solid green;"">","null","","","","","","","","","",""
"","image-keyboard-response","94","114670","0.0-94.0","3X65QVEQI1985F1DZOJLIDJ0FG0CLU","AOCZRH4QWLCMF","37SDSEDIN9ORHL92Y0GV7TIFJ2X187","","622.4000000953674","img/food6.png","75","623.7999999523163","2","1","3","1","1,0.5,0,1,0.5,0,0.5,0,1","0.5,0,1,0.5,0,1,0,1,0.5","2","",""
"","html-keyboard-response","95","114972","0.0-95.0","3X65QVEQI1985F1DZOJLIDJ0FG0CLU","AOCZRH4QWLCMF","37SDSEDIN9ORHL92Y0GV7TIFJ2X187","","null","<img src=""img/food6.png"" style=""width:200px; border:14px solid green;"">","null","","","","","","","","","",""
"","image-keyboard-response","96","115354","0.0-96.0","3X65QVEQI1985F1DZOJLIDJ0FG0CLU","AOCZRH4QWLCMF","37SDSEDIN9ORHL92Y0GV7TIFJ2X187","","379.7999999523163","img/food6.png","75","381.09999990463257","2","1","3","1","1,0.5,0,1,0.5,0,0.5,0,1","0.5,0,1,0.5,0,1,0,1,0.5","2","",""
"","html-keyboard-response","97","115656","0.0-97.0","3X65QVEQI1985F1DZOJLIDJ0FG0CLU","AOCZRH4QWLCMF","37SDSEDIN9ORHL92Y0GV7TIFJ2X187","","null","<img src=""img/food6.png"" style=""width:200px; border:14px solid green;"">","null","","","","","","","","","",""
"","image-keyboard-response","98","116002","0.0-98.0","3X65QVEQI1985F1DZOJLIDJ0FG0CLU","AOCZRH4QWLCMF","37SDSEDIN9ORHL92Y0GV7TIFJ2X187","","343.7999999523163","img/food6.png","75","345.10000014305115","2","1","3","1","1,0.5,0,1,0.5,0,0.5,0,1","0.5,0,1,0.5,0,1,0,1,0.5","2","",""
"","html-keyboard-response","99","116304","0.0-99.0","3X65QVEQI1985F1DZOJLIDJ0FG0CLU","AOCZRH4QWLCMF","37SDSEDIN9ORHL92Y0GV7TIFJ2X187","","null","<img src=""img/food6.png"" style=""width:200px; border:14px solid green;"">","null","","","","","","","","","",""
"","image-keyboard-response","100","116937","0.0-100.0","3X65QVEQI1985F1DZOJLIDJ0FG0CLU","AOCZRH4QWLCMF","37SDSEDIN9ORHL92Y0GV7TIFJ2X187","","631.7000000476837","img/food5.png","76","632.7999999523163","3","1","1","1","1,0.5,0,1,0.5,0,0.5,0,1","0.5,0,1,0.5,0,1,0,1,0.5","2","",""
"","html-keyboard-response","101","117239","0.0-101.0","3X65QVEQI1985F1DZOJLIDJ0FG0CLU","AOCZRH4QWLCMF","37SDSEDIN9ORHL92Y0GV7TIFJ2X187","","null","<img src=""img/food5.png"" style=""width:200px; border:14px solid green;"">","null","","","","","","","","","",""
"","image-keyboard-response","102","118113","0.0-102.0","3X65QVEQI1985F1DZOJLIDJ0FG0CLU","AOCZRH4QWLCMF","37SDSEDIN9ORHL92Y0GV7TIFJ2X187","","873.0999999046326","img/food6.png","75","874.0999999046326","2","1","3","1","1,0.5,0,1,0.5,0,0.5,0,1","0.5,0,1,0.5,0,1,0,1,0.5","2","",""
"","html-keyboard-response","103","118415","0.0-103.0","3X65QVEQI1985F1DZOJLIDJ0FG0CLU","AOCZRH4QWLCMF","37SDSEDIN9ORHL92Y0GV7TIFJ2X187","","null","<img src=""img/food6.png"" style=""width:200px; border:14px solid green;"">","null","","","","","","","","","",""
"","image-keyboard-response","104","118769","0.0-104.0","3X65QVEQI1985F1DZOJLIDJ0FG0CLU","AOCZRH4QWLCMF","37SDSEDIN9ORHL92Y0GV7TIFJ2X187","","353.5","img/food6.png","75","354.2000000476837","2","1","3","1","1,0.5,0,1,0.5,0,0.5,0,1","0.5,0,1,0.5,0,1,0,1,0.5","2","",""
"","html-keyboard-response","105","119072","0.0-105.0","3X65QVEQI1985F1DZOJLIDJ0FG0CLU","AOCZRH4QWLCMF","37SDSEDIN9ORHL92Y0GV7TIFJ2X187","","null","<img src=""img/food6.png"" style=""width:200px; border:14px solid green;"">","null","","","","","","","","","",""
"","image-keyboard-response","106","119922","0.0-106.0","3X65QVEQI1985F1DZOJLIDJ0FG0CLU","AOCZRH4QWLCMF","37SDSEDIN9ORHL92Y0GV7TIFJ2X187","","848.3999998569489","img/food3.png","75","849.7999999523163","2","0","2","1","1,0.5,0,1,0.5,0,0.5,0,1","0.5,0,1,0.5,0,1,0,1,0.5","2","",""
"","html-keyboard-response","107","120225","0.0-107.0","3X65QVEQI1985F1DZOJLIDJ0FG0CLU","AOCZRH4QWLCMF","37SDSEDIN9ORHL92Y0GV7TIFJ2X187","","null","<img src=""img/food3.png"" style=""width:200px;border:14px solid red;"">","null","","","","","","","","","",""
"","image-keyboard-response","108","121130","0.0-108.0","3X65QVEQI1985F1DZOJLIDJ0FG0CLU","AOCZRH4QWLCMF","37SDSEDIN9ORHL92Y0GV7TIFJ2X187","","904.3999998569489","img/food6.png","75","905.2000000476837","2","1","3","1","1,0.5,0,1,0.5,0,0.5,0,1","0.5,0,1,0.5,0,1,0,1,0.5","2","",""
"","html-keyboard-response","109","121432","0.0-109.0","3X65QVEQI1985F1DZOJLIDJ0FG0CLU","AOCZRH4QWLCMF","37SDSEDIN9ORHL92Y0GV7TIFJ2X187","","null","<img src=""img/food6.png"" style=""width:200px; border:14px solid green;"">","null","","","","","","","","","",""
"","image-keyboard-response","110","121985","0.0-110.0","3X65QVEQI1985F1DZOJLIDJ0FG0CLU","AOCZRH4QWLCMF","37SDSEDIN9ORHL92Y0GV7TIFJ2X187","","552.1000001430511","img/food5.png","76","553","3","1","1","1","1,0.5,0,1,0.5,0,0.5,0,1","0.5,0,1,0.5,0,1,0,1,0.5","2","",""
"","html-keyboard-response","111","122288","0.0-111.0","3X65QVEQI1985F1DZOJLIDJ0FG0CLU","AOCZRH4QWLCMF","37SDSEDIN9ORHL92Y0GV7TIFJ2X187","","null","<img src=""img/food5.png"" style=""width:200px; border:14px solid green;"">","null","","","","","","","","","",""
"","image-keyboard-response","112","122626","0.0-112.0","3X65QVEQI1985F1DZOJLIDJ0FG0CLU","AOCZRH4QWLCMF","37SDSEDIN9ORHL92Y0GV7TIFJ2X187","","336.09999990463257","img/food5.png","76","336.5","3","1","1","1","1,0.5,0,1,0.5,0,0.5,0,1","0.5,0,1,0.5,0,1,0,1,0.5","2","",""
"","html-keyboard-response","113","122927","0.0-113.0","3X65QVEQI1985F1DZOJLIDJ0FG0CLU","AOCZRH4QWLCMF","37SDSEDIN9ORHL92Y0GV7TIFJ2X187","","null","<img src=""img/food5.png"" style=""width:200px; border:14px solid green;"">","null","","","","","","","","","",""
"","image-keyboard-response","114","123834","0.0-114.0","3X65QVEQI1985F1DZOJLIDJ0FG0CLU","AOCZRH4QWLCMF","37SDSEDIN9ORHL92Y0GV7TIFJ2X187","","905.0999999046326","img/food3.png","76","906.2999999523163","3","1","2","1","1,0.5,0,1,0.5,0,0.5,0,1","0.5,0,1,0.5,0,1,0,1,0.5","2","",""
"","html-keyboard-response","115","124137","0.0-115.0","3X65QVEQI1985F1DZOJLIDJ0FG0CLU","AOCZRH4QWLCMF","37SDSEDIN9ORHL92Y0GV7TIFJ2X187","","null","<img src=""img/food3.png"" style=""width:200px; border:14px solid green;"">","null","","","","","","","","","",""
"","image-keyboard-response","116","124882","0.0-116.0","3X65QVEQI1985F1DZOJLIDJ0FG0CLU","AOCZRH4QWLCMF","37SDSEDIN9ORHL92Y0GV7TIFJ2X187","","744.2000000476837","img/food5.png","76","745.2999999523163","3","1","1","1","1,0.5,0,1,0.5,0,0.5,0,1","0.5,0,1,0.5,0,1,0,1,0.5","2","",""
"","html-keyboard-response","117","125184","0.0-117.0","3X65QVEQI1985F1DZOJLIDJ0FG0CLU","AOCZRH4QWLCMF","37SDSEDIN9ORHL92Y0GV7TIFJ2X187","","null","<img src=""img/food5.png"" style=""width:200px; border:14px solid green;"">","null","","","","","","","","","",""
"","image-keyboard-response","118","125498","0.0-118.0","3X65QVEQI1985F1DZOJLIDJ0FG0CLU","AOCZRH4QWLCMF","37SDSEDIN9ORHL92Y0GV7TIFJ2X187","","312.2000000476837","img/food5.png","76","313.40000009536743","3","1","1","1","1,0.5,0,1,0.5,0,0.5,0,1","0.5,0,1,0.5,0,1,0,1,0.5","2","",""
"","html-keyboard-response","119","125801","0.0-119.0","3X65QVEQI1985F1DZOJLIDJ0FG0CLU","AOCZRH4QWLCMF","37SDSEDIN9ORHL92Y0GV7TIFJ2X187","","null","<img src=""img/food5.png"" style=""width:200px; border:14px solid green;"">","null","","","","","","","","","",""
"","image-keyboard-response","120","126074","0.0-120.0","3X65QVEQI1985F1DZOJLIDJ0FG0CLU","AOCZRH4QWLCMF","37SDSEDIN9ORHL92Y0GV7TIFJ2X187","","271.89999985694885","img/food5.png","76","272.40000009536743","3","1","1","1","1,0.5,0,1,0.5,0,0.5,0,1","0.5,0,1,0.5,0,1,0,1,0.5","2","",""
"","html-keyboard-response","121","126375","0.0-121.0","3X65QVEQI1985F1DZOJLIDJ0FG0CLU","AOCZRH4QWLCMF","37SDSEDIN9ORHL92Y0GV7TIFJ2X187","","null","<img src=""img/food5.png"" style=""width:200px; border:14px solid green;"">","null","","","","","","","","","",""
"","image-keyboard-response","122","126817","0.0-122.0","3X65QVEQI1985F1DZOJLIDJ0FG0CLU","AOCZRH4QWLCMF","37SDSEDIN9ORHL92Y0GV7TIFJ2X187","","439.90000009536743","img/food6.png","75","441.09999990463257","2","1","3","1","1,0.5,0,1,0.5,0,0.5,0,1","0.5,0,1,0.5,0,1,0,1,0.5","2","",""
"","html-keyboard-response","123","127117","0.0-123.0","3X65QVEQI1985F1DZOJLIDJ0FG0CLU","AOCZRH4QWLCMF","37SDSEDIN9ORHL92Y0GV7TIFJ2X187","","null","<img src=""img/food6.png"" style=""width:200px; border:14px solid green;"">","null","","","","","","","","","",""
"","image-keyboard-response","124","127457","0.0-124.0","3X65QVEQI1985F1DZOJLIDJ0FG0CLU","AOCZRH4QWLCMF","37SDSEDIN9ORHL92Y0GV7TIFJ2X187","","338.5","img/food6.png","75","339.2000000476837","2","1","3","1","1,0.5,0,1,0.5,0,0.5,0,1","0.5,0,1,0.5,0,1,0,1,0.5","2","",""
"","html-keyboard-response","125","127758","0.0-125.0","3X65QVEQI1985F1DZOJLIDJ0FG0CLU","AOCZRH4QWLCMF","37SDSEDIN9ORHL92Y0GV7TIFJ2X187","","null","<img src=""img/food6.png"" style=""width:200px; border:14px solid green;"">","null","","","","","","","","","",""
"","image-keyboard-response","126","128090","0.0-126.0","3X65QVEQI1985F1DZOJLIDJ0FG0CLU","AOCZRH4QWLCMF","37SDSEDIN9ORHL92Y0GV7TIFJ2X187","","330.10000014305115","img/food6.png","75","331.5","2","1","3","1","1,0.5,0,1,0.5,0,0.5,0,1","0.5,0,1,0.5,0,1,0,1,0.5","2","",""
"","html-keyboard-response","127","128393","0.0-127.0","3X65QVEQI1985F1DZOJLIDJ0FG0CLU","AOCZRH4QWLCMF","37SDSEDIN9ORHL92Y0GV7TIFJ2X187","","null","<img src=""img/food6.png"" style=""width:200px; border:14px solid green;"">","null","","","","","","","","","",""
"","image-keyboard-response","128","129064","0.0-128.0","3X65QVEQI1985F1DZOJLIDJ0FG0CLU","AOCZRH4QWLCMF","37SDSEDIN9ORHL92Y0GV7TIFJ2X187","","670.2999999523163","img/food5.png","76","671.2000000476837","3","1","1","1","1,0.5,0,1,0.5,0,0.5,0,1","0.5,0,1,0.5,0,1,0,1,0.5","2","",""
"","html-keyboard-response","129","129366","0.0-129.0","3X65QVEQI1985F1DZOJLIDJ0FG0CLU","AOCZRH4QWLCMF","37SDSEDIN9ORHL92Y0GV7TIFJ2X187","","null","<img src=""img/food5.png"" style=""width:200px; border:14px solid green;"">","null","","","","","","","","","",""
"","image-keyboard-response","130","130373","0.0-130.0","3X65QVEQI1985F1DZOJLIDJ0FG0CLU","AOCZRH4QWLCMF","37SDSEDIN9ORHL92Y0GV7TIFJ2X187","","1005.0999999046326","img/food6.png","75","1006.0999999046326","2","1","3","1","1,0.5,0,1,0.5,0,0.5,0,1","0.5,0,1,0.5,0,1,0,1,0.5","2","",""
"","html-keyboard-response","131","130674","0.0-131.0","3X65QVEQI1985F1DZOJLIDJ0FG0CLU","AOCZRH4QWLCMF","37SDSEDIN9ORHL92Y0GV7TIFJ2X187","","null","<img src=""img/food6.png"" style=""width:200px; border:14px solid green;"">","null","","","","","","","","","",""
"","image-keyboard-response","132","131434","0.0-132.0","3X65QVEQI1985F1DZOJLIDJ0FG0CLU","AOCZRH4QWLCMF","37SDSEDIN9ORHL92Y0GV7TIFJ2X187","","758.3999998569489","img/food3.png","76","759.7000000476837","3","1","2","1","1,0.5,0,1,0.5,0,0.5,0,1","0.5,0,1,0.5,0,1,0,1,0.5","2","",""
"","html-keyboard-response","133","131749","0.0-133.0","3X65QVEQI1985F1DZOJLIDJ0FG0CLU","AOCZRH4QWLCMF","37SDSEDIN9ORHL92Y0GV7TIFJ2X187","","null","<img src=""img/food3.png"" style=""width:200px; border:14px solid green;"">","null","","","","","","","","","",""
"","image-keyboard-response","134","132433","0.0-134.0","3X65QVEQI1985F1DZOJLIDJ0FG0CLU","AOCZRH4QWLCMF","37SDSEDIN9ORHL92Y0GV7TIFJ2X187","","683.2000000476837","img/food5.png","76","683.9000000953674","3","1","1","1","1,0.5,0,1,0.5,0,0.5,0,1","0.5,0,1,0.5,0,1,0,1,0.5","2","",""
"","html-keyboard-response","135","132734","0.0-135.0","3X65QVEQI1985F1DZOJLIDJ0FG0CLU","AOCZRH4QWLCMF","37SDSEDIN9ORHL92Y0GV7TIFJ2X187","","null","<img src=""img/food5.png"" style=""width:200px; border:14px solid green;"">","null","","","","","","","","","",""
"","image-keyboard-response","136","133304","0.0-136.0","3X65QVEQI1985F1DZOJLIDJ0FG0CLU","AOCZRH4QWLCMF","37SDSEDIN9ORHL92Y0GV7TIFJ2X187","","569.1000001430511","img/food6.png","76","569.7999999523163","3","0","3","1","1,0.5,0,1,0.5,0,0.5,0,1","0.5,0,1,0.5,0,1,0,1,0.5","2","",""
"","html-keyboard-response","137","133605","0.0-137.0","3X65QVEQI1985F1DZOJLIDJ0FG0CLU","AOCZRH4QWLCMF","37SDSEDIN9ORHL92Y0GV7TIFJ2X187","","null","<img src=""img/food6.png"" style=""width:200px;border:14px solid red;"">","null","","","","","","","","","",""
"","image-keyboard-response","138","134250","0.0-138.0","3X65QVEQI1985F1DZOJLIDJ0FG0CLU","AOCZRH4QWLCMF","37SDSEDIN9ORHL92Y0GV7TIFJ2X187","","643.2999999523163","img/food5.png","76","644.6000001430511","3","1","1","1","1,0.5,0,1,0.5,0,0.5,0,1","0.5,0,1,0.5,0,1,0,1,0.5","2","",""
"","html-keyboard-response","139","134553","0.0-139.0","3X65QVEQI1985F1DZOJLIDJ0FG0CLU","AOCZRH4QWLCMF","37SDSEDIN9ORHL92Y0GV7TIFJ2X187","","null","<img src=""img/food5.png"" style=""width:200px; border:14px solid green;"">","null","","","","","","","","","",""
"","image-keyboard-response","140","135266","0.0-140.0","3X65QVEQI1985F1DZOJLIDJ0FG0CLU","AOCZRH4QWLCMF","37SDSEDIN9ORHL92Y0GV7TIFJ2X187","","711.3000001907349","img/food3.png","76","712.2999999523163","3","1","2","1","1,0.5,0,1,0.5,0,0.5,0,1","0.5,0,1,0.5,0,1,0,1,0.5","2","",""
"","html-keyboard-response","141","135568","0.0-141.0","3X65QVEQI1985F1DZOJLIDJ0FG0CLU","AOCZRH4QWLCMF","37SDSEDIN9ORHL92Y0GV7TIFJ2X187","","null","<img src=""img/food3.png"" style=""width:200px; border:14px solid green;"">","null","","","","","","","","","",""
"","image-keyboard-response","142","136417","0.0-142.0","3X65QVEQI1985F1DZOJLIDJ0FG0CLU","AOCZRH4QWLCMF","37SDSEDIN9ORHL92Y0GV7TIFJ2X187","","848.2999999523163","img/food5.png","76","849.2999999523163","3","1","1","1","1,0.5,0,1,0.5,0,0.5,0,1","0.5,0,1,0.5,0,1,0,1,0.5","2","",""
"","html-keyboard-response","143","136719","0.0-143.0","3X65QVEQI1985F1DZOJLIDJ0FG0CLU","AOCZRH4QWLCMF","37SDSEDIN9ORHL92Y0GV7TIFJ2X187","","null","<img src=""img/food5.png"" style=""width:200px; border:14px solid green;"">","null","","","","","","","","","",""
"","image-keyboard-response","144","137330","0.0-144.0","3X65QVEQI1985F1DZOJLIDJ0FG0CLU","AOCZRH4QWLCMF","37SDSEDIN9ORHL92Y0GV7TIFJ2X187","","609.4000000953674","img/food3.png","76","610.6000001430511","3","1","2","1","1,0.5,0,1,0.5,0,0.5,0,1","0.5,0,1,0.5,0,1,0,1,0.5","2","",""
"","html-keyboard-response","145","137632","0.0-145.0","3X65QVEQI1985F1DZOJLIDJ0FG0CLU","AOCZRH4QWLCMF","37SDSEDIN9ORHL92Y0GV7TIFJ2X187","","null","<img src=""img/food3.png"" style=""width:200px; border:14px solid green;"">","null","","","","","","","","","",""
"","image-keyboard-response","146","137971","0.0-146.0","3X65QVEQI1985F1DZOJLIDJ0FG0CLU","AOCZRH4QWLCMF","37SDSEDIN9ORHL92Y0GV7TIFJ2X187","","336.90000009536743","img/food3.png","76","338.2000000476837","3","1","2","1","1,0.5,0,1,0.5,0,0.5,0,1","0.5,0,1,0.5,0,1,0,1,0.5","2","",""
"","html-keyboard-response","147","138273","0.0-147.0","3X65QVEQI1985F1DZOJLIDJ0FG0CLU","AOCZRH4QWLCMF","37SDSEDIN9ORHL92Y0GV7TIFJ2X187","","null","<img src=""img/food3.png"" style=""width:200px; border:14px solid green;"">","null","","","","","","","","","",""
"","image-keyboard-response","148","138857","0.0-148.0","3X65QVEQI1985F1DZOJLIDJ0FG0CLU","AOCZRH4QWLCMF","37SDSEDIN9ORHL92Y0GV7TIFJ2X187","","583.2000000476837","img/food5.png","76","584.3999998569489","3","1","1","1","1,0.5,0,1,0.5,0,0.5,0,1","0.5,0,1,0.5,0,1,0,1,0.5","2","",""
"","html-keyboard-response","149","139160","0.0-149.0","3X65QVEQI1985F1DZOJLIDJ0FG0CLU","AOCZRH4QWLCMF","37SDSEDIN9ORHL92Y0GV7TIFJ2X187","","null","<img src=""img/food5.png"" style=""width:200px; border:14px solid green;"">","null","","","","","","","","","",""
"","image-keyboard-response","150","139610","0.0-150.0","3X65QVEQI1985F1DZOJLIDJ0FG0CLU","AOCZRH4QWLCMF","37SDSEDIN9ORHL92Y0GV7TIFJ2X187","","448.19999980926514","img/food3.png","76","449.40000009536743","3","1","2","1","1,0.5,0,1,0.5,0,0.5,0,1","0.5,0,1,0.5,0,1,0,1,0.5","2","",""
"","html-keyboard-response","151","139912","0.0-151.0","3X65QVEQI1985F1DZOJLIDJ0FG0CLU","AOCZRH4QWLCMF","37SDSEDIN9ORHL92Y0GV7TIFJ2X187","","null","<img src=""img/food3.png"" style=""width:200px; border:14px solid green;"">","null","","","","","","","","","",""
"","image-keyboard-response","152","140304","0.0-152.0","3X65QVEQI1985F1DZOJLIDJ0FG0CLU","AOCZRH4QWLCMF","37SDSEDIN9ORHL92Y0GV7TIFJ2X187","","390.7000000476837","img/food3.png","76","391.69999980926514","3","1","2","1","1,0.5,0,1,0.5,0,0.5,0,1","0.5,0,1,0.5,0,1,0,1,0.5","2","",""
"","html-keyboard-response","153","140606","0.0-153.0","3X65QVEQI1985F1DZOJLIDJ0FG0CLU","AOCZRH4QWLCMF","37SDSEDIN9ORHL92Y0GV7TIFJ2X187","","null","<img src=""img/food3.png"" style=""width:200px; border:14px solid green;"">","null","","","","","","","","","",""
"","image-keyboard-response","154","141122","0.0-154.0","3X65QVEQI1985F1DZOJLIDJ0FG0CLU","AOCZRH4QWLCMF","37SDSEDIN9ORHL92Y0GV7TIFJ2X187","","515.1999998092651","img/food6.png","75","516.4000000953674","2","1","3","1","1,0.5,0,1,0.5,0,0.5,0,1","0.5,0,1,0.5,0,1,0,1,0.5","2","",""
"","html-keyboard-response","155","141425","0.0-155.0","3X65QVEQI1985F1DZOJLIDJ0FG0CLU","AOCZRH4QWLCMF","37SDSEDIN9ORHL92Y0GV7TIFJ2X187","","null","<img src=""img/food6.png"" style=""width:200px; border:14px solid green;"">","null","","","","","","","","","",""
"","image-keyboard-response","156","142369","0.0-156.0","3X65QVEQI1985F1DZOJLIDJ0FG0CLU","AOCZRH4QWLCMF","37SDSEDIN9ORHL92Y0GV7TIFJ2X187","","942.5999999046326","img/food3.png","76","943.7000000476837","3","1","2","1","1,0.5,0,1,0.5,0,0.5,0,1","0.5,0,1,0.5,0,1,0,1,0.5","2","",""
"","html-keyboard-response","157","142670","0.0-157.0","3X65QVEQI1985F1DZOJLIDJ0FG0CLU","AOCZRH4QWLCMF","37SDSEDIN9ORHL92Y0GV7TIFJ2X187","","null","<img src=""img/food3.png"" style=""width:200px; border:14px solid green;"">","null","","","","","","","","","",""
"","image-keyboard-response","158","143144","0.0-158.0","3X65QVEQI1985F1DZOJLIDJ0FG0CLU","AOCZRH4QWLCMF","37SDSEDIN9ORHL92Y0GV7TIFJ2X187","","473.39999985694885","img/food6.png","75","474.40000009536743","2","1","3","1","1,0.5,0,1,0.5,0,0.5,0,1","0.5,0,1,0.5,0,1,0,1,0.5","2","",""
"","html-keyboard-response","159","143447","0.0-159.0","3X65QVEQI1985F1DZOJLIDJ0FG0CLU","AOCZRH4QWLCMF","37SDSEDIN9ORHL92Y0GV7TIFJ2X187","","null","<img src=""img/food6.png"" style=""width:200px; border:14px solid green;"">","null","","","","","","","","","",""
"","image-keyboard-response","160","143994","0.0-160.0","3X65QVEQI1985F1DZOJLIDJ0FG0CLU","AOCZRH4QWLCMF","37SDSEDIN9ORHL92Y0GV7TIFJ2X187","","546.1000001430511","img/food3.png","76","546.9000000953674","3","1","2","1","1,0.5,0,1,0.5,0,0.5,0,1","0.5,0,1,0.5,0,1,0,1,0.5","2","",""
"","html-keyboard-response","161","144296","0.0-161.0","3X65QVEQI1985F1DZOJLIDJ0FG0CLU","AOCZRH4QWLCMF","37SDSEDIN9ORHL92Y0GV7TIFJ2X187","","null","<img src=""img/food3.png"" style=""width:200px; border:14px solid green;"">","null","","","","","","","","","",""
"","image-keyboard-response","162","144805","0.0-162.0","3X65QVEQI1985F1DZOJLIDJ0FG0CLU","AOCZRH4QWLCMF","37SDSEDIN9ORHL92Y0GV7TIFJ2X187","","508.40000009536743","img/food5.png","76","508.89999985694885","3","1","1","1","1,0.5,0,1,0.5,0,0.5,0,1","0.5,0,1,0.5,0,1,0,1,0.5","2","",""
"","html-keyboard-response","163","145105","0.0-163.0","3X65QVEQI1985F1DZOJLIDJ0FG0CLU","AOCZRH4QWLCMF","37SDSEDIN9ORHL92Y0GV7TIFJ2X187","","null","<img src=""img/food5.png"" style=""width:200px; border:14px solid green;"">","null","","","","","","","","","",""
"","image-keyboard-response","164","146233","0.0-164.0","3X65QVEQI1985F1DZOJLIDJ0FG0CLU","AOCZRH4QWLCMF","37SDSEDIN9ORHL92Y0GV7TIFJ2X187","","1127.0999999046326","img/food6.png","75","1127.5","2","1","3","1","1,0.5,0,1,0.5,0,0.5,0,1","0.5,0,1,0.5,0,1,0,1,0.5","2","",""
"","html-keyboard-response","165","146534","0.0-165.0","3X65QVEQI1985F1DZOJLIDJ0FG0CLU","AOCZRH4QWLCMF","37SDSEDIN9ORHL92Y0GV7TIFJ2X187","","null","<img src=""img/food6.png"" style=""width:200px; border:14px solid green;"">","null","","","","","","","","","",""
"","image-keyboard-response","166","147161","0.0-166.0","3X65QVEQI1985F1DZOJLIDJ0FG0CLU","AOCZRH4QWLCMF","37SDSEDIN9ORHL92Y0GV7TIFJ2X187","","625.5","img/food3.png","76","626.3999998569489","3","1","2","1","1,0.5,0,1,0.5,0,0.5,0,1","0.5,0,1,0.5,0,1,0,1,0.5","2","",""
"","html-keyboard-response","167","147463","0.0-167.0","3X65QVEQI1985F1DZOJLIDJ0FG0CLU","AOCZRH4QWLCMF","37SDSEDIN9ORHL92Y0GV7TIFJ2X187","","null","<img src=""img/food3.png"" style=""width:200px; border:14px solid green;"">","null","","","","","","","","","",""
"","image-keyboard-response","168","148138","0.0-168.0","3X65QVEQI1985F1DZOJLIDJ0FG0CLU","AOCZRH4QWLCMF","37SDSEDIN9ORHL92Y0GV7TIFJ2X187","","673.9000000953674","img/food6.png","75","674.5","2","1","3","1","1,0.5,0,1,0.5,0,0.5,0,1","0.5,0,1,0.5,0,1,0,1,0.5","2","",""
"","html-keyboard-response","169","148441","0.0-169.0","3X65QVEQI1985F1DZOJLIDJ0FG0CLU","AOCZRH4QWLCMF","37SDSEDIN9ORHL92Y0GV7TIFJ2X187","","null","<img src=""img/food6.png"" style=""width:200px; border:14px solid green;"">","null","","","","","","","","","",""
"","image-keyboard-response","170","149025","0.0-170.0","3X65QVEQI1985F1DZOJLIDJ0FG0CLU","AOCZRH4QWLCMF","37SDSEDIN9ORHL92Y0GV7TIFJ2X187","","583","img/food6.png","75","584","2","1","3","1","1,0.5,0,1,0.5,0,0.5,0,1","0.5,0,1,0.5,0,1,0,1,0.5","2","",""
"","html-keyboard-response","171","149327","0.0-171.0","3X65QVEQI1985F1DZOJLIDJ0FG0CLU","AOCZRH4QWLCMF","37SDSEDIN9ORHL92Y0GV7TIFJ2X187","","null","<img src=""img/food6.png"" style=""width:200px; border:14px solid green;"">","null","","","","","","","","","",""
"","image-keyboard-response","172","150024","0.0-172.0","3X65QVEQI1985F1DZOJLIDJ0FG0CLU","AOCZRH4QWLCMF","37SDSEDIN9ORHL92Y0GV7TIFJ2X187","","696.5","img/food5.png","76","697.4000000953674","3","1","1","1","1,0.5,0,1,0.5,0,0.5,0,1","0.5,0,1,0.5,0,1,0,1,0.5","2","",""
"","html-keyboard-response","173","150326","0.0-173.0","3X65QVEQI1985F1DZOJLIDJ0FG0CLU","AOCZRH4QWLCMF","37SDSEDIN9ORHL92Y0GV7TIFJ2X187","","null","<img src=""img/food5.png"" style=""width:200px; border:14px solid green;"">","null","","","","","","","","","",""
"","image-keyboard-response","174","150978","0.0-174.0","3X65QVEQI1985F1DZOJLIDJ0FG0CLU","AOCZRH4QWLCMF","37SDSEDIN9ORHL92Y0GV7TIFJ2X187","","649.7999999523163","img/food6.png","75","651.0999999046326","2","1","3","1","1,0.5,0,1,0.5,0,0.5,0,1","0.5,0,1,0.5,0,1,0,1,0.5","2","",""
"","html-keyboard-response","175","151281","0.0-175.0","3X65QVEQI1985F1DZOJLIDJ0FG0CLU","AOCZRH4QWLCMF","37SDSEDIN9ORHL92Y0GV7TIFJ2X187","","null","<img src=""img/food6.png"" style=""width:200px; border:14px solid green;"">","null","","","","","","","","","",""
"","image-keyboard-response","176","151641","0.0-176.0","3X65QVEQI1985F1DZOJLIDJ0FG0CLU","AOCZRH4QWLCMF","37SDSEDIN9ORHL92Y0GV7TIFJ2X187","","359","img/food6.png","75","359.90000009536743","2","1","3","1","1,0.5,0,1,0.5,0,0.5,0,1","0.5,0,1,0.5,0,1,0,1,0.5","2","",""
"","html-keyboard-response","177","151944","0.0-177.0","3X65QVEQI1985F1DZOJLIDJ0FG0CLU","AOCZRH4QWLCMF","37SDSEDIN9ORHL92Y0GV7TIFJ2X187","","null","<img src=""img/food6.png"" style=""width:200px; border:14px solid green;"">","null","","","","","","","","","",""
"","image-keyboard-response","178","152442","0.0-178.0","3X65QVEQI1985F1DZOJLIDJ0FG0CLU","AOCZRH4QWLCMF","37SDSEDIN9ORHL92Y0GV7TIFJ2X187","","497.10000014305115","img/food5.png","76","497.7999999523163","3","1","1","1","1,0.5,0,1,0.5,0,0.5,0,1","0.5,0,1,0.5,0,1,0,1,0.5","2","",""
"","html-keyboard-response","179","152744","0.0-179.0","3X65QVEQI1985F1DZOJLIDJ0FG0CLU","AOCZRH4QWLCMF","37SDSEDIN9ORHL92Y0GV7TIFJ2X187","","null","<img src=""img/food5.png"" style=""width:200px; border:14px solid green;"">","null","","","","","","","","","",""
"","image-keyboard-response","180","153206","0.0-180.0","3X65QVEQI1985F1DZOJLIDJ0FG0CLU","AOCZRH4QWLCMF","37SDSEDIN9ORHL92Y0GV7TIFJ2X187","","460.59999990463257","img/food3.png","76","461.7000000476837","3","1","2","1","1,0.5,0,1,0.5,0,0.5,0,1","0.5,0,1,0.5,0,1,0,1,0.5","2","",""
"","html-keyboard-response","181","153508","0.0-181.0","3X65QVEQI1985F1DZOJLIDJ0FG0CLU","AOCZRH4QWLCMF","37SDSEDIN9ORHL92Y0GV7TIFJ2X187","","null","<img src=""img/food3.png"" style=""width:200px; border:14px solid green;"">","null","","","","","","","","","",""
"","html-keyboard-response","182","158942","0.0-182.0","3X65QVEQI1985F1DZOJLIDJ0FG0CLU","AOCZRH4QWLCMF","37SDSEDIN9ORHL92Y0GV7TIFJ2X187","","","","","","","","","","","","","",""
"","instructions","183","167993","0.0-183.0","3X65QVEQI1985F1DZOJLIDJ0FG0CLU","AOCZRH4QWLCMF","37SDSEDIN9ORHL92Y0GV7TIFJ2X187","[{""page_index"":0,""viewing_time"":7947.599999904633},{""page_index"":1,""viewing_time"":1102.4000000953674}]","9050.099999904633","","","","","","","","","","","",""
"","image-keyboard-response","184","168994","0.0-184.0","3X65QVEQI1985F1DZOJLIDJ0FG0CLU","AOCZRH4QWLCMF","37SDSEDIN9ORHL92Y0GV7TIFJ2X187","","","img/food4.png","","1001.8999998569489","-1","0","3","2","1,0.5,0,1,0.5,0,0.5,0,1","0.5,0,1,0.5,0,1,0,1,0.5","2","true",""
"","html-keyboard-response","185","169296","0.0-185.0","3X65QVEQI1985F1DZOJLIDJ0FG0CLU","AOCZRH4QWLCMF","37SDSEDIN9ORHL92Y0GV7TIFJ2X187","","null","<img src=""img/food4.png"" style=""width:200px;border:14px solid red;"">","null","","","","","","","","","",""
"","html-keyboard-response","186","173796","0.0-186.0-0.0","3X65QVEQI1985F1DZOJLIDJ0FG0CLU","AOCZRH4QWLCMF","37SDSEDIN9ORHL92Y0GV7TIFJ2X187","","","","","","","","","","","","","",""
"","image-keyboard-response","187","174361","0.0-187.0","3X65QVEQI1985F1DZOJLIDJ0FG0CLU","AOCZRH4QWLCMF","37SDSEDIN9ORHL92Y0GV7TIFJ2X187","","563.5","img/food4.png","76","564.4000000953674","3","1","3","2","1,0.5,0,1,0.5,0,0.5,0,1","0.5,0,1,0.5,0,1,0,1,0.5","2","false",""
"","html-keyboard-response","188","174663","0.0-188.0","3X65QVEQI1985F1DZOJLIDJ0FG0CLU","AOCZRH4QWLCMF","37SDSEDIN9ORHL92Y0GV7TIFJ2X187","","null","<img src=""img/food4.png"" style=""width:200px; border:14px solid green;"">","null","","","","","","","","","",""
"","image-keyboard-response","189","175234","0.0-190.0","3X65QVEQI1985F1DZOJLIDJ0FG0CLU","AOCZRH4QWLCMF","37SDSEDIN9ORHL92Y0GV7TIFJ2X187","","569.4000000953674","img/food1.png","75","571","2","0","2","2","1,0.5,0,1,0.5,0,0.5,0,1","0.5,0,1,0.5,0,1,0,1,0.5","2","false",""
"","html-keyboard-response","190","175536","0.0-191.0","3X65QVEQI1985F1DZOJLIDJ0FG0CLU","AOCZRH4QWLCMF","37SDSEDIN9ORHL92Y0GV7TIFJ2X187","","null","<img src=""img/food1.png"" style=""width:200px;border:14px solid red;"">","null","","","","","","","","","",""
"","image-keyboard-response","191","176289","0.0-193.0","3X65QVEQI1985F1DZOJLIDJ0FG0CLU","AOCZRH4QWLCMF","37SDSEDIN9ORHL92Y0GV7TIFJ2X187","","752.6000001430511","img/food2.png","74","753","1","0","1","2","1,0.5,0,1,0.5,0,0.5,0,1","0.5,0,1,0.5,0,1,0,1,0.5","2","false",""
"","html-keyboard-response","192","176606","0.0-194.0","3X65QVEQI1985F1DZOJLIDJ0FG0CLU","AOCZRH4QWLCMF","37SDSEDIN9ORHL92Y0GV7TIFJ2X187","","null","<img src=""img/food2.png"" style=""width:200px;border:14px solid red;"">","null","","","","","","","","","",""
"","image-keyboard-response","193","177074","0.0-196.0","3X65QVEQI1985F1DZOJLIDJ0FG0CLU","AOCZRH4QWLCMF","37SDSEDIN9ORHL92Y0GV7TIFJ2X187","","467.09999990463257","img/food2.png","76","467.90000009536743","3","1","1","2","1,0.5,0,1,0.5,0,0.5,0,1","0.5,0,1,0.5,0,1,0,1,0.5","2","false",""
"","html-keyboard-response","194","177377","0.0-197.0","3X65QVEQI1985F1DZOJLIDJ0FG0CLU","AOCZRH4QWLCMF","37SDSEDIN9ORHL92Y0GV7TIFJ2X187","","null","<img src=""img/food2.png"" style=""width:200px; border:14px solid green;"">","null","","","","","","","","","",""
"","image-keyboard-response","195","178002","0.0-199.0","3X65QVEQI1985F1DZOJLIDJ0FG0CLU","AOCZRH4QWLCMF","37SDSEDIN9ORHL92Y0GV7TIFJ2X187","","623.2999999523163","img/food1.png","76","624.5999999046326","3","1","2","2","1,0.5,0,1,0.5,0,0.5,0,1","0.5,0,1,0.5,0,1,0,1,0.5","2","false",""
"","html-keyboard-response","196","178304","0.0-200.0","3X65QVEQI1985F1DZOJLIDJ0FG0CLU","AOCZRH4QWLCMF","37SDSEDIN9ORHL92Y0GV7TIFJ2X187","","null","<img src=""img/food1.png"" style=""width:200px; border:14px solid green;"">","null","","","","","","","","","",""
"","image-keyboard-response","197","179106","0.0-202.0","3X65QVEQI1985F1DZOJLIDJ0FG0CLU","AOCZRH4QWLCMF","37SDSEDIN9ORHL92Y0GV7TIFJ2X187","","800","img/food4.png","76","801.2999999523163","3","1","3","2","1,0.5,0,1,0.5,0,0.5,0,1","0.5,0,1,0.5,0,1,0,1,0.5","2","false",""
"","html-keyboard-response","198","179407","0.0-203.0","3X65QVEQI1985F1DZOJLIDJ0FG0CLU","AOCZRH4QWLCMF","37SDSEDIN9ORHL92Y0GV7TIFJ2X187","","null","<img src=""img/food4.png"" style=""width:200px; border:14px solid green;"">","null","","","","","","","","","",""
"","image-keyboard-response","199","180050","0.0-205.0","3X65QVEQI1985F1DZOJLIDJ0FG0CLU","AOCZRH4QWLCMF","37SDSEDIN9ORHL92Y0GV7TIFJ2X187","","641.8999998569489","img/food1.png","76","642.6999998092651","3","1","2","2","1,0.5,0,1,0.5,0,0.5,0,1","0.5,0,1,0.5,0,1,0,1,0.5","2","false",""
"","html-keyboard-response","200","180352","0.0-206.0","3X65QVEQI1985F1DZOJLIDJ0FG0CLU","AOCZRH4QWLCMF","37SDSEDIN9ORHL92Y0GV7TIFJ2X187","","null","<img src=""img/food1.png"" style=""width:200px; border:14px solid green;"">","null","","","","","","","","","",""
"","image-keyboard-response","201","181098","0.0-208.0","3X65QVEQI1985F1DZOJLIDJ0FG0CLU","AOCZRH4QWLCMF","37SDSEDIN9ORHL92Y0GV7TIFJ2X187","","744.1000001430511","img/food2.png","75","745.4000000953674","2","0","1","2","1,0.5,0,1,0.5,0,0.5,0,1","0.5,0,1,0.5,0,1,0,1,0.5","2","false",""
"","html-keyboard-response","202","181401","0.0-209.0","3X65QVEQI1985F1DZOJLIDJ0FG0CLU","AOCZRH4QWLCMF","37SDSEDIN9ORHL92Y0GV7TIFJ2X187","","null","<img src=""img/food2.png"" style=""width:200px;border:14px solid red;"">","null","","","","","","","","","",""
"","image-keyboard-response","203","181906","0.0-211.0","3X65QVEQI1985F1DZOJLIDJ0FG0CLU","AOCZRH4QWLCMF","37SDSEDIN9ORHL92Y0GV7TIFJ2X187","","503","img/food1.png","76","503.90000009536743","3","1","2","2","1,0.5,0,1,0.5,0,0.5,0,1","0.5,0,1,0.5,0,1,0,1,0.5","2","false",""
"","html-keyboard-response","204","182208","0.0-212.0","3X65QVEQI1985F1DZOJLIDJ0FG0CLU","AOCZRH4QWLCMF","37SDSEDIN9ORHL92Y0GV7TIFJ2X187","","null","<img src=""img/food1.png"" style=""width:200px; border:14px solid green;"">","null","","","","","","","","","",""
"","image-keyboard-response","205","182706","0.0-214.0","3X65QVEQI1985F1DZOJLIDJ0FG0CLU","AOCZRH4QWLCMF","37SDSEDIN9ORHL92Y0GV7TIFJ2X187","","497.2000000476837","img/food2.png","76","497.89999985694885","3","1","1","2","1,0.5,0,1,0.5,0,0.5,0,1","0.5,0,1,0.5,0,1,0,1,0.5","2","false",""
"","html-keyboard-response","206","183009","0.0-215.0","3X65QVEQI1985F1DZOJLIDJ0FG0CLU","AOCZRH4QWLCMF","37SDSEDIN9ORHL92Y0GV7TIFJ2X187","","null","<img src=""img/food2.png"" style=""width:200px; border:14px solid green;"">","null","","","","","","","","","",""
"","image-keyboard-response","207","183409","0.0-217.0","3X65QVEQI1985F1DZOJLIDJ0FG0CLU","AOCZRH4QWLCMF","37SDSEDIN9ORHL92Y0GV7TIFJ2X187","","398.2999999523163","img/food2.png","76","399.09999990463257","3","1","1","2","1,0.5,0,1,0.5,0,0.5,0,1","0.5,0,1,0.5,0,1,0,1,0.5","2","false",""
"","html-keyboard-response","208","183711","0.0-218.0","3X65QVEQI1985F1DZOJLIDJ0FG0CLU","AOCZRH4QWLCMF","37SDSEDIN9ORHL92Y0GV7TIFJ2X187","","null","<img src=""img/food2.png"" style=""width:200px; border:14px solid green;"">","null","","","","","","","","","",""
"","image-keyboard-response","209","184242","0.0-220.0","3X65QVEQI1985F1DZOJLIDJ0FG0CLU","AOCZRH4QWLCMF","37SDSEDIN9ORHL92Y0GV7TIFJ2X187","","529.8999998569489","img/food4.png","76","530.7000000476837","3","1","3","2","1,0.5,0,1,0.5,0,0.5,0,1","0.5,0,1,0.5,0,1,0,1,0.5","2","false",""
"","html-keyboard-response","210","184544","0.0-221.0","3X65QVEQI1985F1DZOJLIDJ0FG0CLU","AOCZRH4QWLCMF","37SDSEDIN9ORHL92Y0GV7TIFJ2X187","","null","<img src=""img/food4.png"" style=""width:200px; border:14px solid green;"">","null","","","","","","","","","",""
"","image-keyboard-response","211","185082","0.0-223.0","3X65QVEQI1985F1DZOJLIDJ0FG0CLU","AOCZRH4QWLCMF","37SDSEDIN9ORHL92Y0GV7TIFJ2X187","","536.2999999523163","img/food2.png","76","537.3000001907349","3","1","1","2","1,0.5,0,1,0.5,0,0.5,0,1","0.5,0,1,0.5,0,1,0,1,0.5","2","false",""
"","html-keyboard-response","212","185391","0.0-224.0","3X65QVEQI1985F1DZOJLIDJ0FG0CLU","AOCZRH4QWLCMF","37SDSEDIN9ORHL92Y0GV7TIFJ2X187","","null","<img src=""img/food2.png"" style=""width:200px; border:14px solid green;"">","null","","","","","","","","","",""
"","image-keyboard-response","213","185826","0.0-226.0","3X65QVEQI1985F1DZOJLIDJ0FG0CLU","AOCZRH4QWLCMF","37SDSEDIN9ORHL92Y0GV7TIFJ2X187","","433.09999990463257","img/food1.png","76","434.5","3","1","2","2","1,0.5,0,1,0.5,0,0.5,0,1","0.5,0,1,0.5,0,1,0,1,0.5","2","false",""
"","html-keyboard-response","214","186129","0.0-227.0","3X65QVEQI1985F1DZOJLIDJ0FG0CLU","AOCZRH4QWLCMF","37SDSEDIN9ORHL92Y0GV7TIFJ2X187","","null","<img src=""img/food1.png"" style=""width:200px; border:14px solid green;"">","null","","","","","","","","","",""
"","image-keyboard-response","215","186442","0.0-229.0","3X65QVEQI1985F1DZOJLIDJ0FG0CLU","AOCZRH4QWLCMF","37SDSEDIN9ORHL92Y0GV7TIFJ2X187","","311","img/food4.png","76","312.09999990463257","3","0","3","2","1,0.5,0,1,0.5,0,0.5,0,1","0.5,0,1,0.5,0,1,0,1,0.5","2","false",""
"","html-keyboard-response","216","186743","0.0-230.0","3X65QVEQI1985F1DZOJLIDJ0FG0CLU","AOCZRH4QWLCMF","37SDSEDIN9ORHL92Y0GV7TIFJ2X187","","null","<img src=""img/food4.png"" style=""width:200px;border:14px solid red;"">","null","","","","","","","","","",""
"","image-keyboard-response","217","187267","0.0-232.0","3X65QVEQI1985F1DZOJLIDJ0FG0CLU","AOCZRH4QWLCMF","37SDSEDIN9ORHL92Y0GV7TIFJ2X187","","522","img/food4.png","75","523.2000000476837","2","1","3","2","1,0.5,0,1,0.5,0,0.5,0,1","0.5,0,1,0.5,0,1,0,1,0.5","2","false",""
"","html-keyboard-response","218","187570","0.0-233.0","3X65QVEQI1985F1DZOJLIDJ0FG0CLU","AOCZRH4QWLCMF","37SDSEDIN9ORHL92Y0GV7TIFJ2X187","","null","<img src=""img/food4.png"" style=""width:200px; border:14px solid green;"">","null","","","","","","","","","",""
"","image-keyboard-response","219","187962","0.0-235.0","3X65QVEQI1985F1DZOJLIDJ0FG0CLU","AOCZRH4QWLCMF","37SDSEDIN9ORHL92Y0GV7TIFJ2X187","","391.2000000476837","img/food1.png","76","391.7999999523163","3","1","2","2","1,0.5,0,1,0.5,0,0.5,0,1","0.5,0,1,0.5,0,1,0,1,0.5","2","false",""
"","html-keyboard-response","220","188265","0.0-236.0","3X65QVEQI1985F1DZOJLIDJ0FG0CLU","AOCZRH4QWLCMF","37SDSEDIN9ORHL92Y0GV7TIFJ2X187","","null","<img src=""img/food1.png"" style=""width:200px; border:14px solid green;"">","null","","","","","","","","","",""
"","image-keyboard-response","221","188722","0.0-238.0","3X65QVEQI1985F1DZOJLIDJ0FG0CLU","AOCZRH4QWLCMF","37SDSEDIN9ORHL92Y0GV7TIFJ2X187","","455.89999985694885","img/food4.png","75","457","2","1","3","2","1,0.5,0,1,0.5,0,0.5,0,1","0.5,0,1,0.5,0,1,0,1,0.5","2","false",""
"","html-keyboard-response","222","189026","0.0-239.0","3X65QVEQI1985F1DZOJLIDJ0FG0CLU","AOCZRH4QWLCMF","37SDSEDIN9ORHL92Y0GV7TIFJ2X187","","null","<img src=""img/food4.png"" style=""width:200px; border:14px solid green;"">","null","","","","","","","","","",""
"","image-keyboard-response","223","189305","0.0-241.0","3X65QVEQI1985F1DZOJLIDJ0FG0CLU","AOCZRH4QWLCMF","37SDSEDIN9ORHL92Y0GV7TIFJ2X187","","279","img/food1.png","76","279.5","3","1","2","2","1,0.5,0,1,0.5,0,0.5,0,1","0.5,0,1,0.5,0,1,0,1,0.5","2","false",""
"","html-keyboard-response","224","189606","0.0-242.0","3X65QVEQI1985F1DZOJLIDJ0FG0CLU","AOCZRH4QWLCMF","37SDSEDIN9ORHL92Y0GV7TIFJ2X187","","null","<img src=""img/food1.png"" style=""width:200px; border:14px solid green;"">","null","","","","","","","","","",""
"","image-keyboard-response","225","189956","0.0-244.0","3X65QVEQI1985F1DZOJLIDJ0FG0CLU","AOCZRH4QWLCMF","37SDSEDIN9ORHL92Y0GV7TIFJ2X187","","347.7000000476837","img/food1.png","76","349.40000009536743","3","1","2","2","1,0.5,0,1,0.5,0,0.5,0,1","0.5,0,1,0.5,0,1,0,1,0.5","2","false",""
"","html-keyboard-response","226","190259","0.0-245.0","3X65QVEQI1985F1DZOJLIDJ0FG0CLU","AOCZRH4QWLCMF","37SDSEDIN9ORHL92Y0GV7TIFJ2X187","","null","<img src=""img/food1.png"" style=""width:200px; border:14px solid green;"">","null","","","","","","","","","",""
"","image-keyboard-response","227","190550","0.0-247.0","3X65QVEQI1985F1DZOJLIDJ0FG0CLU","AOCZRH4QWLCMF","37SDSEDIN9ORHL92Y0GV7TIFJ2X187","","289","img/food1.png","76","290.2999999523163","3","1","2","2","1,0.5,0,1,0.5,0,0.5,0,1","0.5,0,1,0.5,0,1,0,1,0.5","2","false",""
"","html-keyboard-response","228","190851","0.0-248.0","3X65QVEQI1985F1DZOJLIDJ0FG0CLU","AOCZRH4QWLCMF","37SDSEDIN9ORHL92Y0GV7TIFJ2X187","","null","<img src=""img/food1.png"" style=""width:200px; border:14px solid green;"">","null","","","","","","","","","",""
"","image-keyboard-response","229","191346","0.0-250.0","3X65QVEQI1985F1DZOJLIDJ0FG0CLU","AOCZRH4QWLCMF","37SDSEDIN9ORHL92Y0GV7TIFJ2X187","","494.5","img/food2.png","75","495.5","2","0","1","2","1,0.5,0,1,0.5,0,0.5,0,1","0.5,0,1,0.5,0,1,0,1,0.5","2","false",""
"","html-keyboard-response","230","191649","0.0-251.0","3X65QVEQI1985F1DZOJLIDJ0FG0CLU","AOCZRH4QWLCMF","37SDSEDIN9ORHL92Y0GV7TIFJ2X187","","null","<img src=""img/food2.png"" style=""width:200px;border:14px solid red;"">","null","","","","","","","","","",""
"","image-keyboard-response","231","192007","0.0-253.0","3X65QVEQI1985F1DZOJLIDJ0FG0CLU","AOCZRH4QWLCMF","37SDSEDIN9ORHL92Y0GV7TIFJ2X187","","356.10000014305115","img/food1.png","76","357.2000000476837","3","1","2","2","1,0.5,0,1,0.5,0,0.5,0,1","0.5,0,1,0.5,0,1,0,1,0.5","2","false",""
"","html-keyboard-response","232","192310","0.0-254.0","3X65QVEQI1985F1DZOJLIDJ0FG0CLU","AOCZRH4QWLCMF","37SDSEDIN9ORHL92Y0GV7TIFJ2X187","","null","<img src=""img/food1.png"" style=""width:200px; border:14px solid green;"">","null","","","","","","","","","",""
"","image-keyboard-response","233","192586","0.0-256.0","3X65QVEQI1985F1DZOJLIDJ0FG0CLU","AOCZRH4QWLCMF","37SDSEDIN9ORHL92Y0GV7TIFJ2X187","","275.5","img/food1.png","76","276.40000009536743","3","1","2","2","1,0.5,0,1,0.5,0,0.5,0,1","0.5,0,1,0.5,0,1,0,1,0.5","2","false",""
"","html-keyboard-response","234","192889","0.0-257.0","3X65QVEQI1985F1DZOJLIDJ0FG0CLU","AOCZRH4QWLCMF","37SDSEDIN9ORHL92Y0GV7TIFJ2X187","","null","<img src=""img/food1.png"" style=""width:200px; border:14px solid green;"">","null","","","","","","","","","",""
"","image-keyboard-response","235","193491","0.0-259.0","3X65QVEQI1985F1DZOJLIDJ0FG0CLU","AOCZRH4QWLCMF","37SDSEDIN9ORHL92Y0GV7TIFJ2X187","","599.6999998092651","img/food4.png","75","601.0999999046326","2","1","3","2","1,0.5,0,1,0.5,0,0.5,0,1","0.5,0,1,0.5,0,1,0,1,0.5","2","false",""
"","html-keyboard-response","236","193794","0.0-260.0","3X65QVEQI1985F1DZOJLIDJ0FG0CLU","AOCZRH4QWLCMF","37SDSEDIN9ORHL92Y0GV7TIFJ2X187","","null","<img src=""img/food4.png"" style=""width:200px; border:14px solid green;"">","null","","","","","","","","","",""
"","image-keyboard-response","237","194250","0.0-262.0","3X65QVEQI1985F1DZOJLIDJ0FG0CLU","AOCZRH4QWLCMF","37SDSEDIN9ORHL92Y0GV7TIFJ2X187","","455.40000009536743","img/food4.png","75","456.2000000476837","2","1","3","2","1,0.5,0,1,0.5,0,0.5,0,1","0.5,0,1,0.5,0,1,0,1,0.5","2","false",""
"","html-keyboard-response","238","194553","0.0-263.0","3X65QVEQI1985F1DZOJLIDJ0FG0CLU","AOCZRH4QWLCMF","37SDSEDIN9ORHL92Y0GV7TIFJ2X187","","null","<img src=""img/food4.png"" style=""width:200px; border:14px solid green;"">","null","","","","","","","","","",""
"","image-keyboard-response","239","194857","0.0-265.0","3X65QVEQI1985F1DZOJLIDJ0FG0CLU","AOCZRH4QWLCMF","37SDSEDIN9ORHL92Y0GV7TIFJ2X187","","302.2999999523163","img/food4.png","75","303.2000000476837","2","1","3","2","1,0.5,0,1,0.5,0,0.5,0,1","0.5,0,1,0.5,0,1,0,1,0.5","2","false",""
"","html-keyboard-response","240","195159","0.0-266.0","3X65QVEQI1985F1DZOJLIDJ0FG0CLU","AOCZRH4QWLCMF","37SDSEDIN9ORHL92Y0GV7TIFJ2X187","","null","<img src=""img/food4.png"" style=""width:200px; border:14px solid green;"">","null","","","","","","","","","",""
"","image-keyboard-response","241","195505","0.0-268.0","3X65QVEQI1985F1DZOJLIDJ0FG0CLU","AOCZRH4QWLCMF","37SDSEDIN9ORHL92Y0GV7TIFJ2X187","","345.7000000476837","img/food1.png","76","346","3","1","2","2","1,0.5,0,1,0.5,0,0.5,0,1","0.5,0,1,0.5,0,1,0,1,0.5","2","false",""
"","html-keyboard-response","242","195807","0.0-269.0","3X65QVEQI1985F1DZOJLIDJ0FG0CLU","AOCZRH4QWLCMF","37SDSEDIN9ORHL92Y0GV7TIFJ2X187","","null","<img src=""img/food1.png"" style=""width:200px; border:14px solid green;"">","null","","","","","","","","","",""
"","image-keyboard-response","243","196098","0.0-271.0","3X65QVEQI1985F1DZOJLIDJ0FG0CLU","AOCZRH4QWLCMF","37SDSEDIN9ORHL92Y0GV7TIFJ2X187","","290.09999990463257","img/food1.png","76","291.09999990463257","3","1","2","2","1,0.5,0,1,0.5,0,0.5,0,1","0.5,0,1,0.5,0,1,0,1,0.5","2","false",""
"","html-keyboard-response","244","196401","0.0-272.0","3X65QVEQI1985F1DZOJLIDJ0FG0CLU","AOCZRH4QWLCMF","37SDSEDIN9ORHL92Y0GV7TIFJ2X187","","null","<img src=""img/food1.png"" style=""width:200px; border:14px solid green;"">","null","","","","","","","","","",""
"","image-keyboard-response","245","196770","0.0-274.0","3X65QVEQI1985F1DZOJLIDJ0FG0CLU","AOCZRH4QWLCMF","37SDSEDIN9ORHL92Y0GV7TIFJ2X187","","368.40000009536743","img/food2.png","75","369.2999999523163","2","0","1","2","1,0.5,0,1,0.5,0,0.5,0,1","0.5,0,1,0.5,0,1,0,1,0.5","2","false",""
"","html-keyboard-response","246","197072","0.0-275.0","3X65QVEQI1985F1DZOJLIDJ0FG0CLU","AOCZRH4QWLCMF","37SDSEDIN9ORHL92Y0GV7TIFJ2X187","","null","<img src=""img/food2.png"" style=""width:200px;border:14px solid red;"">","null","","","","","","","","","",""
"","image-keyboard-response","247","197658","0.0-277.0","3X65QVEQI1985F1DZOJLIDJ0FG0CLU","AOCZRH4QWLCMF","37SDSEDIN9ORHL92Y0GV7TIFJ2X187","","584.2000000476837","img/food1.png","76","585.7000000476837","3","1","2","2","1,0.5,0,1,0.5,0,0.5,0,1","0.5,0,1,0.5,0,1,0,1,0.5","2","false",""
"","html-keyboard-response","248","197960","0.0-278.0","3X65QVEQI1985F1DZOJLIDJ0FG0CLU","AOCZRH4QWLCMF","37SDSEDIN9ORHL92Y0GV7TIFJ2X187","","null","<img src=""img/food1.png"" style=""width:200px; border:14px solid green;"">","null","","","","","","","","","",""
"","image-keyboard-response","249","198635","0.0-280.0","3X65QVEQI1985F1DZOJLIDJ0FG0CLU","AOCZRH4QWLCMF","37SDSEDIN9ORHL92Y0GV7TIFJ2X187","","673.7000000476837","img/food2.png","76","674.4000000953674","3","1","1","2","1,0.5,0,1,0.5,0,0.5,0,1","0.5,0,1,0.5,0,1,0,1,0.5","2","false",""
"","html-keyboard-response","250","198938","0.0-281.0","3X65QVEQI1985F1DZOJLIDJ0FG0CLU","AOCZRH4QWLCMF","37SDSEDIN9ORHL92Y0GV7TIFJ2X187","","null","<img src=""img/food2.png"" style=""width:200px; border:14px solid green;"">","null","","","","","","","","","",""
"","image-keyboard-response","251","199419","0.0-283.0","3X65QVEQI1985F1DZOJLIDJ0FG0CLU","AOCZRH4QWLCMF","37SDSEDIN9ORHL92Y0GV7TIFJ2X187","","479.2000000476837","img/food4.png","75","480.59999990463257","2","1","3","2","1,0.5,0,1,0.5,0,0.5,0,1","0.5,0,1,0.5,0,1,0,1,0.5","2","false",""
"","html-keyboard-response","252","199726","0.0-284.0","3X65QVEQI1985F1DZOJLIDJ0FG0CLU","AOCZRH4QWLCMF","37SDSEDIN9ORHL92Y0GV7TIFJ2X187","","null","<img src=""img/food4.png"" style=""width:200px; border:14px solid green;"">","null","","","","","","","","","",""
"","image-keyboard-response","253","200017","0.0-286.0","3X65QVEQI1985F1DZOJLIDJ0FG0CLU","AOCZRH4QWLCMF","37SDSEDIN9ORHL92Y0GV7TIFJ2X187","","289.60000014305115","img/food2.png","76","290.7000000476837","3","1","1","2","1,0.5,0,1,0.5,0,0.5,0,1","0.5,0,1,0.5,0,1,0,1,0.5","2","false",""
"","html-keyboard-response","254","200320","0.0-287.0","3X65QVEQI1985F1DZOJLIDJ0FG0CLU","AOCZRH4QWLCMF","37SDSEDIN9ORHL92Y0GV7TIFJ2X187","","null","<img src=""img/food2.png"" style=""width:200px; border:14px solid green;"">","null","","","","","","","","","",""
"","image-keyboard-response","255","200517","0.0-289.0","3X65QVEQI1985F1DZOJLIDJ0FG0CLU","AOCZRH4QWLCMF","37SDSEDIN9ORHL92Y0GV7TIFJ2X187","","195.29999995231628","img/food4.png","76","196.5","3","0","3","2","1,0.5,0,1,0.5,0,0.5,0,1","0.5,0,1,0.5,0,1,0,1,0.5","2","false",""
"","html-keyboard-response","256","200819","0.0-290.0","3X65QVEQI1985F1DZOJLIDJ0FG0CLU","AOCZRH4QWLCMF","37SDSEDIN9ORHL92Y0GV7TIFJ2X187","","null","<img src=""img/food4.png"" style=""width:200px;border:14px solid red;"">","null","","","","","","","","","",""
"","image-keyboard-response","257","201339","0.0-292.0","3X65QVEQI1985F1DZOJLIDJ0FG0CLU","AOCZRH4QWLCMF","37SDSEDIN9ORHL92Y0GV7TIFJ2X187","","518.6000001430511","img/food2.png","76","519.4000000953674","3","1","1","2","1,0.5,0,1,0.5,0,0.5,0,1","0.5,0,1,0.5,0,1,0,1,0.5","2","false",""
"","html-keyboard-response","258","201641","0.0-293.0","3X65QVEQI1985F1DZOJLIDJ0FG0CLU","AOCZRH4QWLCMF","37SDSEDIN9ORHL92Y0GV7TIFJ2X187","","null","<img src=""img/food2.png"" style=""width:200px; border:14px solid green;"">","null","","","","","","","","","",""
"","image-keyboard-response","259","201987","0.0-295.0","3X65QVEQI1985F1DZOJLIDJ0FG0CLU","AOCZRH4QWLCMF","37SDSEDIN9ORHL92Y0GV7TIFJ2X187","","344.19999980926514","img/food2.png","76","345.2000000476837","3","1","1","2","1,0.5,0,1,0.5,0,0.5,0,1","0.5,0,1,0.5,0,1,0,1,0.5","2","false",""
"","html-keyboard-response","260","202289","0.0-296.0","3X65QVEQI1985F1DZOJLIDJ0FG0CLU","AOCZRH4QWLCMF","37SDSEDIN9ORHL92Y0GV7TIFJ2X187","","null","<img src=""img/food2.png"" style=""width:200px; border:14px solid green;"">","null","","","","","","","","","",""
"","image-keyboard-response","261","202850","0.0-298.0","3X65QVEQI1985F1DZOJLIDJ0FG0CLU","AOCZRH4QWLCMF","37SDSEDIN9ORHL92Y0GV7TIFJ2X187","","559.7000000476837","img/food1.png","76","560.5","3","1","2","2","1,0.5,0,1,0.5,0,0.5,0,1","0.5,0,1,0.5,0,1,0,1,0.5","2","false",""
"","html-keyboard-response","262","203153","0.0-299.0","3X65QVEQI1985F1DZOJLIDJ0FG0CLU","AOCZRH4QWLCMF","37SDSEDIN9ORHL92Y0GV7TIFJ2X187","","null","<img src=""img/food1.png"" style=""width:200px; border:14px solid green;"">","null","","","","","","","","","",""
"","image-keyboard-response","263","203737","0.0-301.0","3X65QVEQI1985F1DZOJLIDJ0FG0CLU","AOCZRH4QWLCMF","37SDSEDIN9ORHL92Y0GV7TIFJ2X187","","583.1000001430511","img/food2.png","76","584.2000000476837","3","1","1","2","1,0.5,0,1,0.5,0,0.5,0,1","0.5,0,1,0.5,0,1,0,1,0.5","2","false",""
"","html-keyboard-response","264","204039","0.0-302.0","3X65QVEQI1985F1DZOJLIDJ0FG0CLU","AOCZRH4QWLCMF","37SDSEDIN9ORHL92Y0GV7TIFJ2X187","","null","<img src=""img/food2.png"" style=""width:200px; border:14px solid green;"">","null","","","","","","","","","",""
"","image-keyboard-response","265","204369","0.0-304.0","3X65QVEQI1985F1DZOJLIDJ0FG0CLU","AOCZRH4QWLCMF","37SDSEDIN9ORHL92Y0GV7TIFJ2X187","","328","img/food1.png","76","329.39999985694885","3","1","2","2","1,0.5,0,1,0.5,0,0.5,0,1","0.5,0,1,0.5,0,1,0,1,0.5","2","false",""
"","html-keyboard-response","266","204671","0.0-305.0","3X65QVEQI1985F1DZOJLIDJ0FG0CLU","AOCZRH4QWLCMF","37SDSEDIN9ORHL92Y0GV7TIFJ2X187","","null","<img src=""img/food1.png"" style=""width:200px; border:14px solid green;"">","null","","","","","","","","","",""
"","image-keyboard-response","267","205117","0.0-307.0","3X65QVEQI1985F1DZOJLIDJ0FG0CLU","AOCZRH4QWLCMF","37SDSEDIN9ORHL92Y0GV7TIFJ2X187","","444.59999990463257","img/food4.png","75","445.5","2","1","3","2","1,0.5,0,1,0.5,0,0.5,0,1","0.5,0,1,0.5,0,1,0,1,0.5","2","false",""
"","html-keyboard-response","268","205418","0.0-308.0","3X65QVEQI1985F1DZOJLIDJ0FG0CLU","AOCZRH4QWLCMF","37SDSEDIN9ORHL92Y0GV7TIFJ2X187","","null","<img src=""img/food4.png"" style=""width:200px; border:14px solid green;"">","null","","","","","","","","","",""
"","image-keyboard-response","269","205769","0.0-310.0","3X65QVEQI1985F1DZOJLIDJ0FG0CLU","AOCZRH4QWLCMF","37SDSEDIN9ORHL92Y0GV7TIFJ2X187","","349.7999999523163","img/food4.png","75","350.80000019073486","2","1","3","2","1,0.5,0,1,0.5,0,0.5,0,1","0.5,0,1,0.5,0,1,0,1,0.5","2","false",""
"","html-keyboard-response","270","206070","0.0-311.0","3X65QVEQI1985F1DZOJLIDJ0FG0CLU","AOCZRH4QWLCMF","37SDSEDIN9ORHL92Y0GV7TIFJ2X187","","null","<img src=""img/food4.png"" style=""width:200px; border:14px solid green;"">","null","","","","","","","","","",""
"","image-keyboard-response","271","206357","0.0-313.0","3X65QVEQI1985F1DZOJLIDJ0FG0CLU","AOCZRH4QWLCMF","37SDSEDIN9ORHL92Y0GV7TIFJ2X187","","285.40000009536743","img/food4.png","75","286.59999990463257","2","1","3","2","1,0.5,0,1,0.5,0,0.5,0,1","0.5,0,1,0.5,0,1,0,1,0.5","2","false",""
"","html-keyboard-response","272","206659","0.0-314.0","3X65QVEQI1985F1DZOJLIDJ0FG0CLU","AOCZRH4QWLCMF","37SDSEDIN9ORHL92Y0GV7TIFJ2X187","","null","<img src=""img/food4.png"" style=""width:200px; border:14px solid green;"">","null","","","","","","","","","",""
"","image-keyboard-response","273","206930","0.0-316.0","3X65QVEQI1985F1DZOJLIDJ0FG0CLU","AOCZRH4QWLCMF","37SDSEDIN9ORHL92Y0GV7TIFJ2X187","","269.5","img/food4.png","75","270.7000000476837","2","1","3","2","1,0.5,0,1,0.5,0,0.5,0,1","0.5,0,1,0.5,0,1,0,1,0.5","2","false",""
"","html-keyboard-response","274","207242","0.0-317.0","3X65QVEQI1985F1DZOJLIDJ0FG0CLU","AOCZRH4QWLCMF","37SDSEDIN9ORHL92Y0GV7TIFJ2X187","","null","<img src=""img/food4.png"" style=""width:200px; border:14px solid green;"">","null","","","","","","","","","",""
"","image-keyboard-response","275","207506","0.0-319.0","3X65QVEQI1985F1DZOJLIDJ0FG0CLU","AOCZRH4QWLCMF","37SDSEDIN9ORHL92Y0GV7TIFJ2X187","","263.19999980926514","img/food4.png","75","264.5","2","1","3","2","1,0.5,0,1,0.5,0,0.5,0,1","0.5,0,1,0.5,0,1,0,1,0.5","2","false",""
"","html-keyboard-response","276","207809","0.0-320.0","3X65QVEQI1985F1DZOJLIDJ0FG0CLU","AOCZRH4QWLCMF","37SDSEDIN9ORHL92Y0GV7TIFJ2X187","","null","<img src=""img/food4.png"" style=""width:200px; border:14px solid green;"">","null","","","","","","","","","",""
"","image-keyboard-response","277","208234","0.0-322.0","3X65QVEQI1985F1DZOJLIDJ0FG0CLU","AOCZRH4QWLCMF","37SDSEDIN9ORHL92Y0GV7TIFJ2X187","","423.60000014305115","img/food1.png","76","424.5","3","1","2","2","1,0.5,0,1,0.5,0,0.5,0,1","0.5,0,1,0.5,0,1,0,1,0.5","2","false",""
"","html-keyboard-response","278","208537","0.0-323.0","3X65QVEQI1985F1DZOJLIDJ0FG0CLU","AOCZRH4QWLCMF","37SDSEDIN9ORHL92Y0GV7TIFJ2X187","","null","<img src=""img/food1.png"" style=""width:200px; border:14px solid green;"">","null","","","","","","","","","",""
"","image-keyboard-response","279","208994","0.0-325.0","3X65QVEQI1985F1DZOJLIDJ0FG0CLU","AOCZRH4QWLCMF","37SDSEDIN9ORHL92Y0GV7TIFJ2X187","","455.80000019073486","img/food4.png","75","457.09999990463257","2","1","3","2","1,0.5,0,1,0.5,0,0.5,0,1","0.5,0,1,0.5,0,1,0,1,0.5","2","false",""
"","html-keyboard-response","280","209297","0.0-326.0","3X65QVEQI1985F1DZOJLIDJ0FG0CLU","AOCZRH4QWLCMF","37SDSEDIN9ORHL92Y0GV7TIFJ2X187","","null","<img src=""img/food4.png"" style=""width:200px; border:14px solid green;"">","null","","","","","","","","","",""
"","image-keyboard-response","281","209588","0.0-328.0","3X65QVEQI1985F1DZOJLIDJ0FG0CLU","AOCZRH4QWLCMF","37SDSEDIN9ORHL92Y0GV7TIFJ2X187","","289.69999980926514","img/food4.png","75","290.2000000476837","2","1","3","2","1,0.5,0,1,0.5,0,0.5,0,1","0.5,0,1,0.5,0,1,0,1,0.5","2","false",""
"","html-keyboard-response","282","209889","0.0-329.0","3X65QVEQI1985F1DZOJLIDJ0FG0CLU","AOCZRH4QWLCMF","37SDSEDIN9ORHL92Y0GV7TIFJ2X187","","null","<img src=""img/food4.png"" style=""width:200px; border:14px solid green;"">","null","","","","","","","","","",""
"","image-keyboard-response","283","210331","0.0-331.0","3X65QVEQI1985F1DZOJLIDJ0FG0CLU","AOCZRH4QWLCMF","37SDSEDIN9ORHL92Y0GV7TIFJ2X187","","440","img/food2.png","76","441.39999985694885","3","1","1","2","1,0.5,0,1,0.5,0,0.5,0,1","0.5,0,1,0.5,0,1,0,1,0.5","2","false",""
"","html-keyboard-response","284","210633","0.0-332.0","3X65QVEQI1985F1DZOJLIDJ0FG0CLU","AOCZRH4QWLCMF","37SDSEDIN9ORHL92Y0GV7TIFJ2X187","","null","<img src=""img/food2.png"" style=""width:200px; border:14px solid green;"">","null","","","","","","","","","",""
"","image-keyboard-response","285","211298","0.0-334.0","3X65QVEQI1985F1DZOJLIDJ0FG0CLU","AOCZRH4QWLCMF","37SDSEDIN9ORHL92Y0GV7TIFJ2X187","","663.3999998569489","img/food1.png","76","664.5999999046326","3","1","2","2","1,0.5,0,1,0.5,0,0.5,0,1","0.5,0,1,0.5,0,1,0,1,0.5","2","false",""
"","html-keyboard-response","286","211602","0.0-335.0","3X65QVEQI1985F1DZOJLIDJ0FG0CLU","AOCZRH4QWLCMF","37SDSEDIN9ORHL92Y0GV7TIFJ2X187","","null","<img src=""img/food1.png"" style=""width:200px; border:14px solid green;"">","null","","","","","","","","","",""
"","image-keyboard-response","287","212050","0.0-337.0","3X65QVEQI1985F1DZOJLIDJ0FG0CLU","AOCZRH4QWLCMF","37SDSEDIN9ORHL92Y0GV7TIFJ2X187","","446.5","img/food2.png","75","447.7999999523163","2","0","1","2","1,0.5,0,1,0.5,0,0.5,0,1","0.5,0,1,0.5,0,1,0,1,0.5","2","false",""
"","html-keyboard-response","288","212353","0.0-338.0","3X65QVEQI1985F1DZOJLIDJ0FG0CLU","AOCZRH4QWLCMF","37SDSEDIN9ORHL92Y0GV7TIFJ2X187","","null","<img src=""img/food2.png"" style=""width:200px;border:14px solid red;"">","null","","","","","","","","","",""
"","image-keyboard-response","289","212962","0.0-340.0","3X65QVEQI1985F1DZOJLIDJ0FG0CLU","AOCZRH4QWLCMF","37SDSEDIN9ORHL92Y0GV7TIFJ2X187","","608.0999999046326","img/food4.png","75","608.8999998569489","2","1","3","2","1,0.5,0,1,0.5,0,0.5,0,1","0.5,0,1,0.5,0,1,0,1,0.5","2","false",""
"","html-keyboard-response","290","213264","0.0-341.0","3X65QVEQI1985F1DZOJLIDJ0FG0CLU","AOCZRH4QWLCMF","37SDSEDIN9ORHL92Y0GV7TIFJ2X187","","null","<img src=""img/food4.png"" style=""width:200px; border:14px solid green;"">","null","","","","","","","","","",""
"","image-keyboard-response","291","213786","0.0-343.0","3X65QVEQI1985F1DZOJLIDJ0FG0CLU","AOCZRH4QWLCMF","37SDSEDIN9ORHL92Y0GV7TIFJ2X187","","520.2000000476837","img/food1.png","76","521.2000000476837","3","1","2","2","1,0.5,0,1,0.5,0,0.5,0,1","0.5,0,1,0.5,0,1,0,1,0.5","2","false",""
"","html-keyboard-response","292","214087","0.0-344.0","3X65QVEQI1985F1DZOJLIDJ0FG0CLU","AOCZRH4QWLCMF","37SDSEDIN9ORHL92Y0GV7TIFJ2X187","","null","<img src=""img/food1.png"" style=""width:200px; border:14px solid green;"">","null","","","","","","","","","",""
"","image-keyboard-response","293","214594","0.0-346.0","3X65QVEQI1985F1DZOJLIDJ0FG0CLU","AOCZRH4QWLCMF","37SDSEDIN9ORHL92Y0GV7TIFJ2X187","","505.60000014305115","img/food2.png","76","506.7999999523163","3","1","1","2","1,0.5,0,1,0.5,0,0.5,0,1","0.5,0,1,0.5,0,1,0,1,0.5","2","false",""
"","html-keyboard-response","294","214897","0.0-347.0","3X65QVEQI1985F1DZOJLIDJ0FG0CLU","AOCZRH4QWLCMF","37SDSEDIN9ORHL92Y0GV7TIFJ2X187","","null","<img src=""img/food2.png"" style=""width:200px; border:14px solid green;"">","null","","","","","","","","","",""
"","image-keyboard-response","295","215250","0.0-349.0","3X65QVEQI1985F1DZOJLIDJ0FG0CLU","AOCZRH4QWLCMF","37SDSEDIN9ORHL92Y0GV7TIFJ2X187","","351.59999990463257","img/food2.png","76","352.59999990463257","3","1","1","2","1,0.5,0,1,0.5,0,0.5,0,1","0.5,0,1,0.5,0,1,0,1,0.5","2","false",""
"","html-keyboard-response","296","215552","0.0-350.0","3X65QVEQI1985F1DZOJLIDJ0FG0CLU","AOCZRH4QWLCMF","37SDSEDIN9ORHL92Y0GV7TIFJ2X187","","null","<img src=""img/food2.png"" style=""width:200px; border:14px solid green;"">","null","","","","","","","","","",""
"","image-keyboard-response","297","215914","0.0-352.0","3X65QVEQI1985F1DZOJLIDJ0FG0CLU","AOCZRH4QWLCMF","37SDSEDIN9ORHL92Y0GV7TIFJ2X187","","360.60000014305115","img/food1.png","76","361.89999985694885","3","1","2","2","1,0.5,0,1,0.5,0,0.5,0,1","0.5,0,1,0.5,0,1,0,1,0.5","2","false",""
"","html-keyboard-response","298","216217","0.0-353.0","3X65QVEQI1985F1DZOJLIDJ0FG0CLU","AOCZRH4QWLCMF","37SDSEDIN9ORHL92Y0GV7TIFJ2X187","","null","<img src=""img/food1.png"" style=""width:200px; border:14px solid green;"">","null","","","","","","","","","",""
"","image-keyboard-response","299","216659","0.0-355.0","3X65QVEQI1985F1DZOJLIDJ0FG0CLU","AOCZRH4QWLCMF","37SDSEDIN9ORHL92Y0GV7TIFJ2X187","","441.59999990463257","img/food2.png","76","442","3","1","1","2","1,0.5,0,1,0.5,0,0.5,0,1","0.5,0,1,0.5,0,1,0,1,0.5","2","false",""
"","html-keyboard-response","300","216961","0.0-356.0","3X65QVEQI1985F1DZOJLIDJ0FG0CLU","AOCZRH4QWLCMF","37SDSEDIN9ORHL92Y0GV7TIFJ2X187","","null","<img src=""img/food2.png"" style=""width:200px; border:14px solid green;"">","null","","","","","","","","","",""
"","image-keyboard-response","301","217217","0.0-358.0","3X65QVEQI1985F1DZOJLIDJ0FG0CLU","AOCZRH4QWLCMF","37SDSEDIN9ORHL92Y0GV7TIFJ2X187","","254.40000009536743","img/food4.png","76","255.40000009536743","3","0","3","2","1,0.5,0,1,0.5,0,0.5,0,1","0.5,0,1,0.5,0,1,0,1,0.5","2","false",""
"","html-keyboard-response","302","217519","0.0-359.0","3X65QVEQI1985F1DZOJLIDJ0FG0CLU","AOCZRH4QWLCMF","37SDSEDIN9ORHL92Y0GV7TIFJ2X187","","null","<img src=""img/food4.png"" style=""width:200px;border:14px solid red;"">","null","","","","","","","","","",""
"","image-keyboard-response","303","217826","0.0-361.0","3X65QVEQI1985F1DZOJLIDJ0FG0CLU","AOCZRH4QWLCMF","37SDSEDIN9ORHL92Y0GV7TIFJ2X187","","305.5","img/food4.png","76","306.80000019073486","3","0","3","2","1,0.5,0,1,0.5,0,0.5,0,1","0.5,0,1,0.5,0,1,0,1,0.5","2","false",""
"","html-keyboard-response","304","218129","0.0-362.0","3X65QVEQI1985F1DZOJLIDJ0FG0CLU","AOCZRH4QWLCMF","37SDSEDIN9ORHL92Y0GV7TIFJ2X187","","null","<img src=""img/food4.png"" style=""width:200px;border:14px solid red;"">","null","","","","","","","","","",""
"","image-keyboard-response","305","218321","0.0-364.0","3X65QVEQI1985F1DZOJLIDJ0FG0CLU","AOCZRH4QWLCMF","37SDSEDIN9ORHL92Y0GV7TIFJ2X187","","191","img/food4.png","75","191.70000004768372","2","1","3","2","1,0.5,0,1,0.5,0,0.5,0,1","0.5,0,1,0.5,0,1,0,1,0.5","2","false",""
"","html-keyboard-response","306","218623","0.0-365.0","3X65QVEQI1985F1DZOJLIDJ0FG0CLU","AOCZRH4QWLCMF","37SDSEDIN9ORHL92Y0GV7TIFJ2X187","","null","<img src=""img/food4.png"" style=""width:200px; border:14px solid green;"">","null","","","","","","","","","",""
"","image-keyboard-response","307","218923","0.0-367.0","3X65QVEQI1985F1DZOJLIDJ0FG0CLU","AOCZRH4QWLCMF","37SDSEDIN9ORHL92Y0GV7TIFJ2X187","","298.10000014305115","img/food4.png","75","299.80000019073486","2","1","3","2","1,0.5,0,1,0.5,0,0.5,0,1","0.5,0,1,0.5,0,1,0,1,0.5","2","false",""
"","html-keyboard-response","308","219226","0.0-368.0","3X65QVEQI1985F1DZOJLIDJ0FG0CLU","AOCZRH4QWLCMF","37SDSEDIN9ORHL92Y0GV7TIFJ2X187","","null","<img src=""img/food4.png"" style=""width:200px; border:14px solid green;"">","null","","","","","","","","","",""
"","image-keyboard-response","309","219677","0.0-370.0","3X65QVEQI1985F1DZOJLIDJ0FG0CLU","AOCZRH4QWLCMF","37SDSEDIN9ORHL92Y0GV7TIFJ2X187","","449.90000009536743","img/food2.png","76","450.90000009536743","3","1","1","2","1,0.5,0,1,0.5,0,0.5,0,1","0.5,0,1,0.5,0,1,0,1,0.5","2","false",""
"","html-keyboard-response","310","219979","0.0-371.0","3X65QVEQI1985F1DZOJLIDJ0FG0CLU","AOCZRH4QWLCMF","37SDSEDIN9ORHL92Y0GV7TIFJ2X187","","null","<img src=""img/food2.png"" style=""width:200px; border:14px solid green;"">","null","","","","","","","","","",""
"","image-keyboard-response","311","220306","0.0-373.0","3X65QVEQI1985F1DZOJLIDJ0FG0CLU","AOCZRH4QWLCMF","37SDSEDIN9ORHL92Y0GV7TIFJ2X187","","324.7999999523163","img/food2.png","76","326.2000000476837","3","1","1","2","1,0.5,0,1,0.5,0,0.5,0,1","0.5,0,1,0.5,0,1,0,1,0.5","2","false",""
"","html-keyboard-response","312","220616","0.0-374.0","3X65QVEQI1985F1DZOJLIDJ0FG0CLU","AOCZRH4QWLCMF","37SDSEDIN9ORHL92Y0GV7TIFJ2X187","","null","<img src=""img/food2.png"" style=""width:200px; border:14px solid green;"">","null","","","","","","","","","",""
"","image-keyboard-response","313","221091","0.0-376.0","3X65QVEQI1985F1DZOJLIDJ0FG0CLU","AOCZRH4QWLCMF","37SDSEDIN9ORHL92Y0GV7TIFJ2X187","","473.7000000476837","img/food4.png","75","474.5","2","1","3","2","1,0.5,0,1,0.5,0,0.5,0,1","0.5,0,1,0.5,0,1,0,1,0.5","2","false",""
"","html-keyboard-response","314","221392","0.0-377.0","3X65QVEQI1985F1DZOJLIDJ0FG0CLU","AOCZRH4QWLCMF","37SDSEDIN9ORHL92Y0GV7TIFJ2X187","","null","<img src=""img/food4.png"" style=""width:200px; border:14px solid green;"">","null","","","","","","","","","",""
"","image-keyboard-response","315","221994","0.0-379.0","3X65QVEQI1985F1DZOJLIDJ0FG0CLU","AOCZRH4QWLCMF","37SDSEDIN9ORHL92Y0GV7TIFJ2X187","","598.4000000953674","img/food2.png","76","599.7999999523163","3","1","1","2","1,0.5,0,1,0.5,0,0.5,0,1","0.5,0,1,0.5,0,1,0,1,0.5","2","false",""
"","html-keyboard-response","316","222297","0.0-380.0","3X65QVEQI1985F1DZOJLIDJ0FG0CLU","AOCZRH4QWLCMF","37SDSEDIN9ORHL92Y0GV7TIFJ2X187","","null","<img src=""img/food2.png"" style=""width:200px; border:14px solid green;"">","null","","","","","","","","","",""
"","image-keyboard-response","317","222803","0.0-382.0","3X65QVEQI1985F1DZOJLIDJ0FG0CLU","AOCZRH4QWLCMF","37SDSEDIN9ORHL92Y0GV7TIFJ2X187","","505.2000000476837","img/food1.png","75","506.2000000476837","2","0","2","2","1,0.5,0,1,0.5,0,0.5,0,1","0.5,0,1,0.5,0,1,0,1,0.5","2","false",""
"","html-keyboard-response","318","223106","0.0-383.0","3X65QVEQI1985F1DZOJLIDJ0FG0CLU","AOCZRH4QWLCMF","37SDSEDIN9ORHL92Y0GV7TIFJ2X187","","null","<img src=""img/food1.png"" style=""width:200px;border:14px solid red;"">","null","","","","","","","","","",""
"","image-keyboard-response","319","223491","0.0-385.0","3X65QVEQI1985F1DZOJLIDJ0FG0CLU","AOCZRH4QWLCMF","37SDSEDIN9ORHL92Y0GV7TIFJ2X187","","382.59999990463257","img/food1.png","76","384.2000000476837","3","1","2","2","1,0.5,0,1,0.5,0,0.5,0,1","0.5,0,1,0.5,0,1,0,1,0.5","2","false",""
"","html-keyboard-response","320","223793","0.0-386.0","3X65QVEQI1985F1DZOJLIDJ0FG0CLU","AOCZRH4QWLCMF","37SDSEDIN9ORHL92Y0GV7TIFJ2X187","","null","<img src=""img/food1.png"" style=""width:200px; border:14px solid green;"">","null","","","","","","","","","",""
"","image-keyboard-response","321","224305","0.0-388.0","3X65QVEQI1985F1DZOJLIDJ0FG0CLU","AOCZRH4QWLCMF","37SDSEDIN9ORHL92Y0GV7TIFJ2X187","","511.2999999523163","img/food2.png","76","511.7999999523163","3","1","1","2","1,0.5,0,1,0.5,0,0.5,0,1","0.5,0,1,0.5,0,1,0,1,0.5","2","false",""
"","html-keyboard-response","322","224606","0.0-389.0","3X65QVEQI1985F1DZOJLIDJ0FG0CLU","AOCZRH4QWLCMF","37SDSEDIN9ORHL92Y0GV7TIFJ2X187","","null","<img src=""img/food2.png"" style=""width:200px; border:14px solid green;"">","null","","","","","","","","","",""
"","image-keyboard-response","323","224867","0.0-391.0","3X65QVEQI1985F1DZOJLIDJ0FG0CLU","AOCZRH4QWLCMF","37SDSEDIN9ORHL92Y0GV7TIFJ2X187","","258.10000014305115","img/food2.png","76","259.59999990463257","3","1","1","2","1,0.5,0,1,0.5,0,0.5,0,1","0.5,0,1,0.5,0,1,0,1,0.5","2","false",""
"","html-keyboard-response","324","225170","0.0-392.0","3X65QVEQI1985F1DZOJLIDJ0FG0CLU","AOCZRH4QWLCMF","37SDSEDIN9ORHL92Y0GV7TIFJ2X187","","null","<img src=""img/food2.png"" style=""width:200px; border:14px solid green;"">","null","","","","","","","","","",""
"","image-keyboard-response","325","225691","0.0-394.0","3X65QVEQI1985F1DZOJLIDJ0FG0CLU","AOCZRH4QWLCMF","37SDSEDIN9ORHL92Y0GV7TIFJ2X187","","519.7999999523163","img/food1.png","76","520.7000000476837","3","1","2","2","1,0.5,0,1,0.5,0,0.5,0,1","0.5,0,1,0.5,0,1,0,1,0.5","2","false",""
"","html-keyboard-response","326","225992","0.0-395.0","3X65QVEQI1985F1DZOJLIDJ0FG0CLU","AOCZRH4QWLCMF","37SDSEDIN9ORHL92Y0GV7TIFJ2X187","","null","<img src=""img/food1.png"" style=""width:200px; border:14px solid green;"">","null","","","","","","","","","",""
"","image-keyboard-response","327","226242","0.0-397.0","3X65QVEQI1985F1DZOJLIDJ0FG0CLU","AOCZRH4QWLCMF","37SDSEDIN9ORHL92Y0GV7TIFJ2X187","","247.79999995231628","img/food1.png","76","248.79999995231628","3","1","2","2","1,0.5,0,1,0.5,0,0.5,0,1","0.5,0,1,0.5,0,1,0,1,0.5","2","false",""
"","html-keyboard-response","328","226543","0.0-398.0","3X65QVEQI1985F1DZOJLIDJ0FG0CLU","AOCZRH4QWLCMF","37SDSEDIN9ORHL92Y0GV7TIFJ2X187","","null","<img src=""img/food1.png"" style=""width:200px; border:14px solid green;"">","null","","","","","","","","","",""
"","image-keyboard-response","329","227106","0.0-400.0","3X65QVEQI1985F1DZOJLIDJ0FG0CLU","AOCZRH4QWLCMF","37SDSEDIN9ORHL92Y0GV7TIFJ2X187","","562.2999999523163","img/food4.png","75","563.0999999046326","2","1","3","2","1,0.5,0,1,0.5,0,0.5,0,1","0.5,0,1,0.5,0,1,0,1,0.5","2","false",""
"","html-keyboard-response","330","227409","0.0-401.0","3X65QVEQI1985F1DZOJLIDJ0FG0CLU","AOCZRH4QWLCMF","37SDSEDIN9ORHL92Y0GV7TIFJ2X187","","null","<img src=""img/food4.png"" style=""width:200px; border:14px solid green;"">","null","","","","","","","","","",""
"","image-keyboard-response","331","227715","0.0-403.0","3X65QVEQI1985F1DZOJLIDJ0FG0CLU","AOCZRH4QWLCMF","37SDSEDIN9ORHL92Y0GV7TIFJ2X187","","304","img/food4.png","75","305.2999999523163","2","1","3","2","1,0.5,0,1,0.5,0,0.5,0,1","0.5,0,1,0.5,0,1,0,1,0.5","2","false",""
"","html-keyboard-response","332","228017","0.0-404.0","3X65QVEQI1985F1DZOJLIDJ0FG0CLU","AOCZRH4QWLCMF","37SDSEDIN9ORHL92Y0GV7TIFJ2X187","","null","<img src=""img/food4.png"" style=""width:200px; border:14px solid green;"">","null","","","","","","","","","",""
"","image-keyboard-response","333","228407","0.0-406.0","3X65QVEQI1985F1DZOJLIDJ0FG0CLU","AOCZRH4QWLCMF","37SDSEDIN9ORHL92Y0GV7TIFJ2X187","","388.5","img/food2.png","76","389.60000014305115","3","1","1","2","1,0.5,0,1,0.5,0,0.5,0,1","0.5,0,1,0.5,0,1,0,1,0.5","2","false",""
"","html-keyboard-response","334","228709","0.0-407.0","3X65QVEQI1985F1DZOJLIDJ0FG0CLU","AOCZRH4QWLCMF","37SDSEDIN9ORHL92Y0GV7TIFJ2X187","","null","<img src=""img/food2.png"" style=""width:200px; border:14px solid green;"">","null","","","","","","","","","",""
"","image-keyboard-response","335","229035","0.0-409.0","3X65QVEQI1985F1DZOJLIDJ0FG0CLU","AOCZRH4QWLCMF","37SDSEDIN9ORHL92Y0GV7TIFJ2X187","","324.5","img/food2.png","76","325.90000009536743","3","1","1","2","1,0.5,0,1,0.5,0,0.5,0,1","0.5,0,1,0.5,0,1,0,1,0.5","2","false",""
"","html-keyboard-response","336","229338","0.0-410.0","3X65QVEQI1985F1DZOJLIDJ0FG0CLU","AOCZRH4QWLCMF","37SDSEDIN9ORHL92Y0GV7TIFJ2X187","","null","<img src=""img/food2.png"" style=""width:200px; border:14px solid green;"">","null","","","","","","","","","",""
"","image-keyboard-response","337","229678","0.0-412.0","3X65QVEQI1985F1DZOJLIDJ0FG0CLU","AOCZRH4QWLCMF","37SDSEDIN9ORHL92Y0GV7TIFJ2X187","","338.39999985694885","img/food2.png","76","339.2999999523163","3","1","1","2","1,0.5,0,1,0.5,0,0.5,0,1","0.5,0,1,0.5,0,1,0,1,0.5","2","false",""
"","html-keyboard-response","338","229979","0.0-413.0","3X65QVEQI1985F1DZOJLIDJ0FG0CLU","AOCZRH4QWLCMF","37SDSEDIN9ORHL92Y0GV7TIFJ2X187","","null","<img src=""img/food2.png"" style=""width:200px; border:14px solid green;"">","null","","","","","","","","","",""
"","image-keyboard-response","339","230618","0.0-415.0","3X65QVEQI1985F1DZOJLIDJ0FG0CLU","AOCZRH4QWLCMF","37SDSEDIN9ORHL92Y0GV7TIFJ2X187","","637.6999998092651","img/food1.png","76","638.5","3","1","2","2","1,0.5,0,1,0.5,0,0.5,0,1","0.5,0,1,0.5,0,1,0,1,0.5","2","false",""
"","html-keyboard-response","340","230920","0.0-416.0","3X65QVEQI1985F1DZOJLIDJ0FG0CLU","AOCZRH4QWLCMF","37SDSEDIN9ORHL92Y0GV7TIFJ2X187","","null","<img src=""img/food1.png"" style=""width:200px; border:14px solid green;"">","null","","","","","","","","","",""
"","image-keyboard-response","341","231181","0.0-418.0","3X65QVEQI1985F1DZOJLIDJ0FG0CLU","AOCZRH4QWLCMF","37SDSEDIN9ORHL92Y0GV7TIFJ2X187","","258.89999985694885","img/food1.png","76","260","3","1","2","2","1,0.5,0,1,0.5,0,0.5,0,1","0.5,0,1,0.5,0,1,0,1,0.5","2","false",""
"","html-keyboard-response","342","231482","0.0-419.0","3X65QVEQI1985F1DZOJLIDJ0FG0CLU","AOCZRH4QWLCMF","37SDSEDIN9ORHL92Y0GV7TIFJ2X187","","null","<img src=""img/food1.png"" style=""width:200px; border:14px solid green;"">","null","","","","","","","","","",""
"","image-keyboard-response","343","231755","0.0-421.0","3X65QVEQI1985F1DZOJLIDJ0FG0CLU","AOCZRH4QWLCMF","37SDSEDIN9ORHL92Y0GV7TIFJ2X187","","270.2000000476837","img/food1.png","76","271.59999990463257","3","1","2","2","1,0.5,0,1,0.5,0,0.5,0,1","0.5,0,1,0.5,0,1,0,1,0.5","2","false",""
"","html-keyboard-response","344","232065","0.0-422.0","3X65QVEQI1985F1DZOJLIDJ0FG0CLU","AOCZRH4QWLCMF","37SDSEDIN9ORHL92Y0GV7TIFJ2X187","","null","<img src=""img/food1.png"" style=""width:200px; border:14px solid green;"">","null","","","","","","","","","",""
"","image-keyboard-response","345","232530","0.0-424.0","3X65QVEQI1985F1DZOJLIDJ0FG0CLU","AOCZRH4QWLCMF","37SDSEDIN9ORHL92Y0GV7TIFJ2X187","","463.90000009536743","img/food4.png","75","464.7999999523163","2","1","3","2","1,0.5,0,1,0.5,0,0.5,0,1","0.5,0,1,0.5,0,1,0,1,0.5","2","false",""
"","html-keyboard-response","346","232833","0.0-425.0","3X65QVEQI1985F1DZOJLIDJ0FG0CLU","AOCZRH4QWLCMF","37SDSEDIN9ORHL92Y0GV7TIFJ2X187","","null","<img src=""img/food4.png"" style=""width:200px; border:14px solid green;"">","null","","","","","","","","","",""
"","image-keyboard-response","347","233130","0.0-427.0","3X65QVEQI1985F1DZOJLIDJ0FG0CLU","AOCZRH4QWLCMF","37SDSEDIN9ORHL92Y0GV7TIFJ2X187","","296.10000014305115","img/food4.png","75","296.90000009536743","2","1","3","2","1,0.5,0,1,0.5,0,0.5,0,1","0.5,0,1,0.5,0,1,0,1,0.5","2","false",""
"","html-keyboard-response","348","233433","0.0-428.0","3X65QVEQI1985F1DZOJLIDJ0FG0CLU","AOCZRH4QWLCMF","37SDSEDIN9ORHL92Y0GV7TIFJ2X187","","null","<img src=""img/food4.png"" style=""width:200px; border:14px solid green;"">","null","","","","","","","","","",""
"","image-keyboard-response","349","233722","0.0-430.0","3X65QVEQI1985F1DZOJLIDJ0FG0CLU","AOCZRH4QWLCMF","37SDSEDIN9ORHL92Y0GV7TIFJ2X187","","286.89999985694885","img/food4.png","75","288.2999999523163","2","1","3","2","1,0.5,0,1,0.5,0,0.5,0,1","0.5,0,1,0.5,0,1,0,1,0.5","2","false",""
"","html-keyboard-response","350","234024","0.0-431.0","3X65QVEQI1985F1DZOJLIDJ0FG0CLU","AOCZRH4QWLCMF","37SDSEDIN9ORHL92Y0GV7TIFJ2X187","","null","<img src=""img/food4.png"" style=""width:200px; border:14px solid green;"">","null","","","","","","","","","",""
"","image-keyboard-response","351","234386","0.0-433.0","3X65QVEQI1985F1DZOJLIDJ0FG0CLU","AOCZRH4QWLCMF","37SDSEDIN9ORHL92Y0GV7TIFJ2X187","","360.7999999523163","img/food2.png","76","361.7999999523163","3","1","1","2","1,0.5,0,1,0.5,0,0.5,0,1","0.5,0,1,0.5,0,1,0,1,0.5","2","false",""
"","html-keyboard-response","352","234688","0.0-434.0","3X65QVEQI1985F1DZOJLIDJ0FG0CLU","AOCZRH4QWLCMF","37SDSEDIN9ORHL92Y0GV7TIFJ2X187","","null","<img src=""img/food2.png"" style=""width:200px; border:14px solid green;"">","null","","","","","","","","","",""
"","image-keyboard-response","353","235306","0.0-436.0","3X65QVEQI1985F1DZOJLIDJ0FG0CLU","AOCZRH4QWLCMF","37SDSEDIN9ORHL92Y0GV7TIFJ2X187","","616.2000000476837","img/food2.png","76","617.5","3","1","1","2","1,0.5,0,1,0.5,0,0.5,0,1","0.5,0,1,0.5,0,1,0,1,0.5","2","false",""
"","html-keyboard-response","354","235610","0.0-437.0","3X65QVEQI1985F1DZOJLIDJ0FG0CLU","AOCZRH4QWLCMF","37SDSEDIN9ORHL92Y0GV7TIFJ2X187","","null","<img src=""img/food2.png"" style=""width:200px; border:14px solid green;"">","null","","","","","","","","","",""
"","image-keyboard-response","355","235953","0.0-439.0","3X65QVEQI1985F1DZOJLIDJ0FG0CLU","AOCZRH4QWLCMF","37SDSEDIN9ORHL92Y0GV7TIFJ2X187","","342.2999999523163","img/food1.png","76","343.2000000476837","3","1","2","2","1,0.5,0,1,0.5,0,0.5,0,1","0.5,0,1,0.5,0,1,0,1,0.5","2","false",""
"","html-keyboard-response","356","236255","0.0-440.0","3X65QVEQI1985F1DZOJLIDJ0FG0CLU","AOCZRH4QWLCMF","37SDSEDIN9ORHL92Y0GV7TIFJ2X187","","null","<img src=""img/food1.png"" style=""width:200px; border:14px solid green;"">","null","","","","","","","","","",""
"","image-keyboard-response","357","236571","0.0-442.0","3X65QVEQI1985F1DZOJLIDJ0FG0CLU","AOCZRH4QWLCMF","37SDSEDIN9ORHL92Y0GV7TIFJ2X187","","313.89999985694885","img/food2.png","76","315.2999999523163","3","1","1","2","1,0.5,0,1,0.5,0,0.5,0,1","0.5,0,1,0.5,0,1,0,1,0.5","2","false",""
"","html-keyboard-response","358","236873","0.0-443.0","3X65QVEQI1985F1DZOJLIDJ0FG0CLU","AOCZRH4QWLCMF","37SDSEDIN9ORHL92Y0GV7TIFJ2X187","","null","<img src=""img/food2.png"" style=""width:200px; border:14px solid green;"">","null","","","","","","","","","",""
"","image-keyboard-response","359","237161","0.0-445.0","3X65QVEQI1985F1DZOJLIDJ0FG0CLU","AOCZRH4QWLCMF","37SDSEDIN9ORHL92Y0GV7TIFJ2X187","","287.7000000476837","img/food1.png","76","288.09999990463257","3","1","2","2","1,0.5,0,1,0.5,0,0.5,0,1","0.5,0,1,0.5,0,1,0,1,0.5","2","false",""
"","html-keyboard-response","360","237463","0.0-446.0","3X65QVEQI1985F1DZOJLIDJ0FG0CLU","AOCZRH4QWLCMF","37SDSEDIN9ORHL92Y0GV7TIFJ2X187","","null","<img src=""img/food1.png"" style=""width:200px; border:14px solid green;"">","null","","","","","","","","","",""
"","image-keyboard-response","361","237779","0.0-448.0","3X65QVEQI1985F1DZOJLIDJ0FG0CLU","AOCZRH4QWLCMF","37SDSEDIN9ORHL92Y0GV7TIFJ2X187","","313.7000000476837","img/food2.png","76","315.10000014305115","3","1","1","2","1,0.5,0,1,0.5,0,0.5,0,1","0.5,0,1,0.5,0,1,0,1,0.5","2","false",""
"","html-keyboard-response","362","238081","0.0-449.0","3X65QVEQI1985F1DZOJLIDJ0FG0CLU","AOCZRH4QWLCMF","37SDSEDIN9ORHL92Y0GV7TIFJ2X187","","null","<img src=""img/food2.png"" style=""width:200px; border:14px solid green;"">","null","","","","","","","","","",""
"","image-keyboard-response","363","238402","0.0-451.0","3X65QVEQI1985F1DZOJLIDJ0FG0CLU","AOCZRH4QWLCMF","37SDSEDIN9ORHL92Y0GV7TIFJ2X187","","318.60000014305115","img/food1.png","76","319.7000000476837","3","1","2","2","1,0.5,0,1,0.5,0,0.5,0,1","0.5,0,1,0.5,0,1,0,1,0.5","2","false",""
"","html-keyboard-response","364","238703","0.0-452.0","3X65QVEQI1985F1DZOJLIDJ0FG0CLU","AOCZRH4QWLCMF","37SDSEDIN9ORHL92Y0GV7TIFJ2X187","","null","<img src=""img/food1.png"" style=""width:200px; border:14px solid green;"">","null","","","","","","","","","",""
"","instructions","365","244146","0.0-454.0","3X65QVEQI1985F1DZOJLIDJ0FG0CLU","AOCZRH4QWLCMF","37SDSEDIN9ORHL92Y0GV7TIFJ2X187","[{""page_index"":0,""viewing_time"":5442.900000095367}]","5443.100000143051","","","","","","","","","","","",""
"","survey-text","366","254289","0.0-455.0","3X65QVEQI1985F1DZOJLIDJ0FG0CLU","AOCZRH4QWLCMF","37SDSEDIN9ORHL92Y0GV7TIFJ2X187","","10140.599999904633","","","","","","","","","","","","{""Q0"":""AOCZRH4QWLCMF""}"
