"success","trial_type","trial_index","time_elapsed","internal_node_id","assignmentID","mturkID","hitID","view_history","rt","stimulus","key_press","reactionTime","a","r","s","cond","reward_cond","reward_cond_actual","reward_matrix_idx","warning","responses"
"true","fullscreen","0","5193","0.0-0.0","32M8BPYGAU8JWQ9CG7IRGOCNWZ7GIT","AOS2PVHT2HYTL","3JUDR1D0D6D4CARU3YX9Y3DK5DJ2QK","","","","","","","","","","","","","",""
"","instructions","1","34645","0.0-1.0","32M8BPYGAU8JWQ9CG7IRGOCNWZ7GIT","AOS2PVHT2HYTL","3JUDR1D0D6D4CARU3YX9Y3DK5DJ2QK","[{""page_index"":0,""viewing_time"":4754.899999856949},{""page_index"":1,""viewing_time"":2115.600000143051},{""page_index"":2,""viewing_time"":1866},{""page_index"":3,""viewing_time"":3092.7000000476837},{""page_index"":4,""viewing_time"":2797.7999999523163},{""page_index"":5,""viewing_time"":6144.5},{""page_index"":6,""viewing_time"":8677.599999904633}]","29450.299999952316","","","","","","","","","","","",""
"","image-keyboard-response","2","35917","0.0-2.0","32M8BPYGAU8JWQ9CG7IRGOCNWZ7GIT","AOS2PVHT2HYTL","3JUDR1D0D6D4CARU3YX9Y3DK5DJ2QK","","1266.8999998569489","img/food2.png","74","1271.0999999046326","1","0","1","1","1,0.5,0,1,0.5,0,0.5,0,1","0,1,0.5,0,1,0.5,1,0.5,0","3","",""
"","html-keyboard-response","3","36223","0.0-3.0","32M8BPYGAU8JWQ9CG7IRGOCNWZ7GIT","AOS2PVHT2HYTL","3JUDR1D0D6D4CARU3YX9Y3DK5DJ2QK","","null","<img src=""img/food2.png"" style=""width:200px;border:14px solid red;"">","null","","","","","","","","","",""
"","image-keyboard-response","4","37218","0.0-4.0","32M8BPYGAU8JWQ9CG7IRGOCNWZ7GIT","AOS2PVHT2HYTL","3JUDR1D0D6D4CARU3YX9Y3DK5DJ2QK","","991.5999999046326","img/food6.png","75","994.5","2","0","3","1","1,0.5,0,1,0.5,0,0.5,0,1","0,1,0.5,0,1,0.5,1,0.5,0","3","",""
"","html-keyboard-response","5","37523","0.0-5.0","32M8BPYGAU8JWQ9CG7IRGOCNWZ7GIT","AOS2PVHT2HYTL","3JUDR1D0D6D4CARU3YX9Y3DK5DJ2QK","","null","<img src=""img/food6.png"" style=""width:200px;border:14px solid red;"">","null","","","","","","","","","",""
"","image-keyboard-response","6","38329","0.0-6.0","32M8BPYGAU8JWQ9CG7IRGOCNWZ7GIT","AOS2PVHT2HYTL","3JUDR1D0D6D4CARU3YX9Y3DK5DJ2QK","","801.7999999523163","img/food5.png","76","804.8999998569489","3","0","2","1","1,0.5,0,1,0.5,0,0.5,0,1","0,1,0.5,0,1,0.5,1,0.5,0","3","",""
"","html-keyboard-response","7","38633","0.0-7.0","32M8BPYGAU8JWQ9CG7IRGOCNWZ7GIT","AOS2PVHT2HYTL","3JUDR1D0D6D4CARU3YX9Y3DK5DJ2QK","","null","<img src=""img/food5.png"" style=""width:200px;border:14px solid red;"">","null","","","","","","","","","",""
"","image-keyboard-response","8","39601","0.0-8.0","32M8BPYGAU8JWQ9CG7IRGOCNWZ7GIT","AOS2PVHT2HYTL","3JUDR1D0D6D4CARU3YX9Y3DK5DJ2QK","","964.2000000476837","img/food6.png","76","967","3","0","3","1","1,0.5,0,1,0.5,0,0.5,0,1","0,1,0.5,0,1,0.5,1,0.5,0","3","",""
"","html-keyboard-response","9","39907","0.0-9.0","32M8BPYGAU8JWQ9CG7IRGOCNWZ7GIT","AOS2PVHT2HYTL","3JUDR1D0D6D4CARU3YX9Y3DK5DJ2QK","","null","<img src=""img/food6.png"" style=""width:200px;border:14px solid red;"">","null","","","","","","","","","",""
"","image-keyboard-response","10","41215","0.0-10.0","32M8BPYGAU8JWQ9CG7IRGOCNWZ7GIT","AOS2PVHT2HYTL","3JUDR1D0D6D4CARU3YX9Y3DK5DJ2QK","","1305.7000000476837","img/food2.png","76","1307.9000000953674","3","0","1","1","1,0.5,0,1,0.5,0,0.5,0,1","0,1,0.5,0,1,0.5,1,0.5,0","3","",""
"","html-keyboard-response","11","41518","0.0-11.0","32M8BPYGAU8JWQ9CG7IRGOCNWZ7GIT","AOS2PVHT2HYTL","3JUDR1D0D6D4CARU3YX9Y3DK5DJ2QK","","null","<img src=""img/food2.png"" style=""width:200px;border:14px solid red;"">","null","","","","","","","","","",""
"","image-keyboard-response","12","42353","0.0-12.0","32M8BPYGAU8JWQ9CG7IRGOCNWZ7GIT","AOS2PVHT2HYTL","3JUDR1D0D6D4CARU3YX9Y3DK5DJ2QK","","831.7000000476837","img/food5.png","74","834.5","1","0","2","1","1,0.5,0,1,0.5,0,0.5,0,1","0,1,0.5,0,1,0.5,1,0.5,0","3","",""
"","html-keyboard-response","13","42666","0.0-13.0","32M8BPYGAU8JWQ9CG7IRGOCNWZ7GIT","AOS2PVHT2HYTL","3JUDR1D0D6D4CARU3YX9Y3DK5DJ2QK","","null","<img src=""img/food5.png"" style=""width:200px;border:14px solid red;"">","null","","","","","","","","","",""
"","image-keyboard-response","14","43390","0.0-14.0","32M8BPYGAU8JWQ9CG7IRGOCNWZ7GIT","AOS2PVHT2HYTL","3JUDR1D0D6D4CARU3YX9Y3DK5DJ2QK","","721.5999999046326","img/food5.png","75","724.2999999523163","2","1","2","1","1,0.5,0,1,0.5,0,0.5,0,1","0,1,0.5,0,1,0.5,1,0.5,0","3","",""
"","html-keyboard-response","15","43694","0.0-15.0","32M8BPYGAU8JWQ9CG7IRGOCNWZ7GIT","AOS2PVHT2HYTL","3JUDR1D0D6D4CARU3YX9Y3DK5DJ2QK","","null","<img src=""img/food5.png"" style=""width:200px; border:14px solid green;"">","null","","","","","","","","","",""
"","image-keyboard-response","16","44678","0.0-16.0","32M8BPYGAU8JWQ9CG7IRGOCNWZ7GIT","AOS2PVHT2HYTL","3JUDR1D0D6D4CARU3YX9Y3DK5DJ2QK","","982.0999999046326","img/food2.png","76","983.4000000953674","3","1","1","1","1,0.5,0,1,0.5,0,0.5,0,1","0,1,0.5,0,1,0.5,1,0.5,0","3","",""
"","html-keyboard-response","17","44980","0.0-17.0","32M8BPYGAU8JWQ9CG7IRGOCNWZ7GIT","AOS2PVHT2HYTL","3JUDR1D0D6D4CARU3YX9Y3DK5DJ2QK","","null","<img src=""img/food2.png"" style=""width:200px; border:14px solid green;"">","null","","","","","","","","","",""
"","image-keyboard-response","18","46000","0.0-18.0","32M8BPYGAU8JWQ9CG7IRGOCNWZ7GIT","AOS2PVHT2HYTL","3JUDR1D0D6D4CARU3YX9Y3DK5DJ2QK","","1017.0999999046326","img/food6.png","74","1019.3000001907349","1","1","3","1","1,0.5,0,1,0.5,0,0.5,0,1","0,1,0.5,0,1,0.5,1,0.5,0","3","",""
"","html-keyboard-response","19","46304","0.0-19.0","32M8BPYGAU8JWQ9CG7IRGOCNWZ7GIT","AOS2PVHT2HYTL","3JUDR1D0D6D4CARU3YX9Y3DK5DJ2QK","","null","<img src=""img/food6.png"" style=""width:200px; border:14px solid green;"">","null","","","","","","","","","",""
"","image-keyboard-response","20","47528","0.0-20.0","32M8BPYGAU8JWQ9CG7IRGOCNWZ7GIT","AOS2PVHT2HYTL","3JUDR1D0D6D4CARU3YX9Y3DK5DJ2QK","","1220.6000001430511","img/food6.png","75","1223.5999999046326","2","1","3","1","1,0.5,0,1,0.5,0,0.5,0,1","0,1,0.5,0,1,0.5,1,0.5,0","3","",""
"","html-keyboard-response","21","47840","0.0-21.0","32M8BPYGAU8JWQ9CG7IRGOCNWZ7GIT","AOS2PVHT2HYTL","3JUDR1D0D6D4CARU3YX9Y3DK5DJ2QK","","null","<img src=""img/food6.png"" style=""width:200px; border:14px solid green;"">","null","","","","","","","","","",""
"","image-keyboard-response","22","49207","0.0-22.0","32M8BPYGAU8JWQ9CG7IRGOCNWZ7GIT","AOS2PVHT2HYTL","3JUDR1D0D6D4CARU3YX9Y3DK5DJ2QK","","1363","img/food2.png","75","1366.4000000953674","2","1","1","1","1,0.5,0,1,0.5,0,0.5,0,1","0,1,0.5,0,1,0.5,1,0.5,0","3","",""
"","html-keyboard-response","23","49511","0.0-23.0","32M8BPYGAU8JWQ9CG7IRGOCNWZ7GIT","AOS2PVHT2HYTL","3JUDR1D0D6D4CARU3YX9Y3DK5DJ2QK","","null","<img src=""img/food2.png"" style=""width:200px; border:14px solid green;"">","null","","","","","","","","","",""
"","image-keyboard-response","24","50693","0.0-24.0","32M8BPYGAU8JWQ9CG7IRGOCNWZ7GIT","AOS2PVHT2HYTL","3JUDR1D0D6D4CARU3YX9Y3DK5DJ2QK","","1179","img/food6.png","74","1181.5999999046326","1","1","3","1","1,0.5,0,1,0.5,0,0.5,0,1","0,1,0.5,0,1,0.5,1,0.5,0","3","",""
"","html-keyboard-response","25","50997","0.0-25.0","32M8BPYGAU8JWQ9CG7IRGOCNWZ7GIT","AOS2PVHT2HYTL","3JUDR1D0D6D4CARU3YX9Y3DK5DJ2QK","","null","<img src=""img/food6.png"" style=""width:200px; border:14px solid green;"">","null","","","","","","","","","",""
"","image-keyboard-response","26","51732","0.0-26.0","32M8BPYGAU8JWQ9CG7IRGOCNWZ7GIT","AOS2PVHT2HYTL","3JUDR1D0D6D4CARU3YX9Y3DK5DJ2QK","","731.7000000476837","img/food2.png","75","733.8000001907349","2","1","1","1","1,0.5,0,1,0.5,0,0.5,0,1","0,1,0.5,0,1,0.5,1,0.5,0","3","",""
"","html-keyboard-response","27","52034","0.0-27.0","32M8BPYGAU8JWQ9CG7IRGOCNWZ7GIT","AOS2PVHT2HYTL","3JUDR1D0D6D4CARU3YX9Y3DK5DJ2QK","","null","<img src=""img/food2.png"" style=""width:200px; border:14px solid green;"">","null","","","","","","","","","",""
"","image-keyboard-response","28","52835","0.0-28.0","32M8BPYGAU8JWQ9CG7IRGOCNWZ7GIT","AOS2PVHT2HYTL","3JUDR1D0D6D4CARU3YX9Y3DK5DJ2QK","","798.5999999046326","img/food6.png","74","800.3999998569489","1","1","3","1","1,0.5,0,1,0.5,0,0.5,0,1","0,1,0.5,0,1,0.5,1,0.5,0","3","",""
"","html-keyboard-response","29","53139","0.0-29.0","32M8BPYGAU8JWQ9CG7IRGOCNWZ7GIT","AOS2PVHT2HYTL","3JUDR1D0D6D4CARU3YX9Y3DK5DJ2QK","","null","<img src=""img/food6.png"" style=""width:200px; border:14px solid green;"">","null","","","","","","","","","",""
"","image-keyboard-response","30","53972","0.0-30.0","32M8BPYGAU8JWQ9CG7IRGOCNWZ7GIT","AOS2PVHT2HYTL","3JUDR1D0D6D4CARU3YX9Y3DK5DJ2QK","","830.1000001430511","img/food5.png","76","832.2000000476837","3","0","2","1","1,0.5,0,1,0.5,0,0.5,0,1","0,1,0.5,0,1,0.5,1,0.5,0","3","",""
"","html-keyboard-response","31","54275","0.0-31.0","32M8BPYGAU8JWQ9CG7IRGOCNWZ7GIT","AOS2PVHT2HYTL","3JUDR1D0D6D4CARU3YX9Y3DK5DJ2QK","","null","<img src=""img/food5.png"" style=""width:200px;border:14px solid red;"">","null","","","","","","","","","",""
"","image-keyboard-response","32","55169","0.0-32.0","32M8BPYGAU8JWQ9CG7IRGOCNWZ7GIT","AOS2PVHT2HYTL","3JUDR1D0D6D4CARU3YX9Y3DK5DJ2QK","","891.0999999046326","img/food2.png","75","893.6000001430511","2","1","1","1","1,0.5,0,1,0.5,0,0.5,0,1","0,1,0.5,0,1,0.5,1,0.5,0","3","",""
"","html-keyboard-response","33","55491","0.0-33.0","32M8BPYGAU8JWQ9CG7IRGOCNWZ7GIT","AOS2PVHT2HYTL","3JUDR1D0D6D4CARU3YX9Y3DK5DJ2QK","","null","<img src=""img/food2.png"" style=""width:200px; border:14px solid green;"">","null","","","","","","","","","",""
"","image-keyboard-response","34","56734","0.0-34.0","32M8BPYGAU8JWQ9CG7IRGOCNWZ7GIT","AOS2PVHT2HYTL","3JUDR1D0D6D4CARU3YX9Y3DK5DJ2QK","","1240.5","img/food5.png","74","1242.7999999523163","1","0","2","1","1,0.5,0,1,0.5,0,0.5,0,1","0,1,0.5,0,1,0.5,1,0.5,0","3","",""
"","html-keyboard-response","35","57040","0.0-35.0","32M8BPYGAU8JWQ9CG7IRGOCNWZ7GIT","AOS2PVHT2HYTL","3JUDR1D0D6D4CARU3YX9Y3DK5DJ2QK","","null","<img src=""img/food5.png"" style=""width:200px;border:14px solid red;"">","null","","","","","","","","","",""
"","image-keyboard-response","36","58020","0.0-36.0","32M8BPYGAU8JWQ9CG7IRGOCNWZ7GIT","AOS2PVHT2HYTL","3JUDR1D0D6D4CARU3YX9Y3DK5DJ2QK","","977.8999998569489","img/food2.png","75","980","2","1","1","1","1,0.5,0,1,0.5,0,0.5,0,1","0,1,0.5,0,1,0.5,1,0.5,0","3","",""
"","html-keyboard-response","37","58323","0.0-37.0","32M8BPYGAU8JWQ9CG7IRGOCNWZ7GIT","AOS2PVHT2HYTL","3JUDR1D0D6D4CARU3YX9Y3DK5DJ2QK","","null","<img src=""img/food2.png"" style=""width:200px; border:14px solid green;"">","null","","","","","","","","","",""
"","image-keyboard-response","38","59390","0.0-38.0","32M8BPYGAU8JWQ9CG7IRGOCNWZ7GIT","AOS2PVHT2HYTL","3JUDR1D0D6D4CARU3YX9Y3DK5DJ2QK","","1064.2999999523163","img/food6.png","75","1066.6000001430511","2","1","3","1","1,0.5,0,1,0.5,0,0.5,0,1","0,1,0.5,0,1,0.5,1,0.5,0","3","",""
"","html-keyboard-response","39","59695","0.0-39.0","32M8BPYGAU8JWQ9CG7IRGOCNWZ7GIT","AOS2PVHT2HYTL","3JUDR1D0D6D4CARU3YX9Y3DK5DJ2QK","","null","<img src=""img/food6.png"" style=""width:200px; border:14px solid green;"">","null","","","","","","","","","",""
"","image-keyboard-response","40","60514","0.0-40.0","32M8BPYGAU8JWQ9CG7IRGOCNWZ7GIT","AOS2PVHT2HYTL","3JUDR1D0D6D4CARU3YX9Y3DK5DJ2QK","","812.0999999046326","img/food5.png","75","815.2999999523163","2","1","2","1","1,0.5,0,1,0.5,0,0.5,0,1","0,1,0.5,0,1,0.5,1,0.5,0","3","",""
"","html-keyboard-response","41","60818","0.0-41.0","32M8BPYGAU8JWQ9CG7IRGOCNWZ7GIT","AOS2PVHT2HYTL","3JUDR1D0D6D4CARU3YX9Y3DK5DJ2QK","","null","<img src=""img/food5.png"" style=""width:200px; border:14px solid green;"">","null","","","","","","","","","",""
"","image-keyboard-response","42","62170","0.0-42.0","32M8BPYGAU8JWQ9CG7IRGOCNWZ7GIT","AOS2PVHT2HYTL","3JUDR1D0D6D4CARU3YX9Y3DK5DJ2QK","","1349","img/food2.png","75","1351.5999999046326","2","1","1","1","1,0.5,0,1,0.5,0,0.5,0,1","0,1,0.5,0,1,0.5,1,0.5,0","3","",""
"","html-keyboard-response","43","62477","0.0-43.0","32M8BPYGAU8JWQ9CG7IRGOCNWZ7GIT","AOS2PVHT2HYTL","3JUDR1D0D6D4CARU3YX9Y3DK5DJ2QK","","null","<img src=""img/food2.png"" style=""width:200px; border:14px solid green;"">","null","","","","","","","","","",""
"","image-keyboard-response","44","63228","0.0-44.0","32M8BPYGAU8JWQ9CG7IRGOCNWZ7GIT","AOS2PVHT2HYTL","3JUDR1D0D6D4CARU3YX9Y3DK5DJ2QK","","747.5","img/food2.png","75","750.6999998092651","2","1","1","1","1,0.5,0,1,0.5,0,0.5,0,1","0,1,0.5,0,1,0.5,1,0.5,0","3","",""
"","html-keyboard-response","45","63533","0.0-45.0","32M8BPYGAU8JWQ9CG7IRGOCNWZ7GIT","AOS2PVHT2HYTL","3JUDR1D0D6D4CARU3YX9Y3DK5DJ2QK","","null","<img src=""img/food2.png"" style=""width:200px; border:14px solid green;"">","null","","","","","","","","","",""
"","image-keyboard-response","46","64132","0.0-46.0","32M8BPYGAU8JWQ9CG7IRGOCNWZ7GIT","AOS2PVHT2HYTL","3JUDR1D0D6D4CARU3YX9Y3DK5DJ2QK","","596.2000000476837","img/food5.png","75","598.3000001907349","2","1","2","1","1,0.5,0,1,0.5,0,0.5,0,1","0,1,0.5,0,1,0.5,1,0.5,0","3","",""
"","html-keyboard-response","47","64435","0.0-47.0","32M8BPYGAU8JWQ9CG7IRGOCNWZ7GIT","AOS2PVHT2HYTL","3JUDR1D0D6D4CARU3YX9Y3DK5DJ2QK","","null","<img src=""img/food5.png"" style=""width:200px; border:14px solid green;"">","null","","","","","","","","","",""
"","image-keyboard-response","48","64951","0.0-48.0","32M8BPYGAU8JWQ9CG7IRGOCNWZ7GIT","AOS2PVHT2HYTL","3JUDR1D0D6D4CARU3YX9Y3DK5DJ2QK","","513.5999999046326","img/food2.png","75","515.6000001430511","2","1","1","1","1,0.5,0,1,0.5,0,0.5,0,1","0,1,0.5,0,1,0.5,1,0.5,0","3","",""
"","html-keyboard-response","49","65254","0.0-49.0","32M8BPYGAU8JWQ9CG7IRGOCNWZ7GIT","AOS2PVHT2HYTL","3JUDR1D0D6D4CARU3YX9Y3DK5DJ2QK","","null","<img src=""img/food2.png"" style=""width:200px; border:14px solid green;"">","null","","","","","","","","","",""
"","image-keyboard-response","50","65886","0.0-50.0","32M8BPYGAU8JWQ9CG7IRGOCNWZ7GIT","AOS2PVHT2HYTL","3JUDR1D0D6D4CARU3YX9Y3DK5DJ2QK","","629.4000000953674","img/food6.png","75","631.5999999046326","2","1","3","1","1,0.5,0,1,0.5,0,0.5,0,1","0,1,0.5,0,1,0.5,1,0.5,0","3","",""
"","html-keyboard-response","51","66190","0.0-51.0","32M8BPYGAU8JWQ9CG7IRGOCNWZ7GIT","AOS2PVHT2HYTL","3JUDR1D0D6D4CARU3YX9Y3DK5DJ2QK","","null","<img src=""img/food6.png"" style=""width:200px; border:14px solid green;"">","null","","","","","","","","","",""
"","image-keyboard-response","52","66605","0.0-52.0","32M8BPYGAU8JWQ9CG7IRGOCNWZ7GIT","AOS2PVHT2HYTL","3JUDR1D0D6D4CARU3YX9Y3DK5DJ2QK","","413.40000009536743","img/food2.png","75","415.09999990463257","2","1","1","1","1,0.5,0,1,0.5,0,0.5,0,1","0,1,0.5,0,1,0.5,1,0.5,0","3","",""
"","html-keyboard-response","53","66910","0.0-53.0","32M8BPYGAU8JWQ9CG7IRGOCNWZ7GIT","AOS2PVHT2HYTL","3JUDR1D0D6D4CARU3YX9Y3DK5DJ2QK","","null","<img src=""img/food2.png"" style=""width:200px; border:14px solid green;"">","null","","","","","","","","","",""
"","image-keyboard-response","54","67295","0.0-54.0","32M8BPYGAU8JWQ9CG7IRGOCNWZ7GIT","AOS2PVHT2HYTL","3JUDR1D0D6D4CARU3YX9Y3DK5DJ2QK","","382.2999999523163","img/food6.png","75","384.40000009536743","2","1","3","1","1,0.5,0,1,0.5,0,0.5,0,1","0,1,0.5,0,1,0.5,1,0.5,0","3","",""
"","html-keyboard-response","55","67597","0.0-55.0","32M8BPYGAU8JWQ9CG7IRGOCNWZ7GIT","AOS2PVHT2HYTL","3JUDR1D0D6D4CARU3YX9Y3DK5DJ2QK","","null","<img src=""img/food6.png"" style=""width:200px; border:14px solid green;"">","null","","","","","","","","","",""
"","image-keyboard-response","56","68007","0.0-56.0","32M8BPYGAU8JWQ9CG7IRGOCNWZ7GIT","AOS2PVHT2HYTL","3JUDR1D0D6D4CARU3YX9Y3DK5DJ2QK","","406.59999990463257","img/food2.png","75","408.7999999523163","2","1","1","1","1,0.5,0,1,0.5,0,0.5,0,1","0,1,0.5,0,1,0.5,1,0.5,0","3","",""
"","html-keyboard-response","57","68310","0.0-57.0","32M8BPYGAU8JWQ9CG7IRGOCNWZ7GIT","AOS2PVHT2HYTL","3JUDR1D0D6D4CARU3YX9Y3DK5DJ2QK","","null","<img src=""img/food2.png"" style=""width:200px; border:14px solid green;"">","null","","","","","","","","","",""
"","image-keyboard-response","58","68668","0.0-58.0","32M8BPYGAU8JWQ9CG7IRGOCNWZ7GIT","AOS2PVHT2HYTL","3JUDR1D0D6D4CARU3YX9Y3DK5DJ2QK","","355","img/food6.png","75","357.59999990463257","2","1","3","1","1,0.5,0,1,0.5,0,0.5,0,1","0,1,0.5,0,1,0.5,1,0.5,0","3","",""
"","html-keyboard-response","59","68973","0.0-59.0","32M8BPYGAU8JWQ9CG7IRGOCNWZ7GIT","AOS2PVHT2HYTL","3JUDR1D0D6D4CARU3YX9Y3DK5DJ2QK","","null","<img src=""img/food6.png"" style=""width:200px; border:14px solid green;"">","null","","","","","","","","","",""
"","image-keyboard-response","60","69293","0.0-60.0","32M8BPYGAU8JWQ9CG7IRGOCNWZ7GIT","AOS2PVHT2HYTL","3JUDR1D0D6D4CARU3YX9Y3DK5DJ2QK","","317.40000009536743","img/food5.png","75","320","2","1","2","1","1,0.5,0,1,0.5,0,0.5,0,1","0,1,0.5,0,1,0.5,1,0.5,0","3","",""
"","html-keyboard-response","61","69597","0.0-61.0","32M8BPYGAU8JWQ9CG7IRGOCNWZ7GIT","AOS2PVHT2HYTL","3JUDR1D0D6D4CARU3YX9Y3DK5DJ2QK","","null","<img src=""img/food5.png"" style=""width:200px; border:14px solid green;"">","null","","","","","","","","","",""
"","image-keyboard-response","62","69918","0.0-62.0","32M8BPYGAU8JWQ9CG7IRGOCNWZ7GIT","AOS2PVHT2HYTL","3JUDR1D0D6D4CARU3YX9Y3DK5DJ2QK","","317.90000009536743","img/food6.png","75","320.10000014305115","2","0","3","1","1,0.5,0,1,0.5,0,0.5,0,1","0,1,0.5,0,1,0.5,1,0.5,0","3","",""
"","html-keyboard-response","63","70221","0.0-63.0","32M8BPYGAU8JWQ9CG7IRGOCNWZ7GIT","AOS2PVHT2HYTL","3JUDR1D0D6D4CARU3YX9Y3DK5DJ2QK","","null","<img src=""img/food6.png"" style=""width:200px;border:14px solid red;"">","null","","","","","","","","","",""
"","image-keyboard-response","64","71334","0.0-64.0","32M8BPYGAU8JWQ9CG7IRGOCNWZ7GIT","AOS2PVHT2HYTL","3JUDR1D0D6D4CARU3YX9Y3DK5DJ2QK","","1110","img/food6.png","74","1112.7000000476837","1","1","3","1","1,0.5,0,1,0.5,0,0.5,0,1","0,1,0.5,0,1,0.5,1,0.5,0","3","",""
"","html-keyboard-response","65","71638","0.0-65.0","32M8BPYGAU8JWQ9CG7IRGOCNWZ7GIT","AOS2PVHT2HYTL","3JUDR1D0D6D4CARU3YX9Y3DK5DJ2QK","","null","<img src=""img/food6.png"" style=""width:200px; border:14px solid green;"">","null","","","","","","","","","",""
"","image-keyboard-response","66","72232","0.0-66.0","32M8BPYGAU8JWQ9CG7IRGOCNWZ7GIT","AOS2PVHT2HYTL","3JUDR1D0D6D4CARU3YX9Y3DK5DJ2QK","","590.4000000953674","img/food2.png","75","593","2","1","1","1","1,0.5,0,1,0.5,0,0.5,0,1","0,1,0.5,0,1,0.5,1,0.5,0","3","",""
"","html-keyboard-response","67","72536","0.0-67.0","32M8BPYGAU8JWQ9CG7IRGOCNWZ7GIT","AOS2PVHT2HYTL","3JUDR1D0D6D4CARU3YX9Y3DK5DJ2QK","","null","<img src=""img/food2.png"" style=""width:200px; border:14px solid green;"">","null","","","","","","","","","",""
"","image-keyboard-response","68","73239","0.0-68.0","32M8BPYGAU8JWQ9CG7IRGOCNWZ7GIT","AOS2PVHT2HYTL","3JUDR1D0D6D4CARU3YX9Y3DK5DJ2QK","","700.7000000476837","img/food6.png","74","703.2999999523163","1","1","3","1","1,0.5,0,1,0.5,0,0.5,0,1","0,1,0.5,0,1,0.5,1,0.5,0","3","",""
"","html-keyboard-response","69","73545","0.0-69.0","32M8BPYGAU8JWQ9CG7IRGOCNWZ7GIT","AOS2PVHT2HYTL","3JUDR1D0D6D4CARU3YX9Y3DK5DJ2QK","","null","<img src=""img/food6.png"" style=""width:200px; border:14px solid green;"">","null","","","","","","","","","",""
"","image-keyboard-response","70","74730","0.0-70.0","32M8BPYGAU8JWQ9CG7IRGOCNWZ7GIT","AOS2PVHT2HYTL","3JUDR1D0D6D4CARU3YX9Y3DK5DJ2QK","","1182.5999999046326","img/food5.png","75","1184.5999999046326","2","1","2","1","1,0.5,0,1,0.5,0,0.5,0,1","0,1,0.5,0,1,0.5,1,0.5,0","3","",""
"","html-keyboard-response","71","75035","0.0-71.0","32M8BPYGAU8JWQ9CG7IRGOCNWZ7GIT","AOS2PVHT2HYTL","3JUDR1D0D6D4CARU3YX9Y3DK5DJ2QK","","null","<img src=""img/food5.png"" style=""width:200px; border:14px solid green;"">","null","","","","","","","","","",""
"","image-keyboard-response","72","75811","0.0-72.0","32M8BPYGAU8JWQ9CG7IRGOCNWZ7GIT","AOS2PVHT2HYTL","3JUDR1D0D6D4CARU3YX9Y3DK5DJ2QK","","772.9000000953674","img/food6.png","75","775.3999998569489","2","1","3","1","1,0.5,0,1,0.5,0,0.5,0,1","0,1,0.5,0,1,0.5,1,0.5,0","3","",""
"","html-keyboard-response","73","76116","0.0-73.0","32M8BPYGAU8JWQ9CG7IRGOCNWZ7GIT","AOS2PVHT2HYTL","3JUDR1D0D6D4CARU3YX9Y3DK5DJ2QK","","null","<img src=""img/food6.png"" style=""width:200px; border:14px solid green;"">","null","","","","","","","","","",""
"","image-keyboard-response","74","76615","0.0-74.0","32M8BPYGAU8JWQ9CG7IRGOCNWZ7GIT","AOS2PVHT2HYTL","3JUDR1D0D6D4CARU3YX9Y3DK5DJ2QK","","496.7999999523163","img/food5.png","75","498.89999985694885","2","1","2","1","1,0.5,0,1,0.5,0,0.5,0,1","0,1,0.5,0,1,0.5,1,0.5,0","3","",""
"","html-keyboard-response","75","76920","0.0-75.0","32M8BPYGAU8JWQ9CG7IRGOCNWZ7GIT","AOS2PVHT2HYTL","3JUDR1D0D6D4CARU3YX9Y3DK5DJ2QK","","null","<img src=""img/food5.png"" style=""width:200px; border:14px solid green;"">","null","","","","","","","","","",""
"","image-keyboard-response","76","77362","0.0-76.0","32M8BPYGAU8JWQ9CG7IRGOCNWZ7GIT","AOS2PVHT2HYTL","3JUDR1D0D6D4CARU3YX9Y3DK5DJ2QK","","438.69999980926514","img/food5.png","75","441.2000000476837","2","1","2","1","1,0.5,0,1,0.5,0,0.5,0,1","0,1,0.5,0,1,0.5,1,0.5,0","3","",""
"","html-keyboard-response","77","77666","0.0-77.0","32M8BPYGAU8JWQ9CG7IRGOCNWZ7GIT","AOS2PVHT2HYTL","3JUDR1D0D6D4CARU3YX9Y3DK5DJ2QK","","null","<img src=""img/food5.png"" style=""width:200px; border:14px solid green;"">","null","","","","","","","","","",""
"","image-keyboard-response","78","78094","0.0-78.0","32M8BPYGAU8JWQ9CG7IRGOCNWZ7GIT","AOS2PVHT2HYTL","3JUDR1D0D6D4CARU3YX9Y3DK5DJ2QK","","425","img/food5.png","75","427.10000014305115","2","1","2","1","1,0.5,0,1,0.5,0,0.5,0,1","0,1,0.5,0,1,0.5,1,0.5,0","3","",""
"","html-keyboard-response","79","78397","0.0-79.0","32M8BPYGAU8JWQ9CG7IRGOCNWZ7GIT","AOS2PVHT2HYTL","3JUDR1D0D6D4CARU3YX9Y3DK5DJ2QK","","null","<img src=""img/food5.png"" style=""width:200px; border:14px solid green;"">","null","","","","","","","","","",""
"","image-keyboard-response","80","78768","0.0-80.0","32M8BPYGAU8JWQ9CG7IRGOCNWZ7GIT","AOS2PVHT2HYTL","3JUDR1D0D6D4CARU3YX9Y3DK5DJ2QK","","367.7999999523163","img/food5.png","75","370.60000014305115","2","1","2","1","1,0.5,0,1,0.5,0,0.5,0,1","0,1,0.5,0,1,0.5,1,0.5,0","3","",""
"","html-keyboard-response","81","79072","0.0-81.0","32M8BPYGAU8JWQ9CG7IRGOCNWZ7GIT","AOS2PVHT2HYTL","3JUDR1D0D6D4CARU3YX9Y3DK5DJ2QK","","null","<img src=""img/food5.png"" style=""width:200px; border:14px solid green;"">","null","","","","","","","","","",""
"","image-keyboard-response","82","79690","0.0-82.0","32M8BPYGAU8JWQ9CG7IRGOCNWZ7GIT","AOS2PVHT2HYTL","3JUDR1D0D6D4CARU3YX9Y3DK5DJ2QK","","615.7000000476837","img/food6.png","75","617.9000000953674","2","0","3","1","1,0.5,0,1,0.5,0,0.5,0,1","0,1,0.5,0,1,0.5,1,0.5,0","3","",""
"","html-keyboard-response","83","79993","0.0-83.0","32M8BPYGAU8JWQ9CG7IRGOCNWZ7GIT","AOS2PVHT2HYTL","3JUDR1D0D6D4CARU3YX9Y3DK5DJ2QK","","null","<img src=""img/food6.png"" style=""width:200px;border:14px solid red;"">","null","","","","","","","","","",""
"","image-keyboard-response","84","81047","0.0-84.0","32M8BPYGAU8JWQ9CG7IRGOCNWZ7GIT","AOS2PVHT2HYTL","3JUDR1D0D6D4CARU3YX9Y3DK5DJ2QK","","1050.8999998569489","img/food5.png","75","1053","2","1","2","1","1,0.5,0,1,0.5,0,0.5,0,1","0,1,0.5,0,1,0.5,1,0.5,0","3","",""
"","html-keyboard-response","85","81371","0.0-85.0","32M8BPYGAU8JWQ9CG7IRGOCNWZ7GIT","AOS2PVHT2HYTL","3JUDR1D0D6D4CARU3YX9Y3DK5DJ2QK","","null","<img src=""img/food5.png"" style=""width:200px; border:14px solid green;"">","null","","","","","","","","","",""
"","image-keyboard-response","86","82210","0.0-86.0","32M8BPYGAU8JWQ9CG7IRGOCNWZ7GIT","AOS2PVHT2HYTL","3JUDR1D0D6D4CARU3YX9Y3DK5DJ2QK","","837.2000000476837","img/food2.png","75","839.1000001430511","2","1","1","1","1,0.5,0,1,0.5,0,0.5,0,1","0,1,0.5,0,1,0.5,1,0.5,0","3","",""
"","html-keyboard-response","87","82520","0.0-87.0","32M8BPYGAU8JWQ9CG7IRGOCNWZ7GIT","AOS2PVHT2HYTL","3JUDR1D0D6D4CARU3YX9Y3DK5DJ2QK","","null","<img src=""img/food2.png"" style=""width:200px; border:14px solid green;"">","null","","","","","","","","","",""
"","image-keyboard-response","88","82970","0.0-88.0","32M8BPYGAU8JWQ9CG7IRGOCNWZ7GIT","AOS2PVHT2HYTL","3JUDR1D0D6D4CARU3YX9Y3DK5DJ2QK","","447.80000019073486","img/food5.png","75","450.5","2","1","2","1","1,0.5,0,1,0.5,0,0.5,0,1","0,1,0.5,0,1,0.5,1,0.5,0","3","",""
"","html-keyboard-response","89","83276","0.0-89.0","32M8BPYGAU8JWQ9CG7IRGOCNWZ7GIT","AOS2PVHT2HYTL","3JUDR1D0D6D4CARU3YX9Y3DK5DJ2QK","","null","<img src=""img/food5.png"" style=""width:200px; border:14px solid green;"">","null","","","","","","","","","",""
"","image-keyboard-response","90","83771","0.0-90.0","32M8BPYGAU8JWQ9CG7IRGOCNWZ7GIT","AOS2PVHT2HYTL","3JUDR1D0D6D4CARU3YX9Y3DK5DJ2QK","","492","img/food2.png","75","494.59999990463257","2","1","1","1","1,0.5,0,1,0.5,0,0.5,0,1","0,1,0.5,0,1,0.5,1,0.5,0","3","",""
"","html-keyboard-response","91","84110","0.0-91.0","32M8BPYGAU8JWQ9CG7IRGOCNWZ7GIT","AOS2PVHT2HYTL","3JUDR1D0D6D4CARU3YX9Y3DK5DJ2QK","","null","<img src=""img/food2.png"" style=""width:200px; border:14px solid green;"">","null","","","","","","","","","",""
"","image-keyboard-response","92","84583","0.0-92.0","32M8BPYGAU8JWQ9CG7IRGOCNWZ7GIT","AOS2PVHT2HYTL","3JUDR1D0D6D4CARU3YX9Y3DK5DJ2QK","","471.2000000476837","img/food5.png","75","473","2","1","2","1","1,0.5,0,1,0.5,0,0.5,0,1","0,1,0.5,0,1,0.5,1,0.5,0","3","",""
"","html-keyboard-response","93","84887","0.0-93.0","32M8BPYGAU8JWQ9CG7IRGOCNWZ7GIT","AOS2PVHT2HYTL","3JUDR1D0D6D4CARU3YX9Y3DK5DJ2QK","","null","<img src=""img/food5.png"" style=""width:200px; border:14px solid green;"">","null","","","","","","","","","",""
"","image-keyboard-response","94","85271","0.0-94.0","32M8BPYGAU8JWQ9CG7IRGOCNWZ7GIT","AOS2PVHT2HYTL","3JUDR1D0D6D4CARU3YX9Y3DK5DJ2QK","","381.60000014305115","img/food2.png","75","383.60000014305115","2","1","1","1","1,0.5,0,1,0.5,0,0.5,0,1","0,1,0.5,0,1,0.5,1,0.5,0","3","",""
"","html-keyboard-response","95","85574","0.0-95.0","32M8BPYGAU8JWQ9CG7IRGOCNWZ7GIT","AOS2PVHT2HYTL","3JUDR1D0D6D4CARU3YX9Y3DK5DJ2QK","","null","<img src=""img/food2.png"" style=""width:200px; border:14px solid green;"">","null","","","","","","","","","",""
"","image-keyboard-response","96","85974","0.0-96.0","32M8BPYGAU8JWQ9CG7IRGOCNWZ7GIT","AOS2PVHT2HYTL","3JUDR1D0D6D4CARU3YX9Y3DK5DJ2QK","","396.7999999523163","img/food2.png","75","398.89999985694885","2","1","1","1","1,0.5,0,1,0.5,0,0.5,0,1","0,1,0.5,0,1,0.5,1,0.5,0","3","",""
"","html-keyboard-response","97","86278","0.0-97.0","32M8BPYGAU8JWQ9CG7IRGOCNWZ7GIT","AOS2PVHT2HYTL","3JUDR1D0D6D4CARU3YX9Y3DK5DJ2QK","","null","<img src=""img/food2.png"" style=""width:200px; border:14px solid green;"">","null","","","","","","","","","",""
"","image-keyboard-response","98","87080","0.0-98.0","32M8BPYGAU8JWQ9CG7IRGOCNWZ7GIT","AOS2PVHT2HYTL","3JUDR1D0D6D4CARU3YX9Y3DK5DJ2QK","","799.9000000953674","img/food6.png","74","802.3999998569489","1","1","3","1","1,0.5,0,1,0.5,0,0.5,0,1","0,1,0.5,0,1,0.5,1,0.5,0","3","",""
"","html-keyboard-response","99","87385","0.0-99.0","32M8BPYGAU8JWQ9CG7IRGOCNWZ7GIT","AOS2PVHT2HYTL","3JUDR1D0D6D4CARU3YX9Y3DK5DJ2QK","","null","<img src=""img/food6.png"" style=""width:200px; border:14px solid green;"">","null","","","","","","","","","",""
"","image-keyboard-response","100","87864","0.0-100.0","32M8BPYGAU8JWQ9CG7IRGOCNWZ7GIT","AOS2PVHT2HYTL","3JUDR1D0D6D4CARU3YX9Y3DK5DJ2QK","","476.2000000476837","img/food2.png","75","478.69999980926514","2","1","1","1","1,0.5,0,1,0.5,0,0.5,0,1","0,1,0.5,0,1,0.5,1,0.5,0","3","",""
"","html-keyboard-response","101","88168","0.0-101.0","32M8BPYGAU8JWQ9CG7IRGOCNWZ7GIT","AOS2PVHT2HYTL","3JUDR1D0D6D4CARU3YX9Y3DK5DJ2QK","","null","<img src=""img/food2.png"" style=""width:200px; border:14px solid green;"">","null","","","","","","","","","",""
"","image-keyboard-response","102","88636","0.0-102.0","32M8BPYGAU8JWQ9CG7IRGOCNWZ7GIT","AOS2PVHT2HYTL","3JUDR1D0D6D4CARU3YX9Y3DK5DJ2QK","","466","img/food2.png","75","467.89999985694885","2","1","1","1","1,0.5,0,1,0.5,0,0.5,0,1","0,1,0.5,0,1,0.5,1,0.5,0","3","",""
"","html-keyboard-response","103","88940","0.0-103.0","32M8BPYGAU8JWQ9CG7IRGOCNWZ7GIT","AOS2PVHT2HYTL","3JUDR1D0D6D4CARU3YX9Y3DK5DJ2QK","","null","<img src=""img/food2.png"" style=""width:200px; border:14px solid green;"">","null","","","","","","","","","",""
"","image-keyboard-response","104","90188","0.0-104.0","32M8BPYGAU8JWQ9CG7IRGOCNWZ7GIT","AOS2PVHT2HYTL","3JUDR1D0D6D4CARU3YX9Y3DK5DJ2QK","","1244.5","img/food5.png","75","1247.2000000476837","2","1","2","1","1,0.5,0,1,0.5,0,0.5,0,1","0,1,0.5,0,1,0.5,1,0.5,0","3","",""
"","html-keyboard-response","105","90492","0.0-105.0","32M8BPYGAU8JWQ9CG7IRGOCNWZ7GIT","AOS2PVHT2HYTL","3JUDR1D0D6D4CARU3YX9Y3DK5DJ2QK","","null","<img src=""img/food5.png"" style=""width:200px; border:14px solid green;"">","null","","","","","","","","","",""
"","image-keyboard-response","106","91474","0.0-106.0","32M8BPYGAU8JWQ9CG7IRGOCNWZ7GIT","AOS2PVHT2HYTL","3JUDR1D0D6D4CARU3YX9Y3DK5DJ2QK","","978.5","img/food6.png","74","981.1000001430511","1","1","3","1","1,0.5,0,1,0.5,0,0.5,0,1","0,1,0.5,0,1,0.5,1,0.5,0","3","",""
"","html-keyboard-response","107","91777","0.0-107.0","32M8BPYGAU8JWQ9CG7IRGOCNWZ7GIT","AOS2PVHT2HYTL","3JUDR1D0D6D4CARU3YX9Y3DK5DJ2QK","","null","<img src=""img/food6.png"" style=""width:200px; border:14px solid green;"">","null","","","","","","","","","",""
"","image-keyboard-response","108","92172","0.0-108.0","32M8BPYGAU8JWQ9CG7IRGOCNWZ7GIT","AOS2PVHT2HYTL","3JUDR1D0D6D4CARU3YX9Y3DK5DJ2QK","","392.59999990463257","img/food6.png","75","394.2999999523163","2","0","3","1","1,0.5,0,1,0.5,0,0.5,0,1","0,1,0.5,0,1,0.5,1,0.5,0","3","",""
"","html-keyboard-response","109","92480","0.0-109.0","32M8BPYGAU8JWQ9CG7IRGOCNWZ7GIT","AOS2PVHT2HYTL","3JUDR1D0D6D4CARU3YX9Y3DK5DJ2QK","","null","<img src=""img/food6.png"" style=""width:200px;border:14px solid red;"">","null","","","","","","","","","",""
"","image-keyboard-response","110","93148","0.0-110.0","32M8BPYGAU8JWQ9CG7IRGOCNWZ7GIT","AOS2PVHT2HYTL","3JUDR1D0D6D4CARU3YX9Y3DK5DJ2QK","","665.2000000476837","img/food5.png","75","667.5","2","1","2","1","1,0.5,0,1,0.5,0,0.5,0,1","0,1,0.5,0,1,0.5,1,0.5,0","3","",""
"","html-keyboard-response","111","93453","0.0-111.0","32M8BPYGAU8JWQ9CG7IRGOCNWZ7GIT","AOS2PVHT2HYTL","3JUDR1D0D6D4CARU3YX9Y3DK5DJ2QK","","null","<img src=""img/food5.png"" style=""width:200px; border:14px solid green;"">","null","","","","","","","","","",""
"","image-keyboard-response","112","94049","0.0-112.0","32M8BPYGAU8JWQ9CG7IRGOCNWZ7GIT","AOS2PVHT2HYTL","3JUDR1D0D6D4CARU3YX9Y3DK5DJ2QK","","592.7999999523163","img/food2.png","75","595.5","2","1","1","1","1,0.5,0,1,0.5,0,0.5,0,1","0,1,0.5,0,1,0.5,1,0.5,0","3","",""
"","html-keyboard-response","113","94353","0.0-113.0","32M8BPYGAU8JWQ9CG7IRGOCNWZ7GIT","AOS2PVHT2HYTL","3JUDR1D0D6D4CARU3YX9Y3DK5DJ2QK","","null","<img src=""img/food2.png"" style=""width:200px; border:14px solid green;"">","null","","","","","","","","","",""
"","image-keyboard-response","114","94803","0.0-114.0","32M8BPYGAU8JWQ9CG7IRGOCNWZ7GIT","AOS2PVHT2HYTL","3JUDR1D0D6D4CARU3YX9Y3DK5DJ2QK","","446.69999980926514","img/food5.png","75","448.7999999523163","2","1","2","1","1,0.5,0,1,0.5,0,0.5,0,1","0,1,0.5,0,1,0.5,1,0.5,0","3","",""
"","html-keyboard-response","115","95105","0.0-115.0","32M8BPYGAU8JWQ9CG7IRGOCNWZ7GIT","AOS2PVHT2HYTL","3JUDR1D0D6D4CARU3YX9Y3DK5DJ2QK","","null","<img src=""img/food5.png"" style=""width:200px; border:14px solid green;"">","null","","","","","","","","","",""
"","image-keyboard-response","116","95511","0.0-116.0","32M8BPYGAU8JWQ9CG7IRGOCNWZ7GIT","AOS2PVHT2HYTL","3JUDR1D0D6D4CARU3YX9Y3DK5DJ2QK","","402.59999990463257","img/food5.png","75","405.09999990463257","2","1","2","1","1,0.5,0,1,0.5,0,0.5,0,1","0,1,0.5,0,1,0.5,1,0.5,0","3","",""
"","html-keyboard-response","117","95815","0.0-117.0","32M8BPYGAU8JWQ9CG7IRGOCNWZ7GIT","AOS2PVHT2HYTL","3JUDR1D0D6D4CARU3YX9Y3DK5DJ2QK","","null","<img src=""img/food5.png"" style=""width:200px; border:14px solid green;"">","null","","","","","","","","","",""
"","image-keyboard-response","118","96175","0.0-118.0","32M8BPYGAU8JWQ9CG7IRGOCNWZ7GIT","AOS2PVHT2HYTL","3JUDR1D0D6D4CARU3YX9Y3DK5DJ2QK","","358.5","img/food2.png","75","359.89999985694885","2","1","1","1","1,0.5,0,1,0.5,0,0.5,0,1","0,1,0.5,0,1,0.5,1,0.5,0","3","",""
"","html-keyboard-response","119","96478","0.0-119.0","32M8BPYGAU8JWQ9CG7IRGOCNWZ7GIT","AOS2PVHT2HYTL","3JUDR1D0D6D4CARU3YX9Y3DK5DJ2QK","","null","<img src=""img/food2.png"" style=""width:200px; border:14px solid green;"">","null","","","","","","","","","",""
"","image-keyboard-response","120","96854","0.0-120.0","32M8BPYGAU8JWQ9CG7IRGOCNWZ7GIT","AOS2PVHT2HYTL","3JUDR1D0D6D4CARU3YX9Y3DK5DJ2QK","","373.5","img/food5.png","75","376","2","1","2","1","1,0.5,0,1,0.5,0,0.5,0,1","0,1,0.5,0,1,0.5,1,0.5,0","3","",""
"","html-keyboard-response","121","97164","0.0-121.0","32M8BPYGAU8JWQ9CG7IRGOCNWZ7GIT","AOS2PVHT2HYTL","3JUDR1D0D6D4CARU3YX9Y3DK5DJ2QK","","null","<img src=""img/food5.png"" style=""width:200px; border:14px solid green;"">","null","","","","","","","","","",""
"","image-keyboard-response","122","97565","0.0-122.0","32M8BPYGAU8JWQ9CG7IRGOCNWZ7GIT","AOS2PVHT2HYTL","3JUDR1D0D6D4CARU3YX9Y3DK5DJ2QK","","398","img/food6.png","75","400","2","0","3","1","1,0.5,0,1,0.5,0,0.5,0,1","0,1,0.5,0,1,0.5,1,0.5,0","3","",""
"","html-keyboard-response","123","97870","0.0-123.0","32M8BPYGAU8JWQ9CG7IRGOCNWZ7GIT","AOS2PVHT2HYTL","3JUDR1D0D6D4CARU3YX9Y3DK5DJ2QK","","null","<img src=""img/food6.png"" style=""width:200px;border:14px solid red;"">","null","","","","","","","","","",""
"","image-keyboard-response","124","98522","0.0-124.0","32M8BPYGAU8JWQ9CG7IRGOCNWZ7GIT","AOS2PVHT2HYTL","3JUDR1D0D6D4CARU3YX9Y3DK5DJ2QK","","646.9000000953674","img/food5.png","75","651.7000000476837","2","1","2","1","1,0.5,0,1,0.5,0,0.5,0,1","0,1,0.5,0,1,0.5,1,0.5,0","3","",""
"","html-keyboard-response","125","98826","0.0-125.0","32M8BPYGAU8JWQ9CG7IRGOCNWZ7GIT","AOS2PVHT2HYTL","3JUDR1D0D6D4CARU3YX9Y3DK5DJ2QK","","null","<img src=""img/food5.png"" style=""width:200px; border:14px solid green;"">","null","","","","","","","","","",""
"","image-keyboard-response","126","99327","0.0-126.0","32M8BPYGAU8JWQ9CG7IRGOCNWZ7GIT","AOS2PVHT2HYTL","3JUDR1D0D6D4CARU3YX9Y3DK5DJ2QK","","498","img/food2.png","75","500.60000014305115","2","1","1","1","1,0.5,0,1,0.5,0,0.5,0,1","0,1,0.5,0,1,0.5,1,0.5,0","3","",""
"","html-keyboard-response","127","99630","0.0-127.0","32M8BPYGAU8JWQ9CG7IRGOCNWZ7GIT","AOS2PVHT2HYTL","3JUDR1D0D6D4CARU3YX9Y3DK5DJ2QK","","null","<img src=""img/food2.png"" style=""width:200px; border:14px solid green;"">","null","","","","","","","","","",""
"","image-keyboard-response","128","99997","0.0-128.0","32M8BPYGAU8JWQ9CG7IRGOCNWZ7GIT","AOS2PVHT2HYTL","3JUDR1D0D6D4CARU3YX9Y3DK5DJ2QK","","365.40000009536743","img/food2.png","75","366.7999999523163","2","1","1","1","1,0.5,0,1,0.5,0,0.5,0,1","0,1,0.5,0,1,0.5,1,0.5,0","3","",""
"","html-keyboard-response","129","100300","0.0-129.0","32M8BPYGAU8JWQ9CG7IRGOCNWZ7GIT","AOS2PVHT2HYTL","3JUDR1D0D6D4CARU3YX9Y3DK5DJ2QK","","null","<img src=""img/food2.png"" style=""width:200px; border:14px solid green;"">","null","","","","","","","","","",""
"","image-keyboard-response","130","100886","0.0-130.0","32M8BPYGAU8JWQ9CG7IRGOCNWZ7GIT","AOS2PVHT2HYTL","3JUDR1D0D6D4CARU3YX9Y3DK5DJ2QK","","582.7999999523163","img/food6.png","74","585.4000000953674","1","1","3","1","1,0.5,0,1,0.5,0,0.5,0,1","0,1,0.5,0,1,0.5,1,0.5,0","3","",""
"","html-keyboard-response","131","101190","0.0-131.0","32M8BPYGAU8JWQ9CG7IRGOCNWZ7GIT","AOS2PVHT2HYTL","3JUDR1D0D6D4CARU3YX9Y3DK5DJ2QK","","null","<img src=""img/food6.png"" style=""width:200px; border:14px solid green;"">","null","","","","","","","","","",""
"","image-keyboard-response","132","101710","0.0-132.0","32M8BPYGAU8JWQ9CG7IRGOCNWZ7GIT","AOS2PVHT2HYTL","3JUDR1D0D6D4CARU3YX9Y3DK5DJ2QK","","516.7000000476837","img/food6.png","75","519.3000001907349","2","1","3","1","1,0.5,0,1,0.5,0,0.5,0,1","0,1,0.5,0,1,0.5,1,0.5,0","3","",""
"","html-keyboard-response","133","102015","0.0-133.0","32M8BPYGAU8JWQ9CG7IRGOCNWZ7GIT","AOS2PVHT2HYTL","3JUDR1D0D6D4CARU3YX9Y3DK5DJ2QK","","null","<img src=""img/food6.png"" style=""width:200px; border:14px solid green;"">","null","","","","","","","","","",""
"","image-keyboard-response","134","103142","0.0-134.0","32M8BPYGAU8JWQ9CG7IRGOCNWZ7GIT","AOS2PVHT2HYTL","3JUDR1D0D6D4CARU3YX9Y3DK5DJ2QK","","1124.4000000953674","img/food2.png","75","1127.2000000476837","2","1","1","1","1,0.5,0,1,0.5,0,0.5,0,1","0,1,0.5,0,1,0.5,1,0.5,0","3","",""
"","html-keyboard-response","135","103448","0.0-135.0","32M8BPYGAU8JWQ9CG7IRGOCNWZ7GIT","AOS2PVHT2HYTL","3JUDR1D0D6D4CARU3YX9Y3DK5DJ2QK","","null","<img src=""img/food2.png"" style=""width:200px; border:14px solid green;"">","null","","","","","","","","","",""
"","image-keyboard-response","136","104058","0.0-136.0","32M8BPYGAU8JWQ9CG7IRGOCNWZ7GIT","AOS2PVHT2HYTL","3JUDR1D0D6D4CARU3YX9Y3DK5DJ2QK","","606.5999999046326","img/food5.png","75","609.7000000476837","2","1","2","1","1,0.5,0,1,0.5,0,0.5,0,1","0,1,0.5,0,1,0.5,1,0.5,0","3","",""
"","html-keyboard-response","137","104362","0.0-137.0","32M8BPYGAU8JWQ9CG7IRGOCNWZ7GIT","AOS2PVHT2HYTL","3JUDR1D0D6D4CARU3YX9Y3DK5DJ2QK","","null","<img src=""img/food5.png"" style=""width:200px; border:14px solid green;"">","null","","","","","","","","","",""
"","image-keyboard-response","138","104809","0.0-138.0","32M8BPYGAU8JWQ9CG7IRGOCNWZ7GIT","AOS2PVHT2HYTL","3JUDR1D0D6D4CARU3YX9Y3DK5DJ2QK","","444.60000014305115","img/food5.png","75","446.2999999523163","2","1","2","1","1,0.5,0,1,0.5,0,0.5,0,1","0,1,0.5,0,1,0.5,1,0.5,0","3","",""
"","html-keyboard-response","139","105113","0.0-139.0","32M8BPYGAU8JWQ9CG7IRGOCNWZ7GIT","AOS2PVHT2HYTL","3JUDR1D0D6D4CARU3YX9Y3DK5DJ2QK","","null","<img src=""img/food5.png"" style=""width:200px; border:14px solid green;"">","null","","","","","","","","","",""
"","image-keyboard-response","140","105835","0.0-140.0","32M8BPYGAU8JWQ9CG7IRGOCNWZ7GIT","AOS2PVHT2HYTL","3JUDR1D0D6D4CARU3YX9Y3DK5DJ2QK","","718.7999999523163","img/food2.png","75","721.4000000953674","2","1","1","1","1,0.5,0,1,0.5,0,0.5,0,1","0,1,0.5,0,1,0.5,1,0.5,0","3","",""
"","html-keyboard-response","141","106138","0.0-141.0","32M8BPYGAU8JWQ9CG7IRGOCNWZ7GIT","AOS2PVHT2HYTL","3JUDR1D0D6D4CARU3YX9Y3DK5DJ2QK","","null","<img src=""img/food2.png"" style=""width:200px; border:14px solid green;"">","null","","","","","","","","","",""
"","image-keyboard-response","142","106790","0.0-142.0","32M8BPYGAU8JWQ9CG7IRGOCNWZ7GIT","AOS2PVHT2HYTL","3JUDR1D0D6D4CARU3YX9Y3DK5DJ2QK","","650.7000000476837","img/food6.png","75","652.6999998092651","2","1","3","1","1,0.5,0,1,0.5,0,0.5,0,1","0,1,0.5,0,1,0.5,1,0.5,0","3","",""
"","html-keyboard-response","143","107100","0.0-143.0","32M8BPYGAU8JWQ9CG7IRGOCNWZ7GIT","AOS2PVHT2HYTL","3JUDR1D0D6D4CARU3YX9Y3DK5DJ2QK","","null","<img src=""img/food6.png"" style=""width:200px; border:14px solid green;"">","null","","","","","","","","","",""
"","image-keyboard-response","144","107478","0.0-144.0","32M8BPYGAU8JWQ9CG7IRGOCNWZ7GIT","AOS2PVHT2HYTL","3JUDR1D0D6D4CARU3YX9Y3DK5DJ2QK","","375.2000000476837","img/food5.png","75","377.40000009536743","2","1","2","1","1,0.5,0,1,0.5,0,0.5,0,1","0,1,0.5,0,1,0.5,1,0.5,0","3","",""
"","html-keyboard-response","145","107782","0.0-145.0","32M8BPYGAU8JWQ9CG7IRGOCNWZ7GIT","AOS2PVHT2HYTL","3JUDR1D0D6D4CARU3YX9Y3DK5DJ2QK","","null","<img src=""img/food5.png"" style=""width:200px; border:14px solid green;"">","null","","","","","","","","","",""
"","image-keyboard-response","146","108169","0.0-146.0","32M8BPYGAU8JWQ9CG7IRGOCNWZ7GIT","AOS2PVHT2HYTL","3JUDR1D0D6D4CARU3YX9Y3DK5DJ2QK","","383.7999999523163","img/food5.png","75","386.39999985694885","2","1","2","1","1,0.5,0,1,0.5,0,0.5,0,1","0,1,0.5,0,1,0.5,1,0.5,0","3","",""
"","html-keyboard-response","147","108472","0.0-147.0","32M8BPYGAU8JWQ9CG7IRGOCNWZ7GIT","AOS2PVHT2HYTL","3JUDR1D0D6D4CARU3YX9Y3DK5DJ2QK","","null","<img src=""img/food5.png"" style=""width:200px; border:14px solid green;"">","null","","","","","","","","","",""
"","image-keyboard-response","148","108935","0.0-148.0","32M8BPYGAU8JWQ9CG7IRGOCNWZ7GIT","AOS2PVHT2HYTL","3JUDR1D0D6D4CARU3YX9Y3DK5DJ2QK","","459.2000000476837","img/food6.png","75","461.7000000476837","2","0","3","1","1,0.5,0,1,0.5,0,0.5,0,1","0,1,0.5,0,1,0.5,1,0.5,0","3","",""
"","html-keyboard-response","149","109239","0.0-149.0","32M8BPYGAU8JWQ9CG7IRGOCNWZ7GIT","AOS2PVHT2HYTL","3JUDR1D0D6D4CARU3YX9Y3DK5DJ2QK","","null","<img src=""img/food6.png"" style=""width:200px;border:14px solid red;"">","null","","","","","","","","","",""
"","image-keyboard-response","150","109839","0.0-150.0","32M8BPYGAU8JWQ9CG7IRGOCNWZ7GIT","AOS2PVHT2HYTL","3JUDR1D0D6D4CARU3YX9Y3DK5DJ2QK","","597.1999998092651","img/food2.png","75","599.4000000953674","2","1","1","1","1,0.5,0,1,0.5,0,0.5,0,1","0,1,0.5,0,1,0.5,1,0.5,0","3","",""
"","html-keyboard-response","151","110161","0.0-151.0","32M8BPYGAU8JWQ9CG7IRGOCNWZ7GIT","AOS2PVHT2HYTL","3JUDR1D0D6D4CARU3YX9Y3DK5DJ2QK","","null","<img src=""img/food2.png"" style=""width:200px; border:14px solid green;"">","null","","","","","","","","","",""
"","image-keyboard-response","152","110632","0.0-152.0","32M8BPYGAU8JWQ9CG7IRGOCNWZ7GIT","AOS2PVHT2HYTL","3JUDR1D0D6D4CARU3YX9Y3DK5DJ2QK","","468","img/food5.png","75","469.7999999523163","2","1","2","1","1,0.5,0,1,0.5,0,0.5,0,1","0,1,0.5,0,1,0.5,1,0.5,0","3","",""
"","html-keyboard-response","153","110936","0.0-153.0","32M8BPYGAU8JWQ9CG7IRGOCNWZ7GIT","AOS2PVHT2HYTL","3JUDR1D0D6D4CARU3YX9Y3DK5DJ2QK","","null","<img src=""img/food5.png"" style=""width:200px; border:14px solid green;"">","null","","","","","","","","","",""
"","image-keyboard-response","154","111707","0.0-154.0","32M8BPYGAU8JWQ9CG7IRGOCNWZ7GIT","AOS2PVHT2HYTL","3JUDR1D0D6D4CARU3YX9Y3DK5DJ2QK","","769.0999999046326","img/food6.png","74","770.9000000953674","1","1","3","1","1,0.5,0,1,0.5,0,0.5,0,1","0,1,0.5,0,1,0.5,1,0.5,0","3","",""
"","html-keyboard-response","155","112046","0.0-155.0","32M8BPYGAU8JWQ9CG7IRGOCNWZ7GIT","AOS2PVHT2HYTL","3JUDR1D0D6D4CARU3YX9Y3DK5DJ2QK","","null","<img src=""img/food6.png"" style=""width:200px; border:14px solid green;"">","null","","","","","","","","","",""
"","image-keyboard-response","156","112612","0.0-156.0","32M8BPYGAU8JWQ9CG7IRGOCNWZ7GIT","AOS2PVHT2HYTL","3JUDR1D0D6D4CARU3YX9Y3DK5DJ2QK","","564","img/food6.png","75","565.9000000953674","2","0","3","1","1,0.5,0,1,0.5,0,0.5,0,1","0,1,0.5,0,1,0.5,1,0.5,0","3","",""
"","html-keyboard-response","157","112916","0.0-157.0","32M8BPYGAU8JWQ9CG7IRGOCNWZ7GIT","AOS2PVHT2HYTL","3JUDR1D0D6D4CARU3YX9Y3DK5DJ2QK","","null","<img src=""img/food6.png"" style=""width:200px;border:14px solid red;"">","null","","","","","","","","","",""
"","image-keyboard-response","158","113575","0.0-158.0","32M8BPYGAU8JWQ9CG7IRGOCNWZ7GIT","AOS2PVHT2HYTL","3JUDR1D0D6D4CARU3YX9Y3DK5DJ2QK","","656.3000001907349","img/food6.png","74","659","1","1","3","1","1,0.5,0,1,0.5,0,0.5,0,1","0,1,0.5,0,1,0.5,1,0.5,0","3","",""
"","html-keyboard-response","159","113880","0.0-159.0","32M8BPYGAU8JWQ9CG7IRGOCNWZ7GIT","AOS2PVHT2HYTL","3JUDR1D0D6D4CARU3YX9Y3DK5DJ2QK","","null","<img src=""img/food6.png"" style=""width:200px; border:14px solid green;"">","null","","","","","","","","","",""
"","image-keyboard-response","160","114542","0.0-160.0","32M8BPYGAU8JWQ9CG7IRGOCNWZ7GIT","AOS2PVHT2HYTL","3JUDR1D0D6D4CARU3YX9Y3DK5DJ2QK","","659.0999999046326","img/food2.png","75","661.6000001430511","2","1","1","1","1,0.5,0,1,0.5,0,0.5,0,1","0,1,0.5,0,1,0.5,1,0.5,0","3","",""
"","html-keyboard-response","161","114847","0.0-161.0","32M8BPYGAU8JWQ9CG7IRGOCNWZ7GIT","AOS2PVHT2HYTL","3JUDR1D0D6D4CARU3YX9Y3DK5DJ2QK","","null","<img src=""img/food2.png"" style=""width:200px; border:14px solid green;"">","null","","","","","","","","","",""
"","image-keyboard-response","162","115319","0.0-162.0","32M8BPYGAU8JWQ9CG7IRGOCNWZ7GIT","AOS2PVHT2HYTL","3JUDR1D0D6D4CARU3YX9Y3DK5DJ2QK","","468.59999990463257","img/food5.png","75","471.2000000476837","2","1","2","1","1,0.5,0,1,0.5,0,0.5,0,1","0,1,0.5,0,1,0.5,1,0.5,0","3","",""
"","html-keyboard-response","163","115622","0.0-163.0","32M8BPYGAU8JWQ9CG7IRGOCNWZ7GIT","AOS2PVHT2HYTL","3JUDR1D0D6D4CARU3YX9Y3DK5DJ2QK","","null","<img src=""img/food5.png"" style=""width:200px; border:14px solid green;"">","null","","","","","","","","","",""
"","image-keyboard-response","164","116215","0.0-164.0","32M8BPYGAU8JWQ9CG7IRGOCNWZ7GIT","AOS2PVHT2HYTL","3JUDR1D0D6D4CARU3YX9Y3DK5DJ2QK","","591.2000000476837","img/food6.png","75","593.0999999046326","2","0","3","1","1,0.5,0,1,0.5,0,0.5,0,1","0,1,0.5,0,1,0.5,1,0.5,0","3","",""
"","html-keyboard-response","165","116520","0.0-165.0","32M8BPYGAU8JWQ9CG7IRGOCNWZ7GIT","AOS2PVHT2HYTL","3JUDR1D0D6D4CARU3YX9Y3DK5DJ2QK","","null","<img src=""img/food6.png"" style=""width:200px;border:14px solid red;"">","null","","","","","","","","","",""
"","image-keyboard-response","166","117328","0.0-166.0","32M8BPYGAU8JWQ9CG7IRGOCNWZ7GIT","AOS2PVHT2HYTL","3JUDR1D0D6D4CARU3YX9Y3DK5DJ2QK","","804.7999999523163","img/food2.png","75","807.2000000476837","2","1","1","1","1,0.5,0,1,0.5,0,0.5,0,1","0,1,0.5,0,1,0.5,1,0.5,0","3","",""
"","html-keyboard-response","167","117632","0.0-167.0","32M8BPYGAU8JWQ9CG7IRGOCNWZ7GIT","AOS2PVHT2HYTL","3JUDR1D0D6D4CARU3YX9Y3DK5DJ2QK","","null","<img src=""img/food2.png"" style=""width:200px; border:14px solid green;"">","null","","","","","","","","","",""
"","image-keyboard-response","168","118161","0.0-168.0","32M8BPYGAU8JWQ9CG7IRGOCNWZ7GIT","AOS2PVHT2HYTL","3JUDR1D0D6D4CARU3YX9Y3DK5DJ2QK","","526.0999999046326","img/food5.png","75","528.9000000953674","2","1","2","1","1,0.5,0,1,0.5,0,0.5,0,1","0,1,0.5,0,1,0.5,1,0.5,0","3","",""
"","html-keyboard-response","169","118475","0.0-169.0","32M8BPYGAU8JWQ9CG7IRGOCNWZ7GIT","AOS2PVHT2HYTL","3JUDR1D0D6D4CARU3YX9Y3DK5DJ2QK","","null","<img src=""img/food5.png"" style=""width:200px; border:14px solid green;"">","null","","","","","","","","","",""
"","image-keyboard-response","170","119009","0.0-170.0","32M8BPYGAU8JWQ9CG7IRGOCNWZ7GIT","AOS2PVHT2HYTL","3JUDR1D0D6D4CARU3YX9Y3DK5DJ2QK","","531.6000001430511","img/food6.png","74","534.2000000476837","1","1","3","1","1,0.5,0,1,0.5,0,0.5,0,1","0,1,0.5,0,1,0.5,1,0.5,0","3","",""
"","html-keyboard-response","171","119313","0.0-171.0","32M8BPYGAU8JWQ9CG7IRGOCNWZ7GIT","AOS2PVHT2HYTL","3JUDR1D0D6D4CARU3YX9Y3DK5DJ2QK","","null","<img src=""img/food6.png"" style=""width:200px; border:14px solid green;"">","null","","","","","","","","","",""
"","image-keyboard-response","172","119963","0.0-172.0","32M8BPYGAU8JWQ9CG7IRGOCNWZ7GIT","AOS2PVHT2HYTL","3JUDR1D0D6D4CARU3YX9Y3DK5DJ2QK","","647.2999999523163","img/food6.png","74","649.8000001907349","1","1","3","1","1,0.5,0,1,0.5,0,0.5,0,1","0,1,0.5,0,1,0.5,1,0.5,0","3","",""
"","html-keyboard-response","173","120268","0.0-173.0","32M8BPYGAU8JWQ9CG7IRGOCNWZ7GIT","AOS2PVHT2HYTL","3JUDR1D0D6D4CARU3YX9Y3DK5DJ2QK","","null","<img src=""img/food6.png"" style=""width:200px; border:14px solid green;"">","null","","","","","","","","","",""
"","image-keyboard-response","174","120795","0.0-174.0","32M8BPYGAU8JWQ9CG7IRGOCNWZ7GIT","AOS2PVHT2HYTL","3JUDR1D0D6D4CARU3YX9Y3DK5DJ2QK","","524.6999998092651","img/food2.png","75","526.5","2","1","1","1","1,0.5,0,1,0.5,0,0.5,0,1","0,1,0.5,0,1,0.5,1,0.5,0","3","",""
"","html-keyboard-response","175","121100","0.0-175.0","32M8BPYGAU8JWQ9CG7IRGOCNWZ7GIT","AOS2PVHT2HYTL","3JUDR1D0D6D4CARU3YX9Y3DK5DJ2QK","","null","<img src=""img/food2.png"" style=""width:200px; border:14px solid green;"">","null","","","","","","","","","",""
"","image-keyboard-response","176","121776","0.0-176.0","32M8BPYGAU8JWQ9CG7IRGOCNWZ7GIT","AOS2PVHT2HYTL","3JUDR1D0D6D4CARU3YX9Y3DK5DJ2QK","","673.2000000476837","img/food6.png","74","675.6999998092651","1","1","3","1","1,0.5,0,1,0.5,0,0.5,0,1","0,1,0.5,0,1,0.5,1,0.5,0","3","",""
"","html-keyboard-response","177","122080","0.0-177.0","32M8BPYGAU8JWQ9CG7IRGOCNWZ7GIT","AOS2PVHT2HYTL","3JUDR1D0D6D4CARU3YX9Y3DK5DJ2QK","","null","<img src=""img/food6.png"" style=""width:200px; border:14px solid green;"">","null","","","","","","","","","",""
"","image-keyboard-response","178","122594","0.0-178.0","32M8BPYGAU8JWQ9CG7IRGOCNWZ7GIT","AOS2PVHT2HYTL","3JUDR1D0D6D4CARU3YX9Y3DK5DJ2QK","","511.7999999523163","img/food5.png","75","513.7999999523163","2","1","2","1","1,0.5,0,1,0.5,0,0.5,0,1","0,1,0.5,0,1,0.5,1,0.5,0","3","",""
"","html-keyboard-response","179","122898","0.0-179.0","32M8BPYGAU8JWQ9CG7IRGOCNWZ7GIT","AOS2PVHT2HYTL","3JUDR1D0D6D4CARU3YX9Y3DK5DJ2QK","","null","<img src=""img/food5.png"" style=""width:200px; border:14px solid green;"">","null","","","","","","","","","",""
"","image-keyboard-response","180","123400","0.0-180.0","32M8BPYGAU8JWQ9CG7IRGOCNWZ7GIT","AOS2PVHT2HYTL","3JUDR1D0D6D4CARU3YX9Y3DK5DJ2QK","","499","img/food2.png","74","501.7000000476837","1","0","1","1","1,0.5,0,1,0.5,0,0.5,0,1","0,1,0.5,0,1,0.5,1,0.5,0","3","",""
"","html-keyboard-response","181","123704","0.0-181.0","32M8BPYGAU8JWQ9CG7IRGOCNWZ7GIT","AOS2PVHT2HYTL","3JUDR1D0D6D4CARU3YX9Y3DK5DJ2QK","","null","<img src=""img/food2.png"" style=""width:200px;border:14px solid red;"">","null","","","","","","","","","",""
"","html-keyboard-response","182","128340","0.0-182.0","32M8BPYGAU8JWQ9CG7IRGOCNWZ7GIT","AOS2PVHT2HYTL","3JUDR1D0D6D4CARU3YX9Y3DK5DJ2QK","","","","","","","","","","","","","",""
"","instructions","183","147774","0.0-183.0","32M8BPYGAU8JWQ9CG7IRGOCNWZ7GIT","AOS2PVHT2HYTL","3JUDR1D0D6D4CARU3YX9Y3DK5DJ2QK","[{""page_index"":0,""viewing_time"":14906.800000190735},{""page_index"":1,""viewing_time"":4524.599999904633}]","19432","","","","","","","","","","","",""
"","image-keyboard-response","184","148778","0.0-184.0","32M8BPYGAU8JWQ9CG7IRGOCNWZ7GIT","AOS2PVHT2HYTL","3JUDR1D0D6D4CARU3YX9Y3DK5DJ2QK","","","img/food4.png","","1003.7999999523163","-1","0","3","2","1,0.5,0,1,0.5,0,0.5,0,1","0.5,0,1,0.5,0,1,0,1,0.5","2","true",""
"","html-keyboard-response","185","149084","0.0-185.0","32M8BPYGAU8JWQ9CG7IRGOCNWZ7GIT","AOS2PVHT2HYTL","3JUDR1D0D6D4CARU3YX9Y3DK5DJ2QK","","null","<img src=""img/food4.png"" style=""width:200px;border:14px solid red;"">","null","","","","","","","","","",""
"","html-keyboard-response","186","155467","0.0-186.0-0.0","32M8BPYGAU8JWQ9CG7IRGOCNWZ7GIT","AOS2PVHT2HYTL","3JUDR1D0D6D4CARU3YX9Y3DK5DJ2QK","","","","","","","","","","","","","",""
"","image-keyboard-response","187","156091","0.0-187.0","32M8BPYGAU8JWQ9CG7IRGOCNWZ7GIT","AOS2PVHT2HYTL","3JUDR1D0D6D4CARU3YX9Y3DK5DJ2QK","","622.1999998092651","img/food3.png","74","623.7999999523163","1","1","2","2","1,0.5,0,1,0.5,0,0.5,0,1","0.5,0,1,0.5,0,1,0,1,0.5","2","false",""
"","html-keyboard-response","188","156394","0.0-188.0","32M8BPYGAU8JWQ9CG7IRGOCNWZ7GIT","AOS2PVHT2HYTL","3JUDR1D0D6D4CARU3YX9Y3DK5DJ2QK","","null","<img src=""img/food3.png"" style=""width:200px; border:14px solid green;"">","null","","","","","","","","","",""
"","image-keyboard-response","189","156767","0.0-190.0","32M8BPYGAU8JWQ9CG7IRGOCNWZ7GIT","AOS2PVHT2HYTL","3JUDR1D0D6D4CARU3YX9Y3DK5DJ2QK","","371.40000009536743","img/food4.png","74","373.40000009536743","1","0","3","2","1,0.5,0,1,0.5,0,0.5,0,1","0.5,0,1,0.5,0,1,0,1,0.5","2","false",""
"","html-keyboard-response","190","157073","0.0-191.0","32M8BPYGAU8JWQ9CG7IRGOCNWZ7GIT","AOS2PVHT2HYTL","3JUDR1D0D6D4CARU3YX9Y3DK5DJ2QK","","null","<img src=""img/food4.png"" style=""width:200px;border:14px solid red;"">","null","","","","","","","","","",""
"","image-keyboard-response","191","157421","0.0-193.0","32M8BPYGAU8JWQ9CG7IRGOCNWZ7GIT","AOS2PVHT2HYTL","3JUDR1D0D6D4CARU3YX9Y3DK5DJ2QK","","343.2000000476837","img/food3.png","75","346","2","0","2","2","1,0.5,0,1,0.5,0,0.5,0,1","0.5,0,1,0.5,0,1,0,1,0.5","2","false",""
"","html-keyboard-response","192","157725","0.0-194.0","32M8BPYGAU8JWQ9CG7IRGOCNWZ7GIT","AOS2PVHT2HYTL","3JUDR1D0D6D4CARU3YX9Y3DK5DJ2QK","","null","<img src=""img/food3.png"" style=""width:200px;border:14px solid red;"">","null","","","","","","","","","",""
"","image-keyboard-response","193","158141","0.0-196.0","32M8BPYGAU8JWQ9CG7IRGOCNWZ7GIT","AOS2PVHT2HYTL","3JUDR1D0D6D4CARU3YX9Y3DK5DJ2QK","","413.5","img/food1.png","76","415.60000014305115","3","1","1","2","1,0.5,0,1,0.5,0,0.5,0,1","0.5,0,1,0.5,0,1,0,1,0.5","2","false",""
"","html-keyboard-response","194","158444","0.0-197.0","32M8BPYGAU8JWQ9CG7IRGOCNWZ7GIT","AOS2PVHT2HYTL","3JUDR1D0D6D4CARU3YX9Y3DK5DJ2QK","","null","<img src=""img/food1.png"" style=""width:200px; border:14px solid green;"">","null","","","","","","","","","",""
"","image-keyboard-response","195","158696","0.0-199.0","32M8BPYGAU8JWQ9CG7IRGOCNWZ7GIT","AOS2PVHT2HYTL","3JUDR1D0D6D4CARU3YX9Y3DK5DJ2QK","","248.39999985694885","img/food3.png","75","250.60000014305115","2","0","2","2","1,0.5,0,1,0.5,0,0.5,0,1","0.5,0,1,0.5,0,1,0,1,0.5","2","false",""
"","html-keyboard-response","196","158999","0.0-200.0","32M8BPYGAU8JWQ9CG7IRGOCNWZ7GIT","AOS2PVHT2HYTL","3JUDR1D0D6D4CARU3YX9Y3DK5DJ2QK","","null","<img src=""img/food3.png"" style=""width:200px;border:14px solid red;"">","null","","","","","","","","","",""
"","image-keyboard-response","197","159401","0.0-202.0","32M8BPYGAU8JWQ9CG7IRGOCNWZ7GIT","AOS2PVHT2HYTL","3JUDR1D0D6D4CARU3YX9Y3DK5DJ2QK","","398.89999985694885","img/food1.png","74","401.59999990463257","1","0","1","2","1,0.5,0,1,0.5,0,0.5,0,1","0.5,0,1,0.5,0,1,0,1,0.5","2","false",""
"","html-keyboard-response","198","159707","0.0-203.0","32M8BPYGAU8JWQ9CG7IRGOCNWZ7GIT","AOS2PVHT2HYTL","3JUDR1D0D6D4CARU3YX9Y3DK5DJ2QK","","null","<img src=""img/food1.png"" style=""width:200px;border:14px solid red;"">","null","","","","","","","","","",""
"","image-keyboard-response","199","160034","0.0-205.0","32M8BPYGAU8JWQ9CG7IRGOCNWZ7GIT","AOS2PVHT2HYTL","3JUDR1D0D6D4CARU3YX9Y3DK5DJ2QK","","322.2999999523163","img/food4.png","74","325.7000000476837","1","0","3","2","1,0.5,0,1,0.5,0,0.5,0,1","0.5,0,1,0.5,0,1,0,1,0.5","2","false",""
"","html-keyboard-response","200","160340","0.0-206.0","32M8BPYGAU8JWQ9CG7IRGOCNWZ7GIT","AOS2PVHT2HYTL","3JUDR1D0D6D4CARU3YX9Y3DK5DJ2QK","","null","<img src=""img/food4.png"" style=""width:200px;border:14px solid red;"">","null","","","","","","","","","",""
"","image-keyboard-response","201","160591","0.0-208.0","32M8BPYGAU8JWQ9CG7IRGOCNWZ7GIT","AOS2PVHT2HYTL","3JUDR1D0D6D4CARU3YX9Y3DK5DJ2QK","","248.09999990463257","img/food3.png","75","250.90000009536743","2","0","2","2","1,0.5,0,1,0.5,0,0.5,0,1","0.5,0,1,0.5,0,1,0,1,0.5","2","false",""
"","html-keyboard-response","202","160897","0.0-209.0","32M8BPYGAU8JWQ9CG7IRGOCNWZ7GIT","AOS2PVHT2HYTL","3JUDR1D0D6D4CARU3YX9Y3DK5DJ2QK","","null","<img src=""img/food3.png"" style=""width:200px;border:14px solid red;"">","null","","","","","","","","","",""
"","image-keyboard-response","203","161287","0.0-211.0","32M8BPYGAU8JWQ9CG7IRGOCNWZ7GIT","AOS2PVHT2HYTL","3JUDR1D0D6D4CARU3YX9Y3DK5DJ2QK","","387.09999990463257","img/food1.png","75","389.39999985694885","2","0","1","2","1,0.5,0,1,0.5,0,0.5,0,1","0.5,0,1,0.5,0,1,0,1,0.5","2","false",""
"","html-keyboard-response","204","161592","0.0-212.0","32M8BPYGAU8JWQ9CG7IRGOCNWZ7GIT","AOS2PVHT2HYTL","3JUDR1D0D6D4CARU3YX9Y3DK5DJ2QK","","null","<img src=""img/food1.png"" style=""width:200px;border:14px solid red;"">","null","","","","","","","","","",""
"","image-keyboard-response","205","161931","0.0-214.0","32M8BPYGAU8JWQ9CG7IRGOCNWZ7GIT","AOS2PVHT2HYTL","3JUDR1D0D6D4CARU3YX9Y3DK5DJ2QK","","336.19999980926514","img/food4.png","75","338.39999985694885","2","1","3","2","1,0.5,0,1,0.5,0,0.5,0,1","0.5,0,1,0.5,0,1,0,1,0.5","2","false",""
"","html-keyboard-response","206","162249","0.0-215.0","32M8BPYGAU8JWQ9CG7IRGOCNWZ7GIT","AOS2PVHT2HYTL","3JUDR1D0D6D4CARU3YX9Y3DK5DJ2QK","","null","<img src=""img/food4.png"" style=""width:200px; border:14px solid green;"">","null","","","","","","","","","",""
"","image-keyboard-response","207","162671","0.0-217.0","32M8BPYGAU8JWQ9CG7IRGOCNWZ7GIT","AOS2PVHT2HYTL","3JUDR1D0D6D4CARU3YX9Y3DK5DJ2QK","","420.5","img/food3.png","75","422.40000009536743","2","0","2","2","1,0.5,0,1,0.5,0,0.5,0,1","0.5,0,1,0.5,0,1,0,1,0.5","2","false",""
"","html-keyboard-response","208","162975","0.0-218.0","32M8BPYGAU8JWQ9CG7IRGOCNWZ7GIT","AOS2PVHT2HYTL","3JUDR1D0D6D4CARU3YX9Y3DK5DJ2QK","","null","<img src=""img/food3.png"" style=""width:200px;border:14px solid red;"">","null","","","","","","","","","",""
"","image-keyboard-response","209","163375","0.0-220.0","32M8BPYGAU8JWQ9CG7IRGOCNWZ7GIT","AOS2PVHT2HYTL","3JUDR1D0D6D4CARU3YX9Y3DK5DJ2QK","","396.69999980926514","img/food1.png","76","398.89999985694885","3","1","1","2","1,0.5,0,1,0.5,0,0.5,0,1","0.5,0,1,0.5,0,1,0,1,0.5","2","false",""
"","html-keyboard-response","210","163678","0.0-221.0","32M8BPYGAU8JWQ9CG7IRGOCNWZ7GIT","AOS2PVHT2HYTL","3JUDR1D0D6D4CARU3YX9Y3DK5DJ2QK","","null","<img src=""img/food1.png"" style=""width:200px; border:14px solid green;"">","null","","","","","","","","","",""
"","image-keyboard-response","211","164087","0.0-223.0","32M8BPYGAU8JWQ9CG7IRGOCNWZ7GIT","AOS2PVHT2HYTL","3JUDR1D0D6D4CARU3YX9Y3DK5DJ2QK","","405.2999999523163","img/food1.png","76","408.40000009536743","3","1","1","2","1,0.5,0,1,0.5,0,0.5,0,1","0.5,0,1,0.5,0,1,0,1,0.5","2","false",""
"","html-keyboard-response","212","164405","0.0-224.0","32M8BPYGAU8JWQ9CG7IRGOCNWZ7GIT","AOS2PVHT2HYTL","3JUDR1D0D6D4CARU3YX9Y3DK5DJ2QK","","null","<img src=""img/food1.png"" style=""width:200px; border:14px solid green;"">","null","","","","","","","","","",""
"","image-keyboard-response","213","164742","0.0-226.0","32M8BPYGAU8JWQ9CG7IRGOCNWZ7GIT","AOS2PVHT2HYTL","3JUDR1D0D6D4CARU3YX9Y3DK5DJ2QK","","334.5","img/food1.png","76","336.5","3","1","1","2","1,0.5,0,1,0.5,0,0.5,0,1","0.5,0,1,0.5,0,1,0,1,0.5","2","false",""
"","html-keyboard-response","214","165046","0.0-227.0","32M8BPYGAU8JWQ9CG7IRGOCNWZ7GIT","AOS2PVHT2HYTL","3JUDR1D0D6D4CARU3YX9Y3DK5DJ2QK","","null","<img src=""img/food1.png"" style=""width:200px; border:14px solid green;"">","null","","","","","","","","","",""
"","image-keyboard-response","215","165339","0.0-229.0","32M8BPYGAU8JWQ9CG7IRGOCNWZ7GIT","AOS2PVHT2HYTL","3JUDR1D0D6D4CARU3YX9Y3DK5DJ2QK","","289.60000014305115","img/food4.png","76","292.30000019073486","3","0","3","2","1,0.5,0,1,0.5,0,0.5,0,1","0.5,0,1,0.5,0,1,0,1,0.5","2","false",""
"","html-keyboard-response","216","165642","0.0-230.0","32M8BPYGAU8JWQ9CG7IRGOCNWZ7GIT","AOS2PVHT2HYTL","3JUDR1D0D6D4CARU3YX9Y3DK5DJ2QK","","null","<img src=""img/food4.png"" style=""width:200px;border:14px solid red;"">","null","","","","","","","","","",""
"","image-keyboard-response","217","166094","0.0-232.0","32M8BPYGAU8JWQ9CG7IRGOCNWZ7GIT","AOS2PVHT2HYTL","3JUDR1D0D6D4CARU3YX9Y3DK5DJ2QK","","450.2000000476837","img/food4.png","76","451.40000009536743","3","1","3","2","1,0.5,0,1,0.5,0,0.5,0,1","0.5,0,1,0.5,0,1,0,1,0.5","2","false",""
"","html-keyboard-response","218","166397","0.0-233.0","32M8BPYGAU8JWQ9CG7IRGOCNWZ7GIT","AOS2PVHT2HYTL","3JUDR1D0D6D4CARU3YX9Y3DK5DJ2QK","","null","<img src=""img/food4.png"" style=""width:200px; border:14px solid green;"">","null","","","","","","","","","",""
"","image-keyboard-response","219","166885","0.0-235.0","32M8BPYGAU8JWQ9CG7IRGOCNWZ7GIT","AOS2PVHT2HYTL","3JUDR1D0D6D4CARU3YX9Y3DK5DJ2QK","","484.89999985694885","img/food4.png","76","487.59999990463257","3","0","3","2","1,0.5,0,1,0.5,0,0.5,0,1","0.5,0,1,0.5,0,1,0,1,0.5","2","false",""
"","html-keyboard-response","220","167190","0.0-236.0","32M8BPYGAU8JWQ9CG7IRGOCNWZ7GIT","AOS2PVHT2HYTL","3JUDR1D0D6D4CARU3YX9Y3DK5DJ2QK","","null","<img src=""img/food4.png"" style=""width:200px;border:14px solid red;"">","null","","","","","","","","","",""
"","image-keyboard-response","221","167742","0.0-238.0","32M8BPYGAU8JWQ9CG7IRGOCNWZ7GIT","AOS2PVHT2HYTL","3JUDR1D0D6D4CARU3YX9Y3DK5DJ2QK","","548.2999999523163","img/food3.png","75","550.7000000476837","2","0","2","2","1,0.5,0,1,0.5,0,0.5,0,1","0.5,0,1,0.5,0,1,0,1,0.5","2","false",""
"","html-keyboard-response","222","168047","0.0-239.0","32M8BPYGAU8JWQ9CG7IRGOCNWZ7GIT","AOS2PVHT2HYTL","3JUDR1D0D6D4CARU3YX9Y3DK5DJ2QK","","null","<img src=""img/food3.png"" style=""width:200px;border:14px solid red;"">","null","","","","","","","","","",""
"","image-keyboard-response","223","168477","0.0-241.0","32M8BPYGAU8JWQ9CG7IRGOCNWZ7GIT","AOS2PVHT2HYTL","3JUDR1D0D6D4CARU3YX9Y3DK5DJ2QK","","428.5","img/food4.png","75","429.80000019073486","2","1","3","2","1,0.5,0,1,0.5,0,0.5,0,1","0.5,0,1,0.5,0,1,0,1,0.5","2","false",""
"","html-keyboard-response","224","168781","0.0-242.0","32M8BPYGAU8JWQ9CG7IRGOCNWZ7GIT","AOS2PVHT2HYTL","3JUDR1D0D6D4CARU3YX9Y3DK5DJ2QK","","null","<img src=""img/food4.png"" style=""width:200px; border:14px solid green;"">","null","","","","","","","","","",""
"","image-keyboard-response","225","169215","0.0-244.0","32M8BPYGAU8JWQ9CG7IRGOCNWZ7GIT","AOS2PVHT2HYTL","3JUDR1D0D6D4CARU3YX9Y3DK5DJ2QK","","431.10000014305115","img/food4.png","75","434","2","1","3","2","1,0.5,0,1,0.5,0,0.5,0,1","0.5,0,1,0.5,0,1,0,1,0.5","2","false",""
"","html-keyboard-response","226","169520","0.0-245.0","32M8BPYGAU8JWQ9CG7IRGOCNWZ7GIT","AOS2PVHT2HYTL","3JUDR1D0D6D4CARU3YX9Y3DK5DJ2QK","","null","<img src=""img/food4.png"" style=""width:200px; border:14px solid green;"">","null","","","","","","","","","",""
"","image-keyboard-response","227","169793","0.0-247.0","32M8BPYGAU8JWQ9CG7IRGOCNWZ7GIT","AOS2PVHT2HYTL","3JUDR1D0D6D4CARU3YX9Y3DK5DJ2QK","","268.90000009536743","img/food4.png","75","271.60000014305115","2","1","3","2","1,0.5,0,1,0.5,0,0.5,0,1","0.5,0,1,0.5,0,1,0,1,0.5","2","false",""
"","html-keyboard-response","228","170104","0.0-248.0","32M8BPYGAU8JWQ9CG7IRGOCNWZ7GIT","AOS2PVHT2HYTL","3JUDR1D0D6D4CARU3YX9Y3DK5DJ2QK","","null","<img src=""img/food4.png"" style=""width:200px; border:14px solid green;"">","null","","","","","","","","","",""
"","image-keyboard-response","229","170341","0.0-250.0","32M8BPYGAU8JWQ9CG7IRGOCNWZ7GIT","AOS2PVHT2HYTL","3JUDR1D0D6D4CARU3YX9Y3DK5DJ2QK","","234.40000009536743","img/food4.png","75","236.29999995231628","2","1","3","2","1,0.5,0,1,0.5,0,0.5,0,1","0.5,0,1,0.5,0,1,0,1,0.5","2","false",""
"","html-keyboard-response","230","170646","0.0-251.0","32M8BPYGAU8JWQ9CG7IRGOCNWZ7GIT","AOS2PVHT2HYTL","3JUDR1D0D6D4CARU3YX9Y3DK5DJ2QK","","null","<img src=""img/food4.png"" style=""width:200px; border:14px solid green;"">","null","","","","","","","","","",""
"","image-keyboard-response","231","170907","0.0-253.0","32M8BPYGAU8JWQ9CG7IRGOCNWZ7GIT","AOS2PVHT2HYTL","3JUDR1D0D6D4CARU3YX9Y3DK5DJ2QK","","257.59999990463257","img/food1.png","75","260.40000009536743","2","0","1","2","1,0.5,0,1,0.5,0,0.5,0,1","0.5,0,1,0.5,0,1,0,1,0.5","2","false",""
"","html-keyboard-response","232","171220","0.0-254.0","32M8BPYGAU8JWQ9CG7IRGOCNWZ7GIT","AOS2PVHT2HYTL","3JUDR1D0D6D4CARU3YX9Y3DK5DJ2QK","","null","<img src=""img/food1.png"" style=""width:200px;border:14px solid red;"">","null","","","","","","","","","",""
"","image-keyboard-response","233","171664","0.0-256.0","32M8BPYGAU8JWQ9CG7IRGOCNWZ7GIT","AOS2PVHT2HYTL","3JUDR1D0D6D4CARU3YX9Y3DK5DJ2QK","","441.10000014305115","img/food4.png","76","443.2000000476837","3","0","3","2","1,0.5,0,1,0.5,0,0.5,0,1","0.5,0,1,0.5,0,1,0,1,0.5","2","false",""
"","html-keyboard-response","234","171967","0.0-257.0","32M8BPYGAU8JWQ9CG7IRGOCNWZ7GIT","AOS2PVHT2HYTL","3JUDR1D0D6D4CARU3YX9Y3DK5DJ2QK","","null","<img src=""img/food4.png"" style=""width:200px;border:14px solid red;"">","null","","","","","","","","","",""
"","image-keyboard-response","235","172545","0.0-259.0","32M8BPYGAU8JWQ9CG7IRGOCNWZ7GIT","AOS2PVHT2HYTL","3JUDR1D0D6D4CARU3YX9Y3DK5DJ2QK","","575.9000000953674","img/food3.png","75","577.2999999523163","2","0","2","2","1,0.5,0,1,0.5,0,0.5,0,1","0.5,0,1,0.5,0,1,0,1,0.5","2","false",""
"","html-keyboard-response","236","172848","0.0-260.0","32M8BPYGAU8JWQ9CG7IRGOCNWZ7GIT","AOS2PVHT2HYTL","3JUDR1D0D6D4CARU3YX9Y3DK5DJ2QK","","null","<img src=""img/food3.png"" style=""width:200px;border:14px solid red;"">","null","","","","","","","","","",""
"","image-keyboard-response","237","173237","0.0-262.0","32M8BPYGAU8JWQ9CG7IRGOCNWZ7GIT","AOS2PVHT2HYTL","3JUDR1D0D6D4CARU3YX9Y3DK5DJ2QK","","385.39999985694885","img/food3.png","75","388.60000014305115","2","0","2","2","1,0.5,0,1,0.5,0,0.5,0,1","0.5,0,1,0.5,0,1,0,1,0.5","2","false",""
"","html-keyboard-response","238","173541","0.0-263.0","32M8BPYGAU8JWQ9CG7IRGOCNWZ7GIT","AOS2PVHT2HYTL","3JUDR1D0D6D4CARU3YX9Y3DK5DJ2QK","","null","<img src=""img/food3.png"" style=""width:200px;border:14px solid red;"">","null","","","","","","","","","",""
"","image-keyboard-response","239","173771","0.0-265.0","32M8BPYGAU8JWQ9CG7IRGOCNWZ7GIT","AOS2PVHT2HYTL","3JUDR1D0D6D4CARU3YX9Y3DK5DJ2QK","","226.90000009536743","img/food4.png","74","229.09999990463257","1","0","3","2","1,0.5,0,1,0.5,0,0.5,0,1","0.5,0,1,0.5,0,1,0,1,0.5","2","false",""
"","html-keyboard-response","240","174075","0.0-266.0","32M8BPYGAU8JWQ9CG7IRGOCNWZ7GIT","AOS2PVHT2HYTL","3JUDR1D0D6D4CARU3YX9Y3DK5DJ2QK","","null","<img src=""img/food4.png"" style=""width:200px;border:14px solid red;"">","null","","","","","","","","","",""
"","image-keyboard-response","241","174439","0.0-268.0","32M8BPYGAU8JWQ9CG7IRGOCNWZ7GIT","AOS2PVHT2HYTL","3JUDR1D0D6D4CARU3YX9Y3DK5DJ2QK","","361.39999985694885","img/food4.png","75","363.60000014305115","2","1","3","2","1,0.5,0,1,0.5,0,0.5,0,1","0.5,0,1,0.5,0,1,0,1,0.5","2","false",""
"","html-keyboard-response","242","174743","0.0-269.0","32M8BPYGAU8JWQ9CG7IRGOCNWZ7GIT","AOS2PVHT2HYTL","3JUDR1D0D6D4CARU3YX9Y3DK5DJ2QK","","null","<img src=""img/food4.png"" style=""width:200px; border:14px solid green;"">","null","","","","","","","","","",""
"","image-keyboard-response","243","175107","0.0-271.0","32M8BPYGAU8JWQ9CG7IRGOCNWZ7GIT","AOS2PVHT2HYTL","3JUDR1D0D6D4CARU3YX9Y3DK5DJ2QK","","359.59999990463257","img/food3.png","75","362.39999985694885","2","0","2","2","1,0.5,0,1,0.5,0,0.5,0,1","0.5,0,1,0.5,0,1,0,1,0.5","2","false",""
"","html-keyboard-response","244","175410","0.0-272.0","32M8BPYGAU8JWQ9CG7IRGOCNWZ7GIT","AOS2PVHT2HYTL","3JUDR1D0D6D4CARU3YX9Y3DK5DJ2QK","","null","<img src=""img/food3.png"" style=""width:200px;border:14px solid red;"">","null","","","","","","","","","",""
"","image-keyboard-response","245","175783","0.0-274.0","32M8BPYGAU8JWQ9CG7IRGOCNWZ7GIT","AOS2PVHT2HYTL","3JUDR1D0D6D4CARU3YX9Y3DK5DJ2QK","","368.89999985694885","img/food4.png","75","371.59999990463257","2","1","3","2","1,0.5,0,1,0.5,0,0.5,0,1","0.5,0,1,0.5,0,1,0,1,0.5","2","false",""
"","html-keyboard-response","246","176087","0.0-275.0","32M8BPYGAU8JWQ9CG7IRGOCNWZ7GIT","AOS2PVHT2HYTL","3JUDR1D0D6D4CARU3YX9Y3DK5DJ2QK","","null","<img src=""img/food4.png"" style=""width:200px; border:14px solid green;"">","null","","","","","","","","","",""
"","image-keyboard-response","247","176273","0.0-277.0","32M8BPYGAU8JWQ9CG7IRGOCNWZ7GIT","AOS2PVHT2HYTL","3JUDR1D0D6D4CARU3YX9Y3DK5DJ2QK","","183.5","img/food1.png","76","185.5","3","1","1","2","1,0.5,0,1,0.5,0,0.5,0,1","0.5,0,1,0.5,0,1,0,1,0.5","2","false",""
"","html-keyboard-response","248","176577","0.0-278.0","32M8BPYGAU8JWQ9CG7IRGOCNWZ7GIT","AOS2PVHT2HYTL","3JUDR1D0D6D4CARU3YX9Y3DK5DJ2QK","","null","<img src=""img/food1.png"" style=""width:200px; border:14px solid green;"">","null","","","","","","","","","",""
"","image-keyboard-response","249","176913","0.0-280.0","32M8BPYGAU8JWQ9CG7IRGOCNWZ7GIT","AOS2PVHT2HYTL","3JUDR1D0D6D4CARU3YX9Y3DK5DJ2QK","","334.69999980926514","img/food3.png","75","336.5","2","0","2","2","1,0.5,0,1,0.5,0,0.5,0,1","0.5,0,1,0.5,0,1,0,1,0.5","2","false",""
"","html-keyboard-response","250","177218","0.0-281.0","32M8BPYGAU8JWQ9CG7IRGOCNWZ7GIT","AOS2PVHT2HYTL","3JUDR1D0D6D4CARU3YX9Y3DK5DJ2QK","","null","<img src=""img/food3.png"" style=""width:200px;border:14px solid red;"">","null","","","","","","","","","",""
"","image-keyboard-response","251","177542","0.0-283.0","32M8BPYGAU8JWQ9CG7IRGOCNWZ7GIT","AOS2PVHT2HYTL","3JUDR1D0D6D4CARU3YX9Y3DK5DJ2QK","","320.40000009536743","img/food1.png","75","323.5","2","0","1","2","1,0.5,0,1,0.5,0,0.5,0,1","0.5,0,1,0.5,0,1,0,1,0.5","2","false",""
"","html-keyboard-response","252","177847","0.0-284.0","32M8BPYGAU8JWQ9CG7IRGOCNWZ7GIT","AOS2PVHT2HYTL","3JUDR1D0D6D4CARU3YX9Y3DK5DJ2QK","","null","<img src=""img/food1.png"" style=""width:200px;border:14px solid red;"">","null","","","","","","","","","",""
"","image-keyboard-response","253","178182","0.0-286.0","32M8BPYGAU8JWQ9CG7IRGOCNWZ7GIT","AOS2PVHT2HYTL","3JUDR1D0D6D4CARU3YX9Y3DK5DJ2QK","","330.59999990463257","img/food4.png","74","333.60000014305115","1","0","3","2","1,0.5,0,1,0.5,0,0.5,0,1","0.5,0,1,0.5,0,1,0,1,0.5","2","false",""
"","html-keyboard-response","254","178488","0.0-287.0","32M8BPYGAU8JWQ9CG7IRGOCNWZ7GIT","AOS2PVHT2HYTL","3JUDR1D0D6D4CARU3YX9Y3DK5DJ2QK","","null","<img src=""img/food4.png"" style=""width:200px;border:14px solid red;"">","null","","","","","","","","","",""
"","image-keyboard-response","255","178857","0.0-289.0","32M8BPYGAU8JWQ9CG7IRGOCNWZ7GIT","AOS2PVHT2HYTL","3JUDR1D0D6D4CARU3YX9Y3DK5DJ2QK","","365.89999985694885","img/food3.png","75","368","2","0","2","2","1,0.5,0,1,0.5,0,0.5,0,1","0.5,0,1,0.5,0,1,0,1,0.5","2","false",""
"","html-keyboard-response","256","179161","0.0-290.0","32M8BPYGAU8JWQ9CG7IRGOCNWZ7GIT","AOS2PVHT2HYTL","3JUDR1D0D6D4CARU3YX9Y3DK5DJ2QK","","null","<img src=""img/food3.png"" style=""width:200px;border:14px solid red;"">","null","","","","","","","","","",""
"","image-keyboard-response","257","179488","0.0-292.0","32M8BPYGAU8JWQ9CG7IRGOCNWZ7GIT","AOS2PVHT2HYTL","3JUDR1D0D6D4CARU3YX9Y3DK5DJ2QK","","323","img/food3.png","76","325.80000019073486","3","1","2","2","1,0.5,0,1,0.5,0,0.5,0,1","0.5,0,1,0.5,0,1,0,1,0.5","2","false",""
"","html-keyboard-response","258","179792","0.0-293.0","32M8BPYGAU8JWQ9CG7IRGOCNWZ7GIT","AOS2PVHT2HYTL","3JUDR1D0D6D4CARU3YX9Y3DK5DJ2QK","","null","<img src=""img/food3.png"" style=""width:200px; border:14px solid green;"">","null","","","","","","","","","",""
"","image-keyboard-response","259","180273","0.0-295.0","32M8BPYGAU8JWQ9CG7IRGOCNWZ7GIT","AOS2PVHT2HYTL","3JUDR1D0D6D4CARU3YX9Y3DK5DJ2QK","","478.90000009536743","img/food1.png","76","480.90000009536743","3","1","1","2","1,0.5,0,1,0.5,0,0.5,0,1","0.5,0,1,0.5,0,1,0,1,0.5","2","false",""
"","html-keyboard-response","260","180578","0.0-296.0","32M8BPYGAU8JWQ9CG7IRGOCNWZ7GIT","AOS2PVHT2HYTL","3JUDR1D0D6D4CARU3YX9Y3DK5DJ2QK","","null","<img src=""img/food1.png"" style=""width:200px; border:14px solid green;"">","null","","","","","","","","","",""
"","image-keyboard-response","261","180912","0.0-298.0","32M8BPYGAU8JWQ9CG7IRGOCNWZ7GIT","AOS2PVHT2HYTL","3JUDR1D0D6D4CARU3YX9Y3DK5DJ2QK","","330.7999999523163","img/food1.png","76","333.5","3","1","1","2","1,0.5,0,1,0.5,0,0.5,0,1","0.5,0,1,0.5,0,1,0,1,0.5","2","false",""
"","html-keyboard-response","262","181217","0.0-299.0","32M8BPYGAU8JWQ9CG7IRGOCNWZ7GIT","AOS2PVHT2HYTL","3JUDR1D0D6D4CARU3YX9Y3DK5DJ2QK","","null","<img src=""img/food1.png"" style=""width:200px; border:14px solid green;"">","null","","","","","","","","","",""
"","image-keyboard-response","263","181538","0.0-301.0","32M8BPYGAU8JWQ9CG7IRGOCNWZ7GIT","AOS2PVHT2HYTL","3JUDR1D0D6D4CARU3YX9Y3DK5DJ2QK","","317.10000014305115","img/food4.png","76","319.80000019073486","3","1","3","2","1,0.5,0,1,0.5,0,0.5,0,1","0.5,0,1,0.5,0,1,0,1,0.5","2","false",""
"","html-keyboard-response","264","181842","0.0-302.0","32M8BPYGAU8JWQ9CG7IRGOCNWZ7GIT","AOS2PVHT2HYTL","3JUDR1D0D6D4CARU3YX9Y3DK5DJ2QK","","null","<img src=""img/food4.png"" style=""width:200px; border:14px solid green;"">","null","","","","","","","","","",""
"","image-keyboard-response","265","182191","0.0-304.0","32M8BPYGAU8JWQ9CG7IRGOCNWZ7GIT","AOS2PVHT2HYTL","3JUDR1D0D6D4CARU3YX9Y3DK5DJ2QK","","345","img/food4.png","76","347.60000014305115","3","0","3","2","1,0.5,0,1,0.5,0,0.5,0,1","0.5,0,1,0.5,0,1,0,1,0.5","2","false",""
"","html-keyboard-response","266","182495","0.0-305.0","32M8BPYGAU8JWQ9CG7IRGOCNWZ7GIT","AOS2PVHT2HYTL","3JUDR1D0D6D4CARU3YX9Y3DK5DJ2QK","","null","<img src=""img/food4.png"" style=""width:200px;border:14px solid red;"">","null","","","","","","","","","",""
"","image-keyboard-response","267","183126","0.0-307.0","32M8BPYGAU8JWQ9CG7IRGOCNWZ7GIT","AOS2PVHT2HYTL","3JUDR1D0D6D4CARU3YX9Y3DK5DJ2QK","","628","img/food4.png","75","630.5","2","1","3","2","1,0.5,0,1,0.5,0,0.5,0,1","0.5,0,1,0.5,0,1,0,1,0.5","2","false",""
"","html-keyboard-response","268","183431","0.0-308.0","32M8BPYGAU8JWQ9CG7IRGOCNWZ7GIT","AOS2PVHT2HYTL","3JUDR1D0D6D4CARU3YX9Y3DK5DJ2QK","","null","<img src=""img/food4.png"" style=""width:200px; border:14px solid green;"">","null","","","","","","","","","",""
"","image-keyboard-response","269","183803","0.0-310.0","32M8BPYGAU8JWQ9CG7IRGOCNWZ7GIT","AOS2PVHT2HYTL","3JUDR1D0D6D4CARU3YX9Y3DK5DJ2QK","","369.7000000476837","img/food3.png","75","371.7000000476837","2","0","2","2","1,0.5,0,1,0.5,0,0.5,0,1","0.5,0,1,0.5,0,1,0,1,0.5","2","false",""
"","html-keyboard-response","270","184106","0.0-311.0","32M8BPYGAU8JWQ9CG7IRGOCNWZ7GIT","AOS2PVHT2HYTL","3JUDR1D0D6D4CARU3YX9Y3DK5DJ2QK","","null","<img src=""img/food3.png"" style=""width:200px;border:14px solid red;"">","null","","","","","","","","","",""
"","image-keyboard-response","271","184683","0.0-313.0","32M8BPYGAU8JWQ9CG7IRGOCNWZ7GIT","AOS2PVHT2HYTL","3JUDR1D0D6D4CARU3YX9Y3DK5DJ2QK","","575.0999999046326","img/food1.png","76","576.3999998569489","3","1","1","2","1,0.5,0,1,0.5,0,0.5,0,1","0.5,0,1,0.5,0,1,0,1,0.5","2","false",""
"","html-keyboard-response","272","184986","0.0-314.0","32M8BPYGAU8JWQ9CG7IRGOCNWZ7GIT","AOS2PVHT2HYTL","3JUDR1D0D6D4CARU3YX9Y3DK5DJ2QK","","null","<img src=""img/food1.png"" style=""width:200px; border:14px solid green;"">","null","","","","","","","","","",""
"","image-keyboard-response","273","185348","0.0-316.0","32M8BPYGAU8JWQ9CG7IRGOCNWZ7GIT","AOS2PVHT2HYTL","3JUDR1D0D6D4CARU3YX9Y3DK5DJ2QK","","360.2000000476837","img/food4.png","76","361.59999990463257","3","1","3","2","1,0.5,0,1,0.5,0,0.5,0,1","0.5,0,1,0.5,0,1,0,1,0.5","2","false",""
"","html-keyboard-response","274","185651","0.0-317.0","32M8BPYGAU8JWQ9CG7IRGOCNWZ7GIT","AOS2PVHT2HYTL","3JUDR1D0D6D4CARU3YX9Y3DK5DJ2QK","","null","<img src=""img/food4.png"" style=""width:200px; border:14px solid green;"">","null","","","","","","","","","",""
"","image-keyboard-response","275","185937","0.0-319.0","32M8BPYGAU8JWQ9CG7IRGOCNWZ7GIT","AOS2PVHT2HYTL","3JUDR1D0D6D4CARU3YX9Y3DK5DJ2QK","","283.59999990463257","img/food1.png","75","285.7999999523163","2","0","1","2","1,0.5,0,1,0.5,0,0.5,0,1","0.5,0,1,0.5,0,1,0,1,0.5","2","false",""
"","html-keyboard-response","276","186244","0.0-320.0","32M8BPYGAU8JWQ9CG7IRGOCNWZ7GIT","AOS2PVHT2HYTL","3JUDR1D0D6D4CARU3YX9Y3DK5DJ2QK","","null","<img src=""img/food1.png"" style=""width:200px;border:14px solid red;"">","null","","","","","","","","","",""
"","image-keyboard-response","277","186747","0.0-322.0","32M8BPYGAU8JWQ9CG7IRGOCNWZ7GIT","AOS2PVHT2HYTL","3JUDR1D0D6D4CARU3YX9Y3DK5DJ2QK","","499.7999999523163","img/food3.png","75","502.5","2","0","2","2","1,0.5,0,1,0.5,0,0.5,0,1","0.5,0,1,0.5,0,1,0,1,0.5","2","false",""
"","html-keyboard-response","278","187052","0.0-323.0","32M8BPYGAU8JWQ9CG7IRGOCNWZ7GIT","AOS2PVHT2HYTL","3JUDR1D0D6D4CARU3YX9Y3DK5DJ2QK","","null","<img src=""img/food3.png"" style=""width:200px;border:14px solid red;"">","null","","","","","","","","","",""
"","image-keyboard-response","279","187442","0.0-325.0","32M8BPYGAU8JWQ9CG7IRGOCNWZ7GIT","AOS2PVHT2HYTL","3JUDR1D0D6D4CARU3YX9Y3DK5DJ2QK","","386.2000000476837","img/food1.png","76","389.2000000476837","3","1","1","2","1,0.5,0,1,0.5,0,0.5,0,1","0.5,0,1,0.5,0,1,0,1,0.5","2","false",""
"","html-keyboard-response","280","187749","0.0-326.0","32M8BPYGAU8JWQ9CG7IRGOCNWZ7GIT","AOS2PVHT2HYTL","3JUDR1D0D6D4CARU3YX9Y3DK5DJ2QK","","null","<img src=""img/food1.png"" style=""width:200px; border:14px solid green;"">","null","","","","","","","","","",""
"","image-keyboard-response","281","188067","0.0-328.0","32M8BPYGAU8JWQ9CG7IRGOCNWZ7GIT","AOS2PVHT2HYTL","3JUDR1D0D6D4CARU3YX9Y3DK5DJ2QK","","301","img/food3.png","76","310.19999980926514","3","1","2","2","1,0.5,0,1,0.5,0,0.5,0,1","0.5,0,1,0.5,0,1,0,1,0.5","2","false",""
"","html-keyboard-response","282","188371","0.0-329.0","32M8BPYGAU8JWQ9CG7IRGOCNWZ7GIT","AOS2PVHT2HYTL","3JUDR1D0D6D4CARU3YX9Y3DK5DJ2QK","","null","<img src=""img/food3.png"" style=""width:200px; border:14px solid green;"">","null","","","","","","","","","",""
"","image-keyboard-response","283","188706","0.0-331.0","32M8BPYGAU8JWQ9CG7IRGOCNWZ7GIT","AOS2PVHT2HYTL","3JUDR1D0D6D4CARU3YX9Y3DK5DJ2QK","","332.2000000476837","img/food1.png","76","334.2999999523163","3","1","1","2","1,0.5,0,1,0.5,0,0.5,0,1","0.5,0,1,0.5,0,1,0,1,0.5","2","false",""
"","html-keyboard-response","284","189013","0.0-332.0","32M8BPYGAU8JWQ9CG7IRGOCNWZ7GIT","AOS2PVHT2HYTL","3JUDR1D0D6D4CARU3YX9Y3DK5DJ2QK","","null","<img src=""img/food1.png"" style=""width:200px; border:14px solid green;"">","null","","","","","","","","","",""
"","image-keyboard-response","285","189325","0.0-334.0","32M8BPYGAU8JWQ9CG7IRGOCNWZ7GIT","AOS2PVHT2HYTL","3JUDR1D0D6D4CARU3YX9Y3DK5DJ2QK","","294.7000000476837","img/food1.png","76","307.7999999523163","3","1","1","2","1,0.5,0,1,0.5,0,0.5,0,1","0.5,0,1,0.5,0,1,0,1,0.5","2","false",""
"","html-keyboard-response","286","189629","0.0-335.0","32M8BPYGAU8JWQ9CG7IRGOCNWZ7GIT","AOS2PVHT2HYTL","3JUDR1D0D6D4CARU3YX9Y3DK5DJ2QK","","null","<img src=""img/food1.png"" style=""width:200px; border:14px solid green;"">","null","","","","","","","","","",""
"","image-keyboard-response","287","189918","0.0-337.0","32M8BPYGAU8JWQ9CG7IRGOCNWZ7GIT","AOS2PVHT2HYTL","3JUDR1D0D6D4CARU3YX9Y3DK5DJ2QK","","285.2000000476837","img/food3.png","76","287.5","3","1","2","2","1,0.5,0,1,0.5,0,0.5,0,1","0.5,0,1,0.5,0,1,0,1,0.5","2","false",""
"","html-keyboard-response","288","190223","0.0-338.0","32M8BPYGAU8JWQ9CG7IRGOCNWZ7GIT","AOS2PVHT2HYTL","3JUDR1D0D6D4CARU3YX9Y3DK5DJ2QK","","null","<img src=""img/food3.png"" style=""width:200px; border:14px solid green;"">","null","","","","","","","","","",""
"","image-keyboard-response","289","190517","0.0-340.0","32M8BPYGAU8JWQ9CG7IRGOCNWZ7GIT","AOS2PVHT2HYTL","3JUDR1D0D6D4CARU3YX9Y3DK5DJ2QK","","291.60000014305115","img/food4.png","76","293.7999999523163","3","0","3","2","1,0.5,0,1,0.5,0,0.5,0,1","0.5,0,1,0.5,0,1,0,1,0.5","2","false",""
"","html-keyboard-response","290","190822","0.0-341.0","32M8BPYGAU8JWQ9CG7IRGOCNWZ7GIT","AOS2PVHT2HYTL","3JUDR1D0D6D4CARU3YX9Y3DK5DJ2QK","","null","<img src=""img/food4.png"" style=""width:200px;border:14px solid red;"">","null","","","","","","","","","",""
"","image-keyboard-response","291","191611","0.0-343.0","32M8BPYGAU8JWQ9CG7IRGOCNWZ7GIT","AOS2PVHT2HYTL","3JUDR1D0D6D4CARU3YX9Y3DK5DJ2QK","","786.6000001430511","img/food4.png","75","788.5999999046326","2","1","3","2","1,0.5,0,1,0.5,0,0.5,0,1","0.5,0,1,0.5,0,1,0,1,0.5","2","false",""
"","html-keyboard-response","292","191913","0.0-344.0","32M8BPYGAU8JWQ9CG7IRGOCNWZ7GIT","AOS2PVHT2HYTL","3JUDR1D0D6D4CARU3YX9Y3DK5DJ2QK","","null","<img src=""img/food4.png"" style=""width:200px; border:14px solid green;"">","null","","","","","","","","","",""
"","image-keyboard-response","293","192180","0.0-346.0","32M8BPYGAU8JWQ9CG7IRGOCNWZ7GIT","AOS2PVHT2HYTL","3JUDR1D0D6D4CARU3YX9Y3DK5DJ2QK","","264.90000009536743","img/food1.png","75","266.40000009536743","2","0","1","2","1,0.5,0,1,0.5,0,0.5,0,1","0.5,0,1,0.5,0,1,0,1,0.5","2","false",""
"","html-keyboard-response","294","192483","0.0-347.0","32M8BPYGAU8JWQ9CG7IRGOCNWZ7GIT","AOS2PVHT2HYTL","3JUDR1D0D6D4CARU3YX9Y3DK5DJ2QK","","null","<img src=""img/food1.png"" style=""width:200px;border:14px solid red;"">","null","","","","","","","","","",""
"","image-keyboard-response","295","192834","0.0-349.0","32M8BPYGAU8JWQ9CG7IRGOCNWZ7GIT","AOS2PVHT2HYTL","3JUDR1D0D6D4CARU3YX9Y3DK5DJ2QK","","348","img/food1.png","76","350.19999980926514","3","1","1","2","1,0.5,0,1,0.5,0,0.5,0,1","0.5,0,1,0.5,0,1,0,1,0.5","2","false",""
"","html-keyboard-response","296","193137","0.0-350.0","32M8BPYGAU8JWQ9CG7IRGOCNWZ7GIT","AOS2PVHT2HYTL","3JUDR1D0D6D4CARU3YX9Y3DK5DJ2QK","","null","<img src=""img/food1.png"" style=""width:200px; border:14px solid green;"">","null","","","","","","","","","",""
"","image-keyboard-response","297","193502","0.0-352.0","32M8BPYGAU8JWQ9CG7IRGOCNWZ7GIT","AOS2PVHT2HYTL","3JUDR1D0D6D4CARU3YX9Y3DK5DJ2QK","","360.7000000476837","img/food1.png","76","363.40000009536743","3","1","1","2","1,0.5,0,1,0.5,0,0.5,0,1","0.5,0,1,0.5,0,1,0,1,0.5","2","false",""
"","html-keyboard-response","298","193808","0.0-353.0","32M8BPYGAU8JWQ9CG7IRGOCNWZ7GIT","AOS2PVHT2HYTL","3JUDR1D0D6D4CARU3YX9Y3DK5DJ2QK","","null","<img src=""img/food1.png"" style=""width:200px; border:14px solid green;"">","null","","","","","","","","","",""
"","image-keyboard-response","299","194096","0.0-355.0","32M8BPYGAU8JWQ9CG7IRGOCNWZ7GIT","AOS2PVHT2HYTL","3JUDR1D0D6D4CARU3YX9Y3DK5DJ2QK","","285","img/food4.png","76","287.09999990463257","3","0","3","2","1,0.5,0,1,0.5,0,0.5,0,1","0.5,0,1,0.5,0,1,0,1,0.5","2","false",""
"","html-keyboard-response","300","194400","0.0-356.0","32M8BPYGAU8JWQ9CG7IRGOCNWZ7GIT","AOS2PVHT2HYTL","3JUDR1D0D6D4CARU3YX9Y3DK5DJ2QK","","null","<img src=""img/food4.png"" style=""width:200px;border:14px solid red;"">","null","","","","","","","","","",""
"","image-keyboard-response","301","194797","0.0-358.0","32M8BPYGAU8JWQ9CG7IRGOCNWZ7GIT","AOS2PVHT2HYTL","3JUDR1D0D6D4CARU3YX9Y3DK5DJ2QK","","393","img/food4.png","75","395.90000009536743","2","1","3","2","1,0.5,0,1,0.5,0,0.5,0,1","0.5,0,1,0.5,0,1,0,1,0.5","2","false",""
"","html-keyboard-response","302","195101","0.0-359.0","32M8BPYGAU8JWQ9CG7IRGOCNWZ7GIT","AOS2PVHT2HYTL","3JUDR1D0D6D4CARU3YX9Y3DK5DJ2QK","","null","<img src=""img/food4.png"" style=""width:200px; border:14px solid green;"">","null","","","","","","","","","",""
"","image-keyboard-response","303","195709","0.0-361.0","32M8BPYGAU8JWQ9CG7IRGOCNWZ7GIT","AOS2PVHT2HYTL","3JUDR1D0D6D4CARU3YX9Y3DK5DJ2QK","","604.2000000476837","img/food3.png","75","606.0999999046326","2","0","2","2","1,0.5,0,1,0.5,0,0.5,0,1","0.5,0,1,0.5,0,1,0,1,0.5","2","false",""
"","html-keyboard-response","304","196014","0.0-362.0","32M8BPYGAU8JWQ9CG7IRGOCNWZ7GIT","AOS2PVHT2HYTL","3JUDR1D0D6D4CARU3YX9Y3DK5DJ2QK","","null","<img src=""img/food3.png"" style=""width:200px;border:14px solid red;"">","null","","","","","","","","","",""
"","image-keyboard-response","305","196257","0.0-364.0","32M8BPYGAU8JWQ9CG7IRGOCNWZ7GIT","AOS2PVHT2HYTL","3JUDR1D0D6D4CARU3YX9Y3DK5DJ2QK","","240.5","img/food3.png","75","242.60000014305115","2","0","2","2","1,0.5,0,1,0.5,0,0.5,0,1","0.5,0,1,0.5,0,1,0,1,0.5","2","false",""
"","html-keyboard-response","306","196560","0.0-365.0","32M8BPYGAU8JWQ9CG7IRGOCNWZ7GIT","AOS2PVHT2HYTL","3JUDR1D0D6D4CARU3YX9Y3DK5DJ2QK","","null","<img src=""img/food3.png"" style=""width:200px;border:14px solid red;"">","null","","","","","","","","","",""
"","image-keyboard-response","307","196730","0.0-367.0","32M8BPYGAU8JWQ9CG7IRGOCNWZ7GIT","AOS2PVHT2HYTL","3JUDR1D0D6D4CARU3YX9Y3DK5DJ2QK","","167.70000004768372","img/food1.png","74","169.60000014305115","1","1","1","2","1,0.5,0,1,0.5,0,0.5,0,1","0.5,0,1,0.5,0,1,0,1,0.5","2","false",""
"","html-keyboard-response","308","197034","0.0-368.0","32M8BPYGAU8JWQ9CG7IRGOCNWZ7GIT","AOS2PVHT2HYTL","3JUDR1D0D6D4CARU3YX9Y3DK5DJ2QK","","null","<img src=""img/food1.png"" style=""width:200px; border:14px solid green;"">","null","","","","","","","","","",""
"","image-keyboard-response","309","197437","0.0-370.0","32M8BPYGAU8JWQ9CG7IRGOCNWZ7GIT","AOS2PVHT2HYTL","3JUDR1D0D6D4CARU3YX9Y3DK5DJ2QK","","399.69999980926514","img/food3.png","74","402.39999985694885","1","0","2","2","1,0.5,0,1,0.5,0,0.5,0,1","0.5,0,1,0.5,0,1,0,1,0.5","2","false",""
"","html-keyboard-response","310","197741","0.0-371.0","32M8BPYGAU8JWQ9CG7IRGOCNWZ7GIT","AOS2PVHT2HYTL","3JUDR1D0D6D4CARU3YX9Y3DK5DJ2QK","","null","<img src=""img/food3.png"" style=""width:200px;border:14px solid red;"">","null","","","","","","","","","",""
"","image-keyboard-response","311","198105","0.0-373.0","32M8BPYGAU8JWQ9CG7IRGOCNWZ7GIT","AOS2PVHT2HYTL","3JUDR1D0D6D4CARU3YX9Y3DK5DJ2QK","","361.59999990463257","img/food3.png","75","363.39999985694885","2","0","2","2","1,0.5,0,1,0.5,0,0.5,0,1","0.5,0,1,0.5,0,1,0,1,0.5","2","false",""
"","html-keyboard-response","312","198410","0.0-374.0","32M8BPYGAU8JWQ9CG7IRGOCNWZ7GIT","AOS2PVHT2HYTL","3JUDR1D0D6D4CARU3YX9Y3DK5DJ2QK","","null","<img src=""img/food3.png"" style=""width:200px;border:14px solid red;"">","null","","","","","","","","","",""
"","image-keyboard-response","313","198680","0.0-376.0","32M8BPYGAU8JWQ9CG7IRGOCNWZ7GIT","AOS2PVHT2HYTL","3JUDR1D0D6D4CARU3YX9Y3DK5DJ2QK","","267","img/food1.png","76","269.7000000476837","3","1","1","2","1,0.5,0,1,0.5,0,0.5,0,1","0.5,0,1,0.5,0,1,0,1,0.5","2","false",""
"","html-keyboard-response","314","198993","0.0-377.0","32M8BPYGAU8JWQ9CG7IRGOCNWZ7GIT","AOS2PVHT2HYTL","3JUDR1D0D6D4CARU3YX9Y3DK5DJ2QK","","null","<img src=""img/food1.png"" style=""width:200px; border:14px solid green;"">","null","","","","","","","","","",""
"","image-keyboard-response","315","199309","0.0-379.0","32M8BPYGAU8JWQ9CG7IRGOCNWZ7GIT","AOS2PVHT2HYTL","3JUDR1D0D6D4CARU3YX9Y3DK5DJ2QK","","312.40000009536743","img/food3.png","76","315.2999999523163","3","1","2","2","1,0.5,0,1,0.5,0,0.5,0,1","0.5,0,1,0.5,0,1,0,1,0.5","2","false",""
"","html-keyboard-response","316","199613","0.0-380.0","32M8BPYGAU8JWQ9CG7IRGOCNWZ7GIT","AOS2PVHT2HYTL","3JUDR1D0D6D4CARU3YX9Y3DK5DJ2QK","","null","<img src=""img/food3.png"" style=""width:200px; border:14px solid green;"">","null","","","","","","","","","",""
"","image-keyboard-response","317","199913","0.0-382.0","32M8BPYGAU8JWQ9CG7IRGOCNWZ7GIT","AOS2PVHT2HYTL","3JUDR1D0D6D4CARU3YX9Y3DK5DJ2QK","","296.90000009536743","img/food1.png","76","298.7999999523163","3","1","1","2","1,0.5,0,1,0.5,0,0.5,0,1","0.5,0,1,0.5,0,1,0,1,0.5","2","false",""
"","html-keyboard-response","318","200216","0.0-383.0","32M8BPYGAU8JWQ9CG7IRGOCNWZ7GIT","AOS2PVHT2HYTL","3JUDR1D0D6D4CARU3YX9Y3DK5DJ2QK","","null","<img src=""img/food1.png"" style=""width:200px; border:14px solid green;"">","null","","","","","","","","","",""
"","image-keyboard-response","319","200639","0.0-385.0","32M8BPYGAU8JWQ9CG7IRGOCNWZ7GIT","AOS2PVHT2HYTL","3JUDR1D0D6D4CARU3YX9Y3DK5DJ2QK","","419.2999999523163","img/food4.png","76","421.7999999523163","3","0","3","2","1,0.5,0,1,0.5,0,0.5,0,1","0.5,0,1,0.5,0,1,0,1,0.5","2","false",""
"","html-keyboard-response","320","200943","0.0-386.0","32M8BPYGAU8JWQ9CG7IRGOCNWZ7GIT","AOS2PVHT2HYTL","3JUDR1D0D6D4CARU3YX9Y3DK5DJ2QK","","null","<img src=""img/food4.png"" style=""width:200px;border:14px solid red;"">","null","","","","","","","","","",""
"","image-keyboard-response","321","201365","0.0-388.0","32M8BPYGAU8JWQ9CG7IRGOCNWZ7GIT","AOS2PVHT2HYTL","3JUDR1D0D6D4CARU3YX9Y3DK5DJ2QK","","418.2000000476837","img/food1.png","75","421","2","0","1","2","1,0.5,0,1,0.5,0,0.5,0,1","0.5,0,1,0.5,0,1,0,1,0.5","2","false",""
"","html-keyboard-response","322","201669","0.0-389.0","32M8BPYGAU8JWQ9CG7IRGOCNWZ7GIT","AOS2PVHT2HYTL","3JUDR1D0D6D4CARU3YX9Y3DK5DJ2QK","","null","<img src=""img/food1.png"" style=""width:200px;border:14px solid red;"">","null","","","","","","","","","",""
"","image-keyboard-response","323","202052","0.0-391.0","32M8BPYGAU8JWQ9CG7IRGOCNWZ7GIT","AOS2PVHT2HYTL","3JUDR1D0D6D4CARU3YX9Y3DK5DJ2QK","","381.2999999523163","img/food3.png","76","382.7000000476837","3","1","2","2","1,0.5,0,1,0.5,0,0.5,0,1","0.5,0,1,0.5,0,1,0,1,0.5","2","false",""
"","html-keyboard-response","324","202355","0.0-392.0","32M8BPYGAU8JWQ9CG7IRGOCNWZ7GIT","AOS2PVHT2HYTL","3JUDR1D0D6D4CARU3YX9Y3DK5DJ2QK","","null","<img src=""img/food3.png"" style=""width:200px; border:14px solid green;"">","null","","","","","","","","","",""
"","image-keyboard-response","325","202687","0.0-394.0","32M8BPYGAU8JWQ9CG7IRGOCNWZ7GIT","AOS2PVHT2HYTL","3JUDR1D0D6D4CARU3YX9Y3DK5DJ2QK","","328.40000009536743","img/food1.png","76","331.2000000476837","3","1","1","2","1,0.5,0,1,0.5,0,0.5,0,1","0.5,0,1,0.5,0,1,0,1,0.5","2","false",""
"","html-keyboard-response","326","202992","0.0-395.0","32M8BPYGAU8JWQ9CG7IRGOCNWZ7GIT","AOS2PVHT2HYTL","3JUDR1D0D6D4CARU3YX9Y3DK5DJ2QK","","null","<img src=""img/food1.png"" style=""width:200px; border:14px solid green;"">","null","","","","","","","","","",""
"","image-keyboard-response","327","203356","0.0-397.0","32M8BPYGAU8JWQ9CG7IRGOCNWZ7GIT","AOS2PVHT2HYTL","3JUDR1D0D6D4CARU3YX9Y3DK5DJ2QK","","361.60000014305115","img/food1.png","76","363.7000000476837","3","1","1","2","1,0.5,0,1,0.5,0,0.5,0,1","0.5,0,1,0.5,0,1,0,1,0.5","2","false",""
"","html-keyboard-response","328","203661","0.0-398.0","32M8BPYGAU8JWQ9CG7IRGOCNWZ7GIT","AOS2PVHT2HYTL","3JUDR1D0D6D4CARU3YX9Y3DK5DJ2QK","","null","<img src=""img/food1.png"" style=""width:200px; border:14px solid green;"">","null","","","","","","","","","",""
"","image-keyboard-response","329","203925","0.0-400.0","32M8BPYGAU8JWQ9CG7IRGOCNWZ7GIT","AOS2PVHT2HYTL","3JUDR1D0D6D4CARU3YX9Y3DK5DJ2QK","","260.5","img/food3.png","76","263.09999990463257","3","1","2","2","1,0.5,0,1,0.5,0,0.5,0,1","0.5,0,1,0.5,0,1,0,1,0.5","2","false",""
"","html-keyboard-response","330","204230","0.0-401.0","32M8BPYGAU8JWQ9CG7IRGOCNWZ7GIT","AOS2PVHT2HYTL","3JUDR1D0D6D4CARU3YX9Y3DK5DJ2QK","","null","<img src=""img/food3.png"" style=""width:200px; border:14px solid green;"">","null","","","","","","","","","",""
"","image-keyboard-response","331","204632","0.0-403.0","32M8BPYGAU8JWQ9CG7IRGOCNWZ7GIT","AOS2PVHT2HYTL","3JUDR1D0D6D4CARU3YX9Y3DK5DJ2QK","","399.5","img/food4.png","76","401.60000014305115","3","1","3","2","1,0.5,0,1,0.5,0,0.5,0,1","0.5,0,1,0.5,0,1,0,1,0.5","2","false",""
"","html-keyboard-response","332","204936","0.0-404.0","32M8BPYGAU8JWQ9CG7IRGOCNWZ7GIT","AOS2PVHT2HYTL","3JUDR1D0D6D4CARU3YX9Y3DK5DJ2QK","","null","<img src=""img/food4.png"" style=""width:200px; border:14px solid green;"">","null","","","","","","","","","",""
"","image-keyboard-response","333","205357","0.0-406.0","32M8BPYGAU8JWQ9CG7IRGOCNWZ7GIT","AOS2PVHT2HYTL","3JUDR1D0D6D4CARU3YX9Y3DK5DJ2QK","","417.09999990463257","img/food3.png","76","420.10000014305115","3","1","2","2","1,0.5,0,1,0.5,0,0.5,0,1","0.5,0,1,0.5,0,1,0,1,0.5","2","false",""
"","html-keyboard-response","334","205662","0.0-407.0","32M8BPYGAU8JWQ9CG7IRGOCNWZ7GIT","AOS2PVHT2HYTL","3JUDR1D0D6D4CARU3YX9Y3DK5DJ2QK","","null","<img src=""img/food3.png"" style=""width:200px; border:14px solid green;"">","null","","","","","","","","","",""
"","image-keyboard-response","335","205972","0.0-409.0","32M8BPYGAU8JWQ9CG7IRGOCNWZ7GIT","AOS2PVHT2HYTL","3JUDR1D0D6D4CARU3YX9Y3DK5DJ2QK","","306.80000019073486","img/food4.png","76","309","3","1","3","2","1,0.5,0,1,0.5,0,0.5,0,1","0.5,0,1,0.5,0,1,0,1,0.5","2","false",""
"","html-keyboard-response","336","206276","0.0-410.0","32M8BPYGAU8JWQ9CG7IRGOCNWZ7GIT","AOS2PVHT2HYTL","3JUDR1D0D6D4CARU3YX9Y3DK5DJ2QK","","null","<img src=""img/food4.png"" style=""width:200px; border:14px solid green;"">","null","","","","","","","","","",""
"","image-keyboard-response","337","206595","0.0-412.0","32M8BPYGAU8JWQ9CG7IRGOCNWZ7GIT","AOS2PVHT2HYTL","3JUDR1D0D6D4CARU3YX9Y3DK5DJ2QK","","315.7000000476837","img/food3.png","76","318.2999999523163","3","1","2","2","1,0.5,0,1,0.5,0,0.5,0,1","0.5,0,1,0.5,0,1,0,1,0.5","2","false",""
"","html-keyboard-response","338","206900","0.0-413.0","32M8BPYGAU8JWQ9CG7IRGOCNWZ7GIT","AOS2PVHT2HYTL","3JUDR1D0D6D4CARU3YX9Y3DK5DJ2QK","","null","<img src=""img/food3.png"" style=""width:200px; border:14px solid green;"">","null","","","","","","","","","",""
"","image-keyboard-response","339","207211","0.0-415.0","32M8BPYGAU8JWQ9CG7IRGOCNWZ7GIT","AOS2PVHT2HYTL","3JUDR1D0D6D4CARU3YX9Y3DK5DJ2QK","","307.5","img/food1.png","76","310.2999999523163","3","1","1","2","1,0.5,0,1,0.5,0,0.5,0,1","0.5,0,1,0.5,0,1,0,1,0.5","2","false",""
"","html-keyboard-response","340","207517","0.0-416.0","32M8BPYGAU8JWQ9CG7IRGOCNWZ7GIT","AOS2PVHT2HYTL","3JUDR1D0D6D4CARU3YX9Y3DK5DJ2QK","","null","<img src=""img/food1.png"" style=""width:200px; border:14px solid green;"">","null","","","","","","","","","",""
"","image-keyboard-response","341","207854","0.0-418.0","32M8BPYGAU8JWQ9CG7IRGOCNWZ7GIT","AOS2PVHT2HYTL","3JUDR1D0D6D4CARU3YX9Y3DK5DJ2QK","","317.7999999523163","img/food1.png","76","324.60000014305115","3","1","1","2","1,0.5,0,1,0.5,0,0.5,0,1","0.5,0,1,0.5,0,1,0,1,0.5","2","false",""
"","html-keyboard-response","342","208160","0.0-419.0","32M8BPYGAU8JWQ9CG7IRGOCNWZ7GIT","AOS2PVHT2HYTL","3JUDR1D0D6D4CARU3YX9Y3DK5DJ2QK","","null","<img src=""img/food1.png"" style=""width:200px; border:14px solid green;"">","null","","","","","","","","","",""
"","image-keyboard-response","343","208470","0.0-421.0","32M8BPYGAU8JWQ9CG7IRGOCNWZ7GIT","AOS2PVHT2HYTL","3JUDR1D0D6D4CARU3YX9Y3DK5DJ2QK","","306.39999985694885","img/food3.png","76","309","3","1","2","2","1,0.5,0,1,0.5,0,0.5,0,1","0.5,0,1,0.5,0,1,0,1,0.5","2","false",""
"","html-keyboard-response","344","208781","0.0-422.0","32M8BPYGAU8JWQ9CG7IRGOCNWZ7GIT","AOS2PVHT2HYTL","3JUDR1D0D6D4CARU3YX9Y3DK5DJ2QK","","null","<img src=""img/food3.png"" style=""width:200px; border:14px solid green;"">","null","","","","","","","","","",""
"","image-keyboard-response","345","209099","0.0-424.0","32M8BPYGAU8JWQ9CG7IRGOCNWZ7GIT","AOS2PVHT2HYTL","3JUDR1D0D6D4CARU3YX9Y3DK5DJ2QK","","316.30000019073486","img/food4.png","76","317.7999999523163","3","0","3","2","1,0.5,0,1,0.5,0,0.5,0,1","0.5,0,1,0.5,0,1,0,1,0.5","2","false",""
"","html-keyboard-response","346","209408","0.0-425.0","32M8BPYGAU8JWQ9CG7IRGOCNWZ7GIT","AOS2PVHT2HYTL","3JUDR1D0D6D4CARU3YX9Y3DK5DJ2QK","","null","<img src=""img/food4.png"" style=""width:200px;border:14px solid red;"">","null","","","","","","","","","",""
"","image-keyboard-response","347","209895","0.0-427.0","32M8BPYGAU8JWQ9CG7IRGOCNWZ7GIT","AOS2PVHT2HYTL","3JUDR1D0D6D4CARU3YX9Y3DK5DJ2QK","","484.89999985694885","img/food1.png","76","486.40000009536743","3","1","1","2","1,0.5,0,1,0.5,0,0.5,0,1","0.5,0,1,0.5,0,1,0,1,0.5","2","false",""
"","html-keyboard-response","348","210199","0.0-428.0","32M8BPYGAU8JWQ9CG7IRGOCNWZ7GIT","AOS2PVHT2HYTL","3JUDR1D0D6D4CARU3YX9Y3DK5DJ2QK","","null","<img src=""img/food1.png"" style=""width:200px; border:14px solid green;"">","null","","","","","","","","","",""
"","image-keyboard-response","349","210461","0.0-430.0","32M8BPYGAU8JWQ9CG7IRGOCNWZ7GIT","AOS2PVHT2HYTL","3JUDR1D0D6D4CARU3YX9Y3DK5DJ2QK","","259.7999999523163","img/food4.png","76","261.40000009536743","3","0","3","2","1,0.5,0,1,0.5,0,0.5,0,1","0.5,0,1,0.5,0,1,0,1,0.5","2","false",""
"","html-keyboard-response","350","210766","0.0-431.0","32M8BPYGAU8JWQ9CG7IRGOCNWZ7GIT","AOS2PVHT2HYTL","3JUDR1D0D6D4CARU3YX9Y3DK5DJ2QK","","null","<img src=""img/food4.png"" style=""width:200px;border:14px solid red;"">","null","","","","","","","","","",""
"","image-keyboard-response","351","211048","0.0-433.0","32M8BPYGAU8JWQ9CG7IRGOCNWZ7GIT","AOS2PVHT2HYTL","3JUDR1D0D6D4CARU3YX9Y3DK5DJ2QK","","280.2999999523163","img/food1.png","76","281.7000000476837","3","1","1","2","1,0.5,0,1,0.5,0,0.5,0,1","0.5,0,1,0.5,0,1,0,1,0.5","2","false",""
"","html-keyboard-response","352","211358","0.0-434.0","32M8BPYGAU8JWQ9CG7IRGOCNWZ7GIT","AOS2PVHT2HYTL","3JUDR1D0D6D4CARU3YX9Y3DK5DJ2QK","","null","<img src=""img/food1.png"" style=""width:200px; border:14px solid green;"">","null","","","","","","","","","",""
"","image-keyboard-response","353","211752","0.0-436.0","32M8BPYGAU8JWQ9CG7IRGOCNWZ7GIT","AOS2PVHT2HYTL","3JUDR1D0D6D4CARU3YX9Y3DK5DJ2QK","","391.5","img/food3.png","76","393","3","1","2","2","1,0.5,0,1,0.5,0,0.5,0,1","0.5,0,1,0.5,0,1,0,1,0.5","2","false",""
"","html-keyboard-response","354","212056","0.0-437.0","32M8BPYGAU8JWQ9CG7IRGOCNWZ7GIT","AOS2PVHT2HYTL","3JUDR1D0D6D4CARU3YX9Y3DK5DJ2QK","","null","<img src=""img/food3.png"" style=""width:200px; border:14px solid green;"">","null","","","","","","","","","",""
"","image-keyboard-response","355","212401","0.0-439.0","32M8BPYGAU8JWQ9CG7IRGOCNWZ7GIT","AOS2PVHT2HYTL","3JUDR1D0D6D4CARU3YX9Y3DK5DJ2QK","","342.7999999523163","img/food3.png","76","344.89999985694885","3","1","2","2","1,0.5,0,1,0.5,0,0.5,0,1","0.5,0,1,0.5,0,1,0,1,0.5","2","false",""
"","html-keyboard-response","356","212706","0.0-440.0","32M8BPYGAU8JWQ9CG7IRGOCNWZ7GIT","AOS2PVHT2HYTL","3JUDR1D0D6D4CARU3YX9Y3DK5DJ2QK","","null","<img src=""img/food3.png"" style=""width:200px; border:14px solid green;"">","null","","","","","","","","","",""
"","image-keyboard-response","357","212944","0.0-442.0","32M8BPYGAU8JWQ9CG7IRGOCNWZ7GIT","AOS2PVHT2HYTL","3JUDR1D0D6D4CARU3YX9Y3DK5DJ2QK","","235.20000004768372","img/food4.png","76","237.39999985694885","3","0","3","2","1,0.5,0,1,0.5,0,0.5,0,1","0.5,0,1,0.5,0,1,0,1,0.5","2","false",""
"","html-keyboard-response","358","213248","0.0-443.0","32M8BPYGAU8JWQ9CG7IRGOCNWZ7GIT","AOS2PVHT2HYTL","3JUDR1D0D6D4CARU3YX9Y3DK5DJ2QK","","null","<img src=""img/food4.png"" style=""width:200px;border:14px solid red;"">","null","","","","","","","","","",""
"","image-keyboard-response","359","213720","0.0-445.0","32M8BPYGAU8JWQ9CG7IRGOCNWZ7GIT","AOS2PVHT2HYTL","3JUDR1D0D6D4CARU3YX9Y3DK5DJ2QK","","469","img/food3.png","75","471.09999990463257","2","0","2","2","1,0.5,0,1,0.5,0,0.5,0,1","0.5,0,1,0.5,0,1,0,1,0.5","2","false",""
"","html-keyboard-response","360","214023","0.0-446.0","32M8BPYGAU8JWQ9CG7IRGOCNWZ7GIT","AOS2PVHT2HYTL","3JUDR1D0D6D4CARU3YX9Y3DK5DJ2QK","","null","<img src=""img/food3.png"" style=""width:200px;border:14px solid red;"">","null","","","","","","","","","",""
"","image-keyboard-response","361","214235","0.0-448.0","32M8BPYGAU8JWQ9CG7IRGOCNWZ7GIT","AOS2PVHT2HYTL","3JUDR1D0D6D4CARU3YX9Y3DK5DJ2QK","","209","img/food1.png","76","210.89999985694885","3","1","1","2","1,0.5,0,1,0.5,0,0.5,0,1","0.5,0,1,0.5,0,1,0,1,0.5","2","false",""
"","html-keyboard-response","362","214542","0.0-449.0","32M8BPYGAU8JWQ9CG7IRGOCNWZ7GIT","AOS2PVHT2HYTL","3JUDR1D0D6D4CARU3YX9Y3DK5DJ2QK","","null","<img src=""img/food1.png"" style=""width:200px; border:14px solid green;"">","null","","","","","","","","","",""
"","image-keyboard-response","363","214876","0.0-451.0","32M8BPYGAU8JWQ9CG7IRGOCNWZ7GIT","AOS2PVHT2HYTL","3JUDR1D0D6D4CARU3YX9Y3DK5DJ2QK","","328.10000014305115","img/food3.png","76","332.40000009536743","3","1","2","2","1,0.5,0,1,0.5,0,0.5,0,1","0.5,0,1,0.5,0,1,0,1,0.5","2","false",""
"","html-keyboard-response","364","215180","0.0-452.0","32M8BPYGAU8JWQ9CG7IRGOCNWZ7GIT","AOS2PVHT2HYTL","3JUDR1D0D6D4CARU3YX9Y3DK5DJ2QK","","null","<img src=""img/food3.png"" style=""width:200px; border:14px solid green;"">","null","","","","","","","","","",""
"","instructions","365","219189","0.0-454.0","32M8BPYGAU8JWQ9CG7IRGOCNWZ7GIT","AOS2PVHT2HYTL","3JUDR1D0D6D4CARU3YX9Y3DK5DJ2QK","[{""page_index"":0,""viewing_time"":4005.7000000476837}]","4006.399999856949","","","","","","","","","","","",""
"","survey-text","366","293206","0.0-455.0","32M8BPYGAU8JWQ9CG7IRGOCNWZ7GIT","AOS2PVHT2HYTL","3JUDR1D0D6D4CARU3YX9Y3DK5DJ2QK","","74002.40000009537","","","","","","","","","","","","{""Q0"":""AOS2PVHT2HYTL""}"
