"success","trial_type","trial_index","time_elapsed","internal_node_id","assignmentID","mturkID","hitID","view_history","rt","stimulus","key_press","reactionTime","a","r","s","reward_cond","warning","responses"
"true","fullscreen","0","2874","0.0-0.0","3PZDLQMM0U724TF5PI1G3HKR8CBC2Y","APVZGZM1RA3AZ","338431Z1FL1IVIVZ3BK6A6QS21HROA","","","","","","","","","","",""
"","instructions","1","12340","0.0-1.0","3PZDLQMM0U724TF5PI1G3HKR8CBC2Y","APVZGZM1RA3AZ","338431Z1FL1IVIVZ3BK6A6QS21HROA","[{""page_index"":0,""viewing_time"":2117.699999988079},{""page_index"":1,""viewing_time"":984.0999999940395},{""page_index"":2,""viewing_time"":448.10000002384186},{""page_index"":3,""viewing_time"":1657.199999988079},{""page_index"":4,""viewing_time"":1352},{""page_index"":5,""viewing_time"":2031.199999988079},{""page_index"":6,""viewing_time"":872.9000000059605}]","9464.299999982119","","","","","","","","",""
"","image-keyboard-response","2","15960","0.0-2.0","3PZDLQMM0U724TF5PI1G3HKR8CBC2Y","APVZGZM1RA3AZ","338431Z1FL1IVIVZ3BK6A6QS21HROA","","3617.199999988079","img/food3.png","74","3619.5999999940395","1","1","2","1,0.7,0,1,0.7,0,0.7,0,1","",""
"","html-keyboard-response","3","16271","0.0-3.0","3PZDLQMM0U724TF5PI1G3HKR8CBC2Y","APVZGZM1RA3AZ","338431Z1FL1IVIVZ3BK6A6QS21HROA","","null","<img src=""img/food3.png"" style=""width:200px; border:14px solid green;"">","null","","","","","","",""
"","image-keyboard-response","4","17319","0.0-4.0","3PZDLQMM0U724TF5PI1G3HKR8CBC2Y","APVZGZM1RA3AZ","338431Z1FL1IVIVZ3BK6A6QS21HROA","","1046.4000000059605","img/food3.png","74","1047.3999999761581","1","1","2","1,0.7,0,1,0.7,0,0.7,0,1","",""
"","html-keyboard-response","5","17634","0.0-5.0","3PZDLQMM0U724TF5PI1G3HKR8CBC2Y","APVZGZM1RA3AZ","338431Z1FL1IVIVZ3BK6A6QS21HROA","","null","<img src=""img/food3.png"" style=""width:200px; border:14px solid green;"">","null","","","","","","",""
"","image-keyboard-response","6","18407","0.0-6.0","3PZDLQMM0U724TF5PI1G3HKR8CBC2Y","APVZGZM1RA3AZ","338431Z1FL1IVIVZ3BK6A6QS21HROA","","771.5999999940395","img/food1.png","75","772.5","2","1","1","1,0.7,0,1,0.7,0,0.7,0,1","",""
"","html-keyboard-response","7","18710","0.0-7.0","3PZDLQMM0U724TF5PI1G3HKR8CBC2Y","APVZGZM1RA3AZ","338431Z1FL1IVIVZ3BK6A6QS21HROA","","null","<img src=""img/food1.png"" style=""width:200px; border:14px solid green;"">","null","","","","","","",""
"","image-keyboard-response","8","19601","0.0-8.0","3PZDLQMM0U724TF5PI1G3HKR8CBC2Y","APVZGZM1RA3AZ","338431Z1FL1IVIVZ3BK6A6QS21HROA","","889.7000000178814","img/food3.png","74","890.7000000178814","1","1","2","1,0.7,0,1,0.7,0,0.7,0,1","",""
"","html-keyboard-response","9","19912","0.0-9.0","3PZDLQMM0U724TF5PI1G3HKR8CBC2Y","APVZGZM1RA3AZ","338431Z1FL1IVIVZ3BK6A6QS21HROA","","null","<img src=""img/food3.png"" style=""width:200px; border:14px solid green;"">","null","","","","","","",""
"","image-keyboard-response","10","20896","0.0-10.0","3PZDLQMM0U724TF5PI1G3HKR8CBC2Y","APVZGZM1RA3AZ","338431Z1FL1IVIVZ3BK6A6QS21HROA","","982.8000000119209","img/food2.png","76","983.8000000119209","3","1","3","1,0.7,0,1,0.7,0,0.7,0,1","",""
"","html-keyboard-response","11","21209","0.0-11.0","3PZDLQMM0U724TF5PI1G3HKR8CBC2Y","APVZGZM1RA3AZ","338431Z1FL1IVIVZ3BK6A6QS21HROA","","null","<img src=""img/food2.png"" style=""width:200px; border:14px solid green;"">","null","","","","","","",""
"","image-keyboard-response","12","22024","0.0-12.0","3PZDLQMM0U724TF5PI1G3HKR8CBC2Y","APVZGZM1RA3AZ","338431Z1FL1IVIVZ3BK6A6QS21HROA","","813.3999999761581","img/food2.png","76","814.5999999940395","3","1","3","1,0.7,0,1,0.7,0,0.7,0,1","",""
"","html-keyboard-response","13","22326","0.0-13.0","3PZDLQMM0U724TF5PI1G3HKR8CBC2Y","APVZGZM1RA3AZ","338431Z1FL1IVIVZ3BK6A6QS21HROA","","null","<img src=""img/food2.png"" style=""width:200px; border:14px solid green;"">","null","","","","","","",""
"","image-keyboard-response","14","23248","0.0-14.0","3PZDLQMM0U724TF5PI1G3HKR8CBC2Y","APVZGZM1RA3AZ","338431Z1FL1IVIVZ3BK6A6QS21HROA","","920","img/food2.png","76","921.0999999940395","3","1","3","1,0.7,0,1,0.7,0,0.7,0,1","",""
"","html-keyboard-response","15","23553","0.0-15.0","3PZDLQMM0U724TF5PI1G3HKR8CBC2Y","APVZGZM1RA3AZ","338431Z1FL1IVIVZ3BK6A6QS21HROA","","null","<img src=""img/food2.png"" style=""width:200px; border:14px solid green;"">","null","","","","","","",""
"","image-keyboard-response","16","24224","0.0-16.0","3PZDLQMM0U724TF5PI1G3HKR8CBC2Y","APVZGZM1RA3AZ","338431Z1FL1IVIVZ3BK6A6QS21HROA","","669.3000000119209","img/food3.png","75","670.4000000059605","2","0","2","1,0.7,0,1,0.7,0,0.7,0,1","",""
"","html-keyboard-response","17","24529","0.0-17.0","3PZDLQMM0U724TF5PI1G3HKR8CBC2Y","APVZGZM1RA3AZ","338431Z1FL1IVIVZ3BK6A6QS21HROA","","null","<img src=""img/food3.png"" style=""width:200px;border:14px solid red;"">","null","","","","","","",""
"","image-keyboard-response","18","25944","0.0-18.0","3PZDLQMM0U724TF5PI1G3HKR8CBC2Y","APVZGZM1RA3AZ","338431Z1FL1IVIVZ3BK6A6QS21HROA","","1413.7999999821186","img/food2.png","75","1415","2","0","3","1,0.7,0,1,0.7,0,0.7,0,1","",""
"","html-keyboard-response","19","26247","0.0-19.0","3PZDLQMM0U724TF5PI1G3HKR8CBC2Y","APVZGZM1RA3AZ","338431Z1FL1IVIVZ3BK6A6QS21HROA","","null","<img src=""img/food2.png"" style=""width:200px;border:14px solid red;"">","null","","","","","","",""
"","image-keyboard-response","20","27176","0.0-20.0","3PZDLQMM0U724TF5PI1G3HKR8CBC2Y","APVZGZM1RA3AZ","338431Z1FL1IVIVZ3BK6A6QS21HROA","","928.5","img/food1.png","74","929.3999999761581","1","1","1","1,0.7,0,1,0.7,0,0.7,0,1","",""
"","html-keyboard-response","21","27487","0.0-21.0","3PZDLQMM0U724TF5PI1G3HKR8CBC2Y","APVZGZM1RA3AZ","338431Z1FL1IVIVZ3BK6A6QS21HROA","","null","<img src=""img/food1.png"" style=""width:200px; border:14px solid green;"">","null","","","","","","",""
"","image-keyboard-response","22","28233","0.0-22.0","3PZDLQMM0U724TF5PI1G3HKR8CBC2Y","APVZGZM1RA3AZ","338431Z1FL1IVIVZ3BK6A6QS21HROA","","745","img/food1.png","74","745.8000000119209","1","1","1","1,0.7,0,1,0.7,0,0.7,0,1","",""
"","html-keyboard-response","23","28534","0.0-23.0","3PZDLQMM0U724TF5PI1G3HKR8CBC2Y","APVZGZM1RA3AZ","338431Z1FL1IVIVZ3BK6A6QS21HROA","","null","<img src=""img/food1.png"" style=""width:200px; border:14px solid green;"">","null","","","","","","",""
"","image-keyboard-response","24","29864","0.0-24.0","3PZDLQMM0U724TF5PI1G3HKR8CBC2Y","APVZGZM1RA3AZ","338431Z1FL1IVIVZ3BK6A6QS21HROA","","1328.9000000059605","img/food2.png","76","1330","3","1","3","1,0.7,0,1,0.7,0,0.7,0,1","",""
"","html-keyboard-response","25","30167","0.0-25.0","3PZDLQMM0U724TF5PI1G3HKR8CBC2Y","APVZGZM1RA3AZ","338431Z1FL1IVIVZ3BK6A6QS21HROA","","null","<img src=""img/food2.png"" style=""width:200px; border:14px solid green;"">","null","","","","","","",""
"","image-keyboard-response","26","32008","0.0-26.0","3PZDLQMM0U724TF5PI1G3HKR8CBC2Y","APVZGZM1RA3AZ","338431Z1FL1IVIVZ3BK6A6QS21HROA","","1839.199999988079","img/food1.png","74","1840","1","1","1","1,0.7,0,1,0.7,0,0.7,0,1","",""
"","html-keyboard-response","27","32310","0.0-27.0","3PZDLQMM0U724TF5PI1G3HKR8CBC2Y","APVZGZM1RA3AZ","338431Z1FL1IVIVZ3BK6A6QS21HROA","","null","<img src=""img/food1.png"" style=""width:200px; border:14px solid green;"">","null","","","","","","",""
"","image-keyboard-response","28","33712","0.0-28.0","3PZDLQMM0U724TF5PI1G3HKR8CBC2Y","APVZGZM1RA3AZ","338431Z1FL1IVIVZ3BK6A6QS21HROA","","1401.699999988079","img/food3.png","74","1402.2000000178814","1","1","2","1,0.7,0,1,0.7,0,0.7,0,1","",""
"","html-keyboard-response","29","34014","0.0-29.0","3PZDLQMM0U724TF5PI1G3HKR8CBC2Y","APVZGZM1RA3AZ","338431Z1FL1IVIVZ3BK6A6QS21HROA","","null","<img src=""img/food3.png"" style=""width:200px; border:14px solid green;"">","null","","","","","","",""
"","image-keyboard-response","30","34697","0.0-30.0","3PZDLQMM0U724TF5PI1G3HKR8CBC2Y","APVZGZM1RA3AZ","338431Z1FL1IVIVZ3BK6A6QS21HROA","","681.7999999821186","img/food3.png","74","682.8000000119209","1","1","2","1,0.7,0,1,0.7,0,0.7,0,1","",""
"","html-keyboard-response","31","34999","0.0-31.0","3PZDLQMM0U724TF5PI1G3HKR8CBC2Y","APVZGZM1RA3AZ","338431Z1FL1IVIVZ3BK6A6QS21HROA","","null","<img src=""img/food3.png"" style=""width:200px; border:14px solid green;"">","null","","","","","","",""
"","image-keyboard-response","32","35626","0.0-32.0","3PZDLQMM0U724TF5PI1G3HKR8CBC2Y","APVZGZM1RA3AZ","338431Z1FL1IVIVZ3BK6A6QS21HROA","","625.5","img/food1.png","74","626.6999999880791","1","1","1","1,0.7,0,1,0.7,0,0.7,0,1","",""
"","html-keyboard-response","33","35928","0.0-33.0","3PZDLQMM0U724TF5PI1G3HKR8CBC2Y","APVZGZM1RA3AZ","338431Z1FL1IVIVZ3BK6A6QS21HROA","","null","<img src=""img/food1.png"" style=""width:200px; border:14px solid green;"">","null","","","","","","",""
"","image-keyboard-response","34","37064","0.0-34.0","3PZDLQMM0U724TF5PI1G3HKR8CBC2Y","APVZGZM1RA3AZ","338431Z1FL1IVIVZ3BK6A6QS21HROA","","1134.5","img/food2.png","76","1135.7000000178814","3","1","3","1,0.7,0,1,0.7,0,0.7,0,1","",""
"","html-keyboard-response","35","37366","0.0-35.0","3PZDLQMM0U724TF5PI1G3HKR8CBC2Y","APVZGZM1RA3AZ","338431Z1FL1IVIVZ3BK6A6QS21HROA","","null","<img src=""img/food2.png"" style=""width:200px; border:14px solid green;"">","null","","","","","","",""
"","image-keyboard-response","36","38401","0.0-36.0","3PZDLQMM0U724TF5PI1G3HKR8CBC2Y","APVZGZM1RA3AZ","338431Z1FL1IVIVZ3BK6A6QS21HROA","","1033.800000011921","img/food3.png","74","1035","1","1","2","1,0.7,0,1,0.7,0,0.7,0,1","",""
"","html-keyboard-response","37","38703","0.0-37.0","3PZDLQMM0U724TF5PI1G3HKR8CBC2Y","APVZGZM1RA3AZ","338431Z1FL1IVIVZ3BK6A6QS21HROA","","null","<img src=""img/food3.png"" style=""width:200px; border:14px solid green;"">","null","","","","","","",""
"","image-keyboard-response","38","39352","0.0-38.0","3PZDLQMM0U724TF5PI1G3HKR8CBC2Y","APVZGZM1RA3AZ","338431Z1FL1IVIVZ3BK6A6QS21HROA","","647.8000000119209","img/food1.png","74","649","1","1","1","1,0.7,0,1,0.7,0,0.7,0,1","",""
"","html-keyboard-response","39","39653","0.0-39.0","3PZDLQMM0U724TF5PI1G3HKR8CBC2Y","APVZGZM1RA3AZ","338431Z1FL1IVIVZ3BK6A6QS21HROA","","null","<img src=""img/food1.png"" style=""width:200px; border:14px solid green;"">","null","","","","","","",""
"","image-keyboard-response","40","40272","0.0-40.0","3PZDLQMM0U724TF5PI1G3HKR8CBC2Y","APVZGZM1RA3AZ","338431Z1FL1IVIVZ3BK6A6QS21HROA","","617.5999999940395","img/food2.png","76","618.0999999940395","3","1","3","1,0.7,0,1,0.7,0,0.7,0,1","",""
"","html-keyboard-response","41","40573","0.0-41.0","3PZDLQMM0U724TF5PI1G3HKR8CBC2Y","APVZGZM1RA3AZ","338431Z1FL1IVIVZ3BK6A6QS21HROA","","null","<img src=""img/food2.png"" style=""width:200px; border:14px solid green;"">","null","","","","","","",""
"","image-keyboard-response","42","41192","0.0-42.0","3PZDLQMM0U724TF5PI1G3HKR8CBC2Y","APVZGZM1RA3AZ","338431Z1FL1IVIVZ3BK6A6QS21HROA","","617.9000000059605","img/food2.png","76","619","3","1","3","1,0.7,0,1,0.7,0,0.7,0,1","",""
"","html-keyboard-response","43","41494","0.0-43.0","3PZDLQMM0U724TF5PI1G3HKR8CBC2Y","APVZGZM1RA3AZ","338431Z1FL1IVIVZ3BK6A6QS21HROA","","null","<img src=""img/food2.png"" style=""width:200px; border:14px solid green;"">","null","","","","","","",""
"","image-keyboard-response","44","42088","0.0-44.0","3PZDLQMM0U724TF5PI1G3HKR8CBC2Y","APVZGZM1RA3AZ","338431Z1FL1IVIVZ3BK6A6QS21HROA","","592.8000000119209","img/food3.png","74","593.7999999821186","1","1","2","1,0.7,0,1,0.7,0,0.7,0,1","",""
"","html-keyboard-response","45","42391","0.0-45.0","3PZDLQMM0U724TF5PI1G3HKR8CBC2Y","APVZGZM1RA3AZ","338431Z1FL1IVIVZ3BK6A6QS21HROA","","null","<img src=""img/food3.png"" style=""width:200px; border:14px solid green;"">","null","","","","","","",""
"","image-keyboard-response","46","42888","0.0-46.0","3PZDLQMM0U724TF5PI1G3HKR8CBC2Y","APVZGZM1RA3AZ","338431Z1FL1IVIVZ3BK6A6QS21HROA","","495.69999998807907","img/food3.png","74","496.7000000178814","1","1","2","1,0.7,0,1,0.7,0,0.7,0,1","",""
"","html-keyboard-response","47","43191","0.0-47.0","3PZDLQMM0U724TF5PI1G3HKR8CBC2Y","APVZGZM1RA3AZ","338431Z1FL1IVIVZ3BK6A6QS21HROA","","null","<img src=""img/food3.png"" style=""width:200px; border:14px solid green;"">","null","","","","","","",""
"","image-keyboard-response","48","43759","0.0-48.0","3PZDLQMM0U724TF5PI1G3HKR8CBC2Y","APVZGZM1RA3AZ","338431Z1FL1IVIVZ3BK6A6QS21HROA","","566.9000000059605","img/food1.png","74","568","1","1","1","1,0.7,0,1,0.7,0,0.7,0,1","",""
"","html-keyboard-response","49","44060","0.0-49.0","3PZDLQMM0U724TF5PI1G3HKR8CBC2Y","APVZGZM1RA3AZ","338431Z1FL1IVIVZ3BK6A6QS21HROA","","null","<img src=""img/food1.png"" style=""width:200px; border:14px solid green;"">","null","","","","","","",""
"","image-keyboard-response","50","44900","0.0-50.0","3PZDLQMM0U724TF5PI1G3HKR8CBC2Y","APVZGZM1RA3AZ","338431Z1FL1IVIVZ3BK6A6QS21HROA","","839.2000000178814","img/food2.png","76","839.7999999821186","3","1","3","1,0.7,0,1,0.7,0,0.7,0,1","",""
"","html-keyboard-response","51","45203","0.0-51.0","3PZDLQMM0U724TF5PI1G3HKR8CBC2Y","APVZGZM1RA3AZ","338431Z1FL1IVIVZ3BK6A6QS21HROA","","null","<img src=""img/food2.png"" style=""width:200px; border:14px solid green;"">","null","","","","","","",""
"","image-keyboard-response","52","45815","0.0-52.0","3PZDLQMM0U724TF5PI1G3HKR8CBC2Y","APVZGZM1RA3AZ","338431Z1FL1IVIVZ3BK6A6QS21HROA","","610.9000000059605","img/food2.png","76","612.1000000238419","3","1","3","1,0.7,0,1,0.7,0,0.7,0,1","",""
"","html-keyboard-response","53","46118","0.0-53.0","3PZDLQMM0U724TF5PI1G3HKR8CBC2Y","APVZGZM1RA3AZ","338431Z1FL1IVIVZ3BK6A6QS21HROA","","null","<img src=""img/food2.png"" style=""width:200px; border:14px solid green;"">","null","","","","","","",""
"","image-keyboard-response","54","46671","0.0-54.0","3PZDLQMM0U724TF5PI1G3HKR8CBC2Y","APVZGZM1RA3AZ","338431Z1FL1IVIVZ3BK6A6QS21HROA","","552.4000000059605","img/food1.png","74","553.2000000178814","1","1","1","1,0.7,0,1,0.7,0,0.7,0,1","",""
"","html-keyboard-response","55","46973","0.0-55.0","3PZDLQMM0U724TF5PI1G3HKR8CBC2Y","APVZGZM1RA3AZ","338431Z1FL1IVIVZ3BK6A6QS21HROA","","null","<img src=""img/food1.png"" style=""width:200px; border:14px solid green;"">","null","","","","","","",""
"","image-keyboard-response","56","47567","0.0-56.0","3PZDLQMM0U724TF5PI1G3HKR8CBC2Y","APVZGZM1RA3AZ","338431Z1FL1IVIVZ3BK6A6QS21HROA","","593.2000000178814","img/food3.png","74","593.9000000059605","1","1","2","1,0.7,0,1,0.7,0,0.7,0,1","",""
"","html-keyboard-response","57","47869","0.0-57.0","3PZDLQMM0U724TF5PI1G3HKR8CBC2Y","APVZGZM1RA3AZ","338431Z1FL1IVIVZ3BK6A6QS21HROA","","null","<img src=""img/food3.png"" style=""width:200px; border:14px solid green;"">","null","","","","","","",""
"","image-keyboard-response","58","48826","0.0-58.0","3PZDLQMM0U724TF5PI1G3HKR8CBC2Y","APVZGZM1RA3AZ","338431Z1FL1IVIVZ3BK6A6QS21HROA","","956.7999999821186","img/food2.png","74","957.5","1","1","3","1,0.7,0,1,0.7,0,0.7,0,1","",""
"","html-keyboard-response","59","49128","0.0-59.0","3PZDLQMM0U724TF5PI1G3HKR8CBC2Y","APVZGZM1RA3AZ","338431Z1FL1IVIVZ3BK6A6QS21HROA","","null","<img src=""img/food2.png"" style=""width:200px; border:14px solid green;"">","null","","","","","","",""
"","image-keyboard-response","60","49855","0.0-60.0","3PZDLQMM0U724TF5PI1G3HKR8CBC2Y","APVZGZM1RA3AZ","338431Z1FL1IVIVZ3BK6A6QS21HROA","","726.8000000119209","img/food1.png","74","727.3999999761581","1","1","1","1,0.7,0,1,0.7,0,0.7,0,1","",""
"","html-keyboard-response","61","50158","0.0-61.0","3PZDLQMM0U724TF5PI1G3HKR8CBC2Y","APVZGZM1RA3AZ","338431Z1FL1IVIVZ3BK6A6QS21HROA","","null","<img src=""img/food1.png"" style=""width:200px; border:14px solid green;"">","null","","","","","","",""
"","image-keyboard-response","62","50856","0.0-62.0","3PZDLQMM0U724TF5PI1G3HKR8CBC2Y","APVZGZM1RA3AZ","338431Z1FL1IVIVZ3BK6A6QS21HROA","","697.5","img/food1.png","74","698","1","1","1","1,0.7,0,1,0.7,0,0.7,0,1","",""
"","html-keyboard-response","63","51157","0.0-63.0","3PZDLQMM0U724TF5PI1G3HKR8CBC2Y","APVZGZM1RA3AZ","338431Z1FL1IVIVZ3BK6A6QS21HROA","","null","<img src=""img/food1.png"" style=""width:200px; border:14px solid green;"">","null","","","","","","",""
"","image-keyboard-response","64","51817","0.0-64.0","3PZDLQMM0U724TF5PI1G3HKR8CBC2Y","APVZGZM1RA3AZ","338431Z1FL1IVIVZ3BK6A6QS21HROA","","657.9000000059605","img/food1.png","74","658.8000000119209","1","1","1","1,0.7,0,1,0.7,0,0.7,0,1","",""
"","html-keyboard-response","65","52119","0.0-65.0","3PZDLQMM0U724TF5PI1G3HKR8CBC2Y","APVZGZM1RA3AZ","338431Z1FL1IVIVZ3BK6A6QS21HROA","","null","<img src=""img/food1.png"" style=""width:200px; border:14px solid green;"">","null","","","","","","",""
"","image-keyboard-response","66","52833","0.0-66.0","3PZDLQMM0U724TF5PI1G3HKR8CBC2Y","APVZGZM1RA3AZ","338431Z1FL1IVIVZ3BK6A6QS21HROA","","712.7000000178814","img/food2.png","76","713.9000000059605","3","1","3","1,0.7,0,1,0.7,0,0.7,0,1","",""
"","html-keyboard-response","67","53134","0.0-67.0","3PZDLQMM0U724TF5PI1G3HKR8CBC2Y","APVZGZM1RA3AZ","338431Z1FL1IVIVZ3BK6A6QS21HROA","","null","<img src=""img/food2.png"" style=""width:200px; border:14px solid green;"">","null","","","","","","",""
"","image-keyboard-response","68","53848","0.0-68.0","3PZDLQMM0U724TF5PI1G3HKR8CBC2Y","APVZGZM1RA3AZ","338431Z1FL1IVIVZ3BK6A6QS21HROA","","712.6999999880791","img/food3.png","76","713.5999999940395","3","0","2","1,0.7,0,1,0.7,0,0.7,0,1","",""
"","html-keyboard-response","69","54151","0.0-69.0","3PZDLQMM0U724TF5PI1G3HKR8CBC2Y","APVZGZM1RA3AZ","338431Z1FL1IVIVZ3BK6A6QS21HROA","","null","<img src=""img/food3.png"" style=""width:200px;border:14px solid red;"">","null","","","","","","",""
"","image-keyboard-response","70","55411","0.0-70.0","3PZDLQMM0U724TF5PI1G3HKR8CBC2Y","APVZGZM1RA3AZ","338431Z1FL1IVIVZ3BK6A6QS21HROA","","1258.9000000059605","img/food2.png","74","1259.7999999821186","1","1","3","1,0.7,0,1,0.7,0,0.7,0,1","",""
"","html-keyboard-response","71","55712","0.0-71.0","3PZDLQMM0U724TF5PI1G3HKR8CBC2Y","APVZGZM1RA3AZ","338431Z1FL1IVIVZ3BK6A6QS21HROA","","null","<img src=""img/food2.png"" style=""width:200px; border:14px solid green;"">","null","","","","","","",""
"","image-keyboard-response","72","56424","0.0-72.0","3PZDLQMM0U724TF5PI1G3HKR8CBC2Y","APVZGZM1RA3AZ","338431Z1FL1IVIVZ3BK6A6QS21HROA","","711.0999999940395","img/food3.png","74","711.7999999821186","1","1","2","1,0.7,0,1,0.7,0,0.7,0,1","",""
"","html-keyboard-response","73","56727","0.0-73.0","3PZDLQMM0U724TF5PI1G3HKR8CBC2Y","APVZGZM1RA3AZ","338431Z1FL1IVIVZ3BK6A6QS21HROA","","null","<img src=""img/food3.png"" style=""width:200px; border:14px solid green;"">","null","","","","","","",""
"","image-keyboard-response","74","57536","0.0-74.0","3PZDLQMM0U724TF5PI1G3HKR8CBC2Y","APVZGZM1RA3AZ","338431Z1FL1IVIVZ3BK6A6QS21HROA","","806.9000000059605","img/food2.png","74","807.2999999821186","1","1","3","1,0.7,0,1,0.7,0,0.7,0,1","",""
"","html-keyboard-response","75","57838","0.0-75.0","3PZDLQMM0U724TF5PI1G3HKR8CBC2Y","APVZGZM1RA3AZ","338431Z1FL1IVIVZ3BK6A6QS21HROA","","null","<img src=""img/food2.png"" style=""width:200px; border:14px solid green;"">","null","","","","","","",""
"","image-keyboard-response","76","58848","0.0-76.0","3PZDLQMM0U724TF5PI1G3HKR8CBC2Y","APVZGZM1RA3AZ","338431Z1FL1IVIVZ3BK6A6QS21HROA","","1009","img/food3.png","74","1010.0999999940395","1","1","2","1,0.7,0,1,0.7,0,0.7,0,1","",""
"","html-keyboard-response","77","59150","0.0-77.0","3PZDLQMM0U724TF5PI1G3HKR8CBC2Y","APVZGZM1RA3AZ","338431Z1FL1IVIVZ3BK6A6QS21HROA","","null","<img src=""img/food3.png"" style=""width:200px; border:14px solid green;"">","null","","","","","","",""
"","image-keyboard-response","78","60032","0.0-78.0","3PZDLQMM0U724TF5PI1G3HKR8CBC2Y","APVZGZM1RA3AZ","338431Z1FL1IVIVZ3BK6A6QS21HROA","","880.5","img/food2.png","74","881.8000000119209","1","1","3","1,0.7,0,1,0.7,0,0.7,0,1","",""
"","html-keyboard-response","79","60333","0.0-79.0","3PZDLQMM0U724TF5PI1G3HKR8CBC2Y","APVZGZM1RA3AZ","338431Z1FL1IVIVZ3BK6A6QS21HROA","","null","<img src=""img/food2.png"" style=""width:200px; border:14px solid green;"">","null","","","","","","",""
"","image-keyboard-response","80","61024","0.0-80.0","3PZDLQMM0U724TF5PI1G3HKR8CBC2Y","APVZGZM1RA3AZ","338431Z1FL1IVIVZ3BK6A6QS21HROA","","689.8000000119209","img/food3.png","74","690.2999999821186","1","1","2","1,0.7,0,1,0.7,0,0.7,0,1","",""
"","html-keyboard-response","81","61326","0.0-81.0","3PZDLQMM0U724TF5PI1G3HKR8CBC2Y","APVZGZM1RA3AZ","338431Z1FL1IVIVZ3BK6A6QS21HROA","","null","<img src=""img/food3.png"" style=""width:200px; border:14px solid green;"">","null","","","","","","",""
"","image-keyboard-response","82","61857","0.0-82.0","3PZDLQMM0U724TF5PI1G3HKR8CBC2Y","APVZGZM1RA3AZ","338431Z1FL1IVIVZ3BK6A6QS21HROA","","528.9000000059605","img/food2.png","74","530.1999999880791","1","1","3","1,0.7,0,1,0.7,0,0.7,0,1","",""
"","html-keyboard-response","83","62161","0.0-83.0","3PZDLQMM0U724TF5PI1G3HKR8CBC2Y","APVZGZM1RA3AZ","338431Z1FL1IVIVZ3BK6A6QS21HROA","","null","<img src=""img/food2.png"" style=""width:200px; border:14px solid green;"">","null","","","","","","",""
"","image-keyboard-response","84","62704","0.0-84.0","3PZDLQMM0U724TF5PI1G3HKR8CBC2Y","APVZGZM1RA3AZ","338431Z1FL1IVIVZ3BK6A6QS21HROA","","541","img/food3.png","74","542.4000000059605","1","1","2","1,0.7,0,1,0.7,0,0.7,0,1","",""
"","html-keyboard-response","85","63006","0.0-85.0","3PZDLQMM0U724TF5PI1G3HKR8CBC2Y","APVZGZM1RA3AZ","338431Z1FL1IVIVZ3BK6A6QS21HROA","","null","<img src=""img/food3.png"" style=""width:200px; border:14px solid green;"">","null","","","","","","",""
"","image-keyboard-response","86","63671","0.0-86.0","3PZDLQMM0U724TF5PI1G3HKR8CBC2Y","APVZGZM1RA3AZ","338431Z1FL1IVIVZ3BK6A6QS21HROA","","664","img/food1.png","74","665","1","1","1","1,0.7,0,1,0.7,0,0.7,0,1","",""
"","html-keyboard-response","87","63973","0.0-87.0","3PZDLQMM0U724TF5PI1G3HKR8CBC2Y","APVZGZM1RA3AZ","338431Z1FL1IVIVZ3BK6A6QS21HROA","","null","<img src=""img/food1.png"" style=""width:200px; border:14px solid green;"">","null","","","","","","",""
"","image-keyboard-response","88","64440","0.0-88.0","3PZDLQMM0U724TF5PI1G3HKR8CBC2Y","APVZGZM1RA3AZ","338431Z1FL1IVIVZ3BK6A6QS21HROA","","466","img/food1.png","74","466.90000000596046","1","1","1","1,0.7,0,1,0.7,0,0.7,0,1","",""
"","html-keyboard-response","89","64743","0.0-89.0","3PZDLQMM0U724TF5PI1G3HKR8CBC2Y","APVZGZM1RA3AZ","338431Z1FL1IVIVZ3BK6A6QS21HROA","","null","<img src=""img/food1.png"" style=""width:200px; border:14px solid green;"">","null","","","","","","",""
"","image-keyboard-response","90","65396","0.0-90.0","3PZDLQMM0U724TF5PI1G3HKR8CBC2Y","APVZGZM1RA3AZ","338431Z1FL1IVIVZ3BK6A6QS21HROA","","651.7999999821186","img/food2.png","74","652.8000000119209","1","1","3","1,0.7,0,1,0.7,0,0.7,0,1","",""
"","html-keyboard-response","91","65698","0.0-91.0","3PZDLQMM0U724TF5PI1G3HKR8CBC2Y","APVZGZM1RA3AZ","338431Z1FL1IVIVZ3BK6A6QS21HROA","","null","<img src=""img/food2.png"" style=""width:200px; border:14px solid green;"">","null","","","","","","",""
"","image-keyboard-response","92","66133","0.0-92.0","3PZDLQMM0U724TF5PI1G3HKR8CBC2Y","APVZGZM1RA3AZ","338431Z1FL1IVIVZ3BK6A6QS21HROA","","433.40000000596046","img/food1.png","74","434.2000000178814","1","1","1","1,0.7,0,1,0.7,0,0.7,0,1","",""
"","html-keyboard-response","93","66434","0.0-93.0","3PZDLQMM0U724TF5PI1G3HKR8CBC2Y","APVZGZM1RA3AZ","338431Z1FL1IVIVZ3BK6A6QS21HROA","","null","<img src=""img/food1.png"" style=""width:200px; border:14px solid green;"">","null","","","","","","",""
"","image-keyboard-response","94","66875","0.0-94.0","3PZDLQMM0U724TF5PI1G3HKR8CBC2Y","APVZGZM1RA3AZ","338431Z1FL1IVIVZ3BK6A6QS21HROA","","439.90000000596046","img/food3.png","74","440.7999999821186","1","1","2","1,0.7,0,1,0.7,0,0.7,0,1","",""
"","html-keyboard-response","95","67177","0.0-95.0","3PZDLQMM0U724TF5PI1G3HKR8CBC2Y","APVZGZM1RA3AZ","338431Z1FL1IVIVZ3BK6A6QS21HROA","","null","<img src=""img/food3.png"" style=""width:200px; border:14px solid green;"">","null","","","","","","",""
"","image-keyboard-response","96","67568","0.0-96.0","3PZDLQMM0U724TF5PI1G3HKR8CBC2Y","APVZGZM1RA3AZ","338431Z1FL1IVIVZ3BK6A6QS21HROA","","390.5","img/food3.png","74","391.40000000596046","1","1","2","1,0.7,0,1,0.7,0,0.7,0,1","",""
"","html-keyboard-response","97","67870","0.0-97.0","3PZDLQMM0U724TF5PI1G3HKR8CBC2Y","APVZGZM1RA3AZ","338431Z1FL1IVIVZ3BK6A6QS21HROA","","null","<img src=""img/food3.png"" style=""width:200px; border:14px solid green;"">","null","","","","","","",""
"","image-keyboard-response","98","68215","0.0-98.0","3PZDLQMM0U724TF5PI1G3HKR8CBC2Y","APVZGZM1RA3AZ","338431Z1FL1IVIVZ3BK6A6QS21HROA","","344","img/food1.png","74","345","1","1","1","1,0.7,0,1,0.7,0,0.7,0,1","",""
"","html-keyboard-response","99","68517","0.0-99.0","3PZDLQMM0U724TF5PI1G3HKR8CBC2Y","APVZGZM1RA3AZ","338431Z1FL1IVIVZ3BK6A6QS21HROA","","null","<img src=""img/food1.png"" style=""width:200px; border:14px solid green;"">","null","","","","","","",""
"","image-keyboard-response","100","68904","0.0-100.0","3PZDLQMM0U724TF5PI1G3HKR8CBC2Y","APVZGZM1RA3AZ","338431Z1FL1IVIVZ3BK6A6QS21HROA","","386.5","img/food1.png","74","387.39999997615814","1","1","1","1,0.7,0,1,0.7,0,0.7,0,1","",""
"","html-keyboard-response","101","69207","0.0-101.0","3PZDLQMM0U724TF5PI1G3HKR8CBC2Y","APVZGZM1RA3AZ","338431Z1FL1IVIVZ3BK6A6QS21HROA","","null","<img src=""img/food1.png"" style=""width:200px; border:14px solid green;"">","null","","","","","","",""
"","image-keyboard-response","102","69448","0.0-102.0","3PZDLQMM0U724TF5PI1G3HKR8CBC2Y","APVZGZM1RA3AZ","338431Z1FL1IVIVZ3BK6A6QS21HROA","","240.10000002384186","img/food2.png","74","241.2999999821186","1","1","3","1,0.7,0,1,0.7,0,0.7,0,1","",""
"","html-keyboard-response","103","69750","0.0-103.0","3PZDLQMM0U724TF5PI1G3HKR8CBC2Y","APVZGZM1RA3AZ","338431Z1FL1IVIVZ3BK6A6QS21HROA","","null","<img src=""img/food2.png"" style=""width:200px; border:14px solid green;"">","null","","","","","","",""
"","image-keyboard-response","104","70128","0.0-104.0","3PZDLQMM0U724TF5PI1G3HKR8CBC2Y","APVZGZM1RA3AZ","338431Z1FL1IVIVZ3BK6A6QS21HROA","","376.40000000596046","img/food2.png","74","377.40000000596046","1","0","3","1,0.7,0,1,0.7,0,0.7,0,1","",""
"","html-keyboard-response","105","70430","0.0-105.0","3PZDLQMM0U724TF5PI1G3HKR8CBC2Y","APVZGZM1RA3AZ","338431Z1FL1IVIVZ3BK6A6QS21HROA","","null","<img src=""img/food2.png"" style=""width:200px;border:14px solid red;"">","null","","","","","","",""
"","image-keyboard-response","106","70752","0.0-106.0","3PZDLQMM0U724TF5PI1G3HKR8CBC2Y","APVZGZM1RA3AZ","338431Z1FL1IVIVZ3BK6A6QS21HROA","","321.2000000178814","img/food2.png","74","321.90000000596046","1","1","3","1,0.7,0,1,0.7,0,0.7,0,1","",""
"","html-keyboard-response","107","71054","0.0-107.0","3PZDLQMM0U724TF5PI1G3HKR8CBC2Y","APVZGZM1RA3AZ","338431Z1FL1IVIVZ3BK6A6QS21HROA","","null","<img src=""img/food2.png"" style=""width:200px; border:14px solid green;"">","null","","","","","","",""
"","image-keyboard-response","108","71361","0.0-108.0","3PZDLQMM0U724TF5PI1G3HKR8CBC2Y","APVZGZM1RA3AZ","338431Z1FL1IVIVZ3BK6A6QS21HROA","","305.10000002384186","img/food1.png","74","306.19999998807907","1","1","1","1,0.7,0,1,0.7,0,0.7,0,1","",""
"","html-keyboard-response","109","71662","0.0-109.0","3PZDLQMM0U724TF5PI1G3HKR8CBC2Y","APVZGZM1RA3AZ","338431Z1FL1IVIVZ3BK6A6QS21HROA","","null","<img src=""img/food1.png"" style=""width:200px; border:14px solid green;"">","null","","","","","","",""
"","image-keyboard-response","110","71929","0.0-110.0","3PZDLQMM0U724TF5PI1G3HKR8CBC2Y","APVZGZM1RA3AZ","338431Z1FL1IVIVZ3BK6A6QS21HROA","","265.2999999821186","img/food3.png","74","266.5","1","1","2","1,0.7,0,1,0.7,0,0.7,0,1","",""
"","html-keyboard-response","111","72231","0.0-111.0","3PZDLQMM0U724TF5PI1G3HKR8CBC2Y","APVZGZM1RA3AZ","338431Z1FL1IVIVZ3BK6A6QS21HROA","","null","<img src=""img/food3.png"" style=""width:200px; border:14px solid green;"">","null","","","","","","",""
"","image-keyboard-response","112","72471","0.0-112.0","3PZDLQMM0U724TF5PI1G3HKR8CBC2Y","APVZGZM1RA3AZ","338431Z1FL1IVIVZ3BK6A6QS21HROA","","239.5","img/food1.png","74","240.2999999821186","1","1","1","1,0.7,0,1,0.7,0,0.7,0,1","",""
"","html-keyboard-response","113","72772","0.0-113.0","3PZDLQMM0U724TF5PI1G3HKR8CBC2Y","APVZGZM1RA3AZ","338431Z1FL1IVIVZ3BK6A6QS21HROA","","null","<img src=""img/food1.png"" style=""width:200px; border:14px solid green;"">","null","","","","","","",""
"","image-keyboard-response","114","72923","0.0-114.0","3PZDLQMM0U724TF5PI1G3HKR8CBC2Y","APVZGZM1RA3AZ","338431Z1FL1IVIVZ3BK6A6QS21HROA","","149.90000000596046","img/food2.png","74","150.80000001192093","1","1","3","1,0.7,0,1,0.7,0,0.7,0,1","",""
"","html-keyboard-response","115","73226","0.0-115.0","3PZDLQMM0U724TF5PI1G3HKR8CBC2Y","APVZGZM1RA3AZ","338431Z1FL1IVIVZ3BK6A6QS21HROA","","null","<img src=""img/food2.png"" style=""width:200px; border:14px solid green;"">","null","","","","","","",""
"","image-keyboard-response","116","73346","0.0-116.0","3PZDLQMM0U724TF5PI1G3HKR8CBC2Y","APVZGZM1RA3AZ","338431Z1FL1IVIVZ3BK6A6QS21HROA","","119.09999999403954","img/food1.png","74","119.80000001192093","1","1","1","1,0.7,0,1,0.7,0,0.7,0,1","",""
"","html-keyboard-response","117","73648","0.0-117.0","3PZDLQMM0U724TF5PI1G3HKR8CBC2Y","APVZGZM1RA3AZ","338431Z1FL1IVIVZ3BK6A6QS21HROA","","null","<img src=""img/food1.png"" style=""width:200px; border:14px solid green;"">","null","","","","","","",""
"","image-keyboard-response","118","73795","0.0-118.0","3PZDLQMM0U724TF5PI1G3HKR8CBC2Y","APVZGZM1RA3AZ","338431Z1FL1IVIVZ3BK6A6QS21HROA","","146.5","img/food1.png","74","147.19999998807907","1","1","1","1,0.7,0,1,0.7,0,0.7,0,1","",""
"","html-keyboard-response","119","74098","0.0-119.0","3PZDLQMM0U724TF5PI1G3HKR8CBC2Y","APVZGZM1RA3AZ","338431Z1FL1IVIVZ3BK6A6QS21HROA","","null","<img src=""img/food1.png"" style=""width:200px; border:14px solid green;"">","null","","","","","","",""
"","image-keyboard-response","120","74321","0.0-120.0","3PZDLQMM0U724TF5PI1G3HKR8CBC2Y","APVZGZM1RA3AZ","338431Z1FL1IVIVZ3BK6A6QS21HROA","","221.69999998807907","img/food1.png","74","222.7000000178814","1","1","1","1,0.7,0,1,0.7,0,0.7,0,1","",""
"","html-keyboard-response","121","74623","0.0-121.0","3PZDLQMM0U724TF5PI1G3HKR8CBC2Y","APVZGZM1RA3AZ","338431Z1FL1IVIVZ3BK6A6QS21HROA","","null","<img src=""img/food1.png"" style=""width:200px; border:14px solid green;"">","null","","","","","","",""
"","image-keyboard-response","122","74763","0.0-122.0","3PZDLQMM0U724TF5PI1G3HKR8CBC2Y","APVZGZM1RA3AZ","338431Z1FL1IVIVZ3BK6A6QS21HROA","","139.2999999821186","img/food1.png","74","140.09999999403954","1","1","1","1,0.7,0,1,0.7,0,0.7,0,1","",""
"","html-keyboard-response","123","75065","0.0-123.0","3PZDLQMM0U724TF5PI1G3HKR8CBC2Y","APVZGZM1RA3AZ","338431Z1FL1IVIVZ3BK6A6QS21HROA","","null","<img src=""img/food1.png"" style=""width:200px; border:14px solid green;"">","null","","","","","","",""
"","image-keyboard-response","124","75145","0.0-124.0","3PZDLQMM0U724TF5PI1G3HKR8CBC2Y","APVZGZM1RA3AZ","338431Z1FL1IVIVZ3BK6A6QS21HROA","","78.7000000178814","img/food3.png","74","79.7999999821186","1","1","2","1,0.7,0,1,0.7,0,0.7,0,1","",""
"","html-keyboard-response","125","75446","0.0-125.0","3PZDLQMM0U724TF5PI1G3HKR8CBC2Y","APVZGZM1RA3AZ","338431Z1FL1IVIVZ3BK6A6QS21HROA","","null","<img src=""img/food3.png"" style=""width:200px; border:14px solid green;"">","null","","","","","","",""
"","image-keyboard-response","126","75521","0.0-126.0","3PZDLQMM0U724TF5PI1G3HKR8CBC2Y","APVZGZM1RA3AZ","338431Z1FL1IVIVZ3BK6A6QS21HROA","","72.69999998807907","img/food1.png","74","73.90000000596046","1","1","1","1,0.7,0,1,0.7,0,0.7,0,1","",""
"","html-keyboard-response","127","75823","0.0-127.0","3PZDLQMM0U724TF5PI1G3HKR8CBC2Y","APVZGZM1RA3AZ","338431Z1FL1IVIVZ3BK6A6QS21HROA","","null","<img src=""img/food1.png"" style=""width:200px; border:14px solid green;"">","null","","","","","","",""
"","image-keyboard-response","128","75920","0.0-128.0","3PZDLQMM0U724TF5PI1G3HKR8CBC2Y","APVZGZM1RA3AZ","338431Z1FL1IVIVZ3BK6A6QS21HROA","","96.09999999403954","img/food2.png","74","96.90000000596046","1","1","3","1,0.7,0,1,0.7,0,0.7,0,1","",""
"","html-keyboard-response","129","76224","0.0-129.0","3PZDLQMM0U724TF5PI1G3HKR8CBC2Y","APVZGZM1RA3AZ","338431Z1FL1IVIVZ3BK6A6QS21HROA","","null","<img src=""img/food2.png"" style=""width:200px; border:14px solid green;"">","null","","","","","","",""
"","image-keyboard-response","130","76319","0.0-130.0","3PZDLQMM0U724TF5PI1G3HKR8CBC2Y","APVZGZM1RA3AZ","338431Z1FL1IVIVZ3BK6A6QS21HROA","","94.19999998807907","img/food2.png","74","94.69999998807907","1","1","3","1,0.7,0,1,0.7,0,0.7,0,1","",""
"","html-keyboard-response","131","76621","0.0-131.0","3PZDLQMM0U724TF5PI1G3HKR8CBC2Y","APVZGZM1RA3AZ","338431Z1FL1IVIVZ3BK6A6QS21HROA","","null","<img src=""img/food2.png"" style=""width:200px; border:14px solid green;"">","null","","","","","","",""
"","image-keyboard-response","132","76707","0.0-132.0","3PZDLQMM0U724TF5PI1G3HKR8CBC2Y","APVZGZM1RA3AZ","338431Z1FL1IVIVZ3BK6A6QS21HROA","","84.5","img/food3.png","74","85.69999998807907","1","1","2","1,0.7,0,1,0.7,0,0.7,0,1","",""
"","html-keyboard-response","133","77011","0.0-133.0","3PZDLQMM0U724TF5PI1G3HKR8CBC2Y","APVZGZM1RA3AZ","338431Z1FL1IVIVZ3BK6A6QS21HROA","","null","<img src=""img/food3.png"" style=""width:200px; border:14px solid green;"">","null","","","","","","",""
"","image-keyboard-response","134","77103","0.0-134.0","3PZDLQMM0U724TF5PI1G3HKR8CBC2Y","APVZGZM1RA3AZ","338431Z1FL1IVIVZ3BK6A6QS21HROA","","90.90000000596046","img/food1.png","74","91.69999998807907","1","1","1","1,0.7,0,1,0.7,0,0.7,0,1","",""
"","html-keyboard-response","135","77404","0.0-135.0","3PZDLQMM0U724TF5PI1G3HKR8CBC2Y","APVZGZM1RA3AZ","338431Z1FL1IVIVZ3BK6A6QS21HROA","","null","<img src=""img/food1.png"" style=""width:200px; border:14px solid green;"">","null","","","","","","",""
"","image-keyboard-response","136","77503","0.0-136.0","3PZDLQMM0U724TF5PI1G3HKR8CBC2Y","APVZGZM1RA3AZ","338431Z1FL1IVIVZ3BK6A6QS21HROA","","97.40000000596046","img/food3.png","74","98.5","1","1","2","1,0.7,0,1,0.7,0,0.7,0,1","",""
"","html-keyboard-response","137","77805","0.0-137.0","3PZDLQMM0U724TF5PI1G3HKR8CBC2Y","APVZGZM1RA3AZ","338431Z1FL1IVIVZ3BK6A6QS21HROA","","null","<img src=""img/food3.png"" style=""width:200px; border:14px solid green;"">","null","","","","","","",""
"","image-keyboard-response","138","77903","0.0-138.0","3PZDLQMM0U724TF5PI1G3HKR8CBC2Y","APVZGZM1RA3AZ","338431Z1FL1IVIVZ3BK6A6QS21HROA","","97.2999999821186","img/food3.png","74","97.80000001192093","1","1","2","1,0.7,0,1,0.7,0,0.7,0,1","",""
"","html-keyboard-response","139","78205","0.0-139.0","3PZDLQMM0U724TF5PI1G3HKR8CBC2Y","APVZGZM1RA3AZ","338431Z1FL1IVIVZ3BK6A6QS21HROA","","null","<img src=""img/food3.png"" style=""width:200px; border:14px solid green;"">","null","","","","","","",""
"","image-keyboard-response","140","78319","0.0-140.0","3PZDLQMM0U724TF5PI1G3HKR8CBC2Y","APVZGZM1RA3AZ","338431Z1FL1IVIVZ3BK6A6QS21HROA","","113","img/food3.png","74","113.59999999403954","1","1","2","1,0.7,0,1,0.7,0,0.7,0,1","",""
"","html-keyboard-response","141","78620","0.0-141.0","3PZDLQMM0U724TF5PI1G3HKR8CBC2Y","APVZGZM1RA3AZ","338431Z1FL1IVIVZ3BK6A6QS21HROA","","null","<img src=""img/food3.png"" style=""width:200px; border:14px solid green;"">","null","","","","","","",""
"","image-keyboard-response","142","78704","0.0-142.0","3PZDLQMM0U724TF5PI1G3HKR8CBC2Y","APVZGZM1RA3AZ","338431Z1FL1IVIVZ3BK6A6QS21HROA","","82.80000001192093","img/food3.png","74","83.40000000596046","1","1","2","1,0.7,0,1,0.7,0,0.7,0,1","",""
"","html-keyboard-response","143","79005","0.0-143.0","3PZDLQMM0U724TF5PI1G3HKR8CBC2Y","APVZGZM1RA3AZ","338431Z1FL1IVIVZ3BK6A6QS21HROA","","null","<img src=""img/food3.png"" style=""width:200px; border:14px solid green;"">","null","","","","","","",""
"","image-keyboard-response","144","79090","0.0-144.0","3PZDLQMM0U724TF5PI1G3HKR8CBC2Y","APVZGZM1RA3AZ","338431Z1FL1IVIVZ3BK6A6QS21HROA","","83.40000000596046","img/food1.png","74","84.09999999403954","1","1","1","1,0.7,0,1,0.7,0,0.7,0,1","",""
"","html-keyboard-response","145","79391","0.0-145.0","3PZDLQMM0U724TF5PI1G3HKR8CBC2Y","APVZGZM1RA3AZ","338431Z1FL1IVIVZ3BK6A6QS21HROA","","null","<img src=""img/food1.png"" style=""width:200px; border:14px solid green;"">","null","","","","","","",""
"","image-keyboard-response","146","79503","0.0-146.0","3PZDLQMM0U724TF5PI1G3HKR8CBC2Y","APVZGZM1RA3AZ","338431Z1FL1IVIVZ3BK6A6QS21HROA","","111.59999999403954","img/food3.png","74","112.19999998807907","1","1","2","1,0.7,0,1,0.7,0,0.7,0,1","",""
"","html-keyboard-response","147","79805","0.0-147.0","3PZDLQMM0U724TF5PI1G3HKR8CBC2Y","APVZGZM1RA3AZ","338431Z1FL1IVIVZ3BK6A6QS21HROA","","null","<img src=""img/food3.png"" style=""width:200px; border:14px solid green;"">","null","","","","","","",""
"","image-keyboard-response","148","79927","0.0-148.0","3PZDLQMM0U724TF5PI1G3HKR8CBC2Y","APVZGZM1RA3AZ","338431Z1FL1IVIVZ3BK6A6QS21HROA","","121.40000000596046","img/food2.png","74","122","1","1","3","1,0.7,0,1,0.7,0,0.7,0,1","",""
"","html-keyboard-response","149","80229","0.0-149.0","3PZDLQMM0U724TF5PI1G3HKR8CBC2Y","APVZGZM1RA3AZ","338431Z1FL1IVIVZ3BK6A6QS21HROA","","null","<img src=""img/food2.png"" style=""width:200px; border:14px solid green;"">","null","","","","","","",""
"","image-keyboard-response","150","80351","0.0-150.0","3PZDLQMM0U724TF5PI1G3HKR8CBC2Y","APVZGZM1RA3AZ","338431Z1FL1IVIVZ3BK6A6QS21HROA","","121","img/food3.png","74","122.2000000178814","1","1","2","1,0.7,0,1,0.7,0,0.7,0,1","",""
"","html-keyboard-response","151","80653","0.0-151.0","3PZDLQMM0U724TF5PI1G3HKR8CBC2Y","APVZGZM1RA3AZ","338431Z1FL1IVIVZ3BK6A6QS21HROA","","null","<img src=""img/food3.png"" style=""width:200px; border:14px solid green;"">","null","","","","","","",""
"","image-keyboard-response","152","80787","0.0-152.0","3PZDLQMM0U724TF5PI1G3HKR8CBC2Y","APVZGZM1RA3AZ","338431Z1FL1IVIVZ3BK6A6QS21HROA","","132.80000001192093","img/food1.png","74","133.5","1","1","1","1,0.7,0,1,0.7,0,0.7,0,1","",""
"","html-keyboard-response","153","81088","0.0-153.0","3PZDLQMM0U724TF5PI1G3HKR8CBC2Y","APVZGZM1RA3AZ","338431Z1FL1IVIVZ3BK6A6QS21HROA","","null","<img src=""img/food1.png"" style=""width:200px; border:14px solid green;"">","null","","","","","","",""
"","image-keyboard-response","154","81201","0.0-154.0","3PZDLQMM0U724TF5PI1G3HKR8CBC2Y","APVZGZM1RA3AZ","338431Z1FL1IVIVZ3BK6A6QS21HROA","","111.10000002384186","img/food2.png","74","112","1","1","3","1,0.7,0,1,0.7,0,0.7,0,1","",""
"","html-keyboard-response","155","81514","0.0-155.0","3PZDLQMM0U724TF5PI1G3HKR8CBC2Y","APVZGZM1RA3AZ","338431Z1FL1IVIVZ3BK6A6QS21HROA","","null","<img src=""img/food2.png"" style=""width:200px; border:14px solid green;"">","null","","","","","","",""
"","image-keyboard-response","156","81635","0.0-156.0","3PZDLQMM0U724TF5PI1G3HKR8CBC2Y","APVZGZM1RA3AZ","338431Z1FL1IVIVZ3BK6A6QS21HROA","","119.5","img/food1.png","74","120.89999997615814","1","1","1","1,0.7,0,1,0.7,0,0.7,0,1","",""
"","html-keyboard-response","157","81937","0.0-157.0","3PZDLQMM0U724TF5PI1G3HKR8CBC2Y","APVZGZM1RA3AZ","338431Z1FL1IVIVZ3BK6A6QS21HROA","","null","<img src=""img/food1.png"" style=""width:200px; border:14px solid green;"">","null","","","","","","",""
"","image-keyboard-response","158","82050","0.0-158.0","3PZDLQMM0U724TF5PI1G3HKR8CBC2Y","APVZGZM1RA3AZ","338431Z1FL1IVIVZ3BK6A6QS21HROA","","111.69999998807907","img/food3.png","74","113","1","1","2","1,0.7,0,1,0.7,0,0.7,0,1","",""
"","html-keyboard-response","159","82352","0.0-159.0","3PZDLQMM0U724TF5PI1G3HKR8CBC2Y","APVZGZM1RA3AZ","338431Z1FL1IVIVZ3BK6A6QS21HROA","","null","<img src=""img/food3.png"" style=""width:200px; border:14px solid green;"">","null","","","","","","",""
"","image-keyboard-response","160","82456","0.0-160.0","3PZDLQMM0U724TF5PI1G3HKR8CBC2Y","APVZGZM1RA3AZ","338431Z1FL1IVIVZ3BK6A6QS21HROA","","102.59999999403954","img/food1.png","74","103.69999998807907","1","1","1","1,0.7,0,1,0.7,0,0.7,0,1","",""
"","html-keyboard-response","161","82758","0.0-161.0","3PZDLQMM0U724TF5PI1G3HKR8CBC2Y","APVZGZM1RA3AZ","338431Z1FL1IVIVZ3BK6A6QS21HROA","","null","<img src=""img/food1.png"" style=""width:200px; border:14px solid green;"">","null","","","","","","",""
"","image-keyboard-response","162","82882","0.0-162.0","3PZDLQMM0U724TF5PI1G3HKR8CBC2Y","APVZGZM1RA3AZ","338431Z1FL1IVIVZ3BK6A6QS21HROA","","123.40000000596046","img/food2.png","74","124.10000002384186","1","1","3","1,0.7,0,1,0.7,0,0.7,0,1","",""
"","html-keyboard-response","163","83185","0.0-163.0","3PZDLQMM0U724TF5PI1G3HKR8CBC2Y","APVZGZM1RA3AZ","338431Z1FL1IVIVZ3BK6A6QS21HROA","","null","<img src=""img/food2.png"" style=""width:200px; border:14px solid green;"">","null","","","","","","",""
"","image-keyboard-response","164","83304","0.0-164.0","3PZDLQMM0U724TF5PI1G3HKR8CBC2Y","APVZGZM1RA3AZ","338431Z1FL1IVIVZ3BK6A6QS21HROA","","118.09999999403954","img/food3.png","74","118.7999999821186","1","1","2","1,0.7,0,1,0.7,0,0.7,0,1","",""
"","html-keyboard-response","165","83605","0.0-165.0","3PZDLQMM0U724TF5PI1G3HKR8CBC2Y","APVZGZM1RA3AZ","338431Z1FL1IVIVZ3BK6A6QS21HROA","","null","<img src=""img/food3.png"" style=""width:200px; border:14px solid green;"">","null","","","","","","",""
"","image-keyboard-response","166","83728","0.0-166.0","3PZDLQMM0U724TF5PI1G3HKR8CBC2Y","APVZGZM1RA3AZ","338431Z1FL1IVIVZ3BK6A6QS21HROA","","122","img/food2.png","74","123.09999999403954","1","0","3","1,0.7,0,1,0.7,0,0.7,0,1","",""
"","html-keyboard-response","167","84030","0.0-167.0","3PZDLQMM0U724TF5PI1G3HKR8CBC2Y","APVZGZM1RA3AZ","338431Z1FL1IVIVZ3BK6A6QS21HROA","","null","<img src=""img/food2.png"" style=""width:200px;border:14px solid red;"">","null","","","","","","",""
"","image-keyboard-response","168","84152","0.0-168.0","3PZDLQMM0U724TF5PI1G3HKR8CBC2Y","APVZGZM1RA3AZ","338431Z1FL1IVIVZ3BK6A6QS21HROA","","120","img/food1.png","74","121.19999998807907","1","1","1","1,0.7,0,1,0.7,0,0.7,0,1","",""
"","html-keyboard-response","169","84454","0.0-169.0","3PZDLQMM0U724TF5PI1G3HKR8CBC2Y","APVZGZM1RA3AZ","338431Z1FL1IVIVZ3BK6A6QS21HROA","","null","<img src=""img/food1.png"" style=""width:200px; border:14px solid green;"">","null","","","","","","",""
"","image-keyboard-response","170","84928","0.0-170.0","3PZDLQMM0U724TF5PI1G3HKR8CBC2Y","APVZGZM1RA3AZ","338431Z1FL1IVIVZ3BK6A6QS21HROA","","472.5","img/food2.png","74","473.39999997615814","1","1","3","1,0.7,0,1,0.7,0,0.7,0,1","",""
"","html-keyboard-response","171","85229","0.0-171.0","3PZDLQMM0U724TF5PI1G3HKR8CBC2Y","APVZGZM1RA3AZ","338431Z1FL1IVIVZ3BK6A6QS21HROA","","null","<img src=""img/food2.png"" style=""width:200px; border:14px solid green;"">","null","","","","","","",""
"","image-keyboard-response","172","85434","0.0-172.0","3PZDLQMM0U724TF5PI1G3HKR8CBC2Y","APVZGZM1RA3AZ","338431Z1FL1IVIVZ3BK6A6QS21HROA","","203.90000000596046","img/food3.png","74","205","1","1","2","1,0.7,0,1,0.7,0,0.7,0,1","",""
"","html-keyboard-response","173","85736","0.0-173.0","3PZDLQMM0U724TF5PI1G3HKR8CBC2Y","APVZGZM1RA3AZ","338431Z1FL1IVIVZ3BK6A6QS21HROA","","null","<img src=""img/food3.png"" style=""width:200px; border:14px solid green;"">","null","","","","","","",""
"","image-keyboard-response","174","85882","0.0-174.0","3PZDLQMM0U724TF5PI1G3HKR8CBC2Y","APVZGZM1RA3AZ","338431Z1FL1IVIVZ3BK6A6QS21HROA","","144.59999999403954","img/food2.png","74","145.7999999821186","1","1","3","1,0.7,0,1,0.7,0,0.7,0,1","",""
"","html-keyboard-response","175","86184","0.0-175.0","3PZDLQMM0U724TF5PI1G3HKR8CBC2Y","APVZGZM1RA3AZ","338431Z1FL1IVIVZ3BK6A6QS21HROA","","null","<img src=""img/food2.png"" style=""width:200px; border:14px solid green;"">","null","","","","","","",""
"","image-keyboard-response","176","86352","0.0-176.0","3PZDLQMM0U724TF5PI1G3HKR8CBC2Y","APVZGZM1RA3AZ","338431Z1FL1IVIVZ3BK6A6QS21HROA","","167.5","img/food2.png","74","168.10000002384186","1","1","3","1,0.7,0,1,0.7,0,0.7,0,1","",""
"","html-keyboard-response","177","86654","0.0-177.0","3PZDLQMM0U724TF5PI1G3HKR8CBC2Y","APVZGZM1RA3AZ","338431Z1FL1IVIVZ3BK6A6QS21HROA","","null","<img src=""img/food2.png"" style=""width:200px; border:14px solid green;"">","null","","","","","","",""
"","image-keyboard-response","178","86785","0.0-178.0","3PZDLQMM0U724TF5PI1G3HKR8CBC2Y","APVZGZM1RA3AZ","338431Z1FL1IVIVZ3BK6A6QS21HROA","","130.59999999403954","img/food1.png","74","131.19999998807907","1","1","1","1,0.7,0,1,0.7,0,0.7,0,1","",""
"","html-keyboard-response","179","87086","0.0-179.0","3PZDLQMM0U724TF5PI1G3HKR8CBC2Y","APVZGZM1RA3AZ","338431Z1FL1IVIVZ3BK6A6QS21HROA","","null","<img src=""img/food1.png"" style=""width:200px; border:14px solid green;"">","null","","","","","","",""
"","image-keyboard-response","180","87225","0.0-180.0","3PZDLQMM0U724TF5PI1G3HKR8CBC2Y","APVZGZM1RA3AZ","338431Z1FL1IVIVZ3BK6A6QS21HROA","","137.30000001192093","img/food3.png","74","138.40000000596046","1","1","2","1,0.7,0,1,0.7,0,0.7,0,1","",""
"","html-keyboard-response","181","87528","0.0-181.0","3PZDLQMM0U724TF5PI1G3HKR8CBC2Y","APVZGZM1RA3AZ","338431Z1FL1IVIVZ3BK6A6QS21HROA","","null","<img src=""img/food3.png"" style=""width:200px; border:14px solid green;"">","null","","","","","","",""
"","html-keyboard-response","182","90354","0.0-182.0","3PZDLQMM0U724TF5PI1G3HKR8CBC2Y","APVZGZM1RA3AZ","338431Z1FL1IVIVZ3BK6A6QS21HROA","","","","","","","","","","",""
"","instructions","183","103283","0.0-183.0","3PZDLQMM0U724TF5PI1G3HKR8CBC2Y","APVZGZM1RA3AZ","338431Z1FL1IVIVZ3BK6A6QS21HROA","[{""page_index"":0,""viewing_time"":11390.5},{""page_index"":1,""viewing_time"":1536.300000011921}]","12927.09999999404","","","","","","","","",""
"","image-keyboard-response","184","104285","0.0-184.0","3PZDLQMM0U724TF5PI1G3HKR8CBC2Y","APVZGZM1RA3AZ","338431Z1FL1IVIVZ3BK6A6QS21HROA","","","img/food5.png","","1002.4000000059605","-1","0","2","1,0.7,0,1,0.7,0,0.7,0,1","true",""
"","html-keyboard-response","185","104587","0.0-185.0","3PZDLQMM0U724TF5PI1G3HKR8CBC2Y","APVZGZM1RA3AZ","338431Z1FL1IVIVZ3BK6A6QS21HROA","","null","<img src=""img/food5.png"" style=""width:200px;border:14px solid red;"">","null","","","","","","",""
"","html-keyboard-response","186","110378","0.0-186.0-0.0","3PZDLQMM0U724TF5PI1G3HKR8CBC2Y","APVZGZM1RA3AZ","338431Z1FL1IVIVZ3BK6A6QS21HROA","","","","","","","","","","",""
"","image-keyboard-response","187","111279","0.0-187.0","3PZDLQMM0U724TF5PI1G3HKR8CBC2Y","APVZGZM1RA3AZ","338431Z1FL1IVIVZ3BK6A6QS21HROA","","899.4000000059605","img/food4.png","74","900.5","1","1","3","1,0.7,0,1,0.7,0,0.7,0,1","false",""
"","html-keyboard-response","188","111580","0.0-188.0","3PZDLQMM0U724TF5PI1G3HKR8CBC2Y","APVZGZM1RA3AZ","338431Z1FL1IVIVZ3BK6A6QS21HROA","","null","<img src=""img/food4.png"" style=""width:200px; border:14px solid green;"">","null","","","","","","",""
"","image-keyboard-response","189","112209","0.0-190.0","3PZDLQMM0U724TF5PI1G3HKR8CBC2Y","APVZGZM1RA3AZ","338431Z1FL1IVIVZ3BK6A6QS21HROA","","626.2999999821186","img/food4.png","74","627.5","1","0","3","1,0.7,0,1,0.7,0,0.7,0,1","false",""
"","html-keyboard-response","190","112510","0.0-191.0","3PZDLQMM0U724TF5PI1G3HKR8CBC2Y","APVZGZM1RA3AZ","338431Z1FL1IVIVZ3BK6A6QS21HROA","","null","<img src=""img/food4.png"" style=""width:200px;border:14px solid red;"">","null","","","","","","",""
"","image-keyboard-response","191","113192","0.0-193.0","3PZDLQMM0U724TF5PI1G3HKR8CBC2Y","APVZGZM1RA3AZ","338431Z1FL1IVIVZ3BK6A6QS21HROA","","680.3000000119209","img/food6.png","75","681.3000000119209","2","1","1","1,0.7,0,1,0.7,0,0.7,0,1","false",""
"","html-keyboard-response","192","113494","0.0-194.0","3PZDLQMM0U724TF5PI1G3HKR8CBC2Y","APVZGZM1RA3AZ","338431Z1FL1IVIVZ3BK6A6QS21HROA","","null","<img src=""img/food6.png"" style=""width:200px; border:14px solid green;"">","null","","","","","","",""
"","image-keyboard-response","193","114039","0.0-196.0","3PZDLQMM0U724TF5PI1G3HKR8CBC2Y","APVZGZM1RA3AZ","338431Z1FL1IVIVZ3BK6A6QS21HROA","","543.2000000178814","img/food6.png","75","544.1999999880791","2","1","1","1,0.7,0,1,0.7,0,0.7,0,1","false",""
"","html-keyboard-response","194","114341","0.0-197.0","3PZDLQMM0U724TF5PI1G3HKR8CBC2Y","APVZGZM1RA3AZ","338431Z1FL1IVIVZ3BK6A6QS21HROA","","null","<img src=""img/food6.png"" style=""width:200px; border:14px solid green;"">","null","","","","","","",""
"","image-keyboard-response","195","114725","0.0-199.0","3PZDLQMM0U724TF5PI1G3HKR8CBC2Y","APVZGZM1RA3AZ","338431Z1FL1IVIVZ3BK6A6QS21HROA","","382.60000002384186","img/food4.png","75","383.59999999403954","2","0","3","1,0.7,0,1,0.7,0,0.7,0,1","false",""
"","html-keyboard-response","196","115026","0.0-200.0","3PZDLQMM0U724TF5PI1G3HKR8CBC2Y","APVZGZM1RA3AZ","338431Z1FL1IVIVZ3BK6A6QS21HROA","","null","<img src=""img/food4.png"" style=""width:200px;border:14px solid red;"">","null","","","","","","",""
"","image-keyboard-response","197","115128","0.0-202.0","3PZDLQMM0U724TF5PI1G3HKR8CBC2Y","APVZGZM1RA3AZ","338431Z1FL1IVIVZ3BK6A6QS21HROA","","100.7000000178814","img/food6.png","74","101.80000001192093","1","1","1","1,0.7,0,1,0.7,0,0.7,0,1","false",""
"","html-keyboard-response","198","115431","0.0-203.0","3PZDLQMM0U724TF5PI1G3HKR8CBC2Y","APVZGZM1RA3AZ","338431Z1FL1IVIVZ3BK6A6QS21HROA","","null","<img src=""img/food6.png"" style=""width:200px; border:14px solid green;"">","null","","","","","","",""
"","image-keyboard-response","199","115977","0.0-205.0","3PZDLQMM0U724TF5PI1G3HKR8CBC2Y","APVZGZM1RA3AZ","338431Z1FL1IVIVZ3BK6A6QS21HROA","","543.5","img/food4.png","75","544.9000000059605","2","0","3","1,0.7,0,1,0.7,0,0.7,0,1","false",""
"","html-keyboard-response","200","116279","0.0-206.0","3PZDLQMM0U724TF5PI1G3HKR8CBC2Y","APVZGZM1RA3AZ","338431Z1FL1IVIVZ3BK6A6QS21HROA","","null","<img src=""img/food4.png"" style=""width:200px;border:14px solid red;"">","null","","","","","","",""
"","image-keyboard-response","201","116553","0.0-208.0","3PZDLQMM0U724TF5PI1G3HKR8CBC2Y","APVZGZM1RA3AZ","338431Z1FL1IVIVZ3BK6A6QS21HROA","","272.2999999821186","img/food4.png","74","273.19999998807907","1","1","3","1,0.7,0,1,0.7,0,0.7,0,1","false",""
"","html-keyboard-response","202","116855","0.0-209.0","3PZDLQMM0U724TF5PI1G3HKR8CBC2Y","APVZGZM1RA3AZ","338431Z1FL1IVIVZ3BK6A6QS21HROA","","null","<img src=""img/food4.png"" style=""width:200px; border:14px solid green;"">","null","","","","","","",""
"","image-keyboard-response","203","117536","0.0-211.0","3PZDLQMM0U724TF5PI1G3HKR8CBC2Y","APVZGZM1RA3AZ","338431Z1FL1IVIVZ3BK6A6QS21HROA","","680.2000000178814","img/food6.png","74","681","1","1","1","1,0.7,0,1,0.7,0,0.7,0,1","false",""
"","html-keyboard-response","204","117837","0.0-212.0","3PZDLQMM0U724TF5PI1G3HKR8CBC2Y","APVZGZM1RA3AZ","338431Z1FL1IVIVZ3BK6A6QS21HROA","","null","<img src=""img/food6.png"" style=""width:200px; border:14px solid green;"">","null","","","","","","",""
"","image-keyboard-response","205","118321","0.0-214.0","3PZDLQMM0U724TF5PI1G3HKR8CBC2Y","APVZGZM1RA3AZ","338431Z1FL1IVIVZ3BK6A6QS21HROA","","482.5","img/food5.png","74","483.5","1","1","2","1,0.7,0,1,0.7,0,0.7,0,1","false",""
"","html-keyboard-response","206","118623","0.0-215.0","3PZDLQMM0U724TF5PI1G3HKR8CBC2Y","APVZGZM1RA3AZ","338431Z1FL1IVIVZ3BK6A6QS21HROA","","null","<img src=""img/food5.png"" style=""width:200px; border:14px solid green;"">","null","","","","","","",""
"","image-keyboard-response","207","118928","0.0-217.0","3PZDLQMM0U724TF5PI1G3HKR8CBC2Y","APVZGZM1RA3AZ","338431Z1FL1IVIVZ3BK6A6QS21HROA","","303.5","img/food4.png","74","304.80000001192093","1","1","3","1,0.7,0,1,0.7,0,0.7,0,1","false",""
"","html-keyboard-response","208","119231","0.0-218.0","3PZDLQMM0U724TF5PI1G3HKR8CBC2Y","APVZGZM1RA3AZ","338431Z1FL1IVIVZ3BK6A6QS21HROA","","null","<img src=""img/food4.png"" style=""width:200px; border:14px solid green;"">","null","","","","","","",""
"","image-keyboard-response","209","119537","0.0-220.0","3PZDLQMM0U724TF5PI1G3HKR8CBC2Y","APVZGZM1RA3AZ","338431Z1FL1IVIVZ3BK6A6QS21HROA","","303.19999998807907","img/food5.png","74","305.10000002384186","1","1","2","1,0.7,0,1,0.7,0,0.7,0,1","false",""
"","html-keyboard-response","210","119840","0.0-221.0","3PZDLQMM0U724TF5PI1G3HKR8CBC2Y","APVZGZM1RA3AZ","338431Z1FL1IVIVZ3BK6A6QS21HROA","","null","<img src=""img/food5.png"" style=""width:200px; border:14px solid green;"">","null","","","","","","",""
"","image-keyboard-response","211","120016","0.0-223.0","3PZDLQMM0U724TF5PI1G3HKR8CBC2Y","APVZGZM1RA3AZ","338431Z1FL1IVIVZ3BK6A6QS21HROA","","174.7999999821186","img/food4.png","74","176","1","1","3","1,0.7,0,1,0.7,0,0.7,0,1","false",""
"","html-keyboard-response","212","120318","0.0-224.0","3PZDLQMM0U724TF5PI1G3HKR8CBC2Y","APVZGZM1RA3AZ","338431Z1FL1IVIVZ3BK6A6QS21HROA","","null","<img src=""img/food4.png"" style=""width:200px; border:14px solid green;"">","null","","","","","","",""
"","image-keyboard-response","213","120487","0.0-226.0","3PZDLQMM0U724TF5PI1G3HKR8CBC2Y","APVZGZM1RA3AZ","338431Z1FL1IVIVZ3BK6A6QS21HROA","","168.5","img/food4.png","74","169.19999998807907","1","1","3","1,0.7,0,1,0.7,0,0.7,0,1","false",""
"","html-keyboard-response","214","120789","0.0-227.0","3PZDLQMM0U724TF5PI1G3HKR8CBC2Y","APVZGZM1RA3AZ","338431Z1FL1IVIVZ3BK6A6QS21HROA","","null","<img src=""img/food4.png"" style=""width:200px; border:14px solid green;"">","null","","","","","","",""
"","image-keyboard-response","215","120936","0.0-229.0","3PZDLQMM0U724TF5PI1G3HKR8CBC2Y","APVZGZM1RA3AZ","338431Z1FL1IVIVZ3BK6A6QS21HROA","","145.69999998807907","img/food5.png","74","146.7000000178814","1","1","2","1,0.7,0,1,0.7,0,0.7,0,1","false",""
"","html-keyboard-response","216","121250","0.0-230.0","3PZDLQMM0U724TF5PI1G3HKR8CBC2Y","APVZGZM1RA3AZ","338431Z1FL1IVIVZ3BK6A6QS21HROA","","null","<img src=""img/food5.png"" style=""width:200px; border:14px solid green;"">","null","","","","","","",""
"","image-keyboard-response","217","121368","0.0-232.0","3PZDLQMM0U724TF5PI1G3HKR8CBC2Y","APVZGZM1RA3AZ","338431Z1FL1IVIVZ3BK6A6QS21HROA","","116.90000000596046","img/food5.png","74","117.89999997615814","1","1","2","1,0.7,0,1,0.7,0,0.7,0,1","false",""
"","html-keyboard-response","218","121670","0.0-233.0","3PZDLQMM0U724TF5PI1G3HKR8CBC2Y","APVZGZM1RA3AZ","338431Z1FL1IVIVZ3BK6A6QS21HROA","","null","<img src=""img/food5.png"" style=""width:200px; border:14px solid green;"">","null","","","","","","",""
"","image-keyboard-response","219","121904","0.0-235.0","3PZDLQMM0U724TF5PI1G3HKR8CBC2Y","APVZGZM1RA3AZ","338431Z1FL1IVIVZ3BK6A6QS21HROA","","232.39999997615814","img/food4.png","74","233.7999999821186","1","1","3","1,0.7,0,1,0.7,0,0.7,0,1","false",""
"","html-keyboard-response","220","122207","0.0-236.0","3PZDLQMM0U724TF5PI1G3HKR8CBC2Y","APVZGZM1RA3AZ","338431Z1FL1IVIVZ3BK6A6QS21HROA","","null","<img src=""img/food4.png"" style=""width:200px; border:14px solid green;"">","null","","","","","","",""
"","image-keyboard-response","221","122408","0.0-238.0","3PZDLQMM0U724TF5PI1G3HKR8CBC2Y","APVZGZM1RA3AZ","338431Z1FL1IVIVZ3BK6A6QS21HROA","","200.7000000178814","img/food5.png","74","201.5","1","1","2","1,0.7,0,1,0.7,0,0.7,0,1","false",""
"","html-keyboard-response","222","122711","0.0-239.0","3PZDLQMM0U724TF5PI1G3HKR8CBC2Y","APVZGZM1RA3AZ","338431Z1FL1IVIVZ3BK6A6QS21HROA","","null","<img src=""img/food5.png"" style=""width:200px; border:14px solid green;"">","null","","","","","","",""
"","image-keyboard-response","223","122881","0.0-241.0","3PZDLQMM0U724TF5PI1G3HKR8CBC2Y","APVZGZM1RA3AZ","338431Z1FL1IVIVZ3BK6A6QS21HROA","","168","img/food5.png","74","169.19999998807907","1","1","2","1,0.7,0,1,0.7,0,0.7,0,1","false",""
"","html-keyboard-response","224","123183","0.0-242.0","3PZDLQMM0U724TF5PI1G3HKR8CBC2Y","APVZGZM1RA3AZ","338431Z1FL1IVIVZ3BK6A6QS21HROA","","null","<img src=""img/food5.png"" style=""width:200px; border:14px solid green;"">","null","","","","","","",""
"","image-keyboard-response","225","123304","0.0-244.0","3PZDLQMM0U724TF5PI1G3HKR8CBC2Y","APVZGZM1RA3AZ","338431Z1FL1IVIVZ3BK6A6QS21HROA","","119.7000000178814","img/food4.png","74","120.80000001192093","1","1","3","1,0.7,0,1,0.7,0,0.7,0,1","false",""
"","html-keyboard-response","226","123606","0.0-245.0","3PZDLQMM0U724TF5PI1G3HKR8CBC2Y","APVZGZM1RA3AZ","338431Z1FL1IVIVZ3BK6A6QS21HROA","","null","<img src=""img/food4.png"" style=""width:200px; border:14px solid green;"">","null","","","","","","",""
"","image-keyboard-response","227","123753","0.0-247.0","3PZDLQMM0U724TF5PI1G3HKR8CBC2Y","APVZGZM1RA3AZ","338431Z1FL1IVIVZ3BK6A6QS21HROA","","145.30000001192093","img/food6.png","74","146.09999999403954","1","1","1","1,0.7,0,1,0.7,0,0.7,0,1","false",""
"","html-keyboard-response","228","124055","0.0-248.0","3PZDLQMM0U724TF5PI1G3HKR8CBC2Y","APVZGZM1RA3AZ","338431Z1FL1IVIVZ3BK6A6QS21HROA","","null","<img src=""img/food6.png"" style=""width:200px; border:14px solid green;"">","null","","","","","","",""
"","image-keyboard-response","229","124168","0.0-250.0","3PZDLQMM0U724TF5PI1G3HKR8CBC2Y","APVZGZM1RA3AZ","338431Z1FL1IVIVZ3BK6A6QS21HROA","","111.5","img/food6.png","74","112.80000001192093","1","1","1","1,0.7,0,1,0.7,0,0.7,0,1","false",""
"","html-keyboard-response","230","124470","0.0-251.0","3PZDLQMM0U724TF5PI1G3HKR8CBC2Y","APVZGZM1RA3AZ","338431Z1FL1IVIVZ3BK6A6QS21HROA","","null","<img src=""img/food6.png"" style=""width:200px; border:14px solid green;"">","null","","","","","","",""
"","image-keyboard-response","231","124603","0.0-253.0","3PZDLQMM0U724TF5PI1G3HKR8CBC2Y","APVZGZM1RA3AZ","338431Z1FL1IVIVZ3BK6A6QS21HROA","","131.40000000596046","img/food5.png","74","132.59999999403954","1","1","2","1,0.7,0,1,0.7,0,0.7,0,1","false",""
"","html-keyboard-response","232","124906","0.0-254.0","3PZDLQMM0U724TF5PI1G3HKR8CBC2Y","APVZGZM1RA3AZ","338431Z1FL1IVIVZ3BK6A6QS21HROA","","null","<img src=""img/food5.png"" style=""width:200px; border:14px solid green;"">","null","","","","","","",""
"","image-keyboard-response","233","125016","0.0-256.0","3PZDLQMM0U724TF5PI1G3HKR8CBC2Y","APVZGZM1RA3AZ","338431Z1FL1IVIVZ3BK6A6QS21HROA","","108.09999999403954","img/food4.png","74","109.10000002384186","1","1","3","1,0.7,0,1,0.7,0,0.7,0,1","false",""
"","html-keyboard-response","234","125317","0.0-257.0","3PZDLQMM0U724TF5PI1G3HKR8CBC2Y","APVZGZM1RA3AZ","338431Z1FL1IVIVZ3BK6A6QS21HROA","","null","<img src=""img/food4.png"" style=""width:200px; border:14px solid green;"">","null","","","","","","",""
"","image-keyboard-response","235","125445","0.0-259.0","3PZDLQMM0U724TF5PI1G3HKR8CBC2Y","APVZGZM1RA3AZ","338431Z1FL1IVIVZ3BK6A6QS21HROA","","126.30000001192093","img/food5.png","74","127","1","1","2","1,0.7,0,1,0.7,0,0.7,0,1","false",""
"","html-keyboard-response","236","125747","0.0-260.0","3PZDLQMM0U724TF5PI1G3HKR8CBC2Y","APVZGZM1RA3AZ","338431Z1FL1IVIVZ3BK6A6QS21HROA","","null","<img src=""img/food5.png"" style=""width:200px; border:14px solid green;"">","null","","","","","","",""
"","image-keyboard-response","237","125877","0.0-262.0","3PZDLQMM0U724TF5PI1G3HKR8CBC2Y","APVZGZM1RA3AZ","338431Z1FL1IVIVZ3BK6A6QS21HROA","","129.2000000178814","img/food5.png","74","130.09999999403954","1","1","2","1,0.7,0,1,0.7,0,0.7,0,1","false",""
"","html-keyboard-response","238","126179","0.0-263.0","3PZDLQMM0U724TF5PI1G3HKR8CBC2Y","APVZGZM1RA3AZ","338431Z1FL1IVIVZ3BK6A6QS21HROA","","null","<img src=""img/food5.png"" style=""width:200px; border:14px solid green;"">","null","","","","","","",""
"","image-keyboard-response","239","126281","0.0-265.0","3PZDLQMM0U724TF5PI1G3HKR8CBC2Y","APVZGZM1RA3AZ","338431Z1FL1IVIVZ3BK6A6QS21HROA","","100.2000000178814","img/food6.png","74","101.30000001192093","1","1","1","1,0.7,0,1,0.7,0,0.7,0,1","false",""
"","html-keyboard-response","240","126590","0.0-266.0","3PZDLQMM0U724TF5PI1G3HKR8CBC2Y","APVZGZM1RA3AZ","338431Z1FL1IVIVZ3BK6A6QS21HROA","","null","<img src=""img/food6.png"" style=""width:200px; border:14px solid green;"">","null","","","","","","",""
"","image-keyboard-response","241","126704","0.0-268.0","3PZDLQMM0U724TF5PI1G3HKR8CBC2Y","APVZGZM1RA3AZ","338431Z1FL1IVIVZ3BK6A6QS21HROA","","112.7999999821186","img/food4.png","74","113.90000000596046","1","1","3","1,0.7,0,1,0.7,0,0.7,0,1","false",""
"","html-keyboard-response","242","127006","0.0-269.0","3PZDLQMM0U724TF5PI1G3HKR8CBC2Y","APVZGZM1RA3AZ","338431Z1FL1IVIVZ3BK6A6QS21HROA","","null","<img src=""img/food4.png"" style=""width:200px; border:14px solid green;"">","null","","","","","","",""
"","image-keyboard-response","243","127143","0.0-271.0","3PZDLQMM0U724TF5PI1G3HKR8CBC2Y","APVZGZM1RA3AZ","338431Z1FL1IVIVZ3BK6A6QS21HROA","","135.59999999403954","img/food5.png","74","136.59999999403954","1","1","2","1,0.7,0,1,0.7,0,0.7,0,1","false",""
"","html-keyboard-response","244","127445","0.0-272.0","3PZDLQMM0U724TF5PI1G3HKR8CBC2Y","APVZGZM1RA3AZ","338431Z1FL1IVIVZ3BK6A6QS21HROA","","null","<img src=""img/food5.png"" style=""width:200px; border:14px solid green;"">","null","","","","","","",""
"","image-keyboard-response","245","127552","0.0-274.0","3PZDLQMM0U724TF5PI1G3HKR8CBC2Y","APVZGZM1RA3AZ","338431Z1FL1IVIVZ3BK6A6QS21HROA","","105.80000001192093","img/food6.png","74","106.90000000596046","1","1","1","1,0.7,0,1,0.7,0,0.7,0,1","false",""
"","html-keyboard-response","246","127855","0.0-275.0","3PZDLQMM0U724TF5PI1G3HKR8CBC2Y","APVZGZM1RA3AZ","338431Z1FL1IVIVZ3BK6A6QS21HROA","","null","<img src=""img/food6.png"" style=""width:200px; border:14px solid green;"">","null","","","","","","",""
"","image-keyboard-response","247","128001","0.0-277.0","3PZDLQMM0U724TF5PI1G3HKR8CBC2Y","APVZGZM1RA3AZ","338431Z1FL1IVIVZ3BK6A6QS21HROA","","144.19999998807907","img/food6.png","74","145.5","1","1","1","1,0.7,0,1,0.7,0,0.7,0,1","false",""
"","html-keyboard-response","248","128303","0.0-278.0","3PZDLQMM0U724TF5PI1G3HKR8CBC2Y","APVZGZM1RA3AZ","338431Z1FL1IVIVZ3BK6A6QS21HROA","","null","<img src=""img/food6.png"" style=""width:200px; border:14px solid green;"">","null","","","","","","",""
"","image-keyboard-response","249","128416","0.0-280.0","3PZDLQMM0U724TF5PI1G3HKR8CBC2Y","APVZGZM1RA3AZ","338431Z1FL1IVIVZ3BK6A6QS21HROA","","112.60000002384186","img/food5.png","74","113.2999999821186","1","1","2","1,0.7,0,1,0.7,0,0.7,0,1","false",""
"","html-keyboard-response","250","128719","0.0-281.0","3PZDLQMM0U724TF5PI1G3HKR8CBC2Y","APVZGZM1RA3AZ","338431Z1FL1IVIVZ3BK6A6QS21HROA","","null","<img src=""img/food5.png"" style=""width:200px; border:14px solid green;"">","null","","","","","","",""
"","image-keyboard-response","251","128825","0.0-283.0","3PZDLQMM0U724TF5PI1G3HKR8CBC2Y","APVZGZM1RA3AZ","338431Z1FL1IVIVZ3BK6A6QS21HROA","","103.69999998807907","img/food5.png","74","105","1","1","2","1,0.7,0,1,0.7,0,0.7,0,1","false",""
"","html-keyboard-response","252","129126","0.0-284.0","3PZDLQMM0U724TF5PI1G3HKR8CBC2Y","APVZGZM1RA3AZ","338431Z1FL1IVIVZ3BK6A6QS21HROA","","null","<img src=""img/food5.png"" style=""width:200px; border:14px solid green;"">","null","","","","","","",""
"","image-keyboard-response","253","129248","0.0-286.0","3PZDLQMM0U724TF5PI1G3HKR8CBC2Y","APVZGZM1RA3AZ","338431Z1FL1IVIVZ3BK6A6QS21HROA","","120.90000000596046","img/food5.png","74","121.69999998807907","1","1","2","1,0.7,0,1,0.7,0,0.7,0,1","false",""
"","html-keyboard-response","254","129550","0.0-287.0","3PZDLQMM0U724TF5PI1G3HKR8CBC2Y","APVZGZM1RA3AZ","338431Z1FL1IVIVZ3BK6A6QS21HROA","","null","<img src=""img/food5.png"" style=""width:200px; border:14px solid green;"">","null","","","","","","",""
"","image-keyboard-response","255","129712","0.0-289.0","3PZDLQMM0U724TF5PI1G3HKR8CBC2Y","APVZGZM1RA3AZ","338431Z1FL1IVIVZ3BK6A6QS21HROA","","160","img/food5.png","74","161.40000000596046","1","1","2","1,0.7,0,1,0.7,0,0.7,0,1","false",""
"","html-keyboard-response","256","130014","0.0-290.0","3PZDLQMM0U724TF5PI1G3HKR8CBC2Y","APVZGZM1RA3AZ","338431Z1FL1IVIVZ3BK6A6QS21HROA","","null","<img src=""img/food5.png"" style=""width:200px; border:14px solid green;"">","null","","","","","","",""
"","image-keyboard-response","257","130081","0.0-292.0","3PZDLQMM0U724TF5PI1G3HKR8CBC2Y","APVZGZM1RA3AZ","338431Z1FL1IVIVZ3BK6A6QS21HROA","","65.10000002384186","img/food5.png","74","66.2999999821186","1","1","2","1,0.7,0,1,0.7,0,0.7,0,1","false",""
"","html-keyboard-response","258","130383","0.0-293.0","3PZDLQMM0U724TF5PI1G3HKR8CBC2Y","APVZGZM1RA3AZ","338431Z1FL1IVIVZ3BK6A6QS21HROA","","null","<img src=""img/food5.png"" style=""width:200px; border:14px solid green;"">","null","","","","","","",""
"","image-keyboard-response","259","130568","0.0-295.0","3PZDLQMM0U724TF5PI1G3HKR8CBC2Y","APVZGZM1RA3AZ","338431Z1FL1IVIVZ3BK6A6QS21HROA","","183.09999999403954","img/food5.png","74","184.2000000178814","1","1","2","1,0.7,0,1,0.7,0,0.7,0,1","false",""
"","html-keyboard-response","260","130870","0.0-296.0","3PZDLQMM0U724TF5PI1G3HKR8CBC2Y","APVZGZM1RA3AZ","338431Z1FL1IVIVZ3BK6A6QS21HROA","","null","<img src=""img/food5.png"" style=""width:200px; border:14px solid green;"">","null","","","","","","",""
"","image-keyboard-response","261","130956","0.0-298.0","3PZDLQMM0U724TF5PI1G3HKR8CBC2Y","APVZGZM1RA3AZ","338431Z1FL1IVIVZ3BK6A6QS21HROA","","84","img/food6.png","74","85.2000000178814","1","1","1","1,0.7,0,1,0.7,0,0.7,0,1","false",""
"","html-keyboard-response","262","131258","0.0-299.0","3PZDLQMM0U724TF5PI1G3HKR8CBC2Y","APVZGZM1RA3AZ","338431Z1FL1IVIVZ3BK6A6QS21HROA","","null","<img src=""img/food6.png"" style=""width:200px; border:14px solid green;"">","null","","","","","","",""
"","image-keyboard-response","263","131400","0.0-301.0","3PZDLQMM0U724TF5PI1G3HKR8CBC2Y","APVZGZM1RA3AZ","338431Z1FL1IVIVZ3BK6A6QS21HROA","","140.2000000178814","img/food5.png","74","141.5","1","1","2","1,0.7,0,1,0.7,0,0.7,0,1","false",""
"","html-keyboard-response","264","131702","0.0-302.0","3PZDLQMM0U724TF5PI1G3HKR8CBC2Y","APVZGZM1RA3AZ","338431Z1FL1IVIVZ3BK6A6QS21HROA","","null","<img src=""img/food5.png"" style=""width:200px; border:14px solid green;"">","null","","","","","","",""
"","image-keyboard-response","265","131864","0.0-304.0","3PZDLQMM0U724TF5PI1G3HKR8CBC2Y","APVZGZM1RA3AZ","338431Z1FL1IVIVZ3BK6A6QS21HROA","","160.39999997615814","img/food5.png","74","161.40000000596046","1","1","2","1,0.7,0,1,0.7,0,0.7,0,1","false",""
"","html-keyboard-response","266","132166","0.0-305.0","3PZDLQMM0U724TF5PI1G3HKR8CBC2Y","APVZGZM1RA3AZ","338431Z1FL1IVIVZ3BK6A6QS21HROA","","null","<img src=""img/food5.png"" style=""width:200px; border:14px solid green;"">","null","","","","","","",""
"","image-keyboard-response","267","132272","0.0-307.0","3PZDLQMM0U724TF5PI1G3HKR8CBC2Y","APVZGZM1RA3AZ","338431Z1FL1IVIVZ3BK6A6QS21HROA","","104.40000000596046","img/food6.png","74","105.80000001192093","1","1","1","1,0.7,0,1,0.7,0,0.7,0,1","false",""
"","html-keyboard-response","268","132574","0.0-308.0","3PZDLQMM0U724TF5PI1G3HKR8CBC2Y","APVZGZM1RA3AZ","338431Z1FL1IVIVZ3BK6A6QS21HROA","","null","<img src=""img/food6.png"" style=""width:200px; border:14px solid green;"">","null","","","","","","",""
"","image-keyboard-response","269","132689","0.0-310.0","3PZDLQMM0U724TF5PI1G3HKR8CBC2Y","APVZGZM1RA3AZ","338431Z1FL1IVIVZ3BK6A6QS21HROA","","112.7999999821186","img/food6.png","74","114.09999999403954","1","1","1","1,0.7,0,1,0.7,0,0.7,0,1","false",""
"","html-keyboard-response","270","132991","0.0-311.0","3PZDLQMM0U724TF5PI1G3HKR8CBC2Y","APVZGZM1RA3AZ","338431Z1FL1IVIVZ3BK6A6QS21HROA","","null","<img src=""img/food6.png"" style=""width:200px; border:14px solid green;"">","null","","","","","","",""
"","image-keyboard-response","271","133113","0.0-313.0","3PZDLQMM0U724TF5PI1G3HKR8CBC2Y","APVZGZM1RA3AZ","338431Z1FL1IVIVZ3BK6A6QS21HROA","","120.19999998807907","img/food6.png","74","121.5","1","1","1","1,0.7,0,1,0.7,0,0.7,0,1","false",""
"","html-keyboard-response","272","133415","0.0-314.0","3PZDLQMM0U724TF5PI1G3HKR8CBC2Y","APVZGZM1RA3AZ","338431Z1FL1IVIVZ3BK6A6QS21HROA","","null","<img src=""img/food6.png"" style=""width:200px; border:14px solid green;"">","null","","","","","","",""
"","image-keyboard-response","273","133537","0.0-316.0","3PZDLQMM0U724TF5PI1G3HKR8CBC2Y","APVZGZM1RA3AZ","338431Z1FL1IVIVZ3BK6A6QS21HROA","","120.5","img/food4.png","74","121.59999999403954","1","1","3","1,0.7,0,1,0.7,0,0.7,0,1","false",""
"","html-keyboard-response","274","133839","0.0-317.0","3PZDLQMM0U724TF5PI1G3HKR8CBC2Y","APVZGZM1RA3AZ","338431Z1FL1IVIVZ3BK6A6QS21HROA","","null","<img src=""img/food4.png"" style=""width:200px; border:14px solid green;"">","null","","","","","","",""
"","image-keyboard-response","275","133968","0.0-319.0","3PZDLQMM0U724TF5PI1G3HKR8CBC2Y","APVZGZM1RA3AZ","338431Z1FL1IVIVZ3BK6A6QS21HROA","","128.69999998807907","img/food6.png","74","129.59999999403954","1","1","1","1,0.7,0,1,0.7,0,0.7,0,1","false",""
"","html-keyboard-response","276","134271","0.0-320.0","3PZDLQMM0U724TF5PI1G3HKR8CBC2Y","APVZGZM1RA3AZ","338431Z1FL1IVIVZ3BK6A6QS21HROA","","null","<img src=""img/food6.png"" style=""width:200px; border:14px solid green;"">","null","","","","","","",""
"","image-keyboard-response","277","134417","0.0-322.0","3PZDLQMM0U724TF5PI1G3HKR8CBC2Y","APVZGZM1RA3AZ","338431Z1FL1IVIVZ3BK6A6QS21HROA","","143.89999997615814","img/food5.png","74","145.30000001192093","1","1","2","1,0.7,0,1,0.7,0,0.7,0,1","false",""
"","html-keyboard-response","278","134719","0.0-323.0","3PZDLQMM0U724TF5PI1G3HKR8CBC2Y","APVZGZM1RA3AZ","338431Z1FL1IVIVZ3BK6A6QS21HROA","","null","<img src=""img/food5.png"" style=""width:200px; border:14px solid green;"">","null","","","","","","",""
"","image-keyboard-response","279","134841","0.0-325.0","3PZDLQMM0U724TF5PI1G3HKR8CBC2Y","APVZGZM1RA3AZ","338431Z1FL1IVIVZ3BK6A6QS21HROA","","120.09999999403954","img/food5.png","74","121.09999999403954","1","1","2","1,0.7,0,1,0.7,0,0.7,0,1","false",""
"","html-keyboard-response","280","135143","0.0-326.0","3PZDLQMM0U724TF5PI1G3HKR8CBC2Y","APVZGZM1RA3AZ","338431Z1FL1IVIVZ3BK6A6QS21HROA","","null","<img src=""img/food5.png"" style=""width:200px; border:14px solid green;"">","null","","","","","","",""
"","image-keyboard-response","281","135264","0.0-328.0","3PZDLQMM0U724TF5PI1G3HKR8CBC2Y","APVZGZM1RA3AZ","338431Z1FL1IVIVZ3BK6A6QS21HROA","","119.30000001192093","img/food4.png","74","120.2999999821186","1","1","3","1,0.7,0,1,0.7,0,0.7,0,1","false",""
"","html-keyboard-response","282","135566","0.0-329.0","3PZDLQMM0U724TF5PI1G3HKR8CBC2Y","APVZGZM1RA3AZ","338431Z1FL1IVIVZ3BK6A6QS21HROA","","null","<img src=""img/food4.png"" style=""width:200px; border:14px solid green;"">","null","","","","","","",""
"","image-keyboard-response","283","135690","0.0-331.0","3PZDLQMM0U724TF5PI1G3HKR8CBC2Y","APVZGZM1RA3AZ","338431Z1FL1IVIVZ3BK6A6QS21HROA","","123.09999999403954","img/food5.png","74","123.7999999821186","1","1","2","1,0.7,0,1,0.7,0,0.7,0,1","false",""
"","html-keyboard-response","284","135992","0.0-332.0","3PZDLQMM0U724TF5PI1G3HKR8CBC2Y","APVZGZM1RA3AZ","338431Z1FL1IVIVZ3BK6A6QS21HROA","","null","<img src=""img/food5.png"" style=""width:200px; border:14px solid green;"">","null","","","","","","",""
"","image-keyboard-response","285","136113","0.0-334.0","3PZDLQMM0U724TF5PI1G3HKR8CBC2Y","APVZGZM1RA3AZ","338431Z1FL1IVIVZ3BK6A6QS21HROA","","119.19999998807907","img/food5.png","74","120.40000000596046","1","1","2","1,0.7,0,1,0.7,0,0.7,0,1","false",""
"","html-keyboard-response","286","136415","0.0-335.0","3PZDLQMM0U724TF5PI1G3HKR8CBC2Y","APVZGZM1RA3AZ","338431Z1FL1IVIVZ3BK6A6QS21HROA","","null","<img src=""img/food5.png"" style=""width:200px; border:14px solid green;"">","null","","","","","","",""
"","image-keyboard-response","287","136548","0.0-337.0","3PZDLQMM0U724TF5PI1G3HKR8CBC2Y","APVZGZM1RA3AZ","338431Z1FL1IVIVZ3BK6A6QS21HROA","","131.59999999403954","img/food4.png","74","132.7000000178814","1","1","3","1,0.7,0,1,0.7,0,0.7,0,1","false",""
"","html-keyboard-response","288","136851","0.0-338.0","3PZDLQMM0U724TF5PI1G3HKR8CBC2Y","APVZGZM1RA3AZ","338431Z1FL1IVIVZ3BK6A6QS21HROA","","null","<img src=""img/food4.png"" style=""width:200px; border:14px solid green;"">","null","","","","","","",""
"","image-keyboard-response","289","136945","0.0-340.0","3PZDLQMM0U724TF5PI1G3HKR8CBC2Y","APVZGZM1RA3AZ","338431Z1FL1IVIVZ3BK6A6QS21HROA","","92.59999999403954","img/food6.png","74","93.7999999821186","1","1","1","1,0.7,0,1,0.7,0,0.7,0,1","false",""
"","html-keyboard-response","290","137247","0.0-341.0","3PZDLQMM0U724TF5PI1G3HKR8CBC2Y","APVZGZM1RA3AZ","338431Z1FL1IVIVZ3BK6A6QS21HROA","","null","<img src=""img/food6.png"" style=""width:200px; border:14px solid green;"">","null","","","","","","",""
"","image-keyboard-response","291","137368","0.0-343.0","3PZDLQMM0U724TF5PI1G3HKR8CBC2Y","APVZGZM1RA3AZ","338431Z1FL1IVIVZ3BK6A6QS21HROA","","119.7999999821186","img/food6.png","74","120.5","1","1","1","1,0.7,0,1,0.7,0,0.7,0,1","false",""
"","html-keyboard-response","292","137669","0.0-344.0","3PZDLQMM0U724TF5PI1G3HKR8CBC2Y","APVZGZM1RA3AZ","338431Z1FL1IVIVZ3BK6A6QS21HROA","","null","<img src=""img/food6.png"" style=""width:200px; border:14px solid green;"">","null","","","","","","",""
"","image-keyboard-response","293","137800","0.0-346.0","3PZDLQMM0U724TF5PI1G3HKR8CBC2Y","APVZGZM1RA3AZ","338431Z1FL1IVIVZ3BK6A6QS21HROA","","130.09999999403954","img/food6.png","74","131.19999998807907","1","1","1","1,0.7,0,1,0.7,0,0.7,0,1","false",""
"","html-keyboard-response","294","138102","0.0-347.0","3PZDLQMM0U724TF5PI1G3HKR8CBC2Y","APVZGZM1RA3AZ","338431Z1FL1IVIVZ3BK6A6QS21HROA","","null","<img src=""img/food6.png"" style=""width:200px; border:14px solid green;"">","null","","","","","","",""
"","image-keyboard-response","295","138216","0.0-349.0","3PZDLQMM0U724TF5PI1G3HKR8CBC2Y","APVZGZM1RA3AZ","338431Z1FL1IVIVZ3BK6A6QS21HROA","","112","img/food6.png","74","113.19999998807907","1","1","1","1,0.7,0,1,0.7,0,0.7,0,1","false",""
"","html-keyboard-response","296","138518","0.0-350.0","3PZDLQMM0U724TF5PI1G3HKR8CBC2Y","APVZGZM1RA3AZ","338431Z1FL1IVIVZ3BK6A6QS21HROA","","null","<img src=""img/food6.png"" style=""width:200px; border:14px solid green;"">","null","","","","","","",""
"","image-keyboard-response","297","138648","0.0-352.0","3PZDLQMM0U724TF5PI1G3HKR8CBC2Y","APVZGZM1RA3AZ","338431Z1FL1IVIVZ3BK6A6QS21HROA","","128.5","img/food6.png","74","129.5","1","1","1","1,0.7,0,1,0.7,0,0.7,0,1","false",""
"","html-keyboard-response","298","138949","0.0-353.0","3PZDLQMM0U724TF5PI1G3HKR8CBC2Y","APVZGZM1RA3AZ","338431Z1FL1IVIVZ3BK6A6QS21HROA","","null","<img src=""img/food6.png"" style=""width:200px; border:14px solid green;"">","null","","","","","","",""
"","image-keyboard-response","299","139073","0.0-355.0","3PZDLQMM0U724TF5PI1G3HKR8CBC2Y","APVZGZM1RA3AZ","338431Z1FL1IVIVZ3BK6A6QS21HROA","","121.90000000596046","img/food4.png","74","123.2999999821186","1","1","3","1,0.7,0,1,0.7,0,0.7,0,1","false",""
"","html-keyboard-response","300","139374","0.0-356.0","3PZDLQMM0U724TF5PI1G3HKR8CBC2Y","APVZGZM1RA3AZ","338431Z1FL1IVIVZ3BK6A6QS21HROA","","null","<img src=""img/food4.png"" style=""width:200px; border:14px solid green;"">","null","","","","","","",""
"","image-keyboard-response","301","139513","0.0-358.0","3PZDLQMM0U724TF5PI1G3HKR8CBC2Y","APVZGZM1RA3AZ","338431Z1FL1IVIVZ3BK6A6QS21HROA","","136.5","img/food5.png","74","137.90000000596046","1","1","2","1,0.7,0,1,0.7,0,0.7,0,1","false",""
"","html-keyboard-response","302","139815","0.0-359.0","3PZDLQMM0U724TF5PI1G3HKR8CBC2Y","APVZGZM1RA3AZ","338431Z1FL1IVIVZ3BK6A6QS21HROA","","null","<img src=""img/food5.png"" style=""width:200px; border:14px solid green;"">","null","","","","","","",""
"","image-keyboard-response","303","139935","0.0-361.0","3PZDLQMM0U724TF5PI1G3HKR8CBC2Y","APVZGZM1RA3AZ","338431Z1FL1IVIVZ3BK6A6QS21HROA","","118.7999999821186","img/food5.png","74","119.7999999821186","1","1","2","1,0.7,0,1,0.7,0,0.7,0,1","false",""
"","html-keyboard-response","304","140237","0.0-362.0","3PZDLQMM0U724TF5PI1G3HKR8CBC2Y","APVZGZM1RA3AZ","338431Z1FL1IVIVZ3BK6A6QS21HROA","","null","<img src=""img/food5.png"" style=""width:200px; border:14px solid green;"">","null","","","","","","",""
"","image-keyboard-response","305","140383","0.0-364.0","3PZDLQMM0U724TF5PI1G3HKR8CBC2Y","APVZGZM1RA3AZ","338431Z1FL1IVIVZ3BK6A6QS21HROA","","144.89999997615814","img/food4.png","74","145.69999998807907","1","1","3","1,0.7,0,1,0.7,0,0.7,0,1","false",""
"","html-keyboard-response","306","140685","0.0-365.0","3PZDLQMM0U724TF5PI1G3HKR8CBC2Y","APVZGZM1RA3AZ","338431Z1FL1IVIVZ3BK6A6QS21HROA","","null","<img src=""img/food4.png"" style=""width:200px; border:14px solid green;"">","null","","","","","","",""
"","image-keyboard-response","307","140809","0.0-367.0","3PZDLQMM0U724TF5PI1G3HKR8CBC2Y","APVZGZM1RA3AZ","338431Z1FL1IVIVZ3BK6A6QS21HROA","","122.90000000596046","img/food6.png","74","124.69999998807907","1","1","1","1,0.7,0,1,0.7,0,0.7,0,1","false",""
"","html-keyboard-response","308","141112","0.0-368.0","3PZDLQMM0U724TF5PI1G3HKR8CBC2Y","APVZGZM1RA3AZ","338431Z1FL1IVIVZ3BK6A6QS21HROA","","null","<img src=""img/food6.png"" style=""width:200px; border:14px solid green;"">","null","","","","","","",""
"","image-keyboard-response","309","141239","0.0-370.0","3PZDLQMM0U724TF5PI1G3HKR8CBC2Y","APVZGZM1RA3AZ","338431Z1FL1IVIVZ3BK6A6QS21HROA","","126.2000000178814","img/food6.png","74","127.19999998807907","1","1","1","1,0.7,0,1,0.7,0,0.7,0,1","false",""
"","html-keyboard-response","310","141541","0.0-371.0","3PZDLQMM0U724TF5PI1G3HKR8CBC2Y","APVZGZM1RA3AZ","338431Z1FL1IVIVZ3BK6A6QS21HROA","","null","<img src=""img/food6.png"" style=""width:200px; border:14px solid green;"">","null","","","","","","",""
"","image-keyboard-response","311","141663","0.0-373.0","3PZDLQMM0U724TF5PI1G3HKR8CBC2Y","APVZGZM1RA3AZ","338431Z1FL1IVIVZ3BK6A6QS21HROA","","122.09999999403954","img/food4.png","74","122.7000000178814","1","1","3","1,0.7,0,1,0.7,0,0.7,0,1","false",""
"","html-keyboard-response","312","141966","0.0-374.0","3PZDLQMM0U724TF5PI1G3HKR8CBC2Y","APVZGZM1RA3AZ","338431Z1FL1IVIVZ3BK6A6QS21HROA","","null","<img src=""img/food4.png"" style=""width:200px; border:14px solid green;"">","null","","","","","","",""
"","image-keyboard-response","313","142071","0.0-376.0","3PZDLQMM0U724TF5PI1G3HKR8CBC2Y","APVZGZM1RA3AZ","338431Z1FL1IVIVZ3BK6A6QS21HROA","","104.30000001192093","img/food5.png","74","105.2000000178814","1","1","2","1,0.7,0,1,0.7,0,0.7,0,1","false",""
"","html-keyboard-response","314","142374","0.0-377.0","3PZDLQMM0U724TF5PI1G3HKR8CBC2Y","APVZGZM1RA3AZ","338431Z1FL1IVIVZ3BK6A6QS21HROA","","null","<img src=""img/food5.png"" style=""width:200px; border:14px solid green;"">","null","","","","","","",""
"","image-keyboard-response","315","142488","0.0-379.0","3PZDLQMM0U724TF5PI1G3HKR8CBC2Y","APVZGZM1RA3AZ","338431Z1FL1IVIVZ3BK6A6QS21HROA","","112.90000000596046","img/food6.png","74","113.5","1","1","1","1,0.7,0,1,0.7,0,0.7,0,1","false",""
"","html-keyboard-response","316","142789","0.0-380.0","3PZDLQMM0U724TF5PI1G3HKR8CBC2Y","APVZGZM1RA3AZ","338431Z1FL1IVIVZ3BK6A6QS21HROA","","null","<img src=""img/food6.png"" style=""width:200px; border:14px solid green;"">","null","","","","","","",""
"","image-keyboard-response","317","142895","0.0-382.0","3PZDLQMM0U724TF5PI1G3HKR8CBC2Y","APVZGZM1RA3AZ","338431Z1FL1IVIVZ3BK6A6QS21HROA","","105.80000001192093","img/food4.png","74","106.60000002384186","1","1","3","1,0.7,0,1,0.7,0,0.7,0,1","false",""
"","html-keyboard-response","318","143197","0.0-383.0","3PZDLQMM0U724TF5PI1G3HKR8CBC2Y","APVZGZM1RA3AZ","338431Z1FL1IVIVZ3BK6A6QS21HROA","","null","<img src=""img/food4.png"" style=""width:200px; border:14px solid green;"">","null","","","","","","",""
"","image-keyboard-response","319","143319","0.0-385.0","3PZDLQMM0U724TF5PI1G3HKR8CBC2Y","APVZGZM1RA3AZ","338431Z1FL1IVIVZ3BK6A6QS21HROA","","121.09999999403954","img/food4.png","74","122.30000001192093","1","1","3","1,0.7,0,1,0.7,0,0.7,0,1","false",""
"","html-keyboard-response","320","143621","0.0-386.0","3PZDLQMM0U724TF5PI1G3HKR8CBC2Y","APVZGZM1RA3AZ","338431Z1FL1IVIVZ3BK6A6QS21HROA","","null","<img src=""img/food4.png"" style=""width:200px; border:14px solid green;"">","null","","","","","","",""
"","image-keyboard-response","321","143759","0.0-388.0","3PZDLQMM0U724TF5PI1G3HKR8CBC2Y","APVZGZM1RA3AZ","338431Z1FL1IVIVZ3BK6A6QS21HROA","","137","img/food5.png","74","137.80000001192093","1","1","2","1,0.7,0,1,0.7,0,0.7,0,1","false",""
"","html-keyboard-response","322","144061","0.0-389.0","3PZDLQMM0U724TF5PI1G3HKR8CBC2Y","APVZGZM1RA3AZ","338431Z1FL1IVIVZ3BK6A6QS21HROA","","null","<img src=""img/food5.png"" style=""width:200px; border:14px solid green;"">","null","","","","","","",""
"","image-keyboard-response","323","144184","0.0-391.0","3PZDLQMM0U724TF5PI1G3HKR8CBC2Y","APVZGZM1RA3AZ","338431Z1FL1IVIVZ3BK6A6QS21HROA","","121.2999999821186","img/food6.png","74","122.09999999403954","1","1","1","1,0.7,0,1,0.7,0,0.7,0,1","false",""
"","html-keyboard-response","324","144485","0.0-392.0","3PZDLQMM0U724TF5PI1G3HKR8CBC2Y","APVZGZM1RA3AZ","338431Z1FL1IVIVZ3BK6A6QS21HROA","","null","<img src=""img/food6.png"" style=""width:200px; border:14px solid green;"">","null","","","","","","",""
"","image-keyboard-response","325","144640","0.0-394.0","3PZDLQMM0U724TF5PI1G3HKR8CBC2Y","APVZGZM1RA3AZ","338431Z1FL1IVIVZ3BK6A6QS21HROA","","153.59999999403954","img/food6.png","74","154.2999999821186","1","1","1","1,0.7,0,1,0.7,0,0.7,0,1","false",""
"","html-keyboard-response","326","144942","0.0-395.0","3PZDLQMM0U724TF5PI1G3HKR8CBC2Y","APVZGZM1RA3AZ","338431Z1FL1IVIVZ3BK6A6QS21HROA","","null","<img src=""img/food6.png"" style=""width:200px; border:14px solid green;"">","null","","","","","","",""
"","image-keyboard-response","327","145064","0.0-397.0","3PZDLQMM0U724TF5PI1G3HKR8CBC2Y","APVZGZM1RA3AZ","338431Z1FL1IVIVZ3BK6A6QS21HROA","","121","img/food5.png","74","121.90000000596046","1","1","2","1,0.7,0,1,0.7,0,0.7,0,1","false",""
"","html-keyboard-response","328","145366","0.0-398.0","3PZDLQMM0U724TF5PI1G3HKR8CBC2Y","APVZGZM1RA3AZ","338431Z1FL1IVIVZ3BK6A6QS21HROA","","null","<img src=""img/food5.png"" style=""width:200px; border:14px solid green;"">","null","","","","","","",""
"","image-keyboard-response","329","145496","0.0-400.0","3PZDLQMM0U724TF5PI1G3HKR8CBC2Y","APVZGZM1RA3AZ","338431Z1FL1IVIVZ3BK6A6QS21HROA","","128.7000000178814","img/food6.png","74","129.40000000596046","1","1","1","1,0.7,0,1,0.7,0,0.7,0,1","false",""
"","html-keyboard-response","330","145798","0.0-401.0","3PZDLQMM0U724TF5PI1G3HKR8CBC2Y","APVZGZM1RA3AZ","338431Z1FL1IVIVZ3BK6A6QS21HROA","","null","<img src=""img/food6.png"" style=""width:200px; border:14px solid green;"">","null","","","","","","",""
"","image-keyboard-response","331","145937","0.0-403.0","3PZDLQMM0U724TF5PI1G3HKR8CBC2Y","APVZGZM1RA3AZ","338431Z1FL1IVIVZ3BK6A6QS21HROA","","138","img/food4.png","74","139.19999998807907","1","1","3","1,0.7,0,1,0.7,0,0.7,0,1","false",""
"","html-keyboard-response","332","146241","0.0-404.0","3PZDLQMM0U724TF5PI1G3HKR8CBC2Y","APVZGZM1RA3AZ","338431Z1FL1IVIVZ3BK6A6QS21HROA","","null","<img src=""img/food4.png"" style=""width:200px; border:14px solid green;"">","null","","","","","","",""
"","image-keyboard-response","333","146384","0.0-406.0","3PZDLQMM0U724TF5PI1G3HKR8CBC2Y","APVZGZM1RA3AZ","338431Z1FL1IVIVZ3BK6A6QS21HROA","","142.40000000596046","img/food4.png","74","143.30000001192093","1","1","3","1,0.7,0,1,0.7,0,0.7,0,1","false",""
"","html-keyboard-response","334","146687","0.0-407.0","3PZDLQMM0U724TF5PI1G3HKR8CBC2Y","APVZGZM1RA3AZ","338431Z1FL1IVIVZ3BK6A6QS21HROA","","null","<img src=""img/food4.png"" style=""width:200px; border:14px solid green;"">","null","","","","","","",""
"","image-keyboard-response","335","146832","0.0-409.0","3PZDLQMM0U724TF5PI1G3HKR8CBC2Y","APVZGZM1RA3AZ","338431Z1FL1IVIVZ3BK6A6QS21HROA","","143.7999999821186","img/food4.png","74","144.7000000178814","1","1","3","1,0.7,0,1,0.7,0,0.7,0,1","false",""
"","html-keyboard-response","336","147133","0.0-410.0","3PZDLQMM0U724TF5PI1G3HKR8CBC2Y","APVZGZM1RA3AZ","338431Z1FL1IVIVZ3BK6A6QS21HROA","","null","<img src=""img/food4.png"" style=""width:200px; border:14px solid green;"">","null","","","","","","",""
"","image-keyboard-response","337","147240","0.0-412.0","3PZDLQMM0U724TF5PI1G3HKR8CBC2Y","APVZGZM1RA3AZ","338431Z1FL1IVIVZ3BK6A6QS21HROA","","105.09999999403954","img/food4.png","74","106.2999999821186","1","1","3","1,0.7,0,1,0.7,0,0.7,0,1","false",""
"","html-keyboard-response","338","147542","0.0-413.0","3PZDLQMM0U724TF5PI1G3HKR8CBC2Y","APVZGZM1RA3AZ","338431Z1FL1IVIVZ3BK6A6QS21HROA","","null","<img src=""img/food4.png"" style=""width:200px; border:14px solid green;"">","null","","","","","","",""
"","image-keyboard-response","339","147688","0.0-415.0","3PZDLQMM0U724TF5PI1G3HKR8CBC2Y","APVZGZM1RA3AZ","338431Z1FL1IVIVZ3BK6A6QS21HROA","","144.80000001192093","img/food6.png","74","146.10000002384186","1","1","1","1,0.7,0,1,0.7,0,0.7,0,1","false",""
"","html-keyboard-response","340","147990","0.0-416.0","3PZDLQMM0U724TF5PI1G3HKR8CBC2Y","APVZGZM1RA3AZ","338431Z1FL1IVIVZ3BK6A6QS21HROA","","null","<img src=""img/food6.png"" style=""width:200px; border:14px solid green;"">","null","","","","","","",""
"","image-keyboard-response","341","148112","0.0-418.0","3PZDLQMM0U724TF5PI1G3HKR8CBC2Y","APVZGZM1RA3AZ","338431Z1FL1IVIVZ3BK6A6QS21HROA","","120.09999999403954","img/food6.png","74","121.2999999821186","1","1","1","1,0.7,0,1,0.7,0,0.7,0,1","false",""
"","html-keyboard-response","342","148415","0.0-419.0","3PZDLQMM0U724TF5PI1G3HKR8CBC2Y","APVZGZM1RA3AZ","338431Z1FL1IVIVZ3BK6A6QS21HROA","","null","<img src=""img/food6.png"" style=""width:200px; border:14px solid green;"">","null","","","","","","",""
"","image-keyboard-response","343","148561","0.0-421.0","3PZDLQMM0U724TF5PI1G3HKR8CBC2Y","APVZGZM1RA3AZ","338431Z1FL1IVIVZ3BK6A6QS21HROA","","145.2000000178814","img/food4.png","74","146.2000000178814","1","1","3","1,0.7,0,1,0.7,0,0.7,0,1","false",""
"","html-keyboard-response","344","148864","0.0-422.0","3PZDLQMM0U724TF5PI1G3HKR8CBC2Y","APVZGZM1RA3AZ","338431Z1FL1IVIVZ3BK6A6QS21HROA","","null","<img src=""img/food4.png"" style=""width:200px; border:14px solid green;"">","null","","","","","","",""
"","image-keyboard-response","345","148984","0.0-424.0","3PZDLQMM0U724TF5PI1G3HKR8CBC2Y","APVZGZM1RA3AZ","338431Z1FL1IVIVZ3BK6A6QS21HROA","","118.5","img/food4.png","74","119.59999999403954","1","1","3","1,0.7,0,1,0.7,0,0.7,0,1","false",""
"","html-keyboard-response","346","149287","0.0-425.0","3PZDLQMM0U724TF5PI1G3HKR8CBC2Y","APVZGZM1RA3AZ","338431Z1FL1IVIVZ3BK6A6QS21HROA","","null","<img src=""img/food4.png"" style=""width:200px; border:14px solid green;"">","null","","","","","","",""
"","image-keyboard-response","347","149407","0.0-427.0","3PZDLQMM0U724TF5PI1G3HKR8CBC2Y","APVZGZM1RA3AZ","338431Z1FL1IVIVZ3BK6A6QS21HROA","","118.90000000596046","img/food4.png","74","120","1","1","3","1,0.7,0,1,0.7,0,0.7,0,1","false",""
"","html-keyboard-response","348","149709","0.0-428.0","3PZDLQMM0U724TF5PI1G3HKR8CBC2Y","APVZGZM1RA3AZ","338431Z1FL1IVIVZ3BK6A6QS21HROA","","null","<img src=""img/food4.png"" style=""width:200px; border:14px solid green;"">","null","","","","","","",""
"","image-keyboard-response","349","149833","0.0-430.0","3PZDLQMM0U724TF5PI1G3HKR8CBC2Y","APVZGZM1RA3AZ","338431Z1FL1IVIVZ3BK6A6QS21HROA","","123","img/food4.png","74","123.90000000596046","1","0","3","1,0.7,0,1,0.7,0,0.7,0,1","false",""
"","html-keyboard-response","350","150134","0.0-431.0","3PZDLQMM0U724TF5PI1G3HKR8CBC2Y","APVZGZM1RA3AZ","338431Z1FL1IVIVZ3BK6A6QS21HROA","","null","<img src=""img/food4.png"" style=""width:200px;border:14px solid red;"">","null","","","","","","",""
"","image-keyboard-response","351","150264","0.0-433.0","3PZDLQMM0U724TF5PI1G3HKR8CBC2Y","APVZGZM1RA3AZ","338431Z1FL1IVIVZ3BK6A6QS21HROA","","127.39999997615814","img/food6.png","74","128.59999999403954","1","1","1","1,0.7,0,1,0.7,0,0.7,0,1","false",""
"","html-keyboard-response","352","150565","0.0-434.0","3PZDLQMM0U724TF5PI1G3HKR8CBC2Y","APVZGZM1RA3AZ","338431Z1FL1IVIVZ3BK6A6QS21HROA","","null","<img src=""img/food6.png"" style=""width:200px; border:14px solid green;"">","null","","","","","","",""
"","image-keyboard-response","353","150712","0.0-436.0","3PZDLQMM0U724TF5PI1G3HKR8CBC2Y","APVZGZM1RA3AZ","338431Z1FL1IVIVZ3BK6A6QS21HROA","","146.19999998807907","img/food4.png","74","146.90000000596046","1","0","3","1,0.7,0,1,0.7,0,0.7,0,1","false",""
"","html-keyboard-response","354","151014","0.0-437.0","3PZDLQMM0U724TF5PI1G3HKR8CBC2Y","APVZGZM1RA3AZ","338431Z1FL1IVIVZ3BK6A6QS21HROA","","null","<img src=""img/food4.png"" style=""width:200px;border:14px solid red;"">","null","","","","","","",""
"","image-keyboard-response","355","151137","0.0-439.0","3PZDLQMM0U724TF5PI1G3HKR8CBC2Y","APVZGZM1RA3AZ","338431Z1FL1IVIVZ3BK6A6QS21HROA","","120.7999999821186","img/food6.png","74","122","1","1","1","1,0.7,0,1,0.7,0,0.7,0,1","false",""
"","html-keyboard-response","356","151439","0.0-440.0","3PZDLQMM0U724TF5PI1G3HKR8CBC2Y","APVZGZM1RA3AZ","338431Z1FL1IVIVZ3BK6A6QS21HROA","","null","<img src=""img/food6.png"" style=""width:200px; border:14px solid green;"">","null","","","","","","",""
"","image-keyboard-response","357","151585","0.0-442.0","3PZDLQMM0U724TF5PI1G3HKR8CBC2Y","APVZGZM1RA3AZ","338431Z1FL1IVIVZ3BK6A6QS21HROA","","144.19999998807907","img/food4.png","74","145.2999999821186","1","1","3","1,0.7,0,1,0.7,0,0.7,0,1","false",""
"","html-keyboard-response","358","151887","0.0-443.0","3PZDLQMM0U724TF5PI1G3HKR8CBC2Y","APVZGZM1RA3AZ","338431Z1FL1IVIVZ3BK6A6QS21HROA","","null","<img src=""img/food4.png"" style=""width:200px; border:14px solid green;"">","null","","","","","","",""
"","image-keyboard-response","359","152049","0.0-445.0","3PZDLQMM0U724TF5PI1G3HKR8CBC2Y","APVZGZM1RA3AZ","338431Z1FL1IVIVZ3BK6A6QS21HROA","","160.2999999821186","img/food6.png","74","161.40000000596046","1","1","1","1,0.7,0,1,0.7,0,0.7,0,1","false",""
"","html-keyboard-response","360","152352","0.0-446.0","3PZDLQMM0U724TF5PI1G3HKR8CBC2Y","APVZGZM1RA3AZ","338431Z1FL1IVIVZ3BK6A6QS21HROA","","null","<img src=""img/food6.png"" style=""width:200px; border:14px solid green;"">","null","","","","","","",""
"","image-keyboard-response","361","152496","0.0-448.0","3PZDLQMM0U724TF5PI1G3HKR8CBC2Y","APVZGZM1RA3AZ","338431Z1FL1IVIVZ3BK6A6QS21HROA","","142.5","img/food5.png","74","143.59999999403954","1","1","2","1,0.7,0,1,0.7,0,0.7,0,1","false",""
"","html-keyboard-response","362","152798","0.0-449.0","3PZDLQMM0U724TF5PI1G3HKR8CBC2Y","APVZGZM1RA3AZ","338431Z1FL1IVIVZ3BK6A6QS21HROA","","null","<img src=""img/food5.png"" style=""width:200px; border:14px solid green;"">","null","","","","","","",""
"","image-keyboard-response","363","152993","0.0-451.0","3PZDLQMM0U724TF5PI1G3HKR8CBC2Y","APVZGZM1RA3AZ","338431Z1FL1IVIVZ3BK6A6QS21HROA","","193.60000002384186","img/food5.png","74","194.7000000178814","1","1","2","1,0.7,0,1,0.7,0,0.7,0,1","false",""
"","html-keyboard-response","364","153295","0.0-452.0","3PZDLQMM0U724TF5PI1G3HKR8CBC2Y","APVZGZM1RA3AZ","338431Z1FL1IVIVZ3BK6A6QS21HROA","","null","<img src=""img/food5.png"" style=""width:200px; border:14px solid green;"">","null","","","","","","",""
"","instructions","365","156061","0.0-454.0","3PZDLQMM0U724TF5PI1G3HKR8CBC2Y","APVZGZM1RA3AZ","338431Z1FL1IVIVZ3BK6A6QS21HROA","[{""page_index"":0,""viewing_time"":2764.600000023842}]","2765.100000023842","","","","","","","","",""
"","survey-text","366","159812","0.0-455.0","3PZDLQMM0U724TF5PI1G3HKR8CBC2Y","APVZGZM1RA3AZ","338431Z1FL1IVIVZ3BK6A6QS21HROA","","3748.0999999940395","","","","","","","","","{""Q0"":""APVZGZM1RA3AZ""}"
