"success","trial_type","trial_index","time_elapsed","internal_node_id","assignmentID","mturkID","hitID","view_history","rt","stimulus","key_press","reactionTime","a","r","s","reward_cond","warning","responses"
"true","fullscreen","0","4046","0.0-0.0","3IXQG4FA2UKUU88YWRK02KMNWXLB9I","AR5M3HHTQV9QY","3OYHVNTV5TKW8EI4DRB99U4E79NKOA","","","","","","","","","","",""
"","instructions","1","20339","0.0-1.0","3IXQG4FA2UKUU88YWRK02KMNWXLB9I","AR5M3HHTQV9QY","3OYHVNTV5TKW8EI4DRB99U4E79NKOA","[{""page_index"":0,""viewing_time"":4706.099999997765},{""page_index"":1,""viewing_time"":1678.1000000014901},{""page_index"":0,""viewing_time"":3231.89999999851},{""page_index"":1,""viewing_time"":632.4000000022352},{""page_index"":2,""viewing_time"":319.3999999985099},{""page_index"":3,""viewing_time"":1593.3999999985099},{""page_index"":4,""viewing_time"":975.9000000022352},{""page_index"":5,""viewing_time"":1800.8999999985099},{""page_index"":6,""viewing_time"":1350.1000000014901}]","16290.199999999255","","","","","","","","",""
"","image-keyboard-response","2","21610","0.0-2.0","3IXQG4FA2UKUU88YWRK02KMNWXLB9I","AR5M3HHTQV9QY","3OYHVNTV5TKW8EI4DRB99U4E79NKOA","","1268.800000000745","img/food2.png","74","1270.9000000022352","1","1","1","1,0.7,0,1,0.7,0,0.7,0,1","",""
"","html-keyboard-response","3","21917","0.0-3.0","3IXQG4FA2UKUU88YWRK02KMNWXLB9I","AR5M3HHTQV9QY","3OYHVNTV5TKW8EI4DRB99U4E79NKOA","","null","<img src=""img/food2.png"" style=""width:200px; border:14px solid green;"">","null","","","","","","",""
"","image-keyboard-response","4","22478","0.0-4.0","3IXQG4FA2UKUU88YWRK02KMNWXLB9I","AR5M3HHTQV9QY","3OYHVNTV5TKW8EI4DRB99U4E79NKOA","","559.3000000007451","img/food1.png","75","561.1000000014901","2","1","2","1,0.7,0,1,0.7,0,0.7,0,1","",""
"","html-keyboard-response","5","22781","0.0-5.0","3IXQG4FA2UKUU88YWRK02KMNWXLB9I","AR5M3HHTQV9QY","3OYHVNTV5TKW8EI4DRB99U4E79NKOA","","null","<img src=""img/food1.png"" style=""width:200px; border:14px solid green;"">","null","","","","","","",""
"","image-keyboard-response","6","23381","0.0-6.0","3IXQG4FA2UKUU88YWRK02KMNWXLB9I","AR5M3HHTQV9QY","3OYHVNTV5TKW8EI4DRB99U4E79NKOA","","599","img/food2.png","76","600.5","3","0","1","1,0.7,0,1,0.7,0,0.7,0,1","",""
"","html-keyboard-response","7","23685","0.0-7.0","3IXQG4FA2UKUU88YWRK02KMNWXLB9I","AR5M3HHTQV9QY","3OYHVNTV5TKW8EI4DRB99U4E79NKOA","","null","<img src=""img/food2.png"" style=""width:200px;border:14px solid red;"">","null","","","","","","",""
"","image-keyboard-response","8","24695","0.0-8.0","3IXQG4FA2UKUU88YWRK02KMNWXLB9I","AR5M3HHTQV9QY","3OYHVNTV5TKW8EI4DRB99U4E79NKOA","","1008.5","img/food5.png","74","1010.1000000014901","1","1","3","1,0.7,0,1,0.7,0,0.7,0,1","",""
"","html-keyboard-response","9","25004","0.0-9.0","3IXQG4FA2UKUU88YWRK02KMNWXLB9I","AR5M3HHTQV9QY","3OYHVNTV5TKW8EI4DRB99U4E79NKOA","","null","<img src=""img/food5.png"" style=""width:200px; border:14px solid green;"">","null","","","","","","",""
"","image-keyboard-response","10","25498","0.0-10.0","3IXQG4FA2UKUU88YWRK02KMNWXLB9I","AR5M3HHTQV9QY","3OYHVNTV5TKW8EI4DRB99U4E79NKOA","","491.9000000022352","img/food2.png","75","493.30000000074506","2","1","1","1,0.7,0,1,0.7,0,0.7,0,1","",""
"","html-keyboard-response","11","25804","0.0-11.0","3IXQG4FA2UKUU88YWRK02KMNWXLB9I","AR5M3HHTQV9QY","3OYHVNTV5TKW8EI4DRB99U4E79NKOA","","null","<img src=""img/food2.png"" style=""width:200px; border:14px solid green;"">","null","","","","","","",""
"","image-keyboard-response","12","26161","0.0-12.0","3IXQG4FA2UKUU88YWRK02KMNWXLB9I","AR5M3HHTQV9QY","3OYHVNTV5TKW8EI4DRB99U4E79NKOA","","355.5","img/food2.png","75","356.69999999925494","2","0","1","1,0.7,0,1,0.7,0,0.7,0,1","",""
"","html-keyboard-response","13","26469","0.0-13.0","3IXQG4FA2UKUU88YWRK02KMNWXLB9I","AR5M3HHTQV9QY","3OYHVNTV5TKW8EI4DRB99U4E79NKOA","","null","<img src=""img/food2.png"" style=""width:200px;border:14px solid red;"">","null","","","","","","",""
"","image-keyboard-response","14","27027","0.0-14.0","3IXQG4FA2UKUU88YWRK02KMNWXLB9I","AR5M3HHTQV9QY","3OYHVNTV5TKW8EI4DRB99U4E79NKOA","","556.8000000007451","img/food1.png","76","558.5","3","0","2","1,0.7,0,1,0.7,0,0.7,0,1","",""
"","html-keyboard-response","15","27333","0.0-15.0","3IXQG4FA2UKUU88YWRK02KMNWXLB9I","AR5M3HHTQV9QY","3OYHVNTV5TKW8EI4DRB99U4E79NKOA","","null","<img src=""img/food1.png"" style=""width:200px;border:14px solid red;"">","null","","","","","","",""
"","image-keyboard-response","16","28136","0.0-16.0","3IXQG4FA2UKUU88YWRK02KMNWXLB9I","AR5M3HHTQV9QY","3OYHVNTV5TKW8EI4DRB99U4E79NKOA","","801.4000000022352","img/food1.png","74","802.8999999985099","1","1","2","1,0.7,0,1,0.7,0,0.7,0,1","",""
"","html-keyboard-response","17","28445","0.0-17.0","3IXQG4FA2UKUU88YWRK02KMNWXLB9I","AR5M3HHTQV9QY","3OYHVNTV5TKW8EI4DRB99U4E79NKOA","","null","<img src=""img/food1.png"" style=""width:200px; border:14px solid green;"">","null","","","","","","",""
"","image-keyboard-response","18","28901","0.0-18.0","3IXQG4FA2UKUU88YWRK02KMNWXLB9I","AR5M3HHTQV9QY","3OYHVNTV5TKW8EI4DRB99U4E79NKOA","","454.19999999925494","img/food1.png","74","455.80000000074506","1","1","2","1,0.7,0,1,0.7,0,0.7,0,1","",""
"","html-keyboard-response","19","29205","0.0-19.0","3IXQG4FA2UKUU88YWRK02KMNWXLB9I","AR5M3HHTQV9QY","3OYHVNTV5TKW8EI4DRB99U4E79NKOA","","null","<img src=""img/food1.png"" style=""width:200px; border:14px solid green;"">","null","","","","","","",""
"","image-keyboard-response","20","29854","0.0-20.0","3IXQG4FA2UKUU88YWRK02KMNWXLB9I","AR5M3HHTQV9QY","3OYHVNTV5TKW8EI4DRB99U4E79NKOA","","646.6999999992549","img/food2.png","76","648.9000000022352","3","0","1","1,0.7,0,1,0.7,0,0.7,0,1","",""
"","html-keyboard-response","21","30158","0.0-21.0","3IXQG4FA2UKUU88YWRK02KMNWXLB9I","AR5M3HHTQV9QY","3OYHVNTV5TKW8EI4DRB99U4E79NKOA","","null","<img src=""img/food2.png"" style=""width:200px;border:14px solid red;"">","null","","","","","","",""
"","image-keyboard-response","22","30587","0.0-22.0","3IXQG4FA2UKUU88YWRK02KMNWXLB9I","AR5M3HHTQV9QY","3OYHVNTV5TKW8EI4DRB99U4E79NKOA","","428.1000000014901","img/food2.png","75","429.80000000074506","2","0","1","1,0.7,0,1,0.7,0,0.7,0,1","",""
"","html-keyboard-response","23","30893","0.0-23.0","3IXQG4FA2UKUU88YWRK02KMNWXLB9I","AR5M3HHTQV9QY","3OYHVNTV5TKW8EI4DRB99U4E79NKOA","","null","<img src=""img/food2.png"" style=""width:200px;border:14px solid red;"">","null","","","","","","",""
"","image-keyboard-response","24","31518","0.0-24.0","3IXQG4FA2UKUU88YWRK02KMNWXLB9I","AR5M3HHTQV9QY","3OYHVNTV5TKW8EI4DRB99U4E79NKOA","","622.5","img/food5.png","74","624","1","1","3","1,0.7,0,1,0.7,0,0.7,0,1","",""
"","html-keyboard-response","25","31820","0.0-25.0","3IXQG4FA2UKUU88YWRK02KMNWXLB9I","AR5M3HHTQV9QY","3OYHVNTV5TKW8EI4DRB99U4E79NKOA","","null","<img src=""img/food5.png"" style=""width:200px; border:14px solid green;"">","null","","","","","","",""
"","image-keyboard-response","26","32449","0.0-26.0","3IXQG4FA2UKUU88YWRK02KMNWXLB9I","AR5M3HHTQV9QY","3OYHVNTV5TKW8EI4DRB99U4E79NKOA","","627.0999999977648","img/food1.png","75","628.4000000022352","2","1","2","1,0.7,0,1,0.7,0,0.7,0,1","",""
"","html-keyboard-response","27","32757","0.0-27.0","3IXQG4FA2UKUU88YWRK02KMNWXLB9I","AR5M3HHTQV9QY","3OYHVNTV5TKW8EI4DRB99U4E79NKOA","","null","<img src=""img/food1.png"" style=""width:200px; border:14px solid green;"">","null","","","","","","",""
"","image-keyboard-response","28","33528","0.0-28.0","3IXQG4FA2UKUU88YWRK02KMNWXLB9I","AR5M3HHTQV9QY","3OYHVNTV5TKW8EI4DRB99U4E79NKOA","","769","img/food2.png","74","770.8000000007451","1","1","1","1,0.7,0,1,0.7,0,0.7,0,1","",""
"","html-keyboard-response","29","33836","0.0-29.0","3IXQG4FA2UKUU88YWRK02KMNWXLB9I","AR5M3HHTQV9QY","3OYHVNTV5TKW8EI4DRB99U4E79NKOA","","null","<img src=""img/food2.png"" style=""width:200px; border:14px solid green;"">","null","","","","","","",""
"","image-keyboard-response","30","34494","0.0-30.0","3IXQG4FA2UKUU88YWRK02KMNWXLB9I","AR5M3HHTQV9QY","3OYHVNTV5TKW8EI4DRB99U4E79NKOA","","655.7999999970198","img/food5.png","76","657.1999999992549","3","1","3","1,0.7,0,1,0.7,0,0.7,0,1","",""
"","html-keyboard-response","31","34796","0.0-31.0","3IXQG4FA2UKUU88YWRK02KMNWXLB9I","AR5M3HHTQV9QY","3OYHVNTV5TKW8EI4DRB99U4E79NKOA","","null","<img src=""img/food5.png"" style=""width:200px; border:14px solid green;"">","null","","","","","","",""
"","image-keyboard-response","32","35606","0.0-32.0","3IXQG4FA2UKUU88YWRK02KMNWXLB9I","AR5M3HHTQV9QY","3OYHVNTV5TKW8EI4DRB99U4E79NKOA","","808.6999999992549","img/food1.png","75","810","2","0","2","1,0.7,0,1,0.7,0,0.7,0,1","",""
"","html-keyboard-response","33","35908","0.0-33.0","3IXQG4FA2UKUU88YWRK02KMNWXLB9I","AR5M3HHTQV9QY","3OYHVNTV5TKW8EI4DRB99U4E79NKOA","","null","<img src=""img/food1.png"" style=""width:200px;border:14px solid red;"">","null","","","","","","",""
"","image-keyboard-response","34","36525","0.0-34.0","3IXQG4FA2UKUU88YWRK02KMNWXLB9I","AR5M3HHTQV9QY","3OYHVNTV5TKW8EI4DRB99U4E79NKOA","","615","img/food5.png","74","616.3000000007451","1","1","3","1,0.7,0,1,0.7,0,0.7,0,1","",""
"","html-keyboard-response","35","36829","0.0-35.0","3IXQG4FA2UKUU88YWRK02KMNWXLB9I","AR5M3HHTQV9QY","3OYHVNTV5TKW8EI4DRB99U4E79NKOA","","null","<img src=""img/food5.png"" style=""width:200px; border:14px solid green;"">","null","","","","","","",""
"","image-keyboard-response","36","37943","0.0-36.0","3IXQG4FA2UKUU88YWRK02KMNWXLB9I","AR5M3HHTQV9QY","3OYHVNTV5TKW8EI4DRB99U4E79NKOA","","1112.7000000029802","img/food2.png","74","1114.1000000014901","1","1","1","1,0.7,0,1,0.7,0,0.7,0,1","",""
"","html-keyboard-response","37","38253","0.0-37.0","3IXQG4FA2UKUU88YWRK02KMNWXLB9I","AR5M3HHTQV9QY","3OYHVNTV5TKW8EI4DRB99U4E79NKOA","","null","<img src=""img/food2.png"" style=""width:200px; border:14px solid green;"">","null","","","","","","",""
"","image-keyboard-response","38","39139","0.0-38.0","3IXQG4FA2UKUU88YWRK02KMNWXLB9I","AR5M3HHTQV9QY","3OYHVNTV5TKW8EI4DRB99U4E79NKOA","","885.3000000007451","img/food2.png","75","886.5","2","1","1","1,0.7,0,1,0.7,0,0.7,0,1","",""
"","html-keyboard-response","39","39444","0.0-39.0","3IXQG4FA2UKUU88YWRK02KMNWXLB9I","AR5M3HHTQV9QY","3OYHVNTV5TKW8EI4DRB99U4E79NKOA","","null","<img src=""img/food2.png"" style=""width:200px; border:14px solid green;"">","null","","","","","","",""
"","image-keyboard-response","40","40068","0.0-40.0","3IXQG4FA2UKUU88YWRK02KMNWXLB9I","AR5M3HHTQV9QY","3OYHVNTV5TKW8EI4DRB99U4E79NKOA","","621.8999999985099","img/food5.png","74","623.1999999992549","1","1","3","1,0.7,0,1,0.7,0,0.7,0,1","",""
"","html-keyboard-response","41","40373","0.0-41.0","3IXQG4FA2UKUU88YWRK02KMNWXLB9I","AR5M3HHTQV9QY","3OYHVNTV5TKW8EI4DRB99U4E79NKOA","","null","<img src=""img/food5.png"" style=""width:200px; border:14px solid green;"">","null","","","","","","",""
"","image-keyboard-response","42","40817","0.0-42.0","3IXQG4FA2UKUU88YWRK02KMNWXLB9I","AR5M3HHTQV9QY","3OYHVNTV5TKW8EI4DRB99U4E79NKOA","","441.19999999925494","img/food5.png","74","442.5","1","1","3","1,0.7,0,1,0.7,0,0.7,0,1","",""
"","html-keyboard-response","43","41124","0.0-43.0","3IXQG4FA2UKUU88YWRK02KMNWXLB9I","AR5M3HHTQV9QY","3OYHVNTV5TKW8EI4DRB99U4E79NKOA","","null","<img src=""img/food5.png"" style=""width:200px; border:14px solid green;"">","null","","","","","","",""
"","image-keyboard-response","44","41833","0.0-44.0","3IXQG4FA2UKUU88YWRK02KMNWXLB9I","AR5M3HHTQV9QY","3OYHVNTV5TKW8EI4DRB99U4E79NKOA","","707.1999999992549","img/food1.png","76","708.8000000007451","3","0","2","1,0.7,0,1,0.7,0,0.7,0,1","",""
"","html-keyboard-response","45","42140","0.0-45.0","3IXQG4FA2UKUU88YWRK02KMNWXLB9I","AR5M3HHTQV9QY","3OYHVNTV5TKW8EI4DRB99U4E79NKOA","","null","<img src=""img/food1.png"" style=""width:200px;border:14px solid red;"">","null","","","","","","",""
"","image-keyboard-response","46","42496","0.0-46.0","3IXQG4FA2UKUU88YWRK02KMNWXLB9I","AR5M3HHTQV9QY","3OYHVNTV5TKW8EI4DRB99U4E79NKOA","","353.69999999925494","img/food1.png","74","355.3999999985099","1","1","2","1,0.7,0,1,0.7,0,0.7,0,1","",""
"","html-keyboard-response","47","42805","0.0-47.0","3IXQG4FA2UKUU88YWRK02KMNWXLB9I","AR5M3HHTQV9QY","3OYHVNTV5TKW8EI4DRB99U4E79NKOA","","null","<img src=""img/food1.png"" style=""width:200px; border:14px solid green;"">","null","","","","","","",""
"","image-keyboard-response","48","43269","0.0-48.0","3IXQG4FA2UKUU88YWRK02KMNWXLB9I","AR5M3HHTQV9QY","3OYHVNTV5TKW8EI4DRB99U4E79NKOA","","462.80000000074506","img/food1.png","75","464.19999999925494","2","1","2","1,0.7,0,1,0.7,0,0.7,0,1","",""
"","html-keyboard-response","49","43573","0.0-49.0","3IXQG4FA2UKUU88YWRK02KMNWXLB9I","AR5M3HHTQV9QY","3OYHVNTV5TKW8EI4DRB99U4E79NKOA","","null","<img src=""img/food1.png"" style=""width:200px; border:14px solid green;"">","null","","","","","","",""
"","image-keyboard-response","50","44133","0.0-50.0","3IXQG4FA2UKUU88YWRK02KMNWXLB9I","AR5M3HHTQV9QY","3OYHVNTV5TKW8EI4DRB99U4E79NKOA","","559.1999999992549","img/food5.png","74","560.6000000014901","1","1","3","1,0.7,0,1,0.7,0,0.7,0,1","",""
"","html-keyboard-response","51","44437","0.0-51.0","3IXQG4FA2UKUU88YWRK02KMNWXLB9I","AR5M3HHTQV9QY","3OYHVNTV5TKW8EI4DRB99U4E79NKOA","","null","<img src=""img/food5.png"" style=""width:200px; border:14px solid green;"">","null","","","","","","",""
"","image-keyboard-response","52","44754","0.0-52.0","3IXQG4FA2UKUU88YWRK02KMNWXLB9I","AR5M3HHTQV9QY","3OYHVNTV5TKW8EI4DRB99U4E79NKOA","","315.5","img/food5.png","74","316.69999999925494","1","1","3","1,0.7,0,1,0.7,0,0.7,0,1","",""
"","html-keyboard-response","53","45061","0.0-53.0","3IXQG4FA2UKUU88YWRK02KMNWXLB9I","AR5M3HHTQV9QY","3OYHVNTV5TKW8EI4DRB99U4E79NKOA","","null","<img src=""img/food5.png"" style=""width:200px; border:14px solid green;"">","null","","","","","","",""
"","image-keyboard-response","54","45385","0.0-54.0","3IXQG4FA2UKUU88YWRK02KMNWXLB9I","AR5M3HHTQV9QY","3OYHVNTV5TKW8EI4DRB99U4E79NKOA","","322.6000000014901","img/food5.png","74","324.30000000074506","1","0","3","1,0.7,0,1,0.7,0,0.7,0,1","",""
"","html-keyboard-response","55","45693","0.0-55.0","3IXQG4FA2UKUU88YWRK02KMNWXLB9I","AR5M3HHTQV9QY","3OYHVNTV5TKW8EI4DRB99U4E79NKOA","","null","<img src=""img/food5.png"" style=""width:200px;border:14px solid red;"">","null","","","","","","",""
"","image-keyboard-response","56","46108","0.0-56.0","3IXQG4FA2UKUU88YWRK02KMNWXLB9I","AR5M3HHTQV9QY","3OYHVNTV5TKW8EI4DRB99U4E79NKOA","","414","img/food5.png","75","415.29999999701977","2","0","3","1,0.7,0,1,0.7,0,0.7,0,1","",""
"","html-keyboard-response","57","46412","0.0-57.0","3IXQG4FA2UKUU88YWRK02KMNWXLB9I","AR5M3HHTQV9QY","3OYHVNTV5TKW8EI4DRB99U4E79NKOA","","null","<img src=""img/food5.png"" style=""width:200px;border:14px solid red;"">","null","","","","","","",""
"","image-keyboard-response","58","46660","0.0-58.0","3IXQG4FA2UKUU88YWRK02KMNWXLB9I","AR5M3HHTQV9QY","3OYHVNTV5TKW8EI4DRB99U4E79NKOA","","246.39999999850988","img/food2.png","76","247.59999999776483","3","0","1","1,0.7,0,1,0.7,0,0.7,0,1","",""
"","html-keyboard-response","59","46965","0.0-59.0","3IXQG4FA2UKUU88YWRK02KMNWXLB9I","AR5M3HHTQV9QY","3OYHVNTV5TKW8EI4DRB99U4E79NKOA","","null","<img src=""img/food2.png"" style=""width:200px;border:14px solid red;"">","null","","","","","","",""
"","image-keyboard-response","60","47488","0.0-60.0","3IXQG4FA2UKUU88YWRK02KMNWXLB9I","AR5M3HHTQV9QY","3OYHVNTV5TKW8EI4DRB99U4E79NKOA","","520.8000000007451","img/food1.png","74","522.7999999970198","1","1","2","1,0.7,0,1,0.7,0,0.7,0,1","",""
"","html-keyboard-response","61","47797","0.0-61.0","3IXQG4FA2UKUU88YWRK02KMNWXLB9I","AR5M3HHTQV9QY","3OYHVNTV5TKW8EI4DRB99U4E79NKOA","","null","<img src=""img/food1.png"" style=""width:200px; border:14px solid green;"">","null","","","","","","",""
"","image-keyboard-response","62","48235","0.0-62.0","3IXQG4FA2UKUU88YWRK02KMNWXLB9I","AR5M3HHTQV9QY","3OYHVNTV5TKW8EI4DRB99U4E79NKOA","","436.30000000074506","img/food1.png","74","438","1","1","2","1,0.7,0,1,0.7,0,0.7,0,1","",""
"","html-keyboard-response","63","48540","0.0-63.0","3IXQG4FA2UKUU88YWRK02KMNWXLB9I","AR5M3HHTQV9QY","3OYHVNTV5TKW8EI4DRB99U4E79NKOA","","null","<img src=""img/food1.png"" style=""width:200px; border:14px solid green;"">","null","","","","","","",""
"","image-keyboard-response","64","48888","0.0-64.0","3IXQG4FA2UKUU88YWRK02KMNWXLB9I","AR5M3HHTQV9QY","3OYHVNTV5TKW8EI4DRB99U4E79NKOA","","345.9000000022352","img/food1.png","74","347.30000000074506","1","1","2","1,0.7,0,1,0.7,0,0.7,0,1","",""
"","html-keyboard-response","65","49197","0.0-65.0","3IXQG4FA2UKUU88YWRK02KMNWXLB9I","AR5M3HHTQV9QY","3OYHVNTV5TKW8EI4DRB99U4E79NKOA","","null","<img src=""img/food1.png"" style=""width:200px; border:14px solid green;"">","null","","","","","","",""
"","image-keyboard-response","66","49529","0.0-66.0","3IXQG4FA2UKUU88YWRK02KMNWXLB9I","AR5M3HHTQV9QY","3OYHVNTV5TKW8EI4DRB99U4E79NKOA","","330.0999999977648","img/food1.png","74","331.4000000022352","1","1","2","1,0.7,0,1,0.7,0,0.7,0,1","",""
"","html-keyboard-response","67","49836","0.0-67.0","3IXQG4FA2UKUU88YWRK02KMNWXLB9I","AR5M3HHTQV9QY","3OYHVNTV5TKW8EI4DRB99U4E79NKOA","","null","<img src=""img/food1.png"" style=""width:200px; border:14px solid green;"">","null","","","","","","",""
"","image-keyboard-response","68","50439","0.0-68.0","3IXQG4FA2UKUU88YWRK02KMNWXLB9I","AR5M3HHTQV9QY","3OYHVNTV5TKW8EI4DRB99U4E79NKOA","","601.7999999970198","img/food2.png","75","603","2","0","1","1,0.7,0,1,0.7,0,0.7,0,1","",""
"","html-keyboard-response","69","50748","0.0-69.0","3IXQG4FA2UKUU88YWRK02KMNWXLB9I","AR5M3HHTQV9QY","3OYHVNTV5TKW8EI4DRB99U4E79NKOA","","null","<img src=""img/food2.png"" style=""width:200px;border:14px solid red;"">","null","","","","","","",""
"","image-keyboard-response","70","51771","0.0-70.0","3IXQG4FA2UKUU88YWRK02KMNWXLB9I","AR5M3HHTQV9QY","3OYHVNTV5TKW8EI4DRB99U4E79NKOA","","1021.3999999985099","img/food2.png","76","1022.6000000014901","3","0","1","1,0.7,0,1,0.7,0,0.7,0,1","",""
"","html-keyboard-response","71","52077","0.0-71.0","3IXQG4FA2UKUU88YWRK02KMNWXLB9I","AR5M3HHTQV9QY","3OYHVNTV5TKW8EI4DRB99U4E79NKOA","","null","<img src=""img/food2.png"" style=""width:200px;border:14px solid red;"">","null","","","","","","",""
"","image-keyboard-response","72","52495","0.0-72.0","3IXQG4FA2UKUU88YWRK02KMNWXLB9I","AR5M3HHTQV9QY","3OYHVNTV5TKW8EI4DRB99U4E79NKOA","","417.20000000298023","img/food2.png","74","418.69999999925494","1","1","1","1,0.7,0,1,0.7,0,0.7,0,1","",""
"","html-keyboard-response","73","52805","0.0-73.0","3IXQG4FA2UKUU88YWRK02KMNWXLB9I","AR5M3HHTQV9QY","3OYHVNTV5TKW8EI4DRB99U4E79NKOA","","null","<img src=""img/food2.png"" style=""width:200px; border:14px solid green;"">","null","","","","","","",""
"","image-keyboard-response","74","53288","0.0-74.0","3IXQG4FA2UKUU88YWRK02KMNWXLB9I","AR5M3HHTQV9QY","3OYHVNTV5TKW8EI4DRB99U4E79NKOA","","480.69999999925494","img/food2.png","74","482.3999999985099","1","1","1","1,0.7,0,1,0.7,0,0.7,0,1","",""
"","html-keyboard-response","75","53596","0.0-75.0","3IXQG4FA2UKUU88YWRK02KMNWXLB9I","AR5M3HHTQV9QY","3OYHVNTV5TKW8EI4DRB99U4E79NKOA","","null","<img src=""img/food2.png"" style=""width:200px; border:14px solid green;"">","null","","","","","","",""
"","image-keyboard-response","76","54205","0.0-76.0","3IXQG4FA2UKUU88YWRK02KMNWXLB9I","AR5M3HHTQV9QY","3OYHVNTV5TKW8EI4DRB99U4E79NKOA","","606.7999999970198","img/food1.png","74","608.6999999992549","1","1","2","1,0.7,0,1,0.7,0,0.7,0,1","",""
"","html-keyboard-response","77","54509","0.0-77.0","3IXQG4FA2UKUU88YWRK02KMNWXLB9I","AR5M3HHTQV9QY","3OYHVNTV5TKW8EI4DRB99U4E79NKOA","","null","<img src=""img/food1.png"" style=""width:200px; border:14px solid green;"">","null","","","","","","",""
"","image-keyboard-response","78","55010","0.0-78.0","3IXQG4FA2UKUU88YWRK02KMNWXLB9I","AR5M3HHTQV9QY","3OYHVNTV5TKW8EI4DRB99U4E79NKOA","","499.1000000014901","img/food2.png","74","500.69999999925494","1","1","1","1,0.7,0,1,0.7,0,0.7,0,1","",""
"","html-keyboard-response","79","55316","0.0-79.0","3IXQG4FA2UKUU88YWRK02KMNWXLB9I","AR5M3HHTQV9QY","3OYHVNTV5TKW8EI4DRB99U4E79NKOA","","null","<img src=""img/food2.png"" style=""width:200px; border:14px solid green;"">","null","","","","","","",""
"","image-keyboard-response","80","55904","0.0-80.0","3IXQG4FA2UKUU88YWRK02KMNWXLB9I","AR5M3HHTQV9QY","3OYHVNTV5TKW8EI4DRB99U4E79NKOA","","585.6999999992549","img/food1.png","74","587.3000000007451","1","1","2","1,0.7,0,1,0.7,0,0.7,0,1","",""
"","html-keyboard-response","81","56213","0.0-81.0","3IXQG4FA2UKUU88YWRK02KMNWXLB9I","AR5M3HHTQV9QY","3OYHVNTV5TKW8EI4DRB99U4E79NKOA","","null","<img src=""img/food1.png"" style=""width:200px; border:14px solid green;"">","null","","","","","","",""
"","image-keyboard-response","82","56710","0.0-82.0","3IXQG4FA2UKUU88YWRK02KMNWXLB9I","AR5M3HHTQV9QY","3OYHVNTV5TKW8EI4DRB99U4E79NKOA","","495.4000000022352","img/food5.png","74","497","1","1","3","1,0.7,0,1,0.7,0,0.7,0,1","",""
"","html-keyboard-response","83","57012","0.0-83.0","3IXQG4FA2UKUU88YWRK02KMNWXLB9I","AR5M3HHTQV9QY","3OYHVNTV5TKW8EI4DRB99U4E79NKOA","","null","<img src=""img/food5.png"" style=""width:200px; border:14px solid green;"">","null","","","","","","",""
"","image-keyboard-response","84","57352","0.0-84.0","3IXQG4FA2UKUU88YWRK02KMNWXLB9I","AR5M3HHTQV9QY","3OYHVNTV5TKW8EI4DRB99U4E79NKOA","","337.19999999925494","img/food1.png","74","339.1000000014901","1","1","2","1,0.7,0,1,0.7,0,0.7,0,1","",""
"","html-keyboard-response","85","57660","0.0-85.0","3IXQG4FA2UKUU88YWRK02KMNWXLB9I","AR5M3HHTQV9QY","3OYHVNTV5TKW8EI4DRB99U4E79NKOA","","null","<img src=""img/food1.png"" style=""width:200px; border:14px solid green;"">","null","","","","","","",""
"","image-keyboard-response","86","57896","0.0-86.0","3IXQG4FA2UKUU88YWRK02KMNWXLB9I","AR5M3HHTQV9QY","3OYHVNTV5TKW8EI4DRB99U4E79NKOA","","233.60000000149012","img/food1.png","74","234.89999999850988","1","1","2","1,0.7,0,1,0.7,0,0.7,0,1","",""
"","html-keyboard-response","87","58205","0.0-87.0","3IXQG4FA2UKUU88YWRK02KMNWXLB9I","AR5M3HHTQV9QY","3OYHVNTV5TKW8EI4DRB99U4E79NKOA","","null","<img src=""img/food1.png"" style=""width:200px; border:14px solid green;"">","null","","","","","","",""
"","image-keyboard-response","88","58459","0.0-88.0","3IXQG4FA2UKUU88YWRK02KMNWXLB9I","AR5M3HHTQV9QY","3OYHVNTV5TKW8EI4DRB99U4E79NKOA","","252.5","img/food5.png","74","254.10000000149012","1","1","3","1,0.7,0,1,0.7,0,0.7,0,1","",""
"","html-keyboard-response","89","58764","0.0-89.0","3IXQG4FA2UKUU88YWRK02KMNWXLB9I","AR5M3HHTQV9QY","3OYHVNTV5TKW8EI4DRB99U4E79NKOA","","null","<img src=""img/food5.png"" style=""width:200px; border:14px solid green;"">","null","","","","","","",""
"","image-keyboard-response","90","59001","0.0-90.0","3IXQG4FA2UKUU88YWRK02KMNWXLB9I","AR5M3HHTQV9QY","3OYHVNTV5TKW8EI4DRB99U4E79NKOA","","234.80000000074506","img/food5.png","74","236.30000000074506","1","1","3","1,0.7,0,1,0.7,0,0.7,0,1","",""
"","html-keyboard-response","91","59309","0.0-91.0","3IXQG4FA2UKUU88YWRK02KMNWXLB9I","AR5M3HHTQV9QY","3OYHVNTV5TKW8EI4DRB99U4E79NKOA","","null","<img src=""img/food5.png"" style=""width:200px; border:14px solid green;"">","null","","","","","","",""
"","image-keyboard-response","92","59382","0.0-92.0","3IXQG4FA2UKUU88YWRK02KMNWXLB9I","AR5M3HHTQV9QY","3OYHVNTV5TKW8EI4DRB99U4E79NKOA","","71.39999999850988","img/food5.png","74","73.10000000149012","1","1","3","1,0.7,0,1,0.7,0,0.7,0,1","",""
"","html-keyboard-response","93","59685","0.0-93.0","3IXQG4FA2UKUU88YWRK02KMNWXLB9I","AR5M3HHTQV9QY","3OYHVNTV5TKW8EI4DRB99U4E79NKOA","","null","<img src=""img/food5.png"" style=""width:200px; border:14px solid green;"">","null","","","","","","",""
"","image-keyboard-response","94","59727","0.0-94.0","3IXQG4FA2UKUU88YWRK02KMNWXLB9I","AR5M3HHTQV9QY","3OYHVNTV5TKW8EI4DRB99U4E79NKOA","","40.19999999925494","img/food1.png","74","41.600000001490116","1","1","2","1,0.7,0,1,0.7,0,0.7,0,1","",""
"","html-keyboard-response","95","60037","0.0-95.0","3IXQG4FA2UKUU88YWRK02KMNWXLB9I","AR5M3HHTQV9QY","3OYHVNTV5TKW8EI4DRB99U4E79NKOA","","null","<img src=""img/food1.png"" style=""width:200px; border:14px solid green;"">","null","","","","","","",""
"","image-keyboard-response","96","60146","0.0-96.0","3IXQG4FA2UKUU88YWRK02KMNWXLB9I","AR5M3HHTQV9QY","3OYHVNTV5TKW8EI4DRB99U4E79NKOA","","107.29999999701977","img/food5.png","74","108.60000000149012","1","1","3","1,0.7,0,1,0.7,0,0.7,0,1","",""
"","html-keyboard-response","97","60452","0.0-97.0","3IXQG4FA2UKUU88YWRK02KMNWXLB9I","AR5M3HHTQV9QY","3OYHVNTV5TKW8EI4DRB99U4E79NKOA","","null","<img src=""img/food5.png"" style=""width:200px; border:14px solid green;"">","null","","","","","","",""
"","image-keyboard-response","98","60473","0.0-98.0","3IXQG4FA2UKUU88YWRK02KMNWXLB9I","AR5M3HHTQV9QY","3OYHVNTV5TKW8EI4DRB99U4E79NKOA","","19.399999998509884","img/food1.png","74","20.600000001490116","1","1","2","1,0.7,0,1,0.7,0,0.7,0,1","",""
"","html-keyboard-response","99","60781","0.0-99.0","3IXQG4FA2UKUU88YWRK02KMNWXLB9I","AR5M3HHTQV9QY","3OYHVNTV5TKW8EI4DRB99U4E79NKOA","","null","<img src=""img/food1.png"" style=""width:200px; border:14px solid green;"">","null","","","","","","",""
"","image-keyboard-response","100","61062","0.0-100.0","3IXQG4FA2UKUU88YWRK02KMNWXLB9I","AR5M3HHTQV9QY","3OYHVNTV5TKW8EI4DRB99U4E79NKOA","","279.1000000014901","img/food5.png","74","280.69999999925494","1","1","3","1,0.7,0,1,0.7,0,0.7,0,1","",""
"","html-keyboard-response","101","61365","0.0-101.0","3IXQG4FA2UKUU88YWRK02KMNWXLB9I","AR5M3HHTQV9QY","3OYHVNTV5TKW8EI4DRB99U4E79NKOA","","null","<img src=""img/food5.png"" style=""width:200px; border:14px solid green;"">","null","","","","","","",""
"","image-keyboard-response","102","61619","0.0-102.0","3IXQG4FA2UKUU88YWRK02KMNWXLB9I","AR5M3HHTQV9QY","3OYHVNTV5TKW8EI4DRB99U4E79NKOA","","253.19999999925494","img/food5.png","74","254.89999999850988","1","1","3","1,0.7,0,1,0.7,0,0.7,0,1","",""
"","html-keyboard-response","103","61924","0.0-103.0","3IXQG4FA2UKUU88YWRK02KMNWXLB9I","AR5M3HHTQV9QY","3OYHVNTV5TKW8EI4DRB99U4E79NKOA","","null","<img src=""img/food5.png"" style=""width:200px; border:14px solid green;"">","null","","","","","","",""
"","image-keyboard-response","104","61943","0.0-104.0","3IXQG4FA2UKUU88YWRK02KMNWXLB9I","AR5M3HHTQV9QY","3OYHVNTV5TKW8EI4DRB99U4E79NKOA","","16.900000002235174","img/food5.png","74","18.400000002235174","1","1","3","1,0.7,0,1,0.7,0,0.7,0,1","",""
"","html-keyboard-response","105","62253","0.0-105.0","3IXQG4FA2UKUU88YWRK02KMNWXLB9I","AR5M3HHTQV9QY","3OYHVNTV5TKW8EI4DRB99U4E79NKOA","","null","<img src=""img/food5.png"" style=""width:200px; border:14px solid green;"">","null","","","","","","",""
"","image-keyboard-response","106","62343","0.0-106.0","3IXQG4FA2UKUU88YWRK02KMNWXLB9I","AR5M3HHTQV9QY","3OYHVNTV5TKW8EI4DRB99U4E79NKOA","","88.79999999701977","img/food2.png","74","90.10000000149012","1","1","1","1,0.7,0,1,0.7,0,0.7,0,1","",""
"","html-keyboard-response","107","62652","0.0-107.0","3IXQG4FA2UKUU88YWRK02KMNWXLB9I","AR5M3HHTQV9QY","3OYHVNTV5TKW8EI4DRB99U4E79NKOA","","null","<img src=""img/food2.png"" style=""width:200px; border:14px solid green;"">","null","","","","","","",""
"","image-keyboard-response","108","62779","0.0-108.0","3IXQG4FA2UKUU88YWRK02KMNWXLB9I","AR5M3HHTQV9QY","3OYHVNTV5TKW8EI4DRB99U4E79NKOA","","124.5","img/food5.png","74","126.09999999776483","1","1","3","1,0.7,0,1,0.7,0,0.7,0,1","",""
"","html-keyboard-response","109","63085","0.0-109.0","3IXQG4FA2UKUU88YWRK02KMNWXLB9I","AR5M3HHTQV9QY","3OYHVNTV5TKW8EI4DRB99U4E79NKOA","","null","<img src=""img/food5.png"" style=""width:200px; border:14px solid green;"">","null","","","","","","",""
"","image-keyboard-response","110","63162","0.0-110.0","3IXQG4FA2UKUU88YWRK02KMNWXLB9I","AR5M3HHTQV9QY","3OYHVNTV5TKW8EI4DRB99U4E79NKOA","","75.30000000074506","img/food2.png","74","77","1","1","1","1,0.7,0,1,0.7,0,0.7,0,1","",""
"","html-keyboard-response","111","63468","0.0-111.0","3IXQG4FA2UKUU88YWRK02KMNWXLB9I","AR5M3HHTQV9QY","3OYHVNTV5TKW8EI4DRB99U4E79NKOA","","null","<img src=""img/food2.png"" style=""width:200px; border:14px solid green;"">","null","","","","","","",""
"","image-keyboard-response","112","63519","0.0-112.0","3IXQG4FA2UKUU88YWRK02KMNWXLB9I","AR5M3HHTQV9QY","3OYHVNTV5TKW8EI4DRB99U4E79NKOA","","48.900000002235174","img/food5.png","74","50.20000000298023","1","0","3","1,0.7,0,1,0.7,0,0.7,0,1","",""
"","html-keyboard-response","113","63828","0.0-113.0","3IXQG4FA2UKUU88YWRK02KMNWXLB9I","AR5M3HHTQV9QY","3OYHVNTV5TKW8EI4DRB99U4E79NKOA","","null","<img src=""img/food5.png"" style=""width:200px;border:14px solid red;"">","null","","","","","","",""
"","image-keyboard-response","114","63903","0.0-114.0","3IXQG4FA2UKUU88YWRK02KMNWXLB9I","AR5M3HHTQV9QY","3OYHVNTV5TKW8EI4DRB99U4E79NKOA","","73.39999999850988","img/food5.png","74","74.69999999925494","1","1","3","1,0.7,0,1,0.7,0,0.7,0,1","",""
"","html-keyboard-response","115","64213","0.0-115.0","3IXQG4FA2UKUU88YWRK02KMNWXLB9I","AR5M3HHTQV9QY","3OYHVNTV5TKW8EI4DRB99U4E79NKOA","","null","<img src=""img/food5.png"" style=""width:200px; border:14px solid green;"">","null","","","","","","",""
"","image-keyboard-response","116","64238","0.0-116.0","3IXQG4FA2UKUU88YWRK02KMNWXLB9I","AR5M3HHTQV9QY","3OYHVNTV5TKW8EI4DRB99U4E79NKOA","","24.199999999254942","img/food1.png","74","25.600000001490116","1","1","2","1,0.7,0,1,0.7,0,0.7,0,1","",""
"","html-keyboard-response","117","64541","0.0-117.0","3IXQG4FA2UKUU88YWRK02KMNWXLB9I","AR5M3HHTQV9QY","3OYHVNTV5TKW8EI4DRB99U4E79NKOA","","null","<img src=""img/food1.png"" style=""width:200px; border:14px solid green;"">","null","","","","","","",""
"","image-keyboard-response","118","64543","0.0-118.0","3IXQG4FA2UKUU88YWRK02KMNWXLB9I","AR5M3HHTQV9QY","3OYHVNTV5TKW8EI4DRB99U4E79NKOA","","0.19999999925494194","img/food2.png","74","1.2999999970197678","1","1","1","1,0.7,0,1,0.7,0,0.7,0,1","",""
"","html-keyboard-response","119","64844","0.0-119.0","3IXQG4FA2UKUU88YWRK02KMNWXLB9I","AR5M3HHTQV9QY","3OYHVNTV5TKW8EI4DRB99U4E79NKOA","","null","<img src=""img/food2.png"" style=""width:200px; border:14px solid green;"">","null","","","","","","",""
"","image-keyboard-response","120","64874","0.0-120.0","3IXQG4FA2UKUU88YWRK02KMNWXLB9I","AR5M3HHTQV9QY","3OYHVNTV5TKW8EI4DRB99U4E79NKOA","","27.699999999254942","img/food5.png","74","29.200000002980232","1","1","3","1,0.7,0,1,0.7,0,0.7,0,1","",""
"","html-keyboard-response","121","65181","0.0-121.0","3IXQG4FA2UKUU88YWRK02KMNWXLB9I","AR5M3HHTQV9QY","3OYHVNTV5TKW8EI4DRB99U4E79NKOA","","null","<img src=""img/food5.png"" style=""width:200px; border:14px solid green;"">","null","","","","","","",""
"","image-keyboard-response","122","65453","0.0-122.0","3IXQG4FA2UKUU88YWRK02KMNWXLB9I","AR5M3HHTQV9QY","3OYHVNTV5TKW8EI4DRB99U4E79NKOA","","268.8999999985099","img/food2.png","74","270.30000000074506","1","1","1","1,0.7,0,1,0.7,0,0.7,0,1","",""
"","html-keyboard-response","123","65756","0.0-123.0","3IXQG4FA2UKUU88YWRK02KMNWXLB9I","AR5M3HHTQV9QY","3OYHVNTV5TKW8EI4DRB99U4E79NKOA","","null","<img src=""img/food2.png"" style=""width:200px; border:14px solid green;"">","null","","","","","","",""
"","image-keyboard-response","124","66063","0.0-124.0","3IXQG4FA2UKUU88YWRK02KMNWXLB9I","AR5M3HHTQV9QY","3OYHVNTV5TKW8EI4DRB99U4E79NKOA","","304.5","img/food1.png","74","306","1","1","2","1,0.7,0,1,0.7,0,0.7,0,1","",""
"","html-keyboard-response","125","66372","0.0-125.0","3IXQG4FA2UKUU88YWRK02KMNWXLB9I","AR5M3HHTQV9QY","3OYHVNTV5TKW8EI4DRB99U4E79NKOA","","null","<img src=""img/food1.png"" style=""width:200px; border:14px solid green;"">","null","","","","","","",""
"","image-keyboard-response","126","66379","0.0-126.0","3IXQG4FA2UKUU88YWRK02KMNWXLB9I","AR5M3HHTQV9QY","3OYHVNTV5TKW8EI4DRB99U4E79NKOA","","5","img/food2.png","74","6.300000000745058","1","1","1","1,0.7,0,1,0.7,0,0.7,0,1","",""
"","html-keyboard-response","127","66684","0.0-127.0","3IXQG4FA2UKUU88YWRK02KMNWXLB9I","AR5M3HHTQV9QY","3OYHVNTV5TKW8EI4DRB99U4E79NKOA","","null","<img src=""img/food2.png"" style=""width:200px; border:14px solid green;"">","null","","","","","","",""
"","image-keyboard-response","128","66780","0.0-128.0","3IXQG4FA2UKUU88YWRK02KMNWXLB9I","AR5M3HHTQV9QY","3OYHVNTV5TKW8EI4DRB99U4E79NKOA","","93.60000000149012","img/food1.png","74","95.09999999776483","1","1","2","1,0.7,0,1,0.7,0,0.7,0,1","",""
"","html-keyboard-response","129","67085","0.0-129.0","3IXQG4FA2UKUU88YWRK02KMNWXLB9I","AR5M3HHTQV9QY","3OYHVNTV5TKW8EI4DRB99U4E79NKOA","","null","<img src=""img/food1.png"" style=""width:200px; border:14px solid green;"">","null","","","","","","",""
"","image-keyboard-response","130","67105","0.0-130.0","3IXQG4FA2UKUU88YWRK02KMNWXLB9I","AR5M3HHTQV9QY","3OYHVNTV5TKW8EI4DRB99U4E79NKOA","","18.600000001490116","img/food5.png","74","19.899999998509884","1","0","3","1,0.7,0,1,0.7,0,0.7,0,1","",""
"","html-keyboard-response","131","67413","0.0-131.0","3IXQG4FA2UKUU88YWRK02KMNWXLB9I","AR5M3HHTQV9QY","3OYHVNTV5TKW8EI4DRB99U4E79NKOA","","null","<img src=""img/food5.png"" style=""width:200px;border:14px solid red;"">","null","","","","","","",""
"","image-keyboard-response","132","67457","0.0-132.0","3IXQG4FA2UKUU88YWRK02KMNWXLB9I","AR5M3HHTQV9QY","3OYHVNTV5TKW8EI4DRB99U4E79NKOA","","42.5","img/food2.png","74","43.69999999925494","1","1","1","1,0.7,0,1,0.7,0,0.7,0,1","",""
"","html-keyboard-response","133","67764","0.0-133.0","3IXQG4FA2UKUU88YWRK02KMNWXLB9I","AR5M3HHTQV9QY","3OYHVNTV5TKW8EI4DRB99U4E79NKOA","","null","<img src=""img/food2.png"" style=""width:200px; border:14px solid green;"">","null","","","","","","",""
"","image-keyboard-response","134","67775","0.0-134.0","3IXQG4FA2UKUU88YWRK02KMNWXLB9I","AR5M3HHTQV9QY","3OYHVNTV5TKW8EI4DRB99U4E79NKOA","","9.399999998509884","img/food5.png","74","10.599999997764826","1","1","3","1,0.7,0,1,0.7,0,0.7,0,1","",""
"","html-keyboard-response","135","68084","0.0-135.0","3IXQG4FA2UKUU88YWRK02KMNWXLB9I","AR5M3HHTQV9QY","3OYHVNTV5TKW8EI4DRB99U4E79NKOA","","null","<img src=""img/food5.png"" style=""width:200px; border:14px solid green;"">","null","","","","","","",""
"","image-keyboard-response","136","68092","0.0-136.0","3IXQG4FA2UKUU88YWRK02KMNWXLB9I","AR5M3HHTQV9QY","3OYHVNTV5TKW8EI4DRB99U4E79NKOA","","6.099999997764826","img/food5.png","74","7.300000000745058","1","1","3","1,0.7,0,1,0.7,0,0.7,0,1","",""
"","html-keyboard-response","137","68396","0.0-137.0","3IXQG4FA2UKUU88YWRK02KMNWXLB9I","AR5M3HHTQV9QY","3OYHVNTV5TKW8EI4DRB99U4E79NKOA","","null","<img src=""img/food5.png"" style=""width:200px; border:14px solid green;"">","null","","","","","","",""
"","image-keyboard-response","138","68663","0.0-138.0","3IXQG4FA2UKUU88YWRK02KMNWXLB9I","AR5M3HHTQV9QY","3OYHVNTV5TKW8EI4DRB99U4E79NKOA","","265.20000000298023","img/food2.png","74","266.69999999925494","1","1","1","1,0.7,0,1,0.7,0,0.7,0,1","",""
"","html-keyboard-response","139","68973","0.0-139.0","3IXQG4FA2UKUU88YWRK02KMNWXLB9I","AR5M3HHTQV9QY","3OYHVNTV5TKW8EI4DRB99U4E79NKOA","","null","<img src=""img/food2.png"" style=""width:200px; border:14px solid green;"">","null","","","","","","",""
"","image-keyboard-response","140","69002","0.0-140.0","3IXQG4FA2UKUU88YWRK02KMNWXLB9I","AR5M3HHTQV9QY","3OYHVNTV5TKW8EI4DRB99U4E79NKOA","","28.300000000745058","img/food5.png","74","29.699999999254942","1","1","3","1,0.7,0,1,0.7,0,0.7,0,1","",""
"","html-keyboard-response","141","69308","0.0-141.0","3IXQG4FA2UKUU88YWRK02KMNWXLB9I","AR5M3HHTQV9QY","3OYHVNTV5TKW8EI4DRB99U4E79NKOA","","null","<img src=""img/food5.png"" style=""width:200px; border:14px solid green;"">","null","","","","","","",""
"","image-keyboard-response","142","69643","0.0-142.0","3IXQG4FA2UKUU88YWRK02KMNWXLB9I","AR5M3HHTQV9QY","3OYHVNTV5TKW8EI4DRB99U4E79NKOA","","332.8999999985099","img/food1.png","74","334.19999999925494","1","1","2","1,0.7,0,1,0.7,0,0.7,0,1","",""
"","html-keyboard-response","143","69949","0.0-143.0","3IXQG4FA2UKUU88YWRK02KMNWXLB9I","AR5M3HHTQV9QY","3OYHVNTV5TKW8EI4DRB99U4E79NKOA","","null","<img src=""img/food1.png"" style=""width:200px; border:14px solid green;"">","null","","","","","","",""
"","image-keyboard-response","144","70104","0.0-144.0","3IXQG4FA2UKUU88YWRK02KMNWXLB9I","AR5M3HHTQV9QY","3OYHVNTV5TKW8EI4DRB99U4E79NKOA","","152.90000000223517","img/food1.png","74","154.5","1","1","2","1,0.7,0,1,0.7,0,0.7,0,1","",""
"","html-keyboard-response","145","70412","0.0-145.0","3IXQG4FA2UKUU88YWRK02KMNWXLB9I","AR5M3HHTQV9QY","3OYHVNTV5TKW8EI4DRB99U4E79NKOA","","null","<img src=""img/food1.png"" style=""width:200px; border:14px solid green;"">","null","","","","","","",""
"","image-keyboard-response","146","70431","0.0-146.0","3IXQG4FA2UKUU88YWRK02KMNWXLB9I","AR5M3HHTQV9QY","3OYHVNTV5TKW8EI4DRB99U4E79NKOA","","16.800000000745058","img/food5.png","74","18.300000000745058","1","1","3","1,0.7,0,1,0.7,0,0.7,0,1","",""
"","html-keyboard-response","147","70741","0.0-147.0","3IXQG4FA2UKUU88YWRK02KMNWXLB9I","AR5M3HHTQV9QY","3OYHVNTV5TKW8EI4DRB99U4E79NKOA","","null","<img src=""img/food5.png"" style=""width:200px; border:14px solid green;"">","null","","","","","","",""
"","image-keyboard-response","148","70750","0.0-148.0","3IXQG4FA2UKUU88YWRK02KMNWXLB9I","AR5M3HHTQV9QY","3OYHVNTV5TKW8EI4DRB99U4E79NKOA","","7.199999999254942","img/food1.png","74","8.700000002980232","1","1","2","1,0.7,0,1,0.7,0,0.7,0,1","",""
"","html-keyboard-response","149","71052","0.0-149.0","3IXQG4FA2UKUU88YWRK02KMNWXLB9I","AR5M3HHTQV9QY","3OYHVNTV5TKW8EI4DRB99U4E79NKOA","","null","<img src=""img/food1.png"" style=""width:200px; border:14px solid green;"">","null","","","","","","",""
"","image-keyboard-response","150","71063","0.0-150.0","3IXQG4FA2UKUU88YWRK02KMNWXLB9I","AR5M3HHTQV9QY","3OYHVNTV5TKW8EI4DRB99U4E79NKOA","","8.599999997764826","img/food2.png","74","10.5","1","1","1","1,0.7,0,1,0.7,0,0.7,0,1","",""
"","html-keyboard-response","151","71370","0.0-151.0","3IXQG4FA2UKUU88YWRK02KMNWXLB9I","AR5M3HHTQV9QY","3OYHVNTV5TKW8EI4DRB99U4E79NKOA","","null","<img src=""img/food2.png"" style=""width:200px; border:14px solid green;"">","null","","","","","","",""
"","image-keyboard-response","152","71694","0.0-152.0","3IXQG4FA2UKUU88YWRK02KMNWXLB9I","AR5M3HHTQV9QY","3OYHVNTV5TKW8EI4DRB99U4E79NKOA","","321.8999999985099","img/food2.png","74","323.5","1","1","1","1,0.7,0,1,0.7,0,0.7,0,1","",""
"","html-keyboard-response","153","71997","0.0-153.0","3IXQG4FA2UKUU88YWRK02KMNWXLB9I","AR5M3HHTQV9QY","3OYHVNTV5TKW8EI4DRB99U4E79NKOA","","null","<img src=""img/food2.png"" style=""width:200px; border:14px solid green;"">","null","","","","","","",""
"","image-keyboard-response","154","72082","0.0-154.0","3IXQG4FA2UKUU88YWRK02KMNWXLB9I","AR5M3HHTQV9QY","3OYHVNTV5TKW8EI4DRB99U4E79NKOA","","83.80000000074506","img/food1.png","74","85.09999999776483","1","1","2","1,0.7,0,1,0.7,0,0.7,0,1","",""
"","html-keyboard-response","155","72389","0.0-155.0","3IXQG4FA2UKUU88YWRK02KMNWXLB9I","AR5M3HHTQV9QY","3OYHVNTV5TKW8EI4DRB99U4E79NKOA","","null","<img src=""img/food1.png"" style=""width:200px; border:14px solid green;"">","null","","","","","","",""
"","image-keyboard-response","156","72391","0.0-156.0","3IXQG4FA2UKUU88YWRK02KMNWXLB9I","AR5M3HHTQV9QY","3OYHVNTV5TKW8EI4DRB99U4E79NKOA","","1","img/food2.png","74","2.300000000745058","1","1","1","1,0.7,0,1,0.7,0,0.7,0,1","",""
"","html-keyboard-response","157","72701","0.0-157.0","3IXQG4FA2UKUU88YWRK02KMNWXLB9I","AR5M3HHTQV9QY","3OYHVNTV5TKW8EI4DRB99U4E79NKOA","","null","<img src=""img/food2.png"" style=""width:200px; border:14px solid green;"">","null","","","","","","",""
"","image-keyboard-response","158","72991","0.0-158.0","3IXQG4FA2UKUU88YWRK02KMNWXLB9I","AR5M3HHTQV9QY","3OYHVNTV5TKW8EI4DRB99U4E79NKOA","","288.6000000014901","img/food1.png","74","289.8999999985099","1","1","2","1,0.7,0,1,0.7,0,0.7,0,1","",""
"","html-keyboard-response","159","73293","0.0-159.0","3IXQG4FA2UKUU88YWRK02KMNWXLB9I","AR5M3HHTQV9QY","3OYHVNTV5TKW8EI4DRB99U4E79NKOA","","null","<img src=""img/food1.png"" style=""width:200px; border:14px solid green;"">","null","","","","","","",""
"","image-keyboard-response","160","73525","0.0-160.0","3IXQG4FA2UKUU88YWRK02KMNWXLB9I","AR5M3HHTQV9QY","3OYHVNTV5TKW8EI4DRB99U4E79NKOA","","230.5","img/food5.png","74","231.89999999850988","1","0","3","1,0.7,0,1,0.7,0,0.7,0,1","",""
"","html-keyboard-response","161","73828","0.0-161.0","3IXQG4FA2UKUU88YWRK02KMNWXLB9I","AR5M3HHTQV9QY","3OYHVNTV5TKW8EI4DRB99U4E79NKOA","","null","<img src=""img/food5.png"" style=""width:200px;border:14px solid red;"">","null","","","","","","",""
"","image-keyboard-response","162","74062","0.0-162.0","3IXQG4FA2UKUU88YWRK02KMNWXLB9I","AR5M3HHTQV9QY","3OYHVNTV5TKW8EI4DRB99U4E79NKOA","","232.30000000074506","img/food2.png","74","233.80000000074506","1","1","1","1,0.7,0,1,0.7,0,0.7,0,1","",""
"","html-keyboard-response","163","74365","0.0-163.0","3IXQG4FA2UKUU88YWRK02KMNWXLB9I","AR5M3HHTQV9QY","3OYHVNTV5TKW8EI4DRB99U4E79NKOA","","null","<img src=""img/food2.png"" style=""width:200px; border:14px solid green;"">","null","","","","","","",""
"","image-keyboard-response","164","74373","0.0-164.0","3IXQG4FA2UKUU88YWRK02KMNWXLB9I","AR5M3HHTQV9QY","3OYHVNTV5TKW8EI4DRB99U4E79NKOA","","6.599999997764826","img/food2.png","74","8.300000000745058","1","1","1","1,0.7,0,1,0.7,0,0.7,0,1","",""
"","html-keyboard-response","165","74677","0.0-165.0","3IXQG4FA2UKUU88YWRK02KMNWXLB9I","AR5M3HHTQV9QY","3OYHVNTV5TKW8EI4DRB99U4E79NKOA","","null","<img src=""img/food2.png"" style=""width:200px; border:14px solid green;"">","null","","","","","","",""
"","image-keyboard-response","166","74907","0.0-166.0","3IXQG4FA2UKUU88YWRK02KMNWXLB9I","AR5M3HHTQV9QY","3OYHVNTV5TKW8EI4DRB99U4E79NKOA","","228.5","img/food5.png","74","230.09999999776483","1","1","3","1,0.7,0,1,0.7,0,0.7,0,1","",""
"","html-keyboard-response","167","75213","0.0-167.0","3IXQG4FA2UKUU88YWRK02KMNWXLB9I","AR5M3HHTQV9QY","3OYHVNTV5TKW8EI4DRB99U4E79NKOA","","null","<img src=""img/food5.png"" style=""width:200px; border:14px solid green;"">","null","","","","","","",""
"","image-keyboard-response","168","75473","0.0-168.0","3IXQG4FA2UKUU88YWRK02KMNWXLB9I","AR5M3HHTQV9QY","3OYHVNTV5TKW8EI4DRB99U4E79NKOA","","258.6000000014901","img/food1.png","74","260.0999999977648","1","1","2","1,0.7,0,1,0.7,0,0.7,0,1","",""
"","html-keyboard-response","169","75780","0.0-169.0","3IXQG4FA2UKUU88YWRK02KMNWXLB9I","AR5M3HHTQV9QY","3OYHVNTV5TKW8EI4DRB99U4E79NKOA","","null","<img src=""img/food1.png"" style=""width:200px; border:14px solid green;"">","null","","","","","","",""
"","image-keyboard-response","170","76021","0.0-170.0","3IXQG4FA2UKUU88YWRK02KMNWXLB9I","AR5M3HHTQV9QY","3OYHVNTV5TKW8EI4DRB99U4E79NKOA","","238.90000000223517","img/food1.png","74","240.20000000298023","1","1","2","1,0.7,0,1,0.7,0,0.7,0,1","",""
"","html-keyboard-response","171","76325","0.0-171.0","3IXQG4FA2UKUU88YWRK02KMNWXLB9I","AR5M3HHTQV9QY","3OYHVNTV5TKW8EI4DRB99U4E79NKOA","","null","<img src=""img/food1.png"" style=""width:200px; border:14px solid green;"">","null","","","","","","",""
"","image-keyboard-response","172","76579","0.0-172.0","3IXQG4FA2UKUU88YWRK02KMNWXLB9I","AR5M3HHTQV9QY","3OYHVNTV5TKW8EI4DRB99U4E79NKOA","","252.89999999850988","img/food2.png","74","254.29999999701977","1","1","1","1,0.7,0,1,0.7,0,0.7,0,1","",""
"","html-keyboard-response","173","76884","0.0-173.0","3IXQG4FA2UKUU88YWRK02KMNWXLB9I","AR5M3HHTQV9QY","3OYHVNTV5TKW8EI4DRB99U4E79NKOA","","null","<img src=""img/food2.png"" style=""width:200px; border:14px solid green;"">","null","","","","","","",""
"","image-keyboard-response","174","77061","0.0-174.0","3IXQG4FA2UKUU88YWRK02KMNWXLB9I","AR5M3HHTQV9QY","3OYHVNTV5TKW8EI4DRB99U4E79NKOA","","175.19999999925494","img/food5.png","74","176.40000000223517","1","1","3","1,0.7,0,1,0.7,0,0.7,0,1","",""
"","html-keyboard-response","175","77364","0.0-175.0","3IXQG4FA2UKUU88YWRK02KMNWXLB9I","AR5M3HHTQV9QY","3OYHVNTV5TKW8EI4DRB99U4E79NKOA","","null","<img src=""img/food5.png"" style=""width:200px; border:14px solid green;"">","null","","","","","","",""
"","image-keyboard-response","176","77535","0.0-176.0","3IXQG4FA2UKUU88YWRK02KMNWXLB9I","AR5M3HHTQV9QY","3OYHVNTV5TKW8EI4DRB99U4E79NKOA","","169.19999999925494","img/food2.png","74","170.40000000223517","1","1","1","1,0.7,0,1,0.7,0,0.7,0,1","",""
"","html-keyboard-response","177","77844","0.0-177.0","3IXQG4FA2UKUU88YWRK02KMNWXLB9I","AR5M3HHTQV9QY","3OYHVNTV5TKW8EI4DRB99U4E79NKOA","","null","<img src=""img/food2.png"" style=""width:200px; border:14px solid green;"">","null","","","","","","",""
"","image-keyboard-response","178","77970","0.0-178.0","3IXQG4FA2UKUU88YWRK02KMNWXLB9I","AR5M3HHTQV9QY","3OYHVNTV5TKW8EI4DRB99U4E79NKOA","","124.5","img/food2.png","74","126","1","1","1","1,0.7,0,1,0.7,0,0.7,0,1","",""
"","html-keyboard-response","179","78274","0.0-179.0","3IXQG4FA2UKUU88YWRK02KMNWXLB9I","AR5M3HHTQV9QY","3OYHVNTV5TKW8EI4DRB99U4E79NKOA","","null","<img src=""img/food2.png"" style=""width:200px; border:14px solid green;"">","null","","","","","","",""
"","image-keyboard-response","180","78369","0.0-180.0","3IXQG4FA2UKUU88YWRK02KMNWXLB9I","AR5M3HHTQV9QY","3OYHVNTV5TKW8EI4DRB99U4E79NKOA","","92.80000000074506","img/food1.png","74","94.80000000074506","1","1","2","1,0.7,0,1,0.7,0,0.7,0,1","",""
"","html-keyboard-response","181","78677","0.0-181.0","3IXQG4FA2UKUU88YWRK02KMNWXLB9I","AR5M3HHTQV9QY","3OYHVNTV5TKW8EI4DRB99U4E79NKOA","","null","<img src=""img/food1.png"" style=""width:200px; border:14px solid green;"">","null","","","","","","",""
"","html-keyboard-response","182","80896","0.0-182.0","3IXQG4FA2UKUU88YWRK02KMNWXLB9I","AR5M3HHTQV9QY","3OYHVNTV5TKW8EI4DRB99U4E79NKOA","","","","","","","","","","",""
"","instructions","183","93457","0.0-183.0","3IXQG4FA2UKUU88YWRK02KMNWXLB9I","AR5M3HHTQV9QY","3OYHVNTV5TKW8EI4DRB99U4E79NKOA","[{""page_index"":0,""viewing_time"":10872.20000000298},{""page_index"":1,""viewing_time"":1686.0999999977648}]","12558.60000000149","","","","","","","","",""
"","image-keyboard-response","184","94039","0.0-184.0","3IXQG4FA2UKUU88YWRK02KMNWXLB9I","AR5M3HHTQV9QY","3OYHVNTV5TKW8EI4DRB99U4E79NKOA","","580.1000000014901","img/food3.png","74","582.1000000014901","1","1","1","1,0.7,0,1,0.7,0,0.7,0,1","false",""
"","html-keyboard-response","185","94348","0.0-185.0","3IXQG4FA2UKUU88YWRK02KMNWXLB9I","AR5M3HHTQV9QY","3OYHVNTV5TKW8EI4DRB99U4E79NKOA","","null","<img src=""img/food3.png"" style=""width:200px; border:14px solid green;"">","null","","","","","","",""
"","image-keyboard-response","186","94724","0.0-187.0","3IXQG4FA2UKUU88YWRK02KMNWXLB9I","AR5M3HHTQV9QY","3OYHVNTV5TKW8EI4DRB99U4E79NKOA","","373.30000000074506","img/food3.png","75","374.9000000022352","2","0","1","1,0.7,0,1,0.7,0,0.7,0,1","false",""
"","html-keyboard-response","187","95028","0.0-188.0","3IXQG4FA2UKUU88YWRK02KMNWXLB9I","AR5M3HHTQV9QY","3OYHVNTV5TKW8EI4DRB99U4E79NKOA","","null","<img src=""img/food3.png"" style=""width:200px;border:14px solid red;"">","null","","","","","","",""
"","image-keyboard-response","188","95172","0.0-190.0","3IXQG4FA2UKUU88YWRK02KMNWXLB9I","AR5M3HHTQV9QY","3OYHVNTV5TKW8EI4DRB99U4E79NKOA","","142.5","img/food6.png","74","143.89999999850988","1","1","2","1,0.7,0,1,0.7,0,0.7,0,1","false",""
"","html-keyboard-response","189","95480","0.0-191.0","3IXQG4FA2UKUU88YWRK02KMNWXLB9I","AR5M3HHTQV9QY","3OYHVNTV5TKW8EI4DRB99U4E79NKOA","","null","<img src=""img/food6.png"" style=""width:200px; border:14px solid green;"">","null","","","","","","",""
"","image-keyboard-response","190","95613","0.0-193.0","3IXQG4FA2UKUU88YWRK02KMNWXLB9I","AR5M3HHTQV9QY","3OYHVNTV5TKW8EI4DRB99U4E79NKOA","","128.10000000149012","img/food4.png","74","129.89999999850988","1","1","3","1,0.7,0,1,0.7,0,0.7,0,1","false",""
"","html-keyboard-response","191","95917","0.0-194.0","3IXQG4FA2UKUU88YWRK02KMNWXLB9I","AR5M3HHTQV9QY","3OYHVNTV5TKW8EI4DRB99U4E79NKOA","","null","<img src=""img/food4.png"" style=""width:200px; border:14px solid green;"">","null","","","","","","",""
"","image-keyboard-response","192","96140","0.0-196.0","3IXQG4FA2UKUU88YWRK02KMNWXLB9I","AR5M3HHTQV9QY","3OYHVNTV5TKW8EI4DRB99U4E79NKOA","","221.40000000223517","img/food3.png","74","223.09999999776483","1","1","1","1,0.7,0,1,0.7,0,0.7,0,1","false",""
"","html-keyboard-response","193","96445","0.0-197.0","3IXQG4FA2UKUU88YWRK02KMNWXLB9I","AR5M3HHTQV9QY","3OYHVNTV5TKW8EI4DRB99U4E79NKOA","","null","<img src=""img/food3.png"" style=""width:200px; border:14px solid green;"">","null","","","","","","",""
"","image-keyboard-response","194","96695","0.0-199.0","3IXQG4FA2UKUU88YWRK02KMNWXLB9I","AR5M3HHTQV9QY","3OYHVNTV5TKW8EI4DRB99U4E79NKOA","","247.69999999925494","img/food6.png","74","250.40000000223517","1","1","2","1,0.7,0,1,0.7,0,0.7,0,1","false",""
"","html-keyboard-response","195","97005","0.0-200.0","3IXQG4FA2UKUU88YWRK02KMNWXLB9I","AR5M3HHTQV9QY","3OYHVNTV5TKW8EI4DRB99U4E79NKOA","","null","<img src=""img/food6.png"" style=""width:200px; border:14px solid green;"">","null","","","","","","",""
"","image-keyboard-response","196","97008","0.0-202.0","3IXQG4FA2UKUU88YWRK02KMNWXLB9I","AR5M3HHTQV9QY","3OYHVNTV5TKW8EI4DRB99U4E79NKOA","","0.8000000007450581","img/food3.png","74","2.2999999970197678","1","1","1","1,0.7,0,1,0.7,0,0.7,0,1","false",""
"","html-keyboard-response","197","97315","0.0-203.0","3IXQG4FA2UKUU88YWRK02KMNWXLB9I","AR5M3HHTQV9QY","3OYHVNTV5TKW8EI4DRB99U4E79NKOA","","null","<img src=""img/food3.png"" style=""width:200px; border:14px solid green;"">","null","","","","","","",""
"","image-keyboard-response","198","97568","0.0-205.0","3IXQG4FA2UKUU88YWRK02KMNWXLB9I","AR5M3HHTQV9QY","3OYHVNTV5TKW8EI4DRB99U4E79NKOA","","250.80000000074506","img/food4.png","74","252.59999999776483","1","1","3","1,0.7,0,1,0.7,0,0.7,0,1","false",""
"","html-keyboard-response","199","97876","0.0-206.0","3IXQG4FA2UKUU88YWRK02KMNWXLB9I","AR5M3HHTQV9QY","3OYHVNTV5TKW8EI4DRB99U4E79NKOA","","null","<img src=""img/food4.png"" style=""width:200px; border:14px solid green;"">","null","","","","","","",""
"","image-keyboard-response","200","98140","0.0-208.0","3IXQG4FA2UKUU88YWRK02KMNWXLB9I","AR5M3HHTQV9QY","3OYHVNTV5TKW8EI4DRB99U4E79NKOA","","262.3999999985099","img/food4.png","74","263.5999999977648","1","1","3","1,0.7,0,1,0.7,0,0.7,0,1","false",""
"","html-keyboard-response","201","98446","0.0-209.0","3IXQG4FA2UKUU88YWRK02KMNWXLB9I","AR5M3HHTQV9QY","3OYHVNTV5TKW8EI4DRB99U4E79NKOA","","null","<img src=""img/food4.png"" style=""width:200px; border:14px solid green;"">","null","","","","","","",""
"","image-keyboard-response","202","98632","0.0-211.0","3IXQG4FA2UKUU88YWRK02KMNWXLB9I","AR5M3HHTQV9QY","3OYHVNTV5TKW8EI4DRB99U4E79NKOA","","184.5","img/food4.png","74","186","1","1","3","1,0.7,0,1,0.7,0,0.7,0,1","false",""
"","html-keyboard-response","203","98941","0.0-212.0","3IXQG4FA2UKUU88YWRK02KMNWXLB9I","AR5M3HHTQV9QY","3OYHVNTV5TKW8EI4DRB99U4E79NKOA","","null","<img src=""img/food4.png"" style=""width:200px; border:14px solid green;"">","null","","","","","","",""
"","image-keyboard-response","204","99067","0.0-214.0","3IXQG4FA2UKUU88YWRK02KMNWXLB9I","AR5M3HHTQV9QY","3OYHVNTV5TKW8EI4DRB99U4E79NKOA","","124.10000000149012","img/food3.png","74","125.40000000223517","1","1","1","1,0.7,0,1,0.7,0,0.7,0,1","false",""
"","html-keyboard-response","205","99372","0.0-215.0","3IXQG4FA2UKUU88YWRK02KMNWXLB9I","AR5M3HHTQV9QY","3OYHVNTV5TKW8EI4DRB99U4E79NKOA","","null","<img src=""img/food3.png"" style=""width:200px; border:14px solid green;"">","null","","","","","","",""
"","image-keyboard-response","206","99505","0.0-217.0","3IXQG4FA2UKUU88YWRK02KMNWXLB9I","AR5M3HHTQV9QY","3OYHVNTV5TKW8EI4DRB99U4E79NKOA","","129.39999999850988","img/food3.png","74","131","1","1","1","1,0.7,0,1,0.7,0,0.7,0,1","false",""
"","html-keyboard-response","207","99813","0.0-218.0","3IXQG4FA2UKUU88YWRK02KMNWXLB9I","AR5M3HHTQV9QY","3OYHVNTV5TKW8EI4DRB99U4E79NKOA","","null","<img src=""img/food3.png"" style=""width:200px; border:14px solid green;"">","null","","","","","","",""
"","image-keyboard-response","208","99895","0.0-220.0","3IXQG4FA2UKUU88YWRK02KMNWXLB9I","AR5M3HHTQV9QY","3OYHVNTV5TKW8EI4DRB99U4E79NKOA","","79.59999999776483","img/food4.png","74","81.39999999850988","1","0","3","1,0.7,0,1,0.7,0,0.7,0,1","false",""
"","html-keyboard-response","209","100205","0.0-221.0","3IXQG4FA2UKUU88YWRK02KMNWXLB9I","AR5M3HHTQV9QY","3OYHVNTV5TKW8EI4DRB99U4E79NKOA","","null","<img src=""img/food4.png"" style=""width:200px;border:14px solid red;"">","null","","","","","","",""
"","image-keyboard-response","210","100328","0.0-223.0","3IXQG4FA2UKUU88YWRK02KMNWXLB9I","AR5M3HHTQV9QY","3OYHVNTV5TKW8EI4DRB99U4E79NKOA","","121.40000000223517","img/food4.png","74","123","1","0","3","1,0.7,0,1,0.7,0,0.7,0,1","false",""
"","html-keyboard-response","211","100637","0.0-224.0","3IXQG4FA2UKUU88YWRK02KMNWXLB9I","AR5M3HHTQV9QY","3OYHVNTV5TKW8EI4DRB99U4E79NKOA","","null","<img src=""img/food4.png"" style=""width:200px;border:14px solid red;"">","null","","","","","","",""
"","image-keyboard-response","212","100837","0.0-226.0","3IXQG4FA2UKUU88YWRK02KMNWXLB9I","AR5M3HHTQV9QY","3OYHVNTV5TKW8EI4DRB99U4E79NKOA","","198.80000000074506","img/food6.png","74","200.10000000149012","1","1","2","1,0.7,0,1,0.7,0,0.7,0,1","false",""
"","html-keyboard-response","213","101140","0.0-227.0","3IXQG4FA2UKUU88YWRK02KMNWXLB9I","AR5M3HHTQV9QY","3OYHVNTV5TKW8EI4DRB99U4E79NKOA","","null","<img src=""img/food6.png"" style=""width:200px; border:14px solid green;"">","null","","","","","","",""
"","image-keyboard-response","214","101313","0.0-229.0","3IXQG4FA2UKUU88YWRK02KMNWXLB9I","AR5M3HHTQV9QY","3OYHVNTV5TKW8EI4DRB99U4E79NKOA","","170.19999999925494","img/food6.png","74","172","1","1","2","1,0.7,0,1,0.7,0,0.7,0,1","false",""
"","html-keyboard-response","215","101621","0.0-230.0","3IXQG4FA2UKUU88YWRK02KMNWXLB9I","AR5M3HHTQV9QY","3OYHVNTV5TKW8EI4DRB99U4E79NKOA","","null","<img src=""img/food6.png"" style=""width:200px; border:14px solid green;"">","null","","","","","","",""
"","image-keyboard-response","216","101741","0.0-232.0","3IXQG4FA2UKUU88YWRK02KMNWXLB9I","AR5M3HHTQV9QY","3OYHVNTV5TKW8EI4DRB99U4E79NKOA","","117.09999999776483","img/food4.png","74","119.5","1","1","3","1,0.7,0,1,0.7,0,0.7,0,1","false",""
"","html-keyboard-response","217","102044","0.0-233.0","3IXQG4FA2UKUU88YWRK02KMNWXLB9I","AR5M3HHTQV9QY","3OYHVNTV5TKW8EI4DRB99U4E79NKOA","","null","<img src=""img/food4.png"" style=""width:200px; border:14px solid green;"">","null","","","","","","",""
"","image-keyboard-response","218","102206","0.0-235.0","3IXQG4FA2UKUU88YWRK02KMNWXLB9I","AR5M3HHTQV9QY","3OYHVNTV5TKW8EI4DRB99U4E79NKOA","","159.59999999776483","img/food6.png","74","161.30000000074506","1","1","2","1,0.7,0,1,0.7,0,0.7,0,1","false",""
"","html-keyboard-response","219","102509","0.0-236.0","3IXQG4FA2UKUU88YWRK02KMNWXLB9I","AR5M3HHTQV9QY","3OYHVNTV5TKW8EI4DRB99U4E79NKOA","","null","<img src=""img/food6.png"" style=""width:200px; border:14px solid green;"">","null","","","","","","",""
"","image-keyboard-response","220","102734","0.0-238.0","3IXQG4FA2UKUU88YWRK02KMNWXLB9I","AR5M3HHTQV9QY","3OYHVNTV5TKW8EI4DRB99U4E79NKOA","","222.69999999925494","img/food6.png","74","224.20000000298023","1","1","2","1,0.7,0,1,0.7,0,0.7,0,1","false",""
"","html-keyboard-response","221","103036","0.0-239.0","3IXQG4FA2UKUU88YWRK02KMNWXLB9I","AR5M3HHTQV9QY","3OYHVNTV5TKW8EI4DRB99U4E79NKOA","","null","<img src=""img/food6.png"" style=""width:200px; border:14px solid green;"">","null","","","","","","",""
"","image-keyboard-response","222","103190","0.0-241.0","3IXQG4FA2UKUU88YWRK02KMNWXLB9I","AR5M3HHTQV9QY","3OYHVNTV5TKW8EI4DRB99U4E79NKOA","","151.39999999850988","img/food6.png","74","152.69999999925494","1","1","2","1,0.7,0,1,0.7,0,0.7,0,1","false",""
"","html-keyboard-response","223","103495","0.0-242.0","3IXQG4FA2UKUU88YWRK02KMNWXLB9I","AR5M3HHTQV9QY","3OYHVNTV5TKW8EI4DRB99U4E79NKOA","","null","<img src=""img/food6.png"" style=""width:200px; border:14px solid green;"">","null","","","","","","",""
"","image-keyboard-response","224","103651","0.0-244.0","3IXQG4FA2UKUU88YWRK02KMNWXLB9I","AR5M3HHTQV9QY","3OYHVNTV5TKW8EI4DRB99U4E79NKOA","","154.19999999925494","img/food3.png","74","155.29999999701977","1","1","1","1,0.7,0,1,0.7,0,0.7,0,1","false",""
"","html-keyboard-response","225","103956","0.0-245.0","3IXQG4FA2UKUU88YWRK02KMNWXLB9I","AR5M3HHTQV9QY","3OYHVNTV5TKW8EI4DRB99U4E79NKOA","","null","<img src=""img/food3.png"" style=""width:200px; border:14px solid green;"">","null","","","","","","",""
"","image-keyboard-response","226","104093","0.0-247.0","3IXQG4FA2UKUU88YWRK02KMNWXLB9I","AR5M3HHTQV9QY","3OYHVNTV5TKW8EI4DRB99U4E79NKOA","","134.89999999850988","img/food6.png","74","136.39999999850988","1","1","2","1,0.7,0,1,0.7,0,0.7,0,1","false",""
"","html-keyboard-response","227","104396","0.0-248.0","3IXQG4FA2UKUU88YWRK02KMNWXLB9I","AR5M3HHTQV9QY","3OYHVNTV5TKW8EI4DRB99U4E79NKOA","","null","<img src=""img/food6.png"" style=""width:200px; border:14px solid green;"">","null","","","","","","",""
"","image-keyboard-response","228","104532","0.0-250.0","3IXQG4FA2UKUU88YWRK02KMNWXLB9I","AR5M3HHTQV9QY","3OYHVNTV5TKW8EI4DRB99U4E79NKOA","","133.5","img/food6.png","74","134.80000000074506","1","1","2","1,0.7,0,1,0.7,0,0.7,0,1","false",""
"","html-keyboard-response","229","104837","0.0-251.0","3IXQG4FA2UKUU88YWRK02KMNWXLB9I","AR5M3HHTQV9QY","3OYHVNTV5TKW8EI4DRB99U4E79NKOA","","null","<img src=""img/food6.png"" style=""width:200px; border:14px solid green;"">","null","","","","","","",""
"","image-keyboard-response","230","104975","0.0-253.0","3IXQG4FA2UKUU88YWRK02KMNWXLB9I","AR5M3HHTQV9QY","3OYHVNTV5TKW8EI4DRB99U4E79NKOA","","136.69999999925494","img/food3.png","74","139.40000000223517","1","1","1","1,0.7,0,1,0.7,0,0.7,0,1","false",""
"","html-keyboard-response","231","105285","0.0-254.0","3IXQG4FA2UKUU88YWRK02KMNWXLB9I","AR5M3HHTQV9QY","3OYHVNTV5TKW8EI4DRB99U4E79NKOA","","null","<img src=""img/food3.png"" style=""width:200px; border:14px solid green;"">","null","","","","","","",""
"","image-keyboard-response","232","105390","0.0-256.0","3IXQG4FA2UKUU88YWRK02KMNWXLB9I","AR5M3HHTQV9QY","3OYHVNTV5TKW8EI4DRB99U4E79NKOA","","102","img/food4.png","74","103.39999999850988","1","1","3","1,0.7,0,1,0.7,0,0.7,0,1","false",""
"","html-keyboard-response","233","105692","0.0-257.0","3IXQG4FA2UKUU88YWRK02KMNWXLB9I","AR5M3HHTQV9QY","3OYHVNTV5TKW8EI4DRB99U4E79NKOA","","null","<img src=""img/food4.png"" style=""width:200px; border:14px solid green;"">","null","","","","","","",""
"","image-keyboard-response","234","105797","0.0-259.0","3IXQG4FA2UKUU88YWRK02KMNWXLB9I","AR5M3HHTQV9QY","3OYHVNTV5TKW8EI4DRB99U4E79NKOA","","103.19999999925494","img/food4.png","74","104.5","1","1","3","1,0.7,0,1,0.7,0,0.7,0,1","false",""
"","html-keyboard-response","235","106100","0.0-260.0","3IXQG4FA2UKUU88YWRK02KMNWXLB9I","AR5M3HHTQV9QY","3OYHVNTV5TKW8EI4DRB99U4E79NKOA","","null","<img src=""img/food4.png"" style=""width:200px; border:14px solid green;"">","null","","","","","","",""
"","image-keyboard-response","236","106220","0.0-262.0","3IXQG4FA2UKUU88YWRK02KMNWXLB9I","AR5M3HHTQV9QY","3OYHVNTV5TKW8EI4DRB99U4E79NKOA","","117.90000000223517","img/food4.png","74","119.30000000074506","1","1","3","1,0.7,0,1,0.7,0,0.7,0,1","false",""
"","html-keyboard-response","237","106525","0.0-263.0","3IXQG4FA2UKUU88YWRK02KMNWXLB9I","AR5M3HHTQV9QY","3OYHVNTV5TKW8EI4DRB99U4E79NKOA","","null","<img src=""img/food4.png"" style=""width:200px; border:14px solid green;"">","null","","","","","","",""
"","image-keyboard-response","238","106638","0.0-265.0","3IXQG4FA2UKUU88YWRK02KMNWXLB9I","AR5M3HHTQV9QY","3OYHVNTV5TKW8EI4DRB99U4E79NKOA","","110.80000000074506","img/food3.png","74","112.69999999925494","1","1","1","1,0.7,0,1,0.7,0,0.7,0,1","false",""
"","html-keyboard-response","239","106941","0.0-266.0","3IXQG4FA2UKUU88YWRK02KMNWXLB9I","AR5M3HHTQV9QY","3OYHVNTV5TKW8EI4DRB99U4E79NKOA","","null","<img src=""img/food3.png"" style=""width:200px; border:14px solid green;"">","null","","","","","","",""
"","image-keyboard-response","240","107044","0.0-268.0","3IXQG4FA2UKUU88YWRK02KMNWXLB9I","AR5M3HHTQV9QY","3OYHVNTV5TKW8EI4DRB99U4E79NKOA","","101.80000000074506","img/food3.png","74","103.09999999776483","1","1","1","1,0.7,0,1,0.7,0,0.7,0,1","false",""
"","html-keyboard-response","241","107349","0.0-269.0","3IXQG4FA2UKUU88YWRK02KMNWXLB9I","AR5M3HHTQV9QY","3OYHVNTV5TKW8EI4DRB99U4E79NKOA","","null","<img src=""img/food3.png"" style=""width:200px; border:14px solid green;"">","null","","","","","","",""
"","image-keyboard-response","242","107442","0.0-271.0","3IXQG4FA2UKUU88YWRK02KMNWXLB9I","AR5M3HHTQV9QY","3OYHVNTV5TKW8EI4DRB99U4E79NKOA","","91.10000000149012","img/food6.png","74","92.89999999850988","1","1","2","1,0.7,0,1,0.7,0,0.7,0,1","false",""
"","html-keyboard-response","243","107749","0.0-272.0","3IXQG4FA2UKUU88YWRK02KMNWXLB9I","AR5M3HHTQV9QY","3OYHVNTV5TKW8EI4DRB99U4E79NKOA","","null","<img src=""img/food6.png"" style=""width:200px; border:14px solid green;"">","null","","","","","","",""
"","image-keyboard-response","244","107835","0.0-274.0","3IXQG4FA2UKUU88YWRK02KMNWXLB9I","AR5M3HHTQV9QY","3OYHVNTV5TKW8EI4DRB99U4E79NKOA","","84.5","img/food6.png","74","85.80000000074506","1","1","2","1,0.7,0,1,0.7,0,0.7,0,1","false",""
"","html-keyboard-response","245","108141","0.0-275.0","3IXQG4FA2UKUU88YWRK02KMNWXLB9I","AR5M3HHTQV9QY","3OYHVNTV5TKW8EI4DRB99U4E79NKOA","","null","<img src=""img/food6.png"" style=""width:200px; border:14px solid green;"">","null","","","","","","",""
"","image-keyboard-response","246","108230","0.0-277.0","3IXQG4FA2UKUU88YWRK02KMNWXLB9I","AR5M3HHTQV9QY","3OYHVNTV5TKW8EI4DRB99U4E79NKOA","","87.10000000149012","img/food6.png","74","88.69999999925494","1","1","2","1,0.7,0,1,0.7,0,0.7,0,1","false",""
"","html-keyboard-response","247","108533","0.0-278.0","3IXQG4FA2UKUU88YWRK02KMNWXLB9I","AR5M3HHTQV9QY","3OYHVNTV5TKW8EI4DRB99U4E79NKOA","","null","<img src=""img/food6.png"" style=""width:200px; border:14px solid green;"">","null","","","","","","",""
"","image-keyboard-response","248","108627","0.0-280.0","3IXQG4FA2UKUU88YWRK02KMNWXLB9I","AR5M3HHTQV9QY","3OYHVNTV5TKW8EI4DRB99U4E79NKOA","","93.09999999776483","img/food6.png","74","94.5","1","1","2","1,0.7,0,1,0.7,0,0.7,0,1","false",""
"","html-keyboard-response","249","108932","0.0-281.0","3IXQG4FA2UKUU88YWRK02KMNWXLB9I","AR5M3HHTQV9QY","3OYHVNTV5TKW8EI4DRB99U4E79NKOA","","null","<img src=""img/food6.png"" style=""width:200px; border:14px solid green;"">","null","","","","","","",""
"","image-keyboard-response","250","109021","0.0-283.0","3IXQG4FA2UKUU88YWRK02KMNWXLB9I","AR5M3HHTQV9QY","3OYHVNTV5TKW8EI4DRB99U4E79NKOA","","86.89999999850988","img/food6.png","74","88.79999999701977","1","1","2","1,0.7,0,1,0.7,0,0.7,0,1","false",""
"","html-keyboard-response","251","109325","0.0-284.0","3IXQG4FA2UKUU88YWRK02KMNWXLB9I","AR5M3HHTQV9QY","3OYHVNTV5TKW8EI4DRB99U4E79NKOA","","null","<img src=""img/food6.png"" style=""width:200px; border:14px solid green;"">","null","","","","","","",""
"","image-keyboard-response","252","109409","0.0-286.0","3IXQG4FA2UKUU88YWRK02KMNWXLB9I","AR5M3HHTQV9QY","3OYHVNTV5TKW8EI4DRB99U4E79NKOA","","82.30000000074506","img/food6.png","74","83.40000000223517","1","1","2","1,0.7,0,1,0.7,0,0.7,0,1","false",""
"","html-keyboard-response","253","109716","0.0-287.0","3IXQG4FA2UKUU88YWRK02KMNWXLB9I","AR5M3HHTQV9QY","3OYHVNTV5TKW8EI4DRB99U4E79NKOA","","null","<img src=""img/food6.png"" style=""width:200px; border:14px solid green;"">","null","","","","","","",""
"","image-keyboard-response","254","109794","0.0-289.0","3IXQG4FA2UKUU88YWRK02KMNWXLB9I","AR5M3HHTQV9QY","3OYHVNTV5TKW8EI4DRB99U4E79NKOA","","76","img/food3.png","74","77.39999999850988","1","1","1","1,0.7,0,1,0.7,0,0.7,0,1","false",""
"","html-keyboard-response","255","110101","0.0-290.0","3IXQG4FA2UKUU88YWRK02KMNWXLB9I","AR5M3HHTQV9QY","3OYHVNTV5TKW8EI4DRB99U4E79NKOA","","null","<img src=""img/food3.png"" style=""width:200px; border:14px solid green;"">","null","","","","","","",""
"","image-keyboard-response","256","110184","0.0-292.0","3IXQG4FA2UKUU88YWRK02KMNWXLB9I","AR5M3HHTQV9QY","3OYHVNTV5TKW8EI4DRB99U4E79NKOA","","81","img/food6.png","74","82.60000000149012","1","1","2","1,0.7,0,1,0.7,0,0.7,0,1","false",""
"","html-keyboard-response","257","110492","0.0-293.0","3IXQG4FA2UKUU88YWRK02KMNWXLB9I","AR5M3HHTQV9QY","3OYHVNTV5TKW8EI4DRB99U4E79NKOA","","null","<img src=""img/food6.png"" style=""width:200px; border:14px solid green;"">","null","","","","","","",""
"","image-keyboard-response","258","110593","0.0-295.0","3IXQG4FA2UKUU88YWRK02KMNWXLB9I","AR5M3HHTQV9QY","3OYHVNTV5TKW8EI4DRB99U4E79NKOA","","98.30000000074506","img/food3.png","74","99.80000000074506","1","1","1","1,0.7,0,1,0.7,0,0.7,0,1","false",""
"","html-keyboard-response","259","110900","0.0-296.0","3IXQG4FA2UKUU88YWRK02KMNWXLB9I","AR5M3HHTQV9QY","3OYHVNTV5TKW8EI4DRB99U4E79NKOA","","null","<img src=""img/food3.png"" style=""width:200px; border:14px solid green;"">","null","","","","","","",""
"","image-keyboard-response","260","110989","0.0-298.0","3IXQG4FA2UKUU88YWRK02KMNWXLB9I","AR5M3HHTQV9QY","3OYHVNTV5TKW8EI4DRB99U4E79NKOA","","86.59999999776483","img/food6.png","74","88.10000000149012","1","1","2","1,0.7,0,1,0.7,0,0.7,0,1","false",""
"","html-keyboard-response","261","111293","0.0-299.0","3IXQG4FA2UKUU88YWRK02KMNWXLB9I","AR5M3HHTQV9QY","3OYHVNTV5TKW8EI4DRB99U4E79NKOA","","null","<img src=""img/food6.png"" style=""width:200px; border:14px solid green;"">","null","","","","","","",""
"","image-keyboard-response","262","111384","0.0-301.0","3IXQG4FA2UKUU88YWRK02KMNWXLB9I","AR5M3HHTQV9QY","3OYHVNTV5TKW8EI4DRB99U4E79NKOA","","89.80000000074506","img/food4.png","74","91.19999999925494","1","1","3","1,0.7,0,1,0.7,0,0.7,0,1","false",""
"","html-keyboard-response","263","111692","0.0-302.0","3IXQG4FA2UKUU88YWRK02KMNWXLB9I","AR5M3HHTQV9QY","3OYHVNTV5TKW8EI4DRB99U4E79NKOA","","null","<img src=""img/food4.png"" style=""width:200px; border:14px solid green;"">","null","","","","","","",""
"","image-keyboard-response","264","111793","0.0-304.0","3IXQG4FA2UKUU88YWRK02KMNWXLB9I","AR5M3HHTQV9QY","3OYHVNTV5TKW8EI4DRB99U4E79NKOA","","99.19999999925494","img/food4.png","74","100.69999999925494","1","1","3","1,0.7,0,1,0.7,0,0.7,0,1","false",""
"","html-keyboard-response","265","112101","0.0-305.0","3IXQG4FA2UKUU88YWRK02KMNWXLB9I","AR5M3HHTQV9QY","3OYHVNTV5TKW8EI4DRB99U4E79NKOA","","null","<img src=""img/food4.png"" style=""width:200px; border:14px solid green;"">","null","","","","","","",""
"","image-keyboard-response","266","112189","0.0-307.0","3IXQG4FA2UKUU88YWRK02KMNWXLB9I","AR5M3HHTQV9QY","3OYHVNTV5TKW8EI4DRB99U4E79NKOA","","86.5","img/food4.png","74","88","1","1","3","1,0.7,0,1,0.7,0,0.7,0,1","false",""
"","html-keyboard-response","267","112493","0.0-308.0","3IXQG4FA2UKUU88YWRK02KMNWXLB9I","AR5M3HHTQV9QY","3OYHVNTV5TKW8EI4DRB99U4E79NKOA","","null","<img src=""img/food4.png"" style=""width:200px; border:14px solid green;"">","null","","","","","","",""
"","image-keyboard-response","268","112606","0.0-310.0","3IXQG4FA2UKUU88YWRK02KMNWXLB9I","AR5M3HHTQV9QY","3OYHVNTV5TKW8EI4DRB99U4E79NKOA","","110.89999999850988","img/food4.png","74","112.19999999925494","1","1","3","1,0.7,0,1,0.7,0,0.7,0,1","false",""
"","html-keyboard-response","269","112909","0.0-311.0","3IXQG4FA2UKUU88YWRK02KMNWXLB9I","AR5M3HHTQV9QY","3OYHVNTV5TKW8EI4DRB99U4E79NKOA","","null","<img src=""img/food4.png"" style=""width:200px; border:14px solid green;"">","null","","","","","","",""
"","image-keyboard-response","270","113022","0.0-313.0","3IXQG4FA2UKUU88YWRK02KMNWXLB9I","AR5M3HHTQV9QY","3OYHVNTV5TKW8EI4DRB99U4E79NKOA","","111","img/food4.png","74","112.60000000149012","1","0","3","1,0.7,0,1,0.7,0,0.7,0,1","false",""
"","html-keyboard-response","271","113324","0.0-314.0","3IXQG4FA2UKUU88YWRK02KMNWXLB9I","AR5M3HHTQV9QY","3OYHVNTV5TKW8EI4DRB99U4E79NKOA","","null","<img src=""img/food4.png"" style=""width:200px;border:14px solid red;"">","null","","","","","","",""
"","image-keyboard-response","272","113416","0.0-316.0","3IXQG4FA2UKUU88YWRK02KMNWXLB9I","AR5M3HHTQV9QY","3OYHVNTV5TKW8EI4DRB99U4E79NKOA","","89.19999999925494","img/food6.png","74","91.10000000149012","1","1","2","1,0.7,0,1,0.7,0,0.7,0,1","false",""
"","html-keyboard-response","273","113724","0.0-317.0","3IXQG4FA2UKUU88YWRK02KMNWXLB9I","AR5M3HHTQV9QY","3OYHVNTV5TKW8EI4DRB99U4E79NKOA","","null","<img src=""img/food6.png"" style=""width:200px; border:14px solid green;"">","null","","","","","","",""
"","image-keyboard-response","274","113785","0.0-319.0","3IXQG4FA2UKUU88YWRK02KMNWXLB9I","AR5M3HHTQV9QY","3OYHVNTV5TKW8EI4DRB99U4E79NKOA","","58.100000001490116","img/food3.png","74","59.900000002235174","1","1","1","1,0.7,0,1,0.7,0,0.7,0,1","false",""
"","html-keyboard-response","275","114092","0.0-320.0","3IXQG4FA2UKUU88YWRK02KMNWXLB9I","AR5M3HHTQV9QY","3OYHVNTV5TKW8EI4DRB99U4E79NKOA","","null","<img src=""img/food3.png"" style=""width:200px; border:14px solid green;"">","null","","","","","","",""
"","image-keyboard-response","276","114179","0.0-322.0","3IXQG4FA2UKUU88YWRK02KMNWXLB9I","AR5M3HHTQV9QY","3OYHVNTV5TKW8EI4DRB99U4E79NKOA","","84.79999999701977","img/food4.png","74","86.30000000074506","1","1","3","1,0.7,0,1,0.7,0,0.7,0,1","false",""
"","html-keyboard-response","277","114484","0.0-323.0","3IXQG4FA2UKUU88YWRK02KMNWXLB9I","AR5M3HHTQV9QY","3OYHVNTV5TKW8EI4DRB99U4E79NKOA","","null","<img src=""img/food4.png"" style=""width:200px; border:14px solid green;"">","null","","","","","","",""
"","image-keyboard-response","278","114625","0.0-325.0","3IXQG4FA2UKUU88YWRK02KMNWXLB9I","AR5M3HHTQV9QY","3OYHVNTV5TKW8EI4DRB99U4E79NKOA","","138.59999999776483","img/food4.png","74","140.40000000223517","1","1","3","1,0.7,0,1,0.7,0,0.7,0,1","false",""
"","html-keyboard-response","279","114933","0.0-326.0","3IXQG4FA2UKUU88YWRK02KMNWXLB9I","AR5M3HHTQV9QY","3OYHVNTV5TKW8EI4DRB99U4E79NKOA","","null","<img src=""img/food4.png"" style=""width:200px; border:14px solid green;"">","null","","","","","","",""
"","image-keyboard-response","280","115041","0.0-328.0","3IXQG4FA2UKUU88YWRK02KMNWXLB9I","AR5M3HHTQV9QY","3OYHVNTV5TKW8EI4DRB99U4E79NKOA","","106.09999999776483","img/food4.png","74","108","1","0","3","1,0.7,0,1,0.7,0,0.7,0,1","false",""
"","html-keyboard-response","281","115349","0.0-329.0","3IXQG4FA2UKUU88YWRK02KMNWXLB9I","AR5M3HHTQV9QY","3OYHVNTV5TKW8EI4DRB99U4E79NKOA","","null","<img src=""img/food4.png"" style=""width:200px;border:14px solid red;"">","null","","","","","","",""
"","image-keyboard-response","282","115510","0.0-331.0","3IXQG4FA2UKUU88YWRK02KMNWXLB9I","AR5M3HHTQV9QY","3OYHVNTV5TKW8EI4DRB99U4E79NKOA","","158.59999999776483","img/food4.png","74","160.60000000149012","1","1","3","1,0.7,0,1,0.7,0,0.7,0,1","false",""
"","html-keyboard-response","283","115812","0.0-332.0","3IXQG4FA2UKUU88YWRK02KMNWXLB9I","AR5M3HHTQV9QY","3OYHVNTV5TKW8EI4DRB99U4E79NKOA","","null","<img src=""img/food4.png"" style=""width:200px; border:14px solid green;"">","null","","","","","","",""
"","image-keyboard-response","284","115929","0.0-334.0","3IXQG4FA2UKUU88YWRK02KMNWXLB9I","AR5M3HHTQV9QY","3OYHVNTV5TKW8EI4DRB99U4E79NKOA","","114.89999999850988","img/food4.png","74","116.19999999925494","1","1","3","1,0.7,0,1,0.7,0,0.7,0,1","false",""
"","html-keyboard-response","285","116237","0.0-335.0","3IXQG4FA2UKUU88YWRK02KMNWXLB9I","AR5M3HHTQV9QY","3OYHVNTV5TKW8EI4DRB99U4E79NKOA","","null","<img src=""img/food4.png"" style=""width:200px; border:14px solid green;"">","null","","","","","","",""
"","image-keyboard-response","286","116349","0.0-337.0","3IXQG4FA2UKUU88YWRK02KMNWXLB9I","AR5M3HHTQV9QY","3OYHVNTV5TKW8EI4DRB99U4E79NKOA","","109.89999999850988","img/food6.png","74","111.39999999850988","1","1","2","1,0.7,0,1,0.7,0,0.7,0,1","false",""
"","html-keyboard-response","287","116653","0.0-338.0","3IXQG4FA2UKUU88YWRK02KMNWXLB9I","AR5M3HHTQV9QY","3OYHVNTV5TKW8EI4DRB99U4E79NKOA","","null","<img src=""img/food6.png"" style=""width:200px; border:14px solid green;"">","null","","","","","","",""
"","image-keyboard-response","288","116775","0.0-340.0","3IXQG4FA2UKUU88YWRK02KMNWXLB9I","AR5M3HHTQV9QY","3OYHVNTV5TKW8EI4DRB99U4E79NKOA","","120.39999999850988","img/food3.png","74","122.10000000149012","1","1","1","1,0.7,0,1,0.7,0,0.7,0,1","false",""
"","html-keyboard-response","289","117085","0.0-341.0","3IXQG4FA2UKUU88YWRK02KMNWXLB9I","AR5M3HHTQV9QY","3OYHVNTV5TKW8EI4DRB99U4E79NKOA","","null","<img src=""img/food3.png"" style=""width:200px; border:14px solid green;"">","null","","","","","","",""
"","image-keyboard-response","290","117198","0.0-343.0","3IXQG4FA2UKUU88YWRK02KMNWXLB9I","AR5M3HHTQV9QY","3OYHVNTV5TKW8EI4DRB99U4E79NKOA","","110.59999999776483","img/food6.png","74","112.30000000074506","1","1","2","1,0.7,0,1,0.7,0,0.7,0,1","false",""
"","html-keyboard-response","291","117501","0.0-344.0","3IXQG4FA2UKUU88YWRK02KMNWXLB9I","AR5M3HHTQV9QY","3OYHVNTV5TKW8EI4DRB99U4E79NKOA","","null","<img src=""img/food6.png"" style=""width:200px; border:14px solid green;"">","null","","","","","","",""
"","image-keyboard-response","292","117631","0.0-346.0","3IXQG4FA2UKUU88YWRK02KMNWXLB9I","AR5M3HHTQV9QY","3OYHVNTV5TKW8EI4DRB99U4E79NKOA","","128.80000000074506","img/food3.png","74","130.30000000074506","1","1","1","1,0.7,0,1,0.7,0,0.7,0,1","false",""
"","html-keyboard-response","293","117941","0.0-347.0","3IXQG4FA2UKUU88YWRK02KMNWXLB9I","AR5M3HHTQV9QY","3OYHVNTV5TKW8EI4DRB99U4E79NKOA","","null","<img src=""img/food3.png"" style=""width:200px; border:14px solid green;"">","null","","","","","","",""
"","image-keyboard-response","294","118056","0.0-349.0","3IXQG4FA2UKUU88YWRK02KMNWXLB9I","AR5M3HHTQV9QY","3OYHVNTV5TKW8EI4DRB99U4E79NKOA","","113.19999999925494","img/food3.png","74","114.69999999925494","1","1","1","1,0.7,0,1,0.7,0,0.7,0,1","false",""
"","html-keyboard-response","295","118365","0.0-350.0","3IXQG4FA2UKUU88YWRK02KMNWXLB9I","AR5M3HHTQV9QY","3OYHVNTV5TKW8EI4DRB99U4E79NKOA","","null","<img src=""img/food3.png"" style=""width:200px; border:14px solid green;"">","null","","","","","","",""
"","image-keyboard-response","296","118481","0.0-352.0","3IXQG4FA2UKUU88YWRK02KMNWXLB9I","AR5M3HHTQV9QY","3OYHVNTV5TKW8EI4DRB99U4E79NKOA","","114.19999999925494","img/food3.png","74","116","1","1","1","1,0.7,0,1,0.7,0,0.7,0,1","false",""
"","html-keyboard-response","297","118788","0.0-353.0","3IXQG4FA2UKUU88YWRK02KMNWXLB9I","AR5M3HHTQV9QY","3OYHVNTV5TKW8EI4DRB99U4E79NKOA","","null","<img src=""img/food3.png"" style=""width:200px; border:14px solid green;"">","null","","","","","","",""
"","image-keyboard-response","298","118907","0.0-355.0","3IXQG4FA2UKUU88YWRK02KMNWXLB9I","AR5M3HHTQV9QY","3OYHVNTV5TKW8EI4DRB99U4E79NKOA","","116.39999999850988","img/food3.png","74","117.79999999701977","1","1","1","1,0.7,0,1,0.7,0,0.7,0,1","false",""
"","html-keyboard-response","299","119212","0.0-356.0","3IXQG4FA2UKUU88YWRK02KMNWXLB9I","AR5M3HHTQV9QY","3OYHVNTV5TKW8EI4DRB99U4E79NKOA","","null","<img src=""img/food3.png"" style=""width:200px; border:14px solid green;"">","null","","","","","","",""
"","image-keyboard-response","300","119336","0.0-358.0","3IXQG4FA2UKUU88YWRK02KMNWXLB9I","AR5M3HHTQV9QY","3OYHVNTV5TKW8EI4DRB99U4E79NKOA","","121.89999999850988","img/food6.png","74","123.5","1","1","2","1,0.7,0,1,0.7,0,0.7,0,1","false",""
"","html-keyboard-response","301","119645","0.0-359.0","3IXQG4FA2UKUU88YWRK02KMNWXLB9I","AR5M3HHTQV9QY","3OYHVNTV5TKW8EI4DRB99U4E79NKOA","","null","<img src=""img/food6.png"" style=""width:200px; border:14px solid green;"">","null","","","","","","",""
"","image-keyboard-response","302","119751","0.0-361.0","3IXQG4FA2UKUU88YWRK02KMNWXLB9I","AR5M3HHTQV9QY","3OYHVNTV5TKW8EI4DRB99U4E79NKOA","","104.09999999776483","img/food6.png","74","105.90000000223517","1","1","2","1,0.7,0,1,0.7,0,0.7,0,1","false",""
"","html-keyboard-response","303","120061","0.0-362.0","3IXQG4FA2UKUU88YWRK02KMNWXLB9I","AR5M3HHTQV9QY","3OYHVNTV5TKW8EI4DRB99U4E79NKOA","","null","<img src=""img/food6.png"" style=""width:200px; border:14px solid green;"">","null","","","","","","",""
"","image-keyboard-response","304","120181","0.0-364.0","3IXQG4FA2UKUU88YWRK02KMNWXLB9I","AR5M3HHTQV9QY","3OYHVNTV5TKW8EI4DRB99U4E79NKOA","","117.80000000074506","img/food3.png","74","119.40000000223517","1","1","1","1,0.7,0,1,0.7,0,0.7,0,1","false",""
"","html-keyboard-response","305","120485","0.0-365.0","3IXQG4FA2UKUU88YWRK02KMNWXLB9I","AR5M3HHTQV9QY","3OYHVNTV5TKW8EI4DRB99U4E79NKOA","","null","<img src=""img/food3.png"" style=""width:200px; border:14px solid green;"">","null","","","","","","",""
"","image-keyboard-response","306","120600","0.0-367.0","3IXQG4FA2UKUU88YWRK02KMNWXLB9I","AR5M3HHTQV9QY","3OYHVNTV5TKW8EI4DRB99U4E79NKOA","","112.5","img/food3.png","74","114.29999999701977","1","1","1","1,0.7,0,1,0.7,0,0.7,0,1","false",""
"","html-keyboard-response","307","120909","0.0-368.0","3IXQG4FA2UKUU88YWRK02KMNWXLB9I","AR5M3HHTQV9QY","3OYHVNTV5TKW8EI4DRB99U4E79NKOA","","null","<img src=""img/food3.png"" style=""width:200px; border:14px solid green;"">","null","","","","","","",""
"","image-keyboard-response","308","121007","0.0-370.0","3IXQG4FA2UKUU88YWRK02KMNWXLB9I","AR5M3HHTQV9QY","3OYHVNTV5TKW8EI4DRB99U4E79NKOA","","95.79999999701977","img/food3.png","74","98","1","1","1","1,0.7,0,1,0.7,0,0.7,0,1","false",""
"","html-keyboard-response","309","121317","0.0-371.0","3IXQG4FA2UKUU88YWRK02KMNWXLB9I","AR5M3HHTQV9QY","3OYHVNTV5TKW8EI4DRB99U4E79NKOA","","null","<img src=""img/food3.png"" style=""width:200px; border:14px solid green;"">","null","","","","","","",""
"","image-keyboard-response","310","121395","0.0-373.0","3IXQG4FA2UKUU88YWRK02KMNWXLB9I","AR5M3HHTQV9QY","3OYHVNTV5TKW8EI4DRB99U4E79NKOA","","75.80000000074506","img/food6.png","74","77.19999999925494","1","1","2","1,0.7,0,1,0.7,0,0.7,0,1","false",""
"","html-keyboard-response","311","121701","0.0-374.0","3IXQG4FA2UKUU88YWRK02KMNWXLB9I","AR5M3HHTQV9QY","3OYHVNTV5TKW8EI4DRB99U4E79NKOA","","null","<img src=""img/food6.png"" style=""width:200px; border:14px solid green;"">","null","","","","","","",""
"","image-keyboard-response","312","121803","0.0-376.0","3IXQG4FA2UKUU88YWRK02KMNWXLB9I","AR5M3HHTQV9QY","3OYHVNTV5TKW8EI4DRB99U4E79NKOA","","99.70000000298023","img/food3.png","74","101.39999999850988","1","1","1","1,0.7,0,1,0.7,0,0.7,0,1","false",""
"","html-keyboard-response","313","122108","0.0-377.0","3IXQG4FA2UKUU88YWRK02KMNWXLB9I","AR5M3HHTQV9QY","3OYHVNTV5TKW8EI4DRB99U4E79NKOA","","null","<img src=""img/food3.png"" style=""width:200px; border:14px solid green;"">","null","","","","","","",""
"","image-keyboard-response","314","122193","0.0-379.0","3IXQG4FA2UKUU88YWRK02KMNWXLB9I","AR5M3HHTQV9QY","3OYHVNTV5TKW8EI4DRB99U4E79NKOA","","82.30000000074506","img/food4.png","74","83.60000000149012","1","1","3","1,0.7,0,1,0.7,0,0.7,0,1","false",""
"","html-keyboard-response","315","122500","0.0-380.0","3IXQG4FA2UKUU88YWRK02KMNWXLB9I","AR5M3HHTQV9QY","3OYHVNTV5TKW8EI4DRB99U4E79NKOA","","null","<img src=""img/food4.png"" style=""width:200px; border:14px solid green;"">","null","","","","","","",""
"","image-keyboard-response","316","122566","0.0-382.0","3IXQG4FA2UKUU88YWRK02KMNWXLB9I","AR5M3HHTQV9QY","3OYHVNTV5TKW8EI4DRB99U4E79NKOA","","63.5","img/food4.png","74","65.19999999925494","1","1","3","1,0.7,0,1,0.7,0,0.7,0,1","false",""
"","html-keyboard-response","317","122868","0.0-383.0","3IXQG4FA2UKUU88YWRK02KMNWXLB9I","AR5M3HHTQV9QY","3OYHVNTV5TKW8EI4DRB99U4E79NKOA","","null","<img src=""img/food4.png"" style=""width:200px; border:14px solid green;"">","null","","","","","","",""
"","image-keyboard-response","318","122976","0.0-385.0","3IXQG4FA2UKUU88YWRK02KMNWXLB9I","AR5M3HHTQV9QY","3OYHVNTV5TKW8EI4DRB99U4E79NKOA","","105.60000000149012","img/food4.png","74","107.19999999925494","1","1","3","1,0.7,0,1,0.7,0,0.7,0,1","false",""
"","html-keyboard-response","319","123283","0.0-386.0","3IXQG4FA2UKUU88YWRK02KMNWXLB9I","AR5M3HHTQV9QY","3OYHVNTV5TKW8EI4DRB99U4E79NKOA","","null","<img src=""img/food4.png"" style=""width:200px; border:14px solid green;"">","null","","","","","","",""
"","image-keyboard-response","320","123362","0.0-388.0","3IXQG4FA2UKUU88YWRK02KMNWXLB9I","AR5M3HHTQV9QY","3OYHVNTV5TKW8EI4DRB99U4E79NKOA","","77.59999999776483","img/food6.png","74","79.39999999850988","1","1","2","1,0.7,0,1,0.7,0,0.7,0,1","false",""
"","html-keyboard-response","321","123664","0.0-389.0","3IXQG4FA2UKUU88YWRK02KMNWXLB9I","AR5M3HHTQV9QY","3OYHVNTV5TKW8EI4DRB99U4E79NKOA","","null","<img src=""img/food6.png"" style=""width:200px; border:14px solid green;"">","null","","","","","","",""
"","image-keyboard-response","322","123737","0.0-391.0","3IXQG4FA2UKUU88YWRK02KMNWXLB9I","AR5M3HHTQV9QY","3OYHVNTV5TKW8EI4DRB99U4E79NKOA","","70.90000000223517","img/food4.png","74","72.40000000223517","1","1","3","1,0.7,0,1,0.7,0,0.7,0,1","false",""
"","html-keyboard-response","323","124044","0.0-392.0","3IXQG4FA2UKUU88YWRK02KMNWXLB9I","AR5M3HHTQV9QY","3OYHVNTV5TKW8EI4DRB99U4E79NKOA","","null","<img src=""img/food4.png"" style=""width:200px; border:14px solid green;"">","null","","","","","","",""
"","image-keyboard-response","324","124124","0.0-394.0","3IXQG4FA2UKUU88YWRK02KMNWXLB9I","AR5M3HHTQV9QY","3OYHVNTV5TKW8EI4DRB99U4E79NKOA","","78.30000000074506","img/food3.png","74","80","1","1","1","1,0.7,0,1,0.7,0,0.7,0,1","false",""
"","html-keyboard-response","325","124428","0.0-395.0","3IXQG4FA2UKUU88YWRK02KMNWXLB9I","AR5M3HHTQV9QY","3OYHVNTV5TKW8EI4DRB99U4E79NKOA","","null","<img src=""img/food3.png"" style=""width:200px; border:14px solid green;"">","null","","","","","","",""
"","image-keyboard-response","326","124529","0.0-397.0","3IXQG4FA2UKUU88YWRK02KMNWXLB9I","AR5M3HHTQV9QY","3OYHVNTV5TKW8EI4DRB99U4E79NKOA","","99.19999999925494","img/food3.png","74","100.60000000149012","1","1","1","1,0.7,0,1,0.7,0,0.7,0,1","false",""
"","html-keyboard-response","327","124837","0.0-398.0","3IXQG4FA2UKUU88YWRK02KMNWXLB9I","AR5M3HHTQV9QY","3OYHVNTV5TKW8EI4DRB99U4E79NKOA","","null","<img src=""img/food3.png"" style=""width:200px; border:14px solid green;"">","null","","","","","","",""
"","image-keyboard-response","328","124932","0.0-400.0","3IXQG4FA2UKUU88YWRK02KMNWXLB9I","AR5M3HHTQV9QY","3OYHVNTV5TKW8EI4DRB99U4E79NKOA","","93","img/food4.png","74","94.5","1","0","3","1,0.7,0,1,0.7,0,0.7,0,1","false",""
"","html-keyboard-response","329","125238","0.0-401.0","3IXQG4FA2UKUU88YWRK02KMNWXLB9I","AR5M3HHTQV9QY","3OYHVNTV5TKW8EI4DRB99U4E79NKOA","","null","<img src=""img/food4.png"" style=""width:200px;border:14px solid red;"">","null","","","","","","",""
"","image-keyboard-response","330","125316","0.0-403.0","3IXQG4FA2UKUU88YWRK02KMNWXLB9I","AR5M3HHTQV9QY","3OYHVNTV5TKW8EI4DRB99U4E79NKOA","","76.40000000223517","img/food4.png","74","77.90000000223517","1","1","3","1,0.7,0,1,0.7,0,0.7,0,1","false",""
"","html-keyboard-response","331","125621","0.0-404.0","3IXQG4FA2UKUU88YWRK02KMNWXLB9I","AR5M3HHTQV9QY","3OYHVNTV5TKW8EI4DRB99U4E79NKOA","","null","<img src=""img/food4.png"" style=""width:200px; border:14px solid green;"">","null","","","","","","",""
"","image-keyboard-response","332","125714","0.0-406.0","3IXQG4FA2UKUU88YWRK02KMNWXLB9I","AR5M3HHTQV9QY","3OYHVNTV5TKW8EI4DRB99U4E79NKOA","","90.90000000223517","img/food3.png","74","92.5","1","1","1","1,0.7,0,1,0.7,0,0.7,0,1","false",""
"","html-keyboard-response","333","126021","0.0-407.0","3IXQG4FA2UKUU88YWRK02KMNWXLB9I","AR5M3HHTQV9QY","3OYHVNTV5TKW8EI4DRB99U4E79NKOA","","null","<img src=""img/food3.png"" style=""width:200px; border:14px solid green;"">","null","","","","","","",""
"","image-keyboard-response","334","126109","0.0-409.0","3IXQG4FA2UKUU88YWRK02KMNWXLB9I","AR5M3HHTQV9QY","3OYHVNTV5TKW8EI4DRB99U4E79NKOA","","86.70000000298023","img/food3.png","74","88.09999999776483","1","1","1","1,0.7,0,1,0.7,0,0.7,0,1","false",""
"","html-keyboard-response","335","126413","0.0-410.0","3IXQG4FA2UKUU88YWRK02KMNWXLB9I","AR5M3HHTQV9QY","3OYHVNTV5TKW8EI4DRB99U4E79NKOA","","null","<img src=""img/food3.png"" style=""width:200px; border:14px solid green;"">","null","","","","","","",""
"","image-keyboard-response","336","126487","0.0-412.0","3IXQG4FA2UKUU88YWRK02KMNWXLB9I","AR5M3HHTQV9QY","3OYHVNTV5TKW8EI4DRB99U4E79NKOA","","71.90000000223517","img/food3.png","74","73.29999999701977","1","1","1","1,0.7,0,1,0.7,0,0.7,0,1","false",""
"","html-keyboard-response","337","126792","0.0-413.0","3IXQG4FA2UKUU88YWRK02KMNWXLB9I","AR5M3HHTQV9QY","3OYHVNTV5TKW8EI4DRB99U4E79NKOA","","null","<img src=""img/food3.png"" style=""width:200px; border:14px solid green;"">","null","","","","","","",""
"","image-keyboard-response","338","126854","0.0-415.0","3IXQG4FA2UKUU88YWRK02KMNWXLB9I","AR5M3HHTQV9QY","3OYHVNTV5TKW8EI4DRB99U4E79NKOA","","59.80000000074506","img/food4.png","74","61.5","1","1","3","1,0.7,0,1,0.7,0,0.7,0,1","false",""
"","html-keyboard-response","339","127157","0.0-416.0","3IXQG4FA2UKUU88YWRK02KMNWXLB9I","AR5M3HHTQV9QY","3OYHVNTV5TKW8EI4DRB99U4E79NKOA","","null","<img src=""img/food4.png"" style=""width:200px; border:14px solid green;"">","null","","","","","","",""
"","image-keyboard-response","340","127237","0.0-418.0","3IXQG4FA2UKUU88YWRK02KMNWXLB9I","AR5M3HHTQV9QY","3OYHVNTV5TKW8EI4DRB99U4E79NKOA","","78.29999999701977","img/food3.png","74","79.80000000074506","1","1","1","1,0.7,0,1,0.7,0,0.7,0,1","false",""
"","html-keyboard-response","341","127541","0.0-419.0","3IXQG4FA2UKUU88YWRK02KMNWXLB9I","AR5M3HHTQV9QY","3OYHVNTV5TKW8EI4DRB99U4E79NKOA","","null","<img src=""img/food3.png"" style=""width:200px; border:14px solid green;"">","null","","","","","","",""
"","image-keyboard-response","342","127622","0.0-421.0","3IXQG4FA2UKUU88YWRK02KMNWXLB9I","AR5M3HHTQV9QY","3OYHVNTV5TKW8EI4DRB99U4E79NKOA","","78.69999999925494","img/food3.png","74","80.39999999850988","1","1","1","1,0.7,0,1,0.7,0,0.7,0,1","false",""
"","html-keyboard-response","343","127925","0.0-422.0","3IXQG4FA2UKUU88YWRK02KMNWXLB9I","AR5M3HHTQV9QY","3OYHVNTV5TKW8EI4DRB99U4E79NKOA","","null","<img src=""img/food3.png"" style=""width:200px; border:14px solid green;"">","null","","","","","","",""
"","image-keyboard-response","344","128026","0.0-424.0","3IXQG4FA2UKUU88YWRK02KMNWXLB9I","AR5M3HHTQV9QY","3OYHVNTV5TKW8EI4DRB99U4E79NKOA","","98.60000000149012","img/food6.png","74","100.30000000074506","1","1","2","1,0.7,0,1,0.7,0,0.7,0,1","false",""
"","html-keyboard-response","345","128330","0.0-425.0","3IXQG4FA2UKUU88YWRK02KMNWXLB9I","AR5M3HHTQV9QY","3OYHVNTV5TKW8EI4DRB99U4E79NKOA","","null","<img src=""img/food6.png"" style=""width:200px; border:14px solid green;"">","null","","","","","","",""
"","image-keyboard-response","346","128420","0.0-427.0","3IXQG4FA2UKUU88YWRK02KMNWXLB9I","AR5M3HHTQV9QY","3OYHVNTV5TKW8EI4DRB99U4E79NKOA","","87.5","img/food4.png","74","88.89999999850988","1","1","3","1,0.7,0,1,0.7,0,0.7,0,1","false",""
"","html-keyboard-response","347","128724","0.0-428.0","3IXQG4FA2UKUU88YWRK02KMNWXLB9I","AR5M3HHTQV9QY","3OYHVNTV5TKW8EI4DRB99U4E79NKOA","","null","<img src=""img/food4.png"" style=""width:200px; border:14px solid green;"">","null","","","","","","",""
"","image-keyboard-response","348","128803","0.0-430.0","3IXQG4FA2UKUU88YWRK02KMNWXLB9I","AR5M3HHTQV9QY","3OYHVNTV5TKW8EI4DRB99U4E79NKOA","","77","img/food3.png","74","78.60000000149012","1","1","1","1,0.7,0,1,0.7,0,0.7,0,1","false",""
"","html-keyboard-response","349","129107","0.0-431.0","3IXQG4FA2UKUU88YWRK02KMNWXLB9I","AR5M3HHTQV9QY","3OYHVNTV5TKW8EI4DRB99U4E79NKOA","","null","<img src=""img/food3.png"" style=""width:200px; border:14px solid green;"">","null","","","","","","",""
"","image-keyboard-response","350","129191","0.0-433.0","3IXQG4FA2UKUU88YWRK02KMNWXLB9I","AR5M3HHTQV9QY","3OYHVNTV5TKW8EI4DRB99U4E79NKOA","","82","img/food6.png","74","83.39999999850988","1","1","2","1,0.7,0,1,0.7,0,0.7,0,1","false",""
"","html-keyboard-response","351","129500","0.0-434.0","3IXQG4FA2UKUU88YWRK02KMNWXLB9I","AR5M3HHTQV9QY","3OYHVNTV5TKW8EI4DRB99U4E79NKOA","","null","<img src=""img/food6.png"" style=""width:200px; border:14px solid green;"">","null","","","","","","",""
"","image-keyboard-response","352","129589","0.0-436.0","3IXQG4FA2UKUU88YWRK02KMNWXLB9I","AR5M3HHTQV9QY","3OYHVNTV5TKW8EI4DRB99U4E79NKOA","","86.60000000149012","img/food6.png","74","88.09999999776483","1","1","2","1,0.7,0,1,0.7,0,0.7,0,1","false",""
"","html-keyboard-response","353","129892","0.0-437.0","3IXQG4FA2UKUU88YWRK02KMNWXLB9I","AR5M3HHTQV9QY","3OYHVNTV5TKW8EI4DRB99U4E79NKOA","","null","<img src=""img/food6.png"" style=""width:200px; border:14px solid green;"">","null","","","","","","",""
"","image-keyboard-response","354","129977","0.0-439.0","3IXQG4FA2UKUU88YWRK02KMNWXLB9I","AR5M3HHTQV9QY","3OYHVNTV5TKW8EI4DRB99U4E79NKOA","","82","img/food6.png","74","83.80000000074506","1","1","2","1,0.7,0,1,0.7,0,0.7,0,1","false",""
"","html-keyboard-response","355","130285","0.0-440.0","3IXQG4FA2UKUU88YWRK02KMNWXLB9I","AR5M3HHTQV9QY","3OYHVNTV5TKW8EI4DRB99U4E79NKOA","","null","<img src=""img/food6.png"" style=""width:200px; border:14px solid green;"">","null","","","","","","",""
"","image-keyboard-response","356","130390","0.0-442.0","3IXQG4FA2UKUU88YWRK02KMNWXLB9I","AR5M3HHTQV9QY","3OYHVNTV5TKW8EI4DRB99U4E79NKOA","","103.19999999925494","img/food6.png","74","104.59999999776483","1","1","2","1,0.7,0,1,0.7,0,0.7,0,1","false",""
"","html-keyboard-response","357","130693","0.0-443.0","3IXQG4FA2UKUU88YWRK02KMNWXLB9I","AR5M3HHTQV9QY","3OYHVNTV5TKW8EI4DRB99U4E79NKOA","","null","<img src=""img/food6.png"" style=""width:200px; border:14px solid green;"">","null","","","","","","",""
"","image-keyboard-response","358","130780","0.0-445.0","3IXQG4FA2UKUU88YWRK02KMNWXLB9I","AR5M3HHTQV9QY","3OYHVNTV5TKW8EI4DRB99U4E79NKOA","","85.19999999925494","img/food4.png","74","87","1","0","3","1,0.7,0,1,0.7,0,0.7,0,1","false",""
"","html-keyboard-response","359","131085","0.0-446.0","3IXQG4FA2UKUU88YWRK02KMNWXLB9I","AR5M3HHTQV9QY","3OYHVNTV5TKW8EI4DRB99U4E79NKOA","","null","<img src=""img/food4.png"" style=""width:200px;border:14px solid red;"">","null","","","","","","",""
"","image-keyboard-response","360","131185","0.0-448.0","3IXQG4FA2UKUU88YWRK02KMNWXLB9I","AR5M3HHTQV9QY","3OYHVNTV5TKW8EI4DRB99U4E79NKOA","","98.39999999850988","img/food4.png","74","99.89999999850988","1","1","3","1,0.7,0,1,0.7,0,0.7,0,1","false",""
"","html-keyboard-response","361","131490","0.0-449.0","3IXQG4FA2UKUU88YWRK02KMNWXLB9I","AR5M3HHTQV9QY","3OYHVNTV5TKW8EI4DRB99U4E79NKOA","","null","<img src=""img/food4.png"" style=""width:200px; border:14px solid green;"">","null","","","","","","",""
"","image-keyboard-response","362","131570","0.0-451.0","3IXQG4FA2UKUU88YWRK02KMNWXLB9I","AR5M3HHTQV9QY","3OYHVNTV5TKW8EI4DRB99U4E79NKOA","","77.5","img/food6.png","74","79.39999999850988","1","1","2","1,0.7,0,1,0.7,0,0.7,0,1","false",""
"","html-keyboard-response","363","131877","0.0-452.0","3IXQG4FA2UKUU88YWRK02KMNWXLB9I","AR5M3HHTQV9QY","3OYHVNTV5TKW8EI4DRB99U4E79NKOA","","null","<img src=""img/food6.png"" style=""width:200px; border:14px solid green;"">","null","","","","","","",""
"","instructions","364","133852","0.0-454.0","3IXQG4FA2UKUU88YWRK02KMNWXLB9I","AR5M3HHTQV9QY","3OYHVNTV5TKW8EI4DRB99U4E79NKOA","[{""page_index"":0,""viewing_time"":1973.9000000022352}]","1974.4000000022352","","","","","","","","",""
"","survey-text","365","137054","0.0-455.0","3IXQG4FA2UKUU88YWRK02KMNWXLB9I","AR5M3HHTQV9QY","3OYHVNTV5TKW8EI4DRB99U4E79NKOA","","3196.5","","","","","","","","","{""Q0"":""AR5M3HHTQV9QY""}"
