"success","trial_type","trial_index","time_elapsed","internal_node_id","assignmentID","mturkID","hitID","view_history","rt","stimulus","key_press","reactionTime","a","r","s","reward_cond","warning","responses"
"true","fullscreen","0","3574","0.0-0.0","34BBWHLWHBXFTCZCVCM92RYBPOQIWO","ARFJTVZE5IKLC","3VJ4PFXFJ3TL96TFXMATEMT7KJHUAI","","","","","","","","","","",""
"","instructions","1","51691","0.0-1.0","34BBWHLWHBXFTCZCVCM92RYBPOQIWO","ARFJTVZE5IKLC","3VJ4PFXFJ3TL96TFXMATEMT7KJHUAI","[{""page_index"":0,""viewing_time"":2721},{""page_index"":1,""viewing_time"":1472},{""page_index"":2,""viewing_time"":1243},{""page_index"":3,""viewing_time"":33262},{""page_index"":4,""viewing_time"":2181},{""page_index"":5,""viewing_time"":5956},{""page_index"":6,""viewing_time"":1273}]","48112","","","","","","","","",""
"","image-keyboard-response","2","54654","0.0-2.0","34BBWHLWHBXFTCZCVCM92RYBPOQIWO","ARFJTVZE5IKLC","3VJ4PFXFJ3TL96TFXMATEMT7KJHUAI","","2957","img/food3.png","74","2961","1","1","3","1,0.7,0,1,0.7,0,0.7,0,1","",""
"","html-keyboard-response","3","54967","0.0-3.0","34BBWHLWHBXFTCZCVCM92RYBPOQIWO","ARFJTVZE5IKLC","3VJ4PFXFJ3TL96TFXMATEMT7KJHUAI","","null","<img src=""img/food3.png"" style=""width:200px; border:14px solid green;"">","null","","","","","","",""
"","image-keyboard-response","4","55920","0.0-4.0","34BBWHLWHBXFTCZCVCM92RYBPOQIWO","ARFJTVZE5IKLC","3VJ4PFXFJ3TL96TFXMATEMT7KJHUAI","","933","img/food3.png","74","951","1","1","3","1,0.7,0,1,0.7,0,0.7,0,1","",""
"","html-keyboard-response","5","56231","0.0-5.0","34BBWHLWHBXFTCZCVCM92RYBPOQIWO","ARFJTVZE5IKLC","3VJ4PFXFJ3TL96TFXMATEMT7KJHUAI","","null","<img src=""img/food3.png"" style=""width:200px; border:14px solid green;"">","null","","","","","","",""
"","image-keyboard-response","6","58054","0.0-6.0","34BBWHLWHBXFTCZCVCM92RYBPOQIWO","ARFJTVZE5IKLC","3VJ4PFXFJ3TL96TFXMATEMT7KJHUAI","","1821","img/food2.png","75","1824","2","1","2","1,0.7,0,1,0.7,0,0.7,0,1","",""
"","html-keyboard-response","7","58375","0.0-7.0","34BBWHLWHBXFTCZCVCM92RYBPOQIWO","ARFJTVZE5IKLC","3VJ4PFXFJ3TL96TFXMATEMT7KJHUAI","","null","<img src=""img/food2.png"" style=""width:200px; border:14px solid green;"">","null","","","","","","",""
"","image-keyboard-response","8","59415","0.0-8.0","34BBWHLWHBXFTCZCVCM92RYBPOQIWO","ARFJTVZE5IKLC","3VJ4PFXFJ3TL96TFXMATEMT7KJHUAI","","1038","img/food3.png","74","1040","1","1","3","1,0.7,0,1,0.7,0,0.7,0,1","",""
"","html-keyboard-response","9","59720","0.0-9.0","34BBWHLWHBXFTCZCVCM92RYBPOQIWO","ARFJTVZE5IKLC","3VJ4PFXFJ3TL96TFXMATEMT7KJHUAI","","null","<img src=""img/food3.png"" style=""width:200px; border:14px solid green;"">","null","","","","","","",""
"","image-keyboard-response","10","60444","0.0-10.0","34BBWHLWHBXFTCZCVCM92RYBPOQIWO","ARFJTVZE5IKLC","3VJ4PFXFJ3TL96TFXMATEMT7KJHUAI","","722","img/food3.png","74","724","1","1","3","1,0.7,0,1,0.7,0,0.7,0,1","",""
"","html-keyboard-response","11","60757","0.0-11.0","34BBWHLWHBXFTCZCVCM92RYBPOQIWO","ARFJTVZE5IKLC","3VJ4PFXFJ3TL96TFXMATEMT7KJHUAI","","null","<img src=""img/food3.png"" style=""width:200px; border:14px solid green;"">","null","","","","","","",""
"","image-keyboard-response","12","61741","0.0-12.0","34BBWHLWHBXFTCZCVCM92RYBPOQIWO","ARFJTVZE5IKLC","3VJ4PFXFJ3TL96TFXMATEMT7KJHUAI","","981","img/food4.png","76","983","3","0","1","1,0.7,0,1,0.7,0,0.7,0,1","",""
"","html-keyboard-response","13","62046","0.0-13.0","34BBWHLWHBXFTCZCVCM92RYBPOQIWO","ARFJTVZE5IKLC","3VJ4PFXFJ3TL96TFXMATEMT7KJHUAI","","null","<img src=""img/food4.png"" style=""width:200px;border:14px solid red;"">","null","","","","","","",""
"","image-keyboard-response","14","62955","0.0-14.0","34BBWHLWHBXFTCZCVCM92RYBPOQIWO","ARFJTVZE5IKLC","3VJ4PFXFJ3TL96TFXMATEMT7KJHUAI","","908","img/food2.png","75","910","2","1","2","1,0.7,0,1,0.7,0,0.7,0,1","",""
"","html-keyboard-response","15","63269","0.0-15.0","34BBWHLWHBXFTCZCVCM92RYBPOQIWO","ARFJTVZE5IKLC","3VJ4PFXFJ3TL96TFXMATEMT7KJHUAI","","null","<img src=""img/food2.png"" style=""width:200px; border:14px solid green;"">","null","","","","","","",""
"","image-keyboard-response","16","63979","0.0-16.0","34BBWHLWHBXFTCZCVCM92RYBPOQIWO","ARFJTVZE5IKLC","3VJ4PFXFJ3TL96TFXMATEMT7KJHUAI","","709","img/food2.png","75","710","2","0","2","1,0.7,0,1,0.7,0,0.7,0,1","",""
"","html-keyboard-response","17","64337","0.0-17.0","34BBWHLWHBXFTCZCVCM92RYBPOQIWO","ARFJTVZE5IKLC","3VJ4PFXFJ3TL96TFXMATEMT7KJHUAI","","null","<img src=""img/food2.png"" style=""width:200px;border:14px solid red;"">","null","","","","","","",""
"","image-keyboard-response","18","65289","0.0-18.0","34BBWHLWHBXFTCZCVCM92RYBPOQIWO","ARFJTVZE5IKLC","3VJ4PFXFJ3TL96TFXMATEMT7KJHUAI","","951","img/food2.png","76","952","3","0","2","1,0.7,0,1,0.7,0,0.7,0,1","",""
"","html-keyboard-response","19","65611","0.0-19.0","34BBWHLWHBXFTCZCVCM92RYBPOQIWO","ARFJTVZE5IKLC","3VJ4PFXFJ3TL96TFXMATEMT7KJHUAI","","null","<img src=""img/food2.png"" style=""width:200px;border:14px solid red;"">","null","","","","","","",""
"","image-keyboard-response","20","66753","0.0-20.0","34BBWHLWHBXFTCZCVCM92RYBPOQIWO","ARFJTVZE5IKLC","3VJ4PFXFJ3TL96TFXMATEMT7KJHUAI","","1133","img/food4.png","75","1141","2","1","1","1,0.7,0,1,0.7,0,0.7,0,1","",""
"","html-keyboard-response","21","67058","0.0-21.0","34BBWHLWHBXFTCZCVCM92RYBPOQIWO","ARFJTVZE5IKLC","3VJ4PFXFJ3TL96TFXMATEMT7KJHUAI","","null","<img src=""img/food4.png"" style=""width:200px; border:14px solid green;"">","null","","","","","","",""
"","image-keyboard-response","22","68023","0.0-22.0","34BBWHLWHBXFTCZCVCM92RYBPOQIWO","ARFJTVZE5IKLC","3VJ4PFXFJ3TL96TFXMATEMT7KJHUAI","","964","img/food3.png","74","965","1","1","3","1,0.7,0,1,0.7,0,0.7,0,1","",""
"","html-keyboard-response","23","68329","0.0-23.0","34BBWHLWHBXFTCZCVCM92RYBPOQIWO","ARFJTVZE5IKLC","3VJ4PFXFJ3TL96TFXMATEMT7KJHUAI","","null","<img src=""img/food3.png"" style=""width:200px; border:14px solid green;"">","null","","","","","","",""
"","image-keyboard-response","24","69432","0.0-24.0","34BBWHLWHBXFTCZCVCM92RYBPOQIWO","ARFJTVZE5IKLC","3VJ4PFXFJ3TL96TFXMATEMT7KJHUAI","","1099","img/food2.png","75","1102","2","1","2","1,0.7,0,1,0.7,0,0.7,0,1","",""
"","html-keyboard-response","25","69735","0.0-25.0","34BBWHLWHBXFTCZCVCM92RYBPOQIWO","ARFJTVZE5IKLC","3VJ4PFXFJ3TL96TFXMATEMT7KJHUAI","","null","<img src=""img/food2.png"" style=""width:200px; border:14px solid green;"">","null","","","","","","",""
"","image-keyboard-response","26","121916","0.0-26.0","34BBWHLWHBXFTCZCVCM92RYBPOQIWO","ARFJTVZE5IKLC","3VJ4PFXFJ3TL96TFXMATEMT7KJHUAI","","52177","img/food4.png","75","52180","2","1","1","1,0.7,0,1,0.7,0,0.7,0,1","",""
"","html-keyboard-response","27","122228","0.0-27.0","34BBWHLWHBXFTCZCVCM92RYBPOQIWO","ARFJTVZE5IKLC","3VJ4PFXFJ3TL96TFXMATEMT7KJHUAI","","null","<img src=""img/food4.png"" style=""width:200px; border:14px solid green;"">","null","","","","","","",""
"","image-keyboard-response","28","123270","0.0-28.0","34BBWHLWHBXFTCZCVCM92RYBPOQIWO","ARFJTVZE5IKLC","3VJ4PFXFJ3TL96TFXMATEMT7KJHUAI","","1039","img/food3.png","74","1042","1","1","3","1,0.7,0,1,0.7,0,0.7,0,1","",""
"","html-keyboard-response","29","123592","0.0-29.0","34BBWHLWHBXFTCZCVCM92RYBPOQIWO","ARFJTVZE5IKLC","3VJ4PFXFJ3TL96TFXMATEMT7KJHUAI","","null","<img src=""img/food3.png"" style=""width:200px; border:14px solid green;"">","null","","","","","","",""
"","image-keyboard-response","30","124466","0.0-30.0","34BBWHLWHBXFTCZCVCM92RYBPOQIWO","ARFJTVZE5IKLC","3VJ4PFXFJ3TL96TFXMATEMT7KJHUAI","","868","img/food4.png","75","873","2","1","1","1,0.7,0,1,0.7,0,0.7,0,1","",""
"","html-keyboard-response","31","124773","0.0-31.0","34BBWHLWHBXFTCZCVCM92RYBPOQIWO","ARFJTVZE5IKLC","3VJ4PFXFJ3TL96TFXMATEMT7KJHUAI","","null","<img src=""img/food4.png"" style=""width:200px; border:14px solid green;"">","null","","","","","","",""
"","image-keyboard-response","32","125718","0.0-32.0","34BBWHLWHBXFTCZCVCM92RYBPOQIWO","ARFJTVZE5IKLC","3VJ4PFXFJ3TL96TFXMATEMT7KJHUAI","","934","img/food2.png","75","944","2","0","2","1,0.7,0,1,0.7,0,0.7,0,1","",""
"","html-keyboard-response","33","126028","0.0-33.0","34BBWHLWHBXFTCZCVCM92RYBPOQIWO","ARFJTVZE5IKLC","3VJ4PFXFJ3TL96TFXMATEMT7KJHUAI","","null","<img src=""img/food2.png"" style=""width:200px;border:14px solid red;"">","null","","","","","","",""
"","image-keyboard-response","34","127206","0.0-34.0","34BBWHLWHBXFTCZCVCM92RYBPOQIWO","ARFJTVZE5IKLC","3VJ4PFXFJ3TL96TFXMATEMT7KJHUAI","","1176","img/food3.png","74","1178","1","0","3","1,0.7,0,1,0.7,0,0.7,0,1","",""
"","html-keyboard-response","35","127513","0.0-35.0","34BBWHLWHBXFTCZCVCM92RYBPOQIWO","ARFJTVZE5IKLC","3VJ4PFXFJ3TL96TFXMATEMT7KJHUAI","","null","<img src=""img/food3.png"" style=""width:200px;border:14px solid red;"">","null","","","","","","",""
"","image-keyboard-response","36","129042","0.0-36.0","34BBWHLWHBXFTCZCVCM92RYBPOQIWO","ARFJTVZE5IKLC","3VJ4PFXFJ3TL96TFXMATEMT7KJHUAI","","1526","img/food4.png","75","1528","2","1","1","1,0.7,0,1,0.7,0,0.7,0,1","",""
"","html-keyboard-response","37","129372","0.0-37.0","34BBWHLWHBXFTCZCVCM92RYBPOQIWO","ARFJTVZE5IKLC","3VJ4PFXFJ3TL96TFXMATEMT7KJHUAI","","null","<img src=""img/food4.png"" style=""width:200px; border:14px solid green;"">","null","","","","","","",""
"","image-keyboard-response","38","130355","0.0-38.0","34BBWHLWHBXFTCZCVCM92RYBPOQIWO","ARFJTVZE5IKLC","3VJ4PFXFJ3TL96TFXMATEMT7KJHUAI","","980","img/food3.png","74","983","1","1","3","1,0.7,0,1,0.7,0,0.7,0,1","",""
"","html-keyboard-response","39","130664","0.0-39.0","34BBWHLWHBXFTCZCVCM92RYBPOQIWO","ARFJTVZE5IKLC","3VJ4PFXFJ3TL96TFXMATEMT7KJHUAI","","null","<img src=""img/food3.png"" style=""width:200px; border:14px solid green;"">","null","","","","","","",""
"","image-keyboard-response","40","329659","0.0-40.0","34BBWHLWHBXFTCZCVCM92RYBPOQIWO","ARFJTVZE5IKLC","3VJ4PFXFJ3TL96TFXMATEMT7KJHUAI","","198988","img/food2.png","75","198993","2","1","2","1,0.7,0,1,0.7,0,0.7,0,1","",""
"","html-keyboard-response","41","329965","0.0-41.0","34BBWHLWHBXFTCZCVCM92RYBPOQIWO","ARFJTVZE5IKLC","3VJ4PFXFJ3TL96TFXMATEMT7KJHUAI","","null","<img src=""img/food2.png"" style=""width:200px; border:14px solid green;"">","null","","","","","","",""
"","image-keyboard-response","42","331377","0.0-42.0","34BBWHLWHBXFTCZCVCM92RYBPOQIWO","ARFJTVZE5IKLC","3VJ4PFXFJ3TL96TFXMATEMT7KJHUAI","","1411","img/food2.png","75","1412","2","0","2","1,0.7,0,1,0.7,0,0.7,0,1","",""
"","html-keyboard-response","43","331773","0.0-43.0","34BBWHLWHBXFTCZCVCM92RYBPOQIWO","ARFJTVZE5IKLC","3VJ4PFXFJ3TL96TFXMATEMT7KJHUAI","","null","<img src=""img/food2.png"" style=""width:200px;border:14px solid red;"">","null","","","","","","",""
"","image-keyboard-response","44","332636","0.0-44.0","34BBWHLWHBXFTCZCVCM92RYBPOQIWO","ARFJTVZE5IKLC","3VJ4PFXFJ3TL96TFXMATEMT7KJHUAI","","861","img/food4.png","75","862","2","0","1","1,0.7,0,1,0.7,0,0.7,0,1","",""
"","html-keyboard-response","45","332947","0.0-45.0","34BBWHLWHBXFTCZCVCM92RYBPOQIWO","ARFJTVZE5IKLC","3VJ4PFXFJ3TL96TFXMATEMT7KJHUAI","","null","<img src=""img/food4.png"" style=""width:200px;border:14px solid red;"">","null","","","","","","",""
"","image-keyboard-response","46","333904","0.0-46.0","34BBWHLWHBXFTCZCVCM92RYBPOQIWO","ARFJTVZE5IKLC","3VJ4PFXFJ3TL96TFXMATEMT7KJHUAI","","955","img/food2.png","75","957","2","1","2","1,0.7,0,1,0.7,0,0.7,0,1","",""
"","html-keyboard-response","47","334410","0.0-47.0","34BBWHLWHBXFTCZCVCM92RYBPOQIWO","ARFJTVZE5IKLC","3VJ4PFXFJ3TL96TFXMATEMT7KJHUAI","","null","<img src=""img/food2.png"" style=""width:200px; border:14px solid green;"">","null","","","","","","",""
"","image-keyboard-response","48","335480","0.0-48.0","34BBWHLWHBXFTCZCVCM92RYBPOQIWO","ARFJTVZE5IKLC","3VJ4PFXFJ3TL96TFXMATEMT7KJHUAI","","1068","img/food4.png","75","1070","2","0","1","1,0.7,0,1,0.7,0,0.7,0,1","",""
"","html-keyboard-response","49","335788","0.0-49.0","34BBWHLWHBXFTCZCVCM92RYBPOQIWO","ARFJTVZE5IKLC","3VJ4PFXFJ3TL96TFXMATEMT7KJHUAI","","null","<img src=""img/food4.png"" style=""width:200px;border:14px solid red;"">","null","","","","","","",""
"","image-keyboard-response","50","337654","0.0-50.0","34BBWHLWHBXFTCZCVCM92RYBPOQIWO","ARFJTVZE5IKLC","3VJ4PFXFJ3TL96TFXMATEMT7KJHUAI","","1863","img/food2.png","76","1866","3","0","2","1,0.7,0,1,0.7,0,0.7,0,1","",""
"","html-keyboard-response","51","337964","0.0-51.0","34BBWHLWHBXFTCZCVCM92RYBPOQIWO","ARFJTVZE5IKLC","3VJ4PFXFJ3TL96TFXMATEMT7KJHUAI","","null","<img src=""img/food2.png"" style=""width:200px;border:14px solid red;"">","null","","","","","","",""
"","image-keyboard-response","52","338967","0.0-52.0","34BBWHLWHBXFTCZCVCM92RYBPOQIWO","ARFJTVZE5IKLC","3VJ4PFXFJ3TL96TFXMATEMT7KJHUAI","","1001","img/food2.png","74","1003","1","1","2","1,0.7,0,1,0.7,0,0.7,0,1","",""
"","html-keyboard-response","53","339273","0.0-53.0","34BBWHLWHBXFTCZCVCM92RYBPOQIWO","ARFJTVZE5IKLC","3VJ4PFXFJ3TL96TFXMATEMT7KJHUAI","","null","<img src=""img/food2.png"" style=""width:200px; border:14px solid green;"">","null","","","","","","",""
"","image-keyboard-response","54","340265","0.0-54.0","34BBWHLWHBXFTCZCVCM92RYBPOQIWO","ARFJTVZE5IKLC","3VJ4PFXFJ3TL96TFXMATEMT7KJHUAI","","990","img/food4.png","75","991","2","0","1","1,0.7,0,1,0.7,0,0.7,0,1","",""
"","html-keyboard-response","55","340570","0.0-55.0","34BBWHLWHBXFTCZCVCM92RYBPOQIWO","ARFJTVZE5IKLC","3VJ4PFXFJ3TL96TFXMATEMT7KJHUAI","","null","<img src=""img/food4.png"" style=""width:200px;border:14px solid red;"">","null","","","","","","",""
"","image-keyboard-response","56","341449","0.0-56.0","34BBWHLWHBXFTCZCVCM92RYBPOQIWO","ARFJTVZE5IKLC","3VJ4PFXFJ3TL96TFXMATEMT7KJHUAI","","878","img/food4.png","74","879","1","1","1","1,0.7,0,1,0.7,0,0.7,0,1","",""
"","html-keyboard-response","57","341753","0.0-57.0","34BBWHLWHBXFTCZCVCM92RYBPOQIWO","ARFJTVZE5IKLC","3VJ4PFXFJ3TL96TFXMATEMT7KJHUAI","","null","<img src=""img/food4.png"" style=""width:200px; border:14px solid green;"">","null","","","","","","",""
"","image-keyboard-response","58","342913","0.0-58.0","34BBWHLWHBXFTCZCVCM92RYBPOQIWO","ARFJTVZE5IKLC","3VJ4PFXFJ3TL96TFXMATEMT7KJHUAI","","1154","img/food4.png","74","1157","1","1","1","1,0.7,0,1,0.7,0,0.7,0,1","",""
"","html-keyboard-response","59","343238","0.0-59.0","34BBWHLWHBXFTCZCVCM92RYBPOQIWO","ARFJTVZE5IKLC","3VJ4PFXFJ3TL96TFXMATEMT7KJHUAI","","null","<img src=""img/food4.png"" style=""width:200px; border:14px solid green;"">","null","","","","","","",""
"","image-keyboard-response","60","344399","0.0-60.0","34BBWHLWHBXFTCZCVCM92RYBPOQIWO","ARFJTVZE5IKLC","3VJ4PFXFJ3TL96TFXMATEMT7KJHUAI","","1160","img/food2.png","75","1161","2","1","2","1,0.7,0,1,0.7,0,0.7,0,1","",""
"","html-keyboard-response","61","344771","0.0-61.0","34BBWHLWHBXFTCZCVCM92RYBPOQIWO","ARFJTVZE5IKLC","3VJ4PFXFJ3TL96TFXMATEMT7KJHUAI","","null","<img src=""img/food2.png"" style=""width:200px; border:14px solid green;"">","null","","","","","","",""
"","image-keyboard-response","62","345942","0.0-62.0","34BBWHLWHBXFTCZCVCM92RYBPOQIWO","ARFJTVZE5IKLC","3VJ4PFXFJ3TL96TFXMATEMT7KJHUAI","","1169","img/food4.png","74","1170","1","1","1","1,0.7,0,1,0.7,0,0.7,0,1","",""
"","html-keyboard-response","63","346269","0.0-63.0","34BBWHLWHBXFTCZCVCM92RYBPOQIWO","ARFJTVZE5IKLC","3VJ4PFXFJ3TL96TFXMATEMT7KJHUAI","","null","<img src=""img/food4.png"" style=""width:200px; border:14px solid green;"">","null","","","","","","",""
"","image-keyboard-response","64","347275","0.0-64.0","34BBWHLWHBXFTCZCVCM92RYBPOQIWO","ARFJTVZE5IKLC","3VJ4PFXFJ3TL96TFXMATEMT7KJHUAI","","1003","img/food4.png","75","1006","2","1","1","1,0.7,0,1,0.7,0,0.7,0,1","",""
"","html-keyboard-response","65","347602","0.0-65.0","34BBWHLWHBXFTCZCVCM92RYBPOQIWO","ARFJTVZE5IKLC","3VJ4PFXFJ3TL96TFXMATEMT7KJHUAI","","null","<img src=""img/food4.png"" style=""width:200px; border:14px solid green;"">","null","","","","","","",""
"","image-keyboard-response","66","348677","0.0-66.0","34BBWHLWHBXFTCZCVCM92RYBPOQIWO","ARFJTVZE5IKLC","3VJ4PFXFJ3TL96TFXMATEMT7KJHUAI","","1071","img/food3.png","74","1074","1","1","3","1,0.7,0,1,0.7,0,0.7,0,1","",""
"","html-keyboard-response","67","349108","0.0-67.0","34BBWHLWHBXFTCZCVCM92RYBPOQIWO","ARFJTVZE5IKLC","3VJ4PFXFJ3TL96TFXMATEMT7KJHUAI","","null","<img src=""img/food3.png"" style=""width:200px; border:14px solid green;"">","null","","","","","","",""
"","image-keyboard-response","68","350044","0.0-68.0","34BBWHLWHBXFTCZCVCM92RYBPOQIWO","ARFJTVZE5IKLC","3VJ4PFXFJ3TL96TFXMATEMT7KJHUAI","","933","img/food2.png","76","935","3","0","2","1,0.7,0,1,0.7,0,0.7,0,1","",""
"","html-keyboard-response","69","350350","0.0-69.0","34BBWHLWHBXFTCZCVCM92RYBPOQIWO","ARFJTVZE5IKLC","3VJ4PFXFJ3TL96TFXMATEMT7KJHUAI","","null","<img src=""img/food2.png"" style=""width:200px;border:14px solid red;"">","null","","","","","","",""
"","image-keyboard-response","70","351100","0.0-70.0","34BBWHLWHBXFTCZCVCM92RYBPOQIWO","ARFJTVZE5IKLC","3VJ4PFXFJ3TL96TFXMATEMT7KJHUAI","","749","img/food3.png","74","749","1","1","3","1,0.7,0,1,0.7,0,0.7,0,1","",""
"","html-keyboard-response","71","351476","0.0-71.0","34BBWHLWHBXFTCZCVCM92RYBPOQIWO","ARFJTVZE5IKLC","3VJ4PFXFJ3TL96TFXMATEMT7KJHUAI","","null","<img src=""img/food3.png"" style=""width:200px; border:14px solid green;"">","null","","","","","","",""
"","image-keyboard-response","72","352444","0.0-72.0","34BBWHLWHBXFTCZCVCM92RYBPOQIWO","ARFJTVZE5IKLC","3VJ4PFXFJ3TL96TFXMATEMT7KJHUAI","","965","img/food4.png","75","968","2","1","1","1,0.7,0,1,0.7,0,0.7,0,1","",""
"","html-keyboard-response","73","352786","0.0-73.0","34BBWHLWHBXFTCZCVCM92RYBPOQIWO","ARFJTVZE5IKLC","3VJ4PFXFJ3TL96TFXMATEMT7KJHUAI","","null","<img src=""img/food4.png"" style=""width:200px; border:14px solid green;"">","null","","","","","","",""
"","image-keyboard-response","74","353854","0.0-74.0","34BBWHLWHBXFTCZCVCM92RYBPOQIWO","ARFJTVZE5IKLC","3VJ4PFXFJ3TL96TFXMATEMT7KJHUAI","","1061","img/food2.png","75","1064","2","1","2","1,0.7,0,1,0.7,0,0.7,0,1","",""
"","html-keyboard-response","75","354162","0.0-75.0","34BBWHLWHBXFTCZCVCM92RYBPOQIWO","ARFJTVZE5IKLC","3VJ4PFXFJ3TL96TFXMATEMT7KJHUAI","","null","<img src=""img/food2.png"" style=""width:200px; border:14px solid green;"">","null","","","","","","",""
"","image-keyboard-response","76","355052","0.0-76.0","34BBWHLWHBXFTCZCVCM92RYBPOQIWO","ARFJTVZE5IKLC","3VJ4PFXFJ3TL96TFXMATEMT7KJHUAI","","888","img/food4.png","75","889","2","1","1","1,0.7,0,1,0.7,0,0.7,0,1","",""
"","html-keyboard-response","77","355367","0.0-77.0","34BBWHLWHBXFTCZCVCM92RYBPOQIWO","ARFJTVZE5IKLC","3VJ4PFXFJ3TL96TFXMATEMT7KJHUAI","","null","<img src=""img/food4.png"" style=""width:200px; border:14px solid green;"">","null","","","","","","",""
"","image-keyboard-response","78","356367","0.0-78.0","34BBWHLWHBXFTCZCVCM92RYBPOQIWO","ARFJTVZE5IKLC","3VJ4PFXFJ3TL96TFXMATEMT7KJHUAI","","820","img/food3.png","75","822","2","0","3","1,0.7,0,1,0.7,0,0.7,0,1","",""
"","html-keyboard-response","79","356670","0.0-79.0","34BBWHLWHBXFTCZCVCM92RYBPOQIWO","ARFJTVZE5IKLC","3VJ4PFXFJ3TL96TFXMATEMT7KJHUAI","","null","<img src=""img/food3.png"" style=""width:200px;border:14px solid red;"">","null","","","","","","",""
"","image-keyboard-response","80","357464","0.0-80.0","34BBWHLWHBXFTCZCVCM92RYBPOQIWO","ARFJTVZE5IKLC","3VJ4PFXFJ3TL96TFXMATEMT7KJHUAI","","788","img/food4.png","75","790","2","1","1","1,0.7,0,1,0.7,0,0.7,0,1","",""
"","html-keyboard-response","81","357778","0.0-81.0","34BBWHLWHBXFTCZCVCM92RYBPOQIWO","ARFJTVZE5IKLC","3VJ4PFXFJ3TL96TFXMATEMT7KJHUAI","","null","<img src=""img/food4.png"" style=""width:200px; border:14px solid green;"">","null","","","","","","",""
"","image-keyboard-response","82","358527","0.0-82.0","34BBWHLWHBXFTCZCVCM92RYBPOQIWO","ARFJTVZE5IKLC","3VJ4PFXFJ3TL96TFXMATEMT7KJHUAI","","747","img/food3.png","75","749","2","0","3","1,0.7,0,1,0.7,0,0.7,0,1","",""
"","html-keyboard-response","83","358835","0.0-83.0","34BBWHLWHBXFTCZCVCM92RYBPOQIWO","ARFJTVZE5IKLC","3VJ4PFXFJ3TL96TFXMATEMT7KJHUAI","","null","<img src=""img/food3.png"" style=""width:200px;border:14px solid red;"">","null","","","","","","",""
"","image-keyboard-response","84","359531","0.0-84.0","34BBWHLWHBXFTCZCVCM92RYBPOQIWO","ARFJTVZE5IKLC","3VJ4PFXFJ3TL96TFXMATEMT7KJHUAI","","694","img/food3.png","75","696","2","0","3","1,0.7,0,1,0.7,0,0.7,0,1","",""
"","html-keyboard-response","85","359851","0.0-85.0","34BBWHLWHBXFTCZCVCM92RYBPOQIWO","ARFJTVZE5IKLC","3VJ4PFXFJ3TL96TFXMATEMT7KJHUAI","","null","<img src=""img/food3.png"" style=""width:200px;border:14px solid red;"">","null","","","","","","",""
"","image-keyboard-response","86","360798","0.0-86.0","34BBWHLWHBXFTCZCVCM92RYBPOQIWO","ARFJTVZE5IKLC","3VJ4PFXFJ3TL96TFXMATEMT7KJHUAI","","945","img/food4.png","75","947","2","1","1","1,0.7,0,1,0.7,0,0.7,0,1","",""
"","html-keyboard-response","87","361128","0.0-87.0","34BBWHLWHBXFTCZCVCM92RYBPOQIWO","ARFJTVZE5IKLC","3VJ4PFXFJ3TL96TFXMATEMT7KJHUAI","","null","<img src=""img/food4.png"" style=""width:200px; border:14px solid green;"">","null","","","","","","",""
"","image-keyboard-response","88","362169","0.0-88.0","34BBWHLWHBXFTCZCVCM92RYBPOQIWO","ARFJTVZE5IKLC","3VJ4PFXFJ3TL96TFXMATEMT7KJHUAI","","1036","img/food2.png","75","1038","2","1","2","1,0.7,0,1,0.7,0,0.7,0,1","",""
"","html-keyboard-response","89","362481","0.0-89.0","34BBWHLWHBXFTCZCVCM92RYBPOQIWO","ARFJTVZE5IKLC","3VJ4PFXFJ3TL96TFXMATEMT7KJHUAI","","null","<img src=""img/food2.png"" style=""width:200px; border:14px solid green;"">","null","","","","","","",""
"","image-keyboard-response","90","363290","0.0-90.0","34BBWHLWHBXFTCZCVCM92RYBPOQIWO","ARFJTVZE5IKLC","3VJ4PFXFJ3TL96TFXMATEMT7KJHUAI","","808","img/food3.png","75","808","2","0","3","1,0.7,0,1,0.7,0,0.7,0,1","",""
"","html-keyboard-response","91","363599","0.0-91.0","34BBWHLWHBXFTCZCVCM92RYBPOQIWO","ARFJTVZE5IKLC","3VJ4PFXFJ3TL96TFXMATEMT7KJHUAI","","null","<img src=""img/food3.png"" style=""width:200px;border:14px solid red;"">","null","","","","","","",""
"","image-keyboard-response","92","364451","0.0-92.0","34BBWHLWHBXFTCZCVCM92RYBPOQIWO","ARFJTVZE5IKLC","3VJ4PFXFJ3TL96TFXMATEMT7KJHUAI","","850","img/food4.png","75","852","2","0","1","1,0.7,0,1,0.7,0,0.7,0,1","",""
"","html-keyboard-response","93","364758","0.0-93.0","34BBWHLWHBXFTCZCVCM92RYBPOQIWO","ARFJTVZE5IKLC","3VJ4PFXFJ3TL96TFXMATEMT7KJHUAI","","null","<img src=""img/food4.png"" style=""width:200px;border:14px solid red;"">","null","","","","","","",""
"","image-keyboard-response","94","365589","0.0-94.0","34BBWHLWHBXFTCZCVCM92RYBPOQIWO","ARFJTVZE5IKLC","3VJ4PFXFJ3TL96TFXMATEMT7KJHUAI","","829","img/food3.png","75","831","2","0","3","1,0.7,0,1,0.7,0,0.7,0,1","",""
"","html-keyboard-response","95","365896","0.0-95.0","34BBWHLWHBXFTCZCVCM92RYBPOQIWO","ARFJTVZE5IKLC","3VJ4PFXFJ3TL96TFXMATEMT7KJHUAI","","null","<img src=""img/food3.png"" style=""width:200px;border:14px solid red;"">","null","","","","","","",""
"","image-keyboard-response","96","366740","0.0-96.0","34BBWHLWHBXFTCZCVCM92RYBPOQIWO","ARFJTVZE5IKLC","3VJ4PFXFJ3TL96TFXMATEMT7KJHUAI","","842","img/food4.png","75","844","2","0","1","1,0.7,0,1,0.7,0,0.7,0,1","",""
"","html-keyboard-response","97","367053","0.0-97.0","34BBWHLWHBXFTCZCVCM92RYBPOQIWO","ARFJTVZE5IKLC","3VJ4PFXFJ3TL96TFXMATEMT7KJHUAI","","null","<img src=""img/food4.png"" style=""width:200px;border:14px solid red;"">","null","","","","","","",""
"","image-keyboard-response","98","367718","0.0-98.0","34BBWHLWHBXFTCZCVCM92RYBPOQIWO","ARFJTVZE5IKLC","3VJ4PFXFJ3TL96TFXMATEMT7KJHUAI","","664","img/food2.png","74","665","1","1","2","1,0.7,0,1,0.7,0,0.7,0,1","",""
"","html-keyboard-response","99","368030","0.0-99.0","34BBWHLWHBXFTCZCVCM92RYBPOQIWO","ARFJTVZE5IKLC","3VJ4PFXFJ3TL96TFXMATEMT7KJHUAI","","null","<img src=""img/food2.png"" style=""width:200px; border:14px solid green;"">","null","","","","","","",""
"","image-keyboard-response","100","369038","0.0-100.0","34BBWHLWHBXFTCZCVCM92RYBPOQIWO","ARFJTVZE5IKLC","3VJ4PFXFJ3TL96TFXMATEMT7KJHUAI","","1006","img/food4.png","74","1008","1","1","1","1,0.7,0,1,0.7,0,0.7,0,1","",""
"","html-keyboard-response","101","369345","0.0-101.0","34BBWHLWHBXFTCZCVCM92RYBPOQIWO","ARFJTVZE5IKLC","3VJ4PFXFJ3TL96TFXMATEMT7KJHUAI","","null","<img src=""img/food4.png"" style=""width:200px; border:14px solid green;"">","null","","","","","","",""
"","image-keyboard-response","102","370661","0.0-102.0","34BBWHLWHBXFTCZCVCM92RYBPOQIWO","ARFJTVZE5IKLC","3VJ4PFXFJ3TL96TFXMATEMT7KJHUAI","","1312","img/food4.png","75","1315","2","0","1","1,0.7,0,1,0.7,0,0.7,0,1","",""
"","html-keyboard-response","103","370966","0.0-103.0","34BBWHLWHBXFTCZCVCM92RYBPOQIWO","ARFJTVZE5IKLC","3VJ4PFXFJ3TL96TFXMATEMT7KJHUAI","","null","<img src=""img/food4.png"" style=""width:200px;border:14px solid red;"">","null","","","","","","",""
"","image-keyboard-response","104","371660","0.0-104.0","34BBWHLWHBXFTCZCVCM92RYBPOQIWO","ARFJTVZE5IKLC","3VJ4PFXFJ3TL96TFXMATEMT7KJHUAI","","691","img/food2.png","75","694","2","1","2","1,0.7,0,1,0.7,0,0.7,0,1","",""
"","html-keyboard-response","105","371965","0.0-105.0","34BBWHLWHBXFTCZCVCM92RYBPOQIWO","ARFJTVZE5IKLC","3VJ4PFXFJ3TL96TFXMATEMT7KJHUAI","","null","<img src=""img/food2.png"" style=""width:200px; border:14px solid green;"">","null","","","","","","",""
"","image-keyboard-response","106","373441","0.0-106.0","34BBWHLWHBXFTCZCVCM92RYBPOQIWO","ARFJTVZE5IKLC","3VJ4PFXFJ3TL96TFXMATEMT7KJHUAI","","1471","img/food2.png","76","1474","3","0","2","1,0.7,0,1,0.7,0,0.7,0,1","",""
"","html-keyboard-response","107","373769","0.0-107.0","34BBWHLWHBXFTCZCVCM92RYBPOQIWO","ARFJTVZE5IKLC","3VJ4PFXFJ3TL96TFXMATEMT7KJHUAI","","null","<img src=""img/food2.png"" style=""width:200px;border:14px solid red;"">","null","","","","","","",""
"","image-keyboard-response","108","374679","0.0-108.0","34BBWHLWHBXFTCZCVCM92RYBPOQIWO","ARFJTVZE5IKLC","3VJ4PFXFJ3TL96TFXMATEMT7KJHUAI","","906","img/food4.png","75","908","2","1","1","1,0.7,0,1,0.7,0,0.7,0,1","",""
"","html-keyboard-response","109","374983","0.0-109.0","34BBWHLWHBXFTCZCVCM92RYBPOQIWO","ARFJTVZE5IKLC","3VJ4PFXFJ3TL96TFXMATEMT7KJHUAI","","null","<img src=""img/food4.png"" style=""width:200px; border:14px solid green;"">","null","","","","","","",""
"","image-keyboard-response","110","375877","0.0-110.0","34BBWHLWHBXFTCZCVCM92RYBPOQIWO","ARFJTVZE5IKLC","3VJ4PFXFJ3TL96TFXMATEMT7KJHUAI","","892","img/food4.png","75","893","2","0","1","1,0.7,0,1,0.7,0,0.7,0,1","",""
"","html-keyboard-response","111","376189","0.0-111.0","34BBWHLWHBXFTCZCVCM92RYBPOQIWO","ARFJTVZE5IKLC","3VJ4PFXFJ3TL96TFXMATEMT7KJHUAI","","null","<img src=""img/food4.png"" style=""width:200px;border:14px solid red;"">","null","","","","","","",""
"","image-keyboard-response","112","376981","0.0-112.0","34BBWHLWHBXFTCZCVCM92RYBPOQIWO","ARFJTVZE5IKLC","3VJ4PFXFJ3TL96TFXMATEMT7KJHUAI","","788","img/food2.png","74","789","1","1","2","1,0.7,0,1,0.7,0,0.7,0,1","",""
"","html-keyboard-response","113","377293","0.0-113.0","34BBWHLWHBXFTCZCVCM92RYBPOQIWO","ARFJTVZE5IKLC","3VJ4PFXFJ3TL96TFXMATEMT7KJHUAI","","null","<img src=""img/food2.png"" style=""width:200px; border:14px solid green;"">","null","","","","","","",""
"","image-keyboard-response","114","378000","0.0-114.0","34BBWHLWHBXFTCZCVCM92RYBPOQIWO","ARFJTVZE5IKLC","3VJ4PFXFJ3TL96TFXMATEMT7KJHUAI","","705","img/food3.png","74","706","1","1","3","1,0.7,0,1,0.7,0,0.7,0,1","",""
"","html-keyboard-response","115","378398","0.0-115.0","34BBWHLWHBXFTCZCVCM92RYBPOQIWO","ARFJTVZE5IKLC","3VJ4PFXFJ3TL96TFXMATEMT7KJHUAI","","null","<img src=""img/food3.png"" style=""width:200px; border:14px solid green;"">","null","","","","","","",""
"","image-keyboard-response","116","379207","0.0-116.0","34BBWHLWHBXFTCZCVCM92RYBPOQIWO","ARFJTVZE5IKLC","3VJ4PFXFJ3TL96TFXMATEMT7KJHUAI","","805","img/food3.png","75","807","2","0","3","1,0.7,0,1,0.7,0,0.7,0,1","",""
"","html-keyboard-response","117","379516","0.0-117.0","34BBWHLWHBXFTCZCVCM92RYBPOQIWO","ARFJTVZE5IKLC","3VJ4PFXFJ3TL96TFXMATEMT7KJHUAI","","null","<img src=""img/food3.png"" style=""width:200px;border:14px solid red;"">","null","","","","","","",""
"","image-keyboard-response","118","380187","0.0-118.0","34BBWHLWHBXFTCZCVCM92RYBPOQIWO","ARFJTVZE5IKLC","3VJ4PFXFJ3TL96TFXMATEMT7KJHUAI","","658","img/food3.png","74","662","1","1","3","1,0.7,0,1,0.7,0,0.7,0,1","",""
"","html-keyboard-response","119","380498","0.0-119.0","34BBWHLWHBXFTCZCVCM92RYBPOQIWO","ARFJTVZE5IKLC","3VJ4PFXFJ3TL96TFXMATEMT7KJHUAI","","null","<img src=""img/food3.png"" style=""width:200px; border:14px solid green;"">","null","","","","","","",""
"","image-keyboard-response","120","381226","0.0-120.0","34BBWHLWHBXFTCZCVCM92RYBPOQIWO","ARFJTVZE5IKLC","3VJ4PFXFJ3TL96TFXMATEMT7KJHUAI","","725","img/food4.png","74","727","1","1","1","1,0.7,0,1,0.7,0,0.7,0,1","",""
"","html-keyboard-response","121","381540","0.0-121.0","34BBWHLWHBXFTCZCVCM92RYBPOQIWO","ARFJTVZE5IKLC","3VJ4PFXFJ3TL96TFXMATEMT7KJHUAI","","null","<img src=""img/food4.png"" style=""width:200px; border:14px solid green;"">","null","","","","","","",""
"","image-keyboard-response","122","382473","0.0-122.0","34BBWHLWHBXFTCZCVCM92RYBPOQIWO","ARFJTVZE5IKLC","3VJ4PFXFJ3TL96TFXMATEMT7KJHUAI","","930","img/food2.png","75","933","2","0","2","1,0.7,0,1,0.7,0,0.7,0,1","",""
"","html-keyboard-response","123","382782","0.0-123.0","34BBWHLWHBXFTCZCVCM92RYBPOQIWO","ARFJTVZE5IKLC","3VJ4PFXFJ3TL96TFXMATEMT7KJHUAI","","null","<img src=""img/food2.png"" style=""width:200px;border:14px solid red;"">","null","","","","","","",""
"","image-keyboard-response","124","383623","0.0-124.0","34BBWHLWHBXFTCZCVCM92RYBPOQIWO","ARFJTVZE5IKLC","3VJ4PFXFJ3TL96TFXMATEMT7KJHUAI","","839","img/food4.png","74","841","1","1","1","1,0.7,0,1,0.7,0,0.7,0,1","",""
"","html-keyboard-response","125","383933","0.0-125.0","34BBWHLWHBXFTCZCVCM92RYBPOQIWO","ARFJTVZE5IKLC","3VJ4PFXFJ3TL96TFXMATEMT7KJHUAI","","null","<img src=""img/food4.png"" style=""width:200px; border:14px solid green;"">","null","","","","","","",""
"","image-keyboard-response","126","384961","0.0-126.0","34BBWHLWHBXFTCZCVCM92RYBPOQIWO","ARFJTVZE5IKLC","3VJ4PFXFJ3TL96TFXMATEMT7KJHUAI","","1026","img/food2.png","75","1028","2","1","2","1,0.7,0,1,0.7,0,0.7,0,1","",""
"","html-keyboard-response","127","385269","0.0-127.0","34BBWHLWHBXFTCZCVCM92RYBPOQIWO","ARFJTVZE5IKLC","3VJ4PFXFJ3TL96TFXMATEMT7KJHUAI","","null","<img src=""img/food2.png"" style=""width:200px; border:14px solid green;"">","null","","","","","","",""
"","image-keyboard-response","128","387629","0.0-128.0","34BBWHLWHBXFTCZCVCM92RYBPOQIWO","ARFJTVZE5IKLC","3VJ4PFXFJ3TL96TFXMATEMT7KJHUAI","","2358","img/food2.png","75","2360","2","1","2","1,0.7,0,1,0.7,0,0.7,0,1","",""
"","html-keyboard-response","129","387937","0.0-129.0","34BBWHLWHBXFTCZCVCM92RYBPOQIWO","ARFJTVZE5IKLC","3VJ4PFXFJ3TL96TFXMATEMT7KJHUAI","","null","<img src=""img/food2.png"" style=""width:200px; border:14px solid green;"">","null","","","","","","",""
"","image-keyboard-response","130","389121","0.0-130.0","34BBWHLWHBXFTCZCVCM92RYBPOQIWO","ARFJTVZE5IKLC","3VJ4PFXFJ3TL96TFXMATEMT7KJHUAI","","1182","img/food2.png","75","1184","2","1","2","1,0.7,0,1,0.7,0,0.7,0,1","",""
"","html-keyboard-response","131","389467","0.0-131.0","34BBWHLWHBXFTCZCVCM92RYBPOQIWO","ARFJTVZE5IKLC","3VJ4PFXFJ3TL96TFXMATEMT7KJHUAI","","null","<img src=""img/food2.png"" style=""width:200px; border:14px solid green;"">","null","","","","","","",""
"","image-keyboard-response","132","390140","0.0-132.0","34BBWHLWHBXFTCZCVCM92RYBPOQIWO","ARFJTVZE5IKLC","3VJ4PFXFJ3TL96TFXMATEMT7KJHUAI","","672","img/food3.png","74","673","1","1","3","1,0.7,0,1,0.7,0,0.7,0,1","",""
"","html-keyboard-response","133","390498","0.0-133.0","34BBWHLWHBXFTCZCVCM92RYBPOQIWO","ARFJTVZE5IKLC","3VJ4PFXFJ3TL96TFXMATEMT7KJHUAI","","null","<img src=""img/food3.png"" style=""width:200px; border:14px solid green;"">","null","","","","","","",""
"","image-keyboard-response","134","391151","0.0-134.0","34BBWHLWHBXFTCZCVCM92RYBPOQIWO","ARFJTVZE5IKLC","3VJ4PFXFJ3TL96TFXMATEMT7KJHUAI","","651","img/food3.png","74","653","1","1","3","1,0.7,0,1,0.7,0,0.7,0,1","",""
"","html-keyboard-response","135","391454","0.0-135.0","34BBWHLWHBXFTCZCVCM92RYBPOQIWO","ARFJTVZE5IKLC","3VJ4PFXFJ3TL96TFXMATEMT7KJHUAI","","null","<img src=""img/food3.png"" style=""width:200px; border:14px solid green;"">","null","","","","","","",""
"","image-keyboard-response","136","392162","0.0-136.0","34BBWHLWHBXFTCZCVCM92RYBPOQIWO","ARFJTVZE5IKLC","3VJ4PFXFJ3TL96TFXMATEMT7KJHUAI","","688","img/food2.png","74","706","1","1","2","1,0.7,0,1,0.7,0,0.7,0,1","",""
"","html-keyboard-response","137","392467","0.0-137.0","34BBWHLWHBXFTCZCVCM92RYBPOQIWO","ARFJTVZE5IKLC","3VJ4PFXFJ3TL96TFXMATEMT7KJHUAI","","null","<img src=""img/food2.png"" style=""width:200px; border:14px solid green;"">","null","","","","","","",""
"","image-keyboard-response","138","393259","0.0-138.0","34BBWHLWHBXFTCZCVCM92RYBPOQIWO","ARFJTVZE5IKLC","3VJ4PFXFJ3TL96TFXMATEMT7KJHUAI","","788","img/food3.png","75","791","2","0","3","1,0.7,0,1,0.7,0,0.7,0,1","",""
"","html-keyboard-response","139","393627","0.0-139.0","34BBWHLWHBXFTCZCVCM92RYBPOQIWO","ARFJTVZE5IKLC","3VJ4PFXFJ3TL96TFXMATEMT7KJHUAI","","null","<img src=""img/food3.png"" style=""width:200px;border:14px solid red;"">","null","","","","","","",""
"","image-keyboard-response","140","394218","0.0-140.0","34BBWHLWHBXFTCZCVCM92RYBPOQIWO","ARFJTVZE5IKLC","3VJ4PFXFJ3TL96TFXMATEMT7KJHUAI","","589","img/food4.png","74","591","1","1","1","1,0.7,0,1,0.7,0,0.7,0,1","",""
"","html-keyboard-response","141","394534","0.0-141.0","34BBWHLWHBXFTCZCVCM92RYBPOQIWO","ARFJTVZE5IKLC","3VJ4PFXFJ3TL96TFXMATEMT7KJHUAI","","null","<img src=""img/food4.png"" style=""width:200px; border:14px solid green;"">","null","","","","","","",""
"","image-keyboard-response","142","395116","0.0-142.0","34BBWHLWHBXFTCZCVCM92RYBPOQIWO","ARFJTVZE5IKLC","3VJ4PFXFJ3TL96TFXMATEMT7KJHUAI","","581","img/food3.png","74","581","1","0","3","1,0.7,0,1,0.7,0,0.7,0,1","",""
"","html-keyboard-response","143","395421","0.0-143.0","34BBWHLWHBXFTCZCVCM92RYBPOQIWO","ARFJTVZE5IKLC","3VJ4PFXFJ3TL96TFXMATEMT7KJHUAI","","null","<img src=""img/food3.png"" style=""width:200px;border:14px solid red;"">","null","","","","","","",""
"","image-keyboard-response","144","396025","0.0-144.0","34BBWHLWHBXFTCZCVCM92RYBPOQIWO","ARFJTVZE5IKLC","3VJ4PFXFJ3TL96TFXMATEMT7KJHUAI","","602","img/food2.png","75","604","2","0","2","1,0.7,0,1,0.7,0,0.7,0,1","",""
"","html-keyboard-response","145","396331","0.0-145.0","34BBWHLWHBXFTCZCVCM92RYBPOQIWO","ARFJTVZE5IKLC","3VJ4PFXFJ3TL96TFXMATEMT7KJHUAI","","null","<img src=""img/food2.png"" style=""width:200px;border:14px solid red;"">","null","","","","","","",""
"","image-keyboard-response","146","396996","0.0-146.0","34BBWHLWHBXFTCZCVCM92RYBPOQIWO","ARFJTVZE5IKLC","3VJ4PFXFJ3TL96TFXMATEMT7KJHUAI","","664","img/food4.png","75","665","2","1","1","1,0.7,0,1,0.7,0,0.7,0,1","",""
"","html-keyboard-response","147","397318","0.0-147.0","34BBWHLWHBXFTCZCVCM92RYBPOQIWO","ARFJTVZE5IKLC","3VJ4PFXFJ3TL96TFXMATEMT7KJHUAI","","null","<img src=""img/food4.png"" style=""width:200px; border:14px solid green;"">","null","","","","","","",""
"","image-keyboard-response","148","398256","0.0-148.0","34BBWHLWHBXFTCZCVCM92RYBPOQIWO","ARFJTVZE5IKLC","3VJ4PFXFJ3TL96TFXMATEMT7KJHUAI","","937","img/food2.png","75","938","2","1","2","1,0.7,0,1,0.7,0,0.7,0,1","",""
"","html-keyboard-response","149","398570","0.0-149.0","34BBWHLWHBXFTCZCVCM92RYBPOQIWO","ARFJTVZE5IKLC","3VJ4PFXFJ3TL96TFXMATEMT7KJHUAI","","null","<img src=""img/food2.png"" style=""width:200px; border:14px solid green;"">","null","","","","","","",""
"","image-keyboard-response","150","399404","0.0-150.0","34BBWHLWHBXFTCZCVCM92RYBPOQIWO","ARFJTVZE5IKLC","3VJ4PFXFJ3TL96TFXMATEMT7KJHUAI","","832","img/food3.png","74","833","1","1","3","1,0.7,0,1,0.7,0,0.7,0,1","",""
"","html-keyboard-response","151","399723","0.0-151.0","34BBWHLWHBXFTCZCVCM92RYBPOQIWO","ARFJTVZE5IKLC","3VJ4PFXFJ3TL96TFXMATEMT7KJHUAI","","null","<img src=""img/food3.png"" style=""width:200px; border:14px solid green;"">","null","","","","","","",""
"","image-keyboard-response","152","400447","0.0-152.0","34BBWHLWHBXFTCZCVCM92RYBPOQIWO","ARFJTVZE5IKLC","3VJ4PFXFJ3TL96TFXMATEMT7KJHUAI","","721","img/food4.png","75","723","2","1","1","1,0.7,0,1,0.7,0,0.7,0,1","",""
"","html-keyboard-response","153","400761","0.0-153.0","34BBWHLWHBXFTCZCVCM92RYBPOQIWO","ARFJTVZE5IKLC","3VJ4PFXFJ3TL96TFXMATEMT7KJHUAI","","null","<img src=""img/food4.png"" style=""width:200px; border:14px solid green;"">","null","","","","","","",""
"","image-keyboard-response","154","401959","0.0-154.0","34BBWHLWHBXFTCZCVCM92RYBPOQIWO","ARFJTVZE5IKLC","3VJ4PFXFJ3TL96TFXMATEMT7KJHUAI","","1197","img/food4.png","75","1198","2","1","1","1,0.7,0,1,0.7,0,0.7,0,1","",""
"","html-keyboard-response","155","402260","0.0-155.0","34BBWHLWHBXFTCZCVCM92RYBPOQIWO","ARFJTVZE5IKLC","3VJ4PFXFJ3TL96TFXMATEMT7KJHUAI","","null","<img src=""img/food4.png"" style=""width:200px; border:14px solid green;"">","null","","","","","","",""
"","image-keyboard-response","156","403189","0.0-156.0","34BBWHLWHBXFTCZCVCM92RYBPOQIWO","ARFJTVZE5IKLC","3VJ4PFXFJ3TL96TFXMATEMT7KJHUAI","","927","img/food2.png","74","928","1","1","2","1,0.7,0,1,0.7,0,0.7,0,1","",""
"","html-keyboard-response","157","403661","0.0-157.0","34BBWHLWHBXFTCZCVCM92RYBPOQIWO","ARFJTVZE5IKLC","3VJ4PFXFJ3TL96TFXMATEMT7KJHUAI","","null","<img src=""img/food2.png"" style=""width:200px; border:14px solid green;"">","null","","","","","","",""
"","image-keyboard-response","158","404375","0.0-158.0","34BBWHLWHBXFTCZCVCM92RYBPOQIWO","ARFJTVZE5IKLC","3VJ4PFXFJ3TL96TFXMATEMT7KJHUAI","","705","img/food3.png","75","714","2","0","3","1,0.7,0,1,0.7,0,0.7,0,1","",""
"","html-keyboard-response","159","404678","0.0-159.0","34BBWHLWHBXFTCZCVCM92RYBPOQIWO","ARFJTVZE5IKLC","3VJ4PFXFJ3TL96TFXMATEMT7KJHUAI","","null","<img src=""img/food3.png"" style=""width:200px;border:14px solid red;"">","null","","","","","","",""
"","image-keyboard-response","160","405361","0.0-160.0","34BBWHLWHBXFTCZCVCM92RYBPOQIWO","ARFJTVZE5IKLC","3VJ4PFXFJ3TL96TFXMATEMT7KJHUAI","","680","img/food2.png","74","682","1","1","2","1,0.7,0,1,0.7,0,0.7,0,1","",""
"","html-keyboard-response","161","405727","0.0-161.0","34BBWHLWHBXFTCZCVCM92RYBPOQIWO","ARFJTVZE5IKLC","3VJ4PFXFJ3TL96TFXMATEMT7KJHUAI","","null","<img src=""img/food2.png"" style=""width:200px; border:14px solid green;"">","null","","","","","","",""
"","image-keyboard-response","162","406744","0.0-162.0","34BBWHLWHBXFTCZCVCM92RYBPOQIWO","ARFJTVZE5IKLC","3VJ4PFXFJ3TL96TFXMATEMT7KJHUAI","","1016","img/food2.png","74","1017","1","1","2","1,0.7,0,1,0.7,0,0.7,0,1","",""
"","html-keyboard-response","163","407091","0.0-163.0","34BBWHLWHBXFTCZCVCM92RYBPOQIWO","ARFJTVZE5IKLC","3VJ4PFXFJ3TL96TFXMATEMT7KJHUAI","","null","<img src=""img/food2.png"" style=""width:200px; border:14px solid green;"">","null","","","","","","",""
"","image-keyboard-response","164","407949","0.0-164.0","34BBWHLWHBXFTCZCVCM92RYBPOQIWO","ARFJTVZE5IKLC","3VJ4PFXFJ3TL96TFXMATEMT7KJHUAI","","856","img/food3.png","74","857","1","1","3","1,0.7,0,1,0.7,0,0.7,0,1","",""
"","html-keyboard-response","165","408256","0.0-165.0","34BBWHLWHBXFTCZCVCM92RYBPOQIWO","ARFJTVZE5IKLC","3VJ4PFXFJ3TL96TFXMATEMT7KJHUAI","","null","<img src=""img/food3.png"" style=""width:200px; border:14px solid green;"">","null","","","","","","",""
"","image-keyboard-response","166","409325","0.0-166.0","34BBWHLWHBXFTCZCVCM92RYBPOQIWO","ARFJTVZE5IKLC","3VJ4PFXFJ3TL96TFXMATEMT7KJHUAI","","1067","img/food2.png","74","1069","1","1","2","1,0.7,0,1,0.7,0,0.7,0,1","",""
"","html-keyboard-response","167","409654","0.0-167.0","34BBWHLWHBXFTCZCVCM92RYBPOQIWO","ARFJTVZE5IKLC","3VJ4PFXFJ3TL96TFXMATEMT7KJHUAI","","null","<img src=""img/food2.png"" style=""width:200px; border:14px solid green;"">","null","","","","","","",""
"","image-keyboard-response","168","410477","0.0-168.0","34BBWHLWHBXFTCZCVCM92RYBPOQIWO","ARFJTVZE5IKLC","3VJ4PFXFJ3TL96TFXMATEMT7KJHUAI","","819","img/food3.png","74","822","1","0","3","1,0.7,0,1,0.7,0,0.7,0,1","",""
"","html-keyboard-response","169","410784","0.0-169.0","34BBWHLWHBXFTCZCVCM92RYBPOQIWO","ARFJTVZE5IKLC","3VJ4PFXFJ3TL96TFXMATEMT7KJHUAI","","null","<img src=""img/food3.png"" style=""width:200px;border:14px solid red;"">","null","","","","","","",""
"","image-keyboard-response","170","411469","0.0-170.0","34BBWHLWHBXFTCZCVCM92RYBPOQIWO","ARFJTVZE5IKLC","3VJ4PFXFJ3TL96TFXMATEMT7KJHUAI","","684","img/food3.png","75","684","2","0","3","1,0.7,0,1,0.7,0,0.7,0,1","",""
"","html-keyboard-response","171","411779","0.0-171.0","34BBWHLWHBXFTCZCVCM92RYBPOQIWO","ARFJTVZE5IKLC","3VJ4PFXFJ3TL96TFXMATEMT7KJHUAI","","null","<img src=""img/food3.png"" style=""width:200px;border:14px solid red;"">","null","","","","","","",""
"","image-keyboard-response","172","413279","0.0-172.0","34BBWHLWHBXFTCZCVCM92RYBPOQIWO","ARFJTVZE5IKLC","3VJ4PFXFJ3TL96TFXMATEMT7KJHUAI","","1498","img/food3.png","75","1499","2","0","3","1,0.7,0,1,0.7,0,0.7,0,1","",""
"","html-keyboard-response","173","413585","0.0-173.0","34BBWHLWHBXFTCZCVCM92RYBPOQIWO","ARFJTVZE5IKLC","3VJ4PFXFJ3TL96TFXMATEMT7KJHUAI","","null","<img src=""img/food3.png"" style=""width:200px;border:14px solid red;"">","null","","","","","","",""
"","image-keyboard-response","174","415003","0.0-174.0","34BBWHLWHBXFTCZCVCM92RYBPOQIWO","ARFJTVZE5IKLC","3VJ4PFXFJ3TL96TFXMATEMT7KJHUAI","","1415","img/food3.png","74","1417","1","1","3","1,0.7,0,1,0.7,0,0.7,0,1","",""
"","html-keyboard-response","175","415310","0.0-175.0","34BBWHLWHBXFTCZCVCM92RYBPOQIWO","ARFJTVZE5IKLC","3VJ4PFXFJ3TL96TFXMATEMT7KJHUAI","","null","<img src=""img/food3.png"" style=""width:200px; border:14px solid green;"">","null","","","","","","",""
"","image-keyboard-response","176","416186","0.0-176.0","34BBWHLWHBXFTCZCVCM92RYBPOQIWO","ARFJTVZE5IKLC","3VJ4PFXFJ3TL96TFXMATEMT7KJHUAI","","874","img/food4.png","75","876","2","1","1","1,0.7,0,1,0.7,0,0.7,0,1","",""
"","html-keyboard-response","177","416490","0.0-177.0","34BBWHLWHBXFTCZCVCM92RYBPOQIWO","ARFJTVZE5IKLC","3VJ4PFXFJ3TL96TFXMATEMT7KJHUAI","","null","<img src=""img/food4.png"" style=""width:200px; border:14px solid green;"">","null","","","","","","",""
"","image-keyboard-response","178","417545","0.0-178.0","34BBWHLWHBXFTCZCVCM92RYBPOQIWO","ARFJTVZE5IKLC","3VJ4PFXFJ3TL96TFXMATEMT7KJHUAI","","1052","img/food4.png","75","1055","2","0","1","1,0.7,0,1,0.7,0,0.7,0,1","",""
"","html-keyboard-response","179","417853","0.0-179.0","34BBWHLWHBXFTCZCVCM92RYBPOQIWO","ARFJTVZE5IKLC","3VJ4PFXFJ3TL96TFXMATEMT7KJHUAI","","null","<img src=""img/food4.png"" style=""width:200px;border:14px solid red;"">","null","","","","","","",""
"","image-keyboard-response","180","418757","0.0-180.0","34BBWHLWHBXFTCZCVCM92RYBPOQIWO","ARFJTVZE5IKLC","3VJ4PFXFJ3TL96TFXMATEMT7KJHUAI","","903","img/food3.png","74","904","1","1","3","1,0.7,0,1,0.7,0,0.7,0,1","",""
"","html-keyboard-response","181","419064","0.0-181.0","34BBWHLWHBXFTCZCVCM92RYBPOQIWO","ARFJTVZE5IKLC","3VJ4PFXFJ3TL96TFXMATEMT7KJHUAI","","null","<img src=""img/food3.png"" style=""width:200px; border:14px solid green;"">","null","","","","","","",""
"","html-keyboard-response","182","450829","0.0-182.0","34BBWHLWHBXFTCZCVCM92RYBPOQIWO","ARFJTVZE5IKLC","3VJ4PFXFJ3TL96TFXMATEMT7KJHUAI","","","","","","","","","","",""
"","instructions","183","614616","0.0-183.0","34BBWHLWHBXFTCZCVCM92RYBPOQIWO","ARFJTVZE5IKLC","3VJ4PFXFJ3TL96TFXMATEMT7KJHUAI","[{""page_index"":0,""viewing_time"":162424},{""page_index"":1,""viewing_time"":1357}]","163782","","","","","","","","",""
"","image-keyboard-response","184","615641","0.0-184.0","34BBWHLWHBXFTCZCVCM92RYBPOQIWO","ARFJTVZE5IKLC","3VJ4PFXFJ3TL96TFXMATEMT7KJHUAI","","","img/food5.png","","1025","-1","0","3","1,0.7,0,1,0.7,0,0.7,0,1","true",""
"","html-keyboard-response","185","615959","0.0-185.0","34BBWHLWHBXFTCZCVCM92RYBPOQIWO","ARFJTVZE5IKLC","3VJ4PFXFJ3TL96TFXMATEMT7KJHUAI","","null","<img src=""img/food5.png"" style=""width:200px;border:14px solid red;"">","null","","","","","","",""
"","html-keyboard-response","186","621361","0.0-186.0-0.0","34BBWHLWHBXFTCZCVCM92RYBPOQIWO","ARFJTVZE5IKLC","3VJ4PFXFJ3TL96TFXMATEMT7KJHUAI","","","","","","","","","","",""
"","image-keyboard-response","187","622647","0.0-187.0","34BBWHLWHBXFTCZCVCM92RYBPOQIWO","ARFJTVZE5IKLC","3VJ4PFXFJ3TL96TFXMATEMT7KJHUAI","","","img/food1.png","","1285","-1","0","1","1,0.7,0,1,0.7,0,0.7,0,1","true",""
"","html-keyboard-response","188","622981","0.0-188.0","34BBWHLWHBXFTCZCVCM92RYBPOQIWO","ARFJTVZE5IKLC","3VJ4PFXFJ3TL96TFXMATEMT7KJHUAI","","null","<img src=""img/food1.png"" style=""width:200px;border:14px solid red;"">","null","","","","","","",""
"","html-keyboard-response","189","627789","0.0-189.0-0.0","34BBWHLWHBXFTCZCVCM92RYBPOQIWO","ARFJTVZE5IKLC","3VJ4PFXFJ3TL96TFXMATEMT7KJHUAI","","","","","","","","","","",""
"","image-keyboard-response","190","628797","0.0-190.0","34BBWHLWHBXFTCZCVCM92RYBPOQIWO","ARFJTVZE5IKLC","3VJ4PFXFJ3TL96TFXMATEMT7KJHUAI","","","img/food1.png","","1007","-1","0","1","1,0.7,0,1,0.7,0,0.7,0,1","true",""
"","html-keyboard-response","191","629116","0.0-191.0","34BBWHLWHBXFTCZCVCM92RYBPOQIWO","ARFJTVZE5IKLC","3VJ4PFXFJ3TL96TFXMATEMT7KJHUAI","","null","<img src=""img/food1.png"" style=""width:200px;border:14px solid red;"">","null","","","","","","",""
"","html-keyboard-response","192","632856","0.0-192.0-0.0","34BBWHLWHBXFTCZCVCM92RYBPOQIWO","ARFJTVZE5IKLC","3VJ4PFXFJ3TL96TFXMATEMT7KJHUAI","","","","","","","","","","",""
"","image-keyboard-response","193","633266","0.0-193.0","34BBWHLWHBXFTCZCVCM92RYBPOQIWO","ARFJTVZE5IKLC","3VJ4PFXFJ3TL96TFXMATEMT7KJHUAI","","406","img/food6.png","74","409","1","1","2","1,0.7,0,1,0.7,0,0.7,0,1","false",""
"","html-keyboard-response","194","633614","0.0-194.0","34BBWHLWHBXFTCZCVCM92RYBPOQIWO","ARFJTVZE5IKLC","3VJ4PFXFJ3TL96TFXMATEMT7KJHUAI","","null","<img src=""img/food6.png"" style=""width:200px; border:14px solid green;"">","null","","","","","","",""
"","image-keyboard-response","195","634332","0.0-196.0","34BBWHLWHBXFTCZCVCM92RYBPOQIWO","ARFJTVZE5IKLC","3VJ4PFXFJ3TL96TFXMATEMT7KJHUAI","","694","img/food1.png","75","702","2","1","1","1,0.7,0,1,0.7,0,0.7,0,1","false",""
"","html-keyboard-response","196","634694","0.0-197.0","34BBWHLWHBXFTCZCVCM92RYBPOQIWO","ARFJTVZE5IKLC","3VJ4PFXFJ3TL96TFXMATEMT7KJHUAI","","null","<img src=""img/food1.png"" style=""width:200px; border:14px solid green;"">","null","","","","","","",""
"","image-keyboard-response","197","635456","0.0-199.0","34BBWHLWHBXFTCZCVCM92RYBPOQIWO","ARFJTVZE5IKLC","3VJ4PFXFJ3TL96TFXMATEMT7KJHUAI","","759","img/food1.png","75","761","2","1","1","1,0.7,0,1,0.7,0,0.7,0,1","false",""
"","html-keyboard-response","198","635763","0.0-200.0","34BBWHLWHBXFTCZCVCM92RYBPOQIWO","ARFJTVZE5IKLC","3VJ4PFXFJ3TL96TFXMATEMT7KJHUAI","","null","<img src=""img/food1.png"" style=""width:200px; border:14px solid green;"">","null","","","","","","",""
"","image-keyboard-response","199","636619","0.0-202.0","34BBWHLWHBXFTCZCVCM92RYBPOQIWO","ARFJTVZE5IKLC","3VJ4PFXFJ3TL96TFXMATEMT7KJHUAI","","854","img/food1.png","75","856","2","1","1","1,0.7,0,1,0.7,0,0.7,0,1","false",""
"","html-keyboard-response","200","636931","0.0-203.0","34BBWHLWHBXFTCZCVCM92RYBPOQIWO","ARFJTVZE5IKLC","3VJ4PFXFJ3TL96TFXMATEMT7KJHUAI","","null","<img src=""img/food1.png"" style=""width:200px; border:14px solid green;"">","null","","","","","","",""
"","image-keyboard-response","201","637436","0.0-205.0","34BBWHLWHBXFTCZCVCM92RYBPOQIWO","ARFJTVZE5IKLC","3VJ4PFXFJ3TL96TFXMATEMT7KJHUAI","","503","img/food5.png","75","504","2","0","3","1,0.7,0,1,0.7,0,0.7,0,1","false",""
"","html-keyboard-response","202","637742","0.0-206.0","34BBWHLWHBXFTCZCVCM92RYBPOQIWO","ARFJTVZE5IKLC","3VJ4PFXFJ3TL96TFXMATEMT7KJHUAI","","null","<img src=""img/food5.png"" style=""width:200px;border:14px solid red;"">","null","","","","","","",""
"","image-keyboard-response","203","638290","0.0-208.0","34BBWHLWHBXFTCZCVCM92RYBPOQIWO","ARFJTVZE5IKLC","3VJ4PFXFJ3TL96TFXMATEMT7KJHUAI","","546","img/food1.png","76","546","3","0","1","1,0.7,0,1,0.7,0,0.7,0,1","false",""
"","html-keyboard-response","204","638611","0.0-209.0","34BBWHLWHBXFTCZCVCM92RYBPOQIWO","ARFJTVZE5IKLC","3VJ4PFXFJ3TL96TFXMATEMT7KJHUAI","","null","<img src=""img/food1.png"" style=""width:200px;border:14px solid red;"">","null","","","","","","",""
"","image-keyboard-response","205","639253","0.0-211.0","34BBWHLWHBXFTCZCVCM92RYBPOQIWO","ARFJTVZE5IKLC","3VJ4PFXFJ3TL96TFXMATEMT7KJHUAI","","638","img/food1.png","75","640","2","0","1","1,0.7,0,1,0.7,0,0.7,0,1","false",""
"","html-keyboard-response","206","639556","0.0-212.0","34BBWHLWHBXFTCZCVCM92RYBPOQIWO","ARFJTVZE5IKLC","3VJ4PFXFJ3TL96TFXMATEMT7KJHUAI","","null","<img src=""img/food1.png"" style=""width:200px;border:14px solid red;"">","null","","","","","","",""
"","image-keyboard-response","207","640287","0.0-214.0","34BBWHLWHBXFTCZCVCM92RYBPOQIWO","ARFJTVZE5IKLC","3VJ4PFXFJ3TL96TFXMATEMT7KJHUAI","","728","img/food6.png","75","728","2","1","2","1,0.7,0,1,0.7,0,0.7,0,1","false",""
"","html-keyboard-response","208","640597","0.0-215.0","34BBWHLWHBXFTCZCVCM92RYBPOQIWO","ARFJTVZE5IKLC","3VJ4PFXFJ3TL96TFXMATEMT7KJHUAI","","null","<img src=""img/food6.png"" style=""width:200px; border:14px solid green;"">","null","","","","","","",""
"","image-keyboard-response","209","641233","0.0-217.0","34BBWHLWHBXFTCZCVCM92RYBPOQIWO","ARFJTVZE5IKLC","3VJ4PFXFJ3TL96TFXMATEMT7KJHUAI","","633","img/food6.png","75","635","2","1","2","1,0.7,0,1,0.7,0,0.7,0,1","false",""
"","html-keyboard-response","210","641545","0.0-218.0","34BBWHLWHBXFTCZCVCM92RYBPOQIWO","ARFJTVZE5IKLC","3VJ4PFXFJ3TL96TFXMATEMT7KJHUAI","","null","<img src=""img/food6.png"" style=""width:200px; border:14px solid green;"">","null","","","","","","",""
"","image-keyboard-response","211","642221","0.0-220.0","34BBWHLWHBXFTCZCVCM92RYBPOQIWO","ARFJTVZE5IKLC","3VJ4PFXFJ3TL96TFXMATEMT7KJHUAI","","673","img/food5.png","74","675","1","0","3","1,0.7,0,1,0.7,0,0.7,0,1","false",""
"","html-keyboard-response","212","642567","0.0-221.0","34BBWHLWHBXFTCZCVCM92RYBPOQIWO","ARFJTVZE5IKLC","3VJ4PFXFJ3TL96TFXMATEMT7KJHUAI","","null","<img src=""img/food5.png"" style=""width:200px;border:14px solid red;"">","null","","","","","","",""
"","image-keyboard-response","213","643123","0.0-223.0","34BBWHLWHBXFTCZCVCM92RYBPOQIWO","ARFJTVZE5IKLC","3VJ4PFXFJ3TL96TFXMATEMT7KJHUAI","","546","img/food5.png","75","551","2","0","3","1,0.7,0,1,0.7,0,0.7,0,1","false",""
"","html-keyboard-response","214","643487","0.0-224.0","34BBWHLWHBXFTCZCVCM92RYBPOQIWO","ARFJTVZE5IKLC","3VJ4PFXFJ3TL96TFXMATEMT7KJHUAI","","null","<img src=""img/food5.png"" style=""width:200px;border:14px solid red;"">","null","","","","","","",""
"","image-keyboard-response","215","644399","0.0-226.0","34BBWHLWHBXFTCZCVCM92RYBPOQIWO","ARFJTVZE5IKLC","3VJ4PFXFJ3TL96TFXMATEMT7KJHUAI","","909","img/food6.png","76","911","3","0","2","1,0.7,0,1,0.7,0,0.7,0,1","false",""
"","html-keyboard-response","216","644705","0.0-227.0","34BBWHLWHBXFTCZCVCM92RYBPOQIWO","ARFJTVZE5IKLC","3VJ4PFXFJ3TL96TFXMATEMT7KJHUAI","","null","<img src=""img/food6.png"" style=""width:200px;border:14px solid red;"">","null","","","","","","",""
"","image-keyboard-response","217","645281","0.0-229.0","34BBWHLWHBXFTCZCVCM92RYBPOQIWO","ARFJTVZE5IKLC","3VJ4PFXFJ3TL96TFXMATEMT7KJHUAI","","573","img/food6.png","75","576","2","1","2","1,0.7,0,1,0.7,0,0.7,0,1","false",""
"","html-keyboard-response","218","645631","0.0-230.0","34BBWHLWHBXFTCZCVCM92RYBPOQIWO","ARFJTVZE5IKLC","3VJ4PFXFJ3TL96TFXMATEMT7KJHUAI","","null","<img src=""img/food6.png"" style=""width:200px; border:14px solid green;"">","null","","","","","","",""
"","image-keyboard-response","219","646643","0.0-232.0","34BBWHLWHBXFTCZCVCM92RYBPOQIWO","ARFJTVZE5IKLC","3VJ4PFXFJ3TL96TFXMATEMT7KJHUAI","","1010","img/food5.png","76","1011","3","1","3","1,0.7,0,1,0.7,0,0.7,0,1","false",""
"","html-keyboard-response","220","646967","0.0-233.0","34BBWHLWHBXFTCZCVCM92RYBPOQIWO","ARFJTVZE5IKLC","3VJ4PFXFJ3TL96TFXMATEMT7KJHUAI","","null","<img src=""img/food5.png"" style=""width:200px; border:14px solid green;"">","null","","","","","","",""
"","image-keyboard-response","221","647624","0.0-235.0","34BBWHLWHBXFTCZCVCM92RYBPOQIWO","ARFJTVZE5IKLC","3VJ4PFXFJ3TL96TFXMATEMT7KJHUAI","","654","img/food6.png","76","656","3","0","2","1,0.7,0,1,0.7,0,0.7,0,1","false",""
"","html-keyboard-response","222","647934","0.0-236.0","34BBWHLWHBXFTCZCVCM92RYBPOQIWO","ARFJTVZE5IKLC","3VJ4PFXFJ3TL96TFXMATEMT7KJHUAI","","null","<img src=""img/food6.png"" style=""width:200px;border:14px solid red;"">","null","","","","","","",""
"","image-keyboard-response","223","648936","0.0-238.0","34BBWHLWHBXFTCZCVCM92RYBPOQIWO","ARFJTVZE5IKLC","3VJ4PFXFJ3TL96TFXMATEMT7KJHUAI","","1000","img/food5.png","76","1001","3","1","3","1,0.7,0,1,0.7,0,0.7,0,1","false",""
"","html-keyboard-response","224","649246","0.0-239.0","34BBWHLWHBXFTCZCVCM92RYBPOQIWO","ARFJTVZE5IKLC","3VJ4PFXFJ3TL96TFXMATEMT7KJHUAI","","null","<img src=""img/food5.png"" style=""width:200px; border:14px solid green;"">","null","","","","","","",""
"","image-keyboard-response","225","650084","0.0-241.0","34BBWHLWHBXFTCZCVCM92RYBPOQIWO","ARFJTVZE5IKLC","3VJ4PFXFJ3TL96TFXMATEMT7KJHUAI","","835","img/food1.png","75","837","2","1","1","1,0.7,0,1,0.7,0,0.7,0,1","false",""
"","html-keyboard-response","226","650388","0.0-242.0","34BBWHLWHBXFTCZCVCM92RYBPOQIWO","ARFJTVZE5IKLC","3VJ4PFXFJ3TL96TFXMATEMT7KJHUAI","","null","<img src=""img/food1.png"" style=""width:200px; border:14px solid green;"">","null","","","","","","",""
"","image-keyboard-response","227","651140","0.0-244.0","34BBWHLWHBXFTCZCVCM92RYBPOQIWO","ARFJTVZE5IKLC","3VJ4PFXFJ3TL96TFXMATEMT7KJHUAI","","749","img/food6.png","76","751","3","0","2","1,0.7,0,1,0.7,0,0.7,0,1","false",""
"","html-keyboard-response","228","651453","0.0-245.0","34BBWHLWHBXFTCZCVCM92RYBPOQIWO","ARFJTVZE5IKLC","3VJ4PFXFJ3TL96TFXMATEMT7KJHUAI","","null","<img src=""img/food6.png"" style=""width:200px;border:14px solid red;"">","null","","","","","","",""
"","image-keyboard-response","229","652288","0.0-247.0","34BBWHLWHBXFTCZCVCM92RYBPOQIWO","ARFJTVZE5IKLC","3VJ4PFXFJ3TL96TFXMATEMT7KJHUAI","","829","img/food1.png","75","831","2","1","1","1,0.7,0,1,0.7,0,0.7,0,1","false",""
"","html-keyboard-response","230","652597","0.0-248.0","34BBWHLWHBXFTCZCVCM92RYBPOQIWO","ARFJTVZE5IKLC","3VJ4PFXFJ3TL96TFXMATEMT7KJHUAI","","null","<img src=""img/food1.png"" style=""width:200px; border:14px solid green;"">","null","","","","","","",""
"","image-keyboard-response","231","653253","0.0-250.0","34BBWHLWHBXFTCZCVCM92RYBPOQIWO","ARFJTVZE5IKLC","3VJ4PFXFJ3TL96TFXMATEMT7KJHUAI","","655","img/food6.png","75","656","2","0","2","1,0.7,0,1,0.7,0,0.7,0,1","false",""
"","html-keyboard-response","232","653572","0.0-251.0","34BBWHLWHBXFTCZCVCM92RYBPOQIWO","ARFJTVZE5IKLC","3VJ4PFXFJ3TL96TFXMATEMT7KJHUAI","","null","<img src=""img/food6.png"" style=""width:200px;border:14px solid red;"">","null","","","","","","",""
"","image-keyboard-response","233","654312","0.0-253.0","34BBWHLWHBXFTCZCVCM92RYBPOQIWO","ARFJTVZE5IKLC","3VJ4PFXFJ3TL96TFXMATEMT7KJHUAI","","728","img/food6.png","75","736","2","1","2","1,0.7,0,1,0.7,0,0.7,0,1","false",""
"","html-keyboard-response","234","654617","0.0-254.0","34BBWHLWHBXFTCZCVCM92RYBPOQIWO","ARFJTVZE5IKLC","3VJ4PFXFJ3TL96TFXMATEMT7KJHUAI","","null","<img src=""img/food6.png"" style=""width:200px; border:14px solid green;"">","null","","","","","","",""
"","image-keyboard-response","235","655287","0.0-256.0","34BBWHLWHBXFTCZCVCM92RYBPOQIWO","ARFJTVZE5IKLC","3VJ4PFXFJ3TL96TFXMATEMT7KJHUAI","","661","img/food6.png","75","664","2","1","2","1,0.7,0,1,0.7,0,0.7,0,1","false",""
"","html-keyboard-response","236","655596","0.0-257.0","34BBWHLWHBXFTCZCVCM92RYBPOQIWO","ARFJTVZE5IKLC","3VJ4PFXFJ3TL96TFXMATEMT7KJHUAI","","null","<img src=""img/food6.png"" style=""width:200px; border:14px solid green;"">","null","","","","","","",""
"","image-keyboard-response","237","656560","0.0-259.0","34BBWHLWHBXFTCZCVCM92RYBPOQIWO","ARFJTVZE5IKLC","3VJ4PFXFJ3TL96TFXMATEMT7KJHUAI","","950","img/food1.png","75","955","2","1","1","1,0.7,0,1,0.7,0,0.7,0,1","false",""
"","html-keyboard-response","238","656882","0.0-260.0","34BBWHLWHBXFTCZCVCM92RYBPOQIWO","ARFJTVZE5IKLC","3VJ4PFXFJ3TL96TFXMATEMT7KJHUAI","","null","<img src=""img/food1.png"" style=""width:200px; border:14px solid green;"">","null","","","","","","",""
"","image-keyboard-response","239","657721","0.0-262.0","34BBWHLWHBXFTCZCVCM92RYBPOQIWO","ARFJTVZE5IKLC","3VJ4PFXFJ3TL96TFXMATEMT7KJHUAI","","835","img/food5.png","76","839","3","1","3","1,0.7,0,1,0.7,0,0.7,0,1","false",""
"","html-keyboard-response","240","658031","0.0-263.0","34BBWHLWHBXFTCZCVCM92RYBPOQIWO","ARFJTVZE5IKLC","3VJ4PFXFJ3TL96TFXMATEMT7KJHUAI","","null","<img src=""img/food5.png"" style=""width:200px; border:14px solid green;"">","null","","","","","","",""
"","image-keyboard-response","241","658805","0.0-265.0","34BBWHLWHBXFTCZCVCM92RYBPOQIWO","ARFJTVZE5IKLC","3VJ4PFXFJ3TL96TFXMATEMT7KJHUAI","","772","img/food6.png","75","773","2","1","2","1,0.7,0,1,0.7,0,0.7,0,1","false",""
"","html-keyboard-response","242","659123","0.0-266.0","34BBWHLWHBXFTCZCVCM92RYBPOQIWO","ARFJTVZE5IKLC","3VJ4PFXFJ3TL96TFXMATEMT7KJHUAI","","null","<img src=""img/food6.png"" style=""width:200px; border:14px solid green;"">","null","","","","","","",""
"","image-keyboard-response","243","659904","0.0-268.0","34BBWHLWHBXFTCZCVCM92RYBPOQIWO","ARFJTVZE5IKLC","3VJ4PFXFJ3TL96TFXMATEMT7KJHUAI","","777","img/food1.png","75","779","2","1","1","1,0.7,0,1,0.7,0,0.7,0,1","false",""
"","html-keyboard-response","244","660267","0.0-269.0","34BBWHLWHBXFTCZCVCM92RYBPOQIWO","ARFJTVZE5IKLC","3VJ4PFXFJ3TL96TFXMATEMT7KJHUAI","","null","<img src=""img/food1.png"" style=""width:200px; border:14px solid green;"">","null","","","","","","",""
"","image-keyboard-response","245","661047","0.0-271.0","34BBWHLWHBXFTCZCVCM92RYBPOQIWO","ARFJTVZE5IKLC","3VJ4PFXFJ3TL96TFXMATEMT7KJHUAI","","776","img/food1.png","75","779","2","1","1","1,0.7,0,1,0.7,0,0.7,0,1","false",""
"","html-keyboard-response","246","661376","0.0-272.0","34BBWHLWHBXFTCZCVCM92RYBPOQIWO","ARFJTVZE5IKLC","3VJ4PFXFJ3TL96TFXMATEMT7KJHUAI","","null","<img src=""img/food1.png"" style=""width:200px; border:14px solid green;"">","null","","","","","","",""
"","image-keyboard-response","247","662300","0.0-274.0","34BBWHLWHBXFTCZCVCM92RYBPOQIWO","ARFJTVZE5IKLC","3VJ4PFXFJ3TL96TFXMATEMT7KJHUAI","","922","img/food5.png","76","924","3","1","3","1,0.7,0,1,0.7,0,0.7,0,1","false",""
"","html-keyboard-response","248","662607","0.0-275.0","34BBWHLWHBXFTCZCVCM92RYBPOQIWO","ARFJTVZE5IKLC","3VJ4PFXFJ3TL96TFXMATEMT7KJHUAI","","null","<img src=""img/food5.png"" style=""width:200px; border:14px solid green;"">","null","","","","","","",""
"","image-keyboard-response","249","663756","0.0-277.0","34BBWHLWHBXFTCZCVCM92RYBPOQIWO","ARFJTVZE5IKLC","3VJ4PFXFJ3TL96TFXMATEMT7KJHUAI","","1145","img/food6.png","75","1147","2","1","2","1,0.7,0,1,0.7,0,0.7,0,1","false",""
"","html-keyboard-response","250","664122","0.0-278.0","34BBWHLWHBXFTCZCVCM92RYBPOQIWO","ARFJTVZE5IKLC","3VJ4PFXFJ3TL96TFXMATEMT7KJHUAI","","null","<img src=""img/food6.png"" style=""width:200px; border:14px solid green;"">","null","","","","","","",""
"","image-keyboard-response","251","664760","0.0-280.0","34BBWHLWHBXFTCZCVCM92RYBPOQIWO","ARFJTVZE5IKLC","3VJ4PFXFJ3TL96TFXMATEMT7KJHUAI","","635","img/food6.png","75","637","2","1","2","1,0.7,0,1,0.7,0,0.7,0,1","false",""
"","html-keyboard-response","252","665074","0.0-281.0","34BBWHLWHBXFTCZCVCM92RYBPOQIWO","ARFJTVZE5IKLC","3VJ4PFXFJ3TL96TFXMATEMT7KJHUAI","","null","<img src=""img/food6.png"" style=""width:200px; border:14px solid green;"">","null","","","","","","",""
"","image-keyboard-response","253","665671","0.0-283.0","34BBWHLWHBXFTCZCVCM92RYBPOQIWO","ARFJTVZE5IKLC","3VJ4PFXFJ3TL96TFXMATEMT7KJHUAI","","594","img/food6.png","75","597","2","1","2","1,0.7,0,1,0.7,0,0.7,0,1","false",""
"","html-keyboard-response","254","665984","0.0-284.0","34BBWHLWHBXFTCZCVCM92RYBPOQIWO","ARFJTVZE5IKLC","3VJ4PFXFJ3TL96TFXMATEMT7KJHUAI","","null","<img src=""img/food6.png"" style=""width:200px; border:14px solid green;"">","null","","","","","","",""
"","image-keyboard-response","255","666712","0.0-286.0","34BBWHLWHBXFTCZCVCM92RYBPOQIWO","ARFJTVZE5IKLC","3VJ4PFXFJ3TL96TFXMATEMT7KJHUAI","","726","img/food5.png","76","727","3","1","3","1,0.7,0,1,0.7,0,0.7,0,1","false",""
"","html-keyboard-response","256","667017","0.0-287.0","34BBWHLWHBXFTCZCVCM92RYBPOQIWO","ARFJTVZE5IKLC","3VJ4PFXFJ3TL96TFXMATEMT7KJHUAI","","null","<img src=""img/food5.png"" style=""width:200px; border:14px solid green;"">","null","","","","","","",""
"","image-keyboard-response","257","668047","0.0-289.0","34BBWHLWHBXFTCZCVCM92RYBPOQIWO","ARFJTVZE5IKLC","3VJ4PFXFJ3TL96TFXMATEMT7KJHUAI","","1024","img/food6.png","75","1029","2","1","2","1,0.7,0,1,0.7,0,0.7,0,1","false",""
"","html-keyboard-response","258","668397","0.0-290.0","34BBWHLWHBXFTCZCVCM92RYBPOQIWO","ARFJTVZE5IKLC","3VJ4PFXFJ3TL96TFXMATEMT7KJHUAI","","null","<img src=""img/food6.png"" style=""width:200px; border:14px solid green;"">","null","","","","","","",""
"","image-keyboard-response","259","669025","0.0-292.0","34BBWHLWHBXFTCZCVCM92RYBPOQIWO","ARFJTVZE5IKLC","3VJ4PFXFJ3TL96TFXMATEMT7KJHUAI","","625","img/food6.png","75","626","2","1","2","1,0.7,0,1,0.7,0,0.7,0,1","false",""
"","html-keyboard-response","260","669471","0.0-293.0","34BBWHLWHBXFTCZCVCM92RYBPOQIWO","ARFJTVZE5IKLC","3VJ4PFXFJ3TL96TFXMATEMT7KJHUAI","","null","<img src=""img/food6.png"" style=""width:200px; border:14px solid green;"">","null","","","","","","",""
"","image-keyboard-response","261","670212","0.0-295.0","34BBWHLWHBXFTCZCVCM92RYBPOQIWO","ARFJTVZE5IKLC","3VJ4PFXFJ3TL96TFXMATEMT7KJHUAI","","736","img/food5.png","76","739","3","1","3","1,0.7,0,1,0.7,0,0.7,0,1","false",""
"","html-keyboard-response","262","670520","0.0-296.0","34BBWHLWHBXFTCZCVCM92RYBPOQIWO","ARFJTVZE5IKLC","3VJ4PFXFJ3TL96TFXMATEMT7KJHUAI","","null","<img src=""img/food5.png"" style=""width:200px; border:14px solid green;"">","null","","","","","","",""
"","image-keyboard-response","263","671240","0.0-298.0","34BBWHLWHBXFTCZCVCM92RYBPOQIWO","ARFJTVZE5IKLC","3VJ4PFXFJ3TL96TFXMATEMT7KJHUAI","","713","img/food6.png","75","713","2","1","2","1,0.7,0,1,0.7,0,0.7,0,1","false",""
"","html-keyboard-response","264","671556","0.0-299.0","34BBWHLWHBXFTCZCVCM92RYBPOQIWO","ARFJTVZE5IKLC","3VJ4PFXFJ3TL96TFXMATEMT7KJHUAI","","null","<img src=""img/food6.png"" style=""width:200px; border:14px solid green;"">","null","","","","","","",""
"","image-keyboard-response","265","672213","0.0-301.0","34BBWHLWHBXFTCZCVCM92RYBPOQIWO","ARFJTVZE5IKLC","3VJ4PFXFJ3TL96TFXMATEMT7KJHUAI","","649","img/food6.png","75","655","2","0","2","1,0.7,0,1,0.7,0,0.7,0,1","false",""
"","html-keyboard-response","266","672521","0.0-302.0","34BBWHLWHBXFTCZCVCM92RYBPOQIWO","ARFJTVZE5IKLC","3VJ4PFXFJ3TL96TFXMATEMT7KJHUAI","","null","<img src=""img/food6.png"" style=""width:200px;border:14px solid red;"">","null","","","","","","",""
"","image-keyboard-response","267","673142","0.0-304.0","34BBWHLWHBXFTCZCVCM92RYBPOQIWO","ARFJTVZE5IKLC","3VJ4PFXFJ3TL96TFXMATEMT7KJHUAI","","618","img/food6.png","75","620","2","0","2","1,0.7,0,1,0.7,0,0.7,0,1","false",""
"","html-keyboard-response","268","673516","0.0-305.0","34BBWHLWHBXFTCZCVCM92RYBPOQIWO","ARFJTVZE5IKLC","3VJ4PFXFJ3TL96TFXMATEMT7KJHUAI","","null","<img src=""img/food6.png"" style=""width:200px;border:14px solid red;"">","null","","","","","","",""
"","image-keyboard-response","269","674577","0.0-307.0","34BBWHLWHBXFTCZCVCM92RYBPOQIWO","ARFJTVZE5IKLC","3VJ4PFXFJ3TL96TFXMATEMT7KJHUAI","","1057","img/food6.png","75","1060","2","1","2","1,0.7,0,1,0.7,0,0.7,0,1","false",""
"","html-keyboard-response","270","674893","0.0-308.0","34BBWHLWHBXFTCZCVCM92RYBPOQIWO","ARFJTVZE5IKLC","3VJ4PFXFJ3TL96TFXMATEMT7KJHUAI","","null","<img src=""img/food6.png"" style=""width:200px; border:14px solid green;"">","null","","","","","","",""
"","image-keyboard-response","271","675649","0.0-310.0","34BBWHLWHBXFTCZCVCM92RYBPOQIWO","ARFJTVZE5IKLC","3VJ4PFXFJ3TL96TFXMATEMT7KJHUAI","","750","img/food1.png","75","753","2","1","1","1,0.7,0,1,0.7,0,0.7,0,1","false",""
"","html-keyboard-response","272","675960","0.0-311.0","34BBWHLWHBXFTCZCVCM92RYBPOQIWO","ARFJTVZE5IKLC","3VJ4PFXFJ3TL96TFXMATEMT7KJHUAI","","null","<img src=""img/food1.png"" style=""width:200px; border:14px solid green;"">","null","","","","","","",""
"","image-keyboard-response","273","676715","0.0-313.0","34BBWHLWHBXFTCZCVCM92RYBPOQIWO","ARFJTVZE5IKLC","3VJ4PFXFJ3TL96TFXMATEMT7KJHUAI","","752","img/food6.png","75","753","2","1","2","1,0.7,0,1,0.7,0,0.7,0,1","false",""
"","html-keyboard-response","274","677026","0.0-314.0","34BBWHLWHBXFTCZCVCM92RYBPOQIWO","ARFJTVZE5IKLC","3VJ4PFXFJ3TL96TFXMATEMT7KJHUAI","","null","<img src=""img/food6.png"" style=""width:200px; border:14px solid green;"">","null","","","","","","",""
"","image-keyboard-response","275","677702","0.0-316.0","34BBWHLWHBXFTCZCVCM92RYBPOQIWO","ARFJTVZE5IKLC","3VJ4PFXFJ3TL96TFXMATEMT7KJHUAI","","672","img/food1.png","75","675","2","0","1","1,0.7,0,1,0.7,0,0.7,0,1","false",""
"","html-keyboard-response","276","678021","0.0-317.0","34BBWHLWHBXFTCZCVCM92RYBPOQIWO","ARFJTVZE5IKLC","3VJ4PFXFJ3TL96TFXMATEMT7KJHUAI","","null","<img src=""img/food1.png"" style=""width:200px;border:14px solid red;"">","null","","","","","","",""
"","image-keyboard-response","277","678632","0.0-319.0","34BBWHLWHBXFTCZCVCM92RYBPOQIWO","ARFJTVZE5IKLC","3VJ4PFXFJ3TL96TFXMATEMT7KJHUAI","","607","img/food1.png","75","609","2","1","1","1,0.7,0,1,0.7,0,0.7,0,1","false",""
"","html-keyboard-response","278","678946","0.0-320.0","34BBWHLWHBXFTCZCVCM92RYBPOQIWO","ARFJTVZE5IKLC","3VJ4PFXFJ3TL96TFXMATEMT7KJHUAI","","null","<img src=""img/food1.png"" style=""width:200px; border:14px solid green;"">","null","","","","","","",""
"","image-keyboard-response","279","679560","0.0-322.0","34BBWHLWHBXFTCZCVCM92RYBPOQIWO","ARFJTVZE5IKLC","3VJ4PFXFJ3TL96TFXMATEMT7KJHUAI","","608","img/food5.png","75","612","2","0","3","1,0.7,0,1,0.7,0,0.7,0,1","false",""
"","html-keyboard-response","280","679884","0.0-323.0","34BBWHLWHBXFTCZCVCM92RYBPOQIWO","ARFJTVZE5IKLC","3VJ4PFXFJ3TL96TFXMATEMT7KJHUAI","","null","<img src=""img/food5.png"" style=""width:200px;border:14px solid red;"">","null","","","","","","",""
"","image-keyboard-response","281","680699","0.0-325.0","34BBWHLWHBXFTCZCVCM92RYBPOQIWO","ARFJTVZE5IKLC","3VJ4PFXFJ3TL96TFXMATEMT7KJHUAI","","812","img/food1.png","75","814","2","1","1","1,0.7,0,1,0.7,0,0.7,0,1","false",""
"","html-keyboard-response","282","681243","0.0-326.0","34BBWHLWHBXFTCZCVCM92RYBPOQIWO","ARFJTVZE5IKLC","3VJ4PFXFJ3TL96TFXMATEMT7KJHUAI","","null","<img src=""img/food1.png"" style=""width:200px; border:14px solid green;"">","null","","","","","","",""
"","image-keyboard-response","283","682045","0.0-328.0","34BBWHLWHBXFTCZCVCM92RYBPOQIWO","ARFJTVZE5IKLC","3VJ4PFXFJ3TL96TFXMATEMT7KJHUAI","","798","img/food5.png","76","801","3","1","3","1,0.7,0,1,0.7,0,0.7,0,1","false",""
"","html-keyboard-response","284","682370","0.0-329.0","34BBWHLWHBXFTCZCVCM92RYBPOQIWO","ARFJTVZE5IKLC","3VJ4PFXFJ3TL96TFXMATEMT7KJHUAI","","null","<img src=""img/food5.png"" style=""width:200px; border:14px solid green;"">","null","","","","","","",""
"","image-keyboard-response","285","683215","0.0-331.0","34BBWHLWHBXFTCZCVCM92RYBPOQIWO","ARFJTVZE5IKLC","3VJ4PFXFJ3TL96TFXMATEMT7KJHUAI","","837","img/food1.png","75","840","2","1","1","1,0.7,0,1,0.7,0,0.7,0,1","false",""
"","html-keyboard-response","286","683525","0.0-332.0","34BBWHLWHBXFTCZCVCM92RYBPOQIWO","ARFJTVZE5IKLC","3VJ4PFXFJ3TL96TFXMATEMT7KJHUAI","","null","<img src=""img/food1.png"" style=""width:200px; border:14px solid green;"">","null","","","","","","",""
"","image-keyboard-response","287","684401","0.0-334.0","34BBWHLWHBXFTCZCVCM92RYBPOQIWO","ARFJTVZE5IKLC","3VJ4PFXFJ3TL96TFXMATEMT7KJHUAI","","874","img/food5.png","76","876","3","1","3","1,0.7,0,1,0.7,0,0.7,0,1","false",""
"","html-keyboard-response","288","684725","0.0-335.0","34BBWHLWHBXFTCZCVCM92RYBPOQIWO","ARFJTVZE5IKLC","3VJ4PFXFJ3TL96TFXMATEMT7KJHUAI","","null","<img src=""img/food5.png"" style=""width:200px; border:14px solid green;"">","null","","","","","","",""
"","image-keyboard-response","289","685439","0.0-337.0","34BBWHLWHBXFTCZCVCM92RYBPOQIWO","ARFJTVZE5IKLC","3VJ4PFXFJ3TL96TFXMATEMT7KJHUAI","","711","img/food1.png","75","713","2","0","1","1,0.7,0,1,0.7,0,0.7,0,1","false",""
"","html-keyboard-response","290","685750","0.0-338.0","34BBWHLWHBXFTCZCVCM92RYBPOQIWO","ARFJTVZE5IKLC","3VJ4PFXFJ3TL96TFXMATEMT7KJHUAI","","null","<img src=""img/food1.png"" style=""width:200px;border:14px solid red;"">","null","","","","","","",""
"","image-keyboard-response","291","686503","0.0-340.0","34BBWHLWHBXFTCZCVCM92RYBPOQIWO","ARFJTVZE5IKLC","3VJ4PFXFJ3TL96TFXMATEMT7KJHUAI","","746","img/food6.png","75","749","2","1","2","1,0.7,0,1,0.7,0,0.7,0,1","false",""
"","html-keyboard-response","292","686805","0.0-341.0","34BBWHLWHBXFTCZCVCM92RYBPOQIWO","ARFJTVZE5IKLC","3VJ4PFXFJ3TL96TFXMATEMT7KJHUAI","","null","<img src=""img/food6.png"" style=""width:200px; border:14px solid green;"">","null","","","","","","",""
"","image-keyboard-response","293","687898","0.0-343.0","34BBWHLWHBXFTCZCVCM92RYBPOQIWO","ARFJTVZE5IKLC","3VJ4PFXFJ3TL96TFXMATEMT7KJHUAI","","","img/food5.png","","1091","-1","0","3","1,0.7,0,1,0.7,0,0.7,0,1","true",""
"","html-keyboard-response","294","688211","0.0-344.0","34BBWHLWHBXFTCZCVCM92RYBPOQIWO","ARFJTVZE5IKLC","3VJ4PFXFJ3TL96TFXMATEMT7KJHUAI","","null","<img src=""img/food5.png"" style=""width:200px;border:14px solid red;"">","null","","","","","","",""
"","html-keyboard-response","295","699228","0.0-345.0-0.0","34BBWHLWHBXFTCZCVCM92RYBPOQIWO","ARFJTVZE5IKLC","3VJ4PFXFJ3TL96TFXMATEMT7KJHUAI","","","","","","","","","","",""
"","image-keyboard-response","296","699976","0.0-346.0","34BBWHLWHBXFTCZCVCM92RYBPOQIWO","ARFJTVZE5IKLC","3VJ4PFXFJ3TL96TFXMATEMT7KJHUAI","","745","img/food6.png","74","746","1","1","2","1,0.7,0,1,0.7,0,0.7,0,1","false",""
"","html-keyboard-response","297","700285","0.0-347.0","34BBWHLWHBXFTCZCVCM92RYBPOQIWO","ARFJTVZE5IKLC","3VJ4PFXFJ3TL96TFXMATEMT7KJHUAI","","null","<img src=""img/food6.png"" style=""width:200px; border:14px solid green;"">","null","","","","","","",""
"","image-keyboard-response","298","701296","0.0-349.0","34BBWHLWHBXFTCZCVCM92RYBPOQIWO","ARFJTVZE5IKLC","3VJ4PFXFJ3TL96TFXMATEMT7KJHUAI","","","img/food5.png","","1011","-1","0","3","1,0.7,0,1,0.7,0,0.7,0,1","true",""
"","html-keyboard-response","299","701605","0.0-350.0","34BBWHLWHBXFTCZCVCM92RYBPOQIWO","ARFJTVZE5IKLC","3VJ4PFXFJ3TL96TFXMATEMT7KJHUAI","","null","<img src=""img/food5.png"" style=""width:200px;border:14px solid red;"">","null","","","","","","",""
"","html-keyboard-response","300","704928","0.0-351.0-0.0","34BBWHLWHBXFTCZCVCM92RYBPOQIWO","ARFJTVZE5IKLC","3VJ4PFXFJ3TL96TFXMATEMT7KJHUAI","","","","","","","","","","",""
"","image-keyboard-response","301","705804","0.0-352.0","34BBWHLWHBXFTCZCVCM92RYBPOQIWO","ARFJTVZE5IKLC","3VJ4PFXFJ3TL96TFXMATEMT7KJHUAI","","872","img/food1.png","76","875","3","0","1","1,0.7,0,1,0.7,0,0.7,0,1","false",""
"","html-keyboard-response","302","706115","0.0-353.0","34BBWHLWHBXFTCZCVCM92RYBPOQIWO","ARFJTVZE5IKLC","3VJ4PFXFJ3TL96TFXMATEMT7KJHUAI","","null","<img src=""img/food1.png"" style=""width:200px;border:14px solid red;"">","null","","","","","","",""
"","image-keyboard-response","303","706540","0.0-355.0","34BBWHLWHBXFTCZCVCM92RYBPOQIWO","ARFJTVZE5IKLC","3VJ4PFXFJ3TL96TFXMATEMT7KJHUAI","","408","img/food5.png","75","421","2","0","3","1,0.7,0,1,0.7,0,0.7,0,1","false",""
"","html-keyboard-response","304","706854","0.0-356.0","34BBWHLWHBXFTCZCVCM92RYBPOQIWO","ARFJTVZE5IKLC","3VJ4PFXFJ3TL96TFXMATEMT7KJHUAI","","null","<img src=""img/food5.png"" style=""width:200px;border:14px solid red;"">","null","","","","","","",""
"","image-keyboard-response","305","707432","0.0-358.0","34BBWHLWHBXFTCZCVCM92RYBPOQIWO","ARFJTVZE5IKLC","3VJ4PFXFJ3TL96TFXMATEMT7KJHUAI","","575","img/food1.png","74","576","1","1","1","1,0.7,0,1,0.7,0,0.7,0,1","false",""
"","html-keyboard-response","306","707738","0.0-359.0","34BBWHLWHBXFTCZCVCM92RYBPOQIWO","ARFJTVZE5IKLC","3VJ4PFXFJ3TL96TFXMATEMT7KJHUAI","","null","<img src=""img/food1.png"" style=""width:200px; border:14px solid green;"">","null","","","","","","",""
"","image-keyboard-response","307","708437","0.0-361.0","34BBWHLWHBXFTCZCVCM92RYBPOQIWO","ARFJTVZE5IKLC","3VJ4PFXFJ3TL96TFXMATEMT7KJHUAI","","695","img/food1.png","74","696","1","1","1","1,0.7,0,1,0.7,0,0.7,0,1","false",""
"","html-keyboard-response","308","708819","0.0-362.0","34BBWHLWHBXFTCZCVCM92RYBPOQIWO","ARFJTVZE5IKLC","3VJ4PFXFJ3TL96TFXMATEMT7KJHUAI","","null","<img src=""img/food1.png"" style=""width:200px; border:14px solid green;"">","null","","","","","","",""
"","image-keyboard-response","309","709610","0.0-364.0","34BBWHLWHBXFTCZCVCM92RYBPOQIWO","ARFJTVZE5IKLC","3VJ4PFXFJ3TL96TFXMATEMT7KJHUAI","","788","img/food5.png","76","789","3","1","3","1,0.7,0,1,0.7,0,0.7,0,1","false",""
"","html-keyboard-response","310","709932","0.0-365.0","34BBWHLWHBXFTCZCVCM92RYBPOQIWO","ARFJTVZE5IKLC","3VJ4PFXFJ3TL96TFXMATEMT7KJHUAI","","null","<img src=""img/food5.png"" style=""width:200px; border:14px solid green;"">","null","","","","","","",""
"","image-keyboard-response","311","710851","0.0-367.0","34BBWHLWHBXFTCZCVCM92RYBPOQIWO","ARFJTVZE5IKLC","3VJ4PFXFJ3TL96TFXMATEMT7KJHUAI","","914","img/food5.png","76","915","3","1","3","1,0.7,0,1,0.7,0,0.7,0,1","false",""
"","html-keyboard-response","312","711158","0.0-368.0","34BBWHLWHBXFTCZCVCM92RYBPOQIWO","ARFJTVZE5IKLC","3VJ4PFXFJ3TL96TFXMATEMT7KJHUAI","","null","<img src=""img/food5.png"" style=""width:200px; border:14px solid green;"">","null","","","","","","",""
"","image-keyboard-response","313","711938","0.0-370.0","34BBWHLWHBXFTCZCVCM92RYBPOQIWO","ARFJTVZE5IKLC","3VJ4PFXFJ3TL96TFXMATEMT7KJHUAI","","775","img/food5.png","76","776","3","1","3","1,0.7,0,1,0.7,0,0.7,0,1","false",""
"","html-keyboard-response","314","712305","0.0-371.0","34BBWHLWHBXFTCZCVCM92RYBPOQIWO","ARFJTVZE5IKLC","3VJ4PFXFJ3TL96TFXMATEMT7KJHUAI","","null","<img src=""img/food5.png"" style=""width:200px; border:14px solid green;"">","null","","","","","","",""
"","image-keyboard-response","315","712926","0.0-373.0","34BBWHLWHBXFTCZCVCM92RYBPOQIWO","ARFJTVZE5IKLC","3VJ4PFXFJ3TL96TFXMATEMT7KJHUAI","","620","img/food5.png","76","621","3","1","3","1,0.7,0,1,0.7,0,0.7,0,1","false",""
"","html-keyboard-response","316","713232","0.0-374.0","34BBWHLWHBXFTCZCVCM92RYBPOQIWO","ARFJTVZE5IKLC","3VJ4PFXFJ3TL96TFXMATEMT7KJHUAI","","null","<img src=""img/food5.png"" style=""width:200px; border:14px solid green;"">","null","","","","","","",""
"","image-keyboard-response","317","714161","0.0-376.0","34BBWHLWHBXFTCZCVCM92RYBPOQIWO","ARFJTVZE5IKLC","3VJ4PFXFJ3TL96TFXMATEMT7KJHUAI","","927","img/food6.png","75","928","2","1","2","1,0.7,0,1,0.7,0,0.7,0,1","false",""
"","html-keyboard-response","318","714475","0.0-377.0","34BBWHLWHBXFTCZCVCM92RYBPOQIWO","ARFJTVZE5IKLC","3VJ4PFXFJ3TL96TFXMATEMT7KJHUAI","","null","<img src=""img/food6.png"" style=""width:200px; border:14px solid green;"">","null","","","","","","",""
"","image-keyboard-response","319","715501","0.0-379.0","34BBWHLWHBXFTCZCVCM92RYBPOQIWO","ARFJTVZE5IKLC","3VJ4PFXFJ3TL96TFXMATEMT7KJHUAI","","","img/food1.png","","1025","-1","0","1","1,0.7,0,1,0.7,0,0.7,0,1","true",""
"","html-keyboard-response","320","715804","0.0-380.0","34BBWHLWHBXFTCZCVCM92RYBPOQIWO","ARFJTVZE5IKLC","3VJ4PFXFJ3TL96TFXMATEMT7KJHUAI","","null","<img src=""img/food1.png"" style=""width:200px;border:14px solid red;"">","null","","","","","","",""
"","html-keyboard-response","321","719239","0.0-381.0-0.0","34BBWHLWHBXFTCZCVCM92RYBPOQIWO","ARFJTVZE5IKLC","3VJ4PFXFJ3TL96TFXMATEMT7KJHUAI","","","","","","","","","","",""
"","image-keyboard-response","322","720061","0.0-382.0","34BBWHLWHBXFTCZCVCM92RYBPOQIWO","ARFJTVZE5IKLC","3VJ4PFXFJ3TL96TFXMATEMT7KJHUAI","","819","img/food1.png","75","821","2","0","1","1,0.7,0,1,0.7,0,0.7,0,1","false",""
"","html-keyboard-response","323","720371","0.0-383.0","34BBWHLWHBXFTCZCVCM92RYBPOQIWO","ARFJTVZE5IKLC","3VJ4PFXFJ3TL96TFXMATEMT7KJHUAI","","null","<img src=""img/food1.png"" style=""width:200px;border:14px solid red;"">","null","","","","","","",""
"","image-keyboard-response","324","720780","0.0-385.0","34BBWHLWHBXFTCZCVCM92RYBPOQIWO","ARFJTVZE5IKLC","3VJ4PFXFJ3TL96TFXMATEMT7KJHUAI","","406","img/food6.png","74","407","1","1","2","1,0.7,0,1,0.7,0,0.7,0,1","false",""
"","html-keyboard-response","325","721102","0.0-386.0","34BBWHLWHBXFTCZCVCM92RYBPOQIWO","ARFJTVZE5IKLC","3VJ4PFXFJ3TL96TFXMATEMT7KJHUAI","","null","<img src=""img/food6.png"" style=""width:200px; border:14px solid green;"">","null","","","","","","",""
"","image-keyboard-response","326","721872","0.0-388.0","34BBWHLWHBXFTCZCVCM92RYBPOQIWO","ARFJTVZE5IKLC","3VJ4PFXFJ3TL96TFXMATEMT7KJHUAI","","761","img/food1.png","74","762","1","1","1","1,0.7,0,1,0.7,0,0.7,0,1","false",""
"","html-keyboard-response","327","722181","0.0-389.0","34BBWHLWHBXFTCZCVCM92RYBPOQIWO","ARFJTVZE5IKLC","3VJ4PFXFJ3TL96TFXMATEMT7KJHUAI","","null","<img src=""img/food1.png"" style=""width:200px; border:14px solid green;"">","null","","","","","","",""
"","image-keyboard-response","328","723068","0.0-391.0","34BBWHLWHBXFTCZCVCM92RYBPOQIWO","ARFJTVZE5IKLC","3VJ4PFXFJ3TL96TFXMATEMT7KJHUAI","","882","img/food5.png","76","884","3","1","3","1,0.7,0,1,0.7,0,0.7,0,1","false",""
"","html-keyboard-response","329","723390","0.0-392.0","34BBWHLWHBXFTCZCVCM92RYBPOQIWO","ARFJTVZE5IKLC","3VJ4PFXFJ3TL96TFXMATEMT7KJHUAI","","null","<img src=""img/food5.png"" style=""width:200px; border:14px solid green;"">","null","","","","","","",""
"","image-keyboard-response","330","724395","0.0-394.0","34BBWHLWHBXFTCZCVCM92RYBPOQIWO","ARFJTVZE5IKLC","3VJ4PFXFJ3TL96TFXMATEMT7KJHUAI","","1001","img/food6.png","74","1004","1","1","2","1,0.7,0,1,0.7,0,0.7,0,1","false",""
"","html-keyboard-response","331","724742","0.0-395.0","34BBWHLWHBXFTCZCVCM92RYBPOQIWO","ARFJTVZE5IKLC","3VJ4PFXFJ3TL96TFXMATEMT7KJHUAI","","null","<img src=""img/food6.png"" style=""width:200px; border:14px solid green;"">","null","","","","","","",""
"","image-keyboard-response","332","725379","0.0-397.0","34BBWHLWHBXFTCZCVCM92RYBPOQIWO","ARFJTVZE5IKLC","3VJ4PFXFJ3TL96TFXMATEMT7KJHUAI","","632","img/food6.png","74","635","1","1","2","1,0.7,0,1,0.7,0,0.7,0,1","false",""
"","html-keyboard-response","333","725691","0.0-398.0","34BBWHLWHBXFTCZCVCM92RYBPOQIWO","ARFJTVZE5IKLC","3VJ4PFXFJ3TL96TFXMATEMT7KJHUAI","","null","<img src=""img/food6.png"" style=""width:200px; border:14px solid green;"">","null","","","","","","",""
"","image-keyboard-response","334","726728","0.0-400.0","34BBWHLWHBXFTCZCVCM92RYBPOQIWO","ARFJTVZE5IKLC","3VJ4PFXFJ3TL96TFXMATEMT7KJHUAI","","1026","img/food5.png","76","1031","3","1","3","1,0.7,0,1,0.7,0,0.7,0,1","false",""
"","html-keyboard-response","335","727055","0.0-401.0","34BBWHLWHBXFTCZCVCM92RYBPOQIWO","ARFJTVZE5IKLC","3VJ4PFXFJ3TL96TFXMATEMT7KJHUAI","","null","<img src=""img/food5.png"" style=""width:200px; border:14px solid green;"">","null","","","","","","",""
"","image-keyboard-response","336","727740","0.0-403.0","34BBWHLWHBXFTCZCVCM92RYBPOQIWO","ARFJTVZE5IKLC","3VJ4PFXFJ3TL96TFXMATEMT7KJHUAI","","681","img/food5.png","76","682","3","1","3","1,0.7,0,1,0.7,0,0.7,0,1","false",""
"","html-keyboard-response","337","728059","0.0-404.0","34BBWHLWHBXFTCZCVCM92RYBPOQIWO","ARFJTVZE5IKLC","3VJ4PFXFJ3TL96TFXMATEMT7KJHUAI","","null","<img src=""img/food5.png"" style=""width:200px; border:14px solid green;"">","null","","","","","","",""
"","image-keyboard-response","338","728900","0.0-406.0","34BBWHLWHBXFTCZCVCM92RYBPOQIWO","ARFJTVZE5IKLC","3VJ4PFXFJ3TL96TFXMATEMT7KJHUAI","","834","img/food1.png","74","836","1","1","1","1,0.7,0,1,0.7,0,0.7,0,1","false",""
"","html-keyboard-response","339","729203","0.0-407.0","34BBWHLWHBXFTCZCVCM92RYBPOQIWO","ARFJTVZE5IKLC","3VJ4PFXFJ3TL96TFXMATEMT7KJHUAI","","null","<img src=""img/food1.png"" style=""width:200px; border:14px solid green;"">","null","","","","","","",""
"","image-keyboard-response","340","729881","0.0-409.0","34BBWHLWHBXFTCZCVCM92RYBPOQIWO","ARFJTVZE5IKLC","3VJ4PFXFJ3TL96TFXMATEMT7KJHUAI","","674","img/food1.png","74","676","1","1","1","1,0.7,0,1,0.7,0,0.7,0,1","false",""
"","html-keyboard-response","341","730196","0.0-410.0","34BBWHLWHBXFTCZCVCM92RYBPOQIWO","ARFJTVZE5IKLC","3VJ4PFXFJ3TL96TFXMATEMT7KJHUAI","","null","<img src=""img/food1.png"" style=""width:200px; border:14px solid green;"">","null","","","","","","",""
"","image-keyboard-response","342","730914","0.0-412.0","34BBWHLWHBXFTCZCVCM92RYBPOQIWO","ARFJTVZE5IKLC","3VJ4PFXFJ3TL96TFXMATEMT7KJHUAI","","714","img/food1.png","74","717","1","1","1","1,0.7,0,1,0.7,0,0.7,0,1","false",""
"","html-keyboard-response","343","731218","0.0-413.0","34BBWHLWHBXFTCZCVCM92RYBPOQIWO","ARFJTVZE5IKLC","3VJ4PFXFJ3TL96TFXMATEMT7KJHUAI","","null","<img src=""img/food1.png"" style=""width:200px; border:14px solid green;"">","null","","","","","","",""
"","image-keyboard-response","344","731911","0.0-415.0","34BBWHLWHBXFTCZCVCM92RYBPOQIWO","ARFJTVZE5IKLC","3VJ4PFXFJ3TL96TFXMATEMT7KJHUAI","","688","img/food5.png","76","690","3","1","3","1,0.7,0,1,0.7,0,0.7,0,1","false",""
"","html-keyboard-response","345","732222","0.0-416.0","34BBWHLWHBXFTCZCVCM92RYBPOQIWO","ARFJTVZE5IKLC","3VJ4PFXFJ3TL96TFXMATEMT7KJHUAI","","null","<img src=""img/food5.png"" style=""width:200px; border:14px solid green;"">","null","","","","","","",""
"","image-keyboard-response","346","732858","0.0-418.0","34BBWHLWHBXFTCZCVCM92RYBPOQIWO","ARFJTVZE5IKLC","3VJ4PFXFJ3TL96TFXMATEMT7KJHUAI","","633","img/food5.png","76","635","3","1","3","1,0.7,0,1,0.7,0,0.7,0,1","false",""
"","html-keyboard-response","347","733163","0.0-419.0","34BBWHLWHBXFTCZCVCM92RYBPOQIWO","ARFJTVZE5IKLC","3VJ4PFXFJ3TL96TFXMATEMT7KJHUAI","","null","<img src=""img/food5.png"" style=""width:200px; border:14px solid green;"">","null","","","","","","",""
"","image-keyboard-response","348","734008","0.0-421.0","34BBWHLWHBXFTCZCVCM92RYBPOQIWO","ARFJTVZE5IKLC","3VJ4PFXFJ3TL96TFXMATEMT7KJHUAI","","841","img/food6.png","74","843","1","1","2","1,0.7,0,1,0.7,0,0.7,0,1","false",""
"","html-keyboard-response","349","734327","0.0-422.0","34BBWHLWHBXFTCZCVCM92RYBPOQIWO","ARFJTVZE5IKLC","3VJ4PFXFJ3TL96TFXMATEMT7KJHUAI","","null","<img src=""img/food6.png"" style=""width:200px; border:14px solid green;"">","null","","","","","","",""
"","image-keyboard-response","350","735038","0.0-424.0","34BBWHLWHBXFTCZCVCM92RYBPOQIWO","ARFJTVZE5IKLC","3VJ4PFXFJ3TL96TFXMATEMT7KJHUAI","","709","img/food5.png","74","711","1","1","3","1,0.7,0,1,0.7,0,0.7,0,1","false",""
"","html-keyboard-response","351","735403","0.0-425.0","34BBWHLWHBXFTCZCVCM92RYBPOQIWO","ARFJTVZE5IKLC","3VJ4PFXFJ3TL96TFXMATEMT7KJHUAI","","null","<img src=""img/food5.png"" style=""width:200px; border:14px solid green;"">","null","","","","","","",""
"","image-keyboard-response","352","736375","0.0-427.0","34BBWHLWHBXFTCZCVCM92RYBPOQIWO","ARFJTVZE5IKLC","3VJ4PFXFJ3TL96TFXMATEMT7KJHUAI","","966","img/food5.png","76","966","3","1","3","1,0.7,0,1,0.7,0,0.7,0,1","false",""
"","html-keyboard-response","353","736720","0.0-428.0","34BBWHLWHBXFTCZCVCM92RYBPOQIWO","ARFJTVZE5IKLC","3VJ4PFXFJ3TL96TFXMATEMT7KJHUAI","","null","<img src=""img/food5.png"" style=""width:200px; border:14px solid green;"">","null","","","","","","",""
"","image-keyboard-response","354","737402","0.0-430.0","34BBWHLWHBXFTCZCVCM92RYBPOQIWO","ARFJTVZE5IKLC","3VJ4PFXFJ3TL96TFXMATEMT7KJHUAI","","664","img/food5.png","76","675","3","1","3","1,0.7,0,1,0.7,0,0.7,0,1","false",""
"","html-keyboard-response","355","737801","0.0-431.0","34BBWHLWHBXFTCZCVCM92RYBPOQIWO","ARFJTVZE5IKLC","3VJ4PFXFJ3TL96TFXMATEMT7KJHUAI","","null","<img src=""img/food5.png"" style=""width:200px; border:14px solid green;"">","null","","","","","","",""
"","image-keyboard-response","356","738582","0.0-433.0","34BBWHLWHBXFTCZCVCM92RYBPOQIWO","ARFJTVZE5IKLC","3VJ4PFXFJ3TL96TFXMATEMT7KJHUAI","","778","img/food5.png","76","780","3","1","3","1,0.7,0,1,0.7,0,0.7,0,1","false",""
"","html-keyboard-response","357","738906","0.0-434.0","34BBWHLWHBXFTCZCVCM92RYBPOQIWO","ARFJTVZE5IKLC","3VJ4PFXFJ3TL96TFXMATEMT7KJHUAI","","null","<img src=""img/food5.png"" style=""width:200px; border:14px solid green;"">","null","","","","","","",""
"","image-keyboard-response","358","739639","0.0-436.0","34BBWHLWHBXFTCZCVCM92RYBPOQIWO","ARFJTVZE5IKLC","3VJ4PFXFJ3TL96TFXMATEMT7KJHUAI","","729","img/food1.png","74","731","1","1","1","1,0.7,0,1,0.7,0,0.7,0,1","false",""
"","html-keyboard-response","359","739958","0.0-437.0","34BBWHLWHBXFTCZCVCM92RYBPOQIWO","ARFJTVZE5IKLC","3VJ4PFXFJ3TL96TFXMATEMT7KJHUAI","","null","<img src=""img/food1.png"" style=""width:200px; border:14px solid green;"">","null","","","","","","",""
"","image-keyboard-response","360","740598","0.0-439.0","34BBWHLWHBXFTCZCVCM92RYBPOQIWO","ARFJTVZE5IKLC","3VJ4PFXFJ3TL96TFXMATEMT7KJHUAI","","636","img/food1.png","74","638","1","1","1","1,0.7,0,1,0.7,0,0.7,0,1","false",""
"","html-keyboard-response","361","740905","0.0-440.0","34BBWHLWHBXFTCZCVCM92RYBPOQIWO","ARFJTVZE5IKLC","3VJ4PFXFJ3TL96TFXMATEMT7KJHUAI","","null","<img src=""img/food1.png"" style=""width:200px; border:14px solid green;"">","null","","","","","","",""
"","image-keyboard-response","362","741716","0.0-442.0","34BBWHLWHBXFTCZCVCM92RYBPOQIWO","ARFJTVZE5IKLC","3VJ4PFXFJ3TL96TFXMATEMT7KJHUAI","","804","img/food5.png","76","807","3","1","3","1,0.7,0,1,0.7,0,0.7,0,1","false",""
"","html-keyboard-response","363","742202","0.0-443.0","34BBWHLWHBXFTCZCVCM92RYBPOQIWO","ARFJTVZE5IKLC","3VJ4PFXFJ3TL96TFXMATEMT7KJHUAI","","null","<img src=""img/food5.png"" style=""width:200px; border:14px solid green;"">","null","","","","","","",""
"","image-keyboard-response","364","742684","0.0-445.0","34BBWHLWHBXFTCZCVCM92RYBPOQIWO","ARFJTVZE5IKLC","3VJ4PFXFJ3TL96TFXMATEMT7KJHUAI","","480","img/food6.png","76","482","3","0","2","1,0.7,0,1,0.7,0,0.7,0,1","false",""
"","html-keyboard-response","365","743107","0.0-446.0","34BBWHLWHBXFTCZCVCM92RYBPOQIWO","ARFJTVZE5IKLC","3VJ4PFXFJ3TL96TFXMATEMT7KJHUAI","","null","<img src=""img/food6.png"" style=""width:200px;border:14px solid red;"">","null","","","","","","",""
"","image-keyboard-response","366","743908","0.0-448.0","34BBWHLWHBXFTCZCVCM92RYBPOQIWO","ARFJTVZE5IKLC","3VJ4PFXFJ3TL96TFXMATEMT7KJHUAI","","790","img/food1.png","74","793","1","1","1","1,0.7,0,1,0.7,0,0.7,0,1","false",""
"","html-keyboard-response","367","744221","0.0-449.0","34BBWHLWHBXFTCZCVCM92RYBPOQIWO","ARFJTVZE5IKLC","3VJ4PFXFJ3TL96TFXMATEMT7KJHUAI","","null","<img src=""img/food1.png"" style=""width:200px; border:14px solid green;"">","null","","","","","","",""
"","image-keyboard-response","368","745085","0.0-451.0","34BBWHLWHBXFTCZCVCM92RYBPOQIWO","ARFJTVZE5IKLC","3VJ4PFXFJ3TL96TFXMATEMT7KJHUAI","","861","img/food6.png","74","862","1","1","2","1,0.7,0,1,0.7,0,0.7,0,1","false",""
"","html-keyboard-response","369","745402","0.0-452.0","34BBWHLWHBXFTCZCVCM92RYBPOQIWO","ARFJTVZE5IKLC","3VJ4PFXFJ3TL96TFXMATEMT7KJHUAI","","null","<img src=""img/food6.png"" style=""width:200px; border:14px solid green;"">","null","","","","","","",""
"","instructions","370","752703","0.0-454.0","34BBWHLWHBXFTCZCVCM92RYBPOQIWO","ARFJTVZE5IKLC","3VJ4PFXFJ3TL96TFXMATEMT7KJHUAI","[{""page_index"":0,""viewing_time"":7289}]","7295","","","","","","","","",""
"","survey-text","371","759057","0.0-455.0","34BBWHLWHBXFTCZCVCM92RYBPOQIWO","ARFJTVZE5IKLC","3VJ4PFXFJ3TL96TFXMATEMT7KJHUAI","","6332","","","","","","","","","{""Q0"":""ARFJTVZE5IKLC""}"
