"success","trial_type","trial_index","time_elapsed","internal_node_id","assignmentID","mturkID","hitID","view_history","rt","stimulus","key_press","reactionTime","a","r","s","cond","reward_cond","reward_cond_actual","reward_matrix_idx","warning","responses"
"true","fullscreen","0","5420","0.0-0.0","39KFRKBFIOHTE35F88H27LFDDBEYO0","AS2MFSWNC5CQI","30UZJB2POHY4464FN6NBJ2NLFWF354","","","","","","","","","","","","","",""
"","instructions","1","17659","0.0-1.0","39KFRKBFIOHTE35F88H27LFDDBEYO0","AS2MFSWNC5CQI","30UZJB2POHY4464FN6NBJ2NLFWF354","[{""page_index"":0,""viewing_time"":1354.5999999046326},{""page_index"":1,""viewing_time"":1355.3000001907349},{""page_index"":2,""viewing_time"":1188},{""page_index"":3,""viewing_time"":4828.099999904633},{""page_index"":4,""viewing_time"":1655.9000000953674},{""page_index"":5,""viewing_time"":1139.8999998569489},{""page_index"":6,""viewing_time"":714.2000000476837}]","12236.200000047684","","","","","","","","","","","",""
"","image-keyboard-response","2","19145","0.0-2.0","39KFRKBFIOHTE35F88H27LFDDBEYO0","AS2MFSWNC5CQI","30UZJB2POHY4464FN6NBJ2NLFWF354","","1484.2000000476837","img/food6.png","75","1485.1000001430511","2","1","1","1","1,0.5,0,1,0.5,0,0.5,0,1","1,0.5,0,1,0.5,0,0.5,0,1","1","",""
"","html-keyboard-response","3","19458","0.0-3.0","39KFRKBFIOHTE35F88H27LFDDBEYO0","AS2MFSWNC5CQI","30UZJB2POHY4464FN6NBJ2NLFWF354","","null","<img src=""img/food6.png"" style=""width:200px; border:14px solid green;"">","null","","","","","","","","","",""
"","image-keyboard-response","4","20610","0.0-4.0","39KFRKBFIOHTE35F88H27LFDDBEYO0","AS2MFSWNC5CQI","30UZJB2POHY4464FN6NBJ2NLFWF354","","1150.4000000953674","img/food6.png","75","1151.2999999523163","2","0","1","1","1,0.5,0,1,0.5,0,0.5,0,1","1,0.5,0,1,0.5,0,0.5,0,1","1","",""
"","html-keyboard-response","5","20916","0.0-5.0","39KFRKBFIOHTE35F88H27LFDDBEYO0","AS2MFSWNC5CQI","30UZJB2POHY4464FN6NBJ2NLFWF354","","null","<img src=""img/food6.png"" style=""width:200px;border:14px solid red;"">","null","","","","","","","","","",""
"","image-keyboard-response","6","22209","0.0-6.0","39KFRKBFIOHTE35F88H27LFDDBEYO0","AS2MFSWNC5CQI","30UZJB2POHY4464FN6NBJ2NLFWF354","","1291","img/food6.png","76","1292.5","3","0","1","1","1,0.5,0,1,0.5,0,0.5,0,1","1,0.5,0,1,0.5,0,0.5,0,1","1","",""
"","html-keyboard-response","7","22514","0.0-7.0","39KFRKBFIOHTE35F88H27LFDDBEYO0","AS2MFSWNC5CQI","30UZJB2POHY4464FN6NBJ2NLFWF354","","null","<img src=""img/food6.png"" style=""width:200px;border:14px solid red;"">","null","","","","","","","","","",""
"","image-keyboard-response","8","23194","0.0-8.0","39KFRKBFIOHTE35F88H27LFDDBEYO0","AS2MFSWNC5CQI","30UZJB2POHY4464FN6NBJ2NLFWF354","","677.4000000953674","img/food6.png","75","679","2","0","1","1","1,0.5,0,1,0.5,0,0.5,0,1","1,0.5,0,1,0.5,0,0.5,0,1","1","",""
"","html-keyboard-response","9","23507","0.0-9.0","39KFRKBFIOHTE35F88H27LFDDBEYO0","AS2MFSWNC5CQI","30UZJB2POHY4464FN6NBJ2NLFWF354","","null","<img src=""img/food6.png"" style=""width:200px;border:14px solid red;"">","null","","","","","","","","","",""
"","image-keyboard-response","10","25472","0.0-10.0","39KFRKBFIOHTE35F88H27LFDDBEYO0","AS2MFSWNC5CQI","30UZJB2POHY4464FN6NBJ2NLFWF354","","1963.5","img/food2.png","76","1964.7999999523163","3","1","3","1","1,0.5,0,1,0.5,0,0.5,0,1","1,0.5,0,1,0.5,0,0.5,0,1","1","",""
"","html-keyboard-response","11","25787","0.0-11.0","39KFRKBFIOHTE35F88H27LFDDBEYO0","AS2MFSWNC5CQI","30UZJB2POHY4464FN6NBJ2NLFWF354","","null","<img src=""img/food2.png"" style=""width:200px; border:14px solid green;"">","null","","","","","","","","","",""
"","image-keyboard-response","12","26890","0.0-12.0","39KFRKBFIOHTE35F88H27LFDDBEYO0","AS2MFSWNC5CQI","30UZJB2POHY4464FN6NBJ2NLFWF354","","1101.5999999046326","img/food6.png","75","1103.0999999046326","2","0","1","1","1,0.5,0,1,0.5,0,0.5,0,1","1,0.5,0,1,0.5,0,0.5,0,1","1","",""
"","html-keyboard-response","13","27199","0.0-13.0","39KFRKBFIOHTE35F88H27LFDDBEYO0","AS2MFSWNC5CQI","30UZJB2POHY4464FN6NBJ2NLFWF354","","null","<img src=""img/food6.png"" style=""width:200px;border:14px solid red;"">","null","","","","","","","","","",""
"","image-keyboard-response","14","28170","0.0-14.0","39KFRKBFIOHTE35F88H27LFDDBEYO0","AS2MFSWNC5CQI","30UZJB2POHY4464FN6NBJ2NLFWF354","","968.7000000476837","img/food6.png","76","970.1000001430511","3","0","1","1","1,0.5,0,1,0.5,0,0.5,0,1","1,0.5,0,1,0.5,0,0.5,0,1","1","",""
"","html-keyboard-response","15","28478","0.0-15.0","39KFRKBFIOHTE35F88H27LFDDBEYO0","AS2MFSWNC5CQI","30UZJB2POHY4464FN6NBJ2NLFWF354","","null","<img src=""img/food6.png"" style=""width:200px;border:14px solid red;"">","null","","","","","","","","","",""
"","image-keyboard-response","16","30680","0.0-16.0","39KFRKBFIOHTE35F88H27LFDDBEYO0","AS2MFSWNC5CQI","30UZJB2POHY4464FN6NBJ2NLFWF354","","2200.2999999523163","img/food1.png","75","2201.5","2","1","2","1","1,0.5,0,1,0.5,0,0.5,0,1","1,0.5,0,1,0.5,0,0.5,0,1","1","",""
"","html-keyboard-response","17","30982","0.0-17.0","39KFRKBFIOHTE35F88H27LFDDBEYO0","AS2MFSWNC5CQI","30UZJB2POHY4464FN6NBJ2NLFWF354","","null","<img src=""img/food1.png"" style=""width:200px; border:14px solid green;"">","null","","","","","","","","","",""
"","image-keyboard-response","18","33546","0.0-18.0","39KFRKBFIOHTE35F88H27LFDDBEYO0","AS2MFSWNC5CQI","30UZJB2POHY4464FN6NBJ2NLFWF354","","2562.7999999523163","img/food6.png","76","2563.5999999046326","3","0","1","1","1,0.5,0,1,0.5,0,0.5,0,1","1,0.5,0,1,0.5,0,0.5,0,1","1","",""
"","html-keyboard-response","19","33849","0.0-19.0","39KFRKBFIOHTE35F88H27LFDDBEYO0","AS2MFSWNC5CQI","30UZJB2POHY4464FN6NBJ2NLFWF354","","null","<img src=""img/food6.png"" style=""width:200px;border:14px solid red;"">","null","","","","","","","","","",""
"","image-keyboard-response","20","34537","0.0-20.0","39KFRKBFIOHTE35F88H27LFDDBEYO0","AS2MFSWNC5CQI","30UZJB2POHY4464FN6NBJ2NLFWF354","","686.2000000476837","img/food2.png","75","687.7000000476837","2","0","3","1","1,0.5,0,1,0.5,0,0.5,0,1","1,0.5,0,1,0.5,0,0.5,0,1","1","",""
"","html-keyboard-response","21","34839","0.0-21.0","39KFRKBFIOHTE35F88H27LFDDBEYO0","AS2MFSWNC5CQI","30UZJB2POHY4464FN6NBJ2NLFWF354","","null","<img src=""img/food2.png"" style=""width:200px;border:14px solid red;"">","null","","","","","","","","","",""
"","image-keyboard-response","22","35504","0.0-22.0","39KFRKBFIOHTE35F88H27LFDDBEYO0","AS2MFSWNC5CQI","30UZJB2POHY4464FN6NBJ2NLFWF354","","663.5","img/food2.png","76","664.7000000476837","3","1","3","1","1,0.5,0,1,0.5,0,0.5,0,1","1,0.5,0,1,0.5,0,0.5,0,1","1","",""
"","html-keyboard-response","23","35818","0.0-23.0","39KFRKBFIOHTE35F88H27LFDDBEYO0","AS2MFSWNC5CQI","30UZJB2POHY4464FN6NBJ2NLFWF354","","null","<img src=""img/food2.png"" style=""width:200px; border:14px solid green;"">","null","","","","","","","","","",""
"","image-keyboard-response","24","36754","0.0-24.0","39KFRKBFIOHTE35F88H27LFDDBEYO0","AS2MFSWNC5CQI","30UZJB2POHY4464FN6NBJ2NLFWF354","","934.0999999046326","img/food2.png","76","935.7000000476837","3","1","3","1","1,0.5,0,1,0.5,0,0.5,0,1","1,0.5,0,1,0.5,0,0.5,0,1","1","",""
"","html-keyboard-response","25","37056","0.0-25.0","39KFRKBFIOHTE35F88H27LFDDBEYO0","AS2MFSWNC5CQI","30UZJB2POHY4464FN6NBJ2NLFWF354","","null","<img src=""img/food2.png"" style=""width:200px; border:14px solid green;"">","null","","","","","","","","","",""
"","image-keyboard-response","26","37817","0.0-26.0","39KFRKBFIOHTE35F88H27LFDDBEYO0","AS2MFSWNC5CQI","30UZJB2POHY4464FN6NBJ2NLFWF354","","759","img/food1.png","75","760.5999999046326","2","1","2","1","1,0.5,0,1,0.5,0,0.5,0,1","1,0.5,0,1,0.5,0,0.5,0,1","1","",""
"","html-keyboard-response","27","38119","0.0-27.0","39KFRKBFIOHTE35F88H27LFDDBEYO0","AS2MFSWNC5CQI","30UZJB2POHY4464FN6NBJ2NLFWF354","","null","<img src=""img/food1.png"" style=""width:200px; border:14px solid green;"">","null","","","","","","","","","",""
"","image-keyboard-response","28","39127","0.0-28.0","39KFRKBFIOHTE35F88H27LFDDBEYO0","AS2MFSWNC5CQI","30UZJB2POHY4464FN6NBJ2NLFWF354","","1007.5999999046326","img/food1.png","75","1008.2000000476837","2","1","2","1","1,0.5,0,1,0.5,0,0.5,0,1","1,0.5,0,1,0.5,0,0.5,0,1","1","",""
"","html-keyboard-response","29","39429","0.0-29.0","39KFRKBFIOHTE35F88H27LFDDBEYO0","AS2MFSWNC5CQI","30UZJB2POHY4464FN6NBJ2NLFWF354","","null","<img src=""img/food1.png"" style=""width:200px; border:14px solid green;"">","null","","","","","","","","","",""
"","image-keyboard-response","30","39994","0.0-30.0","39KFRKBFIOHTE35F88H27LFDDBEYO0","AS2MFSWNC5CQI","30UZJB2POHY4464FN6NBJ2NLFWF354","","563.2999999523163","img/food2.png","76","564.7999999523163","3","1","3","1","1,0.5,0,1,0.5,0,0.5,0,1","1,0.5,0,1,0.5,0,0.5,0,1","1","",""
"","html-keyboard-response","31","40297","0.0-31.0","39KFRKBFIOHTE35F88H27LFDDBEYO0","AS2MFSWNC5CQI","30UZJB2POHY4464FN6NBJ2NLFWF354","","null","<img src=""img/food2.png"" style=""width:200px; border:14px solid green;"">","null","","","","","","","","","",""
"","image-keyboard-response","32","41010","0.0-32.0","39KFRKBFIOHTE35F88H27LFDDBEYO0","AS2MFSWNC5CQI","30UZJB2POHY4464FN6NBJ2NLFWF354","","710.7999999523163","img/food6.png","75","712.1999998092651","2","0","1","1","1,0.5,0,1,0.5,0,0.5,0,1","1,0.5,0,1,0.5,0,0.5,0,1","1","",""
"","html-keyboard-response","33","41312","0.0-33.0","39KFRKBFIOHTE35F88H27LFDDBEYO0","AS2MFSWNC5CQI","30UZJB2POHY4464FN6NBJ2NLFWF354","","null","<img src=""img/food6.png"" style=""width:200px;border:14px solid red;"">","null","","","","","","","","","",""
"","image-keyboard-response","34","41945","0.0-34.0","39KFRKBFIOHTE35F88H27LFDDBEYO0","AS2MFSWNC5CQI","30UZJB2POHY4464FN6NBJ2NLFWF354","","631.2000000476837","img/food2.png","76","632.6000001430511","3","1","3","1","1,0.5,0,1,0.5,0,0.5,0,1","1,0.5,0,1,0.5,0,0.5,0,1","1","",""
"","html-keyboard-response","35","42248","0.0-35.0","39KFRKBFIOHTE35F88H27LFDDBEYO0","AS2MFSWNC5CQI","30UZJB2POHY4464FN6NBJ2NLFWF354","","null","<img src=""img/food2.png"" style=""width:200px; border:14px solid green;"">","null","","","","","","","","","",""
"","image-keyboard-response","36","42978","0.0-36.0","39KFRKBFIOHTE35F88H27LFDDBEYO0","AS2MFSWNC5CQI","30UZJB2POHY4464FN6NBJ2NLFWF354","","728.5999999046326","img/food1.png","75","729.7999999523163","2","1","2","1","1,0.5,0,1,0.5,0,0.5,0,1","1,0.5,0,1,0.5,0,0.5,0,1","1","",""
"","html-keyboard-response","37","43281","0.0-37.0","39KFRKBFIOHTE35F88H27LFDDBEYO0","AS2MFSWNC5CQI","30UZJB2POHY4464FN6NBJ2NLFWF354","","null","<img src=""img/food1.png"" style=""width:200px; border:14px solid green;"">","null","","","","","","","","","",""
"","image-keyboard-response","38","44096","0.0-38.0","39KFRKBFIOHTE35F88H27LFDDBEYO0","AS2MFSWNC5CQI","30UZJB2POHY4464FN6NBJ2NLFWF354","","813.3999998569489","img/food2.png","75","814.7000000476837","2","0","3","1","1,0.5,0,1,0.5,0,0.5,0,1","1,0.5,0,1,0.5,0,0.5,0,1","1","",""
"","html-keyboard-response","39","44398","0.0-39.0","39KFRKBFIOHTE35F88H27LFDDBEYO0","AS2MFSWNC5CQI","30UZJB2POHY4464FN6NBJ2NLFWF354","","null","<img src=""img/food2.png"" style=""width:200px;border:14px solid red;"">","null","","","","","","","","","",""
"","image-keyboard-response","40","44921","0.0-40.0","39KFRKBFIOHTE35F88H27LFDDBEYO0","AS2MFSWNC5CQI","30UZJB2POHY4464FN6NBJ2NLFWF354","","521.5","img/food2.png","76","523","3","1","3","1","1,0.5,0,1,0.5,0,0.5,0,1","1,0.5,0,1,0.5,0,0.5,0,1","1","",""
"","html-keyboard-response","41","45224","0.0-41.0","39KFRKBFIOHTE35F88H27LFDDBEYO0","AS2MFSWNC5CQI","30UZJB2POHY4464FN6NBJ2NLFWF354","","null","<img src=""img/food2.png"" style=""width:200px; border:14px solid green;"">","null","","","","","","","","","",""
"","image-keyboard-response","42","45987","0.0-42.0","39KFRKBFIOHTE35F88H27LFDDBEYO0","AS2MFSWNC5CQI","30UZJB2POHY4464FN6NBJ2NLFWF354","","761.2999999523163","img/food2.png","76","762.7999999523163","3","1","3","1","1,0.5,0,1,0.5,0,0.5,0,1","1,0.5,0,1,0.5,0,0.5,0,1","1","",""
"","html-keyboard-response","43","46289","0.0-43.0","39KFRKBFIOHTE35F88H27LFDDBEYO0","AS2MFSWNC5CQI","30UZJB2POHY4464FN6NBJ2NLFWF354","","null","<img src=""img/food2.png"" style=""width:200px; border:14px solid green;"">","null","","","","","","","","","",""
"","image-keyboard-response","44","46890","0.0-44.0","39KFRKBFIOHTE35F88H27LFDDBEYO0","AS2MFSWNC5CQI","30UZJB2POHY4464FN6NBJ2NLFWF354","","599.7000000476837","img/food6.png","75","600.5999999046326","2","1","1","1","1,0.5,0,1,0.5,0,0.5,0,1","1,0.5,0,1,0.5,0,0.5,0,1","1","",""
"","html-keyboard-response","45","47194","0.0-45.0","39KFRKBFIOHTE35F88H27LFDDBEYO0","AS2MFSWNC5CQI","30UZJB2POHY4464FN6NBJ2NLFWF354","","null","<img src=""img/food6.png"" style=""width:200px; border:14px solid green;"">","null","","","","","","","","","",""
"","image-keyboard-response","46","47954","0.0-46.0","39KFRKBFIOHTE35F88H27LFDDBEYO0","AS2MFSWNC5CQI","30UZJB2POHY4464FN6NBJ2NLFWF354","","758.6999998092651","img/food6.png","75","760.1999998092651","2","1","1","1","1,0.5,0,1,0.5,0,0.5,0,1","1,0.5,0,1,0.5,0,0.5,0,1","1","",""
"","html-keyboard-response","47","48257","0.0-47.0","39KFRKBFIOHTE35F88H27LFDDBEYO0","AS2MFSWNC5CQI","30UZJB2POHY4464FN6NBJ2NLFWF354","","null","<img src=""img/food6.png"" style=""width:200px; border:14px solid green;"">","null","","","","","","","","","",""
"","image-keyboard-response","48","48850","0.0-48.0","39KFRKBFIOHTE35F88H27LFDDBEYO0","AS2MFSWNC5CQI","30UZJB2POHY4464FN6NBJ2NLFWF354","","591.7999999523163","img/food1.png","76","592.5","3","0","2","1","1,0.5,0,1,0.5,0,0.5,0,1","1,0.5,0,1,0.5,0,0.5,0,1","1","",""
"","html-keyboard-response","49","49152","0.0-49.0","39KFRKBFIOHTE35F88H27LFDDBEYO0","AS2MFSWNC5CQI","30UZJB2POHY4464FN6NBJ2NLFWF354","","null","<img src=""img/food1.png"" style=""width:200px;border:14px solid red;"">","null","","","","","","","","","",""
"","image-keyboard-response","50","49793","0.0-50.0","39KFRKBFIOHTE35F88H27LFDDBEYO0","AS2MFSWNC5CQI","30UZJB2POHY4464FN6NBJ2NLFWF354","","639.3999998569489","img/food2.png","75","640.7999999523163","2","0","3","1","1,0.5,0,1,0.5,0,0.5,0,1","1,0.5,0,1,0.5,0,0.5,0,1","1","",""
"","html-keyboard-response","51","50096","0.0-51.0","39KFRKBFIOHTE35F88H27LFDDBEYO0","AS2MFSWNC5CQI","30UZJB2POHY4464FN6NBJ2NLFWF354","","null","<img src=""img/food2.png"" style=""width:200px;border:14px solid red;"">","null","","","","","","","","","",""
"","image-keyboard-response","52","51001","0.0-52.0","39KFRKBFIOHTE35F88H27LFDDBEYO0","AS2MFSWNC5CQI","30UZJB2POHY4464FN6NBJ2NLFWF354","","904.7999999523163","img/food6.png","75","905.5","2","0","1","1","1,0.5,0,1,0.5,0,0.5,0,1","1,0.5,0,1,0.5,0,0.5,0,1","1","",""
"","html-keyboard-response","53","51303","0.0-53.0","39KFRKBFIOHTE35F88H27LFDDBEYO0","AS2MFSWNC5CQI","30UZJB2POHY4464FN6NBJ2NLFWF354","","null","<img src=""img/food6.png"" style=""width:200px;border:14px solid red;"">","null","","","","","","","","","",""
"","image-keyboard-response","54","51767","0.0-54.0","39KFRKBFIOHTE35F88H27LFDDBEYO0","AS2MFSWNC5CQI","30UZJB2POHY4464FN6NBJ2NLFWF354","","462.89999985694885","img/food2.png","76","463.60000014305115","3","1","3","1","1,0.5,0,1,0.5,0,0.5,0,1","1,0.5,0,1,0.5,0,0.5,0,1","1","",""
"","html-keyboard-response","55","52069","0.0-55.0","39KFRKBFIOHTE35F88H27LFDDBEYO0","AS2MFSWNC5CQI","30UZJB2POHY4464FN6NBJ2NLFWF354","","null","<img src=""img/food2.png"" style=""width:200px; border:14px solid green;"">","null","","","","","","","","","",""
"","image-keyboard-response","56","52785","0.0-56.0","39KFRKBFIOHTE35F88H27LFDDBEYO0","AS2MFSWNC5CQI","30UZJB2POHY4464FN6NBJ2NLFWF354","","715.3000001907349","img/food2.png","76","716.1000001430511","3","1","3","1","1,0.5,0,1,0.5,0,0.5,0,1","1,0.5,0,1,0.5,0,0.5,0,1","1","",""
"","html-keyboard-response","57","53088","0.0-57.0","39KFRKBFIOHTE35F88H27LFDDBEYO0","AS2MFSWNC5CQI","30UZJB2POHY4464FN6NBJ2NLFWF354","","null","<img src=""img/food2.png"" style=""width:200px; border:14px solid green;"">","null","","","","","","","","","",""
"","image-keyboard-response","58","53904","0.0-58.0","39KFRKBFIOHTE35F88H27LFDDBEYO0","AS2MFSWNC5CQI","30UZJB2POHY4464FN6NBJ2NLFWF354","","815.3999998569489","img/food6.png","75","815.8999998569489","2","1","1","1","1,0.5,0,1,0.5,0,0.5,0,1","1,0.5,0,1,0.5,0,0.5,0,1","1","",""
"","html-keyboard-response","59","54206","0.0-59.0","39KFRKBFIOHTE35F88H27LFDDBEYO0","AS2MFSWNC5CQI","30UZJB2POHY4464FN6NBJ2NLFWF354","","null","<img src=""img/food6.png"" style=""width:200px; border:14px solid green;"">","null","","","","","","","","","",""
"","image-keyboard-response","60","54898","0.0-60.0","39KFRKBFIOHTE35F88H27LFDDBEYO0","AS2MFSWNC5CQI","30UZJB2POHY4464FN6NBJ2NLFWF354","","690.7000000476837","img/food6.png","75","692.2000000476837","2","1","1","1","1,0.5,0,1,0.5,0,0.5,0,1","1,0.5,0,1,0.5,0,0.5,0,1","1","",""
"","html-keyboard-response","61","55201","0.0-61.0","39KFRKBFIOHTE35F88H27LFDDBEYO0","AS2MFSWNC5CQI","30UZJB2POHY4464FN6NBJ2NLFWF354","","null","<img src=""img/food6.png"" style=""width:200px; border:14px solid green;"">","null","","","","","","","","","",""
"","image-keyboard-response","62","55736","0.0-62.0","39KFRKBFIOHTE35F88H27LFDDBEYO0","AS2MFSWNC5CQI","30UZJB2POHY4464FN6NBJ2NLFWF354","","533.5999999046326","img/food6.png","75","534.7000000476837","2","1","1","1","1,0.5,0,1,0.5,0,0.5,0,1","1,0.5,0,1,0.5,0,0.5,0,1","1","",""
"","html-keyboard-response","63","56037","0.0-63.0","39KFRKBFIOHTE35F88H27LFDDBEYO0","AS2MFSWNC5CQI","30UZJB2POHY4464FN6NBJ2NLFWF354","","null","<img src=""img/food6.png"" style=""width:200px; border:14px solid green;"">","null","","","","","","","","","",""
"","image-keyboard-response","64","56592","0.0-64.0","39KFRKBFIOHTE35F88H27LFDDBEYO0","AS2MFSWNC5CQI","30UZJB2POHY4464FN6NBJ2NLFWF354","","553.9000000953674","img/food1.png","76","554.7000000476837","3","0","2","1","1,0.5,0,1,0.5,0,0.5,0,1","1,0.5,0,1,0.5,0,0.5,0,1","1","",""
"","html-keyboard-response","65","56894","0.0-65.0","39KFRKBFIOHTE35F88H27LFDDBEYO0","AS2MFSWNC5CQI","30UZJB2POHY4464FN6NBJ2NLFWF354","","null","<img src=""img/food1.png"" style=""width:200px;border:14px solid red;"">","null","","","","","","","","","",""
"","image-keyboard-response","66","57514","0.0-66.0","39KFRKBFIOHTE35F88H27LFDDBEYO0","AS2MFSWNC5CQI","30UZJB2POHY4464FN6NBJ2NLFWF354","","618.5999999046326","img/food6.png","75","619.9000000953674","2","1","1","1","1,0.5,0,1,0.5,0,0.5,0,1","1,0.5,0,1,0.5,0,0.5,0,1","1","",""
"","html-keyboard-response","67","57817","0.0-67.0","39KFRKBFIOHTE35F88H27LFDDBEYO0","AS2MFSWNC5CQI","30UZJB2POHY4464FN6NBJ2NLFWF354","","null","<img src=""img/food6.png"" style=""width:200px; border:14px solid green;"">","null","","","","","","","","","",""
"","image-keyboard-response","68","58433","0.0-68.0","39KFRKBFIOHTE35F88H27LFDDBEYO0","AS2MFSWNC5CQI","30UZJB2POHY4464FN6NBJ2NLFWF354","","615.1000001430511","img/food2.png","76","616","3","1","3","1","1,0.5,0,1,0.5,0,0.5,0,1","1,0.5,0,1,0.5,0,0.5,0,1","1","",""
"","html-keyboard-response","69","58736","0.0-69.0","39KFRKBFIOHTE35F88H27LFDDBEYO0","AS2MFSWNC5CQI","30UZJB2POHY4464FN6NBJ2NLFWF354","","null","<img src=""img/food2.png"" style=""width:200px; border:14px solid green;"">","null","","","","","","","","","",""
"","image-keyboard-response","70","59395","0.0-70.0","39KFRKBFIOHTE35F88H27LFDDBEYO0","AS2MFSWNC5CQI","30UZJB2POHY4464FN6NBJ2NLFWF354","","656.2999999523163","img/food6.png","75","657.7000000476837","2","1","1","1","1,0.5,0,1,0.5,0,0.5,0,1","1,0.5,0,1,0.5,0,0.5,0,1","1","",""
"","html-keyboard-response","71","59697","0.0-71.0","39KFRKBFIOHTE35F88H27LFDDBEYO0","AS2MFSWNC5CQI","30UZJB2POHY4464FN6NBJ2NLFWF354","","null","<img src=""img/food6.png"" style=""width:200px; border:14px solid green;"">","null","","","","","","","","","",""
"","image-keyboard-response","72","60258","0.0-72.0","39KFRKBFIOHTE35F88H27LFDDBEYO0","AS2MFSWNC5CQI","30UZJB2POHY4464FN6NBJ2NLFWF354","","558.8999998569489","img/food1.png","75","560.3999998569489","2","0","2","1","1,0.5,0,1,0.5,0,0.5,0,1","1,0.5,0,1,0.5,0,0.5,0,1","1","",""
"","html-keyboard-response","73","60560","0.0-73.0","39KFRKBFIOHTE35F88H27LFDDBEYO0","AS2MFSWNC5CQI","30UZJB2POHY4464FN6NBJ2NLFWF354","","null","<img src=""img/food1.png"" style=""width:200px;border:14px solid red;"">","null","","","","","","","","","",""
"","image-keyboard-response","74","61202","0.0-74.0","39KFRKBFIOHTE35F88H27LFDDBEYO0","AS2MFSWNC5CQI","30UZJB2POHY4464FN6NBJ2NLFWF354","","639.5","img/food1.png","76","640.8999998569489","3","0","2","1","1,0.5,0,1,0.5,0,0.5,0,1","1,0.5,0,1,0.5,0,0.5,0,1","1","",""
"","html-keyboard-response","75","61504","0.0-75.0","39KFRKBFIOHTE35F88H27LFDDBEYO0","AS2MFSWNC5CQI","30UZJB2POHY4464FN6NBJ2NLFWF354","","null","<img src=""img/food1.png"" style=""width:200px;border:14px solid red;"">","null","","","","","","","","","",""
"","image-keyboard-response","76","64042","0.0-76.0","39KFRKBFIOHTE35F88H27LFDDBEYO0","AS2MFSWNC5CQI","30UZJB2POHY4464FN6NBJ2NLFWF354","","2535.600000143051","img/food1.png","75","2537.100000143051","2","0","2","1","1,0.5,0,1,0.5,0,0.5,0,1","1,0.5,0,1,0.5,0,0.5,0,1","1","",""
"","html-keyboard-response","77","64344","0.0-77.0","39KFRKBFIOHTE35F88H27LFDDBEYO0","AS2MFSWNC5CQI","30UZJB2POHY4464FN6NBJ2NLFWF354","","null","<img src=""img/food1.png"" style=""width:200px;border:14px solid red;"">","null","","","","","","","","","",""
"","image-keyboard-response","78","65072","0.0-78.0","39KFRKBFIOHTE35F88H27LFDDBEYO0","AS2MFSWNC5CQI","30UZJB2POHY4464FN6NBJ2NLFWF354","","726.3999998569489","img/food6.png","75","727.5999999046326","2","1","1","1","1,0.5,0,1,0.5,0,0.5,0,1","1,0.5,0,1,0.5,0,0.5,0,1","1","",""
"","html-keyboard-response","79","65374","0.0-79.0","39KFRKBFIOHTE35F88H27LFDDBEYO0","AS2MFSWNC5CQI","30UZJB2POHY4464FN6NBJ2NLFWF354","","null","<img src=""img/food6.png"" style=""width:200px; border:14px solid green;"">","null","","","","","","","","","",""
"","image-keyboard-response","80","65907","0.0-80.0","39KFRKBFIOHTE35F88H27LFDDBEYO0","AS2MFSWNC5CQI","30UZJB2POHY4464FN6NBJ2NLFWF354","","530.3999998569489","img/food2.png","76","531.7999999523163","3","1","3","1","1,0.5,0,1,0.5,0,0.5,0,1","1,0.5,0,1,0.5,0,0.5,0,1","1","",""
"","html-keyboard-response","81","66209","0.0-81.0","39KFRKBFIOHTE35F88H27LFDDBEYO0","AS2MFSWNC5CQI","30UZJB2POHY4464FN6NBJ2NLFWF354","","null","<img src=""img/food2.png"" style=""width:200px; border:14px solid green;"">","null","","","","","","","","","",""
"","image-keyboard-response","82","66993","0.0-82.0","39KFRKBFIOHTE35F88H27LFDDBEYO0","AS2MFSWNC5CQI","30UZJB2POHY4464FN6NBJ2NLFWF354","","782","img/food2.png","76","783.0999999046326","3","1","3","1","1,0.5,0,1,0.5,0,0.5,0,1","1,0.5,0,1,0.5,0,0.5,0,1","1","",""
"","html-keyboard-response","83","67307","0.0-83.0","39KFRKBFIOHTE35F88H27LFDDBEYO0","AS2MFSWNC5CQI","30UZJB2POHY4464FN6NBJ2NLFWF354","","null","<img src=""img/food2.png"" style=""width:200px; border:14px solid green;"">","null","","","","","","","","","",""
"","image-keyboard-response","84","67778","0.0-84.0","39KFRKBFIOHTE35F88H27LFDDBEYO0","AS2MFSWNC5CQI","30UZJB2POHY4464FN6NBJ2NLFWF354","","469.40000009536743","img/food2.png","76","471","3","1","3","1","1,0.5,0,1,0.5,0,0.5,0,1","1,0.5,0,1,0.5,0,0.5,0,1","1","",""
"","html-keyboard-response","85","68081","0.0-85.0","39KFRKBFIOHTE35F88H27LFDDBEYO0","AS2MFSWNC5CQI","30UZJB2POHY4464FN6NBJ2NLFWF354","","null","<img src=""img/food2.png"" style=""width:200px; border:14px solid green;"">","null","","","","","","","","","",""
"","image-keyboard-response","86","68626","0.0-86.0","39KFRKBFIOHTE35F88H27LFDDBEYO0","AS2MFSWNC5CQI","30UZJB2POHY4464FN6NBJ2NLFWF354","","543.7000000476837","img/food1.png","75","544.5999999046326","2","0","2","1","1,0.5,0,1,0.5,0,0.5,0,1","1,0.5,0,1,0.5,0,0.5,0,1","1","",""
"","html-keyboard-response","87","68929","0.0-87.0","39KFRKBFIOHTE35F88H27LFDDBEYO0","AS2MFSWNC5CQI","30UZJB2POHY4464FN6NBJ2NLFWF354","","null","<img src=""img/food1.png"" style=""width:200px;border:14px solid red;"">","null","","","","","","","","","",""
"","image-keyboard-response","88","69331","0.0-88.0","39KFRKBFIOHTE35F88H27LFDDBEYO0","AS2MFSWNC5CQI","30UZJB2POHY4464FN6NBJ2NLFWF354","","400.09999990463257","img/food1.png","76","401.59999990463257","3","0","2","1","1,0.5,0,1,0.5,0,0.5,0,1","1,0.5,0,1,0.5,0,0.5,0,1","1","",""
"","html-keyboard-response","89","69634","0.0-89.0","39KFRKBFIOHTE35F88H27LFDDBEYO0","AS2MFSWNC5CQI","30UZJB2POHY4464FN6NBJ2NLFWF354","","null","<img src=""img/food1.png"" style=""width:200px;border:14px solid red;"">","null","","","","","","","","","",""
"","image-keyboard-response","90","71049","0.0-90.0","39KFRKBFIOHTE35F88H27LFDDBEYO0","AS2MFSWNC5CQI","30UZJB2POHY4464FN6NBJ2NLFWF354","","1413.1999998092651","img/food6.png","75","1414.2999999523163","2","1","1","1","1,0.5,0,1,0.5,0,0.5,0,1","1,0.5,0,1,0.5,0,0.5,0,1","1","",""
"","html-keyboard-response","91","71350","0.0-91.0","39KFRKBFIOHTE35F88H27LFDDBEYO0","AS2MFSWNC5CQI","30UZJB2POHY4464FN6NBJ2NLFWF354","","null","<img src=""img/food6.png"" style=""width:200px; border:14px solid green;"">","null","","","","","","","","","",""
"","image-keyboard-response","92","72906","0.0-92.0","39KFRKBFIOHTE35F88H27LFDDBEYO0","AS2MFSWNC5CQI","30UZJB2POHY4464FN6NBJ2NLFWF354","","1554.2000000476837","img/food6.png","75","1555.7000000476837","2","0","1","1","1,0.5,0,1,0.5,0,0.5,0,1","1,0.5,0,1,0.5,0,0.5,0,1","1","",""
"","html-keyboard-response","93","73208","0.0-93.0","39KFRKBFIOHTE35F88H27LFDDBEYO0","AS2MFSWNC5CQI","30UZJB2POHY4464FN6NBJ2NLFWF354","","null","<img src=""img/food6.png"" style=""width:200px;border:14px solid red;"">","null","","","","","","","","","",""
"","image-keyboard-response","94","73859","0.0-94.0","39KFRKBFIOHTE35F88H27LFDDBEYO0","AS2MFSWNC5CQI","30UZJB2POHY4464FN6NBJ2NLFWF354","","649.5999999046326","img/food1.png","76","650.4000000953674","3","0","2","1","1,0.5,0,1,0.5,0,0.5,0,1","1,0.5,0,1,0.5,0,0.5,0,1","1","",""
"","html-keyboard-response","95","74161","0.0-95.0","39KFRKBFIOHTE35F88H27LFDDBEYO0","AS2MFSWNC5CQI","30UZJB2POHY4464FN6NBJ2NLFWF354","","null","<img src=""img/food1.png"" style=""width:200px;border:14px solid red;"">","null","","","","","","","","","",""
"","image-keyboard-response","96","76098","0.0-96.0","39KFRKBFIOHTE35F88H27LFDDBEYO0","AS2MFSWNC5CQI","30UZJB2POHY4464FN6NBJ2NLFWF354","","1935.5","img/food1.png","75","1936.5","2","1","2","1","1,0.5,0,1,0.5,0,0.5,0,1","1,0.5,0,1,0.5,0,0.5,0,1","1","",""
"","html-keyboard-response","97","76400","0.0-97.0","39KFRKBFIOHTE35F88H27LFDDBEYO0","AS2MFSWNC5CQI","30UZJB2POHY4464FN6NBJ2NLFWF354","","null","<img src=""img/food1.png"" style=""width:200px; border:14px solid green;"">","null","","","","","","","","","",""
"","image-keyboard-response","98","78011","0.0-98.0","39KFRKBFIOHTE35F88H27LFDDBEYO0","AS2MFSWNC5CQI","30UZJB2POHY4464FN6NBJ2NLFWF354","","1609","img/food6.png","75","1610.5","2","1","1","1","1,0.5,0,1,0.5,0,0.5,0,1","1,0.5,0,1,0.5,0,0.5,0,1","1","",""
"","html-keyboard-response","99","78315","0.0-99.0","39KFRKBFIOHTE35F88H27LFDDBEYO0","AS2MFSWNC5CQI","30UZJB2POHY4464FN6NBJ2NLFWF354","","null","<img src=""img/food6.png"" style=""width:200px; border:14px solid green;"">","null","","","","","","","","","",""
"","image-keyboard-response","100","78969","0.0-100.0","39KFRKBFIOHTE35F88H27LFDDBEYO0","AS2MFSWNC5CQI","30UZJB2POHY4464FN6NBJ2NLFWF354","","652.6999998092651","img/food1.png","76","653.7999999523163","3","0","2","1","1,0.5,0,1,0.5,0,0.5,0,1","1,0.5,0,1,0.5,0,0.5,0,1","1","",""
"","html-keyboard-response","101","79271","0.0-101.0","39KFRKBFIOHTE35F88H27LFDDBEYO0","AS2MFSWNC5CQI","30UZJB2POHY4464FN6NBJ2NLFWF354","","null","<img src=""img/food1.png"" style=""width:200px;border:14px solid red;"">","null","","","","","","","","","",""
"","image-keyboard-response","102","80019","0.0-102.0","39KFRKBFIOHTE35F88H27LFDDBEYO0","AS2MFSWNC5CQI","30UZJB2POHY4464FN6NBJ2NLFWF354","","746.2999999523163","img/food2.png","75","747.6999998092651","2","0","3","1","1,0.5,0,1,0.5,0,0.5,0,1","1,0.5,0,1,0.5,0,0.5,0,1","1","",""
"","html-keyboard-response","103","80322","0.0-103.0","39KFRKBFIOHTE35F88H27LFDDBEYO0","AS2MFSWNC5CQI","30UZJB2POHY4464FN6NBJ2NLFWF354","","null","<img src=""img/food2.png"" style=""width:200px;border:14px solid red;"">","null","","","","","","","","","",""
"","image-keyboard-response","104","81010","0.0-104.0","39KFRKBFIOHTE35F88H27LFDDBEYO0","AS2MFSWNC5CQI","30UZJB2POHY4464FN6NBJ2NLFWF354","","686.6000001430511","img/food6.png","76","688","3","0","1","1","1,0.5,0,1,0.5,0,0.5,0,1","1,0.5,0,1,0.5,0,0.5,0,1","1","",""
"","html-keyboard-response","105","81314","0.0-105.0","39KFRKBFIOHTE35F88H27LFDDBEYO0","AS2MFSWNC5CQI","30UZJB2POHY4464FN6NBJ2NLFWF354","","null","<img src=""img/food6.png"" style=""width:200px;border:14px solid red;"">","null","","","","","","","","","",""
"","image-keyboard-response","106","81770","0.0-106.0","39KFRKBFIOHTE35F88H27LFDDBEYO0","AS2MFSWNC5CQI","30UZJB2POHY4464FN6NBJ2NLFWF354","","454.2000000476837","img/food1.png","75","455.60000014305115","2","1","2","1","1,0.5,0,1,0.5,0,0.5,0,1","1,0.5,0,1,0.5,0,0.5,0,1","1","",""
"","html-keyboard-response","107","82072","0.0-107.0","39KFRKBFIOHTE35F88H27LFDDBEYO0","AS2MFSWNC5CQI","30UZJB2POHY4464FN6NBJ2NLFWF354","","null","<img src=""img/food1.png"" style=""width:200px; border:14px solid green;"">","null","","","","","","","","","",""
"","image-keyboard-response","108","82729","0.0-108.0","39KFRKBFIOHTE35F88H27LFDDBEYO0","AS2MFSWNC5CQI","30UZJB2POHY4464FN6NBJ2NLFWF354","","656.2999999523163","img/food6.png","75","656.7999999523163","2","0","1","1","1,0.5,0,1,0.5,0,0.5,0,1","1,0.5,0,1,0.5,0,0.5,0,1","1","",""
"","html-keyboard-response","109","83030","0.0-109.0","39KFRKBFIOHTE35F88H27LFDDBEYO0","AS2MFSWNC5CQI","30UZJB2POHY4464FN6NBJ2NLFWF354","","null","<img src=""img/food6.png"" style=""width:200px;border:14px solid red;"">","null","","","","","","","","","",""
"","image-keyboard-response","110","83515","0.0-110.0","39KFRKBFIOHTE35F88H27LFDDBEYO0","AS2MFSWNC5CQI","30UZJB2POHY4464FN6NBJ2NLFWF354","","483","img/food6.png","76","484.39999985694885","3","0","1","1","1,0.5,0,1,0.5,0,0.5,0,1","1,0.5,0,1,0.5,0,0.5,0,1","1","",""
"","html-keyboard-response","111","83818","0.0-111.0","39KFRKBFIOHTE35F88H27LFDDBEYO0","AS2MFSWNC5CQI","30UZJB2POHY4464FN6NBJ2NLFWF354","","null","<img src=""img/food6.png"" style=""width:200px;border:14px solid red;"">","null","","","","","","","","","",""
"","image-keyboard-response","112","84385","0.0-112.0","39KFRKBFIOHTE35F88H27LFDDBEYO0","AS2MFSWNC5CQI","30UZJB2POHY4464FN6NBJ2NLFWF354","","565.3000001907349","img/food2.png","75","566.5","2","0","3","1","1,0.5,0,1,0.5,0,0.5,0,1","1,0.5,0,1,0.5,0,0.5,0,1","1","",""
"","html-keyboard-response","113","84687","0.0-113.0","39KFRKBFIOHTE35F88H27LFDDBEYO0","AS2MFSWNC5CQI","30UZJB2POHY4464FN6NBJ2NLFWF354","","null","<img src=""img/food2.png"" style=""width:200px;border:14px solid red;"">","null","","","","","","","","","",""
"","image-keyboard-response","114","86384","0.0-114.0","39KFRKBFIOHTE35F88H27LFDDBEYO0","AS2MFSWNC5CQI","30UZJB2POHY4464FN6NBJ2NLFWF354","","1696.0999999046326","img/food1.png","75","1697.3999998569489","2","0","2","1","1,0.5,0,1,0.5,0,0.5,0,1","1,0.5,0,1,0.5,0,0.5,0,1","1","",""
"","html-keyboard-response","115","86686","0.0-115.0","39KFRKBFIOHTE35F88H27LFDDBEYO0","AS2MFSWNC5CQI","30UZJB2POHY4464FN6NBJ2NLFWF354","","null","<img src=""img/food1.png"" style=""width:200px;border:14px solid red;"">","null","","","","","","","","","",""
"","image-keyboard-response","116","87112","0.0-116.0","39KFRKBFIOHTE35F88H27LFDDBEYO0","AS2MFSWNC5CQI","30UZJB2POHY4464FN6NBJ2NLFWF354","","424.7000000476837","img/food1.png","76","425.80000019073486","3","0","2","1","1,0.5,0,1,0.5,0,0.5,0,1","1,0.5,0,1,0.5,0,0.5,0,1","1","",""
"","html-keyboard-response","117","87413","0.0-117.0","39KFRKBFIOHTE35F88H27LFDDBEYO0","AS2MFSWNC5CQI","30UZJB2POHY4464FN6NBJ2NLFWF354","","null","<img src=""img/food1.png"" style=""width:200px;border:14px solid red;"">","null","","","","","","","","","",""
"","image-keyboard-response","118","88448","0.0-118.0","39KFRKBFIOHTE35F88H27LFDDBEYO0","AS2MFSWNC5CQI","30UZJB2POHY4464FN6NBJ2NLFWF354","","1034.5","img/food1.png","75","1035.2000000476837","2","1","2","1","1,0.5,0,1,0.5,0,0.5,0,1","1,0.5,0,1,0.5,0,0.5,0,1","1","",""
"","html-keyboard-response","119","88749","0.0-119.0","39KFRKBFIOHTE35F88H27LFDDBEYO0","AS2MFSWNC5CQI","30UZJB2POHY4464FN6NBJ2NLFWF354","","null","<img src=""img/food1.png"" style=""width:200px; border:14px solid green;"">","null","","","","","","","","","",""
"","image-keyboard-response","120","89634","0.0-120.0","39KFRKBFIOHTE35F88H27LFDDBEYO0","AS2MFSWNC5CQI","30UZJB2POHY4464FN6NBJ2NLFWF354","","882.5","img/food1.png","75","883.8999998569489","2","0","2","1","1,0.5,0,1,0.5,0,0.5,0,1","1,0.5,0,1,0.5,0,0.5,0,1","1","",""
"","html-keyboard-response","121","89936","0.0-121.0","39KFRKBFIOHTE35F88H27LFDDBEYO0","AS2MFSWNC5CQI","30UZJB2POHY4464FN6NBJ2NLFWF354","","null","<img src=""img/food1.png"" style=""width:200px;border:14px solid red;"">","null","","","","","","","","","",""
"","image-keyboard-response","122","90632","0.0-122.0","39KFRKBFIOHTE35F88H27LFDDBEYO0","AS2MFSWNC5CQI","30UZJB2POHY4464FN6NBJ2NLFWF354","","694.3000001907349","img/food6.png","75","695.6000001430511","2","0","1","1","1,0.5,0,1,0.5,0,0.5,0,1","1,0.5,0,1,0.5,0,0.5,0,1","1","",""
"","html-keyboard-response","123","90934","0.0-123.0","39KFRKBFIOHTE35F88H27LFDDBEYO0","AS2MFSWNC5CQI","30UZJB2POHY4464FN6NBJ2NLFWF354","","null","<img src=""img/food6.png"" style=""width:200px;border:14px solid red;"">","null","","","","","","","","","",""
"","image-keyboard-response","124","91435","0.0-124.0","39KFRKBFIOHTE35F88H27LFDDBEYO0","AS2MFSWNC5CQI","30UZJB2POHY4464FN6NBJ2NLFWF354","","500.19999980926514","img/food2.png","76","501.2999999523163","3","1","3","1","1,0.5,0,1,0.5,0,0.5,0,1","1,0.5,0,1,0.5,0,0.5,0,1","1","",""
"","html-keyboard-response","125","91737","0.0-125.0","39KFRKBFIOHTE35F88H27LFDDBEYO0","AS2MFSWNC5CQI","30UZJB2POHY4464FN6NBJ2NLFWF354","","null","<img src=""img/food2.png"" style=""width:200px; border:14px solid green;"">","null","","","","","","","","","",""
"","image-keyboard-response","126","92811","0.0-126.0","39KFRKBFIOHTE35F88H27LFDDBEYO0","AS2MFSWNC5CQI","30UZJB2POHY4464FN6NBJ2NLFWF354","","1071.7000000476837","img/food2.png","76","1073","3","1","3","1","1,0.5,0,1,0.5,0,0.5,0,1","1,0.5,0,1,0.5,0,0.5,0,1","1","",""
"","html-keyboard-response","127","93114","0.0-127.0","39KFRKBFIOHTE35F88H27LFDDBEYO0","AS2MFSWNC5CQI","30UZJB2POHY4464FN6NBJ2NLFWF354","","null","<img src=""img/food2.png"" style=""width:200px; border:14px solid green;"">","null","","","","","","","","","",""
"","image-keyboard-response","128","93754","0.0-128.0","39KFRKBFIOHTE35F88H27LFDDBEYO0","AS2MFSWNC5CQI","30UZJB2POHY4464FN6NBJ2NLFWF354","","639.2999999523163","img/food6.png","75","640.1999998092651","2","0","1","1","1,0.5,0,1,0.5,0,0.5,0,1","1,0.5,0,1,0.5,0,0.5,0,1","1","",""
"","html-keyboard-response","129","94056","0.0-129.0","39KFRKBFIOHTE35F88H27LFDDBEYO0","AS2MFSWNC5CQI","30UZJB2POHY4464FN6NBJ2NLFWF354","","null","<img src=""img/food6.png"" style=""width:200px;border:14px solid red;"">","null","","","","","","","","","",""
"","image-keyboard-response","130","94617","0.0-130.0","39KFRKBFIOHTE35F88H27LFDDBEYO0","AS2MFSWNC5CQI","30UZJB2POHY4464FN6NBJ2NLFWF354","","560.8999998569489","img/food2.png","76","561.7000000476837","3","1","3","1","1,0.5,0,1,0.5,0,0.5,0,1","1,0.5,0,1,0.5,0,0.5,0,1","1","",""
"","html-keyboard-response","131","94920","0.0-131.0","39KFRKBFIOHTE35F88H27LFDDBEYO0","AS2MFSWNC5CQI","30UZJB2POHY4464FN6NBJ2NLFWF354","","null","<img src=""img/food2.png"" style=""width:200px; border:14px solid green;"">","null","","","","","","","","","",""
"","image-keyboard-response","132","95513","0.0-132.0","39KFRKBFIOHTE35F88H27LFDDBEYO0","AS2MFSWNC5CQI","30UZJB2POHY4464FN6NBJ2NLFWF354","","590.7000000476837","img/food1.png","76","591.8999998569489","3","0","2","1","1,0.5,0,1,0.5,0,0.5,0,1","1,0.5,0,1,0.5,0,0.5,0,1","1","",""
"","html-keyboard-response","133","95815","0.0-133.0","39KFRKBFIOHTE35F88H27LFDDBEYO0","AS2MFSWNC5CQI","30UZJB2POHY4464FN6NBJ2NLFWF354","","null","<img src=""img/food1.png"" style=""width:200px;border:14px solid red;"">","null","","","","","","","","","",""
"","image-keyboard-response","134","96301","0.0-134.0","39KFRKBFIOHTE35F88H27LFDDBEYO0","AS2MFSWNC5CQI","30UZJB2POHY4464FN6NBJ2NLFWF354","","483.40000009536743","img/food2.png","75","485","2","0","3","1","1,0.5,0,1,0.5,0,0.5,0,1","1,0.5,0,1,0.5,0,0.5,0,1","1","",""
"","html-keyboard-response","135","96604","0.0-135.0","39KFRKBFIOHTE35F88H27LFDDBEYO0","AS2MFSWNC5CQI","30UZJB2POHY4464FN6NBJ2NLFWF354","","null","<img src=""img/food2.png"" style=""width:200px;border:14px solid red;"">","null","","","","","","","","","",""
"","image-keyboard-response","136","97258","0.0-136.0","39KFRKBFIOHTE35F88H27LFDDBEYO0","AS2MFSWNC5CQI","30UZJB2POHY4464FN6NBJ2NLFWF354","","652.2999999523163","img/food2.png","76","653.5","3","1","3","1","1,0.5,0,1,0.5,0,0.5,0,1","1,0.5,0,1,0.5,0,0.5,0,1","1","",""
"","html-keyboard-response","137","97560","0.0-137.0","39KFRKBFIOHTE35F88H27LFDDBEYO0","AS2MFSWNC5CQI","30UZJB2POHY4464FN6NBJ2NLFWF354","","null","<img src=""img/food2.png"" style=""width:200px; border:14px solid green;"">","null","","","","","","","","","",""
"","image-keyboard-response","138","98617","0.0-138.0","39KFRKBFIOHTE35F88H27LFDDBEYO0","AS2MFSWNC5CQI","30UZJB2POHY4464FN6NBJ2NLFWF354","","1056.1000001430511","img/food1.png","76","1056.7000000476837","3","0","2","1","1,0.5,0,1,0.5,0,0.5,0,1","1,0.5,0,1,0.5,0,0.5,0,1","1","",""
"","html-keyboard-response","139","98918","0.0-139.0","39KFRKBFIOHTE35F88H27LFDDBEYO0","AS2MFSWNC5CQI","30UZJB2POHY4464FN6NBJ2NLFWF354","","null","<img src=""img/food1.png"" style=""width:200px;border:14px solid red;"">","null","","","","","","","","","",""
"","image-keyboard-response","140","99371","0.0-140.0","39KFRKBFIOHTE35F88H27LFDDBEYO0","AS2MFSWNC5CQI","30UZJB2POHY4464FN6NBJ2NLFWF354","","450.2999999523163","img/food1.png","76","451.7999999523163","3","0","2","1","1,0.5,0,1,0.5,0,0.5,0,1","1,0.5,0,1,0.5,0,0.5,0,1","1","",""
"","html-keyboard-response","141","99673","0.0-141.0","39KFRKBFIOHTE35F88H27LFDDBEYO0","AS2MFSWNC5CQI","30UZJB2POHY4464FN6NBJ2NLFWF354","","null","<img src=""img/food1.png"" style=""width:200px;border:14px solid red;"">","null","","","","","","","","","",""
"","image-keyboard-response","142","100034","0.0-142.0","39KFRKBFIOHTE35F88H27LFDDBEYO0","AS2MFSWNC5CQI","30UZJB2POHY4464FN6NBJ2NLFWF354","","359.7000000476837","img/food1.png","75","360.59999990463257","2","1","2","1","1,0.5,0,1,0.5,0,0.5,0,1","1,0.5,0,1,0.5,0,0.5,0,1","1","",""
"","html-keyboard-response","143","100337","0.0-143.0","39KFRKBFIOHTE35F88H27LFDDBEYO0","AS2MFSWNC5CQI","30UZJB2POHY4464FN6NBJ2NLFWF354","","null","<img src=""img/food1.png"" style=""width:200px; border:14px solid green;"">","null","","","","","","","","","",""
"","image-keyboard-response","144","101680","0.0-144.0","39KFRKBFIOHTE35F88H27LFDDBEYO0","AS2MFSWNC5CQI","30UZJB2POHY4464FN6NBJ2NLFWF354","","1342.2000000476837","img/food1.png","75","1343.5","2","0","2","1","1,0.5,0,1,0.5,0,0.5,0,1","1,0.5,0,1,0.5,0,0.5,0,1","1","",""
"","html-keyboard-response","145","101982","0.0-145.0","39KFRKBFIOHTE35F88H27LFDDBEYO0","AS2MFSWNC5CQI","30UZJB2POHY4464FN6NBJ2NLFWF354","","null","<img src=""img/food1.png"" style=""width:200px;border:14px solid red;"">","null","","","","","","","","","",""
"","image-keyboard-response","146","102466","0.0-146.0","39KFRKBFIOHTE35F88H27LFDDBEYO0","AS2MFSWNC5CQI","30UZJB2POHY4464FN6NBJ2NLFWF354","","483.2000000476837","img/food1.png","76","483.7999999523163","3","0","2","1","1,0.5,0,1,0.5,0,0.5,0,1","1,0.5,0,1,0.5,0,0.5,0,1","1","",""
"","html-keyboard-response","147","102768","0.0-147.0","39KFRKBFIOHTE35F88H27LFDDBEYO0","AS2MFSWNC5CQI","30UZJB2POHY4464FN6NBJ2NLFWF354","","null","<img src=""img/food1.png"" style=""width:200px;border:14px solid red;"">","null","","","","","","","","","",""
"","image-keyboard-response","148","103394","0.0-148.0","39KFRKBFIOHTE35F88H27LFDDBEYO0","AS2MFSWNC5CQI","30UZJB2POHY4464FN6NBJ2NLFWF354","","625.2999999523163","img/food6.png","75","626.1999998092651","2","1","1","1","1,0.5,0,1,0.5,0,0.5,0,1","1,0.5,0,1,0.5,0,0.5,0,1","1","",""
"","html-keyboard-response","149","103696","0.0-149.0","39KFRKBFIOHTE35F88H27LFDDBEYO0","AS2MFSWNC5CQI","30UZJB2POHY4464FN6NBJ2NLFWF354","","null","<img src=""img/food6.png"" style=""width:200px; border:14px solid green;"">","null","","","","","","","","","",""
"","image-keyboard-response","150","104234","0.0-150.0","39KFRKBFIOHTE35F88H27LFDDBEYO0","AS2MFSWNC5CQI","30UZJB2POHY4464FN6NBJ2NLFWF354","","537.4000000953674","img/food1.png","75","538.2999999523163","2","0","2","1","1,0.5,0,1,0.5,0,0.5,0,1","1,0.5,0,1,0.5,0,0.5,0,1","1","",""
"","html-keyboard-response","151","104537","0.0-151.0","39KFRKBFIOHTE35F88H27LFDDBEYO0","AS2MFSWNC5CQI","30UZJB2POHY4464FN6NBJ2NLFWF354","","null","<img src=""img/food1.png"" style=""width:200px;border:14px solid red;"">","null","","","","","","","","","",""
"","image-keyboard-response","152","105058","0.0-152.0","39KFRKBFIOHTE35F88H27LFDDBEYO0","AS2MFSWNC5CQI","30UZJB2POHY4464FN6NBJ2NLFWF354","","519.6000001430511","img/food2.png","76","521.1000001430511","3","1","3","1","1,0.5,0,1,0.5,0,0.5,0,1","1,0.5,0,1,0.5,0,0.5,0,1","1","",""
"","html-keyboard-response","153","105361","0.0-153.0","39KFRKBFIOHTE35F88H27LFDDBEYO0","AS2MFSWNC5CQI","30UZJB2POHY4464FN6NBJ2NLFWF354","","null","<img src=""img/food2.png"" style=""width:200px; border:14px solid green;"">","null","","","","","","","","","",""
"","image-keyboard-response","154","106348","0.0-154.0","39KFRKBFIOHTE35F88H27LFDDBEYO0","AS2MFSWNC5CQI","30UZJB2POHY4464FN6NBJ2NLFWF354","","984.9000000953674","img/food1.png","76","986.4000000953674","3","0","2","1","1,0.5,0,1,0.5,0,0.5,0,1","1,0.5,0,1,0.5,0,0.5,0,1","1","",""
"","html-keyboard-response","155","106650","0.0-155.0","39KFRKBFIOHTE35F88H27LFDDBEYO0","AS2MFSWNC5CQI","30UZJB2POHY4464FN6NBJ2NLFWF354","","null","<img src=""img/food1.png"" style=""width:200px;border:14px solid red;"">","null","","","","","","","","","",""
"","image-keyboard-response","156","106882","0.0-156.0","39KFRKBFIOHTE35F88H27LFDDBEYO0","AS2MFSWNC5CQI","30UZJB2POHY4464FN6NBJ2NLFWF354","","230.5","img/food2.png","75","231.79999995231628","2","0","3","1","1,0.5,0,1,0.5,0,0.5,0,1","1,0.5,0,1,0.5,0,0.5,0,1","1","",""
"","html-keyboard-response","157","107185","0.0-157.0","39KFRKBFIOHTE35F88H27LFDDBEYO0","AS2MFSWNC5CQI","30UZJB2POHY4464FN6NBJ2NLFWF354","","null","<img src=""img/food2.png"" style=""width:200px;border:14px solid red;"">","null","","","","","","","","","",""
"","image-keyboard-response","158","107706","0.0-158.0","39KFRKBFIOHTE35F88H27LFDDBEYO0","AS2MFSWNC5CQI","30UZJB2POHY4464FN6NBJ2NLFWF354","","519.1000001430511","img/food6.png","76","520.6000001430511","3","0","1","1","1,0.5,0,1,0.5,0,0.5,0,1","1,0.5,0,1,0.5,0,0.5,0,1","1","",""
"","html-keyboard-response","159","108009","0.0-159.0","39KFRKBFIOHTE35F88H27LFDDBEYO0","AS2MFSWNC5CQI","30UZJB2POHY4464FN6NBJ2NLFWF354","","null","<img src=""img/food6.png"" style=""width:200px;border:14px solid red;"">","null","","","","","","","","","",""
"","image-keyboard-response","160","108698","0.0-160.0","39KFRKBFIOHTE35F88H27LFDDBEYO0","AS2MFSWNC5CQI","30UZJB2POHY4464FN6NBJ2NLFWF354","","687.2999999523163","img/food2.png","75","688.5","2","0","3","1","1,0.5,0,1,0.5,0,0.5,0,1","1,0.5,0,1,0.5,0,0.5,0,1","1","",""
"","html-keyboard-response","161","109000","0.0-161.0","39KFRKBFIOHTE35F88H27LFDDBEYO0","AS2MFSWNC5CQI","30UZJB2POHY4464FN6NBJ2NLFWF354","","null","<img src=""img/food2.png"" style=""width:200px;border:14px solid red;"">","null","","","","","","","","","",""
"","image-keyboard-response","162","109683","0.0-162.0","39KFRKBFIOHTE35F88H27LFDDBEYO0","AS2MFSWNC5CQI","30UZJB2POHY4464FN6NBJ2NLFWF354","","681","img/food1.png","76","682.3999998569489","3","0","2","1","1,0.5,0,1,0.5,0,0.5,0,1","1,0.5,0,1,0.5,0,0.5,0,1","1","",""
"","html-keyboard-response","163","109985","0.0-163.0","39KFRKBFIOHTE35F88H27LFDDBEYO0","AS2MFSWNC5CQI","30UZJB2POHY4464FN6NBJ2NLFWF354","","null","<img src=""img/food1.png"" style=""width:200px;border:14px solid red;"">","null","","","","","","","","","",""
"","image-keyboard-response","164","110707","0.0-164.0","39KFRKBFIOHTE35F88H27LFDDBEYO0","AS2MFSWNC5CQI","30UZJB2POHY4464FN6NBJ2NLFWF354","","720.5","img/food1.png","76","721.7999999523163","3","0","2","1","1,0.5,0,1,0.5,0,0.5,0,1","1,0.5,0,1,0.5,0,0.5,0,1","1","",""
"","html-keyboard-response","165","111009","0.0-165.0","39KFRKBFIOHTE35F88H27LFDDBEYO0","AS2MFSWNC5CQI","30UZJB2POHY4464FN6NBJ2NLFWF354","","null","<img src=""img/food1.png"" style=""width:200px;border:14px solid red;"">","null","","","","","","","","","",""
"","image-keyboard-response","166","111594","0.0-166.0","39KFRKBFIOHTE35F88H27LFDDBEYO0","AS2MFSWNC5CQI","30UZJB2POHY4464FN6NBJ2NLFWF354","","583.6000001430511","img/food2.png","75","584.3999998569489","2","0","3","1","1,0.5,0,1,0.5,0,0.5,0,1","1,0.5,0,1,0.5,0,0.5,0,1","1","",""
"","html-keyboard-response","167","111896","0.0-167.0","39KFRKBFIOHTE35F88H27LFDDBEYO0","AS2MFSWNC5CQI","30UZJB2POHY4464FN6NBJ2NLFWF354","","null","<img src=""img/food2.png"" style=""width:200px;border:14px solid red;"">","null","","","","","","","","","",""
"","image-keyboard-response","168","112322","0.0-168.0","39KFRKBFIOHTE35F88H27LFDDBEYO0","AS2MFSWNC5CQI","30UZJB2POHY4464FN6NBJ2NLFWF354","","424.2999999523163","img/food2.png","76","425.10000014305115","3","1","3","1","1,0.5,0,1,0.5,0,0.5,0,1","1,0.5,0,1,0.5,0,0.5,0,1","1","",""
"","html-keyboard-response","169","112624","0.0-169.0","39KFRKBFIOHTE35F88H27LFDDBEYO0","AS2MFSWNC5CQI","30UZJB2POHY4464FN6NBJ2NLFWF354","","null","<img src=""img/food2.png"" style=""width:200px; border:14px solid green;"">","null","","","","","","","","","",""
"","image-keyboard-response","170","113153","0.0-170.0","39KFRKBFIOHTE35F88H27LFDDBEYO0","AS2MFSWNC5CQI","30UZJB2POHY4464FN6NBJ2NLFWF354","","527.6999998092651","img/food2.png","76","529.1999998092651","3","1","3","1","1,0.5,0,1,0.5,0,0.5,0,1","1,0.5,0,1,0.5,0,0.5,0,1","1","",""
"","html-keyboard-response","171","113456","0.0-171.0","39KFRKBFIOHTE35F88H27LFDDBEYO0","AS2MFSWNC5CQI","30UZJB2POHY4464FN6NBJ2NLFWF354","","null","<img src=""img/food2.png"" style=""width:200px; border:14px solid green;"">","null","","","","","","","","","",""
"","image-keyboard-response","172","114163","0.0-172.0","39KFRKBFIOHTE35F88H27LFDDBEYO0","AS2MFSWNC5CQI","30UZJB2POHY4464FN6NBJ2NLFWF354","","705.5","img/food1.png","75","707","2","0","2","1","1,0.5,0,1,0.5,0,0.5,0,1","1,0.5,0,1,0.5,0,0.5,0,1","1","",""
"","html-keyboard-response","173","114466","0.0-173.0","39KFRKBFIOHTE35F88H27LFDDBEYO0","AS2MFSWNC5CQI","30UZJB2POHY4464FN6NBJ2NLFWF354","","null","<img src=""img/food1.png"" style=""width:200px;border:14px solid red;"">","null","","","","","","","","","",""
"","image-keyboard-response","174","114937","0.0-174.0","39KFRKBFIOHTE35F88H27LFDDBEYO0","AS2MFSWNC5CQI","30UZJB2POHY4464FN6NBJ2NLFWF354","","469.7000000476837","img/food2.png","76","470.2999999523163","3","1","3","1","1,0.5,0,1,0.5,0,0.5,0,1","1,0.5,0,1,0.5,0,0.5,0,1","1","",""
"","html-keyboard-response","175","115238","0.0-175.0","39KFRKBFIOHTE35F88H27LFDDBEYO0","AS2MFSWNC5CQI","30UZJB2POHY4464FN6NBJ2NLFWF354","","null","<img src=""img/food2.png"" style=""width:200px; border:14px solid green;"">","null","","","","","","","","","",""
"","image-keyboard-response","176","115944","0.0-176.0","39KFRKBFIOHTE35F88H27LFDDBEYO0","AS2MFSWNC5CQI","30UZJB2POHY4464FN6NBJ2NLFWF354","","704.7999999523163","img/food6.png","75","706","2","1","1","1","1,0.5,0,1,0.5,0,0.5,0,1","1,0.5,0,1,0.5,0,0.5,0,1","1","",""
"","html-keyboard-response","177","116246","0.0-177.0","39KFRKBFIOHTE35F88H27LFDDBEYO0","AS2MFSWNC5CQI","30UZJB2POHY4464FN6NBJ2NLFWF354","","null","<img src=""img/food6.png"" style=""width:200px; border:14px solid green;"">","null","","","","","","","","","",""
"","image-keyboard-response","178","117817","0.0-178.0","39KFRKBFIOHTE35F88H27LFDDBEYO0","AS2MFSWNC5CQI","30UZJB2POHY4464FN6NBJ2NLFWF354","","1570.2999999523163","img/food6.png","76","1570.7999999523163","3","0","1","1","1,0.5,0,1,0.5,0,0.5,0,1","1,0.5,0,1,0.5,0,0.5,0,1","1","",""
"","html-keyboard-response","179","118119","0.0-179.0","39KFRKBFIOHTE35F88H27LFDDBEYO0","AS2MFSWNC5CQI","30UZJB2POHY4464FN6NBJ2NLFWF354","","null","<img src=""img/food6.png"" style=""width:200px;border:14px solid red;"">","null","","","","","","","","","",""
"","image-keyboard-response","180","118520","0.0-180.0","39KFRKBFIOHTE35F88H27LFDDBEYO0","AS2MFSWNC5CQI","30UZJB2POHY4464FN6NBJ2NLFWF354","","400.5","img/food6.png","75","401.09999990463257","2","1","1","1","1,0.5,0,1,0.5,0,0.5,0,1","1,0.5,0,1,0.5,0,0.5,0,1","1","",""
"","html-keyboard-response","181","118821","0.0-181.0","39KFRKBFIOHTE35F88H27LFDDBEYO0","AS2MFSWNC5CQI","30UZJB2POHY4464FN6NBJ2NLFWF354","","null","<img src=""img/food6.png"" style=""width:200px; border:14px solid green;"">","null","","","","","","","","","",""
"","html-keyboard-response","182","121419","0.0-182.0","39KFRKBFIOHTE35F88H27LFDDBEYO0","AS2MFSWNC5CQI","30UZJB2POHY4464FN6NBJ2NLFWF354","","","","","","","","","","","","","",""
"","instructions","183","125209","0.0-183.0","39KFRKBFIOHTE35F88H27LFDDBEYO0","AS2MFSWNC5CQI","30UZJB2POHY4464FN6NBJ2NLFWF354","[{""page_index"":0,""viewing_time"":1121.2000000476837},{""page_index"":1,""viewing_time"":2668}]","3789.4000000953674","","","","","","","","","","","",""
"","image-keyboard-response","184","126211","0.0-184.0","39KFRKBFIOHTE35F88H27LFDDBEYO0","AS2MFSWNC5CQI","30UZJB2POHY4464FN6NBJ2NLFWF354","","","img/food3.png","","1001.5999999046326","-1","0","2","2","1,0.5,0,1,0.5,0,0.5,0,1","0,1,0.5,0,1,0.5,1,0.5,0","3","true",""
"","html-keyboard-response","185","126513","0.0-185.0","39KFRKBFIOHTE35F88H27LFDDBEYO0","AS2MFSWNC5CQI","30UZJB2POHY4464FN6NBJ2NLFWF354","","null","<img src=""img/food3.png"" style=""width:200px;border:14px solid red;"">","null","","","","","","","","","",""
"","html-keyboard-response","186","131351","0.0-186.0-0.0","39KFRKBFIOHTE35F88H27LFDDBEYO0","AS2MFSWNC5CQI","30UZJB2POHY4464FN6NBJ2NLFWF354","","","","","","","","","","","","","",""
"","image-keyboard-response","187","132072","0.0-187.0","39KFRKBFIOHTE35F88H27LFDDBEYO0","AS2MFSWNC5CQI","30UZJB2POHY4464FN6NBJ2NLFWF354","","719.5999999046326","img/food5.png","74","720.2999999523163","1","0","1","2","1,0.5,0,1,0.5,0,0.5,0,1","0,1,0.5,0,1,0.5,1,0.5,0","3","false",""
"","html-keyboard-response","188","132373","0.0-188.0","39KFRKBFIOHTE35F88H27LFDDBEYO0","AS2MFSWNC5CQI","30UZJB2POHY4464FN6NBJ2NLFWF354","","null","<img src=""img/food5.png"" style=""width:200px;border:14px solid red;"">","null","","","","","","","","","",""
"","image-keyboard-response","189","132864","0.0-190.0","39KFRKBFIOHTE35F88H27LFDDBEYO0","AS2MFSWNC5CQI","30UZJB2POHY4464FN6NBJ2NLFWF354","","489.2999999523163","img/food3.png","75","490.40000009536743","2","1","2","2","1,0.5,0,1,0.5,0,0.5,0,1","0,1,0.5,0,1,0.5,1,0.5,0","3","false",""
"","html-keyboard-response","190","133166","0.0-191.0","39KFRKBFIOHTE35F88H27LFDDBEYO0","AS2MFSWNC5CQI","30UZJB2POHY4464FN6NBJ2NLFWF354","","null","<img src=""img/food3.png"" style=""width:200px; border:14px solid green;"">","null","","","","","","","","","",""
"","image-keyboard-response","191","133827","0.0-193.0","39KFRKBFIOHTE35F88H27LFDDBEYO0","AS2MFSWNC5CQI","30UZJB2POHY4464FN6NBJ2NLFWF354","","658.6000001430511","img/food4.png","75","660","2","1","3","2","1,0.5,0,1,0.5,0,0.5,0,1","0,1,0.5,0,1,0.5,1,0.5,0","3","false",""
"","html-keyboard-response","192","134131","0.0-194.0","39KFRKBFIOHTE35F88H27LFDDBEYO0","AS2MFSWNC5CQI","30UZJB2POHY4464FN6NBJ2NLFWF354","","null","<img src=""img/food4.png"" style=""width:200px; border:14px solid green;"">","null","","","","","","","","","",""
"","image-keyboard-response","193","134913","0.0-196.0","39KFRKBFIOHTE35F88H27LFDDBEYO0","AS2MFSWNC5CQI","30UZJB2POHY4464FN6NBJ2NLFWF354","","780.3999998569489","img/food4.png","75","782","2","1","3","2","1,0.5,0,1,0.5,0,0.5,0,1","0,1,0.5,0,1,0.5,1,0.5,0","3","false",""
"","html-keyboard-response","194","135216","0.0-197.0","39KFRKBFIOHTE35F88H27LFDDBEYO0","AS2MFSWNC5CQI","30UZJB2POHY4464FN6NBJ2NLFWF354","","null","<img src=""img/food4.png"" style=""width:200px; border:14px solid green;"">","null","","","","","","","","","",""
"","image-keyboard-response","195","135985","0.0-199.0","39KFRKBFIOHTE35F88H27LFDDBEYO0","AS2MFSWNC5CQI","30UZJB2POHY4464FN6NBJ2NLFWF354","","767.5999999046326","img/food3.png","75","768.7000000476837","2","1","2","2","1,0.5,0,1,0.5,0,0.5,0,1","0,1,0.5,0,1,0.5,1,0.5,0","3","false",""
"","html-keyboard-response","196","136287","0.0-200.0","39KFRKBFIOHTE35F88H27LFDDBEYO0","AS2MFSWNC5CQI","30UZJB2POHY4464FN6NBJ2NLFWF354","","null","<img src=""img/food3.png"" style=""width:200px; border:14px solid green;"">","null","","","","","","","","","",""
"","image-keyboard-response","197","137009","0.0-202.0","39KFRKBFIOHTE35F88H27LFDDBEYO0","AS2MFSWNC5CQI","30UZJB2POHY4464FN6NBJ2NLFWF354","","721.6999998092651","img/food3.png","75","722.5","2","1","2","2","1,0.5,0,1,0.5,0,0.5,0,1","0,1,0.5,0,1,0.5,1,0.5,0","3","false",""
"","html-keyboard-response","198","137313","0.0-203.0","39KFRKBFIOHTE35F88H27LFDDBEYO0","AS2MFSWNC5CQI","30UZJB2POHY4464FN6NBJ2NLFWF354","","null","<img src=""img/food3.png"" style=""width:200px; border:14px solid green;"">","null","","","","","","","","","",""
"","image-keyboard-response","199","137906","0.0-205.0","39KFRKBFIOHTE35F88H27LFDDBEYO0","AS2MFSWNC5CQI","30UZJB2POHY4464FN6NBJ2NLFWF354","","591","img/food3.png","75","592.3999998569489","2","1","2","2","1,0.5,0,1,0.5,0,0.5,0,1","0,1,0.5,0,1,0.5,1,0.5,0","3","false",""
"","html-keyboard-response","200","138208","0.0-206.0","39KFRKBFIOHTE35F88H27LFDDBEYO0","AS2MFSWNC5CQI","30UZJB2POHY4464FN6NBJ2NLFWF354","","null","<img src=""img/food3.png"" style=""width:200px; border:14px solid green;"">","null","","","","","","","","","",""
"","image-keyboard-response","201","138849","0.0-208.0","39KFRKBFIOHTE35F88H27LFDDBEYO0","AS2MFSWNC5CQI","30UZJB2POHY4464FN6NBJ2NLFWF354","","639.3999998569489","img/food5.png","74","640.7999999523163","1","0","1","2","1,0.5,0,1,0.5,0,0.5,0,1","0,1,0.5,0,1,0.5,1,0.5,0","3","false",""
"","html-keyboard-response","202","139151","0.0-209.0","39KFRKBFIOHTE35F88H27LFDDBEYO0","AS2MFSWNC5CQI","30UZJB2POHY4464FN6NBJ2NLFWF354","","null","<img src=""img/food5.png"" style=""width:200px;border:14px solid red;"">","null","","","","","","","","","",""
"","image-keyboard-response","203","140072","0.0-211.0","39KFRKBFIOHTE35F88H27LFDDBEYO0","AS2MFSWNC5CQI","30UZJB2POHY4464FN6NBJ2NLFWF354","","919.1999998092651","img/food3.png","74","920.3999998569489","1","0","2","2","1,0.5,0,1,0.5,0,0.5,0,1","0,1,0.5,0,1,0.5,1,0.5,0","3","false",""
"","html-keyboard-response","204","140375","0.0-212.0","39KFRKBFIOHTE35F88H27LFDDBEYO0","AS2MFSWNC5CQI","30UZJB2POHY4464FN6NBJ2NLFWF354","","null","<img src=""img/food3.png"" style=""width:200px;border:14px solid red;"">","null","","","","","","","","","",""
"","image-keyboard-response","205","141313","0.0-214.0","39KFRKBFIOHTE35F88H27LFDDBEYO0","AS2MFSWNC5CQI","30UZJB2POHY4464FN6NBJ2NLFWF354","","937.5","img/food4.png","75","938.5","2","1","3","2","1,0.5,0,1,0.5,0,0.5,0,1","0,1,0.5,0,1,0.5,1,0.5,0","3","false",""
"","html-keyboard-response","206","141616","0.0-215.0","39KFRKBFIOHTE35F88H27LFDDBEYO0","AS2MFSWNC5CQI","30UZJB2POHY4464FN6NBJ2NLFWF354","","null","<img src=""img/food4.png"" style=""width:200px; border:14px solid green;"">","null","","","","","","","","","",""
"","image-keyboard-response","207","142434","0.0-217.0","39KFRKBFIOHTE35F88H27LFDDBEYO0","AS2MFSWNC5CQI","30UZJB2POHY4464FN6NBJ2NLFWF354","","815.8000001907349","img/food5.png","75","817.2000000476837","2","1","1","2","1,0.5,0,1,0.5,0,0.5,0,1","0,1,0.5,0,1,0.5,1,0.5,0","3","false",""
"","html-keyboard-response","208","142737","0.0-218.0","39KFRKBFIOHTE35F88H27LFDDBEYO0","AS2MFSWNC5CQI","30UZJB2POHY4464FN6NBJ2NLFWF354","","null","<img src=""img/food5.png"" style=""width:200px; border:14px solid green;"">","null","","","","","","","","","",""
"","image-keyboard-response","209","143329","0.0-220.0","39KFRKBFIOHTE35F88H27LFDDBEYO0","AS2MFSWNC5CQI","30UZJB2POHY4464FN6NBJ2NLFWF354","","590.7999999523163","img/food4.png","75","592.3000001907349","2","0","3","2","1,0.5,0,1,0.5,0,0.5,0,1","0,1,0.5,0,1,0.5,1,0.5,0","3","false",""
"","html-keyboard-response","210","143632","0.0-221.0","39KFRKBFIOHTE35F88H27LFDDBEYO0","AS2MFSWNC5CQI","30UZJB2POHY4464FN6NBJ2NLFWF354","","null","<img src=""img/food4.png"" style=""width:200px;border:14px solid red;"">","null","","","","","","","","","",""
"","image-keyboard-response","211","144634","0.0-223.0","39KFRKBFIOHTE35F88H27LFDDBEYO0","AS2MFSWNC5CQI","30UZJB2POHY4464FN6NBJ2NLFWF354","","","img/food5.png","","1001.7999999523163","-1","0","1","2","1,0.5,0,1,0.5,0,0.5,0,1","0,1,0.5,0,1,0.5,1,0.5,0","3","true",""
"","html-keyboard-response","212","144937","0.0-224.0","39KFRKBFIOHTE35F88H27LFDDBEYO0","AS2MFSWNC5CQI","30UZJB2POHY4464FN6NBJ2NLFWF354","","null","<img src=""img/food5.png"" style=""width:200px;border:14px solid red;"">","null","","","","","","","","","",""
"","html-keyboard-response","213","147187","0.0-225.0-0.0","39KFRKBFIOHTE35F88H27LFDDBEYO0","AS2MFSWNC5CQI","30UZJB2POHY4464FN6NBJ2NLFWF354","","","","","","","","","","","","","",""
"","image-keyboard-response","214","148190","0.0-226.0","39KFRKBFIOHTE35F88H27LFDDBEYO0","AS2MFSWNC5CQI","30UZJB2POHY4464FN6NBJ2NLFWF354","","","img/food3.png","","1002.2999999523163","-1","0","2","2","1,0.5,0,1,0.5,0,0.5,0,1","0,1,0.5,0,1,0.5,1,0.5,0","3","true",""
"","html-keyboard-response","215","148492","0.0-227.0","39KFRKBFIOHTE35F88H27LFDDBEYO0","AS2MFSWNC5CQI","30UZJB2POHY4464FN6NBJ2NLFWF354","","null","<img src=""img/food3.png"" style=""width:200px;border:14px solid red;"">","null","","","","","","","","","",""
"","html-keyboard-response","216","150443","0.0-228.0-0.0","39KFRKBFIOHTE35F88H27LFDDBEYO0","AS2MFSWNC5CQI","30UZJB2POHY4464FN6NBJ2NLFWF354","","","","","","","","","","","","","",""
"","image-keyboard-response","217","151377","0.0-229.0","39KFRKBFIOHTE35F88H27LFDDBEYO0","AS2MFSWNC5CQI","30UZJB2POHY4464FN6NBJ2NLFWF354","","933","img/food3.png","75","934","2","1","2","2","1,0.5,0,1,0.5,0,0.5,0,1","0,1,0.5,0,1,0.5,1,0.5,0","3","false",""
"","html-keyboard-response","218","151680","0.0-230.0","39KFRKBFIOHTE35F88H27LFDDBEYO0","AS2MFSWNC5CQI","30UZJB2POHY4464FN6NBJ2NLFWF354","","null","<img src=""img/food3.png"" style=""width:200px; border:14px solid green;"">","null","","","","","","","","","",""
"","image-keyboard-response","219","152313","0.0-232.0","39KFRKBFIOHTE35F88H27LFDDBEYO0","AS2MFSWNC5CQI","30UZJB2POHY4464FN6NBJ2NLFWF354","","631.5","img/food5.png","76","633.1000001430511","3","0","1","2","1,0.5,0,1,0.5,0,0.5,0,1","0,1,0.5,0,1,0.5,1,0.5,0","3","false",""
"","html-keyboard-response","220","152616","0.0-233.0","39KFRKBFIOHTE35F88H27LFDDBEYO0","AS2MFSWNC5CQI","30UZJB2POHY4464FN6NBJ2NLFWF354","","null","<img src=""img/food5.png"" style=""width:200px;border:14px solid red;"">","null","","","","","","","","","",""
"","image-keyboard-response","221","153569","0.0-235.0","39KFRKBFIOHTE35F88H27LFDDBEYO0","AS2MFSWNC5CQI","30UZJB2POHY4464FN6NBJ2NLFWF354","","951.2999999523163","img/food5.png","76","952.7999999523163","3","1","1","2","1,0.5,0,1,0.5,0,0.5,0,1","0,1,0.5,0,1,0.5,1,0.5,0","3","false",""
"","html-keyboard-response","222","153884","0.0-236.0","39KFRKBFIOHTE35F88H27LFDDBEYO0","AS2MFSWNC5CQI","30UZJB2POHY4464FN6NBJ2NLFWF354","","null","<img src=""img/food5.png"" style=""width:200px; border:14px solid green;"">","null","","","","","","","","","",""
"","image-keyboard-response","223","154451","0.0-238.0","39KFRKBFIOHTE35F88H27LFDDBEYO0","AS2MFSWNC5CQI","30UZJB2POHY4464FN6NBJ2NLFWF354","","564.2999999523163","img/food5.png","76","565.9000000953674","3","1","1","2","1,0.5,0,1,0.5,0,0.5,0,1","0,1,0.5,0,1,0.5,1,0.5,0","3","false",""
"","html-keyboard-response","224","154753","0.0-239.0","39KFRKBFIOHTE35F88H27LFDDBEYO0","AS2MFSWNC5CQI","30UZJB2POHY4464FN6NBJ2NLFWF354","","null","<img src=""img/food5.png"" style=""width:200px; border:14px solid green;"">","null","","","","","","","","","",""
"","image-keyboard-response","225","155275","0.0-241.0","39KFRKBFIOHTE35F88H27LFDDBEYO0","AS2MFSWNC5CQI","30UZJB2POHY4464FN6NBJ2NLFWF354","","519","img/food5.png","76","522","3","0","1","2","1,0.5,0,1,0.5,0,0.5,0,1","0,1,0.5,0,1,0.5,1,0.5,0","3","false",""
"","html-keyboard-response","226","155579","0.0-242.0","39KFRKBFIOHTE35F88H27LFDDBEYO0","AS2MFSWNC5CQI","30UZJB2POHY4464FN6NBJ2NLFWF354","","null","<img src=""img/food5.png"" style=""width:200px;border:14px solid red;"">","null","","","","","","","","","",""
"","image-keyboard-response","227","155832","0.0-244.0","39KFRKBFIOHTE35F88H27LFDDBEYO0","AS2MFSWNC5CQI","30UZJB2POHY4464FN6NBJ2NLFWF354","","251.09999990463257","img/food5.png","75","252.20000004768372","2","1","1","2","1,0.5,0,1,0.5,0,0.5,0,1","0,1,0.5,0,1,0.5,1,0.5,0","3","false",""
"","html-keyboard-response","228","156134","0.0-245.0","39KFRKBFIOHTE35F88H27LFDDBEYO0","AS2MFSWNC5CQI","30UZJB2POHY4464FN6NBJ2NLFWF354","","null","<img src=""img/food5.png"" style=""width:200px; border:14px solid green;"">","null","","","","","","","","","",""
"","image-keyboard-response","229","157121","0.0-247.0","39KFRKBFIOHTE35F88H27LFDDBEYO0","AS2MFSWNC5CQI","30UZJB2POHY4464FN6NBJ2NLFWF354","","985","img/food5.png","76","985.7999999523163","3","1","1","2","1,0.5,0,1,0.5,0,0.5,0,1","0,1,0.5,0,1,0.5,1,0.5,0","3","false",""
"","html-keyboard-response","230","157422","0.0-248.0","39KFRKBFIOHTE35F88H27LFDDBEYO0","AS2MFSWNC5CQI","30UZJB2POHY4464FN6NBJ2NLFWF354","","null","<img src=""img/food5.png"" style=""width:200px; border:14px solid green;"">","null","","","","","","","","","",""
"","image-keyboard-response","231","158088","0.0-250.0","39KFRKBFIOHTE35F88H27LFDDBEYO0","AS2MFSWNC5CQI","30UZJB2POHY4464FN6NBJ2NLFWF354","","664.0999999046326","img/food3.png","75","665.2999999523163","2","1","2","2","1,0.5,0,1,0.5,0,0.5,0,1","0,1,0.5,0,1,0.5,1,0.5,0","3","false",""
"","html-keyboard-response","232","158389","0.0-251.0","39KFRKBFIOHTE35F88H27LFDDBEYO0","AS2MFSWNC5CQI","30UZJB2POHY4464FN6NBJ2NLFWF354","","null","<img src=""img/food3.png"" style=""width:200px; border:14px solid green;"">","null","","","","","","","","","",""
"","image-keyboard-response","233","158904","0.0-253.0","39KFRKBFIOHTE35F88H27LFDDBEYO0","AS2MFSWNC5CQI","30UZJB2POHY4464FN6NBJ2NLFWF354","","512.7999999523163","img/food3.png","75","514.0999999046326","2","1","2","2","1,0.5,0,1,0.5,0,0.5,0,1","0,1,0.5,0,1,0.5,1,0.5,0","3","false",""
"","html-keyboard-response","234","159206","0.0-254.0","39KFRKBFIOHTE35F88H27LFDDBEYO0","AS2MFSWNC5CQI","30UZJB2POHY4464FN6NBJ2NLFWF354","","null","<img src=""img/food3.png"" style=""width:200px; border:14px solid green;"">","null","","","","","","","","","",""
"","image-keyboard-response","235","159585","0.0-256.0","39KFRKBFIOHTE35F88H27LFDDBEYO0","AS2MFSWNC5CQI","30UZJB2POHY4464FN6NBJ2NLFWF354","","377.59999990463257","img/food3.png","75","379.09999990463257","2","1","2","2","1,0.5,0,1,0.5,0,0.5,0,1","0,1,0.5,0,1,0.5,1,0.5,0","3","false",""
"","html-keyboard-response","236","159888","0.0-257.0","39KFRKBFIOHTE35F88H27LFDDBEYO0","AS2MFSWNC5CQI","30UZJB2POHY4464FN6NBJ2NLFWF354","","null","<img src=""img/food3.png"" style=""width:200px; border:14px solid green;"">","null","","","","","","","","","",""
"","image-keyboard-response","237","160072","0.0-259.0","39KFRKBFIOHTE35F88H27LFDDBEYO0","AS2MFSWNC5CQI","30UZJB2POHY4464FN6NBJ2NLFWF354","","183.5","img/food5.png","75","184.09999990463257","2","1","1","2","1,0.5,0,1,0.5,0,0.5,0,1","0,1,0.5,0,1,0.5,1,0.5,0","3","false",""
"","html-keyboard-response","238","160373","0.0-260.0","39KFRKBFIOHTE35F88H27LFDDBEYO0","AS2MFSWNC5CQI","30UZJB2POHY4464FN6NBJ2NLFWF354","","null","<img src=""img/food5.png"" style=""width:200px; border:14px solid green;"">","null","","","","","","","","","",""
"","image-keyboard-response","239","161033","0.0-262.0","39KFRKBFIOHTE35F88H27LFDDBEYO0","AS2MFSWNC5CQI","30UZJB2POHY4464FN6NBJ2NLFWF354","","657.8999998569489","img/food3.png","75","659.3999998569489","2","1","2","2","1,0.5,0,1,0.5,0,0.5,0,1","0,1,0.5,0,1,0.5,1,0.5,0","3","false",""
"","html-keyboard-response","240","161336","0.0-263.0","39KFRKBFIOHTE35F88H27LFDDBEYO0","AS2MFSWNC5CQI","30UZJB2POHY4464FN6NBJ2NLFWF354","","null","<img src=""img/food3.png"" style=""width:200px; border:14px solid green;"">","null","","","","","","","","","",""
"","image-keyboard-response","241","161793","0.0-265.0","39KFRKBFIOHTE35F88H27LFDDBEYO0","AS2MFSWNC5CQI","30UZJB2POHY4464FN6NBJ2NLFWF354","","456.7000000476837","img/food5.png","75","457.7999999523163","2","1","1","2","1,0.5,0,1,0.5,0,0.5,0,1","0,1,0.5,0,1,0.5,1,0.5,0","3","false",""
"","html-keyboard-response","242","162096","0.0-266.0","39KFRKBFIOHTE35F88H27LFDDBEYO0","AS2MFSWNC5CQI","30UZJB2POHY4464FN6NBJ2NLFWF354","","null","<img src=""img/food5.png"" style=""width:200px; border:14px solid green;"">","null","","","","","","","","","",""
"","image-keyboard-response","243","162576","0.0-268.0","39KFRKBFIOHTE35F88H27LFDDBEYO0","AS2MFSWNC5CQI","30UZJB2POHY4464FN6NBJ2NLFWF354","","478.7000000476837","img/food5.png","75","479.2000000476837","2","1","1","2","1,0.5,0,1,0.5,0,0.5,0,1","0,1,0.5,0,1,0.5,1,0.5,0","3","false",""
"","html-keyboard-response","244","162886","0.0-269.0","39KFRKBFIOHTE35F88H27LFDDBEYO0","AS2MFSWNC5CQI","30UZJB2POHY4464FN6NBJ2NLFWF354","","null","<img src=""img/food5.png"" style=""width:200px; border:14px solid green;"">","null","","","","","","","","","",""
"","image-keyboard-response","245","163528","0.0-271.0","39KFRKBFIOHTE35F88H27LFDDBEYO0","AS2MFSWNC5CQI","30UZJB2POHY4464FN6NBJ2NLFWF354","","639.8999998569489","img/food4.png","76","641.0999999046326","3","0","3","2","1,0.5,0,1,0.5,0,0.5,0,1","0,1,0.5,0,1,0.5,1,0.5,0","3","false",""
"","html-keyboard-response","246","163829","0.0-272.0","39KFRKBFIOHTE35F88H27LFDDBEYO0","AS2MFSWNC5CQI","30UZJB2POHY4464FN6NBJ2NLFWF354","","null","<img src=""img/food4.png"" style=""width:200px;border:14px solid red;"">","null","","","","","","","","","",""
"","image-keyboard-response","247","164321","0.0-274.0","39KFRKBFIOHTE35F88H27LFDDBEYO0","AS2MFSWNC5CQI","30UZJB2POHY4464FN6NBJ2NLFWF354","","491","img/food3.png","75","492","2","1","2","2","1,0.5,0,1,0.5,0,0.5,0,1","0,1,0.5,0,1,0.5,1,0.5,0","3","false",""
"","html-keyboard-response","248","164632","0.0-275.0","39KFRKBFIOHTE35F88H27LFDDBEYO0","AS2MFSWNC5CQI","30UZJB2POHY4464FN6NBJ2NLFWF354","","null","<img src=""img/food3.png"" style=""width:200px; border:14px solid green;"">","null","","","","","","","","","",""
"","image-keyboard-response","249","165112","0.0-277.0","39KFRKBFIOHTE35F88H27LFDDBEYO0","AS2MFSWNC5CQI","30UZJB2POHY4464FN6NBJ2NLFWF354","","477.89999985694885","img/food5.png","75","479.19999980926514","2","1","1","2","1,0.5,0,1,0.5,0,0.5,0,1","0,1,0.5,0,1,0.5,1,0.5,0","3","false",""
"","html-keyboard-response","250","165414","0.0-278.0","39KFRKBFIOHTE35F88H27LFDDBEYO0","AS2MFSWNC5CQI","30UZJB2POHY4464FN6NBJ2NLFWF354","","null","<img src=""img/food5.png"" style=""width:200px; border:14px solid green;"">","null","","","","","","","","","",""
"","image-keyboard-response","251","165921","0.0-280.0","39KFRKBFIOHTE35F88H27LFDDBEYO0","AS2MFSWNC5CQI","30UZJB2POHY4464FN6NBJ2NLFWF354","","505.5","img/food4.png","75","507.30000019073486","2","0","3","2","1,0.5,0,1,0.5,0,0.5,0,1","0,1,0.5,0,1,0.5,1,0.5,0","3","false",""
"","html-keyboard-response","252","166224","0.0-281.0","39KFRKBFIOHTE35F88H27LFDDBEYO0","AS2MFSWNC5CQI","30UZJB2POHY4464FN6NBJ2NLFWF354","","null","<img src=""img/food4.png"" style=""width:200px;border:14px solid red;"">","null","","","","","","","","","",""
"","image-keyboard-response","253","166754","0.0-283.0","39KFRKBFIOHTE35F88H27LFDDBEYO0","AS2MFSWNC5CQI","30UZJB2POHY4464FN6NBJ2NLFWF354","","527.7000000476837","img/food4.png","76","529.2999999523163","3","0","3","2","1,0.5,0,1,0.5,0,0.5,0,1","0,1,0.5,0,1,0.5,1,0.5,0","3","false",""
"","html-keyboard-response","254","167057","0.0-284.0","39KFRKBFIOHTE35F88H27LFDDBEYO0","AS2MFSWNC5CQI","30UZJB2POHY4464FN6NBJ2NLFWF354","","null","<img src=""img/food4.png"" style=""width:200px;border:14px solid red;"">","null","","","","","","","","","",""
"","image-keyboard-response","255","168058","0.0-286.0","39KFRKBFIOHTE35F88H27LFDDBEYO0","AS2MFSWNC5CQI","30UZJB2POHY4464FN6NBJ2NLFWF354","","","img/food4.png","","1001.1999998092651","-1","0","3","2","1,0.5,0,1,0.5,0,0.5,0,1","0,1,0.5,0,1,0.5,1,0.5,0","3","true",""
"","html-keyboard-response","256","168359","0.0-287.0","39KFRKBFIOHTE35F88H27LFDDBEYO0","AS2MFSWNC5CQI","30UZJB2POHY4464FN6NBJ2NLFWF354","","null","<img src=""img/food4.png"" style=""width:200px;border:14px solid red;"">","null","","","","","","","","","",""
"","html-keyboard-response","257","170535","0.0-288.0-0.0","39KFRKBFIOHTE35F88H27LFDDBEYO0","AS2MFSWNC5CQI","30UZJB2POHY4464FN6NBJ2NLFWF354","","","","","","","","","","","","","",""
"","image-keyboard-response","258","171153","0.0-289.0","39KFRKBFIOHTE35F88H27LFDDBEYO0","AS2MFSWNC5CQI","30UZJB2POHY4464FN6NBJ2NLFWF354","","616.6999998092651","img/food4.png","74","617.6999998092651","1","1","3","2","1,0.5,0,1,0.5,0,0.5,0,1","0,1,0.5,0,1,0.5,1,0.5,0","3","false",""
"","html-keyboard-response","259","171455","0.0-290.0","39KFRKBFIOHTE35F88H27LFDDBEYO0","AS2MFSWNC5CQI","30UZJB2POHY4464FN6NBJ2NLFWF354","","null","<img src=""img/food4.png"" style=""width:200px; border:14px solid green;"">","null","","","","","","","","","",""
"","image-keyboard-response","260","172080","0.0-292.0","39KFRKBFIOHTE35F88H27LFDDBEYO0","AS2MFSWNC5CQI","30UZJB2POHY4464FN6NBJ2NLFWF354","","623.7000000476837","img/food4.png","74","624.9000000953674","1","1","3","2","1,0.5,0,1,0.5,0,0.5,0,1","0,1,0.5,0,1,0.5,1,0.5,0","3","false",""
"","html-keyboard-response","261","172381","0.0-293.0","39KFRKBFIOHTE35F88H27LFDDBEYO0","AS2MFSWNC5CQI","30UZJB2POHY4464FN6NBJ2NLFWF354","","null","<img src=""img/food4.png"" style=""width:200px; border:14px solid green;"">","null","","","","","","","","","",""
"","image-keyboard-response","262","172752","0.0-295.0","39KFRKBFIOHTE35F88H27LFDDBEYO0","AS2MFSWNC5CQI","30UZJB2POHY4464FN6NBJ2NLFWF354","","368.89999985694885","img/food4.png","74","370.09999990463257","1","1","3","2","1,0.5,0,1,0.5,0,0.5,0,1","0,1,0.5,0,1,0.5,1,0.5,0","3","false",""
"","html-keyboard-response","263","173067","0.0-296.0","39KFRKBFIOHTE35F88H27LFDDBEYO0","AS2MFSWNC5CQI","30UZJB2POHY4464FN6NBJ2NLFWF354","","null","<img src=""img/food4.png"" style=""width:200px; border:14px solid green;"">","null","","","","","","","","","",""
"","image-keyboard-response","264","173464","0.0-298.0","39KFRKBFIOHTE35F88H27LFDDBEYO0","AS2MFSWNC5CQI","30UZJB2POHY4464FN6NBJ2NLFWF354","","395.90000009536743","img/food4.png","74","396.5","1","1","3","2","1,0.5,0,1,0.5,0,0.5,0,1","0,1,0.5,0,1,0.5,1,0.5,0","3","false",""
"","html-keyboard-response","265","173766","0.0-299.0","39KFRKBFIOHTE35F88H27LFDDBEYO0","AS2MFSWNC5CQI","30UZJB2POHY4464FN6NBJ2NLFWF354","","null","<img src=""img/food4.png"" style=""width:200px; border:14px solid green;"">","null","","","","","","","","","",""
"","image-keyboard-response","266","174096","0.0-301.0","39KFRKBFIOHTE35F88H27LFDDBEYO0","AS2MFSWNC5CQI","30UZJB2POHY4464FN6NBJ2NLFWF354","","327.7999999523163","img/food4.png","74","329","1","1","3","2","1,0.5,0,1,0.5,0,0.5,0,1","0,1,0.5,0,1,0.5,1,0.5,0","3","false",""
"","html-keyboard-response","267","174399","0.0-302.0","39KFRKBFIOHTE35F88H27LFDDBEYO0","AS2MFSWNC5CQI","30UZJB2POHY4464FN6NBJ2NLFWF354","","null","<img src=""img/food4.png"" style=""width:200px; border:14px solid green;"">","null","","","","","","","","","",""
"","image-keyboard-response","268","174593","0.0-304.0","39KFRKBFIOHTE35F88H27LFDDBEYO0","AS2MFSWNC5CQI","30UZJB2POHY4464FN6NBJ2NLFWF354","","192.5","img/food3.png","74","194.10000014305115","1","0","2","2","1,0.5,0,1,0.5,0,0.5,0,1","0,1,0.5,0,1,0.5,1,0.5,0","3","false",""
"","html-keyboard-response","269","174896","0.0-305.0","39KFRKBFIOHTE35F88H27LFDDBEYO0","AS2MFSWNC5CQI","30UZJB2POHY4464FN6NBJ2NLFWF354","","null","<img src=""img/food3.png"" style=""width:200px;border:14px solid red;"">","null","","","","","","","","","",""
"","image-keyboard-response","270","175451","0.0-307.0","39KFRKBFIOHTE35F88H27LFDDBEYO0","AS2MFSWNC5CQI","30UZJB2POHY4464FN6NBJ2NLFWF354","","552.7999999523163","img/food5.png","75","554.4000000953674","2","1","1","2","1,0.5,0,1,0.5,0,0.5,0,1","0,1,0.5,0,1,0.5,1,0.5,0","3","false",""
"","html-keyboard-response","271","175754","0.0-308.0","39KFRKBFIOHTE35F88H27LFDDBEYO0","AS2MFSWNC5CQI","30UZJB2POHY4464FN6NBJ2NLFWF354","","null","<img src=""img/food5.png"" style=""width:200px; border:14px solid green;"">","null","","","","","","","","","",""
"","image-keyboard-response","272","176473","0.0-310.0","39KFRKBFIOHTE35F88H27LFDDBEYO0","AS2MFSWNC5CQI","30UZJB2POHY4464FN6NBJ2NLFWF354","","717.2000000476837","img/food4.png","74","718.7999999523163","1","1","3","2","1,0.5,0,1,0.5,0,0.5,0,1","0,1,0.5,0,1,0.5,1,0.5,0","3","false",""
"","html-keyboard-response","273","176776","0.0-311.0","39KFRKBFIOHTE35F88H27LFDDBEYO0","AS2MFSWNC5CQI","30UZJB2POHY4464FN6NBJ2NLFWF354","","null","<img src=""img/food4.png"" style=""width:200px; border:14px solid green;"">","null","","","","","","","","","",""
"","image-keyboard-response","274","177538","0.0-313.0","39KFRKBFIOHTE35F88H27LFDDBEYO0","AS2MFSWNC5CQI","30UZJB2POHY4464FN6NBJ2NLFWF354","","760.2000000476837","img/food3.png","74","761.6999998092651","1","0","2","2","1,0.5,0,1,0.5,0,0.5,0,1","0,1,0.5,0,1,0.5,1,0.5,0","3","false",""
"","html-keyboard-response","275","177844","0.0-314.0","39KFRKBFIOHTE35F88H27LFDDBEYO0","AS2MFSWNC5CQI","30UZJB2POHY4464FN6NBJ2NLFWF354","","null","<img src=""img/food3.png"" style=""width:200px;border:14px solid red;"">","null","","","","","","","","","",""
"","image-keyboard-response","276","178720","0.0-316.0","39KFRKBFIOHTE35F88H27LFDDBEYO0","AS2MFSWNC5CQI","30UZJB2POHY4464FN6NBJ2NLFWF354","","874.6999998092651","img/food5.png","75","875.9000000953674","2","1","1","2","1,0.5,0,1,0.5,0,0.5,0,1","0,1,0.5,0,1,0.5,1,0.5,0","3","false",""
"","html-keyboard-response","277","179023","0.0-317.0","39KFRKBFIOHTE35F88H27LFDDBEYO0","AS2MFSWNC5CQI","30UZJB2POHY4464FN6NBJ2NLFWF354","","null","<img src=""img/food5.png"" style=""width:200px; border:14px solid green;"">","null","","","","","","","","","",""
"","image-keyboard-response","278","179538","0.0-319.0","39KFRKBFIOHTE35F88H27LFDDBEYO0","AS2MFSWNC5CQI","30UZJB2POHY4464FN6NBJ2NLFWF354","","513","img/food5.png","75","514.5","2","1","1","2","1,0.5,0,1,0.5,0,0.5,0,1","0,1,0.5,0,1,0.5,1,0.5,0","3","false",""
"","html-keyboard-response","279","179841","0.0-320.0","39KFRKBFIOHTE35F88H27LFDDBEYO0","AS2MFSWNC5CQI","30UZJB2POHY4464FN6NBJ2NLFWF354","","null","<img src=""img/food5.png"" style=""width:200px; border:14px solid green;"">","null","","","","","","","","","",""
"","image-keyboard-response","280","180235","0.0-322.0","39KFRKBFIOHTE35F88H27LFDDBEYO0","AS2MFSWNC5CQI","30UZJB2POHY4464FN6NBJ2NLFWF354","","391.5","img/food5.png","75","393.09999990463257","2","1","1","2","1,0.5,0,1,0.5,0,0.5,0,1","0,1,0.5,0,1,0.5,1,0.5,0","3","false",""
"","html-keyboard-response","281","180538","0.0-323.0","39KFRKBFIOHTE35F88H27LFDDBEYO0","AS2MFSWNC5CQI","30UZJB2POHY4464FN6NBJ2NLFWF354","","null","<img src=""img/food5.png"" style=""width:200px; border:14px solid green;"">","null","","","","","","","","","",""
"","image-keyboard-response","282","180833","0.0-325.0","39KFRKBFIOHTE35F88H27LFDDBEYO0","AS2MFSWNC5CQI","30UZJB2POHY4464FN6NBJ2NLFWF354","","293.2000000476837","img/food5.png","75","294.7000000476837","2","1","1","2","1,0.5,0,1,0.5,0,0.5,0,1","0,1,0.5,0,1,0.5,1,0.5,0","3","false",""
"","html-keyboard-response","283","181136","0.0-326.0","39KFRKBFIOHTE35F88H27LFDDBEYO0","AS2MFSWNC5CQI","30UZJB2POHY4464FN6NBJ2NLFWF354","","null","<img src=""img/food5.png"" style=""width:200px; border:14px solid green;"">","null","","","","","","","","","",""
"","image-keyboard-response","284","181689","0.0-328.0","39KFRKBFIOHTE35F88H27LFDDBEYO0","AS2MFSWNC5CQI","30UZJB2POHY4464FN6NBJ2NLFWF354","","551.2999999523163","img/food4.png","74","552.9000000953674","1","1","3","2","1,0.5,0,1,0.5,0,0.5,0,1","0,1,0.5,0,1,0.5,1,0.5,0","3","false",""
"","html-keyboard-response","285","181991","0.0-329.0","39KFRKBFIOHTE35F88H27LFDDBEYO0","AS2MFSWNC5CQI","30UZJB2POHY4464FN6NBJ2NLFWF354","","null","<img src=""img/food4.png"" style=""width:200px; border:14px solid green;"">","null","","","","","","","","","",""
"","image-keyboard-response","286","182538","0.0-331.0","39KFRKBFIOHTE35F88H27LFDDBEYO0","AS2MFSWNC5CQI","30UZJB2POHY4464FN6NBJ2NLFWF354","","545","img/food5.png","75","546.3999998569489","2","1","1","2","1,0.5,0,1,0.5,0,0.5,0,1","0,1,0.5,0,1,0.5,1,0.5,0","3","false",""
"","html-keyboard-response","287","182842","0.0-332.0","39KFRKBFIOHTE35F88H27LFDDBEYO0","AS2MFSWNC5CQI","30UZJB2POHY4464FN6NBJ2NLFWF354","","null","<img src=""img/food5.png"" style=""width:200px; border:14px solid green;"">","null","","","","","","","","","",""
"","image-keyboard-response","288","183627","0.0-334.0","39KFRKBFIOHTE35F88H27LFDDBEYO0","AS2MFSWNC5CQI","30UZJB2POHY4464FN6NBJ2NLFWF354","","782.5","img/food3.png","74","784.0999999046326","1","0","2","2","1,0.5,0,1,0.5,0,0.5,0,1","0,1,0.5,0,1,0.5,1,0.5,0","3","false",""
"","html-keyboard-response","289","183930","0.0-335.0","39KFRKBFIOHTE35F88H27LFDDBEYO0","AS2MFSWNC5CQI","30UZJB2POHY4464FN6NBJ2NLFWF354","","null","<img src=""img/food3.png"" style=""width:200px;border:14px solid red;"">","null","","","","","","","","","",""
"","image-keyboard-response","290","184935","0.0-337.0","39KFRKBFIOHTE35F88H27LFDDBEYO0","AS2MFSWNC5CQI","30UZJB2POHY4464FN6NBJ2NLFWF354","","","img/food3.png","","1002.5999999046326","-1","0","2","2","1,0.5,0,1,0.5,0,0.5,0,1","0,1,0.5,0,1,0.5,1,0.5,0","3","true",""
"","html-keyboard-response","291","185238","0.0-338.0","39KFRKBFIOHTE35F88H27LFDDBEYO0","AS2MFSWNC5CQI","30UZJB2POHY4464FN6NBJ2NLFWF354","","null","<img src=""img/food3.png"" style=""width:200px;border:14px solid red;"">","null","","","","","","","","","",""
"","html-keyboard-response","292","187295","0.0-339.0-0.0","39KFRKBFIOHTE35F88H27LFDDBEYO0","AS2MFSWNC5CQI","30UZJB2POHY4464FN6NBJ2NLFWF354","","","","","","","","","","","","","",""
"","image-keyboard-response","293","187968","0.0-340.0","39KFRKBFIOHTE35F88H27LFDDBEYO0","AS2MFSWNC5CQI","30UZJB2POHY4464FN6NBJ2NLFWF354","","672.2000000476837","img/food3.png","75","672.8999998569489","2","1","2","2","1,0.5,0,1,0.5,0,0.5,0,1","0,1,0.5,0,1,0.5,1,0.5,0","3","false",""
"","html-keyboard-response","294","188271","0.0-341.0","39KFRKBFIOHTE35F88H27LFDDBEYO0","AS2MFSWNC5CQI","30UZJB2POHY4464FN6NBJ2NLFWF354","","null","<img src=""img/food3.png"" style=""width:200px; border:14px solid green;"">","null","","","","","","","","","",""
"","image-keyboard-response","295","189003","0.0-343.0","39KFRKBFIOHTE35F88H27LFDDBEYO0","AS2MFSWNC5CQI","30UZJB2POHY4464FN6NBJ2NLFWF354","","729.8000001907349","img/food5.png","74","731.2999999523163","1","0","1","2","1,0.5,0,1,0.5,0,0.5,0,1","0,1,0.5,0,1,0.5,1,0.5,0","3","false",""
"","html-keyboard-response","296","189306","0.0-344.0","39KFRKBFIOHTE35F88H27LFDDBEYO0","AS2MFSWNC5CQI","30UZJB2POHY4464FN6NBJ2NLFWF354","","null","<img src=""img/food5.png"" style=""width:200px;border:14px solid red;"">","null","","","","","","","","","",""
"","image-keyboard-response","297","189891","0.0-346.0","39KFRKBFIOHTE35F88H27LFDDBEYO0","AS2MFSWNC5CQI","30UZJB2POHY4464FN6NBJ2NLFWF354","","583.7000000476837","img/food3.png","75","584.7000000476837","2","1","2","2","1,0.5,0,1,0.5,0,0.5,0,1","0,1,0.5,0,1,0.5,1,0.5,0","3","false",""
"","html-keyboard-response","298","190193","0.0-347.0","39KFRKBFIOHTE35F88H27LFDDBEYO0","AS2MFSWNC5CQI","30UZJB2POHY4464FN6NBJ2NLFWF354","","null","<img src=""img/food3.png"" style=""width:200px; border:14px solid green;"">","null","","","","","","","","","",""
"","image-keyboard-response","299","190955","0.0-349.0","39KFRKBFIOHTE35F88H27LFDDBEYO0","AS2MFSWNC5CQI","30UZJB2POHY4464FN6NBJ2NLFWF354","","759.6000001430511","img/food4.png","75","761.3999998569489","2","1","3","2","1,0.5,0,1,0.5,0,0.5,0,1","0,1,0.5,0,1,0.5,1,0.5,0","3","false",""
"","html-keyboard-response","300","191258","0.0-350.0","39KFRKBFIOHTE35F88H27LFDDBEYO0","AS2MFSWNC5CQI","30UZJB2POHY4464FN6NBJ2NLFWF354","","null","<img src=""img/food4.png"" style=""width:200px; border:14px solid green;"">","null","","","","","","","","","",""
"","image-keyboard-response","301","191776","0.0-352.0","39KFRKBFIOHTE35F88H27LFDDBEYO0","AS2MFSWNC5CQI","30UZJB2POHY4464FN6NBJ2NLFWF354","","516.0999999046326","img/food3.png","75","517.2999999523163","2","1","2","2","1,0.5,0,1,0.5,0,0.5,0,1","0,1,0.5,0,1,0.5,1,0.5,0","3","false",""
"","html-keyboard-response","302","192078","0.0-353.0","39KFRKBFIOHTE35F88H27LFDDBEYO0","AS2MFSWNC5CQI","30UZJB2POHY4464FN6NBJ2NLFWF354","","null","<img src=""img/food3.png"" style=""width:200px; border:14px solid green;"">","null","","","","","","","","","",""
"","image-keyboard-response","303","192632","0.0-355.0","39KFRKBFIOHTE35F88H27LFDDBEYO0","AS2MFSWNC5CQI","30UZJB2POHY4464FN6NBJ2NLFWF354","","553","img/food3.png","75","553.7999999523163","2","1","2","2","1,0.5,0,1,0.5,0,0.5,0,1","0,1,0.5,0,1,0.5,1,0.5,0","3","false",""
"","html-keyboard-response","304","192933","0.0-356.0","39KFRKBFIOHTE35F88H27LFDDBEYO0","AS2MFSWNC5CQI","30UZJB2POHY4464FN6NBJ2NLFWF354","","null","<img src=""img/food3.png"" style=""width:200px; border:14px solid green;"">","null","","","","","","","","","",""
"","image-keyboard-response","305","193537","0.0-358.0","39KFRKBFIOHTE35F88H27LFDDBEYO0","AS2MFSWNC5CQI","30UZJB2POHY4464FN6NBJ2NLFWF354","","602.1000001430511","img/food4.png","74","603.7999999523163","1","1","3","2","1,0.5,0,1,0.5,0,0.5,0,1","0,1,0.5,0,1,0.5,1,0.5,0","3","false",""
"","html-keyboard-response","306","193840","0.0-359.0","39KFRKBFIOHTE35F88H27LFDDBEYO0","AS2MFSWNC5CQI","30UZJB2POHY4464FN6NBJ2NLFWF354","","null","<img src=""img/food4.png"" style=""width:200px; border:14px solid green;"">","null","","","","","","","","","",""
"","image-keyboard-response","307","194418","0.0-361.0","39KFRKBFIOHTE35F88H27LFDDBEYO0","AS2MFSWNC5CQI","30UZJB2POHY4464FN6NBJ2NLFWF354","","575.6000001430511","img/food4.png","75","577.0999999046326","2","0","3","2","1,0.5,0,1,0.5,0,0.5,0,1","0,1,0.5,0,1,0.5,1,0.5,0","3","false",""
"","html-keyboard-response","308","194721","0.0-362.0","39KFRKBFIOHTE35F88H27LFDDBEYO0","AS2MFSWNC5CQI","30UZJB2POHY4464FN6NBJ2NLFWF354","","null","<img src=""img/food4.png"" style=""width:200px;border:14px solid red;"">","null","","","","","","","","","",""
"","image-keyboard-response","309","195386","0.0-364.0","39KFRKBFIOHTE35F88H27LFDDBEYO0","AS2MFSWNC5CQI","30UZJB2POHY4464FN6NBJ2NLFWF354","","663.0999999046326","img/food3.png","75","664.5999999046326","2","1","2","2","1,0.5,0,1,0.5,0,0.5,0,1","0,1,0.5,0,1,0.5,1,0.5,0","3","false",""
"","html-keyboard-response","310","195688","0.0-365.0","39KFRKBFIOHTE35F88H27LFDDBEYO0","AS2MFSWNC5CQI","30UZJB2POHY4464FN6NBJ2NLFWF354","","null","<img src=""img/food3.png"" style=""width:200px; border:14px solid green;"">","null","","","","","","","","","",""
"","image-keyboard-response","311","196225","0.0-367.0","39KFRKBFIOHTE35F88H27LFDDBEYO0","AS2MFSWNC5CQI","30UZJB2POHY4464FN6NBJ2NLFWF354","","535.8999998569489","img/food3.png","75","536.9000000953674","2","1","2","2","1,0.5,0,1,0.5,0,0.5,0,1","0,1,0.5,0,1,0.5,1,0.5,0","3","false",""
"","html-keyboard-response","312","196529","0.0-368.0","39KFRKBFIOHTE35F88H27LFDDBEYO0","AS2MFSWNC5CQI","30UZJB2POHY4464FN6NBJ2NLFWF354","","null","<img src=""img/food3.png"" style=""width:200px; border:14px solid green;"">","null","","","","","","","","","",""
"","image-keyboard-response","313","197169","0.0-370.0","39KFRKBFIOHTE35F88H27LFDDBEYO0","AS2MFSWNC5CQI","30UZJB2POHY4464FN6NBJ2NLFWF354","","639.7000000476837","img/food4.png","75","640.7000000476837","2","1","3","2","1,0.5,0,1,0.5,0,0.5,0,1","0,1,0.5,0,1,0.5,1,0.5,0","3","false",""
"","html-keyboard-response","314","197472","0.0-371.0","39KFRKBFIOHTE35F88H27LFDDBEYO0","AS2MFSWNC5CQI","30UZJB2POHY4464FN6NBJ2NLFWF354","","null","<img src=""img/food4.png"" style=""width:200px; border:14px solid green;"">","null","","","","","","","","","",""
"","image-keyboard-response","315","198194","0.0-373.0","39KFRKBFIOHTE35F88H27LFDDBEYO0","AS2MFSWNC5CQI","30UZJB2POHY4464FN6NBJ2NLFWF354","","719.7999999523163","img/food3.png","75","721.2999999523163","2","1","2","2","1,0.5,0,1,0.5,0,0.5,0,1","0,1,0.5,0,1,0.5,1,0.5,0","3","false",""
"","html-keyboard-response","316","198496","0.0-374.0","39KFRKBFIOHTE35F88H27LFDDBEYO0","AS2MFSWNC5CQI","30UZJB2POHY4464FN6NBJ2NLFWF354","","null","<img src=""img/food3.png"" style=""width:200px; border:14px solid green;"">","null","","","","","","","","","",""
"","image-keyboard-response","317","198938","0.0-376.0","39KFRKBFIOHTE35F88H27LFDDBEYO0","AS2MFSWNC5CQI","30UZJB2POHY4464FN6NBJ2NLFWF354","","440.7999999523163","img/food3.png","75","441.7000000476837","2","1","2","2","1,0.5,0,1,0.5,0,0.5,0,1","0,1,0.5,0,1,0.5,1,0.5,0","3","false",""
"","html-keyboard-response","318","199241","0.0-377.0","39KFRKBFIOHTE35F88H27LFDDBEYO0","AS2MFSWNC5CQI","30UZJB2POHY4464FN6NBJ2NLFWF354","","null","<img src=""img/food3.png"" style=""width:200px; border:14px solid green;"">","null","","","","","","","","","",""
"","image-keyboard-response","319","199905","0.0-379.0","39KFRKBFIOHTE35F88H27LFDDBEYO0","AS2MFSWNC5CQI","30UZJB2POHY4464FN6NBJ2NLFWF354","","662.5","img/food4.png","75","664.1000001430511","2","1","3","2","1,0.5,0,1,0.5,0,0.5,0,1","0,1,0.5,0,1,0.5,1,0.5,0","3","false",""
"","html-keyboard-response","320","200208","0.0-380.0","39KFRKBFIOHTE35F88H27LFDDBEYO0","AS2MFSWNC5CQI","30UZJB2POHY4464FN6NBJ2NLFWF354","","null","<img src=""img/food4.png"" style=""width:200px; border:14px solid green;"">","null","","","","","","","","","",""
"","image-keyboard-response","321","200778","0.0-382.0","39KFRKBFIOHTE35F88H27LFDDBEYO0","AS2MFSWNC5CQI","30UZJB2POHY4464FN6NBJ2NLFWF354","","567.7000000476837","img/food5.png","75","569.4000000953674","2","1","1","2","1,0.5,0,1,0.5,0,0.5,0,1","0,1,0.5,0,1,0.5,1,0.5,0","3","false",""
"","html-keyboard-response","322","201081","0.0-383.0","39KFRKBFIOHTE35F88H27LFDDBEYO0","AS2MFSWNC5CQI","30UZJB2POHY4464FN6NBJ2NLFWF354","","null","<img src=""img/food5.png"" style=""width:200px; border:14px solid green;"">","null","","","","","","","","","",""
"","image-keyboard-response","323","201536","0.0-385.0","39KFRKBFIOHTE35F88H27LFDDBEYO0","AS2MFSWNC5CQI","30UZJB2POHY4464FN6NBJ2NLFWF354","","454.2000000476837","img/food4.png","75","454.7999999523163","2","0","3","2","1,0.5,0,1,0.5,0,0.5,0,1","0,1,0.5,0,1,0.5,1,0.5,0","3","false",""
"","html-keyboard-response","324","201839","0.0-386.0","39KFRKBFIOHTE35F88H27LFDDBEYO0","AS2MFSWNC5CQI","30UZJB2POHY4464FN6NBJ2NLFWF354","","null","<img src=""img/food4.png"" style=""width:200px;border:14px solid red;"">","null","","","","","","","","","",""
"","image-keyboard-response","325","202681","0.0-388.0","39KFRKBFIOHTE35F88H27LFDDBEYO0","AS2MFSWNC5CQI","30UZJB2POHY4464FN6NBJ2NLFWF354","","840.8999998569489","img/food3.png","75","842.4000000953674","2","1","2","2","1,0.5,0,1,0.5,0,0.5,0,1","0,1,0.5,0,1,0.5,1,0.5,0","3","false",""
"","html-keyboard-response","326","202985","0.0-389.0","39KFRKBFIOHTE35F88H27LFDDBEYO0","AS2MFSWNC5CQI","30UZJB2POHY4464FN6NBJ2NLFWF354","","null","<img src=""img/food3.png"" style=""width:200px; border:14px solid green;"">","null","","","","","","","","","",""
"","image-keyboard-response","327","203561","0.0-391.0","39KFRKBFIOHTE35F88H27LFDDBEYO0","AS2MFSWNC5CQI","30UZJB2POHY4464FN6NBJ2NLFWF354","","574.5999999046326","img/food5.png","75","576.1000001430511","2","1","1","2","1,0.5,0,1,0.5,0,0.5,0,1","0,1,0.5,0,1,0.5,1,0.5,0","3","false",""
"","html-keyboard-response","328","203870","0.0-392.0","39KFRKBFIOHTE35F88H27LFDDBEYO0","AS2MFSWNC5CQI","30UZJB2POHY4464FN6NBJ2NLFWF354","","null","<img src=""img/food5.png"" style=""width:200px; border:14px solid green;"">","null","","","","","","","","","",""
"","image-keyboard-response","329","204307","0.0-394.0","39KFRKBFIOHTE35F88H27LFDDBEYO0","AS2MFSWNC5CQI","30UZJB2POHY4464FN6NBJ2NLFWF354","","434.60000014305115","img/food4.png","75","436.2999999523163","2","1","3","2","1,0.5,0,1,0.5,0,0.5,0,1","0,1,0.5,0,1,0.5,1,0.5,0","3","false",""
"","html-keyboard-response","330","204609","0.0-395.0","39KFRKBFIOHTE35F88H27LFDDBEYO0","AS2MFSWNC5CQI","30UZJB2POHY4464FN6NBJ2NLFWF354","","null","<img src=""img/food4.png"" style=""width:200px; border:14px solid green;"">","null","","","","","","","","","",""
"","image-keyboard-response","331","205018","0.0-397.0","39KFRKBFIOHTE35F88H27LFDDBEYO0","AS2MFSWNC5CQI","30UZJB2POHY4464FN6NBJ2NLFWF354","","406.7000000476837","img/food5.png","75","408.2000000476837","2","1","1","2","1,0.5,0,1,0.5,0,0.5,0,1","0,1,0.5,0,1,0.5,1,0.5,0","3","false",""
"","html-keyboard-response","332","205320","0.0-398.0","39KFRKBFIOHTE35F88H27LFDDBEYO0","AS2MFSWNC5CQI","30UZJB2POHY4464FN6NBJ2NLFWF354","","null","<img src=""img/food5.png"" style=""width:200px; border:14px solid green;"">","null","","","","","","","","","",""
"","image-keyboard-response","333","205755","0.0-400.0","39KFRKBFIOHTE35F88H27LFDDBEYO0","AS2MFSWNC5CQI","30UZJB2POHY4464FN6NBJ2NLFWF354","","433.10000014305115","img/food5.png","75","434.19999980926514","2","1","1","2","1,0.5,0,1,0.5,0,0.5,0,1","0,1,0.5,0,1,0.5,1,0.5,0","3","false",""
"","html-keyboard-response","334","206058","0.0-401.0","39KFRKBFIOHTE35F88H27LFDDBEYO0","AS2MFSWNC5CQI","30UZJB2POHY4464FN6NBJ2NLFWF354","","null","<img src=""img/food5.png"" style=""width:200px; border:14px solid green;"">","null","","","","","","","","","",""
"","image-keyboard-response","335","206473","0.0-403.0","39KFRKBFIOHTE35F88H27LFDDBEYO0","AS2MFSWNC5CQI","30UZJB2POHY4464FN6NBJ2NLFWF354","","413.2999999523163","img/food4.png","75","415.10000014305115","2","1","3","2","1,0.5,0,1,0.5,0,0.5,0,1","0,1,0.5,0,1,0.5,1,0.5,0","3","false",""
"","html-keyboard-response","336","206775","0.0-404.0","39KFRKBFIOHTE35F88H27LFDDBEYO0","AS2MFSWNC5CQI","30UZJB2POHY4464FN6NBJ2NLFWF354","","null","<img src=""img/food4.png"" style=""width:200px; border:14px solid green;"">","null","","","","","","","","","",""
"","image-keyboard-response","337","207155","0.0-406.0","39KFRKBFIOHTE35F88H27LFDDBEYO0","AS2MFSWNC5CQI","30UZJB2POHY4464FN6NBJ2NLFWF354","","377.7000000476837","img/food4.png","75","379.19999980926514","2","1","3","2","1,0.5,0,1,0.5,0,0.5,0,1","0,1,0.5,0,1,0.5,1,0.5,0","3","false",""
"","html-keyboard-response","338","207458","0.0-407.0","39KFRKBFIOHTE35F88H27LFDDBEYO0","AS2MFSWNC5CQI","30UZJB2POHY4464FN6NBJ2NLFWF354","","null","<img src=""img/food4.png"" style=""width:200px; border:14px solid green;"">","null","","","","","","","","","",""
"","image-keyboard-response","339","207914","0.0-409.0","39KFRKBFIOHTE35F88H27LFDDBEYO0","AS2MFSWNC5CQI","30UZJB2POHY4464FN6NBJ2NLFWF354","","455.5","img/food3.png","75","456.2000000476837","2","1","2","2","1,0.5,0,1,0.5,0,0.5,0,1","0,1,0.5,0,1,0.5,1,0.5,0","3","false",""
"","html-keyboard-response","340","208216","0.0-410.0","39KFRKBFIOHTE35F88H27LFDDBEYO0","AS2MFSWNC5CQI","30UZJB2POHY4464FN6NBJ2NLFWF354","","null","<img src=""img/food3.png"" style=""width:200px; border:14px solid green;"">","null","","","","","","","","","",""
"","image-keyboard-response","341","208826","0.0-412.0","39KFRKBFIOHTE35F88H27LFDDBEYO0","AS2MFSWNC5CQI","30UZJB2POHY4464FN6NBJ2NLFWF354","","608.5999999046326","img/food4.png","75","609.6000001430511","2","0","3","2","1,0.5,0,1,0.5,0,0.5,0,1","0,1,0.5,0,1,0.5,1,0.5,0","3","false",""
"","html-keyboard-response","342","209129","0.0-413.0","39KFRKBFIOHTE35F88H27LFDDBEYO0","AS2MFSWNC5CQI","30UZJB2POHY4464FN6NBJ2NLFWF354","","null","<img src=""img/food4.png"" style=""width:200px;border:14px solid red;"">","null","","","","","","","","","",""
"","image-keyboard-response","343","209650","0.0-415.0","39KFRKBFIOHTE35F88H27LFDDBEYO0","AS2MFSWNC5CQI","30UZJB2POHY4464FN6NBJ2NLFWF354","","519.2000000476837","img/food4.png","74","520.9000000953674","1","1","3","2","1,0.5,0,1,0.5,0,0.5,0,1","0,1,0.5,0,1,0.5,1,0.5,0","3","false",""
"","html-keyboard-response","344","209953","0.0-416.0","39KFRKBFIOHTE35F88H27LFDDBEYO0","AS2MFSWNC5CQI","30UZJB2POHY4464FN6NBJ2NLFWF354","","null","<img src=""img/food4.png"" style=""width:200px; border:14px solid green;"">","null","","","","","","","","","",""
"","image-keyboard-response","345","210627","0.0-418.0","39KFRKBFIOHTE35F88H27LFDDBEYO0","AS2MFSWNC5CQI","30UZJB2POHY4464FN6NBJ2NLFWF354","","671.2000000476837","img/food5.png","75","672.7000000476837","2","1","1","2","1,0.5,0,1,0.5,0,0.5,0,1","0,1,0.5,0,1,0.5,1,0.5,0","3","false",""
"","html-keyboard-response","346","210929","0.0-419.0","39KFRKBFIOHTE35F88H27LFDDBEYO0","AS2MFSWNC5CQI","30UZJB2POHY4464FN6NBJ2NLFWF354","","null","<img src=""img/food5.png"" style=""width:200px; border:14px solid green;"">","null","","","","","","","","","",""
"","image-keyboard-response","347","211346","0.0-421.0","39KFRKBFIOHTE35F88H27LFDDBEYO0","AS2MFSWNC5CQI","30UZJB2POHY4464FN6NBJ2NLFWF354","","414.7000000476837","img/food4.png","75","416.5","2","0","3","2","1,0.5,0,1,0.5,0,0.5,0,1","0,1,0.5,0,1,0.5,1,0.5,0","3","false",""
"","html-keyboard-response","348","211649","0.0-422.0","39KFRKBFIOHTE35F88H27LFDDBEYO0","AS2MFSWNC5CQI","30UZJB2POHY4464FN6NBJ2NLFWF354","","null","<img src=""img/food4.png"" style=""width:200px;border:14px solid red;"">","null","","","","","","","","","",""
"","image-keyboard-response","349","212363","0.0-424.0","39KFRKBFIOHTE35F88H27LFDDBEYO0","AS2MFSWNC5CQI","30UZJB2POHY4464FN6NBJ2NLFWF354","","712.1000001430511","img/food5.png","75","713.7000000476837","2","1","1","2","1,0.5,0,1,0.5,0,0.5,0,1","0,1,0.5,0,1,0.5,1,0.5,0","3","false",""
"","html-keyboard-response","350","212667","0.0-425.0","39KFRKBFIOHTE35F88H27LFDDBEYO0","AS2MFSWNC5CQI","30UZJB2POHY4464FN6NBJ2NLFWF354","","null","<img src=""img/food5.png"" style=""width:200px; border:14px solid green;"">","null","","","","","","","","","",""
"","image-keyboard-response","351","213250","0.0-427.0","39KFRKBFIOHTE35F88H27LFDDBEYO0","AS2MFSWNC5CQI","30UZJB2POHY4464FN6NBJ2NLFWF354","","581.8999998569489","img/food5.png","75","583.2999999523163","2","1","1","2","1,0.5,0,1,0.5,0,0.5,0,1","0,1,0.5,0,1,0.5,1,0.5,0","3","false",""
"","html-keyboard-response","352","213553","0.0-428.0","39KFRKBFIOHTE35F88H27LFDDBEYO0","AS2MFSWNC5CQI","30UZJB2POHY4464FN6NBJ2NLFWF354","","null","<img src=""img/food5.png"" style=""width:200px; border:14px solid green;"">","null","","","","","","","","","",""
"","image-keyboard-response","353","214329","0.0-430.0","39KFRKBFIOHTE35F88H27LFDDBEYO0","AS2MFSWNC5CQI","30UZJB2POHY4464FN6NBJ2NLFWF354","","774","img/food4.png","74","775.6000001430511","1","1","3","2","1,0.5,0,1,0.5,0,0.5,0,1","0,1,0.5,0,1,0.5,1,0.5,0","3","false",""
"","html-keyboard-response","354","214632","0.0-431.0","39KFRKBFIOHTE35F88H27LFDDBEYO0","AS2MFSWNC5CQI","30UZJB2POHY4464FN6NBJ2NLFWF354","","null","<img src=""img/food4.png"" style=""width:200px; border:14px solid green;"">","null","","","","","","","","","",""
"","image-keyboard-response","355","215234","0.0-433.0","39KFRKBFIOHTE35F88H27LFDDBEYO0","AS2MFSWNC5CQI","30UZJB2POHY4464FN6NBJ2NLFWF354","","599.7000000476837","img/food4.png","74","601.2999999523163","1","1","3","2","1,0.5,0,1,0.5,0,0.5,0,1","0,1,0.5,0,1,0.5,1,0.5,0","3","false",""
"","html-keyboard-response","356","215537","0.0-434.0","39KFRKBFIOHTE35F88H27LFDDBEYO0","AS2MFSWNC5CQI","30UZJB2POHY4464FN6NBJ2NLFWF354","","null","<img src=""img/food4.png"" style=""width:200px; border:14px solid green;"">","null","","","","","","","","","",""
"","image-keyboard-response","357","216010","0.0-436.0","39KFRKBFIOHTE35F88H27LFDDBEYO0","AS2MFSWNC5CQI","30UZJB2POHY4464FN6NBJ2NLFWF354","","471.5","img/food4.png","74","473","1","1","3","2","1,0.5,0,1,0.5,0,0.5,0,1","0,1,0.5,0,1,0.5,1,0.5,0","3","false",""
"","html-keyboard-response","358","216313","0.0-437.0","39KFRKBFIOHTE35F88H27LFDDBEYO0","AS2MFSWNC5CQI","30UZJB2POHY4464FN6NBJ2NLFWF354","","null","<img src=""img/food4.png"" style=""width:200px; border:14px solid green;"">","null","","","","","","","","","",""
"","image-keyboard-response","359","216929","0.0-439.0","39KFRKBFIOHTE35F88H27LFDDBEYO0","AS2MFSWNC5CQI","30UZJB2POHY4464FN6NBJ2NLFWF354","","614.8999998569489","img/food3.png","75","616.5","2","1","2","2","1,0.5,0,1,0.5,0,0.5,0,1","0,1,0.5,0,1,0.5,1,0.5,0","3","false",""
"","html-keyboard-response","360","217232","0.0-440.0","39KFRKBFIOHTE35F88H27LFDDBEYO0","AS2MFSWNC5CQI","30UZJB2POHY4464FN6NBJ2NLFWF354","","null","<img src=""img/food3.png"" style=""width:200px; border:14px solid green;"">","null","","","","","","","","","",""
"","image-keyboard-response","361","217754","0.0-442.0","39KFRKBFIOHTE35F88H27LFDDBEYO0","AS2MFSWNC5CQI","30UZJB2POHY4464FN6NBJ2NLFWF354","","520.3999998569489","img/food5.png","75","521.4000000953674","2","1","1","2","1,0.5,0,1,0.5,0,0.5,0,1","0,1,0.5,0,1,0.5,1,0.5,0","3","false",""
"","html-keyboard-response","362","218056","0.0-443.0","39KFRKBFIOHTE35F88H27LFDDBEYO0","AS2MFSWNC5CQI","30UZJB2POHY4464FN6NBJ2NLFWF354","","null","<img src=""img/food5.png"" style=""width:200px; border:14px solid green;"">","null","","","","","","","","","",""
"","image-keyboard-response","363","218642","0.0-445.0","39KFRKBFIOHTE35F88H27LFDDBEYO0","AS2MFSWNC5CQI","30UZJB2POHY4464FN6NBJ2NLFWF354","","583.2999999523163","img/food5.png","75","584.5999999046326","2","1","1","2","1,0.5,0,1,0.5,0,0.5,0,1","0,1,0.5,0,1,0.5,1,0.5,0","3","false",""
"","html-keyboard-response","364","218944","0.0-446.0","39KFRKBFIOHTE35F88H27LFDDBEYO0","AS2MFSWNC5CQI","30UZJB2POHY4464FN6NBJ2NLFWF354","","null","<img src=""img/food5.png"" style=""width:200px; border:14px solid green;"">","null","","","","","","","","","",""
"","image-keyboard-response","365","219362","0.0-448.0","39KFRKBFIOHTE35F88H27LFDDBEYO0","AS2MFSWNC5CQI","30UZJB2POHY4464FN6NBJ2NLFWF354","","413.80000019073486","img/food3.png","75","415.40000009536743","2","1","2","2","1,0.5,0,1,0.5,0,0.5,0,1","0,1,0.5,0,1,0.5,1,0.5,0","3","false",""
"","html-keyboard-response","366","219664","0.0-449.0","39KFRKBFIOHTE35F88H27LFDDBEYO0","AS2MFSWNC5CQI","30UZJB2POHY4464FN6NBJ2NLFWF354","","null","<img src=""img/food3.png"" style=""width:200px; border:14px solid green;"">","null","","","","","","","","","",""
"","image-keyboard-response","367","220067","0.0-451.0","39KFRKBFIOHTE35F88H27LFDDBEYO0","AS2MFSWNC5CQI","30UZJB2POHY4464FN6NBJ2NLFWF354","","400.09999990463257","img/food3.png","75","401.7000000476837","2","1","2","2","1,0.5,0,1,0.5,0,0.5,0,1","0,1,0.5,0,1,0.5,1,0.5,0","3","false",""
"","html-keyboard-response","368","220370","0.0-452.0","39KFRKBFIOHTE35F88H27LFDDBEYO0","AS2MFSWNC5CQI","30UZJB2POHY4464FN6NBJ2NLFWF354","","null","<img src=""img/food3.png"" style=""width:200px; border:14px solid green;"">","null","","","","","","","","","",""
"","instructions","369","223319","0.0-454.0","39KFRKBFIOHTE35F88H27LFDDBEYO0","AS2MFSWNC5CQI","30UZJB2POHY4464FN6NBJ2NLFWF354","[{""page_index"":0,""viewing_time"":2948.5}]","2948.7000000476837","","","","","","","","","","","",""
"","survey-text","370","228956","0.0-455.0","39KFRKBFIOHTE35F88H27LFDDBEYO0","AS2MFSWNC5CQI","30UZJB2POHY4464FN6NBJ2NLFWF354","","5633.900000095367","","","","","","","","","","","","{""Q0"":""AS2MFSWNC5CQI""}"
