"success","trial_type","trial_index","time_elapsed","internal_node_id","assignmentID","mturkID","hitID","view_history","rt","stimulus","key_press","reactionTime","a","r","warning","s","cond","reward_cond","reward_cond_actual","reward_matrix_idx","responses"
"true","fullscreen","0","2934","0.0-0.0","3IUZPWIU1PT6Z7P0VF7LF7DOIW1KWW","ASQW51PUO2OLI","3P7RGTLO6EZ76AO3386R8ZK9IWWKAW","","","","","","","","","","","","","",""
"","instructions","1","41302","0.0-1.0","3IUZPWIU1PT6Z7P0VF7LF7DOIW1KWW","ASQW51PUO2OLI","3P7RGTLO6EZ76AO3386R8ZK9IWWKAW","[{""page_index"":0,""viewing_time"":7694},{""page_index"":1,""viewing_time"":3240.2999999523163},{""page_index"":2,""viewing_time"":4245.700000047684},{""page_index"":3,""viewing_time"":8517.700000047684},{""page_index"":4,""viewing_time"":5029.099999904633},{""page_index"":5,""viewing_time"":4610.900000095367},{""page_index"":6,""viewing_time"":5022}]","38360.799999952316","","","","","","","","","","","",""
"","instructions","2","54077","0.0-2.0","3IUZPWIU1PT6Z7P0VF7LF7DOIW1KWW","ASQW51PUO2OLI","3P7RGTLO6EZ76AO3386R8ZK9IWWKAW","[{""page_index"":0,""viewing_time"":9727.700000047684},{""page_index"":1,""viewing_time"":3043.4000000953674}]","12771.400000095367","","","","","","","","","","","",""
"","image-keyboard-response","3","54551","0.0-3.0","3IUZPWIU1PT6Z7P0VF7LF7DOIW1KWW","ASQW51PUO2OLI","3P7RGTLO6EZ76AO3386R8ZK9IWWKAW","","469.7999999523163","img/food3.png","74","472.60000014305115","1","1","false","1","2","1,0.5,0,1,0.5,0,0.5,0,1","0.5,0,1,0.5,0,1,0,1,0.5","2",""
"","html-keyboard-response","4","54859","0.0-4.0","3IUZPWIU1PT6Z7P0VF7LF7DOIW1KWW","ASQW51PUO2OLI","3P7RGTLO6EZ76AO3386R8ZK9IWWKAW","","null","<img src=""img/food3.png"" style=""width:200px; border:14px solid green;"">","null","","","","","","","","","",""
"","image-keyboard-response","5","55458","0.0-6.0","3IUZPWIU1PT6Z7P0VF7LF7DOIW1KWW","ASQW51PUO2OLI","3P7RGTLO6EZ76AO3386R8ZK9IWWKAW","","594.7999999523163","img/food3.png","74","597.6000001430511","1","0","false","1","2","1,0.5,0,1,0.5,0,0.5,0,1","0.5,0,1,0.5,0,1,0,1,0.5","2",""
"","html-keyboard-response","6","55762","0.0-7.0","3IUZPWIU1PT6Z7P0VF7LF7DOIW1KWW","ASQW51PUO2OLI","3P7RGTLO6EZ76AO3386R8ZK9IWWKAW","","null","<img src=""img/food3.png"" style=""width:200px;border:14px solid red;"">","null","","","","","","","","","",""
"","image-keyboard-response","7","56477","0.0-9.0","3IUZPWIU1PT6Z7P0VF7LF7DOIW1KWW","ASQW51PUO2OLI","3P7RGTLO6EZ76AO3386R8ZK9IWWKAW","","712.6000001430511","img/food5.png","75","714.1000001430511","2","1","false","3","2","1,0.5,0,1,0.5,0,0.5,0,1","0.5,0,1,0.5,0,1,0,1,0.5","2",""
"","html-keyboard-response","8","56779","0.0-10.0","3IUZPWIU1PT6Z7P0VF7LF7DOIW1KWW","ASQW51PUO2OLI","3P7RGTLO6EZ76AO3386R8ZK9IWWKAW","","null","<img src=""img/food5.png"" style=""width:200px; border:14px solid green;"">","null","","","","","","","","","",""
"","image-keyboard-response","9","57416","0.0-12.0","3IUZPWIU1PT6Z7P0VF7LF7DOIW1KWW","ASQW51PUO2OLI","3P7RGTLO6EZ76AO3386R8ZK9IWWKAW","","634.6000001430511","img/food3.png","74","635.8999998569489","1","0","false","1","2","1,0.5,0,1,0.5,0,0.5,0,1","0.5,0,1,0.5,0,1,0,1,0.5","2",""
"","html-keyboard-response","10","57719","0.0-13.0","3IUZPWIU1PT6Z7P0VF7LF7DOIW1KWW","ASQW51PUO2OLI","3P7RGTLO6EZ76AO3386R8ZK9IWWKAW","","null","<img src=""img/food3.png"" style=""width:200px;border:14px solid red;"">","null","","","","","","","","","",""
"","image-keyboard-response","11","58467","0.0-15.0","3IUZPWIU1PT6Z7P0VF7LF7DOIW1KWW","ASQW51PUO2OLI","3P7RGTLO6EZ76AO3386R8ZK9IWWKAW","","744.7999999523163","img/food1.png","76","747.2000000476837","3","1","false","2","2","1,0.5,0,1,0.5,0,0.5,0,1","0.5,0,1,0.5,0,1,0,1,0.5","2",""
"","html-keyboard-response","12","58771","0.0-16.0","3IUZPWIU1PT6Z7P0VF7LF7DOIW1KWW","ASQW51PUO2OLI","3P7RGTLO6EZ76AO3386R8ZK9IWWKAW","","null","<img src=""img/food1.png"" style=""width:200px; border:14px solid green;"">","null","","","","","","","","","",""
"","image-keyboard-response","13","59180","0.0-18.0","3IUZPWIU1PT6Z7P0VF7LF7DOIW1KWW","ASQW51PUO2OLI","3P7RGTLO6EZ76AO3386R8ZK9IWWKAW","","405.7999999523163","img/food1.png","76","407.7999999523163","3","1","false","2","2","1,0.5,0,1,0.5,0,0.5,0,1","0.5,0,1,0.5,0,1,0,1,0.5","2",""
"","html-keyboard-response","14","59483","0.0-19.0","3IUZPWIU1PT6Z7P0VF7LF7DOIW1KWW","ASQW51PUO2OLI","3P7RGTLO6EZ76AO3386R8ZK9IWWKAW","","null","<img src=""img/food1.png"" style=""width:200px; border:14px solid green;"">","null","","","","","","","","","",""
"","image-keyboard-response","15","60172","0.0-21.0","3IUZPWIU1PT6Z7P0VF7LF7DOIW1KWW","ASQW51PUO2OLI","3P7RGTLO6EZ76AO3386R8ZK9IWWKAW","","685.5","img/food5.png","75","687.7999999523163","2","1","false","3","2","1,0.5,0,1,0.5,0,0.5,0,1","0.5,0,1,0.5,0,1,0,1,0.5","2",""
"","html-keyboard-response","16","60476","0.0-22.0","3IUZPWIU1PT6Z7P0VF7LF7DOIW1KWW","ASQW51PUO2OLI","3P7RGTLO6EZ76AO3386R8ZK9IWWKAW","","null","<img src=""img/food5.png"" style=""width:200px; border:14px solid green;"">","null","","","","","","","","","",""
"","image-keyboard-response","17","60787","0.0-24.0","3IUZPWIU1PT6Z7P0VF7LF7DOIW1KWW","ASQW51PUO2OLI","3P7RGTLO6EZ76AO3386R8ZK9IWWKAW","","307.60000014305115","img/food5.png","75","309.7000000476837","2","1","false","3","2","1,0.5,0,1,0.5,0,0.5,0,1","0.5,0,1,0.5,0,1,0,1,0.5","2",""
"","html-keyboard-response","18","61090","0.0-25.0","3IUZPWIU1PT6Z7P0VF7LF7DOIW1KWW","ASQW51PUO2OLI","3P7RGTLO6EZ76AO3386R8ZK9IWWKAW","","null","<img src=""img/food5.png"" style=""width:200px; border:14px solid green;"">","null","","","","","","","","","",""
"","image-keyboard-response","19","61925","0.0-27.0","3IUZPWIU1PT6Z7P0VF7LF7DOIW1KWW","ASQW51PUO2OLI","3P7RGTLO6EZ76AO3386R8ZK9IWWKAW","","832.7000000476837","img/food1.png","76","834.7999999523163","3","1","false","2","2","1,0.5,0,1,0.5,0,0.5,0,1","0.5,0,1,0.5,0,1,0,1,0.5","2",""
"","html-keyboard-response","20","62229","0.0-28.0","3IUZPWIU1PT6Z7P0VF7LF7DOIW1KWW","ASQW51PUO2OLI","3P7RGTLO6EZ76AO3386R8ZK9IWWKAW","","null","<img src=""img/food1.png"" style=""width:200px; border:14px solid green;"">","null","","","","","","","","","",""
"","image-keyboard-response","21","62691","0.0-30.0","3IUZPWIU1PT6Z7P0VF7LF7DOIW1KWW","ASQW51PUO2OLI","3P7RGTLO6EZ76AO3386R8ZK9IWWKAW","","459","img/food5.png","75","460.89999985694885","2","1","false","3","2","1,0.5,0,1,0.5,0,0.5,0,1","0.5,0,1,0.5,0,1,0,1,0.5","2",""
"","html-keyboard-response","22","62994","0.0-31.0","3IUZPWIU1PT6Z7P0VF7LF7DOIW1KWW","ASQW51PUO2OLI","3P7RGTLO6EZ76AO3386R8ZK9IWWKAW","","null","<img src=""img/food5.png"" style=""width:200px; border:14px solid green;"">","null","","","","","","","","","",""
"","image-keyboard-response","23","63541","0.0-33.0","3IUZPWIU1PT6Z7P0VF7LF7DOIW1KWW","ASQW51PUO2OLI","3P7RGTLO6EZ76AO3386R8ZK9IWWKAW","","544.2000000476837","img/food5.png","75","546.6999998092651","2","1","false","3","2","1,0.5,0,1,0.5,0,0.5,0,1","0.5,0,1,0.5,0,1,0,1,0.5","2",""
"","html-keyboard-response","24","63845","0.0-34.0","3IUZPWIU1PT6Z7P0VF7LF7DOIW1KWW","ASQW51PUO2OLI","3P7RGTLO6EZ76AO3386R8ZK9IWWKAW","","null","<img src=""img/food5.png"" style=""width:200px; border:14px solid green;"">","null","","","","","","","","","",""
"","image-keyboard-response","25","64200","0.0-36.0","3IUZPWIU1PT6Z7P0VF7LF7DOIW1KWW","ASQW51PUO2OLI","3P7RGTLO6EZ76AO3386R8ZK9IWWKAW","","353.7000000476837","img/food5.png","75","354.90000009536743","2","1","false","3","2","1,0.5,0,1,0.5,0,0.5,0,1","0.5,0,1,0.5,0,1,0,1,0.5","2",""
"","html-keyboard-response","26","64511","0.0-37.0","3IUZPWIU1PT6Z7P0VF7LF7DOIW1KWW","ASQW51PUO2OLI","3P7RGTLO6EZ76AO3386R8ZK9IWWKAW","","null","<img src=""img/food5.png"" style=""width:200px; border:14px solid green;"">","null","","","","","","","","","",""
"","image-keyboard-response","27","65158","0.0-39.0","3IUZPWIU1PT6Z7P0VF7LF7DOIW1KWW","ASQW51PUO2OLI","3P7RGTLO6EZ76AO3386R8ZK9IWWKAW","","643.5","img/food3.png","74","645.7000000476837","1","0","false","1","2","1,0.5,0,1,0.5,0,0.5,0,1","0.5,0,1,0.5,0,1,0,1,0.5","2",""
"","html-keyboard-response","28","65461","0.0-40.0","3IUZPWIU1PT6Z7P0VF7LF7DOIW1KWW","ASQW51PUO2OLI","3P7RGTLO6EZ76AO3386R8ZK9IWWKAW","","null","<img src=""img/food3.png"" style=""width:200px;border:14px solid red;"">","null","","","","","","","","","",""
"","image-keyboard-response","29","66044","0.0-42.0","3IUZPWIU1PT6Z7P0VF7LF7DOIW1KWW","ASQW51PUO2OLI","3P7RGTLO6EZ76AO3386R8ZK9IWWKAW","","580.3999998569489","img/food5.png","75","582.5","2","1","false","3","2","1,0.5,0,1,0.5,0,0.5,0,1","0.5,0,1,0.5,0,1,0,1,0.5","2",""
"","html-keyboard-response","30","66348","0.0-43.0","3IUZPWIU1PT6Z7P0VF7LF7DOIW1KWW","ASQW51PUO2OLI","3P7RGTLO6EZ76AO3386R8ZK9IWWKAW","","null","<img src=""img/food5.png"" style=""width:200px; border:14px solid green;"">","null","","","","","","","","","",""
"","image-keyboard-response","31","66620","0.0-45.0","3IUZPWIU1PT6Z7P0VF7LF7DOIW1KWW","ASQW51PUO2OLI","3P7RGTLO6EZ76AO3386R8ZK9IWWKAW","","268.7999999523163","img/food5.png","75","271","2","1","false","3","2","1,0.5,0,1,0.5,0,0.5,0,1","0.5,0,1,0.5,0,1,0,1,0.5","2",""
"","html-keyboard-response","32","66923","0.0-46.0","3IUZPWIU1PT6Z7P0VF7LF7DOIW1KWW","ASQW51PUO2OLI","3P7RGTLO6EZ76AO3386R8ZK9IWWKAW","","null","<img src=""img/food5.png"" style=""width:200px; border:14px solid green;"">","null","","","","","","","","","",""
"","image-keyboard-response","33","67503","0.0-48.0","3IUZPWIU1PT6Z7P0VF7LF7DOIW1KWW","ASQW51PUO2OLI","3P7RGTLO6EZ76AO3386R8ZK9IWWKAW","","578.2999999523163","img/food3.png","76","579.6999998092651","3","1","false","1","2","1,0.5,0,1,0.5,0,0.5,0,1","0.5,0,1,0.5,0,1,0,1,0.5","2",""
"","html-keyboard-response","34","67806","0.0-49.0","3IUZPWIU1PT6Z7P0VF7LF7DOIW1KWW","ASQW51PUO2OLI","3P7RGTLO6EZ76AO3386R8ZK9IWWKAW","","null","<img src=""img/food3.png"" style=""width:200px; border:14px solid green;"">","null","","","","","","","","","",""
"","image-keyboard-response","35","68347","0.0-51.0","3IUZPWIU1PT6Z7P0VF7LF7DOIW1KWW","ASQW51PUO2OLI","3P7RGTLO6EZ76AO3386R8ZK9IWWKAW","","539.3999998569489","img/food5.png","75","540.5","2","1","false","3","2","1,0.5,0,1,0.5,0,0.5,0,1","0.5,0,1,0.5,0,1,0,1,0.5","2",""
"","html-keyboard-response","36","68650","0.0-52.0","3IUZPWIU1PT6Z7P0VF7LF7DOIW1KWW","ASQW51PUO2OLI","3P7RGTLO6EZ76AO3386R8ZK9IWWKAW","","null","<img src=""img/food5.png"" style=""width:200px; border:14px solid green;"">","null","","","","","","","","","",""
"","image-keyboard-response","37","69467","0.0-54.0","3IUZPWIU1PT6Z7P0VF7LF7DOIW1KWW","ASQW51PUO2OLI","3P7RGTLO6EZ76AO3386R8ZK9IWWKAW","","814.2999999523163","img/food1.png","76","816","3","1","false","2","2","1,0.5,0,1,0.5,0,0.5,0,1","0.5,0,1,0.5,0,1,0,1,0.5","2",""
"","html-keyboard-response","38","69769","0.0-55.0","3IUZPWIU1PT6Z7P0VF7LF7DOIW1KWW","ASQW51PUO2OLI","3P7RGTLO6EZ76AO3386R8ZK9IWWKAW","","null","<img src=""img/food1.png"" style=""width:200px; border:14px solid green;"">","null","","","","","","","","","",""
"","image-keyboard-response","39","70347","0.0-57.0","3IUZPWIU1PT6Z7P0VF7LF7DOIW1KWW","ASQW51PUO2OLI","3P7RGTLO6EZ76AO3386R8ZK9IWWKAW","","576.0999999046326","img/food5.png","75","577.2999999523163","2","1","false","3","2","1,0.5,0,1,0.5,0,0.5,0,1","0.5,0,1,0.5,0,1,0,1,0.5","2",""
"","html-keyboard-response","40","70649","0.0-58.0","3IUZPWIU1PT6Z7P0VF7LF7DOIW1KWW","ASQW51PUO2OLI","3P7RGTLO6EZ76AO3386R8ZK9IWWKAW","","null","<img src=""img/food5.png"" style=""width:200px; border:14px solid green;"">","null","","","","","","","","","",""
"","image-keyboard-response","41","71306","0.0-60.0","3IUZPWIU1PT6Z7P0VF7LF7DOIW1KWW","ASQW51PUO2OLI","3P7RGTLO6EZ76AO3386R8ZK9IWWKAW","","654","img/food1.png","76","656.3000001907349","3","1","false","2","2","1,0.5,0,1,0.5,0,0.5,0,1","0.5,0,1,0.5,0,1,0,1,0.5","2",""
"","html-keyboard-response","42","71615","0.0-61.0","3IUZPWIU1PT6Z7P0VF7LF7DOIW1KWW","ASQW51PUO2OLI","3P7RGTLO6EZ76AO3386R8ZK9IWWKAW","","null","<img src=""img/food1.png"" style=""width:200px; border:14px solid green;"">","null","","","","","","","","","",""
"","image-keyboard-response","43","72195","0.0-63.0","3IUZPWIU1PT6Z7P0VF7LF7DOIW1KWW","ASQW51PUO2OLI","3P7RGTLO6EZ76AO3386R8ZK9IWWKAW","","577.5","img/food1.png","76","579.5","3","1","false","2","2","1,0.5,0,1,0.5,0,0.5,0,1","0.5,0,1,0.5,0,1,0,1,0.5","2",""
"","html-keyboard-response","44","72496","0.0-64.0","3IUZPWIU1PT6Z7P0VF7LF7DOIW1KWW","ASQW51PUO2OLI","3P7RGTLO6EZ76AO3386R8ZK9IWWKAW","","null","<img src=""img/food1.png"" style=""width:200px; border:14px solid green;"">","null","","","","","","","","","",""
"","image-keyboard-response","45","72763","0.0-66.0","3IUZPWIU1PT6Z7P0VF7LF7DOIW1KWW","ASQW51PUO2OLI","3P7RGTLO6EZ76AO3386R8ZK9IWWKAW","","265","img/food5.png","76","266.09999990463257","3","0","false","3","2","1,0.5,0,1,0.5,0,0.5,0,1","0.5,0,1,0.5,0,1,0,1,0.5","2",""
"","html-keyboard-response","46","73066","0.0-67.0","3IUZPWIU1PT6Z7P0VF7LF7DOIW1KWW","ASQW51PUO2OLI","3P7RGTLO6EZ76AO3386R8ZK9IWWKAW","","null","<img src=""img/food5.png"" style=""width:200px;border:14px solid red;"">","null","","","","","","","","","",""
"","image-keyboard-response","47","73680","0.0-69.0","3IUZPWIU1PT6Z7P0VF7LF7DOIW1KWW","ASQW51PUO2OLI","3P7RGTLO6EZ76AO3386R8ZK9IWWKAW","","612.5","img/food5.png","75","613.5999999046326","2","1","false","3","2","1,0.5,0,1,0.5,0,0.5,0,1","0.5,0,1,0.5,0,1,0,1,0.5","2",""
"","html-keyboard-response","48","73996","0.0-70.0","3IUZPWIU1PT6Z7P0VF7LF7DOIW1KWW","ASQW51PUO2OLI","3P7RGTLO6EZ76AO3386R8ZK9IWWKAW","","null","<img src=""img/food5.png"" style=""width:200px; border:14px solid green;"">","null","","","","","","","","","",""
"","image-keyboard-response","49","74291","0.0-72.0","3IUZPWIU1PT6Z7P0VF7LF7DOIW1KWW","ASQW51PUO2OLI","3P7RGTLO6EZ76AO3386R8ZK9IWWKAW","","292.2999999523163","img/food5.png","75","294","2","1","false","3","2","1,0.5,0,1,0.5,0,0.5,0,1","0.5,0,1,0.5,0,1,0,1,0.5","2",""
"","html-keyboard-response","50","74603","0.0-73.0","3IUZPWIU1PT6Z7P0VF7LF7DOIW1KWW","ASQW51PUO2OLI","3P7RGTLO6EZ76AO3386R8ZK9IWWKAW","","null","<img src=""img/food5.png"" style=""width:200px; border:14px solid green;"">","null","","","","","","","","","",""
"","image-keyboard-response","51","74857","0.0-75.0","3IUZPWIU1PT6Z7P0VF7LF7DOIW1KWW","ASQW51PUO2OLI","3P7RGTLO6EZ76AO3386R8ZK9IWWKAW","","252.09999990463257","img/food1.png","75","253.09999990463257","2","0","false","2","2","1,0.5,0,1,0.5,0,0.5,0,1","0.5,0,1,0.5,0,1,0,1,0.5","2",""
"","html-keyboard-response","52","75160","0.0-76.0","3IUZPWIU1PT6Z7P0VF7LF7DOIW1KWW","ASQW51PUO2OLI","3P7RGTLO6EZ76AO3386R8ZK9IWWKAW","","null","<img src=""img/food1.png"" style=""width:200px;border:14px solid red;"">","null","","","","","","","","","",""
"","image-keyboard-response","53","75716","0.0-78.0","3IUZPWIU1PT6Z7P0VF7LF7DOIW1KWW","ASQW51PUO2OLI","3P7RGTLO6EZ76AO3386R8ZK9IWWKAW","","554.2999999523163","img/food1.png","76","555.5","3","1","false","2","2","1,0.5,0,1,0.5,0,0.5,0,1","0.5,0,1,0.5,0,1,0,1,0.5","2",""
"","html-keyboard-response","54","76018","0.0-79.0","3IUZPWIU1PT6Z7P0VF7LF7DOIW1KWW","ASQW51PUO2OLI","3P7RGTLO6EZ76AO3386R8ZK9IWWKAW","","null","<img src=""img/food1.png"" style=""width:200px; border:14px solid green;"">","null","","","","","","","","","",""
"","image-keyboard-response","55","76697","0.0-81.0","3IUZPWIU1PT6Z7P0VF7LF7DOIW1KWW","ASQW51PUO2OLI","3P7RGTLO6EZ76AO3386R8ZK9IWWKAW","","677.2999999523163","img/food3.png","74","678.7999999523163","1","0","false","1","2","1,0.5,0,1,0.5,0,0.5,0,1","0.5,0,1,0.5,0,1,0,1,0.5","2",""
"","html-keyboard-response","56","77000","0.0-82.0","3IUZPWIU1PT6Z7P0VF7LF7DOIW1KWW","ASQW51PUO2OLI","3P7RGTLO6EZ76AO3386R8ZK9IWWKAW","","null","<img src=""img/food3.png"" style=""width:200px;border:14px solid red;"">","null","","","","","","","","","",""
"","image-keyboard-response","57","77336","0.0-84.0","3IUZPWIU1PT6Z7P0VF7LF7DOIW1KWW","ASQW51PUO2OLI","3P7RGTLO6EZ76AO3386R8ZK9IWWKAW","","333.09999990463257","img/food3.png","74","335.40000009536743","1","0","false","1","2","1,0.5,0,1,0.5,0,0.5,0,1","0.5,0,1,0.5,0,1,0,1,0.5","2",""
"","html-keyboard-response","58","77639","0.0-85.0","3IUZPWIU1PT6Z7P0VF7LF7DOIW1KWW","ASQW51PUO2OLI","3P7RGTLO6EZ76AO3386R8ZK9IWWKAW","","null","<img src=""img/food3.png"" style=""width:200px;border:14px solid red;"">","null","","","","","","","","","",""
"","image-keyboard-response","59","77778","0.0-87.0","3IUZPWIU1PT6Z7P0VF7LF7DOIW1KWW","ASQW51PUO2OLI","3P7RGTLO6EZ76AO3386R8ZK9IWWKAW","","137.79999995231628","img/food3.png","74","139","1","1","false","1","2","1,0.5,0,1,0.5,0,0.5,0,1","0.5,0,1,0.5,0,1,0,1,0.5","2",""
"","html-keyboard-response","60","78082","0.0-88.0","3IUZPWIU1PT6Z7P0VF7LF7DOIW1KWW","ASQW51PUO2OLI","3P7RGTLO6EZ76AO3386R8ZK9IWWKAW","","null","<img src=""img/food3.png"" style=""width:200px; border:14px solid green;"">","null","","","","","","","","","",""
"","image-keyboard-response","61","79086","0.0-90.0","3IUZPWIU1PT6Z7P0VF7LF7DOIW1KWW","ASQW51PUO2OLI","3P7RGTLO6EZ76AO3386R8ZK9IWWKAW","","","img/food1.png","","1003.5999999046326","-1","0","true","2","2","1,0.5,0,1,0.5,0,0.5,0,1","0.5,0,1,0.5,0,1,0,1,0.5","2",""
"","html-keyboard-response","62","79388","0.0-91.0","3IUZPWIU1PT6Z7P0VF7LF7DOIW1KWW","ASQW51PUO2OLI","3P7RGTLO6EZ76AO3386R8ZK9IWWKAW","","null","<img src=""img/food1.png"" style=""width:200px;border:14px solid red;"">","null","","","","","","","","","",""
"","html-keyboard-response","63","82465","0.0-92.0-0.0","3IUZPWIU1PT6Z7P0VF7LF7DOIW1KWW","ASQW51PUO2OLI","3P7RGTLO6EZ76AO3386R8ZK9IWWKAW","","","","","","","","","","","","","",""
"","image-keyboard-response","64","83013","0.0-93.0","3IUZPWIU1PT6Z7P0VF7LF7DOIW1KWW","ASQW51PUO2OLI","3P7RGTLO6EZ76AO3386R8ZK9IWWKAW","","544.7999999523163","img/food3.png","76","547.0999999046326","3","1","false","1","2","1,0.5,0,1,0.5,0,0.5,0,1","0.5,0,1,0.5,0,1,0,1,0.5","2",""
"","html-keyboard-response","65","83315","0.0-94.0","3IUZPWIU1PT6Z7P0VF7LF7DOIW1KWW","ASQW51PUO2OLI","3P7RGTLO6EZ76AO3386R8ZK9IWWKAW","","null","<img src=""img/food3.png"" style=""width:200px; border:14px solid green;"">","null","","","","","","","","","",""
"","image-keyboard-response","66","83996","0.0-96.0","3IUZPWIU1PT6Z7P0VF7LF7DOIW1KWW","ASQW51PUO2OLI","3P7RGTLO6EZ76AO3386R8ZK9IWWKAW","","679.2000000476837","img/food5.png","74","680.5","1","0","false","3","2","1,0.5,0,1,0.5,0,0.5,0,1","0.5,0,1,0.5,0,1,0,1,0.5","2",""
"","html-keyboard-response","67","84298","0.0-97.0","3IUZPWIU1PT6Z7P0VF7LF7DOIW1KWW","ASQW51PUO2OLI","3P7RGTLO6EZ76AO3386R8ZK9IWWKAW","","null","<img src=""img/food5.png"" style=""width:200px;border:14px solid red;"">","null","","","","","","","","","",""
"","image-keyboard-response","68","84617","0.0-99.0","3IUZPWIU1PT6Z7P0VF7LF7DOIW1KWW","ASQW51PUO2OLI","3P7RGTLO6EZ76AO3386R8ZK9IWWKAW","","317.5","img/food3.png","75","318.89999985694885","2","0","false","1","2","1,0.5,0,1,0.5,0,0.5,0,1","0.5,0,1,0.5,0,1,0,1,0.5","2",""
"","html-keyboard-response","69","84920","0.0-100.0","3IUZPWIU1PT6Z7P0VF7LF7DOIW1KWW","ASQW51PUO2OLI","3P7RGTLO6EZ76AO3386R8ZK9IWWKAW","","null","<img src=""img/food3.png"" style=""width:200px;border:14px solid red;"">","null","","","","","","","","","",""
"","image-keyboard-response","70","85270","0.0-102.0","3IUZPWIU1PT6Z7P0VF7LF7DOIW1KWW","ASQW51PUO2OLI","3P7RGTLO6EZ76AO3386R8ZK9IWWKAW","","347.90000009536743","img/food3.png","74","349.90000009536743","1","0","false","1","2","1,0.5,0,1,0.5,0,0.5,0,1","0.5,0,1,0.5,0,1,0,1,0.5","2",""
"","html-keyboard-response","71","85574","0.0-103.0","3IUZPWIU1PT6Z7P0VF7LF7DOIW1KWW","ASQW51PUO2OLI","3P7RGTLO6EZ76AO3386R8ZK9IWWKAW","","null","<img src=""img/food3.png"" style=""width:200px;border:14px solid red;"">","null","","","","","","","","","",""
"","image-keyboard-response","72","85871","0.0-105.0","3IUZPWIU1PT6Z7P0VF7LF7DOIW1KWW","ASQW51PUO2OLI","3P7RGTLO6EZ76AO3386R8ZK9IWWKAW","","294","img/food1.png","74","296.39999985694885","1","1","false","2","2","1,0.5,0,1,0.5,0,0.5,0,1","0.5,0,1,0.5,0,1,0,1,0.5","2",""
"","html-keyboard-response","73","86175","0.0-106.0","3IUZPWIU1PT6Z7P0VF7LF7DOIW1KWW","ASQW51PUO2OLI","3P7RGTLO6EZ76AO3386R8ZK9IWWKAW","","null","<img src=""img/food1.png"" style=""width:200px; border:14px solid green;"">","null","","","","","","","","","",""
"","image-keyboard-response","74","86852","0.0-108.0","3IUZPWIU1PT6Z7P0VF7LF7DOIW1KWW","ASQW51PUO2OLI","3P7RGTLO6EZ76AO3386R8ZK9IWWKAW","","675.7000000476837","img/food3.png","74","677","1","0","false","1","2","1,0.5,0,1,0.5,0,0.5,0,1","0.5,0,1,0.5,0,1,0,1,0.5","2",""
"","html-keyboard-response","75","87155","0.0-109.0","3IUZPWIU1PT6Z7P0VF7LF7DOIW1KWW","ASQW51PUO2OLI","3P7RGTLO6EZ76AO3386R8ZK9IWWKAW","","null","<img src=""img/food3.png"" style=""width:200px;border:14px solid red;"">","null","","","","","","","","","",""
"","image-keyboard-response","76","87971","0.0-111.0","3IUZPWIU1PT6Z7P0VF7LF7DOIW1KWW","ASQW51PUO2OLI","3P7RGTLO6EZ76AO3386R8ZK9IWWKAW","","813.5999999046326","img/food1.png","76","815.2999999523163","3","1","false","2","2","1,0.5,0,1,0.5,0,0.5,0,1","0.5,0,1,0.5,0,1,0,1,0.5","2",""
"","html-keyboard-response","77","88274","0.0-112.0","3IUZPWIU1PT6Z7P0VF7LF7DOIW1KWW","ASQW51PUO2OLI","3P7RGTLO6EZ76AO3386R8ZK9IWWKAW","","null","<img src=""img/food1.png"" style=""width:200px; border:14px solid green;"">","null","","","","","","","","","",""
"","image-keyboard-response","78","88608","0.0-114.0","3IUZPWIU1PT6Z7P0VF7LF7DOIW1KWW","ASQW51PUO2OLI","3P7RGTLO6EZ76AO3386R8ZK9IWWKAW","","331.60000014305115","img/food1.png","76","333.09999990463257","3","1","false","2","2","1,0.5,0,1,0.5,0,0.5,0,1","0.5,0,1,0.5,0,1,0,1,0.5","2",""
"","html-keyboard-response","79","88911","0.0-115.0","3IUZPWIU1PT6Z7P0VF7LF7DOIW1KWW","ASQW51PUO2OLI","3P7RGTLO6EZ76AO3386R8ZK9IWWKAW","","null","<img src=""img/food1.png"" style=""width:200px; border:14px solid green;"">","null","","","","","","","","","",""
"","image-keyboard-response","80","89201","0.0-117.0","3IUZPWIU1PT6Z7P0VF7LF7DOIW1KWW","ASQW51PUO2OLI","3P7RGTLO6EZ76AO3386R8ZK9IWWKAW","","286.39999985694885","img/food3.png","76","289.60000014305115","3","1","false","1","2","1,0.5,0,1,0.5,0,0.5,0,1","0.5,0,1,0.5,0,1,0,1,0.5","2",""
"","html-keyboard-response","81","89504","0.0-118.0","3IUZPWIU1PT6Z7P0VF7LF7DOIW1KWW","ASQW51PUO2OLI","3P7RGTLO6EZ76AO3386R8ZK9IWWKAW","","null","<img src=""img/food3.png"" style=""width:200px; border:14px solid green;"">","null","","","","","","","","","",""
"","image-keyboard-response","82","89821","0.0-120.0","3IUZPWIU1PT6Z7P0VF7LF7DOIW1KWW","ASQW51PUO2OLI","3P7RGTLO6EZ76AO3386R8ZK9IWWKAW","","314.09999990463257","img/food1.png","76","315.59999990463257","3","1","false","2","2","1,0.5,0,1,0.5,0,0.5,0,1","0.5,0,1,0.5,0,1,0,1,0.5","2",""
"","html-keyboard-response","83","90124","0.0-121.0","3IUZPWIU1PT6Z7P0VF7LF7DOIW1KWW","ASQW51PUO2OLI","3P7RGTLO6EZ76AO3386R8ZK9IWWKAW","","null","<img src=""img/food1.png"" style=""width:200px; border:14px solid green;"">","null","","","","","","","","","",""
"","image-keyboard-response","84","90709","0.0-123.0","3IUZPWIU1PT6Z7P0VF7LF7DOIW1KWW","ASQW51PUO2OLI","3P7RGTLO6EZ76AO3386R8ZK9IWWKAW","","582.4000000953674","img/food5.png","76","584.5999999046326","3","1","false","3","2","1,0.5,0,1,0.5,0,0.5,0,1","0.5,0,1,0.5,0,1,0,1,0.5","2",""
"","html-keyboard-response","85","91012","0.0-124.0","3IUZPWIU1PT6Z7P0VF7LF7DOIW1KWW","ASQW51PUO2OLI","3P7RGTLO6EZ76AO3386R8ZK9IWWKAW","","null","<img src=""img/food5.png"" style=""width:200px; border:14px solid green;"">","null","","","","","","","","","",""
"","image-keyboard-response","86","91326","0.0-126.0","3IUZPWIU1PT6Z7P0VF7LF7DOIW1KWW","ASQW51PUO2OLI","3P7RGTLO6EZ76AO3386R8ZK9IWWKAW","","311.7999999523163","img/food5.png","76","313.7999999523163","3","1","false","3","2","1,0.5,0,1,0.5,0,0.5,0,1","0.5,0,1,0.5,0,1,0,1,0.5","2",""
"","html-keyboard-response","87","91644","0.0-127.0","3IUZPWIU1PT6Z7P0VF7LF7DOIW1KWW","ASQW51PUO2OLI","3P7RGTLO6EZ76AO3386R8ZK9IWWKAW","","null","<img src=""img/food5.png"" style=""width:200px; border:14px solid green;"">","null","","","","","","","","","",""
"","image-keyboard-response","88","91733","0.0-129.0","3IUZPWIU1PT6Z7P0VF7LF7DOIW1KWW","ASQW51PUO2OLI","3P7RGTLO6EZ76AO3386R8ZK9IWWKAW","","85.89999985694885","img/food1.png","76","87.69999980926514","3","1","false","2","2","1,0.5,0,1,0.5,0,0.5,0,1","0.5,0,1,0.5,0,1,0,1,0.5","2",""
"","html-keyboard-response","89","92036","0.0-130.0","3IUZPWIU1PT6Z7P0VF7LF7DOIW1KWW","ASQW51PUO2OLI","3P7RGTLO6EZ76AO3386R8ZK9IWWKAW","","null","<img src=""img/food1.png"" style=""width:200px; border:14px solid green;"">","null","","","","","","","","","",""
"","image-keyboard-response","90","92317","0.0-132.0","3IUZPWIU1PT6Z7P0VF7LF7DOIW1KWW","ASQW51PUO2OLI","3P7RGTLO6EZ76AO3386R8ZK9IWWKAW","","278.89999985694885","img/food1.png","76","280.7999999523163","3","1","false","2","2","1,0.5,0,1,0.5,0,0.5,0,1","0.5,0,1,0.5,0,1,0,1,0.5","2",""
"","html-keyboard-response","91","92620","0.0-133.0","3IUZPWIU1PT6Z7P0VF7LF7DOIW1KWW","ASQW51PUO2OLI","3P7RGTLO6EZ76AO3386R8ZK9IWWKAW","","null","<img src=""img/food1.png"" style=""width:200px; border:14px solid green;"">","null","","","","","","","","","",""
"","image-keyboard-response","92","92861","0.0-135.0","3IUZPWIU1PT6Z7P0VF7LF7DOIW1KWW","ASQW51PUO2OLI","3P7RGTLO6EZ76AO3386R8ZK9IWWKAW","","238.5","img/food3.png","76","240.59999990463257","3","1","false","1","2","1,0.5,0,1,0.5,0,0.5,0,1","0.5,0,1,0.5,0,1,0,1,0.5","2",""
"","html-keyboard-response","93","93165","0.0-136.0","3IUZPWIU1PT6Z7P0VF7LF7DOIW1KWW","ASQW51PUO2OLI","3P7RGTLO6EZ76AO3386R8ZK9IWWKAW","","null","<img src=""img/food3.png"" style=""width:200px; border:14px solid green;"">","null","","","","","","","","","",""
"","image-keyboard-response","94","93391","0.0-138.0","3IUZPWIU1PT6Z7P0VF7LF7DOIW1KWW","ASQW51PUO2OLI","3P7RGTLO6EZ76AO3386R8ZK9IWWKAW","","223.29999995231628","img/food5.png","76","224.89999985694885","3","1","false","3","2","1,0.5,0,1,0.5,0,0.5,0,1","0.5,0,1,0.5,0,1,0,1,0.5","2",""
"","html-keyboard-response","95","93704","0.0-139.0","3IUZPWIU1PT6Z7P0VF7LF7DOIW1KWW","ASQW51PUO2OLI","3P7RGTLO6EZ76AO3386R8ZK9IWWKAW","","null","<img src=""img/food5.png"" style=""width:200px; border:14px solid green;"">","null","","","","","","","","","",""
"","image-keyboard-response","96","93773","0.0-141.0","3IUZPWIU1PT6Z7P0VF7LF7DOIW1KWW","ASQW51PUO2OLI","3P7RGTLO6EZ76AO3386R8ZK9IWWKAW","","67.29999995231628","img/food3.png","76","69","3","1","false","1","2","1,0.5,0,1,0.5,0,0.5,0,1","0.5,0,1,0.5,0,1,0,1,0.5","2",""
"","html-keyboard-response","97","94077","0.0-142.0","3IUZPWIU1PT6Z7P0VF7LF7DOIW1KWW","ASQW51PUO2OLI","3P7RGTLO6EZ76AO3386R8ZK9IWWKAW","","null","<img src=""img/food3.png"" style=""width:200px; border:14px solid green;"">","null","","","","","","","","","",""
"","image-keyboard-response","98","94176","0.0-144.0","3IUZPWIU1PT6Z7P0VF7LF7DOIW1KWW","ASQW51PUO2OLI","3P7RGTLO6EZ76AO3386R8ZK9IWWKAW","","96.5","img/food5.png","76","98.29999995231628","3","1","false","3","2","1,0.5,0,1,0.5,0,0.5,0,1","0.5,0,1,0.5,0,1,0,1,0.5","2",""
"","html-keyboard-response","99","94480","0.0-145.0","3IUZPWIU1PT6Z7P0VF7LF7DOIW1KWW","ASQW51PUO2OLI","3P7RGTLO6EZ76AO3386R8ZK9IWWKAW","","null","<img src=""img/food5.png"" style=""width:200px; border:14px solid green;"">","null","","","","","","","","","",""
"","image-keyboard-response","100","94582","0.0-147.0","3IUZPWIU1PT6Z7P0VF7LF7DOIW1KWW","ASQW51PUO2OLI","3P7RGTLO6EZ76AO3386R8ZK9IWWKAW","","97.09999990463257","img/food1.png","76","99.20000004768372","3","1","false","2","2","1,0.5,0,1,0.5,0,0.5,0,1","0.5,0,1,0.5,0,1,0,1,0.5","2",""
"","html-keyboard-response","101","94886","0.0-148.0","3IUZPWIU1PT6Z7P0VF7LF7DOIW1KWW","ASQW51PUO2OLI","3P7RGTLO6EZ76AO3386R8ZK9IWWKAW","","null","<img src=""img/food1.png"" style=""width:200px; border:14px solid green;"">","null","","","","","","","","","",""
"","image-keyboard-response","102","94970","0.0-150.0","3IUZPWIU1PT6Z7P0VF7LF7DOIW1KWW","ASQW51PUO2OLI","3P7RGTLO6EZ76AO3386R8ZK9IWWKAW","","82.70000004768372","img/food1.png","76","84.09999990463257","3","1","false","2","2","1,0.5,0,1,0.5,0,0.5,0,1","0.5,0,1,0.5,0,1,0,1,0.5","2",""
"","html-keyboard-response","103","95276","0.0-151.0","3IUZPWIU1PT6Z7P0VF7LF7DOIW1KWW","ASQW51PUO2OLI","3P7RGTLO6EZ76AO3386R8ZK9IWWKAW","","null","<img src=""img/food1.png"" style=""width:200px; border:14px solid green;"">","null","","","","","","","","","",""
"","image-keyboard-response","104","95355","0.0-153.0","3IUZPWIU1PT6Z7P0VF7LF7DOIW1KWW","ASQW51PUO2OLI","3P7RGTLO6EZ76AO3386R8ZK9IWWKAW","","73.20000004768372","img/food1.png","76","75.29999995231628","3","1","false","2","2","1,0.5,0,1,0.5,0,0.5,0,1","0.5,0,1,0.5,0,1,0,1,0.5","2",""
"","html-keyboard-response","105","95657","0.0-154.0","3IUZPWIU1PT6Z7P0VF7LF7DOIW1KWW","ASQW51PUO2OLI","3P7RGTLO6EZ76AO3386R8ZK9IWWKAW","","null","<img src=""img/food1.png"" style=""width:200px; border:14px solid green;"">","null","","","","","","","","","",""
"","image-keyboard-response","106","95693","0.0-156.0","3IUZPWIU1PT6Z7P0VF7LF7DOIW1KWW","ASQW51PUO2OLI","3P7RGTLO6EZ76AO3386R8ZK9IWWKAW","","33.799999952316284","img/food3.png","76","35.30000019073486","3","1","false","1","2","1,0.5,0,1,0.5,0,0.5,0,1","0.5,0,1,0.5,0,1,0,1,0.5","2",""
"","html-keyboard-response","107","96004","0.0-157.0","3IUZPWIU1PT6Z7P0VF7LF7DOIW1KWW","ASQW51PUO2OLI","3P7RGTLO6EZ76AO3386R8ZK9IWWKAW","","null","<img src=""img/food3.png"" style=""width:200px; border:14px solid green;"">","null","","","","","","","","","",""
"","image-keyboard-response","108","96059","0.0-159.0","3IUZPWIU1PT6Z7P0VF7LF7DOIW1KWW","ASQW51PUO2OLI","3P7RGTLO6EZ76AO3386R8ZK9IWWKAW","","51.09999990463257","img/food5.png","76","53.59999990463257","3","0","false","3","2","1,0.5,0,1,0.5,0,0.5,0,1","0.5,0,1,0.5,0,1,0,1,0.5","2",""
"","html-keyboard-response","109","96361","0.0-160.0","3IUZPWIU1PT6Z7P0VF7LF7DOIW1KWW","ASQW51PUO2OLI","3P7RGTLO6EZ76AO3386R8ZK9IWWKAW","","null","<img src=""img/food5.png"" style=""width:200px;border:14px solid red;"">","null","","","","","","","","","",""
"","image-keyboard-response","110","96901","0.0-162.0","3IUZPWIU1PT6Z7P0VF7LF7DOIW1KWW","ASQW51PUO2OLI","3P7RGTLO6EZ76AO3386R8ZK9IWWKAW","","537.7000000476837","img/food5.png","76","538.9000000953674","3","1","false","3","2","1,0.5,0,1,0.5,0,0.5,0,1","0.5,0,1,0.5,0,1,0,1,0.5","2",""
"","html-keyboard-response","111","97204","0.0-163.0","3IUZPWIU1PT6Z7P0VF7LF7DOIW1KWW","ASQW51PUO2OLI","3P7RGTLO6EZ76AO3386R8ZK9IWWKAW","","null","<img src=""img/food5.png"" style=""width:200px; border:14px solid green;"">","null","","","","","","","","","",""
"","image-keyboard-response","112","97410","0.0-165.0","3IUZPWIU1PT6Z7P0VF7LF7DOIW1KWW","ASQW51PUO2OLI","3P7RGTLO6EZ76AO3386R8ZK9IWWKAW","","203.90000009536743","img/food1.png","76","205.59999990463257","3","1","false","2","2","1,0.5,0,1,0.5,0,0.5,0,1","0.5,0,1,0.5,0,1,0,1,0.5","2",""
"","html-keyboard-response","113","97712","0.0-166.0","3IUZPWIU1PT6Z7P0VF7LF7DOIW1KWW","ASQW51PUO2OLI","3P7RGTLO6EZ76AO3386R8ZK9IWWKAW","","null","<img src=""img/food1.png"" style=""width:200px; border:14px solid green;"">","null","","","","","","","","","",""
"","image-keyboard-response","114","97752","0.0-168.0","3IUZPWIU1PT6Z7P0VF7LF7DOIW1KWW","ASQW51PUO2OLI","3P7RGTLO6EZ76AO3386R8ZK9IWWKAW","","38.799999952316284","img/food5.png","76","40.200000047683716","3","0","false","3","2","1,0.5,0,1,0.5,0,0.5,0,1","0.5,0,1,0.5,0,1,0,1,0.5","2",""
"","html-keyboard-response","115","98054","0.0-169.0","3IUZPWIU1PT6Z7P0VF7LF7DOIW1KWW","ASQW51PUO2OLI","3P7RGTLO6EZ76AO3386R8ZK9IWWKAW","","null","<img src=""img/food5.png"" style=""width:200px;border:14px solid red;"">","null","","","","","","","","","",""
"","image-keyboard-response","116","98139","0.0-171.0","3IUZPWIU1PT6Z7P0VF7LF7DOIW1KWW","ASQW51PUO2OLI","3P7RGTLO6EZ76AO3386R8ZK9IWWKAW","","80.10000014305115","img/food3.png","76","83.5","3","1","false","1","2","1,0.5,0,1,0.5,0,0.5,0,1","0.5,0,1,0.5,0,1,0,1,0.5","2",""
"","html-keyboard-response","117","98442","0.0-172.0","3IUZPWIU1PT6Z7P0VF7LF7DOIW1KWW","ASQW51PUO2OLI","3P7RGTLO6EZ76AO3386R8ZK9IWWKAW","","null","<img src=""img/food3.png"" style=""width:200px; border:14px solid green;"">","null","","","","","","","","","",""
"","image-keyboard-response","118","98720","0.0-174.0","3IUZPWIU1PT6Z7P0VF7LF7DOIW1KWW","ASQW51PUO2OLI","3P7RGTLO6EZ76AO3386R8ZK9IWWKAW","","276","img/food5.png","76","277.2000000476837","3","0","false","3","2","1,0.5,0,1,0.5,0,0.5,0,1","0.5,0,1,0.5,0,1,0,1,0.5","2",""
"","html-keyboard-response","119","99023","0.0-175.0","3IUZPWIU1PT6Z7P0VF7LF7DOIW1KWW","ASQW51PUO2OLI","3P7RGTLO6EZ76AO3386R8ZK9IWWKAW","","null","<img src=""img/food5.png"" style=""width:200px;border:14px solid red;"">","null","","","","","","","","","",""
"","image-keyboard-response","120","99509","0.0-177.0","3IUZPWIU1PT6Z7P0VF7LF7DOIW1KWW","ASQW51PUO2OLI","3P7RGTLO6EZ76AO3386R8ZK9IWWKAW","","483.2000000476837","img/food1.png","75","485.59999990463257","2","0","false","2","2","1,0.5,0,1,0.5,0,0.5,0,1","0.5,0,1,0.5,0,1,0,1,0.5","2",""
"","html-keyboard-response","121","99813","0.0-178.0","3IUZPWIU1PT6Z7P0VF7LF7DOIW1KWW","ASQW51PUO2OLI","3P7RGTLO6EZ76AO3386R8ZK9IWWKAW","","null","<img src=""img/food1.png"" style=""width:200px;border:14px solid red;"">","null","","","","","","","","","",""
"","image-keyboard-response","122","100455","0.0-180.0","3IUZPWIU1PT6Z7P0VF7LF7DOIW1KWW","ASQW51PUO2OLI","3P7RGTLO6EZ76AO3386R8ZK9IWWKAW","","638.7999999523163","img/food3.png","76","640.5","3","1","false","1","2","1,0.5,0,1,0.5,0,0.5,0,1","0.5,0,1,0.5,0,1,0,1,0.5","2",""
"","html-keyboard-response","123","100759","0.0-181.0","3IUZPWIU1PT6Z7P0VF7LF7DOIW1KWW","ASQW51PUO2OLI","3P7RGTLO6EZ76AO3386R8ZK9IWWKAW","","null","<img src=""img/food3.png"" style=""width:200px; border:14px solid green;"">","null","","","","","","","","","",""
"","image-keyboard-response","124","101058","0.0-183.0","3IUZPWIU1PT6Z7P0VF7LF7DOIW1KWW","ASQW51PUO2OLI","3P7RGTLO6EZ76AO3386R8ZK9IWWKAW","","296.40000009536743","img/food5.png","76","298.2000000476837","3","1","false","3","2","1,0.5,0,1,0.5,0,0.5,0,1","0.5,0,1,0.5,0,1,0,1,0.5","2",""
"","html-keyboard-response","125","101361","0.0-184.0","3IUZPWIU1PT6Z7P0VF7LF7DOIW1KWW","ASQW51PUO2OLI","3P7RGTLO6EZ76AO3386R8ZK9IWWKAW","","null","<img src=""img/food5.png"" style=""width:200px; border:14px solid green;"">","null","","","","","","","","","",""
"","image-keyboard-response","126","101666","0.0-186.0","3IUZPWIU1PT6Z7P0VF7LF7DOIW1KWW","ASQW51PUO2OLI","3P7RGTLO6EZ76AO3386R8ZK9IWWKAW","","303.09999990463257","img/food1.png","76","304.40000009536743","3","1","false","2","2","1,0.5,0,1,0.5,0,0.5,0,1","0.5,0,1,0.5,0,1,0,1,0.5","2",""
"","html-keyboard-response","127","101969","0.0-187.0","3IUZPWIU1PT6Z7P0VF7LF7DOIW1KWW","ASQW51PUO2OLI","3P7RGTLO6EZ76AO3386R8ZK9IWWKAW","","null","<img src=""img/food1.png"" style=""width:200px; border:14px solid green;"">","null","","","","","","","","","",""
"","image-keyboard-response","128","102259","0.0-189.0","3IUZPWIU1PT6Z7P0VF7LF7DOIW1KWW","ASQW51PUO2OLI","3P7RGTLO6EZ76AO3386R8ZK9IWWKAW","","287.2000000476837","img/food3.png","76","289.59999990463257","3","1","false","1","2","1,0.5,0,1,0.5,0,0.5,0,1","0.5,0,1,0.5,0,1,0,1,0.5","2",""
"","html-keyboard-response","129","102563","0.0-190.0","3IUZPWIU1PT6Z7P0VF7LF7DOIW1KWW","ASQW51PUO2OLI","3P7RGTLO6EZ76AO3386R8ZK9IWWKAW","","null","<img src=""img/food3.png"" style=""width:200px; border:14px solid green;"">","null","","","","","","","","","",""
"","image-keyboard-response","130","103167","0.0-192.0","3IUZPWIU1PT6Z7P0VF7LF7DOIW1KWW","ASQW51PUO2OLI","3P7RGTLO6EZ76AO3386R8ZK9IWWKAW","","600.7999999523163","img/food1.png","76","603.5999999046326","3","1","false","2","2","1,0.5,0,1,0.5,0,0.5,0,1","0.5,0,1,0.5,0,1,0,1,0.5","2",""
"","html-keyboard-response","131","103473","0.0-193.0","3IUZPWIU1PT6Z7P0VF7LF7DOIW1KWW","ASQW51PUO2OLI","3P7RGTLO6EZ76AO3386R8ZK9IWWKAW","","null","<img src=""img/food1.png"" style=""width:200px; border:14px solid green;"">","null","","","","","","","","","",""
"","image-keyboard-response","132","103673","0.0-195.0","3IUZPWIU1PT6Z7P0VF7LF7DOIW1KWW","ASQW51PUO2OLI","3P7RGTLO6EZ76AO3386R8ZK9IWWKAW","","197.09999990463257","img/food1.png","76","198.90000009536743","3","1","false","2","2","1,0.5,0,1,0.5,0,0.5,0,1","0.5,0,1,0.5,0,1,0,1,0.5","2",""
"","html-keyboard-response","133","103977","0.0-196.0","3IUZPWIU1PT6Z7P0VF7LF7DOIW1KWW","ASQW51PUO2OLI","3P7RGTLO6EZ76AO3386R8ZK9IWWKAW","","null","<img src=""img/food1.png"" style=""width:200px; border:14px solid green;"">","null","","","","","","","","","",""
"","image-keyboard-response","134","104131","0.0-198.0","3IUZPWIU1PT6Z7P0VF7LF7DOIW1KWW","ASQW51PUO2OLI","3P7RGTLO6EZ76AO3386R8ZK9IWWKAW","","152.5","img/food3.png","76","153.90000009536743","3","1","false","1","2","1,0.5,0,1,0.5,0,0.5,0,1","0.5,0,1,0.5,0,1,0,1,0.5","2",""
"","html-keyboard-response","135","104434","0.0-199.0","3IUZPWIU1PT6Z7P0VF7LF7DOIW1KWW","ASQW51PUO2OLI","3P7RGTLO6EZ76AO3386R8ZK9IWWKAW","","null","<img src=""img/food3.png"" style=""width:200px; border:14px solid green;"">","null","","","","","","","","","",""
"","image-keyboard-response","136","104611","0.0-201.0","3IUZPWIU1PT6Z7P0VF7LF7DOIW1KWW","ASQW51PUO2OLI","3P7RGTLO6EZ76AO3386R8ZK9IWWKAW","","173.90000009536743","img/food5.png","76","176.70000004768372","3","1","false","3","2","1,0.5,0,1,0.5,0,0.5,0,1","0.5,0,1,0.5,0,1,0,1,0.5","2",""
"","html-keyboard-response","137","104915","0.0-202.0","3IUZPWIU1PT6Z7P0VF7LF7DOIW1KWW","ASQW51PUO2OLI","3P7RGTLO6EZ76AO3386R8ZK9IWWKAW","","null","<img src=""img/food5.png"" style=""width:200px; border:14px solid green;"">","null","","","","","","","","","",""
"","image-keyboard-response","138","105269","0.0-204.0","3IUZPWIU1PT6Z7P0VF7LF7DOIW1KWW","ASQW51PUO2OLI","3P7RGTLO6EZ76AO3386R8ZK9IWWKAW","","352.60000014305115","img/food5.png","76","353.7000000476837","3","0","false","3","2","1,0.5,0,1,0.5,0,0.5,0,1","0.5,0,1,0.5,0,1,0,1,0.5","2",""
"","html-keyboard-response","139","105571","0.0-205.0","3IUZPWIU1PT6Z7P0VF7LF7DOIW1KWW","ASQW51PUO2OLI","3P7RGTLO6EZ76AO3386R8ZK9IWWKAW","","null","<img src=""img/food5.png"" style=""width:200px;border:14px solid red;"">","null","","","","","","","","","",""
"","image-keyboard-response","140","106109","0.0-207.0","3IUZPWIU1PT6Z7P0VF7LF7DOIW1KWW","ASQW51PUO2OLI","3P7RGTLO6EZ76AO3386R8ZK9IWWKAW","","534.7000000476837","img/food3.png","76","536.9000000953674","3","1","false","1","2","1,0.5,0,1,0.5,0,0.5,0,1","0.5,0,1,0.5,0,1,0,1,0.5","2",""
"","html-keyboard-response","141","106414","0.0-208.0","3IUZPWIU1PT6Z7P0VF7LF7DOIW1KWW","ASQW51PUO2OLI","3P7RGTLO6EZ76AO3386R8ZK9IWWKAW","","null","<img src=""img/food3.png"" style=""width:200px; border:14px solid green;"">","null","","","","","","","","","",""
"","image-keyboard-response","142","106552","0.0-210.0","3IUZPWIU1PT6Z7P0VF7LF7DOIW1KWW","ASQW51PUO2OLI","3P7RGTLO6EZ76AO3386R8ZK9IWWKAW","","135.70000004768372","img/food5.png","76","137.5","3","1","false","3","2","1,0.5,0,1,0.5,0,0.5,0,1","0.5,0,1,0.5,0,1,0,1,0.5","2",""
"","html-keyboard-response","143","106857","0.0-211.0","3IUZPWIU1PT6Z7P0VF7LF7DOIW1KWW","ASQW51PUO2OLI","3P7RGTLO6EZ76AO3386R8ZK9IWWKAW","","null","<img src=""img/food5.png"" style=""width:200px; border:14px solid green;"">","null","","","","","","","","","",""
"","image-keyboard-response","144","107077","0.0-213.0","3IUZPWIU1PT6Z7P0VF7LF7DOIW1KWW","ASQW51PUO2OLI","3P7RGTLO6EZ76AO3386R8ZK9IWWKAW","","218.09999990463257","img/food5.png","76","219.70000004768372","3","0","false","3","2","1,0.5,0,1,0.5,0,0.5,0,1","0.5,0,1,0.5,0,1,0,1,0.5","2",""
"","html-keyboard-response","145","107382","0.0-214.0","3IUZPWIU1PT6Z7P0VF7LF7DOIW1KWW","ASQW51PUO2OLI","3P7RGTLO6EZ76AO3386R8ZK9IWWKAW","","null","<img src=""img/food5.png"" style=""width:200px;border:14px solid red;"">","null","","","","","","","","","",""
"","image-keyboard-response","146","108004","0.0-216.0","3IUZPWIU1PT6Z7P0VF7LF7DOIW1KWW","ASQW51PUO2OLI","3P7RGTLO6EZ76AO3386R8ZK9IWWKAW","","617.9000000953674","img/food3.png","75","620.6000001430511","2","0","false","1","2","1,0.5,0,1,0.5,0,0.5,0,1","0.5,0,1,0.5,0,1,0,1,0.5","2",""
"","html-keyboard-response","147","108308","0.0-217.0","3IUZPWIU1PT6Z7P0VF7LF7DOIW1KWW","ASQW51PUO2OLI","3P7RGTLO6EZ76AO3386R8ZK9IWWKAW","","null","<img src=""img/food3.png"" style=""width:200px;border:14px solid red;"">","null","","","","","","","","","",""
"","image-keyboard-response","148","108817","0.0-219.0","3IUZPWIU1PT6Z7P0VF7LF7DOIW1KWW","ASQW51PUO2OLI","3P7RGTLO6EZ76AO3386R8ZK9IWWKAW","","508.10000014305115","img/food3.png","76","509.10000014305115","3","1","false","1","2","1,0.5,0,1,0.5,0,0.5,0,1","0.5,0,1,0.5,0,1,0,1,0.5","2",""
"","html-keyboard-response","149","109120","0.0-220.0","3IUZPWIU1PT6Z7P0VF7LF7DOIW1KWW","ASQW51PUO2OLI","3P7RGTLO6EZ76AO3386R8ZK9IWWKAW","","null","<img src=""img/food3.png"" style=""width:200px; border:14px solid green;"">","null","","","","","","","","","",""
"","image-keyboard-response","150","109324","0.0-222.0","3IUZPWIU1PT6Z7P0VF7LF7DOIW1KWW","ASQW51PUO2OLI","3P7RGTLO6EZ76AO3386R8ZK9IWWKAW","","202.09999990463257","img/food3.png","76","203.29999995231628","3","1","false","1","2","1,0.5,0,1,0.5,0,0.5,0,1","0.5,0,1,0.5,0,1,0,1,0.5","2",""
"","html-keyboard-response","151","109626","0.0-223.0","3IUZPWIU1PT6Z7P0VF7LF7DOIW1KWW","ASQW51PUO2OLI","3P7RGTLO6EZ76AO3386R8ZK9IWWKAW","","null","<img src=""img/food3.png"" style=""width:200px; border:14px solid green;"">","null","","","","","","","","","",""
"","image-keyboard-response","152","109776","0.0-225.0","3IUZPWIU1PT6Z7P0VF7LF7DOIW1KWW","ASQW51PUO2OLI","3P7RGTLO6EZ76AO3386R8ZK9IWWKAW","","146.59999990463257","img/food1.png","76","148.69999980926514","3","1","false","2","2","1,0.5,0,1,0.5,0,0.5,0,1","0.5,0,1,0.5,0,1,0,1,0.5","2",""
"","html-keyboard-response","153","110079","0.0-226.0","3IUZPWIU1PT6Z7P0VF7LF7DOIW1KWW","ASQW51PUO2OLI","3P7RGTLO6EZ76AO3386R8ZK9IWWKAW","","null","<img src=""img/food1.png"" style=""width:200px; border:14px solid green;"">","null","","","","","","","","","",""
"","image-keyboard-response","154","110410","0.0-228.0","3IUZPWIU1PT6Z7P0VF7LF7DOIW1KWW","ASQW51PUO2OLI","3P7RGTLO6EZ76AO3386R8ZK9IWWKAW","","327.89999985694885","img/food3.png","76","330.5","3","1","false","1","2","1,0.5,0,1,0.5,0,0.5,0,1","0.5,0,1,0.5,0,1,0,1,0.5","2",""
"","html-keyboard-response","155","110715","0.0-229.0","3IUZPWIU1PT6Z7P0VF7LF7DOIW1KWW","ASQW51PUO2OLI","3P7RGTLO6EZ76AO3386R8ZK9IWWKAW","","null","<img src=""img/food3.png"" style=""width:200px; border:14px solid green;"">","null","","","","","","","","","",""
"","image-keyboard-response","156","111018","0.0-231.0","3IUZPWIU1PT6Z7P0VF7LF7DOIW1KWW","ASQW51PUO2OLI","3P7RGTLO6EZ76AO3386R8ZK9IWWKAW","","301.7999999523163","img/food3.png","76","303.5","3","1","false","1","2","1,0.5,0,1,0.5,0,0.5,0,1","0.5,0,1,0.5,0,1,0,1,0.5","2",""
"","html-keyboard-response","157","111322","0.0-232.0","3IUZPWIU1PT6Z7P0VF7LF7DOIW1KWW","ASQW51PUO2OLI","3P7RGTLO6EZ76AO3386R8ZK9IWWKAW","","null","<img src=""img/food3.png"" style=""width:200px; border:14px solid green;"">","null","","","","","","","","","",""
"","image-keyboard-response","158","112201","0.0-234.0","3IUZPWIU1PT6Z7P0VF7LF7DOIW1KWW","ASQW51PUO2OLI","3P7RGTLO6EZ76AO3386R8ZK9IWWKAW","","875.6999998092651","img/food1.png","76","878.0999999046326","3","1","false","2","2","1,0.5,0,1,0.5,0,0.5,0,1","0.5,0,1,0.5,0,1,0,1,0.5","2",""
"","html-keyboard-response","159","112504","0.0-235.0","3IUZPWIU1PT6Z7P0VF7LF7DOIW1KWW","ASQW51PUO2OLI","3P7RGTLO6EZ76AO3386R8ZK9IWWKAW","","null","<img src=""img/food1.png"" style=""width:200px; border:14px solid green;"">","null","","","","","","","","","",""
"","image-keyboard-response","160","112778","0.0-237.0","3IUZPWIU1PT6Z7P0VF7LF7DOIW1KWW","ASQW51PUO2OLI","3P7RGTLO6EZ76AO3386R8ZK9IWWKAW","","270.5","img/food1.png","76","273.19999980926514","3","1","false","2","2","1,0.5,0,1,0.5,0,0.5,0,1","0.5,0,1,0.5,0,1,0,1,0.5","2",""
"","html-keyboard-response","161","113081","0.0-238.0","3IUZPWIU1PT6Z7P0VF7LF7DOIW1KWW","ASQW51PUO2OLI","3P7RGTLO6EZ76AO3386R8ZK9IWWKAW","","null","<img src=""img/food1.png"" style=""width:200px; border:14px solid green;"">","null","","","","","","","","","",""
"","image-keyboard-response","162","113138","0.0-240.0","3IUZPWIU1PT6Z7P0VF7LF7DOIW1KWW","ASQW51PUO2OLI","3P7RGTLO6EZ76AO3386R8ZK9IWWKAW","","54.5","img/food1.png","76","56","3","1","false","2","2","1,0.5,0,1,0.5,0,0.5,0,1","0.5,0,1,0.5,0,1,0,1,0.5","2",""
"","html-keyboard-response","163","113441","0.0-241.0","3IUZPWIU1PT6Z7P0VF7LF7DOIW1KWW","ASQW51PUO2OLI","3P7RGTLO6EZ76AO3386R8ZK9IWWKAW","","null","<img src=""img/food1.png"" style=""width:200px; border:14px solid green;"">","null","","","","","","","","","",""
"","image-keyboard-response","164","113526","0.0-243.0","3IUZPWIU1PT6Z7P0VF7LF7DOIW1KWW","ASQW51PUO2OLI","3P7RGTLO6EZ76AO3386R8ZK9IWWKAW","","80.89999985694885","img/food1.png","76","83.40000009536743","3","1","false","2","2","1,0.5,0,1,0.5,0,0.5,0,1","0.5,0,1,0.5,0,1,0,1,0.5","2",""
"","html-keyboard-response","165","113829","0.0-244.0","3IUZPWIU1PT6Z7P0VF7LF7DOIW1KWW","ASQW51PUO2OLI","3P7RGTLO6EZ76AO3386R8ZK9IWWKAW","","null","<img src=""img/food1.png"" style=""width:200px; border:14px solid green;"">","null","","","","","","","","","",""
"","image-keyboard-response","166","113890","0.0-246.0","3IUZPWIU1PT6Z7P0VF7LF7DOIW1KWW","ASQW51PUO2OLI","3P7RGTLO6EZ76AO3386R8ZK9IWWKAW","","58","img/food3.png","76","60","3","1","false","1","2","1,0.5,0,1,0.5,0,0.5,0,1","0.5,0,1,0.5,0,1,0,1,0.5","2",""
"","html-keyboard-response","167","114193","0.0-247.0","3IUZPWIU1PT6Z7P0VF7LF7DOIW1KWW","ASQW51PUO2OLI","3P7RGTLO6EZ76AO3386R8ZK9IWWKAW","","null","<img src=""img/food3.png"" style=""width:200px; border:14px solid green;"">","null","","","","","","","","","",""
"","image-keyboard-response","168","114228","0.0-249.0","3IUZPWIU1PT6Z7P0VF7LF7DOIW1KWW","ASQW51PUO2OLI","3P7RGTLO6EZ76AO3386R8ZK9IWWKAW","","31.299999952316284","img/food3.png","76","33.80000019073486","3","1","false","1","2","1,0.5,0,1,0.5,0,0.5,0,1","0.5,0,1,0.5,0,1,0,1,0.5","2",""
"","html-keyboard-response","169","114536","0.0-250.0","3IUZPWIU1PT6Z7P0VF7LF7DOIW1KWW","ASQW51PUO2OLI","3P7RGTLO6EZ76AO3386R8ZK9IWWKAW","","null","<img src=""img/food3.png"" style=""width:200px; border:14px solid green;"">","null","","","","","","","","","",""
"","image-keyboard-response","170","114626","0.0-252.0","3IUZPWIU1PT6Z7P0VF7LF7DOIW1KWW","ASQW51PUO2OLI","3P7RGTLO6EZ76AO3386R8ZK9IWWKAW","","87","img/food1.png","76","89.60000014305115","3","1","false","2","2","1,0.5,0,1,0.5,0,0.5,0,1","0.5,0,1,0.5,0,1,0,1,0.5","2",""
"","html-keyboard-response","171","114929","0.0-253.0","3IUZPWIU1PT6Z7P0VF7LF7DOIW1KWW","ASQW51PUO2OLI","3P7RGTLO6EZ76AO3386R8ZK9IWWKAW","","null","<img src=""img/food1.png"" style=""width:200px; border:14px solid green;"">","null","","","","","","","","","",""
"","image-keyboard-response","172","114977","0.0-255.0","3IUZPWIU1PT6Z7P0VF7LF7DOIW1KWW","ASQW51PUO2OLI","3P7RGTLO6EZ76AO3386R8ZK9IWWKAW","","43.59999990463257","img/food1.png","76","45.700000047683716","3","1","false","2","2","1,0.5,0,1,0.5,0,0.5,0,1","0.5,0,1,0.5,0,1,0,1,0.5","2",""
"","html-keyboard-response","173","115288","0.0-256.0","3IUZPWIU1PT6Z7P0VF7LF7DOIW1KWW","ASQW51PUO2OLI","3P7RGTLO6EZ76AO3386R8ZK9IWWKAW","","null","<img src=""img/food1.png"" style=""width:200px; border:14px solid green;"">","null","","","","","","","","","",""
"","image-keyboard-response","174","115300","0.0-258.0","3IUZPWIU1PT6Z7P0VF7LF7DOIW1KWW","ASQW51PUO2OLI","3P7RGTLO6EZ76AO3386R8ZK9IWWKAW","","9.299999952316284","img/food5.png","76","11.5","3","0","false","3","2","1,0.5,0,1,0.5,0,0.5,0,1","0.5,0,1,0.5,0,1,0,1,0.5","2",""
"","html-keyboard-response","175","115604","0.0-259.0","3IUZPWIU1PT6Z7P0VF7LF7DOIW1KWW","ASQW51PUO2OLI","3P7RGTLO6EZ76AO3386R8ZK9IWWKAW","","null","<img src=""img/food5.png"" style=""width:200px;border:14px solid red;"">","null","","","","","","","","","",""
"","image-keyboard-response","176","115644","0.0-261.0","3IUZPWIU1PT6Z7P0VF7LF7DOIW1KWW","ASQW51PUO2OLI","3P7RGTLO6EZ76AO3386R8ZK9IWWKAW","","36.90000009536743","img/food5.png","76","39.5","3","0","false","3","2","1,0.5,0,1,0.5,0,0.5,0,1","0.5,0,1,0.5,0,1,0,1,0.5","2",""
"","html-keyboard-response","177","115948","0.0-262.0","3IUZPWIU1PT6Z7P0VF7LF7DOIW1KWW","ASQW51PUO2OLI","3P7RGTLO6EZ76AO3386R8ZK9IWWKAW","","null","<img src=""img/food5.png"" style=""width:200px;border:14px solid red;"">","null","","","","","","","","","",""
"","image-keyboard-response","178","116136","0.0-264.0","3IUZPWIU1PT6Z7P0VF7LF7DOIW1KWW","ASQW51PUO2OLI","3P7RGTLO6EZ76AO3386R8ZK9IWWKAW","","185","img/food3.png","76","186.90000009536743","3","1","false","1","2","1,0.5,0,1,0.5,0,0.5,0,1","0.5,0,1,0.5,0,1,0,1,0.5","2",""
"","html-keyboard-response","179","116439","0.0-265.0","3IUZPWIU1PT6Z7P0VF7LF7DOIW1KWW","ASQW51PUO2OLI","3P7RGTLO6EZ76AO3386R8ZK9IWWKAW","","null","<img src=""img/food3.png"" style=""width:200px; border:14px solid green;"">","null","","","","","","","","","",""
"","image-keyboard-response","180","116540","0.0-267.0","3IUZPWIU1PT6Z7P0VF7LF7DOIW1KWW","ASQW51PUO2OLI","3P7RGTLO6EZ76AO3386R8ZK9IWWKAW","","97","img/food5.png","76","100","3","1","false","3","2","1,0.5,0,1,0.5,0,0.5,0,1","0.5,0,1,0.5,0,1,0,1,0.5","2",""
"","html-keyboard-response","181","116844","0.0-268.0","3IUZPWIU1PT6Z7P0VF7LF7DOIW1KWW","ASQW51PUO2OLI","3P7RGTLO6EZ76AO3386R8ZK9IWWKAW","","null","<img src=""img/food5.png"" style=""width:200px; border:14px solid green;"">","null","","","","","","","","","",""
"","image-keyboard-response","182","116913","0.0-270.0","3IUZPWIU1PT6Z7P0VF7LF7DOIW1KWW","ASQW51PUO2OLI","3P7RGTLO6EZ76AO3386R8ZK9IWWKAW","","67.09999990463257","img/food3.png","76","68.79999995231628","3","1","false","1","2","1,0.5,0,1,0.5,0,0.5,0,1","0.5,0,1,0.5,0,1,0,1,0.5","2",""
"","html-keyboard-response","183","117217","0.0-271.0","3IUZPWIU1PT6Z7P0VF7LF7DOIW1KWW","ASQW51PUO2OLI","3P7RGTLO6EZ76AO3386R8ZK9IWWKAW","","null","<img src=""img/food3.png"" style=""width:200px; border:14px solid green;"">","null","","","","","","","","","",""
"","instructions","184","124468","0.0-273.0","3IUZPWIU1PT6Z7P0VF7LF7DOIW1KWW","ASQW51PUO2OLI","3P7RGTLO6EZ76AO3386R8ZK9IWWKAW","[{""page_index"":0,""viewing_time"":6258.400000095367},{""page_index"":1,""viewing_time"":990.0999999046326}]","7249.300000190735","","","","","","","","","","","",""
"","image-keyboard-response","185","125537","0.0-274.0","3IUZPWIU1PT6Z7P0VF7LF7DOIW1KWW","ASQW51PUO2OLI","3P7RGTLO6EZ76AO3386R8ZK9IWWKAW","","1065.8000001907349","img/food4.png","74","1069","1","1","","2","1","1,0.5,0,1,0.5,0,0.5,0,1","0.5,0,1,0.5,0,1,0,1,0.5","2",""
"","html-keyboard-response","186","125842","0.0-275.0","3IUZPWIU1PT6Z7P0VF7LF7DOIW1KWW","ASQW51PUO2OLI","3P7RGTLO6EZ76AO3386R8ZK9IWWKAW","","null","<img src=""img/food4.png"" style=""width:200px; border:14px solid green;"">","null","","","","","","","","","",""
"","image-keyboard-response","187","126655","0.0-276.0","3IUZPWIU1PT6Z7P0VF7LF7DOIW1KWW","ASQW51PUO2OLI","3P7RGTLO6EZ76AO3386R8ZK9IWWKAW","","811.2000000476837","img/food6.png","74","812.5999999046326","1","0","","3","1","1,0.5,0,1,0.5,0,0.5,0,1","0.5,0,1,0.5,0,1,0,1,0.5","2",""
"","html-keyboard-response","188","126958","0.0-277.0","3IUZPWIU1PT6Z7P0VF7LF7DOIW1KWW","ASQW51PUO2OLI","3P7RGTLO6EZ76AO3386R8ZK9IWWKAW","","null","<img src=""img/food6.png"" style=""width:200px;border:14px solid red;"">","null","","","","","","","","","",""
"","image-keyboard-response","189","127511","0.0-278.0","3IUZPWIU1PT6Z7P0VF7LF7DOIW1KWW","ASQW51PUO2OLI","3P7RGTLO6EZ76AO3386R8ZK9IWWKAW","","549","img/food4.png","74","552.2000000476837","1","1","","2","1","1,0.5,0,1,0.5,0,0.5,0,1","0.5,0,1,0.5,0,1,0,1,0.5","2",""
"","html-keyboard-response","190","127815","0.0-279.0","3IUZPWIU1PT6Z7P0VF7LF7DOIW1KWW","ASQW51PUO2OLI","3P7RGTLO6EZ76AO3386R8ZK9IWWKAW","","null","<img src=""img/food4.png"" style=""width:200px; border:14px solid green;"">","null","","","","","","","","","",""
"","image-keyboard-response","191","128674","0.0-280.0","3IUZPWIU1PT6Z7P0VF7LF7DOIW1KWW","ASQW51PUO2OLI","3P7RGTLO6EZ76AO3386R8ZK9IWWKAW","","856.9000000953674","img/food2.png","75","858.6000001430511","2","0","","1","1","1,0.5,0,1,0.5,0,0.5,0,1","0.5,0,1,0.5,0,1,0,1,0.5","2",""
"","html-keyboard-response","192","128977","0.0-281.0","3IUZPWIU1PT6Z7P0VF7LF7DOIW1KWW","ASQW51PUO2OLI","3P7RGTLO6EZ76AO3386R8ZK9IWWKAW","","null","<img src=""img/food2.png"" style=""width:200px;border:14px solid red;"">","null","","","","","","","","","",""
"","image-keyboard-response","193","129450","0.0-282.0","3IUZPWIU1PT6Z7P0VF7LF7DOIW1KWW","ASQW51PUO2OLI","3P7RGTLO6EZ76AO3386R8ZK9IWWKAW","","470.5","img/food4.png","75","472.80000019073486","2","0","","2","1","1,0.5,0,1,0.5,0,0.5,0,1","0.5,0,1,0.5,0,1,0,1,0.5","2",""
"","html-keyboard-response","194","129755","0.0-283.0","3IUZPWIU1PT6Z7P0VF7LF7DOIW1KWW","ASQW51PUO2OLI","3P7RGTLO6EZ76AO3386R8ZK9IWWKAW","","null","<img src=""img/food4.png"" style=""width:200px;border:14px solid red;"">","null","","","","","","","","","",""
"","image-keyboard-response","195","130393","0.0-284.0","3IUZPWIU1PT6Z7P0VF7LF7DOIW1KWW","ASQW51PUO2OLI","3P7RGTLO6EZ76AO3386R8ZK9IWWKAW","","635.5","img/food4.png","74","637.7999999523163","1","1","","2","1","1,0.5,0,1,0.5,0,0.5,0,1","0.5,0,1,0.5,0,1,0,1,0.5","2",""
"","html-keyboard-response","196","130697","0.0-285.0","3IUZPWIU1PT6Z7P0VF7LF7DOIW1KWW","ASQW51PUO2OLI","3P7RGTLO6EZ76AO3386R8ZK9IWWKAW","","null","<img src=""img/food4.png"" style=""width:200px; border:14px solid green;"">","null","","","","","","","","","",""
"","image-keyboard-response","197","131128","0.0-286.0","3IUZPWIU1PT6Z7P0VF7LF7DOIW1KWW","ASQW51PUO2OLI","3P7RGTLO6EZ76AO3386R8ZK9IWWKAW","","428","img/food4.png","74","430.2999999523163","1","0","","2","1","1,0.5,0,1,0.5,0,0.5,0,1","0.5,0,1,0.5,0,1,0,1,0.5","2",""
"","html-keyboard-response","198","131432","0.0-287.0","3IUZPWIU1PT6Z7P0VF7LF7DOIW1KWW","ASQW51PUO2OLI","3P7RGTLO6EZ76AO3386R8ZK9IWWKAW","","null","<img src=""img/food4.png"" style=""width:200px;border:14px solid red;"">","null","","","","","","","","","",""
"","image-keyboard-response","199","131934","0.0-288.0","3IUZPWIU1PT6Z7P0VF7LF7DOIW1KWW","ASQW51PUO2OLI","3P7RGTLO6EZ76AO3386R8ZK9IWWKAW","","500.2999999523163","img/food4.png","74","501.40000009536743","1","0","","2","1","1,0.5,0,1,0.5,0,0.5,0,1","0.5,0,1,0.5,0,1,0,1,0.5","2",""
"","html-keyboard-response","200","132237","0.0-289.0","3IUZPWIU1PT6Z7P0VF7LF7DOIW1KWW","ASQW51PUO2OLI","3P7RGTLO6EZ76AO3386R8ZK9IWWKAW","","null","<img src=""img/food4.png"" style=""width:200px;border:14px solid red;"">","null","","","","","","","","","",""
"","image-keyboard-response","201","133119","0.0-290.0","3IUZPWIU1PT6Z7P0VF7LF7DOIW1KWW","ASQW51PUO2OLI","3P7RGTLO6EZ76AO3386R8ZK9IWWKAW","","881","img/food2.png","75","882.5999999046326","2","0","","1","1","1,0.5,0,1,0.5,0,0.5,0,1","0.5,0,1,0.5,0,1,0,1,0.5","2",""
"","html-keyboard-response","202","133422","0.0-291.0","3IUZPWIU1PT6Z7P0VF7LF7DOIW1KWW","ASQW51PUO2OLI","3P7RGTLO6EZ76AO3386R8ZK9IWWKAW","","null","<img src=""img/food2.png"" style=""width:200px;border:14px solid red;"">","null","","","","","","","","","",""
"","image-keyboard-response","203","133727","0.0-292.0","3IUZPWIU1PT6Z7P0VF7LF7DOIW1KWW","ASQW51PUO2OLI","3P7RGTLO6EZ76AO3386R8ZK9IWWKAW","","302.90000009536743","img/food2.png","75","304.69999980926514","2","0","","1","1","1,0.5,0,1,0.5,0,0.5,0,1","0.5,0,1,0.5,0,1,0,1,0.5","2",""
"","html-keyboard-response","204","134030","0.0-293.0","3IUZPWIU1PT6Z7P0VF7LF7DOIW1KWW","ASQW51PUO2OLI","3P7RGTLO6EZ76AO3386R8ZK9IWWKAW","","null","<img src=""img/food2.png"" style=""width:200px;border:14px solid red;"">","null","","","","","","","","","",""
"","image-keyboard-response","205","134849","0.0-294.0","3IUZPWIU1PT6Z7P0VF7LF7DOIW1KWW","ASQW51PUO2OLI","3P7RGTLO6EZ76AO3386R8ZK9IWWKAW","","816","img/food4.png","74","818","1","0","","2","1","1,0.5,0,1,0.5,0,0.5,0,1","0.5,0,1,0.5,0,1,0,1,0.5","2",""
"","html-keyboard-response","206","135152","0.0-295.0","3IUZPWIU1PT6Z7P0VF7LF7DOIW1KWW","ASQW51PUO2OLI","3P7RGTLO6EZ76AO3386R8ZK9IWWKAW","","null","<img src=""img/food4.png"" style=""width:200px;border:14px solid red;"">","null","","","","","","","","","",""
"","image-keyboard-response","207","135664","0.0-296.0","3IUZPWIU1PT6Z7P0VF7LF7DOIW1KWW","ASQW51PUO2OLI","3P7RGTLO6EZ76AO3386R8ZK9IWWKAW","","508.59999990463257","img/food4.png","74","511","1","1","","2","1","1,0.5,0,1,0.5,0,0.5,0,1","0.5,0,1,0.5,0,1,0,1,0.5","2",""
"","html-keyboard-response","208","135967","0.0-297.0","3IUZPWIU1PT6Z7P0VF7LF7DOIW1KWW","ASQW51PUO2OLI","3P7RGTLO6EZ76AO3386R8ZK9IWWKAW","","null","<img src=""img/food4.png"" style=""width:200px; border:14px solid green;"">","null","","","","","","","","","",""
"","image-keyboard-response","209","136751","0.0-298.0","3IUZPWIU1PT6Z7P0VF7LF7DOIW1KWW","ASQW51PUO2OLI","3P7RGTLO6EZ76AO3386R8ZK9IWWKAW","","781.2999999523163","img/food6.png","76","783.2000000476837","3","0","","3","1","1,0.5,0,1,0.5,0,0.5,0,1","0.5,0,1,0.5,0,1,0,1,0.5","2",""
"","html-keyboard-response","210","137055","0.0-299.0","3IUZPWIU1PT6Z7P0VF7LF7DOIW1KWW","ASQW51PUO2OLI","3P7RGTLO6EZ76AO3386R8ZK9IWWKAW","","null","<img src=""img/food6.png"" style=""width:200px;border:14px solid red;"">","null","","","","","","","","","",""
"","image-keyboard-response","211","137542","0.0-300.0","3IUZPWIU1PT6Z7P0VF7LF7DOIW1KWW","ASQW51PUO2OLI","3P7RGTLO6EZ76AO3386R8ZK9IWWKAW","","484","img/food6.png","75","486.39999985694885","2","1","","3","1","1,0.5,0,1,0.5,0,0.5,0,1","0.5,0,1,0.5,0,1,0,1,0.5","2",""
"","html-keyboard-response","212","137845","0.0-301.0","3IUZPWIU1PT6Z7P0VF7LF7DOIW1KWW","ASQW51PUO2OLI","3P7RGTLO6EZ76AO3386R8ZK9IWWKAW","","null","<img src=""img/food6.png"" style=""width:200px; border:14px solid green;"">","null","","","","","","","","","",""
"","image-keyboard-response","213","138692","0.0-302.0","3IUZPWIU1PT6Z7P0VF7LF7DOIW1KWW","ASQW51PUO2OLI","3P7RGTLO6EZ76AO3386R8ZK9IWWKAW","","845.7999999523163","img/food2.png","76","846.7999999523163","3","1","","1","1","1,0.5,0,1,0.5,0,0.5,0,1","0.5,0,1,0.5,0,1,0,1,0.5","2",""
"","html-keyboard-response","214","139005","0.0-303.0","3IUZPWIU1PT6Z7P0VF7LF7DOIW1KWW","ASQW51PUO2OLI","3P7RGTLO6EZ76AO3386R8ZK9IWWKAW","","null","<img src=""img/food2.png"" style=""width:200px; border:14px solid green;"">","null","","","","","","","","","",""
"","image-keyboard-response","215","139768","0.0-304.0","3IUZPWIU1PT6Z7P0VF7LF7DOIW1KWW","ASQW51PUO2OLI","3P7RGTLO6EZ76AO3386R8ZK9IWWKAW","","761.2000000476837","img/food4.png","74","762.9000000953674","1","0","","2","1","1,0.5,0,1,0.5,0,0.5,0,1","0.5,0,1,0.5,0,1,0,1,0.5","2",""
"","html-keyboard-response","216","140071","0.0-305.0","3IUZPWIU1PT6Z7P0VF7LF7DOIW1KWW","ASQW51PUO2OLI","3P7RGTLO6EZ76AO3386R8ZK9IWWKAW","","null","<img src=""img/food4.png"" style=""width:200px;border:14px solid red;"">","null","","","","","","","","","",""
"","image-keyboard-response","217","141099","0.0-306.0","3IUZPWIU1PT6Z7P0VF7LF7DOIW1KWW","ASQW51PUO2OLI","3P7RGTLO6EZ76AO3386R8ZK9IWWKAW","","1025.5","img/food2.png","76","1027.6000001430511","3","1","","1","1","1,0.5,0,1,0.5,0,0.5,0,1","0.5,0,1,0.5,0,1,0,1,0.5","2",""
"","html-keyboard-response","218","141405","0.0-307.0","3IUZPWIU1PT6Z7P0VF7LF7DOIW1KWW","ASQW51PUO2OLI","3P7RGTLO6EZ76AO3386R8ZK9IWWKAW","","null","<img src=""img/food2.png"" style=""width:200px; border:14px solid green;"">","null","","","","","","","","","",""
"","image-keyboard-response","219","142047","0.0-308.0","3IUZPWIU1PT6Z7P0VF7LF7DOIW1KWW","ASQW51PUO2OLI","3P7RGTLO6EZ76AO3386R8ZK9IWWKAW","","639.5999999046326","img/food4.png","74","641.7999999523163","1","0","","2","1","1,0.5,0,1,0.5,0,0.5,0,1","0.5,0,1,0.5,0,1,0,1,0.5","2",""
"","html-keyboard-response","220","142351","0.0-309.0","3IUZPWIU1PT6Z7P0VF7LF7DOIW1KWW","ASQW51PUO2OLI","3P7RGTLO6EZ76AO3386R8ZK9IWWKAW","","null","<img src=""img/food4.png"" style=""width:200px;border:14px solid red;"">","null","","","","","","","","","",""
"","image-keyboard-response","221","142668","0.0-310.0","3IUZPWIU1PT6Z7P0VF7LF7DOIW1KWW","ASQW51PUO2OLI","3P7RGTLO6EZ76AO3386R8ZK9IWWKAW","","314.7999999523163","img/food4.png","74","316.5","1","1","","2","1","1,0.5,0,1,0.5,0,0.5,0,1","0.5,0,1,0.5,0,1,0,1,0.5","2",""
"","html-keyboard-response","222","142972","0.0-311.0","3IUZPWIU1PT6Z7P0VF7LF7DOIW1KWW","ASQW51PUO2OLI","3P7RGTLO6EZ76AO3386R8ZK9IWWKAW","","null","<img src=""img/food4.png"" style=""width:200px; border:14px solid green;"">","null","","","","","","","","","",""
"","image-keyboard-response","223","143391","0.0-312.0","3IUZPWIU1PT6Z7P0VF7LF7DOIW1KWW","ASQW51PUO2OLI","3P7RGTLO6EZ76AO3386R8ZK9IWWKAW","","415.59999990463257","img/food4.png","74","418.2999999523163","1","1","","2","1","1,0.5,0,1,0.5,0,0.5,0,1","0.5,0,1,0.5,0,1,0,1,0.5","2",""
"","html-keyboard-response","224","143695","0.0-313.0","3IUZPWIU1PT6Z7P0VF7LF7DOIW1KWW","ASQW51PUO2OLI","3P7RGTLO6EZ76AO3386R8ZK9IWWKAW","","null","<img src=""img/food4.png"" style=""width:200px; border:14px solid green;"">","null","","","","","","","","","",""
"","image-keyboard-response","225","144390","0.0-314.0","3IUZPWIU1PT6Z7P0VF7LF7DOIW1KWW","ASQW51PUO2OLI","3P7RGTLO6EZ76AO3386R8ZK9IWWKAW","","693.1000001430511","img/food6.png","75","694.5","2","1","","3","1","1,0.5,0,1,0.5,0,0.5,0,1","0.5,0,1,0.5,0,1,0,1,0.5","2",""
"","html-keyboard-response","226","144693","0.0-315.0","3IUZPWIU1PT6Z7P0VF7LF7DOIW1KWW","ASQW51PUO2OLI","3P7RGTLO6EZ76AO3386R8ZK9IWWKAW","","null","<img src=""img/food6.png"" style=""width:200px; border:14px solid green;"">","null","","","","","","","","","",""
"","image-keyboard-response","227","145063","0.0-316.0","3IUZPWIU1PT6Z7P0VF7LF7DOIW1KWW","ASQW51PUO2OLI","3P7RGTLO6EZ76AO3386R8ZK9IWWKAW","","366.7999999523163","img/food6.png","75","368.7999999523163","2","1","","3","1","1,0.5,0,1,0.5,0,0.5,0,1","0.5,0,1,0.5,0,1,0,1,0.5","2",""
"","html-keyboard-response","228","145368","0.0-317.0","3IUZPWIU1PT6Z7P0VF7LF7DOIW1KWW","ASQW51PUO2OLI","3P7RGTLO6EZ76AO3386R8ZK9IWWKAW","","null","<img src=""img/food6.png"" style=""width:200px; border:14px solid green;"">","null","","","","","","","","","",""
"","image-keyboard-response","229","145659","0.0-318.0","3IUZPWIU1PT6Z7P0VF7LF7DOIW1KWW","ASQW51PUO2OLI","3P7RGTLO6EZ76AO3386R8ZK9IWWKAW","","285.60000014305115","img/food6.png","75","288.09999990463257","2","1","","3","1","1,0.5,0,1,0.5,0,0.5,0,1","0.5,0,1,0.5,0,1,0,1,0.5","2",""
"","html-keyboard-response","230","145962","0.0-319.0","3IUZPWIU1PT6Z7P0VF7LF7DOIW1KWW","ASQW51PUO2OLI","3P7RGTLO6EZ76AO3386R8ZK9IWWKAW","","null","<img src=""img/food6.png"" style=""width:200px; border:14px solid green;"">","null","","","","","","","","","",""
"","image-keyboard-response","231","146236","0.0-320.0","3IUZPWIU1PT6Z7P0VF7LF7DOIW1KWW","ASQW51PUO2OLI","3P7RGTLO6EZ76AO3386R8ZK9IWWKAW","","272.60000014305115","img/food6.png","75","274.2000000476837","2","1","","3","1","1,0.5,0,1,0.5,0,0.5,0,1","0.5,0,1,0.5,0,1,0,1,0.5","2",""
"","html-keyboard-response","232","146542","0.0-321.0","3IUZPWIU1PT6Z7P0VF7LF7DOIW1KWW","ASQW51PUO2OLI","3P7RGTLO6EZ76AO3386R8ZK9IWWKAW","","null","<img src=""img/food6.png"" style=""width:200px; border:14px solid green;"">","null","","","","","","","","","",""
"","image-keyboard-response","233","146846","0.0-322.0","3IUZPWIU1PT6Z7P0VF7LF7DOIW1KWW","ASQW51PUO2OLI","3P7RGTLO6EZ76AO3386R8ZK9IWWKAW","","301.5","img/food6.png","75","303.59999990463257","2","1","","3","1","1,0.5,0,1,0.5,0,0.5,0,1","0.5,0,1,0.5,0,1,0,1,0.5","2",""
"","html-keyboard-response","234","147150","0.0-323.0","3IUZPWIU1PT6Z7P0VF7LF7DOIW1KWW","ASQW51PUO2OLI","3P7RGTLO6EZ76AO3386R8ZK9IWWKAW","","null","<img src=""img/food6.png"" style=""width:200px; border:14px solid green;"">","null","","","","","","","","","",""
"","image-keyboard-response","235","147458","0.0-324.0","3IUZPWIU1PT6Z7P0VF7LF7DOIW1KWW","ASQW51PUO2OLI","3P7RGTLO6EZ76AO3386R8ZK9IWWKAW","","303.7999999523163","img/food6.png","75","307.09999990463257","2","1","","3","1","1,0.5,0,1,0.5,0,0.5,0,1","0.5,0,1,0.5,0,1,0,1,0.5","2",""
"","html-keyboard-response","236","147763","0.0-325.0","3IUZPWIU1PT6Z7P0VF7LF7DOIW1KWW","ASQW51PUO2OLI","3P7RGTLO6EZ76AO3386R8ZK9IWWKAW","","null","<img src=""img/food6.png"" style=""width:200px; border:14px solid green;"">","null","","","","","","","","","",""
"","image-keyboard-response","237","148089","0.0-326.0","3IUZPWIU1PT6Z7P0VF7LF7DOIW1KWW","ASQW51PUO2OLI","3P7RGTLO6EZ76AO3386R8ZK9IWWKAW","","322.7000000476837","img/food2.png","75","325.69999980926514","2","0","","1","1","1,0.5,0,1,0.5,0,0.5,0,1","0.5,0,1,0.5,0,1,0,1,0.5","2",""
"","html-keyboard-response","238","148395","0.0-327.0","3IUZPWIU1PT6Z7P0VF7LF7DOIW1KWW","ASQW51PUO2OLI","3P7RGTLO6EZ76AO3386R8ZK9IWWKAW","","null","<img src=""img/food2.png"" style=""width:200px;border:14px solid red;"">","null","","","","","","","","","",""
"","image-keyboard-response","239","149169","0.0-328.0","3IUZPWIU1PT6Z7P0VF7LF7DOIW1KWW","ASQW51PUO2OLI","3P7RGTLO6EZ76AO3386R8ZK9IWWKAW","","769.2999999523163","img/food4.png","74","773.2000000476837","1","1","","2","1","1,0.5,0,1,0.5,0,0.5,0,1","0.5,0,1,0.5,0,1,0,1,0.5","2",""
"","html-keyboard-response","240","149473","0.0-329.0","3IUZPWIU1PT6Z7P0VF7LF7DOIW1KWW","ASQW51PUO2OLI","3P7RGTLO6EZ76AO3386R8ZK9IWWKAW","","null","<img src=""img/food4.png"" style=""width:200px; border:14px solid green;"">","null","","","","","","","","","",""
"","image-keyboard-response","241","150163","0.0-330.0","3IUZPWIU1PT6Z7P0VF7LF7DOIW1KWW","ASQW51PUO2OLI","3P7RGTLO6EZ76AO3386R8ZK9IWWKAW","","687","img/food2.png","76","688.9000000953674","3","1","","1","1","1,0.5,0,1,0.5,0,0.5,0,1","0.5,0,1,0.5,0,1,0,1,0.5","2",""
"","html-keyboard-response","242","150466","0.0-331.0","3IUZPWIU1PT6Z7P0VF7LF7DOIW1KWW","ASQW51PUO2OLI","3P7RGTLO6EZ76AO3386R8ZK9IWWKAW","","null","<img src=""img/food2.png"" style=""width:200px; border:14px solid green;"">","null","","","","","","","","","",""
"","image-keyboard-response","243","151118","0.0-332.0","3IUZPWIU1PT6Z7P0VF7LF7DOIW1KWW","ASQW51PUO2OLI","3P7RGTLO6EZ76AO3386R8ZK9IWWKAW","","649.7999999523163","img/food4.png","74","651.5999999046326","1","1","","2","1","1,0.5,0,1,0.5,0,0.5,0,1","0.5,0,1,0.5,0,1,0,1,0.5","2",""
"","html-keyboard-response","244","151420","0.0-333.0","3IUZPWIU1PT6Z7P0VF7LF7DOIW1KWW","ASQW51PUO2OLI","3P7RGTLO6EZ76AO3386R8ZK9IWWKAW","","null","<img src=""img/food4.png"" style=""width:200px; border:14px solid green;"">","null","","","","","","","","","",""
"","image-keyboard-response","245","151794","0.0-334.0","3IUZPWIU1PT6Z7P0VF7LF7DOIW1KWW","ASQW51PUO2OLI","3P7RGTLO6EZ76AO3386R8ZK9IWWKAW","","371.90000009536743","img/food4.png","74","373.2999999523163","1","0","","2","1","1,0.5,0,1,0.5,0,0.5,0,1","0.5,0,1,0.5,0,1,0,1,0.5","2",""
"","html-keyboard-response","246","152097","0.0-335.0","3IUZPWIU1PT6Z7P0VF7LF7DOIW1KWW","ASQW51PUO2OLI","3P7RGTLO6EZ76AO3386R8ZK9IWWKAW","","null","<img src=""img/food4.png"" style=""width:200px;border:14px solid red;"">","null","","","","","","","","","",""
"","image-keyboard-response","247","152724","0.0-336.0","3IUZPWIU1PT6Z7P0VF7LF7DOIW1KWW","ASQW51PUO2OLI","3P7RGTLO6EZ76AO3386R8ZK9IWWKAW","","624","img/food6.png","75","626.2999999523163","2","1","","3","1","1,0.5,0,1,0.5,0,0.5,0,1","0.5,0,1,0.5,0,1,0,1,0.5","2",""
"","html-keyboard-response","248","153028","0.0-337.0","3IUZPWIU1PT6Z7P0VF7LF7DOIW1KWW","ASQW51PUO2OLI","3P7RGTLO6EZ76AO3386R8ZK9IWWKAW","","null","<img src=""img/food6.png"" style=""width:200px; border:14px solid green;"">","null","","","","","","","","","",""
"","image-keyboard-response","249","153450","0.0-338.0","3IUZPWIU1PT6Z7P0VF7LF7DOIW1KWW","ASQW51PUO2OLI","3P7RGTLO6EZ76AO3386R8ZK9IWWKAW","","419.39999985694885","img/food6.png","75","421.39999985694885","2","1","","3","1","1,0.5,0,1,0.5,0,0.5,0,1","0.5,0,1,0.5,0,1,0,1,0.5","2",""
"","html-keyboard-response","250","153753","0.0-339.0","3IUZPWIU1PT6Z7P0VF7LF7DOIW1KWW","ASQW51PUO2OLI","3P7RGTLO6EZ76AO3386R8ZK9IWWKAW","","null","<img src=""img/food6.png"" style=""width:200px; border:14px solid green;"">","null","","","","","","","","","",""
"","image-keyboard-response","251","154042","0.0-340.0","3IUZPWIU1PT6Z7P0VF7LF7DOIW1KWW","ASQW51PUO2OLI","3P7RGTLO6EZ76AO3386R8ZK9IWWKAW","","286.7000000476837","img/food6.png","75","289.2000000476837","2","1","","3","1","1,0.5,0,1,0.5,0,0.5,0,1","0.5,0,1,0.5,0,1,0,1,0.5","2",""
"","html-keyboard-response","252","154346","0.0-341.0","3IUZPWIU1PT6Z7P0VF7LF7DOIW1KWW","ASQW51PUO2OLI","3P7RGTLO6EZ76AO3386R8ZK9IWWKAW","","null","<img src=""img/food6.png"" style=""width:200px; border:14px solid green;"">","null","","","","","","","","","",""
"","image-keyboard-response","253","154644","0.0-342.0","3IUZPWIU1PT6Z7P0VF7LF7DOIW1KWW","ASQW51PUO2OLI","3P7RGTLO6EZ76AO3386R8ZK9IWWKAW","","296.39999985694885","img/food2.png","75","297.90000009536743","2","0","","1","1","1,0.5,0,1,0.5,0,0.5,0,1","0.5,0,1,0.5,0,1,0,1,0.5","2",""
"","html-keyboard-response","254","154947","0.0-343.0","3IUZPWIU1PT6Z7P0VF7LF7DOIW1KWW","ASQW51PUO2OLI","3P7RGTLO6EZ76AO3386R8ZK9IWWKAW","","null","<img src=""img/food2.png"" style=""width:200px;border:14px solid red;"">","null","","","","","","","","","",""
"","image-keyboard-response","255","155352","0.0-344.0","3IUZPWIU1PT6Z7P0VF7LF7DOIW1KWW","ASQW51PUO2OLI","3P7RGTLO6EZ76AO3386R8ZK9IWWKAW","","403.30000019073486","img/food2.png","76","405.2999999523163","3","1","","1","1","1,0.5,0,1,0.5,0,0.5,0,1","0.5,0,1,0.5,0,1,0,1,0.5","2",""
"","html-keyboard-response","256","155657","0.0-345.0","3IUZPWIU1PT6Z7P0VF7LF7DOIW1KWW","ASQW51PUO2OLI","3P7RGTLO6EZ76AO3386R8ZK9IWWKAW","","null","<img src=""img/food2.png"" style=""width:200px; border:14px solid green;"">","null","","","","","","","","","",""
"","image-keyboard-response","257","155948","0.0-346.0","3IUZPWIU1PT6Z7P0VF7LF7DOIW1KWW","ASQW51PUO2OLI","3P7RGTLO6EZ76AO3386R8ZK9IWWKAW","","288.2999999523163","img/food2.png","76","290","3","1","","1","1","1,0.5,0,1,0.5,0,0.5,0,1","0.5,0,1,0.5,0,1,0,1,0.5","2",""
"","html-keyboard-response","258","156251","0.0-347.0","3IUZPWIU1PT6Z7P0VF7LF7DOIW1KWW","ASQW51PUO2OLI","3P7RGTLO6EZ76AO3386R8ZK9IWWKAW","","null","<img src=""img/food2.png"" style=""width:200px; border:14px solid green;"">","null","","","","","","","","","",""
"","image-keyboard-response","259","156838","0.0-348.0","3IUZPWIU1PT6Z7P0VF7LF7DOIW1KWW","ASQW51PUO2OLI","3P7RGTLO6EZ76AO3386R8ZK9IWWKAW","","580.5","img/food4.png","75","586.9000000953674","2","0","","2","1","1,0.5,0,1,0.5,0,0.5,0,1","0.5,0,1,0.5,0,1,0,1,0.5","2",""
"","html-keyboard-response","260","157142","0.0-349.0","3IUZPWIU1PT6Z7P0VF7LF7DOIW1KWW","ASQW51PUO2OLI","3P7RGTLO6EZ76AO3386R8ZK9IWWKAW","","null","<img src=""img/food4.png"" style=""width:200px;border:14px solid red;"">","null","","","","","","","","","",""
"","image-keyboard-response","261","158278","0.0-350.0","3IUZPWIU1PT6Z7P0VF7LF7DOIW1KWW","ASQW51PUO2OLI","3P7RGTLO6EZ76AO3386R8ZK9IWWKAW","","1133.5999999046326","img/food2.png","75","1135.8000001907349","2","0","","1","1","1,0.5,0,1,0.5,0,0.5,0,1","0.5,0,1,0.5,0,1,0,1,0.5","2",""
"","html-keyboard-response","262","158583","0.0-351.0","3IUZPWIU1PT6Z7P0VF7LF7DOIW1KWW","ASQW51PUO2OLI","3P7RGTLO6EZ76AO3386R8ZK9IWWKAW","","null","<img src=""img/food2.png"" style=""width:200px;border:14px solid red;"">","null","","","","","","","","","",""
"","image-keyboard-response","263","158861","0.0-352.0","3IUZPWIU1PT6Z7P0VF7LF7DOIW1KWW","ASQW51PUO2OLI","3P7RGTLO6EZ76AO3386R8ZK9IWWKAW","","275.39999985694885","img/food2.png","76","277.90000009536743","3","1","","1","1","1,0.5,0,1,0.5,0,0.5,0,1","0.5,0,1,0.5,0,1,0,1,0.5","2",""
"","html-keyboard-response","264","159166","0.0-353.0","3IUZPWIU1PT6Z7P0VF7LF7DOIW1KWW","ASQW51PUO2OLI","3P7RGTLO6EZ76AO3386R8ZK9IWWKAW","","null","<img src=""img/food2.png"" style=""width:200px; border:14px solid green;"">","null","","","","","","","","","",""
"","image-keyboard-response","265","160197","0.0-354.0","3IUZPWIU1PT6Z7P0VF7LF7DOIW1KWW","ASQW51PUO2OLI","3P7RGTLO6EZ76AO3386R8ZK9IWWKAW","","1029.2999999523163","img/food6.png","75","1030.7000000476837","2","1","","3","1","1,0.5,0,1,0.5,0,0.5,0,1","0.5,0,1,0.5,0,1,0,1,0.5","2",""
"","html-keyboard-response","266","160500","0.0-355.0","3IUZPWIU1PT6Z7P0VF7LF7DOIW1KWW","ASQW51PUO2OLI","3P7RGTLO6EZ76AO3386R8ZK9IWWKAW","","null","<img src=""img/food6.png"" style=""width:200px; border:14px solid green;"">","null","","","","","","","","","",""
"","image-keyboard-response","267","161285","0.0-356.0","3IUZPWIU1PT6Z7P0VF7LF7DOIW1KWW","ASQW51PUO2OLI","3P7RGTLO6EZ76AO3386R8ZK9IWWKAW","","781.7000000476837","img/food2.png","76","784.4000000953674","3","1","","1","1","1,0.5,0,1,0.5,0,0.5,0,1","0.5,0,1,0.5,0,1,0,1,0.5","2",""
"","html-keyboard-response","268","161590","0.0-357.0","3IUZPWIU1PT6Z7P0VF7LF7DOIW1KWW","ASQW51PUO2OLI","3P7RGTLO6EZ76AO3386R8ZK9IWWKAW","","null","<img src=""img/food2.png"" style=""width:200px; border:14px solid green;"">","null","","","","","","","","","",""
"","image-keyboard-response","269","162195","0.0-358.0","3IUZPWIU1PT6Z7P0VF7LF7DOIW1KWW","ASQW51PUO2OLI","3P7RGTLO6EZ76AO3386R8ZK9IWWKAW","","602.4000000953674","img/food6.png","75","604.4000000953674","2","1","","3","1","1,0.5,0,1,0.5,0,0.5,0,1","0.5,0,1,0.5,0,1,0,1,0.5","2",""
"","html-keyboard-response","270","162498","0.0-359.0","3IUZPWIU1PT6Z7P0VF7LF7DOIW1KWW","ASQW51PUO2OLI","3P7RGTLO6EZ76AO3386R8ZK9IWWKAW","","null","<img src=""img/food6.png"" style=""width:200px; border:14px solid green;"">","null","","","","","","","","","",""
"","image-keyboard-response","271","163204","0.0-360.0","3IUZPWIU1PT6Z7P0VF7LF7DOIW1KWW","ASQW51PUO2OLI","3P7RGTLO6EZ76AO3386R8ZK9IWWKAW","","703.7999999523163","img/food2.png","76","705.7000000476837","3","1","","1","1","1,0.5,0,1,0.5,0,0.5,0,1","0.5,0,1,0.5,0,1,0,1,0.5","2",""
"","html-keyboard-response","272","163507","0.0-361.0","3IUZPWIU1PT6Z7P0VF7LF7DOIW1KWW","ASQW51PUO2OLI","3P7RGTLO6EZ76AO3386R8ZK9IWWKAW","","null","<img src=""img/food2.png"" style=""width:200px; border:14px solid green;"">","null","","","","","","","","","",""
"","image-keyboard-response","273","164001","0.0-362.0","3IUZPWIU1PT6Z7P0VF7LF7DOIW1KWW","ASQW51PUO2OLI","3P7RGTLO6EZ76AO3386R8ZK9IWWKAW","","492.10000014305115","img/food6.png","75","493.40000009536743","2","1","","3","1","1,0.5,0,1,0.5,0,0.5,0,1","0.5,0,1,0.5,0,1,0,1,0.5","2",""
"","html-keyboard-response","274","164304","0.0-363.0","3IUZPWIU1PT6Z7P0VF7LF7DOIW1KWW","ASQW51PUO2OLI","3P7RGTLO6EZ76AO3386R8ZK9IWWKAW","","null","<img src=""img/food6.png"" style=""width:200px; border:14px solid green;"">","null","","","","","","","","","",""
"","image-keyboard-response","275","164889","0.0-364.0","3IUZPWIU1PT6Z7P0VF7LF7DOIW1KWW","ASQW51PUO2OLI","3P7RGTLO6EZ76AO3386R8ZK9IWWKAW","","582","img/food4.png","76","584.1999998092651","3","1","","2","1","1,0.5,0,1,0.5,0,0.5,0,1","0.5,0,1,0.5,0,1,0,1,0.5","2",""
"","html-keyboard-response","276","165192","0.0-365.0","3IUZPWIU1PT6Z7P0VF7LF7DOIW1KWW","ASQW51PUO2OLI","3P7RGTLO6EZ76AO3386R8ZK9IWWKAW","","null","<img src=""img/food4.png"" style=""width:200px; border:14px solid green;"">","null","","","","","","","","","",""
"","image-keyboard-response","277","165653","0.0-366.0","3IUZPWIU1PT6Z7P0VF7LF7DOIW1KWW","ASQW51PUO2OLI","3P7RGTLO6EZ76AO3386R8ZK9IWWKAW","","458.39999985694885","img/food4.png","76","460.7000000476837","3","1","","2","1","1,0.5,0,1,0.5,0,0.5,0,1","0.5,0,1,0.5,0,1,0,1,0.5","2",""
"","html-keyboard-response","278","165960","0.0-367.0","3IUZPWIU1PT6Z7P0VF7LF7DOIW1KWW","ASQW51PUO2OLI","3P7RGTLO6EZ76AO3386R8ZK9IWWKAW","","null","<img src=""img/food4.png"" style=""width:200px; border:14px solid green;"">","null","","","","","","","","","",""
"","image-keyboard-response","279","166795","0.0-368.0","3IUZPWIU1PT6Z7P0VF7LF7DOIW1KWW","ASQW51PUO2OLI","3P7RGTLO6EZ76AO3386R8ZK9IWWKAW","","831.3999998569489","img/food2.png","75","834.3000001907349","2","0","","1","1","1,0.5,0,1,0.5,0,0.5,0,1","0.5,0,1,0.5,0,1,0,1,0.5","2",""
"","html-keyboard-response","280","167099","0.0-369.0","3IUZPWIU1PT6Z7P0VF7LF7DOIW1KWW","ASQW51PUO2OLI","3P7RGTLO6EZ76AO3386R8ZK9IWWKAW","","null","<img src=""img/food2.png"" style=""width:200px;border:14px solid red;"">","null","","","","","","","","","",""
"","image-keyboard-response","281","167877","0.0-370.0","3IUZPWIU1PT6Z7P0VF7LF7DOIW1KWW","ASQW51PUO2OLI","3P7RGTLO6EZ76AO3386R8ZK9IWWKAW","","775.2999999523163","img/food6.png","75","777.5","2","1","","3","1","1,0.5,0,1,0.5,0,0.5,0,1","0.5,0,1,0.5,0,1,0,1,0.5","2",""
"","html-keyboard-response","282","168180","0.0-371.0","3IUZPWIU1PT6Z7P0VF7LF7DOIW1KWW","ASQW51PUO2OLI","3P7RGTLO6EZ76AO3386R8ZK9IWWKAW","","null","<img src=""img/food6.png"" style=""width:200px; border:14px solid green;"">","null","","","","","","","","","",""
"","image-keyboard-response","283","169075","0.0-372.0","3IUZPWIU1PT6Z7P0VF7LF7DOIW1KWW","ASQW51PUO2OLI","3P7RGTLO6EZ76AO3386R8ZK9IWWKAW","","892","img/food4.png","76","894.3999998569489","3","1","","2","1","1,0.5,0,1,0.5,0,0.5,0,1","0.5,0,1,0.5,0,1,0,1,0.5","2",""
"","html-keyboard-response","284","169379","0.0-373.0","3IUZPWIU1PT6Z7P0VF7LF7DOIW1KWW","ASQW51PUO2OLI","3P7RGTLO6EZ76AO3386R8ZK9IWWKAW","","null","<img src=""img/food4.png"" style=""width:200px; border:14px solid green;"">","null","","","","","","","","","",""
"","image-keyboard-response","285","170547","0.0-374.0","3IUZPWIU1PT6Z7P0VF7LF7DOIW1KWW","ASQW51PUO2OLI","3P7RGTLO6EZ76AO3386R8ZK9IWWKAW","","1165.4000000953674","img/food6.png","76","1167.6000001430511","3","1","","3","1","1,0.5,0,1,0.5,0,0.5,0,1","0.5,0,1,0.5,0,1,0,1,0.5","2",""
"","html-keyboard-response","286","170851","0.0-375.0","3IUZPWIU1PT6Z7P0VF7LF7DOIW1KWW","ASQW51PUO2OLI","3P7RGTLO6EZ76AO3386R8ZK9IWWKAW","","null","<img src=""img/food6.png"" style=""width:200px; border:14px solid green;"">","null","","","","","","","","","",""
"","image-keyboard-response","287","171780","0.0-376.0","3IUZPWIU1PT6Z7P0VF7LF7DOIW1KWW","ASQW51PUO2OLI","3P7RGTLO6EZ76AO3386R8ZK9IWWKAW","","927.9000000953674","img/food2.png","76","929.5","3","1","","1","1","1,0.5,0,1,0.5,0,0.5,0,1","0.5,0,1,0.5,0,1,0,1,0.5","2",""
"","html-keyboard-response","288","172083","0.0-377.0","3IUZPWIU1PT6Z7P0VF7LF7DOIW1KWW","ASQW51PUO2OLI","3P7RGTLO6EZ76AO3386R8ZK9IWWKAW","","null","<img src=""img/food2.png"" style=""width:200px; border:14px solid green;"">","null","","","","","","","","","",""
"","image-keyboard-response","289","172464","0.0-378.0","3IUZPWIU1PT6Z7P0VF7LF7DOIW1KWW","ASQW51PUO2OLI","3P7RGTLO6EZ76AO3386R8ZK9IWWKAW","","377.7999999523163","img/food6.png","76","379.90000009536743","3","1","","3","1","1,0.5,0,1,0.5,0,0.5,0,1","0.5,0,1,0.5,0,1,0,1,0.5","2",""
"","html-keyboard-response","290","172768","0.0-379.0","3IUZPWIU1PT6Z7P0VF7LF7DOIW1KWW","ASQW51PUO2OLI","3P7RGTLO6EZ76AO3386R8ZK9IWWKAW","","null","<img src=""img/food6.png"" style=""width:200px; border:14px solid green;"">","null","","","","","","","","","",""
"","image-keyboard-response","291","173058","0.0-380.0","3IUZPWIU1PT6Z7P0VF7LF7DOIW1KWW","ASQW51PUO2OLI","3P7RGTLO6EZ76AO3386R8ZK9IWWKAW","","286.7000000476837","img/food6.png","76","288.80000019073486","3","0","","3","1","1,0.5,0,1,0.5,0,0.5,0,1","0.5,0,1,0.5,0,1,0,1,0.5","2",""
"","html-keyboard-response","292","173362","0.0-381.0","3IUZPWIU1PT6Z7P0VF7LF7DOIW1KWW","ASQW51PUO2OLI","3P7RGTLO6EZ76AO3386R8ZK9IWWKAW","","null","<img src=""img/food6.png"" style=""width:200px;border:14px solid red;"">","null","","","","","","","","","",""
"","image-keyboard-response","293","173741","0.0-382.0","3IUZPWIU1PT6Z7P0VF7LF7DOIW1KWW","ASQW51PUO2OLI","3P7RGTLO6EZ76AO3386R8ZK9IWWKAW","","376.89999985694885","img/food6.png","76","378.7000000476837","3","1","","3","1","1,0.5,0,1,0.5,0,0.5,0,1","0.5,0,1,0.5,0,1,0,1,0.5","2",""
"","html-keyboard-response","294","174044","0.0-383.0","3IUZPWIU1PT6Z7P0VF7LF7DOIW1KWW","ASQW51PUO2OLI","3P7RGTLO6EZ76AO3386R8ZK9IWWKAW","","null","<img src=""img/food6.png"" style=""width:200px; border:14px solid green;"">","null","","","","","","","","","",""
"","image-keyboard-response","295","174258","0.0-384.0","3IUZPWIU1PT6Z7P0VF7LF7DOIW1KWW","ASQW51PUO2OLI","3P7RGTLO6EZ76AO3386R8ZK9IWWKAW","","211.20000004768372","img/food4.png","76","213.70000004768372","3","1","","2","1","1,0.5,0,1,0.5,0,0.5,0,1","0.5,0,1,0.5,0,1,0,1,0.5","2",""
"","html-keyboard-response","296","174561","0.0-385.0","3IUZPWIU1PT6Z7P0VF7LF7DOIW1KWW","ASQW51PUO2OLI","3P7RGTLO6EZ76AO3386R8ZK9IWWKAW","","null","<img src=""img/food4.png"" style=""width:200px; border:14px solid green;"">","null","","","","","","","","","",""
"","image-keyboard-response","297","174864","0.0-386.0","3IUZPWIU1PT6Z7P0VF7LF7DOIW1KWW","ASQW51PUO2OLI","3P7RGTLO6EZ76AO3386R8ZK9IWWKAW","","299.30000019073486","img/food2.png","76","301.7999999523163","3","1","","1","1","1,0.5,0,1,0.5,0,0.5,0,1","0.5,0,1,0.5,0,1,0,1,0.5","2",""
"","html-keyboard-response","298","175168","0.0-387.0","3IUZPWIU1PT6Z7P0VF7LF7DOIW1KWW","ASQW51PUO2OLI","3P7RGTLO6EZ76AO3386R8ZK9IWWKAW","","null","<img src=""img/food2.png"" style=""width:200px; border:14px solid green;"">","null","","","","","","","","","",""
"","image-keyboard-response","299","175460","0.0-388.0","3IUZPWIU1PT6Z7P0VF7LF7DOIW1KWW","ASQW51PUO2OLI","3P7RGTLO6EZ76AO3386R8ZK9IWWKAW","","290.40000009536743","img/food2.png","76","292.5","3","1","","1","1","1,0.5,0,1,0.5,0,0.5,0,1","0.5,0,1,0.5,0,1,0,1,0.5","2",""
"","html-keyboard-response","300","175763","0.0-389.0","3IUZPWIU1PT6Z7P0VF7LF7DOIW1KWW","ASQW51PUO2OLI","3P7RGTLO6EZ76AO3386R8ZK9IWWKAW","","null","<img src=""img/food2.png"" style=""width:200px; border:14px solid green;"">","null","","","","","","","","","",""
"","image-keyboard-response","301","175976","0.0-390.0","3IUZPWIU1PT6Z7P0VF7LF7DOIW1KWW","ASQW51PUO2OLI","3P7RGTLO6EZ76AO3386R8ZK9IWWKAW","","211","img/food6.png","76","212.60000014305115","3","0","","3","1","1,0.5,0,1,0.5,0,0.5,0,1","0.5,0,1,0.5,0,1,0,1,0.5","2",""
"","html-keyboard-response","302","176278","0.0-391.0","3IUZPWIU1PT6Z7P0VF7LF7DOIW1KWW","ASQW51PUO2OLI","3P7RGTLO6EZ76AO3386R8ZK9IWWKAW","","null","<img src=""img/food6.png"" style=""width:200px;border:14px solid red;"">","null","","","","","","","","","",""
"","image-keyboard-response","303","176605","0.0-392.0","3IUZPWIU1PT6Z7P0VF7LF7DOIW1KWW","ASQW51PUO2OLI","3P7RGTLO6EZ76AO3386R8ZK9IWWKAW","","323.90000009536743","img/food4.png","76","326.09999990463257","3","1","","2","1","1,0.5,0,1,0.5,0,0.5,0,1","0.5,0,1,0.5,0,1,0,1,0.5","2",""
"","html-keyboard-response","304","176909","0.0-393.0","3IUZPWIU1PT6Z7P0VF7LF7DOIW1KWW","ASQW51PUO2OLI","3P7RGTLO6EZ76AO3386R8ZK9IWWKAW","","null","<img src=""img/food4.png"" style=""width:200px; border:14px solid green;"">","null","","","","","","","","","",""
"","image-keyboard-response","305","177180","0.0-394.0","3IUZPWIU1PT6Z7P0VF7LF7DOIW1KWW","ASQW51PUO2OLI","3P7RGTLO6EZ76AO3386R8ZK9IWWKAW","","268.09999990463257","img/food4.png","76","270.7000000476837","3","1","","2","1","1,0.5,0,1,0.5,0,0.5,0,1","0.5,0,1,0.5,0,1,0,1,0.5","2",""
"","html-keyboard-response","306","177484","0.0-395.0","3IUZPWIU1PT6Z7P0VF7LF7DOIW1KWW","ASQW51PUO2OLI","3P7RGTLO6EZ76AO3386R8ZK9IWWKAW","","null","<img src=""img/food4.png"" style=""width:200px; border:14px solid green;"">","null","","","","","","","","","",""
"","image-keyboard-response","307","177690","0.0-396.0","3IUZPWIU1PT6Z7P0VF7LF7DOIW1KWW","ASQW51PUO2OLI","3P7RGTLO6EZ76AO3386R8ZK9IWWKAW","","204.90000009536743","img/food6.png","76","206.59999990463257","3","0","","3","1","1,0.5,0,1,0.5,0,0.5,0,1","0.5,0,1,0.5,0,1,0,1,0.5","2",""
"","html-keyboard-response","308","177994","0.0-397.0","3IUZPWIU1PT6Z7P0VF7LF7DOIW1KWW","ASQW51PUO2OLI","3P7RGTLO6EZ76AO3386R8ZK9IWWKAW","","null","<img src=""img/food6.png"" style=""width:200px;border:14px solid red;"">","null","","","","","","","","","",""
"","image-keyboard-response","309","178471","0.0-398.0","3IUZPWIU1PT6Z7P0VF7LF7DOIW1KWW","ASQW51PUO2OLI","3P7RGTLO6EZ76AO3386R8ZK9IWWKAW","","475","img/food2.png","76","476.60000014305115","3","1","","1","1","1,0.5,0,1,0.5,0,0.5,0,1","0.5,0,1,0.5,0,1,0,1,0.5","2",""
"","html-keyboard-response","310","178778","0.0-399.0","3IUZPWIU1PT6Z7P0VF7LF7DOIW1KWW","ASQW51PUO2OLI","3P7RGTLO6EZ76AO3386R8ZK9IWWKAW","","null","<img src=""img/food2.png"" style=""width:200px; border:14px solid green;"">","null","","","","","","","","","",""
"","image-keyboard-response","311","178970","0.0-400.0","3IUZPWIU1PT6Z7P0VF7LF7DOIW1KWW","ASQW51PUO2OLI","3P7RGTLO6EZ76AO3386R8ZK9IWWKAW","","188.60000014305115","img/food2.png","76","191.09999990463257","3","1","","1","1","1,0.5,0,1,0.5,0,0.5,0,1","0.5,0,1,0.5,0,1,0,1,0.5","2",""
"","html-keyboard-response","312","179274","0.0-401.0","3IUZPWIU1PT6Z7P0VF7LF7DOIW1KWW","ASQW51PUO2OLI","3P7RGTLO6EZ76AO3386R8ZK9IWWKAW","","null","<img src=""img/food2.png"" style=""width:200px; border:14px solid green;"">","null","","","","","","","","","",""
"","image-keyboard-response","313","179558","0.0-402.0","3IUZPWIU1PT6Z7P0VF7LF7DOIW1KWW","ASQW51PUO2OLI","3P7RGTLO6EZ76AO3386R8ZK9IWWKAW","","281.5","img/food2.png","76","283.7000000476837","3","1","","1","1","1,0.5,0,1,0.5,0,0.5,0,1","0.5,0,1,0.5,0,1,0,1,0.5","2",""
"","html-keyboard-response","314","179862","0.0-403.0","3IUZPWIU1PT6Z7P0VF7LF7DOIW1KWW","ASQW51PUO2OLI","3P7RGTLO6EZ76AO3386R8ZK9IWWKAW","","null","<img src=""img/food2.png"" style=""width:200px; border:14px solid green;"">","null","","","","","","","","","",""
"","image-keyboard-response","315","180117","0.0-404.0","3IUZPWIU1PT6Z7P0VF7LF7DOIW1KWW","ASQW51PUO2OLI","3P7RGTLO6EZ76AO3386R8ZK9IWWKAW","","252.60000014305115","img/food4.png","76","254.20000004768372","3","1","","2","1","1,0.5,0,1,0.5,0,0.5,0,1","0.5,0,1,0.5,0,1,0,1,0.5","2",""
"","html-keyboard-response","316","180419","0.0-405.0","3IUZPWIU1PT6Z7P0VF7LF7DOIW1KWW","ASQW51PUO2OLI","3P7RGTLO6EZ76AO3386R8ZK9IWWKAW","","null","<img src=""img/food4.png"" style=""width:200px; border:14px solid green;"">","null","","","","","","","","","",""
"","image-keyboard-response","317","180867","0.0-406.0","3IUZPWIU1PT6Z7P0VF7LF7DOIW1KWW","ASQW51PUO2OLI","3P7RGTLO6EZ76AO3386R8ZK9IWWKAW","","445.7999999523163","img/food6.png","75","447.30000019073486","2","1","","3","1","1,0.5,0,1,0.5,0,0.5,0,1","0.5,0,1,0.5,0,1,0,1,0.5","2",""
"","html-keyboard-response","318","181177","0.0-407.0","3IUZPWIU1PT6Z7P0VF7LF7DOIW1KWW","ASQW51PUO2OLI","3P7RGTLO6EZ76AO3386R8ZK9IWWKAW","","null","<img src=""img/food6.png"" style=""width:200px; border:14px solid green;"">","null","","","","","","","","","",""
"","image-keyboard-response","319","181593","0.0-408.0","3IUZPWIU1PT6Z7P0VF7LF7DOIW1KWW","ASQW51PUO2OLI","3P7RGTLO6EZ76AO3386R8ZK9IWWKAW","","412.7999999523163","img/food4.png","76","415.2999999523163","3","1","","2","1","1,0.5,0,1,0.5,0,0.5,0,1","0.5,0,1,0.5,0,1,0,1,0.5","2",""
"","html-keyboard-response","320","181897","0.0-409.0","3IUZPWIU1PT6Z7P0VF7LF7DOIW1KWW","ASQW51PUO2OLI","3P7RGTLO6EZ76AO3386R8ZK9IWWKAW","","null","<img src=""img/food4.png"" style=""width:200px; border:14px solid green;"">","null","","","","","","","","","",""
"","image-keyboard-response","321","181954","0.0-410.0","3IUZPWIU1PT6Z7P0VF7LF7DOIW1KWW","ASQW51PUO2OLI","3P7RGTLO6EZ76AO3386R8ZK9IWWKAW","","54.39999985694885","img/food2.png","76","56.19999980926514","3","1","","1","1","1,0.5,0,1,0.5,0,0.5,0,1","0.5,0,1,0.5,0,1,0,1,0.5","2",""
"","html-keyboard-response","322","182256","0.0-411.0","3IUZPWIU1PT6Z7P0VF7LF7DOIW1KWW","ASQW51PUO2OLI","3P7RGTLO6EZ76AO3386R8ZK9IWWKAW","","null","<img src=""img/food2.png"" style=""width:200px; border:14px solid green;"">","null","","","","","","","","","",""
"","image-keyboard-response","323","182466","0.0-412.0","3IUZPWIU1PT6Z7P0VF7LF7DOIW1KWW","ASQW51PUO2OLI","3P7RGTLO6EZ76AO3386R8ZK9IWWKAW","","207.59999990463257","img/food4.png","76","209.40000009536743","3","1","","2","1","1,0.5,0,1,0.5,0,0.5,0,1","0.5,0,1,0.5,0,1,0,1,0.5","2",""
"","html-keyboard-response","324","182769","0.0-413.0","3IUZPWIU1PT6Z7P0VF7LF7DOIW1KWW","ASQW51PUO2OLI","3P7RGTLO6EZ76AO3386R8ZK9IWWKAW","","null","<img src=""img/food4.png"" style=""width:200px; border:14px solid green;"">","null","","","","","","","","","",""
"","image-keyboard-response","325","183131","0.0-414.0","3IUZPWIU1PT6Z7P0VF7LF7DOIW1KWW","ASQW51PUO2OLI","3P7RGTLO6EZ76AO3386R8ZK9IWWKAW","","358.7999999523163","img/food2.png","76","361.39999985694885","3","1","","1","1","1,0.5,0,1,0.5,0,0.5,0,1","0.5,0,1,0.5,0,1,0,1,0.5","2",""
"","html-keyboard-response","326","183435","0.0-415.0","3IUZPWIU1PT6Z7P0VF7LF7DOIW1KWW","ASQW51PUO2OLI","3P7RGTLO6EZ76AO3386R8ZK9IWWKAW","","null","<img src=""img/food2.png"" style=""width:200px; border:14px solid green;"">","null","","","","","","","","","",""
"","image-keyboard-response","327","183928","0.0-416.0","3IUZPWIU1PT6Z7P0VF7LF7DOIW1KWW","ASQW51PUO2OLI","3P7RGTLO6EZ76AO3386R8ZK9IWWKAW","","490","img/food4.png","76","493.2000000476837","3","1","","2","1","1,0.5,0,1,0.5,0,0.5,0,1","0.5,0,1,0.5,0,1,0,1,0.5","2",""
"","html-keyboard-response","328","184233","0.0-417.0","3IUZPWIU1PT6Z7P0VF7LF7DOIW1KWW","ASQW51PUO2OLI","3P7RGTLO6EZ76AO3386R8ZK9IWWKAW","","null","<img src=""img/food4.png"" style=""width:200px; border:14px solid green;"">","null","","","","","","","","","",""
"","image-keyboard-response","329","184754","0.0-418.0","3IUZPWIU1PT6Z7P0VF7LF7DOIW1KWW","ASQW51PUO2OLI","3P7RGTLO6EZ76AO3386R8ZK9IWWKAW","","514.7999999523163","img/food6.png","75","517.7000000476837","2","1","","3","1","1,0.5,0,1,0.5,0,0.5,0,1","0.5,0,1,0.5,0,1,0,1,0.5","2",""
"","html-keyboard-response","330","185057","0.0-419.0","3IUZPWIU1PT6Z7P0VF7LF7DOIW1KWW","ASQW51PUO2OLI","3P7RGTLO6EZ76AO3386R8ZK9IWWKAW","","null","<img src=""img/food6.png"" style=""width:200px; border:14px solid green;"">","null","","","","","","","","","",""
"","image-keyboard-response","331","185324","0.0-420.0","3IUZPWIU1PT6Z7P0VF7LF7DOIW1KWW","ASQW51PUO2OLI","3P7RGTLO6EZ76AO3386R8ZK9IWWKAW","","264.5","img/food4.png","76","266.2999999523163","3","1","","2","1","1,0.5,0,1,0.5,0,0.5,0,1","0.5,0,1,0.5,0,1,0,1,0.5","2",""
"","html-keyboard-response","332","185627","0.0-421.0","3IUZPWIU1PT6Z7P0VF7LF7DOIW1KWW","ASQW51PUO2OLI","3P7RGTLO6EZ76AO3386R8ZK9IWWKAW","","null","<img src=""img/food4.png"" style=""width:200px; border:14px solid green;"">","null","","","","","","","","","",""
"","image-keyboard-response","333","185769","0.0-422.0","3IUZPWIU1PT6Z7P0VF7LF7DOIW1KWW","ASQW51PUO2OLI","3P7RGTLO6EZ76AO3386R8ZK9IWWKAW","","139.79999995231628","img/food6.png","76","141.29999995231628","3","1","","3","1","1,0.5,0,1,0.5,0,0.5,0,1","0.5,0,1,0.5,0,1,0,1,0.5","2",""
"","html-keyboard-response","334","186072","0.0-423.0","3IUZPWIU1PT6Z7P0VF7LF7DOIW1KWW","ASQW51PUO2OLI","3P7RGTLO6EZ76AO3386R8ZK9IWWKAW","","null","<img src=""img/food6.png"" style=""width:200px; border:14px solid green;"">","null","","","","","","","","","",""
"","image-keyboard-response","335","186652","0.0-424.0","3IUZPWIU1PT6Z7P0VF7LF7DOIW1KWW","ASQW51PUO2OLI","3P7RGTLO6EZ76AO3386R8ZK9IWWKAW","","577.5999999046326","img/food2.png","76","580","3","1","","1","1","1,0.5,0,1,0.5,0,0.5,0,1","0.5,0,1,0.5,0,1,0,1,0.5","2",""
"","html-keyboard-response","336","186956","0.0-425.0","3IUZPWIU1PT6Z7P0VF7LF7DOIW1KWW","ASQW51PUO2OLI","3P7RGTLO6EZ76AO3386R8ZK9IWWKAW","","null","<img src=""img/food2.png"" style=""width:200px; border:14px solid green;"">","null","","","","","","","","","",""
"","image-keyboard-response","337","187484","0.0-426.0","3IUZPWIU1PT6Z7P0VF7LF7DOIW1KWW","ASQW51PUO2OLI","3P7RGTLO6EZ76AO3386R8ZK9IWWKAW","","524.5999999046326","img/food6.png","75","526.5","2","1","","3","1","1,0.5,0,1,0.5,0,0.5,0,1","0.5,0,1,0.5,0,1,0,1,0.5","2",""
"","html-keyboard-response","338","187788","0.0-427.0","3IUZPWIU1PT6Z7P0VF7LF7DOIW1KWW","ASQW51PUO2OLI","3P7RGTLO6EZ76AO3386R8ZK9IWWKAW","","null","<img src=""img/food6.png"" style=""width:200px; border:14px solid green;"">","null","","","","","","","","","",""
"","image-keyboard-response","339","188157","0.0-428.0","3IUZPWIU1PT6Z7P0VF7LF7DOIW1KWW","ASQW51PUO2OLI","3P7RGTLO6EZ76AO3386R8ZK9IWWKAW","","366.2000000476837","img/food2.png","76","368.5","3","1","","1","1","1,0.5,0,1,0.5,0,0.5,0,1","0.5,0,1,0.5,0,1,0,1,0.5","2",""
"","html-keyboard-response","340","188461","0.0-429.0","3IUZPWIU1PT6Z7P0VF7LF7DOIW1KWW","ASQW51PUO2OLI","3P7RGTLO6EZ76AO3386R8ZK9IWWKAW","","null","<img src=""img/food2.png"" style=""width:200px; border:14px solid green;"">","null","","","","","","","","","",""
"","image-keyboard-response","341","188545","0.0-430.0","3IUZPWIU1PT6Z7P0VF7LF7DOIW1KWW","ASQW51PUO2OLI","3P7RGTLO6EZ76AO3386R8ZK9IWWKAW","","81.90000009536743","img/food6.png","76","83.69999980926514","3","1","","3","1","1,0.5,0,1,0.5,0,0.5,0,1","0.5,0,1,0.5,0,1,0,1,0.5","2",""
"","html-keyboard-response","342","188849","0.0-431.0","3IUZPWIU1PT6Z7P0VF7LF7DOIW1KWW","ASQW51PUO2OLI","3P7RGTLO6EZ76AO3386R8ZK9IWWKAW","","null","<img src=""img/food6.png"" style=""width:200px; border:14px solid green;"">","null","","","","","","","","","",""
"","image-keyboard-response","343","189311","0.0-432.0","3IUZPWIU1PT6Z7P0VF7LF7DOIW1KWW","ASQW51PUO2OLI","3P7RGTLO6EZ76AO3386R8ZK9IWWKAW","","460.30000019073486","img/food2.png","76","461.7999999523163","3","1","","1","1","1,0.5,0,1,0.5,0,0.5,0,1","0.5,0,1,0.5,0,1,0,1,0.5","2",""
"","html-keyboard-response","344","189614","0.0-433.0","3IUZPWIU1PT6Z7P0VF7LF7DOIW1KWW","ASQW51PUO2OLI","3P7RGTLO6EZ76AO3386R8ZK9IWWKAW","","null","<img src=""img/food2.png"" style=""width:200px; border:14px solid green;"">","null","","","","","","","","","",""
"","image-keyboard-response","345","189923","0.0-434.0","3IUZPWIU1PT6Z7P0VF7LF7DOIW1KWW","ASQW51PUO2OLI","3P7RGTLO6EZ76AO3386R8ZK9IWWKAW","","306.7000000476837","img/food2.png","76","308.7999999523163","3","1","","1","1","1,0.5,0,1,0.5,0,0.5,0,1","0.5,0,1,0.5,0,1,0,1,0.5","2",""
"","html-keyboard-response","346","190227","0.0-435.0","3IUZPWIU1PT6Z7P0VF7LF7DOIW1KWW","ASQW51PUO2OLI","3P7RGTLO6EZ76AO3386R8ZK9IWWKAW","","null","<img src=""img/food2.png"" style=""width:200px; border:14px solid green;"">","null","","","","","","","","","",""
"","image-keyboard-response","347","190478","0.0-436.0","3IUZPWIU1PT6Z7P0VF7LF7DOIW1KWW","ASQW51PUO2OLI","3P7RGTLO6EZ76AO3386R8ZK9IWWKAW","","248.20000004768372","img/food6.png","76","250.20000004768372","3","1","","3","1","1,0.5,0,1,0.5,0,0.5,0,1","0.5,0,1,0.5,0,1,0,1,0.5","2",""
"","html-keyboard-response","348","190782","0.0-437.0","3IUZPWIU1PT6Z7P0VF7LF7DOIW1KWW","ASQW51PUO2OLI","3P7RGTLO6EZ76AO3386R8ZK9IWWKAW","","null","<img src=""img/food6.png"" style=""width:200px; border:14px solid green;"">","null","","","","","","","","","",""
"","image-keyboard-response","349","191109","0.0-438.0","3IUZPWIU1PT6Z7P0VF7LF7DOIW1KWW","ASQW51PUO2OLI","3P7RGTLO6EZ76AO3386R8ZK9IWWKAW","","324.59999990463257","img/food4.png","76","326.90000009536743","3","1","","2","1","1,0.5,0,1,0.5,0,0.5,0,1","0.5,0,1,0.5,0,1,0,1,0.5","2",""
"","html-keyboard-response","350","191415","0.0-439.0","3IUZPWIU1PT6Z7P0VF7LF7DOIW1KWW","ASQW51PUO2OLI","3P7RGTLO6EZ76AO3386R8ZK9IWWKAW","","null","<img src=""img/food4.png"" style=""width:200px; border:14px solid green;"">","null","","","","","","","","","",""
"","image-keyboard-response","351","191669","0.0-440.0","3IUZPWIU1PT6Z7P0VF7LF7DOIW1KWW","ASQW51PUO2OLI","3P7RGTLO6EZ76AO3386R8ZK9IWWKAW","","251.70000004768372","img/food2.png","76","253.5","3","1","","1","1","1,0.5,0,1,0.5,0,0.5,0,1","0.5,0,1,0.5,0,1,0,1,0.5","2",""
"","html-keyboard-response","352","191973","0.0-441.0","3IUZPWIU1PT6Z7P0VF7LF7DOIW1KWW","ASQW51PUO2OLI","3P7RGTLO6EZ76AO3386R8ZK9IWWKAW","","null","<img src=""img/food2.png"" style=""width:200px; border:14px solid green;"">","null","","","","","","","","","",""
"","image-keyboard-response","353","192294","0.0-442.0","3IUZPWIU1PT6Z7P0VF7LF7DOIW1KWW","ASQW51PUO2OLI","3P7RGTLO6EZ76AO3386R8ZK9IWWKAW","","318.2999999523163","img/food2.png","76","320.89999985694885","3","1","","1","1","1,0.5,0,1,0.5,0,0.5,0,1","0.5,0,1,0.5,0,1,0,1,0.5","2",""
"","html-keyboard-response","354","192598","0.0-443.0","3IUZPWIU1PT6Z7P0VF7LF7DOIW1KWW","ASQW51PUO2OLI","3P7RGTLO6EZ76AO3386R8ZK9IWWKAW","","null","<img src=""img/food2.png"" style=""width:200px; border:14px solid green;"">","null","","","","","","","","","",""
"","image-keyboard-response","355","192898","0.0-444.0","3IUZPWIU1PT6Z7P0VF7LF7DOIW1KWW","ASQW51PUO2OLI","3P7RGTLO6EZ76AO3386R8ZK9IWWKAW","","297.2000000476837","img/food4.png","76","300.2999999523163","3","1","","2","1","1,0.5,0,1,0.5,0,0.5,0,1","0.5,0,1,0.5,0,1,0,1,0.5","2",""
"","html-keyboard-response","356","193202","0.0-445.0","3IUZPWIU1PT6Z7P0VF7LF7DOIW1KWW","ASQW51PUO2OLI","3P7RGTLO6EZ76AO3386R8ZK9IWWKAW","","null","<img src=""img/food4.png"" style=""width:200px; border:14px solid green;"">","null","","","","","","","","","",""
"","image-keyboard-response","357","193792","0.0-446.0","3IUZPWIU1PT6Z7P0VF7LF7DOIW1KWW","ASQW51PUO2OLI","3P7RGTLO6EZ76AO3386R8ZK9IWWKAW","","587.7999999523163","img/food6.png","75","589.7999999523163","2","1","","3","1","1,0.5,0,1,0.5,0,0.5,0,1","0.5,0,1,0.5,0,1,0,1,0.5","2",""
"","html-keyboard-response","358","194097","0.0-447.0","3IUZPWIU1PT6Z7P0VF7LF7DOIW1KWW","ASQW51PUO2OLI","3P7RGTLO6EZ76AO3386R8ZK9IWWKAW","","null","<img src=""img/food6.png"" style=""width:200px; border:14px solid green;"">","null","","","","","","","","","",""
"","image-keyboard-response","359","194931","0.0-448.0","3IUZPWIU1PT6Z7P0VF7LF7DOIW1KWW","ASQW51PUO2OLI","3P7RGTLO6EZ76AO3386R8ZK9IWWKAW","","830.7999999523163","img/food6.png","76","833","3","1","","3","1","1,0.5,0,1,0.5,0,0.5,0,1","0.5,0,1,0.5,0,1,0,1,0.5","2",""
"","html-keyboard-response","360","195236","0.0-449.0","3IUZPWIU1PT6Z7P0VF7LF7DOIW1KWW","ASQW51PUO2OLI","3P7RGTLO6EZ76AO3386R8ZK9IWWKAW","","null","<img src=""img/food6.png"" style=""width:200px; border:14px solid green;"">","null","","","","","","","","","",""
"","image-keyboard-response","361","195850","0.0-450.0","3IUZPWIU1PT6Z7P0VF7LF7DOIW1KWW","ASQW51PUO2OLI","3P7RGTLO6EZ76AO3386R8ZK9IWWKAW","","610.2000000476837","img/food2.png","76","613.5999999046326","3","1","","1","1","1,0.5,0,1,0.5,0,0.5,0,1","0.5,0,1,0.5,0,1,0,1,0.5","2",""
"","html-keyboard-response","362","196154","0.0-451.0","3IUZPWIU1PT6Z7P0VF7LF7DOIW1KWW","ASQW51PUO2OLI","3P7RGTLO6EZ76AO3386R8ZK9IWWKAW","","null","<img src=""img/food2.png"" style=""width:200px; border:14px solid green;"">","null","","","","","","","","","",""
"","image-keyboard-response","363","196404","0.0-452.0","3IUZPWIU1PT6Z7P0VF7LF7DOIW1KWW","ASQW51PUO2OLI","3P7RGTLO6EZ76AO3386R8ZK9IWWKAW","","246.90000009536743","img/food4.png","76","250","3","1","","2","1","1,0.5,0,1,0.5,0,0.5,0,1","0.5,0,1,0.5,0,1,0,1,0.5","2",""
"","html-keyboard-response","364","196710","0.0-453.0","3IUZPWIU1PT6Z7P0VF7LF7DOIW1KWW","ASQW51PUO2OLI","3P7RGTLO6EZ76AO3386R8ZK9IWWKAW","","null","<img src=""img/food4.png"" style=""width:200px; border:14px solid green;"">","null","","","","","","","","","",""
"","html-keyboard-response","365","198702","0.0-454.0","3IUZPWIU1PT6Z7P0VF7LF7DOIW1KWW","ASQW51PUO2OLI","3P7RGTLO6EZ76AO3386R8ZK9IWWKAW","","","","","","","","","","","","","",""
"","instructions","366","201175","0.0-455.0","3IUZPWIU1PT6Z7P0VF7LF7DOIW1KWW","ASQW51PUO2OLI","3P7RGTLO6EZ76AO3386R8ZK9IWWKAW","[{""page_index"":0,""viewing_time"":2470.5999999046326}]","2471.5","","","","","","","","","","","",""
"","survey-text","367","231786","0.0-456.0","3IUZPWIU1PT6Z7P0VF7LF7DOIW1KWW","ASQW51PUO2OLI","3P7RGTLO6EZ76AO3386R8ZK9IWWKAW","","30581.299999952316","","","","","","","","","","","","{""Q0"":""ASQW51PUO2OLI""}"
