"success","trial_type","trial_index","time_elapsed","internal_node_id","assignmentID","mturkID","hitID","view_history","rt","stimulus","key_press","reactionTime","a","r","s","cond","reward_cond","reward_cond_actual","reward_matrix_idx","warning","responses"
"true","fullscreen","0","18674","0.0-0.0","3PJUZCGDJ72BSAARTF0QBIWMPQL890","AU34T9OMHN4Z4","3PIOQ99R7Y8STPN46QFY0SD7JTFNU0","","","","","","","","","","","","","",""
"","instructions","1","73528","0.0-1.0","3PJUZCGDJ72BSAARTF0QBIWMPQL890","AU34T9OMHN4Z4","3PIOQ99R7Y8STPN46QFY0SD7JTFNU0","[{""page_index"":0,""viewing_time"":2236.399999976158},{""page_index"":1,""viewing_time"":1559.9000000357628},{""page_index"":2,""viewing_time"":1928.699999988079},{""page_index"":3,""viewing_time"":2295.5},{""page_index"":4,""viewing_time"":24151.899999976158},{""page_index"":5,""viewing_time"":5688.100000023842},{""page_index"":6,""viewing_time"":16992}]","54853.10000002384","","","","","","","","","","","",""
"","image-keyboard-response","2","74446","0.0-2.0","3PJUZCGDJ72BSAARTF0QBIWMPQL890","AU34T9OMHN4Z4","3PIOQ99R7Y8STPN46QFY0SD7JTFNU0","","916.4000000357628","img/food1.png","74","918.1000000238419","1","0","3","1","1,0.5,0,1,0.5,0,0.5,0,1","1,0.5,0,1,0.5,0,0.5,0,1","1","",""
"","html-keyboard-response","3","74751","0.0-3.0","3PJUZCGDJ72BSAARTF0QBIWMPQL890","AU34T9OMHN4Z4","3PIOQ99R7Y8STPN46QFY0SD7JTFNU0","","null","<img src=""img/food1.png"" style=""width:200px;border:14px solid red;"">","null","","","","","","","","","",""
"","image-keyboard-response","4","75820","0.0-4.0","3PJUZCGDJ72BSAARTF0QBIWMPQL890","AU34T9OMHN4Z4","3PIOQ99R7Y8STPN46QFY0SD7JTFNU0","","1068.2000000476837","img/food1.png","75","1068.800000011921","2","0","3","1","1,0.5,0,1,0.5,0,0.5,0,1","1,0.5,0,1,0.5,0,0.5,0,1","1","",""
"","html-keyboard-response","5","76123","0.0-5.0","3PJUZCGDJ72BSAARTF0QBIWMPQL890","AU34T9OMHN4Z4","3PIOQ99R7Y8STPN46QFY0SD7JTFNU0","","null","<img src=""img/food1.png"" style=""width:200px;border:14px solid red;"">","null","","","","","","","","","",""
"","image-keyboard-response","6","77061","0.0-6.0","3PJUZCGDJ72BSAARTF0QBIWMPQL890","AU34T9OMHN4Z4","3PIOQ99R7Y8STPN46QFY0SD7JTFNU0","","937.1000000238419","img/food6.png","74","938.3000000119209","1","1","2","1","1,0.5,0,1,0.5,0,0.5,0,1","1,0.5,0,1,0.5,0,0.5,0,1","1","",""
"","html-keyboard-response","7","77364","0.0-7.0","3PJUZCGDJ72BSAARTF0QBIWMPQL890","AU34T9OMHN4Z4","3PIOQ99R7Y8STPN46QFY0SD7JTFNU0","","null","<img src=""img/food6.png"" style=""width:200px; border:14px solid green;"">","null","","","","","","","","","",""
"","image-keyboard-response","8","78141","0.0-8.0","3PJUZCGDJ72BSAARTF0QBIWMPQL890","AU34T9OMHN4Z4","3PIOQ99R7Y8STPN46QFY0SD7JTFNU0","","775.3999999761581","img/food6.png","74","776.3999999761581","1","1","2","1","1,0.5,0,1,0.5,0,0.5,0,1","1,0.5,0,1,0.5,0,0.5,0,1","1","",""
"","html-keyboard-response","9","78444","0.0-9.0","3PJUZCGDJ72BSAARTF0QBIWMPQL890","AU34T9OMHN4Z4","3PIOQ99R7Y8STPN46QFY0SD7JTFNU0","","null","<img src=""img/food6.png"" style=""width:200px; border:14px solid green;"">","null","","","","","","","","","",""
"","image-keyboard-response","10","79701","0.0-10.0","3PJUZCGDJ72BSAARTF0QBIWMPQL890","AU34T9OMHN4Z4","3PIOQ99R7Y8STPN46QFY0SD7JTFNU0","","1255.7000000476837","img/food5.png","75","1256.5999999642372","2","0","1","1","1,0.5,0,1,0.5,0,0.5,0,1","1,0.5,0,1,0.5,0,0.5,0,1","1","",""
"","html-keyboard-response","11","80003","0.0-11.0","3PJUZCGDJ72BSAARTF0QBIWMPQL890","AU34T9OMHN4Z4","3PIOQ99R7Y8STPN46QFY0SD7JTFNU0","","null","<img src=""img/food5.png"" style=""width:200px;border:14px solid red;"">","null","","","","","","","","","",""
"","image-keyboard-response","12","80796","0.0-12.0","3PJUZCGDJ72BSAARTF0QBIWMPQL890","AU34T9OMHN4Z4","3PIOQ99R7Y8STPN46QFY0SD7JTFNU0","","791.6999999880791","img/food6.png","74","792.5999999642372","1","1","2","1","1,0.5,0,1,0.5,0,0.5,0,1","1,0.5,0,1,0.5,0,0.5,0,1","1","",""
"","html-keyboard-response","13","81098","0.0-13.0","3PJUZCGDJ72BSAARTF0QBIWMPQL890","AU34T9OMHN4Z4","3PIOQ99R7Y8STPN46QFY0SD7JTFNU0","","null","<img src=""img/food6.png"" style=""width:200px; border:14px solid green;"">","null","","","","","","","","","",""
"","image-keyboard-response","14","82087","0.0-14.0","3PJUZCGDJ72BSAARTF0QBIWMPQL890","AU34T9OMHN4Z4","3PIOQ99R7Y8STPN46QFY0SD7JTFNU0","","987.2999999523163","img/food1.png","75","988.6000000238419","2","0","3","1","1,0.5,0,1,0.5,0,0.5,0,1","1,0.5,0,1,0.5,0,0.5,0,1","1","",""
"","html-keyboard-response","15","82390","0.0-15.0","3PJUZCGDJ72BSAARTF0QBIWMPQL890","AU34T9OMHN4Z4","3PIOQ99R7Y8STPN46QFY0SD7JTFNU0","","null","<img src=""img/food1.png"" style=""width:200px;border:14px solid red;"">","null","","","","","","","","","",""
"","image-keyboard-response","16","83436","0.0-16.0","3PJUZCGDJ72BSAARTF0QBIWMPQL890","AU34T9OMHN4Z4","3PIOQ99R7Y8STPN46QFY0SD7JTFNU0","","1045","img/food5.png","76","1046.0999999642372","3","0","1","1","1,0.5,0,1,0.5,0,0.5,0,1","1,0.5,0,1,0.5,0,0.5,0,1","1","",""
"","html-keyboard-response","17","83737","0.0-17.0","3PJUZCGDJ72BSAARTF0QBIWMPQL890","AU34T9OMHN4Z4","3PIOQ99R7Y8STPN46QFY0SD7JTFNU0","","null","<img src=""img/food5.png"" style=""width:200px;border:14px solid red;"">","null","","","","","","","","","",""
"","image-keyboard-response","18","84357","0.0-18.0","3PJUZCGDJ72BSAARTF0QBIWMPQL890","AU34T9OMHN4Z4","3PIOQ99R7Y8STPN46QFY0SD7JTFNU0","","619.1999999880791","img/food5.png","75","619.5999999642372","2","0","1","1","1,0.5,0,1,0.5,0,0.5,0,1","1,0.5,0,1,0.5,0,0.5,0,1","1","",""
"","html-keyboard-response","19","84659","0.0-19.0","3PJUZCGDJ72BSAARTF0QBIWMPQL890","AU34T9OMHN4Z4","3PIOQ99R7Y8STPN46QFY0SD7JTFNU0","","null","<img src=""img/food5.png"" style=""width:200px;border:14px solid red;"">","null","","","","","","","","","",""
"","image-keyboard-response","20","86027","0.0-20.0","3PJUZCGDJ72BSAARTF0QBIWMPQL890","AU34T9OMHN4Z4","3PIOQ99R7Y8STPN46QFY0SD7JTFNU0","","1367.1000000238419","img/food1.png","76","1368.2000000476837","3","1","3","1","1,0.5,0,1,0.5,0,0.5,0,1","1,0.5,0,1,0.5,0,0.5,0,1","1","",""
"","html-keyboard-response","21","86328","0.0-21.0","3PJUZCGDJ72BSAARTF0QBIWMPQL890","AU34T9OMHN4Z4","3PIOQ99R7Y8STPN46QFY0SD7JTFNU0","","null","<img src=""img/food1.png"" style=""width:200px; border:14px solid green;"">","null","","","","","","","","","",""
"","image-keyboard-response","22","87271","0.0-22.0","3PJUZCGDJ72BSAARTF0QBIWMPQL890","AU34T9OMHN4Z4","3PIOQ99R7Y8STPN46QFY0SD7JTFNU0","","941.9000000357628","img/food6.png","74","942.6000000238419","1","1","2","1","1,0.5,0,1,0.5,0,0.5,0,1","1,0.5,0,1,0.5,0,0.5,0,1","1","",""
"","html-keyboard-response","23","87574","0.0-23.0","3PJUZCGDJ72BSAARTF0QBIWMPQL890","AU34T9OMHN4Z4","3PIOQ99R7Y8STPN46QFY0SD7JTFNU0","","null","<img src=""img/food6.png"" style=""width:200px; border:14px solid green;"">","null","","","","","","","","","",""
"","image-keyboard-response","24","88532","0.0-24.0","3PJUZCGDJ72BSAARTF0QBIWMPQL890","AU34T9OMHN4Z4","3PIOQ99R7Y8STPN46QFY0SD7JTFNU0","","957.2999999523163","img/food1.png","76","958","3","1","3","1","1,0.5,0,1,0.5,0,0.5,0,1","1,0.5,0,1,0.5,0,0.5,0,1","1","",""
"","html-keyboard-response","25","88834","0.0-25.0","3PJUZCGDJ72BSAARTF0QBIWMPQL890","AU34T9OMHN4Z4","3PIOQ99R7Y8STPN46QFY0SD7JTFNU0","","null","<img src=""img/food1.png"" style=""width:200px; border:14px solid green;"">","null","","","","","","","","","",""
"","image-keyboard-response","26","89635","0.0-26.0","3PJUZCGDJ72BSAARTF0QBIWMPQL890","AU34T9OMHN4Z4","3PIOQ99R7Y8STPN46QFY0SD7JTFNU0","","799.5","img/food5.png","75","800.6000000238419","2","1","1","1","1,0.5,0,1,0.5,0,0.5,0,1","1,0.5,0,1,0.5,0,0.5,0,1","1","",""
"","html-keyboard-response","27","89937","0.0-27.0","3PJUZCGDJ72BSAARTF0QBIWMPQL890","AU34T9OMHN4Z4","3PIOQ99R7Y8STPN46QFY0SD7JTFNU0","","null","<img src=""img/food5.png"" style=""width:200px; border:14px solid green;"">","null","","","","","","","","","",""
"","image-keyboard-response","28","91867","0.0-28.0","3PJUZCGDJ72BSAARTF0QBIWMPQL890","AU34T9OMHN4Z4","3PIOQ99R7Y8STPN46QFY0SD7JTFNU0","","1929.4000000357628","img/food1.png","76","1929.699999988079","3","1","3","1","1,0.5,0,1,0.5,0,0.5,0,1","1,0.5,0,1,0.5,0,0.5,0,1","1","",""
"","html-keyboard-response","29","92169","0.0-29.0","3PJUZCGDJ72BSAARTF0QBIWMPQL890","AU34T9OMHN4Z4","3PIOQ99R7Y8STPN46QFY0SD7JTFNU0","","null","<img src=""img/food1.png"" style=""width:200px; border:14px solid green;"">","null","","","","","","","","","",""
"","image-keyboard-response","30","92988","0.0-30.0","3PJUZCGDJ72BSAARTF0QBIWMPQL890","AU34T9OMHN4Z4","3PIOQ99R7Y8STPN46QFY0SD7JTFNU0","","817.5","img/food5.png","75","818.7000000476837","2","1","1","1","1,0.5,0,1,0.5,0,0.5,0,1","1,0.5,0,1,0.5,0,0.5,0,1","1","",""
"","html-keyboard-response","31","93290","0.0-31.0","3PJUZCGDJ72BSAARTF0QBIWMPQL890","AU34T9OMHN4Z4","3PIOQ99R7Y8STPN46QFY0SD7JTFNU0","","null","<img src=""img/food5.png"" style=""width:200px; border:14px solid green;"">","null","","","","","","","","","",""
"","image-keyboard-response","32","94580","0.0-32.0","3PJUZCGDJ72BSAARTF0QBIWMPQL890","AU34T9OMHN4Z4","3PIOQ99R7Y8STPN46QFY0SD7JTFNU0","","1288.9000000357628","img/food1.png","76","1290.199999988079","3","1","3","1","1,0.5,0,1,0.5,0,0.5,0,1","1,0.5,0,1,0.5,0,0.5,0,1","1","",""
"","html-keyboard-response","33","94884","0.0-33.0","3PJUZCGDJ72BSAARTF0QBIWMPQL890","AU34T9OMHN4Z4","3PIOQ99R7Y8STPN46QFY0SD7JTFNU0","","null","<img src=""img/food1.png"" style=""width:200px; border:14px solid green;"">","null","","","","","","","","","",""
"","image-keyboard-response","34","95675","0.0-34.0","3PJUZCGDJ72BSAARTF0QBIWMPQL890","AU34T9OMHN4Z4","3PIOQ99R7Y8STPN46QFY0SD7JTFNU0","","790.5","img/food5.png","75","791","2","1","1","1","1,0.5,0,1,0.5,0,0.5,0,1","1,0.5,0,1,0.5,0,0.5,0,1","1","",""
"","html-keyboard-response","35","95977","0.0-35.0","3PJUZCGDJ72BSAARTF0QBIWMPQL890","AU34T9OMHN4Z4","3PIOQ99R7Y8STPN46QFY0SD7JTFNU0","","null","<img src=""img/food5.png"" style=""width:200px; border:14px solid green;"">","null","","","","","","","","","",""
"","image-keyboard-response","36","96627","0.0-36.0","3PJUZCGDJ72BSAARTF0QBIWMPQL890","AU34T9OMHN4Z4","3PIOQ99R7Y8STPN46QFY0SD7JTFNU0","","649.2000000476837","img/food1.png","76","650.1999999880791","3","1","3","1","1,0.5,0,1,0.5,0,0.5,0,1","1,0.5,0,1,0.5,0,0.5,0,1","1","",""
"","html-keyboard-response","37","96929","0.0-37.0","3PJUZCGDJ72BSAARTF0QBIWMPQL890","AU34T9OMHN4Z4","3PIOQ99R7Y8STPN46QFY0SD7JTFNU0","","null","<img src=""img/food1.png"" style=""width:200px; border:14px solid green;"">","null","","","","","","","","","",""
"","image-keyboard-response","38","97435","0.0-38.0","3PJUZCGDJ72BSAARTF0QBIWMPQL890","AU34T9OMHN4Z4","3PIOQ99R7Y8STPN46QFY0SD7JTFNU0","","504.89999997615814","img/food1.png","76","505.60000002384186","3","1","3","1","1,0.5,0,1,0.5,0,0.5,0,1","1,0.5,0,1,0.5,0,0.5,0,1","1","",""
"","html-keyboard-response","39","97738","0.0-39.0","3PJUZCGDJ72BSAARTF0QBIWMPQL890","AU34T9OMHN4Z4","3PIOQ99R7Y8STPN46QFY0SD7JTFNU0","","null","<img src=""img/food1.png"" style=""width:200px; border:14px solid green;"">","null","","","","","","","","","",""
"","image-keyboard-response","40","98468","0.0-40.0","3PJUZCGDJ72BSAARTF0QBIWMPQL890","AU34T9OMHN4Z4","3PIOQ99R7Y8STPN46QFY0SD7JTFNU0","","728.5","img/food1.png","76","729.4000000357628","3","1","3","1","1,0.5,0,1,0.5,0,0.5,0,1","1,0.5,0,1,0.5,0,0.5,0,1","1","",""
"","html-keyboard-response","41","98770","0.0-41.0","3PJUZCGDJ72BSAARTF0QBIWMPQL890","AU34T9OMHN4Z4","3PIOQ99R7Y8STPN46QFY0SD7JTFNU0","","null","<img src=""img/food1.png"" style=""width:200px; border:14px solid green;"">","null","","","","","","","","","",""
"","image-keyboard-response","42","99533","0.0-42.0","3PJUZCGDJ72BSAARTF0QBIWMPQL890","AU34T9OMHN4Z4","3PIOQ99R7Y8STPN46QFY0SD7JTFNU0","","762","img/food6.png","74","763.2999999523163","1","1","2","1","1,0.5,0,1,0.5,0,0.5,0,1","1,0.5,0,1,0.5,0,0.5,0,1","1","",""
"","html-keyboard-response","43","99838","0.0-43.0","3PJUZCGDJ72BSAARTF0QBIWMPQL890","AU34T9OMHN4Z4","3PIOQ99R7Y8STPN46QFY0SD7JTFNU0","","null","<img src=""img/food6.png"" style=""width:200px; border:14px solid green;"">","null","","","","","","","","","",""
"","image-keyboard-response","44","101493","0.0-44.0","3PJUZCGDJ72BSAARTF0QBIWMPQL890","AU34T9OMHN4Z4","3PIOQ99R7Y8STPN46QFY0SD7JTFNU0","","1654.2000000476837","img/food5.png","75","1655.300000011921","2","0","1","1","1,0.5,0,1,0.5,0,0.5,0,1","1,0.5,0,1,0.5,0,0.5,0,1","1","",""
"","html-keyboard-response","45","101795","0.0-45.0","3PJUZCGDJ72BSAARTF0QBIWMPQL890","AU34T9OMHN4Z4","3PIOQ99R7Y8STPN46QFY0SD7JTFNU0","","null","<img src=""img/food5.png"" style=""width:200px;border:14px solid red;"">","null","","","","","","","","","",""
"","image-keyboard-response","46","103795","0.0-46.0","3PJUZCGDJ72BSAARTF0QBIWMPQL890","AU34T9OMHN4Z4","3PIOQ99R7Y8STPN46QFY0SD7JTFNU0","","1999.1000000238419","img/food5.png","75","2000","2","0","1","1","1,0.5,0,1,0.5,0,0.5,0,1","1,0.5,0,1,0.5,0,0.5,0,1","1","",""
"","html-keyboard-response","47","104098","0.0-47.0","3PJUZCGDJ72BSAARTF0QBIWMPQL890","AU34T9OMHN4Z4","3PIOQ99R7Y8STPN46QFY0SD7JTFNU0","","null","<img src=""img/food5.png"" style=""width:200px;border:14px solid red;"">","null","","","","","","","","","",""
"","image-keyboard-response","48","104469","0.0-48.0","3PJUZCGDJ72BSAARTF0QBIWMPQL890","AU34T9OMHN4Z4","3PIOQ99R7Y8STPN46QFY0SD7JTFNU0","","369.7999999523163","img/food5.png","75","371.19999998807907","2","1","1","1","1,0.5,0,1,0.5,0,0.5,0,1","1,0.5,0,1,0.5,0,0.5,0,1","1","",""
"","html-keyboard-response","49","104773","0.0-49.0","3PJUZCGDJ72BSAARTF0QBIWMPQL890","AU34T9OMHN4Z4","3PIOQ99R7Y8STPN46QFY0SD7JTFNU0","","null","<img src=""img/food5.png"" style=""width:200px; border:14px solid green;"">","null","","","","","","","","","",""
"","image-keyboard-response","50","105485","0.0-50.0","3PJUZCGDJ72BSAARTF0QBIWMPQL890","AU34T9OMHN4Z4","3PIOQ99R7Y8STPN46QFY0SD7JTFNU0","","711.6999999880791","img/food6.png","74","712.5","1","1","2","1","1,0.5,0,1,0.5,0,0.5,0,1","1,0.5,0,1,0.5,0,0.5,0,1","1","",""
"","html-keyboard-response","51","105787","0.0-51.0","3PJUZCGDJ72BSAARTF0QBIWMPQL890","AU34T9OMHN4Z4","3PIOQ99R7Y8STPN46QFY0SD7JTFNU0","","null","<img src=""img/food6.png"" style=""width:200px; border:14px solid green;"">","null","","","","","","","","","",""
"","image-keyboard-response","52","106301","0.0-52.0","3PJUZCGDJ72BSAARTF0QBIWMPQL890","AU34T9OMHN4Z4","3PIOQ99R7Y8STPN46QFY0SD7JTFNU0","","512.3000000119209","img/food6.png","74","513.2000000476837","1","1","2","1","1,0.5,0,1,0.5,0,0.5,0,1","1,0.5,0,1,0.5,0,0.5,0,1","1","",""
"","html-keyboard-response","53","106603","0.0-53.0","3PJUZCGDJ72BSAARTF0QBIWMPQL890","AU34T9OMHN4Z4","3PIOQ99R7Y8STPN46QFY0SD7JTFNU0","","null","<img src=""img/food6.png"" style=""width:200px; border:14px solid green;"">","null","","","","","","","","","",""
"","image-keyboard-response","54","107619","0.0-54.0","3PJUZCGDJ72BSAARTF0QBIWMPQL890","AU34T9OMHN4Z4","3PIOQ99R7Y8STPN46QFY0SD7JTFNU0","","1013.5999999642372","img/food6.png","74","1014.6999999880791","1","1","2","1","1,0.5,0,1,0.5,0,0.5,0,1","1,0.5,0,1,0.5,0,0.5,0,1","1","",""
"","html-keyboard-response","55","107921","0.0-55.0","3PJUZCGDJ72BSAARTF0QBIWMPQL890","AU34T9OMHN4Z4","3PIOQ99R7Y8STPN46QFY0SD7JTFNU0","","null","<img src=""img/food6.png"" style=""width:200px; border:14px solid green;"">","null","","","","","","","","","",""
"","image-keyboard-response","56","108819","0.0-56.0","3PJUZCGDJ72BSAARTF0QBIWMPQL890","AU34T9OMHN4Z4","3PIOQ99R7Y8STPN46QFY0SD7JTFNU0","","896.1000000238419","img/food1.png","76","897.5999999642372","3","1","3","1","1,0.5,0,1,0.5,0,0.5,0,1","1,0.5,0,1,0.5,0,0.5,0,1","1","",""
"","html-keyboard-response","57","109121","0.0-57.0","3PJUZCGDJ72BSAARTF0QBIWMPQL890","AU34T9OMHN4Z4","3PIOQ99R7Y8STPN46QFY0SD7JTFNU0","","null","<img src=""img/food1.png"" style=""width:200px; border:14px solid green;"">","null","","","","","","","","","",""
"","image-keyboard-response","58","109828","0.0-58.0","3PJUZCGDJ72BSAARTF0QBIWMPQL890","AU34T9OMHN4Z4","3PIOQ99R7Y8STPN46QFY0SD7JTFNU0","","705.2999999523163","img/food5.png","75","706.4000000357628","2","0","1","1","1,0.5,0,1,0.5,0,0.5,0,1","1,0.5,0,1,0.5,0,0.5,0,1","1","",""
"","html-keyboard-response","59","110131","0.0-59.0","3PJUZCGDJ72BSAARTF0QBIWMPQL890","AU34T9OMHN4Z4","3PIOQ99R7Y8STPN46QFY0SD7JTFNU0","","null","<img src=""img/food5.png"" style=""width:200px;border:14px solid red;"">","null","","","","","","","","","",""
"","image-keyboard-response","60","111140","0.0-60.0","3PJUZCGDJ72BSAARTF0QBIWMPQL890","AU34T9OMHN4Z4","3PIOQ99R7Y8STPN46QFY0SD7JTFNU0","","1008.1000000238419","img/food5.png","75","1009","2","1","1","1","1,0.5,0,1,0.5,0,0.5,0,1","1,0.5,0,1,0.5,0,0.5,0,1","1","",""
"","html-keyboard-response","61","111442","0.0-61.0","3PJUZCGDJ72BSAARTF0QBIWMPQL890","AU34T9OMHN4Z4","3PIOQ99R7Y8STPN46QFY0SD7JTFNU0","","null","<img src=""img/food5.png"" style=""width:200px; border:14px solid green;"">","null","","","","","","","","","",""
"","image-keyboard-response","62","112444","0.0-62.0","3PJUZCGDJ72BSAARTF0QBIWMPQL890","AU34T9OMHN4Z4","3PIOQ99R7Y8STPN46QFY0SD7JTFNU0","","999.7000000476837","img/food5.png","75","1001","2","1","1","1","1,0.5,0,1,0.5,0,0.5,0,1","1,0.5,0,1,0.5,0,0.5,0,1","1","",""
"","html-keyboard-response","63","112746","0.0-63.0","3PJUZCGDJ72BSAARTF0QBIWMPQL890","AU34T9OMHN4Z4","3PIOQ99R7Y8STPN46QFY0SD7JTFNU0","","null","<img src=""img/food5.png"" style=""width:200px; border:14px solid green;"">","null","","","","","","","","","",""
"","image-keyboard-response","64","113348","0.0-64.0","3PJUZCGDJ72BSAARTF0QBIWMPQL890","AU34T9OMHN4Z4","3PIOQ99R7Y8STPN46QFY0SD7JTFNU0","","600.5","img/food6.png","74","601.5","1","1","2","1","1,0.5,0,1,0.5,0,0.5,0,1","1,0.5,0,1,0.5,0,0.5,0,1","1","",""
"","html-keyboard-response","65","113651","0.0-65.0","3PJUZCGDJ72BSAARTF0QBIWMPQL890","AU34T9OMHN4Z4","3PIOQ99R7Y8STPN46QFY0SD7JTFNU0","","null","<img src=""img/food6.png"" style=""width:200px; border:14px solid green;"">","null","","","","","","","","","",""
"","image-keyboard-response","66","114140","0.0-66.0","3PJUZCGDJ72BSAARTF0QBIWMPQL890","AU34T9OMHN4Z4","3PIOQ99R7Y8STPN46QFY0SD7JTFNU0","","487.9000000357628","img/food6.png","74","488.69999998807907","1","1","2","1","1,0.5,0,1,0.5,0,0.5,0,1","1,0.5,0,1,0.5,0,0.5,0,1","1","",""
"","html-keyboard-response","67","114441","0.0-67.0","3PJUZCGDJ72BSAARTF0QBIWMPQL890","AU34T9OMHN4Z4","3PIOQ99R7Y8STPN46QFY0SD7JTFNU0","","null","<img src=""img/food6.png"" style=""width:200px; border:14px solid green;"">","null","","","","","","","","","",""
"","image-keyboard-response","68","114836","0.0-68.0","3PJUZCGDJ72BSAARTF0QBIWMPQL890","AU34T9OMHN4Z4","3PIOQ99R7Y8STPN46QFY0SD7JTFNU0","","393.60000002384186","img/food6.png","74","394.7000000476837","1","1","2","1","1,0.5,0,1,0.5,0,0.5,0,1","1,0.5,0,1,0.5,0,0.5,0,1","1","",""
"","html-keyboard-response","69","115138","0.0-69.0","3PJUZCGDJ72BSAARTF0QBIWMPQL890","AU34T9OMHN4Z4","3PIOQ99R7Y8STPN46QFY0SD7JTFNU0","","null","<img src=""img/food6.png"" style=""width:200px; border:14px solid green;"">","null","","","","","","","","","",""
"","image-keyboard-response","70","115355","0.0-70.0","3PJUZCGDJ72BSAARTF0QBIWMPQL890","AU34T9OMHN4Z4","3PIOQ99R7Y8STPN46QFY0SD7JTFNU0","","215.5999999642372","img/food6.png","74","216.70000004768372","1","1","2","1","1,0.5,0,1,0.5,0,0.5,0,1","1,0.5,0,1,0.5,0,0.5,0,1","1","",""
"","html-keyboard-response","71","115657","0.0-71.0","3PJUZCGDJ72BSAARTF0QBIWMPQL890","AU34T9OMHN4Z4","3PIOQ99R7Y8STPN46QFY0SD7JTFNU0","","null","<img src=""img/food6.png"" style=""width:200px; border:14px solid green;"">","null","","","","","","","","","",""
"","image-keyboard-response","72","116427","0.0-72.0","3PJUZCGDJ72BSAARTF0QBIWMPQL890","AU34T9OMHN4Z4","3PIOQ99R7Y8STPN46QFY0SD7JTFNU0","","769","img/food1.png","76","769.6000000238419","3","1","3","1","1,0.5,0,1,0.5,0,0.5,0,1","1,0.5,0,1,0.5,0,0.5,0,1","1","",""
"","html-keyboard-response","73","116729","0.0-73.0","3PJUZCGDJ72BSAARTF0QBIWMPQL890","AU34T9OMHN4Z4","3PIOQ99R7Y8STPN46QFY0SD7JTFNU0","","null","<img src=""img/food1.png"" style=""width:200px; border:14px solid green;"">","null","","","","","","","","","",""
"","image-keyboard-response","74","117404","0.0-74.0","3PJUZCGDJ72BSAARTF0QBIWMPQL890","AU34T9OMHN4Z4","3PIOQ99R7Y8STPN46QFY0SD7JTFNU0","","673.6999999880791","img/food5.png","75","674.6999999880791","2","0","1","1","1,0.5,0,1,0.5,0,0.5,0,1","1,0.5,0,1,0.5,0,0.5,0,1","1","",""
"","html-keyboard-response","75","117706","0.0-75.0","3PJUZCGDJ72BSAARTF0QBIWMPQL890","AU34T9OMHN4Z4","3PIOQ99R7Y8STPN46QFY0SD7JTFNU0","","null","<img src=""img/food5.png"" style=""width:200px;border:14px solid red;"">","null","","","","","","","","","",""
"","image-keyboard-response","76","118492","0.0-76.0","3PJUZCGDJ72BSAARTF0QBIWMPQL890","AU34T9OMHN4Z4","3PIOQ99R7Y8STPN46QFY0SD7JTFNU0","","785.5","img/food5.png","75","786.1000000238419","2","1","1","1","1,0.5,0,1,0.5,0,0.5,0,1","1,0.5,0,1,0.5,0,0.5,0,1","1","",""
"","html-keyboard-response","77","118795","0.0-77.0","3PJUZCGDJ72BSAARTF0QBIWMPQL890","AU34T9OMHN4Z4","3PIOQ99R7Y8STPN46QFY0SD7JTFNU0","","null","<img src=""img/food5.png"" style=""width:200px; border:14px solid green;"">","null","","","","","","","","","",""
"","image-keyboard-response","78","119412","0.0-78.0","3PJUZCGDJ72BSAARTF0QBIWMPQL890","AU34T9OMHN4Z4","3PIOQ99R7Y8STPN46QFY0SD7JTFNU0","","616.1999999880791","img/food6.png","74","616.8000000119209","1","1","2","1","1,0.5,0,1,0.5,0,0.5,0,1","1,0.5,0,1,0.5,0,0.5,0,1","1","",""
"","html-keyboard-response","79","119712","0.0-79.0","3PJUZCGDJ72BSAARTF0QBIWMPQL890","AU34T9OMHN4Z4","3PIOQ99R7Y8STPN46QFY0SD7JTFNU0","","null","<img src=""img/food6.png"" style=""width:200px; border:14px solid green;"">","null","","","","","","","","","",""
"","image-keyboard-response","80","120747","0.0-80.0","3PJUZCGDJ72BSAARTF0QBIWMPQL890","AU34T9OMHN4Z4","3PIOQ99R7Y8STPN46QFY0SD7JTFNU0","","1033.800000011921","img/food5.png","76","1034.5","3","0","1","1","1,0.5,0,1,0.5,0,0.5,0,1","1,0.5,0,1,0.5,0,0.5,0,1","1","",""
"","html-keyboard-response","81","121048","0.0-81.0","3PJUZCGDJ72BSAARTF0QBIWMPQL890","AU34T9OMHN4Z4","3PIOQ99R7Y8STPN46QFY0SD7JTFNU0","","null","<img src=""img/food5.png"" style=""width:200px;border:14px solid red;"">","null","","","","","","","","","",""
"","image-keyboard-response","82","122101","0.0-82.0","3PJUZCGDJ72BSAARTF0QBIWMPQL890","AU34T9OMHN4Z4","3PIOQ99R7Y8STPN46QFY0SD7JTFNU0","","1050.800000011921","img/food6.png","74","1052.0999999642372","1","1","2","1","1,0.5,0,1,0.5,0,0.5,0,1","1,0.5,0,1,0.5,0,0.5,0,1","1","",""
"","html-keyboard-response","83","122403","0.0-83.0","3PJUZCGDJ72BSAARTF0QBIWMPQL890","AU34T9OMHN4Z4","3PIOQ99R7Y8STPN46QFY0SD7JTFNU0","","null","<img src=""img/food6.png"" style=""width:200px; border:14px solid green;"">","null","","","","","","","","","",""
"","image-keyboard-response","84","123092","0.0-84.0","3PJUZCGDJ72BSAARTF0QBIWMPQL890","AU34T9OMHN4Z4","3PIOQ99R7Y8STPN46QFY0SD7JTFNU0","","688.5","img/food5.png","75","689.1999999880791","2","0","1","1","1,0.5,0,1,0.5,0,0.5,0,1","1,0.5,0,1,0.5,0,0.5,0,1","1","",""
"","html-keyboard-response","85","123395","0.0-85.0","3PJUZCGDJ72BSAARTF0QBIWMPQL890","AU34T9OMHN4Z4","3PIOQ99R7Y8STPN46QFY0SD7JTFNU0","","null","<img src=""img/food5.png"" style=""width:200px;border:14px solid red;"">","null","","","","","","","","","",""
"","image-keyboard-response","86","123747","0.0-86.0","3PJUZCGDJ72BSAARTF0QBIWMPQL890","AU34T9OMHN4Z4","3PIOQ99R7Y8STPN46QFY0SD7JTFNU0","","350","img/food5.png","75","351.39999997615814","2","0","1","1","1,0.5,0,1,0.5,0,0.5,0,1","1,0.5,0,1,0.5,0,0.5,0,1","1","",""
"","html-keyboard-response","87","124049","0.0-87.0","3PJUZCGDJ72BSAARTF0QBIWMPQL890","AU34T9OMHN4Z4","3PIOQ99R7Y8STPN46QFY0SD7JTFNU0","","null","<img src=""img/food5.png"" style=""width:200px;border:14px solid red;"">","null","","","","","","","","","",""
"","image-keyboard-response","88","124260","0.0-88.0","3PJUZCGDJ72BSAARTF0QBIWMPQL890","AU34T9OMHN4Z4","3PIOQ99R7Y8STPN46QFY0SD7JTFNU0","","209.4000000357628","img/food6.png","75","210.5","2","0","2","1","1,0.5,0,1,0.5,0,0.5,0,1","1,0.5,0,1,0.5,0,0.5,0,1","1","",""
"","html-keyboard-response","89","124563","0.0-89.0","3PJUZCGDJ72BSAARTF0QBIWMPQL890","AU34T9OMHN4Z4","3PIOQ99R7Y8STPN46QFY0SD7JTFNU0","","null","<img src=""img/food6.png"" style=""width:200px;border:14px solid red;"">","null","","","","","","","","","",""
"","image-keyboard-response","90","125738","0.0-90.0","3PJUZCGDJ72BSAARTF0QBIWMPQL890","AU34T9OMHN4Z4","3PIOQ99R7Y8STPN46QFY0SD7JTFNU0","","1174.5","img/food5.png","75","1175.3999999761581","2","0","1","1","1,0.5,0,1,0.5,0,0.5,0,1","1,0.5,0,1,0.5,0,0.5,0,1","1","",""
"","html-keyboard-response","91","126040","0.0-91.0","3PJUZCGDJ72BSAARTF0QBIWMPQL890","AU34T9OMHN4Z4","3PIOQ99R7Y8STPN46QFY0SD7JTFNU0","","null","<img src=""img/food5.png"" style=""width:200px;border:14px solid red;"">","null","","","","","","","","","",""
"","image-keyboard-response","92","126796","0.0-92.0","3PJUZCGDJ72BSAARTF0QBIWMPQL890","AU34T9OMHN4Z4","3PIOQ99R7Y8STPN46QFY0SD7JTFNU0","","755.1000000238419","img/food6.png","74","756.3000000119209","1","1","2","1","1,0.5,0,1,0.5,0,0.5,0,1","1,0.5,0,1,0.5,0,0.5,0,1","1","",""
"","html-keyboard-response","93","127098","0.0-93.0","3PJUZCGDJ72BSAARTF0QBIWMPQL890","AU34T9OMHN4Z4","3PIOQ99R7Y8STPN46QFY0SD7JTFNU0","","null","<img src=""img/food6.png"" style=""width:200px; border:14px solid green;"">","null","","","","","","","","","",""
"","image-keyboard-response","94","127579","0.0-94.0","3PJUZCGDJ72BSAARTF0QBIWMPQL890","AU34T9OMHN4Z4","3PIOQ99R7Y8STPN46QFY0SD7JTFNU0","","479.5","img/food6.png","74","480.69999998807907","1","1","2","1","1,0.5,0,1,0.5,0,0.5,0,1","1,0.5,0,1,0.5,0,0.5,0,1","1","",""
"","html-keyboard-response","95","127881","0.0-95.0","3PJUZCGDJ72BSAARTF0QBIWMPQL890","AU34T9OMHN4Z4","3PIOQ99R7Y8STPN46QFY0SD7JTFNU0","","null","<img src=""img/food6.png"" style=""width:200px; border:14px solid green;"">","null","","","","","","","","","",""
"","image-keyboard-response","96","128317","0.0-96.0","3PJUZCGDJ72BSAARTF0QBIWMPQL890","AU34T9OMHN4Z4","3PIOQ99R7Y8STPN46QFY0SD7JTFNU0","","433.60000002384186","img/food6.png","74","434.80000001192093","1","1","2","1","1,0.5,0,1,0.5,0,0.5,0,1","1,0.5,0,1,0.5,0,0.5,0,1","1","",""
"","html-keyboard-response","97","128618","0.0-97.0","3PJUZCGDJ72BSAARTF0QBIWMPQL890","AU34T9OMHN4Z4","3PIOQ99R7Y8STPN46QFY0SD7JTFNU0","","null","<img src=""img/food6.png"" style=""width:200px; border:14px solid green;"">","null","","","","","","","","","",""
"","image-keyboard-response","98","129003","0.0-98.0","3PJUZCGDJ72BSAARTF0QBIWMPQL890","AU34T9OMHN4Z4","3PIOQ99R7Y8STPN46QFY0SD7JTFNU0","","383.5","img/food6.png","74","384.19999998807907","1","1","2","1","1,0.5,0,1,0.5,0,0.5,0,1","1,0.5,0,1,0.5,0,0.5,0,1","1","",""
"","html-keyboard-response","99","129306","0.0-99.0","3PJUZCGDJ72BSAARTF0QBIWMPQL890","AU34T9OMHN4Z4","3PIOQ99R7Y8STPN46QFY0SD7JTFNU0","","null","<img src=""img/food6.png"" style=""width:200px; border:14px solid green;"">","null","","","","","","","","","",""
"","image-keyboard-response","100","129754","0.0-100.0","3PJUZCGDJ72BSAARTF0QBIWMPQL890","AU34T9OMHN4Z4","3PIOQ99R7Y8STPN46QFY0SD7JTFNU0","","448.19999998807907","img/food1.png","76","448.69999998807907","3","1","3","1","1,0.5,0,1,0.5,0,0.5,0,1","1,0.5,0,1,0.5,0,0.5,0,1","1","",""
"","html-keyboard-response","101","130056","0.0-101.0","3PJUZCGDJ72BSAARTF0QBIWMPQL890","AU34T9OMHN4Z4","3PIOQ99R7Y8STPN46QFY0SD7JTFNU0","","null","<img src=""img/food1.png"" style=""width:200px; border:14px solid green;"">","null","","","","","","","","","",""
"","image-keyboard-response","102","130770","0.0-102.0","3PJUZCGDJ72BSAARTF0QBIWMPQL890","AU34T9OMHN4Z4","3PIOQ99R7Y8STPN46QFY0SD7JTFNU0","","712.4000000357628","img/food5.png","75","713.5","2","0","1","1","1,0.5,0,1,0.5,0,0.5,0,1","1,0.5,0,1,0.5,0,0.5,0,1","1","",""
"","html-keyboard-response","103","131073","0.0-103.0","3PJUZCGDJ72BSAARTF0QBIWMPQL890","AU34T9OMHN4Z4","3PIOQ99R7Y8STPN46QFY0SD7JTFNU0","","null","<img src=""img/food5.png"" style=""width:200px;border:14px solid red;"">","null","","","","","","","","","",""
"","image-keyboard-response","104","131852","0.0-104.0","3PJUZCGDJ72BSAARTF0QBIWMPQL890","AU34T9OMHN4Z4","3PIOQ99R7Y8STPN46QFY0SD7JTFNU0","","778.6000000238419","img/food6.png","74","779.1999999880791","1","1","2","1","1,0.5,0,1,0.5,0,0.5,0,1","1,0.5,0,1,0.5,0,0.5,0,1","1","",""
"","html-keyboard-response","105","132154","0.0-105.0","3PJUZCGDJ72BSAARTF0QBIWMPQL890","AU34T9OMHN4Z4","3PIOQ99R7Y8STPN46QFY0SD7JTFNU0","","null","<img src=""img/food6.png"" style=""width:200px; border:14px solid green;"">","null","","","","","","","","","",""
"","image-keyboard-response","106","132995","0.0-106.0","3PJUZCGDJ72BSAARTF0QBIWMPQL890","AU34T9OMHN4Z4","3PIOQ99R7Y8STPN46QFY0SD7JTFNU0","","840","img/food1.png","76","840.8000000119209","3","1","3","1","1,0.5,0,1,0.5,0,0.5,0,1","1,0.5,0,1,0.5,0,0.5,0,1","1","",""
"","html-keyboard-response","107","133297","0.0-107.0","3PJUZCGDJ72BSAARTF0QBIWMPQL890","AU34T9OMHN4Z4","3PIOQ99R7Y8STPN46QFY0SD7JTFNU0","","null","<img src=""img/food1.png"" style=""width:200px; border:14px solid green;"">","null","","","","","","","","","",""
"","image-keyboard-response","108","134181","0.0-108.0","3PJUZCGDJ72BSAARTF0QBIWMPQL890","AU34T9OMHN4Z4","3PIOQ99R7Y8STPN46QFY0SD7JTFNU0","","882.5","img/food5.png","75","883.3000000119209","2","0","1","1","1,0.5,0,1,0.5,0,0.5,0,1","1,0.5,0,1,0.5,0,0.5,0,1","1","",""
"","html-keyboard-response","109","134483","0.0-109.0","3PJUZCGDJ72BSAARTF0QBIWMPQL890","AU34T9OMHN4Z4","3PIOQ99R7Y8STPN46QFY0SD7JTFNU0","","null","<img src=""img/food5.png"" style=""width:200px;border:14px solid red;"">","null","","","","","","","","","",""
"","image-keyboard-response","110","135627","0.0-110.0","3PJUZCGDJ72BSAARTF0QBIWMPQL890","AU34T9OMHN4Z4","3PIOQ99R7Y8STPN46QFY0SD7JTFNU0","","1143","img/food6.png","74","1143.699999988079","1","1","2","1","1,0.5,0,1,0.5,0,0.5,0,1","1,0.5,0,1,0.5,0,0.5,0,1","1","",""
"","html-keyboard-response","111","135930","0.0-111.0","3PJUZCGDJ72BSAARTF0QBIWMPQL890","AU34T9OMHN4Z4","3PIOQ99R7Y8STPN46QFY0SD7JTFNU0","","null","<img src=""img/food6.png"" style=""width:200px; border:14px solid green;"">","null","","","","","","","","","",""
"","image-keyboard-response","112","136316","0.0-112.0","3PJUZCGDJ72BSAARTF0QBIWMPQL890","AU34T9OMHN4Z4","3PIOQ99R7Y8STPN46QFY0SD7JTFNU0","","384.80000001192093","img/food6.png","74","386.0999999642372","1","1","2","1","1,0.5,0,1,0.5,0,0.5,0,1","1,0.5,0,1,0.5,0,0.5,0,1","1","",""
"","html-keyboard-response","113","136619","0.0-113.0","3PJUZCGDJ72BSAARTF0QBIWMPQL890","AU34T9OMHN4Z4","3PIOQ99R7Y8STPN46QFY0SD7JTFNU0","","null","<img src=""img/food6.png"" style=""width:200px; border:14px solid green;"">","null","","","","","","","","","",""
"","image-keyboard-response","114","137332","0.0-114.0","3PJUZCGDJ72BSAARTF0QBIWMPQL890","AU34T9OMHN4Z4","3PIOQ99R7Y8STPN46QFY0SD7JTFNU0","","711.6999999880791","img/food1.png","76","712.6000000238419","3","1","3","1","1,0.5,0,1,0.5,0,0.5,0,1","1,0.5,0,1,0.5,0,0.5,0,1","1","",""
"","html-keyboard-response","115","137634","0.0-115.0","3PJUZCGDJ72BSAARTF0QBIWMPQL890","AU34T9OMHN4Z4","3PIOQ99R7Y8STPN46QFY0SD7JTFNU0","","null","<img src=""img/food1.png"" style=""width:200px; border:14px solid green;"">","null","","","","","","","","","",""
"","image-keyboard-response","116","138331","0.0-116.0","3PJUZCGDJ72BSAARTF0QBIWMPQL890","AU34T9OMHN4Z4","3PIOQ99R7Y8STPN46QFY0SD7JTFNU0","","696.1000000238419","img/food1.png","76","696.8999999761581","3","1","3","1","1,0.5,0,1,0.5,0,0.5,0,1","1,0.5,0,1,0.5,0,0.5,0,1","1","",""
"","html-keyboard-response","117","138632","0.0-117.0","3PJUZCGDJ72BSAARTF0QBIWMPQL890","AU34T9OMHN4Z4","3PIOQ99R7Y8STPN46QFY0SD7JTFNU0","","null","<img src=""img/food1.png"" style=""width:200px; border:14px solid green;"">","null","","","","","","","","","",""
"","image-keyboard-response","118","139028","0.0-118.0","3PJUZCGDJ72BSAARTF0QBIWMPQL890","AU34T9OMHN4Z4","3PIOQ99R7Y8STPN46QFY0SD7JTFNU0","","394.4000000357628","img/food1.png","76","395.0999999642372","3","1","3","1","1,0.5,0,1,0.5,0,0.5,0,1","1,0.5,0,1,0.5,0,0.5,0,1","1","",""
"","html-keyboard-response","119","139330","0.0-119.0","3PJUZCGDJ72BSAARTF0QBIWMPQL890","AU34T9OMHN4Z4","3PIOQ99R7Y8STPN46QFY0SD7JTFNU0","","null","<img src=""img/food1.png"" style=""width:200px; border:14px solid green;"">","null","","","","","","","","","",""
"","image-keyboard-response","120","139770","0.0-120.0","3PJUZCGDJ72BSAARTF0QBIWMPQL890","AU34T9OMHN4Z4","3PIOQ99R7Y8STPN46QFY0SD7JTFNU0","","439.30000001192093","img/food1.png","76","440.0999999642372","3","1","3","1","1,0.5,0,1,0.5,0,0.5,0,1","1,0.5,0,1,0.5,0,0.5,0,1","1","",""
"","html-keyboard-response","121","140073","0.0-121.0","3PJUZCGDJ72BSAARTF0QBIWMPQL890","AU34T9OMHN4Z4","3PIOQ99R7Y8STPN46QFY0SD7JTFNU0","","null","<img src=""img/food1.png"" style=""width:200px; border:14px solid green;"">","null","","","","","","","","","",""
"","image-keyboard-response","122","140787","0.0-122.0","3PJUZCGDJ72BSAARTF0QBIWMPQL890","AU34T9OMHN4Z4","3PIOQ99R7Y8STPN46QFY0SD7JTFNU0","","712.3000000119209","img/food6.png","74","713.5","1","1","2","1","1,0.5,0,1,0.5,0,0.5,0,1","1,0.5,0,1,0.5,0,0.5,0,1","1","",""
"","html-keyboard-response","123","141088","0.0-123.0","3PJUZCGDJ72BSAARTF0QBIWMPQL890","AU34T9OMHN4Z4","3PIOQ99R7Y8STPN46QFY0SD7JTFNU0","","null","<img src=""img/food6.png"" style=""width:200px; border:14px solid green;"">","null","","","","","","","","","",""
"","image-keyboard-response","124","141610","0.0-124.0","3PJUZCGDJ72BSAARTF0QBIWMPQL890","AU34T9OMHN4Z4","3PIOQ99R7Y8STPN46QFY0SD7JTFNU0","","521","img/food6.png","74","521.5999999642372","1","1","2","1","1,0.5,0,1,0.5,0,0.5,0,1","1,0.5,0,1,0.5,0,0.5,0,1","1","",""
"","html-keyboard-response","125","141913","0.0-125.0","3PJUZCGDJ72BSAARTF0QBIWMPQL890","AU34T9OMHN4Z4","3PIOQ99R7Y8STPN46QFY0SD7JTFNU0","","null","<img src=""img/food6.png"" style=""width:200px; border:14px solid green;"">","null","","","","","","","","","",""
"","image-keyboard-response","126","142626","0.0-126.0","3PJUZCGDJ72BSAARTF0QBIWMPQL890","AU34T9OMHN4Z4","3PIOQ99R7Y8STPN46QFY0SD7JTFNU0","","711.9000000357628","img/food1.png","76","713","3","1","3","1","1,0.5,0,1,0.5,0,0.5,0,1","1,0.5,0,1,0.5,0,0.5,0,1","1","",""
"","html-keyboard-response","127","142927","0.0-127.0","3PJUZCGDJ72BSAARTF0QBIWMPQL890","AU34T9OMHN4Z4","3PIOQ99R7Y8STPN46QFY0SD7JTFNU0","","null","<img src=""img/food1.png"" style=""width:200px; border:14px solid green;"">","null","","","","","","","","","",""
"","image-keyboard-response","128","143527","0.0-128.0","3PJUZCGDJ72BSAARTF0QBIWMPQL890","AU34T9OMHN4Z4","3PIOQ99R7Y8STPN46QFY0SD7JTFNU0","","598.3000000119209","img/food5.png","75","599.3999999761581","2","1","1","1","1,0.5,0,1,0.5,0,0.5,0,1","1,0.5,0,1,0.5,0,0.5,0,1","1","",""
"","html-keyboard-response","129","143829","0.0-129.0","3PJUZCGDJ72BSAARTF0QBIWMPQL890","AU34T9OMHN4Z4","3PIOQ99R7Y8STPN46QFY0SD7JTFNU0","","null","<img src=""img/food5.png"" style=""width:200px; border:14px solid green;"">","null","","","","","","","","","",""
"","image-keyboard-response","130","144443","0.0-130.0","3PJUZCGDJ72BSAARTF0QBIWMPQL890","AU34T9OMHN4Z4","3PIOQ99R7Y8STPN46QFY0SD7JTFNU0","","612.3999999761581","img/food6.png","74","613.1999999880791","1","1","2","1","1,0.5,0,1,0.5,0,0.5,0,1","1,0.5,0,1,0.5,0,0.5,0,1","1","",""
"","html-keyboard-response","131","144745","0.0-131.0","3PJUZCGDJ72BSAARTF0QBIWMPQL890","AU34T9OMHN4Z4","3PIOQ99R7Y8STPN46QFY0SD7JTFNU0","","null","<img src=""img/food6.png"" style=""width:200px; border:14px solid green;"">","null","","","","","","","","","",""
"","image-keyboard-response","132","145074","0.0-132.0","3PJUZCGDJ72BSAARTF0QBIWMPQL890","AU34T9OMHN4Z4","3PIOQ99R7Y8STPN46QFY0SD7JTFNU0","","327.69999998807907","img/food6.png","74","328.69999998807907","1","1","2","1","1,0.5,0,1,0.5,0,0.5,0,1","1,0.5,0,1,0.5,0,0.5,0,1","1","",""
"","html-keyboard-response","133","145376","0.0-133.0","3PJUZCGDJ72BSAARTF0QBIWMPQL890","AU34T9OMHN4Z4","3PIOQ99R7Y8STPN46QFY0SD7JTFNU0","","null","<img src=""img/food6.png"" style=""width:200px; border:14px solid green;"">","null","","","","","","","","","",""
"","image-keyboard-response","134","145978","0.0-134.0","3PJUZCGDJ72BSAARTF0QBIWMPQL890","AU34T9OMHN4Z4","3PIOQ99R7Y8STPN46QFY0SD7JTFNU0","","600.6999999880791","img/food6.png","74","601.4000000357628","1","1","2","1","1,0.5,0,1,0.5,0,0.5,0,1","1,0.5,0,1,0.5,0,0.5,0,1","1","",""
"","html-keyboard-response","135","146280","0.0-135.0","3PJUZCGDJ72BSAARTF0QBIWMPQL890","AU34T9OMHN4Z4","3PIOQ99R7Y8STPN46QFY0SD7JTFNU0","","null","<img src=""img/food6.png"" style=""width:200px; border:14px solid green;"">","null","","","","","","","","","",""
"","image-keyboard-response","136","147067","0.0-136.0","3PJUZCGDJ72BSAARTF0QBIWMPQL890","AU34T9OMHN4Z4","3PIOQ99R7Y8STPN46QFY0SD7JTFNU0","","786.1999999880791","img/food1.png","76","786.6999999880791","3","1","3","1","1,0.5,0,1,0.5,0,0.5,0,1","1,0.5,0,1,0.5,0,0.5,0,1","1","",""
"","html-keyboard-response","137","147370","0.0-137.0","3PJUZCGDJ72BSAARTF0QBIWMPQL890","AU34T9OMHN4Z4","3PIOQ99R7Y8STPN46QFY0SD7JTFNU0","","null","<img src=""img/food1.png"" style=""width:200px; border:14px solid green;"">","null","","","","","","","","","",""
"","image-keyboard-response","138","147962","0.0-138.0","3PJUZCGDJ72BSAARTF0QBIWMPQL890","AU34T9OMHN4Z4","3PIOQ99R7Y8STPN46QFY0SD7JTFNU0","","591.3999999761581","img/food5.png","75","592.3999999761581","2","1","1","1","1,0.5,0,1,0.5,0,0.5,0,1","1,0.5,0,1,0.5,0,0.5,0,1","1","",""
"","html-keyboard-response","139","148264","0.0-139.0","3PJUZCGDJ72BSAARTF0QBIWMPQL890","AU34T9OMHN4Z4","3PIOQ99R7Y8STPN46QFY0SD7JTFNU0","","null","<img src=""img/food5.png"" style=""width:200px; border:14px solid green;"">","null","","","","","","","","","",""
"","image-keyboard-response","140","148674","0.0-140.0","3PJUZCGDJ72BSAARTF0QBIWMPQL890","AU34T9OMHN4Z4","3PIOQ99R7Y8STPN46QFY0SD7JTFNU0","","408.19999998807907","img/food5.png","75","409.10000002384186","2","1","1","1","1,0.5,0,1,0.5,0,0.5,0,1","1,0.5,0,1,0.5,0,0.5,0,1","1","",""
"","html-keyboard-response","141","148976","0.0-141.0","3PJUZCGDJ72BSAARTF0QBIWMPQL890","AU34T9OMHN4Z4","3PIOQ99R7Y8STPN46QFY0SD7JTFNU0","","null","<img src=""img/food5.png"" style=""width:200px; border:14px solid green;"">","null","","","","","","","","","",""
"","image-keyboard-response","142","149458","0.0-142.0","3PJUZCGDJ72BSAARTF0QBIWMPQL890","AU34T9OMHN4Z4","3PIOQ99R7Y8STPN46QFY0SD7JTFNU0","","480.89999997615814","img/food1.png","74","481.5","1","0","3","1","1,0.5,0,1,0.5,0,0.5,0,1","1,0.5,0,1,0.5,0,0.5,0,1","1","",""
"","html-keyboard-response","143","149760","0.0-143.0","3PJUZCGDJ72BSAARTF0QBIWMPQL890","AU34T9OMHN4Z4","3PIOQ99R7Y8STPN46QFY0SD7JTFNU0","","null","<img src=""img/food1.png"" style=""width:200px;border:14px solid red;"">","null","","","","","","","","","",""
"","image-keyboard-response","144","151218","0.0-144.0","3PJUZCGDJ72BSAARTF0QBIWMPQL890","AU34T9OMHN4Z4","3PIOQ99R7Y8STPN46QFY0SD7JTFNU0","","1457.1000000238419","img/food5.png","75","1457.800000011921","2","0","1","1","1,0.5,0,1,0.5,0,0.5,0,1","1,0.5,0,1,0.5,0,0.5,0,1","1","",""
"","html-keyboard-response","145","151521","0.0-145.0","3PJUZCGDJ72BSAARTF0QBIWMPQL890","AU34T9OMHN4Z4","3PIOQ99R7Y8STPN46QFY0SD7JTFNU0","","null","<img src=""img/food5.png"" style=""width:200px;border:14px solid red;"">","null","","","","","","","","","",""
"","image-keyboard-response","146","152276","0.0-146.0","3PJUZCGDJ72BSAARTF0QBIWMPQL890","AU34T9OMHN4Z4","3PIOQ99R7Y8STPN46QFY0SD7JTFNU0","","754.3000000119209","img/food1.png","76","755","3","1","3","1","1,0.5,0,1,0.5,0,0.5,0,1","1,0.5,0,1,0.5,0,0.5,0,1","1","",""
"","html-keyboard-response","147","152578","0.0-147.0","3PJUZCGDJ72BSAARTF0QBIWMPQL890","AU34T9OMHN4Z4","3PIOQ99R7Y8STPN46QFY0SD7JTFNU0","","null","<img src=""img/food1.png"" style=""width:200px; border:14px solid green;"">","null","","","","","","","","","",""
"","image-keyboard-response","148","153067","0.0-148.0","3PJUZCGDJ72BSAARTF0QBIWMPQL890","AU34T9OMHN4Z4","3PIOQ99R7Y8STPN46QFY0SD7JTFNU0","","488.5999999642372","img/food1.png","76","489.5","3","1","3","1","1,0.5,0,1,0.5,0,0.5,0,1","1,0.5,0,1,0.5,0,0.5,0,1","1","",""
"","html-keyboard-response","149","153370","0.0-149.0","3PJUZCGDJ72BSAARTF0QBIWMPQL890","AU34T9OMHN4Z4","3PIOQ99R7Y8STPN46QFY0SD7JTFNU0","","null","<img src=""img/food1.png"" style=""width:200px; border:14px solid green;"">","null","","","","","","","","","",""
"","image-keyboard-response","150","154115","0.0-150.0","3PJUZCGDJ72BSAARTF0QBIWMPQL890","AU34T9OMHN4Z4","3PIOQ99R7Y8STPN46QFY0SD7JTFNU0","","743.3999999761581","img/food1.png","76","745","3","1","3","1","1,0.5,0,1,0.5,0,0.5,0,1","1,0.5,0,1,0.5,0,0.5,0,1","1","",""
"","html-keyboard-response","151","154419","0.0-151.0","3PJUZCGDJ72BSAARTF0QBIWMPQL890","AU34T9OMHN4Z4","3PIOQ99R7Y8STPN46QFY0SD7JTFNU0","","null","<img src=""img/food1.png"" style=""width:200px; border:14px solid green;"">","null","","","","","","","","","",""
"","image-keyboard-response","152","155347","0.0-152.0","3PJUZCGDJ72BSAARTF0QBIWMPQL890","AU34T9OMHN4Z4","3PIOQ99R7Y8STPN46QFY0SD7JTFNU0","","926.3000000119209","img/food5.png","75","927.8000000119209","2","1","1","1","1,0.5,0,1,0.5,0,0.5,0,1","1,0.5,0,1,0.5,0,0.5,0,1","1","",""
"","html-keyboard-response","153","155648","0.0-153.0","3PJUZCGDJ72BSAARTF0QBIWMPQL890","AU34T9OMHN4Z4","3PIOQ99R7Y8STPN46QFY0SD7JTFNU0","","null","<img src=""img/food5.png"" style=""width:200px; border:14px solid green;"">","null","","","","","","","","","",""
"","image-keyboard-response","154","156402","0.0-154.0","3PJUZCGDJ72BSAARTF0QBIWMPQL890","AU34T9OMHN4Z4","3PIOQ99R7Y8STPN46QFY0SD7JTFNU0","","752.6999999880791","img/food1.png","76","753.4000000357628","3","1","3","1","1,0.5,0,1,0.5,0,0.5,0,1","1,0.5,0,1,0.5,0,0.5,0,1","1","",""
"","html-keyboard-response","155","156704","0.0-155.0","3PJUZCGDJ72BSAARTF0QBIWMPQL890","AU34T9OMHN4Z4","3PIOQ99R7Y8STPN46QFY0SD7JTFNU0","","null","<img src=""img/food1.png"" style=""width:200px; border:14px solid green;"">","null","","","","","","","","","",""
"","image-keyboard-response","156","157097","0.0-156.0","3PJUZCGDJ72BSAARTF0QBIWMPQL890","AU34T9OMHN4Z4","3PIOQ99R7Y8STPN46QFY0SD7JTFNU0","","392.0999999642372","img/food1.png","76","392.89999997615814","3","1","3","1","1,0.5,0,1,0.5,0,0.5,0,1","1,0.5,0,1,0.5,0,0.5,0,1","1","",""
"","html-keyboard-response","157","157399","0.0-157.0","3PJUZCGDJ72BSAARTF0QBIWMPQL890","AU34T9OMHN4Z4","3PIOQ99R7Y8STPN46QFY0SD7JTFNU0","","null","<img src=""img/food1.png"" style=""width:200px; border:14px solid green;"">","null","","","","","","","","","",""
"","image-keyboard-response","158","157682","0.0-158.0","3PJUZCGDJ72BSAARTF0QBIWMPQL890","AU34T9OMHN4Z4","3PIOQ99R7Y8STPN46QFY0SD7JTFNU0","","282.80000001192093","img/food1.png","76","283.30000001192093","3","1","3","1","1,0.5,0,1,0.5,0,0.5,0,1","1,0.5,0,1,0.5,0,0.5,0,1","1","",""
"","html-keyboard-response","159","157984","0.0-159.0","3PJUZCGDJ72BSAARTF0QBIWMPQL890","AU34T9OMHN4Z4","3PIOQ99R7Y8STPN46QFY0SD7JTFNU0","","null","<img src=""img/food1.png"" style=""width:200px; border:14px solid green;"">","null","","","","","","","","","",""
"","image-keyboard-response","160","158602","0.0-160.0","3PJUZCGDJ72BSAARTF0QBIWMPQL890","AU34T9OMHN4Z4","3PIOQ99R7Y8STPN46QFY0SD7JTFNU0","","617","img/food6.png","74","617.8999999761581","1","1","2","1","1,0.5,0,1,0.5,0,0.5,0,1","1,0.5,0,1,0.5,0,0.5,0,1","1","",""
"","html-keyboard-response","161","158905","0.0-161.0","3PJUZCGDJ72BSAARTF0QBIWMPQL890","AU34T9OMHN4Z4","3PIOQ99R7Y8STPN46QFY0SD7JTFNU0","","null","<img src=""img/food6.png"" style=""width:200px; border:14px solid green;"">","null","","","","","","","","","",""
"","image-keyboard-response","162","160426","0.0-162.0","3PJUZCGDJ72BSAARTF0QBIWMPQL890","AU34T9OMHN4Z4","3PIOQ99R7Y8STPN46QFY0SD7JTFNU0","","1520.8999999761581","img/food5.png","75","1521.5","2","1","1","1","1,0.5,0,1,0.5,0,0.5,0,1","1,0.5,0,1,0.5,0,0.5,0,1","1","",""
"","html-keyboard-response","163","160728","0.0-163.0","3PJUZCGDJ72BSAARTF0QBIWMPQL890","AU34T9OMHN4Z4","3PIOQ99R7Y8STPN46QFY0SD7JTFNU0","","null","<img src=""img/food5.png"" style=""width:200px; border:14px solid green;"">","null","","","","","","","","","",""
"","image-keyboard-response","164","162474","0.0-164.0","3PJUZCGDJ72BSAARTF0QBIWMPQL890","AU34T9OMHN4Z4","3PIOQ99R7Y8STPN46QFY0SD7JTFNU0","","1745","img/food6.png","74","1746","1","1","2","1","1,0.5,0,1,0.5,0,0.5,0,1","1,0.5,0,1,0.5,0,0.5,0,1","1","",""
"","html-keyboard-response","165","162775","0.0-165.0","3PJUZCGDJ72BSAARTF0QBIWMPQL890","AU34T9OMHN4Z4","3PIOQ99R7Y8STPN46QFY0SD7JTFNU0","","null","<img src=""img/food6.png"" style=""width:200px; border:14px solid green;"">","null","","","","","","","","","",""
"","image-keyboard-response","166","163345","0.0-166.0","3PJUZCGDJ72BSAARTF0QBIWMPQL890","AU34T9OMHN4Z4","3PIOQ99R7Y8STPN46QFY0SD7JTFNU0","","568.6999999880791","img/food6.png","74","569.5","1","1","2","1","1,0.5,0,1,0.5,0,0.5,0,1","1,0.5,0,1,0.5,0,0.5,0,1","1","",""
"","html-keyboard-response","167","163647","0.0-167.0","3PJUZCGDJ72BSAARTF0QBIWMPQL890","AU34T9OMHN4Z4","3PIOQ99R7Y8STPN46QFY0SD7JTFNU0","","null","<img src=""img/food6.png"" style=""width:200px; border:14px solid green;"">","null","","","","","","","","","",""
"","image-keyboard-response","168","164355","0.0-168.0","3PJUZCGDJ72BSAARTF0QBIWMPQL890","AU34T9OMHN4Z4","3PIOQ99R7Y8STPN46QFY0SD7JTFNU0","","706.6000000238419","img/food1.png","76","707.3000000119209","3","1","3","1","1,0.5,0,1,0.5,0,0.5,0,1","1,0.5,0,1,0.5,0,0.5,0,1","1","",""
"","html-keyboard-response","169","164657","0.0-169.0","3PJUZCGDJ72BSAARTF0QBIWMPQL890","AU34T9OMHN4Z4","3PIOQ99R7Y8STPN46QFY0SD7JTFNU0","","null","<img src=""img/food1.png"" style=""width:200px; border:14px solid green;"">","null","","","","","","","","","",""
"","image-keyboard-response","170","165053","0.0-170.0","3PJUZCGDJ72BSAARTF0QBIWMPQL890","AU34T9OMHN4Z4","3PIOQ99R7Y8STPN46QFY0SD7JTFNU0","","394.5","img/food1.png","76","395.7000000476837","3","1","3","1","1,0.5,0,1,0.5,0,0.5,0,1","1,0.5,0,1,0.5,0,0.5,0,1","1","",""
"","html-keyboard-response","171","165356","0.0-171.0","3PJUZCGDJ72BSAARTF0QBIWMPQL890","AU34T9OMHN4Z4","3PIOQ99R7Y8STPN46QFY0SD7JTFNU0","","null","<img src=""img/food1.png"" style=""width:200px; border:14px solid green;"">","null","","","","","","","","","",""
"","image-keyboard-response","172","165825","0.0-172.0","3PJUZCGDJ72BSAARTF0QBIWMPQL890","AU34T9OMHN4Z4","3PIOQ99R7Y8STPN46QFY0SD7JTFNU0","","467.5","img/food5.png","75","468.39999997615814","2","0","1","1","1,0.5,0,1,0.5,0,0.5,0,1","1,0.5,0,1,0.5,0,0.5,0,1","1","",""
"","html-keyboard-response","173","166128","0.0-173.0","3PJUZCGDJ72BSAARTF0QBIWMPQL890","AU34T9OMHN4Z4","3PIOQ99R7Y8STPN46QFY0SD7JTFNU0","","null","<img src=""img/food5.png"" style=""width:200px;border:14px solid red;"">","null","","","","","","","","","",""
"","image-keyboard-response","174","166657","0.0-174.0","3PJUZCGDJ72BSAARTF0QBIWMPQL890","AU34T9OMHN4Z4","3PIOQ99R7Y8STPN46QFY0SD7JTFNU0","","528.1000000238419","img/food5.png","75","528.8000000119209","2","1","1","1","1,0.5,0,1,0.5,0,0.5,0,1","1,0.5,0,1,0.5,0,0.5,0,1","1","",""
"","html-keyboard-response","175","166958","0.0-175.0","3PJUZCGDJ72BSAARTF0QBIWMPQL890","AU34T9OMHN4Z4","3PIOQ99R7Y8STPN46QFY0SD7JTFNU0","","null","<img src=""img/food5.png"" style=""width:200px; border:14px solid green;"">","null","","","","","","","","","",""
"","image-keyboard-response","176","167633","0.0-176.0","3PJUZCGDJ72BSAARTF0QBIWMPQL890","AU34T9OMHN4Z4","3PIOQ99R7Y8STPN46QFY0SD7JTFNU0","","673.1999999880791","img/food1.png","76","674.3000000119209","3","1","3","1","1,0.5,0,1,0.5,0,0.5,0,1","1,0.5,0,1,0.5,0,0.5,0,1","1","",""
"","html-keyboard-response","177","167934","0.0-177.0","3PJUZCGDJ72BSAARTF0QBIWMPQL890","AU34T9OMHN4Z4","3PIOQ99R7Y8STPN46QFY0SD7JTFNU0","","null","<img src=""img/food1.png"" style=""width:200px; border:14px solid green;"">","null","","","","","","","","","",""
"","image-keyboard-response","178","168593","0.0-178.0","3PJUZCGDJ72BSAARTF0QBIWMPQL890","AU34T9OMHN4Z4","3PIOQ99R7Y8STPN46QFY0SD7JTFNU0","","657.6000000238419","img/food5.png","75","658.3999999761581","2","0","1","1","1,0.5,0,1,0.5,0,0.5,0,1","1,0.5,0,1,0.5,0,0.5,0,1","1","",""
"","html-keyboard-response","179","168894","0.0-179.0","3PJUZCGDJ72BSAARTF0QBIWMPQL890","AU34T9OMHN4Z4","3PIOQ99R7Y8STPN46QFY0SD7JTFNU0","","null","<img src=""img/food5.png"" style=""width:200px;border:14px solid red;"">","null","","","","","","","","","",""
"","image-keyboard-response","180","169665","0.0-180.0","3PJUZCGDJ72BSAARTF0QBIWMPQL890","AU34T9OMHN4Z4","3PIOQ99R7Y8STPN46QFY0SD7JTFNU0","","769.4000000357628","img/food5.png","75","770.0999999642372","2","1","1","1","1,0.5,0,1,0.5,0,0.5,0,1","1,0.5,0,1,0.5,0,0.5,0,1","1","",""
"","html-keyboard-response","181","169966","0.0-181.0","3PJUZCGDJ72BSAARTF0QBIWMPQL890","AU34T9OMHN4Z4","3PIOQ99R7Y8STPN46QFY0SD7JTFNU0","","null","<img src=""img/food5.png"" style=""width:200px; border:14px solid green;"">","null","","","","","","","","","",""
"","html-keyboard-response","182","172673","0.0-182.0","3PJUZCGDJ72BSAARTF0QBIWMPQL890","AU34T9OMHN4Z4","3PIOQ99R7Y8STPN46QFY0SD7JTFNU0","","","","","","","","","","","","","",""
"","instructions","183","184698","0.0-183.0","3PJUZCGDJ72BSAARTF0QBIWMPQL890","AU34T9OMHN4Z4","3PIOQ99R7Y8STPN46QFY0SD7JTFNU0","[{""page_index"":0,""viewing_time"":10903.199999988079},{""page_index"":1,""viewing_time"":1119.800000011921}]","12023.300000011921","","","","","","","","","","","",""
"","image-keyboard-response","184","185033","0.0-184.0","3PJUZCGDJ72BSAARTF0QBIWMPQL890","AU34T9OMHN4Z4","3PIOQ99R7Y8STPN46QFY0SD7JTFNU0","","334","img/food2.png","74","334.80000001192093","1","0","3","2","1,0.5,0,1,0.5,0,0.5,0,1","0.5,0,1,0.5,0,1,0,1,0.5","2","false",""
"","html-keyboard-response","185","185335","0.0-185.0","3PJUZCGDJ72BSAARTF0QBIWMPQL890","AU34T9OMHN4Z4","3PIOQ99R7Y8STPN46QFY0SD7JTFNU0","","null","<img src=""img/food2.png"" style=""width:200px;border:14px solid red;"">","null","","","","","","","","","",""
"","image-keyboard-response","186","185689","0.0-187.0","3PJUZCGDJ72BSAARTF0QBIWMPQL890","AU34T9OMHN4Z4","3PIOQ99R7Y8STPN46QFY0SD7JTFNU0","","352.9000000357628","img/food2.png","74","353.80000001192093","1","0","3","2","1,0.5,0,1,0.5,0,0.5,0,1","0.5,0,1,0.5,0,1,0,1,0.5","2","false",""
"","html-keyboard-response","187","185992","0.0-188.0","3PJUZCGDJ72BSAARTF0QBIWMPQL890","AU34T9OMHN4Z4","3PIOQ99R7Y8STPN46QFY0SD7JTFNU0","","null","<img src=""img/food2.png"" style=""width:200px;border:14px solid red;"">","null","","","","","","","","","",""
"","image-keyboard-response","188","186521","0.0-190.0","3PJUZCGDJ72BSAARTF0QBIWMPQL890","AU34T9OMHN4Z4","3PIOQ99R7Y8STPN46QFY0SD7JTFNU0","","527.3000000119209","img/food4.png","75","528.0999999642372","2","0","1","2","1,0.5,0,1,0.5,0,0.5,0,1","0.5,0,1,0.5,0,1,0,1,0.5","2","false",""
"","html-keyboard-response","189","186823","0.0-191.0","3PJUZCGDJ72BSAARTF0QBIWMPQL890","AU34T9OMHN4Z4","3PIOQ99R7Y8STPN46QFY0SD7JTFNU0","","null","<img src=""img/food4.png"" style=""width:200px;border:14px solid red;"">","null","","","","","","","","","",""
"","image-keyboard-response","190","187257","0.0-193.0","3PJUZCGDJ72BSAARTF0QBIWMPQL890","AU34T9OMHN4Z4","3PIOQ99R7Y8STPN46QFY0SD7JTFNU0","","432.5","img/food2.png","74","433.19999998807907","1","0","3","2","1,0.5,0,1,0.5,0,0.5,0,1","0.5,0,1,0.5,0,1,0,1,0.5","2","false",""
"","html-keyboard-response","191","187559","0.0-194.0","3PJUZCGDJ72BSAARTF0QBIWMPQL890","AU34T9OMHN4Z4","3PIOQ99R7Y8STPN46QFY0SD7JTFNU0","","null","<img src=""img/food2.png"" style=""width:200px;border:14px solid red;"">","null","","","","","","","","","",""
"","image-keyboard-response","192","188017","0.0-196.0","3PJUZCGDJ72BSAARTF0QBIWMPQL890","AU34T9OMHN4Z4","3PIOQ99R7Y8STPN46QFY0SD7JTFNU0","","455.69999998807907","img/food4.png","75","457.19999998807907","2","0","1","2","1,0.5,0,1,0.5,0,0.5,0,1","0.5,0,1,0.5,0,1,0,1,0.5","2","false",""
"","html-keyboard-response","193","188320","0.0-197.0","3PJUZCGDJ72BSAARTF0QBIWMPQL890","AU34T9OMHN4Z4","3PIOQ99R7Y8STPN46QFY0SD7JTFNU0","","null","<img src=""img/food4.png"" style=""width:200px;border:14px solid red;"">","null","","","","","","","","","",""
"","image-keyboard-response","194","188729","0.0-199.0","3PJUZCGDJ72BSAARTF0QBIWMPQL890","AU34T9OMHN4Z4","3PIOQ99R7Y8STPN46QFY0SD7JTFNU0","","407.89999997615814","img/food4.png","75","408.80000001192093","2","0","1","2","1,0.5,0,1,0.5,0,0.5,0,1","0.5,0,1,0.5,0,1,0,1,0.5","2","false",""
"","html-keyboard-response","195","189032","0.0-200.0","3PJUZCGDJ72BSAARTF0QBIWMPQL890","AU34T9OMHN4Z4","3PIOQ99R7Y8STPN46QFY0SD7JTFNU0","","null","<img src=""img/food4.png"" style=""width:200px;border:14px solid red;"">","null","","","","","","","","","",""
"","image-keyboard-response","196","189473","0.0-202.0","3PJUZCGDJ72BSAARTF0QBIWMPQL890","AU34T9OMHN4Z4","3PIOQ99R7Y8STPN46QFY0SD7JTFNU0","","439.5","img/food4.png","76","440.4000000357628","3","1","1","2","1,0.5,0,1,0.5,0,0.5,0,1","0.5,0,1,0.5,0,1,0,1,0.5","2","false",""
"","html-keyboard-response","197","189776","0.0-203.0","3PJUZCGDJ72BSAARTF0QBIWMPQL890","AU34T9OMHN4Z4","3PIOQ99R7Y8STPN46QFY0SD7JTFNU0","","null","<img src=""img/food4.png"" style=""width:200px; border:14px solid green;"">","null","","","","","","","","","",""
"","image-keyboard-response","198","190592","0.0-205.0","3PJUZCGDJ72BSAARTF0QBIWMPQL890","AU34T9OMHN4Z4","3PIOQ99R7Y8STPN46QFY0SD7JTFNU0","","815.3999999761581","img/food3.png","74","816.5","1","0","2","2","1,0.5,0,1,0.5,0,0.5,0,1","0.5,0,1,0.5,0,1,0,1,0.5","2","false",""
"","html-keyboard-response","199","190894","0.0-206.0","3PJUZCGDJ72BSAARTF0QBIWMPQL890","AU34T9OMHN4Z4","3PIOQ99R7Y8STPN46QFY0SD7JTFNU0","","null","<img src=""img/food3.png"" style=""width:200px;border:14px solid red;"">","null","","","","","","","","","",""
"","image-keyboard-response","200","191376","0.0-208.0","3PJUZCGDJ72BSAARTF0QBIWMPQL890","AU34T9OMHN4Z4","3PIOQ99R7Y8STPN46QFY0SD7JTFNU0","","481.5","img/food4.png","75","482.0999999642372","2","0","1","2","1,0.5,0,1,0.5,0,0.5,0,1","0.5,0,1,0.5,0,1,0,1,0.5","2","false",""
"","html-keyboard-response","201","191678","0.0-209.0","3PJUZCGDJ72BSAARTF0QBIWMPQL890","AU34T9OMHN4Z4","3PIOQ99R7Y8STPN46QFY0SD7JTFNU0","","null","<img src=""img/food4.png"" style=""width:200px;border:14px solid red;"">","null","","","","","","","","","",""
"","image-keyboard-response","202","192393","0.0-211.0","3PJUZCGDJ72BSAARTF0QBIWMPQL890","AU34T9OMHN4Z4","3PIOQ99R7Y8STPN46QFY0SD7JTFNU0","","713.2999999523163","img/food2.png","75","713.9000000357628","2","1","3","2","1,0.5,0,1,0.5,0,0.5,0,1","0.5,0,1,0.5,0,1,0,1,0.5","2","false",""
"","html-keyboard-response","203","192695","0.0-212.0","3PJUZCGDJ72BSAARTF0QBIWMPQL890","AU34T9OMHN4Z4","3PIOQ99R7Y8STPN46QFY0SD7JTFNU0","","null","<img src=""img/food2.png"" style=""width:200px; border:14px solid green;"">","null","","","","","","","","","",""
"","image-keyboard-response","204","193128","0.0-214.0","3PJUZCGDJ72BSAARTF0QBIWMPQL890","AU34T9OMHN4Z4","3PIOQ99R7Y8STPN46QFY0SD7JTFNU0","","432.30000001192093","img/food2.png","75","433.4000000357628","2","1","3","2","1,0.5,0,1,0.5,0,0.5,0,1","0.5,0,1,0.5,0,1,0,1,0.5","2","false",""
"","html-keyboard-response","205","193431","0.0-215.0","3PJUZCGDJ72BSAARTF0QBIWMPQL890","AU34T9OMHN4Z4","3PIOQ99R7Y8STPN46QFY0SD7JTFNU0","","null","<img src=""img/food2.png"" style=""width:200px; border:14px solid green;"">","null","","","","","","","","","",""
"","image-keyboard-response","206","194241","0.0-217.0","3PJUZCGDJ72BSAARTF0QBIWMPQL890","AU34T9OMHN4Z4","3PIOQ99R7Y8STPN46QFY0SD7JTFNU0","","808.3999999761581","img/food3.png","76","809.2999999523163","3","1","2","2","1,0.5,0,1,0.5,0,0.5,0,1","0.5,0,1,0.5,0,1,0,1,0.5","2","false",""
"","html-keyboard-response","207","194544","0.0-218.0","3PJUZCGDJ72BSAARTF0QBIWMPQL890","AU34T9OMHN4Z4","3PIOQ99R7Y8STPN46QFY0SD7JTFNU0","","null","<img src=""img/food3.png"" style=""width:200px; border:14px solid green;"">","null","","","","","","","","","",""
"","image-keyboard-response","208","194881","0.0-220.0","3PJUZCGDJ72BSAARTF0QBIWMPQL890","AU34T9OMHN4Z4","3PIOQ99R7Y8STPN46QFY0SD7JTFNU0","","336.19999998807907","img/food3.png","76","336.80000001192093","3","1","2","2","1,0.5,0,1,0.5,0,0.5,0,1","0.5,0,1,0.5,0,1,0,1,0.5","2","false",""
"","html-keyboard-response","209","195183","0.0-221.0","3PJUZCGDJ72BSAARTF0QBIWMPQL890","AU34T9OMHN4Z4","3PIOQ99R7Y8STPN46QFY0SD7JTFNU0","","null","<img src=""img/food3.png"" style=""width:200px; border:14px solid green;"">","null","","","","","","","","","",""
"","image-keyboard-response","210","195744","0.0-223.0","3PJUZCGDJ72BSAARTF0QBIWMPQL890","AU34T9OMHN4Z4","3PIOQ99R7Y8STPN46QFY0SD7JTFNU0","","560.7000000476837","img/food2.png","74","561.3999999761581","1","0","3","2","1,0.5,0,1,0.5,0,0.5,0,1","0.5,0,1,0.5,0,1,0,1,0.5","2","false",""
"","html-keyboard-response","211","196046","0.0-224.0","3PJUZCGDJ72BSAARTF0QBIWMPQL890","AU34T9OMHN4Z4","3PIOQ99R7Y8STPN46QFY0SD7JTFNU0","","null","<img src=""img/food2.png"" style=""width:200px;border:14px solid red;"">","null","","","","","","","","","",""
"","image-keyboard-response","212","196744","0.0-226.0","3PJUZCGDJ72BSAARTF0QBIWMPQL890","AU34T9OMHN4Z4","3PIOQ99R7Y8STPN46QFY0SD7JTFNU0","","697.1000000238419","img/food4.png","74","697.8999999761581","1","0","1","2","1,0.5,0,1,0.5,0,0.5,0,1","0.5,0,1,0.5,0,1,0,1,0.5","2","false",""
"","html-keyboard-response","213","197047","0.0-227.0","3PJUZCGDJ72BSAARTF0QBIWMPQL890","AU34T9OMHN4Z4","3PIOQ99R7Y8STPN46QFY0SD7JTFNU0","","null","<img src=""img/food4.png"" style=""width:200px;border:14px solid red;"">","null","","","","","","","","","",""
"","image-keyboard-response","214","197680","0.0-229.0","3PJUZCGDJ72BSAARTF0QBIWMPQL890","AU34T9OMHN4Z4","3PIOQ99R7Y8STPN46QFY0SD7JTFNU0","","632.8000000119209","img/food2.png","75","633.5","2","1","3","2","1,0.5,0,1,0.5,0,0.5,0,1","0.5,0,1,0.5,0,1,0,1,0.5","2","false",""
"","html-keyboard-response","215","197982","0.0-230.0","3PJUZCGDJ72BSAARTF0QBIWMPQL890","AU34T9OMHN4Z4","3PIOQ99R7Y8STPN46QFY0SD7JTFNU0","","null","<img src=""img/food2.png"" style=""width:200px; border:14px solid green;"">","null","","","","","","","","","",""
"","image-keyboard-response","216","198808","0.0-232.0","3PJUZCGDJ72BSAARTF0QBIWMPQL890","AU34T9OMHN4Z4","3PIOQ99R7Y8STPN46QFY0SD7JTFNU0","","825.1000000238419","img/food4.png","74","825.6999999880791","1","0","1","2","1,0.5,0,1,0.5,0,0.5,0,1","0.5,0,1,0.5,0,1,0,1,0.5","2","false",""
"","html-keyboard-response","217","199111","0.0-233.0","3PJUZCGDJ72BSAARTF0QBIWMPQL890","AU34T9OMHN4Z4","3PIOQ99R7Y8STPN46QFY0SD7JTFNU0","","null","<img src=""img/food4.png"" style=""width:200px;border:14px solid red;"">","null","","","","","","","","","",""
"","image-keyboard-response","218","199776","0.0-235.0","3PJUZCGDJ72BSAARTF0QBIWMPQL890","AU34T9OMHN4Z4","3PIOQ99R7Y8STPN46QFY0SD7JTFNU0","","664.7000000476837","img/food3.png","75","665.3999999761581","2","0","2","2","1,0.5,0,1,0.5,0,0.5,0,1","0.5,0,1,0.5,0,1,0,1,0.5","2","false",""
"","html-keyboard-response","219","200079","0.0-236.0","3PJUZCGDJ72BSAARTF0QBIWMPQL890","AU34T9OMHN4Z4","3PIOQ99R7Y8STPN46QFY0SD7JTFNU0","","null","<img src=""img/food3.png"" style=""width:200px;border:14px solid red;"">","null","","","","","","","","","",""
"","image-keyboard-response","220","200696","0.0-238.0","3PJUZCGDJ72BSAARTF0QBIWMPQL890","AU34T9OMHN4Z4","3PIOQ99R7Y8STPN46QFY0SD7JTFNU0","","616.4000000357628","img/food2.png","76","616.8999999761581","3","1","3","2","1,0.5,0,1,0.5,0,0.5,0,1","0.5,0,1,0.5,0,1,0,1,0.5","2","false",""
"","html-keyboard-response","221","200999","0.0-239.0","3PJUZCGDJ72BSAARTF0QBIWMPQL890","AU34T9OMHN4Z4","3PIOQ99R7Y8STPN46QFY0SD7JTFNU0","","null","<img src=""img/food2.png"" style=""width:200px; border:14px solid green;"">","null","","","","","","","","","",""
"","image-keyboard-response","222","201744","0.0-241.0","3PJUZCGDJ72BSAARTF0QBIWMPQL890","AU34T9OMHN4Z4","3PIOQ99R7Y8STPN46QFY0SD7JTFNU0","","744.1999999880791","img/food3.png","75","745","2","0","2","2","1,0.5,0,1,0.5,0,0.5,0,1","0.5,0,1,0.5,0,1,0,1,0.5","2","false",""
"","html-keyboard-response","223","202046","0.0-242.0","3PJUZCGDJ72BSAARTF0QBIWMPQL890","AU34T9OMHN4Z4","3PIOQ99R7Y8STPN46QFY0SD7JTFNU0","","null","<img src=""img/food3.png"" style=""width:200px;border:14px solid red;"">","null","","","","","","","","","",""
"","image-keyboard-response","224","202304","0.0-244.0","3PJUZCGDJ72BSAARTF0QBIWMPQL890","AU34T9OMHN4Z4","3PIOQ99R7Y8STPN46QFY0SD7JTFNU0","","256.9000000357628","img/food4.png","76","258","3","1","1","2","1,0.5,0,1,0.5,0,0.5,0,1","0.5,0,1,0.5,0,1,0,1,0.5","2","false",""
"","html-keyboard-response","225","202607","0.0-245.0","3PJUZCGDJ72BSAARTF0QBIWMPQL890","AU34T9OMHN4Z4","3PIOQ99R7Y8STPN46QFY0SD7JTFNU0","","null","<img src=""img/food4.png"" style=""width:200px; border:14px solid green;"">","null","","","","","","","","","",""
"","image-keyboard-response","226","203088","0.0-247.0","3PJUZCGDJ72BSAARTF0QBIWMPQL890","AU34T9OMHN4Z4","3PIOQ99R7Y8STPN46QFY0SD7JTFNU0","","480.10000002384186","img/food4.png","76","481","3","1","1","2","1,0.5,0,1,0.5,0,0.5,0,1","0.5,0,1,0.5,0,1,0,1,0.5","2","false",""
"","html-keyboard-response","227","203390","0.0-248.0","3PJUZCGDJ72BSAARTF0QBIWMPQL890","AU34T9OMHN4Z4","3PIOQ99R7Y8STPN46QFY0SD7JTFNU0","","null","<img src=""img/food4.png"" style=""width:200px; border:14px solid green;"">","null","","","","","","","","","",""
"","image-keyboard-response","228","203745","0.0-250.0","3PJUZCGDJ72BSAARTF0QBIWMPQL890","AU34T9OMHN4Z4","3PIOQ99R7Y8STPN46QFY0SD7JTFNU0","","353.69999998807907","img/food4.png","76","354.30000001192093","3","1","1","2","1,0.5,0,1,0.5,0,0.5,0,1","0.5,0,1,0.5,0,1,0,1,0.5","2","false",""
"","html-keyboard-response","229","204047","0.0-251.0","3PJUZCGDJ72BSAARTF0QBIWMPQL890","AU34T9OMHN4Z4","3PIOQ99R7Y8STPN46QFY0SD7JTFNU0","","null","<img src=""img/food4.png"" style=""width:200px; border:14px solid green;"">","null","","","","","","","","","",""
"","image-keyboard-response","230","204681","0.0-253.0","3PJUZCGDJ72BSAARTF0QBIWMPQL890","AU34T9OMHN4Z4","3PIOQ99R7Y8STPN46QFY0SD7JTFNU0","","633.1000000238419","img/food2.png","75","633.8000000119209","2","1","3","2","1,0.5,0,1,0.5,0,0.5,0,1","0.5,0,1,0.5,0,1,0,1,0.5","2","false",""
"","html-keyboard-response","231","204983","0.0-254.0","3PJUZCGDJ72BSAARTF0QBIWMPQL890","AU34T9OMHN4Z4","3PIOQ99R7Y8STPN46QFY0SD7JTFNU0","","null","<img src=""img/food2.png"" style=""width:200px; border:14px solid green;"">","null","","","","","","","","","",""
"","image-keyboard-response","232","205400","0.0-256.0","3PJUZCGDJ72BSAARTF0QBIWMPQL890","AU34T9OMHN4Z4","3PIOQ99R7Y8STPN46QFY0SD7JTFNU0","","415","img/food4.png","75","416.30000001192093","2","0","1","2","1,0.5,0,1,0.5,0,0.5,0,1","0.5,0,1,0.5,0,1,0,1,0.5","2","false",""
"","html-keyboard-response","233","205703","0.0-257.0","3PJUZCGDJ72BSAARTF0QBIWMPQL890","AU34T9OMHN4Z4","3PIOQ99R7Y8STPN46QFY0SD7JTFNU0","","null","<img src=""img/food4.png"" style=""width:200px;border:14px solid red;"">","null","","","","","","","","","",""
"","image-keyboard-response","234","206416","0.0-259.0","3PJUZCGDJ72BSAARTF0QBIWMPQL890","AU34T9OMHN4Z4","3PIOQ99R7Y8STPN46QFY0SD7JTFNU0","","711.5","img/food4.png","76","712.4000000357628","3","1","1","2","1,0.5,0,1,0.5,0,0.5,0,1","0.5,0,1,0.5,0,1,0,1,0.5","2","false",""
"","html-keyboard-response","235","206718","0.0-260.0","3PJUZCGDJ72BSAARTF0QBIWMPQL890","AU34T9OMHN4Z4","3PIOQ99R7Y8STPN46QFY0SD7JTFNU0","","null","<img src=""img/food4.png"" style=""width:200px; border:14px solid green;"">","null","","","","","","","","","",""
"","image-keyboard-response","236","207248","0.0-262.0","3PJUZCGDJ72BSAARTF0QBIWMPQL890","AU34T9OMHN4Z4","3PIOQ99R7Y8STPN46QFY0SD7JTFNU0","","528.5","img/food2.png","75","529.5","2","1","3","2","1,0.5,0,1,0.5,0,0.5,0,1","0.5,0,1,0.5,0,1,0,1,0.5","2","false",""
"","html-keyboard-response","237","207551","0.0-263.0","3PJUZCGDJ72BSAARTF0QBIWMPQL890","AU34T9OMHN4Z4","3PIOQ99R7Y8STPN46QFY0SD7JTFNU0","","null","<img src=""img/food2.png"" style=""width:200px; border:14px solid green;"">","null","","","","","","","","","",""
"","image-keyboard-response","238","207928","0.0-265.0","3PJUZCGDJ72BSAARTF0QBIWMPQL890","AU34T9OMHN4Z4","3PIOQ99R7Y8STPN46QFY0SD7JTFNU0","","376","img/food2.png","75","377.19999998807907","2","1","3","2","1,0.5,0,1,0.5,0,0.5,0,1","0.5,0,1,0.5,0,1,0,1,0.5","2","false",""
"","html-keyboard-response","239","208231","0.0-266.0","3PJUZCGDJ72BSAARTF0QBIWMPQL890","AU34T9OMHN4Z4","3PIOQ99R7Y8STPN46QFY0SD7JTFNU0","","null","<img src=""img/food2.png"" style=""width:200px; border:14px solid green;"">","null","","","","","","","","","",""
"","image-keyboard-response","240","208904","0.0-268.0","3PJUZCGDJ72BSAARTF0QBIWMPQL890","AU34T9OMHN4Z4","3PIOQ99R7Y8STPN46QFY0SD7JTFNU0","","672.3000000119209","img/food3.png","74","673.1000000238419","1","1","2","2","1,0.5,0,1,0.5,0,0.5,0,1","0.5,0,1,0.5,0,1,0,1,0.5","2","false",""
"","html-keyboard-response","241","209206","0.0-269.0","3PJUZCGDJ72BSAARTF0QBIWMPQL890","AU34T9OMHN4Z4","3PIOQ99R7Y8STPN46QFY0SD7JTFNU0","","null","<img src=""img/food3.png"" style=""width:200px; border:14px solid green;"">","null","","","","","","","","","",""
"","image-keyboard-response","242","209680","0.0-271.0","3PJUZCGDJ72BSAARTF0QBIWMPQL890","AU34T9OMHN4Z4","3PIOQ99R7Y8STPN46QFY0SD7JTFNU0","","473","img/food3.png","74","473.5999999642372","1","1","2","2","1,0.5,0,1,0.5,0,0.5,0,1","0.5,0,1,0.5,0,1,0,1,0.5","2","false",""
"","html-keyboard-response","243","209982","0.0-272.0","3PJUZCGDJ72BSAARTF0QBIWMPQL890","AU34T9OMHN4Z4","3PIOQ99R7Y8STPN46QFY0SD7JTFNU0","","null","<img src=""img/food3.png"" style=""width:200px; border:14px solid green;"">","null","","","","","","","","","",""
"","image-keyboard-response","244","210784","0.0-274.0","3PJUZCGDJ72BSAARTF0QBIWMPQL890","AU34T9OMHN4Z4","3PIOQ99R7Y8STPN46QFY0SD7JTFNU0","","800.7999999523163","img/food4.png","76","801.5999999642372","3","1","1","2","1,0.5,0,1,0.5,0,0.5,0,1","0.5,0,1,0.5,0,1,0,1,0.5","2","false",""
"","html-keyboard-response","245","211086","0.0-275.0","3PJUZCGDJ72BSAARTF0QBIWMPQL890","AU34T9OMHN4Z4","3PIOQ99R7Y8STPN46QFY0SD7JTFNU0","","null","<img src=""img/food4.png"" style=""width:200px; border:14px solid green;"">","null","","","","","","","","","",""
"","image-keyboard-response","246","212048","0.0-277.0","3PJUZCGDJ72BSAARTF0QBIWMPQL890","AU34T9OMHN4Z4","3PIOQ99R7Y8STPN46QFY0SD7JTFNU0","","960.8999999761581","img/food2.png","75","961.5999999642372","2","1","3","2","1,0.5,0,1,0.5,0,0.5,0,1","0.5,0,1,0.5,0,1,0,1,0.5","2","false",""
"","html-keyboard-response","247","212349","0.0-278.0","3PJUZCGDJ72BSAARTF0QBIWMPQL890","AU34T9OMHN4Z4","3PIOQ99R7Y8STPN46QFY0SD7JTFNU0","","null","<img src=""img/food2.png"" style=""width:200px; border:14px solid green;"">","null","","","","","","","","","",""
"","image-keyboard-response","248","212631","0.0-280.0","3PJUZCGDJ72BSAARTF0QBIWMPQL890","AU34T9OMHN4Z4","3PIOQ99R7Y8STPN46QFY0SD7JTFNU0","","281.5","img/food3.png","75","282.30000001192093","2","0","2","2","1,0.5,0,1,0.5,0,0.5,0,1","0.5,0,1,0.5,0,1,0,1,0.5","2","false",""
"","html-keyboard-response","249","212934","0.0-281.0","3PJUZCGDJ72BSAARTF0QBIWMPQL890","AU34T9OMHN4Z4","3PIOQ99R7Y8STPN46QFY0SD7JTFNU0","","null","<img src=""img/food3.png"" style=""width:200px;border:14px solid red;"">","null","","","","","","","","","",""
"","image-keyboard-response","250","213712","0.0-283.0","3PJUZCGDJ72BSAARTF0QBIWMPQL890","AU34T9OMHN4Z4","3PIOQ99R7Y8STPN46QFY0SD7JTFNU0","","776.8999999761581","img/food2.png","75","777.8000000119209","2","1","3","2","1,0.5,0,1,0.5,0,0.5,0,1","0.5,0,1,0.5,0,1,0,1,0.5","2","false",""
"","html-keyboard-response","251","214014","0.0-284.0","3PJUZCGDJ72BSAARTF0QBIWMPQL890","AU34T9OMHN4Z4","3PIOQ99R7Y8STPN46QFY0SD7JTFNU0","","null","<img src=""img/food2.png"" style=""width:200px; border:14px solid green;"">","null","","","","","","","","","",""
"","image-keyboard-response","252","214568","0.0-286.0","3PJUZCGDJ72BSAARTF0QBIWMPQL890","AU34T9OMHN4Z4","3PIOQ99R7Y8STPN46QFY0SD7JTFNU0","","553.4000000357628","img/food3.png","74","554.1999999880791","1","0","2","2","1,0.5,0,1,0.5,0,0.5,0,1","0.5,0,1,0.5,0,1,0,1,0.5","2","false",""
"","html-keyboard-response","253","214871","0.0-287.0","3PJUZCGDJ72BSAARTF0QBIWMPQL890","AU34T9OMHN4Z4","3PIOQ99R7Y8STPN46QFY0SD7JTFNU0","","null","<img src=""img/food3.png"" style=""width:200px;border:14px solid red;"">","null","","","","","","","","","",""
"","image-keyboard-response","254","215536","0.0-289.0","3PJUZCGDJ72BSAARTF0QBIWMPQL890","AU34T9OMHN4Z4","3PIOQ99R7Y8STPN46QFY0SD7JTFNU0","","663.6000000238419","img/food2.png","75","664.4000000357628","2","1","3","2","1,0.5,0,1,0.5,0,0.5,0,1","0.5,0,1,0.5,0,1,0,1,0.5","2","false",""
"","html-keyboard-response","255","215838","0.0-290.0","3PJUZCGDJ72BSAARTF0QBIWMPQL890","AU34T9OMHN4Z4","3PIOQ99R7Y8STPN46QFY0SD7JTFNU0","","null","<img src=""img/food2.png"" style=""width:200px; border:14px solid green;"">","null","","","","","","","","","",""
"","image-keyboard-response","256","216416","0.0-292.0","3PJUZCGDJ72BSAARTF0QBIWMPQL890","AU34T9OMHN4Z4","3PIOQ99R7Y8STPN46QFY0SD7JTFNU0","","577.6000000238419","img/food3.png","74","578.2999999523163","1","0","2","2","1,0.5,0,1,0.5,0,0.5,0,1","0.5,0,1,0.5,0,1,0,1,0.5","2","false",""
"","html-keyboard-response","257","216719","0.0-293.0","3PJUZCGDJ72BSAARTF0QBIWMPQL890","AU34T9OMHN4Z4","3PIOQ99R7Y8STPN46QFY0SD7JTFNU0","","null","<img src=""img/food3.png"" style=""width:200px;border:14px solid red;"">","null","","","","","","","","","",""
"","image-keyboard-response","258","217256","0.0-295.0","3PJUZCGDJ72BSAARTF0QBIWMPQL890","AU34T9OMHN4Z4","3PIOQ99R7Y8STPN46QFY0SD7JTFNU0","","536","img/food2.png","75","536.8000000119209","2","1","3","2","1,0.5,0,1,0.5,0,0.5,0,1","0.5,0,1,0.5,0,1,0,1,0.5","2","false",""
"","html-keyboard-response","259","217558","0.0-296.0","3PJUZCGDJ72BSAARTF0QBIWMPQL890","AU34T9OMHN4Z4","3PIOQ99R7Y8STPN46QFY0SD7JTFNU0","","null","<img src=""img/food2.png"" style=""width:200px; border:14px solid green;"">","null","","","","","","","","","",""
"","image-keyboard-response","260","218007","0.0-298.0","3PJUZCGDJ72BSAARTF0QBIWMPQL890","AU34T9OMHN4Z4","3PIOQ99R7Y8STPN46QFY0SD7JTFNU0","","448.5999999642372","img/food3.png","75","449.30000001192093","2","0","2","2","1,0.5,0,1,0.5,0,0.5,0,1","0.5,0,1,0.5,0,1,0,1,0.5","2","false",""
"","html-keyboard-response","261","218309","0.0-299.0","3PJUZCGDJ72BSAARTF0QBIWMPQL890","AU34T9OMHN4Z4","3PIOQ99R7Y8STPN46QFY0SD7JTFNU0","","null","<img src=""img/food3.png"" style=""width:200px;border:14px solid red;"">","null","","","","","","","","","",""
"","image-keyboard-response","262","218911","0.0-301.0","3PJUZCGDJ72BSAARTF0QBIWMPQL890","AU34T9OMHN4Z4","3PIOQ99R7Y8STPN46QFY0SD7JTFNU0","","601.2000000476837","img/food4.png","76","601.6999999880791","3","1","1","2","1,0.5,0,1,0.5,0,0.5,0,1","0.5,0,1,0.5,0,1,0,1,0.5","2","false",""
"","html-keyboard-response","263","219213","0.0-302.0","3PJUZCGDJ72BSAARTF0QBIWMPQL890","AU34T9OMHN4Z4","3PIOQ99R7Y8STPN46QFY0SD7JTFNU0","","null","<img src=""img/food4.png"" style=""width:200px; border:14px solid green;"">","null","","","","","","","","","",""
"","image-keyboard-response","264","219753","0.0-304.0","3PJUZCGDJ72BSAARTF0QBIWMPQL890","AU34T9OMHN4Z4","3PIOQ99R7Y8STPN46QFY0SD7JTFNU0","","539.0999999642372","img/food3.png","74","540","1","1","2","2","1,0.5,0,1,0.5,0,0.5,0,1","0.5,0,1,0.5,0,1,0,1,0.5","2","false",""
"","html-keyboard-response","265","220055","0.0-305.0","3PJUZCGDJ72BSAARTF0QBIWMPQL890","AU34T9OMHN4Z4","3PIOQ99R7Y8STPN46QFY0SD7JTFNU0","","null","<img src=""img/food3.png"" style=""width:200px; border:14px solid green;"">","null","","","","","","","","","",""
"","image-keyboard-response","266","220696","0.0-307.0","3PJUZCGDJ72BSAARTF0QBIWMPQL890","AU34T9OMHN4Z4","3PIOQ99R7Y8STPN46QFY0SD7JTFNU0","","639.8999999761581","img/food4.png","76","640.5999999642372","3","1","1","2","1,0.5,0,1,0.5,0,0.5,0,1","0.5,0,1,0.5,0,1,0,1,0.5","2","false",""
"","html-keyboard-response","267","220998","0.0-308.0","3PJUZCGDJ72BSAARTF0QBIWMPQL890","AU34T9OMHN4Z4","3PIOQ99R7Y8STPN46QFY0SD7JTFNU0","","null","<img src=""img/food4.png"" style=""width:200px; border:14px solid green;"">","null","","","","","","","","","",""
"","image-keyboard-response","268","221831","0.0-310.0","3PJUZCGDJ72BSAARTF0QBIWMPQL890","AU34T9OMHN4Z4","3PIOQ99R7Y8STPN46QFY0SD7JTFNU0","","832.1999999880791","img/food2.png","75","832.8999999761581","2","1","3","2","1,0.5,0,1,0.5,0,0.5,0,1","0.5,0,1,0.5,0,1,0,1,0.5","2","false",""
"","html-keyboard-response","269","222134","0.0-311.0","3PJUZCGDJ72BSAARTF0QBIWMPQL890","AU34T9OMHN4Z4","3PIOQ99R7Y8STPN46QFY0SD7JTFNU0","","null","<img src=""img/food2.png"" style=""width:200px; border:14px solid green;"">","null","","","","","","","","","",""
"","image-keyboard-response","270","222759","0.0-313.0","3PJUZCGDJ72BSAARTF0QBIWMPQL890","AU34T9OMHN4Z4","3PIOQ99R7Y8STPN46QFY0SD7JTFNU0","","624.6000000238419","img/food4.png","75","625.3000000119209","2","0","1","2","1,0.5,0,1,0.5,0,0.5,0,1","0.5,0,1,0.5,0,1,0,1,0.5","2","false",""
"","html-keyboard-response","271","223061","0.0-314.0","3PJUZCGDJ72BSAARTF0QBIWMPQL890","AU34T9OMHN4Z4","3PIOQ99R7Y8STPN46QFY0SD7JTFNU0","","null","<img src=""img/food4.png"" style=""width:200px;border:14px solid red;"">","null","","","","","","","","","",""
"","image-keyboard-response","272","223944","0.0-316.0","3PJUZCGDJ72BSAARTF0QBIWMPQL890","AU34T9OMHN4Z4","3PIOQ99R7Y8STPN46QFY0SD7JTFNU0","","881.6000000238419","img/food2.png","75","882.4000000357628","2","1","3","2","1,0.5,0,1,0.5,0,0.5,0,1","0.5,0,1,0.5,0,1,0,1,0.5","2","false",""
"","html-keyboard-response","273","224245","0.0-317.0","3PJUZCGDJ72BSAARTF0QBIWMPQL890","AU34T9OMHN4Z4","3PIOQ99R7Y8STPN46QFY0SD7JTFNU0","","null","<img src=""img/food2.png"" style=""width:200px; border:14px solid green;"">","null","","","","","","","","","",""
"","image-keyboard-response","274","224703","0.0-319.0","3PJUZCGDJ72BSAARTF0QBIWMPQL890","AU34T9OMHN4Z4","3PIOQ99R7Y8STPN46QFY0SD7JTFNU0","","456.60000002384186","img/food2.png","75","457.30000001192093","2","1","3","2","1,0.5,0,1,0.5,0,0.5,0,1","0.5,0,1,0.5,0,1,0,1,0.5","2","false",""
"","html-keyboard-response","275","225006","0.0-320.0","3PJUZCGDJ72BSAARTF0QBIWMPQL890","AU34T9OMHN4Z4","3PIOQ99R7Y8STPN46QFY0SD7JTFNU0","","null","<img src=""img/food2.png"" style=""width:200px; border:14px solid green;"">","null","","","","","","","","","",""
"","image-keyboard-response","276","225511","0.0-322.0","3PJUZCGDJ72BSAARTF0QBIWMPQL890","AU34T9OMHN4Z4","3PIOQ99R7Y8STPN46QFY0SD7JTFNU0","","504.69999998807907","img/food2.png","75","505.4000000357628","2","1","3","2","1,0.5,0,1,0.5,0,0.5,0,1","0.5,0,1,0.5,0,1,0,1,0.5","2","false",""
"","html-keyboard-response","277","225814","0.0-323.0","3PJUZCGDJ72BSAARTF0QBIWMPQL890","AU34T9OMHN4Z4","3PIOQ99R7Y8STPN46QFY0SD7JTFNU0","","null","<img src=""img/food2.png"" style=""width:200px; border:14px solid green;"">","null","","","","","","","","","",""
"","image-keyboard-response","278","226440","0.0-325.0","3PJUZCGDJ72BSAARTF0QBIWMPQL890","AU34T9OMHN4Z4","3PIOQ99R7Y8STPN46QFY0SD7JTFNU0","","625.1000000238419","img/food4.png","76","625.8000000119209","3","1","1","2","1,0.5,0,1,0.5,0,0.5,0,1","0.5,0,1,0.5,0,1,0,1,0.5","2","false",""
"","html-keyboard-response","279","226742","0.0-326.0","3PJUZCGDJ72BSAARTF0QBIWMPQL890","AU34T9OMHN4Z4","3PIOQ99R7Y8STPN46QFY0SD7JTFNU0","","null","<img src=""img/food4.png"" style=""width:200px; border:14px solid green;"">","null","","","","","","","","","",""
"","image-keyboard-response","280","227191","0.0-328.0","3PJUZCGDJ72BSAARTF0QBIWMPQL890","AU34T9OMHN4Z4","3PIOQ99R7Y8STPN46QFY0SD7JTFNU0","","448.39999997615814","img/food4.png","76","449.10000002384186","3","1","1","2","1,0.5,0,1,0.5,0,0.5,0,1","0.5,0,1,0.5,0,1,0,1,0.5","2","false",""
"","html-keyboard-response","281","227493","0.0-329.0","3PJUZCGDJ72BSAARTF0QBIWMPQL890","AU34T9OMHN4Z4","3PIOQ99R7Y8STPN46QFY0SD7JTFNU0","","null","<img src=""img/food4.png"" style=""width:200px; border:14px solid green;"">","null","","","","","","","","","",""
"","image-keyboard-response","282","227743","0.0-331.0","3PJUZCGDJ72BSAARTF0QBIWMPQL890","AU34T9OMHN4Z4","3PIOQ99R7Y8STPN46QFY0SD7JTFNU0","","249.19999998807907","img/food4.png","76","250","3","1","1","2","1,0.5,0,1,0.5,0,0.5,0,1","0.5,0,1,0.5,0,1,0,1,0.5","2","false",""
"","html-keyboard-response","283","228045","0.0-332.0","3PJUZCGDJ72BSAARTF0QBIWMPQL890","AU34T9OMHN4Z4","3PIOQ99R7Y8STPN46QFY0SD7JTFNU0","","null","<img src=""img/food4.png"" style=""width:200px; border:14px solid green;"">","null","","","","","","","","","",""
"","image-keyboard-response","284","228503","0.0-334.0","3PJUZCGDJ72BSAARTF0QBIWMPQL890","AU34T9OMHN4Z4","3PIOQ99R7Y8STPN46QFY0SD7JTFNU0","","456.60000002384186","img/food2.png","75","457.30000001192093","2","1","3","2","1,0.5,0,1,0.5,0,0.5,0,1","0.5,0,1,0.5,0,1,0,1,0.5","2","false",""
"","html-keyboard-response","285","228805","0.0-335.0","3PJUZCGDJ72BSAARTF0QBIWMPQL890","AU34T9OMHN4Z4","3PIOQ99R7Y8STPN46QFY0SD7JTFNU0","","null","<img src=""img/food2.png"" style=""width:200px; border:14px solid green;"">","null","","","","","","","","","",""
"","image-keyboard-response","286","229151","0.0-337.0","3PJUZCGDJ72BSAARTF0QBIWMPQL890","AU34T9OMHN4Z4","3PIOQ99R7Y8STPN46QFY0SD7JTFNU0","","345.5","img/food2.png","75","346.30000001192093","2","1","3","2","1,0.5,0,1,0.5,0,0.5,0,1","0.5,0,1,0.5,0,1,0,1,0.5","2","false",""
"","html-keyboard-response","287","229453","0.0-338.0","3PJUZCGDJ72BSAARTF0QBIWMPQL890","AU34T9OMHN4Z4","3PIOQ99R7Y8STPN46QFY0SD7JTFNU0","","null","<img src=""img/food2.png"" style=""width:200px; border:14px solid green;"">","null","","","","","","","","","",""
"","image-keyboard-response","288","229753","0.0-340.0","3PJUZCGDJ72BSAARTF0QBIWMPQL890","AU34T9OMHN4Z4","3PIOQ99R7Y8STPN46QFY0SD7JTFNU0","","298.2999999523163","img/food2.png","75","299","2","1","3","2","1,0.5,0,1,0.5,0,0.5,0,1","0.5,0,1,0.5,0,1,0,1,0.5","2","false",""
"","html-keyboard-response","289","230054","0.0-341.0","3PJUZCGDJ72BSAARTF0QBIWMPQL890","AU34T9OMHN4Z4","3PIOQ99R7Y8STPN46QFY0SD7JTFNU0","","null","<img src=""img/food2.png"" style=""width:200px; border:14px solid green;"">","null","","","","","","","","","",""
"","image-keyboard-response","290","230569","0.0-343.0","3PJUZCGDJ72BSAARTF0QBIWMPQL890","AU34T9OMHN4Z4","3PIOQ99R7Y8STPN46QFY0SD7JTFNU0","","512.8999999761581","img/food4.png","76","514","3","1","1","2","1,0.5,0,1,0.5,0,0.5,0,1","0.5,0,1,0.5,0,1,0,1,0.5","2","false",""
"","html-keyboard-response","291","230871","0.0-344.0","3PJUZCGDJ72BSAARTF0QBIWMPQL890","AU34T9OMHN4Z4","3PIOQ99R7Y8STPN46QFY0SD7JTFNU0","","null","<img src=""img/food4.png"" style=""width:200px; border:14px solid green;"">","null","","","","","","","","","",""
"","image-keyboard-response","292","231215","0.0-346.0","3PJUZCGDJ72BSAARTF0QBIWMPQL890","AU34T9OMHN4Z4","3PIOQ99R7Y8STPN46QFY0SD7JTFNU0","","343","img/food4.png","76","343.60000002384186","3","1","1","2","1,0.5,0,1,0.5,0,0.5,0,1","0.5,0,1,0.5,0,1,0,1,0.5","2","false",""
"","html-keyboard-response","293","231517","0.0-347.0","3PJUZCGDJ72BSAARTF0QBIWMPQL890","AU34T9OMHN4Z4","3PIOQ99R7Y8STPN46QFY0SD7JTFNU0","","null","<img src=""img/food4.png"" style=""width:200px; border:14px solid green;"">","null","","","","","","","","","",""
"","image-keyboard-response","294","231967","0.0-349.0","3PJUZCGDJ72BSAARTF0QBIWMPQL890","AU34T9OMHN4Z4","3PIOQ99R7Y8STPN46QFY0SD7JTFNU0","","449","img/food3.png","74","449.60000002384186","1","1","2","2","1,0.5,0,1,0.5,0,0.5,0,1","0.5,0,1,0.5,0,1,0,1,0.5","2","false",""
"","html-keyboard-response","295","232269","0.0-350.0","3PJUZCGDJ72BSAARTF0QBIWMPQL890","AU34T9OMHN4Z4","3PIOQ99R7Y8STPN46QFY0SD7JTFNU0","","null","<img src=""img/food3.png"" style=""width:200px; border:14px solid green;"">","null","","","","","","","","","",""
"","image-keyboard-response","296","232679","0.0-352.0","3PJUZCGDJ72BSAARTF0QBIWMPQL890","AU34T9OMHN4Z4","3PIOQ99R7Y8STPN46QFY0SD7JTFNU0","","408.69999998807907","img/food3.png","74","409.5999999642372","1","0","2","2","1,0.5,0,1,0.5,0,0.5,0,1","0.5,0,1,0.5,0,1,0,1,0.5","2","false",""
"","html-keyboard-response","297","232981","0.0-353.0","3PJUZCGDJ72BSAARTF0QBIWMPQL890","AU34T9OMHN4Z4","3PIOQ99R7Y8STPN46QFY0SD7JTFNU0","","null","<img src=""img/food3.png"" style=""width:200px;border:14px solid red;"">","null","","","","","","","","","",""
"","image-keyboard-response","298","233311","0.0-355.0","3PJUZCGDJ72BSAARTF0QBIWMPQL890","AU34T9OMHN4Z4","3PIOQ99R7Y8STPN46QFY0SD7JTFNU0","","328.7000000476837","img/food3.png","74","329.2999999523163","1","1","2","2","1,0.5,0,1,0.5,0,0.5,0,1","0.5,0,1,0.5,0,1,0,1,0.5","2","false",""
"","html-keyboard-response","299","233613","0.0-356.0","3PJUZCGDJ72BSAARTF0QBIWMPQL890","AU34T9OMHN4Z4","3PIOQ99R7Y8STPN46QFY0SD7JTFNU0","","null","<img src=""img/food3.png"" style=""width:200px; border:14px solid green;"">","null","","","","","","","","","",""
"","image-keyboard-response","300","234223","0.0-358.0","3PJUZCGDJ72BSAARTF0QBIWMPQL890","AU34T9OMHN4Z4","3PIOQ99R7Y8STPN46QFY0SD7JTFNU0","","608.5999999642372","img/food2.png","75","609.6000000238419","2","1","3","2","1,0.5,0,1,0.5,0,0.5,0,1","0.5,0,1,0.5,0,1,0,1,0.5","2","false",""
"","html-keyboard-response","301","234524","0.0-359.0","3PJUZCGDJ72BSAARTF0QBIWMPQL890","AU34T9OMHN4Z4","3PIOQ99R7Y8STPN46QFY0SD7JTFNU0","","null","<img src=""img/food2.png"" style=""width:200px; border:14px solid green;"">","null","","","","","","","","","",""
"","image-keyboard-response","302","235359","0.0-361.0","3PJUZCGDJ72BSAARTF0QBIWMPQL890","AU34T9OMHN4Z4","3PIOQ99R7Y8STPN46QFY0SD7JTFNU0","","833.3999999761581","img/food3.png","74","834","1","1","2","2","1,0.5,0,1,0.5,0,0.5,0,1","0.5,0,1,0.5,0,1,0,1,0.5","2","false",""
"","html-keyboard-response","303","235660","0.0-362.0","3PJUZCGDJ72BSAARTF0QBIWMPQL890","AU34T9OMHN4Z4","3PIOQ99R7Y8STPN46QFY0SD7JTFNU0","","null","<img src=""img/food3.png"" style=""width:200px; border:14px solid green;"">","null","","","","","","","","","",""
"","image-keyboard-response","304","236215","0.0-364.0","3PJUZCGDJ72BSAARTF0QBIWMPQL890","AU34T9OMHN4Z4","3PIOQ99R7Y8STPN46QFY0SD7JTFNU0","","553.6000000238419","img/food2.png","75","554.3000000119209","2","1","3","2","1,0.5,0,1,0.5,0,0.5,0,1","0.5,0,1,0.5,0,1,0,1,0.5","2","false",""
"","html-keyboard-response","305","236517","0.0-365.0","3PJUZCGDJ72BSAARTF0QBIWMPQL890","AU34T9OMHN4Z4","3PIOQ99R7Y8STPN46QFY0SD7JTFNU0","","null","<img src=""img/food2.png"" style=""width:200px; border:14px solid green;"">","null","","","","","","","","","",""
"","image-keyboard-response","306","236799","0.0-367.0","3PJUZCGDJ72BSAARTF0QBIWMPQL890","AU34T9OMHN4Z4","3PIOQ99R7Y8STPN46QFY0SD7JTFNU0","","280.60000002384186","img/food2.png","75","281.39999997615814","2","1","3","2","1,0.5,0,1,0.5,0,0.5,0,1","0.5,0,1,0.5,0,1,0,1,0.5","2","false",""
"","html-keyboard-response","307","237101","0.0-368.0","3PJUZCGDJ72BSAARTF0QBIWMPQL890","AU34T9OMHN4Z4","3PIOQ99R7Y8STPN46QFY0SD7JTFNU0","","null","<img src=""img/food2.png"" style=""width:200px; border:14px solid green;"">","null","","","","","","","","","",""
"","image-keyboard-response","308","237639","0.0-370.0","3PJUZCGDJ72BSAARTF0QBIWMPQL890","AU34T9OMHN4Z4","3PIOQ99R7Y8STPN46QFY0SD7JTFNU0","","536.1999999880791","img/food3.png","75","537.1999999880791","2","0","2","2","1,0.5,0,1,0.5,0,0.5,0,1","0.5,0,1,0.5,0,1,0,1,0.5","2","false",""
"","html-keyboard-response","309","237942","0.0-371.0","3PJUZCGDJ72BSAARTF0QBIWMPQL890","AU34T9OMHN4Z4","3PIOQ99R7Y8STPN46QFY0SD7JTFNU0","","null","<img src=""img/food3.png"" style=""width:200px;border:14px solid red;"">","null","","","","","","","","","",""
"","image-keyboard-response","310","238463","0.0-373.0","3PJUZCGDJ72BSAARTF0QBIWMPQL890","AU34T9OMHN4Z4","3PIOQ99R7Y8STPN46QFY0SD7JTFNU0","","520.0999999642372","img/food4.png","76","520.8000000119209","3","1","1","2","1,0.5,0,1,0.5,0,0.5,0,1","0.5,0,1,0.5,0,1,0,1,0.5","2","false",""
"","html-keyboard-response","311","238764","0.0-374.0","3PJUZCGDJ72BSAARTF0QBIWMPQL890","AU34T9OMHN4Z4","3PIOQ99R7Y8STPN46QFY0SD7JTFNU0","","null","<img src=""img/food4.png"" style=""width:200px; border:14px solid green;"">","null","","","","","","","","","",""
"","image-keyboard-response","312","239111","0.0-376.0","3PJUZCGDJ72BSAARTF0QBIWMPQL890","AU34T9OMHN4Z4","3PIOQ99R7Y8STPN46QFY0SD7JTFNU0","","345.69999998807907","img/food4.png","76","346.30000001192093","3","1","1","2","1,0.5,0,1,0.5,0,0.5,0,1","0.5,0,1,0.5,0,1,0,1,0.5","2","false",""
"","html-keyboard-response","313","239413","0.0-377.0","3PJUZCGDJ72BSAARTF0QBIWMPQL890","AU34T9OMHN4Z4","3PIOQ99R7Y8STPN46QFY0SD7JTFNU0","","null","<img src=""img/food4.png"" style=""width:200px; border:14px solid green;"">","null","","","","","","","","","",""
"","image-keyboard-response","314","239758","0.0-379.0","3PJUZCGDJ72BSAARTF0QBIWMPQL890","AU34T9OMHN4Z4","3PIOQ99R7Y8STPN46QFY0SD7JTFNU0","","344.30000001192093","img/food2.png","74","345.10000002384186","1","0","3","2","1,0.5,0,1,0.5,0,0.5,0,1","0.5,0,1,0.5,0,1,0,1,0.5","2","false",""
"","html-keyboard-response","315","240061","0.0-380.0","3PJUZCGDJ72BSAARTF0QBIWMPQL890","AU34T9OMHN4Z4","3PIOQ99R7Y8STPN46QFY0SD7JTFNU0","","null","<img src=""img/food2.png"" style=""width:200px;border:14px solid red;"">","null","","","","","","","","","",""
"","image-keyboard-response","316","240615","0.0-382.0","3PJUZCGDJ72BSAARTF0QBIWMPQL890","AU34T9OMHN4Z4","3PIOQ99R7Y8STPN46QFY0SD7JTFNU0","","553.1000000238419","img/food4.png","75","553.8000000119209","2","0","1","2","1,0.5,0,1,0.5,0,0.5,0,1","0.5,0,1,0.5,0,1,0,1,0.5","2","false",""
"","html-keyboard-response","317","240917","0.0-383.0","3PJUZCGDJ72BSAARTF0QBIWMPQL890","AU34T9OMHN4Z4","3PIOQ99R7Y8STPN46QFY0SD7JTFNU0","","null","<img src=""img/food4.png"" style=""width:200px;border:14px solid red;"">","null","","","","","","","","","",""
"","image-keyboard-response","318","241479","0.0-385.0","3PJUZCGDJ72BSAARTF0QBIWMPQL890","AU34T9OMHN4Z4","3PIOQ99R7Y8STPN46QFY0SD7JTFNU0","","560.6000000238419","img/food3.png","74","561.4000000357628","1","0","2","2","1,0.5,0,1,0.5,0,0.5,0,1","0.5,0,1,0.5,0,1,0,1,0.5","2","false",""
"","html-keyboard-response","319","241781","0.0-386.0","3PJUZCGDJ72BSAARTF0QBIWMPQL890","AU34T9OMHN4Z4","3PIOQ99R7Y8STPN46QFY0SD7JTFNU0","","null","<img src=""img/food3.png"" style=""width:200px;border:14px solid red;"">","null","","","","","","","","","",""
"","image-keyboard-response","320","242391","0.0-388.0","3PJUZCGDJ72BSAARTF0QBIWMPQL890","AU34T9OMHN4Z4","3PIOQ99R7Y8STPN46QFY0SD7JTFNU0","","608.9000000357628","img/food4.png","76","609.5","3","1","1","2","1,0.5,0,1,0.5,0,0.5,0,1","0.5,0,1,0.5,0,1,0,1,0.5","2","false",""
"","html-keyboard-response","321","242693","0.0-389.0","3PJUZCGDJ72BSAARTF0QBIWMPQL890","AU34T9OMHN4Z4","3PIOQ99R7Y8STPN46QFY0SD7JTFNU0","","null","<img src=""img/food4.png"" style=""width:200px; border:14px solid green;"">","null","","","","","","","","","",""
"","image-keyboard-response","322","243031","0.0-391.0","3PJUZCGDJ72BSAARTF0QBIWMPQL890","AU34T9OMHN4Z4","3PIOQ99R7Y8STPN46QFY0SD7JTFNU0","","336.89999997615814","img/food4.png","76","337.5999999642372","3","1","1","2","1,0.5,0,1,0.5,0,0.5,0,1","0.5,0,1,0.5,0,1,0,1,0.5","2","false",""
"","html-keyboard-response","323","243333","0.0-392.0","3PJUZCGDJ72BSAARTF0QBIWMPQL890","AU34T9OMHN4Z4","3PIOQ99R7Y8STPN46QFY0SD7JTFNU0","","null","<img src=""img/food4.png"" style=""width:200px; border:14px solid green;"">","null","","","","","","","","","",""
"","image-keyboard-response","324","243983","0.0-394.0","3PJUZCGDJ72BSAARTF0QBIWMPQL890","AU34T9OMHN4Z4","3PIOQ99R7Y8STPN46QFY0SD7JTFNU0","","648.8999999761581","img/food3.png","75","649.5999999642372","2","0","2","2","1,0.5,0,1,0.5,0,0.5,0,1","0.5,0,1,0.5,0,1,0,1,0.5","2","false",""
"","html-keyboard-response","325","244285","0.0-395.0","3PJUZCGDJ72BSAARTF0QBIWMPQL890","AU34T9OMHN4Z4","3PIOQ99R7Y8STPN46QFY0SD7JTFNU0","","null","<img src=""img/food3.png"" style=""width:200px;border:14px solid red;"">","null","","","","","","","","","",""
"","image-keyboard-response","326","244767","0.0-397.0","3PJUZCGDJ72BSAARTF0QBIWMPQL890","AU34T9OMHN4Z4","3PIOQ99R7Y8STPN46QFY0SD7JTFNU0","","481.10000002384186","img/food3.png","74","482","1","0","2","2","1,0.5,0,1,0.5,0,0.5,0,1","0.5,0,1,0.5,0,1,0,1,0.5","2","false",""
"","html-keyboard-response","327","245069","0.0-398.0","3PJUZCGDJ72BSAARTF0QBIWMPQL890","AU34T9OMHN4Z4","3PIOQ99R7Y8STPN46QFY0SD7JTFNU0","","null","<img src=""img/food3.png"" style=""width:200px;border:14px solid red;"">","null","","","","","","","","","",""
"","image-keyboard-response","328","245319","0.0-400.0","3PJUZCGDJ72BSAARTF0QBIWMPQL890","AU34T9OMHN4Z4","3PIOQ99R7Y8STPN46QFY0SD7JTFNU0","","249.10000002384186","img/food2.png","74","249.69999998807907","1","0","3","2","1,0.5,0,1,0.5,0,0.5,0,1","0.5,0,1,0.5,0,1,0,1,0.5","2","false",""
"","html-keyboard-response","329","245621","0.0-401.0","3PJUZCGDJ72BSAARTF0QBIWMPQL890","AU34T9OMHN4Z4","3PIOQ99R7Y8STPN46QFY0SD7JTFNU0","","null","<img src=""img/food2.png"" style=""width:200px;border:14px solid red;"">","null","","","","","","","","","",""
"","image-keyboard-response","330","246279","0.0-403.0","3PJUZCGDJ72BSAARTF0QBIWMPQL890","AU34T9OMHN4Z4","3PIOQ99R7Y8STPN46QFY0SD7JTFNU0","","656.5999999642372","img/food3.png","74","657.3000000119209","1","1","2","2","1,0.5,0,1,0.5,0,0.5,0,1","0.5,0,1,0.5,0,1,0,1,0.5","2","false",""
"","html-keyboard-response","331","246582","0.0-404.0","3PJUZCGDJ72BSAARTF0QBIWMPQL890","AU34T9OMHN4Z4","3PIOQ99R7Y8STPN46QFY0SD7JTFNU0","","null","<img src=""img/food3.png"" style=""width:200px; border:14px solid green;"">","null","","","","","","","","","",""
"","image-keyboard-response","332","246864","0.0-406.0","3PJUZCGDJ72BSAARTF0QBIWMPQL890","AU34T9OMHN4Z4","3PIOQ99R7Y8STPN46QFY0SD7JTFNU0","","281","img/food4.png","75","281.7000000476837","2","0","1","2","1,0.5,0,1,0.5,0,0.5,0,1","0.5,0,1,0.5,0,1,0,1,0.5","2","false",""
"","html-keyboard-response","333","247166","0.0-407.0","3PJUZCGDJ72BSAARTF0QBIWMPQL890","AU34T9OMHN4Z4","3PIOQ99R7Y8STPN46QFY0SD7JTFNU0","","null","<img src=""img/food4.png"" style=""width:200px;border:14px solid red;"">","null","","","","","","","","","",""
"","image-keyboard-response","334","247799","0.0-409.0","3PJUZCGDJ72BSAARTF0QBIWMPQL890","AU34T9OMHN4Z4","3PIOQ99R7Y8STPN46QFY0SD7JTFNU0","","632.1999999880791","img/food3.png","74","632.8999999761581","1","1","2","2","1,0.5,0,1,0.5,0,0.5,0,1","0.5,0,1,0.5,0,1,0,1,0.5","2","false",""
"","html-keyboard-response","335","248101","0.0-410.0","3PJUZCGDJ72BSAARTF0QBIWMPQL890","AU34T9OMHN4Z4","3PIOQ99R7Y8STPN46QFY0SD7JTFNU0","","null","<img src=""img/food3.png"" style=""width:200px; border:14px solid green;"">","null","","","","","","","","","",""
"","image-keyboard-response","336","248423","0.0-412.0","3PJUZCGDJ72BSAARTF0QBIWMPQL890","AU34T9OMHN4Z4","3PIOQ99R7Y8STPN46QFY0SD7JTFNU0","","320.30000001192093","img/food3.png","74","320.9000000357628","1","0","2","2","1,0.5,0,1,0.5,0,0.5,0,1","0.5,0,1,0.5,0,1,0,1,0.5","2","false",""
"","html-keyboard-response","337","248724","0.0-413.0","3PJUZCGDJ72BSAARTF0QBIWMPQL890","AU34T9OMHN4Z4","3PIOQ99R7Y8STPN46QFY0SD7JTFNU0","","null","<img src=""img/food3.png"" style=""width:200px;border:14px solid red;"">","null","","","","","","","","","",""
"","image-keyboard-response","338","249047","0.0-415.0","3PJUZCGDJ72BSAARTF0QBIWMPQL890","AU34T9OMHN4Z4","3PIOQ99R7Y8STPN46QFY0SD7JTFNU0","","321.9000000357628","img/food3.png","74","322.80000001192093","1","1","2","2","1,0.5,0,1,0.5,0,0.5,0,1","0.5,0,1,0.5,0,1,0,1,0.5","2","false",""
"","html-keyboard-response","339","249348","0.0-416.0","3PJUZCGDJ72BSAARTF0QBIWMPQL890","AU34T9OMHN4Z4","3PIOQ99R7Y8STPN46QFY0SD7JTFNU0","","null","<img src=""img/food3.png"" style=""width:200px; border:14px solid green;"">","null","","","","","","","","","",""
"","image-keyboard-response","340","249695","0.0-418.0","3PJUZCGDJ72BSAARTF0QBIWMPQL890","AU34T9OMHN4Z4","3PIOQ99R7Y8STPN46QFY0SD7JTFNU0","","345.30000001192093","img/food3.png","74","346.0999999642372","1","1","2","2","1,0.5,0,1,0.5,0,0.5,0,1","0.5,0,1,0.5,0,1,0,1,0.5","2","false",""
"","html-keyboard-response","341","249997","0.0-419.0","3PJUZCGDJ72BSAARTF0QBIWMPQL890","AU34T9OMHN4Z4","3PIOQ99R7Y8STPN46QFY0SD7JTFNU0","","null","<img src=""img/food3.png"" style=""width:200px; border:14px solid green;"">","null","","","","","","","","","",""
"","image-keyboard-response","342","250359","0.0-421.0","3PJUZCGDJ72BSAARTF0QBIWMPQL890","AU34T9OMHN4Z4","3PIOQ99R7Y8STPN46QFY0SD7JTFNU0","","360.0999999642372","img/food3.png","74","360.9000000357628","1","0","2","2","1,0.5,0,1,0.5,0,0.5,0,1","0.5,0,1,0.5,0,1,0,1,0.5","2","false",""
"","html-keyboard-response","343","250661","0.0-422.0","3PJUZCGDJ72BSAARTF0QBIWMPQL890","AU34T9OMHN4Z4","3PIOQ99R7Y8STPN46QFY0SD7JTFNU0","","null","<img src=""img/food3.png"" style=""width:200px;border:14px solid red;"">","null","","","","","","","","","",""
"","image-keyboard-response","344","250951","0.0-424.0","3PJUZCGDJ72BSAARTF0QBIWMPQL890","AU34T9OMHN4Z4","3PIOQ99R7Y8STPN46QFY0SD7JTFNU0","","289.2999999523163","img/food3.png","74","290.10000002384186","1","0","2","2","1,0.5,0,1,0.5,0,0.5,0,1","0.5,0,1,0.5,0,1,0,1,0.5","2","false",""
"","html-keyboard-response","345","251253","0.0-425.0","3PJUZCGDJ72BSAARTF0QBIWMPQL890","AU34T9OMHN4Z4","3PIOQ99R7Y8STPN46QFY0SD7JTFNU0","","null","<img src=""img/food3.png"" style=""width:200px;border:14px solid red;"">","null","","","","","","","","","",""
"","image-keyboard-response","346","251887","0.0-427.0","3PJUZCGDJ72BSAARTF0QBIWMPQL890","AU34T9OMHN4Z4","3PIOQ99R7Y8STPN46QFY0SD7JTFNU0","","633","img/food4.png","76","633.5999999642372","3","1","1","2","1,0.5,0,1,0.5,0,0.5,0,1","0.5,0,1,0.5,0,1,0,1,0.5","2","false",""
"","html-keyboard-response","347","252189","0.0-428.0","3PJUZCGDJ72BSAARTF0QBIWMPQL890","AU34T9OMHN4Z4","3PIOQ99R7Y8STPN46QFY0SD7JTFNU0","","null","<img src=""img/food4.png"" style=""width:200px; border:14px solid green;"">","null","","","","","","","","","",""
"","image-keyboard-response","348","252471","0.0-430.0","3PJUZCGDJ72BSAARTF0QBIWMPQL890","AU34T9OMHN4Z4","3PIOQ99R7Y8STPN46QFY0SD7JTFNU0","","280.69999998807907","img/food4.png","76","281.4000000357628","3","1","1","2","1,0.5,0,1,0.5,0,0.5,0,1","0.5,0,1,0.5,0,1,0,1,0.5","2","false",""
"","html-keyboard-response","349","252773","0.0-431.0","3PJUZCGDJ72BSAARTF0QBIWMPQL890","AU34T9OMHN4Z4","3PIOQ99R7Y8STPN46QFY0SD7JTFNU0","","null","<img src=""img/food4.png"" style=""width:200px; border:14px solid green;"">","null","","","","","","","","","",""
"","image-keyboard-response","350","253199","0.0-433.0","3PJUZCGDJ72BSAARTF0QBIWMPQL890","AU34T9OMHN4Z4","3PIOQ99R7Y8STPN46QFY0SD7JTFNU0","","424.69999998807907","img/food2.png","75","425.5","2","1","3","2","1,0.5,0,1,0.5,0,0.5,0,1","0.5,0,1,0.5,0,1,0,1,0.5","2","false",""
"","html-keyboard-response","351","253501","0.0-434.0","3PJUZCGDJ72BSAARTF0QBIWMPQL890","AU34T9OMHN4Z4","3PIOQ99R7Y8STPN46QFY0SD7JTFNU0","","null","<img src=""img/food2.png"" style=""width:200px; border:14px solid green;"">","null","","","","","","","","","",""
"","image-keyboard-response","352","253870","0.0-436.0","3PJUZCGDJ72BSAARTF0QBIWMPQL890","AU34T9OMHN4Z4","3PIOQ99R7Y8STPN46QFY0SD7JTFNU0","","368.80000001192093","img/food2.png","75","369.7000000476837","2","1","3","2","1,0.5,0,1,0.5,0,0.5,0,1","0.5,0,1,0.5,0,1,0,1,0.5","2","false",""
"","html-keyboard-response","353","254173","0.0-437.0","3PJUZCGDJ72BSAARTF0QBIWMPQL890","AU34T9OMHN4Z4","3PIOQ99R7Y8STPN46QFY0SD7JTFNU0","","null","<img src=""img/food2.png"" style=""width:200px; border:14px solid green;"">","null","","","","","","","","","",""
"","image-keyboard-response","354","254823","0.0-439.0","3PJUZCGDJ72BSAARTF0QBIWMPQL890","AU34T9OMHN4Z4","3PIOQ99R7Y8STPN46QFY0SD7JTFNU0","","649.1000000238419","img/food3.png","74","649.7999999523163","1","1","2","2","1,0.5,0,1,0.5,0,0.5,0,1","0.5,0,1,0.5,0,1,0,1,0.5","2","false",""
"","html-keyboard-response","355","255126","0.0-440.0","3PJUZCGDJ72BSAARTF0QBIWMPQL890","AU34T9OMHN4Z4","3PIOQ99R7Y8STPN46QFY0SD7JTFNU0","","null","<img src=""img/food3.png"" style=""width:200px; border:14px solid green;"">","null","","","","","","","","","",""
"","image-keyboard-response","356","255462","0.0-442.0","3PJUZCGDJ72BSAARTF0QBIWMPQL890","AU34T9OMHN4Z4","3PIOQ99R7Y8STPN46QFY0SD7JTFNU0","","335.19999998807907","img/food3.png","74","336","1","1","2","2","1,0.5,0,1,0.5,0,0.5,0,1","0.5,0,1,0.5,0,1,0,1,0.5","2","false",""
"","html-keyboard-response","357","255764","0.0-443.0","3PJUZCGDJ72BSAARTF0QBIWMPQL890","AU34T9OMHN4Z4","3PIOQ99R7Y8STPN46QFY0SD7JTFNU0","","null","<img src=""img/food3.png"" style=""width:200px; border:14px solid green;"">","null","","","","","","","","","",""
"","image-keyboard-response","358","256102","0.0-445.0","3PJUZCGDJ72BSAARTF0QBIWMPQL890","AU34T9OMHN4Z4","3PIOQ99R7Y8STPN46QFY0SD7JTFNU0","","337.19999998807907","img/food3.png","74","338","1","1","2","2","1,0.5,0,1,0.5,0,0.5,0,1","0.5,0,1,0.5,0,1,0,1,0.5","2","false",""
"","html-keyboard-response","359","256405","0.0-446.0","3PJUZCGDJ72BSAARTF0QBIWMPQL890","AU34T9OMHN4Z4","3PIOQ99R7Y8STPN46QFY0SD7JTFNU0","","null","<img src=""img/food3.png"" style=""width:200px; border:14px solid green;"">","null","","","","","","","","","",""
"","image-keyboard-response","360","257014","0.0-448.0","3PJUZCGDJ72BSAARTF0QBIWMPQL890","AU34T9OMHN4Z4","3PIOQ99R7Y8STPN46QFY0SD7JTFNU0","","607.8000000119209","img/food4.png","76","608.6999999880791","3","1","1","2","1,0.5,0,1,0.5,0,0.5,0,1","0.5,0,1,0.5,0,1,0,1,0.5","2","false",""
"","html-keyboard-response","361","257317","0.0-449.0","3PJUZCGDJ72BSAARTF0QBIWMPQL890","AU34T9OMHN4Z4","3PIOQ99R7Y8STPN46QFY0SD7JTFNU0","","null","<img src=""img/food4.png"" style=""width:200px; border:14px solid green;"">","null","","","","","","","","","",""
"","image-keyboard-response","362","257942","0.0-451.0","3PJUZCGDJ72BSAARTF0QBIWMPQL890","AU34T9OMHN4Z4","3PIOQ99R7Y8STPN46QFY0SD7JTFNU0","","623.5999999642372","img/food2.png","75","624.5","2","1","3","2","1,0.5,0,1,0.5,0,0.5,0,1","0.5,0,1,0.5,0,1,0,1,0.5","2","false",""
"","html-keyboard-response","363","258244","0.0-452.0","3PJUZCGDJ72BSAARTF0QBIWMPQL890","AU34T9OMHN4Z4","3PIOQ99R7Y8STPN46QFY0SD7JTFNU0","","null","<img src=""img/food2.png"" style=""width:200px; border:14px solid green;"">","null","","","","","","","","","",""
"","instructions","364","260786","0.0-454.0","3PJUZCGDJ72BSAARTF0QBIWMPQL890","AU34T9OMHN4Z4","3PIOQ99R7Y8STPN46QFY0SD7JTFNU0","[{""page_index"":0,""viewing_time"":2540.899999976158}]","2541.099999964237","","","","","","","","","","","",""
"","survey-text","365","273482","0.0-455.0","3PJUZCGDJ72BSAARTF0QBIWMPQL890","AU34T9OMHN4Z4","3PIOQ99R7Y8STPN46QFY0SD7JTFNU0","","12692.600000023842","","","","","","","","","","","","{""Q0"":""AU34T9OMHN4Z4""}"
