"success","trial_type","trial_index","time_elapsed","internal_node_id","assignmentID","mturkID","hitID","view_history","rt","stimulus","key_press","reactionTime","a","r","warning","s","cond","reward_cond","reward_cond_actual","reward_matrix_idx","responses"
"true","fullscreen","0","2881","0.0-0.0","35GMH2SV3F3V8YOO87580INXVQTOED","AUZNL6ARA1UEC","3HUR21WDDUBEMSLDIXZW1FAIHVWXYO","","","","","","","","","","","","","",""
"","instructions","1","32989","0.0-1.0","35GMH2SV3F3V8YOO87580INXVQTOED","AUZNL6ARA1UEC","3HUR21WDDUBEMSLDIXZW1FAIHVWXYO","[{""page_index"":0,""viewing_time"":3655.4000000953674},{""page_index"":1,""viewing_time"":2943.699999809265},{""page_index"":2,""viewing_time"":4711.900000095367},{""page_index"":3,""viewing_time"":8016.400000095367},{""page_index"":4,""viewing_time"":2152.5},{""page_index"":5,""viewing_time"":5087.39999961853},{""page_index"":6,""viewing_time"":3536}]","30103.699999809265","","","","","","","","","","","",""
"","instructions","2","41844","0.0-2.0","35GMH2SV3F3V8YOO87580INXVQTOED","AUZNL6ARA1UEC","3HUR21WDDUBEMSLDIXZW1FAIHVWXYO","[{""page_index"":0,""viewing_time"":7222.099999904633},{""page_index"":1,""viewing_time"":1632}]","8854.300000190735","","","","","","","","","","","",""
"","image-keyboard-response","3","42392","0.0-3.0","35GMH2SV3F3V8YOO87580INXVQTOED","AUZNL6ARA1UEC","3HUR21WDDUBEMSLDIXZW1FAIHVWXYO","","546.1999998092651","img/food1.png","74","548.4000000953674","1","1","false","2","2","1,0.5,0,1,0.5,0,0.5,0,1","1,0.5,0,1,0.5,0,0.5,0,1","1",""
"","html-keyboard-response","4","42698","0.0-4.0","35GMH2SV3F3V8YOO87580INXVQTOED","AUZNL6ARA1UEC","3HUR21WDDUBEMSLDIXZW1FAIHVWXYO","","null","<img src=""img/food1.png"" style=""width:200px; border:14px solid green;"">","null","","","","","","","","","",""
"","image-keyboard-response","5","43309","0.0-6.0","35GMH2SV3F3V8YOO87580INXVQTOED","AUZNL6ARA1UEC","3HUR21WDDUBEMSLDIXZW1FAIHVWXYO","","609","img/food1.png","74","610.4000000953674","1","1","false","2","2","1,0.5,0,1,0.5,0,0.5,0,1","1,0.5,0,1,0.5,0,0.5,0,1","1",""
"","html-keyboard-response","6","43611","0.0-7.0","35GMH2SV3F3V8YOO87580INXVQTOED","AUZNL6ARA1UEC","3HUR21WDDUBEMSLDIXZW1FAIHVWXYO","","null","<img src=""img/food1.png"" style=""width:200px; border:14px solid green;"">","null","","","","","","","","","",""
"","image-keyboard-response","7","44222","0.0-9.0","35GMH2SV3F3V8YOO87580INXVQTOED","AUZNL6ARA1UEC","3HUR21WDDUBEMSLDIXZW1FAIHVWXYO","","607","img/food4.png","75","609.2000002861023","2","0","false","3","2","1,0.5,0,1,0.5,0,0.5,0,1","1,0.5,0,1,0.5,0,0.5,0,1","1",""
"","html-keyboard-response","8","44525","0.0-10.0","35GMH2SV3F3V8YOO87580INXVQTOED","AUZNL6ARA1UEC","3HUR21WDDUBEMSLDIXZW1FAIHVWXYO","","null","<img src=""img/food4.png"" style=""width:200px;border:14px solid red;"">","null","","","","","","","","","",""
"","image-keyboard-response","9","45067","0.0-12.0","35GMH2SV3F3V8YOO87580INXVQTOED","AUZNL6ARA1UEC","3HUR21WDDUBEMSLDIXZW1FAIHVWXYO","","539.3999996185303","img/food4.png","75","541.4000000953674","2","0","false","3","2","1,0.5,0,1,0.5,0,0.5,0,1","1,0.5,0,1,0.5,0,0.5,0,1","1",""
"","html-keyboard-response","10","45370","0.0-13.0","35GMH2SV3F3V8YOO87580INXVQTOED","AUZNL6ARA1UEC","3HUR21WDDUBEMSLDIXZW1FAIHVWXYO","","null","<img src=""img/food4.png"" style=""width:200px;border:14px solid red;"">","null","","","","","","","","","",""
"","image-keyboard-response","11","46045","0.0-15.0","35GMH2SV3F3V8YOO87580INXVQTOED","AUZNL6ARA1UEC","3HUR21WDDUBEMSLDIXZW1FAIHVWXYO","","674.3000001907349","img/food6.png","74","675","1","1","false","1","2","1,0.5,0,1,0.5,0,0.5,0,1","1,0.5,0,1,0.5,0,0.5,0,1","1",""
"","html-keyboard-response","12","46347","0.0-16.0","35GMH2SV3F3V8YOO87580INXVQTOED","AUZNL6ARA1UEC","3HUR21WDDUBEMSLDIXZW1FAIHVWXYO","","null","<img src=""img/food6.png"" style=""width:200px; border:14px solid green;"">","null","","","","","","","","","",""
"","image-keyboard-response","13","47071","0.0-18.0","35GMH2SV3F3V8YOO87580INXVQTOED","AUZNL6ARA1UEC","3HUR21WDDUBEMSLDIXZW1FAIHVWXYO","","722.9000000953674","img/food4.png","74","723.4000000953674","1","1","false","3","2","1,0.5,0,1,0.5,0,0.5,0,1","1,0.5,0,1,0.5,0,0.5,0,1","1",""
"","html-keyboard-response","14","47373","0.0-19.0","35GMH2SV3F3V8YOO87580INXVQTOED","AUZNL6ARA1UEC","3HUR21WDDUBEMSLDIXZW1FAIHVWXYO","","null","<img src=""img/food4.png"" style=""width:200px; border:14px solid green;"">","null","","","","","","","","","",""
"","image-keyboard-response","15","47865","0.0-21.0","35GMH2SV3F3V8YOO87580INXVQTOED","AUZNL6ARA1UEC","3HUR21WDDUBEMSLDIXZW1FAIHVWXYO","","488.5","img/food4.png","74","490.59999990463257","1","1","false","3","2","1,0.5,0,1,0.5,0,0.5,0,1","1,0.5,0,1,0.5,0,0.5,0,1","1",""
"","html-keyboard-response","16","48167","0.0-22.0","35GMH2SV3F3V8YOO87580INXVQTOED","AUZNL6ARA1UEC","3HUR21WDDUBEMSLDIXZW1FAIHVWXYO","","null","<img src=""img/food4.png"" style=""width:200px; border:14px solid green;"">","null","","","","","","","","","",""
"","image-keyboard-response","17","48658","0.0-24.0","35GMH2SV3F3V8YOO87580INXVQTOED","AUZNL6ARA1UEC","3HUR21WDDUBEMSLDIXZW1FAIHVWXYO","","488.8999996185303","img/food6.png","74","490.5","1","1","false","1","2","1,0.5,0,1,0.5,0,0.5,0,1","1,0.5,0,1,0.5,0,0.5,0,1","1",""
"","html-keyboard-response","18","48961","0.0-25.0","35GMH2SV3F3V8YOO87580INXVQTOED","AUZNL6ARA1UEC","3HUR21WDDUBEMSLDIXZW1FAIHVWXYO","","null","<img src=""img/food6.png"" style=""width:200px; border:14px solid green;"">","null","","","","","","","","","",""
"","image-keyboard-response","19","49421","0.0-27.0","35GMH2SV3F3V8YOO87580INXVQTOED","AUZNL6ARA1UEC","3HUR21WDDUBEMSLDIXZW1FAIHVWXYO","","457","img/food1.png","74","459","1","1","false","2","2","1,0.5,0,1,0.5,0,0.5,0,1","1,0.5,0,1,0.5,0,0.5,0,1","1",""
"","html-keyboard-response","20","49724","0.0-28.0","35GMH2SV3F3V8YOO87580INXVQTOED","AUZNL6ARA1UEC","3HUR21WDDUBEMSLDIXZW1FAIHVWXYO","","null","<img src=""img/food1.png"" style=""width:200px; border:14px solid green;"">","null","","","","","","","","","",""
"","image-keyboard-response","21","50178","0.0-30.0","35GMH2SV3F3V8YOO87580INXVQTOED","AUZNL6ARA1UEC","3HUR21WDDUBEMSLDIXZW1FAIHVWXYO","","451.59999990463257","img/food1.png","74","453.09999990463257","1","1","false","2","2","1,0.5,0,1,0.5,0,0.5,0,1","1,0.5,0,1,0.5,0,0.5,0,1","1",""
"","html-keyboard-response","22","50480","0.0-31.0","35GMH2SV3F3V8YOO87580INXVQTOED","AUZNL6ARA1UEC","3HUR21WDDUBEMSLDIXZW1FAIHVWXYO","","null","<img src=""img/food1.png"" style=""width:200px; border:14px solid green;"">","null","","","","","","","","","",""
"","image-keyboard-response","23","50935","0.0-33.0","35GMH2SV3F3V8YOO87580INXVQTOED","AUZNL6ARA1UEC","3HUR21WDDUBEMSLDIXZW1FAIHVWXYO","","452.90000009536743","img/food1.png","74","454.5","1","1","false","2","2","1,0.5,0,1,0.5,0,0.5,0,1","1,0.5,0,1,0.5,0,0.5,0,1","1",""
"","html-keyboard-response","24","51237","0.0-34.0","35GMH2SV3F3V8YOO87580INXVQTOED","AUZNL6ARA1UEC","3HUR21WDDUBEMSLDIXZW1FAIHVWXYO","","null","<img src=""img/food1.png"" style=""width:200px; border:14px solid green;"">","null","","","","","","","","","",""
"","image-keyboard-response","25","51689","0.0-36.0","35GMH2SV3F3V8YOO87580INXVQTOED","AUZNL6ARA1UEC","3HUR21WDDUBEMSLDIXZW1FAIHVWXYO","","450.19999980926514","img/food4.png","74","451.8999996185303","1","0","false","3","2","1,0.5,0,1,0.5,0,0.5,0,1","1,0.5,0,1,0.5,0,0.5,0,1","1",""
"","html-keyboard-response","26","51992","0.0-37.0","35GMH2SV3F3V8YOO87580INXVQTOED","AUZNL6ARA1UEC","3HUR21WDDUBEMSLDIXZW1FAIHVWXYO","","null","<img src=""img/food4.png"" style=""width:200px;border:14px solid red;"">","null","","","","","","","","","",""
"","image-keyboard-response","27","52501","0.0-39.0","35GMH2SV3F3V8YOO87580INXVQTOED","AUZNL6ARA1UEC","3HUR21WDDUBEMSLDIXZW1FAIHVWXYO","","507.2000002861023","img/food4.png","74","508.2000002861023","1","0","false","3","2","1,0.5,0,1,0.5,0,0.5,0,1","1,0.5,0,1,0.5,0,0.5,0,1","1",""
"","html-keyboard-response","28","52804","0.0-40.0","35GMH2SV3F3V8YOO87580INXVQTOED","AUZNL6ARA1UEC","3HUR21WDDUBEMSLDIXZW1FAIHVWXYO","","null","<img src=""img/food4.png"" style=""width:200px;border:14px solid red;"">","null","","","","","","","","","",""
"","image-keyboard-response","29","53489","0.0-42.0","35GMH2SV3F3V8YOO87580INXVQTOED","AUZNL6ARA1UEC","3HUR21WDDUBEMSLDIXZW1FAIHVWXYO","","682.3000001907349","img/food6.png","74","683.9000000953674","1","1","false","1","2","1,0.5,0,1,0.5,0,0.5,0,1","1,0.5,0,1,0.5,0,0.5,0,1","1",""
"","html-keyboard-response","30","53792","0.0-43.0","35GMH2SV3F3V8YOO87580INXVQTOED","AUZNL6ARA1UEC","3HUR21WDDUBEMSLDIXZW1FAIHVWXYO","","null","<img src=""img/food6.png"" style=""width:200px; border:14px solid green;"">","null","","","","","","","","","",""
"","image-keyboard-response","31","54217","0.0-45.0","35GMH2SV3F3V8YOO87580INXVQTOED","AUZNL6ARA1UEC","3HUR21WDDUBEMSLDIXZW1FAIHVWXYO","","423.30000019073486","img/food6.png","74","424.7999997138977","1","1","false","1","2","1,0.5,0,1,0.5,0,0.5,0,1","1,0.5,0,1,0.5,0,0.5,0,1","1",""
"","html-keyboard-response","32","54519","0.0-46.0","35GMH2SV3F3V8YOO87580INXVQTOED","AUZNL6ARA1UEC","3HUR21WDDUBEMSLDIXZW1FAIHVWXYO","","null","<img src=""img/food6.png"" style=""width:200px; border:14px solid green;"">","null","","","","","","","","","",""
"","image-keyboard-response","33","54968","0.0-48.0","35GMH2SV3F3V8YOO87580INXVQTOED","AUZNL6ARA1UEC","3HUR21WDDUBEMSLDIXZW1FAIHVWXYO","","445.40000009536743","img/food6.png","74","447.19999980926514","1","1","false","1","2","1,0.5,0,1,0.5,0,0.5,0,1","1,0.5,0,1,0.5,0,0.5,0,1","1",""
"","html-keyboard-response","34","55271","0.0-49.0","35GMH2SV3F3V8YOO87580INXVQTOED","AUZNL6ARA1UEC","3HUR21WDDUBEMSLDIXZW1FAIHVWXYO","","null","<img src=""img/food6.png"" style=""width:200px; border:14px solid green;"">","null","","","","","","","","","",""
"","image-keyboard-response","35","55785","0.0-51.0","35GMH2SV3F3V8YOO87580INXVQTOED","AUZNL6ARA1UEC","3HUR21WDDUBEMSLDIXZW1FAIHVWXYO","","511.69999980926514","img/food4.png","76","513.0999999046326","3","1","false","3","2","1,0.5,0,1,0.5,0,0.5,0,1","1,0.5,0,1,0.5,0,0.5,0,1","1",""
"","html-keyboard-response","36","56088","0.0-52.0","35GMH2SV3F3V8YOO87580INXVQTOED","AUZNL6ARA1UEC","3HUR21WDDUBEMSLDIXZW1FAIHVWXYO","","null","<img src=""img/food4.png"" style=""width:200px; border:14px solid green;"">","null","","","","","","","","","",""
"","image-keyboard-response","37","56573","0.0-54.0","35GMH2SV3F3V8YOO87580INXVQTOED","AUZNL6ARA1UEC","3HUR21WDDUBEMSLDIXZW1FAIHVWXYO","","482.5","img/food6.png","74","484.2999997138977","1","1","false","1","2","1,0.5,0,1,0.5,0,0.5,0,1","1,0.5,0,1,0.5,0,0.5,0,1","1",""
"","html-keyboard-response","38","56877","0.0-55.0","35GMH2SV3F3V8YOO87580INXVQTOED","AUZNL6ARA1UEC","3HUR21WDDUBEMSLDIXZW1FAIHVWXYO","","null","<img src=""img/food6.png"" style=""width:200px; border:14px solid green;"">","null","","","","","","","","","",""
"","image-keyboard-response","39","57291","0.0-57.0","35GMH2SV3F3V8YOO87580INXVQTOED","AUZNL6ARA1UEC","3HUR21WDDUBEMSLDIXZW1FAIHVWXYO","","412.40000009536743","img/food6.png","74","413.90000009536743","1","1","false","1","2","1,0.5,0,1,0.5,0,0.5,0,1","1,0.5,0,1,0.5,0,0.5,0,1","1",""
"","html-keyboard-response","40","57593","0.0-58.0","35GMH2SV3F3V8YOO87580INXVQTOED","AUZNL6ARA1UEC","3HUR21WDDUBEMSLDIXZW1FAIHVWXYO","","null","<img src=""img/food6.png"" style=""width:200px; border:14px solid green;"">","null","","","","","","","","","",""
"","image-keyboard-response","41","57968","0.0-60.0","35GMH2SV3F3V8YOO87580INXVQTOED","AUZNL6ARA1UEC","3HUR21WDDUBEMSLDIXZW1FAIHVWXYO","","372.59999990463257","img/food6.png","74","374.09999990463257","1","1","false","1","2","1,0.5,0,1,0.5,0,0.5,0,1","1,0.5,0,1,0.5,0,0.5,0,1","1",""
"","html-keyboard-response","42","58269","0.0-61.0","35GMH2SV3F3V8YOO87580INXVQTOED","AUZNL6ARA1UEC","3HUR21WDDUBEMSLDIXZW1FAIHVWXYO","","null","<img src=""img/food6.png"" style=""width:200px; border:14px solid green;"">","null","","","","","","","","","",""
"","image-keyboard-response","43","58844","0.0-63.0","35GMH2SV3F3V8YOO87580INXVQTOED","AUZNL6ARA1UEC","3HUR21WDDUBEMSLDIXZW1FAIHVWXYO","","573.0999999046326","img/food4.png","76","574.6999998092651","3","1","false","3","2","1,0.5,0,1,0.5,0,0.5,0,1","1,0.5,0,1,0.5,0,0.5,0,1","1",""
"","html-keyboard-response","44","59148","0.0-64.0","35GMH2SV3F3V8YOO87580INXVQTOED","AUZNL6ARA1UEC","3HUR21WDDUBEMSLDIXZW1FAIHVWXYO","","null","<img src=""img/food4.png"" style=""width:200px; border:14px solid green;"">","null","","","","","","","","","",""
"","image-keyboard-response","45","59495","0.0-66.0","35GMH2SV3F3V8YOO87580INXVQTOED","AUZNL6ARA1UEC","3HUR21WDDUBEMSLDIXZW1FAIHVWXYO","","344.30000019073486","img/food4.png","76","346","3","1","false","3","2","1,0.5,0,1,0.5,0,0.5,0,1","1,0.5,0,1,0.5,0,0.5,0,1","1",""
"","html-keyboard-response","46","59797","0.0-67.0","35GMH2SV3F3V8YOO87580INXVQTOED","AUZNL6ARA1UEC","3HUR21WDDUBEMSLDIXZW1FAIHVWXYO","","null","<img src=""img/food4.png"" style=""width:200px; border:14px solid green;"">","null","","","","","","","","","",""
"","image-keyboard-response","47","60305","0.0-69.0","35GMH2SV3F3V8YOO87580INXVQTOED","AUZNL6ARA1UEC","3HUR21WDDUBEMSLDIXZW1FAIHVWXYO","","506.09999990463257","img/food1.png","74","507","1","1","false","2","2","1,0.5,0,1,0.5,0,0.5,0,1","1,0.5,0,1,0.5,0,0.5,0,1","1",""
"","html-keyboard-response","48","60607","0.0-70.0","35GMH2SV3F3V8YOO87580INXVQTOED","AUZNL6ARA1UEC","3HUR21WDDUBEMSLDIXZW1FAIHVWXYO","","null","<img src=""img/food1.png"" style=""width:200px; border:14px solid green;"">","null","","","","","","","","","",""
"","image-keyboard-response","49","60974","0.0-72.0","35GMH2SV3F3V8YOO87580INXVQTOED","AUZNL6ARA1UEC","3HUR21WDDUBEMSLDIXZW1FAIHVWXYO","","365.1000003814697","img/food1.png","74","366.69999980926514","1","1","false","2","2","1,0.5,0,1,0.5,0,0.5,0,1","1,0.5,0,1,0.5,0,0.5,0,1","1",""
"","html-keyboard-response","50","61276","0.0-73.0","35GMH2SV3F3V8YOO87580INXVQTOED","AUZNL6ARA1UEC","3HUR21WDDUBEMSLDIXZW1FAIHVWXYO","","null","<img src=""img/food1.png"" style=""width:200px; border:14px solid green;"">","null","","","","","","","","","",""
"","image-keyboard-response","51","61760","0.0-75.0","35GMH2SV3F3V8YOO87580INXVQTOED","AUZNL6ARA1UEC","3HUR21WDDUBEMSLDIXZW1FAIHVWXYO","","482.5","img/food4.png","76","483.59999990463257","3","1","false","3","2","1,0.5,0,1,0.5,0,0.5,0,1","1,0.5,0,1,0.5,0,0.5,0,1","1",""
"","html-keyboard-response","52","62063","0.0-76.0","35GMH2SV3F3V8YOO87580INXVQTOED","AUZNL6ARA1UEC","3HUR21WDDUBEMSLDIXZW1FAIHVWXYO","","null","<img src=""img/food4.png"" style=""width:200px; border:14px solid green;"">","null","","","","","","","","","",""
"","image-keyboard-response","53","62386","0.0-78.0","35GMH2SV3F3V8YOO87580INXVQTOED","AUZNL6ARA1UEC","3HUR21WDDUBEMSLDIXZW1FAIHVWXYO","","320.40000009536743","img/food4.png","76","322.09999990463257","3","1","false","3","2","1,0.5,0,1,0.5,0,0.5,0,1","1,0.5,0,1,0.5,0,0.5,0,1","1",""
"","html-keyboard-response","54","62688","0.0-79.0","35GMH2SV3F3V8YOO87580INXVQTOED","AUZNL6ARA1UEC","3HUR21WDDUBEMSLDIXZW1FAIHVWXYO","","null","<img src=""img/food4.png"" style=""width:200px; border:14px solid green;"">","null","","","","","","","","","",""
"","image-keyboard-response","55","63222","0.0-81.0","35GMH2SV3F3V8YOO87580INXVQTOED","AUZNL6ARA1UEC","3HUR21WDDUBEMSLDIXZW1FAIHVWXYO","","531.8000001907349","img/food1.png","74","533.0999999046326","1","1","false","2","2","1,0.5,0,1,0.5,0,0.5,0,1","1,0.5,0,1,0.5,0,0.5,0,1","1",""
"","html-keyboard-response","56","63524","0.0-82.0","35GMH2SV3F3V8YOO87580INXVQTOED","AUZNL6ARA1UEC","3HUR21WDDUBEMSLDIXZW1FAIHVWXYO","","null","<img src=""img/food1.png"" style=""width:200px; border:14px solid green;"">","null","","","","","","","","","",""
"","image-keyboard-response","57","63874","0.0-84.0","35GMH2SV3F3V8YOO87580INXVQTOED","AUZNL6ARA1UEC","3HUR21WDDUBEMSLDIXZW1FAIHVWXYO","","348","img/food1.png","74","349.80000019073486","1","1","false","2","2","1,0.5,0,1,0.5,0,0.5,0,1","1,0.5,0,1,0.5,0,0.5,0,1","1",""
"","html-keyboard-response","58","64178","0.0-85.0","35GMH2SV3F3V8YOO87580INXVQTOED","AUZNL6ARA1UEC","3HUR21WDDUBEMSLDIXZW1FAIHVWXYO","","null","<img src=""img/food1.png"" style=""width:200px; border:14px solid green;"">","null","","","","","","","","","",""
"","image-keyboard-response","59","64676","0.0-87.0","35GMH2SV3F3V8YOO87580INXVQTOED","AUZNL6ARA1UEC","3HUR21WDDUBEMSLDIXZW1FAIHVWXYO","","495.59999990463257","img/food4.png","76","497.2000002861023","3","1","false","3","2","1,0.5,0,1,0.5,0,0.5,0,1","1,0.5,0,1,0.5,0,0.5,0,1","1",""
"","html-keyboard-response","60","64978","0.0-88.0","35GMH2SV3F3V8YOO87580INXVQTOED","AUZNL6ARA1UEC","3HUR21WDDUBEMSLDIXZW1FAIHVWXYO","","null","<img src=""img/food4.png"" style=""width:200px; border:14px solid green;"">","null","","","","","","","","","",""
"","image-keyboard-response","61","65513","0.0-90.0","35GMH2SV3F3V8YOO87580INXVQTOED","AUZNL6ARA1UEC","3HUR21WDDUBEMSLDIXZW1FAIHVWXYO","","533.4000000953674","img/food1.png","74","534","1","1","false","2","2","1,0.5,0,1,0.5,0,0.5,0,1","1,0.5,0,1,0.5,0,0.5,0,1","1",""
"","html-keyboard-response","62","65814","0.0-91.0","35GMH2SV3F3V8YOO87580INXVQTOED","AUZNL6ARA1UEC","3HUR21WDDUBEMSLDIXZW1FAIHVWXYO","","null","<img src=""img/food1.png"" style=""width:200px; border:14px solid green;"">","null","","","","","","","","","",""
"","image-keyboard-response","63","66229","0.0-93.0","35GMH2SV3F3V8YOO87580INXVQTOED","AUZNL6ARA1UEC","3HUR21WDDUBEMSLDIXZW1FAIHVWXYO","","412.19999980926514","img/food1.png","74","413.8999996185303","1","1","false","2","2","1,0.5,0,1,0.5,0,0.5,0,1","1,0.5,0,1,0.5,0,0.5,0,1","1",""
"","html-keyboard-response","64","66532","0.0-94.0","35GMH2SV3F3V8YOO87580INXVQTOED","AUZNL6ARA1UEC","3HUR21WDDUBEMSLDIXZW1FAIHVWXYO","","null","<img src=""img/food1.png"" style=""width:200px; border:14px solid green;"">","null","","","","","","","","","",""
"","image-keyboard-response","65","67133","0.0-96.0","35GMH2SV3F3V8YOO87580INXVQTOED","AUZNL6ARA1UEC","3HUR21WDDUBEMSLDIXZW1FAIHVWXYO","","600.3000001907349","img/food6.png","75","601.2999997138977","2","1","false","1","2","1,0.5,0,1,0.5,0,0.5,0,1","1,0.5,0,1,0.5,0,0.5,0,1","1",""
"","html-keyboard-response","66","67437","0.0-97.0","35GMH2SV3F3V8YOO87580INXVQTOED","AUZNL6ARA1UEC","3HUR21WDDUBEMSLDIXZW1FAIHVWXYO","","null","<img src=""img/food6.png"" style=""width:200px; border:14px solid green;"">","null","","","","","","","","","",""
"","image-keyboard-response","67","67827","0.0-99.0","35GMH2SV3F3V8YOO87580INXVQTOED","AUZNL6ARA1UEC","3HUR21WDDUBEMSLDIXZW1FAIHVWXYO","","387.7999997138977","img/food6.png","75","389.09999990463257","2","0","false","1","2","1,0.5,0,1,0.5,0,0.5,0,1","1,0.5,0,1,0.5,0,0.5,0,1","1",""
"","html-keyboard-response","68","68129","0.0-100.0","35GMH2SV3F3V8YOO87580INXVQTOED","AUZNL6ARA1UEC","3HUR21WDDUBEMSLDIXZW1FAIHVWXYO","","null","<img src=""img/food6.png"" style=""width:200px;border:14px solid red;"">","null","","","","","","","","","",""
"","image-keyboard-response","69","68951","0.0-102.0","35GMH2SV3F3V8YOO87580INXVQTOED","AUZNL6ARA1UEC","3HUR21WDDUBEMSLDIXZW1FAIHVWXYO","","820.2000002861023","img/food1.png","74","821.9000000953674","1","1","false","2","2","1,0.5,0,1,0.5,0,0.5,0,1","1,0.5,0,1,0.5,0,0.5,0,1","1",""
"","html-keyboard-response","70","69254","0.0-103.0","35GMH2SV3F3V8YOO87580INXVQTOED","AUZNL6ARA1UEC","3HUR21WDDUBEMSLDIXZW1FAIHVWXYO","","null","<img src=""img/food1.png"" style=""width:200px; border:14px solid green;"">","null","","","","","","","","","",""
"","image-keyboard-response","71","69835","0.0-105.0","35GMH2SV3F3V8YOO87580INXVQTOED","AUZNL6ARA1UEC","3HUR21WDDUBEMSLDIXZW1FAIHVWXYO","","579.0999999046326","img/food6.png","74","580.8000001907349","1","1","false","1","2","1,0.5,0,1,0.5,0,0.5,0,1","1,0.5,0,1,0.5,0,0.5,0,1","1",""
"","html-keyboard-response","72","70138","0.0-106.0","35GMH2SV3F3V8YOO87580INXVQTOED","AUZNL6ARA1UEC","3HUR21WDDUBEMSLDIXZW1FAIHVWXYO","","null","<img src=""img/food6.png"" style=""width:200px; border:14px solid green;"">","null","","","","","","","","","",""
"","image-keyboard-response","73","70636","0.0-108.0","35GMH2SV3F3V8YOO87580INXVQTOED","AUZNL6ARA1UEC","3HUR21WDDUBEMSLDIXZW1FAIHVWXYO","","494.90000009536743","img/food1.png","74","496.80000019073486","1","1","false","2","2","1,0.5,0,1,0.5,0,0.5,0,1","1,0.5,0,1,0.5,0,0.5,0,1","1",""
"","html-keyboard-response","74","70940","0.0-109.0","35GMH2SV3F3V8YOO87580INXVQTOED","AUZNL6ARA1UEC","3HUR21WDDUBEMSLDIXZW1FAIHVWXYO","","null","<img src=""img/food1.png"" style=""width:200px; border:14px solid green;"">","null","","","","","","","","","",""
"","image-keyboard-response","75","71398","0.0-111.0","35GMH2SV3F3V8YOO87580INXVQTOED","AUZNL6ARA1UEC","3HUR21WDDUBEMSLDIXZW1FAIHVWXYO","","456.40000009536743","img/food1.png","74","457.59999990463257","1","1","false","2","2","1,0.5,0,1,0.5,0,0.5,0,1","1,0.5,0,1,0.5,0,0.5,0,1","1",""
"","html-keyboard-response","76","71700","0.0-112.0","35GMH2SV3F3V8YOO87580INXVQTOED","AUZNL6ARA1UEC","3HUR21WDDUBEMSLDIXZW1FAIHVWXYO","","null","<img src=""img/food1.png"" style=""width:200px; border:14px solid green;"">","null","","","","","","","","","",""
"","image-keyboard-response","77","72114","0.0-114.0","35GMH2SV3F3V8YOO87580INXVQTOED","AUZNL6ARA1UEC","3HUR21WDDUBEMSLDIXZW1FAIHVWXYO","","412.7999997138977","img/food1.png","74","413.8999996185303","1","1","false","2","2","1,0.5,0,1,0.5,0,0.5,0,1","1,0.5,0,1,0.5,0,0.5,0,1","1",""
"","html-keyboard-response","78","72417","0.0-115.0","35GMH2SV3F3V8YOO87580INXVQTOED","AUZNL6ARA1UEC","3HUR21WDDUBEMSLDIXZW1FAIHVWXYO","","null","<img src=""img/food1.png"" style=""width:200px; border:14px solid green;"">","null","","","","","","","","","",""
"","image-keyboard-response","79","72939","0.0-117.0","35GMH2SV3F3V8YOO87580INXVQTOED","AUZNL6ARA1UEC","3HUR21WDDUBEMSLDIXZW1FAIHVWXYO","","519.2999997138977","img/food4.png","76","521.2000002861023","3","1","false","3","2","1,0.5,0,1,0.5,0,0.5,0,1","1,0.5,0,1,0.5,0,0.5,0,1","1",""
"","html-keyboard-response","80","73242","0.0-118.0","35GMH2SV3F3V8YOO87580INXVQTOED","AUZNL6ARA1UEC","3HUR21WDDUBEMSLDIXZW1FAIHVWXYO","","null","<img src=""img/food4.png"" style=""width:200px; border:14px solid green;"">","null","","","","","","","","","",""
"","image-keyboard-response","81","73800","0.0-120.0","35GMH2SV3F3V8YOO87580INXVQTOED","AUZNL6ARA1UEC","3HUR21WDDUBEMSLDIXZW1FAIHVWXYO","","556","img/food6.png","74","557.5999999046326","1","1","false","1","2","1,0.5,0,1,0.5,0,0.5,0,1","1,0.5,0,1,0.5,0,0.5,0,1","1",""
"","html-keyboard-response","82","74114","0.0-121.0","35GMH2SV3F3V8YOO87580INXVQTOED","AUZNL6ARA1UEC","3HUR21WDDUBEMSLDIXZW1FAIHVWXYO","","null","<img src=""img/food6.png"" style=""width:200px; border:14px solid green;"">","null","","","","","","","","","",""
"","image-keyboard-response","83","74523","0.0-123.0","35GMH2SV3F3V8YOO87580INXVQTOED","AUZNL6ARA1UEC","3HUR21WDDUBEMSLDIXZW1FAIHVWXYO","","407.40000009536743","img/food6.png","74","408.7999997138977","1","1","false","1","2","1,0.5,0,1,0.5,0,0.5,0,1","1,0.5,0,1,0.5,0,0.5,0,1","1",""
"","html-keyboard-response","84","74826","0.0-124.0","35GMH2SV3F3V8YOO87580INXVQTOED","AUZNL6ARA1UEC","3HUR21WDDUBEMSLDIXZW1FAIHVWXYO","","null","<img src=""img/food6.png"" style=""width:200px; border:14px solid green;"">","null","","","","","","","","","",""
"","image-keyboard-response","85","75391","0.0-126.0","35GMH2SV3F3V8YOO87580INXVQTOED","AUZNL6ARA1UEC","3HUR21WDDUBEMSLDIXZW1FAIHVWXYO","","563.1999998092651","img/food1.png","74","565","1","1","false","2","2","1,0.5,0,1,0.5,0,0.5,0,1","1,0.5,0,1,0.5,0,0.5,0,1","1",""
"","html-keyboard-response","86","75695","0.0-127.0","35GMH2SV3F3V8YOO87580INXVQTOED","AUZNL6ARA1UEC","3HUR21WDDUBEMSLDIXZW1FAIHVWXYO","","null","<img src=""img/food1.png"" style=""width:200px; border:14px solid green;"">","null","","","","","","","","","",""
"","image-keyboard-response","87","76314","0.0-129.0","35GMH2SV3F3V8YOO87580INXVQTOED","AUZNL6ARA1UEC","3HUR21WDDUBEMSLDIXZW1FAIHVWXYO","","616","img/food4.png","76","617.5999999046326","3","1","false","3","2","1,0.5,0,1,0.5,0,0.5,0,1","1,0.5,0,1,0.5,0,0.5,0,1","1",""
"","html-keyboard-response","88","76616","0.0-130.0","35GMH2SV3F3V8YOO87580INXVQTOED","AUZNL6ARA1UEC","3HUR21WDDUBEMSLDIXZW1FAIHVWXYO","","null","<img src=""img/food4.png"" style=""width:200px; border:14px solid green;"">","null","","","","","","","","","",""
"","image-keyboard-response","89","76953","0.0-132.0","35GMH2SV3F3V8YOO87580INXVQTOED","AUZNL6ARA1UEC","3HUR21WDDUBEMSLDIXZW1FAIHVWXYO","","334.2999997138977","img/food4.png","76","336","3","1","false","3","2","1,0.5,0,1,0.5,0,0.5,0,1","1,0.5,0,1,0.5,0,0.5,0,1","1",""
"","html-keyboard-response","90","77256","0.0-133.0","35GMH2SV3F3V8YOO87580INXVQTOED","AUZNL6ARA1UEC","3HUR21WDDUBEMSLDIXZW1FAIHVWXYO","","null","<img src=""img/food4.png"" style=""width:200px; border:14px solid green;"">","null","","","","","","","","","",""
"","image-keyboard-response","91","77649","0.0-135.0","35GMH2SV3F3V8YOO87580INXVQTOED","AUZNL6ARA1UEC","3HUR21WDDUBEMSLDIXZW1FAIHVWXYO","","392.09999990463257","img/food4.png","76","393.09999990463257","3","1","false","3","2","1,0.5,0,1,0.5,0,0.5,0,1","1,0.5,0,1,0.5,0,0.5,0,1","1",""
"","html-keyboard-response","92","77951","0.0-136.0","35GMH2SV3F3V8YOO87580INXVQTOED","AUZNL6ARA1UEC","3HUR21WDDUBEMSLDIXZW1FAIHVWXYO","","null","<img src=""img/food4.png"" style=""width:200px; border:14px solid green;"">","null","","","","","","","","","",""
"","image-keyboard-response","93","78485","0.0-138.0","35GMH2SV3F3V8YOO87580INXVQTOED","AUZNL6ARA1UEC","3HUR21WDDUBEMSLDIXZW1FAIHVWXYO","","531","img/food6.png","74","532.8000001907349","1","1","false","1","2","1,0.5,0,1,0.5,0,0.5,0,1","1,0.5,0,1,0.5,0,0.5,0,1","1",""
"","html-keyboard-response","94","78788","0.0-139.0","35GMH2SV3F3V8YOO87580INXVQTOED","AUZNL6ARA1UEC","3HUR21WDDUBEMSLDIXZW1FAIHVWXYO","","null","<img src=""img/food6.png"" style=""width:200px; border:14px solid green;"">","null","","","","","","","","","",""
"","image-keyboard-response","95","79478","0.0-141.0","35GMH2SV3F3V8YOO87580INXVQTOED","AUZNL6ARA1UEC","3HUR21WDDUBEMSLDIXZW1FAIHVWXYO","","687.4000000953674","img/food4.png","76","689.2000002861023","3","1","false","3","2","1,0.5,0,1,0.5,0,0.5,0,1","1,0.5,0,1,0.5,0,0.5,0,1","1",""
"","html-keyboard-response","96","79780","0.0-142.0","35GMH2SV3F3V8YOO87580INXVQTOED","AUZNL6ARA1UEC","3HUR21WDDUBEMSLDIXZW1FAIHVWXYO","","null","<img src=""img/food4.png"" style=""width:200px; border:14px solid green;"">","null","","","","","","","","","",""
"","image-keyboard-response","97","80110","0.0-144.0","35GMH2SV3F3V8YOO87580INXVQTOED","AUZNL6ARA1UEC","3HUR21WDDUBEMSLDIXZW1FAIHVWXYO","","327.3999996185303","img/food4.png","76","329.09999990463257","3","1","false","3","2","1,0.5,0,1,0.5,0,0.5,0,1","1,0.5,0,1,0.5,0,0.5,0,1","1",""
"","html-keyboard-response","98","80414","0.0-145.0","35GMH2SV3F3V8YOO87580INXVQTOED","AUZNL6ARA1UEC","3HUR21WDDUBEMSLDIXZW1FAIHVWXYO","","null","<img src=""img/food4.png"" style=""width:200px; border:14px solid green;"">","null","","","","","","","","","",""
"","image-keyboard-response","99","80835","0.0-147.0","35GMH2SV3F3V8YOO87580INXVQTOED","AUZNL6ARA1UEC","3HUR21WDDUBEMSLDIXZW1FAIHVWXYO","","419.19999980926514","img/food4.png","76","421","3","1","false","3","2","1,0.5,0,1,0.5,0,0.5,0,1","1,0.5,0,1,0.5,0,0.5,0,1","1",""
"","html-keyboard-response","100","81138","0.0-148.0","35GMH2SV3F3V8YOO87580INXVQTOED","AUZNL6ARA1UEC","3HUR21WDDUBEMSLDIXZW1FAIHVWXYO","","null","<img src=""img/food4.png"" style=""width:200px; border:14px solid green;"">","null","","","","","","","","","",""
"","image-keyboard-response","101","81603","0.0-150.0","35GMH2SV3F3V8YOO87580INXVQTOED","AUZNL6ARA1UEC","3HUR21WDDUBEMSLDIXZW1FAIHVWXYO","","462","img/food6.png","74","463.80000019073486","1","1","false","1","2","1,0.5,0,1,0.5,0,0.5,0,1","1,0.5,0,1,0.5,0,0.5,0,1","1",""
"","html-keyboard-response","102","81906","0.0-151.0","35GMH2SV3F3V8YOO87580INXVQTOED","AUZNL6ARA1UEC","3HUR21WDDUBEMSLDIXZW1FAIHVWXYO","","null","<img src=""img/food6.png"" style=""width:200px; border:14px solid green;"">","null","","","","","","","","","",""
"","image-keyboard-response","103","82525","0.0-153.0","35GMH2SV3F3V8YOO87580INXVQTOED","AUZNL6ARA1UEC","3HUR21WDDUBEMSLDIXZW1FAIHVWXYO","","617.3000001907349","img/food4.png","76","618.4000000953674","3","1","false","3","2","1,0.5,0,1,0.5,0,0.5,0,1","1,0.5,0,1,0.5,0,0.5,0,1","1",""
"","html-keyboard-response","104","82828","0.0-154.0","35GMH2SV3F3V8YOO87580INXVQTOED","AUZNL6ARA1UEC","3HUR21WDDUBEMSLDIXZW1FAIHVWXYO","","null","<img src=""img/food4.png"" style=""width:200px; border:14px solid green;"">","null","","","","","","","","","",""
"","image-keyboard-response","105","83401","0.0-156.0","35GMH2SV3F3V8YOO87580INXVQTOED","AUZNL6ARA1UEC","3HUR21WDDUBEMSLDIXZW1FAIHVWXYO","","570.3000001907349","img/food1.png","74","572.1999998092651","1","1","false","2","2","1,0.5,0,1,0.5,0,0.5,0,1","1,0.5,0,1,0.5,0,0.5,0,1","1",""
"","html-keyboard-response","106","83704","0.0-157.0","35GMH2SV3F3V8YOO87580INXVQTOED","AUZNL6ARA1UEC","3HUR21WDDUBEMSLDIXZW1FAIHVWXYO","","null","<img src=""img/food1.png"" style=""width:200px; border:14px solid green;"">","null","","","","","","","","","",""
"","image-keyboard-response","107","84524","0.0-159.0","35GMH2SV3F3V8YOO87580INXVQTOED","AUZNL6ARA1UEC","3HUR21WDDUBEMSLDIXZW1FAIHVWXYO","","817.5","img/food6.png","74","819.1999998092651","1","1","false","1","2","1,0.5,0,1,0.5,0,0.5,0,1","1,0.5,0,1,0.5,0,0.5,0,1","1",""
"","html-keyboard-response","108","84827","0.0-160.0","35GMH2SV3F3V8YOO87580INXVQTOED","AUZNL6ARA1UEC","3HUR21WDDUBEMSLDIXZW1FAIHVWXYO","","null","<img src=""img/food6.png"" style=""width:200px; border:14px solid green;"">","null","","","","","","","","","",""
"","image-keyboard-response","109","85137","0.0-162.0","35GMH2SV3F3V8YOO87580INXVQTOED","AUZNL6ARA1UEC","3HUR21WDDUBEMSLDIXZW1FAIHVWXYO","","308.19999980926514","img/food6.png","74","309.8999996185303","1","1","false","1","2","1,0.5,0,1,0.5,0,0.5,0,1","1,0.5,0,1,0.5,0,0.5,0,1","1",""
"","html-keyboard-response","110","85440","0.0-163.0","35GMH2SV3F3V8YOO87580INXVQTOED","AUZNL6ARA1UEC","3HUR21WDDUBEMSLDIXZW1FAIHVWXYO","","null","<img src=""img/food6.png"" style=""width:200px; border:14px solid green;"">","null","","","","","","","","","",""
"","image-keyboard-response","111","85807","0.0-165.0","35GMH2SV3F3V8YOO87580INXVQTOED","AUZNL6ARA1UEC","3HUR21WDDUBEMSLDIXZW1FAIHVWXYO","","366.2000002861023","img/food6.png","74","367","1","1","false","1","2","1,0.5,0,1,0.5,0,0.5,0,1","1,0.5,0,1,0.5,0,0.5,0,1","1",""
"","html-keyboard-response","112","86109","0.0-166.0","35GMH2SV3F3V8YOO87580INXVQTOED","AUZNL6ARA1UEC","3HUR21WDDUBEMSLDIXZW1FAIHVWXYO","","null","<img src=""img/food6.png"" style=""width:200px; border:14px solid green;"">","null","","","","","","","","","",""
"","image-keyboard-response","113","86565","0.0-168.0","35GMH2SV3F3V8YOO87580INXVQTOED","AUZNL6ARA1UEC","3HUR21WDDUBEMSLDIXZW1FAIHVWXYO","","453.5","img/food6.png","74","454.90000009536743","1","1","false","1","2","1,0.5,0,1,0.5,0,0.5,0,1","1,0.5,0,1,0.5,0,0.5,0,1","1",""
"","html-keyboard-response","114","86867","0.0-169.0","35GMH2SV3F3V8YOO87580INXVQTOED","AUZNL6ARA1UEC","3HUR21WDDUBEMSLDIXZW1FAIHVWXYO","","null","<img src=""img/food6.png"" style=""width:200px; border:14px solid green;"">","null","","","","","","","","","",""
"","image-keyboard-response","115","87468","0.0-171.0","35GMH2SV3F3V8YOO87580INXVQTOED","AUZNL6ARA1UEC","3HUR21WDDUBEMSLDIXZW1FAIHVWXYO","","598.6999998092651","img/food1.png","74","600","1","1","false","2","2","1,0.5,0,1,0.5,0,0.5,0,1","1,0.5,0,1,0.5,0,0.5,0,1","1",""
"","html-keyboard-response","116","87770","0.0-172.0","35GMH2SV3F3V8YOO87580INXVQTOED","AUZNL6ARA1UEC","3HUR21WDDUBEMSLDIXZW1FAIHVWXYO","","null","<img src=""img/food1.png"" style=""width:200px; border:14px solid green;"">","null","","","","","","","","","",""
"","image-keyboard-response","117","88218","0.0-174.0","35GMH2SV3F3V8YOO87580INXVQTOED","AUZNL6ARA1UEC","3HUR21WDDUBEMSLDIXZW1FAIHVWXYO","","445.7999997138977","img/food6.png","74","447.2000002861023","1","1","false","1","2","1,0.5,0,1,0.5,0,0.5,0,1","1,0.5,0,1,0.5,0,0.5,0,1","1",""
"","html-keyboard-response","118","88521","0.0-175.0","35GMH2SV3F3V8YOO87580INXVQTOED","AUZNL6ARA1UEC","3HUR21WDDUBEMSLDIXZW1FAIHVWXYO","","null","<img src=""img/food6.png"" style=""width:200px; border:14px solid green;"">","null","","","","","","","","","",""
"","image-keyboard-response","119","89000","0.0-177.0","35GMH2SV3F3V8YOO87580INXVQTOED","AUZNL6ARA1UEC","3HUR21WDDUBEMSLDIXZW1FAIHVWXYO","","476.19999980926514","img/food1.png","74","478","1","1","false","2","2","1,0.5,0,1,0.5,0,0.5,0,1","1,0.5,0,1,0.5,0,0.5,0,1","1",""
"","html-keyboard-response","120","89303","0.0-178.0","35GMH2SV3F3V8YOO87580INXVQTOED","AUZNL6ARA1UEC","3HUR21WDDUBEMSLDIXZW1FAIHVWXYO","","null","<img src=""img/food1.png"" style=""width:200px; border:14px solid green;"">","null","","","","","","","","","",""
"","image-keyboard-response","121","89720","0.0-180.0","35GMH2SV3F3V8YOO87580INXVQTOED","AUZNL6ARA1UEC","3HUR21WDDUBEMSLDIXZW1FAIHVWXYO","","414.90000009536743","img/food6.png","74","416.5","1","1","false","1","2","1,0.5,0,1,0.5,0,0.5,0,1","1,0.5,0,1,0.5,0,0.5,0,1","1",""
"","html-keyboard-response","122","90023","0.0-181.0","35GMH2SV3F3V8YOO87580INXVQTOED","AUZNL6ARA1UEC","3HUR21WDDUBEMSLDIXZW1FAIHVWXYO","","null","<img src=""img/food6.png"" style=""width:200px; border:14px solid green;"">","null","","","","","","","","","",""
"","image-keyboard-response","123","90660","0.0-183.0","35GMH2SV3F3V8YOO87580INXVQTOED","AUZNL6ARA1UEC","3HUR21WDDUBEMSLDIXZW1FAIHVWXYO","","635","img/food4.png","76","636.6999998092651","3","1","false","3","2","1,0.5,0,1,0.5,0,0.5,0,1","1,0.5,0,1,0.5,0,0.5,0,1","1",""
"","html-keyboard-response","124","90963","0.0-184.0","35GMH2SV3F3V8YOO87580INXVQTOED","AUZNL6ARA1UEC","3HUR21WDDUBEMSLDIXZW1FAIHVWXYO","","null","<img src=""img/food4.png"" style=""width:200px; border:14px solid green;"">","null","","","","","","","","","",""
"","image-keyboard-response","125","91490","0.0-186.0","35GMH2SV3F3V8YOO87580INXVQTOED","AUZNL6ARA1UEC","3HUR21WDDUBEMSLDIXZW1FAIHVWXYO","","524.1999998092651","img/food1.png","74","525.6999998092651","1","1","false","2","2","1,0.5,0,1,0.5,0,0.5,0,1","1,0.5,0,1,0.5,0,0.5,0,1","1",""
"","html-keyboard-response","126","91792","0.0-187.0","35GMH2SV3F3V8YOO87580INXVQTOED","AUZNL6ARA1UEC","3HUR21WDDUBEMSLDIXZW1FAIHVWXYO","","null","<img src=""img/food1.png"" style=""width:200px; border:14px solid green;"">","null","","","","","","","","","",""
"","image-keyboard-response","127","92179","0.0-189.0","35GMH2SV3F3V8YOO87580INXVQTOED","AUZNL6ARA1UEC","3HUR21WDDUBEMSLDIXZW1FAIHVWXYO","","385.40000009536743","img/food1.png","74","386.90000009536743","1","1","false","2","2","1,0.5,0,1,0.5,0,0.5,0,1","1,0.5,0,1,0.5,0,0.5,0,1","1",""
"","html-keyboard-response","128","92481","0.0-190.0","35GMH2SV3F3V8YOO87580INXVQTOED","AUZNL6ARA1UEC","3HUR21WDDUBEMSLDIXZW1FAIHVWXYO","","null","<img src=""img/food1.png"" style=""width:200px; border:14px solid green;"">","null","","","","","","","","","",""
"","image-keyboard-response","129","93093","0.0-192.0","35GMH2SV3F3V8YOO87580INXVQTOED","AUZNL6ARA1UEC","3HUR21WDDUBEMSLDIXZW1FAIHVWXYO","","610.0999999046326","img/food4.png","76","611.0999999046326","3","1","false","3","2","1,0.5,0,1,0.5,0,0.5,0,1","1,0.5,0,1,0.5,0,0.5,0,1","1",""
"","html-keyboard-response","130","93395","0.0-193.0","35GMH2SV3F3V8YOO87580INXVQTOED","AUZNL6ARA1UEC","3HUR21WDDUBEMSLDIXZW1FAIHVWXYO","","null","<img src=""img/food4.png"" style=""width:200px; border:14px solid green;"">","null","","","","","","","","","",""
"","image-keyboard-response","131","93936","0.0-195.0","35GMH2SV3F3V8YOO87580INXVQTOED","AUZNL6ARA1UEC","3HUR21WDDUBEMSLDIXZW1FAIHVWXYO","","537.5999999046326","img/food1.png","74","539.4000000953674","1","1","false","2","2","1,0.5,0,1,0.5,0,0.5,0,1","1,0.5,0,1,0.5,0,0.5,0,1","1",""
"","html-keyboard-response","132","94238","0.0-196.0","35GMH2SV3F3V8YOO87580INXVQTOED","AUZNL6ARA1UEC","3HUR21WDDUBEMSLDIXZW1FAIHVWXYO","","null","<img src=""img/food1.png"" style=""width:200px; border:14px solid green;"">","null","","","","","","","","","",""
"","image-keyboard-response","133","94594","0.0-198.0","35GMH2SV3F3V8YOO87580INXVQTOED","AUZNL6ARA1UEC","3HUR21WDDUBEMSLDIXZW1FAIHVWXYO","","354.90000009536743","img/food1.png","74","355.7000002861023","1","1","false","2","2","1,0.5,0,1,0.5,0,0.5,0,1","1,0.5,0,1,0.5,0,0.5,0,1","1",""
"","html-keyboard-response","134","94896","0.0-199.0","35GMH2SV3F3V8YOO87580INXVQTOED","AUZNL6ARA1UEC","3HUR21WDDUBEMSLDIXZW1FAIHVWXYO","","null","<img src=""img/food1.png"" style=""width:200px; border:14px solid green;"">","null","","","","","","","","","",""
"","image-keyboard-response","135","95403","0.0-201.0","35GMH2SV3F3V8YOO87580INXVQTOED","AUZNL6ARA1UEC","3HUR21WDDUBEMSLDIXZW1FAIHVWXYO","","504.5","img/food6.png","76","506.09999990463257","3","0","false","1","2","1,0.5,0,1,0.5,0,0.5,0,1","1,0.5,0,1,0.5,0,0.5,0,1","1",""
"","html-keyboard-response","136","95707","0.0-202.0","35GMH2SV3F3V8YOO87580INXVQTOED","AUZNL6ARA1UEC","3HUR21WDDUBEMSLDIXZW1FAIHVWXYO","","null","<img src=""img/food6.png"" style=""width:200px;border:14px solid red;"">","null","","","","","","","","","",""
"","image-keyboard-response","137","95936","0.0-204.0","35GMH2SV3F3V8YOO87580INXVQTOED","AUZNL6ARA1UEC","3HUR21WDDUBEMSLDIXZW1FAIHVWXYO","","228.59999990463257","img/food6.png","74","229.5","1","1","false","1","2","1,0.5,0,1,0.5,0,0.5,0,1","1,0.5,0,1,0.5,0,0.5,0,1","1",""
"","html-keyboard-response","138","96240","0.0-205.0","35GMH2SV3F3V8YOO87580INXVQTOED","AUZNL6ARA1UEC","3HUR21WDDUBEMSLDIXZW1FAIHVWXYO","","null","<img src=""img/food6.png"" style=""width:200px; border:14px solid green;"">","null","","","","","","","","","",""
"","image-keyboard-response","139","96770","0.0-207.0","35GMH2SV3F3V8YOO87580INXVQTOED","AUZNL6ARA1UEC","3HUR21WDDUBEMSLDIXZW1FAIHVWXYO","","529.2000002861023","img/food6.png","74","530.2999997138977","1","1","false","1","2","1,0.5,0,1,0.5,0,0.5,0,1","1,0.5,0,1,0.5,0,0.5,0,1","1",""
"","html-keyboard-response","140","97072","0.0-208.0","35GMH2SV3F3V8YOO87580INXVQTOED","AUZNL6ARA1UEC","3HUR21WDDUBEMSLDIXZW1FAIHVWXYO","","null","<img src=""img/food6.png"" style=""width:200px; border:14px solid green;"">","null","","","","","","","","","",""
"","image-keyboard-response","141","97798","0.0-210.0","35GMH2SV3F3V8YOO87580INXVQTOED","AUZNL6ARA1UEC","3HUR21WDDUBEMSLDIXZW1FAIHVWXYO","","721.7999997138977","img/food4.png","76","723.3999996185303","3","1","false","3","2","1,0.5,0,1,0.5,0,0.5,0,1","1,0.5,0,1,0.5,0,0.5,0,1","1",""
"","html-keyboard-response","142","98102","0.0-211.0","35GMH2SV3F3V8YOO87580INXVQTOED","AUZNL6ARA1UEC","3HUR21WDDUBEMSLDIXZW1FAIHVWXYO","","null","<img src=""img/food4.png"" style=""width:200px; border:14px solid green;"">","null","","","","","","","","","",""
"","image-keyboard-response","143","98644","0.0-213.0","35GMH2SV3F3V8YOO87580INXVQTOED","AUZNL6ARA1UEC","3HUR21WDDUBEMSLDIXZW1FAIHVWXYO","","540.1999998092651","img/food1.png","74","541.7000002861023","1","1","false","2","2","1,0.5,0,1,0.5,0,0.5,0,1","1,0.5,0,1,0.5,0,0.5,0,1","1",""
"","html-keyboard-response","144","98946","0.0-214.0","35GMH2SV3F3V8YOO87580INXVQTOED","AUZNL6ARA1UEC","3HUR21WDDUBEMSLDIXZW1FAIHVWXYO","","null","<img src=""img/food1.png"" style=""width:200px; border:14px solid green;"">","null","","","","","","","","","",""
"","image-keyboard-response","145","99323","0.0-216.0","35GMH2SV3F3V8YOO87580INXVQTOED","AUZNL6ARA1UEC","3HUR21WDDUBEMSLDIXZW1FAIHVWXYO","","376.59999990463257","img/food1.png","74","377.30000019073486","1","1","false","2","2","1,0.5,0,1,0.5,0,0.5,0,1","1,0.5,0,1,0.5,0,0.5,0,1","1",""
"","html-keyboard-response","146","99624","0.0-217.0","35GMH2SV3F3V8YOO87580INXVQTOED","AUZNL6ARA1UEC","3HUR21WDDUBEMSLDIXZW1FAIHVWXYO","","null","<img src=""img/food1.png"" style=""width:200px; border:14px solid green;"">","null","","","","","","","","","",""
"","image-keyboard-response","147","100241","0.0-219.0","35GMH2SV3F3V8YOO87580INXVQTOED","AUZNL6ARA1UEC","3HUR21WDDUBEMSLDIXZW1FAIHVWXYO","","614","img/food4.png","76","615.6999998092651","3","1","false","3","2","1,0.5,0,1,0.5,0,0.5,0,1","1,0.5,0,1,0.5,0,0.5,0,1","1",""
"","html-keyboard-response","148","100544","0.0-220.0","35GMH2SV3F3V8YOO87580INXVQTOED","AUZNL6ARA1UEC","3HUR21WDDUBEMSLDIXZW1FAIHVWXYO","","null","<img src=""img/food4.png"" style=""width:200px; border:14px solid green;"">","null","","","","","","","","","",""
"","image-keyboard-response","149","101078","0.0-222.0","35GMH2SV3F3V8YOO87580INXVQTOED","AUZNL6ARA1UEC","3HUR21WDDUBEMSLDIXZW1FAIHVWXYO","","531.2000002861023","img/food6.png","74","533","1","1","false","1","2","1,0.5,0,1,0.5,0,0.5,0,1","1,0.5,0,1,0.5,0,0.5,0,1","1",""
"","html-keyboard-response","150","101380","0.0-223.0","35GMH2SV3F3V8YOO87580INXVQTOED","AUZNL6ARA1UEC","3HUR21WDDUBEMSLDIXZW1FAIHVWXYO","","null","<img src=""img/food6.png"" style=""width:200px; border:14px solid green;"">","null","","","","","","","","","",""
"","image-keyboard-response","151","102029","0.0-225.0","35GMH2SV3F3V8YOO87580INXVQTOED","AUZNL6ARA1UEC","3HUR21WDDUBEMSLDIXZW1FAIHVWXYO","","648","img/food6.png","74","648.9000000953674","1","1","false","1","2","1,0.5,0,1,0.5,0,0.5,0,1","1,0.5,0,1,0.5,0,0.5,0,1","1",""
"","html-keyboard-response","152","102332","0.0-226.0","35GMH2SV3F3V8YOO87580INXVQTOED","AUZNL6ARA1UEC","3HUR21WDDUBEMSLDIXZW1FAIHVWXYO","","null","<img src=""img/food6.png"" style=""width:200px; border:14px solid green;"">","null","","","","","","","","","",""
"","image-keyboard-response","153","102989","0.0-228.0","35GMH2SV3F3V8YOO87580INXVQTOED","AUZNL6ARA1UEC","3HUR21WDDUBEMSLDIXZW1FAIHVWXYO","","654.5999999046326","img/food4.png","76","655.8000001907349","3","1","false","3","2","1,0.5,0,1,0.5,0,0.5,0,1","1,0.5,0,1,0.5,0,0.5,0,1","1",""
"","html-keyboard-response","154","103290","0.0-229.0","35GMH2SV3F3V8YOO87580INXVQTOED","AUZNL6ARA1UEC","3HUR21WDDUBEMSLDIXZW1FAIHVWXYO","","null","<img src=""img/food4.png"" style=""width:200px; border:14px solid green;"">","null","","","","","","","","","",""
"","image-keyboard-response","155","103830","0.0-231.0","35GMH2SV3F3V8YOO87580INXVQTOED","AUZNL6ARA1UEC","3HUR21WDDUBEMSLDIXZW1FAIHVWXYO","","537.6999998092651","img/food1.png","74","539.5","1","1","false","2","2","1,0.5,0,1,0.5,0,0.5,0,1","1,0.5,0,1,0.5,0,0.5,0,1","1",""
"","html-keyboard-response","156","104133","0.0-232.0","35GMH2SV3F3V8YOO87580INXVQTOED","AUZNL6ARA1UEC","3HUR21WDDUBEMSLDIXZW1FAIHVWXYO","","null","<img src=""img/food1.png"" style=""width:200px; border:14px solid green;"">","null","","","","","","","","","",""
"","image-keyboard-response","157","104630","0.0-234.0","35GMH2SV3F3V8YOO87580INXVQTOED","AUZNL6ARA1UEC","3HUR21WDDUBEMSLDIXZW1FAIHVWXYO","","493.80000019073486","img/food6.png","74","495.5","1","1","false","1","2","1,0.5,0,1,0.5,0,0.5,0,1","1,0.5,0,1,0.5,0,0.5,0,1","1",""
"","html-keyboard-response","158","104932","0.0-235.0","35GMH2SV3F3V8YOO87580INXVQTOED","AUZNL6ARA1UEC","3HUR21WDDUBEMSLDIXZW1FAIHVWXYO","","null","<img src=""img/food6.png"" style=""width:200px; border:14px solid green;"">","null","","","","","","","","","",""
"","image-keyboard-response","159","105476","0.0-237.0","35GMH2SV3F3V8YOO87580INXVQTOED","AUZNL6ARA1UEC","3HUR21WDDUBEMSLDIXZW1FAIHVWXYO","","540.7999997138977","img/food1.png","74","542.2000002861023","1","1","false","2","2","1,0.5,0,1,0.5,0,0.5,0,1","1,0.5,0,1,0.5,0,0.5,0,1","1",""
"","html-keyboard-response","160","105777","0.0-238.0","35GMH2SV3F3V8YOO87580INXVQTOED","AUZNL6ARA1UEC","3HUR21WDDUBEMSLDIXZW1FAIHVWXYO","","null","<img src=""img/food1.png"" style=""width:200px; border:14px solid green;"">","null","","","","","","","","","",""
"","image-keyboard-response","161","106231","0.0-240.0","35GMH2SV3F3V8YOO87580INXVQTOED","AUZNL6ARA1UEC","3HUR21WDDUBEMSLDIXZW1FAIHVWXYO","","451.7000002861023","img/food1.png","74","453.90000009536743","1","1","false","2","2","1,0.5,0,1,0.5,0,0.5,0,1","1,0.5,0,1,0.5,0,0.5,0,1","1",""
"","html-keyboard-response","162","106535","0.0-241.0","35GMH2SV3F3V8YOO87580INXVQTOED","AUZNL6ARA1UEC","3HUR21WDDUBEMSLDIXZW1FAIHVWXYO","","null","<img src=""img/food1.png"" style=""width:200px; border:14px solid green;"">","null","","","","","","","","","",""
"","image-keyboard-response","163","107148","0.0-243.0","35GMH2SV3F3V8YOO87580INXVQTOED","AUZNL6ARA1UEC","3HUR21WDDUBEMSLDIXZW1FAIHVWXYO","","610.5","img/food4.png","76","612.0999999046326","3","1","false","3","2","1,0.5,0,1,0.5,0,0.5,0,1","1,0.5,0,1,0.5,0,0.5,0,1","1",""
"","html-keyboard-response","164","107450","0.0-244.0","35GMH2SV3F3V8YOO87580INXVQTOED","AUZNL6ARA1UEC","3HUR21WDDUBEMSLDIXZW1FAIHVWXYO","","null","<img src=""img/food4.png"" style=""width:200px; border:14px solid green;"">","null","","","","","","","","","",""
"","image-keyboard-response","165","108041","0.0-246.0","35GMH2SV3F3V8YOO87580INXVQTOED","AUZNL6ARA1UEC","3HUR21WDDUBEMSLDIXZW1FAIHVWXYO","","588.3000001907349","img/food6.png","74","589.8000001907349","1","1","false","1","2","1,0.5,0,1,0.5,0,0.5,0,1","1,0.5,0,1,0.5,0,0.5,0,1","1",""
"","html-keyboard-response","166","108343","0.0-247.0","35GMH2SV3F3V8YOO87580INXVQTOED","AUZNL6ARA1UEC","3HUR21WDDUBEMSLDIXZW1FAIHVWXYO","","null","<img src=""img/food6.png"" style=""width:200px; border:14px solid green;"">","null","","","","","","","","","",""
"","image-keyboard-response","167","108837","0.0-249.0","35GMH2SV3F3V8YOO87580INXVQTOED","AUZNL6ARA1UEC","3HUR21WDDUBEMSLDIXZW1FAIHVWXYO","","491.7000002861023","img/food1.png","74","493.09999990463257","1","1","false","2","2","1,0.5,0,1,0.5,0,0.5,0,1","1,0.5,0,1,0.5,0,0.5,0,1","1",""
"","html-keyboard-response","168","109139","0.0-250.0","35GMH2SV3F3V8YOO87580INXVQTOED","AUZNL6ARA1UEC","3HUR21WDDUBEMSLDIXZW1FAIHVWXYO","","null","<img src=""img/food1.png"" style=""width:200px; border:14px solid green;"">","null","","","","","","","","","",""
"","image-keyboard-response","169","109872","0.0-252.0","35GMH2SV3F3V8YOO87580INXVQTOED","AUZNL6ARA1UEC","3HUR21WDDUBEMSLDIXZW1FAIHVWXYO","","730.5","img/food4.png","76","732.2000002861023","3","1","false","3","2","1,0.5,0,1,0.5,0,0.5,0,1","1,0.5,0,1,0.5,0,0.5,0,1","1",""
"","html-keyboard-response","170","110176","0.0-253.0","35GMH2SV3F3V8YOO87580INXVQTOED","AUZNL6ARA1UEC","3HUR21WDDUBEMSLDIXZW1FAIHVWXYO","","null","<img src=""img/food4.png"" style=""width:200px; border:14px solid green;"">","null","","","","","","","","","",""
"","image-keyboard-response","171","110628","0.0-255.0","35GMH2SV3F3V8YOO87580INXVQTOED","AUZNL6ARA1UEC","3HUR21WDDUBEMSLDIXZW1FAIHVWXYO","","449.59999990463257","img/food1.png","74","451.19999980926514","1","1","false","2","2","1,0.5,0,1,0.5,0,0.5,0,1","1,0.5,0,1,0.5,0,0.5,0,1","1",""
"","html-keyboard-response","172","110930","0.0-256.0","35GMH2SV3F3V8YOO87580INXVQTOED","AUZNL6ARA1UEC","3HUR21WDDUBEMSLDIXZW1FAIHVWXYO","","null","<img src=""img/food1.png"" style=""width:200px; border:14px solid green;"">","null","","","","","","","","","",""
"","image-keyboard-response","173","111407","0.0-258.0","35GMH2SV3F3V8YOO87580INXVQTOED","AUZNL6ARA1UEC","3HUR21WDDUBEMSLDIXZW1FAIHVWXYO","","475.69999980926514","img/food6.png","74","476.59999990463257","1","1","false","1","2","1,0.5,0,1,0.5,0,0.5,0,1","1,0.5,0,1,0.5,0,0.5,0,1","1",""
"","html-keyboard-response","174","111709","0.0-259.0","35GMH2SV3F3V8YOO87580INXVQTOED","AUZNL6ARA1UEC","3HUR21WDDUBEMSLDIXZW1FAIHVWXYO","","null","<img src=""img/food6.png"" style=""width:200px; border:14px solid green;"">","null","","","","","","","","","",""
"","image-keyboard-response","175","112420","0.0-261.0","35GMH2SV3F3V8YOO87580INXVQTOED","AUZNL6ARA1UEC","3HUR21WDDUBEMSLDIXZW1FAIHVWXYO","","709.7999997138977","img/food4.png","76","710.7999997138977","3","1","false","3","2","1,0.5,0,1,0.5,0,0.5,0,1","1,0.5,0,1,0.5,0,0.5,0,1","1",""
"","html-keyboard-response","176","112723","0.0-262.0","35GMH2SV3F3V8YOO87580INXVQTOED","AUZNL6ARA1UEC","3HUR21WDDUBEMSLDIXZW1FAIHVWXYO","","null","<img src=""img/food4.png"" style=""width:200px; border:14px solid green;"">","null","","","","","","","","","",""
"","image-keyboard-response","177","113269","0.0-264.0","35GMH2SV3F3V8YOO87580INXVQTOED","AUZNL6ARA1UEC","3HUR21WDDUBEMSLDIXZW1FAIHVWXYO","","543.7999997138977","img/food6.png","74","545.3999996185303","1","1","false","1","2","1,0.5,0,1,0.5,0,0.5,0,1","1,0.5,0,1,0.5,0,0.5,0,1","1",""
"","html-keyboard-response","178","113572","0.0-265.0","35GMH2SV3F3V8YOO87580INXVQTOED","AUZNL6ARA1UEC","3HUR21WDDUBEMSLDIXZW1FAIHVWXYO","","null","<img src=""img/food6.png"" style=""width:200px; border:14px solid green;"">","null","","","","","","","","","",""
"","image-keyboard-response","179","114215","0.0-267.0","35GMH2SV3F3V8YOO87580INXVQTOED","AUZNL6ARA1UEC","3HUR21WDDUBEMSLDIXZW1FAIHVWXYO","","640.5999999046326","img/food4.png","76","642.3000001907349","3","1","false","3","2","1,0.5,0,1,0.5,0,0.5,0,1","1,0.5,0,1,0.5,0,0.5,0,1","1",""
"","html-keyboard-response","180","114517","0.0-268.0","35GMH2SV3F3V8YOO87580INXVQTOED","AUZNL6ARA1UEC","3HUR21WDDUBEMSLDIXZW1FAIHVWXYO","","null","<img src=""img/food4.png"" style=""width:200px; border:14px solid green;"">","null","","","","","","","","","",""
"","image-keyboard-response","181","114824","0.0-270.0","35GMH2SV3F3V8YOO87580INXVQTOED","AUZNL6ARA1UEC","3HUR21WDDUBEMSLDIXZW1FAIHVWXYO","","304.2999997138977","img/food4.png","76","306","3","1","false","3","2","1,0.5,0,1,0.5,0,0.5,0,1","1,0.5,0,1,0.5,0,0.5,0,1","1",""
"","html-keyboard-response","182","115127","0.0-271.0","35GMH2SV3F3V8YOO87580INXVQTOED","AUZNL6ARA1UEC","3HUR21WDDUBEMSLDIXZW1FAIHVWXYO","","null","<img src=""img/food4.png"" style=""width:200px; border:14px solid green;"">","null","","","","","","","","","",""
"","instructions","183","120308","0.0-273.0","35GMH2SV3F3V8YOO87580INXVQTOED","AUZNL6ARA1UEC","3HUR21WDDUBEMSLDIXZW1FAIHVWXYO","[{""page_index"":0,""viewing_time"":3940.7000002861023},{""page_index"":1,""viewing_time"":1239.3999996185303}]","5180.400000095367","","","","","","","","","","","",""
"","image-keyboard-response","184","121173","0.0-274.0","35GMH2SV3F3V8YOO87580INXVQTOED","AUZNL6ARA1UEC","3HUR21WDDUBEMSLDIXZW1FAIHVWXYO","","863.8000001907349","img/food5.png","74","865.5999999046326","1","0","","2","1","1,0.5,0,1,0.5,0,0.5,0,1","0.5,0,1,0.5,0,1,0,1,0.5","2",""
"","html-keyboard-response","185","121477","0.0-275.0","35GMH2SV3F3V8YOO87580INXVQTOED","AUZNL6ARA1UEC","3HUR21WDDUBEMSLDIXZW1FAIHVWXYO","","null","<img src=""img/food5.png"" style=""width:200px;border:14px solid red;"">","null","","","","","","","","","",""
"","image-keyboard-response","186","122289","0.0-276.0","35GMH2SV3F3V8YOO87580INXVQTOED","AUZNL6ARA1UEC","3HUR21WDDUBEMSLDIXZW1FAIHVWXYO","","810.8000001907349","img/food2.png","74","812.2999997138977","1","0","","3","1","1,0.5,0,1,0.5,0,0.5,0,1","0.5,0,1,0.5,0,1,0,1,0.5","2",""
"","html-keyboard-response","187","122593","0.0-277.0","35GMH2SV3F3V8YOO87580INXVQTOED","AUZNL6ARA1UEC","3HUR21WDDUBEMSLDIXZW1FAIHVWXYO","","null","<img src=""img/food2.png"" style=""width:200px;border:14px solid red;"">","null","","","","","","","","","",""
"","image-keyboard-response","188","123190","0.0-278.0","35GMH2SV3F3V8YOO87580INXVQTOED","AUZNL6ARA1UEC","3HUR21WDDUBEMSLDIXZW1FAIHVWXYO","","594.5","img/food3.png","74","596.4000000953674","1","0","","1","1","1,0.5,0,1,0.5,0,0.5,0,1","0.5,0,1,0.5,0,1,0,1,0.5","2",""
"","html-keyboard-response","189","123493","0.0-279.0","35GMH2SV3F3V8YOO87580INXVQTOED","AUZNL6ARA1UEC","3HUR21WDDUBEMSLDIXZW1FAIHVWXYO","","null","<img src=""img/food3.png"" style=""width:200px;border:14px solid red;"">","null","","","","","","","","","",""
"","image-keyboard-response","190","124137","0.0-280.0","35GMH2SV3F3V8YOO87580INXVQTOED","AUZNL6ARA1UEC","3HUR21WDDUBEMSLDIXZW1FAIHVWXYO","","643.3999996185303","img/food5.png","75","644.1999998092651","2","0","","2","1","1,0.5,0,1,0.5,0,0.5,0,1","0.5,0,1,0.5,0,1,0,1,0.5","2",""
"","html-keyboard-response","191","124439","0.0-281.0","35GMH2SV3F3V8YOO87580INXVQTOED","AUZNL6ARA1UEC","3HUR21WDDUBEMSLDIXZW1FAIHVWXYO","","null","<img src=""img/food5.png"" style=""width:200px;border:14px solid red;"">","null","","","","","","","","","",""
"","image-keyboard-response","192","125184","0.0-282.0","35GMH2SV3F3V8YOO87580INXVQTOED","AUZNL6ARA1UEC","3HUR21WDDUBEMSLDIXZW1FAIHVWXYO","","742.4000000953674","img/food3.png","75","744.3000001907349","2","0","","1","1","1,0.5,0,1,0.5,0,0.5,0,1","0.5,0,1,0.5,0,1,0,1,0.5","2",""
"","html-keyboard-response","193","125488","0.0-283.0","35GMH2SV3F3V8YOO87580INXVQTOED","AUZNL6ARA1UEC","3HUR21WDDUBEMSLDIXZW1FAIHVWXYO","","null","<img src=""img/food3.png"" style=""width:200px;border:14px solid red;"">","null","","","","","","","","","",""
"","image-keyboard-response","194","126032","0.0-284.0","35GMH2SV3F3V8YOO87580INXVQTOED","AUZNL6ARA1UEC","3HUR21WDDUBEMSLDIXZW1FAIHVWXYO","","542.8000001907349","img/food2.png","75","544","2","1","","3","1","1,0.5,0,1,0.5,0,0.5,0,1","0.5,0,1,0.5,0,1,0,1,0.5","2",""
"","html-keyboard-response","195","126335","0.0-285.0","35GMH2SV3F3V8YOO87580INXVQTOED","AUZNL6ARA1UEC","3HUR21WDDUBEMSLDIXZW1FAIHVWXYO","","null","<img src=""img/food2.png"" style=""width:200px; border:14px solid green;"">","null","","","","","","","","","",""
"","image-keyboard-response","196","127509","0.0-286.0","35GMH2SV3F3V8YOO87580INXVQTOED","AUZNL6ARA1UEC","3HUR21WDDUBEMSLDIXZW1FAIHVWXYO","","1172.0999999046326","img/food5.png","76","1173.7000002861023","3","1","","2","1","1,0.5,0,1,0.5,0,0.5,0,1","0.5,0,1,0.5,0,1,0,1,0.5","2",""
"","html-keyboard-response","197","127810","0.0-287.0","35GMH2SV3F3V8YOO87580INXVQTOED","AUZNL6ARA1UEC","3HUR21WDDUBEMSLDIXZW1FAIHVWXYO","","null","<img src=""img/food5.png"" style=""width:200px; border:14px solid green;"">","null","","","","","","","","","",""
"","image-keyboard-response","198","128260","0.0-288.0","35GMH2SV3F3V8YOO87580INXVQTOED","AUZNL6ARA1UEC","3HUR21WDDUBEMSLDIXZW1FAIHVWXYO","","448.5","img/food5.png","76","449.30000019073486","3","1","","2","1","1,0.5,0,1,0.5,0,0.5,0,1","0.5,0,1,0.5,0,1,0,1,0.5","2",""
"","html-keyboard-response","199","128562","0.0-289.0","35GMH2SV3F3V8YOO87580INXVQTOED","AUZNL6ARA1UEC","3HUR21WDDUBEMSLDIXZW1FAIHVWXYO","","null","<img src=""img/food5.png"" style=""width:200px; border:14px solid green;"">","null","","","","","","","","","",""
"","image-keyboard-response","200","128987","0.0-290.0","35GMH2SV3F3V8YOO87580INXVQTOED","AUZNL6ARA1UEC","3HUR21WDDUBEMSLDIXZW1FAIHVWXYO","","423","img/food5.png","76","424.19999980926514","3","1","","2","1","1,0.5,0,1,0.5,0,0.5,0,1","0.5,0,1,0.5,0,1,0,1,0.5","2",""
"","html-keyboard-response","201","129289","0.0-291.0","35GMH2SV3F3V8YOO87580INXVQTOED","AUZNL6ARA1UEC","3HUR21WDDUBEMSLDIXZW1FAIHVWXYO","","null","<img src=""img/food5.png"" style=""width:200px; border:14px solid green;"">","null","","","","","","","","","",""
"","image-keyboard-response","202","130062","0.0-292.0","35GMH2SV3F3V8YOO87580INXVQTOED","AUZNL6ARA1UEC","3HUR21WDDUBEMSLDIXZW1FAIHVWXYO","","771.5","img/food2.png","75","773.0999999046326","2","1","","3","1","1,0.5,0,1,0.5,0,0.5,0,1","0.5,0,1,0.5,0,1,0,1,0.5","2",""
"","html-keyboard-response","203","130364","0.0-293.0","35GMH2SV3F3V8YOO87580INXVQTOED","AUZNL6ARA1UEC","3HUR21WDDUBEMSLDIXZW1FAIHVWXYO","","null","<img src=""img/food2.png"" style=""width:200px; border:14px solid green;"">","null","","","","","","","","","",""
"","image-keyboard-response","204","130805","0.0-294.0","35GMH2SV3F3V8YOO87580INXVQTOED","AUZNL6ARA1UEC","3HUR21WDDUBEMSLDIXZW1FAIHVWXYO","","438.7000002861023","img/food2.png","75","440.19999980926514","2","1","","3","1","1,0.5,0,1,0.5,0,0.5,0,1","0.5,0,1,0.5,0,1,0,1,0.5","2",""
"","html-keyboard-response","205","131107","0.0-295.0","35GMH2SV3F3V8YOO87580INXVQTOED","AUZNL6ARA1UEC","3HUR21WDDUBEMSLDIXZW1FAIHVWXYO","","null","<img src=""img/food2.png"" style=""width:200px; border:14px solid green;"">","null","","","","","","","","","",""
"","image-keyboard-response","206","131975","0.0-296.0","35GMH2SV3F3V8YOO87580INXVQTOED","AUZNL6ARA1UEC","3HUR21WDDUBEMSLDIXZW1FAIHVWXYO","","866","img/food3.png","75","868","2","0","","1","1","1,0.5,0,1,0.5,0,0.5,0,1","0.5,0,1,0.5,0,1,0,1,0.5","2",""
"","html-keyboard-response","207","132279","0.0-297.0","35GMH2SV3F3V8YOO87580INXVQTOED","AUZNL6ARA1UEC","3HUR21WDDUBEMSLDIXZW1FAIHVWXYO","","null","<img src=""img/food3.png"" style=""width:200px;border:14px solid red;"">","null","","","","","","","","","",""
"","image-keyboard-response","208","133097","0.0-298.0","35GMH2SV3F3V8YOO87580INXVQTOED","AUZNL6ARA1UEC","3HUR21WDDUBEMSLDIXZW1FAIHVWXYO","","817.5","img/food5.png","76","818.5999999046326","3","1","","2","1","1,0.5,0,1,0.5,0,0.5,0,1","0.5,0,1,0.5,0,1,0,1,0.5","2",""
"","html-keyboard-response","209","133402","0.0-299.0","35GMH2SV3F3V8YOO87580INXVQTOED","AUZNL6ARA1UEC","3HUR21WDDUBEMSLDIXZW1FAIHVWXYO","","null","<img src=""img/food5.png"" style=""width:200px; border:14px solid green;"">","null","","","","","","","","","",""
"","image-keyboard-response","210","134261","0.0-300.0","35GMH2SV3F3V8YOO87580INXVQTOED","AUZNL6ARA1UEC","3HUR21WDDUBEMSLDIXZW1FAIHVWXYO","","856.2000002861023","img/food2.png","76","858.0999999046326","3","0","","3","1","1,0.5,0,1,0.5,0,0.5,0,1","0.5,0,1,0.5,0,1,0,1,0.5","2",""
"","html-keyboard-response","211","134563","0.0-301.0","35GMH2SV3F3V8YOO87580INXVQTOED","AUZNL6ARA1UEC","3HUR21WDDUBEMSLDIXZW1FAIHVWXYO","","null","<img src=""img/food2.png"" style=""width:200px;border:14px solid red;"">","null","","","","","","","","","",""
"","image-keyboard-response","212","135309","0.0-302.0","35GMH2SV3F3V8YOO87580INXVQTOED","AUZNL6ARA1UEC","3HUR21WDDUBEMSLDIXZW1FAIHVWXYO","","744.0999999046326","img/food3.png","76","745.4000000953674","3","1","","1","1","1,0.5,0,1,0.5,0,0.5,0,1","0.5,0,1,0.5,0,1,0,1,0.5","2",""
"","html-keyboard-response","213","135612","0.0-303.0","35GMH2SV3F3V8YOO87580INXVQTOED","AUZNL6ARA1UEC","3HUR21WDDUBEMSLDIXZW1FAIHVWXYO","","null","<img src=""img/food3.png"" style=""width:200px; border:14px solid green;"">","null","","","","","","","","","",""
"","image-keyboard-response","214","135979","0.0-304.0","35GMH2SV3F3V8YOO87580INXVQTOED","AUZNL6ARA1UEC","3HUR21WDDUBEMSLDIXZW1FAIHVWXYO","","365.59999990463257","img/food3.png","76","367","3","1","","1","1","1,0.5,0,1,0.5,0,0.5,0,1","0.5,0,1,0.5,0,1,0,1,0.5","2",""
"","html-keyboard-response","215","136281","0.0-305.0","35GMH2SV3F3V8YOO87580INXVQTOED","AUZNL6ARA1UEC","3HUR21WDDUBEMSLDIXZW1FAIHVWXYO","","null","<img src=""img/food3.png"" style=""width:200px; border:14px solid green;"">","null","","","","","","","","","",""
"","image-keyboard-response","216","136696","0.0-306.0","35GMH2SV3F3V8YOO87580INXVQTOED","AUZNL6ARA1UEC","3HUR21WDDUBEMSLDIXZW1FAIHVWXYO","","412.7000002861023","img/food3.png","76","414.40000009536743","3","1","","1","1","1,0.5,0,1,0.5,0,0.5,0,1","0.5,0,1,0.5,0,1,0,1,0.5","2",""
"","html-keyboard-response","217","137000","0.0-307.0","35GMH2SV3F3V8YOO87580INXVQTOED","AUZNL6ARA1UEC","3HUR21WDDUBEMSLDIXZW1FAIHVWXYO","","null","<img src=""img/food3.png"" style=""width:200px; border:14px solid green;"">","null","","","","","","","","","",""
"","image-keyboard-response","218","137745","0.0-308.0","35GMH2SV3F3V8YOO87580INXVQTOED","AUZNL6ARA1UEC","3HUR21WDDUBEMSLDIXZW1FAIHVWXYO","","742.2999997138977","img/food5.png","76","744.2000002861023","3","1","","2","1","1,0.5,0,1,0.5,0,0.5,0,1","0.5,0,1,0.5,0,1,0,1,0.5","2",""
"","html-keyboard-response","219","138047","0.0-309.0","35GMH2SV3F3V8YOO87580INXVQTOED","AUZNL6ARA1UEC","3HUR21WDDUBEMSLDIXZW1FAIHVWXYO","","null","<img src=""img/food5.png"" style=""width:200px; border:14px solid green;"">","null","","","","","","","","","",""
"","image-keyboard-response","220","138703","0.0-310.0","35GMH2SV3F3V8YOO87580INXVQTOED","AUZNL6ARA1UEC","3HUR21WDDUBEMSLDIXZW1FAIHVWXYO","","654.4000000953674","img/food3.png","76","655.3000001907349","3","1","","1","1","1,0.5,0,1,0.5,0,0.5,0,1","0.5,0,1,0.5,0,1,0,1,0.5","2",""
"","html-keyboard-response","221","139004","0.0-311.0","35GMH2SV3F3V8YOO87580INXVQTOED","AUZNL6ARA1UEC","3HUR21WDDUBEMSLDIXZW1FAIHVWXYO","","null","<img src=""img/food3.png"" style=""width:200px; border:14px solid green;"">","null","","","","","","","","","",""
"","image-keyboard-response","222","139626","0.0-312.0","35GMH2SV3F3V8YOO87580INXVQTOED","AUZNL6ARA1UEC","3HUR21WDDUBEMSLDIXZW1FAIHVWXYO","","619.1999998092651","img/food2.png","75","620.8000001907349","2","1","","3","1","1,0.5,0,1,0.5,0,0.5,0,1","0.5,0,1,0.5,0,1,0,1,0.5","2",""
"","html-keyboard-response","223","139929","0.0-313.0","35GMH2SV3F3V8YOO87580INXVQTOED","AUZNL6ARA1UEC","3HUR21WDDUBEMSLDIXZW1FAIHVWXYO","","null","<img src=""img/food2.png"" style=""width:200px; border:14px solid green;"">","null","","","","","","","","","",""
"","image-keyboard-response","224","140338","0.0-314.0","35GMH2SV3F3V8YOO87580INXVQTOED","AUZNL6ARA1UEC","3HUR21WDDUBEMSLDIXZW1FAIHVWXYO","","406.5","img/food2.png","75","408.40000009536743","2","1","","3","1","1,0.5,0,1,0.5,0,0.5,0,1","0.5,0,1,0.5,0,1,0,1,0.5","2",""
"","html-keyboard-response","225","140648","0.0-315.0","35GMH2SV3F3V8YOO87580INXVQTOED","AUZNL6ARA1UEC","3HUR21WDDUBEMSLDIXZW1FAIHVWXYO","","null","<img src=""img/food2.png"" style=""width:200px; border:14px solid green;"">","null","","","","","","","","","",""
"","image-keyboard-response","226","141167","0.0-316.0","35GMH2SV3F3V8YOO87580INXVQTOED","AUZNL6ARA1UEC","3HUR21WDDUBEMSLDIXZW1FAIHVWXYO","","516.6999998092651","img/food5.png","76","518.5","3","1","","2","1","1,0.5,0,1,0.5,0,0.5,0,1","0.5,0,1,0.5,0,1,0,1,0.5","2",""
"","html-keyboard-response","227","141471","0.0-317.0","35GMH2SV3F3V8YOO87580INXVQTOED","AUZNL6ARA1UEC","3HUR21WDDUBEMSLDIXZW1FAIHVWXYO","","null","<img src=""img/food5.png"" style=""width:200px; border:14px solid green;"">","null","","","","","","","","","",""
"","image-keyboard-response","228","142042","0.0-318.0","35GMH2SV3F3V8YOO87580INXVQTOED","AUZNL6ARA1UEC","3HUR21WDDUBEMSLDIXZW1FAIHVWXYO","","569.2000002861023","img/food2.png","75","570.8999996185303","2","1","","3","1","1,0.5,0,1,0.5,0,0.5,0,1","0.5,0,1,0.5,0,1,0,1,0.5","2",""
"","html-keyboard-response","229","142345","0.0-319.0","35GMH2SV3F3V8YOO87580INXVQTOED","AUZNL6ARA1UEC","3HUR21WDDUBEMSLDIXZW1FAIHVWXYO","","null","<img src=""img/food2.png"" style=""width:200px; border:14px solid green;"">","null","","","","","","","","","",""
"","image-keyboard-response","230","142746","0.0-320.0","35GMH2SV3F3V8YOO87580INXVQTOED","AUZNL6ARA1UEC","3HUR21WDDUBEMSLDIXZW1FAIHVWXYO","","400","img/food2.png","75","401","2","1","","3","1","1,0.5,0,1,0.5,0,0.5,0,1","0.5,0,1,0.5,0,1,0,1,0.5","2",""
"","html-keyboard-response","231","143049","0.0-321.0","35GMH2SV3F3V8YOO87580INXVQTOED","AUZNL6ARA1UEC","3HUR21WDDUBEMSLDIXZW1FAIHVWXYO","","null","<img src=""img/food2.png"" style=""width:200px; border:14px solid green;"">","null","","","","","","","","","",""
"","image-keyboard-response","232","143580","0.0-322.0","35GMH2SV3F3V8YOO87580INXVQTOED","AUZNL6ARA1UEC","3HUR21WDDUBEMSLDIXZW1FAIHVWXYO","","528.6999998092651","img/food3.png","76","530.2999997138977","3","1","","1","1","1,0.5,0,1,0.5,0,0.5,0,1","0.5,0,1,0.5,0,1,0,1,0.5","2",""
"","html-keyboard-response","233","143883","0.0-323.0","35GMH2SV3F3V8YOO87580INXVQTOED","AUZNL6ARA1UEC","3HUR21WDDUBEMSLDIXZW1FAIHVWXYO","","null","<img src=""img/food3.png"" style=""width:200px; border:14px solid green;"">","null","","","","","","","","","",""
"","image-keyboard-response","234","144231","0.0-324.0","35GMH2SV3F3V8YOO87580INXVQTOED","AUZNL6ARA1UEC","3HUR21WDDUBEMSLDIXZW1FAIHVWXYO","","346.40000009536743","img/food3.png","76","348.2999997138977","3","1","","1","1","1,0.5,0,1,0.5,0,0.5,0,1","0.5,0,1,0.5,0,1,0,1,0.5","2",""
"","html-keyboard-response","235","144535","0.0-325.0","35GMH2SV3F3V8YOO87580INXVQTOED","AUZNL6ARA1UEC","3HUR21WDDUBEMSLDIXZW1FAIHVWXYO","","null","<img src=""img/food3.png"" style=""width:200px; border:14px solid green;"">","null","","","","","","","","","",""
"","image-keyboard-response","236","145259","0.0-326.0","35GMH2SV3F3V8YOO87580INXVQTOED","AUZNL6ARA1UEC","3HUR21WDDUBEMSLDIXZW1FAIHVWXYO","","721.5","img/food2.png","75","723","2","1","","3","1","1,0.5,0,1,0.5,0,0.5,0,1","0.5,0,1,0.5,0,1,0,1,0.5","2",""
"","html-keyboard-response","237","145561","0.0-327.0","35GMH2SV3F3V8YOO87580INXVQTOED","AUZNL6ARA1UEC","3HUR21WDDUBEMSLDIXZW1FAIHVWXYO","","null","<img src=""img/food2.png"" style=""width:200px; border:14px solid green;"">","null","","","","","","","","","",""
"","image-keyboard-response","238","146075","0.0-328.0","35GMH2SV3F3V8YOO87580INXVQTOED","AUZNL6ARA1UEC","3HUR21WDDUBEMSLDIXZW1FAIHVWXYO","","511.5","img/food5.png","76","513.1999998092651","3","1","","2","1","1,0.5,0,1,0.5,0,0.5,0,1","0.5,0,1,0.5,0,1,0,1,0.5","2",""
"","html-keyboard-response","239","146378","0.0-329.0","35GMH2SV3F3V8YOO87580INXVQTOED","AUZNL6ARA1UEC","3HUR21WDDUBEMSLDIXZW1FAIHVWXYO","","null","<img src=""img/food5.png"" style=""width:200px; border:14px solid green;"">","null","","","","","","","","","",""
"","image-keyboard-response","240","146926","0.0-330.0","35GMH2SV3F3V8YOO87580INXVQTOED","AUZNL6ARA1UEC","3HUR21WDDUBEMSLDIXZW1FAIHVWXYO","","545.8999996185303","img/food2.png","75","547.5999999046326","2","1","","3","1","1,0.5,0,1,0.5,0,0.5,0,1","0.5,0,1,0.5,0,1,0,1,0.5","2",""
"","html-keyboard-response","241","147229","0.0-331.0","35GMH2SV3F3V8YOO87580INXVQTOED","AUZNL6ARA1UEC","3HUR21WDDUBEMSLDIXZW1FAIHVWXYO","","null","<img src=""img/food2.png"" style=""width:200px; border:14px solid green;"">","null","","","","","","","","","",""
"","image-keyboard-response","242","147894","0.0-332.0","35GMH2SV3F3V8YOO87580INXVQTOED","AUZNL6ARA1UEC","3HUR21WDDUBEMSLDIXZW1FAIHVWXYO","","663.0999999046326","img/food5.png","76","664.7999997138977","3","1","","2","1","1,0.5,0,1,0.5,0,0.5,0,1","0.5,0,1,0.5,0,1,0,1,0.5","2",""
"","html-keyboard-response","243","148197","0.0-333.0","35GMH2SV3F3V8YOO87580INXVQTOED","AUZNL6ARA1UEC","3HUR21WDDUBEMSLDIXZW1FAIHVWXYO","","null","<img src=""img/food5.png"" style=""width:200px; border:14px solid green;"">","null","","","","","","","","","",""
"","image-keyboard-response","244","148594","0.0-334.0","35GMH2SV3F3V8YOO87580INXVQTOED","AUZNL6ARA1UEC","3HUR21WDDUBEMSLDIXZW1FAIHVWXYO","","395","img/food5.png","76","396.19999980926514","3","1","","2","1","1,0.5,0,1,0.5,0,0.5,0,1","0.5,0,1,0.5,0,1,0,1,0.5","2",""
"","html-keyboard-response","245","148896","0.0-335.0","35GMH2SV3F3V8YOO87580INXVQTOED","AUZNL6ARA1UEC","3HUR21WDDUBEMSLDIXZW1FAIHVWXYO","","null","<img src=""img/food5.png"" style=""width:200px; border:14px solid green;"">","null","","","","","","","","","",""
"","image-keyboard-response","246","149276","0.0-336.0","35GMH2SV3F3V8YOO87580INXVQTOED","AUZNL6ARA1UEC","3HUR21WDDUBEMSLDIXZW1FAIHVWXYO","","377.40000009536743","img/food5.png","76","379.19999980926514","3","1","","2","1","1,0.5,0,1,0.5,0,0.5,0,1","0.5,0,1,0.5,0,1,0,1,0.5","2",""
"","html-keyboard-response","247","149579","0.0-337.0","35GMH2SV3F3V8YOO87580INXVQTOED","AUZNL6ARA1UEC","3HUR21WDDUBEMSLDIXZW1FAIHVWXYO","","null","<img src=""img/food5.png"" style=""width:200px; border:14px solid green;"">","null","","","","","","","","","",""
"","image-keyboard-response","248","150213","0.0-338.0","35GMH2SV3F3V8YOO87580INXVQTOED","AUZNL6ARA1UEC","3HUR21WDDUBEMSLDIXZW1FAIHVWXYO","","631.8000001907349","img/food2.png","75","633.6999998092651","2","1","","3","1","1,0.5,0,1,0.5,0,0.5,0,1","0.5,0,1,0.5,0,1,0,1,0.5","2",""
"","html-keyboard-response","249","150516","0.0-339.0","35GMH2SV3F3V8YOO87580INXVQTOED","AUZNL6ARA1UEC","3HUR21WDDUBEMSLDIXZW1FAIHVWXYO","","null","<img src=""img/food2.png"" style=""width:200px; border:14px solid green;"">","null","","","","","","","","","",""
"","image-keyboard-response","250","150999","0.0-340.0","35GMH2SV3F3V8YOO87580INXVQTOED","AUZNL6ARA1UEC","3HUR21WDDUBEMSLDIXZW1FAIHVWXYO","","481.90000009536743","img/food5.png","76","482.90000009536743","3","1","","2","1","1,0.5,0,1,0.5,0,0.5,0,1","0.5,0,1,0.5,0,1,0,1,0.5","2",""
"","html-keyboard-response","251","151302","0.0-341.0","35GMH2SV3F3V8YOO87580INXVQTOED","AUZNL6ARA1UEC","3HUR21WDDUBEMSLDIXZW1FAIHVWXYO","","null","<img src=""img/food5.png"" style=""width:200px; border:14px solid green;"">","null","","","","","","","","","",""
"","image-keyboard-response","252","152016","0.0-342.0","35GMH2SV3F3V8YOO87580INXVQTOED","AUZNL6ARA1UEC","3HUR21WDDUBEMSLDIXZW1FAIHVWXYO","","711.7000002861023","img/food3.png","76","713.4000000953674","3","1","","1","1","1,0.5,0,1,0.5,0,0.5,0,1","0.5,0,1,0.5,0,1,0,1,0.5","2",""
"","html-keyboard-response","253","152318","0.0-343.0","35GMH2SV3F3V8YOO87580INXVQTOED","AUZNL6ARA1UEC","3HUR21WDDUBEMSLDIXZW1FAIHVWXYO","","null","<img src=""img/food3.png"" style=""width:200px; border:14px solid green;"">","null","","","","","","","","","",""
"","image-keyboard-response","254","152920","0.0-344.0","35GMH2SV3F3V8YOO87580INXVQTOED","AUZNL6ARA1UEC","3HUR21WDDUBEMSLDIXZW1FAIHVWXYO","","599.3000001907349","img/food2.png","75","601.1999998092651","2","1","","3","1","1,0.5,0,1,0.5,0,0.5,0,1","0.5,0,1,0.5,0,1,0,1,0.5","2",""
"","html-keyboard-response","255","153223","0.0-345.0","35GMH2SV3F3V8YOO87580INXVQTOED","AUZNL6ARA1UEC","3HUR21WDDUBEMSLDIXZW1FAIHVWXYO","","null","<img src=""img/food2.png"" style=""width:200px; border:14px solid green;"">","null","","","","","","","","","",""
"","image-keyboard-response","256","153678","0.0-346.0","35GMH2SV3F3V8YOO87580INXVQTOED","AUZNL6ARA1UEC","3HUR21WDDUBEMSLDIXZW1FAIHVWXYO","","452.80000019073486","img/food5.png","76","454.5","3","1","","2","1","1,0.5,0,1,0.5,0,0.5,0,1","0.5,0,1,0.5,0,1,0,1,0.5","2",""
"","html-keyboard-response","257","153982","0.0-347.0","35GMH2SV3F3V8YOO87580INXVQTOED","AUZNL6ARA1UEC","3HUR21WDDUBEMSLDIXZW1FAIHVWXYO","","null","<img src=""img/food5.png"" style=""width:200px; border:14px solid green;"">","null","","","","","","","","","",""
"","image-keyboard-response","258","154349","0.0-348.0","35GMH2SV3F3V8YOO87580INXVQTOED","AUZNL6ARA1UEC","3HUR21WDDUBEMSLDIXZW1FAIHVWXYO","","366.3999996185303","img/food5.png","76","367.59999990463257","3","1","","2","1","1,0.5,0,1,0.5,0,0.5,0,1","0.5,0,1,0.5,0,1,0,1,0.5","2",""
"","html-keyboard-response","259","154652","0.0-349.0","35GMH2SV3F3V8YOO87580INXVQTOED","AUZNL6ARA1UEC","3HUR21WDDUBEMSLDIXZW1FAIHVWXYO","","null","<img src=""img/food5.png"" style=""width:200px; border:14px solid green;"">","null","","","","","","","","","",""
"","image-keyboard-response","260","155221","0.0-350.0","35GMH2SV3F3V8YOO87580INXVQTOED","AUZNL6ARA1UEC","3HUR21WDDUBEMSLDIXZW1FAIHVWXYO","","567.3999996185303","img/food5.png","76","568.5999999046326","3","1","","2","1","1,0.5,0,1,0.5,0,0.5,0,1","0.5,0,1,0.5,0,1,0,1,0.5","2",""
"","html-keyboard-response","261","155524","0.0-351.0","35GMH2SV3F3V8YOO87580INXVQTOED","AUZNL6ARA1UEC","3HUR21WDDUBEMSLDIXZW1FAIHVWXYO","","null","<img src=""img/food5.png"" style=""width:200px; border:14px solid green;"">","null","","","","","","","","","",""
"","image-keyboard-response","262","156176","0.0-352.0","35GMH2SV3F3V8YOO87580INXVQTOED","AUZNL6ARA1UEC","3HUR21WDDUBEMSLDIXZW1FAIHVWXYO","","649.6999998092651","img/food3.png","76","651.5","3","1","","1","1","1,0.5,0,1,0.5,0,0.5,0,1","0.5,0,1,0.5,0,1,0,1,0.5","2",""
"","html-keyboard-response","263","156479","0.0-353.0","35GMH2SV3F3V8YOO87580INXVQTOED","AUZNL6ARA1UEC","3HUR21WDDUBEMSLDIXZW1FAIHVWXYO","","null","<img src=""img/food3.png"" style=""width:200px; border:14px solid green;"">","null","","","","","","","","","",""
"","image-keyboard-response","264","157183","0.0-354.0","35GMH2SV3F3V8YOO87580INXVQTOED","AUZNL6ARA1UEC","3HUR21WDDUBEMSLDIXZW1FAIHVWXYO","","702.2000002861023","img/food2.png","75","704","2","1","","3","1","1,0.5,0,1,0.5,0,0.5,0,1","0.5,0,1,0.5,0,1,0,1,0.5","2",""
"","html-keyboard-response","265","157486","0.0-355.0","35GMH2SV3F3V8YOO87580INXVQTOED","AUZNL6ARA1UEC","3HUR21WDDUBEMSLDIXZW1FAIHVWXYO","","null","<img src=""img/food2.png"" style=""width:200px; border:14px solid green;"">","null","","","","","","","","","",""
"","image-keyboard-response","266","158006","0.0-356.0","35GMH2SV3F3V8YOO87580INXVQTOED","AUZNL6ARA1UEC","3HUR21WDDUBEMSLDIXZW1FAIHVWXYO","","517.3000001907349","img/food3.png","76","519.1000003814697","3","1","","1","1","1,0.5,0,1,0.5,0,0.5,0,1","0.5,0,1,0.5,0,1,0,1,0.5","2",""
"","html-keyboard-response","267","158308","0.0-357.0","35GMH2SV3F3V8YOO87580INXVQTOED","AUZNL6ARA1UEC","3HUR21WDDUBEMSLDIXZW1FAIHVWXYO","","null","<img src=""img/food3.png"" style=""width:200px; border:14px solid green;"">","null","","","","","","","","","",""
"","image-keyboard-response","268","158869","0.0-358.0","35GMH2SV3F3V8YOO87580INXVQTOED","AUZNL6ARA1UEC","3HUR21WDDUBEMSLDIXZW1FAIHVWXYO","","558.9000000953674","img/food3.png","76","560.5","3","1","","1","1","1,0.5,0,1,0.5,0,0.5,0,1","0.5,0,1,0.5,0,1,0,1,0.5","2",""
"","html-keyboard-response","269","159181","0.0-359.0","35GMH2SV3F3V8YOO87580INXVQTOED","AUZNL6ARA1UEC","3HUR21WDDUBEMSLDIXZW1FAIHVWXYO","","null","<img src=""img/food3.png"" style=""width:200px; border:14px solid green;"">","null","","","","","","","","","",""
"","image-keyboard-response","270","159830","0.0-360.0","35GMH2SV3F3V8YOO87580INXVQTOED","AUZNL6ARA1UEC","3HUR21WDDUBEMSLDIXZW1FAIHVWXYO","","646.9000000953674","img/food5.png","75","648.2999997138977","2","0","","2","1","1,0.5,0,1,0.5,0,0.5,0,1","0.5,0,1,0.5,0,1,0,1,0.5","2",""
"","html-keyboard-response","271","160132","0.0-361.0","35GMH2SV3F3V8YOO87580INXVQTOED","AUZNL6ARA1UEC","3HUR21WDDUBEMSLDIXZW1FAIHVWXYO","","null","<img src=""img/food5.png"" style=""width:200px;border:14px solid red;"">","null","","","","","","","","","",""
"","image-keyboard-response","272","160252","0.0-362.0","35GMH2SV3F3V8YOO87580INXVQTOED","AUZNL6ARA1UEC","3HUR21WDDUBEMSLDIXZW1FAIHVWXYO","","118","img/food5.png","76","119.69999980926514","3","1","","2","1","1,0.5,0,1,0.5,0,0.5,0,1","0.5,0,1,0.5,0,1,0,1,0.5","2",""
"","html-keyboard-response","273","160555","0.0-363.0","35GMH2SV3F3V8YOO87580INXVQTOED","AUZNL6ARA1UEC","3HUR21WDDUBEMSLDIXZW1FAIHVWXYO","","null","<img src=""img/food5.png"" style=""width:200px; border:14px solid green;"">","null","","","","","","","","","",""
"","image-keyboard-response","274","161267","0.0-364.0","35GMH2SV3F3V8YOO87580INXVQTOED","AUZNL6ARA1UEC","3HUR21WDDUBEMSLDIXZW1FAIHVWXYO","","709.5999999046326","img/food3.png","76","711.4000000953674","3","1","","1","1","1,0.5,0,1,0.5,0,0.5,0,1","0.5,0,1,0.5,0,1,0,1,0.5","2",""
"","html-keyboard-response","275","161570","0.0-365.0","35GMH2SV3F3V8YOO87580INXVQTOED","AUZNL6ARA1UEC","3HUR21WDDUBEMSLDIXZW1FAIHVWXYO","","null","<img src=""img/food3.png"" style=""width:200px; border:14px solid green;"">","null","","","","","","","","","",""
"","image-keyboard-response","276","162156","0.0-366.0","35GMH2SV3F3V8YOO87580INXVQTOED","AUZNL6ARA1UEC","3HUR21WDDUBEMSLDIXZW1FAIHVWXYO","","585","img/food2.png","75","586.1999998092651","2","1","","3","1","1,0.5,0,1,0.5,0,0.5,0,1","0.5,0,1,0.5,0,1,0,1,0.5","2",""
"","html-keyboard-response","277","162460","0.0-367.0","35GMH2SV3F3V8YOO87580INXVQTOED","AUZNL6ARA1UEC","3HUR21WDDUBEMSLDIXZW1FAIHVWXYO","","null","<img src=""img/food2.png"" style=""width:200px; border:14px solid green;"">","null","","","","","","","","","",""
"","image-keyboard-response","278","162916","0.0-368.0","35GMH2SV3F3V8YOO87580INXVQTOED","AUZNL6ARA1UEC","3HUR21WDDUBEMSLDIXZW1FAIHVWXYO","","454.30000019073486","img/food5.png","76","456.30000019073486","3","1","","2","1","1,0.5,0,1,0.5,0,0.5,0,1","0.5,0,1,0.5,0,1,0,1,0.5","2",""
"","html-keyboard-response","279","163219","0.0-369.0","35GMH2SV3F3V8YOO87580INXVQTOED","AUZNL6ARA1UEC","3HUR21WDDUBEMSLDIXZW1FAIHVWXYO","","null","<img src=""img/food5.png"" style=""width:200px; border:14px solid green;"">","null","","","","","","","","","",""
"","image-keyboard-response","280","163446","0.0-370.0","35GMH2SV3F3V8YOO87580INXVQTOED","AUZNL6ARA1UEC","3HUR21WDDUBEMSLDIXZW1FAIHVWXYO","","226.19999980926514","img/food2.png","76","227.30000019073486","3","0","","3","1","1,0.5,0,1,0.5,0,0.5,0,1","0.5,0,1,0.5,0,1,0,1,0.5","2",""
"","html-keyboard-response","281","163750","0.0-371.0","35GMH2SV3F3V8YOO87580INXVQTOED","AUZNL6ARA1UEC","3HUR21WDDUBEMSLDIXZW1FAIHVWXYO","","null","<img src=""img/food2.png"" style=""width:200px;border:14px solid red;"">","null","","","","","","","","","",""
"","image-keyboard-response","282","163973","0.0-372.0","35GMH2SV3F3V8YOO87580INXVQTOED","AUZNL6ARA1UEC","3HUR21WDDUBEMSLDIXZW1FAIHVWXYO","","219.7000002861023","img/food5.png","75","221.90000009536743","2","0","","2","1","1,0.5,0,1,0.5,0,0.5,0,1","0.5,0,1,0.5,0,1,0,1,0.5","2",""
"","html-keyboard-response","283","164279","0.0-373.0","35GMH2SV3F3V8YOO87580INXVQTOED","AUZNL6ARA1UEC","3HUR21WDDUBEMSLDIXZW1FAIHVWXYO","","null","<img src=""img/food5.png"" style=""width:200px;border:14px solid red;"">","null","","","","","","","","","",""
"","image-keyboard-response","284","165033","0.0-374.0","35GMH2SV3F3V8YOO87580INXVQTOED","AUZNL6ARA1UEC","3HUR21WDDUBEMSLDIXZW1FAIHVWXYO","","751.8999996185303","img/food3.png","76","753.3000001907349","3","1","","1","1","1,0.5,0,1,0.5,0,0.5,0,1","0.5,0,1,0.5,0,1,0,1,0.5","2",""
"","html-keyboard-response","285","165335","0.0-375.0","35GMH2SV3F3V8YOO87580INXVQTOED","AUZNL6ARA1UEC","3HUR21WDDUBEMSLDIXZW1FAIHVWXYO","","null","<img src=""img/food3.png"" style=""width:200px; border:14px solid green;"">","null","","","","","","","","","",""
"","image-keyboard-response","286","165920","0.0-376.0","35GMH2SV3F3V8YOO87580INXVQTOED","AUZNL6ARA1UEC","3HUR21WDDUBEMSLDIXZW1FAIHVWXYO","","582.7999997138977","img/food5.png","76","584.3000001907349","3","1","","2","1","1,0.5,0,1,0.5,0,0.5,0,1","0.5,0,1,0.5,0,1,0,1,0.5","2",""
"","html-keyboard-response","287","166222","0.0-377.0","35GMH2SV3F3V8YOO87580INXVQTOED","AUZNL6ARA1UEC","3HUR21WDDUBEMSLDIXZW1FAIHVWXYO","","null","<img src=""img/food5.png"" style=""width:200px; border:14px solid green;"">","null","","","","","","","","","",""
"","image-keyboard-response","288","166934","0.0-378.0","35GMH2SV3F3V8YOO87580INXVQTOED","AUZNL6ARA1UEC","3HUR21WDDUBEMSLDIXZW1FAIHVWXYO","","710","img/food2.png","75","711.4000000953674","2","1","","3","1","1,0.5,0,1,0.5,0,0.5,0,1","0.5,0,1,0.5,0,1,0,1,0.5","2",""
"","html-keyboard-response","289","167235","0.0-379.0","35GMH2SV3F3V8YOO87580INXVQTOED","AUZNL6ARA1UEC","3HUR21WDDUBEMSLDIXZW1FAIHVWXYO","","null","<img src=""img/food2.png"" style=""width:200px; border:14px solid green;"">","null","","","","","","","","","",""
"","image-keyboard-response","290","167822","0.0-380.0","35GMH2SV3F3V8YOO87580INXVQTOED","AUZNL6ARA1UEC","3HUR21WDDUBEMSLDIXZW1FAIHVWXYO","","584.4000000953674","img/food3.png","76","586.0999999046326","3","1","","1","1","1,0.5,0,1,0.5,0,0.5,0,1","0.5,0,1,0.5,0,1,0,1,0.5","2",""
"","html-keyboard-response","291","168125","0.0-381.0","35GMH2SV3F3V8YOO87580INXVQTOED","AUZNL6ARA1UEC","3HUR21WDDUBEMSLDIXZW1FAIHVWXYO","","null","<img src=""img/food3.png"" style=""width:200px; border:14px solid green;"">","null","","","","","","","","","",""
"","image-keyboard-response","292","168725","0.0-382.0","35GMH2SV3F3V8YOO87580INXVQTOED","AUZNL6ARA1UEC","3HUR21WDDUBEMSLDIXZW1FAIHVWXYO","","598.0999999046326","img/food2.png","75","599.8000001907349","2","1","","3","1","1,0.5,0,1,0.5,0,0.5,0,1","0.5,0,1,0.5,0,1,0,1,0.5","2",""
"","html-keyboard-response","293","169028","0.0-383.0","35GMH2SV3F3V8YOO87580INXVQTOED","AUZNL6ARA1UEC","3HUR21WDDUBEMSLDIXZW1FAIHVWXYO","","null","<img src=""img/food2.png"" style=""width:200px; border:14px solid green;"">","null","","","","","","","","","",""
"","image-keyboard-response","294","169530","0.0-384.0","35GMH2SV3F3V8YOO87580INXVQTOED","AUZNL6ARA1UEC","3HUR21WDDUBEMSLDIXZW1FAIHVWXYO","","499.30000019073486","img/food5.png","76","501.1000003814697","3","1","","2","1","1,0.5,0,1,0.5,0,0.5,0,1","0.5,0,1,0.5,0,1,0,1,0.5","2",""
"","html-keyboard-response","295","169832","0.0-385.0","35GMH2SV3F3V8YOO87580INXVQTOED","AUZNL6ARA1UEC","3HUR21WDDUBEMSLDIXZW1FAIHVWXYO","","null","<img src=""img/food5.png"" style=""width:200px; border:14px solid green;"">","null","","","","","","","","","",""
"","image-keyboard-response","296","170551","0.0-386.0","35GMH2SV3F3V8YOO87580INXVQTOED","AUZNL6ARA1UEC","3HUR21WDDUBEMSLDIXZW1FAIHVWXYO","","716.1999998092651","img/food3.png","76","718","3","1","","1","1","1,0.5,0,1,0.5,0,0.5,0,1","0.5,0,1,0.5,0,1,0,1,0.5","2",""
"","html-keyboard-response","297","170854","0.0-387.0","35GMH2SV3F3V8YOO87580INXVQTOED","AUZNL6ARA1UEC","3HUR21WDDUBEMSLDIXZW1FAIHVWXYO","","null","<img src=""img/food3.png"" style=""width:200px; border:14px solid green;"">","null","","","","","","","","","",""
"","image-keyboard-response","298","171534","0.0-388.0","35GMH2SV3F3V8YOO87580INXVQTOED","AUZNL6ARA1UEC","3HUR21WDDUBEMSLDIXZW1FAIHVWXYO","","678.3000001907349","img/food2.png","75","680.2999997138977","2","1","","3","1","1,0.5,0,1,0.5,0,0.5,0,1","0.5,0,1,0.5,0,1,0,1,0.5","2",""
"","html-keyboard-response","299","171850","0.0-389.0","35GMH2SV3F3V8YOO87580INXVQTOED","AUZNL6ARA1UEC","3HUR21WDDUBEMSLDIXZW1FAIHVWXYO","","null","<img src=""img/food2.png"" style=""width:200px; border:14px solid green;"">","null","","","","","","","","","",""
"","image-keyboard-response","300","172357","0.0-390.0","35GMH2SV3F3V8YOO87580INXVQTOED","AUZNL6ARA1UEC","3HUR21WDDUBEMSLDIXZW1FAIHVWXYO","","506","img/food5.png","76","507.19999980926514","3","1","","2","1","1,0.5,0,1,0.5,0,0.5,0,1","0.5,0,1,0.5,0,1,0,1,0.5","2",""
"","html-keyboard-response","301","172660","0.0-391.0","35GMH2SV3F3V8YOO87580INXVQTOED","AUZNL6ARA1UEC","3HUR21WDDUBEMSLDIXZW1FAIHVWXYO","","null","<img src=""img/food5.png"" style=""width:200px; border:14px solid green;"">","null","","","","","","","","","",""
"","image-keyboard-response","302","173316","0.0-392.0","35GMH2SV3F3V8YOO87580INXVQTOED","AUZNL6ARA1UEC","3HUR21WDDUBEMSLDIXZW1FAIHVWXYO","","653.0999999046326","img/food2.png","75","654.9000000953674","2","1","","3","1","1,0.5,0,1,0.5,0,0.5,0,1","0.5,0,1,0.5,0,1,0,1,0.5","2",""
"","html-keyboard-response","303","173618","0.0-393.0","35GMH2SV3F3V8YOO87580INXVQTOED","AUZNL6ARA1UEC","3HUR21WDDUBEMSLDIXZW1FAIHVWXYO","","null","<img src=""img/food2.png"" style=""width:200px; border:14px solid green;"">","null","","","","","","","","","",""
"","image-keyboard-response","304","174214","0.0-394.0","35GMH2SV3F3V8YOO87580INXVQTOED","AUZNL6ARA1UEC","3HUR21WDDUBEMSLDIXZW1FAIHVWXYO","","594.7000002861023","img/food3.png","76","595.7999997138977","3","1","","1","1","1,0.5,0,1,0.5,0,0.5,0,1","0.5,0,1,0.5,0,1,0,1,0.5","2",""
"","html-keyboard-response","305","174517","0.0-395.0","35GMH2SV3F3V8YOO87580INXVQTOED","AUZNL6ARA1UEC","3HUR21WDDUBEMSLDIXZW1FAIHVWXYO","","null","<img src=""img/food3.png"" style=""width:200px; border:14px solid green;"">","null","","","","","","","","","",""
"","image-keyboard-response","306","175171","0.0-396.0","35GMH2SV3F3V8YOO87580INXVQTOED","AUZNL6ARA1UEC","3HUR21WDDUBEMSLDIXZW1FAIHVWXYO","","651.5999999046326","img/food2.png","75","653.3000001907349","2","1","","3","1","1,0.5,0,1,0.5,0,0.5,0,1","0.5,0,1,0.5,0,1,0,1,0.5","2",""
"","html-keyboard-response","307","175473","0.0-397.0","35GMH2SV3F3V8YOO87580INXVQTOED","AUZNL6ARA1UEC","3HUR21WDDUBEMSLDIXZW1FAIHVWXYO","","null","<img src=""img/food2.png"" style=""width:200px; border:14px solid green;"">","null","","","","","","","","","",""
"","image-keyboard-response","308","176055","0.0-398.0","35GMH2SV3F3V8YOO87580INXVQTOED","AUZNL6ARA1UEC","3HUR21WDDUBEMSLDIXZW1FAIHVWXYO","","579.5","img/food2.png","75","581.3000001907349","2","1","","3","1","1,0.5,0,1,0.5,0,0.5,0,1","0.5,0,1,0.5,0,1,0,1,0.5","2",""
"","html-keyboard-response","309","176357","0.0-399.0","35GMH2SV3F3V8YOO87580INXVQTOED","AUZNL6ARA1UEC","3HUR21WDDUBEMSLDIXZW1FAIHVWXYO","","null","<img src=""img/food2.png"" style=""width:200px; border:14px solid green;"">","null","","","","","","","","","",""
"","image-keyboard-response","310","176864","0.0-400.0","35GMH2SV3F3V8YOO87580INXVQTOED","AUZNL6ARA1UEC","3HUR21WDDUBEMSLDIXZW1FAIHVWXYO","","504.30000019073486","img/food3.png","76","506.40000009536743","3","1","","1","1","1,0.5,0,1,0.5,0,0.5,0,1","0.5,0,1,0.5,0,1,0,1,0.5","2",""
"","html-keyboard-response","311","177167","0.0-401.0","35GMH2SV3F3V8YOO87580INXVQTOED","AUZNL6ARA1UEC","3HUR21WDDUBEMSLDIXZW1FAIHVWXYO","","null","<img src=""img/food3.png"" style=""width:200px; border:14px solid green;"">","null","","","","","","","","","",""
"","image-keyboard-response","312","177564","0.0-402.0","35GMH2SV3F3V8YOO87580INXVQTOED","AUZNL6ARA1UEC","3HUR21WDDUBEMSLDIXZW1FAIHVWXYO","","395.69999980926514","img/food3.png","76","396.8999996185303","3","1","","1","1","1,0.5,0,1,0.5,0,0.5,0,1","0.5,0,1,0.5,0,1,0,1,0.5","2",""
"","html-keyboard-response","313","177872","0.0-403.0","35GMH2SV3F3V8YOO87580INXVQTOED","AUZNL6ARA1UEC","3HUR21WDDUBEMSLDIXZW1FAIHVWXYO","","null","<img src=""img/food3.png"" style=""width:200px; border:14px solid green;"">","null","","","","","","","","","",""
"","image-keyboard-response","314","178277","0.0-404.0","35GMH2SV3F3V8YOO87580INXVQTOED","AUZNL6ARA1UEC","3HUR21WDDUBEMSLDIXZW1FAIHVWXYO","","403.59999990463257","img/food3.png","76","404.59999990463257","3","1","","1","1","1,0.5,0,1,0.5,0,0.5,0,1","0.5,0,1,0.5,0,1,0,1,0.5","2",""
"","html-keyboard-response","315","178580","0.0-405.0","35GMH2SV3F3V8YOO87580INXVQTOED","AUZNL6ARA1UEC","3HUR21WDDUBEMSLDIXZW1FAIHVWXYO","","null","<img src=""img/food3.png"" style=""width:200px; border:14px solid green;"">","null","","","","","","","","","",""
"","image-keyboard-response","316","179108","0.0-406.0","35GMH2SV3F3V8YOO87580INXVQTOED","AUZNL6ARA1UEC","3HUR21WDDUBEMSLDIXZW1FAIHVWXYO","","525.2000002861023","img/food2.png","75","526.6999998092651","2","1","","3","1","1,0.5,0,1,0.5,0,0.5,0,1","0.5,0,1,0.5,0,1,0,1,0.5","2",""
"","html-keyboard-response","317","179410","0.0-407.0","35GMH2SV3F3V8YOO87580INXVQTOED","AUZNL6ARA1UEC","3HUR21WDDUBEMSLDIXZW1FAIHVWXYO","","null","<img src=""img/food2.png"" style=""width:200px; border:14px solid green;"">","null","","","","","","","","","",""
"","image-keyboard-response","318","179956","0.0-408.0","35GMH2SV3F3V8YOO87580INXVQTOED","AUZNL6ARA1UEC","3HUR21WDDUBEMSLDIXZW1FAIHVWXYO","","543.6999998092651","img/food3.png","76","545.5","3","1","","1","1","1,0.5,0,1,0.5,0,0.5,0,1","0.5,0,1,0.5,0,1,0,1,0.5","2",""
"","html-keyboard-response","319","180258","0.0-409.0","35GMH2SV3F3V8YOO87580INXVQTOED","AUZNL6ARA1UEC","3HUR21WDDUBEMSLDIXZW1FAIHVWXYO","","null","<img src=""img/food3.png"" style=""width:200px; border:14px solid green;"">","null","","","","","","","","","",""
"","image-keyboard-response","320","180964","0.0-410.0","35GMH2SV3F3V8YOO87580INXVQTOED","AUZNL6ARA1UEC","3HUR21WDDUBEMSLDIXZW1FAIHVWXYO","","704.2000002861023","img/food5.png","76","705.5999999046326","3","1","","2","1","1,0.5,0,1,0.5,0,0.5,0,1","0.5,0,1,0.5,0,1,0,1,0.5","2",""
"","html-keyboard-response","321","181267","0.0-411.0","35GMH2SV3F3V8YOO87580INXVQTOED","AUZNL6ARA1UEC","3HUR21WDDUBEMSLDIXZW1FAIHVWXYO","","null","<img src=""img/food5.png"" style=""width:200px; border:14px solid green;"">","null","","","","","","","","","",""
"","image-keyboard-response","322","181910","0.0-412.0","35GMH2SV3F3V8YOO87580INXVQTOED","AUZNL6ARA1UEC","3HUR21WDDUBEMSLDIXZW1FAIHVWXYO","","641.8000001907349","img/food2.png","75","643.3000001907349","2","1","","3","1","1,0.5,0,1,0.5,0,0.5,0,1","0.5,0,1,0.5,0,1,0,1,0.5","2",""
"","html-keyboard-response","323","182215","0.0-413.0","35GMH2SV3F3V8YOO87580INXVQTOED","AUZNL6ARA1UEC","3HUR21WDDUBEMSLDIXZW1FAIHVWXYO","","null","<img src=""img/food2.png"" style=""width:200px; border:14px solid green;"">","null","","","","","","","","","",""
"","image-keyboard-response","324","182643","0.0-414.0","35GMH2SV3F3V8YOO87580INXVQTOED","AUZNL6ARA1UEC","3HUR21WDDUBEMSLDIXZW1FAIHVWXYO","","426.30000019073486","img/food2.png","75","427.80000019073486","2","1","","3","1","1,0.5,0,1,0.5,0,0.5,0,1","0.5,0,1,0.5,0,1,0,1,0.5","2",""
"","html-keyboard-response","325","182945","0.0-415.0","35GMH2SV3F3V8YOO87580INXVQTOED","AUZNL6ARA1UEC","3HUR21WDDUBEMSLDIXZW1FAIHVWXYO","","null","<img src=""img/food2.png"" style=""width:200px; border:14px solid green;"">","null","","","","","","","","","",""
"","image-keyboard-response","326","183536","0.0-416.0","35GMH2SV3F3V8YOO87580INXVQTOED","AUZNL6ARA1UEC","3HUR21WDDUBEMSLDIXZW1FAIHVWXYO","","589.7000002861023","img/food3.png","76","591","3","1","","1","1","1,0.5,0,1,0.5,0,0.5,0,1","0.5,0,1,0.5,0,1,0,1,0.5","2",""
"","html-keyboard-response","327","183839","0.0-417.0","35GMH2SV3F3V8YOO87580INXVQTOED","AUZNL6ARA1UEC","3HUR21WDDUBEMSLDIXZW1FAIHVWXYO","","null","<img src=""img/food3.png"" style=""width:200px; border:14px solid green;"">","null","","","","","","","","","",""
"","image-keyboard-response","328","184498","0.0-418.0","35GMH2SV3F3V8YOO87580INXVQTOED","AUZNL6ARA1UEC","3HUR21WDDUBEMSLDIXZW1FAIHVWXYO","","657.4000000953674","img/food3.png","76","658.8000001907349","3","1","","1","1","1,0.5,0,1,0.5,0,0.5,0,1","0.5,0,1,0.5,0,1,0,1,0.5","2",""
"","html-keyboard-response","329","184800","0.0-419.0","35GMH2SV3F3V8YOO87580INXVQTOED","AUZNL6ARA1UEC","3HUR21WDDUBEMSLDIXZW1FAIHVWXYO","","null","<img src=""img/food3.png"" style=""width:200px; border:14px solid green;"">","null","","","","","","","","","",""
"","image-keyboard-response","330","185215","0.0-420.0","35GMH2SV3F3V8YOO87580INXVQTOED","AUZNL6ARA1UEC","3HUR21WDDUBEMSLDIXZW1FAIHVWXYO","","412","img/food3.png","76","414","3","1","","1","1","1,0.5,0,1,0.5,0,0.5,0,1","0.5,0,1,0.5,0,1,0,1,0.5","2",""
"","html-keyboard-response","331","185518","0.0-421.0","35GMH2SV3F3V8YOO87580INXVQTOED","AUZNL6ARA1UEC","3HUR21WDDUBEMSLDIXZW1FAIHVWXYO","","null","<img src=""img/food3.png"" style=""width:200px; border:14px solid green;"">","null","","","","","","","","","",""
"","image-keyboard-response","332","186062","0.0-422.0","35GMH2SV3F3V8YOO87580INXVQTOED","AUZNL6ARA1UEC","3HUR21WDDUBEMSLDIXZW1FAIHVWXYO","","541.5","img/food2.png","75","543.5","2","1","","3","1","1,0.5,0,1,0.5,0,0.5,0,1","0.5,0,1,0.5,0,1,0,1,0.5","2",""
"","html-keyboard-response","333","186365","0.0-423.0","35GMH2SV3F3V8YOO87580INXVQTOED","AUZNL6ARA1UEC","3HUR21WDDUBEMSLDIXZW1FAIHVWXYO","","null","<img src=""img/food2.png"" style=""width:200px; border:14px solid green;"">","null","","","","","","","","","",""
"","image-keyboard-response","334","187065","0.0-424.0","35GMH2SV3F3V8YOO87580INXVQTOED","AUZNL6ARA1UEC","3HUR21WDDUBEMSLDIXZW1FAIHVWXYO","","697.1999998092651","img/food2.png","75","698.8000001907349","2","1","","3","1","1,0.5,0,1,0.5,0,0.5,0,1","0.5,0,1,0.5,0,1,0,1,0.5","2",""
"","html-keyboard-response","335","187366","0.0-425.0","35GMH2SV3F3V8YOO87580INXVQTOED","AUZNL6ARA1UEC","3HUR21WDDUBEMSLDIXZW1FAIHVWXYO","","null","<img src=""img/food2.png"" style=""width:200px; border:14px solid green;"">","null","","","","","","","","","",""
"","image-keyboard-response","336","187980","0.0-426.0","35GMH2SV3F3V8YOO87580INXVQTOED","AUZNL6ARA1UEC","3HUR21WDDUBEMSLDIXZW1FAIHVWXYO","","612.5","img/food2.png","75","613.2999997138977","2","1","","3","1","1,0.5,0,1,0.5,0,0.5,0,1","0.5,0,1,0.5,0,1,0,1,0.5","2",""
"","html-keyboard-response","337","188288","0.0-427.0","35GMH2SV3F3V8YOO87580INXVQTOED","AUZNL6ARA1UEC","3HUR21WDDUBEMSLDIXZW1FAIHVWXYO","","null","<img src=""img/food2.png"" style=""width:200px; border:14px solid green;"">","null","","","","","","","","","",""
"","image-keyboard-response","338","188719","0.0-428.0","35GMH2SV3F3V8YOO87580INXVQTOED","AUZNL6ARA1UEC","3HUR21WDDUBEMSLDIXZW1FAIHVWXYO","","428.7999997138977","img/food2.png","75","430.5","2","1","","3","1","1,0.5,0,1,0.5,0,0.5,0,1","0.5,0,1,0.5,0,1,0,1,0.5","2",""
"","html-keyboard-response","339","189022","0.0-429.0","35GMH2SV3F3V8YOO87580INXVQTOED","AUZNL6ARA1UEC","3HUR21WDDUBEMSLDIXZW1FAIHVWXYO","","null","<img src=""img/food2.png"" style=""width:200px; border:14px solid green;"">","null","","","","","","","","","",""
"","image-keyboard-response","340","189495","0.0-430.0","35GMH2SV3F3V8YOO87580INXVQTOED","AUZNL6ARA1UEC","3HUR21WDDUBEMSLDIXZW1FAIHVWXYO","","470.7999997138977","img/food2.png","75","472.19999980926514","2","1","","3","1","1,0.5,0,1,0.5,0,0.5,0,1","0.5,0,1,0.5,0,1,0,1,0.5","2",""
"","html-keyboard-response","341","189797","0.0-431.0","35GMH2SV3F3V8YOO87580INXVQTOED","AUZNL6ARA1UEC","3HUR21WDDUBEMSLDIXZW1FAIHVWXYO","","null","<img src=""img/food2.png"" style=""width:200px; border:14px solid green;"">","null","","","","","","","","","",""
"","image-keyboard-response","342","190357","0.0-432.0","35GMH2SV3F3V8YOO87580INXVQTOED","AUZNL6ARA1UEC","3HUR21WDDUBEMSLDIXZW1FAIHVWXYO","","557.5","img/food5.png","76","559.5","3","1","","2","1","1,0.5,0,1,0.5,0,0.5,0,1","0.5,0,1,0.5,0,1,0,1,0.5","2",""
"","html-keyboard-response","343","190661","0.0-433.0","35GMH2SV3F3V8YOO87580INXVQTOED","AUZNL6ARA1UEC","3HUR21WDDUBEMSLDIXZW1FAIHVWXYO","","null","<img src=""img/food5.png"" style=""width:200px; border:14px solid green;"">","null","","","","","","","","","",""
"","image-keyboard-response","344","191109","0.0-434.0","35GMH2SV3F3V8YOO87580INXVQTOED","AUZNL6ARA1UEC","3HUR21WDDUBEMSLDIXZW1FAIHVWXYO","","446.19999980926514","img/food5.png","76","448","3","1","","2","1","1,0.5,0,1,0.5,0,0.5,0,1","0.5,0,1,0.5,0,1,0,1,0.5","2",""
"","html-keyboard-response","345","191413","0.0-435.0","35GMH2SV3F3V8YOO87580INXVQTOED","AUZNL6ARA1UEC","3HUR21WDDUBEMSLDIXZW1FAIHVWXYO","","null","<img src=""img/food5.png"" style=""width:200px; border:14px solid green;"">","null","","","","","","","","","",""
"","image-keyboard-response","346","191871","0.0-436.0","35GMH2SV3F3V8YOO87580INXVQTOED","AUZNL6ARA1UEC","3HUR21WDDUBEMSLDIXZW1FAIHVWXYO","","455","img/food5.png","76","456.80000019073486","3","1","","2","1","1,0.5,0,1,0.5,0,0.5,0,1","0.5,0,1,0.5,0,1,0,1,0.5","2",""
"","html-keyboard-response","347","192175","0.0-437.0","35GMH2SV3F3V8YOO87580INXVQTOED","AUZNL6ARA1UEC","3HUR21WDDUBEMSLDIXZW1FAIHVWXYO","","null","<img src=""img/food5.png"" style=""width:200px; border:14px solid green;"">","null","","","","","","","","","",""
"","image-keyboard-response","348","192772","0.0-438.0","35GMH2SV3F3V8YOO87580INXVQTOED","AUZNL6ARA1UEC","3HUR21WDDUBEMSLDIXZW1FAIHVWXYO","","594.9000000953674","img/food5.png","76","597","3","1","","2","1","1,0.5,0,1,0.5,0,0.5,0,1","0.5,0,1,0.5,0,1,0,1,0.5","2",""
"","html-keyboard-response","349","193076","0.0-439.0","35GMH2SV3F3V8YOO87580INXVQTOED","AUZNL6ARA1UEC","3HUR21WDDUBEMSLDIXZW1FAIHVWXYO","","null","<img src=""img/food5.png"" style=""width:200px; border:14px solid green;"">","null","","","","","","","","","",""
"","image-keyboard-response","350","193642","0.0-440.0","35GMH2SV3F3V8YOO87580INXVQTOED","AUZNL6ARA1UEC","3HUR21WDDUBEMSLDIXZW1FAIHVWXYO","","564.2999997138977","img/food3.png","76","565.7000002861023","3","1","","1","1","1,0.5,0,1,0.5,0,0.5,0,1","0.5,0,1,0.5,0,1,0,1,0.5","2",""
"","html-keyboard-response","351","193944","0.0-441.0","35GMH2SV3F3V8YOO87580INXVQTOED","AUZNL6ARA1UEC","3HUR21WDDUBEMSLDIXZW1FAIHVWXYO","","null","<img src=""img/food3.png"" style=""width:200px; border:14px solid green;"">","null","","","","","","","","","",""
"","image-keyboard-response","352","194438","0.0-442.0","35GMH2SV3F3V8YOO87580INXVQTOED","AUZNL6ARA1UEC","3HUR21WDDUBEMSLDIXZW1FAIHVWXYO","","491.2000002861023","img/food3.png","76","493","3","1","","1","1","1,0.5,0,1,0.5,0,0.5,0,1","0.5,0,1,0.5,0,1,0,1,0.5","2",""
"","html-keyboard-response","353","194740","0.0-443.0","35GMH2SV3F3V8YOO87580INXVQTOED","AUZNL6ARA1UEC","3HUR21WDDUBEMSLDIXZW1FAIHVWXYO","","null","<img src=""img/food3.png"" style=""width:200px; border:14px solid green;"">","null","","","","","","","","","",""
"","image-keyboard-response","354","195401","0.0-444.0","35GMH2SV3F3V8YOO87580INXVQTOED","AUZNL6ARA1UEC","3HUR21WDDUBEMSLDIXZW1FAIHVWXYO","","658.6000003814697","img/food5.png","76","660.6999998092651","3","1","","2","1","1,0.5,0,1,0.5,0,0.5,0,1","0.5,0,1,0.5,0,1,0,1,0.5","2",""
"","html-keyboard-response","355","195705","0.0-445.0","35GMH2SV3F3V8YOO87580INXVQTOED","AUZNL6ARA1UEC","3HUR21WDDUBEMSLDIXZW1FAIHVWXYO","","null","<img src=""img/food5.png"" style=""width:200px; border:14px solid green;"">","null","","","","","","","","","",""
"","image-keyboard-response","356","196308","0.0-446.0","35GMH2SV3F3V8YOO87580INXVQTOED","AUZNL6ARA1UEC","3HUR21WDDUBEMSLDIXZW1FAIHVWXYO","","600.7000002861023","img/food5.png","76","602.4000000953674","3","1","","2","1","1,0.5,0,1,0.5,0,0.5,0,1","0.5,0,1,0.5,0,1,0,1,0.5","2",""
"","html-keyboard-response","357","196618","0.0-447.0","35GMH2SV3F3V8YOO87580INXVQTOED","AUZNL6ARA1UEC","3HUR21WDDUBEMSLDIXZW1FAIHVWXYO","","null","<img src=""img/food5.png"" style=""width:200px; border:14px solid green;"">","null","","","","","","","","","",""
"","image-keyboard-response","358","197111","0.0-448.0","35GMH2SV3F3V8YOO87580INXVQTOED","AUZNL6ARA1UEC","3HUR21WDDUBEMSLDIXZW1FAIHVWXYO","","490.5","img/food3.png","76","492.5","3","1","","1","1","1,0.5,0,1,0.5,0,0.5,0,1","0.5,0,1,0.5,0,1,0,1,0.5","2",""
"","html-keyboard-response","359","197415","0.0-449.0","35GMH2SV3F3V8YOO87580INXVQTOED","AUZNL6ARA1UEC","3HUR21WDDUBEMSLDIXZW1FAIHVWXYO","","null","<img src=""img/food3.png"" style=""width:200px; border:14px solid green;"">","null","","","","","","","","","",""
"","image-keyboard-response","360","197971","0.0-450.0","35GMH2SV3F3V8YOO87580INXVQTOED","AUZNL6ARA1UEC","3HUR21WDDUBEMSLDIXZW1FAIHVWXYO","","553.8999996185303","img/food3.png","76","555.4000000953674","3","1","","1","1","1,0.5,0,1,0.5,0,0.5,0,1","0.5,0,1,0.5,0,1,0,1,0.5","2",""
"","html-keyboard-response","361","198276","0.0-451.0","35GMH2SV3F3V8YOO87580INXVQTOED","AUZNL6ARA1UEC","3HUR21WDDUBEMSLDIXZW1FAIHVWXYO","","null","<img src=""img/food3.png"" style=""width:200px; border:14px solid green;"">","null","","","","","","","","","",""
"","image-keyboard-response","362","198738","0.0-452.0","35GMH2SV3F3V8YOO87580INXVQTOED","AUZNL6ARA1UEC","3HUR21WDDUBEMSLDIXZW1FAIHVWXYO","","461.30000019073486","img/food3.png","76","462.2000002861023","3","1","","1","1","1,0.5,0,1,0.5,0,0.5,0,1","0.5,0,1,0.5,0,1,0,1,0.5","2",""
"","html-keyboard-response","363","199040","0.0-453.0","35GMH2SV3F3V8YOO87580INXVQTOED","AUZNL6ARA1UEC","3HUR21WDDUBEMSLDIXZW1FAIHVWXYO","","null","<img src=""img/food3.png"" style=""width:200px; border:14px solid green;"">","null","","","","","","","","","",""
"","html-keyboard-response","364","201796","0.0-454.0","35GMH2SV3F3V8YOO87580INXVQTOED","AUZNL6ARA1UEC","3HUR21WDDUBEMSLDIXZW1FAIHVWXYO","","","","","","","","","","","","","",""
"","instructions","365","206060","0.0-455.0","35GMH2SV3F3V8YOO87580INXVQTOED","AUZNL6ARA1UEC","3HUR21WDDUBEMSLDIXZW1FAIHVWXYO","[{""page_index"":0,""viewing_time"":4263.10000038147}]","4263.400000095367","","","","","","","","","","","",""
"","survey-text","366","213677","0.0-456.0","35GMH2SV3F3V8YOO87580INXVQTOED","AUZNL6ARA1UEC","3HUR21WDDUBEMSLDIXZW1FAIHVWXYO","","7611.5","","","","","","","","","","","","{""Q0"":""AUZNL6ARA1UEC""}"
