"success","trial_type","trial_index","time_elapsed","internal_node_id","assignmentID","mturkID","hitID","view_history","rt","stimulus","key_press","reactionTime","a","r","s","cond","reward_cond","reward_cond_actual","reward_matrix_idx","warning","responses"
"true","fullscreen","0","3201","0.0-0.0","30IQTZXKALSJBHNM1RTPY6CMD000XY","AV9GV051TQCZK","3I7KR83SNAZT1REYB2SRC49PCEEK9H","","","","","","","","","","","","","",""
"","instructions","1","9171","0.0-1.0","30IQTZXKALSJBHNM1RTPY6CMD000XY","AV9GV051TQCZK","3I7KR83SNAZT1REYB2SRC49PCEEK9H","[{""page_index"":0,""viewing_time"":1415.3999999985099},{""page_index"":1,""viewing_time"":1421.9000000059605},{""page_index"":2,""viewing_time"":412},{""page_index"":3,""viewing_time"":631.8999999985099},{""page_index"":4,""viewing_time"":543.1000000014901},{""page_index"":5,""viewing_time"":721.8999999985099},{""page_index"":6,""viewing_time"":823.1999999955297}]","5969.60000000149","","","","","","","","","","","",""
"","image-keyboard-response","2","10918","0.0-2.0","30IQTZXKALSJBHNM1RTPY6CMD000XY","AV9GV051TQCZK","3I7KR83SNAZT1REYB2SRC49PCEEK9H","","1746.2999999970198","img/food3.png","74","1747","1","0","2","1","1,0.5,0,1,0.5,0,0.5,0,1","0.5,0,1,0.5,0,1,0,1,0.5","2","",""
"","html-keyboard-response","3","11228","0.0-3.0","30IQTZXKALSJBHNM1RTPY6CMD000XY","AV9GV051TQCZK","3I7KR83SNAZT1REYB2SRC49PCEEK9H","","null","<img src=""img/food3.png"" style=""width:200px;border:14px solid red;"">","null","","","","","","","","","",""
"","image-keyboard-response","4","12310","0.0-4.0","30IQTZXKALSJBHNM1RTPY6CMD000XY","AV9GV051TQCZK","3I7KR83SNAZT1REYB2SRC49PCEEK9H","","1081","img/food5.png","75","1081.6000000014901","2","1","3","1","1,0.5,0,1,0.5,0,0.5,0,1","0.5,0,1,0.5,0,1,0,1,0.5","2","",""
"","html-keyboard-response","5","12626","0.0-5.0","30IQTZXKALSJBHNM1RTPY6CMD000XY","AV9GV051TQCZK","3I7KR83SNAZT1REYB2SRC49PCEEK9H","","null","<img src=""img/food5.png"" style=""width:200px; border:14px solid green;"">","null","","","","","","","","","",""
"","image-keyboard-response","6","13270","0.0-6.0","30IQTZXKALSJBHNM1RTPY6CMD000XY","AV9GV051TQCZK","3I7KR83SNAZT1REYB2SRC49PCEEK9H","","643","img/food6.png","75","643.5","2","0","1","1","1,0.5,0,1,0.5,0,0.5,0,1","0.5,0,1,0.5,0,1,0,1,0.5","2","",""
"","html-keyboard-response","7","13571","0.0-7.0","30IQTZXKALSJBHNM1RTPY6CMD000XY","AV9GV051TQCZK","3I7KR83SNAZT1REYB2SRC49PCEEK9H","","null","<img src=""img/food6.png"" style=""width:200px;border:14px solid red;"">","null","","","","","","","","","",""
"","image-keyboard-response","8","13894","0.0-8.0","30IQTZXKALSJBHNM1RTPY6CMD000XY","AV9GV051TQCZK","3I7KR83SNAZT1REYB2SRC49PCEEK9H","","322.19999999552965","img/food5.png","76","322.6000000014901","3","1","3","1","1,0.5,0,1,0.5,0,0.5,0,1","0.5,0,1,0.5,0,1,0,1,0.5","2","",""
"","html-keyboard-response","9","14196","0.0-9.0","30IQTZXKALSJBHNM1RTPY6CMD000XY","AV9GV051TQCZK","3I7KR83SNAZT1REYB2SRC49PCEEK9H","","null","<img src=""img/food5.png"" style=""width:200px; border:14px solid green;"">","null","","","","","","","","","",""
"","image-keyboard-response","10","15286","0.0-10.0","30IQTZXKALSJBHNM1RTPY6CMD000XY","AV9GV051TQCZK","3I7KR83SNAZT1REYB2SRC49PCEEK9H","","1089.5","img/food3.png","75","1090.1000000014901","2","0","2","1","1,0.5,0,1,0.5,0,0.5,0,1","0.5,0,1,0.5,0,1,0,1,0.5","2","",""
"","html-keyboard-response","11","15589","0.0-11.0","30IQTZXKALSJBHNM1RTPY6CMD000XY","AV9GV051TQCZK","3I7KR83SNAZT1REYB2SRC49PCEEK9H","","null","<img src=""img/food3.png"" style=""width:200px;border:14px solid red;"">","null","","","","","","","","","",""
"","image-keyboard-response","12","16302","0.0-12.0","30IQTZXKALSJBHNM1RTPY6CMD000XY","AV9GV051TQCZK","3I7KR83SNAZT1REYB2SRC49PCEEK9H","","712.6000000014901","img/food6.png","74","713","1","0","1","1","1,0.5,0,1,0.5,0,0.5,0,1","0.5,0,1,0.5,0,1,0,1,0.5","2","",""
"","html-keyboard-response","13","16614","0.0-13.0","30IQTZXKALSJBHNM1RTPY6CMD000XY","AV9GV051TQCZK","3I7KR83SNAZT1REYB2SRC49PCEEK9H","","null","<img src=""img/food6.png"" style=""width:200px;border:14px solid red;"">","null","","","","","","","","","",""
"","image-keyboard-response","14","17406","0.0-14.0","30IQTZXKALSJBHNM1RTPY6CMD000XY","AV9GV051TQCZK","3I7KR83SNAZT1REYB2SRC49PCEEK9H","","792","img/food5.png","75","792.5","2","1","3","1","1,0.5,0,1,0.5,0,0.5,0,1","0.5,0,1,0.5,0,1,0,1,0.5","2","",""
"","html-keyboard-response","15","17718","0.0-15.0","30IQTZXKALSJBHNM1RTPY6CMD000XY","AV9GV051TQCZK","3I7KR83SNAZT1REYB2SRC49PCEEK9H","","null","<img src=""img/food5.png"" style=""width:200px; border:14px solid green;"">","null","","","","","","","","","",""
"","image-keyboard-response","16","18470","0.0-16.0","30IQTZXKALSJBHNM1RTPY6CMD000XY","AV9GV051TQCZK","3I7KR83SNAZT1REYB2SRC49PCEEK9H","","751.2999999970198","img/food5.png","75","751.7999999970198","2","1","3","1","1,0.5,0,1,0.5,0,0.5,0,1","0.5,0,1,0.5,0,1,0,1,0.5","2","",""
"","html-keyboard-response","17","18772","0.0-17.0","30IQTZXKALSJBHNM1RTPY6CMD000XY","AV9GV051TQCZK","3I7KR83SNAZT1REYB2SRC49PCEEK9H","","null","<img src=""img/food5.png"" style=""width:200px; border:14px solid green;"">","null","","","","","","","","","",""
"","image-keyboard-response","18","19398","0.0-18.0","30IQTZXKALSJBHNM1RTPY6CMD000XY","AV9GV051TQCZK","3I7KR83SNAZT1REYB2SRC49PCEEK9H","","625.6999999955297","img/food5.png","75","626.1000000014901","2","1","3","1","1,0.5,0,1,0.5,0,0.5,0,1","0.5,0,1,0.5,0,1,0,1,0.5","2","",""
"","html-keyboard-response","19","19710","0.0-19.0","30IQTZXKALSJBHNM1RTPY6CMD000XY","AV9GV051TQCZK","3I7KR83SNAZT1REYB2SRC49PCEEK9H","","null","<img src=""img/food5.png"" style=""width:200px; border:14px solid green;"">","null","","","","","","","","","",""
"","image-keyboard-response","20","20374","0.0-20.0","30IQTZXKALSJBHNM1RTPY6CMD000XY","AV9GV051TQCZK","3I7KR83SNAZT1REYB2SRC49PCEEK9H","","663.5999999940395","img/food6.png","76","664","3","1","1","1","1,0.5,0,1,0.5,0,0.5,0,1","0.5,0,1,0.5,0,1,0,1,0.5","2","",""
"","html-keyboard-response","21","20681","0.0-21.0","30IQTZXKALSJBHNM1RTPY6CMD000XY","AV9GV051TQCZK","3I7KR83SNAZT1REYB2SRC49PCEEK9H","","null","<img src=""img/food6.png"" style=""width:200px; border:14px solid green;"">","null","","","","","","","","","",""
"","image-keyboard-response","22","21142","0.0-22.0","30IQTZXKALSJBHNM1RTPY6CMD000XY","AV9GV051TQCZK","3I7KR83SNAZT1REYB2SRC49PCEEK9H","","460","img/food6.png","76","460.3999999985099","3","1","1","1","1,0.5,0,1,0.5,0,0.5,0,1","0.5,0,1,0.5,0,1,0,1,0.5","2","",""
"","html-keyboard-response","23","21447","0.0-23.0","30IQTZXKALSJBHNM1RTPY6CMD000XY","AV9GV051TQCZK","3I7KR83SNAZT1REYB2SRC49PCEEK9H","","null","<img src=""img/food6.png"" style=""width:200px; border:14px solid green;"">","null","","","","","","","","","",""
"","image-keyboard-response","24","22294","0.0-24.0","30IQTZXKALSJBHNM1RTPY6CMD000XY","AV9GV051TQCZK","3I7KR83SNAZT1REYB2SRC49PCEEK9H","","846.8999999985099","img/food3.png","74","847.1999999955297","1","1","2","1","1,0.5,0,1,0.5,0,0.5,0,1","0.5,0,1,0.5,0,1,0,1,0.5","2","",""
"","html-keyboard-response","25","22603","0.0-25.0","30IQTZXKALSJBHNM1RTPY6CMD000XY","AV9GV051TQCZK","3I7KR83SNAZT1REYB2SRC49PCEEK9H","","null","<img src=""img/food3.png"" style=""width:200px; border:14px solid green;"">","null","","","","","","","","","",""
"","image-keyboard-response","26","23086","0.0-26.0","30IQTZXKALSJBHNM1RTPY6CMD000XY","AV9GV051TQCZK","3I7KR83SNAZT1REYB2SRC49PCEEK9H","","482.19999999552965","img/food3.png","74","482.6000000014901","1","0","2","1","1,0.5,0,1,0.5,0,0.5,0,1","0.5,0,1,0.5,0,1,0,1,0.5","2","",""
"","html-keyboard-response","27","23393","0.0-27.0","30IQTZXKALSJBHNM1RTPY6CMD000XY","AV9GV051TQCZK","3I7KR83SNAZT1REYB2SRC49PCEEK9H","","null","<img src=""img/food3.png"" style=""width:200px;border:14px solid red;"">","null","","","","","","","","","",""
"","image-keyboard-response","28","24014","0.0-28.0","30IQTZXKALSJBHNM1RTPY6CMD000XY","AV9GV051TQCZK","3I7KR83SNAZT1REYB2SRC49PCEEK9H","","620.3999999985099","img/food6.png","76","620.8999999985099","3","1","1","1","1,0.5,0,1,0.5,0,0.5,0,1","0.5,0,1,0.5,0,1,0,1,0.5","2","",""
"","html-keyboard-response","29","24326","0.0-29.0","30IQTZXKALSJBHNM1RTPY6CMD000XY","AV9GV051TQCZK","3I7KR83SNAZT1REYB2SRC49PCEEK9H","","null","<img src=""img/food6.png"" style=""width:200px; border:14px solid green;"">","null","","","","","","","","","",""
"","image-keyboard-response","30","24926","0.0-30.0","30IQTZXKALSJBHNM1RTPY6CMD000XY","AV9GV051TQCZK","3I7KR83SNAZT1REYB2SRC49PCEEK9H","","600.1000000014901","img/food5.png","74","600.5","1","0","3","1","1,0.5,0,1,0.5,0,0.5,0,1","0.5,0,1,0.5,0,1,0,1,0.5","2","",""
"","html-keyboard-response","31","25238","0.0-31.0","30IQTZXKALSJBHNM1RTPY6CMD000XY","AV9GV051TQCZK","3I7KR83SNAZT1REYB2SRC49PCEEK9H","","null","<img src=""img/food5.png"" style=""width:200px;border:14px solid red;"">","null","","","","","","","","","",""
"","image-keyboard-response","32","25654","0.0-32.0","30IQTZXKALSJBHNM1RTPY6CMD000XY","AV9GV051TQCZK","3I7KR83SNAZT1REYB2SRC49PCEEK9H","","415.5","img/food3.png","76","415.8999999985099","3","1","2","1","1,0.5,0,1,0.5,0,0.5,0,1","0.5,0,1,0.5,0,1,0,1,0.5","2","",""
"","html-keyboard-response","33","25960","0.0-33.0","30IQTZXKALSJBHNM1RTPY6CMD000XY","AV9GV051TQCZK","3I7KR83SNAZT1REYB2SRC49PCEEK9H","","null","<img src=""img/food3.png"" style=""width:200px; border:14px solid green;"">","null","","","","","","","","","",""
"","image-keyboard-response","34","26486","0.0-34.0","30IQTZXKALSJBHNM1RTPY6CMD000XY","AV9GV051TQCZK","3I7KR83SNAZT1REYB2SRC49PCEEK9H","","525.8999999985099","img/food5.png","75","526.2999999970198","2","1","3","1","1,0.5,0,1,0.5,0,0.5,0,1","0.5,0,1,0.5,0,1,0,1,0.5","2","",""
"","html-keyboard-response","35","26787","0.0-35.0","30IQTZXKALSJBHNM1RTPY6CMD000XY","AV9GV051TQCZK","3I7KR83SNAZT1REYB2SRC49PCEEK9H","","null","<img src=""img/food5.png"" style=""width:200px; border:14px solid green;"">","null","","","","","","","","","",""
"","image-keyboard-response","36","27446","0.0-36.0","30IQTZXKALSJBHNM1RTPY6CMD000XY","AV9GV051TQCZK","3I7KR83SNAZT1REYB2SRC49PCEEK9H","","658.1999999955297","img/food6.png","76","658.3999999985099","3","1","1","1","1,0.5,0,1,0.5,0,0.5,0,1","0.5,0,1,0.5,0,1,0,1,0.5","2","",""
"","html-keyboard-response","37","27748","0.0-37.0","30IQTZXKALSJBHNM1RTPY6CMD000XY","AV9GV051TQCZK","3I7KR83SNAZT1REYB2SRC49PCEEK9H","","null","<img src=""img/food6.png"" style=""width:200px; border:14px solid green;"">","null","","","","","","","","","",""
"","image-keyboard-response","38","28230","0.0-38.0","30IQTZXKALSJBHNM1RTPY6CMD000XY","AV9GV051TQCZK","3I7KR83SNAZT1REYB2SRC49PCEEK9H","","481.59999999403954","img/food3.png","75","482.1000000014901","2","0","2","1","1,0.5,0,1,0.5,0,0.5,0,1","0.5,0,1,0.5,0,1,0,1,0.5","2","",""
"","html-keyboard-response","39","28532","0.0-39.0","30IQTZXKALSJBHNM1RTPY6CMD000XY","AV9GV051TQCZK","3I7KR83SNAZT1REYB2SRC49PCEEK9H","","null","<img src=""img/food3.png"" style=""width:200px;border:14px solid red;"">","null","","","","","","","","","",""
"","image-keyboard-response","40","28670","0.0-40.0","30IQTZXKALSJBHNM1RTPY6CMD000XY","AV9GV051TQCZK","3I7KR83SNAZT1REYB2SRC49PCEEK9H","","137.89999999850988","img/food3.png","74","138.19999999552965","1","1","2","1","1,0.5,0,1,0.5,0,0.5,0,1","0.5,0,1,0.5,0,1,0,1,0.5","2","",""
"","html-keyboard-response","41","28971","0.0-41.0","30IQTZXKALSJBHNM1RTPY6CMD000XY","AV9GV051TQCZK","3I7KR83SNAZT1REYB2SRC49PCEEK9H","","null","<img src=""img/food3.png"" style=""width:200px; border:14px solid green;"">","null","","","","","","","","","",""
"","image-keyboard-response","42","29766","0.0-42.0","30IQTZXKALSJBHNM1RTPY6CMD000XY","AV9GV051TQCZK","3I7KR83SNAZT1REYB2SRC49PCEEK9H","","794.1999999955297","img/food5.png","74","794.6000000014901","1","0","3","1","1,0.5,0,1,0.5,0,0.5,0,1","0.5,0,1,0.5,0,1,0,1,0.5","2","",""
"","html-keyboard-response","43","30068","0.0-43.0","30IQTZXKALSJBHNM1RTPY6CMD000XY","AV9GV051TQCZK","3I7KR83SNAZT1REYB2SRC49PCEEK9H","","null","<img src=""img/food5.png"" style=""width:200px;border:14px solid red;"">","null","","","","","","","","","",""
"","image-keyboard-response","44","30246","0.0-44.0","30IQTZXKALSJBHNM1RTPY6CMD000XY","AV9GV051TQCZK","3I7KR83SNAZT1REYB2SRC49PCEEK9H","","178","img/food3.png","76","178.29999999701977","3","1","2","1","1,0.5,0,1,0.5,0,0.5,0,1","0.5,0,1,0.5,0,1,0,1,0.5","2","",""
"","html-keyboard-response","45","30548","0.0-45.0","30IQTZXKALSJBHNM1RTPY6CMD000XY","AV9GV051TQCZK","3I7KR83SNAZT1REYB2SRC49PCEEK9H","","null","<img src=""img/food3.png"" style=""width:200px; border:14px solid green;"">","null","","","","","","","","","",""
"","image-keyboard-response","46","31294","0.0-46.0","30IQTZXKALSJBHNM1RTPY6CMD000XY","AV9GV051TQCZK","3I7KR83SNAZT1REYB2SRC49PCEEK9H","","745.5999999940395","img/food5.png","75","746.2000000029802","2","1","3","1","1,0.5,0,1,0.5,0,0.5,0,1","0.5,0,1,0.5,0,1,0,1,0.5","2","",""
"","html-keyboard-response","47","31595","0.0-47.0","30IQTZXKALSJBHNM1RTPY6CMD000XY","AV9GV051TQCZK","3I7KR83SNAZT1REYB2SRC49PCEEK9H","","null","<img src=""img/food5.png"" style=""width:200px; border:14px solid green;"">","null","","","","","","","","","",""
"","image-keyboard-response","48","32054","0.0-48.0","30IQTZXKALSJBHNM1RTPY6CMD000XY","AV9GV051TQCZK","3I7KR83SNAZT1REYB2SRC49PCEEK9H","","458","img/food5.png","75","458.3999999985099","2","1","3","1","1,0.5,0,1,0.5,0,0.5,0,1","0.5,0,1,0.5,0,1,0,1,0.5","2","",""
"","html-keyboard-response","49","32355","0.0-49.0","30IQTZXKALSJBHNM1RTPY6CMD000XY","AV9GV051TQCZK","3I7KR83SNAZT1REYB2SRC49PCEEK9H","","null","<img src=""img/food5.png"" style=""width:200px; border:14px solid green;"">","null","","","","","","","","","",""
"","image-keyboard-response","50","32686","0.0-50.0","30IQTZXKALSJBHNM1RTPY6CMD000XY","AV9GV051TQCZK","3I7KR83SNAZT1REYB2SRC49PCEEK9H","","330.3999999985099","img/food5.png","75","330.69999999552965","2","1","3","1","1,0.5,0,1,0.5,0,0.5,0,1","0.5,0,1,0.5,0,1,0,1,0.5","2","",""
"","html-keyboard-response","51","32988","0.0-51.0","30IQTZXKALSJBHNM1RTPY6CMD000XY","AV9GV051TQCZK","3I7KR83SNAZT1REYB2SRC49PCEEK9H","","null","<img src=""img/food5.png"" style=""width:200px; border:14px solid green;"">","null","","","","","","","","","",""
"","image-keyboard-response","52","33230","0.0-52.0","30IQTZXKALSJBHNM1RTPY6CMD000XY","AV9GV051TQCZK","3I7KR83SNAZT1REYB2SRC49PCEEK9H","","241.89999999850988","img/food5.png","75","242.29999999701977","2","1","3","1","1,0.5,0,1,0.5,0,0.5,0,1","0.5,0,1,0.5,0,1,0,1,0.5","2","",""
"","html-keyboard-response","53","33532","0.0-53.0","30IQTZXKALSJBHNM1RTPY6CMD000XY","AV9GV051TQCZK","3I7KR83SNAZT1REYB2SRC49PCEEK9H","","null","<img src=""img/food5.png"" style=""width:200px; border:14px solid green;"">","null","","","","","","","","","",""
"","image-keyboard-response","54","34006","0.0-54.0","30IQTZXKALSJBHNM1RTPY6CMD000XY","AV9GV051TQCZK","3I7KR83SNAZT1REYB2SRC49PCEEK9H","","473.5","img/food6.png","76","473.8999999985099","3","1","1","1","1,0.5,0,1,0.5,0,0.5,0,1","0.5,0,1,0.5,0,1,0,1,0.5","2","",""
"","html-keyboard-response","55","34307","0.0-55.0","30IQTZXKALSJBHNM1RTPY6CMD000XY","AV9GV051TQCZK","3I7KR83SNAZT1REYB2SRC49PCEEK9H","","null","<img src=""img/food6.png"" style=""width:200px; border:14px solid green;"">","null","","","","","","","","","",""
"","image-keyboard-response","56","34822","0.0-56.0","30IQTZXKALSJBHNM1RTPY6CMD000XY","AV9GV051TQCZK","3I7KR83SNAZT1REYB2SRC49PCEEK9H","","514.8999999985099","img/food3.png","74","515.2999999970198","1","1","2","1","1,0.5,0,1,0.5,0,0.5,0,1","0.5,0,1,0.5,0,1,0,1,0.5","2","",""
"","html-keyboard-response","57","35137","0.0-57.0","30IQTZXKALSJBHNM1RTPY6CMD000XY","AV9GV051TQCZK","3I7KR83SNAZT1REYB2SRC49PCEEK9H","","null","<img src=""img/food3.png"" style=""width:200px; border:14px solid green;"">","null","","","","","","","","","",""
"","image-keyboard-response","58","35870","0.0-58.0","30IQTZXKALSJBHNM1RTPY6CMD000XY","AV9GV051TQCZK","3I7KR83SNAZT1REYB2SRC49PCEEK9H","","732.4000000059605","img/food6.png","76","732.8999999985099","3","1","1","1","1,0.5,0,1,0.5,0,0.5,0,1","0.5,0,1,0.5,0,1,0,1,0.5","2","",""
"","html-keyboard-response","59","36171","0.0-59.0","30IQTZXKALSJBHNM1RTPY6CMD000XY","AV9GV051TQCZK","3I7KR83SNAZT1REYB2SRC49PCEEK9H","","null","<img src=""img/food6.png"" style=""width:200px; border:14px solid green;"">","null","","","","","","","","","",""
"","image-keyboard-response","60","36662","0.0-60.0","30IQTZXKALSJBHNM1RTPY6CMD000XY","AV9GV051TQCZK","3I7KR83SNAZT1REYB2SRC49PCEEK9H","","490.3999999985099","img/food5.png","76","490.69999999552965","3","1","3","1","1,0.5,0,1,0.5,0,0.5,0,1","0.5,0,1,0.5,0,1,0,1,0.5","2","",""
"","html-keyboard-response","61","36963","0.0-61.0","30IQTZXKALSJBHNM1RTPY6CMD000XY","AV9GV051TQCZK","3I7KR83SNAZT1REYB2SRC49PCEEK9H","","null","<img src=""img/food5.png"" style=""width:200px; border:14px solid green;"">","null","","","","","","","","","",""
"","image-keyboard-response","62","37534","0.0-62.0","30IQTZXKALSJBHNM1RTPY6CMD000XY","AV9GV051TQCZK","3I7KR83SNAZT1REYB2SRC49PCEEK9H","","570.2999999970198","img/food6.png","75","570.5","2","0","1","1","1,0.5,0,1,0.5,0,0.5,0,1","0.5,0,1,0.5,0,1,0,1,0.5","2","",""
"","html-keyboard-response","63","37848","0.0-63.0","30IQTZXKALSJBHNM1RTPY6CMD000XY","AV9GV051TQCZK","3I7KR83SNAZT1REYB2SRC49PCEEK9H","","null","<img src=""img/food6.png"" style=""width:200px;border:14px solid red;"">","null","","","","","","","","","",""
"","image-keyboard-response","64","38190","0.0-64.0","30IQTZXKALSJBHNM1RTPY6CMD000XY","AV9GV051TQCZK","3I7KR83SNAZT1REYB2SRC49PCEEK9H","","341.19999999552965","img/food6.png","76","341.70000000298023","3","1","1","1","1,0.5,0,1,0.5,0,0.5,0,1","0.5,0,1,0.5,0,1,0,1,0.5","2","",""
"","html-keyboard-response","65","38491","0.0-65.0","30IQTZXKALSJBHNM1RTPY6CMD000XY","AV9GV051TQCZK","3I7KR83SNAZT1REYB2SRC49PCEEK9H","","null","<img src=""img/food6.png"" style=""width:200px; border:14px solid green;"">","null","","","","","","","","","",""
"","image-keyboard-response","66","39294","0.0-66.0","30IQTZXKALSJBHNM1RTPY6CMD000XY","AV9GV051TQCZK","3I7KR83SNAZT1REYB2SRC49PCEEK9H","","802.1999999955297","img/food5.png","75","802.7000000029802","2","1","3","1","1,0.5,0,1,0.5,0,0.5,0,1","0.5,0,1,0.5,0,1,0,1,0.5","2","",""
"","html-keyboard-response","67","39595","0.0-67.0","30IQTZXKALSJBHNM1RTPY6CMD000XY","AV9GV051TQCZK","3I7KR83SNAZT1REYB2SRC49PCEEK9H","","null","<img src=""img/food5.png"" style=""width:200px; border:14px solid green;"">","null","","","","","","","","","",""
"","image-keyboard-response","68","39926","0.0-68.0","30IQTZXKALSJBHNM1RTPY6CMD000XY","AV9GV051TQCZK","3I7KR83SNAZT1REYB2SRC49PCEEK9H","","330.5","img/food5.png","75","331","2","1","3","1","1,0.5,0,1,0.5,0,0.5,0,1","0.5,0,1,0.5,0,1,0,1,0.5","2","",""
"","html-keyboard-response","69","40228","0.0-69.0","30IQTZXKALSJBHNM1RTPY6CMD000XY","AV9GV051TQCZK","3I7KR83SNAZT1REYB2SRC49PCEEK9H","","null","<img src=""img/food5.png"" style=""width:200px; border:14px solid green;"">","null","","","","","","","","","",""
"","image-keyboard-response","70","40486","0.0-70.0","30IQTZXKALSJBHNM1RTPY6CMD000XY","AV9GV051TQCZK","3I7KR83SNAZT1REYB2SRC49PCEEK9H","","257.59999999403954","img/food5.png","75","257.8999999985099","2","1","3","1","1,0.5,0,1,0.5,0,0.5,0,1","0.5,0,1,0.5,0,1,0,1,0.5","2","",""
"","html-keyboard-response","71","40787","0.0-71.0","30IQTZXKALSJBHNM1RTPY6CMD000XY","AV9GV051TQCZK","3I7KR83SNAZT1REYB2SRC49PCEEK9H","","null","<img src=""img/food5.png"" style=""width:200px; border:14px solid green;"">","null","","","","","","","","","",""
"","image-keyboard-response","72","41238","0.0-72.0","30IQTZXKALSJBHNM1RTPY6CMD000XY","AV9GV051TQCZK","3I7KR83SNAZT1REYB2SRC49PCEEK9H","","450.19999999552965","img/food6.png","76","450.6000000014901","3","1","1","1","1,0.5,0,1,0.5,0,0.5,0,1","0.5,0,1,0.5,0,1,0,1,0.5","2","",""
"","html-keyboard-response","73","41539","0.0-73.0","30IQTZXKALSJBHNM1RTPY6CMD000XY","AV9GV051TQCZK","3I7KR83SNAZT1REYB2SRC49PCEEK9H","","null","<img src=""img/food6.png"" style=""width:200px; border:14px solid green;"">","null","","","","","","","","","",""
"","image-keyboard-response","74","41830","0.0-74.0","30IQTZXKALSJBHNM1RTPY6CMD000XY","AV9GV051TQCZK","3I7KR83SNAZT1REYB2SRC49PCEEK9H","","290.5","img/food6.png","76","290.8999999985099","3","1","1","1","1,0.5,0,1,0.5,0,0.5,0,1","0.5,0,1,0.5,0,1,0,1,0.5","2","",""
"","html-keyboard-response","75","42131","0.0-75.0","30IQTZXKALSJBHNM1RTPY6CMD000XY","AV9GV051TQCZK","3I7KR83SNAZT1REYB2SRC49PCEEK9H","","null","<img src=""img/food6.png"" style=""width:200px; border:14px solid green;"">","null","","","","","","","","","",""
"","image-keyboard-response","76","42334","0.0-76.0","30IQTZXKALSJBHNM1RTPY6CMD000XY","AV9GV051TQCZK","3I7KR83SNAZT1REYB2SRC49PCEEK9H","","202.09999999403954","img/food5.png","76","202.39999999850988","3","0","3","1","1,0.5,0,1,0.5,0,0.5,0,1","0.5,0,1,0.5,0,1,0,1,0.5","2","",""
"","html-keyboard-response","77","42635","0.0-77.0","30IQTZXKALSJBHNM1RTPY6CMD000XY","AV9GV051TQCZK","3I7KR83SNAZT1REYB2SRC49PCEEK9H","","null","<img src=""img/food5.png"" style=""width:200px;border:14px solid red;"">","null","","","","","","","","","",""
"","image-keyboard-response","78","43086","0.0-78.0","30IQTZXKALSJBHNM1RTPY6CMD000XY","AV9GV051TQCZK","3I7KR83SNAZT1REYB2SRC49PCEEK9H","","450.19999999552965","img/food6.png","75","450.69999999552965","2","0","1","1","1,0.5,0,1,0.5,0,0.5,0,1","0.5,0,1,0.5,0,1,0,1,0.5","2","",""
"","html-keyboard-response","79","43387","0.0-79.0","30IQTZXKALSJBHNM1RTPY6CMD000XY","AV9GV051TQCZK","3I7KR83SNAZT1REYB2SRC49PCEEK9H","","null","<img src=""img/food6.png"" style=""width:200px;border:14px solid red;"">","null","","","","","","","","","",""
"","image-keyboard-response","80","43710","0.0-80.0","30IQTZXKALSJBHNM1RTPY6CMD000XY","AV9GV051TQCZK","3I7KR83SNAZT1REYB2SRC49PCEEK9H","","322.09999999403954","img/food3.png","76","322.5","3","1","2","1","1,0.5,0,1,0.5,0,0.5,0,1","0.5,0,1,0.5,0,1,0,1,0.5","2","",""
"","html-keyboard-response","81","44011","0.0-81.0","30IQTZXKALSJBHNM1RTPY6CMD000XY","AV9GV051TQCZK","3I7KR83SNAZT1REYB2SRC49PCEEK9H","","null","<img src=""img/food3.png"" style=""width:200px; border:14px solid green;"">","null","","","","","","","","","",""
"","image-keyboard-response","82","44446","0.0-82.0","30IQTZXKALSJBHNM1RTPY6CMD000XY","AV9GV051TQCZK","3I7KR83SNAZT1REYB2SRC49PCEEK9H","","434.59999999403954","img/food3.png","76","435","3","1","2","1","1,0.5,0,1,0.5,0,0.5,0,1","0.5,0,1,0.5,0,1,0,1,0.5","2","",""
"","html-keyboard-response","83","44747","0.0-83.0","30IQTZXKALSJBHNM1RTPY6CMD000XY","AV9GV051TQCZK","3I7KR83SNAZT1REYB2SRC49PCEEK9H","","null","<img src=""img/food3.png"" style=""width:200px; border:14px solid green;"">","null","","","","","","","","","",""
"","image-keyboard-response","84","45358","0.0-84.0","30IQTZXKALSJBHNM1RTPY6CMD000XY","AV9GV051TQCZK","3I7KR83SNAZT1REYB2SRC49PCEEK9H","","611.1000000014901","img/food5.png","75","611.3999999985099","2","1","3","1","1,0.5,0,1,0.5,0,0.5,0,1","0.5,0,1,0.5,0,1,0,1,0.5","2","",""
"","html-keyboard-response","85","45659","0.0-85.0","30IQTZXKALSJBHNM1RTPY6CMD000XY","AV9GV051TQCZK","3I7KR83SNAZT1REYB2SRC49PCEEK9H","","null","<img src=""img/food5.png"" style=""width:200px; border:14px solid green;"">","null","","","","","","","","","",""
"","image-keyboard-response","86","45934","0.0-86.0","30IQTZXKALSJBHNM1RTPY6CMD000XY","AV9GV051TQCZK","3I7KR83SNAZT1REYB2SRC49PCEEK9H","","274.3999999985099","img/food5.png","76","274.8999999985099","3","0","3","1","1,0.5,0,1,0.5,0,0.5,0,1","0.5,0,1,0.5,0,1,0,1,0.5","2","",""
"","html-keyboard-response","87","46235","0.0-87.0","30IQTZXKALSJBHNM1RTPY6CMD000XY","AV9GV051TQCZK","3I7KR83SNAZT1REYB2SRC49PCEEK9H","","null","<img src=""img/food5.png"" style=""width:200px;border:14px solid red;"">","null","","","","","","","","","",""
"","image-keyboard-response","88","46390","0.0-88.0","30IQTZXKALSJBHNM1RTPY6CMD000XY","AV9GV051TQCZK","3I7KR83SNAZT1REYB2SRC49PCEEK9H","","154.09999999403954","img/food3.png","75","154.60000000149012","2","0","2","1","1,0.5,0,1,0.5,0,0.5,0,1","0.5,0,1,0.5,0,1,0,1,0.5","2","",""
"","html-keyboard-response","89","46691","0.0-89.0","30IQTZXKALSJBHNM1RTPY6CMD000XY","AV9GV051TQCZK","3I7KR83SNAZT1REYB2SRC49PCEEK9H","","null","<img src=""img/food3.png"" style=""width:200px;border:14px solid red;"">","null","","","","","","","","","",""
"","image-keyboard-response","90","46958","0.0-90.0","30IQTZXKALSJBHNM1RTPY6CMD000XY","AV9GV051TQCZK","3I7KR83SNAZT1REYB2SRC49PCEEK9H","","266.6000000014901","img/food3.png","76","267","3","1","2","1","1,0.5,0,1,0.5,0,0.5,0,1","0.5,0,1,0.5,0,1,0,1,0.5","2","",""
"","html-keyboard-response","91","47259","0.0-91.0","30IQTZXKALSJBHNM1RTPY6CMD000XY","AV9GV051TQCZK","3I7KR83SNAZT1REYB2SRC49PCEEK9H","","null","<img src=""img/food3.png"" style=""width:200px; border:14px solid green;"">","null","","","","","","","","","",""
"","image-keyboard-response","92","47718","0.0-92.0","30IQTZXKALSJBHNM1RTPY6CMD000XY","AV9GV051TQCZK","3I7KR83SNAZT1REYB2SRC49PCEEK9H","","457.90000000596046","img/food3.png","76","458.3999999985099","3","1","2","1","1,0.5,0,1,0.5,0,0.5,0,1","0.5,0,1,0.5,0,1,0,1,0.5","2","",""
"","html-keyboard-response","93","48019","0.0-93.0","30IQTZXKALSJBHNM1RTPY6CMD000XY","AV9GV051TQCZK","3I7KR83SNAZT1REYB2SRC49PCEEK9H","","null","<img src=""img/food3.png"" style=""width:200px; border:14px solid green;"">","null","","","","","","","","","",""
"","image-keyboard-response","94","48454","0.0-94.0","30IQTZXKALSJBHNM1RTPY6CMD000XY","AV9GV051TQCZK","3I7KR83SNAZT1REYB2SRC49PCEEK9H","","434.79999999701977","img/food6.png","75","435.19999999552965","2","0","1","1","1,0.5,0,1,0.5,0,0.5,0,1","0.5,0,1,0.5,0,1,0,1,0.5","2","",""
"","html-keyboard-response","95","48755","0.0-95.0","30IQTZXKALSJBHNM1RTPY6CMD000XY","AV9GV051TQCZK","3I7KR83SNAZT1REYB2SRC49PCEEK9H","","null","<img src=""img/food6.png"" style=""width:200px;border:14px solid red;"">","null","","","","","","","","","",""
"","image-keyboard-response","96","48838","0.0-96.0","30IQTZXKALSJBHNM1RTPY6CMD000XY","AV9GV051TQCZK","3I7KR83SNAZT1REYB2SRC49PCEEK9H","","82.19999999552965","img/food5.png","76","82.60000000149012","3","0","3","1","1,0.5,0,1,0.5,0,0.5,0,1","0.5,0,1,0.5,0,1,0,1,0.5","2","",""
"","html-keyboard-response","97","49139","0.0-97.0","30IQTZXKALSJBHNM1RTPY6CMD000XY","AV9GV051TQCZK","3I7KR83SNAZT1REYB2SRC49PCEEK9H","","null","<img src=""img/food5.png"" style=""width:200px;border:14px solid red;"">","null","","","","","","","","","",""
"","image-keyboard-response","98","49398","0.0-98.0","30IQTZXKALSJBHNM1RTPY6CMD000XY","AV9GV051TQCZK","3I7KR83SNAZT1REYB2SRC49PCEEK9H","","258.59999999403954","img/food3.png","74","259","1","0","2","1","1,0.5,0,1,0.5,0,0.5,0,1","0.5,0,1,0.5,0,1,0,1,0.5","2","",""
"","html-keyboard-response","99","49699","0.0-99.0","30IQTZXKALSJBHNM1RTPY6CMD000XY","AV9GV051TQCZK","3I7KR83SNAZT1REYB2SRC49PCEEK9H","","null","<img src=""img/food3.png"" style=""width:200px;border:14px solid red;"">","null","","","","","","","","","",""
"","image-keyboard-response","100","50014","0.0-100.0","30IQTZXKALSJBHNM1RTPY6CMD000XY","AV9GV051TQCZK","3I7KR83SNAZT1REYB2SRC49PCEEK9H","","314.1000000014901","img/food3.png","76","314.5","3","1","2","1","1,0.5,0,1,0.5,0,0.5,0,1","0.5,0,1,0.5,0,1,0,1,0.5","2","",""
"","html-keyboard-response","101","50315","0.0-101.0","30IQTZXKALSJBHNM1RTPY6CMD000XY","AV9GV051TQCZK","3I7KR83SNAZT1REYB2SRC49PCEEK9H","","null","<img src=""img/food3.png"" style=""width:200px; border:14px solid green;"">","null","","","","","","","","","",""
"","image-keyboard-response","102","50590","0.0-102.0","30IQTZXKALSJBHNM1RTPY6CMD000XY","AV9GV051TQCZK","3I7KR83SNAZT1REYB2SRC49PCEEK9H","","274.19999999552965","img/food3.png","76","274.5","3","1","2","1","1,0.5,0,1,0.5,0,0.5,0,1","0.5,0,1,0.5,0,1,0,1,0.5","2","",""
"","html-keyboard-response","103","50892","0.0-103.0","30IQTZXKALSJBHNM1RTPY6CMD000XY","AV9GV051TQCZK","3I7KR83SNAZT1REYB2SRC49PCEEK9H","","null","<img src=""img/food3.png"" style=""width:200px; border:14px solid green;"">","null","","","","","","","","","",""
"","image-keyboard-response","104","51382","0.0-104.0","30IQTZXKALSJBHNM1RTPY6CMD000XY","AV9GV051TQCZK","3I7KR83SNAZT1REYB2SRC49PCEEK9H","","489.70000000298023","img/food6.png","75","490","2","0","1","1","1,0.5,0,1,0.5,0,0.5,0,1","0.5,0,1,0.5,0,1,0,1,0.5","2","",""
"","html-keyboard-response","105","51683","0.0-105.0","30IQTZXKALSJBHNM1RTPY6CMD000XY","AV9GV051TQCZK","3I7KR83SNAZT1REYB2SRC49PCEEK9H","","null","<img src=""img/food6.png"" style=""width:200px;border:14px solid red;"">","null","","","","","","","","","",""
"","image-keyboard-response","106","51814","0.0-106.0","30IQTZXKALSJBHNM1RTPY6CMD000XY","AV9GV051TQCZK","3I7KR83SNAZT1REYB2SRC49PCEEK9H","","130.5","img/food6.png","76","131","3","1","1","1","1,0.5,0,1,0.5,0,0.5,0,1","0.5,0,1,0.5,0,1,0,1,0.5","2","",""
"","html-keyboard-response","107","52115","0.0-107.0","30IQTZXKALSJBHNM1RTPY6CMD000XY","AV9GV051TQCZK","3I7KR83SNAZT1REYB2SRC49PCEEK9H","","null","<img src=""img/food6.png"" style=""width:200px; border:14px solid green;"">","null","","","","","","","","","",""
"","image-keyboard-response","108","52350","0.0-108.0","30IQTZXKALSJBHNM1RTPY6CMD000XY","AV9GV051TQCZK","3I7KR83SNAZT1REYB2SRC49PCEEK9H","","234.29999999701977","img/food6.png","76","234.69999999552965","3","1","1","1","1,0.5,0,1,0.5,0,0.5,0,1","0.5,0,1,0.5,0,1,0,1,0.5","2","",""
"","html-keyboard-response","109","52651","0.0-109.0","30IQTZXKALSJBHNM1RTPY6CMD000XY","AV9GV051TQCZK","3I7KR83SNAZT1REYB2SRC49PCEEK9H","","null","<img src=""img/food6.png"" style=""width:200px; border:14px solid green;"">","null","","","","","","","","","",""
"","image-keyboard-response","110","52766","0.0-110.0","30IQTZXKALSJBHNM1RTPY6CMD000XY","AV9GV051TQCZK","3I7KR83SNAZT1REYB2SRC49PCEEK9H","","114","img/food5.png","76","114.39999999850988","3","0","3","1","1,0.5,0,1,0.5,0,0.5,0,1","0.5,0,1,0.5,0,1,0,1,0.5","2","",""
"","html-keyboard-response","111","53068","0.0-111.0","30IQTZXKALSJBHNM1RTPY6CMD000XY","AV9GV051TQCZK","3I7KR83SNAZT1REYB2SRC49PCEEK9H","","null","<img src=""img/food5.png"" style=""width:200px;border:14px solid red;"">","null","","","","","","","","","",""
"","image-keyboard-response","112","53254","0.0-112.0","30IQTZXKALSJBHNM1RTPY6CMD000XY","AV9GV051TQCZK","3I7KR83SNAZT1REYB2SRC49PCEEK9H","","185.70000000298023","img/food3.png","75","186.19999999552965","2","0","2","1","1,0.5,0,1,0.5,0,0.5,0,1","0.5,0,1,0.5,0,1,0,1,0.5","2","",""
"","html-keyboard-response","113","53555","0.0-113.0","30IQTZXKALSJBHNM1RTPY6CMD000XY","AV9GV051TQCZK","3I7KR83SNAZT1REYB2SRC49PCEEK9H","","null","<img src=""img/food3.png"" style=""width:200px;border:14px solid red;"">","null","","","","","","","","","",""
"","image-keyboard-response","114","53766","0.0-114.0","30IQTZXKALSJBHNM1RTPY6CMD000XY","AV9GV051TQCZK","3I7KR83SNAZT1REYB2SRC49PCEEK9H","","210.59999999403954","img/food3.png","76","211","3","1","2","1","1,0.5,0,1,0.5,0,0.5,0,1","0.5,0,1,0.5,0,1,0,1,0.5","2","",""
"","html-keyboard-response","115","54067","0.0-115.0","30IQTZXKALSJBHNM1RTPY6CMD000XY","AV9GV051TQCZK","3I7KR83SNAZT1REYB2SRC49PCEEK9H","","null","<img src=""img/food3.png"" style=""width:200px; border:14px solid green;"">","null","","","","","","","","","",""
"","image-keyboard-response","116","54286","0.0-116.0","30IQTZXKALSJBHNM1RTPY6CMD000XY","AV9GV051TQCZK","3I7KR83SNAZT1REYB2SRC49PCEEK9H","","218.70000000298023","img/food3.png","76","219.09999999403954","3","1","2","1","1,0.5,0,1,0.5,0,0.5,0,1","0.5,0,1,0.5,0,1,0,1,0.5","2","",""
"","html-keyboard-response","117","54587","0.0-117.0","30IQTZXKALSJBHNM1RTPY6CMD000XY","AV9GV051TQCZK","3I7KR83SNAZT1REYB2SRC49PCEEK9H","","null","<img src=""img/food3.png"" style=""width:200px; border:14px solid green;"">","null","","","","","","","","","",""
"","image-keyboard-response","118","54814","0.0-118.0","30IQTZXKALSJBHNM1RTPY6CMD000XY","AV9GV051TQCZK","3I7KR83SNAZT1REYB2SRC49PCEEK9H","","226.30000000447035","img/food6.png","76","226.79999999701977","3","1","1","1","1,0.5,0,1,0.5,0,0.5,0,1","0.5,0,1,0.5,0,1,0,1,0.5","2","",""
"","html-keyboard-response","119","55115","0.0-119.0","30IQTZXKALSJBHNM1RTPY6CMD000XY","AV9GV051TQCZK","3I7KR83SNAZT1REYB2SRC49PCEEK9H","","null","<img src=""img/food6.png"" style=""width:200px; border:14px solid green;"">","null","","","","","","","","","",""
"","image-keyboard-response","120","55302","0.0-120.0","30IQTZXKALSJBHNM1RTPY6CMD000XY","AV9GV051TQCZK","3I7KR83SNAZT1REYB2SRC49PCEEK9H","","186.60000000149012","img/food6.png","76","186.89999999850988","3","1","1","1","1,0.5,0,1,0.5,0,0.5,0,1","0.5,0,1,0.5,0,1,0,1,0.5","2","",""
"","html-keyboard-response","121","55604","0.0-121.0","30IQTZXKALSJBHNM1RTPY6CMD000XY","AV9GV051TQCZK","3I7KR83SNAZT1REYB2SRC49PCEEK9H","","null","<img src=""img/food6.png"" style=""width:200px; border:14px solid green;"">","null","","","","","","","","","",""
"","image-keyboard-response","122","56103","0.0-122.0","30IQTZXKALSJBHNM1RTPY6CMD000XY","AV9GV051TQCZK","3I7KR83SNAZT1REYB2SRC49PCEEK9H","","498.29999999701977","img/food5.png","74","498.79999999701977","1","0","3","1","1,0.5,0,1,0.5,0,0.5,0,1","0.5,0,1,0.5,0,1,0,1,0.5","2","",""
"","html-keyboard-response","123","56404","0.0-123.0","30IQTZXKALSJBHNM1RTPY6CMD000XY","AV9GV051TQCZK","3I7KR83SNAZT1REYB2SRC49PCEEK9H","","null","<img src=""img/food5.png"" style=""width:200px;border:14px solid red;"">","null","","","","","","","","","",""
"","image-keyboard-response","124","56590","0.0-124.0","30IQTZXKALSJBHNM1RTPY6CMD000XY","AV9GV051TQCZK","3I7KR83SNAZT1REYB2SRC49PCEEK9H","","185.59999999403954","img/food6.png","76","185.89999999850988","3","1","1","1","1,0.5,0,1,0.5,0,0.5,0,1","0.5,0,1,0.5,0,1,0,1,0.5","2","",""
"","html-keyboard-response","125","56892","0.0-125.0","30IQTZXKALSJBHNM1RTPY6CMD000XY","AV9GV051TQCZK","3I7KR83SNAZT1REYB2SRC49PCEEK9H","","null","<img src=""img/food6.png"" style=""width:200px; border:14px solid green;"">","null","","","","","","","","","",""
"","image-keyboard-response","126","57182","0.0-126.0","30IQTZXKALSJBHNM1RTPY6CMD000XY","AV9GV051TQCZK","3I7KR83SNAZT1REYB2SRC49PCEEK9H","","290.3999999985099","img/food3.png","76","290.79999999701977","3","1","2","1","1,0.5,0,1,0.5,0,0.5,0,1","0.5,0,1,0.5,0,1,0,1,0.5","2","",""
"","html-keyboard-response","127","57489","0.0-127.0","30IQTZXKALSJBHNM1RTPY6CMD000XY","AV9GV051TQCZK","3I7KR83SNAZT1REYB2SRC49PCEEK9H","","null","<img src=""img/food3.png"" style=""width:200px; border:14px solid green;"">","null","","","","","","","","","",""
"","image-keyboard-response","128","57710","0.0-128.0","30IQTZXKALSJBHNM1RTPY6CMD000XY","AV9GV051TQCZK","3I7KR83SNAZT1REYB2SRC49PCEEK9H","","221.30000000447035","img/food5.png","76","221.69999999552965","3","1","3","1","1,0.5,0,1,0.5,0,0.5,0,1","0.5,0,1,0.5,0,1,0,1,0.5","2","",""
"","html-keyboard-response","129","58012","0.0-129.0","30IQTZXKALSJBHNM1RTPY6CMD000XY","AV9GV051TQCZK","3I7KR83SNAZT1REYB2SRC49PCEEK9H","","null","<img src=""img/food5.png"" style=""width:200px; border:14px solid green;"">","null","","","","","","","","","",""
"","image-keyboard-response","130","58278","0.0-130.0","30IQTZXKALSJBHNM1RTPY6CMD000XY","AV9GV051TQCZK","3I7KR83SNAZT1REYB2SRC49PCEEK9H","","266.09999999403954","img/food6.png","76","266.5","3","1","1","1","1,0.5,0,1,0.5,0,0.5,0,1","0.5,0,1,0.5,0,1,0,1,0.5","2","",""
"","html-keyboard-response","131","58580","0.0-131.0","30IQTZXKALSJBHNM1RTPY6CMD000XY","AV9GV051TQCZK","3I7KR83SNAZT1REYB2SRC49PCEEK9H","","null","<img src=""img/food6.png"" style=""width:200px; border:14px solid green;"">","null","","","","","","","","","",""
"","image-keyboard-response","132","58839","0.0-132.0","30IQTZXKALSJBHNM1RTPY6CMD000XY","AV9GV051TQCZK","3I7KR83SNAZT1REYB2SRC49PCEEK9H","","258.19999999552965","img/food5.png","76","258.70000000298023","3","1","3","1","1,0.5,0,1,0.5,0,0.5,0,1","0.5,0,1,0.5,0,1,0,1,0.5","2","",""
"","html-keyboard-response","133","59140","0.0-133.0","30IQTZXKALSJBHNM1RTPY6CMD000XY","AV9GV051TQCZK","3I7KR83SNAZT1REYB2SRC49PCEEK9H","","null","<img src=""img/food5.png"" style=""width:200px; border:14px solid green;"">","null","","","","","","","","","",""
"","image-keyboard-response","134","59383","0.0-134.0","30IQTZXKALSJBHNM1RTPY6CMD000XY","AV9GV051TQCZK","3I7KR83SNAZT1REYB2SRC49PCEEK9H","","242","img/food5.png","76","242.39999999850988","3","1","3","1","1,0.5,0,1,0.5,0,0.5,0,1","0.5,0,1,0.5,0,1,0,1,0.5","2","",""
"","html-keyboard-response","135","59684","0.0-135.0","30IQTZXKALSJBHNM1RTPY6CMD000XY","AV9GV051TQCZK","3I7KR83SNAZT1REYB2SRC49PCEEK9H","","null","<img src=""img/food5.png"" style=""width:200px; border:14px solid green;"">","null","","","","","","","","","",""
"","image-keyboard-response","136","59926","0.0-136.0","30IQTZXKALSJBHNM1RTPY6CMD000XY","AV9GV051TQCZK","3I7KR83SNAZT1REYB2SRC49PCEEK9H","","242.39999999850988","img/food5.png","76","242.89999999850988","3","1","3","1","1,0.5,0,1,0.5,0,0.5,0,1","0.5,0,1,0.5,0,1,0,1,0.5","2","",""
"","html-keyboard-response","137","60228","0.0-137.0","30IQTZXKALSJBHNM1RTPY6CMD000XY","AV9GV051TQCZK","3I7KR83SNAZT1REYB2SRC49PCEEK9H","","null","<img src=""img/food5.png"" style=""width:200px; border:14px solid green;"">","null","","","","","","","","","",""
"","image-keyboard-response","138","60390","0.0-138.0","30IQTZXKALSJBHNM1RTPY6CMD000XY","AV9GV051TQCZK","3I7KR83SNAZT1REYB2SRC49PCEEK9H","","162.09999999403954","img/food3.png","76","162.5","3","1","2","1","1,0.5,0,1,0.5,0,0.5,0,1","0.5,0,1,0.5,0,1,0,1,0.5","2","",""
"","html-keyboard-response","139","60692","0.0-139.0","30IQTZXKALSJBHNM1RTPY6CMD000XY","AV9GV051TQCZK","3I7KR83SNAZT1REYB2SRC49PCEEK9H","","null","<img src=""img/food3.png"" style=""width:200px; border:14px solid green;"">","null","","","","","","","","","",""
"","image-keyboard-response","140","60950","0.0-140.0","30IQTZXKALSJBHNM1RTPY6CMD000XY","AV9GV051TQCZK","3I7KR83SNAZT1REYB2SRC49PCEEK9H","","257.70000000298023","img/food6.png","76","258.29999999701977","3","1","1","1","1,0.5,0,1,0.5,0,0.5,0,1","0.5,0,1,0.5,0,1,0,1,0.5","2","",""
"","html-keyboard-response","141","61252","0.0-141.0","30IQTZXKALSJBHNM1RTPY6CMD000XY","AV9GV051TQCZK","3I7KR83SNAZT1REYB2SRC49PCEEK9H","","null","<img src=""img/food6.png"" style=""width:200px; border:14px solid green;"">","null","","","","","","","","","",""
"","image-keyboard-response","142","61454","0.0-142.0","30IQTZXKALSJBHNM1RTPY6CMD000XY","AV9GV051TQCZK","3I7KR83SNAZT1REYB2SRC49PCEEK9H","","202","img/food3.png","76","202.29999999701977","3","1","2","1","1,0.5,0,1,0.5,0,0.5,0,1","0.5,0,1,0.5,0,1,0,1,0.5","2","",""
"","html-keyboard-response","143","61756","0.0-143.0","30IQTZXKALSJBHNM1RTPY6CMD000XY","AV9GV051TQCZK","3I7KR83SNAZT1REYB2SRC49PCEEK9H","","null","<img src=""img/food3.png"" style=""width:200px; border:14px solid green;"">","null","","","","","","","","","",""
"","image-keyboard-response","144","62038","0.0-144.0","30IQTZXKALSJBHNM1RTPY6CMD000XY","AV9GV051TQCZK","3I7KR83SNAZT1REYB2SRC49PCEEK9H","","282.19999999552965","img/food3.png","76","282.6000000014901","3","1","2","1","1,0.5,0,1,0.5,0,0.5,0,1","0.5,0,1,0.5,0,1,0,1,0.5","2","",""
"","html-keyboard-response","145","62340","0.0-145.0","30IQTZXKALSJBHNM1RTPY6CMD000XY","AV9GV051TQCZK","3I7KR83SNAZT1REYB2SRC49PCEEK9H","","null","<img src=""img/food3.png"" style=""width:200px; border:14px solid green;"">","null","","","","","","","","","",""
"","image-keyboard-response","146","62566","0.0-146.0","30IQTZXKALSJBHNM1RTPY6CMD000XY","AV9GV051TQCZK","3I7KR83SNAZT1REYB2SRC49PCEEK9H","","226.10000000149012","img/food6.png","76","226.60000000149012","3","1","1","1","1,0.5,0,1,0.5,0,0.5,0,1","0.5,0,1,0.5,0,1,0,1,0.5","2","",""
"","html-keyboard-response","147","62868","0.0-147.0","30IQTZXKALSJBHNM1RTPY6CMD000XY","AV9GV051TQCZK","3I7KR83SNAZT1REYB2SRC49PCEEK9H","","null","<img src=""img/food6.png"" style=""width:200px; border:14px solid green;"">","null","","","","","","","","","",""
"","image-keyboard-response","148","63110","0.0-148.0","30IQTZXKALSJBHNM1RTPY6CMD000XY","AV9GV051TQCZK","3I7KR83SNAZT1REYB2SRC49PCEEK9H","","242.29999999701977","img/food5.png","76","242.89999999850988","3","1","3","1","1,0.5,0,1,0.5,0,0.5,0,1","0.5,0,1,0.5,0,1,0,1,0.5","2","",""
"","html-keyboard-response","149","63412","0.0-149.0","30IQTZXKALSJBHNM1RTPY6CMD000XY","AV9GV051TQCZK","3I7KR83SNAZT1REYB2SRC49PCEEK9H","","null","<img src=""img/food5.png"" style=""width:200px; border:14px solid green;"">","null","","","","","","","","","",""
"","image-keyboard-response","150","63710","0.0-150.0","30IQTZXKALSJBHNM1RTPY6CMD000XY","AV9GV051TQCZK","3I7KR83SNAZT1REYB2SRC49PCEEK9H","","297.90000000596046","img/food3.png","76","298.29999999701977","3","1","2","1","1,0.5,0,1,0.5,0,0.5,0,1","0.5,0,1,0.5,0,1,0,1,0.5","2","",""
"","html-keyboard-response","151","64012","0.0-151.0","30IQTZXKALSJBHNM1RTPY6CMD000XY","AV9GV051TQCZK","3I7KR83SNAZT1REYB2SRC49PCEEK9H","","null","<img src=""img/food3.png"" style=""width:200px; border:14px solid green;"">","null","","","","","","","","","",""
"","image-keyboard-response","152","64246","0.0-152.0","30IQTZXKALSJBHNM1RTPY6CMD000XY","AV9GV051TQCZK","3I7KR83SNAZT1REYB2SRC49PCEEK9H","","234","img/food5.png","76","234.80000000447035","3","1","3","1","1,0.5,0,1,0.5,0,0.5,0,1","0.5,0,1,0.5,0,1,0,1,0.5","2","",""
"","html-keyboard-response","153","64548","0.0-153.0","30IQTZXKALSJBHNM1RTPY6CMD000XY","AV9GV051TQCZK","3I7KR83SNAZT1REYB2SRC49PCEEK9H","","null","<img src=""img/food5.png"" style=""width:200px; border:14px solid green;"">","null","","","","","","","","","",""
"","image-keyboard-response","154","64783","0.0-154.0","30IQTZXKALSJBHNM1RTPY6CMD000XY","AV9GV051TQCZK","3I7KR83SNAZT1REYB2SRC49PCEEK9H","","233.89999999850988","img/food5.png","76","234.29999999701977","3","1","3","1","1,0.5,0,1,0.5,0,0.5,0,1","0.5,0,1,0.5,0,1,0,1,0.5","2","",""
"","html-keyboard-response","155","65084","0.0-155.0","30IQTZXKALSJBHNM1RTPY6CMD000XY","AV9GV051TQCZK","3I7KR83SNAZT1REYB2SRC49PCEEK9H","","null","<img src=""img/food5.png"" style=""width:200px; border:14px solid green;"">","null","","","","","","","","","",""
"","image-keyboard-response","156","65318","0.0-156.0","30IQTZXKALSJBHNM1RTPY6CMD000XY","AV9GV051TQCZK","3I7KR83SNAZT1REYB2SRC49PCEEK9H","","234.39999999850988","img/food6.png","76","234.79999999701977","3","1","1","1","1,0.5,0,1,0.5,0,0.5,0,1","0.5,0,1,0.5,0,1,0,1,0.5","2","",""
"","html-keyboard-response","157","65620","0.0-157.0","30IQTZXKALSJBHNM1RTPY6CMD000XY","AV9GV051TQCZK","3I7KR83SNAZT1REYB2SRC49PCEEK9H","","null","<img src=""img/food6.png"" style=""width:200px; border:14px solid green;"">","null","","","","","","","","","",""
"","image-keyboard-response","158","65830","0.0-158.0","30IQTZXKALSJBHNM1RTPY6CMD000XY","AV9GV051TQCZK","3I7KR83SNAZT1REYB2SRC49PCEEK9H","","209.40000000596046","img/food3.png","76","210","3","1","2","1","1,0.5,0,1,0.5,0,0.5,0,1","0.5,0,1,0.5,0,1,0,1,0.5","2","",""
"","html-keyboard-response","159","66132","0.0-159.0","30IQTZXKALSJBHNM1RTPY6CMD000XY","AV9GV051TQCZK","3I7KR83SNAZT1REYB2SRC49PCEEK9H","","null","<img src=""img/food3.png"" style=""width:200px; border:14px solid green;"">","null","","","","","","","","","",""
"","image-keyboard-response","160","66350","0.0-160.0","30IQTZXKALSJBHNM1RTPY6CMD000XY","AV9GV051TQCZK","3I7KR83SNAZT1REYB2SRC49PCEEK9H","","217.60000000149012","img/food3.png","76","218.19999999552965","3","1","2","1","1,0.5,0,1,0.5,0,0.5,0,1","0.5,0,1,0.5,0,1,0,1,0.5","2","",""
"","html-keyboard-response","161","66652","0.0-161.0","30IQTZXKALSJBHNM1RTPY6CMD000XY","AV9GV051TQCZK","3I7KR83SNAZT1REYB2SRC49PCEEK9H","","null","<img src=""img/food3.png"" style=""width:200px; border:14px solid green;"">","null","","","","","","","","","",""
"","image-keyboard-response","162","66854","0.0-162.0","30IQTZXKALSJBHNM1RTPY6CMD000XY","AV9GV051TQCZK","3I7KR83SNAZT1REYB2SRC49PCEEK9H","","202.5","img/food6.png","76","202.89999999850988","3","1","1","1","1,0.5,0,1,0.5,0,0.5,0,1","0.5,0,1,0.5,0,1,0,1,0.5","2","",""
"","html-keyboard-response","163","67155","0.0-163.0","30IQTZXKALSJBHNM1RTPY6CMD000XY","AV9GV051TQCZK","3I7KR83SNAZT1REYB2SRC49PCEEK9H","","null","<img src=""img/food6.png"" style=""width:200px; border:14px solid green;"">","null","","","","","","","","","",""
"","image-keyboard-response","164","67351","0.0-164.0","30IQTZXKALSJBHNM1RTPY6CMD000XY","AV9GV051TQCZK","3I7KR83SNAZT1REYB2SRC49PCEEK9H","","194.69999999552965","img/food3.png","76","195.10000000149012","3","1","2","1","1,0.5,0,1,0.5,0,0.5,0,1","0.5,0,1,0.5,0,1,0,1,0.5","2","",""
"","html-keyboard-response","165","67652","0.0-165.0","30IQTZXKALSJBHNM1RTPY6CMD000XY","AV9GV051TQCZK","3I7KR83SNAZT1REYB2SRC49PCEEK9H","","null","<img src=""img/food3.png"" style=""width:200px; border:14px solid green;"">","null","","","","","","","","","",""
"","image-keyboard-response","166","67863","0.0-166.0","30IQTZXKALSJBHNM1RTPY6CMD000XY","AV9GV051TQCZK","3I7KR83SNAZT1REYB2SRC49PCEEK9H","","209.89999999850988","img/food3.png","76","210.39999999850988","3","1","2","1","1,0.5,0,1,0.5,0,0.5,0,1","0.5,0,1,0.5,0,1,0,1,0.5","2","",""
"","html-keyboard-response","167","68163","0.0-167.0","30IQTZXKALSJBHNM1RTPY6CMD000XY","AV9GV051TQCZK","3I7KR83SNAZT1REYB2SRC49PCEEK9H","","null","<img src=""img/food3.png"" style=""width:200px; border:14px solid green;"">","null","","","","","","","","","",""
"","image-keyboard-response","168","68366","0.0-168.0","30IQTZXKALSJBHNM1RTPY6CMD000XY","AV9GV051TQCZK","3I7KR83SNAZT1REYB2SRC49PCEEK9H","","202.59999999403954","img/food5.png","76","203.10000000149012","3","1","3","1","1,0.5,0,1,0.5,0,0.5,0,1","0.5,0,1,0.5,0,1,0,1,0.5","2","",""
"","html-keyboard-response","169","68668","0.0-169.0","30IQTZXKALSJBHNM1RTPY6CMD000XY","AV9GV051TQCZK","3I7KR83SNAZT1REYB2SRC49PCEEK9H","","null","<img src=""img/food5.png"" style=""width:200px; border:14px solid green;"">","null","","","","","","","","","",""
"","image-keyboard-response","170","68902","0.0-170.0","30IQTZXKALSJBHNM1RTPY6CMD000XY","AV9GV051TQCZK","3I7KR83SNAZT1REYB2SRC49PCEEK9H","","234.29999999701977","img/food3.png","76","234.69999999552965","3","1","2","1","1,0.5,0,1,0.5,0,0.5,0,1","0.5,0,1,0.5,0,1,0,1,0.5","2","",""
"","html-keyboard-response","171","69204","0.0-171.0","30IQTZXKALSJBHNM1RTPY6CMD000XY","AV9GV051TQCZK","3I7KR83SNAZT1REYB2SRC49PCEEK9H","","null","<img src=""img/food3.png"" style=""width:200px; border:14px solid green;"">","null","","","","","","","","","",""
"","image-keyboard-response","172","69430","0.0-172.0","30IQTZXKALSJBHNM1RTPY6CMD000XY","AV9GV051TQCZK","3I7KR83SNAZT1REYB2SRC49PCEEK9H","","226.39999999850988","img/food6.png","76","226.79999999701977","3","1","1","1","1,0.5,0,1,0.5,0,0.5,0,1","0.5,0,1,0.5,0,1,0,1,0.5","2","",""
"","html-keyboard-response","173","69731","0.0-173.0","30IQTZXKALSJBHNM1RTPY6CMD000XY","AV9GV051TQCZK","3I7KR83SNAZT1REYB2SRC49PCEEK9H","","null","<img src=""img/food6.png"" style=""width:200px; border:14px solid green;"">","null","","","","","","","","","",""
"","image-keyboard-response","174","69950","0.0-174.0","30IQTZXKALSJBHNM1RTPY6CMD000XY","AV9GV051TQCZK","3I7KR83SNAZT1REYB2SRC49PCEEK9H","","218.5","img/food6.png","76","218.89999999850988","3","1","1","1","1,0.5,0,1,0.5,0,0.5,0,1","0.5,0,1,0.5,0,1,0,1,0.5","2","",""
"","html-keyboard-response","175","70252","0.0-175.0","30IQTZXKALSJBHNM1RTPY6CMD000XY","AV9GV051TQCZK","3I7KR83SNAZT1REYB2SRC49PCEEK9H","","null","<img src=""img/food6.png"" style=""width:200px; border:14px solid green;"">","null","","","","","","","","","",""
"","image-keyboard-response","176","70478","0.0-176.0","30IQTZXKALSJBHNM1RTPY6CMD000XY","AV9GV051TQCZK","3I7KR83SNAZT1REYB2SRC49PCEEK9H","","225.79999999701977","img/food6.png","76","226.10000000149012","3","1","1","1","1,0.5,0,1,0.5,0,0.5,0,1","0.5,0,1,0.5,0,1,0,1,0.5","2","",""
"","html-keyboard-response","177","70780","0.0-177.0","30IQTZXKALSJBHNM1RTPY6CMD000XY","AV9GV051TQCZK","3I7KR83SNAZT1REYB2SRC49PCEEK9H","","null","<img src=""img/food6.png"" style=""width:200px; border:14px solid green;"">","null","","","","","","","","","",""
"","image-keyboard-response","178","70990","0.0-178.0","30IQTZXKALSJBHNM1RTPY6CMD000XY","AV9GV051TQCZK","3I7KR83SNAZT1REYB2SRC49PCEEK9H","","210.5","img/food6.png","76","210.79999999701977","3","1","1","1","1,0.5,0,1,0.5,0,0.5,0,1","0.5,0,1,0.5,0,1,0,1,0.5","2","",""
"","html-keyboard-response","179","71292","0.0-179.0","30IQTZXKALSJBHNM1RTPY6CMD000XY","AV9GV051TQCZK","3I7KR83SNAZT1REYB2SRC49PCEEK9H","","null","<img src=""img/food6.png"" style=""width:200px; border:14px solid green;"">","null","","","","","","","","","",""
"","image-keyboard-response","180","71542","0.0-180.0","30IQTZXKALSJBHNM1RTPY6CMD000XY","AV9GV051TQCZK","3I7KR83SNAZT1REYB2SRC49PCEEK9H","","250.19999999552965","img/food6.png","76","250.60000000149012","3","1","1","1","1,0.5,0,1,0.5,0,0.5,0,1","0.5,0,1,0.5,0,1,0,1,0.5","2","",""
"","html-keyboard-response","181","71844","0.0-181.0","30IQTZXKALSJBHNM1RTPY6CMD000XY","AV9GV051TQCZK","3I7KR83SNAZT1REYB2SRC49PCEEK9H","","null","<img src=""img/food6.png"" style=""width:200px; border:14px solid green;"">","null","","","","","","","","","",""
"","html-keyboard-response","182","75387","0.0-182.0","30IQTZXKALSJBHNM1RTPY6CMD000XY","AV9GV051TQCZK","3I7KR83SNAZT1REYB2SRC49PCEEK9H","","","","","","","","","","","","","",""
"","instructions","183","80660","0.0-183.0","30IQTZXKALSJBHNM1RTPY6CMD000XY","AV9GV051TQCZK","3I7KR83SNAZT1REYB2SRC49PCEEK9H","[{""page_index"":0,""viewing_time"":4070.7000000029802},{""page_index"":1,""viewing_time"":1201.8999999985099}]","5272.70000000298","","","","","","","","","","","",""
"","image-keyboard-response","184","81070","0.0-184.0","30IQTZXKALSJBHNM1RTPY6CMD000XY","AV9GV051TQCZK","3I7KR83SNAZT1REYB2SRC49PCEEK9H","","409.59999999403954","img/food2.png","75","410.1000000014901","2","0","1","2","1,0.5,0,1,0.5,0,0.5,0,1","0.5,0,1,0.5,0,1,0,1,0.5","2","false",""
"","html-keyboard-response","185","81372","0.0-185.0","30IQTZXKALSJBHNM1RTPY6CMD000XY","AV9GV051TQCZK","3I7KR83SNAZT1REYB2SRC49PCEEK9H","","null","<img src=""img/food2.png"" style=""width:200px;border:14px solid red;"">","null","","","","","","","","","",""
"","image-keyboard-response","186","82142","0.0-187.0","30IQTZXKALSJBHNM1RTPY6CMD000XY","AV9GV051TQCZK","3I7KR83SNAZT1REYB2SRC49PCEEK9H","","769.7000000029802","img/food4.png","76","770.0999999940395","3","1","2","2","1,0.5,0,1,0.5,0,0.5,0,1","0.5,0,1,0.5,0,1,0,1,0.5","2","false",""
"","html-keyboard-response","187","82443","0.0-188.0","30IQTZXKALSJBHNM1RTPY6CMD000XY","AV9GV051TQCZK","3I7KR83SNAZT1REYB2SRC49PCEEK9H","","null","<img src=""img/food4.png"" style=""width:200px; border:14px solid green;"">","null","","","","","","","","","",""
"","image-keyboard-response","188","82742","0.0-190.0","30IQTZXKALSJBHNM1RTPY6CMD000XY","AV9GV051TQCZK","3I7KR83SNAZT1REYB2SRC49PCEEK9H","","298.5","img/food4.png","76","299","3","1","2","2","1,0.5,0,1,0.5,0,0.5,0,1","0.5,0,1,0.5,0,1,0,1,0.5","2","false",""
"","html-keyboard-response","189","83043","0.0-191.0","30IQTZXKALSJBHNM1RTPY6CMD000XY","AV9GV051TQCZK","3I7KR83SNAZT1REYB2SRC49PCEEK9H","","null","<img src=""img/food4.png"" style=""width:200px; border:14px solid green;"">","null","","","","","","","","","",""
"","image-keyboard-response","190","83238","0.0-193.0","30IQTZXKALSJBHNM1RTPY6CMD000XY","AV9GV051TQCZK","3I7KR83SNAZT1REYB2SRC49PCEEK9H","","194.60000000149012","img/food4.png","76","195.20000000298023","3","1","2","2","1,0.5,0,1,0.5,0,0.5,0,1","0.5,0,1,0.5,0,1,0,1,0.5","2","false",""
"","html-keyboard-response","191","83539","0.0-194.0","30IQTZXKALSJBHNM1RTPY6CMD000XY","AV9GV051TQCZK","3I7KR83SNAZT1REYB2SRC49PCEEK9H","","null","<img src=""img/food4.png"" style=""width:200px; border:14px solid green;"">","null","","","","","","","","","",""
"","image-keyboard-response","192","83950","0.0-196.0","30IQTZXKALSJBHNM1RTPY6CMD000XY","AV9GV051TQCZK","3I7KR83SNAZT1REYB2SRC49PCEEK9H","","410.40000000596046","img/food1.png","76","410.8999999985099","3","0","3","2","1,0.5,0,1,0.5,0,0.5,0,1","0.5,0,1,0.5,0,1,0,1,0.5","2","false",""
"","html-keyboard-response","193","84252","0.0-197.0","30IQTZXKALSJBHNM1RTPY6CMD000XY","AV9GV051TQCZK","3I7KR83SNAZT1REYB2SRC49PCEEK9H","","null","<img src=""img/food1.png"" style=""width:200px;border:14px solid red;"">","null","","","","","","","","","",""
"","image-keyboard-response","194","84582","0.0-199.0","30IQTZXKALSJBHNM1RTPY6CMD000XY","AV9GV051TQCZK","3I7KR83SNAZT1REYB2SRC49PCEEK9H","","329.79999999701977","img/food1.png","75","330.19999999552965","2","1","3","2","1,0.5,0,1,0.5,0,0.5,0,1","0.5,0,1,0.5,0,1,0,1,0.5","2","false",""
"","html-keyboard-response","195","84884","0.0-200.0","30IQTZXKALSJBHNM1RTPY6CMD000XY","AV9GV051TQCZK","3I7KR83SNAZT1REYB2SRC49PCEEK9H","","null","<img src=""img/food1.png"" style=""width:200px; border:14px solid green;"">","null","","","","","","","","","",""
"","image-keyboard-response","196","85150","0.0-202.0","30IQTZXKALSJBHNM1RTPY6CMD000XY","AV9GV051TQCZK","3I7KR83SNAZT1REYB2SRC49PCEEK9H","","265.8999999985099","img/food2.png","76","266.19999999552965","3","1","1","2","1,0.5,0,1,0.5,0,0.5,0,1","0.5,0,1,0.5,0,1,0,1,0.5","2","false",""
"","html-keyboard-response","197","85451","0.0-203.0","30IQTZXKALSJBHNM1RTPY6CMD000XY","AV9GV051TQCZK","3I7KR83SNAZT1REYB2SRC49PCEEK9H","","null","<img src=""img/food2.png"" style=""width:200px; border:14px solid green;"">","null","","","","","","","","","",""
"","image-keyboard-response","198","85934","0.0-205.0","30IQTZXKALSJBHNM1RTPY6CMD000XY","AV9GV051TQCZK","3I7KR83SNAZT1REYB2SRC49PCEEK9H","","482.30000000447035","img/food4.png","75","482.69999999552965","2","0","2","2","1,0.5,0,1,0.5,0,0.5,0,1","0.5,0,1,0.5,0,1,0,1,0.5","2","false",""
"","html-keyboard-response","199","86236","0.0-206.0","30IQTZXKALSJBHNM1RTPY6CMD000XY","AV9GV051TQCZK","3I7KR83SNAZT1REYB2SRC49PCEEK9H","","null","<img src=""img/food4.png"" style=""width:200px;border:14px solid red;"">","null","","","","","","","","","",""
"","image-keyboard-response","200","86294","0.0-208.0","30IQTZXKALSJBHNM1RTPY6CMD000XY","AV9GV051TQCZK","3I7KR83SNAZT1REYB2SRC49PCEEK9H","","58.099999994039536","img/food4.png","76","58.399999998509884","3","1","2","2","1,0.5,0,1,0.5,0,0.5,0,1","0.5,0,1,0.5,0,1,0,1,0.5","2","false",""
"","html-keyboard-response","201","86595","0.0-209.0","30IQTZXKALSJBHNM1RTPY6CMD000XY","AV9GV051TQCZK","3I7KR83SNAZT1REYB2SRC49PCEEK9H","","null","<img src=""img/food4.png"" style=""width:200px; border:14px solid green;"">","null","","","","","","","","","",""
"","image-keyboard-response","202","87054","0.0-211.0","30IQTZXKALSJBHNM1RTPY6CMD000XY","AV9GV051TQCZK","3I7KR83SNAZT1REYB2SRC49PCEEK9H","","458.5","img/food2.png","76","459.1000000014901","3","1","1","2","1,0.5,0,1,0.5,0,0.5,0,1","0.5,0,1,0.5,0,1,0,1,0.5","2","false",""
"","html-keyboard-response","203","87356","0.0-212.0","30IQTZXKALSJBHNM1RTPY6CMD000XY","AV9GV051TQCZK","3I7KR83SNAZT1REYB2SRC49PCEEK9H","","null","<img src=""img/food2.png"" style=""width:200px; border:14px solid green;"">","null","","","","","","","","","",""
"","image-keyboard-response","204","87574","0.0-214.0","30IQTZXKALSJBHNM1RTPY6CMD000XY","AV9GV051TQCZK","3I7KR83SNAZT1REYB2SRC49PCEEK9H","","217.80000000447035","img/food4.png","76","218.29999999701977","3","1","2","2","1,0.5,0,1,0.5,0,0.5,0,1","0.5,0,1,0.5,0,1,0,1,0.5","2","false",""
"","html-keyboard-response","205","87876","0.0-215.0","30IQTZXKALSJBHNM1RTPY6CMD000XY","AV9GV051TQCZK","3I7KR83SNAZT1REYB2SRC49PCEEK9H","","null","<img src=""img/food4.png"" style=""width:200px; border:14px solid green;"">","null","","","","","","","","","",""
"","image-keyboard-response","206","88126","0.0-217.0","30IQTZXKALSJBHNM1RTPY6CMD000XY","AV9GV051TQCZK","3I7KR83SNAZT1REYB2SRC49PCEEK9H","","249.5","img/food1.png","76","250","3","1","3","2","1,0.5,0,1,0.5,0,0.5,0,1","0.5,0,1,0.5,0,1,0,1,0.5","2","false",""
"","html-keyboard-response","207","88428","0.0-218.0","30IQTZXKALSJBHNM1RTPY6CMD000XY","AV9GV051TQCZK","3I7KR83SNAZT1REYB2SRC49PCEEK9H","","null","<img src=""img/food1.png"" style=""width:200px; border:14px solid green;"">","null","","","","","","","","","",""
"","image-keyboard-response","208","88743","0.0-220.0","30IQTZXKALSJBHNM1RTPY6CMD000XY","AV9GV051TQCZK","3I7KR83SNAZT1REYB2SRC49PCEEK9H","","314.3999999985099","img/food4.png","76","314.70000000298023","3","1","2","2","1,0.5,0,1,0.5,0,0.5,0,1","0.5,0,1,0.5,0,1,0,1,0.5","2","false",""
"","html-keyboard-response","209","89043","0.0-221.0","30IQTZXKALSJBHNM1RTPY6CMD000XY","AV9GV051TQCZK","3I7KR83SNAZT1REYB2SRC49PCEEK9H","","null","<img src=""img/food4.png"" style=""width:200px; border:14px solid green;"">","null","","","","","","","","","",""
"","image-keyboard-response","210","89463","0.0-223.0","30IQTZXKALSJBHNM1RTPY6CMD000XY","AV9GV051TQCZK","3I7KR83SNAZT1REYB2SRC49PCEEK9H","","419","img/food2.png","75","419.5","2","0","1","2","1,0.5,0,1,0.5,0,0.5,0,1","0.5,0,1,0.5,0,1,0,1,0.5","2","false",""
"","html-keyboard-response","211","89764","0.0-224.0","30IQTZXKALSJBHNM1RTPY6CMD000XY","AV9GV051TQCZK","3I7KR83SNAZT1REYB2SRC49PCEEK9H","","null","<img src=""img/food2.png"" style=""width:200px;border:14px solid red;"">","null","","","","","","","","","",""
"","image-keyboard-response","212","89983","0.0-226.0","30IQTZXKALSJBHNM1RTPY6CMD000XY","AV9GV051TQCZK","3I7KR83SNAZT1REYB2SRC49PCEEK9H","","217.69999999552965","img/food2.png","76","218.10000000149012","3","1","1","2","1,0.5,0,1,0.5,0,0.5,0,1","0.5,0,1,0.5,0,1,0,1,0.5","2","false",""
"","html-keyboard-response","213","90284","0.0-227.0","30IQTZXKALSJBHNM1RTPY6CMD000XY","AV9GV051TQCZK","3I7KR83SNAZT1REYB2SRC49PCEEK9H","","null","<img src=""img/food2.png"" style=""width:200px; border:14px solid green;"">","null","","","","","","","","","",""
"","image-keyboard-response","214","90534","0.0-229.0","30IQTZXKALSJBHNM1RTPY6CMD000XY","AV9GV051TQCZK","3I7KR83SNAZT1REYB2SRC49PCEEK9H","","249.70000000298023","img/food2.png","76","250.19999999552965","3","1","1","2","1,0.5,0,1,0.5,0,0.5,0,1","0.5,0,1,0.5,0,1,0,1,0.5","2","false",""
"","html-keyboard-response","215","90835","0.0-230.0","30IQTZXKALSJBHNM1RTPY6CMD000XY","AV9GV051TQCZK","3I7KR83SNAZT1REYB2SRC49PCEEK9H","","null","<img src=""img/food2.png"" style=""width:200px; border:14px solid green;"">","null","","","","","","","","","",""
"","image-keyboard-response","216","91286","0.0-232.0","30IQTZXKALSJBHNM1RTPY6CMD000XY","AV9GV051TQCZK","3I7KR83SNAZT1REYB2SRC49PCEEK9H","","450.5","img/food4.png","76","450.8999999985099","3","1","2","2","1,0.5,0,1,0.5,0,0.5,0,1","0.5,0,1,0.5,0,1,0,1,0.5","2","false",""
"","html-keyboard-response","217","91588","0.0-233.0","30IQTZXKALSJBHNM1RTPY6CMD000XY","AV9GV051TQCZK","3I7KR83SNAZT1REYB2SRC49PCEEK9H","","null","<img src=""img/food4.png"" style=""width:200px; border:14px solid green;"">","null","","","","","","","","","",""
"","image-keyboard-response","218","91694","0.0-235.0","30IQTZXKALSJBHNM1RTPY6CMD000XY","AV9GV051TQCZK","3I7KR83SNAZT1REYB2SRC49PCEEK9H","","106.20000000298023","img/food1.png","76","106.59999999403954","3","1","3","2","1,0.5,0,1,0.5,0,0.5,0,1","0.5,0,1,0.5,0,1,0,1,0.5","2","false",""
"","html-keyboard-response","219","91996","0.0-236.0","30IQTZXKALSJBHNM1RTPY6CMD000XY","AV9GV051TQCZK","3I7KR83SNAZT1REYB2SRC49PCEEK9H","","null","<img src=""img/food1.png"" style=""width:200px; border:14px solid green;"">","null","","","","","","","","","",""
"","image-keyboard-response","220","92078","0.0-238.0","30IQTZXKALSJBHNM1RTPY6CMD000XY","AV9GV051TQCZK","3I7KR83SNAZT1REYB2SRC49PCEEK9H","","82.10000000149012","img/food1.png","76","82.5","3","1","3","2","1,0.5,0,1,0.5,0,0.5,0,1","0.5,0,1,0.5,0,1,0,1,0.5","2","false",""
"","html-keyboard-response","221","92380","0.0-239.0","30IQTZXKALSJBHNM1RTPY6CMD000XY","AV9GV051TQCZK","3I7KR83SNAZT1REYB2SRC49PCEEK9H","","null","<img src=""img/food1.png"" style=""width:200px; border:14px solid green;"">","null","","","","","","","","","",""
"","image-keyboard-response","222","92638","0.0-241.0","30IQTZXKALSJBHNM1RTPY6CMD000XY","AV9GV051TQCZK","3I7KR83SNAZT1REYB2SRC49PCEEK9H","","258","img/food2.png","76","258.5","3","1","1","2","1,0.5,0,1,0.5,0,0.5,0,1","0.5,0,1,0.5,0,1,0,1,0.5","2","false",""
"","html-keyboard-response","223","92940","0.0-242.0","30IQTZXKALSJBHNM1RTPY6CMD000XY","AV9GV051TQCZK","3I7KR83SNAZT1REYB2SRC49PCEEK9H","","null","<img src=""img/food2.png"" style=""width:200px; border:14px solid green;"">","null","","","","","","","","","",""
"","image-keyboard-response","224","93158","0.0-244.0","30IQTZXKALSJBHNM1RTPY6CMD000XY","AV9GV051TQCZK","3I7KR83SNAZT1REYB2SRC49PCEEK9H","","218.20000000298023","img/food1.png","76","218.59999999403954","3","0","3","2","1,0.5,0,1,0.5,0,0.5,0,1","0.5,0,1,0.5,0,1,0,1,0.5","2","false",""
"","html-keyboard-response","225","93460","0.0-245.0","30IQTZXKALSJBHNM1RTPY6CMD000XY","AV9GV051TQCZK","3I7KR83SNAZT1REYB2SRC49PCEEK9H","","null","<img src=""img/food1.png"" style=""width:200px;border:14px solid red;"">","null","","","","","","","","","",""
"","image-keyboard-response","226","93862","0.0-247.0","30IQTZXKALSJBHNM1RTPY6CMD000XY","AV9GV051TQCZK","3I7KR83SNAZT1REYB2SRC49PCEEK9H","","401.80000000447035","img/food1.png","76","402.19999999552965","3","1","3","2","1,0.5,0,1,0.5,0,0.5,0,1","0.5,0,1,0.5,0,1,0,1,0.5","2","false",""
"","html-keyboard-response","227","94164","0.0-248.0","30IQTZXKALSJBHNM1RTPY6CMD000XY","AV9GV051TQCZK","3I7KR83SNAZT1REYB2SRC49PCEEK9H","","null","<img src=""img/food1.png"" style=""width:200px; border:14px solid green;"">","null","","","","","","","","","",""
"","image-keyboard-response","228","94462","0.0-250.0","30IQTZXKALSJBHNM1RTPY6CMD000XY","AV9GV051TQCZK","3I7KR83SNAZT1REYB2SRC49PCEEK9H","","297.3999999985099","img/food4.png","76","297.79999999701977","3","1","2","2","1,0.5,0,1,0.5,0,0.5,0,1","0.5,0,1,0.5,0,1,0,1,0.5","2","false",""
"","html-keyboard-response","229","94764","0.0-251.0","30IQTZXKALSJBHNM1RTPY6CMD000XY","AV9GV051TQCZK","3I7KR83SNAZT1REYB2SRC49PCEEK9H","","null","<img src=""img/food4.png"" style=""width:200px; border:14px solid green;"">","null","","","","","","","","","",""
"","image-keyboard-response","230","95198","0.0-253.0","30IQTZXKALSJBHNM1RTPY6CMD000XY","AV9GV051TQCZK","3I7KR83SNAZT1REYB2SRC49PCEEK9H","","433.69999999552965","img/food1.png","76","434.29999999701977","3","0","3","2","1,0.5,0,1,0.5,0,0.5,0,1","0.5,0,1,0.5,0,1,0,1,0.5","2","false",""
"","html-keyboard-response","231","95500","0.0-254.0","30IQTZXKALSJBHNM1RTPY6CMD000XY","AV9GV051TQCZK","3I7KR83SNAZT1REYB2SRC49PCEEK9H","","null","<img src=""img/food1.png"" style=""width:200px;border:14px solid red;"">","null","","","","","","","","","",""
"","image-keyboard-response","232","96014","0.0-256.0","30IQTZXKALSJBHNM1RTPY6CMD000XY","AV9GV051TQCZK","3I7KR83SNAZT1REYB2SRC49PCEEK9H","","514.1999999955297","img/food2.png","76","514.6000000014901","3","1","1","2","1,0.5,0,1,0.5,0,0.5,0,1","0.5,0,1,0.5,0,1,0,1,0.5","2","false",""
"","html-keyboard-response","233","96316","0.0-257.0","30IQTZXKALSJBHNM1RTPY6CMD000XY","AV9GV051TQCZK","3I7KR83SNAZT1REYB2SRC49PCEEK9H","","null","<img src=""img/food2.png"" style=""width:200px; border:14px solid green;"">","null","","","","","","","","","",""
"","image-keyboard-response","234","96630","0.0-259.0","30IQTZXKALSJBHNM1RTPY6CMD000XY","AV9GV051TQCZK","3I7KR83SNAZT1REYB2SRC49PCEEK9H","","313.79999999701977","img/food2.png","76","314.29999999701977","3","1","1","2","1,0.5,0,1,0.5,0,0.5,0,1","0.5,0,1,0.5,0,1,0,1,0.5","2","false",""
"","html-keyboard-response","235","96932","0.0-260.0","30IQTZXKALSJBHNM1RTPY6CMD000XY","AV9GV051TQCZK","3I7KR83SNAZT1REYB2SRC49PCEEK9H","","null","<img src=""img/food2.png"" style=""width:200px; border:14px solid green;"">","null","","","","","","","","","",""
"","image-keyboard-response","236","97334","0.0-262.0","30IQTZXKALSJBHNM1RTPY6CMD000XY","AV9GV051TQCZK","3I7KR83SNAZT1REYB2SRC49PCEEK9H","","401.8999999985099","img/food2.png","76","402.29999999701977","3","1","1","2","1,0.5,0,1,0.5,0,0.5,0,1","0.5,0,1,0.5,0,1,0,1,0.5","2","false",""
"","html-keyboard-response","237","97636","0.0-263.0","30IQTZXKALSJBHNM1RTPY6CMD000XY","AV9GV051TQCZK","3I7KR83SNAZT1REYB2SRC49PCEEK9H","","null","<img src=""img/food2.png"" style=""width:200px; border:14px solid green;"">","null","","","","","","","","","",""
"","image-keyboard-response","238","97886","0.0-265.0","30IQTZXKALSJBHNM1RTPY6CMD000XY","AV9GV051TQCZK","3I7KR83SNAZT1REYB2SRC49PCEEK9H","","250.29999999701977","img/food4.png","76","250.79999999701977","3","1","2","2","1,0.5,0,1,0.5,0,0.5,0,1","0.5,0,1,0.5,0,1,0,1,0.5","2","false",""
"","html-keyboard-response","239","98188","0.0-266.0","30IQTZXKALSJBHNM1RTPY6CMD000XY","AV9GV051TQCZK","3I7KR83SNAZT1REYB2SRC49PCEEK9H","","null","<img src=""img/food4.png"" style=""width:200px; border:14px solid green;"">","null","","","","","","","","","",""
"","image-keyboard-response","240","98558","0.0-268.0","30IQTZXKALSJBHNM1RTPY6CMD000XY","AV9GV051TQCZK","3I7KR83SNAZT1REYB2SRC49PCEEK9H","","369.30000000447035","img/food4.png","76","369.8999999985099","3","1","2","2","1,0.5,0,1,0.5,0,0.5,0,1","0.5,0,1,0.5,0,1,0,1,0.5","2","false",""
"","html-keyboard-response","241","98860","0.0-269.0","30IQTZXKALSJBHNM1RTPY6CMD000XY","AV9GV051TQCZK","3I7KR83SNAZT1REYB2SRC49PCEEK9H","","null","<img src=""img/food4.png"" style=""width:200px; border:14px solid green;"">","null","","","","","","","","","",""
"","image-keyboard-response","242","99174","0.0-271.0","30IQTZXKALSJBHNM1RTPY6CMD000XY","AV9GV051TQCZK","3I7KR83SNAZT1REYB2SRC49PCEEK9H","","313.79999999701977","img/food4.png","76","314.29999999701977","3","1","2","2","1,0.5,0,1,0.5,0,0.5,0,1","0.5,0,1,0.5,0,1,0,1,0.5","2","false",""
"","html-keyboard-response","243","99476","0.0-272.0","30IQTZXKALSJBHNM1RTPY6CMD000XY","AV9GV051TQCZK","3I7KR83SNAZT1REYB2SRC49PCEEK9H","","null","<img src=""img/food4.png"" style=""width:200px; border:14px solid green;"">","null","","","","","","","","","",""
"","image-keyboard-response","244","99847","0.0-274.0","30IQTZXKALSJBHNM1RTPY6CMD000XY","AV9GV051TQCZK","3I7KR83SNAZT1REYB2SRC49PCEEK9H","","370.1000000014901","img/food4.png","76","370.3999999985099","3","1","2","2","1,0.5,0,1,0.5,0,0.5,0,1","0.5,0,1,0.5,0,1,0,1,0.5","2","false",""
"","html-keyboard-response","245","100148","0.0-275.0","30IQTZXKALSJBHNM1RTPY6CMD000XY","AV9GV051TQCZK","3I7KR83SNAZT1REYB2SRC49PCEEK9H","","null","<img src=""img/food4.png"" style=""width:200px; border:14px solid green;"">","null","","","","","","","","","",""
"","image-keyboard-response","246","100550","0.0-277.0","30IQTZXKALSJBHNM1RTPY6CMD000XY","AV9GV051TQCZK","3I7KR83SNAZT1REYB2SRC49PCEEK9H","","401.8999999985099","img/food1.png","76","402.29999999701977","3","0","3","2","1,0.5,0,1,0.5,0,0.5,0,1","0.5,0,1,0.5,0,1,0,1,0.5","2","false",""
"","html-keyboard-response","247","100852","0.0-278.0","30IQTZXKALSJBHNM1RTPY6CMD000XY","AV9GV051TQCZK","3I7KR83SNAZT1REYB2SRC49PCEEK9H","","null","<img src=""img/food1.png"" style=""width:200px;border:14px solid red;"">","null","","","","","","","","","",""
"","image-keyboard-response","248","101646","0.0-280.0","30IQTZXKALSJBHNM1RTPY6CMD000XY","AV9GV051TQCZK","3I7KR83SNAZT1REYB2SRC49PCEEK9H","","794.1000000014901","img/food2.png","76","794.5","3","1","1","2","1,0.5,0,1,0.5,0,0.5,0,1","0.5,0,1,0.5,0,1,0,1,0.5","2","false",""
"","html-keyboard-response","249","101948","0.0-281.0","30IQTZXKALSJBHNM1RTPY6CMD000XY","AV9GV051TQCZK","3I7KR83SNAZT1REYB2SRC49PCEEK9H","","null","<img src=""img/food2.png"" style=""width:200px; border:14px solid green;"">","null","","","","","","","","","",""
"","image-keyboard-response","250","102222","0.0-283.0","30IQTZXKALSJBHNM1RTPY6CMD000XY","AV9GV051TQCZK","3I7KR83SNAZT1REYB2SRC49PCEEK9H","","273.90000000596046","img/food2.png","76","274.3999999985099","3","1","1","2","1,0.5,0,1,0.5,0,0.5,0,1","0.5,0,1,0.5,0,1,0,1,0.5","2","false",""
"","html-keyboard-response","251","102523","0.0-284.0","30IQTZXKALSJBHNM1RTPY6CMD000XY","AV9GV051TQCZK","3I7KR83SNAZT1REYB2SRC49PCEEK9H","","null","<img src=""img/food2.png"" style=""width:200px; border:14px solid green;"">","null","","","","","","","","","",""
"","image-keyboard-response","252","103094","0.0-286.0","30IQTZXKALSJBHNM1RTPY6CMD000XY","AV9GV051TQCZK","3I7KR83SNAZT1REYB2SRC49PCEEK9H","","570.5","img/food2.png","76","571","3","1","1","2","1,0.5,0,1,0.5,0,0.5,0,1","0.5,0,1,0.5,0,1,0,1,0.5","2","false",""
"","html-keyboard-response","253","103395","0.0-287.0","30IQTZXKALSJBHNM1RTPY6CMD000XY","AV9GV051TQCZK","3I7KR83SNAZT1REYB2SRC49PCEEK9H","","null","<img src=""img/food2.png"" style=""width:200px; border:14px solid green;"">","null","","","","","","","","","",""
"","image-keyboard-response","254","103934","0.0-289.0","30IQTZXKALSJBHNM1RTPY6CMD000XY","AV9GV051TQCZK","3I7KR83SNAZT1REYB2SRC49PCEEK9H","","538.7000000029802","img/food4.png","76","539","3","1","2","2","1,0.5,0,1,0.5,0,0.5,0,1","0.5,0,1,0.5,0,1,0,1,0.5","2","false",""
"","html-keyboard-response","255","104236","0.0-290.0","30IQTZXKALSJBHNM1RTPY6CMD000XY","AV9GV051TQCZK","3I7KR83SNAZT1REYB2SRC49PCEEK9H","","null","<img src=""img/food4.png"" style=""width:200px; border:14px solid green;"">","null","","","","","","","","","",""
"","image-keyboard-response","256","104550","0.0-292.0","30IQTZXKALSJBHNM1RTPY6CMD000XY","AV9GV051TQCZK","3I7KR83SNAZT1REYB2SRC49PCEEK9H","","313.5","img/food4.png","76","314","3","1","2","2","1,0.5,0,1,0.5,0,0.5,0,1","0.5,0,1,0.5,0,1,0,1,0.5","2","false",""
"","html-keyboard-response","257","104852","0.0-293.0","30IQTZXKALSJBHNM1RTPY6CMD000XY","AV9GV051TQCZK","3I7KR83SNAZT1REYB2SRC49PCEEK9H","","null","<img src=""img/food4.png"" style=""width:200px; border:14px solid green;"">","null","","","","","","","","","",""
"","image-keyboard-response","258","105318","0.0-295.0","30IQTZXKALSJBHNM1RTPY6CMD000XY","AV9GV051TQCZK","3I7KR83SNAZT1REYB2SRC49PCEEK9H","","465.80000000447035","img/food2.png","76","466.29999999701977","3","1","1","2","1,0.5,0,1,0.5,0,0.5,0,1","0.5,0,1,0.5,0,1,0,1,0.5","2","false",""
"","html-keyboard-response","259","105620","0.0-296.0","30IQTZXKALSJBHNM1RTPY6CMD000XY","AV9GV051TQCZK","3I7KR83SNAZT1REYB2SRC49PCEEK9H","","null","<img src=""img/food2.png"" style=""width:200px; border:14px solid green;"">","null","","","","","","","","","",""
"","image-keyboard-response","260","106022","0.0-298.0","30IQTZXKALSJBHNM1RTPY6CMD000XY","AV9GV051TQCZK","3I7KR83SNAZT1REYB2SRC49PCEEK9H","","402.3999999985099","img/food1.png","76","402.69999999552965","3","1","3","2","1,0.5,0,1,0.5,0,0.5,0,1","0.5,0,1,0.5,0,1,0,1,0.5","2","false",""
"","html-keyboard-response","261","106323","0.0-299.0","30IQTZXKALSJBHNM1RTPY6CMD000XY","AV9GV051TQCZK","3I7KR83SNAZT1REYB2SRC49PCEEK9H","","null","<img src=""img/food1.png"" style=""width:200px; border:14px solid green;"">","null","","","","","","","","","",""
"","image-keyboard-response","262","106742","0.0-301.0","30IQTZXKALSJBHNM1RTPY6CMD000XY","AV9GV051TQCZK","3I7KR83SNAZT1REYB2SRC49PCEEK9H","","418.5","img/food4.png","76","419","3","1","2","2","1,0.5,0,1,0.5,0,0.5,0,1","0.5,0,1,0.5,0,1,0,1,0.5","2","false",""
"","html-keyboard-response","263","107047","0.0-302.0","30IQTZXKALSJBHNM1RTPY6CMD000XY","AV9GV051TQCZK","3I7KR83SNAZT1REYB2SRC49PCEEK9H","","null","<img src=""img/food4.png"" style=""width:200px; border:14px solid green;"">","null","","","","","","","","","",""
"","image-keyboard-response","264","107486","0.0-304.0","30IQTZXKALSJBHNM1RTPY6CMD000XY","AV9GV051TQCZK","3I7KR83SNAZT1REYB2SRC49PCEEK9H","","438.30000000447035","img/food2.png","76","438.8999999985099","3","1","1","2","1,0.5,0,1,0.5,0,0.5,0,1","0.5,0,1,0.5,0,1,0,1,0.5","2","false",""
"","html-keyboard-response","265","107788","0.0-305.0","30IQTZXKALSJBHNM1RTPY6CMD000XY","AV9GV051TQCZK","3I7KR83SNAZT1REYB2SRC49PCEEK9H","","null","<img src=""img/food2.png"" style=""width:200px; border:14px solid green;"">","null","","","","","","","","","",""
"","image-keyboard-response","266","108230","0.0-307.0","30IQTZXKALSJBHNM1RTPY6CMD000XY","AV9GV051TQCZK","3I7KR83SNAZT1REYB2SRC49PCEEK9H","","441.70000000298023","img/food1.png","76","442.1000000014901","3","1","3","2","1,0.5,0,1,0.5,0,0.5,0,1","0.5,0,1,0.5,0,1,0,1,0.5","2","false",""
"","html-keyboard-response","267","108532","0.0-308.0","30IQTZXKALSJBHNM1RTPY6CMD000XY","AV9GV051TQCZK","3I7KR83SNAZT1REYB2SRC49PCEEK9H","","null","<img src=""img/food1.png"" style=""width:200px; border:14px solid green;"">","null","","","","","","","","","",""
"","image-keyboard-response","268","108950","0.0-310.0","30IQTZXKALSJBHNM1RTPY6CMD000XY","AV9GV051TQCZK","3I7KR83SNAZT1REYB2SRC49PCEEK9H","","417.69999999552965","img/food1.png","76","418","3","1","3","2","1,0.5,0,1,0.5,0,0.5,0,1","0.5,0,1,0.5,0,1,0,1,0.5","2","false",""
"","html-keyboard-response","269","109252","0.0-311.0","30IQTZXKALSJBHNM1RTPY6CMD000XY","AV9GV051TQCZK","3I7KR83SNAZT1REYB2SRC49PCEEK9H","","null","<img src=""img/food1.png"" style=""width:200px; border:14px solid green;"">","null","","","","","","","","","",""
"","image-keyboard-response","270","109598","0.0-313.0","30IQTZXKALSJBHNM1RTPY6CMD000XY","AV9GV051TQCZK","3I7KR83SNAZT1REYB2SRC49PCEEK9H","","346.09999999403954","img/food1.png","76","346.3999999985099","3","1","3","2","1,0.5,0,1,0.5,0,0.5,0,1","0.5,0,1,0.5,0,1,0,1,0.5","2","false",""
"","html-keyboard-response","271","109900","0.0-314.0","30IQTZXKALSJBHNM1RTPY6CMD000XY","AV9GV051TQCZK","3I7KR83SNAZT1REYB2SRC49PCEEK9H","","null","<img src=""img/food1.png"" style=""width:200px; border:14px solid green;"">","null","","","","","","","","","",""
"","image-keyboard-response","272","110447","0.0-316.0","30IQTZXKALSJBHNM1RTPY6CMD000XY","AV9GV051TQCZK","3I7KR83SNAZT1REYB2SRC49PCEEK9H","","546.1999999955297","img/food1.png","76","546.6000000014901","3","0","3","2","1,0.5,0,1,0.5,0,0.5,0,1","0.5,0,1,0.5,0,1,0,1,0.5","2","false",""
"","html-keyboard-response","273","110748","0.0-317.0","30IQTZXKALSJBHNM1RTPY6CMD000XY","AV9GV051TQCZK","3I7KR83SNAZT1REYB2SRC49PCEEK9H","","null","<img src=""img/food1.png"" style=""width:200px;border:14px solid red;"">","null","","","","","","","","","",""
"","image-keyboard-response","274","111166","0.0-319.0","30IQTZXKALSJBHNM1RTPY6CMD000XY","AV9GV051TQCZK","3I7KR83SNAZT1REYB2SRC49PCEEK9H","","417.70000000298023","img/food4.png","76","418.19999999552965","3","1","2","2","1,0.5,0,1,0.5,0,0.5,0,1","0.5,0,1,0.5,0,1,0,1,0.5","2","false",""
"","html-keyboard-response","275","111468","0.0-320.0","30IQTZXKALSJBHNM1RTPY6CMD000XY","AV9GV051TQCZK","3I7KR83SNAZT1REYB2SRC49PCEEK9H","","null","<img src=""img/food4.png"" style=""width:200px; border:14px solid green;"">","null","","","","","","","","","",""
"","image-keyboard-response","276","111943","0.0-322.0","30IQTZXKALSJBHNM1RTPY6CMD000XY","AV9GV051TQCZK","3I7KR83SNAZT1REYB2SRC49PCEEK9H","","473.79999999701977","img/food4.png","76","474.20000000298023","3","1","2","2","1,0.5,0,1,0.5,0,0.5,0,1","0.5,0,1,0.5,0,1,0,1,0.5","2","false",""
"","html-keyboard-response","277","112247","0.0-323.0","30IQTZXKALSJBHNM1RTPY6CMD000XY","AV9GV051TQCZK","3I7KR83SNAZT1REYB2SRC49PCEEK9H","","null","<img src=""img/food4.png"" style=""width:200px; border:14px solid green;"">","null","","","","","","","","","",""
"","image-keyboard-response","278","112702","0.0-325.0","30IQTZXKALSJBHNM1RTPY6CMD000XY","AV9GV051TQCZK","3I7KR83SNAZT1REYB2SRC49PCEEK9H","","454.30000000447035","img/food2.png","76","454.79999999701977","3","1","1","2","1,0.5,0,1,0.5,0,0.5,0,1","0.5,0,1,0.5,0,1,0,1,0.5","2","false",""
"","html-keyboard-response","279","113004","0.0-326.0","30IQTZXKALSJBHNM1RTPY6CMD000XY","AV9GV051TQCZK","3I7KR83SNAZT1REYB2SRC49PCEEK9H","","null","<img src=""img/food2.png"" style=""width:200px; border:14px solid green;"">","null","","","","","","","","","",""
"","image-keyboard-response","280","113422","0.0-328.0","30IQTZXKALSJBHNM1RTPY6CMD000XY","AV9GV051TQCZK","3I7KR83SNAZT1REYB2SRC49PCEEK9H","","417.79999999701977","img/food2.png","76","418.19999999552965","3","1","1","2","1,0.5,0,1,0.5,0,0.5,0,1","0.5,0,1,0.5,0,1,0,1,0.5","2","false",""
"","html-keyboard-response","281","113723","0.0-329.0","30IQTZXKALSJBHNM1RTPY6CMD000XY","AV9GV051TQCZK","3I7KR83SNAZT1REYB2SRC49PCEEK9H","","null","<img src=""img/food2.png"" style=""width:200px; border:14px solid green;"">","null","","","","","","","","","",""
"","image-keyboard-response","282","114150","0.0-331.0","30IQTZXKALSJBHNM1RTPY6CMD000XY","AV9GV051TQCZK","3I7KR83SNAZT1REYB2SRC49PCEEK9H","","426.69999999552965","img/food1.png","76","427.1000000014901","3","1","3","2","1,0.5,0,1,0.5,0,0.5,0,1","0.5,0,1,0.5,0,1,0,1,0.5","2","false",""
"","html-keyboard-response","283","114452","0.0-332.0","30IQTZXKALSJBHNM1RTPY6CMD000XY","AV9GV051TQCZK","3I7KR83SNAZT1REYB2SRC49PCEEK9H","","null","<img src=""img/food1.png"" style=""width:200px; border:14px solid green;"">","null","","","","","","","","","",""
"","image-keyboard-response","284","114742","0.0-334.0","30IQTZXKALSJBHNM1RTPY6CMD000XY","AV9GV051TQCZK","3I7KR83SNAZT1REYB2SRC49PCEEK9H","","289.80000000447035","img/food1.png","76","290.29999999701977","3","0","3","2","1,0.5,0,1,0.5,0,0.5,0,1","0.5,0,1,0.5,0,1,0,1,0.5","2","false",""
"","html-keyboard-response","285","115044","0.0-335.0","30IQTZXKALSJBHNM1RTPY6CMD000XY","AV9GV051TQCZK","3I7KR83SNAZT1REYB2SRC49PCEEK9H","","null","<img src=""img/food1.png"" style=""width:200px;border:14px solid red;"">","null","","","","","","","","","",""
"","image-keyboard-response","286","115526","0.0-337.0","30IQTZXKALSJBHNM1RTPY6CMD000XY","AV9GV051TQCZK","3I7KR83SNAZT1REYB2SRC49PCEEK9H","","481.90000000596046","img/food2.png","76","482.29999999701977","3","1","1","2","1,0.5,0,1,0.5,0,0.5,0,1","0.5,0,1,0.5,0,1,0,1,0.5","2","false",""
"","html-keyboard-response","287","115828","0.0-338.0","30IQTZXKALSJBHNM1RTPY6CMD000XY","AV9GV051TQCZK","3I7KR83SNAZT1REYB2SRC49PCEEK9H","","null","<img src=""img/food2.png"" style=""width:200px; border:14px solid green;"">","null","","","","","","","","","",""
"","image-keyboard-response","288","116230","0.0-340.0","30IQTZXKALSJBHNM1RTPY6CMD000XY","AV9GV051TQCZK","3I7KR83SNAZT1REYB2SRC49PCEEK9H","","401.69999999552965","img/food4.png","76","402.1000000014901","3","1","2","2","1,0.5,0,1,0.5,0,0.5,0,1","0.5,0,1,0.5,0,1,0,1,0.5","2","false",""
"","html-keyboard-response","289","116532","0.0-341.0","30IQTZXKALSJBHNM1RTPY6CMD000XY","AV9GV051TQCZK","3I7KR83SNAZT1REYB2SRC49PCEEK9H","","null","<img src=""img/food4.png"" style=""width:200px; border:14px solid green;"">","null","","","","","","","","","",""
"","image-keyboard-response","290","116910","0.0-343.0","30IQTZXKALSJBHNM1RTPY6CMD000XY","AV9GV051TQCZK","3I7KR83SNAZT1REYB2SRC49PCEEK9H","","377.70000000298023","img/food2.png","76","378.19999999552965","3","1","1","2","1,0.5,0,1,0.5,0,0.5,0,1","0.5,0,1,0.5,0,1,0,1,0.5","2","false",""
"","html-keyboard-response","291","117212","0.0-344.0","30IQTZXKALSJBHNM1RTPY6CMD000XY","AV9GV051TQCZK","3I7KR83SNAZT1REYB2SRC49PCEEK9H","","null","<img src=""img/food2.png"" style=""width:200px; border:14px solid green;"">","null","","","","","","","","","",""
"","image-keyboard-response","292","117582","0.0-346.0","30IQTZXKALSJBHNM1RTPY6CMD000XY","AV9GV051TQCZK","3I7KR83SNAZT1REYB2SRC49PCEEK9H","","370","img/food1.png","76","370.5","3","1","3","2","1,0.5,0,1,0.5,0,0.5,0,1","0.5,0,1,0.5,0,1,0,1,0.5","2","false",""
"","html-keyboard-response","293","117896","0.0-347.0","30IQTZXKALSJBHNM1RTPY6CMD000XY","AV9GV051TQCZK","3I7KR83SNAZT1REYB2SRC49PCEEK9H","","null","<img src=""img/food1.png"" style=""width:200px; border:14px solid green;"">","null","","","","","","","","","",""
"","image-keyboard-response","294","118190","0.0-349.0","30IQTZXKALSJBHNM1RTPY6CMD000XY","AV9GV051TQCZK","3I7KR83SNAZT1REYB2SRC49PCEEK9H","","293.80000000447035","img/food4.png","76","294.3999999985099","3","1","2","2","1,0.5,0,1,0.5,0,0.5,0,1","0.5,0,1,0.5,0,1,0,1,0.5","2","false",""
"","html-keyboard-response","295","118491","0.0-350.0","30IQTZXKALSJBHNM1RTPY6CMD000XY","AV9GV051TQCZK","3I7KR83SNAZT1REYB2SRC49PCEEK9H","","null","<img src=""img/food4.png"" style=""width:200px; border:14px solid green;"">","null","","","","","","","","","",""
"","image-keyboard-response","296","118822","0.0-352.0","30IQTZXKALSJBHNM1RTPY6CMD000XY","AV9GV051TQCZK","3I7KR83SNAZT1REYB2SRC49PCEEK9H","","330.40000000596046","img/food1.png","76","330.8999999985099","3","1","3","2","1,0.5,0,1,0.5,0,0.5,0,1","0.5,0,1,0.5,0,1,0,1,0.5","2","false",""
"","html-keyboard-response","297","119124","0.0-353.0","30IQTZXKALSJBHNM1RTPY6CMD000XY","AV9GV051TQCZK","3I7KR83SNAZT1REYB2SRC49PCEEK9H","","null","<img src=""img/food1.png"" style=""width:200px; border:14px solid green;"">","null","","","","","","","","","",""
"","image-keyboard-response","298","119390","0.0-355.0","30IQTZXKALSJBHNM1RTPY6CMD000XY","AV9GV051TQCZK","3I7KR83SNAZT1REYB2SRC49PCEEK9H","","265.5","img/food2.png","76","265.8999999985099","3","1","1","2","1,0.5,0,1,0.5,0,0.5,0,1","0.5,0,1,0.5,0,1,0,1,0.5","2","false",""
"","html-keyboard-response","299","119691","0.0-356.0","30IQTZXKALSJBHNM1RTPY6CMD000XY","AV9GV051TQCZK","3I7KR83SNAZT1REYB2SRC49PCEEK9H","","null","<img src=""img/food2.png"" style=""width:200px; border:14px solid green;"">","null","","","","","","","","","",""
"","image-keyboard-response","300","119990","0.0-358.0","30IQTZXKALSJBHNM1RTPY6CMD000XY","AV9GV051TQCZK","3I7KR83SNAZT1REYB2SRC49PCEEK9H","","298.5","img/food1.png","76","298.8999999985099","3","1","3","2","1,0.5,0,1,0.5,0,0.5,0,1","0.5,0,1,0.5,0,1,0,1,0.5","2","false",""
"","html-keyboard-response","301","120291","0.0-359.0","30IQTZXKALSJBHNM1RTPY6CMD000XY","AV9GV051TQCZK","3I7KR83SNAZT1REYB2SRC49PCEEK9H","","null","<img src=""img/food1.png"" style=""width:200px; border:14px solid green;"">","null","","","","","","","","","",""
"","image-keyboard-response","302","120542","0.0-361.0","30IQTZXKALSJBHNM1RTPY6CMD000XY","AV9GV051TQCZK","3I7KR83SNAZT1REYB2SRC49PCEEK9H","","250.69999999552965","img/food4.png","76","251.20000000298023","3","1","2","2","1,0.5,0,1,0.5,0,0.5,0,1","0.5,0,1,0.5,0,1,0,1,0.5","2","false",""
"","html-keyboard-response","303","120843","0.0-362.0","30IQTZXKALSJBHNM1RTPY6CMD000XY","AV9GV051TQCZK","3I7KR83SNAZT1REYB2SRC49PCEEK9H","","null","<img src=""img/food4.png"" style=""width:200px; border:14px solid green;"">","null","","","","","","","","","",""
"","image-keyboard-response","304","121118","0.0-364.0","30IQTZXKALSJBHNM1RTPY6CMD000XY","AV9GV051TQCZK","3I7KR83SNAZT1REYB2SRC49PCEEK9H","","274.69999999552965","img/food4.png","76","275.20000000298023","3","1","2","2","1,0.5,0,1,0.5,0,0.5,0,1","0.5,0,1,0.5,0,1,0,1,0.5","2","false",""
"","html-keyboard-response","305","121420","0.0-365.0","30IQTZXKALSJBHNM1RTPY6CMD000XY","AV9GV051TQCZK","3I7KR83SNAZT1REYB2SRC49PCEEK9H","","null","<img src=""img/food4.png"" style=""width:200px; border:14px solid green;"">","null","","","","","","","","","",""
"","image-keyboard-response","306","121750","0.0-367.0","30IQTZXKALSJBHNM1RTPY6CMD000XY","AV9GV051TQCZK","3I7KR83SNAZT1REYB2SRC49PCEEK9H","","329.70000000298023","img/food4.png","76","330.29999999701977","3","1","2","2","1,0.5,0,1,0.5,0,0.5,0,1","0.5,0,1,0.5,0,1,0,1,0.5","2","false",""
"","html-keyboard-response","307","122051","0.0-368.0","30IQTZXKALSJBHNM1RTPY6CMD000XY","AV9GV051TQCZK","3I7KR83SNAZT1REYB2SRC49PCEEK9H","","null","<img src=""img/food4.png"" style=""width:200px; border:14px solid green;"">","null","","","","","","","","","",""
"","image-keyboard-response","308","122334","0.0-370.0","30IQTZXKALSJBHNM1RTPY6CMD000XY","AV9GV051TQCZK","3I7KR83SNAZT1REYB2SRC49PCEEK9H","","282.20000000298023","img/food1.png","76","282.69999999552965","3","1","3","2","1,0.5,0,1,0.5,0,0.5,0,1","0.5,0,1,0.5,0,1,0,1,0.5","2","false",""
"","html-keyboard-response","309","122635","0.0-371.0","30IQTZXKALSJBHNM1RTPY6CMD000XY","AV9GV051TQCZK","3I7KR83SNAZT1REYB2SRC49PCEEK9H","","null","<img src=""img/food1.png"" style=""width:200px; border:14px solid green;"">","null","","","","","","","","","",""
"","image-keyboard-response","310","123054","0.0-373.0","30IQTZXKALSJBHNM1RTPY6CMD000XY","AV9GV051TQCZK","3I7KR83SNAZT1REYB2SRC49PCEEK9H","","418.20000000298023","img/food1.png","76","418.79999999701977","3","0","3","2","1,0.5,0,1,0.5,0,0.5,0,1","0.5,0,1,0.5,0,1,0,1,0.5","2","false",""
"","html-keyboard-response","311","123356","0.0-374.0","30IQTZXKALSJBHNM1RTPY6CMD000XY","AV9GV051TQCZK","3I7KR83SNAZT1REYB2SRC49PCEEK9H","","null","<img src=""img/food1.png"" style=""width:200px;border:14px solid red;"">","null","","","","","","","","","",""
"","image-keyboard-response","312","123686","0.0-376.0","30IQTZXKALSJBHNM1RTPY6CMD000XY","AV9GV051TQCZK","3I7KR83SNAZT1REYB2SRC49PCEEK9H","","330.1000000014901","img/food1.png","76","330.6000000014901","3","1","3","2","1,0.5,0,1,0.5,0,0.5,0,1","0.5,0,1,0.5,0,1,0,1,0.5","2","false",""
"","html-keyboard-response","313","123988","0.0-377.0","30IQTZXKALSJBHNM1RTPY6CMD000XY","AV9GV051TQCZK","3I7KR83SNAZT1REYB2SRC49PCEEK9H","","null","<img src=""img/food1.png"" style=""width:200px; border:14px solid green;"">","null","","","","","","","","","",""
"","image-keyboard-response","314","124350","0.0-379.0","30IQTZXKALSJBHNM1RTPY6CMD000XY","AV9GV051TQCZK","3I7KR83SNAZT1REYB2SRC49PCEEK9H","","361.79999999701977","img/food4.png","76","362.1000000014901","3","1","2","2","1,0.5,0,1,0.5,0,0.5,0,1","0.5,0,1,0.5,0,1,0,1,0.5","2","false",""
"","html-keyboard-response","315","124652","0.0-380.0","30IQTZXKALSJBHNM1RTPY6CMD000XY","AV9GV051TQCZK","3I7KR83SNAZT1REYB2SRC49PCEEK9H","","null","<img src=""img/food4.png"" style=""width:200px; border:14px solid green;"">","null","","","","","","","","","",""
"","image-keyboard-response","316","124974","0.0-382.0","30IQTZXKALSJBHNM1RTPY6CMD000XY","AV9GV051TQCZK","3I7KR83SNAZT1REYB2SRC49PCEEK9H","","322.29999999701977","img/food2.png","76","322.6000000014901","3","1","1","2","1,0.5,0,1,0.5,0,0.5,0,1","0.5,0,1,0.5,0,1,0,1,0.5","2","false",""
"","html-keyboard-response","317","125275","0.0-383.0","30IQTZXKALSJBHNM1RTPY6CMD000XY","AV9GV051TQCZK","3I7KR83SNAZT1REYB2SRC49PCEEK9H","","null","<img src=""img/food2.png"" style=""width:200px; border:14px solid green;"">","null","","","","","","","","","",""
"","image-keyboard-response","318","125582","0.0-385.0","30IQTZXKALSJBHNM1RTPY6CMD000XY","AV9GV051TQCZK","3I7KR83SNAZT1REYB2SRC49PCEEK9H","","306.6000000014901","img/food1.png","76","307.1000000014901","3","0","3","2","1,0.5,0,1,0.5,0,0.5,0,1","0.5,0,1,0.5,0,1,0,1,0.5","2","false",""
"","html-keyboard-response","319","125883","0.0-386.0","30IQTZXKALSJBHNM1RTPY6CMD000XY","AV9GV051TQCZK","3I7KR83SNAZT1REYB2SRC49PCEEK9H","","null","<img src=""img/food1.png"" style=""width:200px;border:14px solid red;"">","null","","","","","","","","","",""
"","image-keyboard-response","320","126198","0.0-388.0","30IQTZXKALSJBHNM1RTPY6CMD000XY","AV9GV051TQCZK","3I7KR83SNAZT1REYB2SRC49PCEEK9H","","314.20000000298023","img/food1.png","75","314.69999999552965","2","1","3","2","1,0.5,0,1,0.5,0,0.5,0,1","0.5,0,1,0.5,0,1,0,1,0.5","2","false",""
"","html-keyboard-response","321","126500","0.0-389.0","30IQTZXKALSJBHNM1RTPY6CMD000XY","AV9GV051TQCZK","3I7KR83SNAZT1REYB2SRC49PCEEK9H","","null","<img src=""img/food1.png"" style=""width:200px; border:14px solid green;"">","null","","","","","","","","","",""
"","image-keyboard-response","322","126694","0.0-391.0","30IQTZXKALSJBHNM1RTPY6CMD000XY","AV9GV051TQCZK","3I7KR83SNAZT1REYB2SRC49PCEEK9H","","193.70000000298023","img/food1.png","76","194.19999999552965","3","0","3","2","1,0.5,0,1,0.5,0,0.5,0,1","0.5,0,1,0.5,0,1,0,1,0.5","2","false",""
"","html-keyboard-response","323","126996","0.0-392.0","30IQTZXKALSJBHNM1RTPY6CMD000XY","AV9GV051TQCZK","3I7KR83SNAZT1REYB2SRC49PCEEK9H","","null","<img src=""img/food1.png"" style=""width:200px;border:14px solid red;"">","null","","","","","","","","","",""
"","image-keyboard-response","324","127526","0.0-394.0","30IQTZXKALSJBHNM1RTPY6CMD000XY","AV9GV051TQCZK","3I7KR83SNAZT1REYB2SRC49PCEEK9H","","529.3999999985099","img/food2.png","75","529.8999999985099","2","0","1","2","1,0.5,0,1,0.5,0,0.5,0,1","0.5,0,1,0.5,0,1,0,1,0.5","2","false",""
"","html-keyboard-response","325","127828","0.0-395.0","30IQTZXKALSJBHNM1RTPY6CMD000XY","AV9GV051TQCZK","3I7KR83SNAZT1REYB2SRC49PCEEK9H","","null","<img src=""img/food2.png"" style=""width:200px;border:14px solid red;"">","null","","","","","","","","","",""
"","image-keyboard-response","326","128014","0.0-397.0","30IQTZXKALSJBHNM1RTPY6CMD000XY","AV9GV051TQCZK","3I7KR83SNAZT1REYB2SRC49PCEEK9H","","185.59999999403954","img/food4.png","76","186","3","1","2","2","1,0.5,0,1,0.5,0,0.5,0,1","0.5,0,1,0.5,0,1,0,1,0.5","2","false",""
"","html-keyboard-response","327","128315","0.0-398.0","30IQTZXKALSJBHNM1RTPY6CMD000XY","AV9GV051TQCZK","3I7KR83SNAZT1REYB2SRC49PCEEK9H","","null","<img src=""img/food4.png"" style=""width:200px; border:14px solid green;"">","null","","","","","","","","","",""
"","image-keyboard-response","328","128702","0.0-400.0","30IQTZXKALSJBHNM1RTPY6CMD000XY","AV9GV051TQCZK","3I7KR83SNAZT1REYB2SRC49PCEEK9H","","386.3999999985099","img/food2.png","76","386.8999999985099","3","1","1","2","1,0.5,0,1,0.5,0,0.5,0,1","0.5,0,1,0.5,0,1,0,1,0.5","2","false",""
"","html-keyboard-response","329","129003","0.0-401.0","30IQTZXKALSJBHNM1RTPY6CMD000XY","AV9GV051TQCZK","3I7KR83SNAZT1REYB2SRC49PCEEK9H","","null","<img src=""img/food2.png"" style=""width:200px; border:14px solid green;"">","null","","","","","","","","","",""
"","image-keyboard-response","330","129350","0.0-403.0","30IQTZXKALSJBHNM1RTPY6CMD000XY","AV9GV051TQCZK","3I7KR83SNAZT1REYB2SRC49PCEEK9H","","346.1000000014901","img/food1.png","76","346.69999999552965","3","0","3","2","1,0.5,0,1,0.5,0,0.5,0,1","0.5,0,1,0.5,0,1,0,1,0.5","2","false",""
"","html-keyboard-response","331","129651","0.0-404.0","30IQTZXKALSJBHNM1RTPY6CMD000XY","AV9GV051TQCZK","3I7KR83SNAZT1REYB2SRC49PCEEK9H","","null","<img src=""img/food1.png"" style=""width:200px;border:14px solid red;"">","null","","","","","","","","","",""
"","image-keyboard-response","332","130022","0.0-406.0","30IQTZXKALSJBHNM1RTPY6CMD000XY","AV9GV051TQCZK","3I7KR83SNAZT1REYB2SRC49PCEEK9H","","370.19999999552965","img/food2.png","76","370.79999999701977","3","1","1","2","1,0.5,0,1,0.5,0,0.5,0,1","0.5,0,1,0.5,0,1,0,1,0.5","2","false",""
"","html-keyboard-response","333","130323","0.0-407.0","30IQTZXKALSJBHNM1RTPY6CMD000XY","AV9GV051TQCZK","3I7KR83SNAZT1REYB2SRC49PCEEK9H","","null","<img src=""img/food2.png"" style=""width:200px; border:14px solid green;"">","null","","","","","","","","","",""
"","image-keyboard-response","334","130623","0.0-409.0","30IQTZXKALSJBHNM1RTPY6CMD000XY","AV9GV051TQCZK","3I7KR83SNAZT1REYB2SRC49PCEEK9H","","299.1000000014901","img/food2.png","76","299.5","3","1","1","2","1,0.5,0,1,0.5,0,0.5,0,1","0.5,0,1,0.5,0,1,0,1,0.5","2","false",""
"","html-keyboard-response","335","130938","0.0-410.0","30IQTZXKALSJBHNM1RTPY6CMD000XY","AV9GV051TQCZK","3I7KR83SNAZT1REYB2SRC49PCEEK9H","","null","<img src=""img/food2.png"" style=""width:200px; border:14px solid green;"">","null","","","","","","","","","",""
"","image-keyboard-response","336","131222","0.0-412.0","30IQTZXKALSJBHNM1RTPY6CMD000XY","AV9GV051TQCZK","3I7KR83SNAZT1REYB2SRC49PCEEK9H","","283.70000000298023","img/food2.png","76","284.09999999403954","3","1","1","2","1,0.5,0,1,0.5,0,0.5,0,1","0.5,0,1,0.5,0,1,0,1,0.5","2","false",""
"","html-keyboard-response","337","131523","0.0-413.0","30IQTZXKALSJBHNM1RTPY6CMD000XY","AV9GV051TQCZK","3I7KR83SNAZT1REYB2SRC49PCEEK9H","","null","<img src=""img/food2.png"" style=""width:200px; border:14px solid green;"">","null","","","","","","","","","",""
"","image-keyboard-response","338","131910","0.0-415.0","30IQTZXKALSJBHNM1RTPY6CMD000XY","AV9GV051TQCZK","3I7KR83SNAZT1REYB2SRC49PCEEK9H","","386.8999999985099","img/food1.png","76","387.29999999701977","3","0","3","2","1,0.5,0,1,0.5,0,0.5,0,1","0.5,0,1,0.5,0,1,0,1,0.5","2","false",""
"","html-keyboard-response","339","132211","0.0-416.0","30IQTZXKALSJBHNM1RTPY6CMD000XY","AV9GV051TQCZK","3I7KR83SNAZT1REYB2SRC49PCEEK9H","","null","<img src=""img/food1.png"" style=""width:200px;border:14px solid red;"">","null","","","","","","","","","",""
"","image-keyboard-response","340","132534","0.0-418.0","30IQTZXKALSJBHNM1RTPY6CMD000XY","AV9GV051TQCZK","3I7KR83SNAZT1REYB2SRC49PCEEK9H","","322.69999999552965","img/food4.png","76","323.1000000014901","3","1","2","2","1,0.5,0,1,0.5,0,0.5,0,1","0.5,0,1,0.5,0,1,0,1,0.5","2","false",""
"","html-keyboard-response","341","132835","0.0-419.0","30IQTZXKALSJBHNM1RTPY6CMD000XY","AV9GV051TQCZK","3I7KR83SNAZT1REYB2SRC49PCEEK9H","","null","<img src=""img/food4.png"" style=""width:200px; border:14px solid green;"">","null","","","","","","","","","",""
"","image-keyboard-response","342","133078","0.0-421.0","30IQTZXKALSJBHNM1RTPY6CMD000XY","AV9GV051TQCZK","3I7KR83SNAZT1REYB2SRC49PCEEK9H","","242.19999999552965","img/food4.png","76","242.60000000149012","3","1","2","2","1,0.5,0,1,0.5,0,0.5,0,1","0.5,0,1,0.5,0,1,0,1,0.5","2","false",""
"","html-keyboard-response","343","133379","0.0-422.0","30IQTZXKALSJBHNM1RTPY6CMD000XY","AV9GV051TQCZK","3I7KR83SNAZT1REYB2SRC49PCEEK9H","","null","<img src=""img/food4.png"" style=""width:200px; border:14px solid green;"">","null","","","","","","","","","",""
"","image-keyboard-response","344","133670","0.0-424.0","30IQTZXKALSJBHNM1RTPY6CMD000XY","AV9GV051TQCZK","3I7KR83SNAZT1REYB2SRC49PCEEK9H","","290.30000000447035","img/food2.png","76","290.79999999701977","3","1","1","2","1,0.5,0,1,0.5,0,0.5,0,1","0.5,0,1,0.5,0,1,0,1,0.5","2","false",""
"","html-keyboard-response","345","133971","0.0-425.0","30IQTZXKALSJBHNM1RTPY6CMD000XY","AV9GV051TQCZK","3I7KR83SNAZT1REYB2SRC49PCEEK9H","","null","<img src=""img/food2.png"" style=""width:200px; border:14px solid green;"">","null","","","","","","","","","",""
"","image-keyboard-response","346","134246","0.0-427.0","30IQTZXKALSJBHNM1RTPY6CMD000XY","AV9GV051TQCZK","3I7KR83SNAZT1REYB2SRC49PCEEK9H","","274.30000000447035","img/food2.png","76","274.69999999552965","3","1","1","2","1,0.5,0,1,0.5,0,0.5,0,1","0.5,0,1,0.5,0,1,0,1,0.5","2","false",""
"","html-keyboard-response","347","134548","0.0-428.0","30IQTZXKALSJBHNM1RTPY6CMD000XY","AV9GV051TQCZK","3I7KR83SNAZT1REYB2SRC49PCEEK9H","","null","<img src=""img/food2.png"" style=""width:200px; border:14px solid green;"">","null","","","","","","","","","",""
"","image-keyboard-response","348","134766","0.0-430.0","30IQTZXKALSJBHNM1RTPY6CMD000XY","AV9GV051TQCZK","3I7KR83SNAZT1REYB2SRC49PCEEK9H","","217.40000000596046","img/food2.png","76","217.79999999701977","3","1","1","2","1,0.5,0,1,0.5,0,0.5,0,1","0.5,0,1,0.5,0,1,0,1,0.5","2","false",""
"","html-keyboard-response","349","135068","0.0-431.0","30IQTZXKALSJBHNM1RTPY6CMD000XY","AV9GV051TQCZK","3I7KR83SNAZT1REYB2SRC49PCEEK9H","","null","<img src=""img/food2.png"" style=""width:200px; border:14px solid green;"">","null","","","","","","","","","",""
"","image-keyboard-response","350","135278","0.0-433.0","30IQTZXKALSJBHNM1RTPY6CMD000XY","AV9GV051TQCZK","3I7KR83SNAZT1REYB2SRC49PCEEK9H","","209.60000000149012","img/food2.png","76","210","3","1","1","2","1,0.5,0,1,0.5,0,0.5,0,1","0.5,0,1,0.5,0,1,0,1,0.5","2","false",""
"","html-keyboard-response","351","135580","0.0-434.0","30IQTZXKALSJBHNM1RTPY6CMD000XY","AV9GV051TQCZK","3I7KR83SNAZT1REYB2SRC49PCEEK9H","","null","<img src=""img/food2.png"" style=""width:200px; border:14px solid green;"">","null","","","","","","","","","",""
"","image-keyboard-response","352","135790","0.0-436.0","30IQTZXKALSJBHNM1RTPY6CMD000XY","AV9GV051TQCZK","3I7KR83SNAZT1REYB2SRC49PCEEK9H","","209.80000000447035","img/food1.png","76","210.19999999552965","3","0","3","2","1,0.5,0,1,0.5,0,0.5,0,1","0.5,0,1,0.5,0,1,0,1,0.5","2","false",""
"","html-keyboard-response","353","136092","0.0-437.0","30IQTZXKALSJBHNM1RTPY6CMD000XY","AV9GV051TQCZK","3I7KR83SNAZT1REYB2SRC49PCEEK9H","","null","<img src=""img/food1.png"" style=""width:200px;border:14px solid red;"">","null","","","","","","","","","",""
"","image-keyboard-response","354","136310","0.0-439.0","30IQTZXKALSJBHNM1RTPY6CMD000XY","AV9GV051TQCZK","3I7KR83SNAZT1REYB2SRC49PCEEK9H","","218.09999999403954","img/food1.png","76","218.5","3","1","3","2","1,0.5,0,1,0.5,0,0.5,0,1","0.5,0,1,0.5,0,1,0,1,0.5","2","false",""
"","html-keyboard-response","355","136611","0.0-440.0","30IQTZXKALSJBHNM1RTPY6CMD000XY","AV9GV051TQCZK","3I7KR83SNAZT1REYB2SRC49PCEEK9H","","null","<img src=""img/food1.png"" style=""width:200px; border:14px solid green;"">","null","","","","","","","","","",""
"","image-keyboard-response","356","136918","0.0-442.0","30IQTZXKALSJBHNM1RTPY6CMD000XY","AV9GV051TQCZK","3I7KR83SNAZT1REYB2SRC49PCEEK9H","","306.70000000298023","img/food4.png","76","307.1000000014901","3","1","2","2","1,0.5,0,1,0.5,0,0.5,0,1","0.5,0,1,0.5,0,1,0,1,0.5","2","false",""
"","html-keyboard-response","357","137219","0.0-443.0","30IQTZXKALSJBHNM1RTPY6CMD000XY","AV9GV051TQCZK","3I7KR83SNAZT1REYB2SRC49PCEEK9H","","null","<img src=""img/food4.png"" style=""width:200px; border:14px solid green;"">","null","","","","","","","","","",""
"","image-keyboard-response","358","137470","0.0-445.0","30IQTZXKALSJBHNM1RTPY6CMD000XY","AV9GV051TQCZK","3I7KR83SNAZT1REYB2SRC49PCEEK9H","","250.29999999701977","img/food1.png","76","250.89999999850988","3","1","3","2","1,0.5,0,1,0.5,0,0.5,0,1","0.5,0,1,0.5,0,1,0,1,0.5","2","false",""
"","html-keyboard-response","359","137776","0.0-446.0","30IQTZXKALSJBHNM1RTPY6CMD000XY","AV9GV051TQCZK","3I7KR83SNAZT1REYB2SRC49PCEEK9H","","null","<img src=""img/food1.png"" style=""width:200px; border:14px solid green;"">","null","","","","","","","","","",""
"","image-keyboard-response","360","138014","0.0-448.0","30IQTZXKALSJBHNM1RTPY6CMD000XY","AV9GV051TQCZK","3I7KR83SNAZT1REYB2SRC49PCEEK9H","","237.30000000447035","img/food4.png","76","237.89999999850988","3","1","2","2","1,0.5,0,1,0.5,0,0.5,0,1","0.5,0,1,0.5,0,1,0,1,0.5","2","false",""
"","html-keyboard-response","361","138316","0.0-449.0","30IQTZXKALSJBHNM1RTPY6CMD000XY","AV9GV051TQCZK","3I7KR83SNAZT1REYB2SRC49PCEEK9H","","null","<img src=""img/food4.png"" style=""width:200px; border:14px solid green;"">","null","","","","","","","","","",""
"","image-keyboard-response","362","138574","0.0-451.0","30IQTZXKALSJBHNM1RTPY6CMD000XY","AV9GV051TQCZK","3I7KR83SNAZT1REYB2SRC49PCEEK9H","","258","img/food4.png","76","258.5","3","1","2","2","1,0.5,0,1,0.5,0,0.5,0,1","0.5,0,1,0.5,0,1,0,1,0.5","2","false",""
"","html-keyboard-response","363","138875","0.0-452.0","30IQTZXKALSJBHNM1RTPY6CMD000XY","AV9GV051TQCZK","3I7KR83SNAZT1REYB2SRC49PCEEK9H","","null","<img src=""img/food4.png"" style=""width:200px; border:14px solid green;"">","null","","","","","","","","","",""
"","instructions","364","142031","0.0-454.0","30IQTZXKALSJBHNM1RTPY6CMD000XY","AV9GV051TQCZK","3I7KR83SNAZT1REYB2SRC49PCEEK9H","[{""page_index"":0,""viewing_time"":3155.3000000044703}]","3155.4000000059605","","","","","","","","","","","",""
"","survey-text","365","144976","0.0-455.0","30IQTZXKALSJBHNM1RTPY6CMD000XY","AV9GV051TQCZK","3I7KR83SNAZT1REYB2SRC49PCEEK9H","","2942.89999999851","","","","","","","","","","","","{""Q0"":""AV9GV051TQCZK""}"
