"success","trial_type","trial_index","time_elapsed","internal_node_id","assignmentID","mturkID","hitID","view_history","rt","stimulus","key_press","reactionTime","a","r","s","cond","reward_cond","reward_cond_actual","reward_matrix_idx","warning","responses"
"true","fullscreen","0","2727","0.0-0.0","3AAJC4I4FHEFIIONOHRGDW7TKBAJZV","AVHCKUAE3WDZM","3ECKRY5B1QIH1N6NFX1ECCW5ZDKIZQ","","","","","","","","","","","","","",""
"","instructions","1","33736","0.0-1.0","3AAJC4I4FHEFIIONOHRGDW7TKBAJZV","AVHCKUAE3WDZM","3ECKRY5B1QIH1N6NFX1ECCW5ZDKIZQ","[{""page_index"":0,""viewing_time"":3373.199999988079},{""page_index"":1,""viewing_time"":2319.800000011921},{""page_index"":2,""viewing_time"":2456.100000023842},{""page_index"":3,""viewing_time"":8103.899999976158},{""page_index"":4,""viewing_time"":3079.900000035763},{""page_index"":5,""viewing_time"":6728},{""page_index"":6,""viewing_time"":4944.299999952316}]","31005.400000035763","","","","","","","","","","","",""
"","image-keyboard-response","2","35512","0.0-2.0","3AAJC4I4FHEFIIONOHRGDW7TKBAJZV","AVHCKUAE3WDZM","3ECKRY5B1QIH1N6NFX1ECCW5ZDKIZQ","","1774.3999999761581","img/food3.png","74","1775.800000011921","1","1","2","1","1,0.5,0,1,0.5,0,0.5,0,1","1,0.5,0,1,0.5,0,0.5,0,1","1","",""
"","html-keyboard-response","3","35815","0.0-3.0","3AAJC4I4FHEFIIONOHRGDW7TKBAJZV","AVHCKUAE3WDZM","3ECKRY5B1QIH1N6NFX1ECCW5ZDKIZQ","","null","<img src=""img/food3.png"" style=""width:200px; border:14px solid green;"">","null","","","","","","","","","",""
"","image-keyboard-response","4","36762","0.0-4.0","3AAJC4I4FHEFIIONOHRGDW7TKBAJZV","AVHCKUAE3WDZM","3ECKRY5B1QIH1N6NFX1ECCW5ZDKIZQ","","946.7999999523163","img/food2.png","75","947.5","2","0","3","1","1,0.5,0,1,0.5,0,0.5,0,1","1,0.5,0,1,0.5,0,0.5,0,1","1","",""
"","html-keyboard-response","5","37065","0.0-5.0","3AAJC4I4FHEFIIONOHRGDW7TKBAJZV","AVHCKUAE3WDZM","3ECKRY5B1QIH1N6NFX1ECCW5ZDKIZQ","","null","<img src=""img/food2.png"" style=""width:200px;border:14px solid red;"">","null","","","","","","","","","",""
"","image-keyboard-response","6","37841","0.0-6.0","3AAJC4I4FHEFIIONOHRGDW7TKBAJZV","AVHCKUAE3WDZM","3ECKRY5B1QIH1N6NFX1ECCW5ZDKIZQ","","775.3000000119209","img/food2.png","75","776.2000000476837","2","0","3","1","1,0.5,0,1,0.5,0,0.5,0,1","1,0.5,0,1,0.5,0,0.5,0,1","1","",""
"","html-keyboard-response","7","38144","0.0-7.0","3AAJC4I4FHEFIIONOHRGDW7TKBAJZV","AVHCKUAE3WDZM","3ECKRY5B1QIH1N6NFX1ECCW5ZDKIZQ","","null","<img src=""img/food2.png"" style=""width:200px;border:14px solid red;"">","null","","","","","","","","","",""
"","image-keyboard-response","8","39300","0.0-8.0","3AAJC4I4FHEFIIONOHRGDW7TKBAJZV","AVHCKUAE3WDZM","3ECKRY5B1QIH1N6NFX1ECCW5ZDKIZQ","","1154.5","img/food2.png","76","1156","3","1","3","1","1,0.5,0,1,0.5,0,0.5,0,1","1,0.5,0,1,0.5,0,0.5,0,1","1","",""
"","html-keyboard-response","9","39607","0.0-9.0","3AAJC4I4FHEFIIONOHRGDW7TKBAJZV","AVHCKUAE3WDZM","3ECKRY5B1QIH1N6NFX1ECCW5ZDKIZQ","","null","<img src=""img/food2.png"" style=""width:200px; border:14px solid green;"">","null","","","","","","","","","",""
"","image-keyboard-response","10","40749","0.0-10.0","3AAJC4I4FHEFIIONOHRGDW7TKBAJZV","AVHCKUAE3WDZM","3ECKRY5B1QIH1N6NFX1ECCW5ZDKIZQ","","1140.5","img/food3.png","74","1141.199999988079","1","1","2","1","1,0.5,0,1,0.5,0,0.5,0,1","1,0.5,0,1,0.5,0,0.5,0,1","1","",""
"","html-keyboard-response","11","41051","0.0-11.0","3AAJC4I4FHEFIIONOHRGDW7TKBAJZV","AVHCKUAE3WDZM","3ECKRY5B1QIH1N6NFX1ECCW5ZDKIZQ","","null","<img src=""img/food3.png"" style=""width:200px; border:14px solid green;"">","null","","","","","","","","","",""
"","image-keyboard-response","12","42088","0.0-12.0","3AAJC4I4FHEFIIONOHRGDW7TKBAJZV","AVHCKUAE3WDZM","3ECKRY5B1QIH1N6NFX1ECCW5ZDKIZQ","","1034.5","img/food6.png","75","1036.8999999761581","2","0","1","1","1,0.5,0,1,0.5,0,0.5,0,1","1,0.5,0,1,0.5,0,0.5,0,1","1","",""
"","html-keyboard-response","13","42392","0.0-13.0","3AAJC4I4FHEFIIONOHRGDW7TKBAJZV","AVHCKUAE3WDZM","3ECKRY5B1QIH1N6NFX1ECCW5ZDKIZQ","","null","<img src=""img/food6.png"" style=""width:200px;border:14px solid red;"">","null","","","","","","","","","",""
"","image-keyboard-response","14","43201","0.0-14.0","3AAJC4I4FHEFIIONOHRGDW7TKBAJZV","AVHCKUAE3WDZM","3ECKRY5B1QIH1N6NFX1ECCW5ZDKIZQ","","808.3999999761581","img/food2.png","76","809.1000000238419","3","1","3","1","1,0.5,0,1,0.5,0,0.5,0,1","1,0.5,0,1,0.5,0,0.5,0,1","1","",""
"","html-keyboard-response","15","43516","0.0-15.0","3AAJC4I4FHEFIIONOHRGDW7TKBAJZV","AVHCKUAE3WDZM","3ECKRY5B1QIH1N6NFX1ECCW5ZDKIZQ","","null","<img src=""img/food2.png"" style=""width:200px; border:14px solid green;"">","null","","","","","","","","","",""
"","image-keyboard-response","16","44205","0.0-16.0","3AAJC4I4FHEFIIONOHRGDW7TKBAJZV","AVHCKUAE3WDZM","3ECKRY5B1QIH1N6NFX1ECCW5ZDKIZQ","","686.4000000357628","img/food2.png","76","688.1999999880791","3","1","3","1","1,0.5,0,1,0.5,0,0.5,0,1","1,0.5,0,1,0.5,0,0.5,0,1","1","",""
"","html-keyboard-response","17","44506","0.0-17.0","3AAJC4I4FHEFIIONOHRGDW7TKBAJZV","AVHCKUAE3WDZM","3ECKRY5B1QIH1N6NFX1ECCW5ZDKIZQ","","null","<img src=""img/food2.png"" style=""width:200px; border:14px solid green;"">","null","","","","","","","","","",""
"","image-keyboard-response","18","45417","0.0-18.0","3AAJC4I4FHEFIIONOHRGDW7TKBAJZV","AVHCKUAE3WDZM","3ECKRY5B1QIH1N6NFX1ECCW5ZDKIZQ","","909.6999999880791","img/food6.png","75","910.4000000357628","2","0","1","1","1,0.5,0,1,0.5,0,0.5,0,1","1,0.5,0,1,0.5,0,0.5,0,1","1","",""
"","html-keyboard-response","19","45720","0.0-19.0","3AAJC4I4FHEFIIONOHRGDW7TKBAJZV","AVHCKUAE3WDZM","3ECKRY5B1QIH1N6NFX1ECCW5ZDKIZQ","","null","<img src=""img/food6.png"" style=""width:200px;border:14px solid red;"">","null","","","","","","","","","",""
"","image-keyboard-response","20","47257","0.0-20.0","3AAJC4I4FHEFIIONOHRGDW7TKBAJZV","AVHCKUAE3WDZM","3ECKRY5B1QIH1N6NFX1ECCW5ZDKIZQ","","1536.2000000476837","img/food2.png","76","1537","3","1","3","1","1,0.5,0,1,0.5,0,0.5,0,1","1,0.5,0,1,0.5,0,0.5,0,1","1","",""
"","html-keyboard-response","21","47559","0.0-21.0","3AAJC4I4FHEFIIONOHRGDW7TKBAJZV","AVHCKUAE3WDZM","3ECKRY5B1QIH1N6NFX1ECCW5ZDKIZQ","","null","<img src=""img/food2.png"" style=""width:200px; border:14px solid green;"">","null","","","","","","","","","",""
"","image-keyboard-response","22","48110","0.0-22.0","3AAJC4I4FHEFIIONOHRGDW7TKBAJZV","AVHCKUAE3WDZM","3ECKRY5B1QIH1N6NFX1ECCW5ZDKIZQ","","550.5","img/food2.png","76","551.3999999761581","3","1","3","1","1,0.5,0,1,0.5,0,0.5,0,1","1,0.5,0,1,0.5,0,0.5,0,1","1","",""
"","html-keyboard-response","23","48412","0.0-23.0","3AAJC4I4FHEFIIONOHRGDW7TKBAJZV","AVHCKUAE3WDZM","3ECKRY5B1QIH1N6NFX1ECCW5ZDKIZQ","","null","<img src=""img/food2.png"" style=""width:200px; border:14px solid green;"">","null","","","","","","","","","",""
"","image-keyboard-response","24","49818","0.0-24.0","3AAJC4I4FHEFIIONOHRGDW7TKBAJZV","AVHCKUAE3WDZM","3ECKRY5B1QIH1N6NFX1ECCW5ZDKIZQ","","1404.4000000357628","img/food3.png","74","1405.1000000238419","1","1","2","1","1,0.5,0,1,0.5,0,0.5,0,1","1,0.5,0,1,0.5,0,0.5,0,1","1","",""
"","html-keyboard-response","25","50120","0.0-25.0","3AAJC4I4FHEFIIONOHRGDW7TKBAJZV","AVHCKUAE3WDZM","3ECKRY5B1QIH1N6NFX1ECCW5ZDKIZQ","","null","<img src=""img/food3.png"" style=""width:200px; border:14px solid green;"">","null","","","","","","","","","",""
"","image-keyboard-response","26","51136","0.0-26.0","3AAJC4I4FHEFIIONOHRGDW7TKBAJZV","AVHCKUAE3WDZM","3ECKRY5B1QIH1N6NFX1ECCW5ZDKIZQ","","1015.3000000119209","img/food2.png","76","1016.0999999642372","3","1","3","1","1,0.5,0,1,0.5,0,0.5,0,1","1,0.5,0,1,0.5,0,0.5,0,1","1","",""
"","html-keyboard-response","27","51437","0.0-27.0","3AAJC4I4FHEFIIONOHRGDW7TKBAJZV","AVHCKUAE3WDZM","3ECKRY5B1QIH1N6NFX1ECCW5ZDKIZQ","","null","<img src=""img/food2.png"" style=""width:200px; border:14px solid green;"">","null","","","","","","","","","",""
"","image-keyboard-response","28","52164","0.0-28.0","3AAJC4I4FHEFIIONOHRGDW7TKBAJZV","AVHCKUAE3WDZM","3ECKRY5B1QIH1N6NFX1ECCW5ZDKIZQ","","725.6999999880791","img/food6.png","76","726.5","3","0","1","1","1,0.5,0,1,0.5,0,0.5,0,1","1,0.5,0,1,0.5,0,0.5,0,1","1","",""
"","html-keyboard-response","29","52466","0.0-29.0","3AAJC4I4FHEFIIONOHRGDW7TKBAJZV","AVHCKUAE3WDZM","3ECKRY5B1QIH1N6NFX1ECCW5ZDKIZQ","","null","<img src=""img/food6.png"" style=""width:200px;border:14px solid red;"">","null","","","","","","","","","",""
"","image-keyboard-response","30","53078","0.0-30.0","3AAJC4I4FHEFIIONOHRGDW7TKBAJZV","AVHCKUAE3WDZM","3ECKRY5B1QIH1N6NFX1ECCW5ZDKIZQ","","610.1000000238419","img/food6.png","76","611.5999999642372","3","0","1","1","1,0.5,0,1,0.5,0,0.5,0,1","1,0.5,0,1,0.5,0,0.5,0,1","1","",""
"","html-keyboard-response","31","53380","0.0-31.0","3AAJC4I4FHEFIIONOHRGDW7TKBAJZV","AVHCKUAE3WDZM","3ECKRY5B1QIH1N6NFX1ECCW5ZDKIZQ","","null","<img src=""img/food6.png"" style=""width:200px;border:14px solid red;"">","null","","","","","","","","","",""
"","image-keyboard-response","32","54325","0.0-32.0","3AAJC4I4FHEFIIONOHRGDW7TKBAJZV","AVHCKUAE3WDZM","3ECKRY5B1QIH1N6NFX1ECCW5ZDKIZQ","","942.8999999761581","img/food3.png","76","944.8999999761581","3","0","2","1","1,0.5,0,1,0.5,0,0.5,0,1","1,0.5,0,1,0.5,0,0.5,0,1","1","",""
"","html-keyboard-response","33","54628","0.0-33.0","3AAJC4I4FHEFIIONOHRGDW7TKBAJZV","AVHCKUAE3WDZM","3ECKRY5B1QIH1N6NFX1ECCW5ZDKIZQ","","null","<img src=""img/food3.png"" style=""width:200px;border:14px solid red;"">","null","","","","","","","","","",""
"","image-keyboard-response","34","55456","0.0-34.0","3AAJC4I4FHEFIIONOHRGDW7TKBAJZV","AVHCKUAE3WDZM","3ECKRY5B1QIH1N6NFX1ECCW5ZDKIZQ","","825.6999999880791","img/food6.png","74","827","1","1","1","1","1,0.5,0,1,0.5,0,0.5,0,1","1,0.5,0,1,0.5,0,0.5,0,1","1","",""
"","html-keyboard-response","35","55765","0.0-35.0","3AAJC4I4FHEFIIONOHRGDW7TKBAJZV","AVHCKUAE3WDZM","3ECKRY5B1QIH1N6NFX1ECCW5ZDKIZQ","","null","<img src=""img/food6.png"" style=""width:200px; border:14px solid green;"">","null","","","","","","","","","",""
"","image-keyboard-response","36","56360","0.0-36.0","3AAJC4I4FHEFIIONOHRGDW7TKBAJZV","AVHCKUAE3WDZM","3ECKRY5B1QIH1N6NFX1ECCW5ZDKIZQ","","593.5","img/food6.png","74","594.8000000119209","1","1","1","1","1,0.5,0,1,0.5,0,0.5,0,1","1,0.5,0,1,0.5,0,0.5,0,1","1","",""
"","html-keyboard-response","37","56670","0.0-37.0","3AAJC4I4FHEFIIONOHRGDW7TKBAJZV","AVHCKUAE3WDZM","3ECKRY5B1QIH1N6NFX1ECCW5ZDKIZQ","","null","<img src=""img/food6.png"" style=""width:200px; border:14px solid green;"">","null","","","","","","","","","",""
"","image-keyboard-response","38","57375","0.0-38.0","3AAJC4I4FHEFIIONOHRGDW7TKBAJZV","AVHCKUAE3WDZM","3ECKRY5B1QIH1N6NFX1ECCW5ZDKIZQ","","705","img/food3.png","74","705.6999999880791","1","1","2","1","1,0.5,0,1,0.5,0,0.5,0,1","1,0.5,0,1,0.5,0,0.5,0,1","1","",""
"","html-keyboard-response","39","57678","0.0-39.0","3AAJC4I4FHEFIIONOHRGDW7TKBAJZV","AVHCKUAE3WDZM","3ECKRY5B1QIH1N6NFX1ECCW5ZDKIZQ","","null","<img src=""img/food3.png"" style=""width:200px; border:14px solid green;"">","null","","","","","","","","","",""
"","image-keyboard-response","40","58268","0.0-40.0","3AAJC4I4FHEFIIONOHRGDW7TKBAJZV","AVHCKUAE3WDZM","3ECKRY5B1QIH1N6NFX1ECCW5ZDKIZQ","","588.1999999880791","img/food2.png","76","589.1000000238419","3","1","3","1","1,0.5,0,1,0.5,0,0.5,0,1","1,0.5,0,1,0.5,0,0.5,0,1","1","",""
"","html-keyboard-response","41","58570","0.0-41.0","3AAJC4I4FHEFIIONOHRGDW7TKBAJZV","AVHCKUAE3WDZM","3ECKRY5B1QIH1N6NFX1ECCW5ZDKIZQ","","null","<img src=""img/food2.png"" style=""width:200px; border:14px solid green;"">","null","","","","","","","","","",""
"","image-keyboard-response","42","59354","0.0-42.0","3AAJC4I4FHEFIIONOHRGDW7TKBAJZV","AVHCKUAE3WDZM","3ECKRY5B1QIH1N6NFX1ECCW5ZDKIZQ","","783.1000000238419","img/food3.png","74","783.9000000357628","1","1","2","1","1,0.5,0,1,0.5,0,0.5,0,1","1,0.5,0,1,0.5,0,0.5,0,1","1","",""
"","html-keyboard-response","43","59655","0.0-43.0","3AAJC4I4FHEFIIONOHRGDW7TKBAJZV","AVHCKUAE3WDZM","3ECKRY5B1QIH1N6NFX1ECCW5ZDKIZQ","","null","<img src=""img/food3.png"" style=""width:200px; border:14px solid green;"">","null","","","","","","","","","",""
"","image-keyboard-response","44","60175","0.0-44.0","3AAJC4I4FHEFIIONOHRGDW7TKBAJZV","AVHCKUAE3WDZM","3ECKRY5B1QIH1N6NFX1ECCW5ZDKIZQ","","518.4000000357628","img/food3.png","74","519.3000000119209","1","1","2","1","1,0.5,0,1,0.5,0,0.5,0,1","1,0.5,0,1,0.5,0,0.5,0,1","1","",""
"","html-keyboard-response","45","60477","0.0-45.0","3AAJC4I4FHEFIIONOHRGDW7TKBAJZV","AVHCKUAE3WDZM","3ECKRY5B1QIH1N6NFX1ECCW5ZDKIZQ","","null","<img src=""img/food3.png"" style=""width:200px; border:14px solid green;"">","null","","","","","","","","","",""
"","image-keyboard-response","46","61150","0.0-46.0","3AAJC4I4FHEFIIONOHRGDW7TKBAJZV","AVHCKUAE3WDZM","3ECKRY5B1QIH1N6NFX1ECCW5ZDKIZQ","","672.5999999642372","img/food6.png","74","673.3999999761581","1","1","1","1","1,0.5,0,1,0.5,0,0.5,0,1","1,0.5,0,1,0.5,0,0.5,0,1","1","",""
"","html-keyboard-response","47","61452","0.0-47.0","3AAJC4I4FHEFIIONOHRGDW7TKBAJZV","AVHCKUAE3WDZM","3ECKRY5B1QIH1N6NFX1ECCW5ZDKIZQ","","null","<img src=""img/food6.png"" style=""width:200px; border:14px solid green;"">","null","","","","","","","","","",""
"","image-keyboard-response","48","61807","0.0-48.0","3AAJC4I4FHEFIIONOHRGDW7TKBAJZV","AVHCKUAE3WDZM","3ECKRY5B1QIH1N6NFX1ECCW5ZDKIZQ","","353.30000001192093","img/food6.png","74","354.10000002384186","1","1","1","1","1,0.5,0,1,0.5,0,0.5,0,1","1,0.5,0,1,0.5,0,0.5,0,1","1","",""
"","html-keyboard-response","49","62108","0.0-49.0","3AAJC4I4FHEFIIONOHRGDW7TKBAJZV","AVHCKUAE3WDZM","3ECKRY5B1QIH1N6NFX1ECCW5ZDKIZQ","","null","<img src=""img/food6.png"" style=""width:200px; border:14px solid green;"">","null","","","","","","","","","",""
"","image-keyboard-response","50","62637","0.0-50.0","3AAJC4I4FHEFIIONOHRGDW7TKBAJZV","AVHCKUAE3WDZM","3ECKRY5B1QIH1N6NFX1ECCW5ZDKIZQ","","527.5","img/food2.png","76","528.3999999761581","3","1","3","1","1,0.5,0,1,0.5,0,0.5,0,1","1,0.5,0,1,0.5,0,0.5,0,1","1","",""
"","html-keyboard-response","51","62940","0.0-51.0","3AAJC4I4FHEFIIONOHRGDW7TKBAJZV","AVHCKUAE3WDZM","3ECKRY5B1QIH1N6NFX1ECCW5ZDKIZQ","","null","<img src=""img/food2.png"" style=""width:200px; border:14px solid green;"">","null","","","","","","","","","",""
"","image-keyboard-response","52","63435","0.0-52.0","3AAJC4I4FHEFIIONOHRGDW7TKBAJZV","AVHCKUAE3WDZM","3ECKRY5B1QIH1N6NFX1ECCW5ZDKIZQ","","492.30000001192093","img/food3.png","74","494.5","1","1","2","1","1,0.5,0,1,0.5,0,0.5,0,1","1,0.5,0,1,0.5,0,0.5,0,1","1","",""
"","html-keyboard-response","53","63738","0.0-53.0","3AAJC4I4FHEFIIONOHRGDW7TKBAJZV","AVHCKUAE3WDZM","3ECKRY5B1QIH1N6NFX1ECCW5ZDKIZQ","","null","<img src=""img/food3.png"" style=""width:200px; border:14px solid green;"">","null","","","","","","","","","",""
"","image-keyboard-response","54","64085","0.0-54.0","3AAJC4I4FHEFIIONOHRGDW7TKBAJZV","AVHCKUAE3WDZM","3ECKRY5B1QIH1N6NFX1ECCW5ZDKIZQ","","346.10000002384186","img/food3.png","74","347.10000002384186","1","1","2","1","1,0.5,0,1,0.5,0,0.5,0,1","1,0.5,0,1,0.5,0,0.5,0,1","1","",""
"","html-keyboard-response","55","64388","0.0-55.0","3AAJC4I4FHEFIIONOHRGDW7TKBAJZV","AVHCKUAE3WDZM","3ECKRY5B1QIH1N6NFX1ECCW5ZDKIZQ","","null","<img src=""img/food3.png"" style=""width:200px; border:14px solid green;"">","null","","","","","","","","","",""
"","image-keyboard-response","56","64791","0.0-56.0","3AAJC4I4FHEFIIONOHRGDW7TKBAJZV","AVHCKUAE3WDZM","3ECKRY5B1QIH1N6NFX1ECCW5ZDKIZQ","","401.89999997615814","img/food2.png","76","402.80000001192093","3","1","3","1","1,0.5,0,1,0.5,0,0.5,0,1","1,0.5,0,1,0.5,0,0.5,0,1","1","",""
"","html-keyboard-response","57","65094","0.0-57.0","3AAJC4I4FHEFIIONOHRGDW7TKBAJZV","AVHCKUAE3WDZM","3ECKRY5B1QIH1N6NFX1ECCW5ZDKIZQ","","null","<img src=""img/food2.png"" style=""width:200px; border:14px solid green;"">","null","","","","","","","","","",""
"","image-keyboard-response","58","65509","0.0-58.0","3AAJC4I4FHEFIIONOHRGDW7TKBAJZV","AVHCKUAE3WDZM","3ECKRY5B1QIH1N6NFX1ECCW5ZDKIZQ","","412.5999999642372","img/food2.png","76","414.5","3","1","3","1","1,0.5,0,1,0.5,0,0.5,0,1","1,0.5,0,1,0.5,0,0.5,0,1","1","",""
"","html-keyboard-response","59","65812","0.0-59.0","3AAJC4I4FHEFIIONOHRGDW7TKBAJZV","AVHCKUAE3WDZM","3ECKRY5B1QIH1N6NFX1ECCW5ZDKIZQ","","null","<img src=""img/food2.png"" style=""width:200px; border:14px solid green;"">","null","","","","","","","","","",""
"","image-keyboard-response","60","66256","0.0-60.0","3AAJC4I4FHEFIIONOHRGDW7TKBAJZV","AVHCKUAE3WDZM","3ECKRY5B1QIH1N6NFX1ECCW5ZDKIZQ","","442.0999999642372","img/food6.png","74","443.5","1","1","1","1","1,0.5,0,1,0.5,0,0.5,0,1","1,0.5,0,1,0.5,0,0.5,0,1","1","",""
"","html-keyboard-response","61","66558","0.0-61.0","3AAJC4I4FHEFIIONOHRGDW7TKBAJZV","AVHCKUAE3WDZM","3ECKRY5B1QIH1N6NFX1ECCW5ZDKIZQ","","null","<img src=""img/food6.png"" style=""width:200px; border:14px solid green;"">","null","","","","","","","","","",""
"","image-keyboard-response","62","66819","0.0-62.0","3AAJC4I4FHEFIIONOHRGDW7TKBAJZV","AVHCKUAE3WDZM","3ECKRY5B1QIH1N6NFX1ECCW5ZDKIZQ","","260.60000002384186","img/food6.png","74","261.4000000357628","1","1","1","1","1,0.5,0,1,0.5,0,0.5,0,1","1,0.5,0,1,0.5,0,0.5,0,1","1","",""
"","html-keyboard-response","63","67122","0.0-63.0","3AAJC4I4FHEFIIONOHRGDW7TKBAJZV","AVHCKUAE3WDZM","3ECKRY5B1QIH1N6NFX1ECCW5ZDKIZQ","","null","<img src=""img/food6.png"" style=""width:200px; border:14px solid green;"">","null","","","","","","","","","",""
"","image-keyboard-response","64","67458","0.0-64.0","3AAJC4I4FHEFIIONOHRGDW7TKBAJZV","AVHCKUAE3WDZM","3ECKRY5B1QIH1N6NFX1ECCW5ZDKIZQ","","333.89999997615814","img/food6.png","74","334.80000001192093","1","1","1","1","1,0.5,0,1,0.5,0,0.5,0,1","1,0.5,0,1,0.5,0,0.5,0,1","1","",""
"","html-keyboard-response","65","67759","0.0-65.0","3AAJC4I4FHEFIIONOHRGDW7TKBAJZV","AVHCKUAE3WDZM","3ECKRY5B1QIH1N6NFX1ECCW5ZDKIZQ","","null","<img src=""img/food6.png"" style=""width:200px; border:14px solid green;"">","null","","","","","","","","","",""
"","image-keyboard-response","66","68058","0.0-66.0","3AAJC4I4FHEFIIONOHRGDW7TKBAJZV","AVHCKUAE3WDZM","3ECKRY5B1QIH1N6NFX1ECCW5ZDKIZQ","","298.10000002384186","img/food6.png","74","299.39999997615814","1","1","1","1","1,0.5,0,1,0.5,0,0.5,0,1","1,0.5,0,1,0.5,0,0.5,0,1","1","",""
"","html-keyboard-response","67","68361","0.0-67.0","3AAJC4I4FHEFIIONOHRGDW7TKBAJZV","AVHCKUAE3WDZM","3ECKRY5B1QIH1N6NFX1ECCW5ZDKIZQ","","null","<img src=""img/food6.png"" style=""width:200px; border:14px solid green;"">","null","","","","","","","","","",""
"","image-keyboard-response","68","68678","0.0-68.0","3AAJC4I4FHEFIIONOHRGDW7TKBAJZV","AVHCKUAE3WDZM","3ECKRY5B1QIH1N6NFX1ECCW5ZDKIZQ","","315.5999999642372","img/food6.png","74","316.30000001192093","1","1","1","1","1,0.5,0,1,0.5,0,0.5,0,1","1,0.5,0,1,0.5,0,0.5,0,1","1","",""
"","html-keyboard-response","69","68980","0.0-69.0","3AAJC4I4FHEFIIONOHRGDW7TKBAJZV","AVHCKUAE3WDZM","3ECKRY5B1QIH1N6NFX1ECCW5ZDKIZQ","","null","<img src=""img/food6.png"" style=""width:200px; border:14px solid green;"">","null","","","","","","","","","",""
"","image-keyboard-response","70","69260","0.0-70.0","3AAJC4I4FHEFIIONOHRGDW7TKBAJZV","AVHCKUAE3WDZM","3ECKRY5B1QIH1N6NFX1ECCW5ZDKIZQ","","277.39999997615814","img/food6.png","74","279.19999998807907","1","1","1","1","1,0.5,0,1,0.5,0,0.5,0,1","1,0.5,0,1,0.5,0,0.5,0,1","1","",""
"","html-keyboard-response","71","69563","0.0-71.0","3AAJC4I4FHEFIIONOHRGDW7TKBAJZV","AVHCKUAE3WDZM","3ECKRY5B1QIH1N6NFX1ECCW5ZDKIZQ","","null","<img src=""img/food6.png"" style=""width:200px; border:14px solid green;"">","null","","","","","","","","","",""
"","image-keyboard-response","72","70027","0.0-72.0","3AAJC4I4FHEFIIONOHRGDW7TKBAJZV","AVHCKUAE3WDZM","3ECKRY5B1QIH1N6NFX1ECCW5ZDKIZQ","","462.5999999642372","img/food2.png","76","463.30000001192093","3","1","3","1","1,0.5,0,1,0.5,0,0.5,0,1","1,0.5,0,1,0.5,0,0.5,0,1","1","",""
"","html-keyboard-response","73","70330","0.0-73.0","3AAJC4I4FHEFIIONOHRGDW7TKBAJZV","AVHCKUAE3WDZM","3ECKRY5B1QIH1N6NFX1ECCW5ZDKIZQ","","null","<img src=""img/food2.png"" style=""width:200px; border:14px solid green;"">","null","","","","","","","","","",""
"","image-keyboard-response","74","70682","0.0-74.0","3AAJC4I4FHEFIIONOHRGDW7TKBAJZV","AVHCKUAE3WDZM","3ECKRY5B1QIH1N6NFX1ECCW5ZDKIZQ","","350.89999997615814","img/food3.png","74","351.80000001192093","1","1","2","1","1,0.5,0,1,0.5,0,0.5,0,1","1,0.5,0,1,0.5,0,0.5,0,1","1","",""
"","html-keyboard-response","75","70984","0.0-75.0","3AAJC4I4FHEFIIONOHRGDW7TKBAJZV","AVHCKUAE3WDZM","3ECKRY5B1QIH1N6NFX1ECCW5ZDKIZQ","","null","<img src=""img/food3.png"" style=""width:200px; border:14px solid green;"">","null","","","","","","","","","",""
"","image-keyboard-response","76","71133","0.0-76.0","3AAJC4I4FHEFIIONOHRGDW7TKBAJZV","AVHCKUAE3WDZM","3ECKRY5B1QIH1N6NFX1ECCW5ZDKIZQ","","148.10000002384186","img/food3.png","74","148.89999997615814","1","1","2","1","1,0.5,0,1,0.5,0,0.5,0,1","1,0.5,0,1,0.5,0,0.5,0,1","1","",""
"","html-keyboard-response","77","71435","0.0-77.0","3AAJC4I4FHEFIIONOHRGDW7TKBAJZV","AVHCKUAE3WDZM","3ECKRY5B1QIH1N6NFX1ECCW5ZDKIZQ","","null","<img src=""img/food3.png"" style=""width:200px; border:14px solid green;"">","null","","","","","","","","","",""
"","image-keyboard-response","78","71609","0.0-78.0","3AAJC4I4FHEFIIONOHRGDW7TKBAJZV","AVHCKUAE3WDZM","3ECKRY5B1QIH1N6NFX1ECCW5ZDKIZQ","","171.19999998807907","img/food2.png","74","172.80000001192093","1","1","3","1","1,0.5,0,1,0.5,0,0.5,0,1","1,0.5,0,1,0.5,0,0.5,0,1","1","",""
"","html-keyboard-response","79","71911","0.0-79.0","3AAJC4I4FHEFIIONOHRGDW7TKBAJZV","AVHCKUAE3WDZM","3ECKRY5B1QIH1N6NFX1ECCW5ZDKIZQ","","null","<img src=""img/food2.png"" style=""width:200px; border:14px solid green;"">","null","","","","","","","","","",""
"","image-keyboard-response","80","72370","0.0-80.0","3AAJC4I4FHEFIIONOHRGDW7TKBAJZV","AVHCKUAE3WDZM","3ECKRY5B1QIH1N6NFX1ECCW5ZDKIZQ","","458.19999998807907","img/food2.png","76","458.7999999523163","3","1","3","1","1,0.5,0,1,0.5,0,0.5,0,1","1,0.5,0,1,0.5,0,0.5,0,1","1","",""
"","html-keyboard-response","81","72672","0.0-81.0","3AAJC4I4FHEFIIONOHRGDW7TKBAJZV","AVHCKUAE3WDZM","3ECKRY5B1QIH1N6NFX1ECCW5ZDKIZQ","","null","<img src=""img/food2.png"" style=""width:200px; border:14px solid green;"">","null","","","","","","","","","",""
"","image-keyboard-response","82","73306","0.0-82.0","3AAJC4I4FHEFIIONOHRGDW7TKBAJZV","AVHCKUAE3WDZM","3ECKRY5B1QIH1N6NFX1ECCW5ZDKIZQ","","633.6000000238419","img/food2.png","76","634.1999999880791","3","1","3","1","1,0.5,0,1,0.5,0,0.5,0,1","1,0.5,0,1,0.5,0,0.5,0,1","1","",""
"","html-keyboard-response","83","73608","0.0-83.0","3AAJC4I4FHEFIIONOHRGDW7TKBAJZV","AVHCKUAE3WDZM","3ECKRY5B1QIH1N6NFX1ECCW5ZDKIZQ","","null","<img src=""img/food2.png"" style=""width:200px; border:14px solid green;"">","null","","","","","","","","","",""
"","image-keyboard-response","84","73935","0.0-84.0","3AAJC4I4FHEFIIONOHRGDW7TKBAJZV","AVHCKUAE3WDZM","3ECKRY5B1QIH1N6NFX1ECCW5ZDKIZQ","","326.80000001192093","img/food2.png","76","327.5","3","1","3","1","1,0.5,0,1,0.5,0,0.5,0,1","1,0.5,0,1,0.5,0,0.5,0,1","1","",""
"","html-keyboard-response","85","74238","0.0-85.0","3AAJC4I4FHEFIIONOHRGDW7TKBAJZV","AVHCKUAE3WDZM","3ECKRY5B1QIH1N6NFX1ECCW5ZDKIZQ","","null","<img src=""img/food2.png"" style=""width:200px; border:14px solid green;"">","null","","","","","","","","","",""
"","image-keyboard-response","86","74675","0.0-86.0","3AAJC4I4FHEFIIONOHRGDW7TKBAJZV","AVHCKUAE3WDZM","3ECKRY5B1QIH1N6NFX1ECCW5ZDKIZQ","","435.9000000357628","img/food3.png","74","437.0999999642372","1","1","2","1","1,0.5,0,1,0.5,0,0.5,0,1","1,0.5,0,1,0.5,0,0.5,0,1","1","",""
"","html-keyboard-response","87","74977","0.0-87.0","3AAJC4I4FHEFIIONOHRGDW7TKBAJZV","AVHCKUAE3WDZM","3ECKRY5B1QIH1N6NFX1ECCW5ZDKIZQ","","null","<img src=""img/food3.png"" style=""width:200px; border:14px solid green;"">","null","","","","","","","","","",""
"","image-keyboard-response","88","75126","0.0-88.0","3AAJC4I4FHEFIIONOHRGDW7TKBAJZV","AVHCKUAE3WDZM","3ECKRY5B1QIH1N6NFX1ECCW5ZDKIZQ","","147.80000001192093","img/food6.png","74","148.80000001192093","1","1","1","1","1,0.5,0,1,0.5,0,0.5,0,1","1,0.5,0,1,0.5,0,0.5,0,1","1","",""
"","html-keyboard-response","89","75428","0.0-89.0","3AAJC4I4FHEFIIONOHRGDW7TKBAJZV","AVHCKUAE3WDZM","3ECKRY5B1QIH1N6NFX1ECCW5ZDKIZQ","","null","<img src=""img/food6.png"" style=""width:200px; border:14px solid green;"">","null","","","","","","","","","",""
"","image-keyboard-response","90","75815","0.0-90.0","3AAJC4I4FHEFIIONOHRGDW7TKBAJZV","AVHCKUAE3WDZM","3ECKRY5B1QIH1N6NFX1ECCW5ZDKIZQ","","385.89999997615814","img/food6.png","74","386.60000002384186","1","1","1","1","1,0.5,0,1,0.5,0,0.5,0,1","1,0.5,0,1,0.5,0,0.5,0,1","1","",""
"","html-keyboard-response","91","76117","0.0-91.0","3AAJC4I4FHEFIIONOHRGDW7TKBAJZV","AVHCKUAE3WDZM","3ECKRY5B1QIH1N6NFX1ECCW5ZDKIZQ","","null","<img src=""img/food6.png"" style=""width:200px; border:14px solid green;"">","null","","","","","","","","","",""
"","image-keyboard-response","92","76819","0.0-92.0","3AAJC4I4FHEFIIONOHRGDW7TKBAJZV","AVHCKUAE3WDZM","3ECKRY5B1QIH1N6NFX1ECCW5ZDKIZQ","","700.3999999761581","img/food3.png","74","701.3999999761581","1","1","2","1","1,0.5,0,1,0.5,0,0.5,0,1","1,0.5,0,1,0.5,0,0.5,0,1","1","",""
"","html-keyboard-response","93","77121","0.0-93.0","3AAJC4I4FHEFIIONOHRGDW7TKBAJZV","AVHCKUAE3WDZM","3ECKRY5B1QIH1N6NFX1ECCW5ZDKIZQ","","null","<img src=""img/food3.png"" style=""width:200px; border:14px solid green;"">","null","","","","","","","","","",""
"","image-keyboard-response","94","77632","0.0-94.0","3AAJC4I4FHEFIIONOHRGDW7TKBAJZV","AVHCKUAE3WDZM","3ECKRY5B1QIH1N6NFX1ECCW5ZDKIZQ","","509.89999997615814","img/food2.png","74","511.19999998807907","1","1","3","1","1,0.5,0,1,0.5,0,0.5,0,1","1,0.5,0,1,0.5,0,0.5,0,1","1","",""
"","html-keyboard-response","95","77936","0.0-95.0","3AAJC4I4FHEFIIONOHRGDW7TKBAJZV","AVHCKUAE3WDZM","3ECKRY5B1QIH1N6NFX1ECCW5ZDKIZQ","","null","<img src=""img/food2.png"" style=""width:200px; border:14px solid green;"">","null","","","","","","","","","",""
"","image-keyboard-response","96","78437","0.0-96.0","3AAJC4I4FHEFIIONOHRGDW7TKBAJZV","AVHCKUAE3WDZM","3ECKRY5B1QIH1N6NFX1ECCW5ZDKIZQ","","499.7999999523163","img/food6.png","74","500.5999999642372","1","1","1","1","1,0.5,0,1,0.5,0,0.5,0,1","1,0.5,0,1,0.5,0,0.5,0,1","1","",""
"","html-keyboard-response","97","78739","0.0-97.0","3AAJC4I4FHEFIIONOHRGDW7TKBAJZV","AVHCKUAE3WDZM","3ECKRY5B1QIH1N6NFX1ECCW5ZDKIZQ","","null","<img src=""img/food6.png"" style=""width:200px; border:14px solid green;"">","null","","","","","","","","","",""
"","image-keyboard-response","98","79339","0.0-98.0","3AAJC4I4FHEFIIONOHRGDW7TKBAJZV","AVHCKUAE3WDZM","3ECKRY5B1QIH1N6NFX1ECCW5ZDKIZQ","","598.4000000357628","img/food3.png","74","599.3000000119209","1","1","2","1","1,0.5,0,1,0.5,0,0.5,0,1","1,0.5,0,1,0.5,0,0.5,0,1","1","",""
"","html-keyboard-response","99","79642","0.0-99.0","3AAJC4I4FHEFIIONOHRGDW7TKBAJZV","AVHCKUAE3WDZM","3ECKRY5B1QIH1N6NFX1ECCW5ZDKIZQ","","null","<img src=""img/food3.png"" style=""width:200px; border:14px solid green;"">","null","","","","","","","","","",""
"","image-keyboard-response","100","80015","0.0-100.0","3AAJC4I4FHEFIIONOHRGDW7TKBAJZV","AVHCKUAE3WDZM","3ECKRY5B1QIH1N6NFX1ECCW5ZDKIZQ","","370.19999998807907","img/food3.png","74","372","1","1","2","1","1,0.5,0,1,0.5,0,0.5,0,1","1,0.5,0,1,0.5,0,0.5,0,1","1","",""
"","html-keyboard-response","101","80317","0.0-101.0","3AAJC4I4FHEFIIONOHRGDW7TKBAJZV","AVHCKUAE3WDZM","3ECKRY5B1QIH1N6NFX1ECCW5ZDKIZQ","","null","<img src=""img/food3.png"" style=""width:200px; border:14px solid green;"">","null","","","","","","","","","",""
"","image-keyboard-response","102","80599","0.0-102.0","3AAJC4I4FHEFIIONOHRGDW7TKBAJZV","AVHCKUAE3WDZM","3ECKRY5B1QIH1N6NFX1ECCW5ZDKIZQ","","281.10000002384186","img/food2.png","74","281.69999998807907","1","0","3","1","1,0.5,0,1,0.5,0,0.5,0,1","1,0.5,0,1,0.5,0,0.5,0,1","1","",""
"","html-keyboard-response","103","80911","0.0-103.0","3AAJC4I4FHEFIIONOHRGDW7TKBAJZV","AVHCKUAE3WDZM","3ECKRY5B1QIH1N6NFX1ECCW5ZDKIZQ","","null","<img src=""img/food2.png"" style=""width:200px;border:14px solid red;"">","null","","","","","","","","","",""
"","image-keyboard-response","104","81716","0.0-104.0","3AAJC4I4FHEFIIONOHRGDW7TKBAJZV","AVHCKUAE3WDZM","3ECKRY5B1QIH1N6NFX1ECCW5ZDKIZQ","","804","img/food2.png","76","804.9000000357628","3","1","3","1","1,0.5,0,1,0.5,0,0.5,0,1","1,0.5,0,1,0.5,0,0.5,0,1","1","",""
"","html-keyboard-response","105","82019","0.0-105.0","3AAJC4I4FHEFIIONOHRGDW7TKBAJZV","AVHCKUAE3WDZM","3ECKRY5B1QIH1N6NFX1ECCW5ZDKIZQ","","null","<img src=""img/food2.png"" style=""width:200px; border:14px solid green;"">","null","","","","","","","","","",""
"","image-keyboard-response","106","82530","0.0-106.0","3AAJC4I4FHEFIIONOHRGDW7TKBAJZV","AVHCKUAE3WDZM","3ECKRY5B1QIH1N6NFX1ECCW5ZDKIZQ","","508.9000000357628","img/food3.png","74","510.9000000357628","1","1","2","1","1,0.5,0,1,0.5,0,0.5,0,1","1,0.5,0,1,0.5,0,0.5,0,1","1","",""
"","html-keyboard-response","107","82832","0.0-107.0","3AAJC4I4FHEFIIONOHRGDW7TKBAJZV","AVHCKUAE3WDZM","3ECKRY5B1QIH1N6NFX1ECCW5ZDKIZQ","","null","<img src=""img/food3.png"" style=""width:200px; border:14px solid green;"">","null","","","","","","","","","",""
"","image-keyboard-response","108","83136","0.0-108.0","3AAJC4I4FHEFIIONOHRGDW7TKBAJZV","AVHCKUAE3WDZM","3ECKRY5B1QIH1N6NFX1ECCW5ZDKIZQ","","302.5","img/food3.png","74","303.5999999642372","1","1","2","1","1,0.5,0,1,0.5,0,0.5,0,1","1,0.5,0,1,0.5,0,0.5,0,1","1","",""
"","html-keyboard-response","109","83438","0.0-109.0","3AAJC4I4FHEFIIONOHRGDW7TKBAJZV","AVHCKUAE3WDZM","3ECKRY5B1QIH1N6NFX1ECCW5ZDKIZQ","","null","<img src=""img/food3.png"" style=""width:200px; border:14px solid green;"">","null","","","","","","","","","",""
"","image-keyboard-response","110","83793","0.0-110.0","3AAJC4I4FHEFIIONOHRGDW7TKBAJZV","AVHCKUAE3WDZM","3ECKRY5B1QIH1N6NFX1ECCW5ZDKIZQ","","352.9000000357628","img/food3.png","74","354.2000000476837","1","1","2","1","1,0.5,0,1,0.5,0,0.5,0,1","1,0.5,0,1,0.5,0,0.5,0,1","1","",""
"","html-keyboard-response","111","84096","0.0-111.0","3AAJC4I4FHEFIIONOHRGDW7TKBAJZV","AVHCKUAE3WDZM","3ECKRY5B1QIH1N6NFX1ECCW5ZDKIZQ","","null","<img src=""img/food3.png"" style=""width:200px; border:14px solid green;"">","null","","","","","","","","","",""
"","image-keyboard-response","112","84668","0.0-112.0","3AAJC4I4FHEFIIONOHRGDW7TKBAJZV","AVHCKUAE3WDZM","3ECKRY5B1QIH1N6NFX1ECCW5ZDKIZQ","","571.1000000238419","img/food2.png","76","572.5","3","1","3","1","1,0.5,0,1,0.5,0,0.5,0,1","1,0.5,0,1,0.5,0,0.5,0,1","1","",""
"","html-keyboard-response","113","84971","0.0-113.0","3AAJC4I4FHEFIIONOHRGDW7TKBAJZV","AVHCKUAE3WDZM","3ECKRY5B1QIH1N6NFX1ECCW5ZDKIZQ","","null","<img src=""img/food2.png"" style=""width:200px; border:14px solid green;"">","null","","","","","","","","","",""
"","image-keyboard-response","114","85403","0.0-114.0","3AAJC4I4FHEFIIONOHRGDW7TKBAJZV","AVHCKUAE3WDZM","3ECKRY5B1QIH1N6NFX1ECCW5ZDKIZQ","","430.5999999642372","img/food2.png","76","431.89999997615814","3","1","3","1","1,0.5,0,1,0.5,0,0.5,0,1","1,0.5,0,1,0.5,0,0.5,0,1","1","",""
"","html-keyboard-response","115","85707","0.0-115.0","3AAJC4I4FHEFIIONOHRGDW7TKBAJZV","AVHCKUAE3WDZM","3ECKRY5B1QIH1N6NFX1ECCW5ZDKIZQ","","null","<img src=""img/food2.png"" style=""width:200px; border:14px solid green;"">","null","","","","","","","","","",""
"","image-keyboard-response","116","86192","0.0-116.0","3AAJC4I4FHEFIIONOHRGDW7TKBAJZV","AVHCKUAE3WDZM","3ECKRY5B1QIH1N6NFX1ECCW5ZDKIZQ","","483.30000001192093","img/food3.png","74","484.5","1","1","2","1","1,0.5,0,1,0.5,0,0.5,0,1","1,0.5,0,1,0.5,0,0.5,0,1","1","",""
"","html-keyboard-response","117","86494","0.0-117.0","3AAJC4I4FHEFIIONOHRGDW7TKBAJZV","AVHCKUAE3WDZM","3ECKRY5B1QIH1N6NFX1ECCW5ZDKIZQ","","null","<img src=""img/food3.png"" style=""width:200px; border:14px solid green;"">","null","","","","","","","","","",""
"","image-keyboard-response","118","86783","0.0-118.0","3AAJC4I4FHEFIIONOHRGDW7TKBAJZV","AVHCKUAE3WDZM","3ECKRY5B1QIH1N6NFX1ECCW5ZDKIZQ","","287.19999998807907","img/food6.png","74","288.7000000476837","1","1","1","1","1,0.5,0,1,0.5,0,0.5,0,1","1,0.5,0,1,0.5,0,0.5,0,1","1","",""
"","html-keyboard-response","119","87085","0.0-119.0","3AAJC4I4FHEFIIONOHRGDW7TKBAJZV","AVHCKUAE3WDZM","3ECKRY5B1QIH1N6NFX1ECCW5ZDKIZQ","","null","<img src=""img/food6.png"" style=""width:200px; border:14px solid green;"">","null","","","","","","","","","",""
"","image-keyboard-response","120","87535","0.0-120.0","3AAJC4I4FHEFIIONOHRGDW7TKBAJZV","AVHCKUAE3WDZM","3ECKRY5B1QIH1N6NFX1ECCW5ZDKIZQ","","448.80000001192093","img/food6.png","74","450.19999998807907","1","1","1","1","1,0.5,0,1,0.5,0,0.5,0,1","1,0.5,0,1,0.5,0,0.5,0,1","1","",""
"","html-keyboard-response","121","87838","0.0-121.0","3AAJC4I4FHEFIIONOHRGDW7TKBAJZV","AVHCKUAE3WDZM","3ECKRY5B1QIH1N6NFX1ECCW5ZDKIZQ","","null","<img src=""img/food6.png"" style=""width:200px; border:14px solid green;"">","null","","","","","","","","","",""
"","image-keyboard-response","122","88420","0.0-122.0","3AAJC4I4FHEFIIONOHRGDW7TKBAJZV","AVHCKUAE3WDZM","3ECKRY5B1QIH1N6NFX1ECCW5ZDKIZQ","","578.6999999880791","img/food3.png","74","581","1","1","2","1","1,0.5,0,1,0.5,0,0.5,0,1","1,0.5,0,1,0.5,0,0.5,0,1","1","",""
"","html-keyboard-response","123","88723","0.0-123.0","3AAJC4I4FHEFIIONOHRGDW7TKBAJZV","AVHCKUAE3WDZM","3ECKRY5B1QIH1N6NFX1ECCW5ZDKIZQ","","null","<img src=""img/food3.png"" style=""width:200px; border:14px solid green;"">","null","","","","","","","","","",""
"","image-keyboard-response","124","89077","0.0-124.0","3AAJC4I4FHEFIIONOHRGDW7TKBAJZV","AVHCKUAE3WDZM","3ECKRY5B1QIH1N6NFX1ECCW5ZDKIZQ","","352.2000000476837","img/food3.png","74","353.0999999642372","1","1","2","1","1,0.5,0,1,0.5,0,0.5,0,1","1,0.5,0,1,0.5,0,0.5,0,1","1","",""
"","html-keyboard-response","125","89378","0.0-125.0","3AAJC4I4FHEFIIONOHRGDW7TKBAJZV","AVHCKUAE3WDZM","3ECKRY5B1QIH1N6NFX1ECCW5ZDKIZQ","","null","<img src=""img/food3.png"" style=""width:200px; border:14px solid green;"">","null","","","","","","","","","",""
"","image-keyboard-response","126","89951","0.0-126.0","3AAJC4I4FHEFIIONOHRGDW7TKBAJZV","AVHCKUAE3WDZM","3ECKRY5B1QIH1N6NFX1ECCW5ZDKIZQ","","570.0999999642372","img/food2.png","76","571.7000000476837","3","1","3","1","1,0.5,0,1,0.5,0,0.5,0,1","1,0.5,0,1,0.5,0,0.5,0,1","1","",""
"","html-keyboard-response","127","90264","0.0-127.0","3AAJC4I4FHEFIIONOHRGDW7TKBAJZV","AVHCKUAE3WDZM","3ECKRY5B1QIH1N6NFX1ECCW5ZDKIZQ","","null","<img src=""img/food2.png"" style=""width:200px; border:14px solid green;"">","null","","","","","","","","","",""
"","image-keyboard-response","128","90742","0.0-128.0","3AAJC4I4FHEFIIONOHRGDW7TKBAJZV","AVHCKUAE3WDZM","3ECKRY5B1QIH1N6NFX1ECCW5ZDKIZQ","","477","img/food3.png","74","477.80000001192093","1","1","2","1","1,0.5,0,1,0.5,0,0.5,0,1","1,0.5,0,1,0.5,0,0.5,0,1","1","",""
"","html-keyboard-response","129","91044","0.0-129.0","3AAJC4I4FHEFIIONOHRGDW7TKBAJZV","AVHCKUAE3WDZM","3ECKRY5B1QIH1N6NFX1ECCW5ZDKIZQ","","null","<img src=""img/food3.png"" style=""width:200px; border:14px solid green;"">","null","","","","","","","","","",""
"","image-keyboard-response","130","91272","0.0-130.0","3AAJC4I4FHEFIIONOHRGDW7TKBAJZV","AVHCKUAE3WDZM","3ECKRY5B1QIH1N6NFX1ECCW5ZDKIZQ","","227.30000001192093","img/food3.png","74","228.4000000357628","1","1","2","1","1,0.5,0,1,0.5,0,0.5,0,1","1,0.5,0,1,0.5,0,0.5,0,1","1","",""
"","html-keyboard-response","131","91574","0.0-131.0","3AAJC4I4FHEFIIONOHRGDW7TKBAJZV","AVHCKUAE3WDZM","3ECKRY5B1QIH1N6NFX1ECCW5ZDKIZQ","","null","<img src=""img/food3.png"" style=""width:200px; border:14px solid green;"">","null","","","","","","","","","",""
"","image-keyboard-response","132","91899","0.0-132.0","3AAJC4I4FHEFIIONOHRGDW7TKBAJZV","AVHCKUAE3WDZM","3ECKRY5B1QIH1N6NFX1ECCW5ZDKIZQ","","323.69999998807907","img/food3.png","74","325.10000002384186","1","1","2","1","1,0.5,0,1,0.5,0,0.5,0,1","1,0.5,0,1,0.5,0,0.5,0,1","1","",""
"","html-keyboard-response","133","92202","0.0-133.0","3AAJC4I4FHEFIIONOHRGDW7TKBAJZV","AVHCKUAE3WDZM","3ECKRY5B1QIH1N6NFX1ECCW5ZDKIZQ","","null","<img src=""img/food3.png"" style=""width:200px; border:14px solid green;"">","null","","","","","","","","","",""
"","image-keyboard-response","134","92662","0.0-134.0","3AAJC4I4FHEFIIONOHRGDW7TKBAJZV","AVHCKUAE3WDZM","3ECKRY5B1QIH1N6NFX1ECCW5ZDKIZQ","","457.80000001192093","img/food2.png","76","459.30000001192093","3","1","3","1","1,0.5,0,1,0.5,0,0.5,0,1","1,0.5,0,1,0.5,0,0.5,0,1","1","",""
"","html-keyboard-response","135","92967","0.0-135.0","3AAJC4I4FHEFIIONOHRGDW7TKBAJZV","AVHCKUAE3WDZM","3ECKRY5B1QIH1N6NFX1ECCW5ZDKIZQ","","null","<img src=""img/food2.png"" style=""width:200px; border:14px solid green;"">","null","","","","","","","","","",""
"","image-keyboard-response","136","93381","0.0-136.0","3AAJC4I4FHEFIIONOHRGDW7TKBAJZV","AVHCKUAE3WDZM","3ECKRY5B1QIH1N6NFX1ECCW5ZDKIZQ","","413.19999998807907","img/food2.png","76","413.80000001192093","3","1","3","1","1,0.5,0,1,0.5,0,0.5,0,1","1,0.5,0,1,0.5,0,0.5,0,1","1","",""
"","html-keyboard-response","137","93692","0.0-137.0","3AAJC4I4FHEFIIONOHRGDW7TKBAJZV","AVHCKUAE3WDZM","3ECKRY5B1QIH1N6NFX1ECCW5ZDKIZQ","","null","<img src=""img/food2.png"" style=""width:200px; border:14px solid green;"">","null","","","","","","","","","",""
"","image-keyboard-response","138","94097","0.0-138.0","3AAJC4I4FHEFIIONOHRGDW7TKBAJZV","AVHCKUAE3WDZM","3ECKRY5B1QIH1N6NFX1ECCW5ZDKIZQ","","402","img/food3.png","74","404","1","1","2","1","1,0.5,0,1,0.5,0,0.5,0,1","1,0.5,0,1,0.5,0,0.5,0,1","1","",""
"","html-keyboard-response","139","94399","0.0-139.0","3AAJC4I4FHEFIIONOHRGDW7TKBAJZV","AVHCKUAE3WDZM","3ECKRY5B1QIH1N6NFX1ECCW5ZDKIZQ","","null","<img src=""img/food3.png"" style=""width:200px; border:14px solid green;"">","null","","","","","","","","","",""
"","image-keyboard-response","140","94671","0.0-140.0","3AAJC4I4FHEFIIONOHRGDW7TKBAJZV","AVHCKUAE3WDZM","3ECKRY5B1QIH1N6NFX1ECCW5ZDKIZQ","","270.9000000357628","img/food2.png","74","271.60000002384186","1","0","3","1","1,0.5,0,1,0.5,0,0.5,0,1","1,0.5,0,1,0.5,0,0.5,0,1","1","",""
"","html-keyboard-response","141","94974","0.0-141.0","3AAJC4I4FHEFIIONOHRGDW7TKBAJZV","AVHCKUAE3WDZM","3ECKRY5B1QIH1N6NFX1ECCW5ZDKIZQ","","null","<img src=""img/food2.png"" style=""width:200px;border:14px solid red;"">","null","","","","","","","","","",""
"","image-keyboard-response","142","95433","0.0-142.0","3AAJC4I4FHEFIIONOHRGDW7TKBAJZV","AVHCKUAE3WDZM","3ECKRY5B1QIH1N6NFX1ECCW5ZDKIZQ","","458","img/food3.png","74","459.19999998807907","1","1","2","1","1,0.5,0,1,0.5,0,0.5,0,1","1,0.5,0,1,0.5,0,0.5,0,1","1","",""
"","html-keyboard-response","143","95735","0.0-143.0","3AAJC4I4FHEFIIONOHRGDW7TKBAJZV","AVHCKUAE3WDZM","3ECKRY5B1QIH1N6NFX1ECCW5ZDKIZQ","","null","<img src=""img/food3.png"" style=""width:200px; border:14px solid green;"">","null","","","","","","","","","",""
"","image-keyboard-response","144","96208","0.0-144.0","3AAJC4I4FHEFIIONOHRGDW7TKBAJZV","AVHCKUAE3WDZM","3ECKRY5B1QIH1N6NFX1ECCW5ZDKIZQ","","471.7999999523163","img/food2.png","76","473.10000002384186","3","1","3","1","1,0.5,0,1,0.5,0,0.5,0,1","1,0.5,0,1,0.5,0,0.5,0,1","1","",""
"","html-keyboard-response","145","96512","0.0-145.0","3AAJC4I4FHEFIIONOHRGDW7TKBAJZV","AVHCKUAE3WDZM","3ECKRY5B1QIH1N6NFX1ECCW5ZDKIZQ","","null","<img src=""img/food2.png"" style=""width:200px; border:14px solid green;"">","null","","","","","","","","","",""
"","image-keyboard-response","146","96988","0.0-146.0","3AAJC4I4FHEFIIONOHRGDW7TKBAJZV","AVHCKUAE3WDZM","3ECKRY5B1QIH1N6NFX1ECCW5ZDKIZQ","","474","img/food3.png","74","475.19999998807907","1","1","2","1","1,0.5,0,1,0.5,0,0.5,0,1","1,0.5,0,1,0.5,0,0.5,0,1","1","",""
"","html-keyboard-response","147","97291","0.0-147.0","3AAJC4I4FHEFIIONOHRGDW7TKBAJZV","AVHCKUAE3WDZM","3ECKRY5B1QIH1N6NFX1ECCW5ZDKIZQ","","null","<img src=""img/food3.png"" style=""width:200px; border:14px solid green;"">","null","","","","","","","","","",""
"","image-keyboard-response","148","97546","0.0-148.0","3AAJC4I4FHEFIIONOHRGDW7TKBAJZV","AVHCKUAE3WDZM","3ECKRY5B1QIH1N6NFX1ECCW5ZDKIZQ","","254.19999998807907","img/food6.png","74","255.19999998807907","1","1","1","1","1,0.5,0,1,0.5,0,0.5,0,1","1,0.5,0,1,0.5,0,0.5,0,1","1","",""
"","html-keyboard-response","149","97849","0.0-149.0","3AAJC4I4FHEFIIONOHRGDW7TKBAJZV","AVHCKUAE3WDZM","3ECKRY5B1QIH1N6NFX1ECCW5ZDKIZQ","","null","<img src=""img/food6.png"" style=""width:200px; border:14px solid green;"">","null","","","","","","","","","",""
"","image-keyboard-response","150","98388","0.0-150.0","3AAJC4I4FHEFIIONOHRGDW7TKBAJZV","AVHCKUAE3WDZM","3ECKRY5B1QIH1N6NFX1ECCW5ZDKIZQ","","537.5","img/food2.png","76","539","3","1","3","1","1,0.5,0,1,0.5,0,0.5,0,1","1,0.5,0,1,0.5,0,0.5,0,1","1","",""
"","html-keyboard-response","151","98693","0.0-151.0","3AAJC4I4FHEFIIONOHRGDW7TKBAJZV","AVHCKUAE3WDZM","3ECKRY5B1QIH1N6NFX1ECCW5ZDKIZQ","","null","<img src=""img/food2.png"" style=""width:200px; border:14px solid green;"">","null","","","","","","","","","",""
"","image-keyboard-response","152","99128","0.0-152.0","3AAJC4I4FHEFIIONOHRGDW7TKBAJZV","AVHCKUAE3WDZM","3ECKRY5B1QIH1N6NFX1ECCW5ZDKIZQ","","432.5","img/food6.png","74","434.60000002384186","1","1","1","1","1,0.5,0,1,0.5,0,0.5,0,1","1,0.5,0,1,0.5,0,0.5,0,1","1","",""
"","html-keyboard-response","153","99432","0.0-153.0","3AAJC4I4FHEFIIONOHRGDW7TKBAJZV","AVHCKUAE3WDZM","3ECKRY5B1QIH1N6NFX1ECCW5ZDKIZQ","","null","<img src=""img/food6.png"" style=""width:200px; border:14px solid green;"">","null","","","","","","","","","",""
"","image-keyboard-response","154","99938","0.0-154.0","3AAJC4I4FHEFIIONOHRGDW7TKBAJZV","AVHCKUAE3WDZM","3ECKRY5B1QIH1N6NFX1ECCW5ZDKIZQ","","505.19999998807907","img/food2.png","76","505.80000001192093","3","1","3","1","1,0.5,0,1,0.5,0,0.5,0,1","1,0.5,0,1,0.5,0,0.5,0,1","1","",""
"","html-keyboard-response","155","100240","0.0-155.0","3AAJC4I4FHEFIIONOHRGDW7TKBAJZV","AVHCKUAE3WDZM","3ECKRY5B1QIH1N6NFX1ECCW5ZDKIZQ","","null","<img src=""img/food2.png"" style=""width:200px; border:14px solid green;"">","null","","","","","","","","","",""
"","image-keyboard-response","156","100727","0.0-156.0","3AAJC4I4FHEFIIONOHRGDW7TKBAJZV","AVHCKUAE3WDZM","3ECKRY5B1QIH1N6NFX1ECCW5ZDKIZQ","","485","img/food6.png","74","486.5","1","1","1","1","1,0.5,0,1,0.5,0,0.5,0,1","1,0.5,0,1,0.5,0,0.5,0,1","1","",""
"","html-keyboard-response","157","101029","0.0-157.0","3AAJC4I4FHEFIIONOHRGDW7TKBAJZV","AVHCKUAE3WDZM","3ECKRY5B1QIH1N6NFX1ECCW5ZDKIZQ","","null","<img src=""img/food6.png"" style=""width:200px; border:14px solid green;"">","null","","","","","","","","","",""
"","image-keyboard-response","158","101311","0.0-158.0","3AAJC4I4FHEFIIONOHRGDW7TKBAJZV","AVHCKUAE3WDZM","3ECKRY5B1QIH1N6NFX1ECCW5ZDKIZQ","","281.5999999642372","img/food3.png","74","282.39999997615814","1","1","2","1","1,0.5,0,1,0.5,0,0.5,0,1","1,0.5,0,1,0.5,0,0.5,0,1","1","",""
"","html-keyboard-response","159","101614","0.0-159.0","3AAJC4I4FHEFIIONOHRGDW7TKBAJZV","AVHCKUAE3WDZM","3ECKRY5B1QIH1N6NFX1ECCW5ZDKIZQ","","null","<img src=""img/food3.png"" style=""width:200px; border:14px solid green;"">","null","","","","","","","","","",""
"","image-keyboard-response","160","102032","0.0-160.0","3AAJC4I4FHEFIIONOHRGDW7TKBAJZV","AVHCKUAE3WDZM","3ECKRY5B1QIH1N6NFX1ECCW5ZDKIZQ","","415.30000001192093","img/food6.png","74","417","1","1","1","1","1,0.5,0,1,0.5,0,0.5,0,1","1,0.5,0,1,0.5,0,0.5,0,1","1","",""
"","html-keyboard-response","161","102334","0.0-161.0","3AAJC4I4FHEFIIONOHRGDW7TKBAJZV","AVHCKUAE3WDZM","3ECKRY5B1QIH1N6NFX1ECCW5ZDKIZQ","","null","<img src=""img/food6.png"" style=""width:200px; border:14px solid green;"">","null","","","","","","","","","",""
"","image-keyboard-response","162","102764","0.0-162.0","3AAJC4I4FHEFIIONOHRGDW7TKBAJZV","AVHCKUAE3WDZM","3ECKRY5B1QIH1N6NFX1ECCW5ZDKIZQ","","426.9000000357628","img/food6.png","74","428.80000001192093","1","1","1","1","1,0.5,0,1,0.5,0,0.5,0,1","1,0.5,0,1,0.5,0,0.5,0,1","1","",""
"","html-keyboard-response","163","103067","0.0-163.0","3AAJC4I4FHEFIIONOHRGDW7TKBAJZV","AVHCKUAE3WDZM","3ECKRY5B1QIH1N6NFX1ECCW5ZDKIZQ","","null","<img src=""img/food6.png"" style=""width:200px; border:14px solid green;"">","null","","","","","","","","","",""
"","image-keyboard-response","164","103454","0.0-164.0","3AAJC4I4FHEFIIONOHRGDW7TKBAJZV","AVHCKUAE3WDZM","3ECKRY5B1QIH1N6NFX1ECCW5ZDKIZQ","","384.89999997615814","img/food6.png","74","386.2000000476837","1","1","1","1","1,0.5,0,1,0.5,0,0.5,0,1","1,0.5,0,1,0.5,0,0.5,0,1","1","",""
"","html-keyboard-response","165","103756","0.0-165.0","3AAJC4I4FHEFIIONOHRGDW7TKBAJZV","AVHCKUAE3WDZM","3ECKRY5B1QIH1N6NFX1ECCW5ZDKIZQ","","null","<img src=""img/food6.png"" style=""width:200px; border:14px solid green;"">","null","","","","","","","","","",""
"","image-keyboard-response","166","104380","0.0-166.0","3AAJC4I4FHEFIIONOHRGDW7TKBAJZV","AVHCKUAE3WDZM","3ECKRY5B1QIH1N6NFX1ECCW5ZDKIZQ","","621.8000000119209","img/food3.png","74","623.1000000238419","1","1","2","1","1,0.5,0,1,0.5,0,0.5,0,1","1,0.5,0,1,0.5,0,0.5,0,1","1","",""
"","html-keyboard-response","167","104683","0.0-167.0","3AAJC4I4FHEFIIONOHRGDW7TKBAJZV","AVHCKUAE3WDZM","3ECKRY5B1QIH1N6NFX1ECCW5ZDKIZQ","","null","<img src=""img/food3.png"" style=""width:200px; border:14px solid green;"">","null","","","","","","","","","",""
"","image-keyboard-response","168","105158","0.0-168.0","3AAJC4I4FHEFIIONOHRGDW7TKBAJZV","AVHCKUAE3WDZM","3ECKRY5B1QIH1N6NFX1ECCW5ZDKIZQ","","474.2999999523163","img/food6.png","74","475","1","1","1","1","1,0.5,0,1,0.5,0,0.5,0,1","1,0.5,0,1,0.5,0,0.5,0,1","1","",""
"","html-keyboard-response","169","105460","0.0-169.0","3AAJC4I4FHEFIIONOHRGDW7TKBAJZV","AVHCKUAE3WDZM","3ECKRY5B1QIH1N6NFX1ECCW5ZDKIZQ","","null","<img src=""img/food6.png"" style=""width:200px; border:14px solid green;"">","null","","","","","","","","","",""
"","image-keyboard-response","170","105787","0.0-170.0","3AAJC4I4FHEFIIONOHRGDW7TKBAJZV","AVHCKUAE3WDZM","3ECKRY5B1QIH1N6NFX1ECCW5ZDKIZQ","","326.10000002384186","img/food6.png","74","327.19999998807907","1","1","1","1","1,0.5,0,1,0.5,0,0.5,0,1","1,0.5,0,1,0.5,0,0.5,0,1","1","",""
"","html-keyboard-response","171","106090","0.0-171.0","3AAJC4I4FHEFIIONOHRGDW7TKBAJZV","AVHCKUAE3WDZM","3ECKRY5B1QIH1N6NFX1ECCW5ZDKIZQ","","null","<img src=""img/food6.png"" style=""width:200px; border:14px solid green;"">","null","","","","","","","","","",""
"","image-keyboard-response","172","106623","0.0-172.0","3AAJC4I4FHEFIIONOHRGDW7TKBAJZV","AVHCKUAE3WDZM","3ECKRY5B1QIH1N6NFX1ECCW5ZDKIZQ","","531.7000000476837","img/food3.png","74","532.7999999523163","1","1","2","1","1,0.5,0,1,0.5,0,0.5,0,1","1,0.5,0,1,0.5,0,0.5,0,1","1","",""
"","html-keyboard-response","173","106932","0.0-173.0","3AAJC4I4FHEFIIONOHRGDW7TKBAJZV","AVHCKUAE3WDZM","3ECKRY5B1QIH1N6NFX1ECCW5ZDKIZQ","","null","<img src=""img/food3.png"" style=""width:200px; border:14px solid green;"">","null","","","","","","","","","",""
"","image-keyboard-response","174","107318","0.0-174.0","3AAJC4I4FHEFIIONOHRGDW7TKBAJZV","AVHCKUAE3WDZM","3ECKRY5B1QIH1N6NFX1ECCW5ZDKIZQ","","384.5","img/food6.png","74","385.69999998807907","1","1","1","1","1,0.5,0,1,0.5,0,0.5,0,1","1,0.5,0,1,0.5,0,0.5,0,1","1","",""
"","html-keyboard-response","175","107621","0.0-175.0","3AAJC4I4FHEFIIONOHRGDW7TKBAJZV","AVHCKUAE3WDZM","3ECKRY5B1QIH1N6NFX1ECCW5ZDKIZQ","","null","<img src=""img/food6.png"" style=""width:200px; border:14px solid green;"">","null","","","","","","","","","",""
"","image-keyboard-response","176","108101","0.0-176.0","3AAJC4I4FHEFIIONOHRGDW7TKBAJZV","AVHCKUAE3WDZM","3ECKRY5B1QIH1N6NFX1ECCW5ZDKIZQ","","477.4000000357628","img/food2.png","76","479.19999998807907","3","1","3","1","1,0.5,0,1,0.5,0,0.5,0,1","1,0.5,0,1,0.5,0,0.5,0,1","1","",""
"","html-keyboard-response","177","108404","0.0-177.0","3AAJC4I4FHEFIIONOHRGDW7TKBAJZV","AVHCKUAE3WDZM","3ECKRY5B1QIH1N6NFX1ECCW5ZDKIZQ","","null","<img src=""img/food2.png"" style=""width:200px; border:14px solid green;"">","null","","","","","","","","","",""
"","image-keyboard-response","178","108808","0.0-178.0","3AAJC4I4FHEFIIONOHRGDW7TKBAJZV","AVHCKUAE3WDZM","3ECKRY5B1QIH1N6NFX1ECCW5ZDKIZQ","","403.19999998807907","img/food6.png","74","403.9000000357628","1","1","1","1","1,0.5,0,1,0.5,0,0.5,0,1","1,0.5,0,1,0.5,0,0.5,0,1","1","",""
"","html-keyboard-response","179","109110","0.0-179.0","3AAJC4I4FHEFIIONOHRGDW7TKBAJZV","AVHCKUAE3WDZM","3ECKRY5B1QIH1N6NFX1ECCW5ZDKIZQ","","null","<img src=""img/food6.png"" style=""width:200px; border:14px solid green;"">","null","","","","","","","","","",""
"","image-keyboard-response","180","109522","0.0-180.0","3AAJC4I4FHEFIIONOHRGDW7TKBAJZV","AVHCKUAE3WDZM","3ECKRY5B1QIH1N6NFX1ECCW5ZDKIZQ","","411.60000002384186","img/food6.png","74","412.5","1","1","1","1","1,0.5,0,1,0.5,0,0.5,0,1","1,0.5,0,1,0.5,0,0.5,0,1","1","",""
"","html-keyboard-response","181","109838","0.0-181.0","3AAJC4I4FHEFIIONOHRGDW7TKBAJZV","AVHCKUAE3WDZM","3ECKRY5B1QIH1N6NFX1ECCW5ZDKIZQ","","null","<img src=""img/food6.png"" style=""width:200px; border:14px solid green;"">","null","","","","","","","","","",""
"","html-keyboard-response","182","112574","0.0-182.0","3AAJC4I4FHEFIIONOHRGDW7TKBAJZV","AVHCKUAE3WDZM","3ECKRY5B1QIH1N6NFX1ECCW5ZDKIZQ","","","","","","","","","","","","","",""
"","instructions","183","118015","0.0-183.0","3AAJC4I4FHEFIIONOHRGDW7TKBAJZV","AVHCKUAE3WDZM","3ECKRY5B1QIH1N6NFX1ECCW5ZDKIZQ","[{""page_index"":0,""viewing_time"":3231.300000011921},{""page_index"":1,""viewing_time"":2208.300000011921}]","5439.800000011921","","","","","","","","","","","",""
"","image-keyboard-response","184","118713","0.0-184.0","3AAJC4I4FHEFIIONOHRGDW7TKBAJZV","AVHCKUAE3WDZM","3ECKRY5B1QIH1N6NFX1ECCW5ZDKIZQ","","696.6999999880791","img/food1.png","74","698","1","0","2","2","1,0.5,0,1,0.5,0,0.5,0,1","0.5,0,1,0.5,0,1,0,1,0.5","2","false",""
"","html-keyboard-response","185","119016","0.0-185.0","3AAJC4I4FHEFIIONOHRGDW7TKBAJZV","AVHCKUAE3WDZM","3ECKRY5B1QIH1N6NFX1ECCW5ZDKIZQ","","null","<img src=""img/food1.png"" style=""width:200px;border:14px solid red;"">","null","","","","","","","","","",""
"","image-keyboard-response","186","119529","0.0-187.0","3AAJC4I4FHEFIIONOHRGDW7TKBAJZV","AVHCKUAE3WDZM","3ECKRY5B1QIH1N6NFX1ECCW5ZDKIZQ","","510.2999999523163","img/food1.png","74","511.30000001192093","1","1","2","2","1,0.5,0,1,0.5,0,0.5,0,1","0.5,0,1,0.5,0,1,0,1,0.5","2","false",""
"","html-keyboard-response","187","119831","0.0-188.0","3AAJC4I4FHEFIIONOHRGDW7TKBAJZV","AVHCKUAE3WDZM","3ECKRY5B1QIH1N6NFX1ECCW5ZDKIZQ","","null","<img src=""img/food1.png"" style=""width:200px; border:14px solid green;"">","null","","","","","","","","","",""
"","image-keyboard-response","188","120821","0.0-190.0","3AAJC4I4FHEFIIONOHRGDW7TKBAJZV","AVHCKUAE3WDZM","3ECKRY5B1QIH1N6NFX1ECCW5ZDKIZQ","","988.3000000119209","img/food4.png","75","989.3999999761581","2","1","3","2","1,0.5,0,1,0.5,0,0.5,0,1","0.5,0,1,0.5,0,1,0,1,0.5","2","false",""
"","html-keyboard-response","189","121124","0.0-191.0","3AAJC4I4FHEFIIONOHRGDW7TKBAJZV","AVHCKUAE3WDZM","3ECKRY5B1QIH1N6NFX1ECCW5ZDKIZQ","","null","<img src=""img/food4.png"" style=""width:200px; border:14px solid green;"">","null","","","","","","","","","",""
"","image-keyboard-response","190","121569","0.0-193.0","3AAJC4I4FHEFIIONOHRGDW7TKBAJZV","AVHCKUAE3WDZM","3ECKRY5B1QIH1N6NFX1ECCW5ZDKIZQ","","442.19999998807907","img/food4.png","75","444.10000002384186","2","1","3","2","1,0.5,0,1,0.5,0,0.5,0,1","0.5,0,1,0.5,0,1,0,1,0.5","2","false",""
"","html-keyboard-response","191","121870","0.0-194.0","3AAJC4I4FHEFIIONOHRGDW7TKBAJZV","AVHCKUAE3WDZM","3ECKRY5B1QIH1N6NFX1ECCW5ZDKIZQ","","null","<img src=""img/food4.png"" style=""width:200px; border:14px solid green;"">","null","","","","","","","","","",""
"","image-keyboard-response","192","122351","0.0-196.0","3AAJC4I4FHEFIIONOHRGDW7TKBAJZV","AVHCKUAE3WDZM","3ECKRY5B1QIH1N6NFX1ECCW5ZDKIZQ","","479.60000002384186","img/food4.png","75","480.30000001192093","2","1","3","2","1,0.5,0,1,0.5,0,0.5,0,1","0.5,0,1,0.5,0,1,0,1,0.5","2","false",""
"","html-keyboard-response","193","122654","0.0-197.0","3AAJC4I4FHEFIIONOHRGDW7TKBAJZV","AVHCKUAE3WDZM","3ECKRY5B1QIH1N6NFX1ECCW5ZDKIZQ","","null","<img src=""img/food4.png"" style=""width:200px; border:14px solid green;"">","null","","","","","","","","","",""
"","image-keyboard-response","194","123656","0.0-199.0","3AAJC4I4FHEFIIONOHRGDW7TKBAJZV","AVHCKUAE3WDZM","3ECKRY5B1QIH1N6NFX1ECCW5ZDKIZQ","","","img/food1.png","","1001.9000000357628","-1","0","2","2","1,0.5,0,1,0.5,0,0.5,0,1","0.5,0,1,0.5,0,1,0,1,0.5","2","true",""
"","html-keyboard-response","195","123958","0.0-200.0","3AAJC4I4FHEFIIONOHRGDW7TKBAJZV","AVHCKUAE3WDZM","3ECKRY5B1QIH1N6NFX1ECCW5ZDKIZQ","","null","<img src=""img/food1.png"" style=""width:200px;border:14px solid red;"">","null","","","","","","","","","",""
"","html-keyboard-response","196","129167","0.0-201.0-0.0","3AAJC4I4FHEFIIONOHRGDW7TKBAJZV","AVHCKUAE3WDZM","3ECKRY5B1QIH1N6NFX1ECCW5ZDKIZQ","","","","","","","","","","","","","",""
"","image-keyboard-response","197","130126","0.0-202.0","3AAJC4I4FHEFIIONOHRGDW7TKBAJZV","AVHCKUAE3WDZM","3ECKRY5B1QIH1N6NFX1ECCW5ZDKIZQ","","957.6999999880791","img/food1.png","76","958.5","3","1","2","2","1,0.5,0,1,0.5,0,0.5,0,1","0.5,0,1,0.5,0,1,0,1,0.5","2","false",""
"","html-keyboard-response","198","130433","0.0-203.0","3AAJC4I4FHEFIIONOHRGDW7TKBAJZV","AVHCKUAE3WDZM","3ECKRY5B1QIH1N6NFX1ECCW5ZDKIZQ","","null","<img src=""img/food1.png"" style=""width:200px; border:14px solid green;"">","null","","","","","","","","","",""
"","image-keyboard-response","199","131018","0.0-205.0","3AAJC4I4FHEFIIONOHRGDW7TKBAJZV","AVHCKUAE3WDZM","3ECKRY5B1QIH1N6NFX1ECCW5ZDKIZQ","","583.3999999761581","img/food5.png","76","584.1999999880791","3","1","1","2","1,0.5,0,1,0.5,0,0.5,0,1","0.5,0,1,0.5,0,1,0,1,0.5","2","false",""
"","html-keyboard-response","200","131320","0.0-206.0","3AAJC4I4FHEFIIONOHRGDW7TKBAJZV","AVHCKUAE3WDZM","3ECKRY5B1QIH1N6NFX1ECCW5ZDKIZQ","","null","<img src=""img/food5.png"" style=""width:200px; border:14px solid green;"">","null","","","","","","","","","",""
"","image-keyboard-response","201","132322","0.0-208.0","3AAJC4I4FHEFIIONOHRGDW7TKBAJZV","AVHCKUAE3WDZM","3ECKRY5B1QIH1N6NFX1ECCW5ZDKIZQ","","","img/food1.png","","1001.3999999761581","-1","0","2","2","1,0.5,0,1,0.5,0,0.5,0,1","0.5,0,1,0.5,0,1,0,1,0.5","2","true",""
"","html-keyboard-response","202","132623","0.0-209.0","3AAJC4I4FHEFIIONOHRGDW7TKBAJZV","AVHCKUAE3WDZM","3ECKRY5B1QIH1N6NFX1ECCW5ZDKIZQ","","null","<img src=""img/food1.png"" style=""width:200px;border:14px solid red;"">","null","","","","","","","","","",""
"","html-keyboard-response","203","134959","0.0-210.0-0.0","3AAJC4I4FHEFIIONOHRGDW7TKBAJZV","AVHCKUAE3WDZM","3ECKRY5B1QIH1N6NFX1ECCW5ZDKIZQ","","","","","","","","","","","","","",""
"","image-keyboard-response","204","135762","0.0-211.0","3AAJC4I4FHEFIIONOHRGDW7TKBAJZV","AVHCKUAE3WDZM","3ECKRY5B1QIH1N6NFX1ECCW5ZDKIZQ","","801.8000000119209","img/food5.png","74","802.7000000476837","1","1","1","2","1,0.5,0,1,0.5,0,0.5,0,1","0.5,0,1,0.5,0,1,0,1,0.5","2","false",""
"","html-keyboard-response","205","136064","0.0-212.0","3AAJC4I4FHEFIIONOHRGDW7TKBAJZV","AVHCKUAE3WDZM","3ECKRY5B1QIH1N6NFX1ECCW5ZDKIZQ","","null","<img src=""img/food5.png"" style=""width:200px; border:14px solid green;"">","null","","","","","","","","","",""
"","image-keyboard-response","206","136400","0.0-214.0","3AAJC4I4FHEFIIONOHRGDW7TKBAJZV","AVHCKUAE3WDZM","3ECKRY5B1QIH1N6NFX1ECCW5ZDKIZQ","","332.5","img/food4.png","74","335","1","0","3","2","1,0.5,0,1,0.5,0,0.5,0,1","0.5,0,1,0.5,0,1,0,1,0.5","2","false",""
"","html-keyboard-response","207","136704","0.0-215.0","3AAJC4I4FHEFIIONOHRGDW7TKBAJZV","AVHCKUAE3WDZM","3ECKRY5B1QIH1N6NFX1ECCW5ZDKIZQ","","null","<img src=""img/food4.png"" style=""width:200px;border:14px solid red;"">","null","","","","","","","","","",""
"","image-keyboard-response","208","137492","0.0-217.0","3AAJC4I4FHEFIIONOHRGDW7TKBAJZV","AVHCKUAE3WDZM","3ECKRY5B1QIH1N6NFX1ECCW5ZDKIZQ","","786.6999999880791","img/food1.png","74","787.6000000238419","1","0","2","2","1,0.5,0,1,0.5,0,0.5,0,1","0.5,0,1,0.5,0,1,0,1,0.5","2","false",""
"","html-keyboard-response","209","137794","0.0-218.0","3AAJC4I4FHEFIIONOHRGDW7TKBAJZV","AVHCKUAE3WDZM","3ECKRY5B1QIH1N6NFX1ECCW5ZDKIZQ","","null","<img src=""img/food1.png"" style=""width:200px;border:14px solid red;"">","null","","","","","","","","","",""
"","image-keyboard-response","210","138603","0.0-220.0","3AAJC4I4FHEFIIONOHRGDW7TKBAJZV","AVHCKUAE3WDZM","3ECKRY5B1QIH1N6NFX1ECCW5ZDKIZQ","","807.3000000119209","img/food5.png","76","808.5999999642372","3","1","1","2","1,0.5,0,1,0.5,0,0.5,0,1","0.5,0,1,0.5,0,1,0,1,0.5","2","false",""
"","html-keyboard-response","211","138906","0.0-221.0","3AAJC4I4FHEFIIONOHRGDW7TKBAJZV","AVHCKUAE3WDZM","3ECKRY5B1QIH1N6NFX1ECCW5ZDKIZQ","","null","<img src=""img/food5.png"" style=""width:200px; border:14px solid green;"">","null","","","","","","","","","",""
"","image-keyboard-response","212","139437","0.0-223.0","3AAJC4I4FHEFIIONOHRGDW7TKBAJZV","AVHCKUAE3WDZM","3ECKRY5B1QIH1N6NFX1ECCW5ZDKIZQ","","529.7999999523163","img/food4.png","75","530.5","2","1","3","2","1,0.5,0,1,0.5,0,0.5,0,1","0.5,0,1,0.5,0,1,0,1,0.5","2","false",""
"","html-keyboard-response","213","139739","0.0-224.0","3AAJC4I4FHEFIIONOHRGDW7TKBAJZV","AVHCKUAE3WDZM","3ECKRY5B1QIH1N6NFX1ECCW5ZDKIZQ","","null","<img src=""img/food4.png"" style=""width:200px; border:14px solid green;"">","null","","","","","","","","","",""
"","image-keyboard-response","214","140277","0.0-226.0","3AAJC4I4FHEFIIONOHRGDW7TKBAJZV","AVHCKUAE3WDZM","3ECKRY5B1QIH1N6NFX1ECCW5ZDKIZQ","","536.3000000119209","img/food1.png","74","537.1000000238419","1","0","2","2","1,0.5,0,1,0.5,0,0.5,0,1","0.5,0,1,0.5,0,1,0,1,0.5","2","false",""
"","html-keyboard-response","215","140579","0.0-227.0","3AAJC4I4FHEFIIONOHRGDW7TKBAJZV","AVHCKUAE3WDZM","3ECKRY5B1QIH1N6NFX1ECCW5ZDKIZQ","","null","<img src=""img/food1.png"" style=""width:200px;border:14px solid red;"">","null","","","","","","","","","",""
"","image-keyboard-response","216","141055","0.0-229.0","3AAJC4I4FHEFIIONOHRGDW7TKBAJZV","AVHCKUAE3WDZM","3ECKRY5B1QIH1N6NFX1ECCW5ZDKIZQ","","474.30000001192093","img/food1.png","74","475.19999998807907","1","0","2","2","1,0.5,0,1,0.5,0,0.5,0,1","0.5,0,1,0.5,0,1,0,1,0.5","2","false",""
"","html-keyboard-response","217","141357","0.0-230.0","3AAJC4I4FHEFIIONOHRGDW7TKBAJZV","AVHCKUAE3WDZM","3ECKRY5B1QIH1N6NFX1ECCW5ZDKIZQ","","null","<img src=""img/food1.png"" style=""width:200px;border:14px solid red;"">","null","","","","","","","","","",""
"","image-keyboard-response","218","142074","0.0-232.0","3AAJC4I4FHEFIIONOHRGDW7TKBAJZV","AVHCKUAE3WDZM","3ECKRY5B1QIH1N6NFX1ECCW5ZDKIZQ","","716.3999999761581","img/food5.png","76","717.0999999642372","3","1","1","2","1,0.5,0,1,0.5,0,0.5,0,1","0.5,0,1,0.5,0,1,0,1,0.5","2","false",""
"","html-keyboard-response","219","142376","0.0-233.0","3AAJC4I4FHEFIIONOHRGDW7TKBAJZV","AVHCKUAE3WDZM","3ECKRY5B1QIH1N6NFX1ECCW5ZDKIZQ","","null","<img src=""img/food5.png"" style=""width:200px; border:14px solid green;"">","null","","","","","","","","","",""
"","image-keyboard-response","220","142769","0.0-235.0","3AAJC4I4FHEFIIONOHRGDW7TKBAJZV","AVHCKUAE3WDZM","3ECKRY5B1QIH1N6NFX1ECCW5ZDKIZQ","","392","img/food5.png","76","392.7999999523163","3","1","1","2","1,0.5,0,1,0.5,0,0.5,0,1","0.5,0,1,0.5,0,1,0,1,0.5","2","false",""
"","html-keyboard-response","221","143071","0.0-236.0","3AAJC4I4FHEFIIONOHRGDW7TKBAJZV","AVHCKUAE3WDZM","3ECKRY5B1QIH1N6NFX1ECCW5ZDKIZQ","","null","<img src=""img/food5.png"" style=""width:200px; border:14px solid green;"">","null","","","","","","","","","",""
"","image-keyboard-response","222","143429","0.0-238.0","3AAJC4I4FHEFIIONOHRGDW7TKBAJZV","AVHCKUAE3WDZM","3ECKRY5B1QIH1N6NFX1ECCW5ZDKIZQ","","356.80000001192093","img/food5.png","76","358.10000002384186","3","1","1","2","1,0.5,0,1,0.5,0,0.5,0,1","0.5,0,1,0.5,0,1,0,1,0.5","2","false",""
"","html-keyboard-response","223","143733","0.0-239.0","3AAJC4I4FHEFIIONOHRGDW7TKBAJZV","AVHCKUAE3WDZM","3ECKRY5B1QIH1N6NFX1ECCW5ZDKIZQ","","null","<img src=""img/food5.png"" style=""width:200px; border:14px solid green;"">","null","","","","","","","","","",""
"","image-keyboard-response","224","143995","0.0-241.0","3AAJC4I4FHEFIIONOHRGDW7TKBAJZV","AVHCKUAE3WDZM","3ECKRY5B1QIH1N6NFX1ECCW5ZDKIZQ","","260.60000002384186","img/food5.png","76","261.39999997615814","3","1","1","2","1,0.5,0,1,0.5,0,0.5,0,1","0.5,0,1,0.5,0,1,0,1,0.5","2","false",""
"","html-keyboard-response","225","144310","0.0-242.0","3AAJC4I4FHEFIIONOHRGDW7TKBAJZV","AVHCKUAE3WDZM","3ECKRY5B1QIH1N6NFX1ECCW5ZDKIZQ","","null","<img src=""img/food5.png"" style=""width:200px; border:14px solid green;"">","null","","","","","","","","","",""
"","image-keyboard-response","226","144609","0.0-244.0","3AAJC4I4FHEFIIONOHRGDW7TKBAJZV","AVHCKUAE3WDZM","3ECKRY5B1QIH1N6NFX1ECCW5ZDKIZQ","","298.60000002384186","img/food5.png","76","299.39999997615814","3","1","1","2","1,0.5,0,1,0.5,0,0.5,0,1","0.5,0,1,0.5,0,1,0,1,0.5","2","false",""
"","html-keyboard-response","227","144916","0.0-245.0","3AAJC4I4FHEFIIONOHRGDW7TKBAJZV","AVHCKUAE3WDZM","3ECKRY5B1QIH1N6NFX1ECCW5ZDKIZQ","","null","<img src=""img/food5.png"" style=""width:200px; border:14px solid green;"">","null","","","","","","","","","",""
"","image-keyboard-response","228","145556","0.0-247.0","3AAJC4I4FHEFIIONOHRGDW7TKBAJZV","AVHCKUAE3WDZM","3ECKRY5B1QIH1N6NFX1ECCW5ZDKIZQ","","638.5999999642372","img/food4.png","75","639.3000000119209","2","1","3","2","1,0.5,0,1,0.5,0,0.5,0,1","0.5,0,1,0.5,0,1,0,1,0.5","2","false",""
"","html-keyboard-response","229","145859","0.0-248.0","3AAJC4I4FHEFIIONOHRGDW7TKBAJZV","AVHCKUAE3WDZM","3ECKRY5B1QIH1N6NFX1ECCW5ZDKIZQ","","null","<img src=""img/food4.png"" style=""width:200px; border:14px solid green;"">","null","","","","","","","","","",""
"","image-keyboard-response","230","146310","0.0-250.0","3AAJC4I4FHEFIIONOHRGDW7TKBAJZV","AVHCKUAE3WDZM","3ECKRY5B1QIH1N6NFX1ECCW5ZDKIZQ","","449.2000000476837","img/food5.png","75","450.60000002384186","2","0","1","2","1,0.5,0,1,0.5,0,0.5,0,1","0.5,0,1,0.5,0,1,0,1,0.5","2","false",""
"","html-keyboard-response","231","146612","0.0-251.0","3AAJC4I4FHEFIIONOHRGDW7TKBAJZV","AVHCKUAE3WDZM","3ECKRY5B1QIH1N6NFX1ECCW5ZDKIZQ","","null","<img src=""img/food5.png"" style=""width:200px;border:14px solid red;"">","null","","","","","","","","","",""
"","image-keyboard-response","232","146907","0.0-253.0","3AAJC4I4FHEFIIONOHRGDW7TKBAJZV","AVHCKUAE3WDZM","3ECKRY5B1QIH1N6NFX1ECCW5ZDKIZQ","","293.10000002384186","img/food1.png","76","293.69999998807907","3","1","2","2","1,0.5,0,1,0.5,0,0.5,0,1","0.5,0,1,0.5,0,1,0,1,0.5","2","false",""
"","html-keyboard-response","233","147209","0.0-254.0","3AAJC4I4FHEFIIONOHRGDW7TKBAJZV","AVHCKUAE3WDZM","3ECKRY5B1QIH1N6NFX1ECCW5ZDKIZQ","","null","<img src=""img/food1.png"" style=""width:200px; border:14px solid green;"">","null","","","","","","","","","",""
"","image-keyboard-response","234","147990","0.0-256.0","3AAJC4I4FHEFIIONOHRGDW7TKBAJZV","AVHCKUAE3WDZM","3ECKRY5B1QIH1N6NFX1ECCW5ZDKIZQ","","779.2000000476837","img/food5.png","76","780.3000000119209","3","1","1","2","1,0.5,0,1,0.5,0,0.5,0,1","0.5,0,1,0.5,0,1,0,1,0.5","2","false",""
"","html-keyboard-response","235","148299","0.0-257.0","3AAJC4I4FHEFIIONOHRGDW7TKBAJZV","AVHCKUAE3WDZM","3ECKRY5B1QIH1N6NFX1ECCW5ZDKIZQ","","null","<img src=""img/food5.png"" style=""width:200px; border:14px solid green;"">","null","","","","","","","","","",""
"","image-keyboard-response","236","148848","0.0-259.0","3AAJC4I4FHEFIIONOHRGDW7TKBAJZV","AVHCKUAE3WDZM","3ECKRY5B1QIH1N6NFX1ECCW5ZDKIZQ","","548.3999999761581","img/food1.png","76","549.1000000238419","3","1","2","2","1,0.5,0,1,0.5,0,0.5,0,1","0.5,0,1,0.5,0,1,0,1,0.5","2","false",""
"","html-keyboard-response","237","149151","0.0-260.0","3AAJC4I4FHEFIIONOHRGDW7TKBAJZV","AVHCKUAE3WDZM","3ECKRY5B1QIH1N6NFX1ECCW5ZDKIZQ","","null","<img src=""img/food1.png"" style=""width:200px; border:14px solid green;"">","null","","","","","","","","","",""
"","image-keyboard-response","238","149436","0.0-262.0","3AAJC4I4FHEFIIONOHRGDW7TKBAJZV","AVHCKUAE3WDZM","3ECKRY5B1QIH1N6NFX1ECCW5ZDKIZQ","","284.5999999642372","img/food4.png","76","285.30000001192093","3","0","3","2","1,0.5,0,1,0.5,0,0.5,0,1","0.5,0,1,0.5,0,1,0,1,0.5","2","false",""
"","html-keyboard-response","239","149738","0.0-263.0","3AAJC4I4FHEFIIONOHRGDW7TKBAJZV","AVHCKUAE3WDZM","3ECKRY5B1QIH1N6NFX1ECCW5ZDKIZQ","","null","<img src=""img/food4.png"" style=""width:200px;border:14px solid red;"">","null","","","","","","","","","",""
"","image-keyboard-response","240","150120","0.0-265.0","3AAJC4I4FHEFIIONOHRGDW7TKBAJZV","AVHCKUAE3WDZM","3ECKRY5B1QIH1N6NFX1ECCW5ZDKIZQ","","380.19999998807907","img/food5.png","76","382","3","1","1","2","1,0.5,0,1,0.5,0,0.5,0,1","0.5,0,1,0.5,0,1,0,1,0.5","2","false",""
"","html-keyboard-response","241","150424","0.0-266.0","3AAJC4I4FHEFIIONOHRGDW7TKBAJZV","AVHCKUAE3WDZM","3ECKRY5B1QIH1N6NFX1ECCW5ZDKIZQ","","null","<img src=""img/food5.png"" style=""width:200px; border:14px solid green;"">","null","","","","","","","","","",""
"","image-keyboard-response","242","150940","0.0-268.0","3AAJC4I4FHEFIIONOHRGDW7TKBAJZV","AVHCKUAE3WDZM","3ECKRY5B1QIH1N6NFX1ECCW5ZDKIZQ","","514.9000000357628","img/food4.png","76","515.7999999523163","3","1","3","2","1,0.5,0,1,0.5,0,0.5,0,1","0.5,0,1,0.5,0,1,0,1,0.5","2","false",""
"","html-keyboard-response","243","151245","0.0-269.0","3AAJC4I4FHEFIIONOHRGDW7TKBAJZV","AVHCKUAE3WDZM","3ECKRY5B1QIH1N6NFX1ECCW5ZDKIZQ","","null","<img src=""img/food4.png"" style=""width:200px; border:14px solid green;"">","null","","","","","","","","","",""
"","image-keyboard-response","244","151673","0.0-271.0","3AAJC4I4FHEFIIONOHRGDW7TKBAJZV","AVHCKUAE3WDZM","3ECKRY5B1QIH1N6NFX1ECCW5ZDKIZQ","","426.69999998807907","img/food1.png","76","427.4000000357628","3","1","2","2","1,0.5,0,1,0.5,0,0.5,0,1","0.5,0,1,0.5,0,1,0,1,0.5","2","false",""
"","html-keyboard-response","245","151974","0.0-272.0","3AAJC4I4FHEFIIONOHRGDW7TKBAJZV","AVHCKUAE3WDZM","3ECKRY5B1QIH1N6NFX1ECCW5ZDKIZQ","","null","<img src=""img/food1.png"" style=""width:200px; border:14px solid green;"">","null","","","","","","","","","",""
"","image-keyboard-response","246","152229","0.0-274.0","3AAJC4I4FHEFIIONOHRGDW7TKBAJZV","AVHCKUAE3WDZM","3ECKRY5B1QIH1N6NFX1ECCW5ZDKIZQ","","254.0999999642372","img/food5.png","76","254.69999998807907","3","1","1","2","1,0.5,0,1,0.5,0,0.5,0,1","0.5,0,1,0.5,0,1,0,1,0.5","2","false",""
"","html-keyboard-response","247","152532","0.0-275.0","3AAJC4I4FHEFIIONOHRGDW7TKBAJZV","AVHCKUAE3WDZM","3ECKRY5B1QIH1N6NFX1ECCW5ZDKIZQ","","null","<img src=""img/food5.png"" style=""width:200px; border:14px solid green;"">","null","","","","","","","","","",""
"","image-keyboard-response","248","152825","0.0-277.0","3AAJC4I4FHEFIIONOHRGDW7TKBAJZV","AVHCKUAE3WDZM","3ECKRY5B1QIH1N6NFX1ECCW5ZDKIZQ","","290","img/food4.png","76","291.2999999523163","3","1","3","2","1,0.5,0,1,0.5,0,0.5,0,1","0.5,0,1,0.5,0,1,0,1,0.5","2","false",""
"","html-keyboard-response","249","153126","0.0-278.0","3AAJC4I4FHEFIIONOHRGDW7TKBAJZV","AVHCKUAE3WDZM","3ECKRY5B1QIH1N6NFX1ECCW5ZDKIZQ","","null","<img src=""img/food4.png"" style=""width:200px; border:14px solid green;"">","null","","","","","","","","","",""
"","image-keyboard-response","250","153409","0.0-280.0","3AAJC4I4FHEFIIONOHRGDW7TKBAJZV","AVHCKUAE3WDZM","3ECKRY5B1QIH1N6NFX1ECCW5ZDKIZQ","","282.0999999642372","img/food4.png","76","282.80000001192093","3","0","3","2","1,0.5,0,1,0.5,0,0.5,0,1","0.5,0,1,0.5,0,1,0,1,0.5","2","false",""
"","html-keyboard-response","251","153722","0.0-281.0","3AAJC4I4FHEFIIONOHRGDW7TKBAJZV","AVHCKUAE3WDZM","3ECKRY5B1QIH1N6NFX1ECCW5ZDKIZQ","","null","<img src=""img/food4.png"" style=""width:200px;border:14px solid red;"">","null","","","","","","","","","",""
"","image-keyboard-response","252","154361","0.0-283.0","3AAJC4I4FHEFIIONOHRGDW7TKBAJZV","AVHCKUAE3WDZM","3ECKRY5B1QIH1N6NFX1ECCW5ZDKIZQ","","637.3000000119209","img/food1.png","76","638.2000000476837","3","1","2","2","1,0.5,0,1,0.5,0,0.5,0,1","0.5,0,1,0.5,0,1,0,1,0.5","2","false",""
"","html-keyboard-response","253","154663","0.0-284.0","3AAJC4I4FHEFIIONOHRGDW7TKBAJZV","AVHCKUAE3WDZM","3ECKRY5B1QIH1N6NFX1ECCW5ZDKIZQ","","null","<img src=""img/food1.png"" style=""width:200px; border:14px solid green;"">","null","","","","","","","","","",""
"","image-keyboard-response","254","155109","0.0-286.0","3AAJC4I4FHEFIIONOHRGDW7TKBAJZV","AVHCKUAE3WDZM","3ECKRY5B1QIH1N6NFX1ECCW5ZDKIZQ","","443.4000000357628","img/food5.png","76","445.10000002384186","3","1","1","2","1,0.5,0,1,0.5,0,0.5,0,1","0.5,0,1,0.5,0,1,0,1,0.5","2","false",""
"","html-keyboard-response","255","155411","0.0-287.0","3AAJC4I4FHEFIIONOHRGDW7TKBAJZV","AVHCKUAE3WDZM","3ECKRY5B1QIH1N6NFX1ECCW5ZDKIZQ","","null","<img src=""img/food5.png"" style=""width:200px; border:14px solid green;"">","null","","","","","","","","","",""
"","image-keyboard-response","256","155811","0.0-289.0","3AAJC4I4FHEFIIONOHRGDW7TKBAJZV","AVHCKUAE3WDZM","3ECKRY5B1QIH1N6NFX1ECCW5ZDKIZQ","","399.0999999642372","img/food5.png","76","399.9000000357628","3","1","1","2","1,0.5,0,1,0.5,0,0.5,0,1","0.5,0,1,0.5,0,1,0,1,0.5","2","false",""
"","html-keyboard-response","257","156113","0.0-290.0","3AAJC4I4FHEFIIONOHRGDW7TKBAJZV","AVHCKUAE3WDZM","3ECKRY5B1QIH1N6NFX1ECCW5ZDKIZQ","","null","<img src=""img/food5.png"" style=""width:200px; border:14px solid green;"">","null","","","","","","","","","",""
"","image-keyboard-response","258","156579","0.0-292.0","3AAJC4I4FHEFIIONOHRGDW7TKBAJZV","AVHCKUAE3WDZM","3ECKRY5B1QIH1N6NFX1ECCW5ZDKIZQ","","464.4000000357628","img/food4.png","75","465.19999998807907","2","1","3","2","1,0.5,0,1,0.5,0,0.5,0,1","0.5,0,1,0.5,0,1,0,1,0.5","2","false",""
"","html-keyboard-response","259","156881","0.0-293.0","3AAJC4I4FHEFIIONOHRGDW7TKBAJZV","AVHCKUAE3WDZM","3ECKRY5B1QIH1N6NFX1ECCW5ZDKIZQ","","null","<img src=""img/food4.png"" style=""width:200px; border:14px solid green;"">","null","","","","","","","","","",""
"","image-keyboard-response","260","157335","0.0-295.0","3AAJC4I4FHEFIIONOHRGDW7TKBAJZV","AVHCKUAE3WDZM","3ECKRY5B1QIH1N6NFX1ECCW5ZDKIZQ","","450.89999997615814","img/food1.png","76","452.80000001192093","3","1","2","2","1,0.5,0,1,0.5,0,0.5,0,1","0.5,0,1,0.5,0,1,0,1,0.5","2","false",""
"","html-keyboard-response","261","157638","0.0-296.0","3AAJC4I4FHEFIIONOHRGDW7TKBAJZV","AVHCKUAE3WDZM","3ECKRY5B1QIH1N6NFX1ECCW5ZDKIZQ","","null","<img src=""img/food1.png"" style=""width:200px; border:14px solid green;"">","null","","","","","","","","","",""
"","image-keyboard-response","262","157873","0.0-298.0","3AAJC4I4FHEFIIONOHRGDW7TKBAJZV","AVHCKUAE3WDZM","3ECKRY5B1QIH1N6NFX1ECCW5ZDKIZQ","","233.9000000357628","img/food4.png","76","234.69999998807907","3","1","3","2","1,0.5,0,1,0.5,0,0.5,0,1","0.5,0,1,0.5,0,1,0,1,0.5","2","false",""
"","html-keyboard-response","263","158174","0.0-299.0","3AAJC4I4FHEFIIONOHRGDW7TKBAJZV","AVHCKUAE3WDZM","3ECKRY5B1QIH1N6NFX1ECCW5ZDKIZQ","","null","<img src=""img/food4.png"" style=""width:200px; border:14px solid green;"">","null","","","","","","","","","",""
"","image-keyboard-response","264","158669","0.0-301.0","3AAJC4I4FHEFIIONOHRGDW7TKBAJZV","AVHCKUAE3WDZM","3ECKRY5B1QIH1N6NFX1ECCW5ZDKIZQ","","493","img/food4.png","75","494.2999999523163","2","1","3","2","1,0.5,0,1,0.5,0,0.5,0,1","0.5,0,1,0.5,0,1,0,1,0.5","2","false",""
"","html-keyboard-response","265","158973","0.0-302.0","3AAJC4I4FHEFIIONOHRGDW7TKBAJZV","AVHCKUAE3WDZM","3ECKRY5B1QIH1N6NFX1ECCW5ZDKIZQ","","null","<img src=""img/food4.png"" style=""width:200px; border:14px solid green;"">","null","","","","","","","","","",""
"","image-keyboard-response","266","159437","0.0-304.0","3AAJC4I4FHEFIIONOHRGDW7TKBAJZV","AVHCKUAE3WDZM","3ECKRY5B1QIH1N6NFX1ECCW5ZDKIZQ","","460.10000002384186","img/food1.png","76","462.5","3","1","2","2","1,0.5,0,1,0.5,0,0.5,0,1","0.5,0,1,0.5,0,1,0,1,0.5","2","false",""
"","html-keyboard-response","267","159740","0.0-305.0","3AAJC4I4FHEFIIONOHRGDW7TKBAJZV","AVHCKUAE3WDZM","3ECKRY5B1QIH1N6NFX1ECCW5ZDKIZQ","","null","<img src=""img/food1.png"" style=""width:200px; border:14px solid green;"">","null","","","","","","","","","",""
"","image-keyboard-response","268","160333","0.0-307.0","3AAJC4I4FHEFIIONOHRGDW7TKBAJZV","AVHCKUAE3WDZM","3ECKRY5B1QIH1N6NFX1ECCW5ZDKIZQ","","590.3000000119209","img/food4.png","75","591.7000000476837","2","1","3","2","1,0.5,0,1,0.5,0,0.5,0,1","0.5,0,1,0.5,0,1,0,1,0.5","2","false",""
"","html-keyboard-response","269","160635","0.0-308.0","3AAJC4I4FHEFIIONOHRGDW7TKBAJZV","AVHCKUAE3WDZM","3ECKRY5B1QIH1N6NFX1ECCW5ZDKIZQ","","null","<img src=""img/food4.png"" style=""width:200px; border:14px solid green;"">","null","","","","","","","","","",""
"","image-keyboard-response","270","160994","0.0-310.0","3AAJC4I4FHEFIIONOHRGDW7TKBAJZV","AVHCKUAE3WDZM","3ECKRY5B1QIH1N6NFX1ECCW5ZDKIZQ","","356.60000002384186","img/food1.png","76","358.19999998807907","3","1","2","2","1,0.5,0,1,0.5,0,0.5,0,1","0.5,0,1,0.5,0,1,0,1,0.5","2","false",""
"","html-keyboard-response","271","161297","0.0-311.0","3AAJC4I4FHEFIIONOHRGDW7TKBAJZV","AVHCKUAE3WDZM","3ECKRY5B1QIH1N6NFX1ECCW5ZDKIZQ","","null","<img src=""img/food1.png"" style=""width:200px; border:14px solid green;"">","null","","","","","","","","","",""
"","image-keyboard-response","272","161616","0.0-313.0","3AAJC4I4FHEFIIONOHRGDW7TKBAJZV","AVHCKUAE3WDZM","3ECKRY5B1QIH1N6NFX1ECCW5ZDKIZQ","","317.5","img/food4.png","76","318.60000002384186","3","0","3","2","1,0.5,0,1,0.5,0,0.5,0,1","0.5,0,1,0.5,0,1,0,1,0.5","2","false",""
"","html-keyboard-response","273","161918","0.0-314.0","3AAJC4I4FHEFIIONOHRGDW7TKBAJZV","AVHCKUAE3WDZM","3ECKRY5B1QIH1N6NFX1ECCW5ZDKIZQ","","null","<img src=""img/food4.png"" style=""width:200px;border:14px solid red;"">","null","","","","","","","","","",""
"","image-keyboard-response","274","162348","0.0-316.0","3AAJC4I4FHEFIIONOHRGDW7TKBAJZV","AVHCKUAE3WDZM","3ECKRY5B1QIH1N6NFX1ECCW5ZDKIZQ","","429.19999998807907","img/food5.png","76","430.10000002384186","3","1","1","2","1,0.5,0,1,0.5,0,0.5,0,1","0.5,0,1,0.5,0,1,0,1,0.5","2","false",""
"","html-keyboard-response","275","162650","0.0-317.0","3AAJC4I4FHEFIIONOHRGDW7TKBAJZV","AVHCKUAE3WDZM","3ECKRY5B1QIH1N6NFX1ECCW5ZDKIZQ","","null","<img src=""img/food5.png"" style=""width:200px; border:14px solid green;"">","null","","","","","","","","","",""
"","image-keyboard-response","276","163072","0.0-319.0","3AAJC4I4FHEFIIONOHRGDW7TKBAJZV","AVHCKUAE3WDZM","3ECKRY5B1QIH1N6NFX1ECCW5ZDKIZQ","","420.5","img/food1.png","76","421.80000001192093","3","1","2","2","1,0.5,0,1,0.5,0,0.5,0,1","0.5,0,1,0.5,0,1,0,1,0.5","2","false",""
"","html-keyboard-response","277","163375","0.0-320.0","3AAJC4I4FHEFIIONOHRGDW7TKBAJZV","AVHCKUAE3WDZM","3ECKRY5B1QIH1N6NFX1ECCW5ZDKIZQ","","null","<img src=""img/food1.png"" style=""width:200px; border:14px solid green;"">","null","","","","","","","","","",""
"","image-keyboard-response","278","163732","0.0-322.0","3AAJC4I4FHEFIIONOHRGDW7TKBAJZV","AVHCKUAE3WDZM","3ECKRY5B1QIH1N6NFX1ECCW5ZDKIZQ","","356","img/food1.png","76","357.60000002384186","3","1","2","2","1,0.5,0,1,0.5,0,0.5,0,1","0.5,0,1,0.5,0,1,0,1,0.5","2","false",""
"","html-keyboard-response","279","164036","0.0-323.0","3AAJC4I4FHEFIIONOHRGDW7TKBAJZV","AVHCKUAE3WDZM","3ECKRY5B1QIH1N6NFX1ECCW5ZDKIZQ","","null","<img src=""img/food1.png"" style=""width:200px; border:14px solid green;"">","null","","","","","","","","","",""
"","image-keyboard-response","280","164362","0.0-325.0","3AAJC4I4FHEFIIONOHRGDW7TKBAJZV","AVHCKUAE3WDZM","3ECKRY5B1QIH1N6NFX1ECCW5ZDKIZQ","","324.10000002384186","img/food1.png","76","325.60000002384186","3","1","2","2","1,0.5,0,1,0.5,0,0.5,0,1","0.5,0,1,0.5,0,1,0,1,0.5","2","false",""
"","html-keyboard-response","281","164665","0.0-326.0","3AAJC4I4FHEFIIONOHRGDW7TKBAJZV","AVHCKUAE3WDZM","3ECKRY5B1QIH1N6NFX1ECCW5ZDKIZQ","","null","<img src=""img/food1.png"" style=""width:200px; border:14px solid green;"">","null","","","","","","","","","",""
"","image-keyboard-response","282","165455","0.0-328.0","3AAJC4I4FHEFIIONOHRGDW7TKBAJZV","AVHCKUAE3WDZM","3ECKRY5B1QIH1N6NFX1ECCW5ZDKIZQ","","789.5999999642372","img/food5.png","76","790.6000000238419","3","1","1","2","1,0.5,0,1,0.5,0,0.5,0,1","0.5,0,1,0.5,0,1,0,1,0.5","2","false",""
"","html-keyboard-response","283","165757","0.0-329.0","3AAJC4I4FHEFIIONOHRGDW7TKBAJZV","AVHCKUAE3WDZM","3ECKRY5B1QIH1N6NFX1ECCW5ZDKIZQ","","null","<img src=""img/food5.png"" style=""width:200px; border:14px solid green;"">","null","","","","","","","","","",""
"","image-keyboard-response","284","166045","0.0-331.0","3AAJC4I4FHEFIIONOHRGDW7TKBAJZV","AVHCKUAE3WDZM","3ECKRY5B1QIH1N6NFX1ECCW5ZDKIZQ","","287.0999999642372","img/food5.png","76","287.69999998807907","3","1","1","2","1,0.5,0,1,0.5,0,0.5,0,1","0.5,0,1,0.5,0,1,0,1,0.5","2","false",""
"","html-keyboard-response","285","166348","0.0-332.0","3AAJC4I4FHEFIIONOHRGDW7TKBAJZV","AVHCKUAE3WDZM","3ECKRY5B1QIH1N6NFX1ECCW5ZDKIZQ","","null","<img src=""img/food5.png"" style=""width:200px; border:14px solid green;"">","null","","","","","","","","","",""
"","image-keyboard-response","286","166768","0.0-334.0","3AAJC4I4FHEFIIONOHRGDW7TKBAJZV","AVHCKUAE3WDZM","3ECKRY5B1QIH1N6NFX1ECCW5ZDKIZQ","","416.7999999523163","img/food1.png","76","419.5","3","1","2","2","1,0.5,0,1,0.5,0,0.5,0,1","0.5,0,1,0.5,0,1,0,1,0.5","2","false",""
"","html-keyboard-response","287","167073","0.0-335.0","3AAJC4I4FHEFIIONOHRGDW7TKBAJZV","AVHCKUAE3WDZM","3ECKRY5B1QIH1N6NFX1ECCW5ZDKIZQ","","null","<img src=""img/food1.png"" style=""width:200px; border:14px solid green;"">","null","","","","","","","","","",""
"","image-keyboard-response","288","167488","0.0-337.0","3AAJC4I4FHEFIIONOHRGDW7TKBAJZV","AVHCKUAE3WDZM","3ECKRY5B1QIH1N6NFX1ECCW5ZDKIZQ","","413.69999998807907","img/food4.png","75","415.2999999523163","2","1","3","2","1,0.5,0,1,0.5,0,0.5,0,1","0.5,0,1,0.5,0,1,0,1,0.5","2","false",""
"","html-keyboard-response","289","167792","0.0-338.0","3AAJC4I4FHEFIIONOHRGDW7TKBAJZV","AVHCKUAE3WDZM","3ECKRY5B1QIH1N6NFX1ECCW5ZDKIZQ","","null","<img src=""img/food4.png"" style=""width:200px; border:14px solid green;"">","null","","","","","","","","","",""
"","image-keyboard-response","290","168125","0.0-340.0","3AAJC4I4FHEFIIONOHRGDW7TKBAJZV","AVHCKUAE3WDZM","3ECKRY5B1QIH1N6NFX1ECCW5ZDKIZQ","","331.89999997615814","img/food1.png","76","332.89999997615814","3","1","2","2","1,0.5,0,1,0.5,0,0.5,0,1","0.5,0,1,0.5,0,1,0,1,0.5","2","false",""
"","html-keyboard-response","291","168428","0.0-341.0","3AAJC4I4FHEFIIONOHRGDW7TKBAJZV","AVHCKUAE3WDZM","3ECKRY5B1QIH1N6NFX1ECCW5ZDKIZQ","","null","<img src=""img/food1.png"" style=""width:200px; border:14px solid green;"">","null","","","","","","","","","",""
"","image-keyboard-response","292","168670","0.0-343.0","3AAJC4I4FHEFIIONOHRGDW7TKBAJZV","AVHCKUAE3WDZM","3ECKRY5B1QIH1N6NFX1ECCW5ZDKIZQ","","242","img/food5.png","76","242.5","3","1","1","2","1,0.5,0,1,0.5,0,0.5,0,1","0.5,0,1,0.5,0,1,0,1,0.5","2","false",""
"","html-keyboard-response","293","168973","0.0-344.0","3AAJC4I4FHEFIIONOHRGDW7TKBAJZV","AVHCKUAE3WDZM","3ECKRY5B1QIH1N6NFX1ECCW5ZDKIZQ","","null","<img src=""img/food5.png"" style=""width:200px; border:14px solid green;"">","null","","","","","","","","","",""
"","image-keyboard-response","294","169365","0.0-346.0","3AAJC4I4FHEFIIONOHRGDW7TKBAJZV","AVHCKUAE3WDZM","3ECKRY5B1QIH1N6NFX1ECCW5ZDKIZQ","","390","img/food1.png","76","391.80000001192093","3","1","2","2","1,0.5,0,1,0.5,0,0.5,0,1","0.5,0,1,0.5,0,1,0,1,0.5","2","false",""
"","html-keyboard-response","295","169669","0.0-347.0","3AAJC4I4FHEFIIONOHRGDW7TKBAJZV","AVHCKUAE3WDZM","3ECKRY5B1QIH1N6NFX1ECCW5ZDKIZQ","","null","<img src=""img/food1.png"" style=""width:200px; border:14px solid green;"">","null","","","","","","","","","",""
"","image-keyboard-response","296","170184","0.0-349.0","3AAJC4I4FHEFIIONOHRGDW7TKBAJZV","AVHCKUAE3WDZM","3ECKRY5B1QIH1N6NFX1ECCW5ZDKIZQ","","513.3000000119209","img/food4.png","75","514.7000000476837","2","1","3","2","1,0.5,0,1,0.5,0,0.5,0,1","0.5,0,1,0.5,0,1,0,1,0.5","2","false",""
"","html-keyboard-response","297","170487","0.0-350.0","3AAJC4I4FHEFIIONOHRGDW7TKBAJZV","AVHCKUAE3WDZM","3ECKRY5B1QIH1N6NFX1ECCW5ZDKIZQ","","null","<img src=""img/food4.png"" style=""width:200px; border:14px solid green;"">","null","","","","","","","","","",""
"","image-keyboard-response","298","170862","0.0-352.0","3AAJC4I4FHEFIIONOHRGDW7TKBAJZV","AVHCKUAE3WDZM","3ECKRY5B1QIH1N6NFX1ECCW5ZDKIZQ","","373.30000001192093","img/food4.png","75","374.19999998807907","2","1","3","2","1,0.5,0,1,0.5,0,0.5,0,1","0.5,0,1,0.5,0,1,0,1,0.5","2","false",""
"","html-keyboard-response","299","171164","0.0-353.0","3AAJC4I4FHEFIIONOHRGDW7TKBAJZV","AVHCKUAE3WDZM","3ECKRY5B1QIH1N6NFX1ECCW5ZDKIZQ","","null","<img src=""img/food4.png"" style=""width:200px; border:14px solid green;"">","null","","","","","","","","","",""
"","image-keyboard-response","300","171505","0.0-355.0","3AAJC4I4FHEFIIONOHRGDW7TKBAJZV","AVHCKUAE3WDZM","3ECKRY5B1QIH1N6NFX1ECCW5ZDKIZQ","","340","img/food1.png","76","340.9000000357628","3","1","2","2","1,0.5,0,1,0.5,0,0.5,0,1","0.5,0,1,0.5,0,1,0,1,0.5","2","false",""
"","html-keyboard-response","301","171807","0.0-356.0","3AAJC4I4FHEFIIONOHRGDW7TKBAJZV","AVHCKUAE3WDZM","3ECKRY5B1QIH1N6NFX1ECCW5ZDKIZQ","","null","<img src=""img/food1.png"" style=""width:200px; border:14px solid green;"">","null","","","","","","","","","",""
"","image-keyboard-response","302","172053","0.0-358.0","3AAJC4I4FHEFIIONOHRGDW7TKBAJZV","AVHCKUAE3WDZM","3ECKRY5B1QIH1N6NFX1ECCW5ZDKIZQ","","244.0999999642372","img/food4.png","76","245.5","3","0","3","2","1,0.5,0,1,0.5,0,0.5,0,1","0.5,0,1,0.5,0,1,0,1,0.5","2","false",""
"","html-keyboard-response","303","172356","0.0-359.0","3AAJC4I4FHEFIIONOHRGDW7TKBAJZV","AVHCKUAE3WDZM","3ECKRY5B1QIH1N6NFX1ECCW5ZDKIZQ","","null","<img src=""img/food4.png"" style=""width:200px;border:14px solid red;"">","null","","","","","","","","","",""
"","image-keyboard-response","304","172783","0.0-361.0","3AAJC4I4FHEFIIONOHRGDW7TKBAJZV","AVHCKUAE3WDZM","3ECKRY5B1QIH1N6NFX1ECCW5ZDKIZQ","","426.5","img/food1.png","76","427.30000001192093","3","1","2","2","1,0.5,0,1,0.5,0,0.5,0,1","0.5,0,1,0.5,0,1,0,1,0.5","2","false",""
"","html-keyboard-response","305","173085","0.0-362.0","3AAJC4I4FHEFIIONOHRGDW7TKBAJZV","AVHCKUAE3WDZM","3ECKRY5B1QIH1N6NFX1ECCW5ZDKIZQ","","null","<img src=""img/food1.png"" style=""width:200px; border:14px solid green;"">","null","","","","","","","","","",""
"","image-keyboard-response","306","173526","0.0-364.0","3AAJC4I4FHEFIIONOHRGDW7TKBAJZV","AVHCKUAE3WDZM","3ECKRY5B1QIH1N6NFX1ECCW5ZDKIZQ","","439.69999998807907","img/food5.png","76","441","3","1","1","2","1,0.5,0,1,0.5,0,0.5,0,1","0.5,0,1,0.5,0,1,0,1,0.5","2","false",""
"","html-keyboard-response","307","173829","0.0-365.0","3AAJC4I4FHEFIIONOHRGDW7TKBAJZV","AVHCKUAE3WDZM","3ECKRY5B1QIH1N6NFX1ECCW5ZDKIZQ","","null","<img src=""img/food5.png"" style=""width:200px; border:14px solid green;"">","null","","","","","","","","","",""
"","image-keyboard-response","308","174299","0.0-367.0","3AAJC4I4FHEFIIONOHRGDW7TKBAJZV","AVHCKUAE3WDZM","3ECKRY5B1QIH1N6NFX1ECCW5ZDKIZQ","","467.69999998807907","img/food4.png","75","469","2","1","3","2","1,0.5,0,1,0.5,0,0.5,0,1","0.5,0,1,0.5,0,1,0,1,0.5","2","false",""
"","html-keyboard-response","309","174604","0.0-368.0","3AAJC4I4FHEFIIONOHRGDW7TKBAJZV","AVHCKUAE3WDZM","3ECKRY5B1QIH1N6NFX1ECCW5ZDKIZQ","","null","<img src=""img/food4.png"" style=""width:200px; border:14px solid green;"">","null","","","","","","","","","",""
"","image-keyboard-response","310","175011","0.0-370.0","3AAJC4I4FHEFIIONOHRGDW7TKBAJZV","AVHCKUAE3WDZM","3ECKRY5B1QIH1N6NFX1ECCW5ZDKIZQ","","405.10000002384186","img/food4.png","75","405.89999997615814","2","1","3","2","1,0.5,0,1,0.5,0,0.5,0,1","0.5,0,1,0.5,0,1,0,1,0.5","2","false",""
"","html-keyboard-response","311","175323","0.0-371.0","3AAJC4I4FHEFIIONOHRGDW7TKBAJZV","AVHCKUAE3WDZM","3ECKRY5B1QIH1N6NFX1ECCW5ZDKIZQ","","null","<img src=""img/food4.png"" style=""width:200px; border:14px solid green;"">","null","","","","","","","","","",""
"","image-keyboard-response","312","175656","0.0-373.0","3AAJC4I4FHEFIIONOHRGDW7TKBAJZV","AVHCKUAE3WDZM","3ECKRY5B1QIH1N6NFX1ECCW5ZDKIZQ","","331.7000000476837","img/food4.png","75","332.5","2","1","3","2","1,0.5,0,1,0.5,0,0.5,0,1","0.5,0,1,0.5,0,1,0,1,0.5","2","false",""
"","html-keyboard-response","313","175958","0.0-374.0","3AAJC4I4FHEFIIONOHRGDW7TKBAJZV","AVHCKUAE3WDZM","3ECKRY5B1QIH1N6NFX1ECCW5ZDKIZQ","","null","<img src=""img/food4.png"" style=""width:200px; border:14px solid green;"">","null","","","","","","","","","",""
"","image-keyboard-response","314","176298","0.0-376.0","3AAJC4I4FHEFIIONOHRGDW7TKBAJZV","AVHCKUAE3WDZM","3ECKRY5B1QIH1N6NFX1ECCW5ZDKIZQ","","338.30000001192093","img/food4.png","75","339.60000002384186","2","1","3","2","1,0.5,0,1,0.5,0,0.5,0,1","0.5,0,1,0.5,0,1,0,1,0.5","2","false",""
"","html-keyboard-response","315","176602","0.0-377.0","3AAJC4I4FHEFIIONOHRGDW7TKBAJZV","AVHCKUAE3WDZM","3ECKRY5B1QIH1N6NFX1ECCW5ZDKIZQ","","null","<img src=""img/food4.png"" style=""width:200px; border:14px solid green;"">","null","","","","","","","","","",""
"","image-keyboard-response","316","176997","0.0-379.0","3AAJC4I4FHEFIIONOHRGDW7TKBAJZV","AVHCKUAE3WDZM","3ECKRY5B1QIH1N6NFX1ECCW5ZDKIZQ","","394.60000002384186","img/food1.png","76","395.5","3","1","2","2","1,0.5,0,1,0.5,0,0.5,0,1","0.5,0,1,0.5,0,1,0,1,0.5","2","false",""
"","html-keyboard-response","317","177299","0.0-380.0","3AAJC4I4FHEFIIONOHRGDW7TKBAJZV","AVHCKUAE3WDZM","3ECKRY5B1QIH1N6NFX1ECCW5ZDKIZQ","","null","<img src=""img/food1.png"" style=""width:200px; border:14px solid green;"">","null","","","","","","","","","",""
"","image-keyboard-response","318","177550","0.0-382.0","3AAJC4I4FHEFIIONOHRGDW7TKBAJZV","AVHCKUAE3WDZM","3ECKRY5B1QIH1N6NFX1ECCW5ZDKIZQ","","250.29999995231628","img/food4.png","76","251","3","1","3","2","1,0.5,0,1,0.5,0,0.5,0,1","0.5,0,1,0.5,0,1,0,1,0.5","2","false",""
"","html-keyboard-response","319","177852","0.0-383.0","3AAJC4I4FHEFIIONOHRGDW7TKBAJZV","AVHCKUAE3WDZM","3ECKRY5B1QIH1N6NFX1ECCW5ZDKIZQ","","null","<img src=""img/food4.png"" style=""width:200px; border:14px solid green;"">","null","","","","","","","","","",""
"","image-keyboard-response","320","178280","0.0-385.0","3AAJC4I4FHEFIIONOHRGDW7TKBAJZV","AVHCKUAE3WDZM","3ECKRY5B1QIH1N6NFX1ECCW5ZDKIZQ","","426.60000002384186","img/food1.png","76","427.4000000357628","3","1","2","2","1,0.5,0,1,0.5,0,0.5,0,1","0.5,0,1,0.5,0,1,0,1,0.5","2","false",""
"","html-keyboard-response","321","178583","0.0-386.0","3AAJC4I4FHEFIIONOHRGDW7TKBAJZV","AVHCKUAE3WDZM","3ECKRY5B1QIH1N6NFX1ECCW5ZDKIZQ","","null","<img src=""img/food1.png"" style=""width:200px; border:14px solid green;"">","null","","","","","","","","","",""
"","image-keyboard-response","322","179024","0.0-388.0","3AAJC4I4FHEFIIONOHRGDW7TKBAJZV","AVHCKUAE3WDZM","3ECKRY5B1QIH1N6NFX1ECCW5ZDKIZQ","","440.19999998807907","img/food5.png","75","441.39999997615814","2","0","1","2","1,0.5,0,1,0.5,0,0.5,0,1","0.5,0,1,0.5,0,1,0,1,0.5","2","false",""
"","html-keyboard-response","323","179327","0.0-389.0","3AAJC4I4FHEFIIONOHRGDW7TKBAJZV","AVHCKUAE3WDZM","3ECKRY5B1QIH1N6NFX1ECCW5ZDKIZQ","","null","<img src=""img/food5.png"" style=""width:200px;border:14px solid red;"">","null","","","","","","","","","",""
"","image-keyboard-response","324","179904","0.0-391.0","3AAJC4I4FHEFIIONOHRGDW7TKBAJZV","AVHCKUAE3WDZM","3ECKRY5B1QIH1N6NFX1ECCW5ZDKIZQ","","576.3999999761581","img/food1.png","76","577.1999999880791","3","1","2","2","1,0.5,0,1,0.5,0,0.5,0,1","0.5,0,1,0.5,0,1,0,1,0.5","2","false",""
"","html-keyboard-response","325","180206","0.0-392.0","3AAJC4I4FHEFIIONOHRGDW7TKBAJZV","AVHCKUAE3WDZM","3ECKRY5B1QIH1N6NFX1ECCW5ZDKIZQ","","null","<img src=""img/food1.png"" style=""width:200px; border:14px solid green;"">","null","","","","","","","","","",""
"","image-keyboard-response","326","180656","0.0-394.0","3AAJC4I4FHEFIIONOHRGDW7TKBAJZV","AVHCKUAE3WDZM","3ECKRY5B1QIH1N6NFX1ECCW5ZDKIZQ","","449.2999999523163","img/food4.png","75","450","2","1","3","2","1,0.5,0,1,0.5,0,0.5,0,1","0.5,0,1,0.5,0,1,0,1,0.5","2","false",""
"","html-keyboard-response","327","180958","0.0-395.0","3AAJC4I4FHEFIIONOHRGDW7TKBAJZV","AVHCKUAE3WDZM","3ECKRY5B1QIH1N6NFX1ECCW5ZDKIZQ","","null","<img src=""img/food4.png"" style=""width:200px; border:14px solid green;"">","null","","","","","","","","","",""
"","image-keyboard-response","328","181230","0.0-397.0","3AAJC4I4FHEFIIONOHRGDW7TKBAJZV","AVHCKUAE3WDZM","3ECKRY5B1QIH1N6NFX1ECCW5ZDKIZQ","","270.19999998807907","img/food5.png","76","271.4000000357628","3","1","1","2","1,0.5,0,1,0.5,0,0.5,0,1","0.5,0,1,0.5,0,1,0,1,0.5","2","false",""
"","html-keyboard-response","329","181532","0.0-398.0","3AAJC4I4FHEFIIONOHRGDW7TKBAJZV","AVHCKUAE3WDZM","3ECKRY5B1QIH1N6NFX1ECCW5ZDKIZQ","","null","<img src=""img/food5.png"" style=""width:200px; border:14px solid green;"">","null","","","","","","","","","",""
"","image-keyboard-response","330","182022","0.0-400.0","3AAJC4I4FHEFIIONOHRGDW7TKBAJZV","AVHCKUAE3WDZM","3ECKRY5B1QIH1N6NFX1ECCW5ZDKIZQ","","488.69999998807907","img/food4.png","75","489.5999999642372","2","1","3","2","1,0.5,0,1,0.5,0,0.5,0,1","0.5,0,1,0.5,0,1,0,1,0.5","2","false",""
"","html-keyboard-response","331","182325","0.0-401.0","3AAJC4I4FHEFIIONOHRGDW7TKBAJZV","AVHCKUAE3WDZM","3ECKRY5B1QIH1N6NFX1ECCW5ZDKIZQ","","null","<img src=""img/food4.png"" style=""width:200px; border:14px solid green;"">","null","","","","","","","","","",""
"","image-keyboard-response","332","182649","0.0-403.0","3AAJC4I4FHEFIIONOHRGDW7TKBAJZV","AVHCKUAE3WDZM","3ECKRY5B1QIH1N6NFX1ECCW5ZDKIZQ","","323.19999998807907","img/food1.png","76","324.19999998807907","3","1","2","2","1,0.5,0,1,0.5,0,0.5,0,1","0.5,0,1,0.5,0,1,0,1,0.5","2","false",""
"","html-keyboard-response","333","182956","0.0-404.0","3AAJC4I4FHEFIIONOHRGDW7TKBAJZV","AVHCKUAE3WDZM","3ECKRY5B1QIH1N6NFX1ECCW5ZDKIZQ","","null","<img src=""img/food1.png"" style=""width:200px; border:14px solid green;"">","null","","","","","","","","","",""
"","image-keyboard-response","334","183331","0.0-406.0","3AAJC4I4FHEFIIONOHRGDW7TKBAJZV","AVHCKUAE3WDZM","3ECKRY5B1QIH1N6NFX1ECCW5ZDKIZQ","","374.2000000476837","img/food1.png","76","374.89999997615814","3","1","2","2","1,0.5,0,1,0.5,0,0.5,0,1","0.5,0,1,0.5,0,1,0,1,0.5","2","false",""
"","html-keyboard-response","335","183633","0.0-407.0","3AAJC4I4FHEFIIONOHRGDW7TKBAJZV","AVHCKUAE3WDZM","3ECKRY5B1QIH1N6NFX1ECCW5ZDKIZQ","","null","<img src=""img/food1.png"" style=""width:200px; border:14px solid green;"">","null","","","","","","","","","",""
"","image-keyboard-response","336","183969","0.0-409.0","3AAJC4I4FHEFIIONOHRGDW7TKBAJZV","AVHCKUAE3WDZM","3ECKRY5B1QIH1N6NFX1ECCW5ZDKIZQ","","335.39999997615814","img/food1.png","76","336.19999998807907","3","1","2","2","1,0.5,0,1,0.5,0,0.5,0,1","0.5,0,1,0.5,0,1,0,1,0.5","2","false",""
"","html-keyboard-response","337","184277","0.0-410.0","3AAJC4I4FHEFIIONOHRGDW7TKBAJZV","AVHCKUAE3WDZM","3ECKRY5B1QIH1N6NFX1ECCW5ZDKIZQ","","null","<img src=""img/food1.png"" style=""width:200px; border:14px solid green;"">","null","","","","","","","","","",""
"","image-keyboard-response","338","184714","0.0-412.0","3AAJC4I4FHEFIIONOHRGDW7TKBAJZV","AVHCKUAE3WDZM","3ECKRY5B1QIH1N6NFX1ECCW5ZDKIZQ","","436.39999997615814","img/food5.png","75","437.19999998807907","2","0","1","2","1,0.5,0,1,0.5,0,0.5,0,1","0.5,0,1,0.5,0,1,0,1,0.5","2","false",""
"","html-keyboard-response","339","185017","0.0-413.0","3AAJC4I4FHEFIIONOHRGDW7TKBAJZV","AVHCKUAE3WDZM","3ECKRY5B1QIH1N6NFX1ECCW5ZDKIZQ","","null","<img src=""img/food5.png"" style=""width:200px;border:14px solid red;"">","null","","","","","","","","","",""
"","image-keyboard-response","340","185536","0.0-415.0","3AAJC4I4FHEFIIONOHRGDW7TKBAJZV","AVHCKUAE3WDZM","3ECKRY5B1QIH1N6NFX1ECCW5ZDKIZQ","","517.8000000119209","img/food4.png","75","518.5","2","1","3","2","1,0.5,0,1,0.5,0,0.5,0,1","0.5,0,1,0.5,0,1,0,1,0.5","2","false",""
"","html-keyboard-response","341","185839","0.0-416.0","3AAJC4I4FHEFIIONOHRGDW7TKBAJZV","AVHCKUAE3WDZM","3ECKRY5B1QIH1N6NFX1ECCW5ZDKIZQ","","null","<img src=""img/food4.png"" style=""width:200px; border:14px solid green;"">","null","","","","","","","","","",""
"","image-keyboard-response","342","186288","0.0-418.0","3AAJC4I4FHEFIIONOHRGDW7TKBAJZV","AVHCKUAE3WDZM","3ECKRY5B1QIH1N6NFX1ECCW5ZDKIZQ","","448.19999998807907","img/food4.png","75","449.0999999642372","2","1","3","2","1,0.5,0,1,0.5,0,0.5,0,1","0.5,0,1,0.5,0,1,0,1,0.5","2","false",""
"","html-keyboard-response","343","186590","0.0-419.0","3AAJC4I4FHEFIIONOHRGDW7TKBAJZV","AVHCKUAE3WDZM","3ECKRY5B1QIH1N6NFX1ECCW5ZDKIZQ","","null","<img src=""img/food4.png"" style=""width:200px; border:14px solid green;"">","null","","","","","","","","","",""
"","image-keyboard-response","344","186995","0.0-421.0","3AAJC4I4FHEFIIONOHRGDW7TKBAJZV","AVHCKUAE3WDZM","3ECKRY5B1QIH1N6NFX1ECCW5ZDKIZQ","","404.10000002384186","img/food5.png","76","405","3","1","1","2","1,0.5,0,1,0.5,0,0.5,0,1","0.5,0,1,0.5,0,1,0,1,0.5","2","false",""
"","html-keyboard-response","345","187297","0.0-422.0","3AAJC4I4FHEFIIONOHRGDW7TKBAJZV","AVHCKUAE3WDZM","3ECKRY5B1QIH1N6NFX1ECCW5ZDKIZQ","","null","<img src=""img/food5.png"" style=""width:200px; border:14px solid green;"">","null","","","","","","","","","",""
"","image-keyboard-response","346","187655","0.0-424.0","3AAJC4I4FHEFIIONOHRGDW7TKBAJZV","AVHCKUAE3WDZM","3ECKRY5B1QIH1N6NFX1ECCW5ZDKIZQ","","355.89999997615814","img/food5.png","76","358.39999997615814","3","1","1","2","1,0.5,0,1,0.5,0,0.5,0,1","0.5,0,1,0.5,0,1,0,1,0.5","2","false",""
"","html-keyboard-response","347","187958","0.0-425.0","3AAJC4I4FHEFIIONOHRGDW7TKBAJZV","AVHCKUAE3WDZM","3ECKRY5B1QIH1N6NFX1ECCW5ZDKIZQ","","null","<img src=""img/food5.png"" style=""width:200px; border:14px solid green;"">","null","","","","","","","","","",""
"","image-keyboard-response","348","188307","0.0-427.0","3AAJC4I4FHEFIIONOHRGDW7TKBAJZV","AVHCKUAE3WDZM","3ECKRY5B1QIH1N6NFX1ECCW5ZDKIZQ","","347.0999999642372","img/food5.png","76","347.89999997615814","3","1","1","2","1,0.5,0,1,0.5,0,0.5,0,1","0.5,0,1,0.5,0,1,0,1,0.5","2","false",""
"","html-keyboard-response","349","188609","0.0-428.0","3AAJC4I4FHEFIIONOHRGDW7TKBAJZV","AVHCKUAE3WDZM","3ECKRY5B1QIH1N6NFX1ECCW5ZDKIZQ","","null","<img src=""img/food5.png"" style=""width:200px; border:14px solid green;"">","null","","","","","","","","","",""
"","image-keyboard-response","350","189106","0.0-430.0","3AAJC4I4FHEFIIONOHRGDW7TKBAJZV","AVHCKUAE3WDZM","3ECKRY5B1QIH1N6NFX1ECCW5ZDKIZQ","","494.60000002384186","img/food4.png","75","496.30000001192093","2","1","3","2","1,0.5,0,1,0.5,0,0.5,0,1","0.5,0,1,0.5,0,1,0,1,0.5","2","false",""
"","html-keyboard-response","351","189409","0.0-431.0","3AAJC4I4FHEFIIONOHRGDW7TKBAJZV","AVHCKUAE3WDZM","3ECKRY5B1QIH1N6NFX1ECCW5ZDKIZQ","","null","<img src=""img/food4.png"" style=""width:200px; border:14px solid green;"">","null","","","","","","","","","",""
"","image-keyboard-response","352","189779","0.0-433.0","3AAJC4I4FHEFIIONOHRGDW7TKBAJZV","AVHCKUAE3WDZM","3ECKRY5B1QIH1N6NFX1ECCW5ZDKIZQ","","367.9000000357628","img/food4.png","75","368.80000001192093","2","1","3","2","1,0.5,0,1,0.5,0,0.5,0,1","0.5,0,1,0.5,0,1,0,1,0.5","2","false",""
"","html-keyboard-response","353","190081","0.0-434.0","3AAJC4I4FHEFIIONOHRGDW7TKBAJZV","AVHCKUAE3WDZM","3ECKRY5B1QIH1N6NFX1ECCW5ZDKIZQ","","null","<img src=""img/food4.png"" style=""width:200px; border:14px solid green;"">","null","","","","","","","","","",""
"","image-keyboard-response","354","190462","0.0-436.0","3AAJC4I4FHEFIIONOHRGDW7TKBAJZV","AVHCKUAE3WDZM","3ECKRY5B1QIH1N6NFX1ECCW5ZDKIZQ","","379.60000002384186","img/food1.png","76","380.69999998807907","3","1","2","2","1,0.5,0,1,0.5,0,0.5,0,1","0.5,0,1,0.5,0,1,0,1,0.5","2","false",""
"","html-keyboard-response","355","190765","0.0-437.0","3AAJC4I4FHEFIIONOHRGDW7TKBAJZV","AVHCKUAE3WDZM","3ECKRY5B1QIH1N6NFX1ECCW5ZDKIZQ","","null","<img src=""img/food1.png"" style=""width:200px; border:14px solid green;"">","null","","","","","","","","","",""
"","image-keyboard-response","356","191152","0.0-439.0","3AAJC4I4FHEFIIONOHRGDW7TKBAJZV","AVHCKUAE3WDZM","3ECKRY5B1QIH1N6NFX1ECCW5ZDKIZQ","","384.80000001192093","img/food5.png","76","386.19999998807907","3","1","1","2","1,0.5,0,1,0.5,0,0.5,0,1","0.5,0,1,0.5,0,1,0,1,0.5","2","false",""
"","html-keyboard-response","357","191455","0.0-440.0","3AAJC4I4FHEFIIONOHRGDW7TKBAJZV","AVHCKUAE3WDZM","3ECKRY5B1QIH1N6NFX1ECCW5ZDKIZQ","","null","<img src=""img/food5.png"" style=""width:200px; border:14px solid green;"">","null","","","","","","","","","",""
"","image-keyboard-response","358","191815","0.0-442.0","3AAJC4I4FHEFIIONOHRGDW7TKBAJZV","AVHCKUAE3WDZM","3ECKRY5B1QIH1N6NFX1ECCW5ZDKIZQ","","356.69999998807907","img/food5.png","76","359.19999998807907","3","1","1","2","1,0.5,0,1,0.5,0,0.5,0,1","0.5,0,1,0.5,0,1,0,1,0.5","2","false",""
"","html-keyboard-response","359","192118","0.0-443.0","3AAJC4I4FHEFIIONOHRGDW7TKBAJZV","AVHCKUAE3WDZM","3ECKRY5B1QIH1N6NFX1ECCW5ZDKIZQ","","null","<img src=""img/food5.png"" style=""width:200px; border:14px solid green;"">","null","","","","","","","","","",""
"","image-keyboard-response","360","192431","0.0-445.0","3AAJC4I4FHEFIIONOHRGDW7TKBAJZV","AVHCKUAE3WDZM","3ECKRY5B1QIH1N6NFX1ECCW5ZDKIZQ","","311","img/food5.png","76","312.39999997615814","3","1","1","2","1,0.5,0,1,0.5,0,0.5,0,1","0.5,0,1,0.5,0,1,0,1,0.5","2","false",""
"","html-keyboard-response","361","192734","0.0-446.0","3AAJC4I4FHEFIIONOHRGDW7TKBAJZV","AVHCKUAE3WDZM","3ECKRY5B1QIH1N6NFX1ECCW5ZDKIZQ","","null","<img src=""img/food5.png"" style=""width:200px; border:14px solid green;"">","null","","","","","","","","","",""
"","image-keyboard-response","362","193084","0.0-448.0","3AAJC4I4FHEFIIONOHRGDW7TKBAJZV","AVHCKUAE3WDZM","3ECKRY5B1QIH1N6NFX1ECCW5ZDKIZQ","","348.4000000357628","img/food5.png","76","349.39999997615814","3","1","1","2","1,0.5,0,1,0.5,0,0.5,0,1","0.5,0,1,0.5,0,1,0,1,0.5","2","false",""
"","html-keyboard-response","363","193388","0.0-449.0","3AAJC4I4FHEFIIONOHRGDW7TKBAJZV","AVHCKUAE3WDZM","3ECKRY5B1QIH1N6NFX1ECCW5ZDKIZQ","","null","<img src=""img/food5.png"" style=""width:200px; border:14px solid green;"">","null","","","","","","","","","",""
"","image-keyboard-response","364","193682","0.0-451.0","3AAJC4I4FHEFIIONOHRGDW7TKBAJZV","AVHCKUAE3WDZM","3ECKRY5B1QIH1N6NFX1ECCW5ZDKIZQ","","291.69999998807907","img/food5.png","76","293.2000000476837","3","1","1","2","1,0.5,0,1,0.5,0,0.5,0,1","0.5,0,1,0.5,0,1,0,1,0.5","2","false",""
"","html-keyboard-response","365","193984","0.0-452.0","3AAJC4I4FHEFIIONOHRGDW7TKBAJZV","AVHCKUAE3WDZM","3ECKRY5B1QIH1N6NFX1ECCW5ZDKIZQ","","null","<img src=""img/food5.png"" style=""width:200px; border:14px solid green;"">","null","","","","","","","","","",""
"","instructions","366","196214","0.0-454.0","3AAJC4I4FHEFIIONOHRGDW7TKBAJZV","AVHCKUAE3WDZM","3ECKRY5B1QIH1N6NFX1ECCW5ZDKIZQ","[{""page_index"":0,""viewing_time"":2229.399999976158}]","2229.699999988079","","","","","","","","","","","",""
"","survey-text","367","202104","0.0-455.0","3AAJC4I4FHEFIIONOHRGDW7TKBAJZV","AVHCKUAE3WDZM","3ECKRY5B1QIH1N6NFX1ECCW5ZDKIZQ","","5884.600000023842","","","","","","","","","","","","{""Q0"":""AVHCKUAE3WDZM""}"
