"success","trial_type","trial_index","time_elapsed","internal_node_id","assignmentID","mturkID","hitID","view_history","rt","stimulus","key_press","reactionTime","a","r","s","reward_cond","responses"
"true","fullscreen","0","2360","0.0-0.0","33F859I567ZN9EQHU38SF1KBCZIBH8","AW5O1RK3W60FC","379OL9DBSS0OLW3FFHTILCO0AJC9Y6","","","","","","","","","",""
"","instructions","1","52283","0.0-1.0","33F859I567ZN9EQHU38SF1KBCZIBH8","AW5O1RK3W60FC","379OL9DBSS0OLW3FFHTILCO0AJC9Y6","[{""page_index"":0,""viewing_time"":3944.1000000089407},{""page_index"":1,""viewing_time"":3007.3999999910593},{""page_index"":2,""viewing_time"":5598.600000008941},{""page_index"":3,""viewing_time"":11283.5},{""page_index"":4,""viewing_time"":7148.0999999940395},{""page_index"":5,""viewing_time"":8066.4000000059605},{""page_index"":6,""viewing_time"":10872.39999999106}]","49921.20000000298","","","","","","","",""
"","image-keyboard-response","2","54604","0.0-2.0","33F859I567ZN9EQHU38SF1KBCZIBH8","AW5O1RK3W60FC","379OL9DBSS0OLW3FFHTILCO0AJC9Y6","","2319.6000000089407","img/food3.png","75","2320.699999988079","2","0","1","0.8,0.5,0,0.8,0,0.5,0.5,0.8,0,0,0.8,0.5",""
"","html-keyboard-response","3","54906","0.0-3.0","33F859I567ZN9EQHU38SF1KBCZIBH8","AW5O1RK3W60FC","379OL9DBSS0OLW3FFHTILCO0AJC9Y6","","null","<img src=""img/food3.png"" style=""width:200px;border:14px solid red;"">","null","","","","","",""
"","image-keyboard-response","4","55876","0.0-4.0","33F859I567ZN9EQHU38SF1KBCZIBH8","AW5O1RK3W60FC","379OL9DBSS0OLW3FFHTILCO0AJC9Y6","","968.7999999970198","img/food1.png","74","970","1","1","2","0.8,0.5,0,0.8,0,0.5,0.5,0.8,0,0,0.8,0.5",""
"","html-keyboard-response","5","56178","0.0-5.0","33F859I567ZN9EQHU38SF1KBCZIBH8","AW5O1RK3W60FC","379OL9DBSS0OLW3FFHTILCO0AJC9Y6","","null","<img src=""img/food1.png"" style=""width:200px; border:14px solid green;"">","null","","","","","",""
"","image-keyboard-response","6","56756","0.0-6.0","33F859I567ZN9EQHU38SF1KBCZIBH8","AW5O1RK3W60FC","379OL9DBSS0OLW3FFHTILCO0AJC9Y6","","576.5","img/food1.png","74","577.3999999910593","1","1","2","0.8,0.5,0,0.8,0,0.5,0.5,0.8,0,0,0.8,0.5",""
"","html-keyboard-response","7","57058","0.0-7.0","33F859I567ZN9EQHU38SF1KBCZIBH8","AW5O1RK3W60FC","379OL9DBSS0OLW3FFHTILCO0AJC9Y6","","null","<img src=""img/food1.png"" style=""width:200px; border:14px solid green;"">","null","","","","","",""
"","image-keyboard-response","8","57796","0.0-8.0","33F859I567ZN9EQHU38SF1KBCZIBH8","AW5O1RK3W60FC","379OL9DBSS0OLW3FFHTILCO0AJC9Y6","","737.2000000029802","img/food3.png","75","738.3000000119209","2","0","1","0.8,0.5,0,0.8,0,0.5,0.5,0.8,0,0,0.8,0.5",""
"","html-keyboard-response","9","58099","0.0-9.0","33F859I567ZN9EQHU38SF1KBCZIBH8","AW5O1RK3W60FC","379OL9DBSS0OLW3FFHTILCO0AJC9Y6","","null","<img src=""img/food3.png"" style=""width:200px;border:14px solid red;"">","null","","","","","",""
"","image-keyboard-response","10","58964","0.0-10.0","33F859I567ZN9EQHU38SF1KBCZIBH8","AW5O1RK3W60FC","379OL9DBSS0OLW3FFHTILCO0AJC9Y6","","864.2999999970198","img/food1.png","74","865.2999999970198","1","1","2","0.8,0.5,0,0.8,0,0.5,0.5,0.8,0,0,0.8,0.5",""
"","html-keyboard-response","11","59267","0.0-11.0","33F859I567ZN9EQHU38SF1KBCZIBH8","AW5O1RK3W60FC","379OL9DBSS0OLW3FFHTILCO0AJC9Y6","","null","<img src=""img/food1.png"" style=""width:200px; border:14px solid green;"">","null","","","","","",""
"","image-keyboard-response","12","60101","0.0-12.0","33F859I567ZN9EQHU38SF1KBCZIBH8","AW5O1RK3W60FC","379OL9DBSS0OLW3FFHTILCO0AJC9Y6","","832.4000000059605","img/food1.png","74","833.2999999970198","1","1","2","0.8,0.5,0,0.8,0,0.5,0.5,0.8,0,0,0.8,0.5",""
"","html-keyboard-response","13","60403","0.0-13.0","33F859I567ZN9EQHU38SF1KBCZIBH8","AW5O1RK3W60FC","379OL9DBSS0OLW3FFHTILCO0AJC9Y6","","null","<img src=""img/food1.png"" style=""width:200px; border:14px solid green;"">","null","","","","","",""
"","image-keyboard-response","14","61141","0.0-14.0","33F859I567ZN9EQHU38SF1KBCZIBH8","AW5O1RK3W60FC","379OL9DBSS0OLW3FFHTILCO0AJC9Y6","","736.7000000029802","img/food3.png","76","737.7000000029802","3","0","1","0.8,0.5,0,0.8,0,0.5,0.5,0.8,0,0,0.8,0.5",""
"","html-keyboard-response","15","61443","0.0-15.0","33F859I567ZN9EQHU38SF1KBCZIBH8","AW5O1RK3W60FC","379OL9DBSS0OLW3FFHTILCO0AJC9Y6","","null","<img src=""img/food3.png"" style=""width:200px;border:14px solid red;"">","null","","","","","",""
"","image-keyboard-response","16","62357","0.0-16.0","33F859I567ZN9EQHU38SF1KBCZIBH8","AW5O1RK3W60FC","379OL9DBSS0OLW3FFHTILCO0AJC9Y6","","913.3000000119209","img/food1.png","74","914.1000000089407","1","1","2","0.8,0.5,0,0.8,0,0.5,0.5,0.8,0,0,0.8,0.5",""
"","html-keyboard-response","17","62660","0.0-17.0","33F859I567ZN9EQHU38SF1KBCZIBH8","AW5O1RK3W60FC","379OL9DBSS0OLW3FFHTILCO0AJC9Y6","","null","<img src=""img/food1.png"" style=""width:200px; border:14px solid green;"">","null","","","","","",""
"","image-keyboard-response","18","64108","0.0-18.0","33F859I567ZN9EQHU38SF1KBCZIBH8","AW5O1RK3W60FC","379OL9DBSS0OLW3FFHTILCO0AJC9Y6","","1447.1000000089407","img/food3.png","75","1447.8999999910593","2","1","1","0.8,0.5,0,0.8,0,0.5,0.5,0.8,0,0,0.8,0.5",""
"","html-keyboard-response","19","64410","0.0-19.0","33F859I567ZN9EQHU38SF1KBCZIBH8","AW5O1RK3W60FC","379OL9DBSS0OLW3FFHTILCO0AJC9Y6","","null","<img src=""img/food3.png"" style=""width:200px; border:14px solid green;"">","null","","","","","",""
"","image-keyboard-response","20","65165","0.0-20.0","33F859I567ZN9EQHU38SF1KBCZIBH8","AW5O1RK3W60FC","379OL9DBSS0OLW3FFHTILCO0AJC9Y6","","753.7999999970198","img/food1.png","74","754.8000000119209","1","1","2","0.8,0.5,0,0.8,0,0.5,0.5,0.8,0,0,0.8,0.5",""
"","html-keyboard-response","21","65466","0.0-21.0","33F859I567ZN9EQHU38SF1KBCZIBH8","AW5O1RK3W60FC","379OL9DBSS0OLW3FFHTILCO0AJC9Y6","","null","<img src=""img/food1.png"" style=""width:200px; border:14px solid green;"">","null","","","","","",""
"","image-keyboard-response","22","66204","0.0-22.0","33F859I567ZN9EQHU38SF1KBCZIBH8","AW5O1RK3W60FC","379OL9DBSS0OLW3FFHTILCO0AJC9Y6","","736.5999999940395","img/food5.png","76","737.6000000089407","3","0","3","0.8,0.5,0,0.8,0,0.5,0.5,0.8,0,0,0.8,0.5",""
"","html-keyboard-response","23","66511","0.0-23.0","33F859I567ZN9EQHU38SF1KBCZIBH8","AW5O1RK3W60FC","379OL9DBSS0OLW3FFHTILCO0AJC9Y6","","null","<img src=""img/food5.png"" style=""width:200px;border:14px solid red;"">","null","","","","","",""
"","image-keyboard-response","24","67396","0.0-24.0","33F859I567ZN9EQHU38SF1KBCZIBH8","AW5O1RK3W60FC","379OL9DBSS0OLW3FFHTILCO0AJC9Y6","","884.5","img/food3.png","75","885.0999999940395","2","1","1","0.8,0.5,0,0.8,0,0.5,0.5,0.8,0,0,0.8,0.5",""
"","html-keyboard-response","25","67698","0.0-25.0","33F859I567ZN9EQHU38SF1KBCZIBH8","AW5O1RK3W60FC","379OL9DBSS0OLW3FFHTILCO0AJC9Y6","","null","<img src=""img/food3.png"" style=""width:200px; border:14px solid green;"">","null","","","","","",""
"","image-keyboard-response","26","69308","0.0-26.0","33F859I567ZN9EQHU38SF1KBCZIBH8","AW5O1RK3W60FC","379OL9DBSS0OLW3FFHTILCO0AJC9Y6","","1609.2999999970198","img/food5.png","76","1610.4000000059605","3","0","3","0.8,0.5,0,0.8,0,0.5,0.5,0.8,0,0,0.8,0.5",""
"","html-keyboard-response","27","69611","0.0-27.0","33F859I567ZN9EQHU38SF1KBCZIBH8","AW5O1RK3W60FC","379OL9DBSS0OLW3FFHTILCO0AJC9Y6","","null","<img src=""img/food5.png"" style=""width:200px;border:14px solid red;"">","null","","","","","",""
"","image-keyboard-response","28","70180","0.0-28.0","33F859I567ZN9EQHU38SF1KBCZIBH8","AW5O1RK3W60FC","379OL9DBSS0OLW3FFHTILCO0AJC9Y6","","568.7000000029802","img/food1.png","74","569.5","1","1","2","0.8,0.5,0,0.8,0,0.5,0.5,0.8,0,0,0.8,0.5",""
"","html-keyboard-response","29","70482","0.0-29.0","33F859I567ZN9EQHU38SF1KBCZIBH8","AW5O1RK3W60FC","379OL9DBSS0OLW3FFHTILCO0AJC9Y6","","null","<img src=""img/food1.png"" style=""width:200px; border:14px solid green;"">","null","","","","","",""
"","image-keyboard-response","30","72293","0.0-30.0","33F859I567ZN9EQHU38SF1KBCZIBH8","AW5O1RK3W60FC","379OL9DBSS0OLW3FFHTILCO0AJC9Y6","","1809.0999999940395","img/food5.png","74","1810.0999999940395","1","1","3","0.8,0.5,0,0.8,0,0.5,0.5,0.8,0,0,0.8,0.5",""
"","html-keyboard-response","31","72594","0.0-31.0","33F859I567ZN9EQHU38SF1KBCZIBH8","AW5O1RK3W60FC","379OL9DBSS0OLW3FFHTILCO0AJC9Y6","","null","<img src=""img/food5.png"" style=""width:200px; border:14px solid green;"">","null","","","","","",""
"","image-keyboard-response","32","73493","0.0-32.0","33F859I567ZN9EQHU38SF1KBCZIBH8","AW5O1RK3W60FC","379OL9DBSS0OLW3FFHTILCO0AJC9Y6","","897.8999999910593","img/food5.png","74","898.5999999940395","1","1","3","0.8,0.5,0,0.8,0,0.5,0.5,0.8,0,0,0.8,0.5",""
"","html-keyboard-response","33","73795","0.0-33.0","33F859I567ZN9EQHU38SF1KBCZIBH8","AW5O1RK3W60FC","379OL9DBSS0OLW3FFHTILCO0AJC9Y6","","null","<img src=""img/food5.png"" style=""width:200px; border:14px solid green;"">","null","","","","","",""
"","image-keyboard-response","34","74421","0.0-34.0","33F859I567ZN9EQHU38SF1KBCZIBH8","AW5O1RK3W60FC","379OL9DBSS0OLW3FFHTILCO0AJC9Y6","","625","img/food1.png","74","625.9000000059605","1","0","2","0.8,0.5,0,0.8,0,0.5,0.5,0.8,0,0,0.8,0.5",""
"","html-keyboard-response","35","74722","0.0-35.0","33F859I567ZN9EQHU38SF1KBCZIBH8","AW5O1RK3W60FC","379OL9DBSS0OLW3FFHTILCO0AJC9Y6","","null","<img src=""img/food1.png"" style=""width:200px;border:14px solid red;"">","null","","","","","",""
"","image-keyboard-response","36","75229","0.0-36.0","33F859I567ZN9EQHU38SF1KBCZIBH8","AW5O1RK3W60FC","379OL9DBSS0OLW3FFHTILCO0AJC9Y6","","505.19999998807907","img/food5.png","74","506","1","0","3","0.8,0.5,0,0.8,0,0.5,0.5,0.8,0,0,0.8,0.5",""
"","html-keyboard-response","37","75539","0.0-37.0","33F859I567ZN9EQHU38SF1KBCZIBH8","AW5O1RK3W60FC","379OL9DBSS0OLW3FFHTILCO0AJC9Y6","","null","<img src=""img/food5.png"" style=""width:200px;border:14px solid red;"">","null","","","","","",""
"","image-keyboard-response","38","75981","0.0-38.0","33F859I567ZN9EQHU38SF1KBCZIBH8","AW5O1RK3W60FC","379OL9DBSS0OLW3FFHTILCO0AJC9Y6","","440.70000000298023","img/food5.png","74","441.59999999403954","1","0","3","0.8,0.5,0,0.8,0,0.5,0.5,0.8,0,0,0.8,0.5",""
"","html-keyboard-response","39","76284","0.0-39.0","33F859I567ZN9EQHU38SF1KBCZIBH8","AW5O1RK3W60FC","379OL9DBSS0OLW3FFHTILCO0AJC9Y6","","null","<img src=""img/food5.png"" style=""width:200px;border:14px solid red;"">","null","","","","","",""
"","image-keyboard-response","40","76797","0.0-40.0","33F859I567ZN9EQHU38SF1KBCZIBH8","AW5O1RK3W60FC","379OL9DBSS0OLW3FFHTILCO0AJC9Y6","","511.5","img/food1.png","74","512.3999999910593","1","1","2","0.8,0.5,0,0.8,0,0.5,0.5,0.8,0,0,0.8,0.5",""
"","html-keyboard-response","41","77099","0.0-41.0","33F859I567ZN9EQHU38SF1KBCZIBH8","AW5O1RK3W60FC","379OL9DBSS0OLW3FFHTILCO0AJC9Y6","","null","<img src=""img/food1.png"" style=""width:200px; border:14px solid green;"">","null","","","","","",""
"","image-keyboard-response","42","77533","0.0-42.0","33F859I567ZN9EQHU38SF1KBCZIBH8","AW5O1RK3W60FC","379OL9DBSS0OLW3FFHTILCO0AJC9Y6","","432.5","img/food1.png","74","433.29999999701977","1","1","2","0.8,0.5,0,0.8,0,0.5,0.5,0.8,0,0,0.8,0.5",""
"","html-keyboard-response","43","77835","0.0-43.0","33F859I567ZN9EQHU38SF1KBCZIBH8","AW5O1RK3W60FC","379OL9DBSS0OLW3FFHTILCO0AJC9Y6","","null","<img src=""img/food1.png"" style=""width:200px; border:14px solid green;"">","null","","","","","",""
"","image-keyboard-response","44","78388","0.0-44.0","33F859I567ZN9EQHU38SF1KBCZIBH8","AW5O1RK3W60FC","379OL9DBSS0OLW3FFHTILCO0AJC9Y6","","552.2999999970198","img/food3.png","75","553.2000000029802","2","0","1","0.8,0.5,0,0.8,0,0.5,0.5,0.8,0,0,0.8,0.5",""
"","html-keyboard-response","45","78690","0.0-45.0","33F859I567ZN9EQHU38SF1KBCZIBH8","AW5O1RK3W60FC","379OL9DBSS0OLW3FFHTILCO0AJC9Y6","","null","<img src=""img/food3.png"" style=""width:200px;border:14px solid red;"">","null","","","","","",""
"","image-keyboard-response","46","79132","0.0-46.0","33F859I567ZN9EQHU38SF1KBCZIBH8","AW5O1RK3W60FC","379OL9DBSS0OLW3FFHTILCO0AJC9Y6","","441.09999999403954","img/food3.png","75","442","2","0","1","0.8,0.5,0,0.8,0,0.5,0.5,0.8,0,0,0.8,0.5",""
"","html-keyboard-response","47","79433","0.0-47.0","33F859I567ZN9EQHU38SF1KBCZIBH8","AW5O1RK3W60FC","379OL9DBSS0OLW3FFHTILCO0AJC9Y6","","null","<img src=""img/food3.png"" style=""width:200px;border:14px solid red;"">","null","","","","","",""
"","image-keyboard-response","48","79941","0.0-48.0","33F859I567ZN9EQHU38SF1KBCZIBH8","AW5O1RK3W60FC","379OL9DBSS0OLW3FFHTILCO0AJC9Y6","","506.3999999910593","img/food3.png","75","507.19999998807907","2","0","1","0.8,0.5,0,0.8,0,0.5,0.5,0.8,0,0,0.8,0.5",""
"","html-keyboard-response","49","80243","0.0-49.0","33F859I567ZN9EQHU38SF1KBCZIBH8","AW5O1RK3W60FC","379OL9DBSS0OLW3FFHTILCO0AJC9Y6","","null","<img src=""img/food3.png"" style=""width:200px;border:14px solid red;"">","null","","","","","",""
"","image-keyboard-response","50","80925","0.0-50.0","33F859I567ZN9EQHU38SF1KBCZIBH8","AW5O1RK3W60FC","379OL9DBSS0OLW3FFHTILCO0AJC9Y6","","680.2999999970198","img/food5.png","74","681.2999999970198","1","1","3","0.8,0.5,0,0.8,0,0.5,0.5,0.8,0,0,0.8,0.5",""
"","html-keyboard-response","51","81226","0.0-51.0","33F859I567ZN9EQHU38SF1KBCZIBH8","AW5O1RK3W60FC","379OL9DBSS0OLW3FFHTILCO0AJC9Y6","","null","<img src=""img/food5.png"" style=""width:200px; border:14px solid green;"">","null","","","","","",""
"","image-keyboard-response","52","81773","0.0-52.0","33F859I567ZN9EQHU38SF1KBCZIBH8","AW5O1RK3W60FC","379OL9DBSS0OLW3FFHTILCO0AJC9Y6","","545.5999999940395","img/food1.png","74","546.5","1","1","2","0.8,0.5,0,0.8,0,0.5,0.5,0.8,0,0,0.8,0.5",""
"","html-keyboard-response","53","82074","0.0-53.0","33F859I567ZN9EQHU38SF1KBCZIBH8","AW5O1RK3W60FC","379OL9DBSS0OLW3FFHTILCO0AJC9Y6","","null","<img src=""img/food1.png"" style=""width:200px; border:14px solid green;"">","null","","","","","",""
"","image-keyboard-response","54","82700","0.0-54.0","33F859I567ZN9EQHU38SF1KBCZIBH8","AW5O1RK3W60FC","379OL9DBSS0OLW3FFHTILCO0AJC9Y6","","625.0999999940395","img/food3.png","75","625.7999999970198","2","1","1","0.8,0.5,0,0.8,0,0.5,0.5,0.8,0,0,0.8,0.5",""
"","html-keyboard-response","55","83002","0.0-55.0","33F859I567ZN9EQHU38SF1KBCZIBH8","AW5O1RK3W60FC","379OL9DBSS0OLW3FFHTILCO0AJC9Y6","","null","<img src=""img/food3.png"" style=""width:200px; border:14px solid green;"">","null","","","","","",""
"","image-keyboard-response","56","83428","0.0-56.0","33F859I567ZN9EQHU38SF1KBCZIBH8","AW5O1RK3W60FC","379OL9DBSS0OLW3FFHTILCO0AJC9Y6","","425.1000000089407","img/food3.png","75","425.8999999910593","2","0","1","0.8,0.5,0,0.8,0,0.5,0.5,0.8,0,0,0.8,0.5",""
"","html-keyboard-response","57","83731","0.0-57.0","33F859I567ZN9EQHU38SF1KBCZIBH8","AW5O1RK3W60FC","379OL9DBSS0OLW3FFHTILCO0AJC9Y6","","null","<img src=""img/food3.png"" style=""width:200px;border:14px solid red;"">","null","","","","","",""
"","image-keyboard-response","58","84277","0.0-58.0","33F859I567ZN9EQHU38SF1KBCZIBH8","AW5O1RK3W60FC","379OL9DBSS0OLW3FFHTILCO0AJC9Y6","","545.1999999880791","img/food1.png","74","546.2000000029802","1","1","2","0.8,0.5,0,0.8,0,0.5,0.5,0.8,0,0,0.8,0.5",""
"","html-keyboard-response","59","84579","0.0-59.0","33F859I567ZN9EQHU38SF1KBCZIBH8","AW5O1RK3W60FC","379OL9DBSS0OLW3FFHTILCO0AJC9Y6","","null","<img src=""img/food1.png"" style=""width:200px; border:14px solid green;"">","null","","","","","",""
"","image-keyboard-response","60","85213","0.0-60.0","33F859I567ZN9EQHU38SF1KBCZIBH8","AW5O1RK3W60FC","379OL9DBSS0OLW3FFHTILCO0AJC9Y6","","633.0999999940395","img/food3.png","75","633.7999999970198","2","0","1","0.8,0.5,0,0.8,0,0.5,0.5,0.8,0,0,0.8,0.5",""
"","html-keyboard-response","61","85520","0.0-61.0","33F859I567ZN9EQHU38SF1KBCZIBH8","AW5O1RK3W60FC","379OL9DBSS0OLW3FFHTILCO0AJC9Y6","","null","<img src=""img/food3.png"" style=""width:200px;border:14px solid red;"">","null","","","","","",""
"","image-keyboard-response","62","85997","0.0-62.0","33F859I567ZN9EQHU38SF1KBCZIBH8","AW5O1RK3W60FC","379OL9DBSS0OLW3FFHTILCO0AJC9Y6","","475.09999999403954","img/food1.png","74","476.5","1","1","2","0.8,0.5,0,0.8,0,0.5,0.5,0.8,0,0,0.8,0.5",""
"","html-keyboard-response","63","86299","0.0-63.0","33F859I567ZN9EQHU38SF1KBCZIBH8","AW5O1RK3W60FC","379OL9DBSS0OLW3FFHTILCO0AJC9Y6","","null","<img src=""img/food1.png"" style=""width:200px; border:14px solid green;"">","null","","","","","",""
"","image-keyboard-response","64","86845","0.0-64.0","33F859I567ZN9EQHU38SF1KBCZIBH8","AW5O1RK3W60FC","379OL9DBSS0OLW3FFHTILCO0AJC9Y6","","544.7000000029802","img/food3.png","75","545.7999999970198","2","1","1","0.8,0.5,0,0.8,0,0.5,0.5,0.8,0,0,0.8,0.5",""
"","html-keyboard-response","65","87147","0.0-65.0","33F859I567ZN9EQHU38SF1KBCZIBH8","AW5O1RK3W60FC","379OL9DBSS0OLW3FFHTILCO0AJC9Y6","","null","<img src=""img/food3.png"" style=""width:200px; border:14px solid green;"">","null","","","","","",""
"","image-keyboard-response","66","87636","0.0-66.0","33F859I567ZN9EQHU38SF1KBCZIBH8","AW5O1RK3W60FC","379OL9DBSS0OLW3FFHTILCO0AJC9Y6","","488","img/food1.png","74","489","1","1","2","0.8,0.5,0,0.8,0,0.5,0.5,0.8,0,0,0.8,0.5",""
"","html-keyboard-response","67","87938","0.0-67.0","33F859I567ZN9EQHU38SF1KBCZIBH8","AW5O1RK3W60FC","379OL9DBSS0OLW3FFHTILCO0AJC9Y6","","null","<img src=""img/food1.png"" style=""width:200px; border:14px solid green;"">","null","","","","","",""
"","image-keyboard-response","68","88413","0.0-68.0","33F859I567ZN9EQHU38SF1KBCZIBH8","AW5O1RK3W60FC","379OL9DBSS0OLW3FFHTILCO0AJC9Y6","","473.79999999701977","img/food1.png","74","474.59999999403954","1","0","2","0.8,0.5,0,0.8,0,0.5,0.5,0.8,0,0,0.8,0.5",""
"","html-keyboard-response","69","88714","0.0-69.0","33F859I567ZN9EQHU38SF1KBCZIBH8","AW5O1RK3W60FC","379OL9DBSS0OLW3FFHTILCO0AJC9Y6","","null","<img src=""img/food1.png"" style=""width:200px;border:14px solid red;"">","null","","","","","",""
"","image-keyboard-response","70","89189","0.0-70.0","33F859I567ZN9EQHU38SF1KBCZIBH8","AW5O1RK3W60FC","379OL9DBSS0OLW3FFHTILCO0AJC9Y6","","473.69999998807907","img/food1.png","74","474.3999999910593","1","1","2","0.8,0.5,0,0.8,0,0.5,0.5,0.8,0,0,0.8,0.5",""
"","html-keyboard-response","71","89491","0.0-71.0","33F859I567ZN9EQHU38SF1KBCZIBH8","AW5O1RK3W60FC","379OL9DBSS0OLW3FFHTILCO0AJC9Y6","","null","<img src=""img/food1.png"" style=""width:200px; border:14px solid green;"">","null","","","","","",""
"","image-keyboard-response","72","90069","0.0-72.0","33F859I567ZN9EQHU38SF1KBCZIBH8","AW5O1RK3W60FC","379OL9DBSS0OLW3FFHTILCO0AJC9Y6","","576.6000000089407","img/food3.png","75","577.4000000059605","2","0","1","0.8,0.5,0,0.8,0,0.5,0.5,0.8,0,0,0.8,0.5",""
"","html-keyboard-response","73","90370","0.0-73.0","33F859I567ZN9EQHU38SF1KBCZIBH8","AW5O1RK3W60FC","379OL9DBSS0OLW3FFHTILCO0AJC9Y6","","null","<img src=""img/food3.png"" style=""width:200px;border:14px solid red;"">","null","","","","","",""
"","image-keyboard-response","74","90765","0.0-74.0","33F859I567ZN9EQHU38SF1KBCZIBH8","AW5O1RK3W60FC","379OL9DBSS0OLW3FFHTILCO0AJC9Y6","","393.5","img/food3.png","75","394.20000000298023","2","1","1","0.8,0.5,0,0.8,0,0.5,0.5,0.8,0,0,0.8,0.5",""
"","html-keyboard-response","75","91067","0.0-75.0","33F859I567ZN9EQHU38SF1KBCZIBH8","AW5O1RK3W60FC","379OL9DBSS0OLW3FFHTILCO0AJC9Y6","","null","<img src=""img/food3.png"" style=""width:200px; border:14px solid green;"">","null","","","","","",""
"","image-keyboard-response","76","91500","0.0-76.0","33F859I567ZN9EQHU38SF1KBCZIBH8","AW5O1RK3W60FC","379OL9DBSS0OLW3FFHTILCO0AJC9Y6","","432.5","img/food3.png","75","433.30000001192093","2","0","1","0.8,0.5,0,0.8,0,0.5,0.5,0.8,0,0,0.8,0.5",""
"","html-keyboard-response","77","91802","0.0-77.0","33F859I567ZN9EQHU38SF1KBCZIBH8","AW5O1RK3W60FC","379OL9DBSS0OLW3FFHTILCO0AJC9Y6","","null","<img src=""img/food3.png"" style=""width:200px;border:14px solid red;"">","null","","","","","",""
"","image-keyboard-response","78","92220","0.0-78.0","33F859I567ZN9EQHU38SF1KBCZIBH8","AW5O1RK3W60FC","379OL9DBSS0OLW3FFHTILCO0AJC9Y6","","417.5","img/food3.png","75","418.40000000596046","2","0","1","0.8,0.5,0,0.8,0,0.5,0.5,0.8,0,0,0.8,0.5",""
"","html-keyboard-response","79","92522","0.0-79.0","33F859I567ZN9EQHU38SF1KBCZIBH8","AW5O1RK3W60FC","379OL9DBSS0OLW3FFHTILCO0AJC9Y6","","null","<img src=""img/food3.png"" style=""width:200px;border:14px solid red;"">","null","","","","","",""
"","image-keyboard-response","80","93260","0.0-80.0","33F859I567ZN9EQHU38SF1KBCZIBH8","AW5O1RK3W60FC","379OL9DBSS0OLW3FFHTILCO0AJC9Y6","","736.7999999970198","img/food5.png","74","737.7999999970198","1","1","3","0.8,0.5,0,0.8,0,0.5,0.5,0.8,0,0,0.8,0.5",""
"","html-keyboard-response","81","93574","0.0-81.0","33F859I567ZN9EQHU38SF1KBCZIBH8","AW5O1RK3W60FC","379OL9DBSS0OLW3FFHTILCO0AJC9Y6","","null","<img src=""img/food5.png"" style=""width:200px; border:14px solid green;"">","null","","","","","",""
"","image-keyboard-response","82","94069","0.0-82.0","33F859I567ZN9EQHU38SF1KBCZIBH8","AW5O1RK3W60FC","379OL9DBSS0OLW3FFHTILCO0AJC9Y6","","494.20000000298023","img/food1.png","74","494.80000001192093","1","0","2","0.8,0.5,0,0.8,0,0.5,0.5,0.8,0,0,0.8,0.5",""
"","html-keyboard-response","83","94370","0.0-83.0","33F859I567ZN9EQHU38SF1KBCZIBH8","AW5O1RK3W60FC","379OL9DBSS0OLW3FFHTILCO0AJC9Y6","","null","<img src=""img/food1.png"" style=""width:200px;border:14px solid red;"">","null","","","","","",""
"","image-keyboard-response","84","95270","0.0-84.0","33F859I567ZN9EQHU38SF1KBCZIBH8","AW5O1RK3W60FC","379OL9DBSS0OLW3FFHTILCO0AJC9Y6","","898.2999999970198","img/food3.png","75","899.3000000119209","2","1","1","0.8,0.5,0,0.8,0,0.5,0.5,0.8,0,0,0.8,0.5",""
"","html-keyboard-response","85","95598","0.0-85.0","33F859I567ZN9EQHU38SF1KBCZIBH8","AW5O1RK3W60FC","379OL9DBSS0OLW3FFHTILCO0AJC9Y6","","null","<img src=""img/food3.png"" style=""width:200px; border:14px solid green;"">","null","","","","","",""
"","image-keyboard-response","86","96205","0.0-86.0","33F859I567ZN9EQHU38SF1KBCZIBH8","AW5O1RK3W60FC","379OL9DBSS0OLW3FFHTILCO0AJC9Y6","","605","img/food1.png","74","606.1000000089407","1","1","2","0.8,0.5,0,0.8,0,0.5,0.5,0.8,0,0,0.8,0.5",""
"","html-keyboard-response","87","96507","0.0-87.0","33F859I567ZN9EQHU38SF1KBCZIBH8","AW5O1RK3W60FC","379OL9DBSS0OLW3FFHTILCO0AJC9Y6","","null","<img src=""img/food1.png"" style=""width:200px; border:14px solid green;"">","null","","","","","",""
"","image-keyboard-response","88","97380","0.0-88.0","33F859I567ZN9EQHU38SF1KBCZIBH8","AW5O1RK3W60FC","379OL9DBSS0OLW3FFHTILCO0AJC9Y6","","872.2000000029802","img/food5.png","74","873.0999999940395","1","0","3","0.8,0.5,0,0.8,0,0.5,0.5,0.8,0,0,0.8,0.5",""
"","html-keyboard-response","89","97682","0.0-89.0","33F859I567ZN9EQHU38SF1KBCZIBH8","AW5O1RK3W60FC","379OL9DBSS0OLW3FFHTILCO0AJC9Y6","","null","<img src=""img/food5.png"" style=""width:200px;border:14px solid red;"">","null","","","","","",""
"","image-keyboard-response","90","98077","0.0-90.0","33F859I567ZN9EQHU38SF1KBCZIBH8","AW5O1RK3W60FC","379OL9DBSS0OLW3FFHTILCO0AJC9Y6","","394.29999999701977","img/food5.png","74","395.30000001192093","1","0","3","0.8,0.5,0,0.8,0,0.5,0.5,0.8,0,0,0.8,0.5",""
"","html-keyboard-response","91","98379","0.0-91.0","33F859I567ZN9EQHU38SF1KBCZIBH8","AW5O1RK3W60FC","379OL9DBSS0OLW3FFHTILCO0AJC9Y6","","null","<img src=""img/food5.png"" style=""width:200px;border:14px solid red;"">","null","","","","","",""
"","image-keyboard-response","92","98773","0.0-92.0","33F859I567ZN9EQHU38SF1KBCZIBH8","AW5O1RK3W60FC","379OL9DBSS0OLW3FFHTILCO0AJC9Y6","","392.80000001192093","img/food5.png","74","393.69999998807907","1","0","3","0.8,0.5,0,0.8,0,0.5,0.5,0.8,0,0,0.8,0.5",""
"","html-keyboard-response","93","99074","0.0-93.0","33F859I567ZN9EQHU38SF1KBCZIBH8","AW5O1RK3W60FC","379OL9DBSS0OLW3FFHTILCO0AJC9Y6","","null","<img src=""img/food5.png"" style=""width:200px;border:14px solid red;"">","null","","","","","",""
"","image-keyboard-response","94","99532","0.0-94.0","33F859I567ZN9EQHU38SF1KBCZIBH8","AW5O1RK3W60FC","379OL9DBSS0OLW3FFHTILCO0AJC9Y6","","457.09999999403954","img/food5.png","74","457.79999999701977","1","1","3","0.8,0.5,0,0.8,0,0.5,0.5,0.8,0,0,0.8,0.5",""
"","html-keyboard-response","95","99834","0.0-95.0","33F859I567ZN9EQHU38SF1KBCZIBH8","AW5O1RK3W60FC","379OL9DBSS0OLW3FFHTILCO0AJC9Y6","","null","<img src=""img/food5.png"" style=""width:200px; border:14px solid green;"">","null","","","","","",""
"","image-keyboard-response","96","100460","0.0-96.0","33F859I567ZN9EQHU38SF1KBCZIBH8","AW5O1RK3W60FC","379OL9DBSS0OLW3FFHTILCO0AJC9Y6","","625.0999999940395","img/food1.png","74","625.9000000059605","1","1","2","0.8,0.5,0,0.8,0,0.5,0.5,0.8,0,0,0.8,0.5",""
"","html-keyboard-response","97","100763","0.0-97.0","33F859I567ZN9EQHU38SF1KBCZIBH8","AW5O1RK3W60FC","379OL9DBSS0OLW3FFHTILCO0AJC9Y6","","null","<img src=""img/food1.png"" style=""width:200px; border:14px solid green;"">","null","","","","","",""
"","image-keyboard-response","98","101285","0.0-98.0","33F859I567ZN9EQHU38SF1KBCZIBH8","AW5O1RK3W60FC","379OL9DBSS0OLW3FFHTILCO0AJC9Y6","","520.7999999970198","img/food3.png","75","521.7999999970198","2","0","1","0.8,0.5,0,0.8,0,0.5,0.5,0.8,0,0,0.8,0.5",""
"","html-keyboard-response","99","101587","0.0-99.0","33F859I567ZN9EQHU38SF1KBCZIBH8","AW5O1RK3W60FC","379OL9DBSS0OLW3FFHTILCO0AJC9Y6","","null","<img src=""img/food3.png"" style=""width:200px;border:14px solid red;"">","null","","","","","",""
"","image-keyboard-response","100","101997","0.0-100.0","33F859I567ZN9EQHU38SF1KBCZIBH8","AW5O1RK3W60FC","379OL9DBSS0OLW3FFHTILCO0AJC9Y6","","408.19999998807907","img/food3.png","75","409.1000000089407","2","0","1","0.8,0.5,0,0.8,0,0.5,0.5,0.8,0,0,0.8,0.5",""
"","html-keyboard-response","101","102299","0.0-101.0","33F859I567ZN9EQHU38SF1KBCZIBH8","AW5O1RK3W60FC","379OL9DBSS0OLW3FFHTILCO0AJC9Y6","","null","<img src=""img/food3.png"" style=""width:200px;border:14px solid red;"">","null","","","","","",""
"","image-keyboard-response","102","103118","0.0-102.0","33F859I567ZN9EQHU38SF1KBCZIBH8","AW5O1RK3W60FC","379OL9DBSS0OLW3FFHTILCO0AJC9Y6","","817.4000000059605","img/food5.png","74","818.3000000119209","1","0","3","0.8,0.5,0,0.8,0,0.5,0.5,0.8,0,0,0.8,0.5",""
"","html-keyboard-response","103","103434","0.0-103.0","33F859I567ZN9EQHU38SF1KBCZIBH8","AW5O1RK3W60FC","379OL9DBSS0OLW3FFHTILCO0AJC9Y6","","null","<img src=""img/food5.png"" style=""width:200px;border:14px solid red;"">","null","","","","","",""
"","image-keyboard-response","104","104053","0.0-104.0","33F859I567ZN9EQHU38SF1KBCZIBH8","AW5O1RK3W60FC","379OL9DBSS0OLW3FFHTILCO0AJC9Y6","","617.3999999910593","img/food3.png","75","618.4000000059605","2","1","1","0.8,0.5,0,0.8,0,0.5,0.5,0.8,0,0,0.8,0.5",""
"","html-keyboard-response","105","104354","0.0-105.0","33F859I567ZN9EQHU38SF1KBCZIBH8","AW5O1RK3W60FC","379OL9DBSS0OLW3FFHTILCO0AJC9Y6","","null","<img src=""img/food3.png"" style=""width:200px; border:14px solid green;"">","null","","","","","",""
"","image-keyboard-response","106","105389","0.0-106.0","33F859I567ZN9EQHU38SF1KBCZIBH8","AW5O1RK3W60FC","379OL9DBSS0OLW3FFHTILCO0AJC9Y6","","1033.199999988079","img/food5.png","74","1033.8999999910593","1","1","3","0.8,0.5,0,0.8,0,0.5,0.5,0.8,0,0,0.8,0.5",""
"","html-keyboard-response","107","105690","0.0-107.0","33F859I567ZN9EQHU38SF1KBCZIBH8","AW5O1RK3W60FC","379OL9DBSS0OLW3FFHTILCO0AJC9Y6","","null","<img src=""img/food5.png"" style=""width:200px; border:14px solid green;"">","null","","","","","",""
"","image-keyboard-response","108","106269","0.0-108.0","33F859I567ZN9EQHU38SF1KBCZIBH8","AW5O1RK3W60FC","379OL9DBSS0OLW3FFHTILCO0AJC9Y6","","577.2000000029802","img/food1.png","74","578.0999999940395","1","1","2","0.8,0.5,0,0.8,0,0.5,0.5,0.8,0,0,0.8,0.5",""
"","html-keyboard-response","109","106571","0.0-109.0","33F859I567ZN9EQHU38SF1KBCZIBH8","AW5O1RK3W60FC","379OL9DBSS0OLW3FFHTILCO0AJC9Y6","","null","<img src=""img/food1.png"" style=""width:200px; border:14px solid green;"">","null","","","","","",""
"","image-keyboard-response","110","107189","0.0-110.0","33F859I567ZN9EQHU38SF1KBCZIBH8","AW5O1RK3W60FC","379OL9DBSS0OLW3FFHTILCO0AJC9Y6","","617.2000000029802","img/food5.png","74","618","1","0","3","0.8,0.5,0,0.8,0,0.5,0.5,0.8,0,0,0.8,0.5",""
"","html-keyboard-response","111","107490","0.0-111.0","33F859I567ZN9EQHU38SF1KBCZIBH8","AW5O1RK3W60FC","379OL9DBSS0OLW3FFHTILCO0AJC9Y6","","null","<img src=""img/food5.png"" style=""width:200px;border:14px solid red;"">","null","","","","","",""
"","image-keyboard-response","112","108533","0.0-112.0","33F859I567ZN9EQHU38SF1KBCZIBH8","AW5O1RK3W60FC","379OL9DBSS0OLW3FFHTILCO0AJC9Y6","","1041.9000000059605","img/food3.png","75","1042.7000000029802","2","1","1","0.8,0.5,0,0.8,0,0.5,0.5,0.8,0,0,0.8,0.5",""
"","html-keyboard-response","113","108836","0.0-113.0","33F859I567ZN9EQHU38SF1KBCZIBH8","AW5O1RK3W60FC","379OL9DBSS0OLW3FFHTILCO0AJC9Y6","","null","<img src=""img/food3.png"" style=""width:200px; border:14px solid green;"">","null","","","","","",""
"","image-keyboard-response","114","109396","0.0-114.0","33F859I567ZN9EQHU38SF1KBCZIBH8","AW5O1RK3W60FC","379OL9DBSS0OLW3FFHTILCO0AJC9Y6","","559.3999999910593","img/food5.png","74","560.2999999970198","1","1","3","0.8,0.5,0,0.8,0,0.5,0.5,0.8,0,0,0.8,0.5",""
"","html-keyboard-response","115","109699","0.0-115.0","33F859I567ZN9EQHU38SF1KBCZIBH8","AW5O1RK3W60FC","379OL9DBSS0OLW3FFHTILCO0AJC9Y6","","null","<img src=""img/food5.png"" style=""width:200px; border:14px solid green;"">","null","","","","","",""
"","image-keyboard-response","116","110188","0.0-116.0","33F859I567ZN9EQHU38SF1KBCZIBH8","AW5O1RK3W60FC","379OL9DBSS0OLW3FFHTILCO0AJC9Y6","","488.40000000596046","img/food5.png","74","489.20000000298023","1","1","3","0.8,0.5,0,0.8,0,0.5,0.5,0.8,0,0,0.8,0.5",""
"","html-keyboard-response","117","110490","0.0-117.0","33F859I567ZN9EQHU38SF1KBCZIBH8","AW5O1RK3W60FC","379OL9DBSS0OLW3FFHTILCO0AJC9Y6","","null","<img src=""img/food5.png"" style=""width:200px; border:14px solid green;"">","null","","","","","",""
"","image-keyboard-response","118","110924","0.0-118.0","33F859I567ZN9EQHU38SF1KBCZIBH8","AW5O1RK3W60FC","379OL9DBSS0OLW3FFHTILCO0AJC9Y6","","433.29999999701977","img/food5.png","74","434.09999999403954","1","1","3","0.8,0.5,0,0.8,0,0.5,0.5,0.8,0,0,0.8,0.5",""
"","html-keyboard-response","119","111226","0.0-119.0","33F859I567ZN9EQHU38SF1KBCZIBH8","AW5O1RK3W60FC","379OL9DBSS0OLW3FFHTILCO0AJC9Y6","","null","<img src=""img/food5.png"" style=""width:200px; border:14px solid green;"">","null","","","","","",""
"","image-keyboard-response","120","111692","0.0-120.0","33F859I567ZN9EQHU38SF1KBCZIBH8","AW5O1RK3W60FC","379OL9DBSS0OLW3FFHTILCO0AJC9Y6","","465","img/food5.png","74","466","1","0","3","0.8,0.5,0,0.8,0,0.5,0.5,0.8,0,0,0.8,0.5",""
"","html-keyboard-response","121","111995","0.0-121.0","33F859I567ZN9EQHU38SF1KBCZIBH8","AW5O1RK3W60FC","379OL9DBSS0OLW3FFHTILCO0AJC9Y6","","null","<img src=""img/food5.png"" style=""width:200px;border:14px solid red;"">","null","","","","","",""
"","image-keyboard-response","122","112612","0.0-122.0","33F859I567ZN9EQHU38SF1KBCZIBH8","AW5O1RK3W60FC","379OL9DBSS0OLW3FFHTILCO0AJC9Y6","","616.5999999940395","img/food1.png","74","617.3999999910593","1","0","2","0.8,0.5,0,0.8,0,0.5,0.5,0.8,0,0,0.8,0.5",""
"","html-keyboard-response","123","112927","0.0-123.0","33F859I567ZN9EQHU38SF1KBCZIBH8","AW5O1RK3W60FC","379OL9DBSS0OLW3FFHTILCO0AJC9Y6","","null","<img src=""img/food1.png"" style=""width:200px;border:14px solid red;"">","null","","","","","",""
"","image-keyboard-response","124","113652","0.0-124.0","33F859I567ZN9EQHU38SF1KBCZIBH8","AW5O1RK3W60FC","379OL9DBSS0OLW3FFHTILCO0AJC9Y6","","724.0999999940395","img/food3.png","75","725","2","1","1","0.8,0.5,0,0.8,0,0.5,0.5,0.8,0,0,0.8,0.5",""
"","html-keyboard-response","125","113954","0.0-125.0","33F859I567ZN9EQHU38SF1KBCZIBH8","AW5O1RK3W60FC","379OL9DBSS0OLW3FFHTILCO0AJC9Y6","","null","<img src=""img/food3.png"" style=""width:200px; border:14px solid green;"">","null","","","","","",""
"","image-keyboard-response","126","114612","0.0-126.0","33F859I567ZN9EQHU38SF1KBCZIBH8","AW5O1RK3W60FC","379OL9DBSS0OLW3FFHTILCO0AJC9Y6","","657.4000000059605","img/food5.png","74","658.1000000089407","1","1","3","0.8,0.5,0,0.8,0,0.5,0.5,0.8,0,0,0.8,0.5",""
"","html-keyboard-response","127","114914","0.0-127.0","33F859I567ZN9EQHU38SF1KBCZIBH8","AW5O1RK3W60FC","379OL9DBSS0OLW3FFHTILCO0AJC9Y6","","null","<img src=""img/food5.png"" style=""width:200px; border:14px solid green;"">","null","","","","","",""
"","image-keyboard-response","128","115324","0.0-128.0","33F859I567ZN9EQHU38SF1KBCZIBH8","AW5O1RK3W60FC","379OL9DBSS0OLW3FFHTILCO0AJC9Y6","","409.5","img/food5.png","74","410.20000000298023","1","0","3","0.8,0.5,0,0.8,0,0.5,0.5,0.8,0,0,0.8,0.5",""
"","html-keyboard-response","129","115626","0.0-129.0","33F859I567ZN9EQHU38SF1KBCZIBH8","AW5O1RK3W60FC","379OL9DBSS0OLW3FFHTILCO0AJC9Y6","","null","<img src=""img/food5.png"" style=""width:200px;border:14px solid red;"">","null","","","","","",""
"","image-keyboard-response","130","116404","0.0-130.0","33F859I567ZN9EQHU38SF1KBCZIBH8","AW5O1RK3W60FC","379OL9DBSS0OLW3FFHTILCO0AJC9Y6","","777","img/food3.png","75","778","2","1","1","0.8,0.5,0,0.8,0,0.5,0.5,0.8,0,0,0.8,0.5",""
"","html-keyboard-response","131","116706","0.0-131.0","33F859I567ZN9EQHU38SF1KBCZIBH8","AW5O1RK3W60FC","379OL9DBSS0OLW3FFHTILCO0AJC9Y6","","null","<img src=""img/food3.png"" style=""width:200px; border:14px solid green;"">","null","","","","","",""
"","image-keyboard-response","132","117420","0.0-132.0","33F859I567ZN9EQHU38SF1KBCZIBH8","AW5O1RK3W60FC","379OL9DBSS0OLW3FFHTILCO0AJC9Y6","","713.8000000119209","img/food5.png","74","714.6999999880791","1","0","3","0.8,0.5,0,0.8,0,0.5,0.5,0.8,0,0,0.8,0.5",""
"","html-keyboard-response","133","117722","0.0-133.0","33F859I567ZN9EQHU38SF1KBCZIBH8","AW5O1RK3W60FC","379OL9DBSS0OLW3FFHTILCO0AJC9Y6","","null","<img src=""img/food5.png"" style=""width:200px;border:14px solid red;"">","null","","","","","",""
"","image-keyboard-response","134","118285","0.0-134.0","33F859I567ZN9EQHU38SF1KBCZIBH8","AW5O1RK3W60FC","379OL9DBSS0OLW3FFHTILCO0AJC9Y6","","560.7000000029802","img/food1.png","74","561.5999999940395","1","1","2","0.8,0.5,0,0.8,0,0.5,0.5,0.8,0,0,0.8,0.5",""
"","html-keyboard-response","135","118603","0.0-135.0","33F859I567ZN9EQHU38SF1KBCZIBH8","AW5O1RK3W60FC","379OL9DBSS0OLW3FFHTILCO0AJC9Y6","","null","<img src=""img/food1.png"" style=""width:200px; border:14px solid green;"">","null","","","","","",""
"","image-keyboard-response","136","119165","0.0-136.0","33F859I567ZN9EQHU38SF1KBCZIBH8","AW5O1RK3W60FC","379OL9DBSS0OLW3FFHTILCO0AJC9Y6","","560.8999999910593","img/food5.png","74","561.7000000029802","1","1","3","0.8,0.5,0,0.8,0,0.5,0.5,0.8,0,0,0.8,0.5",""
"","html-keyboard-response","137","119466","0.0-137.0","33F859I567ZN9EQHU38SF1KBCZIBH8","AW5O1RK3W60FC","379OL9DBSS0OLW3FFHTILCO0AJC9Y6","","null","<img src=""img/food5.png"" style=""width:200px; border:14px solid green;"">","null","","","","","",""
"","image-keyboard-response","138","119861","0.0-138.0","33F859I567ZN9EQHU38SF1KBCZIBH8","AW5O1RK3W60FC","379OL9DBSS0OLW3FFHTILCO0AJC9Y6","","393.79999999701977","img/food5.png","74","394.6000000089407","1","1","3","0.8,0.5,0,0.8,0,0.5,0.5,0.8,0,0,0.8,0.5",""
"","html-keyboard-response","139","120162","0.0-139.0","33F859I567ZN9EQHU38SF1KBCZIBH8","AW5O1RK3W60FC","379OL9DBSS0OLW3FFHTILCO0AJC9Y6","","null","<img src=""img/food5.png"" style=""width:200px; border:14px solid green;"">","null","","","","","",""
"","image-keyboard-response","140","120748","0.0-140.0","33F859I567ZN9EQHU38SF1KBCZIBH8","AW5O1RK3W60FC","379OL9DBSS0OLW3FFHTILCO0AJC9Y6","","585","img/food1.png","74","585.7000000029802","1","1","2","0.8,0.5,0,0.8,0,0.5,0.5,0.8,0,0,0.8,0.5",""
"","html-keyboard-response","141","121050","0.0-141.0","33F859I567ZN9EQHU38SF1KBCZIBH8","AW5O1RK3W60FC","379OL9DBSS0OLW3FFHTILCO0AJC9Y6","","null","<img src=""img/food1.png"" style=""width:200px; border:14px solid green;"">","null","","","","","",""
"","image-keyboard-response","142","121853","0.0-142.0","33F859I567ZN9EQHU38SF1KBCZIBH8","AW5O1RK3W60FC","379OL9DBSS0OLW3FFHTILCO0AJC9Y6","","802","img/food3.png","75","802.8999999910593","2","1","1","0.8,0.5,0,0.8,0,0.5,0.5,0.8,0,0,0.8,0.5",""
"","html-keyboard-response","143","122155","0.0-143.0","33F859I567ZN9EQHU38SF1KBCZIBH8","AW5O1RK3W60FC","379OL9DBSS0OLW3FFHTILCO0AJC9Y6","","null","<img src=""img/food3.png"" style=""width:200px; border:14px solid green;"">","null","","","","","",""
"","image-keyboard-response","144","122645","0.0-144.0","33F859I567ZN9EQHU38SF1KBCZIBH8","AW5O1RK3W60FC","379OL9DBSS0OLW3FFHTILCO0AJC9Y6","","488.40000000596046","img/food1.png","74","489.3999999910593","1","1","2","0.8,0.5,0,0.8,0,0.5,0.5,0.8,0,0,0.8,0.5",""
"","html-keyboard-response","145","122946","0.0-145.0","33F859I567ZN9EQHU38SF1KBCZIBH8","AW5O1RK3W60FC","379OL9DBSS0OLW3FFHTILCO0AJC9Y6","","null","<img src=""img/food1.png"" style=""width:200px; border:14px solid green;"">","null","","","","","",""
"","image-keyboard-response","146","123389","0.0-146.0","33F859I567ZN9EQHU38SF1KBCZIBH8","AW5O1RK3W60FC","379OL9DBSS0OLW3FFHTILCO0AJC9Y6","","441.79999999701977","img/food1.png","74","442.70000000298023","1","0","2","0.8,0.5,0,0.8,0,0.5,0.5,0.8,0,0,0.8,0.5",""
"","html-keyboard-response","147","123690","0.0-147.0","33F859I567ZN9EQHU38SF1KBCZIBH8","AW5O1RK3W60FC","379OL9DBSS0OLW3FFHTILCO0AJC9Y6","","null","<img src=""img/food1.png"" style=""width:200px;border:14px solid red;"">","null","","","","","",""
"","image-keyboard-response","148","124397","0.0-148.0","33F859I567ZN9EQHU38SF1KBCZIBH8","AW5O1RK3W60FC","379OL9DBSS0OLW3FFHTILCO0AJC9Y6","","705.9000000059605","img/food5.png","74","706.7000000029802","1","1","3","0.8,0.5,0,0.8,0,0.5,0.5,0.8,0,0,0.8,0.5",""
"","html-keyboard-response","149","124698","0.0-149.0","33F859I567ZN9EQHU38SF1KBCZIBH8","AW5O1RK3W60FC","379OL9DBSS0OLW3FFHTILCO0AJC9Y6","","null","<img src=""img/food5.png"" style=""width:200px; border:14px solid green;"">","null","","","","","",""
"","image-keyboard-response","150","125109","0.0-150.0","33F859I567ZN9EQHU38SF1KBCZIBH8","AW5O1RK3W60FC","379OL9DBSS0OLW3FFHTILCO0AJC9Y6","","410.79999999701977","img/food5.png","74","411.5","1","1","3","0.8,0.5,0,0.8,0,0.5,0.5,0.8,0,0,0.8,0.5",""
"","html-keyboard-response","151","125411","0.0-151.0","33F859I567ZN9EQHU38SF1KBCZIBH8","AW5O1RK3W60FC","379OL9DBSS0OLW3FFHTILCO0AJC9Y6","","null","<img src=""img/food5.png"" style=""width:200px; border:14px solid green;"">","null","","","","","",""
"","image-keyboard-response","152","126021","0.0-152.0","33F859I567ZN9EQHU38SF1KBCZIBH8","AW5O1RK3W60FC","379OL9DBSS0OLW3FFHTILCO0AJC9Y6","","609.7999999970198","img/food1.png","74","610.5","1","1","2","0.8,0.5,0,0.8,0,0.5,0.5,0.8,0,0,0.8,0.5",""
"","html-keyboard-response","153","126323","0.0-153.0","33F859I567ZN9EQHU38SF1KBCZIBH8","AW5O1RK3W60FC","379OL9DBSS0OLW3FFHTILCO0AJC9Y6","","null","<img src=""img/food1.png"" style=""width:200px; border:14px solid green;"">","null","","","","","",""
"","image-keyboard-response","154","126869","0.0-154.0","33F859I567ZN9EQHU38SF1KBCZIBH8","AW5O1RK3W60FC","379OL9DBSS0OLW3FFHTILCO0AJC9Y6","","544.5","img/food3.png","75","545.5","2","0","1","0.8,0.5,0,0.8,0,0.5,0.5,0.8,0,0,0.8,0.5",""
"","html-keyboard-response","155","127170","0.0-155.0","33F859I567ZN9EQHU38SF1KBCZIBH8","AW5O1RK3W60FC","379OL9DBSS0OLW3FFHTILCO0AJC9Y6","","null","<img src=""img/food3.png"" style=""width:200px;border:14px solid red;"">","null","","","","","",""
"","image-keyboard-response","156","127677","0.0-156.0","33F859I567ZN9EQHU38SF1KBCZIBH8","AW5O1RK3W60FC","379OL9DBSS0OLW3FFHTILCO0AJC9Y6","","505.80000001192093","img/food1.png","74","506.70000000298023","1","0","2","0.8,0.5,0,0.8,0,0.5,0.5,0.8,0,0,0.8,0.5",""
"","html-keyboard-response","157","127980","0.0-157.0","33F859I567ZN9EQHU38SF1KBCZIBH8","AW5O1RK3W60FC","379OL9DBSS0OLW3FFHTILCO0AJC9Y6","","null","<img src=""img/food1.png"" style=""width:200px;border:14px solid red;"">","null","","","","","",""
"","image-keyboard-response","158","128541","0.0-158.0","33F859I567ZN9EQHU38SF1KBCZIBH8","AW5O1RK3W60FC","379OL9DBSS0OLW3FFHTILCO0AJC9Y6","","560.5","img/food3.png","75","561.2999999970198","2","0","1","0.8,0.5,0,0.8,0,0.5,0.5,0.8,0,0,0.8,0.5",""
"","html-keyboard-response","159","128844","0.0-159.0","33F859I567ZN9EQHU38SF1KBCZIBH8","AW5O1RK3W60FC","379OL9DBSS0OLW3FFHTILCO0AJC9Y6","","null","<img src=""img/food3.png"" style=""width:200px;border:14px solid red;"">","null","","","","","",""
"","image-keyboard-response","160","129302","0.0-160.0","33F859I567ZN9EQHU38SF1KBCZIBH8","AW5O1RK3W60FC","379OL9DBSS0OLW3FFHTILCO0AJC9Y6","","456.70000000298023","img/food5.png","74","457.59999999403954","1","1","3","0.8,0.5,0,0.8,0,0.5,0.5,0.8,0,0,0.8,0.5",""
"","html-keyboard-response","161","129603","0.0-161.0","33F859I567ZN9EQHU38SF1KBCZIBH8","AW5O1RK3W60FC","379OL9DBSS0OLW3FFHTILCO0AJC9Y6","","null","<img src=""img/food5.png"" style=""width:200px; border:14px solid green;"">","null","","","","","",""
"","image-keyboard-response","162","130045","0.0-162.0","33F859I567ZN9EQHU38SF1KBCZIBH8","AW5O1RK3W60FC","379OL9DBSS0OLW3FFHTILCO0AJC9Y6","","440.6000000089407","img/food1.png","74","441.20000000298023","1","1","2","0.8,0.5,0,0.8,0,0.5,0.5,0.8,0,0,0.8,0.5",""
"","html-keyboard-response","163","130347","0.0-163.0","33F859I567ZN9EQHU38SF1KBCZIBH8","AW5O1RK3W60FC","379OL9DBSS0OLW3FFHTILCO0AJC9Y6","","null","<img src=""img/food1.png"" style=""width:200px; border:14px solid green;"">","null","","","","","",""
"","image-keyboard-response","164","130853","0.0-164.0","33F859I567ZN9EQHU38SF1KBCZIBH8","AW5O1RK3W60FC","379OL9DBSS0OLW3FFHTILCO0AJC9Y6","","505.5","img/food3.png","75","506.29999999701977","2","0","1","0.8,0.5,0,0.8,0,0.5,0.5,0.8,0,0,0.8,0.5",""
"","html-keyboard-response","165","131155","0.0-165.0","33F859I567ZN9EQHU38SF1KBCZIBH8","AW5O1RK3W60FC","379OL9DBSS0OLW3FFHTILCO0AJC9Y6","","null","<img src=""img/food3.png"" style=""width:200px;border:14px solid red;"">","null","","","","","",""
"","image-keyboard-response","166","131613","0.0-166.0","33F859I567ZN9EQHU38SF1KBCZIBH8","AW5O1RK3W60FC","379OL9DBSS0OLW3FFHTILCO0AJC9Y6","","456.79999999701977","img/food3.png","75","457.69999998807907","2","1","1","0.8,0.5,0,0.8,0,0.5,0.5,0.8,0,0,0.8,0.5",""
"","html-keyboard-response","167","131915","0.0-167.0","33F859I567ZN9EQHU38SF1KBCZIBH8","AW5O1RK3W60FC","379OL9DBSS0OLW3FFHTILCO0AJC9Y6","","null","<img src=""img/food3.png"" style=""width:200px; border:14px solid green;"">","null","","","","","",""
"","image-keyboard-response","168","132349","0.0-168.0","33F859I567ZN9EQHU38SF1KBCZIBH8","AW5O1RK3W60FC","379OL9DBSS0OLW3FFHTILCO0AJC9Y6","","432.90000000596046","img/food3.png","75","433.6000000089407","2","1","1","0.8,0.5,0,0.8,0,0.5,0.5,0.8,0,0,0.8,0.5",""
"","html-keyboard-response","169","132651","0.0-169.0","33F859I567ZN9EQHU38SF1KBCZIBH8","AW5O1RK3W60FC","379OL9DBSS0OLW3FFHTILCO0AJC9Y6","","null","<img src=""img/food3.png"" style=""width:200px; border:14px solid green;"">","null","","","","","",""
"","image-keyboard-response","170","133149","0.0-170.0","33F859I567ZN9EQHU38SF1KBCZIBH8","AW5O1RK3W60FC","379OL9DBSS0OLW3FFHTILCO0AJC9Y6","","497.70000000298023","img/food1.png","74","498.30000001192093","1","1","2","0.8,0.5,0,0.8,0,0.5,0.5,0.8,0,0,0.8,0.5",""
"","html-keyboard-response","171","133450","0.0-171.0","33F859I567ZN9EQHU38SF1KBCZIBH8","AW5O1RK3W60FC","379OL9DBSS0OLW3FFHTILCO0AJC9Y6","","null","<img src=""img/food1.png"" style=""width:200px; border:14px solid green;"">","null","","","","","",""
"","image-keyboard-response","172","134045","0.0-172.0","33F859I567ZN9EQHU38SF1KBCZIBH8","AW5O1RK3W60FC","379OL9DBSS0OLW3FFHTILCO0AJC9Y6","","593.3999999910593","img/food3.png","75","594.4000000059605","2","1","1","0.8,0.5,0,0.8,0,0.5,0.5,0.8,0,0,0.8,0.5",""
"","html-keyboard-response","173","134346","0.0-173.0","33F859I567ZN9EQHU38SF1KBCZIBH8","AW5O1RK3W60FC","379OL9DBSS0OLW3FFHTILCO0AJC9Y6","","null","<img src=""img/food3.png"" style=""width:200px; border:14px solid green;"">","null","","","","","",""
"","image-keyboard-response","174","134765","0.0-174.0","33F859I567ZN9EQHU38SF1KBCZIBH8","AW5O1RK3W60FC","379OL9DBSS0OLW3FFHTILCO0AJC9Y6","","417.20000000298023","img/food5.png","74","418","1","1","3","0.8,0.5,0,0.8,0,0.5,0.5,0.8,0,0,0.8,0.5",""
"","html-keyboard-response","175","135074","0.0-175.0","33F859I567ZN9EQHU38SF1KBCZIBH8","AW5O1RK3W60FC","379OL9DBSS0OLW3FFHTILCO0AJC9Y6","","null","<img src=""img/food5.png"" style=""width:200px; border:14px solid green;"">","null","","","","","",""
"","image-keyboard-response","176","135509","0.0-176.0","33F859I567ZN9EQHU38SF1KBCZIBH8","AW5O1RK3W60FC","379OL9DBSS0OLW3FFHTILCO0AJC9Y6","","434","img/food5.png","74","434.80000001192093","1","0","3","0.8,0.5,0,0.8,0,0.5,0.5,0.8,0,0,0.8,0.5",""
"","html-keyboard-response","177","135810","0.0-177.0","33F859I567ZN9EQHU38SF1KBCZIBH8","AW5O1RK3W60FC","379OL9DBSS0OLW3FFHTILCO0AJC9Y6","","null","<img src=""img/food5.png"" style=""width:200px;border:14px solid red;"">","null","","","","","",""
"","image-keyboard-response","178","136245","0.0-178.0","33F859I567ZN9EQHU38SF1KBCZIBH8","AW5O1RK3W60FC","379OL9DBSS0OLW3FFHTILCO0AJC9Y6","","433.70000000298023","img/food5.png","74","434.6000000089407","1","1","3","0.8,0.5,0,0.8,0,0.5,0.5,0.8,0,0,0.8,0.5",""
"","html-keyboard-response","179","136547","0.0-179.0","33F859I567ZN9EQHU38SF1KBCZIBH8","AW5O1RK3W60FC","379OL9DBSS0OLW3FFHTILCO0AJC9Y6","","null","<img src=""img/food5.png"" style=""width:200px; border:14px solid green;"">","null","","","","","",""
"","image-keyboard-response","180","137126","0.0-180.0","33F859I567ZN9EQHU38SF1KBCZIBH8","AW5O1RK3W60FC","379OL9DBSS0OLW3FFHTILCO0AJC9Y6","","577.7999999970198","img/food1.png","74","578.6000000089407","1","1","2","0.8,0.5,0,0.8,0,0.5,0.5,0.8,0,0,0.8,0.5",""
"","html-keyboard-response","181","137428","0.0-181.0","33F859I567ZN9EQHU38SF1KBCZIBH8","AW5O1RK3W60FC","379OL9DBSS0OLW3FFHTILCO0AJC9Y6","","null","<img src=""img/food1.png"" style=""width:200px; border:14px solid green;"">","null","","","","","",""
"","html-keyboard-response","182","142765","0.0-182.0","33F859I567ZN9EQHU38SF1KBCZIBH8","AW5O1RK3W60FC","379OL9DBSS0OLW3FFHTILCO0AJC9Y6","","","","","","","","","",""
"","image-keyboard-response","183","144941","0.0-183.0","33F859I567ZN9EQHU38SF1KBCZIBH8","AW5O1RK3W60FC","379OL9DBSS0OLW3FFHTILCO0AJC9Y6","","2174.7999999970198","img/food2.png","76","2175.6000000089407","3","1","2","0,0.5,0.8,0.5,0,0.8,0,0.5,0.8,0,0.8,0.5",""
"","html-keyboard-response","184","145242","0.0-184.0","33F859I567ZN9EQHU38SF1KBCZIBH8","AW5O1RK3W60FC","379OL9DBSS0OLW3FFHTILCO0AJC9Y6","","null","<img src=""img/food2.png"" style=""width:200px; border:14px solid green;"">","null","","","","","",""
"","image-keyboard-response","185","147509","0.0-185.0","33F859I567ZN9EQHU38SF1KBCZIBH8","AW5O1RK3W60FC","379OL9DBSS0OLW3FFHTILCO0AJC9Y6","","2265.4000000059605","img/food4.png","75","2266.4000000059605","2","0","1","0,0.5,0.8,0.5,0,0.8,0,0.5,0.8,0,0.8,0.5",""
"","html-keyboard-response","186","147811","0.0-186.0","33F859I567ZN9EQHU38SF1KBCZIBH8","AW5O1RK3W60FC","379OL9DBSS0OLW3FFHTILCO0AJC9Y6","","null","<img src=""img/food4.png"" style=""width:200px;border:14px solid red;"">","null","","","","","",""
"","image-keyboard-response","187","148541","0.0-187.0","33F859I567ZN9EQHU38SF1KBCZIBH8","AW5O1RK3W60FC","379OL9DBSS0OLW3FFHTILCO0AJC9Y6","","728.9000000059605","img/food2.png","76","730","3","0","2","0,0.5,0.8,0.5,0,0.8,0,0.5,0.8,0,0.8,0.5",""
"","html-keyboard-response","188","148844","0.0-188.0","33F859I567ZN9EQHU38SF1KBCZIBH8","AW5O1RK3W60FC","379OL9DBSS0OLW3FFHTILCO0AJC9Y6","","null","<img src=""img/food2.png"" style=""width:200px;border:14px solid red;"">","null","","","","","",""
"","image-keyboard-response","189","149653","0.0-189.0","33F859I567ZN9EQHU38SF1KBCZIBH8","AW5O1RK3W60FC","379OL9DBSS0OLW3FFHTILCO0AJC9Y6","","808.7000000029802","img/food6.png","74","809.7000000029802","1","0","3","0,0.5,0.8,0.5,0,0.8,0,0.5,0.8,0,0.8,0.5",""
"","html-keyboard-response","190","149955","0.0-190.0","33F859I567ZN9EQHU38SF1KBCZIBH8","AW5O1RK3W60FC","379OL9DBSS0OLW3FFHTILCO0AJC9Y6","","null","<img src=""img/food6.png"" style=""width:200px;border:14px solid red;"">","null","","","","","",""
"","image-keyboard-response","191","150949","0.0-191.0","33F859I567ZN9EQHU38SF1KBCZIBH8","AW5O1RK3W60FC","379OL9DBSS0OLW3FFHTILCO0AJC9Y6","","992.2999999970198","img/food4.png","75","993.3000000119209","2","0","1","0,0.5,0.8,0.5,0,0.8,0,0.5,0.8,0,0.8,0.5",""
"","html-keyboard-response","192","151250","0.0-192.0","33F859I567ZN9EQHU38SF1KBCZIBH8","AW5O1RK3W60FC","379OL9DBSS0OLW3FFHTILCO0AJC9Y6","","null","<img src=""img/food4.png"" style=""width:200px;border:14px solid red;"">","null","","","","","",""
"","image-keyboard-response","193","152013","0.0-193.0","33F859I567ZN9EQHU38SF1KBCZIBH8","AW5O1RK3W60FC","379OL9DBSS0OLW3FFHTILCO0AJC9Y6","","762.2000000029802","img/food6.png","74","762.9000000059605","1","0","3","0,0.5,0.8,0.5,0,0.8,0,0.5,0.8,0,0.8,0.5",""
"","html-keyboard-response","194","152314","0.0-194.0","33F859I567ZN9EQHU38SF1KBCZIBH8","AW5O1RK3W60FC","379OL9DBSS0OLW3FFHTILCO0AJC9Y6","","null","<img src=""img/food6.png"" style=""width:200px;border:14px solid red;"">","null","","","","","",""
"","image-keyboard-response","195","153221","0.0-195.0","33F859I567ZN9EQHU38SF1KBCZIBH8","AW5O1RK3W60FC","379OL9DBSS0OLW3FFHTILCO0AJC9Y6","","905.0999999940395","img/food2.png","76","906","3","1","2","0,0.5,0.8,0.5,0,0.8,0,0.5,0.8,0,0.8,0.5",""
"","html-keyboard-response","196","153522","0.0-196.0","33F859I567ZN9EQHU38SF1KBCZIBH8","AW5O1RK3W60FC","379OL9DBSS0OLW3FFHTILCO0AJC9Y6","","null","<img src=""img/food2.png"" style=""width:200px; border:14px solid green;"">","null","","","","","",""
"","image-keyboard-response","197","155413","0.0-197.0","33F859I567ZN9EQHU38SF1KBCZIBH8","AW5O1RK3W60FC","379OL9DBSS0OLW3FFHTILCO0AJC9Y6","","1890","img/food4.png","74","1890.800000011921","1","0","1","0,0.5,0.8,0.5,0,0.8,0,0.5,0.8,0,0.8,0.5",""
"","html-keyboard-response","198","155715","0.0-198.0","33F859I567ZN9EQHU38SF1KBCZIBH8","AW5O1RK3W60FC","379OL9DBSS0OLW3FFHTILCO0AJC9Y6","","null","<img src=""img/food4.png"" style=""width:200px;border:14px solid red;"">","null","","","","","",""
"","image-keyboard-response","199","156557","0.0-199.0","33F859I567ZN9EQHU38SF1KBCZIBH8","AW5O1RK3W60FC","379OL9DBSS0OLW3FFHTILCO0AJC9Y6","","840.5","img/food4.png","74","841.2999999970198","1","0","1","0,0.5,0.8,0.5,0,0.8,0,0.5,0.8,0,0.8,0.5",""
"","html-keyboard-response","200","156858","0.0-200.0","33F859I567ZN9EQHU38SF1KBCZIBH8","AW5O1RK3W60FC","379OL9DBSS0OLW3FFHTILCO0AJC9Y6","","null","<img src=""img/food4.png"" style=""width:200px;border:14px solid red;"">","null","","","","","",""
"","image-keyboard-response","201","158189","0.0-201.0","33F859I567ZN9EQHU38SF1KBCZIBH8","AW5O1RK3W60FC","379OL9DBSS0OLW3FFHTILCO0AJC9Y6","","1330","img/food6.png","75","1330.7999999970198","2","0","3","0,0.5,0.8,0.5,0,0.8,0,0.5,0.8,0,0.8,0.5",""
"","html-keyboard-response","202","158491","0.0-202.0","33F859I567ZN9EQHU38SF1KBCZIBH8","AW5O1RK3W60FC","379OL9DBSS0OLW3FFHTILCO0AJC9Y6","","null","<img src=""img/food6.png"" style=""width:200px;border:14px solid red;"">","null","","","","","",""
"","image-keyboard-response","203","159293","0.0-203.0","33F859I567ZN9EQHU38SF1KBCZIBH8","AW5O1RK3W60FC","379OL9DBSS0OLW3FFHTILCO0AJC9Y6","","800.8999999910593","img/food2.png","76","801.7999999970198","3","1","2","0,0.5,0.8,0.5,0,0.8,0,0.5,0.8,0,0.8,0.5",""
"","html-keyboard-response","204","159595","0.0-204.0","33F859I567ZN9EQHU38SF1KBCZIBH8","AW5O1RK3W60FC","379OL9DBSS0OLW3FFHTILCO0AJC9Y6","","null","<img src=""img/food2.png"" style=""width:200px; border:14px solid green;"">","null","","","","","",""
"","image-keyboard-response","205","161109","0.0-205.0","33F859I567ZN9EQHU38SF1KBCZIBH8","AW5O1RK3W60FC","379OL9DBSS0OLW3FFHTILCO0AJC9Y6","","1513.2000000029802","img/food6.png","76","1513.7999999970198","3","1","3","0,0.5,0.8,0.5,0,0.8,0,0.5,0.8,0,0.8,0.5",""
"","html-keyboard-response","206","161411","0.0-206.0","33F859I567ZN9EQHU38SF1KBCZIBH8","AW5O1RK3W60FC","379OL9DBSS0OLW3FFHTILCO0AJC9Y6","","null","<img src=""img/food6.png"" style=""width:200px; border:14px solid green;"">","null","","","","","",""
"","image-keyboard-response","207","162102","0.0-207.0","33F859I567ZN9EQHU38SF1KBCZIBH8","AW5O1RK3W60FC","379OL9DBSS0OLW3FFHTILCO0AJC9Y6","","690","img/food2.png","76","690.7999999970198","3","0","2","0,0.5,0.8,0.5,0,0.8,0,0.5,0.8,0,0.8,0.5",""
"","html-keyboard-response","208","162403","0.0-208.0","33F859I567ZN9EQHU38SF1KBCZIBH8","AW5O1RK3W60FC","379OL9DBSS0OLW3FFHTILCO0AJC9Y6","","null","<img src=""img/food2.png"" style=""width:200px;border:14px solid red;"">","null","","","","","",""
"","image-keyboard-response","209","165622","0.0-209.0","33F859I567ZN9EQHU38SF1KBCZIBH8","AW5O1RK3W60FC","379OL9DBSS0OLW3FFHTILCO0AJC9Y6","","3217.7999999970198","img/food4.png","74","3218.7999999970198","1","0","1","0,0.5,0.8,0.5,0,0.8,0,0.5,0.8,0,0.8,0.5",""
"","html-keyboard-response","210","165925","0.0-210.0","33F859I567ZN9EQHU38SF1KBCZIBH8","AW5O1RK3W60FC","379OL9DBSS0OLW3FFHTILCO0AJC9Y6","","null","<img src=""img/food4.png"" style=""width:200px;border:14px solid red;"">","null","","","","","",""
"","image-keyboard-response","211","166733","0.0-211.0","33F859I567ZN9EQHU38SF1KBCZIBH8","AW5O1RK3W60FC","379OL9DBSS0OLW3FFHTILCO0AJC9Y6","","806.9000000059605","img/food6.png","76","807.7999999970198","3","1","3","0,0.5,0.8,0.5,0,0.8,0,0.5,0.8,0,0.8,0.5",""
"","html-keyboard-response","212","167035","0.0-212.0","33F859I567ZN9EQHU38SF1KBCZIBH8","AW5O1RK3W60FC","379OL9DBSS0OLW3FFHTILCO0AJC9Y6","","null","<img src=""img/food6.png"" style=""width:200px; border:14px solid green;"">","null","","","","","",""
"","image-keyboard-response","213","167461","0.0-213.0","33F859I567ZN9EQHU38SF1KBCZIBH8","AW5O1RK3W60FC","379OL9DBSS0OLW3FFHTILCO0AJC9Y6","","424.5","img/food6.png","76","425.40000000596046","3","1","3","0,0.5,0.8,0.5,0,0.8,0,0.5,0.8,0,0.8,0.5",""
"","html-keyboard-response","214","167763","0.0-214.0","33F859I567ZN9EQHU38SF1KBCZIBH8","AW5O1RK3W60FC","379OL9DBSS0OLW3FFHTILCO0AJC9Y6","","null","<img src=""img/food6.png"" style=""width:200px; border:14px solid green;"">","null","","","","","",""
"","image-keyboard-response","215","168246","0.0-215.0","33F859I567ZN9EQHU38SF1KBCZIBH8","AW5O1RK3W60FC","379OL9DBSS0OLW3FFHTILCO0AJC9Y6","","481.79999999701977","img/food6.png","76","482.5","3","1","3","0,0.5,0.8,0.5,0,0.8,0,0.5,0.8,0,0.8,0.5",""
"","html-keyboard-response","216","168547","0.0-216.0","33F859I567ZN9EQHU38SF1KBCZIBH8","AW5O1RK3W60FC","379OL9DBSS0OLW3FFHTILCO0AJC9Y6","","null","<img src=""img/food6.png"" style=""width:200px; border:14px solid green;"">","null","","","","","",""
"","image-keyboard-response","217","169094","0.0-217.0","33F859I567ZN9EQHU38SF1KBCZIBH8","AW5O1RK3W60FC","379OL9DBSS0OLW3FFHTILCO0AJC9Y6","","544.5999999940395","img/food2.png","76","545.9000000059605","3","1","2","0,0.5,0.8,0.5,0,0.8,0,0.5,0.8,0,0.8,0.5",""
"","html-keyboard-response","218","169395","0.0-218.0","33F859I567ZN9EQHU38SF1KBCZIBH8","AW5O1RK3W60FC","379OL9DBSS0OLW3FFHTILCO0AJC9Y6","","null","<img src=""img/food2.png"" style=""width:200px; border:14px solid green;"">","null","","","","","",""
"","image-keyboard-response","219","169885","0.0-219.0","33F859I567ZN9EQHU38SF1KBCZIBH8","AW5O1RK3W60FC","379OL9DBSS0OLW3FFHTILCO0AJC9Y6","","488.6000000089407","img/food6.png","76","489.70000000298023","3","0","3","0,0.5,0.8,0.5,0,0.8,0,0.5,0.8,0,0.8,0.5",""
"","html-keyboard-response","220","170186","0.0-220.0","33F859I567ZN9EQHU38SF1KBCZIBH8","AW5O1RK3W60FC","379OL9DBSS0OLW3FFHTILCO0AJC9Y6","","null","<img src=""img/food6.png"" style=""width:200px;border:14px solid red;"">","null","","","","","",""
"","image-keyboard-response","221","170853","0.0-221.0","33F859I567ZN9EQHU38SF1KBCZIBH8","AW5O1RK3W60FC","379OL9DBSS0OLW3FFHTILCO0AJC9Y6","","665.6000000089407","img/food2.png","76","666.5","3","1","2","0,0.5,0.8,0.5,0,0.8,0,0.5,0.8,0,0.8,0.5",""
"","html-keyboard-response","222","171155","0.0-222.0","33F859I567ZN9EQHU38SF1KBCZIBH8","AW5O1RK3W60FC","379OL9DBSS0OLW3FFHTILCO0AJC9Y6","","null","<img src=""img/food2.png"" style=""width:200px; border:14px solid green;"">","null","","","","","",""
"","image-keyboard-response","223","172421","0.0-223.0","33F859I567ZN9EQHU38SF1KBCZIBH8","AW5O1RK3W60FC","379OL9DBSS0OLW3FFHTILCO0AJC9Y6","","1265.2000000029802","img/food4.png","74","1266.1000000089407","1","0","1","0,0.5,0.8,0.5,0,0.8,0,0.5,0.8,0,0.8,0.5",""
"","html-keyboard-response","224","172723","0.0-224.0","33F859I567ZN9EQHU38SF1KBCZIBH8","AW5O1RK3W60FC","379OL9DBSS0OLW3FFHTILCO0AJC9Y6","","null","<img src=""img/food4.png"" style=""width:200px;border:14px solid red;"">","null","","","","","",""
"","image-keyboard-response","225","173445","0.0-225.0","33F859I567ZN9EQHU38SF1KBCZIBH8","AW5O1RK3W60FC","379OL9DBSS0OLW3FFHTILCO0AJC9Y6","","720.5","img/food2.png","76","721.4000000059605","3","0","2","0,0.5,0.8,0.5,0,0.8,0,0.5,0.8,0,0.8,0.5",""
"","html-keyboard-response","226","173747","0.0-226.0","33F859I567ZN9EQHU38SF1KBCZIBH8","AW5O1RK3W60FC","379OL9DBSS0OLW3FFHTILCO0AJC9Y6","","null","<img src=""img/food2.png"" style=""width:200px;border:14px solid red;"">","null","","","","","",""
"","image-keyboard-response","227","174509","0.0-227.0","33F859I567ZN9EQHU38SF1KBCZIBH8","AW5O1RK3W60FC","379OL9DBSS0OLW3FFHTILCO0AJC9Y6","","760.1999999880791","img/food4.png","75","761.2000000029802","2","1","1","0,0.5,0.8,0.5,0,0.8,0,0.5,0.8,0,0.8,0.5",""
"","html-keyboard-response","228","174810","0.0-228.0","33F859I567ZN9EQHU38SF1KBCZIBH8","AW5O1RK3W60FC","379OL9DBSS0OLW3FFHTILCO0AJC9Y6","","null","<img src=""img/food4.png"" style=""width:200px; border:14px solid green;"">","null","","","","","",""
"","image-keyboard-response","229","175990","0.0-229.0","33F859I567ZN9EQHU38SF1KBCZIBH8","AW5O1RK3W60FC","379OL9DBSS0OLW3FFHTILCO0AJC9Y6","","1178.2000000029802","img/food2.png","76","1179","3","1","2","0,0.5,0.8,0.5,0,0.8,0,0.5,0.8,0,0.8,0.5",""
"","html-keyboard-response","230","176291","0.0-230.0","33F859I567ZN9EQHU38SF1KBCZIBH8","AW5O1RK3W60FC","379OL9DBSS0OLW3FFHTILCO0AJC9Y6","","null","<img src=""img/food2.png"" style=""width:200px; border:14px solid green;"">","null","","","","","",""
"","image-keyboard-response","231","177429","0.0-231.0","33F859I567ZN9EQHU38SF1KBCZIBH8","AW5O1RK3W60FC","379OL9DBSS0OLW3FFHTILCO0AJC9Y6","","1137.1000000089407","img/food6.png","76","1138","3","1","3","0,0.5,0.8,0.5,0,0.8,0,0.5,0.8,0,0.8,0.5",""
"","html-keyboard-response","232","177731","0.0-232.0","33F859I567ZN9EQHU38SF1KBCZIBH8","AW5O1RK3W60FC","379OL9DBSS0OLW3FFHTILCO0AJC9Y6","","null","<img src=""img/food6.png"" style=""width:200px; border:14px solid green;"">","null","","","","","",""
"","image-keyboard-response","233","178285","0.0-233.0","33F859I567ZN9EQHU38SF1KBCZIBH8","AW5O1RK3W60FC","379OL9DBSS0OLW3FFHTILCO0AJC9Y6","","553.4000000059605","img/food2.png","76","554.2999999970198","3","1","2","0,0.5,0.8,0.5,0,0.8,0,0.5,0.8,0,0.8,0.5",""
"","html-keyboard-response","234","178587","0.0-234.0","33F859I567ZN9EQHU38SF1KBCZIBH8","AW5O1RK3W60FC","379OL9DBSS0OLW3FFHTILCO0AJC9Y6","","null","<img src=""img/food2.png"" style=""width:200px; border:14px solid green;"">","null","","","","","",""
"","image-keyboard-response","235","179077","0.0-235.0","33F859I567ZN9EQHU38SF1KBCZIBH8","AW5O1RK3W60FC","379OL9DBSS0OLW3FFHTILCO0AJC9Y6","","489.09999999403954","img/food6.png","76","489.90000000596046","3","1","3","0,0.5,0.8,0.5,0,0.8,0,0.5,0.8,0,0.8,0.5",""
"","html-keyboard-response","236","179379","0.0-236.0","33F859I567ZN9EQHU38SF1KBCZIBH8","AW5O1RK3W60FC","379OL9DBSS0OLW3FFHTILCO0AJC9Y6","","null","<img src=""img/food6.png"" style=""width:200px; border:14px solid green;"">","null","","","","","",""
"","image-keyboard-response","237","179837","0.0-237.0","33F859I567ZN9EQHU38SF1KBCZIBH8","AW5O1RK3W60FC","379OL9DBSS0OLW3FFHTILCO0AJC9Y6","","457.59999999403954","img/food6.png","76","458.40000000596046","3","1","3","0,0.5,0.8,0.5,0,0.8,0,0.5,0.8,0,0.8,0.5",""
"","html-keyboard-response","238","180139","0.0-238.0","33F859I567ZN9EQHU38SF1KBCZIBH8","AW5O1RK3W60FC","379OL9DBSS0OLW3FFHTILCO0AJC9Y6","","null","<img src=""img/food6.png"" style=""width:200px; border:14px solid green;"">","null","","","","","",""
"","image-keyboard-response","239","180941","0.0-239.0","33F859I567ZN9EQHU38SF1KBCZIBH8","AW5O1RK3W60FC","379OL9DBSS0OLW3FFHTILCO0AJC9Y6","","800.5999999940395","img/food4.png","75","801.3999999910593","2","1","1","0,0.5,0.8,0.5,0,0.8,0,0.5,0.8,0,0.8,0.5",""
"","html-keyboard-response","240","181249","0.0-240.0","33F859I567ZN9EQHU38SF1KBCZIBH8","AW5O1RK3W60FC","379OL9DBSS0OLW3FFHTILCO0AJC9Y6","","null","<img src=""img/food4.png"" style=""width:200px; border:14px solid green;"">","null","","","","","",""
"","image-keyboard-response","241","181669","0.0-241.0","33F859I567ZN9EQHU38SF1KBCZIBH8","AW5O1RK3W60FC","379OL9DBSS0OLW3FFHTILCO0AJC9Y6","","418.70000000298023","img/food4.png","75","419.6000000089407","2","0","1","0,0.5,0.8,0.5,0,0.8,0,0.5,0.8,0,0.8,0.5",""
"","html-keyboard-response","242","181985","0.0-242.0","33F859I567ZN9EQHU38SF1KBCZIBH8","AW5O1RK3W60FC","379OL9DBSS0OLW3FFHTILCO0AJC9Y6","","null","<img src=""img/food4.png"" style=""width:200px;border:14px solid red;"">","null","","","","","",""
"","image-keyboard-response","243","182644","0.0-243.0","33F859I567ZN9EQHU38SF1KBCZIBH8","AW5O1RK3W60FC","379OL9DBSS0OLW3FFHTILCO0AJC9Y6","","658.7999999970198","img/food2.png","76","659.7000000029802","3","1","2","0,0.5,0.8,0.5,0,0.8,0,0.5,0.8,0,0.8,0.5",""
"","html-keyboard-response","244","182946","0.0-244.0","33F859I567ZN9EQHU38SF1KBCZIBH8","AW5O1RK3W60FC","379OL9DBSS0OLW3FFHTILCO0AJC9Y6","","null","<img src=""img/food2.png"" style=""width:200px; border:14px solid green;"">","null","","","","","",""
"","image-keyboard-response","245","183765","0.0-245.0","33F859I567ZN9EQHU38SF1KBCZIBH8","AW5O1RK3W60FC","379OL9DBSS0OLW3FFHTILCO0AJC9Y6","","817.2999999970198","img/food4.png","75","818.2000000029802","2","1","1","0,0.5,0.8,0.5,0,0.8,0,0.5,0.8,0,0.8,0.5",""
"","html-keyboard-response","246","184067","0.0-246.0","33F859I567ZN9EQHU38SF1KBCZIBH8","AW5O1RK3W60FC","379OL9DBSS0OLW3FFHTILCO0AJC9Y6","","null","<img src=""img/food4.png"" style=""width:200px; border:14px solid green;"">","null","","","","","",""
"","image-keyboard-response","247","184478","0.0-247.0","33F859I567ZN9EQHU38SF1KBCZIBH8","AW5O1RK3W60FC","379OL9DBSS0OLW3FFHTILCO0AJC9Y6","","409.79999999701977","img/food4.png","75","410.69999998807907","2","0","1","0,0.5,0.8,0.5,0,0.8,0,0.5,0.8,0,0.8,0.5",""
"","html-keyboard-response","248","184780","0.0-248.0","33F859I567ZN9EQHU38SF1KBCZIBH8","AW5O1RK3W60FC","379OL9DBSS0OLW3FFHTILCO0AJC9Y6","","null","<img src=""img/food4.png"" style=""width:200px;border:14px solid red;"">","null","","","","","",""
"","image-keyboard-response","249","185373","0.0-249.0","33F859I567ZN9EQHU38SF1KBCZIBH8","AW5O1RK3W60FC","379OL9DBSS0OLW3FFHTILCO0AJC9Y6","","591.5","img/food6.png","76","592.2999999970198","3","1","3","0,0.5,0.8,0.5,0,0.8,0,0.5,0.8,0,0.8,0.5",""
"","html-keyboard-response","250","185675","0.0-250.0","33F859I567ZN9EQHU38SF1KBCZIBH8","AW5O1RK3W60FC","379OL9DBSS0OLW3FFHTILCO0AJC9Y6","","null","<img src=""img/food6.png"" style=""width:200px; border:14px solid green;"">","null","","","","","",""
"","image-keyboard-response","251","186293","0.0-251.0","33F859I567ZN9EQHU38SF1KBCZIBH8","AW5O1RK3W60FC","379OL9DBSS0OLW3FFHTILCO0AJC9Y6","","617.5999999940395","img/food2.png","76","618.2000000029802","3","1","2","0,0.5,0.8,0.5,0,0.8,0,0.5,0.8,0,0.8,0.5",""
"","html-keyboard-response","252","186594","0.0-252.0","33F859I567ZN9EQHU38SF1KBCZIBH8","AW5O1RK3W60FC","379OL9DBSS0OLW3FFHTILCO0AJC9Y6","","null","<img src=""img/food2.png"" style=""width:200px; border:14px solid green;"">","null","","","","","",""
"","image-keyboard-response","253","186997","0.0-253.0","33F859I567ZN9EQHU38SF1KBCZIBH8","AW5O1RK3W60FC","379OL9DBSS0OLW3FFHTILCO0AJC9Y6","","401.5","img/food2.png","76","402.29999999701977","3","1","2","0,0.5,0.8,0.5,0,0.8,0,0.5,0.8,0,0.8,0.5",""
"","html-keyboard-response","254","187299","0.0-254.0","33F859I567ZN9EQHU38SF1KBCZIBH8","AW5O1RK3W60FC","379OL9DBSS0OLW3FFHTILCO0AJC9Y6","","null","<img src=""img/food2.png"" style=""width:200px; border:14px solid green;"">","null","","","","","",""
"","image-keyboard-response","255","188141","0.0-255.0","33F859I567ZN9EQHU38SF1KBCZIBH8","AW5O1RK3W60FC","379OL9DBSS0OLW3FFHTILCO0AJC9Y6","","840.7999999970198","img/food6.png","76","841.6000000089407","3","1","3","0,0.5,0.8,0.5,0,0.8,0,0.5,0.8,0,0.8,0.5",""
"","html-keyboard-response","256","188442","0.0-256.0","33F859I567ZN9EQHU38SF1KBCZIBH8","AW5O1RK3W60FC","379OL9DBSS0OLW3FFHTILCO0AJC9Y6","","null","<img src=""img/food6.png"" style=""width:200px; border:14px solid green;"">","null","","","","","",""
"","image-keyboard-response","257","188845","0.0-257.0","33F859I567ZN9EQHU38SF1KBCZIBH8","AW5O1RK3W60FC","379OL9DBSS0OLW3FFHTILCO0AJC9Y6","","402.5","img/food6.png","76","403.09999999403954","3","1","3","0,0.5,0.8,0.5,0,0.8,0,0.5,0.8,0,0.8,0.5",""
"","html-keyboard-response","258","189147","0.0-258.0","33F859I567ZN9EQHU38SF1KBCZIBH8","AW5O1RK3W60FC","379OL9DBSS0OLW3FFHTILCO0AJC9Y6","","null","<img src=""img/food6.png"" style=""width:200px; border:14px solid green;"">","null","","","","","",""
"","image-keyboard-response","259","189773","0.0-259.0","33F859I567ZN9EQHU38SF1KBCZIBH8","AW5O1RK3W60FC","379OL9DBSS0OLW3FFHTILCO0AJC9Y6","","625.7000000029802","img/food4.png","75","626.5","2","0","1","0,0.5,0.8,0.5,0,0.8,0,0.5,0.8,0,0.8,0.5",""
"","html-keyboard-response","260","190076","0.0-260.0","33F859I567ZN9EQHU38SF1KBCZIBH8","AW5O1RK3W60FC","379OL9DBSS0OLW3FFHTILCO0AJC9Y6","","null","<img src=""img/food4.png"" style=""width:200px;border:14px solid red;"">","null","","","","","",""
"","image-keyboard-response","261","190677","0.0-261.0","33F859I567ZN9EQHU38SF1KBCZIBH8","AW5O1RK3W60FC","379OL9DBSS0OLW3FFHTILCO0AJC9Y6","","600.2999999970198","img/food2.png","76","601.2000000029802","3","1","2","0,0.5,0.8,0.5,0,0.8,0,0.5,0.8,0,0.8,0.5",""
"","html-keyboard-response","262","190979","0.0-262.0","33F859I567ZN9EQHU38SF1KBCZIBH8","AW5O1RK3W60FC","379OL9DBSS0OLW3FFHTILCO0AJC9Y6","","null","<img src=""img/food2.png"" style=""width:200px; border:14px solid green;"">","null","","","","","",""
"","image-keyboard-response","263","191797","0.0-263.0","33F859I567ZN9EQHU38SF1KBCZIBH8","AW5O1RK3W60FC","379OL9DBSS0OLW3FFHTILCO0AJC9Y6","","816.8999999910593","img/food4.png","75","818","2","1","1","0,0.5,0.8,0.5,0,0.8,0,0.5,0.8,0,0.8,0.5",""
"","html-keyboard-response","264","192100","0.0-264.0","33F859I567ZN9EQHU38SF1KBCZIBH8","AW5O1RK3W60FC","379OL9DBSS0OLW3FFHTILCO0AJC9Y6","","null","<img src=""img/food4.png"" style=""width:200px; border:14px solid green;"">","null","","","","","",""
"","image-keyboard-response","265","192653","0.0-265.0","33F859I567ZN9EQHU38SF1KBCZIBH8","AW5O1RK3W60FC","379OL9DBSS0OLW3FFHTILCO0AJC9Y6","","552.1999999880791","img/food6.png","76","552.8999999910593","3","1","3","0,0.5,0.8,0.5,0,0.8,0,0.5,0.8,0,0.8,0.5",""
"","html-keyboard-response","266","192955","0.0-266.0","33F859I567ZN9EQHU38SF1KBCZIBH8","AW5O1RK3W60FC","379OL9DBSS0OLW3FFHTILCO0AJC9Y6","","null","<img src=""img/food6.png"" style=""width:200px; border:14px solid green;"">","null","","","","","",""
"","image-keyboard-response","267","193613","0.0-267.0","33F859I567ZN9EQHU38SF1KBCZIBH8","AW5O1RK3W60FC","379OL9DBSS0OLW3FFHTILCO0AJC9Y6","","656.7999999970198","img/food2.png","75","657.7000000029802","2","0","2","0,0.5,0.8,0.5,0,0.8,0,0.5,0.8,0,0.8,0.5",""
"","html-keyboard-response","268","193914","0.0-268.0","33F859I567ZN9EQHU38SF1KBCZIBH8","AW5O1RK3W60FC","379OL9DBSS0OLW3FFHTILCO0AJC9Y6","","null","<img src=""img/food2.png"" style=""width:200px;border:14px solid red;"">","null","","","","","",""
"","image-keyboard-response","269","194782","0.0-269.0","33F859I567ZN9EQHU38SF1KBCZIBH8","AW5O1RK3W60FC","379OL9DBSS0OLW3FFHTILCO0AJC9Y6","","866.5999999940395","img/food2.png","76","867.5","3","1","2","0,0.5,0.8,0.5,0,0.8,0,0.5,0.8,0,0.8,0.5",""
"","html-keyboard-response","270","195084","0.0-270.0","33F859I567ZN9EQHU38SF1KBCZIBH8","AW5O1RK3W60FC","379OL9DBSS0OLW3FFHTILCO0AJC9Y6","","null","<img src=""img/food2.png"" style=""width:200px; border:14px solid green;"">","null","","","","","",""
"","image-keyboard-response","271","195757","0.0-271.0","33F859I567ZN9EQHU38SF1KBCZIBH8","AW5O1RK3W60FC","379OL9DBSS0OLW3FFHTILCO0AJC9Y6","","671.5","img/food4.png","75","672.3999999910593","2","0","1","0,0.5,0.8,0.5,0,0.8,0,0.5,0.8,0,0.8,0.5",""
"","html-keyboard-response","272","196058","0.0-272.0","33F859I567ZN9EQHU38SF1KBCZIBH8","AW5O1RK3W60FC","379OL9DBSS0OLW3FFHTILCO0AJC9Y6","","null","<img src=""img/food4.png"" style=""width:200px;border:14px solid red;"">","null","","","","","",""
"","image-keyboard-response","273","196510","0.0-273.0","33F859I567ZN9EQHU38SF1KBCZIBH8","AW5O1RK3W60FC","379OL9DBSS0OLW3FFHTILCO0AJC9Y6","","450.09999999403954","img/food4.png","75","451.29999999701977","2","1","1","0,0.5,0.8,0.5,0,0.8,0,0.5,0.8,0,0.8,0.5",""
"","html-keyboard-response","274","196812","0.0-274.0","33F859I567ZN9EQHU38SF1KBCZIBH8","AW5O1RK3W60FC","379OL9DBSS0OLW3FFHTILCO0AJC9Y6","","null","<img src=""img/food4.png"" style=""width:200px; border:14px solid green;"">","null","","","","","",""
"","image-keyboard-response","275","197317","0.0-275.0","33F859I567ZN9EQHU38SF1KBCZIBH8","AW5O1RK3W60FC","379OL9DBSS0OLW3FFHTILCO0AJC9Y6","","503.70000000298023","img/food2.png","76","504.59999999403954","3","1","2","0,0.5,0.8,0.5,0,0.8,0,0.5,0.8,0,0.8,0.5",""
"","html-keyboard-response","276","197619","0.0-276.0","33F859I567ZN9EQHU38SF1KBCZIBH8","AW5O1RK3W60FC","379OL9DBSS0OLW3FFHTILCO0AJC9Y6","","null","<img src=""img/food2.png"" style=""width:200px; border:14px solid green;"">","null","","","","","",""
"","image-keyboard-response","277","198285","0.0-277.0","33F859I567ZN9EQHU38SF1KBCZIBH8","AW5O1RK3W60FC","379OL9DBSS0OLW3FFHTILCO0AJC9Y6","","665.2000000029802","img/food6.png","76","666.1000000089407","3","0","3","0,0.5,0.8,0.5,0,0.8,0,0.5,0.8,0,0.8,0.5",""
"","html-keyboard-response","278","198587","0.0-278.0","33F859I567ZN9EQHU38SF1KBCZIBH8","AW5O1RK3W60FC","379OL9DBSS0OLW3FFHTILCO0AJC9Y6","","null","<img src=""img/food6.png"" style=""width:200px;border:14px solid red;"">","null","","","","","",""
"","image-keyboard-response","279","198997","0.0-279.0","33F859I567ZN9EQHU38SF1KBCZIBH8","AW5O1RK3W60FC","379OL9DBSS0OLW3FFHTILCO0AJC9Y6","","408.6000000089407","img/food6.png","76","409.5","3","1","3","0,0.5,0.8,0.5,0,0.8,0,0.5,0.8,0,0.8,0.5",""
"","html-keyboard-response","280","199299","0.0-280.0","33F859I567ZN9EQHU38SF1KBCZIBH8","AW5O1RK3W60FC","379OL9DBSS0OLW3FFHTILCO0AJC9Y6","","null","<img src=""img/food6.png"" style=""width:200px; border:14px solid green;"">","null","","","","","",""
"","image-keyboard-response","281","200037","0.0-281.0","33F859I567ZN9EQHU38SF1KBCZIBH8","AW5O1RK3W60FC","379OL9DBSS0OLW3FFHTILCO0AJC9Y6","","737.4000000059605","img/food4.png","75","738.2999999970198","2","1","1","0,0.5,0.8,0.5,0,0.8,0,0.5,0.8,0,0.8,0.5",""
"","html-keyboard-response","282","200339","0.0-282.0","33F859I567ZN9EQHU38SF1KBCZIBH8","AW5O1RK3W60FC","379OL9DBSS0OLW3FFHTILCO0AJC9Y6","","null","<img src=""img/food4.png"" style=""width:200px; border:14px solid green;"">","null","","","","","",""
"","image-keyboard-response","283","200798","0.0-283.0","33F859I567ZN9EQHU38SF1KBCZIBH8","AW5O1RK3W60FC","379OL9DBSS0OLW3FFHTILCO0AJC9Y6","","457.5","img/food4.png","75","458.40000000596046","2","1","1","0,0.5,0.8,0.5,0,0.8,0,0.5,0.8,0,0.8,0.5",""
"","html-keyboard-response","284","201100","0.0-284.0","33F859I567ZN9EQHU38SF1KBCZIBH8","AW5O1RK3W60FC","379OL9DBSS0OLW3FFHTILCO0AJC9Y6","","null","<img src=""img/food4.png"" style=""width:200px; border:14px solid green;"">","null","","","","","",""
"","image-keyboard-response","285","201653","0.0-285.0","33F859I567ZN9EQHU38SF1KBCZIBH8","AW5O1RK3W60FC","379OL9DBSS0OLW3FFHTILCO0AJC9Y6","","551.2999999970198","img/food2.png","76","552.2999999970198","3","1","2","0,0.5,0.8,0.5,0,0.8,0,0.5,0.8,0,0.8,0.5",""
"","html-keyboard-response","286","201954","0.0-286.0","33F859I567ZN9EQHU38SF1KBCZIBH8","AW5O1RK3W60FC","379OL9DBSS0OLW3FFHTILCO0AJC9Y6","","null","<img src=""img/food2.png"" style=""width:200px; border:14px solid green;"">","null","","","","","",""
"","image-keyboard-response","287","202381","0.0-287.0","33F859I567ZN9EQHU38SF1KBCZIBH8","AW5O1RK3W60FC","379OL9DBSS0OLW3FFHTILCO0AJC9Y6","","425.40000000596046","img/food2.png","76","426.59999999403954","3","1","2","0,0.5,0.8,0.5,0,0.8,0,0.5,0.8,0,0.8,0.5",""
"","html-keyboard-response","288","202683","0.0-288.0","33F859I567ZN9EQHU38SF1KBCZIBH8","AW5O1RK3W60FC","379OL9DBSS0OLW3FFHTILCO0AJC9Y6","","null","<img src=""img/food2.png"" style=""width:200px; border:14px solid green;"">","null","","","","","",""
"","image-keyboard-response","289","203101","0.0-289.0","33F859I567ZN9EQHU38SF1KBCZIBH8","AW5O1RK3W60FC","379OL9DBSS0OLW3FFHTILCO0AJC9Y6","","417.5","img/food2.png","76","418.20000000298023","3","0","2","0,0.5,0.8,0.5,0,0.8,0,0.5,0.8,0,0.8,0.5",""
"","html-keyboard-response","290","203411","0.0-290.0","33F859I567ZN9EQHU38SF1KBCZIBH8","AW5O1RK3W60FC","379OL9DBSS0OLW3FFHTILCO0AJC9Y6","","null","<img src=""img/food2.png"" style=""width:200px;border:14px solid red;"">","null","","","","","",""
"","image-keyboard-response","291","204197","0.0-291.0","33F859I567ZN9EQHU38SF1KBCZIBH8","AW5O1RK3W60FC","379OL9DBSS0OLW3FFHTILCO0AJC9Y6","","785.3999999910593","img/food4.png","75","786.1000000089407","2","0","1","0,0.5,0.8,0.5,0,0.8,0,0.5,0.8,0,0.8,0.5",""
"","html-keyboard-response","292","204499","0.0-292.0","33F859I567ZN9EQHU38SF1KBCZIBH8","AW5O1RK3W60FC","379OL9DBSS0OLW3FFHTILCO0AJC9Y6","","null","<img src=""img/food4.png"" style=""width:200px;border:14px solid red;"">","null","","","","","",""
"","image-keyboard-response","293","204925","0.0-293.0","33F859I567ZN9EQHU38SF1KBCZIBH8","AW5O1RK3W60FC","379OL9DBSS0OLW3FFHTILCO0AJC9Y6","","424.79999999701977","img/food4.png","75","425.59999999403954","2","0","1","0,0.5,0.8,0.5,0,0.8,0,0.5,0.8,0,0.8,0.5",""
"","html-keyboard-response","294","205227","0.0-294.0","33F859I567ZN9EQHU38SF1KBCZIBH8","AW5O1RK3W60FC","379OL9DBSS0OLW3FFHTILCO0AJC9Y6","","null","<img src=""img/food4.png"" style=""width:200px;border:14px solid red;"">","null","","","","","",""
"","image-keyboard-response","295","205757","0.0-295.0","33F859I567ZN9EQHU38SF1KBCZIBH8","AW5O1RK3W60FC","379OL9DBSS0OLW3FFHTILCO0AJC9Y6","","529.2999999970198","img/food6.png","76","530.1000000089407","3","1","3","0,0.5,0.8,0.5,0,0.8,0,0.5,0.8,0,0.8,0.5",""
"","html-keyboard-response","296","206059","0.0-296.0","33F859I567ZN9EQHU38SF1KBCZIBH8","AW5O1RK3W60FC","379OL9DBSS0OLW3FFHTILCO0AJC9Y6","","null","<img src=""img/food6.png"" style=""width:200px; border:14px solid green;"">","null","","","","","",""
"","image-keyboard-response","297","206765","0.0-297.0","33F859I567ZN9EQHU38SF1KBCZIBH8","AW5O1RK3W60FC","379OL9DBSS0OLW3FFHTILCO0AJC9Y6","","705.3999999910593","img/food4.png","75","706.3999999910593","2","1","1","0,0.5,0.8,0.5,0,0.8,0,0.5,0.8,0,0.8,0.5",""
"","html-keyboard-response","298","207067","0.0-298.0","33F859I567ZN9EQHU38SF1KBCZIBH8","AW5O1RK3W60FC","379OL9DBSS0OLW3FFHTILCO0AJC9Y6","","null","<img src=""img/food4.png"" style=""width:200px; border:14px solid green;"">","null","","","","","",""
"","image-keyboard-response","299","207685","0.0-299.0","33F859I567ZN9EQHU38SF1KBCZIBH8","AW5O1RK3W60FC","379OL9DBSS0OLW3FFHTILCO0AJC9Y6","","617.1999999880791","img/food2.png","76","618.0999999940395","3","1","2","0,0.5,0.8,0.5,0,0.8,0,0.5,0.8,0,0.8,0.5",""
"","html-keyboard-response","300","207987","0.0-300.0","33F859I567ZN9EQHU38SF1KBCZIBH8","AW5O1RK3W60FC","379OL9DBSS0OLW3FFHTILCO0AJC9Y6","","null","<img src=""img/food2.png"" style=""width:200px; border:14px solid green;"">","null","","","","","",""
"","image-keyboard-response","301","208702","0.0-301.0","33F859I567ZN9EQHU38SF1KBCZIBH8","AW5O1RK3W60FC","379OL9DBSS0OLW3FFHTILCO0AJC9Y6","","712.7999999970198","img/food4.png","75","714","2","0","1","0,0.5,0.8,0.5,0,0.8,0,0.5,0.8,0,0.8,0.5",""
"","html-keyboard-response","302","209016","0.0-302.0","33F859I567ZN9EQHU38SF1KBCZIBH8","AW5O1RK3W60FC","379OL9DBSS0OLW3FFHTILCO0AJC9Y6","","null","<img src=""img/food4.png"" style=""width:200px;border:14px solid red;"">","null","","","","","",""
"","image-keyboard-response","303","209478","0.0-303.0","33F859I567ZN9EQHU38SF1KBCZIBH8","AW5O1RK3W60FC","379OL9DBSS0OLW3FFHTILCO0AJC9Y6","","460.6000000089407","img/food4.png","75","461.59999999403954","2","1","1","0,0.5,0.8,0.5,0,0.8,0,0.5,0.8,0,0.8,0.5",""
"","html-keyboard-response","304","209781","0.0-304.0","33F859I567ZN9EQHU38SF1KBCZIBH8","AW5O1RK3W60FC","379OL9DBSS0OLW3FFHTILCO0AJC9Y6","","null","<img src=""img/food4.png"" style=""width:200px; border:14px solid green;"">","null","","","","","",""
"","image-keyboard-response","305","210325","0.0-305.0","33F859I567ZN9EQHU38SF1KBCZIBH8","AW5O1RK3W60FC","379OL9DBSS0OLW3FFHTILCO0AJC9Y6","","543.2000000029802","img/food2.png","76","544","3","1","2","0,0.5,0.8,0.5,0,0.8,0,0.5,0.8,0,0.8,0.5",""
"","html-keyboard-response","306","210628","0.0-306.0","33F859I567ZN9EQHU38SF1KBCZIBH8","AW5O1RK3W60FC","379OL9DBSS0OLW3FFHTILCO0AJC9Y6","","null","<img src=""img/food2.png"" style=""width:200px; border:14px solid green;"">","null","","","","","",""
"","image-keyboard-response","307","211173","0.0-307.0","33F859I567ZN9EQHU38SF1KBCZIBH8","AW5O1RK3W60FC","379OL9DBSS0OLW3FFHTILCO0AJC9Y6","","544.2999999970198","img/food4.png","75","545.2000000029802","2","1","1","0,0.5,0.8,0.5,0,0.8,0,0.5,0.8,0,0.8,0.5",""
"","html-keyboard-response","308","211474","0.0-308.0","33F859I567ZN9EQHU38SF1KBCZIBH8","AW5O1RK3W60FC","379OL9DBSS0OLW3FFHTILCO0AJC9Y6","","null","<img src=""img/food4.png"" style=""width:200px; border:14px solid green;"">","null","","","","","",""
"","image-keyboard-response","309","212053","0.0-309.0","33F859I567ZN9EQHU38SF1KBCZIBH8","AW5O1RK3W60FC","379OL9DBSS0OLW3FFHTILCO0AJC9Y6","","577.3999999910593","img/food6.png","76","578.5","3","1","3","0,0.5,0.8,0.5,0,0.8,0,0.5,0.8,0,0.8,0.5",""
"","html-keyboard-response","310","212354","0.0-310.0","33F859I567ZN9EQHU38SF1KBCZIBH8","AW5O1RK3W60FC","379OL9DBSS0OLW3FFHTILCO0AJC9Y6","","null","<img src=""img/food6.png"" style=""width:200px; border:14px solid green;"">","null","","","","","",""
"","image-keyboard-response","311","212965","0.0-311.0","33F859I567ZN9EQHU38SF1KBCZIBH8","AW5O1RK3W60FC","379OL9DBSS0OLW3FFHTILCO0AJC9Y6","","609.2000000029802","img/food2.png","76","610","3","1","2","0,0.5,0.8,0.5,0,0.8,0,0.5,0.8,0,0.8,0.5",""
"","html-keyboard-response","312","213265","0.0-312.0","33F859I567ZN9EQHU38SF1KBCZIBH8","AW5O1RK3W60FC","379OL9DBSS0OLW3FFHTILCO0AJC9Y6","","null","<img src=""img/food2.png"" style=""width:200px; border:14px solid green;"">","null","","","","","",""
"","image-keyboard-response","313","213853","0.0-313.0","33F859I567ZN9EQHU38SF1KBCZIBH8","AW5O1RK3W60FC","379OL9DBSS0OLW3FFHTILCO0AJC9Y6","","586.7000000029802","img/food6.png","76","587.5","3","1","3","0,0.5,0.8,0.5,0,0.8,0,0.5,0.8,0,0.8,0.5",""
"","html-keyboard-response","314","214155","0.0-314.0","33F859I567ZN9EQHU38SF1KBCZIBH8","AW5O1RK3W60FC","379OL9DBSS0OLW3FFHTILCO0AJC9Y6","","null","<img src=""img/food6.png"" style=""width:200px; border:14px solid green;"">","null","","","","","",""
"","image-keyboard-response","315","214902","0.0-315.0","33F859I567ZN9EQHU38SF1KBCZIBH8","AW5O1RK3W60FC","379OL9DBSS0OLW3FFHTILCO0AJC9Y6","","745.3999999910593","img/food4.png","75","746.0999999940395","2","0","1","0,0.5,0.8,0.5,0,0.8,0,0.5,0.8,0,0.8,0.5",""
"","html-keyboard-response","316","215203","0.0-316.0","33F859I567ZN9EQHU38SF1KBCZIBH8","AW5O1RK3W60FC","379OL9DBSS0OLW3FFHTILCO0AJC9Y6","","null","<img src=""img/food4.png"" style=""width:200px;border:14px solid red;"">","null","","","","","",""
"","image-keyboard-response","317","215869","0.0-317.0","33F859I567ZN9EQHU38SF1KBCZIBH8","AW5O1RK3W60FC","379OL9DBSS0OLW3FFHTILCO0AJC9Y6","","664.5999999940395","img/food6.png","76","665.5","3","1","3","0,0.5,0.8,0.5,0,0.8,0,0.5,0.8,0,0.8,0.5",""
"","html-keyboard-response","318","216172","0.0-318.0","33F859I567ZN9EQHU38SF1KBCZIBH8","AW5O1RK3W60FC","379OL9DBSS0OLW3FFHTILCO0AJC9Y6","","null","<img src=""img/food6.png"" style=""width:200px; border:14px solid green;"">","null","","","","","",""
"","image-keyboard-response","319","216925","0.0-319.0","33F859I567ZN9EQHU38SF1KBCZIBH8","AW5O1RK3W60FC","379OL9DBSS0OLW3FFHTILCO0AJC9Y6","","752.2000000029802","img/food2.png","76","753","3","0","2","0,0.5,0.8,0.5,0,0.8,0,0.5,0.8,0,0.8,0.5",""
"","html-keyboard-response","320","217227","0.0-320.0","33F859I567ZN9EQHU38SF1KBCZIBH8","AW5O1RK3W60FC","379OL9DBSS0OLW3FFHTILCO0AJC9Y6","","null","<img src=""img/food2.png"" style=""width:200px;border:14px solid red;"">","null","","","","","",""
"","image-keyboard-response","321","217677","0.0-321.0","33F859I567ZN9EQHU38SF1KBCZIBH8","AW5O1RK3W60FC","379OL9DBSS0OLW3FFHTILCO0AJC9Y6","","449.09999999403954","img/food2.png","76","449.8999999910593","3","1","2","0,0.5,0.8,0.5,0,0.8,0,0.5,0.8,0,0.8,0.5",""
"","html-keyboard-response","322","217990","0.0-322.0","33F859I567ZN9EQHU38SF1KBCZIBH8","AW5O1RK3W60FC","379OL9DBSS0OLW3FFHTILCO0AJC9Y6","","null","<img src=""img/food2.png"" style=""width:200px; border:14px solid green;"">","null","","","","","",""
"","image-keyboard-response","323","218549","0.0-323.0","33F859I567ZN9EQHU38SF1KBCZIBH8","AW5O1RK3W60FC","379OL9DBSS0OLW3FFHTILCO0AJC9Y6","","558.0999999940395","img/food4.png","75","559","2","0","1","0,0.5,0.8,0.5,0,0.8,0,0.5,0.8,0,0.8,0.5",""
"","html-keyboard-response","324","218851","0.0-324.0","33F859I567ZN9EQHU38SF1KBCZIBH8","AW5O1RK3W60FC","379OL9DBSS0OLW3FFHTILCO0AJC9Y6","","null","<img src=""img/food4.png"" style=""width:200px;border:14px solid red;"">","null","","","","","",""
"","image-keyboard-response","325","219437","0.0-325.0","33F859I567ZN9EQHU38SF1KBCZIBH8","AW5O1RK3W60FC","379OL9DBSS0OLW3FFHTILCO0AJC9Y6","","585.6000000089407","img/food6.png","76","586.8000000119209","3","1","3","0,0.5,0.8,0.5,0,0.8,0,0.5,0.8,0,0.8,0.5",""
"","html-keyboard-response","326","219740","0.0-326.0","33F859I567ZN9EQHU38SF1KBCZIBH8","AW5O1RK3W60FC","379OL9DBSS0OLW3FFHTILCO0AJC9Y6","","null","<img src=""img/food6.png"" style=""width:200px; border:14px solid green;"">","null","","","","","",""
"","image-keyboard-response","327","220493","0.0-327.0","33F859I567ZN9EQHU38SF1KBCZIBH8","AW5O1RK3W60FC","379OL9DBSS0OLW3FFHTILCO0AJC9Y6","","751.6999999880791","img/food2.png","76","752.6000000089407","3","1","2","0,0.5,0.8,0.5,0,0.8,0,0.5,0.8,0,0.8,0.5",""
"","html-keyboard-response","328","220795","0.0-328.0","33F859I567ZN9EQHU38SF1KBCZIBH8","AW5O1RK3W60FC","379OL9DBSS0OLW3FFHTILCO0AJC9Y6","","null","<img src=""img/food2.png"" style=""width:200px; border:14px solid green;"">","null","","","","","",""
"","image-keyboard-response","329","221421","0.0-329.0","33F859I567ZN9EQHU38SF1KBCZIBH8","AW5O1RK3W60FC","379OL9DBSS0OLW3FFHTILCO0AJC9Y6","","625.2999999970198","img/food6.png","76","626.2000000029802","3","1","3","0,0.5,0.8,0.5,0,0.8,0,0.5,0.8,0,0.8,0.5",""
"","html-keyboard-response","330","221723","0.0-330.0","33F859I567ZN9EQHU38SF1KBCZIBH8","AW5O1RK3W60FC","379OL9DBSS0OLW3FFHTILCO0AJC9Y6","","null","<img src=""img/food6.png"" style=""width:200px; border:14px solid green;"">","null","","","","","",""
"","image-keyboard-response","331","222173","0.0-331.0","33F859I567ZN9EQHU38SF1KBCZIBH8","AW5O1RK3W60FC","379OL9DBSS0OLW3FFHTILCO0AJC9Y6","","449.20000000298023","img/food2.png","76","450.09999999403954","3","0","2","0,0.5,0.8,0.5,0,0.8,0,0.5,0.8,0,0.8,0.5",""
"","html-keyboard-response","332","222475","0.0-332.0","33F859I567ZN9EQHU38SF1KBCZIBH8","AW5O1RK3W60FC","379OL9DBSS0OLW3FFHTILCO0AJC9Y6","","null","<img src=""img/food2.png"" style=""width:200px;border:14px solid red;"">","null","","","","","",""
"","image-keyboard-response","333","223149","0.0-333.0","33F859I567ZN9EQHU38SF1KBCZIBH8","AW5O1RK3W60FC","379OL9DBSS0OLW3FFHTILCO0AJC9Y6","","673.2999999970198","img/food6.png","76","674.2000000029802","3","0","3","0,0.5,0.8,0.5,0,0.8,0,0.5,0.8,0,0.8,0.5",""
"","html-keyboard-response","334","223452","0.0-334.0","33F859I567ZN9EQHU38SF1KBCZIBH8","AW5O1RK3W60FC","379OL9DBSS0OLW3FFHTILCO0AJC9Y6","","null","<img src=""img/food6.png"" style=""width:200px;border:14px solid red;"">","null","","","","","",""
"","image-keyboard-response","335","223949","0.0-335.0","33F859I567ZN9EQHU38SF1KBCZIBH8","AW5O1RK3W60FC","379OL9DBSS0OLW3FFHTILCO0AJC9Y6","","496.09999999403954","img/food4.png","75","497.09999999403954","2","0","1","0,0.5,0.8,0.5,0,0.8,0,0.5,0.8,0,0.8,0.5",""
"","html-keyboard-response","336","224251","0.0-336.0","33F859I567ZN9EQHU38SF1KBCZIBH8","AW5O1RK3W60FC","379OL9DBSS0OLW3FFHTILCO0AJC9Y6","","null","<img src=""img/food4.png"" style=""width:200px;border:14px solid red;"">","null","","","","","",""
"","image-keyboard-response","337","224733","0.0-337.0","33F859I567ZN9EQHU38SF1KBCZIBH8","AW5O1RK3W60FC","379OL9DBSS0OLW3FFHTILCO0AJC9Y6","","481.1000000089407","img/food4.png","75","482.09999999403954","2","1","1","0,0.5,0.8,0.5,0,0.8,0,0.5,0.8,0,0.8,0.5",""
"","html-keyboard-response","338","225036","0.0-338.0","33F859I567ZN9EQHU38SF1KBCZIBH8","AW5O1RK3W60FC","379OL9DBSS0OLW3FFHTILCO0AJC9Y6","","null","<img src=""img/food4.png"" style=""width:200px; border:14px solid green;"">","null","","","","","",""
"","image-keyboard-response","339","225557","0.0-339.0","33F859I567ZN9EQHU38SF1KBCZIBH8","AW5O1RK3W60FC","379OL9DBSS0OLW3FFHTILCO0AJC9Y6","","520.2999999970198","img/food4.png","75","521.0999999940395","2","1","1","0,0.5,0.8,0.5,0,0.8,0,0.5,0.8,0,0.8,0.5",""
"","html-keyboard-response","340","225859","0.0-340.0","33F859I567ZN9EQHU38SF1KBCZIBH8","AW5O1RK3W60FC","379OL9DBSS0OLW3FFHTILCO0AJC9Y6","","null","<img src=""img/food4.png"" style=""width:200px; border:14px solid green;"">","null","","","","","",""
"","image-keyboard-response","341","226509","0.0-341.0","33F859I567ZN9EQHU38SF1KBCZIBH8","AW5O1RK3W60FC","379OL9DBSS0OLW3FFHTILCO0AJC9Y6","","649.1000000089407","img/food6.png","76","650.0999999940395","3","1","3","0,0.5,0.8,0.5,0,0.8,0,0.5,0.8,0,0.8,0.5",""
"","html-keyboard-response","342","226811","0.0-342.0","33F859I567ZN9EQHU38SF1KBCZIBH8","AW5O1RK3W60FC","379OL9DBSS0OLW3FFHTILCO0AJC9Y6","","null","<img src=""img/food6.png"" style=""width:200px; border:14px solid green;"">","null","","","","","",""
"","image-keyboard-response","343","227277","0.0-343.0","33F859I567ZN9EQHU38SF1KBCZIBH8","AW5O1RK3W60FC","379OL9DBSS0OLW3FFHTILCO0AJC9Y6","","465.29999999701977","img/food6.png","76","466.20000000298023","3","1","3","0,0.5,0.8,0.5,0,0.8,0,0.5,0.8,0,0.8,0.5",""
"","html-keyboard-response","344","227582","0.0-344.0","33F859I567ZN9EQHU38SF1KBCZIBH8","AW5O1RK3W60FC","379OL9DBSS0OLW3FFHTILCO0AJC9Y6","","null","<img src=""img/food6.png"" style=""width:200px; border:14px solid green;"">","null","","","","","",""
"","image-keyboard-response","345","228125","0.0-345.0","33F859I567ZN9EQHU38SF1KBCZIBH8","AW5O1RK3W60FC","379OL9DBSS0OLW3FFHTILCO0AJC9Y6","","541.7000000029802","img/food4.png","75","542.5","2","0","1","0,0.5,0.8,0.5,0,0.8,0,0.5,0.8,0,0.8,0.5",""
"","html-keyboard-response","346","228427","0.0-346.0","33F859I567ZN9EQHU38SF1KBCZIBH8","AW5O1RK3W60FC","379OL9DBSS0OLW3FFHTILCO0AJC9Y6","","null","<img src=""img/food4.png"" style=""width:200px;border:14px solid red;"">","null","","","","","",""
"","image-keyboard-response","347","229030","0.0-347.0","33F859I567ZN9EQHU38SF1KBCZIBH8","AW5O1RK3W60FC","379OL9DBSS0OLW3FFHTILCO0AJC9Y6","","601.7999999970198","img/food2.png","76","602.7000000029802","3","1","2","0,0.5,0.8,0.5,0,0.8,0,0.5,0.8,0,0.8,0.5",""
"","html-keyboard-response","348","229333","0.0-348.0","33F859I567ZN9EQHU38SF1KBCZIBH8","AW5O1RK3W60FC","379OL9DBSS0OLW3FFHTILCO0AJC9Y6","","null","<img src=""img/food2.png"" style=""width:200px; border:14px solid green;"">","null","","","","","",""
"","image-keyboard-response","349","229893","0.0-349.0","33F859I567ZN9EQHU38SF1KBCZIBH8","AW5O1RK3W60FC","379OL9DBSS0OLW3FFHTILCO0AJC9Y6","","559.6000000089407","img/food6.png","76","560.5","3","1","3","0,0.5,0.8,0.5,0,0.8,0,0.5,0.8,0,0.8,0.5",""
"","html-keyboard-response","350","230195","0.0-350.0","33F859I567ZN9EQHU38SF1KBCZIBH8","AW5O1RK3W60FC","379OL9DBSS0OLW3FFHTILCO0AJC9Y6","","null","<img src=""img/food6.png"" style=""width:200px; border:14px solid green;"">","null","","","","","",""
"","image-keyboard-response","351","230613","0.0-351.0","33F859I567ZN9EQHU38SF1KBCZIBH8","AW5O1RK3W60FC","379OL9DBSS0OLW3FFHTILCO0AJC9Y6","","417.29999999701977","img/food2.png","76","418.20000000298023","3","1","2","0,0.5,0.8,0.5,0,0.8,0,0.5,0.8,0,0.8,0.5",""
"","html-keyboard-response","352","230915","0.0-352.0","33F859I567ZN9EQHU38SF1KBCZIBH8","AW5O1RK3W60FC","379OL9DBSS0OLW3FFHTILCO0AJC9Y6","","null","<img src=""img/food2.png"" style=""width:200px; border:14px solid green;"">","null","","","","","",""
"","image-keyboard-response","353","231445","0.0-353.0","33F859I567ZN9EQHU38SF1KBCZIBH8","AW5O1RK3W60FC","379OL9DBSS0OLW3FFHTILCO0AJC9Y6","","529.2000000029802","img/food4.png","75","530.0999999940395","2","0","1","0,0.5,0.8,0.5,0,0.8,0,0.5,0.8,0,0.8,0.5",""
"","html-keyboard-response","354","231747","0.0-354.0","33F859I567ZN9EQHU38SF1KBCZIBH8","AW5O1RK3W60FC","379OL9DBSS0OLW3FFHTILCO0AJC9Y6","","null","<img src=""img/food4.png"" style=""width:200px;border:14px solid red;"">","null","","","","","",""
"","image-keyboard-response","355","232325","0.0-355.0","33F859I567ZN9EQHU38SF1KBCZIBH8","AW5O1RK3W60FC","379OL9DBSS0OLW3FFHTILCO0AJC9Y6","","576.6000000089407","img/food6.png","76","577.3999999910593","3","1","3","0,0.5,0.8,0.5,0,0.8,0,0.5,0.8,0,0.8,0.5",""
"","html-keyboard-response","356","232627","0.0-356.0","33F859I567ZN9EQHU38SF1KBCZIBH8","AW5O1RK3W60FC","379OL9DBSS0OLW3FFHTILCO0AJC9Y6","","null","<img src=""img/food6.png"" style=""width:200px; border:14px solid green;"">","null","","","","","",""
"","image-keyboard-response","357","233366","0.0-357.0","33F859I567ZN9EQHU38SF1KBCZIBH8","AW5O1RK3W60FC","379OL9DBSS0OLW3FFHTILCO0AJC9Y6","","738.2000000029802","img/food2.png","76","738.7999999970198","3","0","2","0,0.5,0.8,0.5,0,0.8,0,0.5,0.8,0,0.8,0.5",""
"","html-keyboard-response","358","233668","0.0-358.0","33F859I567ZN9EQHU38SF1KBCZIBH8","AW5O1RK3W60FC","379OL9DBSS0OLW3FFHTILCO0AJC9Y6","","null","<img src=""img/food2.png"" style=""width:200px;border:14px solid red;"">","null","","","","","",""
"","image-keyboard-response","359","234358","0.0-359.0","33F859I567ZN9EQHU38SF1KBCZIBH8","AW5O1RK3W60FC","379OL9DBSS0OLW3FFHTILCO0AJC9Y6","","689.7000000029802","img/food6.png","76","690.6000000089407","3","0","3","0,0.5,0.8,0.5,0,0.8,0,0.5,0.8,0,0.8,0.5",""
"","html-keyboard-response","360","234660","0.0-360.0","33F859I567ZN9EQHU38SF1KBCZIBH8","AW5O1RK3W60FC","379OL9DBSS0OLW3FFHTILCO0AJC9Y6","","null","<img src=""img/food6.png"" style=""width:200px;border:14px solid red;"">","null","","","","","",""
"","image-keyboard-response","361","235101","0.0-361.0","33F859I567ZN9EQHU38SF1KBCZIBH8","AW5O1RK3W60FC","379OL9DBSS0OLW3FFHTILCO0AJC9Y6","","440.19999998807907","img/food6.png","76","441","3","1","3","0,0.5,0.8,0.5,0,0.8,0,0.5,0.8,0,0.8,0.5",""
"","html-keyboard-response","362","235403","0.0-362.0","33F859I567ZN9EQHU38SF1KBCZIBH8","AW5O1RK3W60FC","379OL9DBSS0OLW3FFHTILCO0AJC9Y6","","null","<img src=""img/food6.png"" style=""width:200px; border:14px solid green;"">","null","","","","","",""
"","instructions","363","239421","0.0-363.0","33F859I567ZN9EQHU38SF1KBCZIBH8","AW5O1RK3W60FC","379OL9DBSS0OLW3FFHTILCO0AJC9Y6","[{""page_index"":0,""viewing_time"":4016.7999999970198}]","4017.0999999940395","","","","","","","",""
"","survey-text","364","249226","0.0-364.0","33F859I567ZN9EQHU38SF1KBCZIBH8","AW5O1RK3W60FC","379OL9DBSS0OLW3FFHTILCO0AJC9Y6","","9802.29999999702","","","","","","","","{""Q0"":""AW5O1RK3W60FC""}"
