"success","trial_type","trial_index","time_elapsed","internal_node_id","assignmentID","mturkID","hitID","view_history","rt","stimulus","key_press","reactionTime","a","r","s","cond","reward_cond","reward_cond_actual","reward_matrix_idx","warning","responses"
"true","fullscreen","0","2442","0.0-0.0","","","","","","","","","","","","","","","","",""
"","instructions","1","17111","0.0-1.0","","","","[{""page_index"":0,""viewing_time"":2158.300000011921},{""page_index"":1,""viewing_time"":1935},{""page_index"":2,""viewing_time"":532.3999999761581},{""page_index"":3,""viewing_time"":3045},{""page_index"":4,""viewing_time"":2482.600000023842},{""page_index"":5,""viewing_time"":1335.199999988079},{""page_index"":6,""viewing_time"":3179.9000000059605}]","14668.59999999404","","","","","","","","","","","",""
"","image-keyboard-response","2","18197","0.0-2.0","","","","","1083.800000011921","img/food4.png","74","1084.9000000059605","1","1","3","1","1,0.7,0,1,0.7,0,0.7,0,1","1,0.7,0,1,0.7,0,0.7,0,1","1","",""
"","html-keyboard-response","3","18514","0.0-3.0","","","","","null","<img src=""img/food4.png"" style=""width:200px; border:14px solid green;"">","null","","","","","","","","","",""
"","image-keyboard-response","4","19548","0.0-4.0","","","","","1033.8999999761581","img/food6.png","75","1034.5","2","1","2","1","1,0.7,0,1,0.7,0,0.7,0,1","1,0.7,0,1,0.7,0,0.7,0,1","1","",""
"","html-keyboard-response","5","19865","0.0-5.0","","","","","null","<img src=""img/food6.png"" style=""width:200px; border:14px solid green;"">","null","","","","","","","","","",""
"","image-keyboard-response","6","20677","0.0-6.0","","","","","811.1999999880791","img/food2.png","76","811.8000000119209","3","0","1","1","1,0.7,0,1,0.7,0,0.7,0,1","1,0.7,0,1,0.7,0,0.7,0,1","1","",""
"","html-keyboard-response","7","20986","0.0-7.0","","","","","null","<img src=""img/food2.png"" style=""width:200px;border:14px solid red;"">","null","","","","","","","","","",""
"","image-keyboard-response","8","22212","0.0-8.0","","","","","1225.4000000059605","img/food4.png","74","1226.0999999940395","1","1","3","1","1,0.7,0,1,0.7,0,0.7,0,1","1,0.7,0,1,0.7,0,0.7,0,1","1","",""
"","html-keyboard-response","9","22526","0.0-9.0","","","","","null","<img src=""img/food4.png"" style=""width:200px; border:14px solid green;"">","null","","","","","","","","","",""
"","image-keyboard-response","10","22916","0.0-10.0","","","","","389.39999997615814","img/food4.png","74","390","1","1","3","1","1,0.7,0,1,0.7,0,0.7,0,1","1,0.7,0,1,0.7,0,0.7,0,1","1","",""
"","html-keyboard-response","11","23227","0.0-11.0","","","","","null","<img src=""img/food4.png"" style=""width:200px; border:14px solid green;"">","null","","","","","","","","","",""
"","image-keyboard-response","12","23556","0.0-12.0","","","","","328.5","img/food4.png","74","329.09999999403954","1","0","3","1","1,0.7,0,1,0.7,0,0.7,0,1","1,0.7,0,1,0.7,0,0.7,0,1","1","",""
"","html-keyboard-response","13","23863","0.0-13.0","","","","","null","<img src=""img/food4.png"" style=""width:200px;border:14px solid red;"">","null","","","","","","","","","",""
"","image-keyboard-response","14","24276","0.0-14.0","","","","","412.7999999821186","img/food4.png","74","413.5","1","1","3","1","1,0.7,0,1,0.7,0,0.7,0,1","1,0.7,0,1,0.7,0,0.7,0,1","1","",""
"","html-keyboard-response","15","24579","0.0-15.0","","","","","null","<img src=""img/food4.png"" style=""width:200px; border:14px solid green;"">","null","","","","","","","","","",""
"","image-keyboard-response","16","25340","0.0-16.0","","","","","760.2000000178814","img/food6.png","75","760.9000000059605","2","0","2","1","1,0.7,0,1,0.7,0,0.7,0,1","1,0.7,0,1,0.7,0,0.7,0,1","1","",""
"","html-keyboard-response","17","25648","0.0-17.0","","","","","null","<img src=""img/food6.png"" style=""width:200px;border:14px solid red;"">","null","","","","","","","","","",""
"","image-keyboard-response","18","26381","0.0-18.0","","","","","731.7000000178814","img/food4.png","74","732.4000000059605","1","0","3","1","1,0.7,0,1,0.7,0,0.7,0,1","1,0.7,0,1,0.7,0,0.7,0,1","1","",""
"","html-keyboard-response","19","26693","0.0-19.0","","","","","null","<img src=""img/food4.png"" style=""width:200px;border:14px solid red;"">","null","","","","","","","","","",""
"","image-keyboard-response","20","27780","0.0-20.0","","","","","1087","img/food6.png","75","1087.699999988079","2","1","2","1","1,0.7,0,1,0.7,0,0.7,0,1","1,0.7,0,1,0.7,0,0.7,0,1","1","",""
"","html-keyboard-response","21","28096","0.0-21.0","","","","","null","<img src=""img/food6.png"" style=""width:200px; border:14px solid green;"">","null","","","","","","","","","",""
"","image-keyboard-response","22","29172","0.0-22.0","","","","","1075.5","img/food2.png","75","1076","2","1","1","1","1,0.7,0,1,0.7,0,0.7,0,1","1,0.7,0,1,0.7,0,0.7,0,1","1","",""
"","html-keyboard-response","23","29476","0.0-23.0","","","","","null","<img src=""img/food2.png"" style=""width:200px; border:14px solid green;"">","null","","","","","","","","","",""
"","image-keyboard-response","24","30477","0.0-24.0","","","","","999.3000000119209","img/food6.png","75","999.7999999821186","2","1","2","1","1,0.7,0,1,0.7,0,0.7,0,1","1,0.7,0,1,0.7,0,0.7,0,1","1","",""
"","html-keyboard-response","25","30779","0.0-25.0","","","","","null","<img src=""img/food6.png"" style=""width:200px; border:14px solid green;"">","null","","","","","","","","","",""
"","image-keyboard-response","26","31181","0.0-26.0","","","","","401.09999999403954","img/food6.png","75","401.69999998807907","2","0","2","1","1,0.7,0,1,0.7,0,0.7,0,1","1,0.7,0,1,0.7,0,0.7,0,1","1","",""
"","html-keyboard-response","27","31482","0.0-27.0","","","","","null","<img src=""img/food6.png"" style=""width:200px;border:14px solid red;"">","null","","","","","","","","","",""
"","image-keyboard-response","28","32412","0.0-28.0","","","","","930.1000000238419","img/food4.png","75","930.5999999940395","2","0","3","1","1,0.7,0,1,0.7,0,0.7,0,1","1,0.7,0,1,0.7,0,0.7,0,1","1","",""
"","html-keyboard-response","29","32714","0.0-29.0","","","","","null","<img src=""img/food4.png"" style=""width:200px;border:14px solid red;"">","null","","","","","","","","","",""
"","image-keyboard-response","30","33476","0.0-30.0","","","","","761.7999999821186","img/food6.png","75","762.5","2","1","2","1","1,0.7,0,1,0.7,0,0.7,0,1","1,0.7,0,1,0.7,0,0.7,0,1","1","",""
"","html-keyboard-response","31","33778","0.0-31.0","","","","","null","<img src=""img/food6.png"" style=""width:200px; border:14px solid green;"">","null","","","","","","","","","",""
"","image-keyboard-response","32","34108","0.0-32.0","","","","","329.7999999821186","img/food6.png","75","330.30000001192093","2","0","2","1","1,0.7,0,1,0.7,0,0.7,0,1","1,0.7,0,1,0.7,0,0.7,0,1","1","",""
"","html-keyboard-response","33","34409","0.0-33.0","","","","","null","<img src=""img/food6.png"" style=""width:200px;border:14px solid red;"">","null","","","","","","","","","",""
"","image-keyboard-response","34","34876","0.0-34.0","","","","","466.2000000178814","img/food6.png","75","466.90000000596046","2","1","2","1","1,0.7,0,1,0.7,0,0.7,0,1","1,0.7,0,1,0.7,0,0.7,0,1","1","",""
"","html-keyboard-response","35","35178","0.0-35.0","","","","","null","<img src=""img/food6.png"" style=""width:200px; border:14px solid green;"">","null","","","","","","","","","",""
"","image-keyboard-response","36","35596","0.0-36.0","","","","","417.5","img/food6.png","75","418.09999999403954","2","0","2","1","1,0.7,0,1,0.7,0,0.7,0,1","1,0.7,0,1,0.7,0,0.7,0,1","1","",""
"","html-keyboard-response","37","35898","0.0-37.0","","","","","null","<img src=""img/food6.png"" style=""width:200px;border:14px solid red;"">","null","","","","","","","","","",""
"","image-keyboard-response","38","37084","0.0-38.0","","","","","1185.5","img/food2.png","75","1186.1000000238419","2","1","1","1","1,0.7,0,1,0.7,0,0.7,0,1","1,0.7,0,1,0.7,0,0.7,0,1","1","",""
"","html-keyboard-response","39","37386","0.0-39.0","","","","","null","<img src=""img/food2.png"" style=""width:200px; border:14px solid green;"">","null","","","","","","","","","",""
"","image-keyboard-response","40","38252","0.0-40.0","","","","","865.5","img/food4.png","74","866","1","1","3","1","1,0.7,0,1,0.7,0,0.7,0,1","1,0.7,0,1,0.7,0,0.7,0,1","1","",""
"","html-keyboard-response","41","38554","0.0-41.0","","","","","null","<img src=""img/food4.png"" style=""width:200px; border:14px solid green;"">","null","","","","","","","","","",""
"","image-keyboard-response","42","39236","0.0-42.0","","","","","681.5","img/food6.png","75","682.0999999940395","2","0","2","1","1,0.7,0,1,0.7,0,0.7,0,1","1,0.7,0,1,0.7,0,0.7,0,1","1","",""
"","html-keyboard-response","43","39537","0.0-43.0","","","","","null","<img src=""img/food6.png"" style=""width:200px;border:14px solid red;"">","null","","","","","","","","","",""
"","image-keyboard-response","44","40636","0.0-44.0","","","","","1098.3999999761581","img/food2.png","76","1099","3","0","1","1","1,0.7,0,1,0.7,0,0.7,0,1","1,0.7,0,1,0.7,0,0.7,0,1","1","",""
"","html-keyboard-response","45","40937","0.0-45.0","","","","","null","<img src=""img/food2.png"" style=""width:200px;border:14px solid red;"">","null","","","","","","","","","",""
"","image-keyboard-response","46","42557","0.0-46.0","","","","","1618.5","img/food6.png","76","1619","3","0","2","1","1,0.7,0,1,0.7,0,0.7,0,1","1,0.7,0,1,0.7,0,0.7,0,1","1","",""
"","html-keyboard-response","47","42858","0.0-47.0","","","","","null","<img src=""img/food6.png"" style=""width:200px;border:14px solid red;"">","null","","","","","","","","","",""
"","image-keyboard-response","48","43284","0.0-48.0","","","","","425.30000001192093","img/food6.png","75","425.7999999821186","2","1","2","1","1,0.7,0,1,0.7,0,0.7,0,1","1,0.7,0,1,0.7,0,0.7,0,1","1","",""
"","html-keyboard-response","49","43585","0.0-49.0","","","","","null","<img src=""img/food6.png"" style=""width:200px; border:14px solid green;"">","null","","","","","","","","","",""
"","image-keyboard-response","50","44644","0.0-50.0","","","","","1058.0999999940395","img/food4.png","74","1058.7000000178814","1","1","3","1","1,0.7,0,1,0.7,0,0.7,0,1","1,0.7,0,1,0.7,0,0.7,0,1","1","",""
"","html-keyboard-response","51","44947","0.0-51.0","","","","","null","<img src=""img/food4.png"" style=""width:200px; border:14px solid green;"">","null","","","","","","","","","",""
"","image-keyboard-response","52","46004","0.0-52.0","","","","","1056.5","img/food2.png","76","1057.2000000178814","3","0","1","1","1,0.7,0,1,0.7,0,0.7,0,1","1,0.7,0,1,0.7,0,0.7,0,1","1","",""
"","html-keyboard-response","53","46306","0.0-53.0","","","","","null","<img src=""img/food2.png"" style=""width:200px;border:14px solid red;"">","null","","","","","","","","","",""
"","image-keyboard-response","54","47948","0.0-54.0","","","","","1641.7999999821186","img/food6.png","75","1642.4000000059605","2","1","2","1","1,0.7,0,1,0.7,0,0.7,0,1","1,0.7,0,1,0.7,0,0.7,0,1","1","",""
"","html-keyboard-response","55","48250","0.0-55.0","","","","","null","<img src=""img/food6.png"" style=""width:200px; border:14px solid green;"">","null","","","","","","","","","",""
"","image-keyboard-response","56","49477","0.0-56.0","","","","","1225.4000000059605","img/food4.png","74","1226.0999999940395","1","1","3","1","1,0.7,0,1,0.7,0,0.7,0,1","1,0.7,0,1,0.7,0,0.7,0,1","1","",""
"","html-keyboard-response","57","49778","0.0-57.0","","","","","null","<img src=""img/food4.png"" style=""width:200px; border:14px solid green;"">","null","","","","","","","","","",""
"","image-keyboard-response","58","50116","0.0-58.0","","","","","337.80000001192093","img/food4.png","74","338.30000001192093","1","1","3","1","1,0.7,0,1,0.7,0,0.7,0,1","1,0.7,0,1,0.7,0,0.7,0,1","1","",""
"","html-keyboard-response","59","50418","0.0-59.0","","","","","null","<img src=""img/food4.png"" style=""width:200px; border:14px solid green;"">","null","","","","","","","","","",""
"","image-keyboard-response","60","51244","0.0-60.0","","","","","825.6999999880791","img/food2.png","75","826.3000000119209","2","0","1","1","1,0.7,0,1,0.7,0,0.7,0,1","1,0.7,0,1,0.7,0,0.7,0,1","1","",""
"","html-keyboard-response","61","51545","0.0-61.0","","","","","null","<img src=""img/food2.png"" style=""width:200px;border:14px solid red;"">","null","","","","","","","","","",""
"","image-keyboard-response","62","51892","0.0-62.0","","","","","346.2000000178814","img/food2.png","74","346.69999998807907","1","1","1","1","1,0.7,0,1,0.7,0,0.7,0,1","1,0.7,0,1,0.7,0,0.7,0,1","1","",""
"","html-keyboard-response","63","52194","0.0-63.0","","","","","null","<img src=""img/food2.png"" style=""width:200px; border:14px solid green;"">","null","","","","","","","","","",""
"","image-keyboard-response","64","53157","0.0-64.0","","","","","962","img/food4.png","75","962.7000000178814","2","0","3","1","1,0.7,0,1,0.7,0,0.7,0,1","1,0.7,0,1,0.7,0,0.7,0,1","1","",""
"","html-keyboard-response","65","53473","0.0-65.0","","","","","null","<img src=""img/food4.png"" style=""width:200px;border:14px solid red;"">","null","","","","","","","","","",""
"","image-keyboard-response","66","53884","0.0-66.0","","","","","410.7999999821186","img/food4.png","74","411.40000000596046","1","0","3","1","1,0.7,0,1,0.7,0,0.7,0,1","1,0.7,0,1,0.7,0,0.7,0,1","1","",""
"","html-keyboard-response","67","54186","0.0-67.0","","","","","null","<img src=""img/food4.png"" style=""width:200px;border:14px solid red;"">","null","","","","","","","","","",""
"","image-keyboard-response","68","54580","0.0-68.0","","","","","393.7000000178814","img/food4.png","75","394.30000001192093","2","0","3","1","1,0.7,0,1,0.7,0,0.7,0,1","1,0.7,0,1,0.7,0,0.7,0,1","1","",""
"","html-keyboard-response","69","54883","0.0-69.0","","","","","null","<img src=""img/food4.png"" style=""width:200px;border:14px solid red;"">","null","","","","","","","","","",""
"","image-keyboard-response","70","55084","0.0-70.0","","","","","200.69999998807907","img/food4.png","76","201.10000002384186","3","1","3","1","1,0.7,0,1,0.7,0,0.7,0,1","1,0.7,0,1,0.7,0,0.7,0,1","1","",""
"","html-keyboard-response","71","55386","0.0-71.0","","","","","null","<img src=""img/food4.png"" style=""width:200px; border:14px solid green;"">","null","","","","","","","","","",""
"","image-keyboard-response","72","56268","0.0-72.0","","","","","881.5","img/food2.png","74","882.0999999940395","1","1","1","1","1,0.7,0,1,0.7,0,0.7,0,1","1,0.7,0,1,0.7,0,0.7,0,1","1","",""
"","html-keyboard-response","73","56570","0.0-73.0","","","","","null","<img src=""img/food2.png"" style=""width:200px; border:14px solid green;"">","null","","","","","","","","","",""
"","image-keyboard-response","74","56885","0.0-74.0","","","","","314.19999998807907","img/food2.png","74","314.90000000596046","1","1","1","1","1,0.7,0,1,0.7,0,0.7,0,1","1,0.7,0,1,0.7,0,0.7,0,1","1","",""
"","html-keyboard-response","75","57186","0.0-75.0","","","","","null","<img src=""img/food2.png"" style=""width:200px; border:14px solid green;"">","null","","","","","","","","","",""
"","image-keyboard-response","76","58620","0.0-76.0","","","","","1433.0999999940395","img/food6.png","76","1433.5999999940395","3","0","2","1","1,0.7,0,1,0.7,0,0.7,0,1","1,0.7,0,1,0.7,0,0.7,0,1","1","",""
"","html-keyboard-response","77","58921","0.0-77.0","","","","","null","<img src=""img/food6.png"" style=""width:200px;border:14px solid red;"">","null","","","","","","","","","",""
"","image-keyboard-response","78","59923","0.0-78.0","","","","","1002.3000000119209","img/food2.png","74","1002.9000000059605","1","1","1","1","1,0.7,0,1,0.7,0,0.7,0,1","1,0.7,0,1,0.7,0,0.7,0,1","1","",""
"","html-keyboard-response","79","60225","0.0-79.0","","","","","null","<img src=""img/food2.png"" style=""width:200px; border:14px solid green;"">","null","","","","","","","","","",""
"","image-keyboard-response","80","60499","0.0-80.0","","","","","273.30000001192093","img/food2.png","74","273.90000000596046","1","1","1","1","1,0.7,0,1,0.7,0,0.7,0,1","1,0.7,0,1,0.7,0,0.7,0,1","1","",""
"","html-keyboard-response","81","60800","0.0-81.0","","","","","null","<img src=""img/food2.png"" style=""width:200px; border:14px solid green;"">","null","","","","","","","","","",""
"","image-keyboard-response","82","61395","0.0-82.0","","","","","594","img/food4.png","74","594.5999999940395","1","1","3","1","1,0.7,0,1,0.7,0,0.7,0,1","1,0.7,0,1,0.7,0,0.7,0,1","1","",""
"","html-keyboard-response","83","61696","0.0-83.0","","","","","null","<img src=""img/food4.png"" style=""width:200px; border:14px solid green;"">","null","","","","","","","","","",""
"","image-keyboard-response","84","62859","0.0-84.0","","","","","1161.800000011921","img/food6.png","76","1162.300000011921","3","0","2","1","1,0.7,0,1,0.7,0,0.7,0,1","1,0.7,0,1,0.7,0,0.7,0,1","1","",""
"","html-keyboard-response","85","63161","0.0-85.0","","","","","null","<img src=""img/food6.png"" style=""width:200px;border:14px solid red;"">","null","","","","","","","","","",""
"","image-keyboard-response","86","63467","0.0-86.0","","","","","305.30000001192093","img/food6.png","75","306.69999998807907","2","1","2","1","1,0.7,0,1,0.7,0,0.7,0,1","1,0.7,0,1,0.7,0,0.7,0,1","1","",""
"","html-keyboard-response","87","63769","0.0-87.0","","","","","null","<img src=""img/food6.png"" style=""width:200px; border:14px solid green;"">","null","","","","","","","","","",""
"","image-keyboard-response","88","65051","0.0-88.0","","","","","1280.8999999761581","img/food4.png","74","1281.5","1","1","3","1","1,0.7,0,1,0.7,0,0.7,0,1","1,0.7,0,1,0.7,0,0.7,0,1","1","",""
"","html-keyboard-response","89","65352","0.0-89.0","","","","","null","<img src=""img/food4.png"" style=""width:200px; border:14px solid green;"">","null","","","","","","","","","",""
"","image-keyboard-response","90","65643","0.0-90.0","","","","","290.09999999403954","img/food4.png","74","290.59999999403954","1","1","3","1","1,0.7,0,1,0.7,0,0.7,0,1","1,0.7,0,1,0.7,0,0.7,0,1","1","",""
"","html-keyboard-response","91","65944","0.0-91.0","","","","","null","<img src=""img/food4.png"" style=""width:200px; border:14px solid green;"">","null","","","","","","","","","",""
"","image-keyboard-response","92","66731","0.0-92.0","","","","","785.2999999821186","img/food2.png","76","786","3","0","1","1","1,0.7,0,1,0.7,0,0.7,0,1","1,0.7,0,1,0.7,0,0.7,0,1","1","",""
"","html-keyboard-response","93","67032","0.0-93.0","","","","","null","<img src=""img/food2.png"" style=""width:200px;border:14px solid red;"">","null","","","","","","","","","",""
"","image-keyboard-response","94","67155","0.0-94.0","","","","","122.19999998807907","img/food6.png","74","122.7000000178814","1","1","2","1","1,0.7,0,1,0.7,0,0.7,0,1","1,0.7,0,1,0.7,0,0.7,0,1","1","",""
"","html-keyboard-response","95","67456","0.0-95.0","","","","","null","<img src=""img/food6.png"" style=""width:200px; border:14px solid green;"">","null","","","","","","","","","",""
"","image-keyboard-response","96","68386","0.0-96.0","","","","","930.0999999940395","img/food4.png","74","930.5","1","1","3","1","1,0.7,0,1,0.7,0,0.7,0,1","1,0.7,0,1,0.7,0,0.7,0,1","1","",""
"","html-keyboard-response","97","68688","0.0-97.0","","","","","null","<img src=""img/food4.png"" style=""width:200px; border:14px solid green;"">","null","","","","","","","","","",""
"","image-keyboard-response","98","68963","0.0-98.0","","","","","273.5","img/food4.png","74","273.90000000596046","1","1","3","1","1,0.7,0,1,0.7,0,0.7,0,1","1,0.7,0,1,0.7,0,0.7,0,1","1","",""
"","html-keyboard-response","99","69264","0.0-99.0","","","","","null","<img src=""img/food4.png"" style=""width:200px; border:14px solid green;"">","null","","","","","","","","","",""
"","image-keyboard-response","100","69587","0.0-100.0","","","","","321.60000002384186","img/food4.png","74","322.19999998807907","1","0","3","1","1,0.7,0,1,0.7,0,0.7,0,1","1,0.7,0,1,0.7,0,0.7,0,1","1","",""
"","html-keyboard-response","101","69888","0.0-101.0","","","","","null","<img src=""img/food4.png"" style=""width:200px;border:14px solid red;"">","null","","","","","","","","","",""
"","image-keyboard-response","102","70803","0.0-102.0","","","","","913.8000000119209","img/food2.png","75","914.2999999821186","2","1","1","1","1,0.7,0,1,0.7,0,0.7,0,1","1,0.7,0,1,0.7,0,0.7,0,1","1","",""
"","html-keyboard-response","103","71104","0.0-103.0","","","","","null","<img src=""img/food2.png"" style=""width:200px; border:14px solid green;"">","null","","","","","","","","","",""
"","image-keyboard-response","104","71779","0.0-104.0","","","","","673.2999999821186","img/food4.png","74","674","1","0","3","1","1,0.7,0,1,0.7,0,0.7,0,1","1,0.7,0,1,0.7,0,0.7,0,1","1","",""
"","html-keyboard-response","105","72080","0.0-105.0","","","","","null","<img src=""img/food4.png"" style=""width:200px;border:14px solid red;"">","null","","","","","","","","","",""
"","image-keyboard-response","106","72395","0.0-106.0","","","","","313.90000000596046","img/food4.png","74","314.40000000596046","1","0","3","1","1,0.7,0,1,0.7,0,0.7,0,1","1,0.7,0,1,0.7,0,0.7,0,1","1","",""
"","html-keyboard-response","107","72696","0.0-107.0","","","","","null","<img src=""img/food4.png"" style=""width:200px;border:14px solid red;"">","null","","","","","","","","","",""
"","image-keyboard-response","108","73531","0.0-108.0","","","","","834.1999999880791","img/food6.png","75","834.6000000238419","2","0","2","1","1,0.7,0,1,0.7,0,0.7,0,1","1,0.7,0,1,0.7,0,0.7,0,1","1","",""
"","html-keyboard-response","109","73832","0.0-109.0","","","","","null","<img src=""img/food6.png"" style=""width:200px;border:14px solid red;"">","null","","","","","","","","","",""
"","image-keyboard-response","110","74755","0.0-110.0","","","","","922.0999999940395","img/food4.png","76","922.6999999880791","3","1","3","1","1,0.7,0,1,0.7,0,0.7,0,1","1,0.7,0,1,0.7,0,0.7,0,1","1","",""
"","html-keyboard-response","111","75056","0.0-111.0","","","","","null","<img src=""img/food4.png"" style=""width:200px; border:14px solid green;"">","null","","","","","","","","","",""
"","image-keyboard-response","112","76099","0.0-112.0","","","","","1041.5","img/food2.png","75","1042","2","1","1","1","1,0.7,0,1,0.7,0,0.7,0,1","1,0.7,0,1,0.7,0,0.7,0,1","1","",""
"","html-keyboard-response","113","76401","0.0-113.0","","","","","null","<img src=""img/food2.png"" style=""width:200px; border:14px solid green;"">","null","","","","","","","","","",""
"","image-keyboard-response","114","77211","0.0-114.0","","","","","809.2000000178814","img/food6.png","76","809.5999999940395","3","0","2","1","1,0.7,0,1,0.7,0,0.7,0,1","1,0.7,0,1,0.7,0,0.7,0,1","1","",""
"","html-keyboard-response","115","77512","0.0-115.0","","","","","null","<img src=""img/food6.png"" style=""width:200px;border:14px solid red;"">","null","","","","","","","","","",""
"","image-keyboard-response","116","77883","0.0-116.0","","","","","369.7000000178814","img/food6.png","74","370.09999999403954","1","1","2","1","1,0.7,0,1,0.7,0,0.7,0,1","1,0.7,0,1,0.7,0,0.7,0,1","1","",""
"","html-keyboard-response","117","78185","0.0-117.0","","","","","null","<img src=""img/food6.png"" style=""width:200px; border:14px solid green;"">","null","","","","","","","","","",""
"","image-keyboard-response","118","79435","0.0-118.0","","","","","1248.7999999821186","img/food4.png","75","1249.4000000059605","2","0","3","1","1,0.7,0,1,0.7,0,0.7,0,1","1,0.7,0,1,0.7,0,0.7,0,1","1","",""
"","html-keyboard-response","119","79736","0.0-119.0","","","","","null","<img src=""img/food4.png"" style=""width:200px;border:14px solid red;"">","null","","","","","","","","","",""
"","image-keyboard-response","120","79923","0.0-120.0","","","","","186","img/food2.png","76","186.5","3","0","1","1","1,0.7,0,1,0.7,0,0.7,0,1","1,0.7,0,1,0.7,0,0.7,0,1","1","",""
"","html-keyboard-response","121","80224","0.0-121.0","","","","","null","<img src=""img/food2.png"" style=""width:200px;border:14px solid red;"">","null","","","","","","","","","",""
"","image-keyboard-response","122","81227","0.0-122.0","","","","","1001.5","img/food4.png","76","1002.0999999940395","3","1","3","1","1,0.7,0,1,0.7,0,0.7,0,1","1,0.7,0,1,0.7,0,0.7,0,1","1","",""
"","html-keyboard-response","123","81528","0.0-123.0","","","","","null","<img src=""img/food4.png"" style=""width:200px; border:14px solid green;"">","null","","","","","","","","","",""
"","image-keyboard-response","124","82051","0.0-124.0","","","","","522.0999999940395","img/food2.png","75","522.7999999821186","2","1","1","1","1,0.7,0,1,0.7,0,0.7,0,1","1,0.7,0,1,0.7,0,0.7,0,1","1","",""
"","html-keyboard-response","125","82353","0.0-125.0","","","","","null","<img src=""img/food2.png"" style=""width:200px; border:14px solid green;"">","null","","","","","","","","","",""
"","image-keyboard-response","126","83235","0.0-126.0","","","","","881","img/food6.png","74","881.5","1","1","2","1","1,0.7,0,1,0.7,0,0.7,0,1","1,0.7,0,1,0.7,0,0.7,0,1","1","",""
"","html-keyboard-response","127","83536","0.0-127.0","","","","","null","<img src=""img/food6.png"" style=""width:200px; border:14px solid green;"">","null","","","","","","","","","",""
"","image-keyboard-response","128","84411","0.0-128.0","","","","","873.2999999821186","img/food2.png","76","873.9000000059605","3","0","1","1","1,0.7,0,1,0.7,0,0.7,0,1","1,0.7,0,1,0.7,0,0.7,0,1","1","",""
"","html-keyboard-response","129","84713","0.0-129.0","","","","","null","<img src=""img/food2.png"" style=""width:200px;border:14px solid red;"">","null","","","","","","","","","",""
"","image-keyboard-response","130","85883","0.0-130.0","","","","","1169.4000000059605","img/food4.png","76","1169.7000000178814","3","1","3","1","1,0.7,0,1,0.7,0,0.7,0,1","1,0.7,0,1,0.7,0,0.7,0,1","1","",""
"","html-keyboard-response","131","86184","0.0-131.0","","","","","null","<img src=""img/food4.png"" style=""width:200px; border:14px solid green;"">","null","","","","","","","","","",""
"","image-keyboard-response","132","86931","0.0-132.0","","","","","746.1000000238419","img/food2.png","75","746.6999999880791","2","0","1","1","1,0.7,0,1,0.7,0,0.7,0,1","1,0.7,0,1,0.7,0,0.7,0,1","1","",""
"","html-keyboard-response","133","87233","0.0-133.0","","","","","null","<img src=""img/food2.png"" style=""width:200px;border:14px solid red;"">","null","","","","","","","","","",""
"","image-keyboard-response","134","87827","0.0-134.0","","","","","592.4000000059605","img/food2.png","74","592.9000000059605","1","1","1","1","1,0.7,0,1,0.7,0,0.7,0,1","1,0.7,0,1,0.7,0,0.7,0,1","1","",""
"","html-keyboard-response","135","88128","0.0-135.0","","","","","null","<img src=""img/food2.png"" style=""width:200px; border:14px solid green;"">","null","","","","","","","","","",""
"","image-keyboard-response","136","89467","0.0-136.0","","","","","1337.9000000059605","img/food6.png","74","1338.4000000059605","1","1","2","1","1,0.7,0,1,0.7,0,0.7,0,1","1,0.7,0,1,0.7,0,0.7,0,1","1","",""
"","html-keyboard-response","137","89773","0.0-137.0","","","","","null","<img src=""img/food6.png"" style=""width:200px; border:14px solid green;"">","null","","","","","","","","","",""
"","image-keyboard-response","138","90195","0.0-138.0","","","","","421","img/food6.png","74","421.59999999403954","1","1","2","1","1,0.7,0,1,0.7,0,0.7,0,1","1,0.7,0,1,0.7,0,0.7,0,1","1","",""
"","html-keyboard-response","139","90496","0.0-139.0","","","","","null","<img src=""img/food6.png"" style=""width:200px; border:14px solid green;"">","null","","","","","","","","","",""
"","image-keyboard-response","140","91107","0.0-140.0","","","","","609.5999999940395","img/food2.png","74","610.0999999940395","1","1","1","1","1,0.7,0,1,0.7,0,0.7,0,1","1,0.7,0,1,0.7,0,0.7,0,1","1","",""
"","html-keyboard-response","141","91408","0.0-141.0","","","","","null","<img src=""img/food2.png"" style=""width:200px; border:14px solid green;"">","null","","","","","","","","","",""
"","image-keyboard-response","142","91867","0.0-142.0","","","","","458.09999999403954","img/food6.png","74","458.7000000178814","1","1","2","1","1,0.7,0,1,0.7,0,0.7,0,1","1,0.7,0,1,0.7,0,0.7,0,1","1","",""
"","html-keyboard-response","143","92168","0.0-143.0","","","","","null","<img src=""img/food6.png"" style=""width:200px; border:14px solid green;"">","null","","","","","","","","","",""
"","image-keyboard-response","144","92499","0.0-144.0","","","","","329.69999998807907","img/food6.png","74","330.30000001192093","1","1","2","1","1,0.7,0,1,0.7,0,0.7,0,1","1,0.7,0,1,0.7,0,0.7,0,1","1","",""
"","html-keyboard-response","145","92800","0.0-145.0","","","","","null","<img src=""img/food6.png"" style=""width:200px; border:14px solid green;"">","null","","","","","","","","","",""
"","image-keyboard-response","146","93242","0.0-146.0","","","","","441.69999998807907","img/food2.png","74","442.30000001192093","1","1","1","1","1,0.7,0,1,0.7,0,0.7,0,1","1,0.7,0,1,0.7,0,0.7,0,1","1","",""
"","html-keyboard-response","147","93544","0.0-147.0","","","","","null","<img src=""img/food2.png"" style=""width:200px; border:14px solid green;"">","null","","","","","","","","","",""
"","image-keyboard-response","148","93955","0.0-148.0","","","","","409.60000002384186","img/food2.png","74","410.19999998807907","1","1","1","1","1,0.7,0,1,0.7,0,0.7,0,1","1,0.7,0,1,0.7,0,0.7,0,1","1","",""
"","html-keyboard-response","149","94257","0.0-149.0","","","","","null","<img src=""img/food2.png"" style=""width:200px; border:14px solid green;"">","null","","","","","","","","","",""
"","image-keyboard-response","150","94587","0.0-150.0","","","","","329.09999999403954","img/food2.png","74","329.60000002384186","1","1","1","1","1,0.7,0,1,0.7,0,0.7,0,1","1,0.7,0,1,0.7,0,0.7,0,1","1","",""
"","html-keyboard-response","151","94889","0.0-151.0","","","","","null","<img src=""img/food2.png"" style=""width:200px; border:14px solid green;"">","null","","","","","","","","","",""
"","image-keyboard-response","152","95779","0.0-152.0","","","","","889.5999999940395","img/food6.png","74","890.1000000238419","1","1","2","1","1,0.7,0,1,0.7,0,0.7,0,1","1,0.7,0,1,0.7,0,0.7,0,1","1","",""
"","html-keyboard-response","153","96080","0.0-153.0","","","","","null","<img src=""img/food6.png"" style=""width:200px; border:14px solid green;"">","null","","","","","","","","","",""
"","image-keyboard-response","154","96339","0.0-154.0","","","","","257.2999999821186","img/food2.png","74","258","1","1","1","1","1,0.7,0,1,0.7,0,0.7,0,1","1,0.7,0,1,0.7,0,0.7,0,1","1","",""
"","html-keyboard-response","155","96640","0.0-155.0","","","","","null","<img src=""img/food2.png"" style=""width:200px; border:14px solid green;"">","null","","","","","","","","","",""
"","image-keyboard-response","156","97315","0.0-156.0","","","","","673.7999999821186","img/food6.png","74","674.2000000178814","1","1","2","1","1,0.7,0,1,0.7,0,0.7,0,1","1,0.7,0,1,0.7,0,0.7,0,1","1","",""
"","html-keyboard-response","157","97616","0.0-157.0","","","","","null","<img src=""img/food6.png"" style=""width:200px; border:14px solid green;"">","null","","","","","","","","","",""
"","image-keyboard-response","158","98035","0.0-158.0","","","","","417.69999998807907","img/food2.png","74","418.30000001192093","1","1","1","1","1,0.7,0,1,0.7,0,0.7,0,1","1,0.7,0,1,0.7,0,0.7,0,1","1","",""
"","html-keyboard-response","159","98336","0.0-159.0","","","","","null","<img src=""img/food2.png"" style=""width:200px; border:14px solid green;"">","null","","","","","","","","","",""
"","image-keyboard-response","160","98771","0.0-160.0","","","","","434.19999998807907","img/food6.png","74","434.80000001192093","1","1","2","1","1,0.7,0,1,0.7,0,0.7,0,1","1,0.7,0,1,0.7,0,0.7,0,1","1","",""
"","html-keyboard-response","161","99072","0.0-161.0","","","","","null","<img src=""img/food6.png"" style=""width:200px; border:14px solid green;"">","null","","","","","","","","","",""
"","image-keyboard-response","162","99507","0.0-162.0","","","","","434","img/food4.png","74","434.69999998807907","1","1","3","1","1,0.7,0,1,0.7,0,0.7,0,1","1,0.7,0,1,0.7,0,0.7,0,1","1","",""
"","html-keyboard-response","163","99808","0.0-163.0","","","","","null","<img src=""img/food4.png"" style=""width:200px; border:14px solid green;"">","null","","","","","","","","","",""
"","image-keyboard-response","164","100459","0.0-164.0","","","","","649.5999999940395","img/food2.png","74","650.0999999940395","1","1","1","1","1,0.7,0,1,0.7,0,0.7,0,1","1,0.7,0,1,0.7,0,0.7,0,1","1","",""
"","html-keyboard-response","165","100761","0.0-165.0","","","","","null","<img src=""img/food2.png"" style=""width:200px; border:14px solid green;"">","null","","","","","","","","","",""
"","image-keyboard-response","166","101115","0.0-166.0","","","","","353.10000002384186","img/food2.png","74","353.69999998807907","1","1","1","1","1,0.7,0,1,0.7,0,0.7,0,1","1,0.7,0,1,0.7,0,0.7,0,1","1","",""
"","html-keyboard-response","167","101416","0.0-167.0","","","","","null","<img src=""img/food2.png"" style=""width:200px; border:14px solid green;"">","null","","","","","","","","","",""
"","image-keyboard-response","168","102083","0.0-168.0","","","","","666.3999999761581","img/food4.png","74","666.8000000119209","1","1","3","1","1,0.7,0,1,0.7,0,0.7,0,1","1,0.7,0,1,0.7,0,0.7,0,1","1","",""
"","html-keyboard-response","169","102384","0.0-169.0","","","","","null","<img src=""img/food4.png"" style=""width:200px; border:14px solid green;"">","null","","","","","","","","","",""
"","image-keyboard-response","170","102827","0.0-170.0","","","","","441.90000000596046","img/food2.png","74","442.40000000596046","1","1","1","1","1,0.7,0,1,0.7,0,0.7,0,1","1,0.7,0,1,0.7,0,0.7,0,1","1","",""
"","html-keyboard-response","171","103128","0.0-171.0","","","","","null","<img src=""img/food2.png"" style=""width:200px; border:14px solid green;"">","null","","","","","","","","","",""
"","image-keyboard-response","172","103475","0.0-172.0","","","","","345.5","img/food2.png","74","346","1","1","1","1","1,0.7,0,1,0.7,0,0.7,0,1","1,0.7,0,1,0.7,0,0.7,0,1","1","",""
"","html-keyboard-response","173","103776","0.0-173.0","","","","","null","<img src=""img/food2.png"" style=""width:200px; border:14px solid green;"">","null","","","","","","","","","",""
"","image-keyboard-response","174","104291","0.0-174.0","","","","","514","img/food6.png","74","514.5999999940395","1","1","2","1","1,0.7,0,1,0.7,0,0.7,0,1","1,0.7,0,1,0.7,0,0.7,0,1","1","",""
"","html-keyboard-response","175","104593","0.0-175.0","","","","","null","<img src=""img/food6.png"" style=""width:200px; border:14px solid green;"">","null","","","","","","","","","",""
"","image-keyboard-response","176","104931","0.0-176.0","","","","","337.40000000596046","img/food6.png","74","337.90000000596046","1","1","2","1","1,0.7,0,1,0.7,0,0.7,0,1","1,0.7,0,1,0.7,0,0.7,0,1","1","",""
"","html-keyboard-response","177","105233","0.0-177.0","","","","","null","<img src=""img/food6.png"" style=""width:200px; border:14px solid green;"">","null","","","","","","","","","",""
"","image-keyboard-response","178","105667","0.0-178.0","","","","","432.5","img/food4.png","74","433","1","0","3","1","1,0.7,0,1,0.7,0,0.7,0,1","1,0.7,0,1,0.7,0,0.7,0,1","1","",""
"","html-keyboard-response","179","105968","0.0-179.0","","","","","null","<img src=""img/food4.png"" style=""width:200px;border:14px solid red;"">","null","","","","","","","","","",""
"","image-keyboard-response","180","106603","0.0-180.0","","","","","634","img/food2.png","74","634.5","1","1","1","1","1,0.7,0,1,0.7,0,0.7,0,1","1,0.7,0,1,0.7,0,0.7,0,1","1","",""
"","html-keyboard-response","181","106904","0.0-181.0","","","","","null","<img src=""img/food2.png"" style=""width:200px; border:14px solid green;"">","null","","","","","","","","","",""
"","html-keyboard-response","182","109377","0.0-182.0","","","","","","","","","","","","","","","","",""
"","instructions","183","118175","0.0-183.0","","","","[{""page_index"":0,""viewing_time"":6877},{""page_index"":1,""viewing_time"":1920}]","8797.200000017881","","","","","","","","","","","",""
"","image-keyboard-response","184","119155","0.0-184.0","","","","","979.2000000178814","img/food1.png","74","980.1000000238419","1","1","2","2","1,0.7,0,1,0.7,0,0.7,0,1","1,0.7,0,1,0.7,0,0.7,0,1","1","false",""
"","html-keyboard-response","185","119457","0.0-185.0","","","","","null","<img src=""img/food1.png"" style=""width:200px; border:14px solid green;"">","null","","","","","","","","","",""
"","image-keyboard-response","186","120457","0.0-187.0","","","","","","img/food3.png","","1001.7000000178814","-1","0","1","2","1,0.7,0,1,0.7,0,0.7,0,1","1,0.7,0,1,0.7,0,0.7,0,1","1","true",""
"","html-keyboard-response","187","120760","0.0-188.0","","","","","null","<img src=""img/food3.png"" style=""width:200px;border:14px solid red;"">","null","","","","","","","","","",""
"","html-keyboard-response","188","127855","0.0-189.0-0.0","","","","","","","","","","","","","","","","",""
"","image-keyboard-response","189","128400","0.0-190.0","","","","","544.1999999880791","img/food3.png","75","545","2","1","1","2","1,0.7,0,1,0.7,0,0.7,0,1","1,0.7,0,1,0.7,0,0.7,0,1","1","false",""
"","html-keyboard-response","190","128702","0.0-191.0","","","","","null","<img src=""img/food3.png"" style=""width:200px; border:14px solid green;"">","null","","","","","","","","","",""
"","image-keyboard-response","191","129392","0.0-193.0","","","","","689.9000000059605","img/food1.png","74","690.5","1","1","2","2","1,0.7,0,1,0.7,0,0.7,0,1","1,0.7,0,1,0.7,0,0.7,0,1","1","false",""
"","html-keyboard-response","192","129694","0.0-194.0","","","","","null","<img src=""img/food1.png"" style=""width:200px; border:14px solid green;"">","null","","","","","","","","","",""
"","image-keyboard-response","193","130048","0.0-196.0","","","","","353.7000000178814","img/food1.png","74","354.2999999821186","1","1","2","2","1,0.7,0,1,0.7,0,0.7,0,1","1,0.7,0,1,0.7,0,0.7,0,1","1","false",""
"","html-keyboard-response","194","130350","0.0-197.0","","","","","null","<img src=""img/food1.png"" style=""width:200px; border:14px solid green;"">","null","","","","","","","","","",""
"","image-keyboard-response","195","130600","0.0-199.0","","","","","249.5","img/food1.png","74","250.19999998807907","1","1","2","2","1,0.7,0,1,0.7,0,0.7,0,1","1,0.7,0,1,0.7,0,0.7,0,1","1","false",""
"","html-keyboard-response","196","130902","0.0-200.0","","","","","null","<img src=""img/food1.png"" style=""width:200px; border:14px solid green;"">","null","","","","","","","","","",""
"","image-keyboard-response","197","131752","0.0-202.0","","","","","849.8999999761581","img/food5.png","76","850.5","3","1","3","2","1,0.7,0,1,0.7,0,0.7,0,1","1,0.7,0,1,0.7,0,0.7,0,1","1","false",""
"","html-keyboard-response","198","132054","0.0-203.0","","","","","null","<img src=""img/food5.png"" style=""width:200px; border:14px solid green;"">","null","","","","","","","","","",""
"","image-keyboard-response","199","132384","0.0-205.0","","","","","329.30000001192093","img/food5.png","76","330.09999999403954","3","1","3","2","1,0.7,0,1,0.7,0,0.7,0,1","1,0.7,0,1,0.7,0,0.7,0,1","1","false",""
"","html-keyboard-response","200","132687","0.0-206.0","","","","","null","<img src=""img/food5.png"" style=""width:200px; border:14px solid green;"">","null","","","","","","","","","",""
"","image-keyboard-response","201","133289","0.0-208.0","","","","","601","img/food1.png","74","601.8000000119209","1","1","2","2","1,0.7,0,1,0.7,0,0.7,0,1","1,0.7,0,1,0.7,0,0.7,0,1","1","false",""
"","html-keyboard-response","202","133590","0.0-209.0","","","","","null","<img src=""img/food1.png"" style=""width:200px; border:14px solid green;"">","null","","","","","","","","","",""
"","image-keyboard-response","203","134336","0.0-211.0","","","","","745.5","img/food3.png","75","746.0999999940395","2","1","1","2","1,0.7,0,1,0.7,0,0.7,0,1","1,0.7,0,1,0.7,0,0.7,0,1","1","false",""
"","html-keyboard-response","204","134638","0.0-212.0","","","","","null","<img src=""img/food3.png"" style=""width:200px; border:14px solid green;"">","null","","","","","","","","","",""
"","image-keyboard-response","205","135296","0.0-214.0","","","","","657.3000000119209","img/food1.png","74","657.9000000059605","1","1","2","2","1,0.7,0,1,0.7,0,0.7,0,1","1,0.7,0,1,0.7,0,0.7,0,1","1","false",""
"","html-keyboard-response","206","135598","0.0-215.0","","","","","null","<img src=""img/food1.png"" style=""width:200px; border:14px solid green;"">","null","","","","","","","","","",""
"","image-keyboard-response","207","136224","0.0-217.0","","","","","626","img/food5.png","76","626.5","3","1","3","2","1,0.7,0,1,0.7,0,0.7,0,1","1,0.7,0,1,0.7,0,0.7,0,1","1","false",""
"","html-keyboard-response","208","136527","0.0-218.0","","","","","null","<img src=""img/food5.png"" style=""width:200px; border:14px solid green;"">","null","","","","","","","","","",""
"","image-keyboard-response","209","137249","0.0-220.0","","","","","721.1999999880791","img/food3.png","75","721.9000000059605","2","1","1","2","1,0.7,0,1,0.7,0,0.7,0,1","1,0.7,0,1,0.7,0,0.7,0,1","1","false",""
"","html-keyboard-response","210","137550","0.0-221.0","","","","","null","<img src=""img/food3.png"" style=""width:200px; border:14px solid green;"">","null","","","","","","","","","",""
"","image-keyboard-response","211","138217","0.0-223.0","","","","","665.6999999880791","img/food5.png","76","666.2000000178814","3","1","3","2","1,0.7,0,1,0.7,0,0.7,0,1","1,0.7,0,1,0.7,0,0.7,0,1","1","false",""
"","html-keyboard-response","212","138519","0.0-224.0","","","","","null","<img src=""img/food5.png"" style=""width:200px; border:14px solid green;"">","null","","","","","","","","","",""
"","image-keyboard-response","213","139064","0.0-226.0","","","","","544.5","img/food1.png","74","545.0999999940395","1","1","2","2","1,0.7,0,1,0.7,0,0.7,0,1","1,0.7,0,1,0.7,0,0.7,0,1","1","false",""
"","html-keyboard-response","214","139367","0.0-227.0","","","","","null","<img src=""img/food1.png"" style=""width:200px; border:14px solid green;"">","null","","","","","","","","","",""
"","image-keyboard-response","215","139896","0.0-229.0","","","","","529.3000000119209","img/food3.png","75","529.6999999880791","2","1","1","2","1,0.7,0,1,0.7,0,0.7,0,1","1,0.7,0,1,0.7,0,0.7,0,1","1","false",""
"","html-keyboard-response","216","140199","0.0-230.0","","","","","null","<img src=""img/food3.png"" style=""width:200px; border:14px solid green;"">","null","","","","","","","","","",""
"","image-keyboard-response","217","140720","0.0-232.0","","","","","520.6000000238419","img/food5.png","76","521.0999999940395","3","1","3","2","1,0.7,0,1,0.7,0,0.7,0,1","1,0.7,0,1,0.7,0,0.7,0,1","1","false",""
"","html-keyboard-response","218","141022","0.0-233.0","","","","","null","<img src=""img/food5.png"" style=""width:200px; border:14px solid green;"">","null","","","","","","","","","",""
"","image-keyboard-response","219","141600","0.0-235.0","","","","","577.4000000059605","img/food1.png","74","578","1","1","2","2","1,0.7,0,1,0.7,0,0.7,0,1","1,0.7,0,1,0.7,0,0.7,0,1","1","false",""
"","html-keyboard-response","220","141902","0.0-236.0","","","","","null","<img src=""img/food1.png"" style=""width:200px; border:14px solid green;"">","null","","","","","","","","","",""
"","image-keyboard-response","221","142400","0.0-238.0","","","","","497.19999998807907","img/food5.png","75","497.80000001192093","2","0","3","2","1,0.7,0,1,0.7,0,0.7,0,1","1,0.7,0,1,0.7,0,0.7,0,1","1","false",""
"","html-keyboard-response","222","142702","0.0-239.0","","","","","null","<img src=""img/food5.png"" style=""width:200px;border:14px solid red;"">","null","","","","","","","","","",""
"","image-keyboard-response","223","143425","0.0-241.0","","","","","721.8000000119209","img/food3.png","75","722.3999999761581","2","1","1","2","1,0.7,0,1,0.7,0,0.7,0,1","1,0.7,0,1,0.7,0,0.7,0,1","1","false",""
"","html-keyboard-response","224","143726","0.0-242.0","","","","","null","<img src=""img/food3.png"" style=""width:200px; border:14px solid green;"">","null","","","","","","","","","",""
"","image-keyboard-response","225","144232","0.0-244.0","","","","","505.40000000596046","img/food5.png","76","506","3","1","3","2","1,0.7,0,1,0.7,0,0.7,0,1","1,0.7,0,1,0.7,0,0.7,0,1","1","false",""
"","html-keyboard-response","226","144534","0.0-245.0","","","","","null","<img src=""img/food5.png"" style=""width:200px; border:14px solid green;"">","null","","","","","","","","","",""
"","image-keyboard-response","227","144945","0.0-247.0","","","","","409.40000000596046","img/food5.png","76","410.09999999403954","3","1","3","2","1,0.7,0,1,0.7,0,0.7,0,1","1,0.7,0,1,0.7,0,0.7,0,1","1","false",""
"","html-keyboard-response","228","145246","0.0-248.0","","","","","null","<img src=""img/food5.png"" style=""width:200px; border:14px solid green;"">","null","","","","","","","","","",""
"","image-keyboard-response","229","145944","0.0-250.0","","","","","697.5","img/food3.png","74","698.1999999880791","1","1","1","2","1,0.7,0,1,0.7,0,0.7,0,1","1,0.7,0,1,0.7,0,0.7,0,1","1","false",""
"","html-keyboard-response","230","146255","0.0-251.0","","","","","null","<img src=""img/food3.png"" style=""width:200px; border:14px solid green;"">","null","","","","","","","","","",""
"","image-keyboard-response","231","147113","0.0-253.0","","","","","856.4000000059605","img/food1.png","74","857","1","1","2","2","1,0.7,0,1,0.7,0,0.7,0,1","1,0.7,0,1,0.7,0,0.7,0,1","1","false",""
"","html-keyboard-response","232","147414","0.0-254.0","","","","","null","<img src=""img/food1.png"" style=""width:200px; border:14px solid green;"">","null","","","","","","","","","",""
"","image-keyboard-response","233","148409","0.0-256.0","","","","","993.7999999821186","img/food5.png","76","994.3000000119209","3","1","3","2","1,0.7,0,1,0.7,0,0.7,0,1","1,0.7,0,1,0.7,0,0.7,0,1","1","false",""
"","html-keyboard-response","234","148710","0.0-257.0","","","","","null","<img src=""img/food5.png"" style=""width:200px; border:14px solid green;"">","null","","","","","","","","","",""
"","image-keyboard-response","235","149352","0.0-259.0","","","","","641.4000000059605","img/food1.png","74","642.0999999940395","1","1","2","2","1,0.7,0,1,0.7,0,0.7,0,1","1,0.7,0,1,0.7,0,0.7,0,1","1","false",""
"","html-keyboard-response","236","149655","0.0-260.0","","","","","null","<img src=""img/food1.png"" style=""width:200px; border:14px solid green;"">","null","","","","","","","","","",""
"","image-keyboard-response","237","150424","0.0-262.0","","","","","768.6000000238419","img/food5.png","76","769.1999999880791","3","1","3","2","1,0.7,0,1,0.7,0,0.7,0,1","1,0.7,0,1,0.7,0,0.7,0,1","1","false",""
"","html-keyboard-response","238","150726","0.0-263.0","","","","","null","<img src=""img/food5.png"" style=""width:200px; border:14px solid green;"">","null","","","","","","","","","",""
"","image-keyboard-response","239","151137","0.0-265.0","","","","","409.5","img/food5.png","76","410.09999999403954","3","1","3","2","1,0.7,0,1,0.7,0,0.7,0,1","1,0.7,0,1,0.7,0,0.7,0,1","1","false",""
"","html-keyboard-response","240","151439","0.0-266.0","","","","","null","<img src=""img/food5.png"" style=""width:200px; border:14px solid green;"">","null","","","","","","","","","",""
"","image-keyboard-response","241","152144","0.0-268.0","","","","","705","img/food3.png","75","705.5999999940395","2","1","1","2","1,0.7,0,1,0.7,0,0.7,0,1","1,0.7,0,1,0.7,0,0.7,0,1","1","false",""
"","html-keyboard-response","242","152446","0.0-269.0","","","","","null","<img src=""img/food3.png"" style=""width:200px; border:14px solid green;"">","null","","","","","","","","","",""
"","image-keyboard-response","243","152792","0.0-271.0","","","","","345.30000001192093","img/food3.png","75","346.5","2","0","1","2","1,0.7,0,1,0.7,0,0.7,0,1","1,0.7,0,1,0.7,0,0.7,0,1","1","false",""
"","html-keyboard-response","244","153095","0.0-272.0","","","","","null","<img src=""img/food3.png"" style=""width:200px;border:14px solid red;"">","null","","","","","","","","","",""
"","image-keyboard-response","245","153945","0.0-274.0","","","","","849","img/food5.png","76","849.6000000238419","3","1","3","2","1,0.7,0,1,0.7,0,0.7,0,1","1,0.7,0,1,0.7,0,0.7,0,1","1","false",""
"","html-keyboard-response","246","154246","0.0-275.0","","","","","null","<img src=""img/food5.png"" style=""width:200px; border:14px solid green;"">","null","","","","","","","","","",""
"","image-keyboard-response","247","154561","0.0-277.0","","","","","313.09999999403954","img/food5.png","76","313.69999998807907","3","1","3","2","1,0.7,0,1,0.7,0,0.7,0,1","1,0.7,0,1,0.7,0,0.7,0,1","1","false",""
"","html-keyboard-response","248","154862","0.0-278.0","","","","","null","<img src=""img/food5.png"" style=""width:200px; border:14px solid green;"">","null","","","","","","","","","",""
"","image-keyboard-response","249","155352","0.0-280.0","","","","","489.5","img/food1.png","74","489.90000000596046","1","1","2","2","1,0.7,0,1,0.7,0,0.7,0,1","1,0.7,0,1,0.7,0,0.7,0,1","1","false",""
"","html-keyboard-response","250","155654","0.0-281.0","","","","","null","<img src=""img/food1.png"" style=""width:200px; border:14px solid green;"">","null","","","","","","","","","",""
"","image-keyboard-response","251","156345","0.0-283.0","","","","","689.8000000119209","img/food5.png","76","690.5","3","1","3","2","1,0.7,0,1,0.7,0,0.7,0,1","1,0.7,0,1,0.7,0,0.7,0,1","1","false",""
"","html-keyboard-response","252","156647","0.0-284.0","","","","","null","<img src=""img/food5.png"" style=""width:200px; border:14px solid green;"">","null","","","","","","","","","",""
"","image-keyboard-response","253","157352","0.0-286.0","","","","","704.5999999940395","img/food3.png","75","705.1999999880791","2","1","1","2","1,0.7,0,1,0.7,0,0.7,0,1","1,0.7,0,1,0.7,0,0.7,0,1","1","false",""
"","html-keyboard-response","254","157654","0.0-287.0","","","","","null","<img src=""img/food3.png"" style=""width:200px; border:14px solid green;"">","null","","","","","","","","","",""
"","image-keyboard-response","255","158312","0.0-289.0","","","","","658","img/food1.png","74","658.5","1","1","2","2","1,0.7,0,1,0.7,0,0.7,0,1","1,0.7,0,1,0.7,0,0.7,0,1","1","false",""
"","html-keyboard-response","256","158614","0.0-290.0","","","","","null","<img src=""img/food1.png"" style=""width:200px; border:14px solid green;"">","null","","","","","","","","","",""
"","image-keyboard-response","257","159296","0.0-292.0","","","","","681.7000000178814","img/food3.png","75","682.0999999940395","2","1","1","2","1,0.7,0,1,0.7,0,0.7,0,1","1,0.7,0,1,0.7,0,0.7,0,1","1","false",""
"","html-keyboard-response","258","159598","0.0-293.0","","","","","null","<img src=""img/food3.png"" style=""width:200px; border:14px solid green;"">","null","","","","","","","","","",""
"","image-keyboard-response","259","160368","0.0-295.0","","","","","769.7000000178814","img/food1.png","74","770.2999999821186","1","1","2","2","1,0.7,0,1,0.7,0,0.7,0,1","1,0.7,0,1,0.7,0,0.7,0,1","1","false",""
"","html-keyboard-response","260","160669","0.0-296.0","","","","","null","<img src=""img/food1.png"" style=""width:200px; border:14px solid green;"">","null","","","","","","","","","",""
"","image-keyboard-response","261","161337","0.0-298.0","","","","","666.3000000119209","img/food5.png","76","666.9000000059605","3","1","3","2","1,0.7,0,1,0.7,0,0.7,0,1","1,0.7,0,1,0.7,0,0.7,0,1","1","false",""
"","html-keyboard-response","262","161639","0.0-299.0","","","","","null","<img src=""img/food5.png"" style=""width:200px; border:14px solid green;"">","null","","","","","","","","","",""
"","image-keyboard-response","263","162041","0.0-301.0","","","","","400.80000001192093","img/food5.png","76","401.5","3","1","3","2","1,0.7,0,1,0.7,0,0.7,0,1","1,0.7,0,1,0.7,0,0.7,0,1","1","false",""
"","html-keyboard-response","264","162343","0.0-302.0","","","","","null","<img src=""img/food5.png"" style=""width:200px; border:14px solid green;"">","null","","","","","","","","","",""
"","image-keyboard-response","265","163104","0.0-304.0","","","","","760.9000000059605","img/food3.png","75","761.5999999940395","2","1","1","2","1,0.7,0,1,0.7,0,0.7,0,1","1,0.7,0,1,0.7,0,0.7,0,1","1","false",""
"","html-keyboard-response","266","163406","0.0-305.0","","","","","null","<img src=""img/food3.png"" style=""width:200px; border:14px solid green;"">","null","","","","","","","","","",""
"","image-keyboard-response","267","164072","0.0-307.0","","","","","665.5","img/food5.png","76","665.9000000059605","3","1","3","2","1,0.7,0,1,0.7,0,0.7,0,1","1,0.7,0,1,0.7,0,0.7,0,1","1","false",""
"","html-keyboard-response","268","164374","0.0-308.0","","","","","null","<img src=""img/food5.png"" style=""width:200px; border:14px solid green;"">","null","","","","","","","","","",""
"","image-keyboard-response","269","164768","0.0-310.0","","","","","393.2000000178814","img/food5.png","76","393.90000000596046","3","1","3","2","1,0.7,0,1,0.7,0,0.7,0,1","1,0.7,0,1,0.7,0,0.7,0,1","1","false",""
"","html-keyboard-response","270","165070","0.0-311.0","","","","","null","<img src=""img/food5.png"" style=""width:200px; border:14px solid green;"">","null","","","","","","","","","",""
"","image-keyboard-response","271","165640","0.0-313.0","","","","","569.7000000178814","img/food3.png","75","570.3000000119209","2","0","1","2","1,0.7,0,1,0.7,0,0.7,0,1","1,0.7,0,1,0.7,0,0.7,0,1","1","false",""
"","html-keyboard-response","272","165943","0.0-314.0","","","","","null","<img src=""img/food3.png"" style=""width:200px;border:14px solid red;"">","null","","","","","","","","","",""
"","image-keyboard-response","273","166689","0.0-316.0","","","","","744.8000000119209","img/food1.png","74","745.2999999821186","1","1","2","2","1,0.7,0,1,0.7,0,0.7,0,1","1,0.7,0,1,0.7,0,0.7,0,1","1","false",""
"","html-keyboard-response","274","166994","0.0-317.0","","","","","null","<img src=""img/food1.png"" style=""width:200px; border:14px solid green;"">","null","","","","","","","","","",""
"","image-keyboard-response","275","167392","0.0-319.0","","","","","397.59999999403954","img/food1.png","74","398.2000000178814","1","1","2","2","1,0.7,0,1,0.7,0,0.7,0,1","1,0.7,0,1,0.7,0,0.7,0,1","1","false",""
"","html-keyboard-response","276","167694","0.0-320.0","","","","","null","<img src=""img/food1.png"" style=""width:200px; border:14px solid green;"">","null","","","","","","","","","",""
"","image-keyboard-response","277","168473","0.0-322.0","","","","","778.2999999821186","img/food5.png","76","778.6999999880791","3","1","3","2","1,0.7,0,1,0.7,0,0.7,0,1","1,0.7,0,1,0.7,0,0.7,0,1","1","false",""
"","html-keyboard-response","278","168775","0.0-323.0","","","","","null","<img src=""img/food5.png"" style=""width:200px; border:14px solid green;"">","null","","","","","","","","","",""
"","image-keyboard-response","279","169521","0.0-325.0","","","","","745","img/food3.png","74","745.5","1","1","1","2","1,0.7,0,1,0.7,0,0.7,0,1","1,0.7,0,1,0.7,0,0.7,0,1","1","false",""
"","html-keyboard-response","280","169823","0.0-326.0","","","","","null","<img src=""img/food3.png"" style=""width:200px; border:14px solid green;"">","null","","","","","","","","","",""
"","image-keyboard-response","281","170128","0.0-328.0","","","","","304.60000002384186","img/food3.png","74","305.2999999821186","1","1","1","2","1,0.7,0,1,0.7,0,0.7,0,1","1,0.7,0,1,0.7,0,0.7,0,1","1","false",""
"","html-keyboard-response","282","170430","0.0-329.0","","","","","null","<img src=""img/food3.png"" style=""width:200px; border:14px solid green;"">","null","","","","","","","","","",""
"","image-keyboard-response","283","170753","0.0-331.0","","","","","321.7000000178814","img/food3.png","74","322.39999997615814","1","1","1","2","1,0.7,0,1,0.7,0,0.7,0,1","1,0.7,0,1,0.7,0,0.7,0,1","1","false",""
"","html-keyboard-response","284","171054","0.0-332.0","","","","","null","<img src=""img/food3.png"" style=""width:200px; border:14px solid green;"">","null","","","","","","","","","",""
"","image-keyboard-response","285","171832","0.0-334.0","","","","","777.6000000238419","img/food5.png","76","778.1999999880791","3","1","3","2","1,0.7,0,1,0.7,0,0.7,0,1","1,0.7,0,1,0.7,0,0.7,0,1","1","false",""
"","html-keyboard-response","286","172144","0.0-335.0","","","","","null","<img src=""img/food5.png"" style=""width:200px; border:14px solid green;"">","null","","","","","","","","","",""
"","image-keyboard-response","287","172993","0.0-337.0","","","","","847.9000000059605","img/food3.png","74","848.2999999821186","1","1","1","2","1,0.7,0,1,0.7,0,0.7,0,1","1,0.7,0,1,0.7,0,0.7,0,1","1","false",""
"","html-keyboard-response","288","173295","0.0-338.0","","","","","null","<img src=""img/food3.png"" style=""width:200px; border:14px solid green;"">","null","","","","","","","","","",""
"","image-keyboard-response","289","174185","0.0-340.0","","","","","888.9000000059605","img/food5.png","76","889.6000000238419","3","1","3","2","1,0.7,0,1,0.7,0,0.7,0,1","1,0.7,0,1,0.7,0,0.7,0,1","1","false",""
"","html-keyboard-response","290","174487","0.0-341.0","","","","","null","<img src=""img/food5.png"" style=""width:200px; border:14px solid green;"">","null","","","","","","","","","",""
"","image-keyboard-response","291","175112","0.0-343.0","","","","","625","img/food1.png","74","625.5999999940395","1","1","2","2","1,0.7,0,1,0.7,0,0.7,0,1","1,0.7,0,1,0.7,0,0.7,0,1","1","false",""
"","html-keyboard-response","292","175414","0.0-344.0","","","","","null","<img src=""img/food1.png"" style=""width:200px; border:14px solid green;"">","null","","","","","","","","","",""
"","image-keyboard-response","293","175744","0.0-346.0","","","","","329.30000001192093","img/food1.png","74","330","1","1","2","2","1,0.7,0,1,0.7,0,0.7,0,1","1,0.7,0,1,0.7,0,0.7,0,1","1","false",""
"","html-keyboard-response","294","176060","0.0-347.0","","","","","null","<img src=""img/food1.png"" style=""width:200px; border:14px solid green;"">","null","","","","","","","","","",""
"","image-keyboard-response","295","176752","0.0-349.0","","","","","692.0999999940395","img/food5.png","76","692.5999999940395","3","1","3","2","1,0.7,0,1,0.7,0,0.7,0,1","1,0.7,0,1,0.7,0,0.7,0,1","1","false",""
"","html-keyboard-response","296","177054","0.0-350.0","","","","","null","<img src=""img/food5.png"" style=""width:200px; border:14px solid green;"">","null","","","","","","","","","",""
"","image-keyboard-response","297","177425","0.0-352.0","","","","","370.09999999403954","img/food5.png","76","370.5","3","1","3","2","1,0.7,0,1,0.7,0,0.7,0,1","1,0.7,0,1,0.7,0,0.7,0,1","1","false",""
"","html-keyboard-response","298","177726","0.0-353.0","","","","","null","<img src=""img/food5.png"" style=""width:200px; border:14px solid green;"">","null","","","","","","","","","",""
"","image-keyboard-response","299","178257","0.0-355.0","","","","","529.6999999880791","img/food1.png","74","530.2000000178814","1","1","2","2","1,0.7,0,1,0.7,0,0.7,0,1","1,0.7,0,1,0.7,0,0.7,0,1","1","false",""
"","html-keyboard-response","300","178558","0.0-356.0","","","","","null","<img src=""img/food1.png"" style=""width:200px; border:14px solid green;"">","null","","","","","","","","","",""
"","image-keyboard-response","301","178864","0.0-358.0","","","","","305.7000000178814","img/food1.png","74","306.2999999821186","1","1","2","2","1,0.7,0,1,0.7,0,0.7,0,1","1,0.7,0,1,0.7,0,0.7,0,1","1","false",""
"","html-keyboard-response","302","179166","0.0-359.0","","","","","null","<img src=""img/food1.png"" style=""width:200px; border:14px solid green;"">","null","","","","","","","","","",""
"","image-keyboard-response","303","179745","0.0-361.0","","","","","578","img/food3.png","74","578.4000000059605","1","1","1","2","1,0.7,0,1,0.7,0,0.7,0,1","1,0.7,0,1,0.7,0,0.7,0,1","1","false",""
"","html-keyboard-response","304","180046","0.0-362.0","","","","","null","<img src=""img/food3.png"" style=""width:200px; border:14px solid green;"">","null","","","","","","","","","",""
"","image-keyboard-response","305","180334","0.0-364.0","","","","","289.90000000596046","img/food3.png","74","290.40000000596046","1","1","1","2","1,0.7,0,1,0.7,0,0.7,0,1","1,0.7,0,1,0.7,0,0.7,0,1","1","false",""
"","html-keyboard-response","306","180636","0.0-365.0","","","","","null","<img src=""img/food3.png"" style=""width:200px; border:14px solid green;"">","null","","","","","","","","","",""
"","image-keyboard-response","307","181342","0.0-367.0","","","","","705","img/food1.png","74","705.5","1","1","2","2","1,0.7,0,1,0.7,0,0.7,0,1","1,0.7,0,1,0.7,0,0.7,0,1","1","false",""
"","html-keyboard-response","308","181643","0.0-368.0","","","","","null","<img src=""img/food1.png"" style=""width:200px; border:14px solid green;"">","null","","","","","","","","","",""
"","image-keyboard-response","309","181917","0.0-370.0","","","","","273.40000000596046","img/food1.png","74","273.90000000596046","1","1","2","2","1,0.7,0,1,0.7,0,0.7,0,1","1,0.7,0,1,0.7,0,0.7,0,1","1","false",""
"","html-keyboard-response","310","182219","0.0-371.0","","","","","null","<img src=""img/food1.png"" style=""width:200px; border:14px solid green;"">","null","","","","","","","","","",""
"","image-keyboard-response","311","182558","0.0-373.0","","","","","337.40000000596046","img/food1.png","74","337.89999997615814","1","1","2","2","1,0.7,0,1,0.7,0,0.7,0,1","1,0.7,0,1,0.7,0,0.7,0,1","1","false",""
"","html-keyboard-response","312","182860","0.0-374.0","","","","","null","<img src=""img/food1.png"" style=""width:200px; border:14px solid green;"">","null","","","","","","","","","",""
"","image-keyboard-response","313","183157","0.0-376.0","","","","","296.7999999821186","img/food1.png","74","297.30000001192093","1","1","2","2","1,0.7,0,1,0.7,0,0.7,0,1","1,0.7,0,1,0.7,0,0.7,0,1","1","false",""
"","html-keyboard-response","314","183459","0.0-377.0","","","","","null","<img src=""img/food1.png"" style=""width:200px; border:14px solid green;"">","null","","","","","","","","","",""
"","image-keyboard-response","315","184302","0.0-379.0","","","","","842.2000000178814","img/food3.png","74","842.5999999940395","1","1","1","2","1,0.7,0,1,0.7,0,0.7,0,1","1,0.7,0,1,0.7,0,0.7,0,1","1","false",""
"","html-keyboard-response","316","184612","0.0-380.0","","","","","null","<img src=""img/food3.png"" style=""width:200px; border:14px solid green;"">","null","","","","","","","","","",""
"","image-keyboard-response","317","185318","0.0-382.0","","","","","704.5999999940395","img/food1.png","74","705.0999999940395","1","1","2","2","1,0.7,0,1,0.7,0,0.7,0,1","1,0.7,0,1,0.7,0,0.7,0,1","1","false",""
"","html-keyboard-response","318","185618","0.0-383.0","","","","","null","<img src=""img/food1.png"" style=""width:200px; border:14px solid green;"">","null","","","","","","","","","",""
"","image-keyboard-response","319","186070","0.0-385.0","","","","","450.30000001192093","img/food3.png","74","451","1","1","1","2","1,0.7,0,1,0.7,0,0.7,0,1","1,0.7,0,1,0.7,0,0.7,0,1","1","false",""
"","html-keyboard-response","320","186371","0.0-386.0","","","","","null","<img src=""img/food3.png"" style=""width:200px; border:14px solid green;"">","null","","","","","","","","","",""
"","image-keyboard-response","321","186862","0.0-388.0","","","","","489.40000000596046","img/food1.png","74","489.89999997615814","1","1","2","2","1,0.7,0,1,0.7,0,0.7,0,1","1,0.7,0,1,0.7,0,0.7,0,1","1","false",""
"","html-keyboard-response","322","187163","0.0-389.0","","","","","null","<img src=""img/food1.png"" style=""width:200px; border:14px solid green;"">","null","","","","","","","","","",""
"","image-keyboard-response","323","187469","0.0-391.0","","","","","305.2000000178814","img/food1.png","74","305.90000000596046","1","1","2","2","1,0.7,0,1,0.7,0,0.7,0,1","1,0.7,0,1,0.7,0,0.7,0,1","1","false",""
"","html-keyboard-response","324","187771","0.0-392.0","","","","","null","<img src=""img/food1.png"" style=""width:200px; border:14px solid green;"">","null","","","","","","","","","",""
"","image-keyboard-response","325","188462","0.0-394.0","","","","","689.6000000238419","img/food3.png","74","690.1999999880791","1","1","1","2","1,0.7,0,1,0.7,0,0.7,0,1","1,0.7,0,1,0.7,0,0.7,0,1","1","false",""
"","html-keyboard-response","326","188762","0.0-395.0","","","","","null","<img src=""img/food3.png"" style=""width:200px; border:14px solid green;"">","null","","","","","","","","","",""
"","image-keyboard-response","327","189254","0.0-397.0","","","","","490.10000002384186","img/food1.png","74","490.7999999821186","1","1","2","2","1,0.7,0,1,0.7,0,0.7,0,1","1,0.7,0,1,0.7,0,0.7,0,1","1","false",""
"","html-keyboard-response","328","189555","0.0-398.0","","","","","null","<img src=""img/food1.png"" style=""width:200px; border:14px solid green;"">","null","","","","","","","","","",""
"","image-keyboard-response","329","190110","0.0-400.0","","","","","554.2999999821186","img/food5.png","76","554.9000000059605","3","1","3","2","1,0.7,0,1,0.7,0,0.7,0,1","1,0.7,0,1,0.7,0,0.7,0,1","1","false",""
"","html-keyboard-response","330","190412","0.0-401.0","","","","","null","<img src=""img/food5.png"" style=""width:200px; border:14px solid green;"">","null","","","","","","","","","",""
"","image-keyboard-response","331","191414","0.0-403.0","","","","","","img/food3.png","","1002.3000000119209","-1","0","1","2","1,0.7,0,1,0.7,0,0.7,0,1","1,0.7,0,1,0.7,0,0.7,0,1","1","true",""
"","html-keyboard-response","332","191716","0.0-404.0","","","","","null","<img src=""img/food3.png"" style=""width:200px;border:14px solid red;"">","null","","","","","","","","","",""
"","html-keyboard-response","333","195504","0.0-405.0-0.0","","","","","","","","","","","","","","","","",""
"","image-keyboard-response","334","196422","0.0-406.0","","","","","916.3000000119209","img/food5.png","76","917","3","1","3","2","1,0.7,0,1,0.7,0,0.7,0,1","1,0.7,0,1,0.7,0,0.7,0,1","1","false",""
"","html-keyboard-response","335","196723","0.0-407.0","","","","","null","<img src=""img/food5.png"" style=""width:200px; border:14px solid green;"">","null","","","","","","","","","",""
"","image-keyboard-response","336","197678","0.0-409.0","","","","","953.9000000059605","img/food3.png","74","954.5","1","1","1","2","1,0.7,0,1,0.7,0,0.7,0,1","1,0.7,0,1,0.7,0,0.7,0,1","1","false",""
"","html-keyboard-response","337","197979","0.0-410.0","","","","","null","<img src=""img/food3.png"" style=""width:200px; border:14px solid green;"">","null","","","","","","","","","",""
"","image-keyboard-response","338","198662","0.0-412.0","","","","","682","img/food5.png","76","682.5999999940395","3","1","3","2","1,0.7,0,1,0.7,0,0.7,0,1","1,0.7,0,1,0.7,0,0.7,0,1","1","false",""
"","html-keyboard-response","339","198963","0.0-413.0","","","","","null","<img src=""img/food5.png"" style=""width:200px; border:14px solid green;"">","null","","","","","","","","","",""
"","image-keyboard-response","340","199310","0.0-415.0","","","","","345.69999998807907","img/food5.png","76","346.2000000178814","3","1","3","2","1,0.7,0,1,0.7,0,0.7,0,1","1,0.7,0,1,0.7,0,0.7,0,1","1","false",""
"","html-keyboard-response","341","199611","0.0-416.0","","","","","null","<img src=""img/food5.png"" style=""width:200px; border:14px solid green;"">","null","","","","","","","","","",""
"","image-keyboard-response","342","199902","0.0-418.0","","","","","289.40000000596046","img/food5.png","76","290.19999998807907","3","1","3","2","1,0.7,0,1,0.7,0,0.7,0,1","1,0.7,0,1,0.7,0,0.7,0,1","1","false",""
"","html-keyboard-response","343","200204","0.0-419.0","","","","","null","<img src=""img/food5.png"" style=""width:200px; border:14px solid green;"">","null","","","","","","","","","",""
"","image-keyboard-response","344","200742","0.0-421.0","","","","","536.9000000059605","img/food3.png","74","537.4000000059605","1","1","1","2","1,0.7,0,1,0.7,0,0.7,0,1","1,0.7,0,1,0.7,0,0.7,0,1","1","false",""
"","html-keyboard-response","345","201043","0.0-422.0","","","","","null","<img src=""img/food3.png"" style=""width:200px; border:14px solid green;"">","null","","","","","","","","","",""
"","image-keyboard-response","346","201318","0.0-424.0","","","","","273.5","img/food1.png","74","274","1","1","2","2","1,0.7,0,1,0.7,0,0.7,0,1","1,0.7,0,1,0.7,0,0.7,0,1","1","false",""
"","html-keyboard-response","347","201619","0.0-425.0","","","","","null","<img src=""img/food1.png"" style=""width:200px; border:14px solid green;"">","null","","","","","","","","","",""
"","image-keyboard-response","348","201909","0.0-427.0","","","","","289.2999999821186","img/food3.png","74","289.80000001192093","1","1","1","2","1,0.7,0,1,0.7,0,0.7,0,1","1,0.7,0,1,0.7,0,0.7,0,1","1","false",""
"","html-keyboard-response","349","202211","0.0-428.0","","","","","null","<img src=""img/food3.png"" style=""width:200px; border:14px solid green;"">","null","","","","","","","","","",""
"","image-keyboard-response","350","202502","0.0-430.0","","","","","290.30000001192093","img/food3.png","74","290.89999997615814","1","1","1","2","1,0.7,0,1,0.7,0,0.7,0,1","1,0.7,0,1,0.7,0,0.7,0,1","1","false",""
"","html-keyboard-response","351","202804","0.0-431.0","","","","","null","<img src=""img/food3.png"" style=""width:200px; border:14px solid green;"">","null","","","","","","","","","",""
"","image-keyboard-response","352","203174","0.0-433.0","","","","","368.90000000596046","img/food3.png","74","369.5","1","1","1","2","1,0.7,0,1,0.7,0,0.7,0,1","1,0.7,0,1,0.7,0,0.7,0,1","1","false",""
"","html-keyboard-response","353","203475","0.0-434.0","","","","","null","<img src=""img/food3.png"" style=""width:200px; border:14px solid green;"">","null","","","","","","","","","",""
"","image-keyboard-response","354","203758","0.0-436.0","","","","","282","img/food3.png","74","282.59999999403954","1","1","1","2","1,0.7,0,1,0.7,0,0.7,0,1","1,0.7,0,1,0.7,0,0.7,0,1","1","false",""
"","html-keyboard-response","355","204059","0.0-437.0","","","","","null","<img src=""img/food3.png"" style=""width:200px; border:14px solid green;"">","null","","","","","","","","","",""
"","image-keyboard-response","356","204494","0.0-439.0","","","","","434.09999999403954","img/food5.png","76","434.59999999403954","3","1","3","2","1,0.7,0,1,0.7,0,0.7,0,1","1,0.7,0,1,0.7,0,0.7,0,1","1","false",""
"","html-keyboard-response","357","204795","0.0-440.0","","","","","null","<img src=""img/food5.png"" style=""width:200px; border:14px solid green;"">","null","","","","","","","","","",""
"","image-keyboard-response","358","205206","0.0-442.0","","","","","410.09999999403954","img/food1.png","74","410.5","1","1","2","2","1,0.7,0,1,0.7,0,0.7,0,1","1,0.7,0,1,0.7,0,0.7,0,1","1","false",""
"","html-keyboard-response","359","205507","0.0-443.0","","","","","null","<img src=""img/food1.png"" style=""width:200px; border:14px solid green;"">","null","","","","","","","","","",""
"","image-keyboard-response","360","205758","0.0-445.0","","","","","250.09999999403954","img/food1.png","74","250.69999998807907","1","1","2","2","1,0.7,0,1,0.7,0,0.7,0,1","1,0.7,0,1,0.7,0,0.7,0,1","1","false",""
"","html-keyboard-response","361","206059","0.0-446.0","","","","","null","<img src=""img/food1.png"" style=""width:200px; border:14px solid green;"">","null","","","","","","","","","",""
"","image-keyboard-response","362","206510","0.0-448.0","","","","","449.90000000596046","img/food5.png","76","450.5","3","1","3","2","1,0.7,0,1,0.7,0,0.7,0,1","1,0.7,0,1,0.7,0,0.7,0,1","1","false",""
"","html-keyboard-response","363","206811","0.0-449.0","","","","","null","<img src=""img/food5.png"" style=""width:200px; border:14px solid green;"">","null","","","","","","","","","",""
"","image-keyboard-response","364","207206","0.0-451.0","","","","","393.59999999403954","img/food3.png","74","394.09999999403954","1","1","1","2","1,0.7,0,1,0.7,0,0.7,0,1","1,0.7,0,1,0.7,0,0.7,0,1","1","false",""
"","html-keyboard-response","365","207507","0.0-452.0","","","","","null","<img src=""img/food3.png"" style=""width:200px; border:14px solid green;"">","null","","","","","","","","","",""
"","instructions","366","209890","0.0-454.0","","","","[{""page_index"":0,""viewing_time"":2382.9000000059605}]","2383.0999999940395","","","","","","","","","","","",""
"","survey-text","367","212065","0.0-455.0","","","","","2172.300000011921","","","","","","","","","","","","{""Q0"":""AYW62R027PUT1""}"
