"success","trial_type","trial_index","time_elapsed","internal_node_id","assignmentID","mturkID","hitID","view_history","rt","stimulus","key_press","reactionTime","a","r","s","cond","reward_cond","reward_cond_actual","reward_matrix_idx","warning","responses"
"true","fullscreen","0","2175","0.0-0.0","3BXQMRHWK0KOXR0YLR50CWKVLOCMU0","AZ8JL3QNIPY4U","3THR0FZ95PF7SK0MYRNAOUHTWA4OLV","","","","","","","","","","","","","",""
"","instructions","1","11951","0.0-1.0","3BXQMRHWK0KOXR0YLR50CWKVLOCMU0","AZ8JL3QNIPY4U","3THR0FZ95PF7SK0MYRNAOUHTWA4OLV","[{""page_index"":0,""viewing_time"":3622.7999999970198},{""page_index"":1,""viewing_time"":719.8000000044703},{""page_index"":2,""viewing_time"":416},{""page_index"":3,""viewing_time"":1820.1000000014901},{""page_index"":4,""viewing_time"":1415.8999999985099},{""page_index"":5,""viewing_time"":975.8999999985099},{""page_index"":6,""viewing_time"":803.8999999985099}]","9774.89999999851","","","","","","","","","","","",""
"","image-keyboard-response","2","13291","0.0-2.0","3BXQMRHWK0KOXR0YLR50CWKVLOCMU0","AZ8JL3QNIPY4U","3THR0FZ95PF7SK0MYRNAOUHTWA4OLV","","1338.5","img/food4.png","74","1339.7000000029802","1","0","1","1","1,0.7,0,1,0.7,0,0.7,0,1","0,1,0.7,0,1,0.7,1,0.7,0","3","",""
"","html-keyboard-response","3","13594","0.0-3.0","3BXQMRHWK0KOXR0YLR50CWKVLOCMU0","AZ8JL3QNIPY4U","3THR0FZ95PF7SK0MYRNAOUHTWA4OLV","","null","<img src=""img/food4.png"" style=""width:200px;border:14px solid red;"">","null","","","","","","","","","",""
"","image-keyboard-response","4","13986","0.0-4.0","3BXQMRHWK0KOXR0YLR50CWKVLOCMU0","AZ8JL3QNIPY4U","3THR0FZ95PF7SK0MYRNAOUHTWA4OLV","","391.30000000447035","img/food4.png","75","392.29999999701977","2","1","1","1","1,0.7,0,1,0.7,0,0.7,0,1","0,1,0.7,0,1,0.7,1,0.7,0","3","",""
"","html-keyboard-response","5","14294","0.0-5.0","3BXQMRHWK0KOXR0YLR50CWKVLOCMU0","AZ8JL3QNIPY4U","3THR0FZ95PF7SK0MYRNAOUHTWA4OLV","","null","<img src=""img/food4.png"" style=""width:200px; border:14px solid green;"">","null","","","","","","","","","",""
"","image-keyboard-response","6","14572","0.0-6.0","3BXQMRHWK0KOXR0YLR50CWKVLOCMU0","AZ8JL3QNIPY4U","3THR0FZ95PF7SK0MYRNAOUHTWA4OLV","","277.5","img/food4.png","75","278.3999999985099","2","1","1","1","1,0.7,0,1,0.7,0,0.7,0,1","0,1,0.7,0,1,0.7,1,0.7,0","3","",""
"","html-keyboard-response","7","14886","0.0-7.0","3BXQMRHWK0KOXR0YLR50CWKVLOCMU0","AZ8JL3QNIPY4U","3THR0FZ95PF7SK0MYRNAOUHTWA4OLV","","null","<img src=""img/food4.png"" style=""width:200px; border:14px solid green;"">","null","","","","","","","","","",""
"","image-keyboard-response","8","15634","0.0-8.0","3BXQMRHWK0KOXR0YLR50CWKVLOCMU0","AZ8JL3QNIPY4U","3THR0FZ95PF7SK0MYRNAOUHTWA4OLV","","747.2000000029802","img/food1.png","74","748.1000000014901","1","1","3","1","1,0.7,0,1,0.7,0,0.7,0,1","0,1,0.7,0,1,0.7,1,0.7,0","3","",""
"","html-keyboard-response","9","15942","0.0-9.0","3BXQMRHWK0KOXR0YLR50CWKVLOCMU0","AZ8JL3QNIPY4U","3THR0FZ95PF7SK0MYRNAOUHTWA4OLV","","null","<img src=""img/food1.png"" style=""width:200px; border:14px solid green;"">","null","","","","","","","","","",""
"","image-keyboard-response","10","16226","0.0-10.0","3BXQMRHWK0KOXR0YLR50CWKVLOCMU0","AZ8JL3QNIPY4U","3THR0FZ95PF7SK0MYRNAOUHTWA4OLV","","283.20000000298023","img/food1.png","74","283.90000000596046","1","1","3","1","1,0.7,0,1,0.7,0,0.7,0,1","0,1,0.7,0,1,0.7,1,0.7,0","3","",""
"","html-keyboard-response","11","16534","0.0-11.0","3BXQMRHWK0KOXR0YLR50CWKVLOCMU0","AZ8JL3QNIPY4U","3THR0FZ95PF7SK0MYRNAOUHTWA4OLV","","null","<img src=""img/food1.png"" style=""width:200px; border:14px solid green;"">","null","","","","","","","","","",""
"","image-keyboard-response","12","17162","0.0-12.0","3BXQMRHWK0KOXR0YLR50CWKVLOCMU0","AZ8JL3QNIPY4U","3THR0FZ95PF7SK0MYRNAOUHTWA4OLV","","627.3999999985099","img/food2.png","76","628.2999999970198","3","1","2","1","1,0.7,0,1,0.7,0,0.7,0,1","0,1,0.7,0,1,0.7,1,0.7,0","3","",""
"","html-keyboard-response","13","17468","0.0-13.0","3BXQMRHWK0KOXR0YLR50CWKVLOCMU0","AZ8JL3QNIPY4U","3THR0FZ95PF7SK0MYRNAOUHTWA4OLV","","null","<img src=""img/food2.png"" style=""width:200px; border:14px solid green;"">","null","","","","","","","","","",""
"","image-keyboard-response","14","17746","0.0-14.0","3BXQMRHWK0KOXR0YLR50CWKVLOCMU0","AZ8JL3QNIPY4U","3THR0FZ95PF7SK0MYRNAOUHTWA4OLV","","277.6000000014901","img/food2.png","76","278.3999999985099","3","0","2","1","1,0.7,0,1,0.7,0,0.7,0,1","0,1,0.7,0,1,0.7,1,0.7,0","3","",""
"","html-keyboard-response","15","18060","0.0-15.0","3BXQMRHWK0KOXR0YLR50CWKVLOCMU0","AZ8JL3QNIPY4U","3THR0FZ95PF7SK0MYRNAOUHTWA4OLV","","null","<img src=""img/food2.png"" style=""width:200px;border:14px solid red;"">","null","","","","","","","","","",""
"","image-keyboard-response","16","18714","0.0-16.0","3BXQMRHWK0KOXR0YLR50CWKVLOCMU0","AZ8JL3QNIPY4U","3THR0FZ95PF7SK0MYRNAOUHTWA4OLV","","653.5","img/food1.png","74","654.1999999955297","1","1","3","1","1,0.7,0,1,0.7,0,0.7,0,1","0,1,0.7,0,1,0.7,1,0.7,0","3","",""
"","html-keyboard-response","17","19023","0.0-17.0","3BXQMRHWK0KOXR0YLR50CWKVLOCMU0","AZ8JL3QNIPY4U","3THR0FZ95PF7SK0MYRNAOUHTWA4OLV","","null","<img src=""img/food1.png"" style=""width:200px; border:14px solid green;"">","null","","","","","","","","","",""
"","image-keyboard-response","18","19282","0.0-18.0","3BXQMRHWK0KOXR0YLR50CWKVLOCMU0","AZ8JL3QNIPY4U","3THR0FZ95PF7SK0MYRNAOUHTWA4OLV","","258.5","img/food1.png","74","259.5","1","1","3","1","1,0.7,0,1,0.7,0,0.7,0,1","0,1,0.7,0,1,0.7,1,0.7,0","3","",""
"","html-keyboard-response","19","19599","0.0-19.0","3BXQMRHWK0KOXR0YLR50CWKVLOCMU0","AZ8JL3QNIPY4U","3THR0FZ95PF7SK0MYRNAOUHTWA4OLV","","null","<img src=""img/food1.png"" style=""width:200px; border:14px solid green;"">","null","","","","","","","","","",""
"","image-keyboard-response","20","20490","0.0-20.0","3BXQMRHWK0KOXR0YLR50CWKVLOCMU0","AZ8JL3QNIPY4U","3THR0FZ95PF7SK0MYRNAOUHTWA4OLV","","890.2999999970198","img/food4.png","75","891.1000000014901","2","1","1","1","1,0.7,0,1,0.7,0,0.7,0,1","0,1,0.7,0,1,0.7,1,0.7,0","3","",""
"","html-keyboard-response","21","20797","0.0-21.0","3BXQMRHWK0KOXR0YLR50CWKVLOCMU0","AZ8JL3QNIPY4U","3THR0FZ95PF7SK0MYRNAOUHTWA4OLV","","null","<img src=""img/food4.png"" style=""width:200px; border:14px solid green;"">","null","","","","","","","","","",""
"","image-keyboard-response","22","21330","0.0-22.0","3BXQMRHWK0KOXR0YLR50CWKVLOCMU0","AZ8JL3QNIPY4U","3THR0FZ95PF7SK0MYRNAOUHTWA4OLV","","532.3999999985099","img/food1.png","74","533.2000000029802","1","1","3","1","1,0.7,0,1,0.7,0,0.7,0,1","0,1,0.7,0,1,0.7,1,0.7,0","3","",""
"","html-keyboard-response","23","21638","0.0-23.0","3BXQMRHWK0KOXR0YLR50CWKVLOCMU0","AZ8JL3QNIPY4U","3THR0FZ95PF7SK0MYRNAOUHTWA4OLV","","null","<img src=""img/food1.png"" style=""width:200px; border:14px solid green;"">","null","","","","","","","","","",""
"","image-keyboard-response","24","21946","0.0-24.0","3BXQMRHWK0KOXR0YLR50CWKVLOCMU0","AZ8JL3QNIPY4U","3THR0FZ95PF7SK0MYRNAOUHTWA4OLV","","307.70000000298023","img/food1.png","74","308.5","1","1","3","1","1,0.7,0,1,0.7,0,0.7,0,1","0,1,0.7,0,1,0.7,1,0.7,0","3","",""
"","html-keyboard-response","25","22260","0.0-25.0","3BXQMRHWK0KOXR0YLR50CWKVLOCMU0","AZ8JL3QNIPY4U","3THR0FZ95PF7SK0MYRNAOUHTWA4OLV","","null","<img src=""img/food1.png"" style=""width:200px; border:14px solid green;"">","null","","","","","","","","","",""
"","image-keyboard-response","26","22795","0.0-26.0","3BXQMRHWK0KOXR0YLR50CWKVLOCMU0","AZ8JL3QNIPY4U","3THR0FZ95PF7SK0MYRNAOUHTWA4OLV","","533.7999999970198","img/food2.png","76","534.6000000014901","3","1","2","1","1,0.7,0,1,0.7,0,0.7,0,1","0,1,0.7,0,1,0.7,1,0.7,0","3","",""
"","html-keyboard-response","27","23101","0.0-27.0","3BXQMRHWK0KOXR0YLR50CWKVLOCMU0","AZ8JL3QNIPY4U","3THR0FZ95PF7SK0MYRNAOUHTWA4OLV","","null","<img src=""img/food2.png"" style=""width:200px; border:14px solid green;"">","null","","","","","","","","","",""
"","image-keyboard-response","28","23634","0.0-28.0","3BXQMRHWK0KOXR0YLR50CWKVLOCMU0","AZ8JL3QNIPY4U","3THR0FZ95PF7SK0MYRNAOUHTWA4OLV","","532.8999999985099","img/food4.png","75","533.6000000014901","2","1","1","1","1,0.7,0,1,0.7,0,0.7,0,1","0,1,0.7,0,1,0.7,1,0.7,0","3","",""
"","html-keyboard-response","29","23941","0.0-29.0","3BXQMRHWK0KOXR0YLR50CWKVLOCMU0","AZ8JL3QNIPY4U","3THR0FZ95PF7SK0MYRNAOUHTWA4OLV","","null","<img src=""img/food4.png"" style=""width:200px; border:14px solid green;"">","null","","","","","","","","","",""
"","image-keyboard-response","30","24394","0.0-30.0","3BXQMRHWK0KOXR0YLR50CWKVLOCMU0","AZ8JL3QNIPY4U","3THR0FZ95PF7SK0MYRNAOUHTWA4OLV","","452.29999999701977","img/food1.png","74","453","1","1","3","1","1,0.7,0,1,0.7,0,0.7,0,1","0,1,0.7,0,1,0.7,1,0.7,0","3","",""
"","html-keyboard-response","31","24705","0.0-31.0","3BXQMRHWK0KOXR0YLR50CWKVLOCMU0","AZ8JL3QNIPY4U","3THR0FZ95PF7SK0MYRNAOUHTWA4OLV","","null","<img src=""img/food1.png"" style=""width:200px; border:14px solid green;"">","null","","","","","","","","","",""
"","image-keyboard-response","32","25002","0.0-32.0","3BXQMRHWK0KOXR0YLR50CWKVLOCMU0","AZ8JL3QNIPY4U","3THR0FZ95PF7SK0MYRNAOUHTWA4OLV","","295.80000000447035","img/food1.png","74","296.69999999552965","1","1","3","1","1,0.7,0,1,0.7,0,0.7,0,1","0,1,0.7,0,1,0.7,1,0.7,0","3","",""
"","html-keyboard-response","33","25311","0.0-33.0","3BXQMRHWK0KOXR0YLR50CWKVLOCMU0","AZ8JL3QNIPY4U","3THR0FZ95PF7SK0MYRNAOUHTWA4OLV","","null","<img src=""img/food1.png"" style=""width:200px; border:14px solid green;"">","null","","","","","","","","","",""
"","image-keyboard-response","34","26114","0.0-34.0","3BXQMRHWK0KOXR0YLR50CWKVLOCMU0","AZ8JL3QNIPY4U","3THR0FZ95PF7SK0MYRNAOUHTWA4OLV","","802.1000000014901","img/food4.png","76","802.9000000059605","3","1","1","1","1,0.7,0,1,0.7,0,0.7,0,1","0,1,0.7,0,1,0.7,1,0.7,0","3","",""
"","html-keyboard-response","35","26428","0.0-35.0","3BXQMRHWK0KOXR0YLR50CWKVLOCMU0","AZ8JL3QNIPY4U","3THR0FZ95PF7SK0MYRNAOUHTWA4OLV","","null","<img src=""img/food4.png"" style=""width:200px; border:14px solid green;"">","null","","","","","","","","","",""
"","image-keyboard-response","36","27090","0.0-36.0","3BXQMRHWK0KOXR0YLR50CWKVLOCMU0","AZ8JL3QNIPY4U","3THR0FZ95PF7SK0MYRNAOUHTWA4OLV","","661.2999999970198","img/food1.png","74","662.1000000014901","1","1","3","1","1,0.7,0,1,0.7,0,0.7,0,1","0,1,0.7,0,1,0.7,1,0.7,0","3","",""
"","html-keyboard-response","37","27391","0.0-37.0","3BXQMRHWK0KOXR0YLR50CWKVLOCMU0","AZ8JL3QNIPY4U","3THR0FZ95PF7SK0MYRNAOUHTWA4OLV","","null","<img src=""img/food1.png"" style=""width:200px; border:14px solid green;"">","null","","","","","","","","","",""
"","image-keyboard-response","38","28274","0.0-38.0","3BXQMRHWK0KOXR0YLR50CWKVLOCMU0","AZ8JL3QNIPY4U","3THR0FZ95PF7SK0MYRNAOUHTWA4OLV","","882.6000000014901","img/food2.png","76","883.2999999970198","3","0","2","1","1,0.7,0,1,0.7,0,0.7,0,1","0,1,0.7,0,1,0.7,1,0.7,0","3","",""
"","html-keyboard-response","39","28582","0.0-39.0","3BXQMRHWK0KOXR0YLR50CWKVLOCMU0","AZ8JL3QNIPY4U","3THR0FZ95PF7SK0MYRNAOUHTWA4OLV","","null","<img src=""img/food2.png"" style=""width:200px;border:14px solid red;"">","null","","","","","","","","","",""
"","image-keyboard-response","40","29362","0.0-40.0","3BXQMRHWK0KOXR0YLR50CWKVLOCMU0","AZ8JL3QNIPY4U","3THR0FZ95PF7SK0MYRNAOUHTWA4OLV","","778.6000000014901","img/food4.png","75","779.1999999955297","2","1","1","1","1,0.7,0,1,0.7,0,0.7,0,1","0,1,0.7,0,1,0.7,1,0.7,0","3","",""
"","html-keyboard-response","41","29664","0.0-41.0","3BXQMRHWK0KOXR0YLR50CWKVLOCMU0","AZ8JL3QNIPY4U","3THR0FZ95PF7SK0MYRNAOUHTWA4OLV","","null","<img src=""img/food4.png"" style=""width:200px; border:14px solid green;"">","null","","","","","","","","","",""
"","image-keyboard-response","42","30410","0.0-42.0","3BXQMRHWK0KOXR0YLR50CWKVLOCMU0","AZ8JL3QNIPY4U","3THR0FZ95PF7SK0MYRNAOUHTWA4OLV","","745.3999999985099","img/food2.png","76","746.2000000029802","3","1","2","1","1,0.7,0,1,0.7,0,0.7,0,1","0,1,0.7,0,1,0.7,1,0.7,0","3","",""
"","html-keyboard-response","43","30711","0.0-43.0","3BXQMRHWK0KOXR0YLR50CWKVLOCMU0","AZ8JL3QNIPY4U","3THR0FZ95PF7SK0MYRNAOUHTWA4OLV","","null","<img src=""img/food2.png"" style=""width:200px; border:14px solid green;"">","null","","","","","","","","","",""
"","image-keyboard-response","44","31242","0.0-44.0","3BXQMRHWK0KOXR0YLR50CWKVLOCMU0","AZ8JL3QNIPY4U","3THR0FZ95PF7SK0MYRNAOUHTWA4OLV","","529.5999999940395","img/food1.png","74","530.2999999970198","1","1","3","1","1,0.7,0,1,0.7,0,0.7,0,1","0,1,0.7,0,1,0.7,1,0.7,0","3","",""
"","html-keyboard-response","45","31543","0.0-45.0","3BXQMRHWK0KOXR0YLR50CWKVLOCMU0","AZ8JL3QNIPY4U","3THR0FZ95PF7SK0MYRNAOUHTWA4OLV","","null","<img src=""img/food1.png"" style=""width:200px; border:14px solid green;"">","null","","","","","","","","","",""
"","image-keyboard-response","46","32314","0.0-46.0","3BXQMRHWK0KOXR0YLR50CWKVLOCMU0","AZ8JL3QNIPY4U","3THR0FZ95PF7SK0MYRNAOUHTWA4OLV","","769.7000000029802","img/food4.png","75","770.5","2","1","1","1","1,0.7,0,1,0.7,0,0.7,0,1","0,1,0.7,0,1,0.7,1,0.7,0","3","",""
"","html-keyboard-response","47","32616","0.0-47.0","3BXQMRHWK0KOXR0YLR50CWKVLOCMU0","AZ8JL3QNIPY4U","3THR0FZ95PF7SK0MYRNAOUHTWA4OLV","","null","<img src=""img/food4.png"" style=""width:200px; border:14px solid green;"">","null","","","","","","","","","",""
"","image-keyboard-response","48","32938","0.0-48.0","3BXQMRHWK0KOXR0YLR50CWKVLOCMU0","AZ8JL3QNIPY4U","3THR0FZ95PF7SK0MYRNAOUHTWA4OLV","","320.70000000298023","img/food4.png","75","321.29999999701977","2","1","1","1","1,0.7,0,1,0.7,0,0.7,0,1","0,1,0.7,0,1,0.7,1,0.7,0","3","",""
"","html-keyboard-response","49","33239","0.0-49.0","3BXQMRHWK0KOXR0YLR50CWKVLOCMU0","AZ8JL3QNIPY4U","3THR0FZ95PF7SK0MYRNAOUHTWA4OLV","","null","<img src=""img/food4.png"" style=""width:200px; border:14px solid green;"">","null","","","","","","","","","",""
"","image-keyboard-response","50","33506","0.0-50.0","3BXQMRHWK0KOXR0YLR50CWKVLOCMU0","AZ8JL3QNIPY4U","3THR0FZ95PF7SK0MYRNAOUHTWA4OLV","","266.09999999403954","img/food4.png","75","266.79999999701977","2","1","1","1","1,0.7,0,1,0.7,0,0.7,0,1","0,1,0.7,0,1,0.7,1,0.7,0","3","",""
"","html-keyboard-response","51","33808","0.0-51.0","3BXQMRHWK0KOXR0YLR50CWKVLOCMU0","AZ8JL3QNIPY4U","3THR0FZ95PF7SK0MYRNAOUHTWA4OLV","","null","<img src=""img/food4.png"" style=""width:200px; border:14px solid green;"">","null","","","","","","","","","",""
"","image-keyboard-response","52","34346","0.0-52.0","3BXQMRHWK0KOXR0YLR50CWKVLOCMU0","AZ8JL3QNIPY4U","3THR0FZ95PF7SK0MYRNAOUHTWA4OLV","","537.2999999970198","img/food2.png","76","537.8999999985099","3","1","2","1","1,0.7,0,1,0.7,0,0.7,0,1","0,1,0.7,0,1,0.7,1,0.7,0","3","",""
"","html-keyboard-response","53","34648","0.0-53.0","3BXQMRHWK0KOXR0YLR50CWKVLOCMU0","AZ8JL3QNIPY4U","3THR0FZ95PF7SK0MYRNAOUHTWA4OLV","","null","<img src=""img/food2.png"" style=""width:200px; border:14px solid green;"">","null","","","","","","","","","",""
"","image-keyboard-response","54","34954","0.0-54.0","3BXQMRHWK0KOXR0YLR50CWKVLOCMU0","AZ8JL3QNIPY4U","3THR0FZ95PF7SK0MYRNAOUHTWA4OLV","","305.3999999985099","img/food2.png","76","306.19999999552965","3","0","2","1","1,0.7,0,1,0.7,0,0.7,0,1","0,1,0.7,0,1,0.7,1,0.7,0","3","",""
"","html-keyboard-response","55","35256","0.0-55.0","3BXQMRHWK0KOXR0YLR50CWKVLOCMU0","AZ8JL3QNIPY4U","3THR0FZ95PF7SK0MYRNAOUHTWA4OLV","","null","<img src=""img/food2.png"" style=""width:200px;border:14px solid red;"">","null","","","","","","","","","",""
"","image-keyboard-response","56","35602","0.0-56.0","3BXQMRHWK0KOXR0YLR50CWKVLOCMU0","AZ8JL3QNIPY4U","3THR0FZ95PF7SK0MYRNAOUHTWA4OLV","","345.20000000298023","img/food2.png","76","345.79999999701977","3","1","2","1","1,0.7,0,1,0.7,0,0.7,0,1","0,1,0.7,0,1,0.7,1,0.7,0","3","",""
"","html-keyboard-response","57","35903","0.0-57.0","3BXQMRHWK0KOXR0YLR50CWKVLOCMU0","AZ8JL3QNIPY4U","3THR0FZ95PF7SK0MYRNAOUHTWA4OLV","","null","<img src=""img/food2.png"" style=""width:200px; border:14px solid green;"">","null","","","","","","","","","",""
"","image-keyboard-response","58","36602","0.0-58.0","3BXQMRHWK0KOXR0YLR50CWKVLOCMU0","AZ8JL3QNIPY4U","3THR0FZ95PF7SK0MYRNAOUHTWA4OLV","","697.6000000014901","img/food4.png","75","698.2999999970198","2","1","1","1","1,0.7,0,1,0.7,0,0.7,0,1","0,1,0.7,0,1,0.7,1,0.7,0","3","",""
"","html-keyboard-response","59","36903","0.0-59.0","3BXQMRHWK0KOXR0YLR50CWKVLOCMU0","AZ8JL3QNIPY4U","3THR0FZ95PF7SK0MYRNAOUHTWA4OLV","","null","<img src=""img/food4.png"" style=""width:200px; border:14px solid green;"">","null","","","","","","","","","",""
"","image-keyboard-response","60","37370","0.0-60.0","3BXQMRHWK0KOXR0YLR50CWKVLOCMU0","AZ8JL3QNIPY4U","3THR0FZ95PF7SK0MYRNAOUHTWA4OLV","","465.5","img/food1.png","74","466.19999999552965","1","1","3","1","1,0.7,0,1,0.7,0,0.7,0,1","0,1,0.7,0,1,0.7,1,0.7,0","3","",""
"","html-keyboard-response","61","37671","0.0-61.0","3BXQMRHWK0KOXR0YLR50CWKVLOCMU0","AZ8JL3QNIPY4U","3THR0FZ95PF7SK0MYRNAOUHTWA4OLV","","null","<img src=""img/food1.png"" style=""width:200px; border:14px solid green;"">","null","","","","","","","","","",""
"","image-keyboard-response","62","38282","0.0-62.0","3BXQMRHWK0KOXR0YLR50CWKVLOCMU0","AZ8JL3QNIPY4U","3THR0FZ95PF7SK0MYRNAOUHTWA4OLV","","609.8000000044703","img/food2.png","76","610.6000000014901","3","1","2","1","1,0.7,0,1,0.7,0,0.7,0,1","0,1,0.7,0,1,0.7,1,0.7,0","3","",""
"","html-keyboard-response","63","38584","0.0-63.0","3BXQMRHWK0KOXR0YLR50CWKVLOCMU0","AZ8JL3QNIPY4U","3THR0FZ95PF7SK0MYRNAOUHTWA4OLV","","null","<img src=""img/food2.png"" style=""width:200px; border:14px solid green;"">","null","","","","","","","","","",""
"","image-keyboard-response","64","39146","0.0-64.0","3BXQMRHWK0KOXR0YLR50CWKVLOCMU0","AZ8JL3QNIPY4U","3THR0FZ95PF7SK0MYRNAOUHTWA4OLV","","561.3999999985099","img/food1.png","75","562.1000000014901","2","0","3","1","1,0.7,0,1,0.7,0,0.7,0,1","0,1,0.7,0,1,0.7,1,0.7,0","3","",""
"","html-keyboard-response","65","39448","0.0-65.0","3BXQMRHWK0KOXR0YLR50CWKVLOCMU0","AZ8JL3QNIPY4U","3THR0FZ95PF7SK0MYRNAOUHTWA4OLV","","null","<img src=""img/food1.png"" style=""width:200px;border:14px solid red;"">","null","","","","","","","","","",""
"","image-keyboard-response","66","39786","0.0-66.0","3BXQMRHWK0KOXR0YLR50CWKVLOCMU0","AZ8JL3QNIPY4U","3THR0FZ95PF7SK0MYRNAOUHTWA4OLV","","337.1000000014901","img/food1.png","74","337.90000000596046","1","1","3","1","1,0.7,0,1,0.7,0,0.7,0,1","0,1,0.7,0,1,0.7,1,0.7,0","3","",""
"","html-keyboard-response","67","40087","0.0-67.0","3BXQMRHWK0KOXR0YLR50CWKVLOCMU0","AZ8JL3QNIPY4U","3THR0FZ95PF7SK0MYRNAOUHTWA4OLV","","null","<img src=""img/food1.png"" style=""width:200px; border:14px solid green;"">","null","","","","","","","","","",""
"","image-keyboard-response","68","40402","0.0-68.0","3BXQMRHWK0KOXR0YLR50CWKVLOCMU0","AZ8JL3QNIPY4U","3THR0FZ95PF7SK0MYRNAOUHTWA4OLV","","313.8999999985099","img/food1.png","74","314.6000000014901","1","1","3","1","1,0.7,0,1,0.7,0,0.7,0,1","0,1,0.7,0,1,0.7,1,0.7,0","3","",""
"","html-keyboard-response","69","40704","0.0-69.0","3BXQMRHWK0KOXR0YLR50CWKVLOCMU0","AZ8JL3QNIPY4U","3THR0FZ95PF7SK0MYRNAOUHTWA4OLV","","null","<img src=""img/food1.png"" style=""width:200px; border:14px solid green;"">","null","","","","","","","","","",""
"","image-keyboard-response","70","41402","0.0-70.0","3BXQMRHWK0KOXR0YLR50CWKVLOCMU0","AZ8JL3QNIPY4U","3THR0FZ95PF7SK0MYRNAOUHTWA4OLV","","696.2000000029802","img/food4.png","75","696.8999999985099","2","1","1","1","1,0.7,0,1,0.7,0,0.7,0,1","0,1,0.7,0,1,0.7,1,0.7,0","3","",""
"","html-keyboard-response","71","41706","0.0-71.0","3BXQMRHWK0KOXR0YLR50CWKVLOCMU0","AZ8JL3QNIPY4U","3THR0FZ95PF7SK0MYRNAOUHTWA4OLV","","null","<img src=""img/food4.png"" style=""width:200px; border:14px solid green;"">","null","","","","","","","","","",""
"","image-keyboard-response","72","42010","0.0-72.0","3BXQMRHWK0KOXR0YLR50CWKVLOCMU0","AZ8JL3QNIPY4U","3THR0FZ95PF7SK0MYRNAOUHTWA4OLV","","302.29999999701977","img/food4.png","75","303.1000000014901","2","1","1","1","1,0.7,0,1,0.7,0,0.7,0,1","0,1,0.7,0,1,0.7,1,0.7,0","3","",""
"","html-keyboard-response","73","42311","0.0-73.0","3BXQMRHWK0KOXR0YLR50CWKVLOCMU0","AZ8JL3QNIPY4U","3THR0FZ95PF7SK0MYRNAOUHTWA4OLV","","null","<img src=""img/food4.png"" style=""width:200px; border:14px solid green;"">","null","","","","","","","","","",""
"","image-keyboard-response","74","42945","0.0-74.0","3BXQMRHWK0KOXR0YLR50CWKVLOCMU0","AZ8JL3QNIPY4U","3THR0FZ95PF7SK0MYRNAOUHTWA4OLV","","633.2999999970198","img/food1.png","74","634","1","1","3","1","1,0.7,0,1,0.7,0,0.7,0,1","0,1,0.7,0,1,0.7,1,0.7,0","3","",""
"","html-keyboard-response","75","43247","0.0-75.0","3BXQMRHWK0KOXR0YLR50CWKVLOCMU0","AZ8JL3QNIPY4U","3THR0FZ95PF7SK0MYRNAOUHTWA4OLV","","null","<img src=""img/food1.png"" style=""width:200px; border:14px solid green;"">","null","","","","","","","","","",""
"","image-keyboard-response","76","43801","0.0-76.0","3BXQMRHWK0KOXR0YLR50CWKVLOCMU0","AZ8JL3QNIPY4U","3THR0FZ95PF7SK0MYRNAOUHTWA4OLV","","554","img/food4.png","75","554.8000000044703","2","1","1","1","1,0.7,0,1,0.7,0,0.7,0,1","0,1,0.7,0,1,0.7,1,0.7,0","3","",""
"","html-keyboard-response","77","44102","0.0-77.0","3BXQMRHWK0KOXR0YLR50CWKVLOCMU0","AZ8JL3QNIPY4U","3THR0FZ95PF7SK0MYRNAOUHTWA4OLV","","null","<img src=""img/food4.png"" style=""width:200px; border:14px solid green;"">","null","","","","","","","","","",""
"","image-keyboard-response","78","44641","0.0-78.0","3BXQMRHWK0KOXR0YLR50CWKVLOCMU0","AZ8JL3QNIPY4U","3THR0FZ95PF7SK0MYRNAOUHTWA4OLV","","538.1999999955297","img/food2.png","76","538.7999999970198","3","1","2","1","1,0.7,0,1,0.7,0,0.7,0,1","0,1,0.7,0,1,0.7,1,0.7,0","3","",""
"","html-keyboard-response","79","44943","0.0-79.0","3BXQMRHWK0KOXR0YLR50CWKVLOCMU0","AZ8JL3QNIPY4U","3THR0FZ95PF7SK0MYRNAOUHTWA4OLV","","null","<img src=""img/food2.png"" style=""width:200px; border:14px solid green;"">","null","","","","","","","","","",""
"","image-keyboard-response","80","45529","0.0-80.0","3BXQMRHWK0KOXR0YLR50CWKVLOCMU0","AZ8JL3QNIPY4U","3THR0FZ95PF7SK0MYRNAOUHTWA4OLV","","585.8999999985099","img/food1.png","74","586.7000000029802","1","1","3","1","1,0.7,0,1,0.7,0,0.7,0,1","0,1,0.7,0,1,0.7,1,0.7,0","3","",""
"","html-keyboard-response","81","45831","0.0-81.0","3BXQMRHWK0KOXR0YLR50CWKVLOCMU0","AZ8JL3QNIPY4U","3THR0FZ95PF7SK0MYRNAOUHTWA4OLV","","null","<img src=""img/food1.png"" style=""width:200px; border:14px solid green;"">","null","","","","","","","","","",""
"","image-keyboard-response","82","46170","0.0-82.0","3BXQMRHWK0KOXR0YLR50CWKVLOCMU0","AZ8JL3QNIPY4U","3THR0FZ95PF7SK0MYRNAOUHTWA4OLV","","337.70000000298023","img/food1.png","74","338.3999999985099","1","1","3","1","1,0.7,0,1,0.7,0,0.7,0,1","0,1,0.7,0,1,0.7,1,0.7,0","3","",""
"","html-keyboard-response","83","46471","0.0-83.0","3BXQMRHWK0KOXR0YLR50CWKVLOCMU0","AZ8JL3QNIPY4U","3THR0FZ95PF7SK0MYRNAOUHTWA4OLV","","null","<img src=""img/food1.png"" style=""width:200px; border:14px solid green;"">","null","","","","","","","","","",""
"","image-keyboard-response","84","47129","0.0-84.0","3BXQMRHWK0KOXR0YLR50CWKVLOCMU0","AZ8JL3QNIPY4U","3THR0FZ95PF7SK0MYRNAOUHTWA4OLV","","657.1999999955297","img/food2.png","76","658","3","1","2","1","1,0.7,0,1,0.7,0,0.7,0,1","0,1,0.7,0,1,0.7,1,0.7,0","3","",""
"","html-keyboard-response","85","47431","0.0-85.0","3BXQMRHWK0KOXR0YLR50CWKVLOCMU0","AZ8JL3QNIPY4U","3THR0FZ95PF7SK0MYRNAOUHTWA4OLV","","null","<img src=""img/food2.png"" style=""width:200px; border:14px solid green;"">","null","","","","","","","","","",""
"","image-keyboard-response","86","47761","0.0-86.0","3BXQMRHWK0KOXR0YLR50CWKVLOCMU0","AZ8JL3QNIPY4U","3THR0FZ95PF7SK0MYRNAOUHTWA4OLV","","329.20000000298023","img/food2.png","76","329.8999999985099","3","1","2","1","1,0.7,0,1,0.7,0,0.7,0,1","0,1,0.7,0,1,0.7,1,0.7,0","3","",""
"","html-keyboard-response","87","48063","0.0-87.0","3BXQMRHWK0KOXR0YLR50CWKVLOCMU0","AZ8JL3QNIPY4U","3THR0FZ95PF7SK0MYRNAOUHTWA4OLV","","null","<img src=""img/food2.png"" style=""width:200px; border:14px solid green;"">","null","","","","","","","","","",""
"","image-keyboard-response","88","48850","0.0-88.0","3BXQMRHWK0KOXR0YLR50CWKVLOCMU0","AZ8JL3QNIPY4U","3THR0FZ95PF7SK0MYRNAOUHTWA4OLV","","786.3000000044703","img/food1.png","74","787.1000000014901","1","1","3","1","1,0.7,0,1,0.7,0,0.7,0,1","0,1,0.7,0,1,0.7,1,0.7,0","3","",""
"","html-keyboard-response","89","49151","0.0-89.0","3BXQMRHWK0KOXR0YLR50CWKVLOCMU0","AZ8JL3QNIPY4U","3THR0FZ95PF7SK0MYRNAOUHTWA4OLV","","null","<img src=""img/food1.png"" style=""width:200px; border:14px solid green;"">","null","","","","","","","","","",""
"","image-keyboard-response","90","49761","0.0-90.0","3BXQMRHWK0KOXR0YLR50CWKVLOCMU0","AZ8JL3QNIPY4U","3THR0FZ95PF7SK0MYRNAOUHTWA4OLV","","609.5","img/food4.png","75","610.1000000014901","2","1","1","1","1,0.7,0,1,0.7,0,0.7,0,1","0,1,0.7,0,1,0.7,1,0.7,0","3","",""
"","html-keyboard-response","91","50063","0.0-91.0","3BXQMRHWK0KOXR0YLR50CWKVLOCMU0","AZ8JL3QNIPY4U","3THR0FZ95PF7SK0MYRNAOUHTWA4OLV","","null","<img src=""img/food4.png"" style=""width:200px; border:14px solid green;"">","null","","","","","","","","","",""
"","image-keyboard-response","92","50713","0.0-92.0","3BXQMRHWK0KOXR0YLR50CWKVLOCMU0","AZ8JL3QNIPY4U","3THR0FZ95PF7SK0MYRNAOUHTWA4OLV","","649.8000000044703","img/food1.png","74","650.6000000014901","1","1","3","1","1,0.7,0,1,0.7,0,0.7,0,1","0,1,0.7,0,1,0.7,1,0.7,0","3","",""
"","html-keyboard-response","93","51015","0.0-93.0","3BXQMRHWK0KOXR0YLR50CWKVLOCMU0","AZ8JL3QNIPY4U","3THR0FZ95PF7SK0MYRNAOUHTWA4OLV","","null","<img src=""img/food1.png"" style=""width:200px; border:14px solid green;"">","null","","","","","","","","","",""
"","image-keyboard-response","94","51601","0.0-94.0","3BXQMRHWK0KOXR0YLR50CWKVLOCMU0","AZ8JL3QNIPY4U","3THR0FZ95PF7SK0MYRNAOUHTWA4OLV","","585.8999999985099","img/food2.png","76","586.5","3","1","2","1","1,0.7,0,1,0.7,0,0.7,0,1","0,1,0.7,0,1,0.7,1,0.7,0","3","",""
"","html-keyboard-response","95","51902","0.0-95.0","3BXQMRHWK0KOXR0YLR50CWKVLOCMU0","AZ8JL3QNIPY4U","3THR0FZ95PF7SK0MYRNAOUHTWA4OLV","","null","<img src=""img/food2.png"" style=""width:200px; border:14px solid green;"">","null","","","","","","","","","",""
"","image-keyboard-response","96","52457","0.0-96.0","3BXQMRHWK0KOXR0YLR50CWKVLOCMU0","AZ8JL3QNIPY4U","3THR0FZ95PF7SK0MYRNAOUHTWA4OLV","","554","img/food1.png","74","554.7999999970198","1","1","3","1","1,0.7,0,1,0.7,0,0.7,0,1","0,1,0.7,0,1,0.7,1,0.7,0","3","",""
"","html-keyboard-response","97","52767","0.0-97.0","3BXQMRHWK0KOXR0YLR50CWKVLOCMU0","AZ8JL3QNIPY4U","3THR0FZ95PF7SK0MYRNAOUHTWA4OLV","","null","<img src=""img/food1.png"" style=""width:200px; border:14px solid green;"">","null","","","","","","","","","",""
"","image-keyboard-response","98","53353","0.0-98.0","3BXQMRHWK0KOXR0YLR50CWKVLOCMU0","AZ8JL3QNIPY4U","3THR0FZ95PF7SK0MYRNAOUHTWA4OLV","","585","img/food2.png","76","585.7999999970198","3","0","2","1","1,0.7,0,1,0.7,0,0.7,0,1","0,1,0.7,0,1,0.7,1,0.7,0","3","",""
"","html-keyboard-response","99","53655","0.0-99.0","3BXQMRHWK0KOXR0YLR50CWKVLOCMU0","AZ8JL3QNIPY4U","3THR0FZ95PF7SK0MYRNAOUHTWA4OLV","","null","<img src=""img/food2.png"" style=""width:200px;border:14px solid red;"">","null","","","","","","","","","",""
"","image-keyboard-response","100","53945","0.0-100.0","3BXQMRHWK0KOXR0YLR50CWKVLOCMU0","AZ8JL3QNIPY4U","3THR0FZ95PF7SK0MYRNAOUHTWA4OLV","","288.8999999985099","img/food2.png","76","289.5","3","1","2","1","1,0.7,0,1,0.7,0,0.7,0,1","0,1,0.7,0,1,0.7,1,0.7,0","3","",""
"","html-keyboard-response","101","54246","0.0-101.0","3BXQMRHWK0KOXR0YLR50CWKVLOCMU0","AZ8JL3QNIPY4U","3THR0FZ95PF7SK0MYRNAOUHTWA4OLV","","null","<img src=""img/food2.png"" style=""width:200px; border:14px solid green;"">","null","","","","","","","","","",""
"","image-keyboard-response","102","54769","0.0-102.0","3BXQMRHWK0KOXR0YLR50CWKVLOCMU0","AZ8JL3QNIPY4U","3THR0FZ95PF7SK0MYRNAOUHTWA4OLV","","521.8999999985099","img/food1.png","74","522.7999999970198","1","1","3","1","1,0.7,0,1,0.7,0,0.7,0,1","0,1,0.7,0,1,0.7,1,0.7,0","3","",""
"","html-keyboard-response","103","55071","0.0-103.0","3BXQMRHWK0KOXR0YLR50CWKVLOCMU0","AZ8JL3QNIPY4U","3THR0FZ95PF7SK0MYRNAOUHTWA4OLV","","null","<img src=""img/food1.png"" style=""width:200px; border:14px solid green;"">","null","","","","","","","","","",""
"","image-keyboard-response","104","55625","0.0-104.0","3BXQMRHWK0KOXR0YLR50CWKVLOCMU0","AZ8JL3QNIPY4U","3THR0FZ95PF7SK0MYRNAOUHTWA4OLV","","553.6000000014901","img/food2.png","76","554.2000000029802","3","1","2","1","1,0.7,0,1,0.7,0,0.7,0,1","0,1,0.7,0,1,0.7,1,0.7,0","3","",""
"","html-keyboard-response","105","55926","0.0-105.0","3BXQMRHWK0KOXR0YLR50CWKVLOCMU0","AZ8JL3QNIPY4U","3THR0FZ95PF7SK0MYRNAOUHTWA4OLV","","null","<img src=""img/food2.png"" style=""width:200px; border:14px solid green;"">","null","","","","","","","","","",""
"","image-keyboard-response","106","56417","0.0-106.0","3BXQMRHWK0KOXR0YLR50CWKVLOCMU0","AZ8JL3QNIPY4U","3THR0FZ95PF7SK0MYRNAOUHTWA4OLV","","490","img/food1.png","74","490.6000000014901","1","1","3","1","1,0.7,0,1,0.7,0,0.7,0,1","0,1,0.7,0,1,0.7,1,0.7,0","3","",""
"","html-keyboard-response","107","56718","0.0-107.0","3BXQMRHWK0KOXR0YLR50CWKVLOCMU0","AZ8JL3QNIPY4U","3THR0FZ95PF7SK0MYRNAOUHTWA4OLV","","null","<img src=""img/food1.png"" style=""width:200px; border:14px solid green;"">","null","","","","","","","","","",""
"","image-keyboard-response","108","57129","0.0-108.0","3BXQMRHWK0KOXR0YLR50CWKVLOCMU0","AZ8JL3QNIPY4U","3THR0FZ95PF7SK0MYRNAOUHTWA4OLV","","409.8999999985099","img/food2.png","76","410.70000000298023","3","1","2","1","1,0.7,0,1,0.7,0,0.7,0,1","0,1,0.7,0,1,0.7,1,0.7,0","3","",""
"","html-keyboard-response","109","57430","0.0-109.0","3BXQMRHWK0KOXR0YLR50CWKVLOCMU0","AZ8JL3QNIPY4U","3THR0FZ95PF7SK0MYRNAOUHTWA4OLV","","null","<img src=""img/food2.png"" style=""width:200px; border:14px solid green;"">","null","","","","","","","","","",""
"","image-keyboard-response","110","58041","0.0-110.0","3BXQMRHWK0KOXR0YLR50CWKVLOCMU0","AZ8JL3QNIPY4U","3THR0FZ95PF7SK0MYRNAOUHTWA4OLV","","609.7999999970198","img/food1.png","74","610.5","1","1","3","1","1,0.7,0,1,0.7,0,0.7,0,1","0,1,0.7,0,1,0.7,1,0.7,0","3","",""
"","html-keyboard-response","111","58343","0.0-111.0","3BXQMRHWK0KOXR0YLR50CWKVLOCMU0","AZ8JL3QNIPY4U","3THR0FZ95PF7SK0MYRNAOUHTWA4OLV","","null","<img src=""img/food1.png"" style=""width:200px; border:14px solid green;"">","null","","","","","","","","","",""
"","image-keyboard-response","112","58681","0.0-112.0","3BXQMRHWK0KOXR0YLR50CWKVLOCMU0","AZ8JL3QNIPY4U","3THR0FZ95PF7SK0MYRNAOUHTWA4OLV","","338","img/food1.png","74","338.70000000298023","1","1","3","1","1,0.7,0,1,0.7,0,0.7,0,1","0,1,0.7,0,1,0.7,1,0.7,0","3","",""
"","html-keyboard-response","113","58983","0.0-113.0","3BXQMRHWK0KOXR0YLR50CWKVLOCMU0","AZ8JL3QNIPY4U","3THR0FZ95PF7SK0MYRNAOUHTWA4OLV","","null","<img src=""img/food1.png"" style=""width:200px; border:14px solid green;"">","null","","","","","","","","","",""
"","image-keyboard-response","114","59593","0.0-114.0","3BXQMRHWK0KOXR0YLR50CWKVLOCMU0","AZ8JL3QNIPY4U","3THR0FZ95PF7SK0MYRNAOUHTWA4OLV","","610.2000000029802","img/food4.png","75","610.8000000044703","2","1","1","1","1,0.7,0,1,0.7,0,0.7,0,1","0,1,0.7,0,1,0.7,1,0.7,0","3","",""
"","html-keyboard-response","115","59895","0.0-115.0","3BXQMRHWK0KOXR0YLR50CWKVLOCMU0","AZ8JL3QNIPY4U","3THR0FZ95PF7SK0MYRNAOUHTWA4OLV","","null","<img src=""img/food4.png"" style=""width:200px; border:14px solid green;"">","null","","","","","","","","","",""
"","image-keyboard-response","116","60481","0.0-116.0","3BXQMRHWK0KOXR0YLR50CWKVLOCMU0","AZ8JL3QNIPY4U","3THR0FZ95PF7SK0MYRNAOUHTWA4OLV","","586","img/food1.png","74","586.6000000014901","1","1","3","1","1,0.7,0,1,0.7,0,0.7,0,1","0,1,0.7,0,1,0.7,1,0.7,0","3","",""
"","html-keyboard-response","117","60783","0.0-117.0","3BXQMRHWK0KOXR0YLR50CWKVLOCMU0","AZ8JL3QNIPY4U","3THR0FZ95PF7SK0MYRNAOUHTWA4OLV","","null","<img src=""img/food1.png"" style=""width:200px; border:14px solid green;"">","null","","","","","","","","","",""
"","image-keyboard-response","118","61385","0.0-118.0","3BXQMRHWK0KOXR0YLR50CWKVLOCMU0","AZ8JL3QNIPY4U","3THR0FZ95PF7SK0MYRNAOUHTWA4OLV","","601.1999999955297","img/food2.png","76","602.1000000014901","3","1","2","1","1,0.7,0,1,0.7,0,0.7,0,1","0,1,0.7,0,1,0.7,1,0.7,0","3","",""
"","html-keyboard-response","119","61687","0.0-119.0","3BXQMRHWK0KOXR0YLR50CWKVLOCMU0","AZ8JL3QNIPY4U","3THR0FZ95PF7SK0MYRNAOUHTWA4OLV","","null","<img src=""img/food2.png"" style=""width:200px; border:14px solid green;"">","null","","","","","","","","","",""
"","image-keyboard-response","120","61993","0.0-120.0","3BXQMRHWK0KOXR0YLR50CWKVLOCMU0","AZ8JL3QNIPY4U","3THR0FZ95PF7SK0MYRNAOUHTWA4OLV","","305.5","img/food2.png","76","306.20000000298023","3","1","2","1","1,0.7,0,1,0.7,0,0.7,0,1","0,1,0.7,0,1,0.7,1,0.7,0","3","",""
"","html-keyboard-response","121","62295","0.0-121.0","3BXQMRHWK0KOXR0YLR50CWKVLOCMU0","AZ8JL3QNIPY4U","3THR0FZ95PF7SK0MYRNAOUHTWA4OLV","","null","<img src=""img/food2.png"" style=""width:200px; border:14px solid green;"">","null","","","","","","","","","",""
"","image-keyboard-response","122","62961","0.0-122.0","3BXQMRHWK0KOXR0YLR50CWKVLOCMU0","AZ8JL3QNIPY4U","3THR0FZ95PF7SK0MYRNAOUHTWA4OLV","","665.5","img/food4.png","75","666.3000000044703","2","1","1","1","1,0.7,0,1,0.7,0,0.7,0,1","0,1,0.7,0,1,0.7,1,0.7,0","3","",""
"","html-keyboard-response","123","63263","0.0-123.0","3BXQMRHWK0KOXR0YLR50CWKVLOCMU0","AZ8JL3QNIPY4U","3THR0FZ95PF7SK0MYRNAOUHTWA4OLV","","null","<img src=""img/food4.png"" style=""width:200px; border:14px solid green;"">","null","","","","","","","","","",""
"","image-keyboard-response","124","63769","0.0-124.0","3BXQMRHWK0KOXR0YLR50CWKVLOCMU0","AZ8JL3QNIPY4U","3THR0FZ95PF7SK0MYRNAOUHTWA4OLV","","505.5","img/food1.png","74","506.30000000447035","1","1","3","1","1,0.7,0,1,0.7,0,0.7,0,1","0,1,0.7,0,1,0.7,1,0.7,0","3","",""
"","html-keyboard-response","125","64071","0.0-125.0","3BXQMRHWK0KOXR0YLR50CWKVLOCMU0","AZ8JL3QNIPY4U","3THR0FZ95PF7SK0MYRNAOUHTWA4OLV","","null","<img src=""img/food1.png"" style=""width:200px; border:14px solid green;"">","null","","","","","","","","","",""
"","image-keyboard-response","126","64657","0.0-126.0","3BXQMRHWK0KOXR0YLR50CWKVLOCMU0","AZ8JL3QNIPY4U","3THR0FZ95PF7SK0MYRNAOUHTWA4OLV","","585.5","img/food4.png","75","586.3000000044703","2","1","1","1","1,0.7,0,1,0.7,0,0.7,0,1","0,1,0.7,0,1,0.7,1,0.7,0","3","",""
"","html-keyboard-response","127","64959","0.0-127.0","3BXQMRHWK0KOXR0YLR50CWKVLOCMU0","AZ8JL3QNIPY4U","3THR0FZ95PF7SK0MYRNAOUHTWA4OLV","","null","<img src=""img/food4.png"" style=""width:200px; border:14px solid green;"">","null","","","","","","","","","",""
"","image-keyboard-response","128","65481","0.0-128.0","3BXQMRHWK0KOXR0YLR50CWKVLOCMU0","AZ8JL3QNIPY4U","3THR0FZ95PF7SK0MYRNAOUHTWA4OLV","","521.5","img/food2.png","76","522.3999999985099","3","0","2","1","1,0.7,0,1,0.7,0,0.7,0,1","0,1,0.7,0,1,0.7,1,0.7,0","3","",""
"","html-keyboard-response","129","65784","0.0-129.0","3BXQMRHWK0KOXR0YLR50CWKVLOCMU0","AZ8JL3QNIPY4U","3THR0FZ95PF7SK0MYRNAOUHTWA4OLV","","null","<img src=""img/food2.png"" style=""width:200px;border:14px solid red;"">","null","","","","","","","","","",""
"","image-keyboard-response","130","66385","0.0-130.0","3BXQMRHWK0KOXR0YLR50CWKVLOCMU0","AZ8JL3QNIPY4U","3THR0FZ95PF7SK0MYRNAOUHTWA4OLV","","600.8999999985099","img/food4.png","75","601.6000000014901","2","1","1","1","1,0.7,0,1,0.7,0,0.7,0,1","0,1,0.7,0,1,0.7,1,0.7,0","3","",""
"","html-keyboard-response","131","66687","0.0-131.0","3BXQMRHWK0KOXR0YLR50CWKVLOCMU0","AZ8JL3QNIPY4U","3THR0FZ95PF7SK0MYRNAOUHTWA4OLV","","null","<img src=""img/food4.png"" style=""width:200px; border:14px solid green;"">","null","","","","","","","","","",""
"","image-keyboard-response","132","67297","0.0-132.0","3BXQMRHWK0KOXR0YLR50CWKVLOCMU0","AZ8JL3QNIPY4U","3THR0FZ95PF7SK0MYRNAOUHTWA4OLV","","609.1000000014901","img/food1.png","74","609.8000000044703","1","1","3","1","1,0.7,0,1,0.7,0,0.7,0,1","0,1,0.7,0,1,0.7,1,0.7,0","3","",""
"","html-keyboard-response","133","67599","0.0-133.0","3BXQMRHWK0KOXR0YLR50CWKVLOCMU0","AZ8JL3QNIPY4U","3THR0FZ95PF7SK0MYRNAOUHTWA4OLV","","null","<img src=""img/food1.png"" style=""width:200px; border:14px solid green;"">","null","","","","","","","","","",""
"","image-keyboard-response","134","68129","0.0-134.0","3BXQMRHWK0KOXR0YLR50CWKVLOCMU0","AZ8JL3QNIPY4U","3THR0FZ95PF7SK0MYRNAOUHTWA4OLV","","529.8999999985099","img/food2.png","76","530.6000000014901","3","1","2","1","1,0.7,0,1,0.7,0,0.7,0,1","0,1,0.7,0,1,0.7,1,0.7,0","3","",""
"","html-keyboard-response","135","68432","0.0-135.0","3BXQMRHWK0KOXR0YLR50CWKVLOCMU0","AZ8JL3QNIPY4U","3THR0FZ95PF7SK0MYRNAOUHTWA4OLV","","null","<img src=""img/food2.png"" style=""width:200px; border:14px solid green;"">","null","","","","","","","","","",""
"","image-keyboard-response","136","68953","0.0-136.0","3BXQMRHWK0KOXR0YLR50CWKVLOCMU0","AZ8JL3QNIPY4U","3THR0FZ95PF7SK0MYRNAOUHTWA4OLV","","520.0999999940395","img/food4.png","74","520.7999999970198","1","0","1","1","1,0.7,0,1,0.7,0,0.7,0,1","0,1,0.7,0,1,0.7,1,0.7,0","3","",""
"","html-keyboard-response","137","69255","0.0-137.0","3BXQMRHWK0KOXR0YLR50CWKVLOCMU0","AZ8JL3QNIPY4U","3THR0FZ95PF7SK0MYRNAOUHTWA4OLV","","null","<img src=""img/food4.png"" style=""width:200px;border:14px solid red;"">","null","","","","","","","","","",""
"","image-keyboard-response","138","69601","0.0-138.0","3BXQMRHWK0KOXR0YLR50CWKVLOCMU0","AZ8JL3QNIPY4U","3THR0FZ95PF7SK0MYRNAOUHTWA4OLV","","345.59999999403954","img/food4.png","75","346.29999999701977","2","1","1","1","1,0.7,0,1,0.7,0,0.7,0,1","0,1,0.7,0,1,0.7,1,0.7,0","3","",""
"","html-keyboard-response","139","69903","0.0-139.0","3BXQMRHWK0KOXR0YLR50CWKVLOCMU0","AZ8JL3QNIPY4U","3THR0FZ95PF7SK0MYRNAOUHTWA4OLV","","null","<img src=""img/food4.png"" style=""width:200px; border:14px solid green;"">","null","","","","","","","","","",""
"","image-keyboard-response","140","70513","0.0-140.0","3BXQMRHWK0KOXR0YLR50CWKVLOCMU0","AZ8JL3QNIPY4U","3THR0FZ95PF7SK0MYRNAOUHTWA4OLV","","609.8000000044703","img/food2.png","76","610.3999999985099","3","1","2","1","1,0.7,0,1,0.7,0,0.7,0,1","0,1,0.7,0,1,0.7,1,0.7,0","3","",""
"","html-keyboard-response","141","70815","0.0-141.0","3BXQMRHWK0KOXR0YLR50CWKVLOCMU0","AZ8JL3QNIPY4U","3THR0FZ95PF7SK0MYRNAOUHTWA4OLV","","null","<img src=""img/food2.png"" style=""width:200px; border:14px solid green;"">","null","","","","","","","","","",""
"","image-keyboard-response","142","71338","0.0-142.0","3BXQMRHWK0KOXR0YLR50CWKVLOCMU0","AZ8JL3QNIPY4U","3THR0FZ95PF7SK0MYRNAOUHTWA4OLV","","522.3999999985099","img/food4.png","75","523","2","1","1","1","1,0.7,0,1,0.7,0,0.7,0,1","0,1,0.7,0,1,0.7,1,0.7,0","3","",""
"","html-keyboard-response","143","71640","0.0-143.0","3BXQMRHWK0KOXR0YLR50CWKVLOCMU0","AZ8JL3QNIPY4U","3THR0FZ95PF7SK0MYRNAOUHTWA4OLV","","null","<img src=""img/food4.png"" style=""width:200px; border:14px solid green;"">","null","","","","","","","","","",""
"","image-keyboard-response","144","71985","0.0-144.0","3BXQMRHWK0KOXR0YLR50CWKVLOCMU0","AZ8JL3QNIPY4U","3THR0FZ95PF7SK0MYRNAOUHTWA4OLV","","344.6000000014901","img/food4.png","75","345.29999999701977","2","1","1","1","1,0.7,0,1,0.7,0,0.7,0,1","0,1,0.7,0,1,0.7,1,0.7,0","3","",""
"","html-keyboard-response","145","72287","0.0-145.0","3BXQMRHWK0KOXR0YLR50CWKVLOCMU0","AZ8JL3QNIPY4U","3THR0FZ95PF7SK0MYRNAOUHTWA4OLV","","null","<img src=""img/food4.png"" style=""width:200px; border:14px solid green;"">","null","","","","","","","","","",""
"","image-keyboard-response","146","72889","0.0-146.0","3BXQMRHWK0KOXR0YLR50CWKVLOCMU0","AZ8JL3QNIPY4U","3THR0FZ95PF7SK0MYRNAOUHTWA4OLV","","601.4000000059605","img/food2.png","76","602.1999999955297","3","1","2","1","1,0.7,0,1,0.7,0,0.7,0,1","0,1,0.7,0,1,0.7,1,0.7,0","3","",""
"","html-keyboard-response","147","73192","0.0-147.0","3BXQMRHWK0KOXR0YLR50CWKVLOCMU0","AZ8JL3QNIPY4U","3THR0FZ95PF7SK0MYRNAOUHTWA4OLV","","null","<img src=""img/food2.png"" style=""width:200px; border:14px solid green;"">","null","","","","","","","","","",""
"","image-keyboard-response","148","73737","0.0-148.0","3BXQMRHWK0KOXR0YLR50CWKVLOCMU0","AZ8JL3QNIPY4U","3THR0FZ95PF7SK0MYRNAOUHTWA4OLV","","545","img/food4.png","75","545.5","2","1","1","1","1,0.7,0,1,0.7,0,0.7,0,1","0,1,0.7,0,1,0.7,1,0.7,0","3","",""
"","html-keyboard-response","149","74039","0.0-149.0","3BXQMRHWK0KOXR0YLR50CWKVLOCMU0","AZ8JL3QNIPY4U","3THR0FZ95PF7SK0MYRNAOUHTWA4OLV","","null","<img src=""img/food4.png"" style=""width:200px; border:14px solid green;"">","null","","","","","","","","","",""
"","image-keyboard-response","150","74513","0.0-150.0","3BXQMRHWK0KOXR0YLR50CWKVLOCMU0","AZ8JL3QNIPY4U","3THR0FZ95PF7SK0MYRNAOUHTWA4OLV","","473.6000000014901","img/food2.png","76","474.19999999552965","3","1","2","1","1,0.7,0,1,0.7,0,0.7,0,1","0,1,0.7,0,1,0.7,1,0.7,0","3","",""
"","html-keyboard-response","151","74814","0.0-151.0","3BXQMRHWK0KOXR0YLR50CWKVLOCMU0","AZ8JL3QNIPY4U","3THR0FZ95PF7SK0MYRNAOUHTWA4OLV","","null","<img src=""img/food2.png"" style=""width:200px; border:14px solid green;"">","null","","","","","","","","","",""
"","image-keyboard-response","152","75265","0.0-152.0","3BXQMRHWK0KOXR0YLR50CWKVLOCMU0","AZ8JL3QNIPY4U","3THR0FZ95PF7SK0MYRNAOUHTWA4OLV","","449.80000000447035","img/food2.png","76","450.5","3","1","2","1","1,0.7,0,1,0.7,0,0.7,0,1","0,1,0.7,0,1,0.7,1,0.7,0","3","",""
"","html-keyboard-response","153","75566","0.0-153.0","3BXQMRHWK0KOXR0YLR50CWKVLOCMU0","AZ8JL3QNIPY4U","3THR0FZ95PF7SK0MYRNAOUHTWA4OLV","","null","<img src=""img/food2.png"" style=""width:200px; border:14px solid green;"">","null","","","","","","","","","",""
"","image-keyboard-response","154","76113","0.0-154.0","3BXQMRHWK0KOXR0YLR50CWKVLOCMU0","AZ8JL3QNIPY4U","3THR0FZ95PF7SK0MYRNAOUHTWA4OLV","","546","img/food4.png","75","546.5999999940395","2","1","1","1","1,0.7,0,1,0.7,0,0.7,0,1","0,1,0.7,0,1,0.7,1,0.7,0","3","",""
"","html-keyboard-response","155","76415","0.0-155.0","3BXQMRHWK0KOXR0YLR50CWKVLOCMU0","AZ8JL3QNIPY4U","3THR0FZ95PF7SK0MYRNAOUHTWA4OLV","","null","<img src=""img/food4.png"" style=""width:200px; border:14px solid green;"">","null","","","","","","","","","",""
"","image-keyboard-response","156","76969","0.0-156.0","3BXQMRHWK0KOXR0YLR50CWKVLOCMU0","AZ8JL3QNIPY4U","3THR0FZ95PF7SK0MYRNAOUHTWA4OLV","","553.5","img/food2.png","76","554.2000000029802","3","1","2","1","1,0.7,0,1,0.7,0,0.7,0,1","0,1,0.7,0,1,0.7,1,0.7,0","3","",""
"","html-keyboard-response","157","77270","0.0-157.0","3BXQMRHWK0KOXR0YLR50CWKVLOCMU0","AZ8JL3QNIPY4U","3THR0FZ95PF7SK0MYRNAOUHTWA4OLV","","null","<img src=""img/food2.png"" style=""width:200px; border:14px solid green;"">","null","","","","","","","","","",""
"","image-keyboard-response","158","77809","0.0-158.0","3BXQMRHWK0KOXR0YLR50CWKVLOCMU0","AZ8JL3QNIPY4U","3THR0FZ95PF7SK0MYRNAOUHTWA4OLV","","537.6000000014901","img/food4.png","75","538.3999999985099","2","1","1","1","1,0.7,0,1,0.7,0,0.7,0,1","0,1,0.7,0,1,0.7,1,0.7,0","3","",""
"","html-keyboard-response","159","78110","0.0-159.0","3BXQMRHWK0KOXR0YLR50CWKVLOCMU0","AZ8JL3QNIPY4U","3THR0FZ95PF7SK0MYRNAOUHTWA4OLV","","null","<img src=""img/food4.png"" style=""width:200px; border:14px solid green;"">","null","","","","","","","","","",""
"","image-keyboard-response","160","78441","0.0-160.0","3BXQMRHWK0KOXR0YLR50CWKVLOCMU0","AZ8JL3QNIPY4U","3THR0FZ95PF7SK0MYRNAOUHTWA4OLV","","330","img/food4.png","75","330.69999999552965","2","1","1","1","1,0.7,0,1,0.7,0,0.7,0,1","0,1,0.7,0,1,0.7,1,0.7,0","3","",""
"","html-keyboard-response","161","78743","0.0-161.0","3BXQMRHWK0KOXR0YLR50CWKVLOCMU0","AZ8JL3QNIPY4U","3THR0FZ95PF7SK0MYRNAOUHTWA4OLV","","null","<img src=""img/food4.png"" style=""width:200px; border:14px solid green;"">","null","","","","","","","","","",""
"","image-keyboard-response","162","79265","0.0-162.0","3BXQMRHWK0KOXR0YLR50CWKVLOCMU0","AZ8JL3QNIPY4U","3THR0FZ95PF7SK0MYRNAOUHTWA4OLV","","520.7000000029802","img/food1.png","74","521.5","1","1","3","1","1,0.7,0,1,0.7,0,0.7,0,1","0,1,0.7,0,1,0.7,1,0.7,0","3","",""
"","html-keyboard-response","163","79566","0.0-163.0","3BXQMRHWK0KOXR0YLR50CWKVLOCMU0","AZ8JL3QNIPY4U","3THR0FZ95PF7SK0MYRNAOUHTWA4OLV","","null","<img src=""img/food1.png"" style=""width:200px; border:14px solid green;"">","null","","","","","","","","","",""
"","image-keyboard-response","164","80201","0.0-164.0","3BXQMRHWK0KOXR0YLR50CWKVLOCMU0","AZ8JL3QNIPY4U","3THR0FZ95PF7SK0MYRNAOUHTWA4OLV","","633.7000000029802","img/food2.png","76","634.4000000059605","3","1","2","1","1,0.7,0,1,0.7,0,0.7,0,1","0,1,0.7,0,1,0.7,1,0.7,0","3","",""
"","html-keyboard-response","165","80502","0.0-165.0","3BXQMRHWK0KOXR0YLR50CWKVLOCMU0","AZ8JL3QNIPY4U","3THR0FZ95PF7SK0MYRNAOUHTWA4OLV","","null","<img src=""img/food2.png"" style=""width:200px; border:14px solid green;"">","null","","","","","","","","","",""
"","image-keyboard-response","166","80833","0.0-166.0","3BXQMRHWK0KOXR0YLR50CWKVLOCMU0","AZ8JL3QNIPY4U","3THR0FZ95PF7SK0MYRNAOUHTWA4OLV","","329.69999999552965","img/food2.png","76","330.29999999701977","3","0","2","1","1,0.7,0,1,0.7,0,0.7,0,1","0,1,0.7,0,1,0.7,1,0.7,0","3","",""
"","html-keyboard-response","167","81135","0.0-167.0","3BXQMRHWK0KOXR0YLR50CWKVLOCMU0","AZ8JL3QNIPY4U","3THR0FZ95PF7SK0MYRNAOUHTWA4OLV","","null","<img src=""img/food2.png"" style=""width:200px;border:14px solid red;"">","null","","","","","","","","","",""
"","image-keyboard-response","168","81761","0.0-168.0","3BXQMRHWK0KOXR0YLR50CWKVLOCMU0","AZ8JL3QNIPY4U","3THR0FZ95PF7SK0MYRNAOUHTWA4OLV","","625.5","img/food1.png","74","626.1000000014901","1","1","3","1","1,0.7,0,1,0.7,0,0.7,0,1","0,1,0.7,0,1,0.7,1,0.7,0","3","",""
"","html-keyboard-response","169","82062","0.0-169.0","3BXQMRHWK0KOXR0YLR50CWKVLOCMU0","AZ8JL3QNIPY4U","3THR0FZ95PF7SK0MYRNAOUHTWA4OLV","","null","<img src=""img/food1.png"" style=""width:200px; border:14px solid green;"">","null","","","","","","","","","",""
"","image-keyboard-response","170","82433","0.0-170.0","3BXQMRHWK0KOXR0YLR50CWKVLOCMU0","AZ8JL3QNIPY4U","3THR0FZ95PF7SK0MYRNAOUHTWA4OLV","","370.09999999403954","img/food1.png","74","370.8999999985099","1","1","3","1","1,0.7,0,1,0.7,0,0.7,0,1","0,1,0.7,0,1,0.7,1,0.7,0","3","",""
"","html-keyboard-response","171","82734","0.0-171.0","3BXQMRHWK0KOXR0YLR50CWKVLOCMU0","AZ8JL3QNIPY4U","3THR0FZ95PF7SK0MYRNAOUHTWA4OLV","","null","<img src=""img/food1.png"" style=""width:200px; border:14px solid green;"">","null","","","","","","","","","",""
"","image-keyboard-response","172","83289","0.0-172.0","3BXQMRHWK0KOXR0YLR50CWKVLOCMU0","AZ8JL3QNIPY4U","3THR0FZ95PF7SK0MYRNAOUHTWA4OLV","","554.3999999985099","img/food4.png","75","555.2000000029802","2","1","1","1","1,0.7,0,1,0.7,0,0.7,0,1","0,1,0.7,0,1,0.7,1,0.7,0","3","",""
"","html-keyboard-response","173","83591","0.0-173.0","3BXQMRHWK0KOXR0YLR50CWKVLOCMU0","AZ8JL3QNIPY4U","3THR0FZ95PF7SK0MYRNAOUHTWA4OLV","","null","<img src=""img/food4.png"" style=""width:200px; border:14px solid green;"">","null","","","","","","","","","",""
"","image-keyboard-response","174","83945","0.0-174.0","3BXQMRHWK0KOXR0YLR50CWKVLOCMU0","AZ8JL3QNIPY4U","3THR0FZ95PF7SK0MYRNAOUHTWA4OLV","","352.8999999985099","img/food4.png","75","353.80000000447035","2","1","1","1","1,0.7,0,1,0.7,0,0.7,0,1","0,1,0.7,0,1,0.7,1,0.7,0","3","",""
"","html-keyboard-response","175","84247","0.0-175.0","3BXQMRHWK0KOXR0YLR50CWKVLOCMU0","AZ8JL3QNIPY4U","3THR0FZ95PF7SK0MYRNAOUHTWA4OLV","","null","<img src=""img/food4.png"" style=""width:200px; border:14px solid green;"">","null","","","","","","","","","",""
"","image-keyboard-response","176","84591","0.0-176.0","3BXQMRHWK0KOXR0YLR50CWKVLOCMU0","AZ8JL3QNIPY4U","3THR0FZ95PF7SK0MYRNAOUHTWA4OLV","","343.79999999701977","img/food4.png","75","344.5","2","1","1","1","1,0.7,0,1,0.7,0,0.7,0,1","0,1,0.7,0,1,0.7,1,0.7,0","3","",""
"","html-keyboard-response","177","84893","0.0-177.0","3BXQMRHWK0KOXR0YLR50CWKVLOCMU0","AZ8JL3QNIPY4U","3THR0FZ95PF7SK0MYRNAOUHTWA4OLV","","null","<img src=""img/food4.png"" style=""width:200px; border:14px solid green;"">","null","","","","","","","","","",""
"","image-keyboard-response","178","85401","0.0-178.0","3BXQMRHWK0KOXR0YLR50CWKVLOCMU0","AZ8JL3QNIPY4U","3THR0FZ95PF7SK0MYRNAOUHTWA4OLV","","507.09999999403954","img/food2.png","76","507.79999999701977","3","1","2","1","1,0.7,0,1,0.7,0,0.7,0,1","0,1,0.7,0,1,0.7,1,0.7,0","3","",""
"","html-keyboard-response","179","85703","0.0-179.0","3BXQMRHWK0KOXR0YLR50CWKVLOCMU0","AZ8JL3QNIPY4U","3THR0FZ95PF7SK0MYRNAOUHTWA4OLV","","null","<img src=""img/food2.png"" style=""width:200px; border:14px solid green;"">","null","","","","","","","","","",""
"","image-keyboard-response","180","86041","0.0-180.0","3BXQMRHWK0KOXR0YLR50CWKVLOCMU0","AZ8JL3QNIPY4U","3THR0FZ95PF7SK0MYRNAOUHTWA4OLV","","337.5","img/food2.png","76","338.30000000447035","3","1","2","1","1,0.7,0,1,0.7,0,0.7,0,1","0,1,0.7,0,1,0.7,1,0.7,0","3","",""
"","html-keyboard-response","181","86344","0.0-181.0","3BXQMRHWK0KOXR0YLR50CWKVLOCMU0","AZ8JL3QNIPY4U","3THR0FZ95PF7SK0MYRNAOUHTWA4OLV","","null","<img src=""img/food2.png"" style=""width:200px; border:14px solid green;"">","null","","","","","","","","","",""
"","html-keyboard-response","182","88929","0.0-182.0","3BXQMRHWK0KOXR0YLR50CWKVLOCMU0","AZ8JL3QNIPY4U","3THR0FZ95PF7SK0MYRNAOUHTWA4OLV","","","","","","","","","","","","","",""
"","instructions","183","95957","0.0-183.0","3BXQMRHWK0KOXR0YLR50CWKVLOCMU0","AZ8JL3QNIPY4U","3THR0FZ95PF7SK0MYRNAOUHTWA4OLV","[{""page_index"":0,""viewing_time"":5703.29999999702},{""page_index"":1,""viewing_time"":1323.7999999970198}]","7027.39999999851","","","","","","","","","","","",""
"","image-keyboard-response","184","96785","0.0-184.0","3BXQMRHWK0KOXR0YLR50CWKVLOCMU0","AZ8JL3QNIPY4U","3THR0FZ95PF7SK0MYRNAOUHTWA4OLV","","826.7000000029802","img/food6.png","74","827.7000000029802","1","1","2","2","1,0.7,0,1,0.7,0,0.7,0,1","1,0.7,0,1,0.7,0,0.7,0,1","1","false",""
"","html-keyboard-response","185","97087","0.0-185.0","3BXQMRHWK0KOXR0YLR50CWKVLOCMU0","AZ8JL3QNIPY4U","3THR0FZ95PF7SK0MYRNAOUHTWA4OLV","","null","<img src=""img/food6.png"" style=""width:200px; border:14px solid green;"">","null","","","","","","","","","",""
"","image-keyboard-response","186","98040","0.0-187.0","3BXQMRHWK0KOXR0YLR50CWKVLOCMU0","AZ8JL3QNIPY4U","3THR0FZ95PF7SK0MYRNAOUHTWA4OLV","","952.7999999970198","img/food3.png","75","953.5","2","1","1","2","1,0.7,0,1,0.7,0,0.7,0,1","1,0.7,0,1,0.7,0,0.7,0,1","1","false",""
"","html-keyboard-response","187","98341","0.0-188.0","3BXQMRHWK0KOXR0YLR50CWKVLOCMU0","AZ8JL3QNIPY4U","3THR0FZ95PF7SK0MYRNAOUHTWA4OLV","","null","<img src=""img/food3.png"" style=""width:200px; border:14px solid green;"">","null","","","","","","","","","",""
"","image-keyboard-response","188","99096","0.0-190.0","3BXQMRHWK0KOXR0YLR50CWKVLOCMU0","AZ8JL3QNIPY4U","3THR0FZ95PF7SK0MYRNAOUHTWA4OLV","","754.1000000014901","img/food5.png","76","754.7000000029802","3","1","3","2","1,0.7,0,1,0.7,0,0.7,0,1","1,0.7,0,1,0.7,0,0.7,0,1","1","false",""
"","html-keyboard-response","189","99398","0.0-191.0","3BXQMRHWK0KOXR0YLR50CWKVLOCMU0","AZ8JL3QNIPY4U","3THR0FZ95PF7SK0MYRNAOUHTWA4OLV","","null","<img src=""img/food5.png"" style=""width:200px; border:14px solid green;"">","null","","","","","","","","","",""
"","image-keyboard-response","190","99760","0.0-193.0","3BXQMRHWK0KOXR0YLR50CWKVLOCMU0","AZ8JL3QNIPY4U","3THR0FZ95PF7SK0MYRNAOUHTWA4OLV","","361.5","img/food5.png","76","362.20000000298023","3","1","3","2","1,0.7,0,1,0.7,0,0.7,0,1","1,0.7,0,1,0.7,0,0.7,0,1","1","false",""
"","html-keyboard-response","191","100062","0.0-194.0","3BXQMRHWK0KOXR0YLR50CWKVLOCMU0","AZ8JL3QNIPY4U","3THR0FZ95PF7SK0MYRNAOUHTWA4OLV","","null","<img src=""img/food5.png"" style=""width:200px; border:14px solid green;"">","null","","","","","","","","","",""
"","image-keyboard-response","192","100296","0.0-196.0","3BXQMRHWK0KOXR0YLR50CWKVLOCMU0","AZ8JL3QNIPY4U","3THR0FZ95PF7SK0MYRNAOUHTWA4OLV","","233.20000000298023","img/food3.png","76","234","3","0","1","2","1,0.7,0,1,0.7,0,0.7,0,1","1,0.7,0,1,0.7,0,0.7,0,1","1","false",""
"","html-keyboard-response","193","100598","0.0-197.0","3BXQMRHWK0KOXR0YLR50CWKVLOCMU0","AZ8JL3QNIPY4U","3THR0FZ95PF7SK0MYRNAOUHTWA4OLV","","null","<img src=""img/food3.png"" style=""width:200px;border:14px solid red;"">","null","","","","","","","","","",""
"","image-keyboard-response","194","100865","0.0-199.0","3BXQMRHWK0KOXR0YLR50CWKVLOCMU0","AZ8JL3QNIPY4U","3THR0FZ95PF7SK0MYRNAOUHTWA4OLV","","265.5","img/food3.png","75","266.29999999701977","2","1","1","2","1,0.7,0,1,0.7,0,0.7,0,1","1,0.7,0,1,0.7,0,0.7,0,1","1","false",""
"","html-keyboard-response","195","101167","0.0-200.0","3BXQMRHWK0KOXR0YLR50CWKVLOCMU0","AZ8JL3QNIPY4U","3THR0FZ95PF7SK0MYRNAOUHTWA4OLV","","null","<img src=""img/food3.png"" style=""width:200px; border:14px solid green;"">","null","","","","","","","","","",""
"","image-keyboard-response","196","101728","0.0-202.0","3BXQMRHWK0KOXR0YLR50CWKVLOCMU0","AZ8JL3QNIPY4U","3THR0FZ95PF7SK0MYRNAOUHTWA4OLV","","560.3999999985099","img/food5.png","74","561.8999999985099","1","1","3","2","1,0.7,0,1,0.7,0,0.7,0,1","1,0.7,0,1,0.7,0,0.7,0,1","1","false",""
"","html-keyboard-response","197","102031","0.0-203.0","3BXQMRHWK0KOXR0YLR50CWKVLOCMU0","AZ8JL3QNIPY4U","3THR0FZ95PF7SK0MYRNAOUHTWA4OLV","","null","<img src=""img/food5.png"" style=""width:200px; border:14px solid green;"">","null","","","","","","","","","",""
"","image-keyboard-response","198","102600","0.0-205.0","3BXQMRHWK0KOXR0YLR50CWKVLOCMU0","AZ8JL3QNIPY4U","3THR0FZ95PF7SK0MYRNAOUHTWA4OLV","","568.2000000029802","img/food3.png","75","569","2","0","1","2","1,0.7,0,1,0.7,0,0.7,0,1","1,0.7,0,1,0.7,0,0.7,0,1","1","false",""
"","html-keyboard-response","199","102902","0.0-206.0","3BXQMRHWK0KOXR0YLR50CWKVLOCMU0","AZ8JL3QNIPY4U","3THR0FZ95PF7SK0MYRNAOUHTWA4OLV","","null","<img src=""img/food3.png"" style=""width:200px;border:14px solid red;"">","null","","","","","","","","","",""
"","image-keyboard-response","200","103736","0.0-208.0","3BXQMRHWK0KOXR0YLR50CWKVLOCMU0","AZ8JL3QNIPY4U","3THR0FZ95PF7SK0MYRNAOUHTWA4OLV","","833.5","img/food5.png","75","834.1000000014901","2","0","3","2","1,0.7,0,1,0.7,0,0.7,0,1","1,0.7,0,1,0.7,0,0.7,0,1","1","false",""
"","html-keyboard-response","201","104039","0.0-209.0","3BXQMRHWK0KOXR0YLR50CWKVLOCMU0","AZ8JL3QNIPY4U","3THR0FZ95PF7SK0MYRNAOUHTWA4OLV","","null","<img src=""img/food5.png"" style=""width:200px;border:14px solid red;"">","null","","","","","","","","","",""
"","image-keyboard-response","202","105041","0.0-211.0","3BXQMRHWK0KOXR0YLR50CWKVLOCMU0","AZ8JL3QNIPY4U","3THR0FZ95PF7SK0MYRNAOUHTWA4OLV","","","img/food3.png","","1002","-1","0","1","2","1,0.7,0,1,0.7,0,0.7,0,1","1,0.7,0,1,0.7,0,0.7,0,1","1","true",""
"","html-keyboard-response","203","105343","0.0-212.0","3BXQMRHWK0KOXR0YLR50CWKVLOCMU0","AZ8JL3QNIPY4U","3THR0FZ95PF7SK0MYRNAOUHTWA4OLV","","null","<img src=""img/food3.png"" style=""width:200px;border:14px solid red;"">","null","","","","","","","","","",""
"","html-keyboard-response","204","107817","0.0-213.0-0.0","3BXQMRHWK0KOXR0YLR50CWKVLOCMU0","AZ8JL3QNIPY4U","3THR0FZ95PF7SK0MYRNAOUHTWA4OLV","","","","","","","","","","","","","",""
"","image-keyboard-response","205","108200","0.0-214.0","3BXQMRHWK0KOXR0YLR50CWKVLOCMU0","AZ8JL3QNIPY4U","3THR0FZ95PF7SK0MYRNAOUHTWA4OLV","","382.5","img/food3.png","75","383.3999999985099","2","1","1","2","1,0.7,0,1,0.7,0,0.7,0,1","1,0.7,0,1,0.7,0,0.7,0,1","1","false",""
"","html-keyboard-response","206","108501","0.0-215.0","3BXQMRHWK0KOXR0YLR50CWKVLOCMU0","AZ8JL3QNIPY4U","3THR0FZ95PF7SK0MYRNAOUHTWA4OLV","","null","<img src=""img/food3.png"" style=""width:200px; border:14px solid green;"">","null","","","","","","","","","",""
"","image-keyboard-response","207","109296","0.0-217.0","3BXQMRHWK0KOXR0YLR50CWKVLOCMU0","AZ8JL3QNIPY4U","3THR0FZ95PF7SK0MYRNAOUHTWA4OLV","","794","img/food5.png","74","794.8999999985099","1","0","3","2","1,0.7,0,1,0.7,0,0.7,0,1","1,0.7,0,1,0.7,0,0.7,0,1","1","false",""
"","html-keyboard-response","208","109598","0.0-218.0","3BXQMRHWK0KOXR0YLR50CWKVLOCMU0","AZ8JL3QNIPY4U","3THR0FZ95PF7SK0MYRNAOUHTWA4OLV","","null","<img src=""img/food5.png"" style=""width:200px;border:14px solid red;"">","null","","","","","","","","","",""
"","image-keyboard-response","209","110296","0.0-220.0","3BXQMRHWK0KOXR0YLR50CWKVLOCMU0","AZ8JL3QNIPY4U","3THR0FZ95PF7SK0MYRNAOUHTWA4OLV","","696.8999999985099","img/food6.png","74","697.6999999955297","1","1","2","2","1,0.7,0,1,0.7,0,0.7,0,1","1,0.7,0,1,0.7,0,0.7,0,1","1","false",""
"","html-keyboard-response","210","110597","0.0-221.0","3BXQMRHWK0KOXR0YLR50CWKVLOCMU0","AZ8JL3QNIPY4U","3THR0FZ95PF7SK0MYRNAOUHTWA4OLV","","null","<img src=""img/food6.png"" style=""width:200px; border:14px solid green;"">","null","","","","","","","","","",""
"","image-keyboard-response","211","111272","0.0-223.0","3BXQMRHWK0KOXR0YLR50CWKVLOCMU0","AZ8JL3QNIPY4U","3THR0FZ95PF7SK0MYRNAOUHTWA4OLV","","673.8999999985099","img/food5.png","76","674.7999999970198","3","1","3","2","1,0.7,0,1,0.7,0,0.7,0,1","1,0.7,0,1,0.7,0,0.7,0,1","1","false",""
"","html-keyboard-response","212","111573","0.0-224.0","3BXQMRHWK0KOXR0YLR50CWKVLOCMU0","AZ8JL3QNIPY4U","3THR0FZ95PF7SK0MYRNAOUHTWA4OLV","","null","<img src=""img/food5.png"" style=""width:200px; border:14px solid green;"">","null","","","","","","","","","",""
"","image-keyboard-response","213","111888","0.0-226.0","3BXQMRHWK0KOXR0YLR50CWKVLOCMU0","AZ8JL3QNIPY4U","3THR0FZ95PF7SK0MYRNAOUHTWA4OLV","","313.6000000014901","img/food5.png","76","314.40000000596046","3","1","3","2","1,0.7,0,1,0.7,0,0.7,0,1","1,0.7,0,1,0.7,0,0.7,0,1","1","false",""
"","html-keyboard-response","214","112189","0.0-227.0","3BXQMRHWK0KOXR0YLR50CWKVLOCMU0","AZ8JL3QNIPY4U","3THR0FZ95PF7SK0MYRNAOUHTWA4OLV","","null","<img src=""img/food5.png"" style=""width:200px; border:14px solid green;"">","null","","","","","","","","","",""
"","image-keyboard-response","215","112768","0.0-229.0","3BXQMRHWK0KOXR0YLR50CWKVLOCMU0","AZ8JL3QNIPY4U","3THR0FZ95PF7SK0MYRNAOUHTWA4OLV","","577.8999999985099","img/food3.png","74","579.1999999955297","1","1","1","2","1,0.7,0,1,0.7,0,0.7,0,1","1,0.7,0,1,0.7,0,0.7,0,1","1","false",""
"","html-keyboard-response","216","113070","0.0-230.0","3BXQMRHWK0KOXR0YLR50CWKVLOCMU0","AZ8JL3QNIPY4U","3THR0FZ95PF7SK0MYRNAOUHTWA4OLV","","null","<img src=""img/food3.png"" style=""width:200px; border:14px solid green;"">","null","","","","","","","","","",""
"","image-keyboard-response","217","113400","0.0-232.0","3BXQMRHWK0KOXR0YLR50CWKVLOCMU0","AZ8JL3QNIPY4U","3THR0FZ95PF7SK0MYRNAOUHTWA4OLV","","329.20000000298023","img/food3.png","74","330","1","1","1","2","1,0.7,0,1,0.7,0,0.7,0,1","1,0.7,0,1,0.7,0,0.7,0,1","1","false",""
"","html-keyboard-response","218","113707","0.0-233.0","3BXQMRHWK0KOXR0YLR50CWKVLOCMU0","AZ8JL3QNIPY4U","3THR0FZ95PF7SK0MYRNAOUHTWA4OLV","","null","<img src=""img/food3.png"" style=""width:200px; border:14px solid green;"">","null","","","","","","","","","",""
"","image-keyboard-response","219","114272","0.0-235.0","3BXQMRHWK0KOXR0YLR50CWKVLOCMU0","AZ8JL3QNIPY4U","3THR0FZ95PF7SK0MYRNAOUHTWA4OLV","","564.1000000014901","img/food6.png","76","564.7999999970198","3","0","2","2","1,0.7,0,1,0.7,0,0.7,0,1","1,0.7,0,1,0.7,0,0.7,0,1","1","false",""
"","html-keyboard-response","220","114574","0.0-236.0","3BXQMRHWK0KOXR0YLR50CWKVLOCMU0","AZ8JL3QNIPY4U","3THR0FZ95PF7SK0MYRNAOUHTWA4OLV","","null","<img src=""img/food6.png"" style=""width:200px;border:14px solid red;"">","null","","","","","","","","","",""
"","image-keyboard-response","221","115152","0.0-238.0","3BXQMRHWK0KOXR0YLR50CWKVLOCMU0","AZ8JL3QNIPY4U","3THR0FZ95PF7SK0MYRNAOUHTWA4OLV","","577.2000000029802","img/food3.png","74","577.9000000059605","1","1","1","2","1,0.7,0,1,0.7,0,0.7,0,1","1,0.7,0,1,0.7,0,0.7,0,1","1","false",""
"","html-keyboard-response","222","115453","0.0-239.0","3BXQMRHWK0KOXR0YLR50CWKVLOCMU0","AZ8JL3QNIPY4U","3THR0FZ95PF7SK0MYRNAOUHTWA4OLV","","null","<img src=""img/food3.png"" style=""width:200px; border:14px solid green;"">","null","","","","","","","","","",""
"","image-keyboard-response","223","116016","0.0-241.0","3BXQMRHWK0KOXR0YLR50CWKVLOCMU0","AZ8JL3QNIPY4U","3THR0FZ95PF7SK0MYRNAOUHTWA4OLV","","561.6999999955297","img/food6.png","75","562.3999999985099","2","1","2","2","1,0.7,0,1,0.7,0,0.7,0,1","1,0.7,0,1,0.7,0,0.7,0,1","1","false",""
"","html-keyboard-response","224","116318","0.0-242.0","3BXQMRHWK0KOXR0YLR50CWKVLOCMU0","AZ8JL3QNIPY4U","3THR0FZ95PF7SK0MYRNAOUHTWA4OLV","","null","<img src=""img/food6.png"" style=""width:200px; border:14px solid green;"">","null","","","","","","","","","",""
"","image-keyboard-response","225","116808","0.0-244.0","3BXQMRHWK0KOXR0YLR50CWKVLOCMU0","AZ8JL3QNIPY4U","3THR0FZ95PF7SK0MYRNAOUHTWA4OLV","","489","img/food3.png","74","489.80000000447035","1","1","1","2","1,0.7,0,1,0.7,0,0.7,0,1","1,0.7,0,1,0.7,0,0.7,0,1","1","false",""
"","html-keyboard-response","226","117110","0.0-245.0","3BXQMRHWK0KOXR0YLR50CWKVLOCMU0","AZ8JL3QNIPY4U","3THR0FZ95PF7SK0MYRNAOUHTWA4OLV","","null","<img src=""img/food3.png"" style=""width:200px; border:14px solid green;"">","null","","","","","","","","","",""
"","image-keyboard-response","227","117472","0.0-247.0","3BXQMRHWK0KOXR0YLR50CWKVLOCMU0","AZ8JL3QNIPY4U","3THR0FZ95PF7SK0MYRNAOUHTWA4OLV","","361","img/food6.png","75","361.69999999552965","2","1","2","2","1,0.7,0,1,0.7,0,0.7,0,1","1,0.7,0,1,0.7,0,0.7,0,1","1","false",""
"","html-keyboard-response","228","117773","0.0-248.0","3BXQMRHWK0KOXR0YLR50CWKVLOCMU0","AZ8JL3QNIPY4U","3THR0FZ95PF7SK0MYRNAOUHTWA4OLV","","null","<img src=""img/food6.png"" style=""width:200px; border:14px solid green;"">","null","","","","","","","","","",""
"","image-keyboard-response","229","118120","0.0-250.0","3BXQMRHWK0KOXR0YLR50CWKVLOCMU0","AZ8JL3QNIPY4U","3THR0FZ95PF7SK0MYRNAOUHTWA4OLV","","346","img/food6.png","75","346.70000000298023","2","1","2","2","1,0.7,0,1,0.7,0,0.7,0,1","1,0.7,0,1,0.7,0,0.7,0,1","1","false",""
"","html-keyboard-response","230","118421","0.0-251.0","3BXQMRHWK0KOXR0YLR50CWKVLOCMU0","AZ8JL3QNIPY4U","3THR0FZ95PF7SK0MYRNAOUHTWA4OLV","","null","<img src=""img/food6.png"" style=""width:200px; border:14px solid green;"">","null","","","","","","","","","",""
"","image-keyboard-response","231","118920","0.0-253.0","3BXQMRHWK0KOXR0YLR50CWKVLOCMU0","AZ8JL3QNIPY4U","3THR0FZ95PF7SK0MYRNAOUHTWA4OLV","","498.1000000014901","img/food3.png","74","498.90000000596046","1","1","1","2","1,0.7,0,1,0.7,0,0.7,0,1","1,0.7,0,1,0.7,0,0.7,0,1","1","false",""
"","html-keyboard-response","232","119221","0.0-254.0","3BXQMRHWK0KOXR0YLR50CWKVLOCMU0","AZ8JL3QNIPY4U","3THR0FZ95PF7SK0MYRNAOUHTWA4OLV","","null","<img src=""img/food3.png"" style=""width:200px; border:14px solid green;"">","null","","","","","","","","","",""
"","image-keyboard-response","233","119568","0.0-256.0","3BXQMRHWK0KOXR0YLR50CWKVLOCMU0","AZ8JL3QNIPY4U","3THR0FZ95PF7SK0MYRNAOUHTWA4OLV","","346","img/food3.png","74","346.79999999701977","1","1","1","2","1,0.7,0,1,0.7,0,0.7,0,1","1,0.7,0,1,0.7,0,0.7,0,1","1","false",""
"","html-keyboard-response","234","119869","0.0-257.0","3BXQMRHWK0KOXR0YLR50CWKVLOCMU0","AZ8JL3QNIPY4U","3THR0FZ95PF7SK0MYRNAOUHTWA4OLV","","null","<img src=""img/food3.png"" style=""width:200px; border:14px solid green;"">","null","","","","","","","","","",""
"","image-keyboard-response","235","120336","0.0-259.0","3BXQMRHWK0KOXR0YLR50CWKVLOCMU0","AZ8JL3QNIPY4U","3THR0FZ95PF7SK0MYRNAOUHTWA4OLV","","465.6000000014901","img/food6.png","75","466.20000000298023","2","0","2","2","1,0.7,0,1,0.7,0,0.7,0,1","1,0.7,0,1,0.7,0,0.7,0,1","1","false",""
"","html-keyboard-response","236","120637","0.0-260.0","3BXQMRHWK0KOXR0YLR50CWKVLOCMU0","AZ8JL3QNIPY4U","3THR0FZ95PF7SK0MYRNAOUHTWA4OLV","","null","<img src=""img/food6.png"" style=""width:200px;border:14px solid red;"">","null","","","","","","","","","",""
"","image-keyboard-response","237","121200","0.0-262.0","3BXQMRHWK0KOXR0YLR50CWKVLOCMU0","AZ8JL3QNIPY4U","3THR0FZ95PF7SK0MYRNAOUHTWA4OLV","","561.8999999985099","img/food5.png","76","562.6000000014901","3","1","3","2","1,0.7,0,1,0.7,0,0.7,0,1","1,0.7,0,1,0.7,0,0.7,0,1","1","false",""
"","html-keyboard-response","238","121502","0.0-263.0","3BXQMRHWK0KOXR0YLR50CWKVLOCMU0","AZ8JL3QNIPY4U","3THR0FZ95PF7SK0MYRNAOUHTWA4OLV","","null","<img src=""img/food5.png"" style=""width:200px; border:14px solid green;"">","null","","","","","","","","","",""
"","image-keyboard-response","239","121776","0.0-265.0","3BXQMRHWK0KOXR0YLR50CWKVLOCMU0","AZ8JL3QNIPY4U","3THR0FZ95PF7SK0MYRNAOUHTWA4OLV","","273.80000000447035","img/food5.png","76","274.3999999985099","3","1","3","2","1,0.7,0,1,0.7,0,0.7,0,1","1,0.7,0,1,0.7,0,0.7,0,1","1","false",""
"","html-keyboard-response","240","122078","0.0-266.0","3BXQMRHWK0KOXR0YLR50CWKVLOCMU0","AZ8JL3QNIPY4U","3THR0FZ95PF7SK0MYRNAOUHTWA4OLV","","null","<img src=""img/food5.png"" style=""width:200px; border:14px solid green;"">","null","","","","","","","","","",""
"","image-keyboard-response","241","122432","0.0-268.0","3BXQMRHWK0KOXR0YLR50CWKVLOCMU0","AZ8JL3QNIPY4U","3THR0FZ95PF7SK0MYRNAOUHTWA4OLV","","353","img/food5.png","76","353.8999999985099","3","1","3","2","1,0.7,0,1,0.7,0,0.7,0,1","1,0.7,0,1,0.7,0,0.7,0,1","1","false",""
"","html-keyboard-response","242","122733","0.0-269.0","3BXQMRHWK0KOXR0YLR50CWKVLOCMU0","AZ8JL3QNIPY4U","3THR0FZ95PF7SK0MYRNAOUHTWA4OLV","","null","<img src=""img/food5.png"" style=""width:200px; border:14px solid green;"">","null","","","","","","","","","",""
"","image-keyboard-response","243","123208","0.0-271.0","3BXQMRHWK0KOXR0YLR50CWKVLOCMU0","AZ8JL3QNIPY4U","3THR0FZ95PF7SK0MYRNAOUHTWA4OLV","","473.69999999552965","img/food3.png","75","474.3999999985099","2","0","1","2","1,0.7,0,1,0.7,0,0.7,0,1","1,0.7,0,1,0.7,0,0.7,0,1","1","false",""
"","html-keyboard-response","244","123510","0.0-272.0","3BXQMRHWK0KOXR0YLR50CWKVLOCMU0","AZ8JL3QNIPY4U","3THR0FZ95PF7SK0MYRNAOUHTWA4OLV","","null","<img src=""img/food3.png"" style=""width:200px;border:14px solid red;"">","null","","","","","","","","","",""
"","image-keyboard-response","245","124224","0.0-274.0","3BXQMRHWK0KOXR0YLR50CWKVLOCMU0","AZ8JL3QNIPY4U","3THR0FZ95PF7SK0MYRNAOUHTWA4OLV","","713","img/food5.png","75","713.7000000029802","2","0","3","2","1,0.7,0,1,0.7,0,0.7,0,1","1,0.7,0,1,0.7,0,0.7,0,1","1","false",""
"","html-keyboard-response","246","124525","0.0-275.0","3BXQMRHWK0KOXR0YLR50CWKVLOCMU0","AZ8JL3QNIPY4U","3THR0FZ95PF7SK0MYRNAOUHTWA4OLV","","null","<img src=""img/food5.png"" style=""width:200px;border:14px solid red;"">","null","","","","","","","","","",""
"","image-keyboard-response","247","125528","0.0-277.0","3BXQMRHWK0KOXR0YLR50CWKVLOCMU0","AZ8JL3QNIPY4U","3THR0FZ95PF7SK0MYRNAOUHTWA4OLV","","","img/food3.png","","1002.5999999940395","-1","0","1","2","1,0.7,0,1,0.7,0,0.7,0,1","1,0.7,0,1,0.7,0,0.7,0,1","1","true",""
"","html-keyboard-response","248","125829","0.0-278.0","3BXQMRHWK0KOXR0YLR50CWKVLOCMU0","AZ8JL3QNIPY4U","3THR0FZ95PF7SK0MYRNAOUHTWA4OLV","","null","<img src=""img/food3.png"" style=""width:200px;border:14px solid red;"">","null","","","","","","","","","",""
"","html-keyboard-response","249","127696","0.0-279.0-0.0","3BXQMRHWK0KOXR0YLR50CWKVLOCMU0","AZ8JL3QNIPY4U","3THR0FZ95PF7SK0MYRNAOUHTWA4OLV","","","","","","","","","","","","","",""
"","image-keyboard-response","250","128504","0.0-280.0","3BXQMRHWK0KOXR0YLR50CWKVLOCMU0","AZ8JL3QNIPY4U","3THR0FZ95PF7SK0MYRNAOUHTWA4OLV","","806.8999999985099","img/food5.png","75","807.8999999985099","2","0","3","2","1,0.7,0,1,0.7,0,0.7,0,1","1,0.7,0,1,0.7,0,0.7,0,1","1","false",""
"","html-keyboard-response","251","128806","0.0-281.0","3BXQMRHWK0KOXR0YLR50CWKVLOCMU0","AZ8JL3QNIPY4U","3THR0FZ95PF7SK0MYRNAOUHTWA4OLV","","null","<img src=""img/food5.png"" style=""width:200px;border:14px solid red;"">","null","","","","","","","","","",""
"","image-keyboard-response","252","129048","0.0-283.0","3BXQMRHWK0KOXR0YLR50CWKVLOCMU0","AZ8JL3QNIPY4U","3THR0FZ95PF7SK0MYRNAOUHTWA4OLV","","241.09999999403954","img/food3.png","74","241.79999999701977","1","1","1","2","1,0.7,0,1,0.7,0,0.7,0,1","1,0.7,0,1,0.7,0,0.7,0,1","1","false",""
"","html-keyboard-response","253","129350","0.0-284.0","3BXQMRHWK0KOXR0YLR50CWKVLOCMU0","AZ8JL3QNIPY4U","3THR0FZ95PF7SK0MYRNAOUHTWA4OLV","","null","<img src=""img/food3.png"" style=""width:200px; border:14px solid green;"">","null","","","","","","","","","",""
"","image-keyboard-response","254","130144","0.0-286.0","3BXQMRHWK0KOXR0YLR50CWKVLOCMU0","AZ8JL3QNIPY4U","3THR0FZ95PF7SK0MYRNAOUHTWA4OLV","","793","img/food6.png","75","793.8999999985099","2","1","2","2","1,0.7,0,1,0.7,0,0.7,0,1","1,0.7,0,1,0.7,0,0.7,0,1","1","false",""
"","html-keyboard-response","255","130445","0.0-287.0","3BXQMRHWK0KOXR0YLR50CWKVLOCMU0","AZ8JL3QNIPY4U","3THR0FZ95PF7SK0MYRNAOUHTWA4OLV","","null","<img src=""img/food6.png"" style=""width:200px; border:14px solid green;"">","null","","","","","","","","","",""
"","image-keyboard-response","256","130704","0.0-289.0","3BXQMRHWK0KOXR0YLR50CWKVLOCMU0","AZ8JL3QNIPY4U","3THR0FZ95PF7SK0MYRNAOUHTWA4OLV","","257.30000000447035","img/food5.png","75","258.29999999701977","2","0","3","2","1,0.7,0,1,0.7,0,0.7,0,1","1,0.7,0,1,0.7,0,0.7,0,1","1","false",""
"","html-keyboard-response","257","131005","0.0-290.0","3BXQMRHWK0KOXR0YLR50CWKVLOCMU0","AZ8JL3QNIPY4U","3THR0FZ95PF7SK0MYRNAOUHTWA4OLV","","null","<img src=""img/food5.png"" style=""width:200px;border:14px solid red;"">","null","","","","","","","","","",""
"","image-keyboard-response","258","131648","0.0-292.0","3BXQMRHWK0KOXR0YLR50CWKVLOCMU0","AZ8JL3QNIPY4U","3THR0FZ95PF7SK0MYRNAOUHTWA4OLV","","641.6000000014901","img/food6.png","75","642.3999999985099","2","1","2","2","1,0.7,0,1,0.7,0,0.7,0,1","1,0.7,0,1,0.7,0,0.7,0,1","1","false",""
"","html-keyboard-response","259","131950","0.0-293.0","3BXQMRHWK0KOXR0YLR50CWKVLOCMU0","AZ8JL3QNIPY4U","3THR0FZ95PF7SK0MYRNAOUHTWA4OLV","","null","<img src=""img/food6.png"" style=""width:200px; border:14px solid green;"">","null","","","","","","","","","",""
"","image-keyboard-response","260","132288","0.0-295.0","3BXQMRHWK0KOXR0YLR50CWKVLOCMU0","AZ8JL3QNIPY4U","3THR0FZ95PF7SK0MYRNAOUHTWA4OLV","","336.30000000447035","img/food6.png","75","337.19999999552965","2","1","2","2","1,0.7,0,1,0.7,0,0.7,0,1","1,0.7,0,1,0.7,0,0.7,0,1","1","false",""
"","html-keyboard-response","261","132590","0.0-296.0","3BXQMRHWK0KOXR0YLR50CWKVLOCMU0","AZ8JL3QNIPY4U","3THR0FZ95PF7SK0MYRNAOUHTWA4OLV","","null","<img src=""img/food6.png"" style=""width:200px; border:14px solid green;"">","null","","","","","","","","","",""
"","image-keyboard-response","262","133312","0.0-298.0","3BXQMRHWK0KOXR0YLR50CWKVLOCMU0","AZ8JL3QNIPY4U","3THR0FZ95PF7SK0MYRNAOUHTWA4OLV","","720.6000000014901","img/food5.png","75","721.3999999985099","2","0","3","2","1,0.7,0,1,0.7,0,0.7,0,1","1,0.7,0,1,0.7,0,0.7,0,1","1","false",""
"","html-keyboard-response","263","133614","0.0-299.0","3BXQMRHWK0KOXR0YLR50CWKVLOCMU0","AZ8JL3QNIPY4U","3THR0FZ95PF7SK0MYRNAOUHTWA4OLV","","null","<img src=""img/food5.png"" style=""width:200px;border:14px solid red;"">","null","","","","","","","","","",""
"","image-keyboard-response","264","134240","0.0-301.0","3BXQMRHWK0KOXR0YLR50CWKVLOCMU0","AZ8JL3QNIPY4U","3THR0FZ95PF7SK0MYRNAOUHTWA4OLV","","624.8999999985099","img/food3.png","74","625.8999999985099","1","1","1","2","1,0.7,0,1,0.7,0,0.7,0,1","1,0.7,0,1,0.7,0,0.7,0,1","1","false",""
"","html-keyboard-response","265","134541","0.0-302.0","3BXQMRHWK0KOXR0YLR50CWKVLOCMU0","AZ8JL3QNIPY4U","3THR0FZ95PF7SK0MYRNAOUHTWA4OLV","","null","<img src=""img/food3.png"" style=""width:200px; border:14px solid green;"">","null","","","","","","","","","",""
"","image-keyboard-response","266","135104","0.0-304.0","3BXQMRHWK0KOXR0YLR50CWKVLOCMU0","AZ8JL3QNIPY4U","3THR0FZ95PF7SK0MYRNAOUHTWA4OLV","","561.8999999985099","img/food6.png","75","562.6999999955297","2","0","2","2","1,0.7,0,1,0.7,0,0.7,0,1","1,0.7,0,1,0.7,0,0.7,0,1","1","false",""
"","html-keyboard-response","267","135405","0.0-305.0","3BXQMRHWK0KOXR0YLR50CWKVLOCMU0","AZ8JL3QNIPY4U","3THR0FZ95PF7SK0MYRNAOUHTWA4OLV","","null","<img src=""img/food6.png"" style=""width:200px;border:14px solid red;"">","null","","","","","","","","","",""
"","image-keyboard-response","268","135912","0.0-307.0","3BXQMRHWK0KOXR0YLR50CWKVLOCMU0","AZ8JL3QNIPY4U","3THR0FZ95PF7SK0MYRNAOUHTWA4OLV","","505.30000000447035","img/food3.png","74","506.09999999403954","1","1","1","2","1,0.7,0,1,0.7,0,0.7,0,1","1,0.7,0,1,0.7,0,0.7,0,1","1","false",""
"","html-keyboard-response","269","136213","0.0-308.0","3BXQMRHWK0KOXR0YLR50CWKVLOCMU0","AZ8JL3QNIPY4U","3THR0FZ95PF7SK0MYRNAOUHTWA4OLV","","null","<img src=""img/food3.png"" style=""width:200px; border:14px solid green;"">","null","","","","","","","","","",""
"","image-keyboard-response","270","136544","0.0-310.0","3BXQMRHWK0KOXR0YLR50CWKVLOCMU0","AZ8JL3QNIPY4U","3THR0FZ95PF7SK0MYRNAOUHTWA4OLV","","329.3999999985099","img/food3.png","74","330.19999999552965","1","1","1","2","1,0.7,0,1,0.7,0,0.7,0,1","1,0.7,0,1,0.7,0,0.7,0,1","1","false",""
"","html-keyboard-response","271","136845","0.0-311.0","3BXQMRHWK0KOXR0YLR50CWKVLOCMU0","AZ8JL3QNIPY4U","3THR0FZ95PF7SK0MYRNAOUHTWA4OLV","","null","<img src=""img/food3.png"" style=""width:200px; border:14px solid green;"">","null","","","","","","","","","",""
"","image-keyboard-response","272","137431","0.0-313.0","3BXQMRHWK0KOXR0YLR50CWKVLOCMU0","AZ8JL3QNIPY4U","3THR0FZ95PF7SK0MYRNAOUHTWA4OLV","","585.6000000014901","img/food5.png","76","586.4000000059605","3","1","3","2","1,0.7,0,1,0.7,0,0.7,0,1","1,0.7,0,1,0.7,0,0.7,0,1","1","false",""
"","html-keyboard-response","273","137733","0.0-314.0","3BXQMRHWK0KOXR0YLR50CWKVLOCMU0","AZ8JL3QNIPY4U","3THR0FZ95PF7SK0MYRNAOUHTWA4OLV","","null","<img src=""img/food5.png"" style=""width:200px; border:14px solid green;"">","null","","","","","","","","","",""
"","image-keyboard-response","274","138319","0.0-316.0","3BXQMRHWK0KOXR0YLR50CWKVLOCMU0","AZ8JL3QNIPY4U","3THR0FZ95PF7SK0MYRNAOUHTWA4OLV","","585.1000000014901","img/food6.png","74","585.8000000044703","1","1","2","2","1,0.7,0,1,0.7,0,0.7,0,1","1,0.7,0,1,0.7,0,0.7,0,1","1","false",""
"","html-keyboard-response","275","138621","0.0-317.0","3BXQMRHWK0KOXR0YLR50CWKVLOCMU0","AZ8JL3QNIPY4U","3THR0FZ95PF7SK0MYRNAOUHTWA4OLV","","null","<img src=""img/food6.png"" style=""width:200px; border:14px solid green;"">","null","","","","","","","","","",""
"","image-keyboard-response","276","139007","0.0-319.0","3BXQMRHWK0KOXR0YLR50CWKVLOCMU0","AZ8JL3QNIPY4U","3THR0FZ95PF7SK0MYRNAOUHTWA4OLV","","385.5","img/food6.png","75","386.20000000298023","2","1","2","2","1,0.7,0,1,0.7,0,0.7,0,1","1,0.7,0,1,0.7,0,0.7,0,1","1","false",""
"","html-keyboard-response","277","139309","0.0-320.0","3BXQMRHWK0KOXR0YLR50CWKVLOCMU0","AZ8JL3QNIPY4U","3THR0FZ95PF7SK0MYRNAOUHTWA4OLV","","null","<img src=""img/food6.png"" style=""width:200px; border:14px solid green;"">","null","","","","","","","","","",""
"","image-keyboard-response","278","139680","0.0-322.0","3BXQMRHWK0KOXR0YLR50CWKVLOCMU0","AZ8JL3QNIPY4U","3THR0FZ95PF7SK0MYRNAOUHTWA4OLV","","369.70000000298023","img/food6.png","75","370.40000000596046","2","1","2","2","1,0.7,0,1,0.7,0,0.7,0,1","1,0.7,0,1,0.7,0,0.7,0,1","1","false",""
"","html-keyboard-response","279","139981","0.0-323.0","3BXQMRHWK0KOXR0YLR50CWKVLOCMU0","AZ8JL3QNIPY4U","3THR0FZ95PF7SK0MYRNAOUHTWA4OLV","","null","<img src=""img/food6.png"" style=""width:200px; border:14px solid green;"">","null","","","","","","","","","",""
"","image-keyboard-response","280","140335","0.0-325.0","3BXQMRHWK0KOXR0YLR50CWKVLOCMU0","AZ8JL3QNIPY4U","3THR0FZ95PF7SK0MYRNAOUHTWA4OLV","","353.69999999552965","img/food6.png","75","354.3999999985099","2","1","2","2","1,0.7,0,1,0.7,0,0.7,0,1","1,0.7,0,1,0.7,0,0.7,0,1","1","false",""
"","html-keyboard-response","281","140637","0.0-326.0","3BXQMRHWK0KOXR0YLR50CWKVLOCMU0","AZ8JL3QNIPY4U","3THR0FZ95PF7SK0MYRNAOUHTWA4OLV","","null","<img src=""img/food6.png"" style=""width:200px; border:14px solid green;"">","null","","","","","","","","","",""
"","image-keyboard-response","282","140943","0.0-328.0","3BXQMRHWK0KOXR0YLR50CWKVLOCMU0","AZ8JL3QNIPY4U","3THR0FZ95PF7SK0MYRNAOUHTWA4OLV","","304.8999999985099","img/food6.png","75","305.5","2","1","2","2","1,0.7,0,1,0.7,0,0.7,0,1","1,0.7,0,1,0.7,0,0.7,0,1","1","false",""
"","html-keyboard-response","283","141245","0.0-329.0","3BXQMRHWK0KOXR0YLR50CWKVLOCMU0","AZ8JL3QNIPY4U","3THR0FZ95PF7SK0MYRNAOUHTWA4OLV","","null","<img src=""img/food6.png"" style=""width:200px; border:14px solid green;"">","null","","","","","","","","","",""
"","image-keyboard-response","284","141807","0.0-331.0","3BXQMRHWK0KOXR0YLR50CWKVLOCMU0","AZ8JL3QNIPY4U","3THR0FZ95PF7SK0MYRNAOUHTWA4OLV","","561.7999999970198","img/food5.png","76","562.5","3","1","3","2","1,0.7,0,1,0.7,0,0.7,0,1","1,0.7,0,1,0.7,0,0.7,0,1","1","false",""
"","html-keyboard-response","285","142110","0.0-332.0","3BXQMRHWK0KOXR0YLR50CWKVLOCMU0","AZ8JL3QNIPY4U","3THR0FZ95PF7SK0MYRNAOUHTWA4OLV","","null","<img src=""img/food5.png"" style=""width:200px; border:14px solid green;"">","null","","","","","","","","","",""
"","image-keyboard-response","286","142656","0.0-334.0","3BXQMRHWK0KOXR0YLR50CWKVLOCMU0","AZ8JL3QNIPY4U","3THR0FZ95PF7SK0MYRNAOUHTWA4OLV","","545.2000000029802","img/food6.png","75","545.8000000044703","2","1","2","2","1,0.7,0,1,0.7,0,0.7,0,1","1,0.7,0,1,0.7,0,0.7,0,1","1","false",""
"","html-keyboard-response","287","142958","0.0-335.0","3BXQMRHWK0KOXR0YLR50CWKVLOCMU0","AZ8JL3QNIPY4U","3THR0FZ95PF7SK0MYRNAOUHTWA4OLV","","null","<img src=""img/food6.png"" style=""width:200px; border:14px solid green;"">","null","","","","","","","","","",""
"","image-keyboard-response","288","143271","0.0-337.0","3BXQMRHWK0KOXR0YLR50CWKVLOCMU0","AZ8JL3QNIPY4U","3THR0FZ95PF7SK0MYRNAOUHTWA4OLV","","312.69999999552965","img/food6.png","75","313.5","2","1","2","2","1,0.7,0,1,0.7,0,0.7,0,1","1,0.7,0,1,0.7,0,0.7,0,1","1","false",""
"","html-keyboard-response","289","143574","0.0-338.0","3BXQMRHWK0KOXR0YLR50CWKVLOCMU0","AZ8JL3QNIPY4U","3THR0FZ95PF7SK0MYRNAOUHTWA4OLV","","null","<img src=""img/food6.png"" style=""width:200px; border:14px solid green;"">","null","","","","","","","","","",""
"","image-keyboard-response","290","144183","0.0-340.0","3BXQMRHWK0KOXR0YLR50CWKVLOCMU0","AZ8JL3QNIPY4U","3THR0FZ95PF7SK0MYRNAOUHTWA4OLV","","608.7000000029802","img/food5.png","76","609.5","3","1","3","2","1,0.7,0,1,0.7,0,0.7,0,1","1,0.7,0,1,0.7,0,0.7,0,1","1","false",""
"","html-keyboard-response","291","144485","0.0-341.0","3BXQMRHWK0KOXR0YLR50CWKVLOCMU0","AZ8JL3QNIPY4U","3THR0FZ95PF7SK0MYRNAOUHTWA4OLV","","null","<img src=""img/food5.png"" style=""width:200px; border:14px solid green;"">","null","","","","","","","","","",""
"","image-keyboard-response","292","145111","0.0-343.0","3BXQMRHWK0KOXR0YLR50CWKVLOCMU0","AZ8JL3QNIPY4U","3THR0FZ95PF7SK0MYRNAOUHTWA4OLV","","625.7000000029802","img/food3.png","74","626.5","1","1","1","2","1,0.7,0,1,0.7,0,0.7,0,1","1,0.7,0,1,0.7,0,0.7,0,1","1","false",""
"","html-keyboard-response","293","145413","0.0-344.0","3BXQMRHWK0KOXR0YLR50CWKVLOCMU0","AZ8JL3QNIPY4U","3THR0FZ95PF7SK0MYRNAOUHTWA4OLV","","null","<img src=""img/food3.png"" style=""width:200px; border:14px solid green;"">","null","","","","","","","","","",""
"","image-keyboard-response","294","146023","0.0-346.0","3BXQMRHWK0KOXR0YLR50CWKVLOCMU0","AZ8JL3QNIPY4U","3THR0FZ95PF7SK0MYRNAOUHTWA4OLV","","609.5","img/food5.png","76","610.1999999955297","3","1","3","2","1,0.7,0,1,0.7,0,0.7,0,1","1,0.7,0,1,0.7,0,0.7,0,1","1","false",""
"","html-keyboard-response","295","146325","0.0-347.0","3BXQMRHWK0KOXR0YLR50CWKVLOCMU0","AZ8JL3QNIPY4U","3THR0FZ95PF7SK0MYRNAOUHTWA4OLV","","null","<img src=""img/food5.png"" style=""width:200px; border:14px solid green;"">","null","","","","","","","","","",""
"","image-keyboard-response","296","146615","0.0-349.0","3BXQMRHWK0KOXR0YLR50CWKVLOCMU0","AZ8JL3QNIPY4U","3THR0FZ95PF7SK0MYRNAOUHTWA4OLV","","289.29999999701977","img/food5.png","76","290.1000000014901","3","1","3","2","1,0.7,0,1,0.7,0,0.7,0,1","1,0.7,0,1,0.7,0,0.7,0,1","1","false",""
"","html-keyboard-response","297","146917","0.0-350.0","3BXQMRHWK0KOXR0YLR50CWKVLOCMU0","AZ8JL3QNIPY4U","3THR0FZ95PF7SK0MYRNAOUHTWA4OLV","","null","<img src=""img/food5.png"" style=""width:200px; border:14px solid green;"">","null","","","","","","","","","",""
"","image-keyboard-response","298","147415","0.0-352.0","3BXQMRHWK0KOXR0YLR50CWKVLOCMU0","AZ8JL3QNIPY4U","3THR0FZ95PF7SK0MYRNAOUHTWA4OLV","","497.59999999403954","img/food3.png","75","498.29999999701977","2","0","1","2","1,0.7,0,1,0.7,0,0.7,0,1","1,0.7,0,1,0.7,0,0.7,0,1","1","false",""
"","html-keyboard-response","299","147718","0.0-353.0","3BXQMRHWK0KOXR0YLR50CWKVLOCMU0","AZ8JL3QNIPY4U","3THR0FZ95PF7SK0MYRNAOUHTWA4OLV","","null","<img src=""img/food3.png"" style=""width:200px;border:14px solid red;"">","null","","","","","","","","","",""
"","image-keyboard-response","300","148343","0.0-355.0","3BXQMRHWK0KOXR0YLR50CWKVLOCMU0","AZ8JL3QNIPY4U","3THR0FZ95PF7SK0MYRNAOUHTWA4OLV","","624.6000000014901","img/food6.png","75","625.3999999985099","2","1","2","2","1,0.7,0,1,0.7,0,0.7,0,1","1,0.7,0,1,0.7,0,0.7,0,1","1","false",""
"","html-keyboard-response","301","148644","0.0-356.0","3BXQMRHWK0KOXR0YLR50CWKVLOCMU0","AZ8JL3QNIPY4U","3THR0FZ95PF7SK0MYRNAOUHTWA4OLV","","null","<img src=""img/food6.png"" style=""width:200px; border:14px solid green;"">","null","","","","","","","","","",""
"","image-keyboard-response","302","149279","0.0-358.0","3BXQMRHWK0KOXR0YLR50CWKVLOCMU0","AZ8JL3QNIPY4U","3THR0FZ95PF7SK0MYRNAOUHTWA4OLV","","633.9000000059605","img/food5.png","76","634.5","3","1","3","2","1,0.7,0,1,0.7,0,0.7,0,1","1,0.7,0,1,0.7,0,0.7,0,1","1","false",""
"","html-keyboard-response","303","149582","0.0-359.0","3BXQMRHWK0KOXR0YLR50CWKVLOCMU0","AZ8JL3QNIPY4U","3THR0FZ95PF7SK0MYRNAOUHTWA4OLV","","null","<img src=""img/food5.png"" style=""width:200px; border:14px solid green;"">","null","","","","","","","","","",""
"","image-keyboard-response","304","150263","0.0-361.0","3BXQMRHWK0KOXR0YLR50CWKVLOCMU0","AZ8JL3QNIPY4U","3THR0FZ95PF7SK0MYRNAOUHTWA4OLV","","680.5","img/food6.png","75","681.2999999970198","2","1","2","2","1,0.7,0,1,0.7,0,0.7,0,1","1,0.7,0,1,0.7,0,0.7,0,1","1","false",""
"","html-keyboard-response","305","150565","0.0-362.0","3BXQMRHWK0KOXR0YLR50CWKVLOCMU0","AZ8JL3QNIPY4U","3THR0FZ95PF7SK0MYRNAOUHTWA4OLV","","null","<img src=""img/food6.png"" style=""width:200px; border:14px solid green;"">","null","","","","","","","","","",""
"","image-keyboard-response","306","151263","0.0-364.0","3BXQMRHWK0KOXR0YLR50CWKVLOCMU0","AZ8JL3QNIPY4U","3THR0FZ95PF7SK0MYRNAOUHTWA4OLV","","697.7999999970198","img/food3.png","74","698.7000000029802","1","1","1","2","1,0.7,0,1,0.7,0,0.7,0,1","1,0.7,0,1,0.7,0,0.7,0,1","1","false",""
"","html-keyboard-response","307","151565","0.0-365.0","3BXQMRHWK0KOXR0YLR50CWKVLOCMU0","AZ8JL3QNIPY4U","3THR0FZ95PF7SK0MYRNAOUHTWA4OLV","","null","<img src=""img/food3.png"" style=""width:200px; border:14px solid green;"">","null","","","","","","","","","",""
"","image-keyboard-response","308","151863","0.0-367.0","3BXQMRHWK0KOXR0YLR50CWKVLOCMU0","AZ8JL3QNIPY4U","3THR0FZ95PF7SK0MYRNAOUHTWA4OLV","","297.5","img/food3.png","74","298.29999999701977","1","1","1","2","1,0.7,0,1,0.7,0,0.7,0,1","1,0.7,0,1,0.7,0,0.7,0,1","1","false",""
"","html-keyboard-response","309","152165","0.0-368.0","3BXQMRHWK0KOXR0YLR50CWKVLOCMU0","AZ8JL3QNIPY4U","3THR0FZ95PF7SK0MYRNAOUHTWA4OLV","","null","<img src=""img/food3.png"" style=""width:200px; border:14px solid green;"">","null","","","","","","","","","",""
"","image-keyboard-response","310","152463","0.0-370.0","3BXQMRHWK0KOXR0YLR50CWKVLOCMU0","AZ8JL3QNIPY4U","3THR0FZ95PF7SK0MYRNAOUHTWA4OLV","","297.3999999985099","img/food3.png","74","298.09999999403954","1","1","1","2","1,0.7,0,1,0.7,0,0.7,0,1","1,0.7,0,1,0.7,0,0.7,0,1","1","false",""
"","html-keyboard-response","311","152765","0.0-371.0","3BXQMRHWK0KOXR0YLR50CWKVLOCMU0","AZ8JL3QNIPY4U","3THR0FZ95PF7SK0MYRNAOUHTWA4OLV","","null","<img src=""img/food3.png"" style=""width:200px; border:14px solid green;"">","null","","","","","","","","","",""
"","image-keyboard-response","312","153335","0.0-373.0","3BXQMRHWK0KOXR0YLR50CWKVLOCMU0","AZ8JL3QNIPY4U","3THR0FZ95PF7SK0MYRNAOUHTWA4OLV","","569.3999999985099","img/food5.png","76","570.1999999955297","3","1","3","2","1,0.7,0,1,0.7,0,0.7,0,1","1,0.7,0,1,0.7,0,0.7,0,1","1","false",""
"","html-keyboard-response","313","153637","0.0-374.0","3BXQMRHWK0KOXR0YLR50CWKVLOCMU0","AZ8JL3QNIPY4U","3THR0FZ95PF7SK0MYRNAOUHTWA4OLV","","null","<img src=""img/food5.png"" style=""width:200px; border:14px solid green;"">","null","","","","","","","","","",""
"","image-keyboard-response","314","154151","0.0-376.0","3BXQMRHWK0KOXR0YLR50CWKVLOCMU0","AZ8JL3QNIPY4U","3THR0FZ95PF7SK0MYRNAOUHTWA4OLV","","513.3000000044703","img/food6.png","75","514.1999999955297","2","1","2","2","1,0.7,0,1,0.7,0,0.7,0,1","1,0.7,0,1,0.7,0,0.7,0,1","1","false",""
"","html-keyboard-response","315","154453","0.0-377.0","3BXQMRHWK0KOXR0YLR50CWKVLOCMU0","AZ8JL3QNIPY4U","3THR0FZ95PF7SK0MYRNAOUHTWA4OLV","","null","<img src=""img/food6.png"" style=""width:200px; border:14px solid green;"">","null","","","","","","","","","",""
"","image-keyboard-response","316","154927","0.0-379.0","3BXQMRHWK0KOXR0YLR50CWKVLOCMU0","AZ8JL3QNIPY4U","3THR0FZ95PF7SK0MYRNAOUHTWA4OLV","","473.5","img/food5.png","76","474.29999999701977","3","1","3","2","1,0.7,0,1,0.7,0,0.7,0,1","1,0.7,0,1,0.7,0,0.7,0,1","1","false",""
"","html-keyboard-response","317","155229","0.0-380.0","3BXQMRHWK0KOXR0YLR50CWKVLOCMU0","AZ8JL3QNIPY4U","3THR0FZ95PF7SK0MYRNAOUHTWA4OLV","","null","<img src=""img/food5.png"" style=""width:200px; border:14px solid green;"">","null","","","","","","","","","",""
"","image-keyboard-response","318","155759","0.0-382.0","3BXQMRHWK0KOXR0YLR50CWKVLOCMU0","AZ8JL3QNIPY4U","3THR0FZ95PF7SK0MYRNAOUHTWA4OLV","","528.8999999985099","img/food6.png","75","529.7000000029802","2","0","2","2","1,0.7,0,1,0.7,0,0.7,0,1","1,0.7,0,1,0.7,0,0.7,0,1","1","false",""
"","html-keyboard-response","319","156061","0.0-383.0","3BXQMRHWK0KOXR0YLR50CWKVLOCMU0","AZ8JL3QNIPY4U","3THR0FZ95PF7SK0MYRNAOUHTWA4OLV","","null","<img src=""img/food6.png"" style=""width:200px;border:14px solid red;"">","null","","","","","","","","","",""
"","image-keyboard-response","320","156551","0.0-385.0","3BXQMRHWK0KOXR0YLR50CWKVLOCMU0","AZ8JL3QNIPY4U","3THR0FZ95PF7SK0MYRNAOUHTWA4OLV","","489.29999999701977","img/food3.png","76","490.1000000014901","3","0","1","2","1,0.7,0,1,0.7,0,0.7,0,1","1,0.7,0,1,0.7,0,0.7,0,1","1","false",""
"","html-keyboard-response","321","156854","0.0-386.0","3BXQMRHWK0KOXR0YLR50CWKVLOCMU0","AZ8JL3QNIPY4U","3THR0FZ95PF7SK0MYRNAOUHTWA4OLV","","null","<img src=""img/food3.png"" style=""width:200px;border:14px solid red;"">","null","","","","","","","","","",""
"","image-keyboard-response","322","157519","0.0-388.0","3BXQMRHWK0KOXR0YLR50CWKVLOCMU0","AZ8JL3QNIPY4U","3THR0FZ95PF7SK0MYRNAOUHTWA4OLV","","664.7000000029802","img/food6.png","75","665.2000000029802","2","1","2","2","1,0.7,0,1,0.7,0,0.7,0,1","1,0.7,0,1,0.7,0,0.7,0,1","1","false",""
"","html-keyboard-response","323","157820","0.0-389.0","3BXQMRHWK0KOXR0YLR50CWKVLOCMU0","AZ8JL3QNIPY4U","3THR0FZ95PF7SK0MYRNAOUHTWA4OLV","","null","<img src=""img/food6.png"" style=""width:200px; border:14px solid green;"">","null","","","","","","","","","",""
"","image-keyboard-response","324","158319","0.0-391.0","3BXQMRHWK0KOXR0YLR50CWKVLOCMU0","AZ8JL3QNIPY4U","3THR0FZ95PF7SK0MYRNAOUHTWA4OLV","","497.6000000014901","img/food3.png","74","498.30000000447035","1","1","1","2","1,0.7,0,1,0.7,0,0.7,0,1","1,0.7,0,1,0.7,0,0.7,0,1","1","false",""
"","html-keyboard-response","325","158621","0.0-392.0","3BXQMRHWK0KOXR0YLR50CWKVLOCMU0","AZ8JL3QNIPY4U","3THR0FZ95PF7SK0MYRNAOUHTWA4OLV","","null","<img src=""img/food3.png"" style=""width:200px; border:14px solid green;"">","null","","","","","","","","","",""
"","image-keyboard-response","326","159143","0.0-394.0","3BXQMRHWK0KOXR0YLR50CWKVLOCMU0","AZ8JL3QNIPY4U","3THR0FZ95PF7SK0MYRNAOUHTWA4OLV","","521.3999999985099","img/food5.png","76","522.0999999940395","3","1","3","2","1,0.7,0,1,0.7,0,0.7,0,1","1,0.7,0,1,0.7,0,0.7,0,1","1","false",""
"","html-keyboard-response","327","159445","0.0-395.0","3BXQMRHWK0KOXR0YLR50CWKVLOCMU0","AZ8JL3QNIPY4U","3THR0FZ95PF7SK0MYRNAOUHTWA4OLV","","null","<img src=""img/food5.png"" style=""width:200px; border:14px solid green;"">","null","","","","","","","","","",""
"","image-keyboard-response","328","159815","0.0-397.0","3BXQMRHWK0KOXR0YLR50CWKVLOCMU0","AZ8JL3QNIPY4U","3THR0FZ95PF7SK0MYRNAOUHTWA4OLV","","368.5","img/food5.png","76","369.20000000298023","3","1","3","2","1,0.7,0,1,0.7,0,0.7,0,1","1,0.7,0,1,0.7,0,0.7,0,1","1","false",""
"","html-keyboard-response","329","160117","0.0-398.0","3BXQMRHWK0KOXR0YLR50CWKVLOCMU0","AZ8JL3QNIPY4U","3THR0FZ95PF7SK0MYRNAOUHTWA4OLV","","null","<img src=""img/food5.png"" style=""width:200px; border:14px solid green;"">","null","","","","","","","","","",""
"","image-keyboard-response","330","160432","0.0-400.0","3BXQMRHWK0KOXR0YLR50CWKVLOCMU0","AZ8JL3QNIPY4U","3THR0FZ95PF7SK0MYRNAOUHTWA4OLV","","314.1000000014901","img/food5.png","76","314.8999999985099","3","1","3","2","1,0.7,0,1,0.7,0,0.7,0,1","1,0.7,0,1,0.7,0,0.7,0,1","1","false",""
"","html-keyboard-response","331","160734","0.0-401.0","3BXQMRHWK0KOXR0YLR50CWKVLOCMU0","AZ8JL3QNIPY4U","3THR0FZ95PF7SK0MYRNAOUHTWA4OLV","","null","<img src=""img/food5.png"" style=""width:200px; border:14px solid green;"">","null","","","","","","","","","",""
"","image-keyboard-response","332","161543","0.0-403.0","3BXQMRHWK0KOXR0YLR50CWKVLOCMU0","AZ8JL3QNIPY4U","3THR0FZ95PF7SK0MYRNAOUHTWA4OLV","","808.5","img/food6.png","75","809.2000000029802","2","1","2","2","1,0.7,0,1,0.7,0,0.7,0,1","1,0.7,0,1,0.7,0,0.7,0,1","1","false",""
"","html-keyboard-response","333","161846","0.0-404.0","3BXQMRHWK0KOXR0YLR50CWKVLOCMU0","AZ8JL3QNIPY4U","3THR0FZ95PF7SK0MYRNAOUHTWA4OLV","","null","<img src=""img/food6.png"" style=""width:200px; border:14px solid green;"">","null","","","","","","","","","",""
"","image-keyboard-response","334","162463","0.0-406.0","3BXQMRHWK0KOXR0YLR50CWKVLOCMU0","AZ8JL3QNIPY4U","3THR0FZ95PF7SK0MYRNAOUHTWA4OLV","","616.3999999985099","img/food3.png","74","617.2000000029802","1","1","1","2","1,0.7,0,1,0.7,0,0.7,0,1","1,0.7,0,1,0.7,0,0.7,0,1","1","false",""
"","html-keyboard-response","335","162766","0.0-407.0","3BXQMRHWK0KOXR0YLR50CWKVLOCMU0","AZ8JL3QNIPY4U","3THR0FZ95PF7SK0MYRNAOUHTWA4OLV","","null","<img src=""img/food3.png"" style=""width:200px; border:14px solid green;"">","null","","","","","","","","","",""
"","image-keyboard-response","336","163367","0.0-409.0","3BXQMRHWK0KOXR0YLR50CWKVLOCMU0","AZ8JL3QNIPY4U","3THR0FZ95PF7SK0MYRNAOUHTWA4OLV","","600.1999999955297","img/food5.png","76","600.8999999985099","3","1","3","2","1,0.7,0,1,0.7,0,0.7,0,1","1,0.7,0,1,0.7,0,0.7,0,1","1","false",""
"","html-keyboard-response","337","163668","0.0-410.0","3BXQMRHWK0KOXR0YLR50CWKVLOCMU0","AZ8JL3QNIPY4U","3THR0FZ95PF7SK0MYRNAOUHTWA4OLV","","null","<img src=""img/food5.png"" style=""width:200px; border:14px solid green;"">","null","","","","","","","","","",""
"","image-keyboard-response","338","164255","0.0-412.0","3BXQMRHWK0KOXR0YLR50CWKVLOCMU0","AZ8JL3QNIPY4U","3THR0FZ95PF7SK0MYRNAOUHTWA4OLV","","586","img/food6.png","75","586.7000000029802","2","0","2","2","1,0.7,0,1,0.7,0,0.7,0,1","1,0.7,0,1,0.7,0,0.7,0,1","1","false",""
"","html-keyboard-response","339","164557","0.0-413.0","3BXQMRHWK0KOXR0YLR50CWKVLOCMU0","AZ8JL3QNIPY4U","3THR0FZ95PF7SK0MYRNAOUHTWA4OLV","","null","<img src=""img/food6.png"" style=""width:200px;border:14px solid red;"">","null","","","","","","","","","",""
"","image-keyboard-response","340","164879","0.0-415.0","3BXQMRHWK0KOXR0YLR50CWKVLOCMU0","AZ8JL3QNIPY4U","3THR0FZ95PF7SK0MYRNAOUHTWA4OLV","","320.8999999985099","img/food6.png","75","321.79999999701977","2","1","2","2","1,0.7,0,1,0.7,0,0.7,0,1","1,0.7,0,1,0.7,0,0.7,0,1","1","false",""
"","html-keyboard-response","341","165181","0.0-416.0","3BXQMRHWK0KOXR0YLR50CWKVLOCMU0","AZ8JL3QNIPY4U","3THR0FZ95PF7SK0MYRNAOUHTWA4OLV","","null","<img src=""img/food6.png"" style=""width:200px; border:14px solid green;"">","null","","","","","","","","","",""
"","image-keyboard-response","342","165767","0.0-418.0","3BXQMRHWK0KOXR0YLR50CWKVLOCMU0","AZ8JL3QNIPY4U","3THR0FZ95PF7SK0MYRNAOUHTWA4OLV","","584.9000000059605","img/food5.png","76","585.6000000014901","3","1","3","2","1,0.7,0,1,0.7,0,0.7,0,1","1,0.7,0,1,0.7,0,0.7,0,1","1","false",""
"","html-keyboard-response","343","166068","0.0-419.0","3BXQMRHWK0KOXR0YLR50CWKVLOCMU0","AZ8JL3QNIPY4U","3THR0FZ95PF7SK0MYRNAOUHTWA4OLV","","null","<img src=""img/food5.png"" style=""width:200px; border:14px solid green;"">","null","","","","","","","","","",""
"","image-keyboard-response","344","166639","0.0-421.0","3BXQMRHWK0KOXR0YLR50CWKVLOCMU0","AZ8JL3QNIPY4U","3THR0FZ95PF7SK0MYRNAOUHTWA4OLV","","569.3000000044703","img/food6.png","75","570.1000000014901","2","1","2","2","1,0.7,0,1,0.7,0,0.7,0,1","1,0.7,0,1,0.7,0,0.7,0,1","1","false",""
"","html-keyboard-response","345","166940","0.0-422.0","3BXQMRHWK0KOXR0YLR50CWKVLOCMU0","AZ8JL3QNIPY4U","3THR0FZ95PF7SK0MYRNAOUHTWA4OLV","","null","<img src=""img/food6.png"" style=""width:200px; border:14px solid green;"">","null","","","","","","","","","",""
"","image-keyboard-response","346","167199","0.0-424.0","3BXQMRHWK0KOXR0YLR50CWKVLOCMU0","AZ8JL3QNIPY4U","3THR0FZ95PF7SK0MYRNAOUHTWA4OLV","","257.70000000298023","img/food6.png","75","258.6000000014901","2","1","2","2","1,0.7,0,1,0.7,0,0.7,0,1","1,0.7,0,1,0.7,0,0.7,0,1","1","false",""
"","html-keyboard-response","347","167500","0.0-425.0","3BXQMRHWK0KOXR0YLR50CWKVLOCMU0","AZ8JL3QNIPY4U","3THR0FZ95PF7SK0MYRNAOUHTWA4OLV","","null","<img src=""img/food6.png"" style=""width:200px; border:14px solid green;"">","null","","","","","","","","","",""
"","image-keyboard-response","348","168127","0.0-427.0","3BXQMRHWK0KOXR0YLR50CWKVLOCMU0","AZ8JL3QNIPY4U","3THR0FZ95PF7SK0MYRNAOUHTWA4OLV","","626","img/food3.png","74","626.7999999970198","1","1","1","2","1,0.7,0,1,0.7,0,0.7,0,1","1,0.7,0,1,0.7,0,0.7,0,1","1","false",""
"","html-keyboard-response","349","168428","0.0-428.0","3BXQMRHWK0KOXR0YLR50CWKVLOCMU0","AZ8JL3QNIPY4U","3THR0FZ95PF7SK0MYRNAOUHTWA4OLV","","null","<img src=""img/food3.png"" style=""width:200px; border:14px solid green;"">","null","","","","","","","","","",""
"","image-keyboard-response","350","168735","0.0-430.0","3BXQMRHWK0KOXR0YLR50CWKVLOCMU0","AZ8JL3QNIPY4U","3THR0FZ95PF7SK0MYRNAOUHTWA4OLV","","305.8999999985099","img/food3.png","74","306.6000000014901","1","1","1","2","1,0.7,0,1,0.7,0,0.7,0,1","1,0.7,0,1,0.7,0,0.7,0,1","1","false",""
"","html-keyboard-response","351","169037","0.0-431.0","3BXQMRHWK0KOXR0YLR50CWKVLOCMU0","AZ8JL3QNIPY4U","3THR0FZ95PF7SK0MYRNAOUHTWA4OLV","","null","<img src=""img/food3.png"" style=""width:200px; border:14px solid green;"">","null","","","","","","","","","",""
"","image-keyboard-response","352","169367","0.0-433.0","3BXQMRHWK0KOXR0YLR50CWKVLOCMU0","AZ8JL3QNIPY4U","3THR0FZ95PF7SK0MYRNAOUHTWA4OLV","","328.20000000298023","img/food3.png","74","329.19999999552965","1","1","1","2","1,0.7,0,1,0.7,0,0.7,0,1","1,0.7,0,1,0.7,0,0.7,0,1","1","false",""
"","html-keyboard-response","353","169669","0.0-434.0","3BXQMRHWK0KOXR0YLR50CWKVLOCMU0","AZ8JL3QNIPY4U","3THR0FZ95PF7SK0MYRNAOUHTWA4OLV","","null","<img src=""img/food3.png"" style=""width:200px; border:14px solid green;"">","null","","","","","","","","","",""
"","image-keyboard-response","354","170247","0.0-436.0","3BXQMRHWK0KOXR0YLR50CWKVLOCMU0","AZ8JL3QNIPY4U","3THR0FZ95PF7SK0MYRNAOUHTWA4OLV","","577.3000000044703","img/food5.png","76","578","3","1","3","2","1,0.7,0,1,0.7,0,0.7,0,1","1,0.7,0,1,0.7,0,0.7,0,1","1","false",""
"","html-keyboard-response","355","170549","0.0-437.0","3BXQMRHWK0KOXR0YLR50CWKVLOCMU0","AZ8JL3QNIPY4U","3THR0FZ95PF7SK0MYRNAOUHTWA4OLV","","null","<img src=""img/food5.png"" style=""width:200px; border:14px solid green;"">","null","","","","","","","","","",""
"","image-keyboard-response","356","171199","0.0-439.0","3BXQMRHWK0KOXR0YLR50CWKVLOCMU0","AZ8JL3QNIPY4U","3THR0FZ95PF7SK0MYRNAOUHTWA4OLV","","648.3999999985099","img/food3.png","74","649.2000000029802","1","1","1","2","1,0.7,0,1,0.7,0,0.7,0,1","1,0.7,0,1,0.7,0,0.7,0,1","1","false",""
"","html-keyboard-response","357","171501","0.0-440.0","3BXQMRHWK0KOXR0YLR50CWKVLOCMU0","AZ8JL3QNIPY4U","3THR0FZ95PF7SK0MYRNAOUHTWA4OLV","","null","<img src=""img/food3.png"" style=""width:200px; border:14px solid green;"">","null","","","","","","","","","",""
"","image-keyboard-response","358","172079","0.0-442.0","3BXQMRHWK0KOXR0YLR50CWKVLOCMU0","AZ8JL3QNIPY4U","3THR0FZ95PF7SK0MYRNAOUHTWA4OLV","","577.1000000014901","img/food5.png","76","578","3","1","3","2","1,0.7,0,1,0.7,0,0.7,0,1","1,0.7,0,1,0.7,0,0.7,0,1","1","false",""
"","html-keyboard-response","359","172381","0.0-443.0","3BXQMRHWK0KOXR0YLR50CWKVLOCMU0","AZ8JL3QNIPY4U","3THR0FZ95PF7SK0MYRNAOUHTWA4OLV","","null","<img src=""img/food5.png"" style=""width:200px; border:14px solid green;"">","null","","","","","","","","","",""
"","image-keyboard-response","360","172927","0.0-445.0","3BXQMRHWK0KOXR0YLR50CWKVLOCMU0","AZ8JL3QNIPY4U","3THR0FZ95PF7SK0MYRNAOUHTWA4OLV","","544.7000000029802","img/food6.png","75","545.5","2","0","2","2","1,0.7,0,1,0.7,0,0.7,0,1","1,0.7,0,1,0.7,0,0.7,0,1","1","false",""
"","html-keyboard-response","361","173228","0.0-446.0","3BXQMRHWK0KOXR0YLR50CWKVLOCMU0","AZ8JL3QNIPY4U","3THR0FZ95PF7SK0MYRNAOUHTWA4OLV","","null","<img src=""img/food6.png"" style=""width:200px;border:14px solid red;"">","null","","","","","","","","","",""
"","image-keyboard-response","362","173775","0.0-448.0","3BXQMRHWK0KOXR0YLR50CWKVLOCMU0","AZ8JL3QNIPY4U","3THR0FZ95PF7SK0MYRNAOUHTWA4OLV","","546.1000000014901","img/food5.png","76","546.7999999970198","3","1","3","2","1,0.7,0,1,0.7,0,0.7,0,1","1,0.7,0,1,0.7,0,0.7,0,1","1","false",""
"","html-keyboard-response","363","174076","0.0-449.0","3BXQMRHWK0KOXR0YLR50CWKVLOCMU0","AZ8JL3QNIPY4U","3THR0FZ95PF7SK0MYRNAOUHTWA4OLV","","null","<img src=""img/food5.png"" style=""width:200px; border:14px solid green;"">","null","","","","","","","","","",""
"","image-keyboard-response","364","174687","0.0-451.0","3BXQMRHWK0KOXR0YLR50CWKVLOCMU0","AZ8JL3QNIPY4U","3THR0FZ95PF7SK0MYRNAOUHTWA4OLV","","609.7999999970198","img/food6.png","75","610.7000000029802","2","1","2","2","1,0.7,0,1,0.7,0,0.7,0,1","1,0.7,0,1,0.7,0,0.7,0,1","1","false",""
"","html-keyboard-response","365","174988","0.0-452.0","3BXQMRHWK0KOXR0YLR50CWKVLOCMU0","AZ8JL3QNIPY4U","3THR0FZ95PF7SK0MYRNAOUHTWA4OLV","","null","<img src=""img/food6.png"" style=""width:200px; border:14px solid green;"">","null","","","","","","","","","",""
"","instructions","366","177379","0.0-454.0","3BXQMRHWK0KOXR0YLR50CWKVLOCMU0","AZ8JL3QNIPY4U","3THR0FZ95PF7SK0MYRNAOUHTWA4OLV","[{""page_index"":0,""viewing_time"":2390}]","2390.5","","","","","","","","","","","",""
"","survey-text","367","281092","0.0-455.0","3BXQMRHWK0KOXR0YLR50CWKVLOCMU0","AZ8JL3QNIPY4U","3THR0FZ95PF7SK0MYRNAOUHTWA4OLV","","103710.39999999851","","","","","","","","","","","","{""Q0"":""AZ8JL3QNIPY4U""}"
