"success","trial_type","trial_index","time_elapsed","internal_node_id","assignmentID","mturkID","hitID","view_history","rt","stimulus","key_press","reactionTime","a","r","s","cond","reward_cond","reward_cond_actual","reward_matrix_idx","warning","responses"
"true","fullscreen","0","8764","0.0-0.0","3IRIK4HM3B6QMUY6CKDJTU13PEM6CD","AZNIEFUIVB2H0","3HUR21WDDUBEMSLDIXZW1FAIHVWXYO","","","","","","","","","","","","","",""
"","instructions","1","45461","0.0-1.0","3IRIK4HM3B6QMUY6CKDJTU13PEM6CD","AZNIEFUIVB2H0","3HUR21WDDUBEMSLDIXZW1FAIHVWXYO","[{""page_index"":0,""viewing_time"":2380},{""page_index"":1,""viewing_time"":2268},{""page_index"":2,""viewing_time"":2355},{""page_index"":3,""viewing_time"":11942},{""page_index"":4,""viewing_time"":5319},{""page_index"":5,""viewing_time"":6437},{""page_index"":6,""viewing_time"":5995}]","36696","","","","","","","","","","","",""
"","image-keyboard-response","2","46791","0.0-2.0","3IRIK4HM3B6QMUY6CKDJTU13PEM6CD","AZNIEFUIVB2H0","3HUR21WDDUBEMSLDIXZW1FAIHVWXYO","","1329","img/food4.png","75","1330","2","1","1","1","1,0.5,0,1,0.5,0,0.5,0,1","1,0.5,0,1,0.5,0,0.5,0,1","1","",""
"","html-keyboard-response","3","47104","0.0-3.0","3IRIK4HM3B6QMUY6CKDJTU13PEM6CD","AZNIEFUIVB2H0","3HUR21WDDUBEMSLDIXZW1FAIHVWXYO","","null","<img src=""img/food4.png"" style=""width:200px; border:14px solid green;"">","null","","","","","","","","","",""
"","image-keyboard-response","4","48020","0.0-4.0","3IRIK4HM3B6QMUY6CKDJTU13PEM6CD","AZNIEFUIVB2H0","3HUR21WDDUBEMSLDIXZW1FAIHVWXYO","","914","img/food4.png","75","916","2","0","1","1","1,0.5,0,1,0.5,0,0.5,0,1","1,0.5,0,1,0.5,0,0.5,0,1","1","",""
"","html-keyboard-response","5","48335","0.0-5.0","3IRIK4HM3B6QMUY6CKDJTU13PEM6CD","AZNIEFUIVB2H0","3HUR21WDDUBEMSLDIXZW1FAIHVWXYO","","null","<img src=""img/food4.png"" style=""width:200px;border:14px solid red;"">","null","","","","","","","","","",""
"","image-keyboard-response","6","49493","0.0-6.0","3IRIK4HM3B6QMUY6CKDJTU13PEM6CD","AZNIEFUIVB2H0","3HUR21WDDUBEMSLDIXZW1FAIHVWXYO","","1156","img/food3.png","75","1158","2","0","3","1","1,0.5,0,1,0.5,0,0.5,0,1","1,0.5,0,1,0.5,0,0.5,0,1","1","",""
"","html-keyboard-response","7","49807","0.0-7.0","3IRIK4HM3B6QMUY6CKDJTU13PEM6CD","AZNIEFUIVB2H0","3HUR21WDDUBEMSLDIXZW1FAIHVWXYO","","null","<img src=""img/food3.png"" style=""width:200px;border:14px solid red;"">","null","","","","","","","","","",""
"","image-keyboard-response","8","50505","0.0-8.0","3IRIK4HM3B6QMUY6CKDJTU13PEM6CD","AZNIEFUIVB2H0","3HUR21WDDUBEMSLDIXZW1FAIHVWXYO","","698","img/food3.png","75","698","2","0","3","1","1,0.5,0,1,0.5,0,0.5,0,1","1,0.5,0,1,0.5,0,0.5,0,1","1","",""
"","html-keyboard-response","9","50822","0.0-9.0","3IRIK4HM3B6QMUY6CKDJTU13PEM6CD","AZNIEFUIVB2H0","3HUR21WDDUBEMSLDIXZW1FAIHVWXYO","","null","<img src=""img/food3.png"" style=""width:200px;border:14px solid red;"">","null","","","","","","","","","",""
"","image-keyboard-response","10","51653","0.0-10.0","3IRIK4HM3B6QMUY6CKDJTU13PEM6CD","AZNIEFUIVB2H0","3HUR21WDDUBEMSLDIXZW1FAIHVWXYO","","831","img/food6.png","74","832","1","1","2","1","1,0.5,0,1,0.5,0,0.5,0,1","1,0.5,0,1,0.5,0,0.5,0,1","1","",""
"","html-keyboard-response","11","51962","0.0-11.0","3IRIK4HM3B6QMUY6CKDJTU13PEM6CD","AZNIEFUIVB2H0","3HUR21WDDUBEMSLDIXZW1FAIHVWXYO","","null","<img src=""img/food6.png"" style=""width:200px; border:14px solid green;"">","null","","","","","","","","","",""
"","image-keyboard-response","12","52821","0.0-12.0","3IRIK4HM3B6QMUY6CKDJTU13PEM6CD","AZNIEFUIVB2H0","3HUR21WDDUBEMSLDIXZW1FAIHVWXYO","","858","img/food4.png","75","858","2","0","1","1","1,0.5,0,1,0.5,0,0.5,0,1","1,0.5,0,1,0.5,0,0.5,0,1","1","",""
"","html-keyboard-response","13","53126","0.0-13.0","3IRIK4HM3B6QMUY6CKDJTU13PEM6CD","AZNIEFUIVB2H0","3HUR21WDDUBEMSLDIXZW1FAIHVWXYO","","null","<img src=""img/food4.png"" style=""width:200px;border:14px solid red;"">","null","","","","","","","","","",""
"","image-keyboard-response","14","53894","0.0-14.0","3IRIK4HM3B6QMUY6CKDJTU13PEM6CD","AZNIEFUIVB2H0","3HUR21WDDUBEMSLDIXZW1FAIHVWXYO","","766","img/food6.png","74","767","1","1","2","1","1,0.5,0,1,0.5,0,0.5,0,1","1,0.5,0,1,0.5,0,0.5,0,1","1","",""
"","html-keyboard-response","15","54197","0.0-15.0","3IRIK4HM3B6QMUY6CKDJTU13PEM6CD","AZNIEFUIVB2H0","3HUR21WDDUBEMSLDIXZW1FAIHVWXYO","","null","<img src=""img/food6.png"" style=""width:200px; border:14px solid green;"">","null","","","","","","","","","",""
"","image-keyboard-response","16","55097","0.0-16.0","3IRIK4HM3B6QMUY6CKDJTU13PEM6CD","AZNIEFUIVB2H0","3HUR21WDDUBEMSLDIXZW1FAIHVWXYO","","899","img/food6.png","74","899","1","1","2","1","1,0.5,0,1,0.5,0,0.5,0,1","1,0.5,0,1,0.5,0,0.5,0,1","1","",""
"","html-keyboard-response","17","55409","0.0-17.0","3IRIK4HM3B6QMUY6CKDJTU13PEM6CD","AZNIEFUIVB2H0","3HUR21WDDUBEMSLDIXZW1FAIHVWXYO","","null","<img src=""img/food6.png"" style=""width:200px; border:14px solid green;"">","null","","","","","","","","","",""
"","image-keyboard-response","18","56420","0.0-18.0","3IRIK4HM3B6QMUY6CKDJTU13PEM6CD","AZNIEFUIVB2H0","3HUR21WDDUBEMSLDIXZW1FAIHVWXYO","","1010","img/food3.png","76","1011","3","1","3","1","1,0.5,0,1,0.5,0,0.5,0,1","1,0.5,0,1,0.5,0,0.5,0,1","1","",""
"","html-keyboard-response","19","56732","0.0-19.0","3IRIK4HM3B6QMUY6CKDJTU13PEM6CD","AZNIEFUIVB2H0","3HUR21WDDUBEMSLDIXZW1FAIHVWXYO","","null","<img src=""img/food3.png"" style=""width:200px; border:14px solid green;"">","null","","","","","","","","","",""
"","image-keyboard-response","20","57747","0.0-20.0","3IRIK4HM3B6QMUY6CKDJTU13PEM6CD","AZNIEFUIVB2H0","3HUR21WDDUBEMSLDIXZW1FAIHVWXYO","","1015","img/food4.png","75","1016","2","0","1","1","1,0.5,0,1,0.5,0,0.5,0,1","1,0.5,0,1,0.5,0,0.5,0,1","1","",""
"","html-keyboard-response","21","58063","0.0-21.0","3IRIK4HM3B6QMUY6CKDJTU13PEM6CD","AZNIEFUIVB2H0","3HUR21WDDUBEMSLDIXZW1FAIHVWXYO","","null","<img src=""img/food4.png"" style=""width:200px;border:14px solid red;"">","null","","","","","","","","","",""
"","image-keyboard-response","22","59592","0.0-22.0","3IRIK4HM3B6QMUY6CKDJTU13PEM6CD","AZNIEFUIVB2H0","3HUR21WDDUBEMSLDIXZW1FAIHVWXYO","","1527","img/food6.png","76","1529","3","0","2","1","1,0.5,0,1,0.5,0,0.5,0,1","1,0.5,0,1,0.5,0,0.5,0,1","1","",""
"","html-keyboard-response","23","59899","0.0-23.0","3IRIK4HM3B6QMUY6CKDJTU13PEM6CD","AZNIEFUIVB2H0","3HUR21WDDUBEMSLDIXZW1FAIHVWXYO","","null","<img src=""img/food6.png"" style=""width:200px;border:14px solid red;"">","null","","","","","","","","","",""
"","image-keyboard-response","24","60690","0.0-24.0","3IRIK4HM3B6QMUY6CKDJTU13PEM6CD","AZNIEFUIVB2H0","3HUR21WDDUBEMSLDIXZW1FAIHVWXYO","","789","img/food3.png","75","791","2","0","3","1","1,0.5,0,1,0.5,0,0.5,0,1","1,0.5,0,1,0.5,0,0.5,0,1","1","",""
"","html-keyboard-response","25","60993","0.0-25.0","3IRIK4HM3B6QMUY6CKDJTU13PEM6CD","AZNIEFUIVB2H0","3HUR21WDDUBEMSLDIXZW1FAIHVWXYO","","null","<img src=""img/food3.png"" style=""width:200px;border:14px solid red;"">","null","","","","","","","","","",""
"","image-keyboard-response","26","62123","0.0-26.0","3IRIK4HM3B6QMUY6CKDJTU13PEM6CD","AZNIEFUIVB2H0","3HUR21WDDUBEMSLDIXZW1FAIHVWXYO","","1129","img/food6.png","74","1129","1","1","2","1","1,0.5,0,1,0.5,0,0.5,0,1","1,0.5,0,1,0.5,0,0.5,0,1","1","",""
"","html-keyboard-response","27","62431","0.0-27.0","3IRIK4HM3B6QMUY6CKDJTU13PEM6CD","AZNIEFUIVB2H0","3HUR21WDDUBEMSLDIXZW1FAIHVWXYO","","null","<img src=""img/food6.png"" style=""width:200px; border:14px solid green;"">","null","","","","","","","","","",""
"","image-keyboard-response","28","63420","0.0-28.0","3IRIK4HM3B6QMUY6CKDJTU13PEM6CD","AZNIEFUIVB2H0","3HUR21WDDUBEMSLDIXZW1FAIHVWXYO","","987","img/food4.png","75","989","2","0","1","1","1,0.5,0,1,0.5,0,0.5,0,1","1,0.5,0,1,0.5,0,0.5,0,1","1","",""
"","html-keyboard-response","29","63734","0.0-29.0","3IRIK4HM3B6QMUY6CKDJTU13PEM6CD","AZNIEFUIVB2H0","3HUR21WDDUBEMSLDIXZW1FAIHVWXYO","","null","<img src=""img/food4.png"" style=""width:200px;border:14px solid red;"">","null","","","","","","","","","",""
"","image-keyboard-response","30","64444","0.0-30.0","3IRIK4HM3B6QMUY6CKDJTU13PEM6CD","AZNIEFUIVB2H0","3HUR21WDDUBEMSLDIXZW1FAIHVWXYO","","708","img/food4.png","74","709","1","1","1","1","1,0.5,0,1,0.5,0,0.5,0,1","1,0.5,0,1,0.5,0,0.5,0,1","1","",""
"","html-keyboard-response","31","64753","0.0-31.0","3IRIK4HM3B6QMUY6CKDJTU13PEM6CD","AZNIEFUIVB2H0","3HUR21WDDUBEMSLDIXZW1FAIHVWXYO","","null","<img src=""img/food4.png"" style=""width:200px; border:14px solid green;"">","null","","","","","","","","","",""
"","image-keyboard-response","32","65727","0.0-32.0","3IRIK4HM3B6QMUY6CKDJTU13PEM6CD","AZNIEFUIVB2H0","3HUR21WDDUBEMSLDIXZW1FAIHVWXYO","","973","img/food4.png","74","973","1","1","1","1","1,0.5,0,1,0.5,0,0.5,0,1","1,0.5,0,1,0.5,0,0.5,0,1","1","",""
"","html-keyboard-response","33","66035","0.0-33.0","3IRIK4HM3B6QMUY6CKDJTU13PEM6CD","AZNIEFUIVB2H0","3HUR21WDDUBEMSLDIXZW1FAIHVWXYO","","null","<img src=""img/food4.png"" style=""width:200px; border:14px solid green;"">","null","","","","","","","","","",""
"","image-keyboard-response","34","66724","0.0-34.0","3IRIK4HM3B6QMUY6CKDJTU13PEM6CD","AZNIEFUIVB2H0","3HUR21WDDUBEMSLDIXZW1FAIHVWXYO","","687","img/food6.png","74","687","1","1","2","1","1,0.5,0,1,0.5,0,0.5,0,1","1,0.5,0,1,0.5,0,0.5,0,1","1","",""
"","html-keyboard-response","35","67031","0.0-35.0","3IRIK4HM3B6QMUY6CKDJTU13PEM6CD","AZNIEFUIVB2H0","3HUR21WDDUBEMSLDIXZW1FAIHVWXYO","","null","<img src=""img/food6.png"" style=""width:200px; border:14px solid green;"">","null","","","","","","","","","",""
"","image-keyboard-response","36","67615","0.0-36.0","3IRIK4HM3B6QMUY6CKDJTU13PEM6CD","AZNIEFUIVB2H0","3HUR21WDDUBEMSLDIXZW1FAIHVWXYO","","584","img/food6.png","74","585","1","1","2","1","1,0.5,0,1,0.5,0,0.5,0,1","1,0.5,0,1,0.5,0,0.5,0,1","1","",""
"","html-keyboard-response","37","67918","0.0-37.0","3IRIK4HM3B6QMUY6CKDJTU13PEM6CD","AZNIEFUIVB2H0","3HUR21WDDUBEMSLDIXZW1FAIHVWXYO","","null","<img src=""img/food6.png"" style=""width:200px; border:14px solid green;"">","null","","","","","","","","","",""
"","image-keyboard-response","38","68649","0.0-38.0","3IRIK4HM3B6QMUY6CKDJTU13PEM6CD","AZNIEFUIVB2H0","3HUR21WDDUBEMSLDIXZW1FAIHVWXYO","","730","img/food4.png","74","730","1","1","1","1","1,0.5,0,1,0.5,0,0.5,0,1","1,0.5,0,1,0.5,0,0.5,0,1","1","",""
"","html-keyboard-response","39","68956","0.0-39.0","3IRIK4HM3B6QMUY6CKDJTU13PEM6CD","AZNIEFUIVB2H0","3HUR21WDDUBEMSLDIXZW1FAIHVWXYO","","null","<img src=""img/food4.png"" style=""width:200px; border:14px solid green;"">","null","","","","","","","","","",""
"","image-keyboard-response","40","69591","0.0-40.0","3IRIK4HM3B6QMUY6CKDJTU13PEM6CD","AZNIEFUIVB2H0","3HUR21WDDUBEMSLDIXZW1FAIHVWXYO","","633","img/food3.png","74","634","1","1","3","1","1,0.5,0,1,0.5,0,0.5,0,1","1,0.5,0,1,0.5,0,0.5,0,1","1","",""
"","html-keyboard-response","41","69900","0.0-41.0","3IRIK4HM3B6QMUY6CKDJTU13PEM6CD","AZNIEFUIVB2H0","3HUR21WDDUBEMSLDIXZW1FAIHVWXYO","","null","<img src=""img/food3.png"" style=""width:200px; border:14px solid green;"">","null","","","","","","","","","",""
"","image-keyboard-response","42","70537","0.0-42.0","3IRIK4HM3B6QMUY6CKDJTU13PEM6CD","AZNIEFUIVB2H0","3HUR21WDDUBEMSLDIXZW1FAIHVWXYO","","636","img/food6.png","74","636","1","1","2","1","1,0.5,0,1,0.5,0,0.5,0,1","1,0.5,0,1,0.5,0,0.5,0,1","1","",""
"","html-keyboard-response","43","70852","0.0-43.0","3IRIK4HM3B6QMUY6CKDJTU13PEM6CD","AZNIEFUIVB2H0","3HUR21WDDUBEMSLDIXZW1FAIHVWXYO","","null","<img src=""img/food6.png"" style=""width:200px; border:14px solid green;"">","null","","","","","","","","","",""
"","image-keyboard-response","44","71350","0.0-44.0","3IRIK4HM3B6QMUY6CKDJTU13PEM6CD","AZNIEFUIVB2H0","3HUR21WDDUBEMSLDIXZW1FAIHVWXYO","","496","img/food6.png","74","497","1","1","2","1","1,0.5,0,1,0.5,0,0.5,0,1","1,0.5,0,1,0.5,0,0.5,0,1","1","",""
"","html-keyboard-response","45","71653","0.0-45.0","3IRIK4HM3B6QMUY6CKDJTU13PEM6CD","AZNIEFUIVB2H0","3HUR21WDDUBEMSLDIXZW1FAIHVWXYO","","null","<img src=""img/food6.png"" style=""width:200px; border:14px solid green;"">","null","","","","","","","","","",""
"","image-keyboard-response","46","72232","0.0-46.0","3IRIK4HM3B6QMUY6CKDJTU13PEM6CD","AZNIEFUIVB2H0","3HUR21WDDUBEMSLDIXZW1FAIHVWXYO","","578","img/food4.png","74","578","1","1","1","1","1,0.5,0,1,0.5,0,0.5,0,1","1,0.5,0,1,0.5,0,0.5,0,1","1","",""
"","html-keyboard-response","47","72533","0.0-47.0","3IRIK4HM3B6QMUY6CKDJTU13PEM6CD","AZNIEFUIVB2H0","3HUR21WDDUBEMSLDIXZW1FAIHVWXYO","","null","<img src=""img/food4.png"" style=""width:200px; border:14px solid green;"">","null","","","","","","","","","",""
"","image-keyboard-response","48","73042","0.0-48.0","3IRIK4HM3B6QMUY6CKDJTU13PEM6CD","AZNIEFUIVB2H0","3HUR21WDDUBEMSLDIXZW1FAIHVWXYO","","508","img/food4.png","74","509","1","1","1","1","1,0.5,0,1,0.5,0,0.5,0,1","1,0.5,0,1,0.5,0,0.5,0,1","1","",""
"","html-keyboard-response","49","73350","0.0-49.0","3IRIK4HM3B6QMUY6CKDJTU13PEM6CD","AZNIEFUIVB2H0","3HUR21WDDUBEMSLDIXZW1FAIHVWXYO","","null","<img src=""img/food4.png"" style=""width:200px; border:14px solid green;"">","null","","","","","","","","","",""
"","image-keyboard-response","50","73910","0.0-50.0","3IRIK4HM3B6QMUY6CKDJTU13PEM6CD","AZNIEFUIVB2H0","3HUR21WDDUBEMSLDIXZW1FAIHVWXYO","","560","img/food6.png","74","560","1","1","2","1","1,0.5,0,1,0.5,0,0.5,0,1","1,0.5,0,1,0.5,0,0.5,0,1","1","",""
"","html-keyboard-response","51","74215","0.0-51.0","3IRIK4HM3B6QMUY6CKDJTU13PEM6CD","AZNIEFUIVB2H0","3HUR21WDDUBEMSLDIXZW1FAIHVWXYO","","null","<img src=""img/food6.png"" style=""width:200px; border:14px solid green;"">","null","","","","","","","","","",""
"","image-keyboard-response","52","74642","0.0-52.0","3IRIK4HM3B6QMUY6CKDJTU13PEM6CD","AZNIEFUIVB2H0","3HUR21WDDUBEMSLDIXZW1FAIHVWXYO","","426","img/food6.png","74","426","1","1","2","1","1,0.5,0,1,0.5,0,0.5,0,1","1,0.5,0,1,0.5,0,0.5,0,1","1","",""
"","html-keyboard-response","53","74956","0.0-53.0","3IRIK4HM3B6QMUY6CKDJTU13PEM6CD","AZNIEFUIVB2H0","3HUR21WDDUBEMSLDIXZW1FAIHVWXYO","","null","<img src=""img/food6.png"" style=""width:200px; border:14px solid green;"">","null","","","","","","","","","",""
"","image-keyboard-response","54","75585","0.0-54.0","3IRIK4HM3B6QMUY6CKDJTU13PEM6CD","AZNIEFUIVB2H0","3HUR21WDDUBEMSLDIXZW1FAIHVWXYO","","627","img/food3.png","74","628","1","1","3","1","1,0.5,0,1,0.5,0,0.5,0,1","1,0.5,0,1,0.5,0,0.5,0,1","1","",""
"","html-keyboard-response","55","75895","0.0-55.0","3IRIK4HM3B6QMUY6CKDJTU13PEM6CD","AZNIEFUIVB2H0","3HUR21WDDUBEMSLDIXZW1FAIHVWXYO","","null","<img src=""img/food3.png"" style=""width:200px; border:14px solid green;"">","null","","","","","","","","","",""
"","image-keyboard-response","56","76341","0.0-56.0","3IRIK4HM3B6QMUY6CKDJTU13PEM6CD","AZNIEFUIVB2H0","3HUR21WDDUBEMSLDIXZW1FAIHVWXYO","","444","img/food4.png","74","445","1","1","1","1","1,0.5,0,1,0.5,0,0.5,0,1","1,0.5,0,1,0.5,0,0.5,0,1","1","",""
"","html-keyboard-response","57","76644","0.0-57.0","3IRIK4HM3B6QMUY6CKDJTU13PEM6CD","AZNIEFUIVB2H0","3HUR21WDDUBEMSLDIXZW1FAIHVWXYO","","null","<img src=""img/food4.png"" style=""width:200px; border:14px solid green;"">","null","","","","","","","","","",""
"","image-keyboard-response","58","77028","0.0-58.0","3IRIK4HM3B6QMUY6CKDJTU13PEM6CD","AZNIEFUIVB2H0","3HUR21WDDUBEMSLDIXZW1FAIHVWXYO","","384","img/food3.png","74","384","1","0","3","1","1,0.5,0,1,0.5,0,0.5,0,1","1,0.5,0,1,0.5,0,0.5,0,1","1","",""
"","html-keyboard-response","59","77344","0.0-59.0","3IRIK4HM3B6QMUY6CKDJTU13PEM6CD","AZNIEFUIVB2H0","3HUR21WDDUBEMSLDIXZW1FAIHVWXYO","","null","<img src=""img/food3.png"" style=""width:200px;border:14px solid red;"">","null","","","","","","","","","",""
"","image-keyboard-response","60","77765","0.0-60.0","3IRIK4HM3B6QMUY6CKDJTU13PEM6CD","AZNIEFUIVB2H0","3HUR21WDDUBEMSLDIXZW1FAIHVWXYO","","420","img/food6.png","74","420","1","1","2","1","1,0.5,0,1,0.5,0,0.5,0,1","1,0.5,0,1,0.5,0,0.5,0,1","1","",""
"","html-keyboard-response","61","78078","0.0-61.0","3IRIK4HM3B6QMUY6CKDJTU13PEM6CD","AZNIEFUIVB2H0","3HUR21WDDUBEMSLDIXZW1FAIHVWXYO","","null","<img src=""img/food6.png"" style=""width:200px; border:14px solid green;"">","null","","","","","","","","","",""
"","image-keyboard-response","62","78511","0.0-62.0","3IRIK4HM3B6QMUY6CKDJTU13PEM6CD","AZNIEFUIVB2H0","3HUR21WDDUBEMSLDIXZW1FAIHVWXYO","","433","img/food6.png","74","433","1","1","2","1","1,0.5,0,1,0.5,0,0.5,0,1","1,0.5,0,1,0.5,0,0.5,0,1","1","",""
"","html-keyboard-response","63","78828","0.0-63.0","3IRIK4HM3B6QMUY6CKDJTU13PEM6CD","AZNIEFUIVB2H0","3HUR21WDDUBEMSLDIXZW1FAIHVWXYO","","null","<img src=""img/food6.png"" style=""width:200px; border:14px solid green;"">","null","","","","","","","","","",""
"","image-keyboard-response","64","79334","0.0-64.0","3IRIK4HM3B6QMUY6CKDJTU13PEM6CD","AZNIEFUIVB2H0","3HUR21WDDUBEMSLDIXZW1FAIHVWXYO","","505","img/food4.png","74","505","1","1","1","1","1,0.5,0,1,0.5,0,0.5,0,1","1,0.5,0,1,0.5,0,0.5,0,1","1","",""
"","html-keyboard-response","65","79638","0.0-65.0","3IRIK4HM3B6QMUY6CKDJTU13PEM6CD","AZNIEFUIVB2H0","3HUR21WDDUBEMSLDIXZW1FAIHVWXYO","","null","<img src=""img/food4.png"" style=""width:200px; border:14px solid green;"">","null","","","","","","","","","",""
"","image-keyboard-response","66","80156","0.0-66.0","3IRIK4HM3B6QMUY6CKDJTU13PEM6CD","AZNIEFUIVB2H0","3HUR21WDDUBEMSLDIXZW1FAIHVWXYO","","517","img/food4.png","74","517","1","1","1","1","1,0.5,0,1,0.5,0,0.5,0,1","1,0.5,0,1,0.5,0,0.5,0,1","1","",""
"","html-keyboard-response","67","80464","0.0-67.0","3IRIK4HM3B6QMUY6CKDJTU13PEM6CD","AZNIEFUIVB2H0","3HUR21WDDUBEMSLDIXZW1FAIHVWXYO","","null","<img src=""img/food4.png"" style=""width:200px; border:14px solid green;"">","null","","","","","","","","","",""
"","image-keyboard-response","68","80963","0.0-68.0","3IRIK4HM3B6QMUY6CKDJTU13PEM6CD","AZNIEFUIVB2H0","3HUR21WDDUBEMSLDIXZW1FAIHVWXYO","","496","img/food4.png","74","497","1","1","1","1","1,0.5,0,1,0.5,0,0.5,0,1","1,0.5,0,1,0.5,0,0.5,0,1","1","",""
"","html-keyboard-response","69","81277","0.0-69.0","3IRIK4HM3B6QMUY6CKDJTU13PEM6CD","AZNIEFUIVB2H0","3HUR21WDDUBEMSLDIXZW1FAIHVWXYO","","null","<img src=""img/food4.png"" style=""width:200px; border:14px solid green;"">","null","","","","","","","","","",""
"","image-keyboard-response","70","81769","0.0-70.0","3IRIK4HM3B6QMUY6CKDJTU13PEM6CD","AZNIEFUIVB2H0","3HUR21WDDUBEMSLDIXZW1FAIHVWXYO","","492","img/food3.png","74","492","1","0","3","1","1,0.5,0,1,0.5,0,0.5,0,1","1,0.5,0,1,0.5,0,0.5,0,1","1","",""
"","html-keyboard-response","71","82080","0.0-71.0","3IRIK4HM3B6QMUY6CKDJTU13PEM6CD","AZNIEFUIVB2H0","3HUR21WDDUBEMSLDIXZW1FAIHVWXYO","","null","<img src=""img/food3.png"" style=""width:200px;border:14px solid red;"">","null","","","","","","","","","",""
"","image-keyboard-response","72","82526","0.0-72.0","3IRIK4HM3B6QMUY6CKDJTU13PEM6CD","AZNIEFUIVB2H0","3HUR21WDDUBEMSLDIXZW1FAIHVWXYO","","446","img/food4.png","74","447","1","1","1","1","1,0.5,0,1,0.5,0,0.5,0,1","1,0.5,0,1,0.5,0,0.5,0,1","1","",""
"","html-keyboard-response","73","82831","0.0-73.0","3IRIK4HM3B6QMUY6CKDJTU13PEM6CD","AZNIEFUIVB2H0","3HUR21WDDUBEMSLDIXZW1FAIHVWXYO","","null","<img src=""img/food4.png"" style=""width:200px; border:14px solid green;"">","null","","","","","","","","","",""
"","image-keyboard-response","74","83344","0.0-74.0","3IRIK4HM3B6QMUY6CKDJTU13PEM6CD","AZNIEFUIVB2H0","3HUR21WDDUBEMSLDIXZW1FAIHVWXYO","","513","img/food3.png","74","513","1","1","3","1","1,0.5,0,1,0.5,0,0.5,0,1","1,0.5,0,1,0.5,0,0.5,0,1","1","",""
"","html-keyboard-response","75","83644","0.0-75.0","3IRIK4HM3B6QMUY6CKDJTU13PEM6CD","AZNIEFUIVB2H0","3HUR21WDDUBEMSLDIXZW1FAIHVWXYO","","null","<img src=""img/food3.png"" style=""width:200px; border:14px solid green;"">","null","","","","","","","","","",""
"","image-keyboard-response","76","84111","0.0-76.0","3IRIK4HM3B6QMUY6CKDJTU13PEM6CD","AZNIEFUIVB2H0","3HUR21WDDUBEMSLDIXZW1FAIHVWXYO","","464","img/food3.png","74","464","1","1","3","1","1,0.5,0,1,0.5,0,0.5,0,1","1,0.5,0,1,0.5,0,0.5,0,1","1","",""
"","html-keyboard-response","77","84416","0.0-77.0","3IRIK4HM3B6QMUY6CKDJTU13PEM6CD","AZNIEFUIVB2H0","3HUR21WDDUBEMSLDIXZW1FAIHVWXYO","","null","<img src=""img/food3.png"" style=""width:200px; border:14px solid green;"">","null","","","","","","","","","",""
"","image-keyboard-response","78","84841","0.0-78.0","3IRIK4HM3B6QMUY6CKDJTU13PEM6CD","AZNIEFUIVB2H0","3HUR21WDDUBEMSLDIXZW1FAIHVWXYO","","426","img/food3.png","74","426","1","0","3","1","1,0.5,0,1,0.5,0,0.5,0,1","1,0.5,0,1,0.5,0,0.5,0,1","1","",""
"","html-keyboard-response","79","85144","0.0-79.0","3IRIK4HM3B6QMUY6CKDJTU13PEM6CD","AZNIEFUIVB2H0","3HUR21WDDUBEMSLDIXZW1FAIHVWXYO","","null","<img src=""img/food3.png"" style=""width:200px;border:14px solid red;"">","null","","","","","","","","","",""
"","image-keyboard-response","80","85659","0.0-80.0","3IRIK4HM3B6QMUY6CKDJTU13PEM6CD","AZNIEFUIVB2H0","3HUR21WDDUBEMSLDIXZW1FAIHVWXYO","","512","img/food3.png","74","513","1","0","3","1","1,0.5,0,1,0.5,0,0.5,0,1","1,0.5,0,1,0.5,0,0.5,0,1","1","",""
"","html-keyboard-response","81","85972","0.0-81.0","3IRIK4HM3B6QMUY6CKDJTU13PEM6CD","AZNIEFUIVB2H0","3HUR21WDDUBEMSLDIXZW1FAIHVWXYO","","null","<img src=""img/food3.png"" style=""width:200px;border:14px solid red;"">","null","","","","","","","","","",""
"","image-keyboard-response","82","86465","0.0-82.0","3IRIK4HM3B6QMUY6CKDJTU13PEM6CD","AZNIEFUIVB2H0","3HUR21WDDUBEMSLDIXZW1FAIHVWXYO","","491","img/food6.png","74","492","1","1","2","1","1,0.5,0,1,0.5,0,0.5,0,1","1,0.5,0,1,0.5,0,0.5,0,1","1","",""
"","html-keyboard-response","83","86772","0.0-83.0","3IRIK4HM3B6QMUY6CKDJTU13PEM6CD","AZNIEFUIVB2H0","3HUR21WDDUBEMSLDIXZW1FAIHVWXYO","","null","<img src=""img/food6.png"" style=""width:200px; border:14px solid green;"">","null","","","","","","","","","",""
"","image-keyboard-response","84","87222","0.0-84.0","3IRIK4HM3B6QMUY6CKDJTU13PEM6CD","AZNIEFUIVB2H0","3HUR21WDDUBEMSLDIXZW1FAIHVWXYO","","449","img/food3.png","74","450","1","1","3","1","1,0.5,0,1,0.5,0,0.5,0,1","1,0.5,0,1,0.5,0,0.5,0,1","1","",""
"","html-keyboard-response","85","87530","0.0-85.0","3IRIK4HM3B6QMUY6CKDJTU13PEM6CD","AZNIEFUIVB2H0","3HUR21WDDUBEMSLDIXZW1FAIHVWXYO","","null","<img src=""img/food3.png"" style=""width:200px; border:14px solid green;"">","null","","","","","","","","","",""
"","image-keyboard-response","86","87948","0.0-86.0","3IRIK4HM3B6QMUY6CKDJTU13PEM6CD","AZNIEFUIVB2H0","3HUR21WDDUBEMSLDIXZW1FAIHVWXYO","","416","img/food3.png","74","418","1","1","3","1","1,0.5,0,1,0.5,0,0.5,0,1","1,0.5,0,1,0.5,0,0.5,0,1","1","",""
"","html-keyboard-response","87","88253","0.0-87.0","3IRIK4HM3B6QMUY6CKDJTU13PEM6CD","AZNIEFUIVB2H0","3HUR21WDDUBEMSLDIXZW1FAIHVWXYO","","null","<img src=""img/food3.png"" style=""width:200px; border:14px solid green;"">","null","","","","","","","","","",""
"","image-keyboard-response","88","88761","0.0-88.0","3IRIK4HM3B6QMUY6CKDJTU13PEM6CD","AZNIEFUIVB2H0","3HUR21WDDUBEMSLDIXZW1FAIHVWXYO","","506","img/food4.png","74","507","1","1","1","1","1,0.5,0,1,0.5,0,0.5,0,1","1,0.5,0,1,0.5,0,0.5,0,1","1","",""
"","html-keyboard-response","89","89067","0.0-89.0","3IRIK4HM3B6QMUY6CKDJTU13PEM6CD","AZNIEFUIVB2H0","3HUR21WDDUBEMSLDIXZW1FAIHVWXYO","","null","<img src=""img/food4.png"" style=""width:200px; border:14px solid green;"">","null","","","","","","","","","",""
"","image-keyboard-response","90","90480","0.0-90.0","3IRIK4HM3B6QMUY6CKDJTU13PEM6CD","AZNIEFUIVB2H0","3HUR21WDDUBEMSLDIXZW1FAIHVWXYO","","1412","img/food6.png","74","1414","1","1","2","1","1,0.5,0,1,0.5,0,0.5,0,1","1,0.5,0,1,0.5,0,0.5,0,1","1","",""
"","html-keyboard-response","91","90785","0.0-91.0","3IRIK4HM3B6QMUY6CKDJTU13PEM6CD","AZNIEFUIVB2H0","3HUR21WDDUBEMSLDIXZW1FAIHVWXYO","","null","<img src=""img/food6.png"" style=""width:200px; border:14px solid green;"">","null","","","","","","","","","",""
"","image-keyboard-response","92","91303","0.0-92.0","3IRIK4HM3B6QMUY6CKDJTU13PEM6CD","AZNIEFUIVB2H0","3HUR21WDDUBEMSLDIXZW1FAIHVWXYO","","516","img/food6.png","74","516","1","1","2","1","1,0.5,0,1,0.5,0,0.5,0,1","1,0.5,0,1,0.5,0,0.5,0,1","1","",""
"","html-keyboard-response","93","91614","0.0-93.0","3IRIK4HM3B6QMUY6CKDJTU13PEM6CD","AZNIEFUIVB2H0","3HUR21WDDUBEMSLDIXZW1FAIHVWXYO","","null","<img src=""img/food6.png"" style=""width:200px; border:14px solid green;"">","null","","","","","","","","","",""
"","image-keyboard-response","94","92114","0.0-94.0","3IRIK4HM3B6QMUY6CKDJTU13PEM6CD","AZNIEFUIVB2H0","3HUR21WDDUBEMSLDIXZW1FAIHVWXYO","","500","img/food6.png","74","500","1","1","2","1","1,0.5,0,1,0.5,0,0.5,0,1","1,0.5,0,1,0.5,0,0.5,0,1","1","",""
"","html-keyboard-response","95","92430","0.0-95.0","3IRIK4HM3B6QMUY6CKDJTU13PEM6CD","AZNIEFUIVB2H0","3HUR21WDDUBEMSLDIXZW1FAIHVWXYO","","null","<img src=""img/food6.png"" style=""width:200px; border:14px solid green;"">","null","","","","","","","","","",""
"","image-keyboard-response","96","93240","0.0-96.0","3IRIK4HM3B6QMUY6CKDJTU13PEM6CD","AZNIEFUIVB2H0","3HUR21WDDUBEMSLDIXZW1FAIHVWXYO","","810","img/food3.png","74","810","1","0","3","1","1,0.5,0,1,0.5,0,0.5,0,1","1,0.5,0,1,0.5,0,0.5,0,1","1","",""
"","html-keyboard-response","97","93543","0.0-97.0","3IRIK4HM3B6QMUY6CKDJTU13PEM6CD","AZNIEFUIVB2H0","3HUR21WDDUBEMSLDIXZW1FAIHVWXYO","","null","<img src=""img/food3.png"" style=""width:200px;border:14px solid red;"">","null","","","","","","","","","",""
"","image-keyboard-response","98","93983","0.0-98.0","3IRIK4HM3B6QMUY6CKDJTU13PEM6CD","AZNIEFUIVB2H0","3HUR21WDDUBEMSLDIXZW1FAIHVWXYO","","439","img/food6.png","74","441","1","1","2","1","1,0.5,0,1,0.5,0,0.5,0,1","1,0.5,0,1,0.5,0,0.5,0,1","1","",""
"","html-keyboard-response","99","94292","0.0-99.0","3IRIK4HM3B6QMUY6CKDJTU13PEM6CD","AZNIEFUIVB2H0","3HUR21WDDUBEMSLDIXZW1FAIHVWXYO","","null","<img src=""img/food6.png"" style=""width:200px; border:14px solid green;"">","null","","","","","","","","","",""
"","image-keyboard-response","100","94725","0.0-100.0","3IRIK4HM3B6QMUY6CKDJTU13PEM6CD","AZNIEFUIVB2H0","3HUR21WDDUBEMSLDIXZW1FAIHVWXYO","","431","img/food4.png","74","433","1","1","1","1","1,0.5,0,1,0.5,0,0.5,0,1","1,0.5,0,1,0.5,0,0.5,0,1","1","",""
"","html-keyboard-response","101","95041","0.0-101.0","3IRIK4HM3B6QMUY6CKDJTU13PEM6CD","AZNIEFUIVB2H0","3HUR21WDDUBEMSLDIXZW1FAIHVWXYO","","null","<img src=""img/food4.png"" style=""width:200px; border:14px solid green;"">","null","","","","","","","","","",""
"","image-keyboard-response","102","95452","0.0-102.0","3IRIK4HM3B6QMUY6CKDJTU13PEM6CD","AZNIEFUIVB2H0","3HUR21WDDUBEMSLDIXZW1FAIHVWXYO","","411","img/food3.png","74","412","1","0","3","1","1,0.5,0,1,0.5,0,0.5,0,1","1,0.5,0,1,0.5,0,0.5,0,1","1","",""
"","html-keyboard-response","103","95759","0.0-103.0","3IRIK4HM3B6QMUY6CKDJTU13PEM6CD","AZNIEFUIVB2H0","3HUR21WDDUBEMSLDIXZW1FAIHVWXYO","","null","<img src=""img/food3.png"" style=""width:200px;border:14px solid red;"">","null","","","","","","","","","",""
"","image-keyboard-response","104","96098","0.0-104.0","3IRIK4HM3B6QMUY6CKDJTU13PEM6CD","AZNIEFUIVB2H0","3HUR21WDDUBEMSLDIXZW1FAIHVWXYO","","338","img/food4.png","74","340","1","1","1","1","1,0.5,0,1,0.5,0,0.5,0,1","1,0.5,0,1,0.5,0,0.5,0,1","1","",""
"","html-keyboard-response","105","96401","0.0-105.0","3IRIK4HM3B6QMUY6CKDJTU13PEM6CD","AZNIEFUIVB2H0","3HUR21WDDUBEMSLDIXZW1FAIHVWXYO","","null","<img src=""img/food4.png"" style=""width:200px; border:14px solid green;"">","null","","","","","","","","","",""
"","image-keyboard-response","106","97080","0.0-106.0","3IRIK4HM3B6QMUY6CKDJTU13PEM6CD","AZNIEFUIVB2H0","3HUR21WDDUBEMSLDIXZW1FAIHVWXYO","","678","img/food6.png","75","679","2","0","2","1","1,0.5,0,1,0.5,0,0.5,0,1","1,0.5,0,1,0.5,0,0.5,0,1","1","",""
"","html-keyboard-response","107","97388","0.0-107.0","3IRIK4HM3B6QMUY6CKDJTU13PEM6CD","AZNIEFUIVB2H0","3HUR21WDDUBEMSLDIXZW1FAIHVWXYO","","null","<img src=""img/food6.png"" style=""width:200px;border:14px solid red;"">","null","","","","","","","","","",""
"","image-keyboard-response","108","98048","0.0-108.0","3IRIK4HM3B6QMUY6CKDJTU13PEM6CD","AZNIEFUIVB2H0","3HUR21WDDUBEMSLDIXZW1FAIHVWXYO","","660","img/food3.png","74","661","1","1","3","1","1,0.5,0,1,0.5,0,0.5,0,1","1,0.5,0,1,0.5,0,0.5,0,1","1","",""
"","html-keyboard-response","109","98354","0.0-109.0","3IRIK4HM3B6QMUY6CKDJTU13PEM6CD","AZNIEFUIVB2H0","3HUR21WDDUBEMSLDIXZW1FAIHVWXYO","","null","<img src=""img/food3.png"" style=""width:200px; border:14px solid green;"">","null","","","","","","","","","",""
"","image-keyboard-response","110","99085","0.0-110.0","3IRIK4HM3B6QMUY6CKDJTU13PEM6CD","AZNIEFUIVB2H0","3HUR21WDDUBEMSLDIXZW1FAIHVWXYO","","731","img/food4.png","74","731","1","1","1","1","1,0.5,0,1,0.5,0,0.5,0,1","1,0.5,0,1,0.5,0,0.5,0,1","1","",""
"","html-keyboard-response","111","99401","0.0-111.0","3IRIK4HM3B6QMUY6CKDJTU13PEM6CD","AZNIEFUIVB2H0","3HUR21WDDUBEMSLDIXZW1FAIHVWXYO","","null","<img src=""img/food4.png"" style=""width:200px; border:14px solid green;"">","null","","","","","","","","","",""
"","image-keyboard-response","112","99947","0.0-112.0","3IRIK4HM3B6QMUY6CKDJTU13PEM6CD","AZNIEFUIVB2H0","3HUR21WDDUBEMSLDIXZW1FAIHVWXYO","","545","img/food6.png","74","546","1","1","2","1","1,0.5,0,1,0.5,0,0.5,0,1","1,0.5,0,1,0.5,0,0.5,0,1","1","",""
"","html-keyboard-response","113","100261","0.0-113.0","3IRIK4HM3B6QMUY6CKDJTU13PEM6CD","AZNIEFUIVB2H0","3HUR21WDDUBEMSLDIXZW1FAIHVWXYO","","null","<img src=""img/food6.png"" style=""width:200px; border:14px solid green;"">","null","","","","","","","","","",""
"","image-keyboard-response","114","100649","0.0-114.0","3IRIK4HM3B6QMUY6CKDJTU13PEM6CD","AZNIEFUIVB2H0","3HUR21WDDUBEMSLDIXZW1FAIHVWXYO","","388","img/food6.png","74","389","1","1","2","1","1,0.5,0,1,0.5,0,0.5,0,1","1,0.5,0,1,0.5,0,0.5,0,1","1","",""
"","html-keyboard-response","115","100965","0.0-115.0","3IRIK4HM3B6QMUY6CKDJTU13PEM6CD","AZNIEFUIVB2H0","3HUR21WDDUBEMSLDIXZW1FAIHVWXYO","","null","<img src=""img/food6.png"" style=""width:200px; border:14px solid green;"">","null","","","","","","","","","",""
"","image-keyboard-response","116","101391","0.0-116.0","3IRIK4HM3B6QMUY6CKDJTU13PEM6CD","AZNIEFUIVB2H0","3HUR21WDDUBEMSLDIXZW1FAIHVWXYO","","426","img/food3.png","74","426","1","1","3","1","1,0.5,0,1,0.5,0,0.5,0,1","1,0.5,0,1,0.5,0,0.5,0,1","1","",""
"","html-keyboard-response","117","101696","0.0-117.0","3IRIK4HM3B6QMUY6CKDJTU13PEM6CD","AZNIEFUIVB2H0","3HUR21WDDUBEMSLDIXZW1FAIHVWXYO","","null","<img src=""img/food3.png"" style=""width:200px; border:14px solid green;"">","null","","","","","","","","","",""
"","image-keyboard-response","118","102047","0.0-118.0","3IRIK4HM3B6QMUY6CKDJTU13PEM6CD","AZNIEFUIVB2H0","3HUR21WDDUBEMSLDIXZW1FAIHVWXYO","","351","img/food4.png","74","352","1","1","1","1","1,0.5,0,1,0.5,0,0.5,0,1","1,0.5,0,1,0.5,0,0.5,0,1","1","",""
"","html-keyboard-response","119","102356","0.0-119.0","3IRIK4HM3B6QMUY6CKDJTU13PEM6CD","AZNIEFUIVB2H0","3HUR21WDDUBEMSLDIXZW1FAIHVWXYO","","null","<img src=""img/food4.png"" style=""width:200px; border:14px solid green;"">","null","","","","","","","","","",""
"","image-keyboard-response","120","102689","0.0-120.0","3IRIK4HM3B6QMUY6CKDJTU13PEM6CD","AZNIEFUIVB2H0","3HUR21WDDUBEMSLDIXZW1FAIHVWXYO","","333","img/food4.png","74","334","1","1","1","1","1,0.5,0,1,0.5,0,0.5,0,1","1,0.5,0,1,0.5,0,0.5,0,1","1","",""
"","html-keyboard-response","121","102997","0.0-121.0","3IRIK4HM3B6QMUY6CKDJTU13PEM6CD","AZNIEFUIVB2H0","3HUR21WDDUBEMSLDIXZW1FAIHVWXYO","","null","<img src=""img/food4.png"" style=""width:200px; border:14px solid green;"">","null","","","","","","","","","",""
"","image-keyboard-response","122","103412","0.0-122.0","3IRIK4HM3B6QMUY6CKDJTU13PEM6CD","AZNIEFUIVB2H0","3HUR21WDDUBEMSLDIXZW1FAIHVWXYO","","413","img/food3.png","74","414","1","1","3","1","1,0.5,0,1,0.5,0,0.5,0,1","1,0.5,0,1,0.5,0,0.5,0,1","1","",""
"","html-keyboard-response","123","103716","0.0-123.0","3IRIK4HM3B6QMUY6CKDJTU13PEM6CD","AZNIEFUIVB2H0","3HUR21WDDUBEMSLDIXZW1FAIHVWXYO","","null","<img src=""img/food3.png"" style=""width:200px; border:14px solid green;"">","null","","","","","","","","","",""
"","image-keyboard-response","124","104097","0.0-124.0","3IRIK4HM3B6QMUY6CKDJTU13PEM6CD","AZNIEFUIVB2H0","3HUR21WDDUBEMSLDIXZW1FAIHVWXYO","","380","img/food4.png","74","381","1","1","1","1","1,0.5,0,1,0.5,0,0.5,0,1","1,0.5,0,1,0.5,0,0.5,0,1","1","",""
"","html-keyboard-response","125","104409","0.0-125.0","3IRIK4HM3B6QMUY6CKDJTU13PEM6CD","AZNIEFUIVB2H0","3HUR21WDDUBEMSLDIXZW1FAIHVWXYO","","null","<img src=""img/food4.png"" style=""width:200px; border:14px solid green;"">","null","","","","","","","","","",""
"","image-keyboard-response","126","104854","0.0-126.0","3IRIK4HM3B6QMUY6CKDJTU13PEM6CD","AZNIEFUIVB2H0","3HUR21WDDUBEMSLDIXZW1FAIHVWXYO","","444","img/food4.png","74","445","1","1","1","1","1,0.5,0,1,0.5,0,0.5,0,1","1,0.5,0,1,0.5,0,0.5,0,1","1","",""
"","html-keyboard-response","127","105159","0.0-127.0","3IRIK4HM3B6QMUY6CKDJTU13PEM6CD","AZNIEFUIVB2H0","3HUR21WDDUBEMSLDIXZW1FAIHVWXYO","","null","<img src=""img/food4.png"" style=""width:200px; border:14px solid green;"">","null","","","","","","","","","",""
"","image-keyboard-response","128","105531","0.0-128.0","3IRIK4HM3B6QMUY6CKDJTU13PEM6CD","AZNIEFUIVB2H0","3HUR21WDDUBEMSLDIXZW1FAIHVWXYO","","371","img/food3.png","74","373","1","0","3","1","1,0.5,0,1,0.5,0,0.5,0,1","1,0.5,0,1,0.5,0,0.5,0,1","1","",""
"","html-keyboard-response","129","105846","0.0-129.0","3IRIK4HM3B6QMUY6CKDJTU13PEM6CD","AZNIEFUIVB2H0","3HUR21WDDUBEMSLDIXZW1FAIHVWXYO","","null","<img src=""img/food3.png"" style=""width:200px;border:14px solid red;"">","null","","","","","","","","","",""
"","image-keyboard-response","130","106302","0.0-130.0","3IRIK4HM3B6QMUY6CKDJTU13PEM6CD","AZNIEFUIVB2H0","3HUR21WDDUBEMSLDIXZW1FAIHVWXYO","","455","img/food3.png","74","455","1","1","3","1","1,0.5,0,1,0.5,0,0.5,0,1","1,0.5,0,1,0.5,0,0.5,0,1","1","",""
"","html-keyboard-response","131","106611","0.0-131.0","3IRIK4HM3B6QMUY6CKDJTU13PEM6CD","AZNIEFUIVB2H0","3HUR21WDDUBEMSLDIXZW1FAIHVWXYO","","null","<img src=""img/food3.png"" style=""width:200px; border:14px solid green;"">","null","","","","","","","","","",""
"","image-keyboard-response","132","107410","0.0-132.0","3IRIK4HM3B6QMUY6CKDJTU13PEM6CD","AZNIEFUIVB2H0","3HUR21WDDUBEMSLDIXZW1FAIHVWXYO","","798","img/food6.png","74","798","1","1","2","1","1,0.5,0,1,0.5,0,0.5,0,1","1,0.5,0,1,0.5,0,0.5,0,1","1","",""
"","html-keyboard-response","133","107725","0.0-133.0","3IRIK4HM3B6QMUY6CKDJTU13PEM6CD","AZNIEFUIVB2H0","3HUR21WDDUBEMSLDIXZW1FAIHVWXYO","","null","<img src=""img/food6.png"" style=""width:200px; border:14px solid green;"">","null","","","","","","","","","",""
"","image-keyboard-response","134","108247","0.0-134.0","3IRIK4HM3B6QMUY6CKDJTU13PEM6CD","AZNIEFUIVB2H0","3HUR21WDDUBEMSLDIXZW1FAIHVWXYO","","520","img/food6.png","74","521","1","1","2","1","1,0.5,0,1,0.5,0,0.5,0,1","1,0.5,0,1,0.5,0,0.5,0,1","1","",""
"","html-keyboard-response","135","108559","0.0-135.0","3IRIK4HM3B6QMUY6CKDJTU13PEM6CD","AZNIEFUIVB2H0","3HUR21WDDUBEMSLDIXZW1FAIHVWXYO","","null","<img src=""img/food6.png"" style=""width:200px; border:14px solid green;"">","null","","","","","","","","","",""
"","image-keyboard-response","136","109731","0.0-136.0","3IRIK4HM3B6QMUY6CKDJTU13PEM6CD","AZNIEFUIVB2H0","3HUR21WDDUBEMSLDIXZW1FAIHVWXYO","","1171","img/food3.png","76","1173","3","1","3","1","1,0.5,0,1,0.5,0,0.5,0,1","1,0.5,0,1,0.5,0,0.5,0,1","1","",""
"","html-keyboard-response","137","110046","0.0-137.0","3IRIK4HM3B6QMUY6CKDJTU13PEM6CD","AZNIEFUIVB2H0","3HUR21WDDUBEMSLDIXZW1FAIHVWXYO","","null","<img src=""img/food3.png"" style=""width:200px; border:14px solid green;"">","null","","","","","","","","","",""
"","image-keyboard-response","138","110668","0.0-138.0","3IRIK4HM3B6QMUY6CKDJTU13PEM6CD","AZNIEFUIVB2H0","3HUR21WDDUBEMSLDIXZW1FAIHVWXYO","","622","img/food3.png","76","622","3","1","3","1","1,0.5,0,1,0.5,0,0.5,0,1","1,0.5,0,1,0.5,0,0.5,0,1","1","",""
"","html-keyboard-response","139","110984","0.0-139.0","3IRIK4HM3B6QMUY6CKDJTU13PEM6CD","AZNIEFUIVB2H0","3HUR21WDDUBEMSLDIXZW1FAIHVWXYO","","null","<img src=""img/food3.png"" style=""width:200px; border:14px solid green;"">","null","","","","","","","","","",""
"","image-keyboard-response","140","112688","0.0-140.0","3IRIK4HM3B6QMUY6CKDJTU13PEM6CD","AZNIEFUIVB2H0","3HUR21WDDUBEMSLDIXZW1FAIHVWXYO","","1703","img/food6.png","76","1703","3","0","2","1","1,0.5,0,1,0.5,0,0.5,0,1","1,0.5,0,1,0.5,0,0.5,0,1","1","",""
"","html-keyboard-response","141","112995","0.0-141.0","3IRIK4HM3B6QMUY6CKDJTU13PEM6CD","AZNIEFUIVB2H0","3HUR21WDDUBEMSLDIXZW1FAIHVWXYO","","null","<img src=""img/food6.png"" style=""width:200px;border:14px solid red;"">","null","","","","","","","","","",""
"","image-keyboard-response","142","113986","0.0-142.0","3IRIK4HM3B6QMUY6CKDJTU13PEM6CD","AZNIEFUIVB2H0","3HUR21WDDUBEMSLDIXZW1FAIHVWXYO","","990","img/food4.png","74","990","1","1","1","1","1,0.5,0,1,0.5,0,0.5,0,1","1,0.5,0,1,0.5,0,0.5,0,1","1","",""
"","html-keyboard-response","143","114292","0.0-143.0","3IRIK4HM3B6QMUY6CKDJTU13PEM6CD","AZNIEFUIVB2H0","3HUR21WDDUBEMSLDIXZW1FAIHVWXYO","","null","<img src=""img/food4.png"" style=""width:200px; border:14px solid green;"">","null","","","","","","","","","",""
"","image-keyboard-response","144","115239","0.0-144.0","3IRIK4HM3B6QMUY6CKDJTU13PEM6CD","AZNIEFUIVB2H0","3HUR21WDDUBEMSLDIXZW1FAIHVWXYO","","946","img/food6.png","74","947","1","1","2","1","1,0.5,0,1,0.5,0,0.5,0,1","1,0.5,0,1,0.5,0,0.5,0,1","1","",""
"","html-keyboard-response","145","115540","0.0-145.0","3IRIK4HM3B6QMUY6CKDJTU13PEM6CD","AZNIEFUIVB2H0","3HUR21WDDUBEMSLDIXZW1FAIHVWXYO","","null","<img src=""img/food6.png"" style=""width:200px; border:14px solid green;"">","null","","","","","","","","","",""
"","image-keyboard-response","146","116762","0.0-146.0","3IRIK4HM3B6QMUY6CKDJTU13PEM6CD","AZNIEFUIVB2H0","3HUR21WDDUBEMSLDIXZW1FAIHVWXYO","","1221","img/food3.png","76","1222","3","1","3","1","1,0.5,0,1,0.5,0,0.5,0,1","1,0.5,0,1,0.5,0,0.5,0,1","1","",""
"","html-keyboard-response","147","117073","0.0-147.0","3IRIK4HM3B6QMUY6CKDJTU13PEM6CD","AZNIEFUIVB2H0","3HUR21WDDUBEMSLDIXZW1FAIHVWXYO","","null","<img src=""img/food3.png"" style=""width:200px; border:14px solid green;"">","null","","","","","","","","","",""
"","image-keyboard-response","148","117940","0.0-148.0","3IRIK4HM3B6QMUY6CKDJTU13PEM6CD","AZNIEFUIVB2H0","3HUR21WDDUBEMSLDIXZW1FAIHVWXYO","","866","img/food4.png","74","867","1","1","1","1","1,0.5,0,1,0.5,0,0.5,0,1","1,0.5,0,1,0.5,0,0.5,0,1","1","",""
"","html-keyboard-response","149","118247","0.0-149.0","3IRIK4HM3B6QMUY6CKDJTU13PEM6CD","AZNIEFUIVB2H0","3HUR21WDDUBEMSLDIXZW1FAIHVWXYO","","null","<img src=""img/food4.png"" style=""width:200px; border:14px solid green;"">","null","","","","","","","","","",""
"","image-keyboard-response","150","118967","0.0-150.0","3IRIK4HM3B6QMUY6CKDJTU13PEM6CD","AZNIEFUIVB2H0","3HUR21WDDUBEMSLDIXZW1FAIHVWXYO","","718","img/food3.png","76","719","3","1","3","1","1,0.5,0,1,0.5,0,0.5,0,1","1,0.5,0,1,0.5,0,0.5,0,1","1","",""
"","html-keyboard-response","151","119277","0.0-151.0","3IRIK4HM3B6QMUY6CKDJTU13PEM6CD","AZNIEFUIVB2H0","3HUR21WDDUBEMSLDIXZW1FAIHVWXYO","","null","<img src=""img/food3.png"" style=""width:200px; border:14px solid green;"">","null","","","","","","","","","",""
"","image-keyboard-response","152","119990","0.0-152.0","3IRIK4HM3B6QMUY6CKDJTU13PEM6CD","AZNIEFUIVB2H0","3HUR21WDDUBEMSLDIXZW1FAIHVWXYO","","713","img/food4.png","74","713","1","1","1","1","1,0.5,0,1,0.5,0,0.5,0,1","1,0.5,0,1,0.5,0,0.5,0,1","1","",""
"","html-keyboard-response","153","120306","0.0-153.0","3IRIK4HM3B6QMUY6CKDJTU13PEM6CD","AZNIEFUIVB2H0","3HUR21WDDUBEMSLDIXZW1FAIHVWXYO","","null","<img src=""img/food4.png"" style=""width:200px; border:14px solid green;"">","null","","","","","","","","","",""
"","image-keyboard-response","154","120877","0.0-154.0","3IRIK4HM3B6QMUY6CKDJTU13PEM6CD","AZNIEFUIVB2H0","3HUR21WDDUBEMSLDIXZW1FAIHVWXYO","","569","img/food3.png","76","569","3","1","3","1","1,0.5,0,1,0.5,0,0.5,0,1","1,0.5,0,1,0.5,0,0.5,0,1","1","",""
"","html-keyboard-response","155","121180","0.0-155.0","3IRIK4HM3B6QMUY6CKDJTU13PEM6CD","AZNIEFUIVB2H0","3HUR21WDDUBEMSLDIXZW1FAIHVWXYO","","null","<img src=""img/food3.png"" style=""width:200px; border:14px solid green;"">","null","","","","","","","","","",""
"","image-keyboard-response","156","121698","0.0-156.0","3IRIK4HM3B6QMUY6CKDJTU13PEM6CD","AZNIEFUIVB2H0","3HUR21WDDUBEMSLDIXZW1FAIHVWXYO","","517","img/food4.png","74","517","1","1","1","1","1,0.5,0,1,0.5,0,0.5,0,1","1,0.5,0,1,0.5,0,0.5,0,1","1","",""
"","html-keyboard-response","157","122008","0.0-157.0","3IRIK4HM3B6QMUY6CKDJTU13PEM6CD","AZNIEFUIVB2H0","3HUR21WDDUBEMSLDIXZW1FAIHVWXYO","","null","<img src=""img/food4.png"" style=""width:200px; border:14px solid green;"">","null","","","","","","","","","",""
"","image-keyboard-response","158","122551","0.0-158.0","3IRIK4HM3B6QMUY6CKDJTU13PEM6CD","AZNIEFUIVB2H0","3HUR21WDDUBEMSLDIXZW1FAIHVWXYO","","542","img/food3.png","76","544","3","1","3","1","1,0.5,0,1,0.5,0,0.5,0,1","1,0.5,0,1,0.5,0,0.5,0,1","1","",""
"","html-keyboard-response","159","122857","0.0-159.0","3IRIK4HM3B6QMUY6CKDJTU13PEM6CD","AZNIEFUIVB2H0","3HUR21WDDUBEMSLDIXZW1FAIHVWXYO","","null","<img src=""img/food3.png"" style=""width:200px; border:14px solid green;"">","null","","","","","","","","","",""
"","image-keyboard-response","160","123368","0.0-160.0","3IRIK4HM3B6QMUY6CKDJTU13PEM6CD","AZNIEFUIVB2H0","3HUR21WDDUBEMSLDIXZW1FAIHVWXYO","","509","img/food4.png","74","510","1","1","1","1","1,0.5,0,1,0.5,0,0.5,0,1","1,0.5,0,1,0.5,0,0.5,0,1","1","",""
"","html-keyboard-response","161","123670","0.0-161.0","3IRIK4HM3B6QMUY6CKDJTU13PEM6CD","AZNIEFUIVB2H0","3HUR21WDDUBEMSLDIXZW1FAIHVWXYO","","null","<img src=""img/food4.png"" style=""width:200px; border:14px solid green;"">","null","","","","","","","","","",""
"","image-keyboard-response","162","124124","0.0-162.0","3IRIK4HM3B6QMUY6CKDJTU13PEM6CD","AZNIEFUIVB2H0","3HUR21WDDUBEMSLDIXZW1FAIHVWXYO","","453","img/food4.png","74","454","1","1","1","1","1,0.5,0,1,0.5,0,0.5,0,1","1,0.5,0,1,0.5,0,0.5,0,1","1","",""
"","html-keyboard-response","163","124432","0.0-163.0","3IRIK4HM3B6QMUY6CKDJTU13PEM6CD","AZNIEFUIVB2H0","3HUR21WDDUBEMSLDIXZW1FAIHVWXYO","","null","<img src=""img/food4.png"" style=""width:200px; border:14px solid green;"">","null","","","","","","","","","",""
"","image-keyboard-response","164","125162","0.0-164.0","3IRIK4HM3B6QMUY6CKDJTU13PEM6CD","AZNIEFUIVB2H0","3HUR21WDDUBEMSLDIXZW1FAIHVWXYO","","729","img/food3.png","76","729","3","1","3","1","1,0.5,0,1,0.5,0,0.5,0,1","1,0.5,0,1,0.5,0,0.5,0,1","1","",""
"","html-keyboard-response","165","125466","0.0-165.0","3IRIK4HM3B6QMUY6CKDJTU13PEM6CD","AZNIEFUIVB2H0","3HUR21WDDUBEMSLDIXZW1FAIHVWXYO","","null","<img src=""img/food3.png"" style=""width:200px; border:14px solid green;"">","null","","","","","","","","","",""
"","image-keyboard-response","166","126285","0.0-166.0","3IRIK4HM3B6QMUY6CKDJTU13PEM6CD","AZNIEFUIVB2H0","3HUR21WDDUBEMSLDIXZW1FAIHVWXYO","","819","img/food6.png","76","819","3","0","2","1","1,0.5,0,1,0.5,0,0.5,0,1","1,0.5,0,1,0.5,0,0.5,0,1","1","",""
"","html-keyboard-response","167","126588","0.0-167.0","3IRIK4HM3B6QMUY6CKDJTU13PEM6CD","AZNIEFUIVB2H0","3HUR21WDDUBEMSLDIXZW1FAIHVWXYO","","null","<img src=""img/food6.png"" style=""width:200px;border:14px solid red;"">","null","","","","","","","","","",""
"","image-keyboard-response","168","127217","0.0-168.0","3IRIK4HM3B6QMUY6CKDJTU13PEM6CD","AZNIEFUIVB2H0","3HUR21WDDUBEMSLDIXZW1FAIHVWXYO","","629","img/food6.png","75","630","2","1","2","1","1,0.5,0,1,0.5,0,0.5,0,1","1,0.5,0,1,0.5,0,0.5,0,1","1","",""
"","html-keyboard-response","169","127526","0.0-169.0","3IRIK4HM3B6QMUY6CKDJTU13PEM6CD","AZNIEFUIVB2H0","3HUR21WDDUBEMSLDIXZW1FAIHVWXYO","","null","<img src=""img/food6.png"" style=""width:200px; border:14px solid green;"">","null","","","","","","","","","",""
"","image-keyboard-response","170","128179","0.0-170.0","3IRIK4HM3B6QMUY6CKDJTU13PEM6CD","AZNIEFUIVB2H0","3HUR21WDDUBEMSLDIXZW1FAIHVWXYO","","652","img/food6.png","75","654","2","0","2","1","1,0.5,0,1,0.5,0,0.5,0,1","1,0.5,0,1,0.5,0,0.5,0,1","1","",""
"","html-keyboard-response","171","128510","0.0-171.0","3IRIK4HM3B6QMUY6CKDJTU13PEM6CD","AZNIEFUIVB2H0","3HUR21WDDUBEMSLDIXZW1FAIHVWXYO","","null","<img src=""img/food6.png"" style=""width:200px;border:14px solid red;"">","null","","","","","","","","","",""
"","image-keyboard-response","172","129126","0.0-172.0","3IRIK4HM3B6QMUY6CKDJTU13PEM6CD","AZNIEFUIVB2H0","3HUR21WDDUBEMSLDIXZW1FAIHVWXYO","","614","img/food6.png","74","615","1","1","2","1","1,0.5,0,1,0.5,0,0.5,0,1","1,0.5,0,1,0.5,0,0.5,0,1","1","",""
"","html-keyboard-response","173","129434","0.0-173.0","3IRIK4HM3B6QMUY6CKDJTU13PEM6CD","AZNIEFUIVB2H0","3HUR21WDDUBEMSLDIXZW1FAIHVWXYO","","null","<img src=""img/food6.png"" style=""width:200px; border:14px solid green;"">","null","","","","","","","","","",""
"","image-keyboard-response","174","130569","0.0-174.0","3IRIK4HM3B6QMUY6CKDJTU13PEM6CD","AZNIEFUIVB2H0","3HUR21WDDUBEMSLDIXZW1FAIHVWXYO","","1135","img/food3.png","74","1135","1","1","3","1","1,0.5,0,1,0.5,0,0.5,0,1","1,0.5,0,1,0.5,0,0.5,0,1","1","",""
"","html-keyboard-response","175","130876","0.0-175.0","3IRIK4HM3B6QMUY6CKDJTU13PEM6CD","AZNIEFUIVB2H0","3HUR21WDDUBEMSLDIXZW1FAIHVWXYO","","null","<img src=""img/food3.png"" style=""width:200px; border:14px solid green;"">","null","","","","","","","","","",""
"","image-keyboard-response","176","131341","0.0-176.0","3IRIK4HM3B6QMUY6CKDJTU13PEM6CD","AZNIEFUIVB2H0","3HUR21WDDUBEMSLDIXZW1FAIHVWXYO","","464","img/food3.png","74","464","1","1","3","1","1,0.5,0,1,0.5,0,0.5,0,1","1,0.5,0,1,0.5,0,0.5,0,1","1","",""
"","html-keyboard-response","177","131644","0.0-177.0","3IRIK4HM3B6QMUY6CKDJTU13PEM6CD","AZNIEFUIVB2H0","3HUR21WDDUBEMSLDIXZW1FAIHVWXYO","","null","<img src=""img/food3.png"" style=""width:200px; border:14px solid green;"">","null","","","","","","","","","",""
"","image-keyboard-response","178","132485","0.0-178.0","3IRIK4HM3B6QMUY6CKDJTU13PEM6CD","AZNIEFUIVB2H0","3HUR21WDDUBEMSLDIXZW1FAIHVWXYO","","839","img/food6.png","74","840","1","1","2","1","1,0.5,0,1,0.5,0,0.5,0,1","1,0.5,0,1,0.5,0,0.5,0,1","1","",""
"","html-keyboard-response","179","132791","0.0-179.0","3IRIK4HM3B6QMUY6CKDJTU13PEM6CD","AZNIEFUIVB2H0","3HUR21WDDUBEMSLDIXZW1FAIHVWXYO","","null","<img src=""img/food6.png"" style=""width:200px; border:14px solid green;"">","null","","","","","","","","","",""
"","image-keyboard-response","180","133442","0.0-180.0","3IRIK4HM3B6QMUY6CKDJTU13PEM6CD","AZNIEFUIVB2H0","3HUR21WDDUBEMSLDIXZW1FAIHVWXYO","","649","img/food4.png","74","651","1","1","1","1","1,0.5,0,1,0.5,0,0.5,0,1","1,0.5,0,1,0.5,0,0.5,0,1","1","",""
"","html-keyboard-response","181","133745","0.0-181.0","3IRIK4HM3B6QMUY6CKDJTU13PEM6CD","AZNIEFUIVB2H0","3HUR21WDDUBEMSLDIXZW1FAIHVWXYO","","null","<img src=""img/food4.png"" style=""width:200px; border:14px solid green;"">","null","","","","","","","","","",""
"","html-keyboard-response","182","138240","0.0-182.0","3IRIK4HM3B6QMUY6CKDJTU13PEM6CD","AZNIEFUIVB2H0","3HUR21WDDUBEMSLDIXZW1FAIHVWXYO","","","","","","","","","","","","","",""
"","instructions","183","157323","0.0-183.0","3IRIK4HM3B6QMUY6CKDJTU13PEM6CD","AZNIEFUIVB2H0","3HUR21WDDUBEMSLDIXZW1FAIHVWXYO","[{""page_index"":0,""viewing_time"":17641},{""page_index"":1,""viewing_time"":1441}]","19082","","","","","","","","","","","",""
"","image-keyboard-response","184","158191","0.0-184.0","3IRIK4HM3B6QMUY6CKDJTU13PEM6CD","AZNIEFUIVB2H0","3HUR21WDDUBEMSLDIXZW1FAIHVWXYO","","867","img/food2.png","74","867","1","1","1","2","1,0.5,0,1,0.5,0,0.5,0,1","1,0.5,0,1,0.5,0,0.5,0,1","1","false",""
"","html-keyboard-response","185","158493","0.0-185.0","3IRIK4HM3B6QMUY6CKDJTU13PEM6CD","AZNIEFUIVB2H0","3HUR21WDDUBEMSLDIXZW1FAIHVWXYO","","null","<img src=""img/food2.png"" style=""width:200px; border:14px solid green;"">","null","","","","","","","","","",""
"","image-keyboard-response","186","158993","0.0-187.0","3IRIK4HM3B6QMUY6CKDJTU13PEM6CD","AZNIEFUIVB2H0","3HUR21WDDUBEMSLDIXZW1FAIHVWXYO","","498","img/food5.png","74","499","1","1","2","2","1,0.5,0,1,0.5,0,0.5,0,1","1,0.5,0,1,0.5,0,0.5,0,1","1","false",""
"","html-keyboard-response","187","159308","0.0-188.0","3IRIK4HM3B6QMUY6CKDJTU13PEM6CD","AZNIEFUIVB2H0","3HUR21WDDUBEMSLDIXZW1FAIHVWXYO","","null","<img src=""img/food5.png"" style=""width:200px; border:14px solid green;"">","null","","","","","","","","","",""
"","image-keyboard-response","188","159733","0.0-190.0","3IRIK4HM3B6QMUY6CKDJTU13PEM6CD","AZNIEFUIVB2H0","3HUR21WDDUBEMSLDIXZW1FAIHVWXYO","","424","img/food1.png","74","425","1","0","3","2","1,0.5,0,1,0.5,0,0.5,0,1","1,0.5,0,1,0.5,0,0.5,0,1","1","false",""
"","html-keyboard-response","189","160045","0.0-191.0","3IRIK4HM3B6QMUY6CKDJTU13PEM6CD","AZNIEFUIVB2H0","3HUR21WDDUBEMSLDIXZW1FAIHVWXYO","","null","<img src=""img/food1.png"" style=""width:200px;border:14px solid red;"">","null","","","","","","","","","",""
"","image-keyboard-response","190","160581","0.0-193.0","3IRIK4HM3B6QMUY6CKDJTU13PEM6CD","AZNIEFUIVB2H0","3HUR21WDDUBEMSLDIXZW1FAIHVWXYO","","534","img/food2.png","74","535","1","1","1","2","1,0.5,0,1,0.5,0,0.5,0,1","1,0.5,0,1,0.5,0,0.5,0,1","1","false",""
"","html-keyboard-response","191","160889","0.0-194.0","3IRIK4HM3B6QMUY6CKDJTU13PEM6CD","AZNIEFUIVB2H0","3HUR21WDDUBEMSLDIXZW1FAIHVWXYO","","null","<img src=""img/food2.png"" style=""width:200px; border:14px solid green;"">","null","","","","","","","","","",""
"","image-keyboard-response","192","161338","0.0-196.0","3IRIK4HM3B6QMUY6CKDJTU13PEM6CD","AZNIEFUIVB2H0","3HUR21WDDUBEMSLDIXZW1FAIHVWXYO","","447","img/food5.png","74","448","1","1","2","2","1,0.5,0,1,0.5,0,0.5,0,1","1,0.5,0,1,0.5,0,0.5,0,1","1","false",""
"","html-keyboard-response","193","161639","0.0-197.0","3IRIK4HM3B6QMUY6CKDJTU13PEM6CD","AZNIEFUIVB2H0","3HUR21WDDUBEMSLDIXZW1FAIHVWXYO","","null","<img src=""img/food5.png"" style=""width:200px; border:14px solid green;"">","null","","","","","","","","","",""
"","image-keyboard-response","194","162080","0.0-199.0","3IRIK4HM3B6QMUY6CKDJTU13PEM6CD","AZNIEFUIVB2H0","3HUR21WDDUBEMSLDIXZW1FAIHVWXYO","","439","img/food2.png","75","441","2","1","1","2","1,0.5,0,1,0.5,0,0.5,0,1","1,0.5,0,1,0.5,0,0.5,0,1","1","false",""
"","html-keyboard-response","195","162385","0.0-200.0","3IRIK4HM3B6QMUY6CKDJTU13PEM6CD","AZNIEFUIVB2H0","3HUR21WDDUBEMSLDIXZW1FAIHVWXYO","","null","<img src=""img/food2.png"" style=""width:200px; border:14px solid green;"">","null","","","","","","","","","",""
"","image-keyboard-response","196","162916","0.0-202.0","3IRIK4HM3B6QMUY6CKDJTU13PEM6CD","AZNIEFUIVB2H0","3HUR21WDDUBEMSLDIXZW1FAIHVWXYO","","530","img/food2.png","75","530","2","0","1","2","1,0.5,0,1,0.5,0,0.5,0,1","1,0.5,0,1,0.5,0,0.5,0,1","1","false",""
"","html-keyboard-response","197","163230","0.0-203.0","3IRIK4HM3B6QMUY6CKDJTU13PEM6CD","AZNIEFUIVB2H0","3HUR21WDDUBEMSLDIXZW1FAIHVWXYO","","null","<img src=""img/food2.png"" style=""width:200px;border:14px solid red;"">","null","","","","","","","","","",""
"","image-keyboard-response","198","163603","0.0-205.0","3IRIK4HM3B6QMUY6CKDJTU13PEM6CD","AZNIEFUIVB2H0","3HUR21WDDUBEMSLDIXZW1FAIHVWXYO","","372","img/food5.png","74","373","1","1","2","2","1,0.5,0,1,0.5,0,0.5,0,1","1,0.5,0,1,0.5,0,0.5,0,1","1","false",""
"","html-keyboard-response","199","163917","0.0-206.0","3IRIK4HM3B6QMUY6CKDJTU13PEM6CD","AZNIEFUIVB2H0","3HUR21WDDUBEMSLDIXZW1FAIHVWXYO","","null","<img src=""img/food5.png"" style=""width:200px; border:14px solid green;"">","null","","","","","","","","","",""
"","image-keyboard-response","200","164260","0.0-208.0","3IRIK4HM3B6QMUY6CKDJTU13PEM6CD","AZNIEFUIVB2H0","3HUR21WDDUBEMSLDIXZW1FAIHVWXYO","","342","img/food5.png","74","343","1","1","2","2","1,0.5,0,1,0.5,0,0.5,0,1","1,0.5,0,1,0.5,0,0.5,0,1","1","false",""
"","html-keyboard-response","201","164573","0.0-209.0","3IRIK4HM3B6QMUY6CKDJTU13PEM6CD","AZNIEFUIVB2H0","3HUR21WDDUBEMSLDIXZW1FAIHVWXYO","","null","<img src=""img/food5.png"" style=""width:200px; border:14px solid green;"">","null","","","","","","","","","",""
"","image-keyboard-response","202","165047","0.0-211.0","3IRIK4HM3B6QMUY6CKDJTU13PEM6CD","AZNIEFUIVB2H0","3HUR21WDDUBEMSLDIXZW1FAIHVWXYO","","472","img/food1.png","75","472","2","0","3","2","1,0.5,0,1,0.5,0,0.5,0,1","1,0.5,0,1,0.5,0,0.5,0,1","1","false",""
"","html-keyboard-response","203","165354","0.0-212.0","3IRIK4HM3B6QMUY6CKDJTU13PEM6CD","AZNIEFUIVB2H0","3HUR21WDDUBEMSLDIXZW1FAIHVWXYO","","null","<img src=""img/food1.png"" style=""width:200px;border:14px solid red;"">","null","","","","","","","","","",""
"","image-keyboard-response","204","165543","0.0-214.0","3IRIK4HM3B6QMUY6CKDJTU13PEM6CD","AZNIEFUIVB2H0","3HUR21WDDUBEMSLDIXZW1FAIHVWXYO","","189","img/food1.png","74","189","1","0","3","2","1,0.5,0,1,0.5,0,0.5,0,1","1,0.5,0,1,0.5,0,0.5,0,1","1","false",""
"","html-keyboard-response","205","165858","0.0-215.0","3IRIK4HM3B6QMUY6CKDJTU13PEM6CD","AZNIEFUIVB2H0","3HUR21WDDUBEMSLDIXZW1FAIHVWXYO","","null","<img src=""img/food1.png"" style=""width:200px;border:14px solid red;"">","null","","","","","","","","","",""
"","image-keyboard-response","206","166285","0.0-217.0","3IRIK4HM3B6QMUY6CKDJTU13PEM6CD","AZNIEFUIVB2H0","3HUR21WDDUBEMSLDIXZW1FAIHVWXYO","","426","img/food1.png","76","426","3","1","3","2","1,0.5,0,1,0.5,0,0.5,0,1","1,0.5,0,1,0.5,0,0.5,0,1","1","false",""
"","html-keyboard-response","207","166593","0.0-218.0","3IRIK4HM3B6QMUY6CKDJTU13PEM6CD","AZNIEFUIVB2H0","3HUR21WDDUBEMSLDIXZW1FAIHVWXYO","","null","<img src=""img/food1.png"" style=""width:200px; border:14px solid green;"">","null","","","","","","","","","",""
"","image-keyboard-response","208","167121","0.0-220.0","3IRIK4HM3B6QMUY6CKDJTU13PEM6CD","AZNIEFUIVB2H0","3HUR21WDDUBEMSLDIXZW1FAIHVWXYO","","528","img/food5.png","74","528","1","1","2","2","1,0.5,0,1,0.5,0,0.5,0,1","1,0.5,0,1,0.5,0,0.5,0,1","1","false",""
"","html-keyboard-response","209","167437","0.0-221.0","3IRIK4HM3B6QMUY6CKDJTU13PEM6CD","AZNIEFUIVB2H0","3HUR21WDDUBEMSLDIXZW1FAIHVWXYO","","null","<img src=""img/food5.png"" style=""width:200px; border:14px solid green;"">","null","","","","","","","","","",""
"","image-keyboard-response","210","168033","0.0-223.0","3IRIK4HM3B6QMUY6CKDJTU13PEM6CD","AZNIEFUIVB2H0","3HUR21WDDUBEMSLDIXZW1FAIHVWXYO","","595","img/food1.png","75","596","2","0","3","2","1,0.5,0,1,0.5,0,0.5,0,1","1,0.5,0,1,0.5,0,0.5,0,1","1","false",""
"","html-keyboard-response","211","168338","0.0-224.0","3IRIK4HM3B6QMUY6CKDJTU13PEM6CD","AZNIEFUIVB2H0","3HUR21WDDUBEMSLDIXZW1FAIHVWXYO","","null","<img src=""img/food1.png"" style=""width:200px;border:14px solid red;"">","null","","","","","","","","","",""
"","image-keyboard-response","212","168895","0.0-226.0","3IRIK4HM3B6QMUY6CKDJTU13PEM6CD","AZNIEFUIVB2H0","3HUR21WDDUBEMSLDIXZW1FAIHVWXYO","","555","img/food2.png","74","556","1","1","1","2","1,0.5,0,1,0.5,0,0.5,0,1","1,0.5,0,1,0.5,0,0.5,0,1","1","false",""
"","html-keyboard-response","213","169196","0.0-227.0","3IRIK4HM3B6QMUY6CKDJTU13PEM6CD","AZNIEFUIVB2H0","3HUR21WDDUBEMSLDIXZW1FAIHVWXYO","","null","<img src=""img/food2.png"" style=""width:200px; border:14px solid green;"">","null","","","","","","","","","",""
"","image-keyboard-response","214","169678","0.0-229.0","3IRIK4HM3B6QMUY6CKDJTU13PEM6CD","AZNIEFUIVB2H0","3HUR21WDDUBEMSLDIXZW1FAIHVWXYO","","480","img/food1.png","74","480","1","0","3","2","1,0.5,0,1,0.5,0,0.5,0,1","1,0.5,0,1,0.5,0,0.5,0,1","1","false",""
"","html-keyboard-response","215","169979","0.0-230.0","3IRIK4HM3B6QMUY6CKDJTU13PEM6CD","AZNIEFUIVB2H0","3HUR21WDDUBEMSLDIXZW1FAIHVWXYO","","null","<img src=""img/food1.png"" style=""width:200px;border:14px solid red;"">","null","","","","","","","","","",""
"","image-keyboard-response","216","170639","0.0-232.0","3IRIK4HM3B6QMUY6CKDJTU13PEM6CD","AZNIEFUIVB2H0","3HUR21WDDUBEMSLDIXZW1FAIHVWXYO","","660","img/food2.png","74","660","1","1","1","2","1,0.5,0,1,0.5,0,0.5,0,1","1,0.5,0,1,0.5,0,0.5,0,1","1","false",""
"","html-keyboard-response","217","170947","0.0-233.0","3IRIK4HM3B6QMUY6CKDJTU13PEM6CD","AZNIEFUIVB2H0","3HUR21WDDUBEMSLDIXZW1FAIHVWXYO","","null","<img src=""img/food2.png"" style=""width:200px; border:14px solid green;"">","null","","","","","","","","","",""
"","image-keyboard-response","218","171597","0.0-235.0","3IRIK4HM3B6QMUY6CKDJTU13PEM6CD","AZNIEFUIVB2H0","3HUR21WDDUBEMSLDIXZW1FAIHVWXYO","","650","img/food1.png","76","650","3","1","3","2","1,0.5,0,1,0.5,0,0.5,0,1","1,0.5,0,1,0.5,0,0.5,0,1","1","false",""
"","html-keyboard-response","219","171902","0.0-236.0","3IRIK4HM3B6QMUY6CKDJTU13PEM6CD","AZNIEFUIVB2H0","3HUR21WDDUBEMSLDIXZW1FAIHVWXYO","","null","<img src=""img/food1.png"" style=""width:200px; border:14px solid green;"">","null","","","","","","","","","",""
"","image-keyboard-response","220","172580","0.0-238.0","3IRIK4HM3B6QMUY6CKDJTU13PEM6CD","AZNIEFUIVB2H0","3HUR21WDDUBEMSLDIXZW1FAIHVWXYO","","677","img/food5.png","74","678","1","1","2","2","1,0.5,0,1,0.5,0,0.5,0,1","1,0.5,0,1,0.5,0,0.5,0,1","1","false",""
"","html-keyboard-response","221","172891","0.0-239.0","3IRIK4HM3B6QMUY6CKDJTU13PEM6CD","AZNIEFUIVB2H0","3HUR21WDDUBEMSLDIXZW1FAIHVWXYO","","null","<img src=""img/food5.png"" style=""width:200px; border:14px solid green;"">","null","","","","","","","","","",""
"","image-keyboard-response","222","173437","0.0-241.0","3IRIK4HM3B6QMUY6CKDJTU13PEM6CD","AZNIEFUIVB2H0","3HUR21WDDUBEMSLDIXZW1FAIHVWXYO","","544","img/food2.png","74","544","1","1","1","2","1,0.5,0,1,0.5,0,0.5,0,1","1,0.5,0,1,0.5,0,0.5,0,1","1","false",""
"","html-keyboard-response","223","173739","0.0-242.0","3IRIK4HM3B6QMUY6CKDJTU13PEM6CD","AZNIEFUIVB2H0","3HUR21WDDUBEMSLDIXZW1FAIHVWXYO","","null","<img src=""img/food2.png"" style=""width:200px; border:14px solid green;"">","null","","","","","","","","","",""
"","image-keyboard-response","224","174319","0.0-244.0","3IRIK4HM3B6QMUY6CKDJTU13PEM6CD","AZNIEFUIVB2H0","3HUR21WDDUBEMSLDIXZW1FAIHVWXYO","","579","img/food1.png","74","579","1","0","3","2","1,0.5,0,1,0.5,0,0.5,0,1","1,0.5,0,1,0.5,0,0.5,0,1","1","false",""
"","html-keyboard-response","225","174632","0.0-245.0","3IRIK4HM3B6QMUY6CKDJTU13PEM6CD","AZNIEFUIVB2H0","3HUR21WDDUBEMSLDIXZW1FAIHVWXYO","","null","<img src=""img/food1.png"" style=""width:200px;border:14px solid red;"">","null","","","","","","","","","",""
"","image-keyboard-response","226","175316","0.0-247.0","3IRIK4HM3B6QMUY6CKDJTU13PEM6CD","AZNIEFUIVB2H0","3HUR21WDDUBEMSLDIXZW1FAIHVWXYO","","681","img/food5.png","74","682","1","1","2","2","1,0.5,0,1,0.5,0,0.5,0,1","1,0.5,0,1,0.5,0,0.5,0,1","1","false",""
"","html-keyboard-response","227","175618","0.0-248.0","3IRIK4HM3B6QMUY6CKDJTU13PEM6CD","AZNIEFUIVB2H0","3HUR21WDDUBEMSLDIXZW1FAIHVWXYO","","null","<img src=""img/food5.png"" style=""width:200px; border:14px solid green;"">","null","","","","","","","","","",""
"","image-keyboard-response","228","176249","0.0-250.0","3IRIK4HM3B6QMUY6CKDJTU13PEM6CD","AZNIEFUIVB2H0","3HUR21WDDUBEMSLDIXZW1FAIHVWXYO","","630","img/food2.png","75","630","2","1","1","2","1,0.5,0,1,0.5,0,0.5,0,1","1,0.5,0,1,0.5,0,0.5,0,1","1","false",""
"","html-keyboard-response","229","176560","0.0-251.0","3IRIK4HM3B6QMUY6CKDJTU13PEM6CD","AZNIEFUIVB2H0","3HUR21WDDUBEMSLDIXZW1FAIHVWXYO","","null","<img src=""img/food2.png"" style=""width:200px; border:14px solid green;"">","null","","","","","","","","","",""
"","image-keyboard-response","230","177175","0.0-253.0","3IRIK4HM3B6QMUY6CKDJTU13PEM6CD","AZNIEFUIVB2H0","3HUR21WDDUBEMSLDIXZW1FAIHVWXYO","","614","img/food1.png","74","615","1","1","3","2","1,0.5,0,1,0.5,0,0.5,0,1","1,0.5,0,1,0.5,0,0.5,0,1","1","false",""
"","html-keyboard-response","231","177485","0.0-254.0","3IRIK4HM3B6QMUY6CKDJTU13PEM6CD","AZNIEFUIVB2H0","3HUR21WDDUBEMSLDIXZW1FAIHVWXYO","","null","<img src=""img/food1.png"" style=""width:200px; border:14px solid green;"">","null","","","","","","","","","",""
"","image-keyboard-response","232","178012","0.0-256.0","3IRIK4HM3B6QMUY6CKDJTU13PEM6CD","AZNIEFUIVB2H0","3HUR21WDDUBEMSLDIXZW1FAIHVWXYO","","527","img/food1.png","74","527","1","0","3","2","1,0.5,0,1,0.5,0,0.5,0,1","1,0.5,0,1,0.5,0,0.5,0,1","1","false",""
"","html-keyboard-response","233","178328","0.0-257.0","3IRIK4HM3B6QMUY6CKDJTU13PEM6CD","AZNIEFUIVB2H0","3HUR21WDDUBEMSLDIXZW1FAIHVWXYO","","null","<img src=""img/food1.png"" style=""width:200px;border:14px solid red;"">","null","","","","","","","","","",""
"","image-keyboard-response","234","178804","0.0-259.0","3IRIK4HM3B6QMUY6CKDJTU13PEM6CD","AZNIEFUIVB2H0","3HUR21WDDUBEMSLDIXZW1FAIHVWXYO","","475","img/food5.png","75","476","2","0","2","2","1,0.5,0,1,0.5,0,0.5,0,1","1,0.5,0,1,0.5,0,0.5,0,1","1","false",""
"","html-keyboard-response","235","179121","0.0-260.0","3IRIK4HM3B6QMUY6CKDJTU13PEM6CD","AZNIEFUIVB2H0","3HUR21WDDUBEMSLDIXZW1FAIHVWXYO","","null","<img src=""img/food5.png"" style=""width:200px;border:14px solid red;"">","null","","","","","","","","","",""
"","image-keyboard-response","236","179565","0.0-262.0","3IRIK4HM3B6QMUY6CKDJTU13PEM6CD","AZNIEFUIVB2H0","3HUR21WDDUBEMSLDIXZW1FAIHVWXYO","","443","img/food5.png","74","444","1","1","2","2","1,0.5,0,1,0.5,0,0.5,0,1","1,0.5,0,1,0.5,0,0.5,0,1","1","false",""
"","html-keyboard-response","237","179869","0.0-263.0","3IRIK4HM3B6QMUY6CKDJTU13PEM6CD","AZNIEFUIVB2H0","3HUR21WDDUBEMSLDIXZW1FAIHVWXYO","","null","<img src=""img/food5.png"" style=""width:200px; border:14px solid green;"">","null","","","","","","","","","",""
"","image-keyboard-response","238","180493","0.0-265.0","3IRIK4HM3B6QMUY6CKDJTU13PEM6CD","AZNIEFUIVB2H0","3HUR21WDDUBEMSLDIXZW1FAIHVWXYO","","622","img/food1.png","74","623","1","1","3","2","1,0.5,0,1,0.5,0,0.5,0,1","1,0.5,0,1,0.5,0,0.5,0,1","1","false",""
"","html-keyboard-response","239","180806","0.0-266.0","3IRIK4HM3B6QMUY6CKDJTU13PEM6CD","AZNIEFUIVB2H0","3HUR21WDDUBEMSLDIXZW1FAIHVWXYO","","null","<img src=""img/food1.png"" style=""width:200px; border:14px solid green;"">","null","","","","","","","","","",""
"","image-keyboard-response","240","181256","0.0-268.0","3IRIK4HM3B6QMUY6CKDJTU13PEM6CD","AZNIEFUIVB2H0","3HUR21WDDUBEMSLDIXZW1FAIHVWXYO","","449","img/food1.png","74","449","1","0","3","2","1,0.5,0,1,0.5,0,0.5,0,1","1,0.5,0,1,0.5,0,0.5,0,1","1","false",""
"","html-keyboard-response","241","181573","0.0-269.0","3IRIK4HM3B6QMUY6CKDJTU13PEM6CD","AZNIEFUIVB2H0","3HUR21WDDUBEMSLDIXZW1FAIHVWXYO","","null","<img src=""img/food1.png"" style=""width:200px;border:14px solid red;"">","null","","","","","","","","","",""
"","image-keyboard-response","242","182061","0.0-271.0","3IRIK4HM3B6QMUY6CKDJTU13PEM6CD","AZNIEFUIVB2H0","3HUR21WDDUBEMSLDIXZW1FAIHVWXYO","","487","img/food2.png","76","487","3","0","1","2","1,0.5,0,1,0.5,0,0.5,0,1","1,0.5,0,1,0.5,0,0.5,0,1","1","false",""
"","html-keyboard-response","243","182371","0.0-272.0","3IRIK4HM3B6QMUY6CKDJTU13PEM6CD","AZNIEFUIVB2H0","3HUR21WDDUBEMSLDIXZW1FAIHVWXYO","","null","<img src=""img/food2.png"" style=""width:200px;border:14px solid red;"">","null","","","","","","","","","",""
"","image-keyboard-response","244","182749","0.0-274.0","3IRIK4HM3B6QMUY6CKDJTU13PEM6CD","AZNIEFUIVB2H0","3HUR21WDDUBEMSLDIXZW1FAIHVWXYO","","376","img/food5.png","74","377","1","1","2","2","1,0.5,0,1,0.5,0,0.5,0,1","1,0.5,0,1,0.5,0,0.5,0,1","1","false",""
"","html-keyboard-response","245","183061","0.0-275.0","3IRIK4HM3B6QMUY6CKDJTU13PEM6CD","AZNIEFUIVB2H0","3HUR21WDDUBEMSLDIXZW1FAIHVWXYO","","null","<img src=""img/food5.png"" style=""width:200px; border:14px solid green;"">","null","","","","","","","","","",""
"","image-keyboard-response","246","183651","0.0-277.0","3IRIK4HM3B6QMUY6CKDJTU13PEM6CD","AZNIEFUIVB2H0","3HUR21WDDUBEMSLDIXZW1FAIHVWXYO","","588","img/food1.png","74","590","1","1","3","2","1,0.5,0,1,0.5,0,0.5,0,1","1,0.5,0,1,0.5,0,0.5,0,1","1","false",""
"","html-keyboard-response","247","183957","0.0-278.0","3IRIK4HM3B6QMUY6CKDJTU13PEM6CD","AZNIEFUIVB2H0","3HUR21WDDUBEMSLDIXZW1FAIHVWXYO","","null","<img src=""img/food1.png"" style=""width:200px; border:14px solid green;"">","null","","","","","","","","","",""
"","image-keyboard-response","248","184679","0.0-280.0","3IRIK4HM3B6QMUY6CKDJTU13PEM6CD","AZNIEFUIVB2H0","3HUR21WDDUBEMSLDIXZW1FAIHVWXYO","","721","img/food2.png","76","721","3","0","1","2","1,0.5,0,1,0.5,0,0.5,0,1","1,0.5,0,1,0.5,0,0.5,0,1","1","false",""
"","html-keyboard-response","249","184983","0.0-281.0","3IRIK4HM3B6QMUY6CKDJTU13PEM6CD","AZNIEFUIVB2H0","3HUR21WDDUBEMSLDIXZW1FAIHVWXYO","","null","<img src=""img/food2.png"" style=""width:200px;border:14px solid red;"">","null","","","","","","","","","",""
"","image-keyboard-response","250","185414","0.0-283.0","3IRIK4HM3B6QMUY6CKDJTU13PEM6CD","AZNIEFUIVB2H0","3HUR21WDDUBEMSLDIXZW1FAIHVWXYO","","430","img/food5.png","74","431","1","1","2","2","1,0.5,0,1,0.5,0,0.5,0,1","1,0.5,0,1,0.5,0,0.5,0,1","1","false",""
"","html-keyboard-response","251","185716","0.0-284.0","3IRIK4HM3B6QMUY6CKDJTU13PEM6CD","AZNIEFUIVB2H0","3HUR21WDDUBEMSLDIXZW1FAIHVWXYO","","null","<img src=""img/food5.png"" style=""width:200px; border:14px solid green;"">","null","","","","","","","","","",""
"","image-keyboard-response","252","186231","0.0-286.0","3IRIK4HM3B6QMUY6CKDJTU13PEM6CD","AZNIEFUIVB2H0","3HUR21WDDUBEMSLDIXZW1FAIHVWXYO","","515","img/food1.png","74","515","1","0","3","2","1,0.5,0,1,0.5,0,0.5,0,1","1,0.5,0,1,0.5,0,0.5,0,1","1","false",""
"","html-keyboard-response","253","186544","0.0-287.0","3IRIK4HM3B6QMUY6CKDJTU13PEM6CD","AZNIEFUIVB2H0","3HUR21WDDUBEMSLDIXZW1FAIHVWXYO","","null","<img src=""img/food1.png"" style=""width:200px;border:14px solid red;"">","null","","","","","","","","","",""
"","image-keyboard-response","254","187019","0.0-289.0","3IRIK4HM3B6QMUY6CKDJTU13PEM6CD","AZNIEFUIVB2H0","3HUR21WDDUBEMSLDIXZW1FAIHVWXYO","","473","img/food1.png","74","474","1","1","3","2","1,0.5,0,1,0.5,0,0.5,0,1","1,0.5,0,1,0.5,0,0.5,0,1","1","false",""
"","html-keyboard-response","255","187334","0.0-290.0","3IRIK4HM3B6QMUY6CKDJTU13PEM6CD","AZNIEFUIVB2H0","3HUR21WDDUBEMSLDIXZW1FAIHVWXYO","","null","<img src=""img/food1.png"" style=""width:200px; border:14px solid green;"">","null","","","","","","","","","",""
"","image-keyboard-response","256","187916","0.0-292.0","3IRIK4HM3B6QMUY6CKDJTU13PEM6CD","AZNIEFUIVB2H0","3HUR21WDDUBEMSLDIXZW1FAIHVWXYO","","581","img/food5.png","74","581","1","1","2","2","1,0.5,0,1,0.5,0,0.5,0,1","1,0.5,0,1,0.5,0,0.5,0,1","1","false",""
"","html-keyboard-response","257","188225","0.0-293.0","3IRIK4HM3B6QMUY6CKDJTU13PEM6CD","AZNIEFUIVB2H0","3HUR21WDDUBEMSLDIXZW1FAIHVWXYO","","null","<img src=""img/food5.png"" style=""width:200px; border:14px solid green;"">","null","","","","","","","","","",""
"","image-keyboard-response","258","188668","0.0-295.0","3IRIK4HM3B6QMUY6CKDJTU13PEM6CD","AZNIEFUIVB2H0","3HUR21WDDUBEMSLDIXZW1FAIHVWXYO","","441","img/food5.png","74","442","1","1","2","2","1,0.5,0,1,0.5,0,0.5,0,1","1,0.5,0,1,0.5,0,0.5,0,1","1","false",""
"","html-keyboard-response","259","188971","0.0-296.0","3IRIK4HM3B6QMUY6CKDJTU13PEM6CD","AZNIEFUIVB2H0","3HUR21WDDUBEMSLDIXZW1FAIHVWXYO","","null","<img src=""img/food5.png"" style=""width:200px; border:14px solid green;"">","null","","","","","","","","","",""
"","image-keyboard-response","260","189459","0.0-298.0","3IRIK4HM3B6QMUY6CKDJTU13PEM6CD","AZNIEFUIVB2H0","3HUR21WDDUBEMSLDIXZW1FAIHVWXYO","","487","img/food5.png","74","487","1","1","2","2","1,0.5,0,1,0.5,0,0.5,0,1","1,0.5,0,1,0.5,0,0.5,0,1","1","false",""
"","html-keyboard-response","261","189767","0.0-299.0","3IRIK4HM3B6QMUY6CKDJTU13PEM6CD","AZNIEFUIVB2H0","3HUR21WDDUBEMSLDIXZW1FAIHVWXYO","","null","<img src=""img/food5.png"" style=""width:200px; border:14px solid green;"">","null","","","","","","","","","",""
"","image-keyboard-response","262","190197","0.0-301.0","3IRIK4HM3B6QMUY6CKDJTU13PEM6CD","AZNIEFUIVB2H0","3HUR21WDDUBEMSLDIXZW1FAIHVWXYO","","429","img/food5.png","74","429","1","1","2","2","1,0.5,0,1,0.5,0,0.5,0,1","1,0.5,0,1,0.5,0,0.5,0,1","1","false",""
"","html-keyboard-response","263","190499","0.0-302.0","3IRIK4HM3B6QMUY6CKDJTU13PEM6CD","AZNIEFUIVB2H0","3HUR21WDDUBEMSLDIXZW1FAIHVWXYO","","null","<img src=""img/food5.png"" style=""width:200px; border:14px solid green;"">","null","","","","","","","","","",""
"","image-keyboard-response","264","191064","0.0-304.0","3IRIK4HM3B6QMUY6CKDJTU13PEM6CD","AZNIEFUIVB2H0","3HUR21WDDUBEMSLDIXZW1FAIHVWXYO","","563","img/food2.png","75","564","2","1","1","2","1,0.5,0,1,0.5,0,0.5,0,1","1,0.5,0,1,0.5,0,0.5,0,1","1","false",""
"","html-keyboard-response","265","191367","0.0-305.0","3IRIK4HM3B6QMUY6CKDJTU13PEM6CD","AZNIEFUIVB2H0","3HUR21WDDUBEMSLDIXZW1FAIHVWXYO","","null","<img src=""img/food2.png"" style=""width:200px; border:14px solid green;"">","null","","","","","","","","","",""
"","image-keyboard-response","266","191866","0.0-307.0","3IRIK4HM3B6QMUY6CKDJTU13PEM6CD","AZNIEFUIVB2H0","3HUR21WDDUBEMSLDIXZW1FAIHVWXYO","","497","img/food2.png","75","498","2","0","1","2","1,0.5,0,1,0.5,0,0.5,0,1","1,0.5,0,1,0.5,0,0.5,0,1","1","false",""
"","html-keyboard-response","267","192205","0.0-308.0","3IRIK4HM3B6QMUY6CKDJTU13PEM6CD","AZNIEFUIVB2H0","3HUR21WDDUBEMSLDIXZW1FAIHVWXYO","","null","<img src=""img/food2.png"" style=""width:200px;border:14px solid red;"">","null","","","","","","","","","",""
"","image-keyboard-response","268","192617","0.0-310.0","3IRIK4HM3B6QMUY6CKDJTU13PEM6CD","AZNIEFUIVB2H0","3HUR21WDDUBEMSLDIXZW1FAIHVWXYO","","411","img/food2.png","74","412","1","1","1","2","1,0.5,0,1,0.5,0,0.5,0,1","1,0.5,0,1,0.5,0,0.5,0,1","1","false",""
"","html-keyboard-response","269","192924","0.0-311.0","3IRIK4HM3B6QMUY6CKDJTU13PEM6CD","AZNIEFUIVB2H0","3HUR21WDDUBEMSLDIXZW1FAIHVWXYO","","null","<img src=""img/food2.png"" style=""width:200px; border:14px solid green;"">","null","","","","","","","","","",""
"","image-keyboard-response","270","193469","0.0-313.0","3IRIK4HM3B6QMUY6CKDJTU13PEM6CD","AZNIEFUIVB2H0","3HUR21WDDUBEMSLDIXZW1FAIHVWXYO","","543","img/food1.png","74","545","1","1","3","2","1,0.5,0,1,0.5,0,0.5,0,1","1,0.5,0,1,0.5,0,0.5,0,1","1","false",""
"","html-keyboard-response","271","193786","0.0-314.0","3IRIK4HM3B6QMUY6CKDJTU13PEM6CD","AZNIEFUIVB2H0","3HUR21WDDUBEMSLDIXZW1FAIHVWXYO","","null","<img src=""img/food1.png"" style=""width:200px; border:14px solid green;"">","null","","","","","","","","","",""
"","image-keyboard-response","272","194281","0.0-316.0","3IRIK4HM3B6QMUY6CKDJTU13PEM6CD","AZNIEFUIVB2H0","3HUR21WDDUBEMSLDIXZW1FAIHVWXYO","","494","img/food5.png","74","495","1","1","2","2","1,0.5,0,1,0.5,0,0.5,0,1","1,0.5,0,1,0.5,0,0.5,0,1","1","false",""
"","html-keyboard-response","273","194596","0.0-317.0","3IRIK4HM3B6QMUY6CKDJTU13PEM6CD","AZNIEFUIVB2H0","3HUR21WDDUBEMSLDIXZW1FAIHVWXYO","","null","<img src=""img/food5.png"" style=""width:200px; border:14px solid green;"">","null","","","","","","","","","",""
"","image-keyboard-response","274","195042","0.0-319.0","3IRIK4HM3B6QMUY6CKDJTU13PEM6CD","AZNIEFUIVB2H0","3HUR21WDDUBEMSLDIXZW1FAIHVWXYO","","445","img/food1.png","74","446","1","0","3","2","1,0.5,0,1,0.5,0,0.5,0,1","1,0.5,0,1,0.5,0,0.5,0,1","1","false",""
"","html-keyboard-response","275","195349","0.0-320.0","3IRIK4HM3B6QMUY6CKDJTU13PEM6CD","AZNIEFUIVB2H0","3HUR21WDDUBEMSLDIXZW1FAIHVWXYO","","null","<img src=""img/food1.png"" style=""width:200px;border:14px solid red;"">","null","","","","","","","","","",""
"","image-keyboard-response","276","195735","0.0-322.0","3IRIK4HM3B6QMUY6CKDJTU13PEM6CD","AZNIEFUIVB2H0","3HUR21WDDUBEMSLDIXZW1FAIHVWXYO","","386","img/food1.png","75","386","2","0","3","2","1,0.5,0,1,0.5,0,0.5,0,1","1,0.5,0,1,0.5,0,0.5,0,1","1","false",""
"","html-keyboard-response","277","196042","0.0-323.0","3IRIK4HM3B6QMUY6CKDJTU13PEM6CD","AZNIEFUIVB2H0","3HUR21WDDUBEMSLDIXZW1FAIHVWXYO","","null","<img src=""img/food1.png"" style=""width:200px;border:14px solid red;"">","null","","","","","","","","","",""
"","image-keyboard-response","278","196551","0.0-325.0","3IRIK4HM3B6QMUY6CKDJTU13PEM6CD","AZNIEFUIVB2H0","3HUR21WDDUBEMSLDIXZW1FAIHVWXYO","","508","img/food2.png","74","509","1","1","1","2","1,0.5,0,1,0.5,0,0.5,0,1","1,0.5,0,1,0.5,0,0.5,0,1","1","false",""
"","html-keyboard-response","279","196877","0.0-326.0","3IRIK4HM3B6QMUY6CKDJTU13PEM6CD","AZNIEFUIVB2H0","3HUR21WDDUBEMSLDIXZW1FAIHVWXYO","","null","<img src=""img/food2.png"" style=""width:200px; border:14px solid green;"">","null","","","","","","","","","",""
"","image-keyboard-response","280","197368","0.0-328.0","3IRIK4HM3B6QMUY6CKDJTU13PEM6CD","AZNIEFUIVB2H0","3HUR21WDDUBEMSLDIXZW1FAIHVWXYO","","489","img/food1.png","76","491","3","1","3","2","1,0.5,0,1,0.5,0,0.5,0,1","1,0.5,0,1,0.5,0,0.5,0,1","1","false",""
"","html-keyboard-response","281","197680","0.0-329.0","3IRIK4HM3B6QMUY6CKDJTU13PEM6CD","AZNIEFUIVB2H0","3HUR21WDDUBEMSLDIXZW1FAIHVWXYO","","null","<img src=""img/food1.png"" style=""width:200px; border:14px solid green;"">","null","","","","","","","","","",""
"","image-keyboard-response","282","198175","0.0-331.0","3IRIK4HM3B6QMUY6CKDJTU13PEM6CD","AZNIEFUIVB2H0","3HUR21WDDUBEMSLDIXZW1FAIHVWXYO","","493","img/food5.png","74","494","1","1","2","2","1,0.5,0,1,0.5,0,0.5,0,1","1,0.5,0,1,0.5,0,0.5,0,1","1","false",""
"","html-keyboard-response","283","198485","0.0-332.0","3IRIK4HM3B6QMUY6CKDJTU13PEM6CD","AZNIEFUIVB2H0","3HUR21WDDUBEMSLDIXZW1FAIHVWXYO","","null","<img src=""img/food5.png"" style=""width:200px; border:14px solid green;"">","null","","","","","","","","","",""
"","image-keyboard-response","284","198936","0.0-334.0","3IRIK4HM3B6QMUY6CKDJTU13PEM6CD","AZNIEFUIVB2H0","3HUR21WDDUBEMSLDIXZW1FAIHVWXYO","","450","img/food2.png","74","451","1","1","1","2","1,0.5,0,1,0.5,0,0.5,0,1","1,0.5,0,1,0.5,0,0.5,0,1","1","false",""
"","html-keyboard-response","285","199237","0.0-335.0","3IRIK4HM3B6QMUY6CKDJTU13PEM6CD","AZNIEFUIVB2H0","3HUR21WDDUBEMSLDIXZW1FAIHVWXYO","","null","<img src=""img/food2.png"" style=""width:200px; border:14px solid green;"">","null","","","","","","","","","",""
"","image-keyboard-response","286","199683","0.0-337.0","3IRIK4HM3B6QMUY6CKDJTU13PEM6CD","AZNIEFUIVB2H0","3HUR21WDDUBEMSLDIXZW1FAIHVWXYO","","444","img/food2.png","74","445","1","1","1","2","1,0.5,0,1,0.5,0,0.5,0,1","1,0.5,0,1,0.5,0,0.5,0,1","1","false",""
"","html-keyboard-response","287","199999","0.0-338.0","3IRIK4HM3B6QMUY6CKDJTU13PEM6CD","AZNIEFUIVB2H0","3HUR21WDDUBEMSLDIXZW1FAIHVWXYO","","null","<img src=""img/food2.png"" style=""width:200px; border:14px solid green;"">","null","","","","","","","","","",""
"","image-keyboard-response","288","200380","0.0-340.0","3IRIK4HM3B6QMUY6CKDJTU13PEM6CD","AZNIEFUIVB2H0","3HUR21WDDUBEMSLDIXZW1FAIHVWXYO","","379","img/food2.png","74","380","1","1","1","2","1,0.5,0,1,0.5,0,0.5,0,1","1,0.5,0,1,0.5,0,0.5,0,1","1","false",""
"","html-keyboard-response","289","200694","0.0-341.0","3IRIK4HM3B6QMUY6CKDJTU13PEM6CD","AZNIEFUIVB2H0","3HUR21WDDUBEMSLDIXZW1FAIHVWXYO","","null","<img src=""img/food2.png"" style=""width:200px; border:14px solid green;"">","null","","","","","","","","","",""
"","image-keyboard-response","290","201177","0.0-343.0","3IRIK4HM3B6QMUY6CKDJTU13PEM6CD","AZNIEFUIVB2H0","3HUR21WDDUBEMSLDIXZW1FAIHVWXYO","","482","img/food1.png","76","484","3","1","3","2","1,0.5,0,1,0.5,0,0.5,0,1","1,0.5,0,1,0.5,0,0.5,0,1","1","false",""
"","html-keyboard-response","291","201481","0.0-344.0","3IRIK4HM3B6QMUY6CKDJTU13PEM6CD","AZNIEFUIVB2H0","3HUR21WDDUBEMSLDIXZW1FAIHVWXYO","","null","<img src=""img/food1.png"" style=""width:200px; border:14px solid green;"">","null","","","","","","","","","",""
"","image-keyboard-response","292","201844","0.0-346.0","3IRIK4HM3B6QMUY6CKDJTU13PEM6CD","AZNIEFUIVB2H0","3HUR21WDDUBEMSLDIXZW1FAIHVWXYO","","361","img/food5.png","74","363","1","1","2","2","1,0.5,0,1,0.5,0,0.5,0,1","1,0.5,0,1,0.5,0,0.5,0,1","1","false",""
"","html-keyboard-response","293","202155","0.0-347.0","3IRIK4HM3B6QMUY6CKDJTU13PEM6CD","AZNIEFUIVB2H0","3HUR21WDDUBEMSLDIXZW1FAIHVWXYO","","null","<img src=""img/food5.png"" style=""width:200px; border:14px solid green;"">","null","","","","","","","","","",""
"","image-keyboard-response","294","202556","0.0-349.0","3IRIK4HM3B6QMUY6CKDJTU13PEM6CD","AZNIEFUIVB2H0","3HUR21WDDUBEMSLDIXZW1FAIHVWXYO","","399","img/food2.png","74","400","1","1","1","2","1,0.5,0,1,0.5,0,0.5,0,1","1,0.5,0,1,0.5,0,0.5,0,1","1","false",""
"","html-keyboard-response","295","202871","0.0-350.0","3IRIK4HM3B6QMUY6CKDJTU13PEM6CD","AZNIEFUIVB2H0","3HUR21WDDUBEMSLDIXZW1FAIHVWXYO","","null","<img src=""img/food2.png"" style=""width:200px; border:14px solid green;"">","null","","","","","","","","","",""
"","image-keyboard-response","296","203382","0.0-352.0","3IRIK4HM3B6QMUY6CKDJTU13PEM6CD","AZNIEFUIVB2H0","3HUR21WDDUBEMSLDIXZW1FAIHVWXYO","","509","img/food5.png","74","511","1","1","2","2","1,0.5,0,1,0.5,0,0.5,0,1","1,0.5,0,1,0.5,0,0.5,0,1","1","false",""
"","html-keyboard-response","297","203684","0.0-353.0","3IRIK4HM3B6QMUY6CKDJTU13PEM6CD","AZNIEFUIVB2H0","3HUR21WDDUBEMSLDIXZW1FAIHVWXYO","","null","<img src=""img/food5.png"" style=""width:200px; border:14px solid green;"">","null","","","","","","","","","",""
"","image-keyboard-response","298","204304","0.0-355.0","3IRIK4HM3B6QMUY6CKDJTU13PEM6CD","AZNIEFUIVB2H0","3HUR21WDDUBEMSLDIXZW1FAIHVWXYO","","619","img/food1.png","74","620","1","0","3","2","1,0.5,0,1,0.5,0,0.5,0,1","1,0.5,0,1,0.5,0,0.5,0,1","1","false",""
"","html-keyboard-response","299","204607","0.0-356.0","3IRIK4HM3B6QMUY6CKDJTU13PEM6CD","AZNIEFUIVB2H0","3HUR21WDDUBEMSLDIXZW1FAIHVWXYO","","null","<img src=""img/food1.png"" style=""width:200px;border:14px solid red;"">","null","","","","","","","","","",""
"","image-keyboard-response","300","205282","0.0-358.0","3IRIK4HM3B6QMUY6CKDJTU13PEM6CD","AZNIEFUIVB2H0","3HUR21WDDUBEMSLDIXZW1FAIHVWXYO","","674","img/food5.png","74","674","1","1","2","2","1,0.5,0,1,0.5,0,0.5,0,1","1,0.5,0,1,0.5,0,0.5,0,1","1","false",""
"","html-keyboard-response","301","205588","0.0-359.0","3IRIK4HM3B6QMUY6CKDJTU13PEM6CD","AZNIEFUIVB2H0","3HUR21WDDUBEMSLDIXZW1FAIHVWXYO","","null","<img src=""img/food5.png"" style=""width:200px; border:14px solid green;"">","null","","","","","","","","","",""
"","image-keyboard-response","302","206053","0.0-361.0","3IRIK4HM3B6QMUY6CKDJTU13PEM6CD","AZNIEFUIVB2H0","3HUR21WDDUBEMSLDIXZW1FAIHVWXYO","","464","img/food5.png","74","465","1","1","2","2","1,0.5,0,1,0.5,0,0.5,0,1","1,0.5,0,1,0.5,0,0.5,0,1","1","false",""
"","html-keyboard-response","303","206368","0.0-362.0","3IRIK4HM3B6QMUY6CKDJTU13PEM6CD","AZNIEFUIVB2H0","3HUR21WDDUBEMSLDIXZW1FAIHVWXYO","","null","<img src=""img/food5.png"" style=""width:200px; border:14px solid green;"">","null","","","","","","","","","",""
"","image-keyboard-response","304","207096","0.0-364.0","3IRIK4HM3B6QMUY6CKDJTU13PEM6CD","AZNIEFUIVB2H0","3HUR21WDDUBEMSLDIXZW1FAIHVWXYO","","728","img/food2.png","74","728","1","1","1","2","1,0.5,0,1,0.5,0,0.5,0,1","1,0.5,0,1,0.5,0,0.5,0,1","1","false",""
"","html-keyboard-response","305","207429","0.0-365.0","3IRIK4HM3B6QMUY6CKDJTU13PEM6CD","AZNIEFUIVB2H0","3HUR21WDDUBEMSLDIXZW1FAIHVWXYO","","null","<img src=""img/food2.png"" style=""width:200px; border:14px solid green;"">","null","","","","","","","","","",""
"","image-keyboard-response","306","208073","0.0-367.0","3IRIK4HM3B6QMUY6CKDJTU13PEM6CD","AZNIEFUIVB2H0","3HUR21WDDUBEMSLDIXZW1FAIHVWXYO","","641","img/food1.png","76","643","3","1","3","2","1,0.5,0,1,0.5,0,0.5,0,1","1,0.5,0,1,0.5,0,0.5,0,1","1","false",""
"","html-keyboard-response","307","208387","0.0-368.0","3IRIK4HM3B6QMUY6CKDJTU13PEM6CD","AZNIEFUIVB2H0","3HUR21WDDUBEMSLDIXZW1FAIHVWXYO","","null","<img src=""img/food1.png"" style=""width:200px; border:14px solid green;"">","null","","","","","","","","","",""
"","image-keyboard-response","308","208930","0.0-370.0","3IRIK4HM3B6QMUY6CKDJTU13PEM6CD","AZNIEFUIVB2H0","3HUR21WDDUBEMSLDIXZW1FAIHVWXYO","","543","img/food2.png","74","543","1","1","1","2","1,0.5,0,1,0.5,0,0.5,0,1","1,0.5,0,1,0.5,0,0.5,0,1","1","false",""
"","html-keyboard-response","309","209234","0.0-371.0","3IRIK4HM3B6QMUY6CKDJTU13PEM6CD","AZNIEFUIVB2H0","3HUR21WDDUBEMSLDIXZW1FAIHVWXYO","","null","<img src=""img/food2.png"" style=""width:200px; border:14px solid green;"">","null","","","","","","","","","",""
"","image-keyboard-response","310","209722","0.0-373.0","3IRIK4HM3B6QMUY6CKDJTU13PEM6CD","AZNIEFUIVB2H0","3HUR21WDDUBEMSLDIXZW1FAIHVWXYO","","487","img/food2.png","74","488","1","1","1","2","1,0.5,0,1,0.5,0,0.5,0,1","1,0.5,0,1,0.5,0,0.5,0,1","1","false",""
"","html-keyboard-response","311","210024","0.0-374.0","3IRIK4HM3B6QMUY6CKDJTU13PEM6CD","AZNIEFUIVB2H0","3HUR21WDDUBEMSLDIXZW1FAIHVWXYO","","null","<img src=""img/food2.png"" style=""width:200px; border:14px solid green;"">","null","","","","","","","","","",""
"","image-keyboard-response","312","210530","0.0-376.0","3IRIK4HM3B6QMUY6CKDJTU13PEM6CD","AZNIEFUIVB2H0","3HUR21WDDUBEMSLDIXZW1FAIHVWXYO","","503","img/food1.png","76","504","3","1","3","2","1,0.5,0,1,0.5,0,0.5,0,1","1,0.5,0,1,0.5,0,0.5,0,1","1","false",""
"","html-keyboard-response","313","210838","0.0-377.0","3IRIK4HM3B6QMUY6CKDJTU13PEM6CD","AZNIEFUIVB2H0","3HUR21WDDUBEMSLDIXZW1FAIHVWXYO","","null","<img src=""img/food1.png"" style=""width:200px; border:14px solid green;"">","null","","","","","","","","","",""
"","image-keyboard-response","314","211296","0.0-379.0","3IRIK4HM3B6QMUY6CKDJTU13PEM6CD","AZNIEFUIVB2H0","3HUR21WDDUBEMSLDIXZW1FAIHVWXYO","","458","img/food5.png","74","459","1","1","2","2","1,0.5,0,1,0.5,0,0.5,0,1","1,0.5,0,1,0.5,0,0.5,0,1","1","false",""
"","html-keyboard-response","315","211606","0.0-380.0","3IRIK4HM3B6QMUY6CKDJTU13PEM6CD","AZNIEFUIVB2H0","3HUR21WDDUBEMSLDIXZW1FAIHVWXYO","","null","<img src=""img/food5.png"" style=""width:200px; border:14px solid green;"">","null","","","","","","","","","",""
"","image-keyboard-response","316","212033","0.0-382.0","3IRIK4HM3B6QMUY6CKDJTU13PEM6CD","AZNIEFUIVB2H0","3HUR21WDDUBEMSLDIXZW1FAIHVWXYO","","426","img/food5.png","74","428","1","1","2","2","1,0.5,0,1,0.5,0,0.5,0,1","1,0.5,0,1,0.5,0,0.5,0,1","1","false",""
"","html-keyboard-response","317","212339","0.0-383.0","3IRIK4HM3B6QMUY6CKDJTU13PEM6CD","AZNIEFUIVB2H0","3HUR21WDDUBEMSLDIXZW1FAIHVWXYO","","null","<img src=""img/food5.png"" style=""width:200px; border:14px solid green;"">","null","","","","","","","","","",""
"","image-keyboard-response","318","212990","0.0-385.0","3IRIK4HM3B6QMUY6CKDJTU13PEM6CD","AZNIEFUIVB2H0","3HUR21WDDUBEMSLDIXZW1FAIHVWXYO","","650","img/food1.png","76","651","3","1","3","2","1,0.5,0,1,0.5,0,0.5,0,1","1,0.5,0,1,0.5,0,0.5,0,1","1","false",""
"","html-keyboard-response","319","213307","0.0-386.0","3IRIK4HM3B6QMUY6CKDJTU13PEM6CD","AZNIEFUIVB2H0","3HUR21WDDUBEMSLDIXZW1FAIHVWXYO","","null","<img src=""img/food1.png"" style=""width:200px; border:14px solid green;"">","null","","","","","","","","","",""
"","image-keyboard-response","320","213817","0.0-388.0","3IRIK4HM3B6QMUY6CKDJTU13PEM6CD","AZNIEFUIVB2H0","3HUR21WDDUBEMSLDIXZW1FAIHVWXYO","","510","img/food1.png","76","510","3","1","3","2","1,0.5,0,1,0.5,0,0.5,0,1","1,0.5,0,1,0.5,0,0.5,0,1","1","false",""
"","html-keyboard-response","321","214132","0.0-389.0","3IRIK4HM3B6QMUY6CKDJTU13PEM6CD","AZNIEFUIVB2H0","3HUR21WDDUBEMSLDIXZW1FAIHVWXYO","","null","<img src=""img/food1.png"" style=""width:200px; border:14px solid green;"">","null","","","","","","","","","",""
"","image-keyboard-response","322","214524","0.0-391.0","3IRIK4HM3B6QMUY6CKDJTU13PEM6CD","AZNIEFUIVB2H0","3HUR21WDDUBEMSLDIXZW1FAIHVWXYO","","389","img/food2.png","74","390","1","1","1","2","1,0.5,0,1,0.5,0,0.5,0,1","1,0.5,0,1,0.5,0,0.5,0,1","1","false",""
"","html-keyboard-response","323","214839","0.0-392.0","3IRIK4HM3B6QMUY6CKDJTU13PEM6CD","AZNIEFUIVB2H0","3HUR21WDDUBEMSLDIXZW1FAIHVWXYO","","null","<img src=""img/food2.png"" style=""width:200px; border:14px solid green;"">","null","","","","","","","","","",""
"","image-keyboard-response","324","215260","0.0-394.0","3IRIK4HM3B6QMUY6CKDJTU13PEM6CD","AZNIEFUIVB2H0","3HUR21WDDUBEMSLDIXZW1FAIHVWXYO","","419","img/food2.png","74","420","1","1","1","2","1,0.5,0,1,0.5,0,0.5,0,1","1,0.5,0,1,0.5,0,0.5,0,1","1","false",""
"","html-keyboard-response","325","215576","0.0-395.0","3IRIK4HM3B6QMUY6CKDJTU13PEM6CD","AZNIEFUIVB2H0","3HUR21WDDUBEMSLDIXZW1FAIHVWXYO","","null","<img src=""img/food2.png"" style=""width:200px; border:14px solid green;"">","null","","","","","","","","","",""
"","image-keyboard-response","326","216031","0.0-397.0","3IRIK4HM3B6QMUY6CKDJTU13PEM6CD","AZNIEFUIVB2H0","3HUR21WDDUBEMSLDIXZW1FAIHVWXYO","","455","img/food5.png","76","455","3","0","2","2","1,0.5,0,1,0.5,0,0.5,0,1","1,0.5,0,1,0.5,0,0.5,0,1","1","false",""
"","html-keyboard-response","327","216341","0.0-398.0","3IRIK4HM3B6QMUY6CKDJTU13PEM6CD","AZNIEFUIVB2H0","3HUR21WDDUBEMSLDIXZW1FAIHVWXYO","","null","<img src=""img/food5.png"" style=""width:200px;border:14px solid red;"">","null","","","","","","","","","",""
"","image-keyboard-response","328","216819","0.0-400.0","3IRIK4HM3B6QMUY6CKDJTU13PEM6CD","AZNIEFUIVB2H0","3HUR21WDDUBEMSLDIXZW1FAIHVWXYO","","477","img/food2.png","74","478","1","1","1","2","1,0.5,0,1,0.5,0,0.5,0,1","1,0.5,0,1,0.5,0,0.5,0,1","1","false",""
"","html-keyboard-response","329","217133","0.0-401.0","3IRIK4HM3B6QMUY6CKDJTU13PEM6CD","AZNIEFUIVB2H0","3HUR21WDDUBEMSLDIXZW1FAIHVWXYO","","null","<img src=""img/food2.png"" style=""width:200px; border:14px solid green;"">","null","","","","","","","","","",""
"","image-keyboard-response","330","217531","0.0-403.0","3IRIK4HM3B6QMUY6CKDJTU13PEM6CD","AZNIEFUIVB2H0","3HUR21WDDUBEMSLDIXZW1FAIHVWXYO","","396","img/food2.png","74","396","1","1","1","2","1,0.5,0,1,0.5,0,0.5,0,1","1,0.5,0,1,0.5,0,0.5,0,1","1","false",""
"","html-keyboard-response","331","217837","0.0-404.0","3IRIK4HM3B6QMUY6CKDJTU13PEM6CD","AZNIEFUIVB2H0","3HUR21WDDUBEMSLDIXZW1FAIHVWXYO","","null","<img src=""img/food2.png"" style=""width:200px; border:14px solid green;"">","null","","","","","","","","","",""
"","image-keyboard-response","332","218227","0.0-406.0","3IRIK4HM3B6QMUY6CKDJTU13PEM6CD","AZNIEFUIVB2H0","3HUR21WDDUBEMSLDIXZW1FAIHVWXYO","","388","img/food2.png","74","390","1","1","1","2","1,0.5,0,1,0.5,0,0.5,0,1","1,0.5,0,1,0.5,0,0.5,0,1","1","false",""
"","html-keyboard-response","333","218541","0.0-407.0","3IRIK4HM3B6QMUY6CKDJTU13PEM6CD","AZNIEFUIVB2H0","3HUR21WDDUBEMSLDIXZW1FAIHVWXYO","","null","<img src=""img/food2.png"" style=""width:200px; border:14px solid green;"">","null","","","","","","","","","",""
"","image-keyboard-response","334","219084","0.0-409.0","3IRIK4HM3B6QMUY6CKDJTU13PEM6CD","AZNIEFUIVB2H0","3HUR21WDDUBEMSLDIXZW1FAIHVWXYO","","542","img/food1.png","74","543","1","1","3","2","1,0.5,0,1,0.5,0,0.5,0,1","1,0.5,0,1,0.5,0,0.5,0,1","1","false",""
"","html-keyboard-response","335","219386","0.0-410.0","3IRIK4HM3B6QMUY6CKDJTU13PEM6CD","AZNIEFUIVB2H0","3HUR21WDDUBEMSLDIXZW1FAIHVWXYO","","null","<img src=""img/food1.png"" style=""width:200px; border:14px solid green;"">","null","","","","","","","","","",""
"","image-keyboard-response","336","219916","0.0-412.0","3IRIK4HM3B6QMUY6CKDJTU13PEM6CD","AZNIEFUIVB2H0","3HUR21WDDUBEMSLDIXZW1FAIHVWXYO","","529","img/food2.png","74","530","1","1","1","2","1,0.5,0,1,0.5,0,0.5,0,1","1,0.5,0,1,0.5,0,0.5,0,1","1","false",""
"","html-keyboard-response","337","220229","0.0-413.0","3IRIK4HM3B6QMUY6CKDJTU13PEM6CD","AZNIEFUIVB2H0","3HUR21WDDUBEMSLDIXZW1FAIHVWXYO","","null","<img src=""img/food2.png"" style=""width:200px; border:14px solid green;"">","null","","","","","","","","","",""
"","image-keyboard-response","338","220753","0.0-415.0","3IRIK4HM3B6QMUY6CKDJTU13PEM6CD","AZNIEFUIVB2H0","3HUR21WDDUBEMSLDIXZW1FAIHVWXYO","","523","img/food5.png","74","524","1","1","2","2","1,0.5,0,1,0.5,0,0.5,0,1","1,0.5,0,1,0.5,0,0.5,0,1","1","false",""
"","html-keyboard-response","339","221056","0.0-416.0","3IRIK4HM3B6QMUY6CKDJTU13PEM6CD","AZNIEFUIVB2H0","3HUR21WDDUBEMSLDIXZW1FAIHVWXYO","","null","<img src=""img/food5.png"" style=""width:200px; border:14px solid green;"">","null","","","","","","","","","",""
"","image-keyboard-response","340","221575","0.0-418.0","3IRIK4HM3B6QMUY6CKDJTU13PEM6CD","AZNIEFUIVB2H0","3HUR21WDDUBEMSLDIXZW1FAIHVWXYO","","517","img/food1.png","76","519","3","1","3","2","1,0.5,0,1,0.5,0,0.5,0,1","1,0.5,0,1,0.5,0,0.5,0,1","1","false",""
"","html-keyboard-response","341","221885","0.0-419.0","3IRIK4HM3B6QMUY6CKDJTU13PEM6CD","AZNIEFUIVB2H0","3HUR21WDDUBEMSLDIXZW1FAIHVWXYO","","null","<img src=""img/food1.png"" style=""width:200px; border:14px solid green;"">","null","","","","","","","","","",""
"","image-keyboard-response","342","222668","0.0-421.0","3IRIK4HM3B6QMUY6CKDJTU13PEM6CD","AZNIEFUIVB2H0","3HUR21WDDUBEMSLDIXZW1FAIHVWXYO","","782","img/food2.png","74","783","1","1","1","2","1,0.5,0,1,0.5,0,0.5,0,1","1,0.5,0,1,0.5,0,0.5,0,1","1","false",""
"","html-keyboard-response","343","222970","0.0-422.0","3IRIK4HM3B6QMUY6CKDJTU13PEM6CD","AZNIEFUIVB2H0","3HUR21WDDUBEMSLDIXZW1FAIHVWXYO","","null","<img src=""img/food2.png"" style=""width:200px; border:14px solid green;"">","null","","","","","","","","","",""
"","image-keyboard-response","344","223435","0.0-424.0","3IRIK4HM3B6QMUY6CKDJTU13PEM6CD","AZNIEFUIVB2H0","3HUR21WDDUBEMSLDIXZW1FAIHVWXYO","","464","img/food1.png","74","465","1","1","3","2","1,0.5,0,1,0.5,0,0.5,0,1","1,0.5,0,1,0.5,0,0.5,0,1","1","false",""
"","html-keyboard-response","345","223743","0.0-425.0","3IRIK4HM3B6QMUY6CKDJTU13PEM6CD","AZNIEFUIVB2H0","3HUR21WDDUBEMSLDIXZW1FAIHVWXYO","","null","<img src=""img/food1.png"" style=""width:200px; border:14px solid green;"">","null","","","","","","","","","",""
"","image-keyboard-response","346","224171","0.0-427.0","3IRIK4HM3B6QMUY6CKDJTU13PEM6CD","AZNIEFUIVB2H0","3HUR21WDDUBEMSLDIXZW1FAIHVWXYO","","428","img/food1.png","74","429","1","1","3","2","1,0.5,0,1,0.5,0,0.5,0,1","1,0.5,0,1,0.5,0,0.5,0,1","1","false",""
"","html-keyboard-response","347","224482","0.0-428.0","3IRIK4HM3B6QMUY6CKDJTU13PEM6CD","AZNIEFUIVB2H0","3HUR21WDDUBEMSLDIXZW1FAIHVWXYO","","null","<img src=""img/food1.png"" style=""width:200px; border:14px solid green;"">","null","","","","","","","","","",""
"","image-keyboard-response","348","225055","0.0-430.0","3IRIK4HM3B6QMUY6CKDJTU13PEM6CD","AZNIEFUIVB2H0","3HUR21WDDUBEMSLDIXZW1FAIHVWXYO","","572","img/food2.png","76","573","3","0","1","2","1,0.5,0,1,0.5,0,0.5,0,1","1,0.5,0,1,0.5,0,0.5,0,1","1","false",""
"","html-keyboard-response","349","225365","0.0-431.0","3IRIK4HM3B6QMUY6CKDJTU13PEM6CD","AZNIEFUIVB2H0","3HUR21WDDUBEMSLDIXZW1FAIHVWXYO","","null","<img src=""img/food2.png"" style=""width:200px;border:14px solid red;"">","null","","","","","","","","","",""
"","image-keyboard-response","350","225770","0.0-433.0","3IRIK4HM3B6QMUY6CKDJTU13PEM6CD","AZNIEFUIVB2H0","3HUR21WDDUBEMSLDIXZW1FAIHVWXYO","","403","img/food2.png","74","404","1","1","1","2","1,0.5,0,1,0.5,0,0.5,0,1","1,0.5,0,1,0.5,0,0.5,0,1","1","false",""
"","html-keyboard-response","351","226087","0.0-434.0","3IRIK4HM3B6QMUY6CKDJTU13PEM6CD","AZNIEFUIVB2H0","3HUR21WDDUBEMSLDIXZW1FAIHVWXYO","","null","<img src=""img/food2.png"" style=""width:200px; border:14px solid green;"">","null","","","","","","","","","",""
"","image-keyboard-response","352","226813","0.0-436.0","3IRIK4HM3B6QMUY6CKDJTU13PEM6CD","AZNIEFUIVB2H0","3HUR21WDDUBEMSLDIXZW1FAIHVWXYO","","725","img/food5.png","74","726","1","1","2","2","1,0.5,0,1,0.5,0,0.5,0,1","1,0.5,0,1,0.5,0,0.5,0,1","1","false",""
"","html-keyboard-response","353","227123","0.0-437.0","3IRIK4HM3B6QMUY6CKDJTU13PEM6CD","AZNIEFUIVB2H0","3HUR21WDDUBEMSLDIXZW1FAIHVWXYO","","null","<img src=""img/food5.png"" style=""width:200px; border:14px solid green;"">","null","","","","","","","","","",""
"","image-keyboard-response","354","227545","0.0-439.0","3IRIK4HM3B6QMUY6CKDJTU13PEM6CD","AZNIEFUIVB2H0","3HUR21WDDUBEMSLDIXZW1FAIHVWXYO","","420","img/food5.png","74","420","1","1","2","2","1,0.5,0,1,0.5,0,0.5,0,1","1,0.5,0,1,0.5,0,0.5,0,1","1","false",""
"","html-keyboard-response","355","227850","0.0-440.0","3IRIK4HM3B6QMUY6CKDJTU13PEM6CD","AZNIEFUIVB2H0","3HUR21WDDUBEMSLDIXZW1FAIHVWXYO","","null","<img src=""img/food5.png"" style=""width:200px; border:14px solid green;"">","null","","","","","","","","","",""
"","image-keyboard-response","356","228452","0.0-442.0","3IRIK4HM3B6QMUY6CKDJTU13PEM6CD","AZNIEFUIVB2H0","3HUR21WDDUBEMSLDIXZW1FAIHVWXYO","","602","img/food1.png","76","602","3","1","3","2","1,0.5,0,1,0.5,0,0.5,0,1","1,0.5,0,1,0.5,0,0.5,0,1","1","false",""
"","html-keyboard-response","357","228761","0.0-443.0","3IRIK4HM3B6QMUY6CKDJTU13PEM6CD","AZNIEFUIVB2H0","3HUR21WDDUBEMSLDIXZW1FAIHVWXYO","","null","<img src=""img/food1.png"" style=""width:200px; border:14px solid green;"">","null","","","","","","","","","",""
"","image-keyboard-response","358","229229","0.0-445.0","3IRIK4HM3B6QMUY6CKDJTU13PEM6CD","AZNIEFUIVB2H0","3HUR21WDDUBEMSLDIXZW1FAIHVWXYO","","468","img/food5.png","74","468","1","1","2","2","1,0.5,0,1,0.5,0,0.5,0,1","1,0.5,0,1,0.5,0,0.5,0,1","1","false",""
"","html-keyboard-response","359","229543","0.0-446.0","3IRIK4HM3B6QMUY6CKDJTU13PEM6CD","AZNIEFUIVB2H0","3HUR21WDDUBEMSLDIXZW1FAIHVWXYO","","null","<img src=""img/food5.png"" style=""width:200px; border:14px solid green;"">","null","","","","","","","","","",""
"","image-keyboard-response","360","229940","0.0-448.0","3IRIK4HM3B6QMUY6CKDJTU13PEM6CD","AZNIEFUIVB2H0","3HUR21WDDUBEMSLDIXZW1FAIHVWXYO","","395","img/food5.png","74","396","1","1","2","2","1,0.5,0,1,0.5,0,0.5,0,1","1,0.5,0,1,0.5,0,0.5,0,1","1","false",""
"","html-keyboard-response","361","230252","0.0-449.0","3IRIK4HM3B6QMUY6CKDJTU13PEM6CD","AZNIEFUIVB2H0","3HUR21WDDUBEMSLDIXZW1FAIHVWXYO","","null","<img src=""img/food5.png"" style=""width:200px; border:14px solid green;"">","null","","","","","","","","","",""
"","image-keyboard-response","362","230752","0.0-451.0","3IRIK4HM3B6QMUY6CKDJTU13PEM6CD","AZNIEFUIVB2H0","3HUR21WDDUBEMSLDIXZW1FAIHVWXYO","","498","img/food5.png","74","499","1","1","2","2","1,0.5,0,1,0.5,0,0.5,0,1","1,0.5,0,1,0.5,0,0.5,0,1","1","false",""
"","html-keyboard-response","363","231066","0.0-452.0","3IRIK4HM3B6QMUY6CKDJTU13PEM6CD","AZNIEFUIVB2H0","3HUR21WDDUBEMSLDIXZW1FAIHVWXYO","","null","<img src=""img/food5.png"" style=""width:200px; border:14px solid green;"">","null","","","","","","","","","",""
"","instructions","364","235017","0.0-454.0","3IRIK4HM3B6QMUY6CKDJTU13PEM6CD","AZNIEFUIVB2H0","3HUR21WDDUBEMSLDIXZW1FAIHVWXYO","[{""page_index"":0,""viewing_time"":3951}]","3951","","","","","","","","","","","",""
"","survey-text","365","251525","0.0-455.0","3IRIK4HM3B6QMUY6CKDJTU13PEM6CD","AZNIEFUIVB2H0","3HUR21WDDUBEMSLDIXZW1FAIHVWXYO","","16504","","","","","","","","","","","","{""Q0"":""AZNIEFUIVB2H0""}"
