"rt","url","trial_type","trial_index","time_elapsed","internal_node_id","assignmentID","mturkID","hitID","success","view_history","stimulus","key_press","reactionTime","a","r","s","reward_cond","responses"
"12238","consent.html","external-html","0","12531","0.0-0.0","369J354OFEW336EBE692JLMIKMM6GO","A1AYQ8E01NSY5Z","39KMGHJ4RZW9S7JH7DZG09TNV4R00C","","","","","","","","","",""
"","","fullscreen","1","15509","0.0-1.0","369J354OFEW336EBE692JLMIKMM6GO","A1AYQ8E01NSY5Z","39KMGHJ4RZW9S7JH7DZG09TNV4R00C","true","","","","","","","","",""
"6397","","instructions","2","21911","0.0-2.0","369J354OFEW336EBE692JLMIKMM6GO","A1AYQ8E01NSY5Z","39KMGHJ4RZW9S7JH7DZG09TNV4R00C","","[{""page_index"":0,""viewing_time"":1157},{""page_index"":1,""viewing_time"":738},{""page_index"":2,""viewing_time"":689},{""page_index"":3,""viewing_time"":993},{""page_index"":4,""viewing_time"":1738},{""page_index"":5,""viewing_time"":1082}]","","","","","","","",""
"1169","","instructions","3","23080","0.0-3.0","369J354OFEW336EBE692JLMIKMM6GO","A1AYQ8E01NSY5Z","39KMGHJ4RZW9S7JH7DZG09TNV4R00C","","[{""page_index"":0,""viewing_time"":1169}]","","","","","","","",""
"1559","","image-keyboard-response","4","24642","0.0-4.0","369J354OFEW336EBE692JLMIKMM6GO","A1AYQ8E01NSY5Z","39KMGHJ4RZW9S7JH7DZG09TNV4R00C","","","img/flower5.png","76","1561","3","0","2","",""
"null","","html-keyboard-response","5","24949","0.0-5.0","369J354OFEW336EBE692JLMIKMM6GO","A1AYQ8E01NSY5Z","39KMGHJ4RZW9S7JH7DZG09TNV4R00C","","","<img src=""img/flower5.png"" style=""width:200px;border:14px solid red;"">","null","","","","","",""
"356","","image-keyboard-response","6","25307","0.0-6.0","369J354OFEW336EBE692JLMIKMM6GO","A1AYQ8E01NSY5Z","39KMGHJ4RZW9S7JH7DZG09TNV4R00C","","","img/flower4.png","75","357","2","0","1","",""
"null","","html-keyboard-response","7","25611","0.0-7.0","369J354OFEW336EBE692JLMIKMM6GO","A1AYQ8E01NSY5Z","39KMGHJ4RZW9S7JH7DZG09TNV4R00C","","","<img src=""img/flower4.png"" style=""width:200px;border:14px solid red;"">","null","","","","","",""
"142","","image-keyboard-response","8","25755","0.0-8.0","369J354OFEW336EBE692JLMIKMM6GO","A1AYQ8E01NSY5Z","39KMGHJ4RZW9S7JH7DZG09TNV4R00C","","","img/flower4.png","74","142","1","1","1","",""
"null","","html-keyboard-response","9","26066","0.0-9.0","369J354OFEW336EBE692JLMIKMM6GO","A1AYQ8E01NSY5Z","39KMGHJ4RZW9S7JH7DZG09TNV4R00C","","","<img src=""img/flower4.png"" style=""width:200px; border:14px solid green;"">","null","","","","","",""
"240","","image-keyboard-response","10","26306","0.0-10.0","369J354OFEW336EBE692JLMIKMM6GO","A1AYQ8E01NSY5Z","39KMGHJ4RZW9S7JH7DZG09TNV4R00C","","","img/flower4.png","76","240","3","0","1","",""
"null","","html-keyboard-response","11","26618","0.0-11.0","369J354OFEW336EBE692JLMIKMM6GO","A1AYQ8E01NSY5Z","39KMGHJ4RZW9S7JH7DZG09TNV4R00C","","","<img src=""img/flower4.png"" style=""width:200px;border:14px solid red;"">","null","","","","","",""
"201","","image-keyboard-response","12","26820","0.0-12.0","369J354OFEW336EBE692JLMIKMM6GO","A1AYQ8E01NSY5Z","39KMGHJ4RZW9S7JH7DZG09TNV4R00C","","","img/flower6.png","76","201","3","0","3","",""
"null","","html-keyboard-response","13","27135","0.0-13.0","369J354OFEW336EBE692JLMIKMM6GO","A1AYQ8E01NSY5Z","39KMGHJ4RZW9S7JH7DZG09TNV4R00C","","","<img src=""img/flower6.png"" style=""width:200px;border:14px solid red;"">","null","","","","","",""
"35","","image-keyboard-response","14","27172","0.0-14.0","369J354OFEW336EBE692JLMIKMM6GO","A1AYQ8E01NSY5Z","39KMGHJ4RZW9S7JH7DZG09TNV4R00C","","","img/flower6.png","75","36","2","0","3","",""
"null","","html-keyboard-response","15","27476","0.0-15.0","369J354OFEW336EBE692JLMIKMM6GO","A1AYQ8E01NSY5Z","39KMGHJ4RZW9S7JH7DZG09TNV4R00C","","","<img src=""img/flower6.png"" style=""width:200px;border:14px solid red;"">","null","","","","","",""
"303","","image-keyboard-response","16","27780","0.0-16.0","369J354OFEW336EBE692JLMIKMM6GO","A1AYQ8E01NSY5Z","39KMGHJ4RZW9S7JH7DZG09TNV4R00C","","","img/flower5.png","74","303","1","0","2","",""
"null","","html-keyboard-response","17","28084","0.0-17.0","369J354OFEW336EBE692JLMIKMM6GO","A1AYQ8E01NSY5Z","39KMGHJ4RZW9S7JH7DZG09TNV4R00C","","","<img src=""img/flower5.png"" style=""width:200px;border:14px solid red;"">","null","","","","","",""
"30","","image-keyboard-response","18","28115","0.0-18.0","369J354OFEW336EBE692JLMIKMM6GO","A1AYQ8E01NSY5Z","39KMGHJ4RZW9S7JH7DZG09TNV4R00C","","","img/flower6.png","76","31","3","0","3","",""
"null","","html-keyboard-response","19","28424","0.0-19.0","369J354OFEW336EBE692JLMIKMM6GO","A1AYQ8E01NSY5Z","39KMGHJ4RZW9S7JH7DZG09TNV4R00C","","","<img src=""img/flower6.png"" style=""width:200px;border:14px solid red;"">","null","","","","","",""
"9","","image-keyboard-response","20","28437","0.0-20.0","369J354OFEW336EBE692JLMIKMM6GO","A1AYQ8E01NSY5Z","39KMGHJ4RZW9S7JH7DZG09TNV4R00C","","","img/flower5.png","76","12","3","0","2","",""
"null","","html-keyboard-response","21","28752","0.0-21.0","369J354OFEW336EBE692JLMIKMM6GO","A1AYQ8E01NSY5Z","39KMGHJ4RZW9S7JH7DZG09TNV4R00C","","","<img src=""img/flower5.png"" style=""width:200px;border:14px solid red;"">","null","","","","","",""
"162","","image-keyboard-response","22","28915","0.0-22.0","369J354OFEW336EBE692JLMIKMM6GO","A1AYQ8E01NSY5Z","39KMGHJ4RZW9S7JH7DZG09TNV4R00C","","","img/flower4.png","75","162","2","0","1","",""
"null","","html-keyboard-response","23","29218","0.0-23.0","369J354OFEW336EBE692JLMIKMM6GO","A1AYQ8E01NSY5Z","39KMGHJ4RZW9S7JH7DZG09TNV4R00C","","","<img src=""img/flower4.png"" style=""width:200px;border:14px solid red;"">","null","","","","","",""
"159","","image-keyboard-response","24","29379","0.0-24.0","369J354OFEW336EBE692JLMIKMM6GO","A1AYQ8E01NSY5Z","39KMGHJ4RZW9S7JH7DZG09TNV4R00C","","","img/flower5.png","74","161","1","0","2","",""
"null","","html-keyboard-response","25","29684","0.0-25.0","369J354OFEW336EBE692JLMIKMM6GO","A1AYQ8E01NSY5Z","39KMGHJ4RZW9S7JH7DZG09TNV4R00C","","","<img src=""img/flower5.png"" style=""width:200px;border:14px solid red;"">","null","","","","","",""
"292","","image-keyboard-response","26","29978","0.0-26.0","369J354OFEW336EBE692JLMIKMM6GO","A1AYQ8E01NSY5Z","39KMGHJ4RZW9S7JH7DZG09TNV4R00C","","","img/flower4.png","76","294","3","0","1","",""
"null","","html-keyboard-response","27","30292","0.0-27.0","369J354OFEW336EBE692JLMIKMM6GO","A1AYQ8E01NSY5Z","39KMGHJ4RZW9S7JH7DZG09TNV4R00C","","","<img src=""img/flower4.png"" style=""width:200px;border:14px solid red;"">","null","","","","","",""
"478","","image-keyboard-response","28","30772","0.0-28.0","369J354OFEW336EBE692JLMIKMM6GO","A1AYQ8E01NSY5Z","39KMGHJ4RZW9S7JH7DZG09TNV4R00C","","","img/flower5.png","74","480","1","1","2","",""
"null","","html-keyboard-response","29","31084","0.0-29.0","369J354OFEW336EBE692JLMIKMM6GO","A1AYQ8E01NSY5Z","39KMGHJ4RZW9S7JH7DZG09TNV4R00C","","","<img src=""img/flower5.png"" style=""width:200px; border:14px solid green;"">","null","","","","","",""
"422","","image-keyboard-response","30","31507","0.0-30.0","369J354OFEW336EBE692JLMIKMM6GO","A1AYQ8E01NSY5Z","39KMGHJ4RZW9S7JH7DZG09TNV4R00C","","","img/flower5.png","74","423","1","0","2","",""
"null","","html-keyboard-response","31","31809","0.0-31.0","369J354OFEW336EBE692JLMIKMM6GO","A1AYQ8E01NSY5Z","39KMGHJ4RZW9S7JH7DZG09TNV4R00C","","","<img src=""img/flower5.png"" style=""width:200px;border:14px solid red;"">","null","","","","","",""
"2","","image-keyboard-response","32","31813","0.0-32.0","369J354OFEW336EBE692JLMIKMM6GO","A1AYQ8E01NSY5Z","39KMGHJ4RZW9S7JH7DZG09TNV4R00C","","","img/flower6.png","74","2","1","0","3","",""
"null","","html-keyboard-response","33","32121","0.0-33.0","369J354OFEW336EBE692JLMIKMM6GO","A1AYQ8E01NSY5Z","39KMGHJ4RZW9S7JH7DZG09TNV4R00C","","","<img src=""img/flower6.png"" style=""width:200px;border:14px solid red;"">","null","","","","","",""
"161","","image-keyboard-response","34","32283","0.0-34.0","369J354OFEW336EBE692JLMIKMM6GO","A1AYQ8E01NSY5Z","39KMGHJ4RZW9S7JH7DZG09TNV4R00C","","","img/flower6.png","76","162","3","1","3","",""
"null","","html-keyboard-response","35","32595","0.0-35.0","369J354OFEW336EBE692JLMIKMM6GO","A1AYQ8E01NSY5Z","39KMGHJ4RZW9S7JH7DZG09TNV4R00C","","","<img src=""img/flower6.png"" style=""width:200px; border:14px solid green;"">","null","","","","","",""
"152","","image-keyboard-response","36","32747","0.0-36.0","369J354OFEW336EBE692JLMIKMM6GO","A1AYQ8E01NSY5Z","39KMGHJ4RZW9S7JH7DZG09TNV4R00C","","","img/flower6.png","76","152","3","1","3","",""
"null","","html-keyboard-response","37","33061","0.0-37.0","369J354OFEW336EBE692JLMIKMM6GO","A1AYQ8E01NSY5Z","39KMGHJ4RZW9S7JH7DZG09TNV4R00C","","","<img src=""img/flower6.png"" style=""width:200px; border:14px solid green;"">","null","","","","","",""
"151","","image-keyboard-response","38","33212","0.0-38.0","369J354OFEW336EBE692JLMIKMM6GO","A1AYQ8E01NSY5Z","39KMGHJ4RZW9S7JH7DZG09TNV4R00C","","","img/flower6.png","76","152","3","1","3","",""
"null","","html-keyboard-response","39","33528","0.0-39.0","369J354OFEW336EBE692JLMIKMM6GO","A1AYQ8E01NSY5Z","39KMGHJ4RZW9S7JH7DZG09TNV4R00C","","","<img src=""img/flower6.png"" style=""width:200px; border:14px solid green;"">","null","","","","","",""
"113","","image-keyboard-response","40","33643","0.0-40.0","369J354OFEW336EBE692JLMIKMM6GO","A1AYQ8E01NSY5Z","39KMGHJ4RZW9S7JH7DZG09TNV4R00C","","","img/flower6.png","76","115","3","1","3","",""
"null","","html-keyboard-response","41","33947","0.0-41.0","369J354OFEW336EBE692JLMIKMM6GO","A1AYQ8E01NSY5Z","39KMGHJ4RZW9S7JH7DZG09TNV4R00C","","","<img src=""img/flower6.png"" style=""width:200px; border:14px solid green;"">","null","","","","","",""
"112","","image-keyboard-response","42","34060","0.0-42.0","369J354OFEW336EBE692JLMIKMM6GO","A1AYQ8E01NSY5Z","39KMGHJ4RZW9S7JH7DZG09TNV4R00C","","","img/flower5.png","76","114","3","0","2","",""
"null","","html-keyboard-response","43","34369","0.0-43.0","369J354OFEW336EBE692JLMIKMM6GO","A1AYQ8E01NSY5Z","39KMGHJ4RZW9S7JH7DZG09TNV4R00C","","","<img src=""img/flower5.png"" style=""width:200px;border:14px solid red;"">","null","","","","","",""
"184","","image-keyboard-response","44","34555","0.0-44.0","369J354OFEW336EBE692JLMIKMM6GO","A1AYQ8E01NSY5Z","39KMGHJ4RZW9S7JH7DZG09TNV4R00C","","","img/flower5.png","74","186","1","0","2","",""
"null","","html-keyboard-response","45","34860","0.0-45.0","369J354OFEW336EBE692JLMIKMM6GO","A1AYQ8E01NSY5Z","39KMGHJ4RZW9S7JH7DZG09TNV4R00C","","","<img src=""img/flower5.png"" style=""width:200px;border:14px solid red;"">","null","","","","","",""
"269","","image-keyboard-response","46","35131","0.0-46.0","369J354OFEW336EBE692JLMIKMM6GO","A1AYQ8E01NSY5Z","39KMGHJ4RZW9S7JH7DZG09TNV4R00C","","","img/flower6.png","76","271","3","1","3","",""
"null","","html-keyboard-response","47","35433","0.0-47.0","369J354OFEW336EBE692JLMIKMM6GO","A1AYQ8E01NSY5Z","39KMGHJ4RZW9S7JH7DZG09TNV4R00C","","","<img src=""img/flower6.png"" style=""width:200px; border:14px solid green;"">","null","","","","","",""
"104","","image-keyboard-response","48","35539","0.0-48.0","369J354OFEW336EBE692JLMIKMM6GO","A1AYQ8E01NSY5Z","39KMGHJ4RZW9S7JH7DZG09TNV4R00C","","","img/flower4.png","74","105","1","1","1","",""
"null","","html-keyboard-response","49","35852","0.0-49.0","369J354OFEW336EBE692JLMIKMM6GO","A1AYQ8E01NSY5Z","39KMGHJ4RZW9S7JH7DZG09TNV4R00C","","","<img src=""img/flower4.png"" style=""width:200px; border:14px solid green;"">","null","","","","","",""
"298","","image-keyboard-response","50","36152","0.0-50.0","369J354OFEW336EBE692JLMIKMM6GO","A1AYQ8E01NSY5Z","39KMGHJ4RZW9S7JH7DZG09TNV4R00C","","","img/flower5.png","76","300","3","0","2","",""
"null","","html-keyboard-response","51","36459","0.0-51.0","369J354OFEW336EBE692JLMIKMM6GO","A1AYQ8E01NSY5Z","39KMGHJ4RZW9S7JH7DZG09TNV4R00C","","","<img src=""img/flower5.png"" style=""width:200px;border:14px solid red;"">","null","","","","","",""
"247","","image-keyboard-response","52","36707","0.0-52.0","369J354OFEW336EBE692JLMIKMM6GO","A1AYQ8E01NSY5Z","39KMGHJ4RZW9S7JH7DZG09TNV4R00C","","","img/flower4.png","76","247","3","0","1","",""
"null","","html-keyboard-response","53","37024","0.0-53.0","369J354OFEW336EBE692JLMIKMM6GO","A1AYQ8E01NSY5Z","39KMGHJ4RZW9S7JH7DZG09TNV4R00C","","","<img src=""img/flower4.png"" style=""width:200px;border:14px solid red;"">","null","","","","","",""
"17","","image-keyboard-response","54","37044","0.0-54.0","369J354OFEW336EBE692JLMIKMM6GO","A1AYQ8E01NSY5Z","39KMGHJ4RZW9S7JH7DZG09TNV4R00C","","","img/flower4.png","75","18","2","0","1","",""
"null","","html-keyboard-response","55","37350","0.0-55.0","369J354OFEW336EBE692JLMIKMM6GO","A1AYQ8E01NSY5Z","39KMGHJ4RZW9S7JH7DZG09TNV4R00C","","","<img src=""img/flower4.png"" style=""width:200px;border:14px solid red;"">","null","","","","","",""
"172","","image-keyboard-response","56","37523","0.0-56.0","369J354OFEW336EBE692JLMIKMM6GO","A1AYQ8E01NSY5Z","39KMGHJ4RZW9S7JH7DZG09TNV4R00C","","","img/flower4.png","76","174","3","0","1","",""
"null","","html-keyboard-response","57","37835","0.0-57.0","369J354OFEW336EBE692JLMIKMM6GO","A1AYQ8E01NSY5Z","39KMGHJ4RZW9S7JH7DZG09TNV4R00C","","","<img src=""img/flower4.png"" style=""width:200px;border:14px solid red;"">","null","","","","","",""
"54","","image-keyboard-response","58","37889","0.0-58.0","369J354OFEW336EBE692JLMIKMM6GO","A1AYQ8E01NSY5Z","39KMGHJ4RZW9S7JH7DZG09TNV4R00C","","","img/flower5.png","76","54","3","0","2","",""
"null","","html-keyboard-response","59","38192","0.0-59.0","369J354OFEW336EBE692JLMIKMM6GO","A1AYQ8E01NSY5Z","39KMGHJ4RZW9S7JH7DZG09TNV4R00C","","","<img src=""img/flower5.png"" style=""width:200px;border:14px solid red;"">","null","","","","","",""
"426","","image-keyboard-response","60","38619","0.0-60.0","369J354OFEW336EBE692JLMIKMM6GO","A1AYQ8E01NSY5Z","39KMGHJ4RZW9S7JH7DZG09TNV4R00C","","","img/flower4.png","75","427","2","1","1","",""
"null","","html-keyboard-response","61","38923","0.0-61.0","369J354OFEW336EBE692JLMIKMM6GO","A1AYQ8E01NSY5Z","39KMGHJ4RZW9S7JH7DZG09TNV4R00C","","","<img src=""img/flower4.png"" style=""width:200px; border:14px solid green;"">","null","","","","","",""
"32","","image-keyboard-response","62","38957","0.0-62.0","369J354OFEW336EBE692JLMIKMM6GO","A1AYQ8E01NSY5Z","39KMGHJ4RZW9S7JH7DZG09TNV4R00C","","","img/flower6.png","74","34","1","1","3","",""
"null","","html-keyboard-response","63","39265","0.0-63.0","369J354OFEW336EBE692JLMIKMM6GO","A1AYQ8E01NSY5Z","39KMGHJ4RZW9S7JH7DZG09TNV4R00C","","","<img src=""img/flower6.png"" style=""width:200px; border:14px solid green;"">","null","","","","","",""
"8421","","instructions","64","47687","0.0-64.0","369J354OFEW336EBE692JLMIKMM6GO","A1AYQ8E01NSY5Z","39KMGHJ4RZW9S7JH7DZG09TNV4R00C","","[{""page_index"":0,""viewing_time"":5312},{""page_index"":1,""viewing_time"":3109}]","","","","","","","",""
"1034","","image-keyboard-response","65","48723","0.0-65.0","369J354OFEW336EBE692JLMIKMM6GO","A1AYQ8E01NSY5Z","39KMGHJ4RZW9S7JH7DZG09TNV4R00C","","","img/flower4.png","74","1036","1","1","1","",""
"null","","html-keyboard-response","66","49032","0.0-66.0","369J354OFEW336EBE692JLMIKMM6GO","A1AYQ8E01NSY5Z","39KMGHJ4RZW9S7JH7DZG09TNV4R00C","","","<img src=""img/flower4.png"" style=""width:200px; border:14px solid green;"">","null","","","","","",""
"169","","image-keyboard-response","67","49204","0.0-67.0","369J354OFEW336EBE692JLMIKMM6GO","A1AYQ8E01NSY5Z","39KMGHJ4RZW9S7JH7DZG09TNV4R00C","","","img/flower6.png","74","171","1","1","3","",""
"null","","html-keyboard-response","68","49517","0.0-68.0","369J354OFEW336EBE692JLMIKMM6GO","A1AYQ8E01NSY5Z","39KMGHJ4RZW9S7JH7DZG09TNV4R00C","","","<img src=""img/flower6.png"" style=""width:200px; border:14px solid green;"">","null","","","","","",""
"172","","image-keyboard-response","69","49691","0.0-69.0","369J354OFEW336EBE692JLMIKMM6GO","A1AYQ8E01NSY5Z","39KMGHJ4RZW9S7JH7DZG09TNV4R00C","","","img/flower6.png","74","174","1","1","3","",""
"null","","html-keyboard-response","70","50000","0.0-70.0","369J354OFEW336EBE692JLMIKMM6GO","A1AYQ8E01NSY5Z","39KMGHJ4RZW9S7JH7DZG09TNV4R00C","","","<img src=""img/flower6.png"" style=""width:200px; border:14px solid green;"">","null","","","","","",""
"169","","image-keyboard-response","71","50171","0.0-71.0","369J354OFEW336EBE692JLMIKMM6GO","A1AYQ8E01NSY5Z","39KMGHJ4RZW9S7JH7DZG09TNV4R00C","","","img/flower4.png","76","170","3","0","1","",""
"null","","html-keyboard-response","72","50480","0.0-72.0","369J354OFEW336EBE692JLMIKMM6GO","A1AYQ8E01NSY5Z","39KMGHJ4RZW9S7JH7DZG09TNV4R00C","","","<img src=""img/flower4.png"" style=""width:200px;border:14px solid red;"">","null","","","","","",""
"170","","image-keyboard-response","73","50651","0.0-73.0","369J354OFEW336EBE692JLMIKMM6GO","A1AYQ8E01NSY5Z","39KMGHJ4RZW9S7JH7DZG09TNV4R00C","","","img/flower6.png","74","170","1","1","3","",""
"null","","html-keyboard-response","74","50967","0.0-74.0","369J354OFEW336EBE692JLMIKMM6GO","A1AYQ8E01NSY5Z","39KMGHJ4RZW9S7JH7DZG09TNV4R00C","","","<img src=""img/flower6.png"" style=""width:200px; border:14px solid green;"">","null","","","","","",""
"66","","image-keyboard-response","75","51034","0.0-75.0","369J354OFEW336EBE692JLMIKMM6GO","A1AYQ8E01NSY5Z","39KMGHJ4RZW9S7JH7DZG09TNV4R00C","","","img/flower4.png","74","67","1","1","1","",""
"null","","html-keyboard-response","76","51339","0.0-76.0","369J354OFEW336EBE692JLMIKMM6GO","A1AYQ8E01NSY5Z","39KMGHJ4RZW9S7JH7DZG09TNV4R00C","","","<img src=""img/flower4.png"" style=""width:200px; border:14px solid green;"">","null","","","","","",""
"159","","image-keyboard-response","77","51500","0.0-77.0","369J354OFEW336EBE692JLMIKMM6GO","A1AYQ8E01NSY5Z","39KMGHJ4RZW9S7JH7DZG09TNV4R00C","","","img/flower4.png","74","160","1","1","1","",""
"null","","html-keyboard-response","78","51805","0.0-78.0","369J354OFEW336EBE692JLMIKMM6GO","A1AYQ8E01NSY5Z","39KMGHJ4RZW9S7JH7DZG09TNV4R00C","","","<img src=""img/flower4.png"" style=""width:200px; border:14px solid green;"">","null","","","","","",""
"157","","image-keyboard-response","79","51963","0.0-79.0","369J354OFEW336EBE692JLMIKMM6GO","A1AYQ8E01NSY5Z","39KMGHJ4RZW9S7JH7DZG09TNV4R00C","","","img/flower6.png","74","159","1","1","3","",""
"null","","html-keyboard-response","80","52270","0.0-80.0","369J354OFEW336EBE692JLMIKMM6GO","A1AYQ8E01NSY5Z","39KMGHJ4RZW9S7JH7DZG09TNV4R00C","","","<img src=""img/flower6.png"" style=""width:200px; border:14px solid green;"">","null","","","","","",""
"107","","image-keyboard-response","81","52379","0.0-81.0","369J354OFEW336EBE692JLMIKMM6GO","A1AYQ8E01NSY5Z","39KMGHJ4RZW9S7JH7DZG09TNV4R00C","","","img/flower5.png","74","109","1","1","2","",""
"null","","html-keyboard-response","82","52691","0.0-82.0","369J354OFEW336EBE692JLMIKMM6GO","A1AYQ8E01NSY5Z","39KMGHJ4RZW9S7JH7DZG09TNV4R00C","","","<img src=""img/flower5.png"" style=""width:200px; border:14px solid green;"">","null","","","","","",""
"183","","image-keyboard-response","83","52875","0.0-83.0","369J354OFEW336EBE692JLMIKMM6GO","A1AYQ8E01NSY5Z","39KMGHJ4RZW9S7JH7DZG09TNV4R00C","","","img/flower6.png","76","184","3","0","3","",""
"null","","html-keyboard-response","84","53191","0.0-84.0","369J354OFEW336EBE692JLMIKMM6GO","A1AYQ8E01NSY5Z","39KMGHJ4RZW9S7JH7DZG09TNV4R00C","","","<img src=""img/flower6.png"" style=""width:200px;border:14px solid red;"">","null","","","","","",""
"42","","image-keyboard-response","85","53235","0.0-85.0","369J354OFEW336EBE692JLMIKMM6GO","A1AYQ8E01NSY5Z","39KMGHJ4RZW9S7JH7DZG09TNV4R00C","","","img/flower5.png","76","44","3","0","2","",""
"null","","html-keyboard-response","86","53546","0.0-86.0","369J354OFEW336EBE692JLMIKMM6GO","A1AYQ8E01NSY5Z","39KMGHJ4RZW9S7JH7DZG09TNV4R00C","","","<img src=""img/flower5.png"" style=""width:200px;border:14px solid red;"">","null","","","","","",""
"279","","image-keyboard-response","87","53827","0.0-87.0","369J354OFEW336EBE692JLMIKMM6GO","A1AYQ8E01NSY5Z","39KMGHJ4RZW9S7JH7DZG09TNV4R00C","","","img/flower6.png","74","281","1","1","3","",""
"null","","html-keyboard-response","88","54137","0.0-88.0","369J354OFEW336EBE692JLMIKMM6GO","A1AYQ8E01NSY5Z","39KMGHJ4RZW9S7JH7DZG09TNV4R00C","","","<img src=""img/flower6.png"" style=""width:200px; border:14px solid green;"">","null","","","","","",""
"113","","image-keyboard-response","89","54251","0.0-89.0","369J354OFEW336EBE692JLMIKMM6GO","A1AYQ8E01NSY5Z","39KMGHJ4RZW9S7JH7DZG09TNV4R00C","","","img/flower5.png","76","114","3","1","2","",""
"null","","html-keyboard-response","90","54557","0.0-90.0","369J354OFEW336EBE692JLMIKMM6GO","A1AYQ8E01NSY5Z","39KMGHJ4RZW9S7JH7DZG09TNV4R00C","","","<img src=""img/flower5.png"" style=""width:200px; border:14px solid green;"">","null","","","","","",""
"93","","image-keyboard-response","91","54652","0.0-91.0","369J354OFEW336EBE692JLMIKMM6GO","A1AYQ8E01NSY5Z","39KMGHJ4RZW9S7JH7DZG09TNV4R00C","","","img/flower4.png","76","94","3","0","1","",""
"null","","html-keyboard-response","92","54963","0.0-92.0","369J354OFEW336EBE692JLMIKMM6GO","A1AYQ8E01NSY5Z","39KMGHJ4RZW9S7JH7DZG09TNV4R00C","","","<img src=""img/flower4.png"" style=""width:200px;border:14px solid red;"">","null","","","","","",""
"69","","image-keyboard-response","93","55034","0.0-93.0","369J354OFEW336EBE692JLMIKMM6GO","A1AYQ8E01NSY5Z","39KMGHJ4RZW9S7JH7DZG09TNV4R00C","","","img/flower6.png","76","71","3","0","3","",""
"null","","html-keyboard-response","94","55350","0.0-94.0","369J354OFEW336EBE692JLMIKMM6GO","A1AYQ8E01NSY5Z","39KMGHJ4RZW9S7JH7DZG09TNV4R00C","","","<img src=""img/flower6.png"" style=""width:200px;border:14px solid red;"">","null","","","","","",""
"100","","image-keyboard-response","95","55451","0.0-95.0","369J354OFEW336EBE692JLMIKMM6GO","A1AYQ8E01NSY5Z","39KMGHJ4RZW9S7JH7DZG09TNV4R00C","","","img/flower4.png","76","101","3","0","1","",""
"null","","html-keyboard-response","96","55767","0.0-96.0","369J354OFEW336EBE692JLMIKMM6GO","A1AYQ8E01NSY5Z","39KMGHJ4RZW9S7JH7DZG09TNV4R00C","","","<img src=""img/flower4.png"" style=""width:200px;border:14px solid red;"">","null","","","","","",""
"49","","image-keyboard-response","97","55818","0.0-97.0","369J354OFEW336EBE692JLMIKMM6GO","A1AYQ8E01NSY5Z","39KMGHJ4RZW9S7JH7DZG09TNV4R00C","","","img/flower4.png","76","51","3","0","1","",""
"null","","html-keyboard-response","98","56132","0.0-98.0","369J354OFEW336EBE692JLMIKMM6GO","A1AYQ8E01NSY5Z","39KMGHJ4RZW9S7JH7DZG09TNV4R00C","","","<img src=""img/flower4.png"" style=""width:200px;border:14px solid red;"">","null","","","","","",""
"280","","image-keyboard-response","99","56413","0.0-99.0","369J354OFEW336EBE692JLMIKMM6GO","A1AYQ8E01NSY5Z","39KMGHJ4RZW9S7JH7DZG09TNV4R00C","","","img/flower5.png","76","281","3","1","2","",""
"null","","html-keyboard-response","100","56725","0.0-100.0","369J354OFEW336EBE692JLMIKMM6GO","A1AYQ8E01NSY5Z","39KMGHJ4RZW9S7JH7DZG09TNV4R00C","","","<img src=""img/flower5.png"" style=""width:200px; border:14px solid green;"">","null","","","","","",""
"292","","image-keyboard-response","101","57019","0.0-101.0","369J354OFEW336EBE692JLMIKMM6GO","A1AYQ8E01NSY5Z","39KMGHJ4RZW9S7JH7DZG09TNV4R00C","","","img/flower5.png","74","294","1","0","2","",""
"null","","html-keyboard-response","102","57331","0.0-102.0","369J354OFEW336EBE692JLMIKMM6GO","A1AYQ8E01NSY5Z","39KMGHJ4RZW9S7JH7DZG09TNV4R00C","","","<img src=""img/flower5.png"" style=""width:200px;border:14px solid red;"">","null","","","","","",""
"53","","image-keyboard-response","103","57386","0.0-103.0","369J354OFEW336EBE692JLMIKMM6GO","A1AYQ8E01NSY5Z","39KMGHJ4RZW9S7JH7DZG09TNV4R00C","","","img/flower4.png","76","55","3","0","1","",""
"null","","html-keyboard-response","104","57688","0.0-104.0","369J354OFEW336EBE692JLMIKMM6GO","A1AYQ8E01NSY5Z","39KMGHJ4RZW9S7JH7DZG09TNV4R00C","","","<img src=""img/flower4.png"" style=""width:200px;border:14px solid red;"">","null","","","","","",""
"96","","image-keyboard-response","105","57787","0.0-105.0","369J354OFEW336EBE692JLMIKMM6GO","A1AYQ8E01NSY5Z","39KMGHJ4RZW9S7JH7DZG09TNV4R00C","","","img/flower5.png","76","98","3","1","2","",""
"null","","html-keyboard-response","106","58101","0.0-106.0","369J354OFEW336EBE692JLMIKMM6GO","A1AYQ8E01NSY5Z","39KMGHJ4RZW9S7JH7DZG09TNV4R00C","","","<img src=""img/flower5.png"" style=""width:200px; border:14px solid green;"">","null","","","","","",""
"461","","image-keyboard-response","107","58563","0.0-107.0","369J354OFEW336EBE692JLMIKMM6GO","A1AYQ8E01NSY5Z","39KMGHJ4RZW9S7JH7DZG09TNV4R00C","","","img/flower4.png","74","463","1","1","1","",""
"null","","html-keyboard-response","108","58874","0.0-108.0","369J354OFEW336EBE692JLMIKMM6GO","A1AYQ8E01NSY5Z","39KMGHJ4RZW9S7JH7DZG09TNV4R00C","","","<img src=""img/flower4.png"" style=""width:200px; border:14px solid green;"">","null","","","","","",""
"375","","image-keyboard-response","109","59251","0.0-109.0","369J354OFEW336EBE692JLMIKMM6GO","A1AYQ8E01NSY5Z","39KMGHJ4RZW9S7JH7DZG09TNV4R00C","","","img/flower5.png","76","376","3","1","2","",""
"null","","html-keyboard-response","110","59558","0.0-110.0","369J354OFEW336EBE692JLMIKMM6GO","A1AYQ8E01NSY5Z","39KMGHJ4RZW9S7JH7DZG09TNV4R00C","","","<img src=""img/flower5.png"" style=""width:200px; border:14px solid green;"">","null","","","","","",""
"19","","image-keyboard-response","111","59580","0.0-111.0","369J354OFEW336EBE692JLMIKMM6GO","A1AYQ8E01NSY5Z","39KMGHJ4RZW9S7JH7DZG09TNV4R00C","","","img/flower6.png","74","20","1","1","3","",""
"null","","html-keyboard-response","112","59895","0.0-112.0","369J354OFEW336EBE692JLMIKMM6GO","A1AYQ8E01NSY5Z","39KMGHJ4RZW9S7JH7DZG09TNV4R00C","","","<img src=""img/flower6.png"" style=""width:200px; border:14px solid green;"">","null","","","","","",""
"210","","image-keyboard-response","113","60107","0.0-113.0","369J354OFEW336EBE692JLMIKMM6GO","A1AYQ8E01NSY5Z","39KMGHJ4RZW9S7JH7DZG09TNV4R00C","","","img/flower5.png","74","211","1","0","2","",""
"null","","html-keyboard-response","114","60414","0.0-114.0","369J354OFEW336EBE692JLMIKMM6GO","A1AYQ8E01NSY5Z","39KMGHJ4RZW9S7JH7DZG09TNV4R00C","","","<img src=""img/flower5.png"" style=""width:200px;border:14px solid red;"">","null","","","","","",""
"203","","image-keyboard-response","115","60620","0.0-115.0","369J354OFEW336EBE692JLMIKMM6GO","A1AYQ8E01NSY5Z","39KMGHJ4RZW9S7JH7DZG09TNV4R00C","","","img/flower5.png","76","206","3","1","2","",""
"null","","html-keyboard-response","116","60928","0.0-116.0","369J354OFEW336EBE692JLMIKMM6GO","A1AYQ8E01NSY5Z","39KMGHJ4RZW9S7JH7DZG09TNV4R00C","","","<img src=""img/flower5.png"" style=""width:200px; border:14px solid green;"">","null","","","","","",""
"81","","image-keyboard-response","117","61011","0.0-117.0","369J354OFEW336EBE692JLMIKMM6GO","A1AYQ8E01NSY5Z","39KMGHJ4RZW9S7JH7DZG09TNV4R00C","","","img/flower5.png","76","82","3","1","2","",""
"null","","html-keyboard-response","118","61315","0.0-118.0","369J354OFEW336EBE692JLMIKMM6GO","A1AYQ8E01NSY5Z","39KMGHJ4RZW9S7JH7DZG09TNV4R00C","","","<img src=""img/flower5.png"" style=""width:200px; border:14px solid green;"">","null","","","","","",""
"175","","image-keyboard-response","119","61491","0.0-119.0","369J354OFEW336EBE692JLMIKMM6GO","A1AYQ8E01NSY5Z","39KMGHJ4RZW9S7JH7DZG09TNV4R00C","","","img/flower4.png","74","176","1","1","1","",""
"null","","html-keyboard-response","120","61804","0.0-120.0","369J354OFEW336EBE692JLMIKMM6GO","A1AYQ8E01NSY5Z","39KMGHJ4RZW9S7JH7DZG09TNV4R00C","","","<img src=""img/flower4.png"" style=""width:200px; border:14px solid green;"">","null","","","","","",""
"132","","image-keyboard-response","121","61940","0.0-121.0","369J354OFEW336EBE692JLMIKMM6GO","A1AYQ8E01NSY5Z","39KMGHJ4RZW9S7JH7DZG09TNV4R00C","","","img/flower6.png","76","134","3","0","3","",""
"null","","html-keyboard-response","122","62253","0.0-122.0","369J354OFEW336EBE692JLMIKMM6GO","A1AYQ8E01NSY5Z","39KMGHJ4RZW9S7JH7DZG09TNV4R00C","","","<img src=""img/flower6.png"" style=""width:200px;border:14px solid red;"">","null","","","","","",""
"7","","image-keyboard-response","123","62262","0.0-123.0","369J354OFEW336EBE692JLMIKMM6GO","A1AYQ8E01NSY5Z","39KMGHJ4RZW9S7JH7DZG09TNV4R00C","","","img/flower6.png","76","8","3","0","3","",""
"null","","html-keyboard-response","124","62573","0.0-124.0","369J354OFEW336EBE692JLMIKMM6GO","A1AYQ8E01NSY5Z","39KMGHJ4RZW9S7JH7DZG09TNV4R00C","","","<img src=""img/flower6.png"" style=""width:200px;border:14px solid red;"">","null","","","","","",""
"18041","","instructions","125","80615","0.0-125.0","369J354OFEW336EBE692JLMIKMM6GO","A1AYQ8E01NSY5Z","39KMGHJ4RZW9S7JH7DZG09TNV4R00C","","[{""page_index"":0,""viewing_time"":18041}]","","","","","","","",""
"1440","","image-keyboard-response","126","82058","0.0-126.0","369J354OFEW336EBE692JLMIKMM6GO","A1AYQ8E01NSY5Z","39KMGHJ4RZW9S7JH7DZG09TNV4R00C","","","img/flower1.png","76","1441","3","1","3","0.7,0.2,0,0,0.7,0.2,0.2,0,0.7",""
"null","","html-keyboard-response","127","82365","0.0-127.0","369J354OFEW336EBE692JLMIKMM6GO","A1AYQ8E01NSY5Z","39KMGHJ4RZW9S7JH7DZG09TNV4R00C","","","<img src=""img/flower1.png"" style=""width:200px; border:14px solid green;"">","null","","","","","",""
"860","","image-keyboard-response","128","83226","0.0-128.0","369J354OFEW336EBE692JLMIKMM6GO","A1AYQ8E01NSY5Z","39KMGHJ4RZW9S7JH7DZG09TNV4R00C","","","img/flower3.png","76","861","3","0","1","0.7,0.2,0,0,0.7,0.2,0.2,0,0.7",""
"null","","html-keyboard-response","129","83533","0.0-129.0","369J354OFEW336EBE692JLMIKMM6GO","A1AYQ8E01NSY5Z","39KMGHJ4RZW9S7JH7DZG09TNV4R00C","","","<img src=""img/flower3.png"" style=""width:200px;border:14px solid red;"">","null","","","","","",""
"301","","image-keyboard-response","130","83834","0.0-130.0","369J354OFEW336EBE692JLMIKMM6GO","A1AYQ8E01NSY5Z","39KMGHJ4RZW9S7JH7DZG09TNV4R00C","","","img/flower3.png","74","302","1","1","1","0.7,0.2,0,0,0.7,0.2,0.2,0,0.7",""
"null","","html-keyboard-response","131","84143","0.0-131.0","369J354OFEW336EBE692JLMIKMM6GO","A1AYQ8E01NSY5Z","39KMGHJ4RZW9S7JH7DZG09TNV4R00C","","","<img src=""img/flower3.png"" style=""width:200px; border:14px solid green;"">","null","","","","","",""
"371","","image-keyboard-response","132","84516","0.0-132.0","369J354OFEW336EBE692JLMIKMM6GO","A1AYQ8E01NSY5Z","39KMGHJ4RZW9S7JH7DZG09TNV4R00C","","","img/flower4.png","75","373","2","1","2","0.7,0.2,0,0,0.7,0.2,0.2,0,0.7",""
"null","","html-keyboard-response","133","84827","0.0-133.0","369J354OFEW336EBE692JLMIKMM6GO","A1AYQ8E01NSY5Z","39KMGHJ4RZW9S7JH7DZG09TNV4R00C","","","<img src=""img/flower4.png"" style=""width:200px; border:14px solid green;"">","null","","","","","",""
"329","","image-keyboard-response","134","85157","0.0-134.0","369J354OFEW336EBE692JLMIKMM6GO","A1AYQ8E01NSY5Z","39KMGHJ4RZW9S7JH7DZG09TNV4R00C","","","img/flower4.png","75","329","2","1","2","0.7,0.2,0,0,0.7,0.2,0.2,0,0.7",""
"null","","html-keyboard-response","135","85471","0.0-135.0","369J354OFEW336EBE692JLMIKMM6GO","A1AYQ8E01NSY5Z","39KMGHJ4RZW9S7JH7DZG09TNV4R00C","","","<img src=""img/flower4.png"" style=""width:200px; border:14px solid green;"">","null","","","","","",""
"337","","image-keyboard-response","136","85810","0.0-136.0","369J354OFEW336EBE692JLMIKMM6GO","A1AYQ8E01NSY5Z","39KMGHJ4RZW9S7JH7DZG09TNV4R00C","","","img/flower3.png","75","337","2","0","1","0.7,0.2,0,0,0.7,0.2,0.2,0,0.7",""
"null","","html-keyboard-response","137","86123","0.0-137.0","369J354OFEW336EBE692JLMIKMM6GO","A1AYQ8E01NSY5Z","39KMGHJ4RZW9S7JH7DZG09TNV4R00C","","","<img src=""img/flower3.png"" style=""width:200px;border:14px solid red;"">","null","","","","","",""
"431","","image-keyboard-response","138","86555","0.0-138.0","369J354OFEW336EBE692JLMIKMM6GO","A1AYQ8E01NSY5Z","39KMGHJ4RZW9S7JH7DZG09TNV4R00C","","","img/flower1.png","74","431","1","0","3","0.7,0.2,0,0,0.7,0.2,0.2,0,0.7",""
"null","","html-keyboard-response","139","86863","0.0-139.0","369J354OFEW336EBE692JLMIKMM6GO","A1AYQ8E01NSY5Z","39KMGHJ4RZW9S7JH7DZG09TNV4R00C","","","<img src=""img/flower1.png"" style=""width:200px;border:14px solid red;"">","null","","","","","",""
"251","","image-keyboard-response","140","87115","0.0-140.0","369J354OFEW336EBE692JLMIKMM6GO","A1AYQ8E01NSY5Z","39KMGHJ4RZW9S7JH7DZG09TNV4R00C","","","img/flower1.png","76","252","3","0","3","0.7,0.2,0,0,0.7,0.2,0.2,0,0.7",""
"null","","html-keyboard-response","141","87420","0.0-141.0","369J354OFEW336EBE692JLMIKMM6GO","A1AYQ8E01NSY5Z","39KMGHJ4RZW9S7JH7DZG09TNV4R00C","","","<img src=""img/flower1.png"" style=""width:200px;border:14px solid red;"">","null","","","","","",""
"366","","image-keyboard-response","142","87787","0.0-142.0","369J354OFEW336EBE692JLMIKMM6GO","A1AYQ8E01NSY5Z","39KMGHJ4RZW9S7JH7DZG09TNV4R00C","","","img/flower3.png","75","367","2","0","1","0.7,0.2,0,0,0.7,0.2,0.2,0,0.7",""
"null","","html-keyboard-response","143","88093","0.0-143.0","369J354OFEW336EBE692JLMIKMM6GO","A1AYQ8E01NSY5Z","39KMGHJ4RZW9S7JH7DZG09TNV4R00C","","","<img src=""img/flower3.png"" style=""width:200px;border:14px solid red;"">","null","","","","","",""
"309","","image-keyboard-response","144","88404","0.0-144.0","369J354OFEW336EBE692JLMIKMM6GO","A1AYQ8E01NSY5Z","39KMGHJ4RZW9S7JH7DZG09TNV4R00C","","","img/flower4.png","76","311","3","0","2","0.7,0.2,0,0,0.7,0.2,0.2,0,0.7",""
"null","","html-keyboard-response","145","88711","0.0-145.0","369J354OFEW336EBE692JLMIKMM6GO","A1AYQ8E01NSY5Z","39KMGHJ4RZW9S7JH7DZG09TNV4R00C","","","<img src=""img/flower4.png"" style=""width:200px;border:14px solid red;"">","null","","","","","",""
"545","","image-keyboard-response","146","89258","0.0-146.0","369J354OFEW336EBE692JLMIKMM6GO","A1AYQ8E01NSY5Z","39KMGHJ4RZW9S7JH7DZG09TNV4R00C","","","img/flower4.png","74","547","1","0","2","0.7,0.2,0,0,0.7,0.2,0.2,0,0.7",""
"null","","html-keyboard-response","147","89572","0.0-147.0","369J354OFEW336EBE692JLMIKMM6GO","A1AYQ8E01NSY5Z","39KMGHJ4RZW9S7JH7DZG09TNV4R00C","","","<img src=""img/flower4.png"" style=""width:200px;border:14px solid red;"">","null","","","","","",""
"293","","image-keyboard-response","148","89867","0.0-148.0","369J354OFEW336EBE692JLMIKMM6GO","A1AYQ8E01NSY5Z","39KMGHJ4RZW9S7JH7DZG09TNV4R00C","","","img/flower3.png","76","294","3","0","1","0.7,0.2,0,0,0.7,0.2,0.2,0,0.7",""
"null","","html-keyboard-response","149","90178","0.0-149.0","369J354OFEW336EBE692JLMIKMM6GO","A1AYQ8E01NSY5Z","39KMGHJ4RZW9S7JH7DZG09TNV4R00C","","","<img src=""img/flower3.png"" style=""width:200px;border:14px solid red;"">","null","","","","","",""
"407","","image-keyboard-response","150","90587","0.0-150.0","369J354OFEW336EBE692JLMIKMM6GO","A1AYQ8E01NSY5Z","39KMGHJ4RZW9S7JH7DZG09TNV4R00C","","","img/flower4.png","74","409","1","0","2","0.7,0.2,0,0,0.7,0.2,0.2,0,0.7",""
"null","","html-keyboard-response","151","90892","0.0-151.0","369J354OFEW336EBE692JLMIKMM6GO","A1AYQ8E01NSY5Z","39KMGHJ4RZW9S7JH7DZG09TNV4R00C","","","<img src=""img/flower4.png"" style=""width:200px;border:14px solid red;"">","null","","","","","",""
"174","","image-keyboard-response","152","91068","0.0-152.0","369J354OFEW336EBE692JLMIKMM6GO","A1AYQ8E01NSY5Z","39KMGHJ4RZW9S7JH7DZG09TNV4R00C","","","img/flower1.png","75","175","2","0","3","0.7,0.2,0,0,0.7,0.2,0.2,0,0.7",""
"null","","html-keyboard-response","153","91384","0.0-153.0","369J354OFEW336EBE692JLMIKMM6GO","A1AYQ8E01NSY5Z","39KMGHJ4RZW9S7JH7DZG09TNV4R00C","","","<img src=""img/flower1.png"" style=""width:200px;border:14px solid red;"">","null","","","","","",""
"538","","image-keyboard-response","154","91924","0.0-154.0","369J354OFEW336EBE692JLMIKMM6GO","A1AYQ8E01NSY5Z","39KMGHJ4RZW9S7JH7DZG09TNV4R00C","","","img/flower4.png","74","539","1","0","2","0.7,0.2,0,0,0.7,0.2,0.2,0,0.7",""
"null","","html-keyboard-response","155","92226","0.0-155.0","369J354OFEW336EBE692JLMIKMM6GO","A1AYQ8E01NSY5Z","39KMGHJ4RZW9S7JH7DZG09TNV4R00C","","","<img src=""img/flower4.png"" style=""width:200px;border:14px solid red;"">","null","","","","","",""
"240","","image-keyboard-response","156","92468","0.0-156.0","369J354OFEW336EBE692JLMIKMM6GO","A1AYQ8E01NSY5Z","39KMGHJ4RZW9S7JH7DZG09TNV4R00C","","","img/flower1.png","76","241","3","1","3","0.7,0.2,0,0,0.7,0.2,0.2,0,0.7",""
"null","","html-keyboard-response","157","92785","0.0-157.0","369J354OFEW336EBE692JLMIKMM6GO","A1AYQ8E01NSY5Z","39KMGHJ4RZW9S7JH7DZG09TNV4R00C","","","<img src=""img/flower1.png"" style=""width:200px; border:14px solid green;"">","null","","","","","",""
"290","","image-keyboard-response","158","93075","0.0-158.0","369J354OFEW336EBE692JLMIKMM6GO","A1AYQ8E01NSY5Z","39KMGHJ4RZW9S7JH7DZG09TNV4R00C","","","img/flower4.png","76","290","3","0","2","0.7,0.2,0,0,0.7,0.2,0.2,0,0.7",""
"null","","html-keyboard-response","159","93390","0.0-159.0","369J354OFEW336EBE692JLMIKMM6GO","A1AYQ8E01NSY5Z","39KMGHJ4RZW9S7JH7DZG09TNV4R00C","","","<img src=""img/flower4.png"" style=""width:200px;border:14px solid red;"">","null","","","","","",""
"338","","image-keyboard-response","160","93731","0.0-160.0","369J354OFEW336EBE692JLMIKMM6GO","A1AYQ8E01NSY5Z","39KMGHJ4RZW9S7JH7DZG09TNV4R00C","","","img/flower4.png","74","339","1","0","2","0.7,0.2,0,0,0.7,0.2,0.2,0,0.7",""
"null","","html-keyboard-response","161","94033","0.0-161.0","369J354OFEW336EBE692JLMIKMM6GO","A1AYQ8E01NSY5Z","39KMGHJ4RZW9S7JH7DZG09TNV4R00C","","","<img src=""img/flower4.png"" style=""width:200px;border:14px solid red;"">","null","","","","","",""
"136","","image-keyboard-response","162","94172","0.0-162.0","369J354OFEW336EBE692JLMIKMM6GO","A1AYQ8E01NSY5Z","39KMGHJ4RZW9S7JH7DZG09TNV4R00C","","","img/flower3.png","76","138","3","0","1","0.7,0.2,0,0,0.7,0.2,0.2,0,0.7",""
"null","","html-keyboard-response","163","94477","0.0-163.0","369J354OFEW336EBE692JLMIKMM6GO","A1AYQ8E01NSY5Z","39KMGHJ4RZW9S7JH7DZG09TNV4R00C","","","<img src=""img/flower3.png"" style=""width:200px;border:14px solid red;"">","null","","","","","",""
"389","","image-keyboard-response","164","94868","0.0-164.0","369J354OFEW336EBE692JLMIKMM6GO","A1AYQ8E01NSY5Z","39KMGHJ4RZW9S7JH7DZG09TNV4R00C","","","img/flower3.png","75","391","2","0","1","0.7,0.2,0,0,0.7,0.2,0.2,0,0.7",""
"null","","html-keyboard-response","165","95170","0.0-165.0","369J354OFEW336EBE692JLMIKMM6GO","A1AYQ8E01NSY5Z","39KMGHJ4RZW9S7JH7DZG09TNV4R00C","","","<img src=""img/flower3.png"" style=""width:200px;border:14px solid red;"">","null","","","","","",""
"329","","image-keyboard-response","166","95500","0.0-166.0","369J354OFEW336EBE692JLMIKMM6GO","A1AYQ8E01NSY5Z","39KMGHJ4RZW9S7JH7DZG09TNV4R00C","","","img/flower3.png","76","329","3","0","1","0.7,0.2,0,0,0.7,0.2,0.2,0,0.7",""
"null","","html-keyboard-response","167","95806","0.0-167.0","369J354OFEW336EBE692JLMIKMM6GO","A1AYQ8E01NSY5Z","39KMGHJ4RZW9S7JH7DZG09TNV4R00C","","","<img src=""img/flower3.png"" style=""width:200px;border:14px solid red;"">","null","","","","","",""
"324","","image-keyboard-response","168","96132","0.0-168.0","369J354OFEW336EBE692JLMIKMM6GO","A1AYQ8E01NSY5Z","39KMGHJ4RZW9S7JH7DZG09TNV4R00C","","","img/flower3.png","74","326","1","1","1","0.7,0.2,0,0,0.7,0.2,0.2,0,0.7",""
"null","","html-keyboard-response","169","96448","0.0-169.0","369J354OFEW336EBE692JLMIKMM6GO","A1AYQ8E01NSY5Z","39KMGHJ4RZW9S7JH7DZG09TNV4R00C","","","<img src=""img/flower3.png"" style=""width:200px; border:14px solid green;"">","null","","","","","",""
"338","","image-keyboard-response","170","96787","0.0-170.0","369J354OFEW336EBE692JLMIKMM6GO","A1AYQ8E01NSY5Z","39KMGHJ4RZW9S7JH7DZG09TNV4R00C","","","img/flower3.png","74","339","1","1","1","0.7,0.2,0,0,0.7,0.2,0.2,0,0.7",""
"null","","html-keyboard-response","171","97093","0.0-171.0","369J354OFEW336EBE692JLMIKMM6GO","A1AYQ8E01NSY5Z","39KMGHJ4RZW9S7JH7DZG09TNV4R00C","","","<img src=""img/flower3.png"" style=""width:200px; border:14px solid green;"">","null","","","","","",""
"340","","image-keyboard-response","172","97436","0.0-172.0","369J354OFEW336EBE692JLMIKMM6GO","A1AYQ8E01NSY5Z","39KMGHJ4RZW9S7JH7DZG09TNV4R00C","","","img/flower1.png","74","342","1","1","3","0.7,0.2,0,0,0.7,0.2,0.2,0,0.7",""
"null","","html-keyboard-response","173","97738","0.0-173.0","369J354OFEW336EBE692JLMIKMM6GO","A1AYQ8E01NSY5Z","39KMGHJ4RZW9S7JH7DZG09TNV4R00C","","","<img src=""img/flower1.png"" style=""width:200px; border:14px solid green;"">","null","","","","","",""
"103","","image-keyboard-response","174","97843","0.0-174.0","369J354OFEW336EBE692JLMIKMM6GO","A1AYQ8E01NSY5Z","39KMGHJ4RZW9S7JH7DZG09TNV4R00C","","","img/flower4.png","76","106","3","0","2","0.7,0.2,0,0,0.7,0.2,0.2,0,0.7",""
"null","","html-keyboard-response","175","98161","0.0-175.0","369J354OFEW336EBE692JLMIKMM6GO","A1AYQ8E01NSY5Z","39KMGHJ4RZW9S7JH7DZG09TNV4R00C","","","<img src=""img/flower4.png"" style=""width:200px;border:14px solid red;"">","null","","","","","",""
"153","","image-keyboard-response","176","98316","0.0-176.0","369J354OFEW336EBE692JLMIKMM6GO","A1AYQ8E01NSY5Z","39KMGHJ4RZW9S7JH7DZG09TNV4R00C","","","img/flower4.png","74","155","1","0","2","0.7,0.2,0,0,0.7,0.2,0.2,0,0.7",""
"null","","html-keyboard-response","177","98624","0.0-177.0","369J354OFEW336EBE692JLMIKMM6GO","A1AYQ8E01NSY5Z","39KMGHJ4RZW9S7JH7DZG09TNV4R00C","","","<img src=""img/flower4.png"" style=""width:200px;border:14px solid red;"">","null","","","","","",""
"241","","image-keyboard-response","178","98868","0.0-178.0","369J354OFEW336EBE692JLMIKMM6GO","A1AYQ8E01NSY5Z","39KMGHJ4RZW9S7JH7DZG09TNV4R00C","","","img/flower1.png","76","241","3","1","3","0.7,0.2,0,0,0.7,0.2,0.2,0,0.7",""
"null","","html-keyboard-response","179","99173","0.0-179.0","369J354OFEW336EBE692JLMIKMM6GO","A1AYQ8E01NSY5Z","39KMGHJ4RZW9S7JH7DZG09TNV4R00C","","","<img src=""img/flower1.png"" style=""width:200px; border:14px solid green;"">","null","","","","","",""
"156","","image-keyboard-response","180","99331","0.0-180.0","369J354OFEW336EBE692JLMIKMM6GO","A1AYQ8E01NSY5Z","39KMGHJ4RZW9S7JH7DZG09TNV4R00C","","","img/flower4.png","74","157","1","0","2","0.7,0.2,0,0,0.7,0.2,0.2,0,0.7",""
"null","","html-keyboard-response","181","99639","0.0-181.0","369J354OFEW336EBE692JLMIKMM6GO","A1AYQ8E01NSY5Z","39KMGHJ4RZW9S7JH7DZG09TNV4R00C","","","<img src=""img/flower4.png"" style=""width:200px;border:14px solid red;"">","null","","","","","",""
"466","","image-keyboard-response","182","100107","0.0-182.0","369J354OFEW336EBE692JLMIKMM6GO","A1AYQ8E01NSY5Z","39KMGHJ4RZW9S7JH7DZG09TNV4R00C","","","img/flower1.png","76","468","3","1","3","0.7,0.2,0,0,0.7,0.2,0.2,0,0.7",""
"null","","html-keyboard-response","183","100410","0.0-183.0","369J354OFEW336EBE692JLMIKMM6GO","A1AYQ8E01NSY5Z","39KMGHJ4RZW9S7JH7DZG09TNV4R00C","","","<img src=""img/flower1.png"" style=""width:200px; border:14px solid green;"">","null","","","","","",""
"312","","image-keyboard-response","184","100723","0.0-184.0","369J354OFEW336EBE692JLMIKMM6GO","A1AYQ8E01NSY5Z","39KMGHJ4RZW9S7JH7DZG09TNV4R00C","","","img/flower3.png","75","313","2","1","1","0.7,0.2,0,0,0.7,0.2,0.2,0,0.7",""
"null","","html-keyboard-response","185","101033","0.0-185.0","369J354OFEW336EBE692JLMIKMM6GO","A1AYQ8E01NSY5Z","39KMGHJ4RZW9S7JH7DZG09TNV4R00C","","","<img src=""img/flower3.png"" style=""width:200px; border:14px solid green;"">","null","","","","","",""
"457","","image-keyboard-response","186","101492","0.0-186.0","369J354OFEW336EBE692JLMIKMM6GO","A1AYQ8E01NSY5Z","39KMGHJ4RZW9S7JH7DZG09TNV4R00C","","","img/flower1.png","75","458","2","0","3","0.7,0.2,0,0,0.7,0.2,0.2,0,0.7",""
"null","","html-keyboard-response","187","101797","0.0-187.0","369J354OFEW336EBE692JLMIKMM6GO","A1AYQ8E01NSY5Z","39KMGHJ4RZW9S7JH7DZG09TNV4R00C","","","<img src=""img/flower1.png"" style=""width:200px;border:14px solid red;"">","null","","","","","",""
"293","","image-keyboard-response","188","102092","0.0-188.0","369J354OFEW336EBE692JLMIKMM6GO","A1AYQ8E01NSY5Z","39KMGHJ4RZW9S7JH7DZG09TNV4R00C","","","img/flower1.png","74","294","1","0","3","0.7,0.2,0,0,0.7,0.2,0.2,0,0.7",""
"null","","html-keyboard-response","189","102393","0.0-189.0","369J354OFEW336EBE692JLMIKMM6GO","A1AYQ8E01NSY5Z","39KMGHJ4RZW9S7JH7DZG09TNV4R00C","","","<img src=""img/flower1.png"" style=""width:200px;border:14px solid red;"">","null","","","","","",""
"57","","image-keyboard-response","190","102452","0.0-190.0","369J354OFEW336EBE692JLMIKMM6GO","A1AYQ8E01NSY5Z","39KMGHJ4RZW9S7JH7DZG09TNV4R00C","","","img/flower4.png","76","57","3","0","2","0.7,0.2,0,0,0.7,0.2,0.2,0,0.7",""
"null","","html-keyboard-response","191","102753","0.0-191.0","369J354OFEW336EBE692JLMIKMM6GO","A1AYQ8E01NSY5Z","39KMGHJ4RZW9S7JH7DZG09TNV4R00C","","","<img src=""img/flower4.png"" style=""width:200px;border:14px solid red;"">","null","","","","","",""
"424","","image-keyboard-response","192","103179","0.0-192.0","369J354OFEW336EBE692JLMIKMM6GO","A1AYQ8E01NSY5Z","39KMGHJ4RZW9S7JH7DZG09TNV4R00C","","","img/flower4.png","76","424","3","0","2","0.7,0.2,0,0,0.7,0.2,0.2,0,0.7",""
"null","","html-keyboard-response","193","103485","0.0-193.0","369J354OFEW336EBE692JLMIKMM6GO","A1AYQ8E01NSY5Z","39KMGHJ4RZW9S7JH7DZG09TNV4R00C","","","<img src=""img/flower4.png"" style=""width:200px;border:14px solid red;"">","null","","","","","",""
"164","","image-keyboard-response","194","103652","0.0-194.0","369J354OFEW336EBE692JLMIKMM6GO","A1AYQ8E01NSY5Z","39KMGHJ4RZW9S7JH7DZG09TNV4R00C","","","img/flower1.png","75","165","2","0","3","0.7,0.2,0,0,0.7,0.2,0.2,0,0.7",""
"null","","html-keyboard-response","195","103966","0.0-195.0","369J354OFEW336EBE692JLMIKMM6GO","A1AYQ8E01NSY5Z","39KMGHJ4RZW9S7JH7DZG09TNV4R00C","","","<img src=""img/flower1.png"" style=""width:200px;border:14px solid red;"">","null","","","","","",""
"275","","image-keyboard-response","196","104242","0.0-196.0","369J354OFEW336EBE692JLMIKMM6GO","A1AYQ8E01NSY5Z","39KMGHJ4RZW9S7JH7DZG09TNV4R00C","","","img/flower3.png","76","275","3","0","1","0.7,0.2,0,0,0.7,0.2,0.2,0,0.7",""
"null","","html-keyboard-response","197","104548","0.0-197.0","369J354OFEW336EBE692JLMIKMM6GO","A1AYQ8E01NSY5Z","39KMGHJ4RZW9S7JH7DZG09TNV4R00C","","","<img src=""img/flower3.png"" style=""width:200px;border:14px solid red;"">","null","","","","","",""
"164","","image-keyboard-response","198","104715","0.0-198.0","369J354OFEW336EBE692JLMIKMM6GO","A1AYQ8E01NSY5Z","39KMGHJ4RZW9S7JH7DZG09TNV4R00C","","","img/flower3.png","74","167","1","0","1","0.7,0.2,0,0,0.7,0.2,0.2,0,0.7",""
"null","","html-keyboard-response","199","105017","0.0-199.0","369J354OFEW336EBE692JLMIKMM6GO","A1AYQ8E01NSY5Z","39KMGHJ4RZW9S7JH7DZG09TNV4R00C","","","<img src=""img/flower3.png"" style=""width:200px;border:14px solid red;"">","null","","","","","",""
"186","","image-keyboard-response","200","105204","0.0-200.0","369J354OFEW336EBE692JLMIKMM6GO","A1AYQ8E01NSY5Z","39KMGHJ4RZW9S7JH7DZG09TNV4R00C","","","img/flower1.png","74","187","1","0","3","0.7,0.2,0,0,0.7,0.2,0.2,0,0.7",""
"null","","html-keyboard-response","201","105517","0.0-201.0","369J354OFEW336EBE692JLMIKMM6GO","A1AYQ8E01NSY5Z","39KMGHJ4RZW9S7JH7DZG09TNV4R00C","","","<img src=""img/flower1.png"" style=""width:200px;border:14px solid red;"">","null","","","","","",""
"125","","image-keyboard-response","202","105643","0.0-202.0","369J354OFEW336EBE692JLMIKMM6GO","A1AYQ8E01NSY5Z","39KMGHJ4RZW9S7JH7DZG09TNV4R00C","","","img/flower4.png","76","126","3","0","2","0.7,0.2,0,0,0.7,0.2,0.2,0,0.7",""
"null","","html-keyboard-response","203","105955","0.0-203.0","369J354OFEW336EBE692JLMIKMM6GO","A1AYQ8E01NSY5Z","39KMGHJ4RZW9S7JH7DZG09TNV4R00C","","","<img src=""img/flower4.png"" style=""width:200px;border:14px solid red;"">","null","","","","","",""
"167","","image-keyboard-response","204","106123","0.0-204.0","369J354OFEW336EBE692JLMIKMM6GO","A1AYQ8E01NSY5Z","39KMGHJ4RZW9S7JH7DZG09TNV4R00C","","","img/flower1.png","75","168","2","0","3","0.7,0.2,0,0,0.7,0.2,0.2,0,0.7",""
"null","","html-keyboard-response","205","106428","0.0-205.0","369J354OFEW336EBE692JLMIKMM6GO","A1AYQ8E01NSY5Z","39KMGHJ4RZW9S7JH7DZG09TNV4R00C","","","<img src=""img/flower1.png"" style=""width:200px;border:14px solid red;"">","null","","","","","",""
"838","","image-keyboard-response","206","107268","0.0-206.0","369J354OFEW336EBE692JLMIKMM6GO","A1AYQ8E01NSY5Z","39KMGHJ4RZW9S7JH7DZG09TNV4R00C","","","img/flower3.png","76","839","3","0","1","0.7,0.2,0,0,0.7,0.2,0.2,0,0.7",""
"null","","html-keyboard-response","207","107571","0.0-207.0","369J354OFEW336EBE692JLMIKMM6GO","A1AYQ8E01NSY5Z","39KMGHJ4RZW9S7JH7DZG09TNV4R00C","","","<img src=""img/flower3.png"" style=""width:200px;border:14px solid red;"">","null","","","","","",""
"774","","image-keyboard-response","208","108347","0.0-208.0","369J354OFEW336EBE692JLMIKMM6GO","A1AYQ8E01NSY5Z","39KMGHJ4RZW9S7JH7DZG09TNV4R00C","","","img/flower3.png","74","776","1","1","1","0.7,0.2,0,0,0.7,0.2,0.2,0,0.7",""
"null","","html-keyboard-response","209","108651","0.0-209.0","369J354OFEW336EBE692JLMIKMM6GO","A1AYQ8E01NSY5Z","39KMGHJ4RZW9S7JH7DZG09TNV4R00C","","","<img src=""img/flower3.png"" style=""width:200px; border:14px solid green;"">","null","","","","","",""
"399","","image-keyboard-response","210","109052","0.0-210.0","369J354OFEW336EBE692JLMIKMM6GO","A1AYQ8E01NSY5Z","39KMGHJ4RZW9S7JH7DZG09TNV4R00C","","","img/flower3.png","74","399","1","1","1","0.7,0.2,0,0,0.7,0.2,0.2,0,0.7",""
"null","","html-keyboard-response","211","109353","0.0-211.0","369J354OFEW336EBE692JLMIKMM6GO","A1AYQ8E01NSY5Z","39KMGHJ4RZW9S7JH7DZG09TNV4R00C","","","<img src=""img/flower3.png"" style=""width:200px; border:14px solid green;"">","null","","","","","",""
"327","","image-keyboard-response","212","109684","0.0-212.0","369J354OFEW336EBE692JLMIKMM6GO","A1AYQ8E01NSY5Z","39KMGHJ4RZW9S7JH7DZG09TNV4R00C","","","img/flower1.png","74","330","1","0","3","0.7,0.2,0,0,0.7,0.2,0.2,0,0.7",""
"null","","html-keyboard-response","213","110001","0.0-213.0","369J354OFEW336EBE692JLMIKMM6GO","A1AYQ8E01NSY5Z","39KMGHJ4RZW9S7JH7DZG09TNV4R00C","","","<img src=""img/flower1.png"" style=""width:200px;border:14px solid red;"">","null","","","","","",""
"281","","image-keyboard-response","214","110283","0.0-214.0","369J354OFEW336EBE692JLMIKMM6GO","A1AYQ8E01NSY5Z","39KMGHJ4RZW9S7JH7DZG09TNV4R00C","","","img/flower1.png","75","282","2","0","3","0.7,0.2,0,0,0.7,0.2,0.2,0,0.7",""
"null","","html-keyboard-response","215","110593","0.0-215.0","369J354OFEW336EBE692JLMIKMM6GO","A1AYQ8E01NSY5Z","39KMGHJ4RZW9S7JH7DZG09TNV4R00C","","","<img src=""img/flower1.png"" style=""width:200px;border:14px solid red;"">","null","","","","","",""
"120","","image-keyboard-response","216","110715","0.0-216.0","369J354OFEW336EBE692JLMIKMM6GO","A1AYQ8E01NSY5Z","39KMGHJ4RZW9S7JH7DZG09TNV4R00C","","","img/flower4.png","76","121","3","1","2","0.7,0.2,0,0,0.7,0.2,0.2,0,0.7",""
"null","","html-keyboard-response","217","111029","0.0-217.0","369J354OFEW336EBE692JLMIKMM6GO","A1AYQ8E01NSY5Z","39KMGHJ4RZW9S7JH7DZG09TNV4R00C","","","<img src=""img/flower4.png"" style=""width:200px; border:14px solid green;"">","null","","","","","",""
"301","","image-keyboard-response","218","111331","0.0-218.0","369J354OFEW336EBE692JLMIKMM6GO","A1AYQ8E01NSY5Z","39KMGHJ4RZW9S7JH7DZG09TNV4R00C","","","img/flower1.png","76","302","3","1","3","0.7,0.2,0,0,0.7,0.2,0.2,0,0.7",""
"null","","html-keyboard-response","219","111641","0.0-219.0","369J354OFEW336EBE692JLMIKMM6GO","A1AYQ8E01NSY5Z","39KMGHJ4RZW9S7JH7DZG09TNV4R00C","","","<img src=""img/flower1.png"" style=""width:200px; border:14px solid green;"">","null","","","","","",""
"72","","image-keyboard-response","220","111715","0.0-220.0","369J354OFEW336EBE692JLMIKMM6GO","A1AYQ8E01NSY5Z","39KMGHJ4RZW9S7JH7DZG09TNV4R00C","","","img/flower4.png","76","73","3","0","2","0.7,0.2,0,0,0.7,0.2,0.2,0,0.7",""
"null","","html-keyboard-response","221","112018","0.0-221.0","369J354OFEW336EBE692JLMIKMM6GO","A1AYQ8E01NSY5Z","39KMGHJ4RZW9S7JH7DZG09TNV4R00C","","","<img src=""img/flower4.png"" style=""width:200px;border:14px solid red;"">","null","","","","","",""
"256","","image-keyboard-response","222","112276","0.0-222.0","369J354OFEW336EBE692JLMIKMM6GO","A1AYQ8E01NSY5Z","39KMGHJ4RZW9S7JH7DZG09TNV4R00C","","","img/flower1.png","74","258","1","0","3","0.7,0.2,0,0,0.7,0.2,0.2,0,0.7",""
"null","","html-keyboard-response","223","112608","0.0-223.0","369J354OFEW336EBE692JLMIKMM6GO","A1AYQ8E01NSY5Z","39KMGHJ4RZW9S7JH7DZG09TNV4R00C","","","<img src=""img/flower1.png"" style=""width:200px;border:14px solid red;"">","null","","","","","",""
"314","","image-keyboard-response","224","112924","0.0-224.0","369J354OFEW336EBE692JLMIKMM6GO","A1AYQ8E01NSY5Z","39KMGHJ4RZW9S7JH7DZG09TNV4R00C","","","img/flower1.png","75","315","2","0","3","0.7,0.2,0,0,0.7,0.2,0.2,0,0.7",""
"null","","html-keyboard-response","225","113228","0.0-225.0","369J354OFEW336EBE692JLMIKMM6GO","A1AYQ8E01NSY5Z","39KMGHJ4RZW9S7JH7DZG09TNV4R00C","","","<img src=""img/flower1.png"" style=""width:200px;border:14px solid red;"">","null","","","","","",""
"213","","image-keyboard-response","226","113443","0.0-226.0","369J354OFEW336EBE692JLMIKMM6GO","A1AYQ8E01NSY5Z","39KMGHJ4RZW9S7JH7DZG09TNV4R00C","","","img/flower4.png","74","213","1","0","2","0.7,0.2,0,0,0.7,0.2,0.2,0,0.7",""
"null","","html-keyboard-response","227","113750","0.0-227.0","369J354OFEW336EBE692JLMIKMM6GO","A1AYQ8E01NSY5Z","39KMGHJ4RZW9S7JH7DZG09TNV4R00C","","","<img src=""img/flower4.png"" style=""width:200px;border:14px solid red;"">","null","","","","","",""
"444","","image-keyboard-response","228","114195","0.0-228.0","369J354OFEW336EBE692JLMIKMM6GO","A1AYQ8E01NSY5Z","39KMGHJ4RZW9S7JH7DZG09TNV4R00C","","","img/flower3.png","75","445","2","1","1","0.7,0.2,0,0,0.7,0.2,0.2,0,0.7",""
"null","","html-keyboard-response","229","114509","0.0-229.0","369J354OFEW336EBE692JLMIKMM6GO","A1AYQ8E01NSY5Z","39KMGHJ4RZW9S7JH7DZG09TNV4R00C","","","<img src=""img/flower3.png"" style=""width:200px; border:14px solid green;"">","null","","","","","",""
"333","","image-keyboard-response","230","114844","0.0-230.0","369J354OFEW336EBE692JLMIKMM6GO","A1AYQ8E01NSY5Z","39KMGHJ4RZW9S7JH7DZG09TNV4R00C","","","img/flower3.png","75","335","2","0","1","0.7,0.2,0,0,0.7,0.2,0.2,0,0.7",""
"null","","html-keyboard-response","231","115146","0.0-231.0","369J354OFEW336EBE692JLMIKMM6GO","A1AYQ8E01NSY5Z","39KMGHJ4RZW9S7JH7DZG09TNV4R00C","","","<img src=""img/flower3.png"" style=""width:200px;border:14px solid red;"">","null","","","","","",""
"190","","image-keyboard-response","232","115339","0.0-232.0","369J354OFEW336EBE692JLMIKMM6GO","A1AYQ8E01NSY5Z","39KMGHJ4RZW9S7JH7DZG09TNV4R00C","","","img/flower3.png","76","191","3","0","1","0.7,0.2,0,0,0.7,0.2,0.2,0,0.7",""
"null","","html-keyboard-response","233","115644","0.0-233.0","369J354OFEW336EBE692JLMIKMM6GO","A1AYQ8E01NSY5Z","39KMGHJ4RZW9S7JH7DZG09TNV4R00C","","","<img src=""img/flower3.png"" style=""width:200px;border:14px solid red;"">","null","","","","","",""
"149","","image-keyboard-response","234","115797","0.0-234.0","369J354OFEW336EBE692JLMIKMM6GO","A1AYQ8E01NSY5Z","39KMGHJ4RZW9S7JH7DZG09TNV4R00C","","","img/flower4.png","74","151","1","0","2","0.7,0.2,0,0,0.7,0.2,0.2,0,0.7",""
"null","","html-keyboard-response","235","116104","0.0-235.0","369J354OFEW336EBE692JLMIKMM6GO","A1AYQ8E01NSY5Z","39KMGHJ4RZW9S7JH7DZG09TNV4R00C","","","<img src=""img/flower4.png"" style=""width:200px;border:14px solid red;"">","null","","","","","",""
"226","","image-keyboard-response","236","116331","0.0-236.0","369J354OFEW336EBE692JLMIKMM6GO","A1AYQ8E01NSY5Z","39KMGHJ4RZW9S7JH7DZG09TNV4R00C","","","img/flower3.png","76","227","3","0","1","0.7,0.2,0,0,0.7,0.2,0.2,0,0.7",""
"null","","html-keyboard-response","237","116647","0.0-237.0","369J354OFEW336EBE692JLMIKMM6GO","A1AYQ8E01NSY5Z","39KMGHJ4RZW9S7JH7DZG09TNV4R00C","","","<img src=""img/flower3.png"" style=""width:200px;border:14px solid red;"">","null","","","","","",""
"123","","image-keyboard-response","238","116771","0.0-238.0","369J354OFEW336EBE692JLMIKMM6GO","A1AYQ8E01NSY5Z","39KMGHJ4RZW9S7JH7DZG09TNV4R00C","","","img/flower4.png","75","124","2","1","2","0.7,0.2,0,0,0.7,0.2,0.2,0,0.7",""
"null","","html-keyboard-response","239","117077","0.0-239.0","369J354OFEW336EBE692JLMIKMM6GO","A1AYQ8E01NSY5Z","39KMGHJ4RZW9S7JH7DZG09TNV4R00C","","","<img src=""img/flower4.png"" style=""width:200px; border:14px solid green;"">","null","","","","","",""
"541","","image-keyboard-response","240","117620","0.0-240.0","369J354OFEW336EBE692JLMIKMM6GO","A1AYQ8E01NSY5Z","39KMGHJ4RZW9S7JH7DZG09TNV4R00C","","","img/flower1.png","75","541","2","0","3","0.7,0.2,0,0,0.7,0.2,0.2,0,0.7",""
"null","","html-keyboard-response","241","117922","0.0-241.0","369J354OFEW336EBE692JLMIKMM6GO","A1AYQ8E01NSY5Z","39KMGHJ4RZW9S7JH7DZG09TNV4R00C","","","<img src=""img/flower1.png"" style=""width:200px;border:14px solid red;"">","null","","","","","",""
"48","","image-keyboard-response","242","117972","0.0-242.0","369J354OFEW336EBE692JLMIKMM6GO","A1AYQ8E01NSY5Z","39KMGHJ4RZW9S7JH7DZG09TNV4R00C","","","img/flower3.png","76","50","3","0","1","0.7,0.2,0,0,0.7,0.2,0.2,0,0.7",""
"null","","html-keyboard-response","243","118278","0.0-243.0","369J354OFEW336EBE692JLMIKMM6GO","A1AYQ8E01NSY5Z","39KMGHJ4RZW9S7JH7DZG09TNV4R00C","","","<img src=""img/flower3.png"" style=""width:200px;border:14px solid red;"">","null","","","","","",""
"140","","image-keyboard-response","244","118419","0.0-244.0","369J354OFEW336EBE692JLMIKMM6GO","A1AYQ8E01NSY5Z","39KMGHJ4RZW9S7JH7DZG09TNV4R00C","","","img/flower4.png","74","141","1","0","2","0.7,0.2,0,0,0.7,0.2,0.2,0,0.7",""
"null","","html-keyboard-response","245","118735","0.0-245.0","369J354OFEW336EBE692JLMIKMM6GO","A1AYQ8E01NSY5Z","39KMGHJ4RZW9S7JH7DZG09TNV4R00C","","","<img src=""img/flower4.png"" style=""width:200px;border:14px solid red;"">","null","","","","","",""
"370","","image-keyboard-response","246","119108","0.0-246.0","369J354OFEW336EBE692JLMIKMM6GO","A1AYQ8E01NSY5Z","39KMGHJ4RZW9S7JH7DZG09TNV4R00C","","","img/flower4.png","75","372","2","1","2","0.7,0.2,0,0,0.7,0.2,0.2,0,0.7",""
"null","","html-keyboard-response","247","119412","0.0-247.0","369J354OFEW336EBE692JLMIKMM6GO","A1AYQ8E01NSY5Z","39KMGHJ4RZW9S7JH7DZG09TNV4R00C","","","<img src=""img/flower4.png"" style=""width:200px; border:14px solid green;"">","null","","","","","",""
"470","","image-keyboard-response","248","119884","0.0-248.0","369J354OFEW336EBE692JLMIKMM6GO","A1AYQ8E01NSY5Z","39KMGHJ4RZW9S7JH7DZG09TNV4R00C","","","img/flower4.png","75","472","2","0","2","0.7,0.2,0,0,0.7,0.2,0.2,0,0.7",""
"null","","html-keyboard-response","249","120200","0.0-249.0","369J354OFEW336EBE692JLMIKMM6GO","A1AYQ8E01NSY5Z","39KMGHJ4RZW9S7JH7DZG09TNV4R00C","","","<img src=""img/flower4.png"" style=""width:200px;border:14px solid red;"">","null","","","","","",""
"386","","image-keyboard-response","250","120588","0.0-250.0","369J354OFEW336EBE692JLMIKMM6GO","A1AYQ8E01NSY5Z","39KMGHJ4RZW9S7JH7DZG09TNV4R00C","","","img/flower1.png","76","388","3","1","3","0.7,0.2,0,0,0.7,0.2,0.2,0,0.7",""
"null","","html-keyboard-response","251","120898","0.0-251.0","369J354OFEW336EBE692JLMIKMM6GO","A1AYQ8E01NSY5Z","39KMGHJ4RZW9S7JH7DZG09TNV4R00C","","","<img src=""img/flower1.png"" style=""width:200px; border:14px solid green;"">","null","","","","","",""
"1024","","image-keyboard-response","252","121923","0.0-252.0","369J354OFEW336EBE692JLMIKMM6GO","A1AYQ8E01NSY5Z","39KMGHJ4RZW9S7JH7DZG09TNV4R00C","","","img/flower3.png","74","1025","1","0","1","0.7,0.2,0,0,0.7,0.2,0.2,0,0.7",""
"null","","html-keyboard-response","253","122235","0.0-253.0","369J354OFEW336EBE692JLMIKMM6GO","A1AYQ8E01NSY5Z","39KMGHJ4RZW9S7JH7DZG09TNV4R00C","","","<img src=""img/flower3.png"" style=""width:200px;border:14px solid red;"">","null","","","","","",""
"24","","image-keyboard-response","254","122260","0.0-254.0","369J354OFEW336EBE692JLMIKMM6GO","A1AYQ8E01NSY5Z","39KMGHJ4RZW9S7JH7DZG09TNV4R00C","","","img/flower1.png","76","24","3","1","3","0.7,0.2,0,0,0.7,0.2,0.2,0,0.7",""
"null","","html-keyboard-response","255","122562","0.0-255.0","369J354OFEW336EBE692JLMIKMM6GO","A1AYQ8E01NSY5Z","39KMGHJ4RZW9S7JH7DZG09TNV4R00C","","","<img src=""img/flower1.png"" style=""width:200px; border:14px solid green;"">","null","","","","","",""
"353","","image-keyboard-response","256","122915","0.0-256.0","369J354OFEW336EBE692JLMIKMM6GO","A1AYQ8E01NSY5Z","39KMGHJ4RZW9S7JH7DZG09TNV4R00C","","","img/flower3.png","76","354","3","0","1","0.7,0.2,0,0,0.7,0.2,0.2,0,0.7",""
"null","","html-keyboard-response","257","123224","0.0-257.0","369J354OFEW336EBE692JLMIKMM6GO","A1AYQ8E01NSY5Z","39KMGHJ4RZW9S7JH7DZG09TNV4R00C","","","<img src=""img/flower3.png"" style=""width:200px;border:14px solid red;"">","null","","","","","",""
"347","","image-keyboard-response","258","123571","0.0-258.0","369J354OFEW336EBE692JLMIKMM6GO","A1AYQ8E01NSY5Z","39KMGHJ4RZW9S7JH7DZG09TNV4R00C","","","img/flower4.png","76","348","3","0","2","0.7,0.2,0,0,0.7,0.2,0.2,0,0.7",""
"null","","html-keyboard-response","259","123879","0.0-259.0","369J354OFEW336EBE692JLMIKMM6GO","A1AYQ8E01NSY5Z","39KMGHJ4RZW9S7JH7DZG09TNV4R00C","","","<img src=""img/flower4.png"" style=""width:200px;border:14px solid red;"">","null","","","","","",""
"147","","image-keyboard-response","260","124028","0.0-260.0","369J354OFEW336EBE692JLMIKMM6GO","A1AYQ8E01NSY5Z","39KMGHJ4RZW9S7JH7DZG09TNV4R00C","","","img/flower1.png","74","148","1","0","3","0.7,0.2,0,0,0.7,0.2,0.2,0,0.7",""
"null","","html-keyboard-response","261","124332","0.0-261.0","369J354OFEW336EBE692JLMIKMM6GO","A1AYQ8E01NSY5Z","39KMGHJ4RZW9S7JH7DZG09TNV4R00C","","","<img src=""img/flower1.png"" style=""width:200px;border:14px solid red;"">","null","","","","","",""
"107","","image-keyboard-response","262","124442","0.0-262.0","369J354OFEW336EBE692JLMIKMM6GO","A1AYQ8E01NSY5Z","39KMGHJ4RZW9S7JH7DZG09TNV4R00C","","","img/flower1.png","75","108","2","0","3","0.7,0.2,0,0,0.7,0.2,0.2,0,0.7",""
"null","","html-keyboard-response","263","124757","0.0-263.0","369J354OFEW336EBE692JLMIKMM6GO","A1AYQ8E01NSY5Z","39KMGHJ4RZW9S7JH7DZG09TNV4R00C","","","<img src=""img/flower1.png"" style=""width:200px;border:14px solid red;"">","null","","","","","",""
"196","","image-keyboard-response","264","124956","0.0-264.0","369J354OFEW336EBE692JLMIKMM6GO","A1AYQ8E01NSY5Z","39KMGHJ4RZW9S7JH7DZG09TNV4R00C","","","img/flower1.png","75","198","2","0","3","0.7,0.2,0,0,0.7,0.2,0.2,0,0.7",""
"null","","html-keyboard-response","265","125262","0.0-265.0","369J354OFEW336EBE692JLMIKMM6GO","A1AYQ8E01NSY5Z","39KMGHJ4RZW9S7JH7DZG09TNV4R00C","","","<img src=""img/flower1.png"" style=""width:200px;border:14px solid red;"">","null","","","","","",""
"148","","image-keyboard-response","266","125413","0.0-266.0","369J354OFEW336EBE692JLMIKMM6GO","A1AYQ8E01NSY5Z","39KMGHJ4RZW9S7JH7DZG09TNV4R00C","","","img/flower1.png","74","151","1","0","3","0.7,0.2,0,0,0.7,0.2,0.2,0,0.7",""
"null","","html-keyboard-response","267","125714","0.0-267.0","369J354OFEW336EBE692JLMIKMM6GO","A1AYQ8E01NSY5Z","39KMGHJ4RZW9S7JH7DZG09TNV4R00C","","","<img src=""img/flower1.png"" style=""width:200px;border:14px solid red;"">","null","","","","","",""
"535","","image-keyboard-response","268","126250","0.0-268.0","369J354OFEW336EBE692JLMIKMM6GO","A1AYQ8E01NSY5Z","39KMGHJ4RZW9S7JH7DZG09TNV4R00C","","","img/flower3.png","76","535","3","0","1","0.7,0.2,0,0,0.7,0.2,0.2,0,0.7",""
"null","","html-keyboard-response","269","126559","0.0-269.0","369J354OFEW336EBE692JLMIKMM6GO","A1AYQ8E01NSY5Z","39KMGHJ4RZW9S7JH7DZG09TNV4R00C","","","<img src=""img/flower3.png"" style=""width:200px;border:14px solid red;"">","null","","","","","",""
"42","","image-keyboard-response","270","126602","0.0-270.0","369J354OFEW336EBE692JLMIKMM6GO","A1AYQ8E01NSY5Z","39KMGHJ4RZW9S7JH7DZG09TNV4R00C","","","img/flower4.png","75","43","2","0","2","0.7,0.2,0,0,0.7,0.2,0.2,0,0.7",""
"null","","html-keyboard-response","271","126906","0.0-271.0","369J354OFEW336EBE692JLMIKMM6GO","A1AYQ8E01NSY5Z","39KMGHJ4RZW9S7JH7DZG09TNV4R00C","","","<img src=""img/flower4.png"" style=""width:200px;border:14px solid red;"">","null","","","","","",""
"177","","image-keyboard-response","272","127084","0.0-272.0","369J354OFEW336EBE692JLMIKMM6GO","A1AYQ8E01NSY5Z","39KMGHJ4RZW9S7JH7DZG09TNV4R00C","","","img/flower3.png","74","178","1","1","1","0.7,0.2,0,0,0.7,0.2,0.2,0,0.7",""
"null","","html-keyboard-response","273","127396","0.0-273.0","369J354OFEW336EBE692JLMIKMM6GO","A1AYQ8E01NSY5Z","39KMGHJ4RZW9S7JH7DZG09TNV4R00C","","","<img src=""img/flower3.png"" style=""width:200px; border:14px solid green;"">","null","","","","","",""
"445","","image-keyboard-response","274","127844","0.0-274.0","369J354OFEW336EBE692JLMIKMM6GO","A1AYQ8E01NSY5Z","39KMGHJ4RZW9S7JH7DZG09TNV4R00C","","","img/flower1.png","74","446","1","1","3","0.7,0.2,0,0,0.7,0.2,0.2,0,0.7",""
"null","","html-keyboard-response","275","128160","0.0-275.0","369J354OFEW336EBE692JLMIKMM6GO","A1AYQ8E01NSY5Z","39KMGHJ4RZW9S7JH7DZG09TNV4R00C","","","<img src=""img/flower1.png"" style=""width:200px; border:14px solid green;"">","null","","","","","",""
"219","","image-keyboard-response","276","128379","0.0-276.0","369J354OFEW336EBE692JLMIKMM6GO","A1AYQ8E01NSY5Z","39KMGHJ4RZW9S7JH7DZG09TNV4R00C","","","img/flower1.png","76","220","3","1","3","0.7,0.2,0,0,0.7,0.2,0.2,0,0.7",""
"null","","html-keyboard-response","277","128687","0.0-277.0","369J354OFEW336EBE692JLMIKMM6GO","A1AYQ8E01NSY5Z","39KMGHJ4RZW9S7JH7DZG09TNV4R00C","","","<img src=""img/flower1.png"" style=""width:200px; border:14px solid green;"">","null","","","","","",""
"99","","image-keyboard-response","278","128787","0.0-278.0","369J354OFEW336EBE692JLMIKMM6GO","A1AYQ8E01NSY5Z","39KMGHJ4RZW9S7JH7DZG09TNV4R00C","","","img/flower4.png","75","99","2","0","2","0.7,0.2,0,0,0.7,0.2,0.2,0,0.7",""
"null","","html-keyboard-response","279","129101","0.0-279.0","369J354OFEW336EBE692JLMIKMM6GO","A1AYQ8E01NSY5Z","39KMGHJ4RZW9S7JH7DZG09TNV4R00C","","","<img src=""img/flower4.png"" style=""width:200px;border:14px solid red;"">","null","","","","","",""
"142","","image-keyboard-response","280","129244","0.0-280.0","369J354OFEW336EBE692JLMIKMM6GO","A1AYQ8E01NSY5Z","39KMGHJ4RZW9S7JH7DZG09TNV4R00C","","","img/flower4.png","76","143","3","0","2","0.7,0.2,0,0,0.7,0.2,0.2,0,0.7",""
"null","","html-keyboard-response","281","129561","0.0-281.0","369J354OFEW336EBE692JLMIKMM6GO","A1AYQ8E01NSY5Z","39KMGHJ4RZW9S7JH7DZG09TNV4R00C","","","<img src=""img/flower4.png"" style=""width:200px;border:14px solid red;"">","null","","","","","",""
"545","","image-keyboard-response","282","130107","0.0-282.0","369J354OFEW336EBE692JLMIKMM6GO","A1AYQ8E01NSY5Z","39KMGHJ4RZW9S7JH7DZG09TNV4R00C","","","img/flower3.png","75","546","2","0","1","0.7,0.2,0,0,0.7,0.2,0.2,0,0.7",""
"null","","html-keyboard-response","283","130421","0.0-283.0","369J354OFEW336EBE692JLMIKMM6GO","A1AYQ8E01NSY5Z","39KMGHJ4RZW9S7JH7DZG09TNV4R00C","","","<img src=""img/flower3.png"" style=""width:200px;border:14px solid red;"">","null","","","","","",""
"165","","image-keyboard-response","284","130587","0.0-284.0","369J354OFEW336EBE692JLMIKMM6GO","A1AYQ8E01NSY5Z","39KMGHJ4RZW9S7JH7DZG09TNV4R00C","","","img/flower3.png","74","167","1","0","1","0.7,0.2,0,0,0.7,0.2,0.2,0,0.7",""
"null","","html-keyboard-response","285","130893","0.0-285.0","369J354OFEW336EBE692JLMIKMM6GO","A1AYQ8E01NSY5Z","39KMGHJ4RZW9S7JH7DZG09TNV4R00C","","","<img src=""img/flower3.png"" style=""width:200px;border:14px solid red;"">","null","","","","","",""
"372","","image-keyboard-response","286","131267","0.0-286.0","369J354OFEW336EBE692JLMIKMM6GO","A1AYQ8E01NSY5Z","39KMGHJ4RZW9S7JH7DZG09TNV4R00C","","","img/flower4.png","76","374","3","0","2","0.7,0.2,0,0,0.7,0.2,0.2,0,0.7",""
"null","","html-keyboard-response","287","131576","0.0-287.0","369J354OFEW336EBE692JLMIKMM6GO","A1AYQ8E01NSY5Z","39KMGHJ4RZW9S7JH7DZG09TNV4R00C","","","<img src=""img/flower4.png"" style=""width:200px;border:14px solid red;"">","null","","","","","",""
"9","","image-keyboard-response","288","131589","0.0-288.0","369J354OFEW336EBE692JLMIKMM6GO","A1AYQ8E01NSY5Z","39KMGHJ4RZW9S7JH7DZG09TNV4R00C","","","img/flower3.png","74","12","1","1","1","0.7,0.2,0,0,0.7,0.2,0.2,0,0.7",""
"null","","html-keyboard-response","289","131903","0.0-289.0","369J354OFEW336EBE692JLMIKMM6GO","A1AYQ8E01NSY5Z","39KMGHJ4RZW9S7JH7DZG09TNV4R00C","","","<img src=""img/flower3.png"" style=""width:200px; border:14px solid green;"">","null","","","","","",""
"259","","image-keyboard-response","290","132164","0.0-290.0","369J354OFEW336EBE692JLMIKMM6GO","A1AYQ8E01NSY5Z","39KMGHJ4RZW9S7JH7DZG09TNV4R00C","","","img/flower1.png","74","261","1","0","3","0.7,0.2,0,0,0.7,0.2,0.2,0,0.7",""
"null","","html-keyboard-response","291","132476","0.0-291.0","369J354OFEW336EBE692JLMIKMM6GO","A1AYQ8E01NSY5Z","39KMGHJ4RZW9S7JH7DZG09TNV4R00C","","","<img src=""img/flower1.png"" style=""width:200px;border:14px solid red;"">","null","","","","","",""
"10","","image-keyboard-response","292","132488","0.0-292.0","369J354OFEW336EBE692JLMIKMM6GO","A1AYQ8E01NSY5Z","39KMGHJ4RZW9S7JH7DZG09TNV4R00C","","","img/flower4.png","76","11","3","0","2","0.7,0.2,0,0,0.7,0.2,0.2,0,0.7",""
"null","","html-keyboard-response","293","132800","0.0-293.0","369J354OFEW336EBE692JLMIKMM6GO","A1AYQ8E01NSY5Z","39KMGHJ4RZW9S7JH7DZG09TNV4R00C","","","<img src=""img/flower4.png"" style=""width:200px;border:14px solid red;"">","null","","","","","",""
"35","","image-keyboard-response","294","132836","0.0-294.0","369J354OFEW336EBE692JLMIKMM6GO","A1AYQ8E01NSY5Z","39KMGHJ4RZW9S7JH7DZG09TNV4R00C","","","img/flower3.png","75","35","2","0","1","0.7,0.2,0,0,0.7,0.2,0.2,0,0.7",""
"null","","html-keyboard-response","295","133143","0.0-295.0","369J354OFEW336EBE692JLMIKMM6GO","A1AYQ8E01NSY5Z","39KMGHJ4RZW9S7JH7DZG09TNV4R00C","","","<img src=""img/flower3.png"" style=""width:200px;border:14px solid red;"">","null","","","","","",""
"42","","image-keyboard-response","296","133188","0.0-296.0","369J354OFEW336EBE692JLMIKMM6GO","A1AYQ8E01NSY5Z","39KMGHJ4RZW9S7JH7DZG09TNV4R00C","","","img/flower4.png","76","44","3","1","2","0.7,0.2,0,0,0.7,0.2,0.2,0,0.7",""
"null","","html-keyboard-response","297","133498","0.0-297.0","369J354OFEW336EBE692JLMIKMM6GO","A1AYQ8E01NSY5Z","39KMGHJ4RZW9S7JH7DZG09TNV4R00C","","","<img src=""img/flower4.png"" style=""width:200px; border:14px solid green;"">","null","","","","","",""
"72","","image-keyboard-response","298","133572","0.0-298.0","369J354OFEW336EBE692JLMIKMM6GO","A1AYQ8E01NSY5Z","39KMGHJ4RZW9S7JH7DZG09TNV4R00C","","","img/flower3.png","74","74","1","0","1","0.7,0.2,0,0,0.7,0.2,0.2,0,0.7",""
"null","","html-keyboard-response","299","133874","0.0-299.0","369J354OFEW336EBE692JLMIKMM6GO","A1AYQ8E01NSY5Z","39KMGHJ4RZW9S7JH7DZG09TNV4R00C","","","<img src=""img/flower3.png"" style=""width:200px;border:14px solid red;"">","null","","","","","",""
"209","","image-keyboard-response","300","134083","0.0-300.0","369J354OFEW336EBE692JLMIKMM6GO","A1AYQ8E01NSY5Z","39KMGHJ4RZW9S7JH7DZG09TNV4R00C","","","img/flower4.png","75","210","2","0","2","0.7,0.2,0,0,0.7,0.2,0.2,0,0.7",""
"null","","html-keyboard-response","301","134394","0.0-301.0","369J354OFEW336EBE692JLMIKMM6GO","A1AYQ8E01NSY5Z","39KMGHJ4RZW9S7JH7DZG09TNV4R00C","","","<img src=""img/flower4.png"" style=""width:200px;border:14px solid red;"">","null","","","","","",""
"416","","image-keyboard-response","302","134812","0.0-302.0","369J354OFEW336EBE692JLMIKMM6GO","A1AYQ8E01NSY5Z","39KMGHJ4RZW9S7JH7DZG09TNV4R00C","","","img/flower1.png","74","417","1","1","3","0.7,0.2,0,0,0.7,0.2,0.2,0,0.7",""
"null","","html-keyboard-response","303","135117","0.0-303.0","369J354OFEW336EBE692JLMIKMM6GO","A1AYQ8E01NSY5Z","39KMGHJ4RZW9S7JH7DZG09TNV4R00C","","","<img src=""img/flower1.png"" style=""width:200px; border:14px solid green;"">","null","","","","","",""
"14","","image-keyboard-response","304","135133","0.0-304.0","369J354OFEW336EBE692JLMIKMM6GO","A1AYQ8E01NSY5Z","39KMGHJ4RZW9S7JH7DZG09TNV4R00C","","","img/flower1.png","76","16","3","1","3","0.7,0.2,0,0,0.7,0.2,0.2,0,0.7",""
"null","","html-keyboard-response","305","135443","0.0-305.0","369J354OFEW336EBE692JLMIKMM6GO","A1AYQ8E01NSY5Z","39KMGHJ4RZW9S7JH7DZG09TNV4R00C","","","<img src=""img/flower1.png"" style=""width:200px; border:14px solid green;"">","null","","","","","",""
"","","html-keyboard-response","306","138201","0.0-306.0","369J354OFEW336EBE692JLMIKMM6GO","A1AYQ8E01NSY5Z","39KMGHJ4RZW9S7JH7DZG09TNV4R00C","","","","","","","","","",""
"1297","","image-keyboard-response","307","139501","0.0-307.0","369J354OFEW336EBE692JLMIKMM6GO","A1AYQ8E01NSY5Z","39KMGHJ4RZW9S7JH7DZG09TNV4R00C","","","img/flower6.png","76","1299","3","1","3","0.7,0.2,0,0.7,0,0.2,0.2,0,0.7",""
"null","","html-keyboard-response","308","139815","0.0-308.0","369J354OFEW336EBE692JLMIKMM6GO","A1AYQ8E01NSY5Z","39KMGHJ4RZW9S7JH7DZG09TNV4R00C","","","<img src=""img/flower6.png"" style=""width:200px; border:14px solid green;"">","null","","","","","",""
"754","","image-keyboard-response","309","140571","0.0-309.0","369J354OFEW336EBE692JLMIKMM6GO","A1AYQ8E01NSY5Z","39KMGHJ4RZW9S7JH7DZG09TNV4R00C","","","img/flower2.png","74","756","1","1","2","0.7,0.2,0,0.7,0,0.2,0.2,0,0.7",""
"null","","html-keyboard-response","310","140876","0.0-310.0","369J354OFEW336EBE692JLMIKMM6GO","A1AYQ8E01NSY5Z","39KMGHJ4RZW9S7JH7DZG09TNV4R00C","","","<img src=""img/flower2.png"" style=""width:200px; border:14px solid green;"">","null","","","","","",""
"797","","image-keyboard-response","311","141676","0.0-311.0","369J354OFEW336EBE692JLMIKMM6GO","A1AYQ8E01NSY5Z","39KMGHJ4RZW9S7JH7DZG09TNV4R00C","","","img/flower5.png","75","799","2","0","1","0.7,0.2,0,0.7,0,0.2,0.2,0,0.7",""
"null","","html-keyboard-response","312","141985","0.0-312.0","369J354OFEW336EBE692JLMIKMM6GO","A1AYQ8E01NSY5Z","39KMGHJ4RZW9S7JH7DZG09TNV4R00C","","","<img src=""img/flower5.png"" style=""width:200px;border:14px solid red;"">","null","","","","","",""
"1128","","image-keyboard-response","313","143115","0.0-313.0","369J354OFEW336EBE692JLMIKMM6GO","A1AYQ8E01NSY5Z","39KMGHJ4RZW9S7JH7DZG09TNV4R00C","","","img/flower6.png","74","1130","1","1","3","0.7,0.2,0,0.7,0,0.2,0.2,0,0.7",""
"null","","html-keyboard-response","314","143431","0.0-314.0","369J354OFEW336EBE692JLMIKMM6GO","A1AYQ8E01NSY5Z","39KMGHJ4RZW9S7JH7DZG09TNV4R00C","","","<img src=""img/flower6.png"" style=""width:200px; border:14px solid green;"">","null","","","","","",""
"755","","image-keyboard-response","315","144188","0.0-315.0","369J354OFEW336EBE692JLMIKMM6GO","A1AYQ8E01NSY5Z","39KMGHJ4RZW9S7JH7DZG09TNV4R00C","","","img/flower5.png","74","757","1","1","1","0.7,0.2,0,0.7,0,0.2,0.2,0,0.7",""
"null","","html-keyboard-response","316","144490","0.0-316.0","369J354OFEW336EBE692JLMIKMM6GO","A1AYQ8E01NSY5Z","39KMGHJ4RZW9S7JH7DZG09TNV4R00C","","","<img src=""img/flower5.png"" style=""width:200px; border:14px solid green;"">","null","","","","","",""
"607","","image-keyboard-response","317","145099","0.0-317.0","369J354OFEW336EBE692JLMIKMM6GO","A1AYQ8E01NSY5Z","39KMGHJ4RZW9S7JH7DZG09TNV4R00C","","","img/flower6.png","74","608","1","0","3","0.7,0.2,0,0.7,0,0.2,0.2,0,0.7",""
"null","","html-keyboard-response","318","145413","0.0-318.0","369J354OFEW336EBE692JLMIKMM6GO","A1AYQ8E01NSY5Z","39KMGHJ4RZW9S7JH7DZG09TNV4R00C","","","<img src=""img/flower6.png"" style=""width:200px;border:14px solid red;"">","null","","","","","",""
"213","","image-keyboard-response","319","145628","0.0-319.0","369J354OFEW336EBE692JLMIKMM6GO","A1AYQ8E01NSY5Z","39KMGHJ4RZW9S7JH7DZG09TNV4R00C","","","img/flower6.png","76","214","3","1","3","0.7,0.2,0,0.7,0,0.2,0.2,0,0.7",""
"null","","html-keyboard-response","320","145945","0.0-320.0","369J354OFEW336EBE692JLMIKMM6GO","A1AYQ8E01NSY5Z","39KMGHJ4RZW9S7JH7DZG09TNV4R00C","","","<img src=""img/flower6.png"" style=""width:200px; border:14px solid green;"">","null","","","","","",""
"746","","image-keyboard-response","321","146691","0.0-321.0","369J354OFEW336EBE692JLMIKMM6GO","A1AYQ8E01NSY5Z","39KMGHJ4RZW9S7JH7DZG09TNV4R00C","","","img/flower2.png","74","747","1","1","2","0.7,0.2,0,0.7,0,0.2,0.2,0,0.7",""
"null","","html-keyboard-response","322","146995","0.0-322.0","369J354OFEW336EBE692JLMIKMM6GO","A1AYQ8E01NSY5Z","39KMGHJ4RZW9S7JH7DZG09TNV4R00C","","","<img src=""img/flower2.png"" style=""width:200px; border:14px solid green;"">","null","","","","","",""
"583","","image-keyboard-response","323","147579","0.0-323.0","369J354OFEW336EBE692JLMIKMM6GO","A1AYQ8E01NSY5Z","39KMGHJ4RZW9S7JH7DZG09TNV4R00C","","","img/flower5.png","76","584","3","0","1","0.7,0.2,0,0.7,0,0.2,0.2,0,0.7",""
"null","","html-keyboard-response","324","147893","0.0-324.0","369J354OFEW336EBE692JLMIKMM6GO","A1AYQ8E01NSY5Z","39KMGHJ4RZW9S7JH7DZG09TNV4R00C","","","<img src=""img/flower5.png"" style=""width:200px;border:14px solid red;"">","null","","","","","",""
"108","","image-keyboard-response","325","148004","0.0-325.0","369J354OFEW336EBE692JLMIKMM6GO","A1AYQ8E01NSY5Z","39KMGHJ4RZW9S7JH7DZG09TNV4R00C","","","img/flower5.png","75","110","2","1","1","0.7,0.2,0,0.7,0,0.2,0.2,0,0.7",""
"null","","html-keyboard-response","326","148316","0.0-326.0","369J354OFEW336EBE692JLMIKMM6GO","A1AYQ8E01NSY5Z","39KMGHJ4RZW9S7JH7DZG09TNV4R00C","","","<img src=""img/flower5.png"" style=""width:200px; border:14px solid green;"">","null","","","","","",""
"157","","image-keyboard-response","327","148475","0.0-327.0","369J354OFEW336EBE692JLMIKMM6GO","A1AYQ8E01NSY5Z","39KMGHJ4RZW9S7JH7DZG09TNV4R00C","","","img/flower2.png","74","158","1","1","2","0.7,0.2,0,0.7,0,0.2,0.2,0,0.7",""
"null","","html-keyboard-response","328","148781","0.0-328.0","369J354OFEW336EBE692JLMIKMM6GO","A1AYQ8E01NSY5Z","39KMGHJ4RZW9S7JH7DZG09TNV4R00C","","","<img src=""img/flower2.png"" style=""width:200px; border:14px solid green;"">","null","","","","","",""
"523","","image-keyboard-response","329","149306","0.0-329.0","369J354OFEW336EBE692JLMIKMM6GO","A1AYQ8E01NSY5Z","39KMGHJ4RZW9S7JH7DZG09TNV4R00C","","","img/flower5.png","74","524","1","1","1","0.7,0.2,0,0.7,0,0.2,0.2,0,0.7",""
"null","","html-keyboard-response","330","149619","0.0-330.0","369J354OFEW336EBE692JLMIKMM6GO","A1AYQ8E01NSY5Z","39KMGHJ4RZW9S7JH7DZG09TNV4R00C","","","<img src=""img/flower5.png"" style=""width:200px; border:14px solid green;"">","null","","","","","",""
"463","","image-keyboard-response","331","150084","0.0-331.0","369J354OFEW336EBE692JLMIKMM6GO","A1AYQ8E01NSY5Z","39KMGHJ4RZW9S7JH7DZG09TNV4R00C","","","img/flower5.png","74","464","1","0","1","0.7,0.2,0,0.7,0,0.2,0.2,0,0.7",""
"null","","html-keyboard-response","332","150389","0.0-332.0","369J354OFEW336EBE692JLMIKMM6GO","A1AYQ8E01NSY5Z","39KMGHJ4RZW9S7JH7DZG09TNV4R00C","","","<img src=""img/flower5.png"" style=""width:200px;border:14px solid red;"">","null","","","","","",""
"365","","image-keyboard-response","333","150756","0.0-333.0","369J354OFEW336EBE692JLMIKMM6GO","A1AYQ8E01NSY5Z","39KMGHJ4RZW9S7JH7DZG09TNV4R00C","","","img/flower5.png","76","366","3","0","1","0.7,0.2,0,0.7,0,0.2,0.2,0,0.7",""
"null","","html-keyboard-response","334","151062","0.0-334.0","369J354OFEW336EBE692JLMIKMM6GO","A1AYQ8E01NSY5Z","39KMGHJ4RZW9S7JH7DZG09TNV4R00C","","","<img src=""img/flower5.png"" style=""width:200px;border:14px solid red;"">","null","","","","","",""
"315","","image-keyboard-response","335","151380","0.0-335.0","369J354OFEW336EBE692JLMIKMM6GO","A1AYQ8E01NSY5Z","39KMGHJ4RZW9S7JH7DZG09TNV4R00C","","","img/flower6.png","75","317","2","0","3","0.7,0.2,0,0.7,0,0.2,0.2,0,0.7",""
"null","","html-keyboard-response","336","151684","0.0-336.0","369J354OFEW336EBE692JLMIKMM6GO","A1AYQ8E01NSY5Z","39KMGHJ4RZW9S7JH7DZG09TNV4R00C","","","<img src=""img/flower6.png"" style=""width:200px;border:14px solid red;"">","null","","","","","",""
"486","","image-keyboard-response","337","152172","0.0-337.0","369J354OFEW336EBE692JLMIKMM6GO","A1AYQ8E01NSY5Z","39KMGHJ4RZW9S7JH7DZG09TNV4R00C","","","img/flower5.png","74","487","1","1","1","0.7,0.2,0,0.7,0,0.2,0.2,0,0.7",""
"null","","html-keyboard-response","338","152474","0.0-338.0","369J354OFEW336EBE692JLMIKMM6GO","A1AYQ8E01NSY5Z","39KMGHJ4RZW9S7JH7DZG09TNV4R00C","","","<img src=""img/flower5.png"" style=""width:200px; border:14px solid green;"">","null","","","","","",""
"208","","image-keyboard-response","339","152684","0.0-339.0","369J354OFEW336EBE692JLMIKMM6GO","A1AYQ8E01NSY5Z","39KMGHJ4RZW9S7JH7DZG09TNV4R00C","","","img/flower5.png","74","210","1","1","1","0.7,0.2,0,0.7,0,0.2,0.2,0,0.7",""
"null","","html-keyboard-response","340","152986","0.0-340.0","369J354OFEW336EBE692JLMIKMM6GO","A1AYQ8E01NSY5Z","39KMGHJ4RZW9S7JH7DZG09TNV4R00C","","","<img src=""img/flower5.png"" style=""width:200px; border:14px solid green;"">","null","","","","","",""
"335","","image-keyboard-response","341","153323","0.0-341.0","369J354OFEW336EBE692JLMIKMM6GO","A1AYQ8E01NSY5Z","39KMGHJ4RZW9S7JH7DZG09TNV4R00C","","","img/flower6.png","74","335","1","0","3","0.7,0.2,0,0.7,0,0.2,0.2,0,0.7",""
"null","","html-keyboard-response","342","153636","0.0-342.0","369J354OFEW336EBE692JLMIKMM6GO","A1AYQ8E01NSY5Z","39KMGHJ4RZW9S7JH7DZG09TNV4R00C","","","<img src=""img/flower6.png"" style=""width:200px;border:14px solid red;"">","null","","","","","",""
"193","","image-keyboard-response","343","153831","0.0-343.0","369J354OFEW336EBE692JLMIKMM6GO","A1AYQ8E01NSY5Z","39KMGHJ4RZW9S7JH7DZG09TNV4R00C","","","img/flower5.png","74","194","1","1","1","0.7,0.2,0,0.7,0,0.2,0.2,0,0.7",""
"null","","html-keyboard-response","344","154135","0.0-344.0","369J354OFEW336EBE692JLMIKMM6GO","A1AYQ8E01NSY5Z","39KMGHJ4RZW9S7JH7DZG09TNV4R00C","","","<img src=""img/flower5.png"" style=""width:200px; border:14px solid green;"">","null","","","","","",""
"306","","image-keyboard-response","345","154444","0.0-345.0","369J354OFEW336EBE692JLMIKMM6GO","A1AYQ8E01NSY5Z","39KMGHJ4RZW9S7JH7DZG09TNV4R00C","","","img/flower2.png","74","308","1","1","2","0.7,0.2,0,0.7,0,0.2,0.2,0,0.7",""
"null","","html-keyboard-response","346","154750","0.0-346.0","369J354OFEW336EBE692JLMIKMM6GO","A1AYQ8E01NSY5Z","39KMGHJ4RZW9S7JH7DZG09TNV4R00C","","","<img src=""img/flower2.png"" style=""width:200px; border:14px solid green;"">","null","","","","","",""
"164","","image-keyboard-response","347","154915","0.0-347.0","369J354OFEW336EBE692JLMIKMM6GO","A1AYQ8E01NSY5Z","39KMGHJ4RZW9S7JH7DZG09TNV4R00C","","","img/flower5.png","74","165","1","1","1","0.7,0.2,0,0.7,0,0.2,0.2,0,0.7",""
"null","","html-keyboard-response","348","155232","0.0-348.0","369J354OFEW336EBE692JLMIKMM6GO","A1AYQ8E01NSY5Z","39KMGHJ4RZW9S7JH7DZG09TNV4R00C","","","<img src=""img/flower5.png"" style=""width:200px; border:14px solid green;"">","null","","","","","",""
"289","","image-keyboard-response","349","155524","0.0-349.0","369J354OFEW336EBE692JLMIKMM6GO","A1AYQ8E01NSY5Z","39KMGHJ4RZW9S7JH7DZG09TNV4R00C","","","img/flower6.png","74","291","1","0","3","0.7,0.2,0,0.7,0,0.2,0.2,0,0.7",""
"null","","html-keyboard-response","350","155828","0.0-350.0","369J354OFEW336EBE692JLMIKMM6GO","A1AYQ8E01NSY5Z","39KMGHJ4RZW9S7JH7DZG09TNV4R00C","","","<img src=""img/flower6.png"" style=""width:200px;border:14px solid red;"">","null","","","","","",""
"221","","image-keyboard-response","351","156052","0.0-351.0","369J354OFEW336EBE692JLMIKMM6GO","A1AYQ8E01NSY5Z","39KMGHJ4RZW9S7JH7DZG09TNV4R00C","","","img/flower6.png","74","223","1","0","3","0.7,0.2,0,0.7,0,0.2,0.2,0,0.7",""
"null","","html-keyboard-response","352","156358","0.0-352.0","369J354OFEW336EBE692JLMIKMM6GO","A1AYQ8E01NSY5Z","39KMGHJ4RZW9S7JH7DZG09TNV4R00C","","","<img src=""img/flower6.png"" style=""width:200px;border:14px solid red;"">","null","","","","","",""
"492","","image-keyboard-response","353","156850","0.0-353.0","369J354OFEW336EBE692JLMIKMM6GO","A1AYQ8E01NSY5Z","39KMGHJ4RZW9S7JH7DZG09TNV4R00C","","","img/flower2.png","76","493","3","0","2","0.7,0.2,0,0.7,0,0.2,0.2,0,0.7",""
"null","","html-keyboard-response","354","157158","0.0-354.0","369J354OFEW336EBE692JLMIKMM6GO","A1AYQ8E01NSY5Z","39KMGHJ4RZW9S7JH7DZG09TNV4R00C","","","<img src=""img/flower2.png"" style=""width:200px;border:14px solid red;"">","null","","","","","",""
"461","","image-keyboard-response","355","157620","0.0-355.0","369J354OFEW336EBE692JLMIKMM6GO","A1AYQ8E01NSY5Z","39KMGHJ4RZW9S7JH7DZG09TNV4R00C","","","img/flower2.png","74","462","1","0","2","0.7,0.2,0,0.7,0,0.2,0.2,0,0.7",""
"null","","html-keyboard-response","356","157935","0.0-356.0","369J354OFEW336EBE692JLMIKMM6GO","A1AYQ8E01NSY5Z","39KMGHJ4RZW9S7JH7DZG09TNV4R00C","","","<img src=""img/flower2.png"" style=""width:200px;border:14px solid red;"">","null","","","","","",""
"418","","image-keyboard-response","357","158356","0.0-357.0","369J354OFEW336EBE692JLMIKMM6GO","A1AYQ8E01NSY5Z","39KMGHJ4RZW9S7JH7DZG09TNV4R00C","","","img/flower2.png","75","420","2","0","2","0.7,0.2,0,0.7,0,0.2,0.2,0,0.7",""
"null","","html-keyboard-response","358","158672","0.0-358.0","369J354OFEW336EBE692JLMIKMM6GO","A1AYQ8E01NSY5Z","39KMGHJ4RZW9S7JH7DZG09TNV4R00C","","","<img src=""img/flower2.png"" style=""width:200px;border:14px solid red;"">","null","","","","","",""
"177","","image-keyboard-response","359","158852","0.0-359.0","369J354OFEW336EBE692JLMIKMM6GO","A1AYQ8E01NSY5Z","39KMGHJ4RZW9S7JH7DZG09TNV4R00C","","","img/flower2.png","74","179","1","1","2","0.7,0.2,0,0.7,0,0.2,0.2,0,0.7",""
"null","","html-keyboard-response","360","159179","0.0-360.0","369J354OFEW336EBE692JLMIKMM6GO","A1AYQ8E01NSY5Z","39KMGHJ4RZW9S7JH7DZG09TNV4R00C","","","<img src=""img/flower2.png"" style=""width:200px; border:14px solid green;"">","null","","","","","",""
"143","","image-keyboard-response","361","159325","0.0-361.0","369J354OFEW336EBE692JLMIKMM6GO","A1AYQ8E01NSY5Z","39KMGHJ4RZW9S7JH7DZG09TNV4R00C","","","img/flower6.png","74","145","1","0","3","0.7,0.2,0,0.7,0,0.2,0.2,0,0.7",""
"null","","html-keyboard-response","362","159631","0.0-362.0","369J354OFEW336EBE692JLMIKMM6GO","A1AYQ8E01NSY5Z","39KMGHJ4RZW9S7JH7DZG09TNV4R00C","","","<img src=""img/flower6.png"" style=""width:200px;border:14px solid red;"">","null","","","","","",""
"356","","image-keyboard-response","363","159988","0.0-363.0","369J354OFEW336EBE692JLMIKMM6GO","A1AYQ8E01NSY5Z","39KMGHJ4RZW9S7JH7DZG09TNV4R00C","","","img/flower5.png","76","356","3","0","1","0.7,0.2,0,0.7,0,0.2,0.2,0,0.7",""
"null","","html-keyboard-response","364","160299","0.0-364.0","369J354OFEW336EBE692JLMIKMM6GO","A1AYQ8E01NSY5Z","39KMGHJ4RZW9S7JH7DZG09TNV4R00C","","","<img src=""img/flower5.png"" style=""width:200px;border:14px solid red;"">","null","","","","","",""
"420","","image-keyboard-response","365","160723","0.0-365.0","369J354OFEW336EBE692JLMIKMM6GO","A1AYQ8E01NSY5Z","39KMGHJ4RZW9S7JH7DZG09TNV4R00C","","","img/flower2.png","74","421","1","0","2","0.7,0.2,0,0.7,0,0.2,0.2,0,0.7",""
"null","","html-keyboard-response","366","161060","0.0-366.0","369J354OFEW336EBE692JLMIKMM6GO","A1AYQ8E01NSY5Z","39KMGHJ4RZW9S7JH7DZG09TNV4R00C","","","<img src=""img/flower2.png"" style=""width:200px;border:14px solid red;"">","null","","","","","",""
"270","","image-keyboard-response","367","161332","0.0-367.0","369J354OFEW336EBE692JLMIKMM6GO","A1AYQ8E01NSY5Z","39KMGHJ4RZW9S7JH7DZG09TNV4R00C","","","img/flower5.png","74","272","1","1","1","0.7,0.2,0,0.7,0,0.2,0.2,0,0.7",""
"null","","html-keyboard-response","368","161648","0.0-368.0","369J354OFEW336EBE692JLMIKMM6GO","A1AYQ8E01NSY5Z","39KMGHJ4RZW9S7JH7DZG09TNV4R00C","","","<img src=""img/flower5.png"" style=""width:200px; border:14px solid green;"">","null","","","","","",""
"121","","image-keyboard-response","369","161772","0.0-369.0","369J354OFEW336EBE692JLMIKMM6GO","A1AYQ8E01NSY5Z","39KMGHJ4RZW9S7JH7DZG09TNV4R00C","","","img/flower2.png","74","123","1","0","2","0.7,0.2,0,0.7,0,0.2,0.2,0,0.7",""
"null","","html-keyboard-response","370","162074","0.0-370.0","369J354OFEW336EBE692JLMIKMM6GO","A1AYQ8E01NSY5Z","39KMGHJ4RZW9S7JH7DZG09TNV4R00C","","","<img src=""img/flower2.png"" style=""width:200px;border:14px solid red;"">","null","","","","","",""
"290","","image-keyboard-response","371","162363","0.0-371.0","369J354OFEW336EBE692JLMIKMM6GO","A1AYQ8E01NSY5Z","39KMGHJ4RZW9S7JH7DZG09TNV4R00C","","","img/flower6.png","74","290","1","1","3","0.7,0.2,0,0.7,0,0.2,0.2,0,0.7",""
"null","","html-keyboard-response","372","162680","0.0-372.0","369J354OFEW336EBE692JLMIKMM6GO","A1AYQ8E01NSY5Z","39KMGHJ4RZW9S7JH7DZG09TNV4R00C","","","<img src=""img/flower6.png"" style=""width:200px; border:14px solid green;"">","null","","","","","",""
"283","","image-keyboard-response","373","162964","0.0-373.0","369J354OFEW336EBE692JLMIKMM6GO","A1AYQ8E01NSY5Z","39KMGHJ4RZW9S7JH7DZG09TNV4R00C","","","img/flower5.png","74","283","1","1","1","0.7,0.2,0,0.7,0,0.2,0.2,0,0.7",""
"null","","html-keyboard-response","374","163268","0.0-374.0","369J354OFEW336EBE692JLMIKMM6GO","A1AYQ8E01NSY5Z","39KMGHJ4RZW9S7JH7DZG09TNV4R00C","","","<img src=""img/flower5.png"" style=""width:200px; border:14px solid green;"">","null","","","","","",""
"230","","image-keyboard-response","375","163500","0.0-375.0","369J354OFEW336EBE692JLMIKMM6GO","A1AYQ8E01NSY5Z","39KMGHJ4RZW9S7JH7DZG09TNV4R00C","","","img/flower6.png","74","233","1","0","3","0.7,0.2,0,0.7,0,0.2,0.2,0,0.7",""
"null","","html-keyboard-response","376","163814","0.0-376.0","369J354OFEW336EBE692JLMIKMM6GO","A1AYQ8E01NSY5Z","39KMGHJ4RZW9S7JH7DZG09TNV4R00C","","","<img src=""img/flower6.png"" style=""width:200px;border:14px solid red;"">","null","","","","","",""
"292","","image-keyboard-response","377","164108","0.0-377.0","369J354OFEW336EBE692JLMIKMM6GO","A1AYQ8E01NSY5Z","39KMGHJ4RZW9S7JH7DZG09TNV4R00C","","","img/flower5.png","74","293","1","1","1","0.7,0.2,0,0.7,0,0.2,0.2,0,0.7",""
"null","","html-keyboard-response","378","164417","0.0-378.0","369J354OFEW336EBE692JLMIKMM6GO","A1AYQ8E01NSY5Z","39KMGHJ4RZW9S7JH7DZG09TNV4R00C","","","<img src=""img/flower5.png"" style=""width:200px; border:14px solid green;"">","null","","","","","",""
"377","","image-keyboard-response","379","164796","0.0-379.0","369J354OFEW336EBE692JLMIKMM6GO","A1AYQ8E01NSY5Z","39KMGHJ4RZW9S7JH7DZG09TNV4R00C","","","img/flower6.png","74","380","1","1","3","0.7,0.2,0,0.7,0,0.2,0.2,0,0.7",""
"null","","html-keyboard-response","380","165102","0.0-380.0","369J354OFEW336EBE692JLMIKMM6GO","A1AYQ8E01NSY5Z","39KMGHJ4RZW9S7JH7DZG09TNV4R00C","","","<img src=""img/flower6.png"" style=""width:200px; border:14px solid green;"">","null","","","","","",""
"347","","image-keyboard-response","381","165452","0.0-381.0","369J354OFEW336EBE692JLMIKMM6GO","A1AYQ8E01NSY5Z","39KMGHJ4RZW9S7JH7DZG09TNV4R00C","","","img/flower6.png","74","349","1","0","3","0.7,0.2,0,0.7,0,0.2,0.2,0,0.7",""
"null","","html-keyboard-response","382","165760","0.0-382.0","369J354OFEW336EBE692JLMIKMM6GO","A1AYQ8E01NSY5Z","39KMGHJ4RZW9S7JH7DZG09TNV4R00C","","","<img src=""img/flower6.png"" style=""width:200px;border:14px solid red;"">","null","","","","","",""
"330","","image-keyboard-response","383","166092","0.0-383.0","369J354OFEW336EBE692JLMIKMM6GO","A1AYQ8E01NSY5Z","39KMGHJ4RZW9S7JH7DZG09TNV4R00C","","","img/flower5.png","74","331","1","0","1","0.7,0.2,0,0.7,0,0.2,0.2,0,0.7",""
"null","","html-keyboard-response","384","166406","0.0-384.0","369J354OFEW336EBE692JLMIKMM6GO","A1AYQ8E01NSY5Z","39KMGHJ4RZW9S7JH7DZG09TNV4R00C","","","<img src=""img/flower5.png"" style=""width:200px;border:14px solid red;"">","null","","","","","",""
"117","","image-keyboard-response","385","166524","0.0-385.0","369J354OFEW336EBE692JLMIKMM6GO","A1AYQ8E01NSY5Z","39KMGHJ4RZW9S7JH7DZG09TNV4R00C","","","img/flower2.png","74","117","1","1","2","0.7,0.2,0,0.7,0,0.2,0.2,0,0.7",""
"null","","html-keyboard-response","386","166831","0.0-386.0","369J354OFEW336EBE692JLMIKMM6GO","A1AYQ8E01NSY5Z","39KMGHJ4RZW9S7JH7DZG09TNV4R00C","","","<img src=""img/flower2.png"" style=""width:200px; border:14px solid green;"">","null","","","","","",""
"226","","image-keyboard-response","387","167059","0.0-387.0","369J354OFEW336EBE692JLMIKMM6GO","A1AYQ8E01NSY5Z","39KMGHJ4RZW9S7JH7DZG09TNV4R00C","","","img/flower5.png","74","228","1","0","1","0.7,0.2,0,0.7,0,0.2,0.2,0,0.7",""
"null","","html-keyboard-response","388","167366","0.0-388.0","369J354OFEW336EBE692JLMIKMM6GO","A1AYQ8E01NSY5Z","39KMGHJ4RZW9S7JH7DZG09TNV4R00C","","","<img src=""img/flower5.png"" style=""width:200px;border:14px solid red;"">","null","","","","","",""
"61","","image-keyboard-response","389","167428","0.0-389.0","369J354OFEW336EBE692JLMIKMM6GO","A1AYQ8E01NSY5Z","39KMGHJ4RZW9S7JH7DZG09TNV4R00C","","","img/flower6.png","74","62","1","0","3","0.7,0.2,0,0.7,0,0.2,0.2,0,0.7",""
"null","","html-keyboard-response","390","167735","0.0-390.0","369J354OFEW336EBE692JLMIKMM6GO","A1AYQ8E01NSY5Z","39KMGHJ4RZW9S7JH7DZG09TNV4R00C","","","<img src=""img/flower6.png"" style=""width:200px;border:14px solid red;"">","null","","","","","",""
"155","","image-keyboard-response","391","167891","0.0-391.0","369J354OFEW336EBE692JLMIKMM6GO","A1AYQ8E01NSY5Z","39KMGHJ4RZW9S7JH7DZG09TNV4R00C","","","img/flower5.png","74","156","1","1","1","0.7,0.2,0,0.7,0,0.2,0.2,0,0.7",""
"null","","html-keyboard-response","392","168195","0.0-392.0","369J354OFEW336EBE692JLMIKMM6GO","A1AYQ8E01NSY5Z","39KMGHJ4RZW9S7JH7DZG09TNV4R00C","","","<img src=""img/flower5.png"" style=""width:200px; border:14px solid green;"">","null","","","","","",""
"173","","image-keyboard-response","393","168372","0.0-393.0","369J354OFEW336EBE692JLMIKMM6GO","A1AYQ8E01NSY5Z","39KMGHJ4RZW9S7JH7DZG09TNV4R00C","","","img/flower6.png","74","175","1","0","3","0.7,0.2,0,0.7,0,0.2,0.2,0,0.7",""
"null","","html-keyboard-response","394","168677","0.0-394.0","369J354OFEW336EBE692JLMIKMM6GO","A1AYQ8E01NSY5Z","39KMGHJ4RZW9S7JH7DZG09TNV4R00C","","","<img src=""img/flower6.png"" style=""width:200px;border:14px solid red;"">","null","","","","","",""
"828","","image-keyboard-response","395","169508","0.0-395.0","369J354OFEW336EBE692JLMIKMM6GO","A1AYQ8E01NSY5Z","39KMGHJ4RZW9S7JH7DZG09TNV4R00C","","","img/flower2.png","74","830","1","0","2","0.7,0.2,0,0.7,0,0.2,0.2,0,0.7",""
"null","","html-keyboard-response","396","169813","0.0-396.0","369J354OFEW336EBE692JLMIKMM6GO","A1AYQ8E01NSY5Z","39KMGHJ4RZW9S7JH7DZG09TNV4R00C","","","<img src=""img/flower2.png"" style=""width:200px;border:14px solid red;"">","null","","","","","",""
"308","","image-keyboard-response","397","170124","0.0-397.0","369J354OFEW336EBE692JLMIKMM6GO","A1AYQ8E01NSY5Z","39KMGHJ4RZW9S7JH7DZG09TNV4R00C","","","img/flower2.png","74","311","1","0","2","0.7,0.2,0,0.7,0,0.2,0.2,0,0.7",""
"null","","html-keyboard-response","398","170439","0.0-398.0","369J354OFEW336EBE692JLMIKMM6GO","A1AYQ8E01NSY5Z","39KMGHJ4RZW9S7JH7DZG09TNV4R00C","","","<img src=""img/flower2.png"" style=""width:200px;border:14px solid red;"">","null","","","","","",""
"410","","image-keyboard-response","399","170852","0.0-399.0","369J354OFEW336EBE692JLMIKMM6GO","A1AYQ8E01NSY5Z","39KMGHJ4RZW9S7JH7DZG09TNV4R00C","","","img/flower2.png","76","413","3","0","2","0.7,0.2,0,0.7,0,0.2,0.2,0,0.7",""
"null","","html-keyboard-response","400","171167","0.0-400.0","369J354OFEW336EBE692JLMIKMM6GO","A1AYQ8E01NSY5Z","39KMGHJ4RZW9S7JH7DZG09TNV4R00C","","","<img src=""img/flower2.png"" style=""width:200px;border:14px solid red;"">","null","","","","","",""
"612","","image-keyboard-response","401","171780","0.0-401.0","369J354OFEW336EBE692JLMIKMM6GO","A1AYQ8E01NSY5Z","39KMGHJ4RZW9S7JH7DZG09TNV4R00C","","","img/flower5.png","74","612","1","1","1","0.7,0.2,0,0.7,0,0.2,0.2,0,0.7",""
"null","","html-keyboard-response","402","172092","0.0-402.0","369J354OFEW336EBE692JLMIKMM6GO","A1AYQ8E01NSY5Z","39KMGHJ4RZW9S7JH7DZG09TNV4R00C","","","<img src=""img/flower5.png"" style=""width:200px; border:14px solid green;"">","null","","","","","",""
"470","","image-keyboard-response","403","172563","0.0-403.0","369J354OFEW336EBE692JLMIKMM6GO","A1AYQ8E01NSY5Z","39KMGHJ4RZW9S7JH7DZG09TNV4R00C","","","img/flower2.png","75","471","2","0","2","0.7,0.2,0,0.7,0,0.2,0.2,0,0.7",""
"null","","html-keyboard-response","404","172880","0.0-404.0","369J354OFEW336EBE692JLMIKMM6GO","A1AYQ8E01NSY5Z","39KMGHJ4RZW9S7JH7DZG09TNV4R00C","","","<img src=""img/flower2.png"" style=""width:200px;border:14px solid red;"">","null","","","","","",""
"97","","image-keyboard-response","405","172980","0.0-405.0","369J354OFEW336EBE692JLMIKMM6GO","A1AYQ8E01NSY5Z","39KMGHJ4RZW9S7JH7DZG09TNV4R00C","","","img/flower5.png","74","98","1","1","1","0.7,0.2,0,0.7,0,0.2,0.2,0,0.7",""
"null","","html-keyboard-response","406","173285","0.0-406.0","369J354OFEW336EBE692JLMIKMM6GO","A1AYQ8E01NSY5Z","39KMGHJ4RZW9S7JH7DZG09TNV4R00C","","","<img src=""img/flower5.png"" style=""width:200px; border:14px solid green;"">","null","","","","","",""
"317","","image-keyboard-response","407","173603","0.0-407.0","369J354OFEW336EBE692JLMIKMM6GO","A1AYQ8E01NSY5Z","39KMGHJ4RZW9S7JH7DZG09TNV4R00C","","","img/flower6.png","74","318","1","1","3","0.7,0.2,0,0.7,0,0.2,0.2,0,0.7",""
"null","","html-keyboard-response","408","173919","0.0-408.0","369J354OFEW336EBE692JLMIKMM6GO","A1AYQ8E01NSY5Z","39KMGHJ4RZW9S7JH7DZG09TNV4R00C","","","<img src=""img/flower6.png"" style=""width:200px; border:14px solid green;"">","null","","","","","",""
"355","","image-keyboard-response","409","174275","0.0-409.0","369J354OFEW336EBE692JLMIKMM6GO","A1AYQ8E01NSY5Z","39KMGHJ4RZW9S7JH7DZG09TNV4R00C","","","img/flower6.png","74","356","1","0","3","0.7,0.2,0,0.7,0,0.2,0.2,0,0.7",""
"null","","html-keyboard-response","410","174588","0.0-410.0","369J354OFEW336EBE692JLMIKMM6GO","A1AYQ8E01NSY5Z","39KMGHJ4RZW9S7JH7DZG09TNV4R00C","","","<img src=""img/flower6.png"" style=""width:200px;border:14px solid red;"">","null","","","","","",""
"1471","","image-keyboard-response","411","176060","0.0-411.0","369J354OFEW336EBE692JLMIKMM6GO","A1AYQ8E01NSY5Z","39KMGHJ4RZW9S7JH7DZG09TNV4R00C","","","img/flower6.png","75","1472","2","0","3","0.7,0.2,0,0.7,0,0.2,0.2,0,0.7",""
"null","","html-keyboard-response","412","176372","0.0-412.0","369J354OFEW336EBE692JLMIKMM6GO","A1AYQ8E01NSY5Z","39KMGHJ4RZW9S7JH7DZG09TNV4R00C","","","<img src=""img/flower6.png"" style=""width:200px;border:14px solid red;"">","null","","","","","",""
"501","","image-keyboard-response","413","176875","0.0-413.0","369J354OFEW336EBE692JLMIKMM6GO","A1AYQ8E01NSY5Z","39KMGHJ4RZW9S7JH7DZG09TNV4R00C","","","img/flower6.png","76","503","3","1","3","0.7,0.2,0,0.7,0,0.2,0.2,0,0.7",""
"null","","html-keyboard-response","414","177189","0.0-414.0","369J354OFEW336EBE692JLMIKMM6GO","A1AYQ8E01NSY5Z","39KMGHJ4RZW9S7JH7DZG09TNV4R00C","","","<img src=""img/flower6.png"" style=""width:200px; border:14px solid green;"">","null","","","","","",""
"116","","image-keyboard-response","415","177308","0.0-415.0","369J354OFEW336EBE692JLMIKMM6GO","A1AYQ8E01NSY5Z","39KMGHJ4RZW9S7JH7DZG09TNV4R00C","","","img/flower2.png","74","118","1","0","2","0.7,0.2,0,0.7,0,0.2,0.2,0,0.7",""
"null","","html-keyboard-response","416","177624","0.0-416.0","369J354OFEW336EBE692JLMIKMM6GO","A1AYQ8E01NSY5Z","39KMGHJ4RZW9S7JH7DZG09TNV4R00C","","","<img src=""img/flower2.png"" style=""width:200px;border:14px solid red;"">","null","","","","","",""
"194","","image-keyboard-response","417","177819","0.0-417.0","369J354OFEW336EBE692JLMIKMM6GO","A1AYQ8E01NSY5Z","39KMGHJ4RZW9S7JH7DZG09TNV4R00C","","","img/flower6.png","76","195","3","1","3","0.7,0.2,0,0.7,0,0.2,0.2,0,0.7",""
"null","","html-keyboard-response","418","178137","0.0-418.0","369J354OFEW336EBE692JLMIKMM6GO","A1AYQ8E01NSY5Z","39KMGHJ4RZW9S7JH7DZG09TNV4R00C","","","<img src=""img/flower6.png"" style=""width:200px; border:14px solid green;"">","null","","","","","",""
"192","","image-keyboard-response","419","178332","0.0-419.0","369J354OFEW336EBE692JLMIKMM6GO","A1AYQ8E01NSY5Z","39KMGHJ4RZW9S7JH7DZG09TNV4R00C","","","img/flower2.png","74","194","1","1","2","0.7,0.2,0,0.7,0,0.2,0.2,0,0.7",""
"null","","html-keyboard-response","420","178640","0.0-420.0","369J354OFEW336EBE692JLMIKMM6GO","A1AYQ8E01NSY5Z","39KMGHJ4RZW9S7JH7DZG09TNV4R00C","","","<img src=""img/flower2.png"" style=""width:200px; border:14px solid green;"">","null","","","","","",""
"43","","image-keyboard-response","421","178683","0.0-421.0","369J354OFEW336EBE692JLMIKMM6GO","A1AYQ8E01NSY5Z","39KMGHJ4RZW9S7JH7DZG09TNV4R00C","","","img/flower2.png","76","44","3","0","2","0.7,0.2,0,0.7,0,0.2,0.2,0,0.7",""
"null","","html-keyboard-response","422","179000","0.0-422.0","369J354OFEW336EBE692JLMIKMM6GO","A1AYQ8E01NSY5Z","39KMGHJ4RZW9S7JH7DZG09TNV4R00C","","","<img src=""img/flower2.png"" style=""width:200px;border:14px solid red;"">","null","","","","","",""
"239","","image-keyboard-response","423","179242","0.0-423.0","369J354OFEW336EBE692JLMIKMM6GO","A1AYQ8E01NSY5Z","39KMGHJ4RZW9S7JH7DZG09TNV4R00C","","","img/flower2.png","74","240","1","0","2","0.7,0.2,0,0.7,0,0.2,0.2,0,0.7",""
