"rt","url","trial_type","trial_index","time_elapsed","internal_node_id","assignmentID","mturkID","hitID","success","view_history","stimulus","key_press","reactionTime","a","r","s","reward_cond","responses"
"32969.09999996424","consent.html","external-html","0","33284","0.0-0.0","3ND9UOO81LOHJD7IGFJMU7Q3450WLK","A1BJFYHXK6YDX1","33K3E8REWWHZ7MUV5T1222MGO9NX8Q","","","","","","","","","",""
"","","fullscreen","1","231382","0.0-1.0","3ND9UOO81LOHJD7IGFJMU7Q3450WLK","A1BJFYHXK6YDX1","33K3E8REWWHZ7MUV5T1222MGO9NX8Q","true","","","","","","","","",""
"102271.30000001192","","instructions","2","333655","0.0-2.0","3ND9UOO81LOHJD7IGFJMU7Q3450WLK","A1BJFYHXK6YDX1","33K3E8REWWHZ7MUV5T1222MGO9NX8Q","","[{""page_index"":0,""viewing_time"":9015.399999976158},{""page_index"":1,""viewing_time"":10311.699999988079},{""page_index"":2,""viewing_time"":16296},{""page_index"":3,""viewing_time"":16639.900000035763},{""page_index"":4,""viewing_time"":24511.599999964237},{""page_index"":5,""viewing_time"":25495.900000035763}]","","","","","","","",""
"56383.19999998808","","instructions","3","390040","0.0-3.0","3ND9UOO81LOHJD7IGFJMU7Q3450WLK","A1BJFYHXK6YDX1","33K3E8REWWHZ7MUV5T1222MGO9NX8Q","","[{""page_index"":0,""viewing_time"":56383}]","","","","","","","",""
"2437.5","","image-keyboard-response","4","392479","0.0-4.0","3ND9UOO81LOHJD7IGFJMU7Q3450WLK","A1BJFYHXK6YDX1","33K3E8REWWHZ7MUV5T1222MGO9NX8Q","","","img/flower6.png","74","2438.800000011921","1","1","3","",""
"null","","html-keyboard-response","5","392797","0.0-5.0","3ND9UOO81LOHJD7IGFJMU7Q3450WLK","A1BJFYHXK6YDX1","33K3E8REWWHZ7MUV5T1222MGO9NX8Q","","","<img src=""img/flower6.png"" style=""width:200px; border:14px solid green;"">","null","","","","","",""
"1183.699999988079","","image-keyboard-response","6","393982","0.0-6.0","3ND9UOO81LOHJD7IGFJMU7Q3450WLK","A1BJFYHXK6YDX1","33K3E8REWWHZ7MUV5T1222MGO9NX8Q","","","img/flower4.png","75","1184.7999999523163","2","0","1","",""
"null","","html-keyboard-response","7","394286","0.0-7.0","3ND9UOO81LOHJD7IGFJMU7Q3450WLK","A1BJFYHXK6YDX1","33K3E8REWWHZ7MUV5T1222MGO9NX8Q","","","<img src=""img/flower4.png"" style=""width:200px;border:14px solid red;"">","null","","","","","",""
"1094.3999999761581","","image-keyboard-response","8","395383","0.0-8.0","3ND9UOO81LOHJD7IGFJMU7Q3450WLK","A1BJFYHXK6YDX1","33K3E8REWWHZ7MUV5T1222MGO9NX8Q","","","img/flower6.png","76","1095.9000000357628","3","1","3","",""
"null","","html-keyboard-response","9","395696","0.0-9.0","3ND9UOO81LOHJD7IGFJMU7Q3450WLK","A1BJFYHXK6YDX1","33K3E8REWWHZ7MUV5T1222MGO9NX8Q","","","<img src=""img/flower6.png"" style=""width:200px; border:14px solid green;"">","null","","","","","",""
"1265.199999988079","","image-keyboard-response","10","396963","0.0-10.0","3ND9UOO81LOHJD7IGFJMU7Q3450WLK","A1BJFYHXK6YDX1","33K3E8REWWHZ7MUV5T1222MGO9NX8Q","","","img/flower5.png","75","1266.300000011921","2","1","2","",""
"null","","html-keyboard-response","11","397273","0.0-11.0","3ND9UOO81LOHJD7IGFJMU7Q3450WLK","A1BJFYHXK6YDX1","33K3E8REWWHZ7MUV5T1222MGO9NX8Q","","","<img src=""img/flower5.png"" style=""width:200px; border:14px solid green;"">","null","","","","","",""
"2087.100000023842","","image-keyboard-response","12","399361","0.0-12.0","3ND9UOO81LOHJD7IGFJMU7Q3450WLK","A1BJFYHXK6YDX1","33K3E8REWWHZ7MUV5T1222MGO9NX8Q","","","img/flower5.png","76","2088.100000023842","3","1","2","",""
"null","","html-keyboard-response","13","399673","0.0-13.0","3ND9UOO81LOHJD7IGFJMU7Q3450WLK","A1BJFYHXK6YDX1","33K3E8REWWHZ7MUV5T1222MGO9NX8Q","","","<img src=""img/flower5.png"" style=""width:200px; border:14px solid green;"">","null","","","","","",""
"1777","","image-keyboard-response","14","401451","0.0-14.0","3ND9UOO81LOHJD7IGFJMU7Q3450WLK","A1BJFYHXK6YDX1","33K3E8REWWHZ7MUV5T1222MGO9NX8Q","","","img/flower4.png","74","1778.199999988079","1","0","1","",""
"null","","html-keyboard-response","15","401762","0.0-15.0","3ND9UOO81LOHJD7IGFJMU7Q3450WLK","A1BJFYHXK6YDX1","33K3E8REWWHZ7MUV5T1222MGO9NX8Q","","","<img src=""img/flower4.png"" style=""width:200px;border:14px solid red;"">","null","","","","","",""
"1250.9000000357628","","image-keyboard-response","16","403014","0.0-16.0","3ND9UOO81LOHJD7IGFJMU7Q3450WLK","A1BJFYHXK6YDX1","33K3E8REWWHZ7MUV5T1222MGO9NX8Q","","","img/flower6.png","74","1252.300000011921","1","0","3","",""
"null","","html-keyboard-response","17","403320","0.0-17.0","3ND9UOO81LOHJD7IGFJMU7Q3450WLK","A1BJFYHXK6YDX1","33K3E8REWWHZ7MUV5T1222MGO9NX8Q","","","<img src=""img/flower6.png"" style=""width:200px;border:14px solid red;"">","null","","","","","",""
"1691.2999999523163","","image-keyboard-response","18","405013","0.0-18.0","3ND9UOO81LOHJD7IGFJMU7Q3450WLK","A1BJFYHXK6YDX1","33K3E8REWWHZ7MUV5T1222MGO9NX8Q","","","img/flower4.png","76","1692.300000011921","3","0","1","",""
"null","","html-keyboard-response","19","405317","0.0-19.0","3ND9UOO81LOHJD7IGFJMU7Q3450WLK","A1BJFYHXK6YDX1","33K3E8REWWHZ7MUV5T1222MGO9NX8Q","","","<img src=""img/flower4.png"" style=""width:200px;border:14px solid red;"">","null","","","","","",""
"822","","image-keyboard-response","20","406140","0.0-20.0","3ND9UOO81LOHJD7IGFJMU7Q3450WLK","A1BJFYHXK6YDX1","33K3E8REWWHZ7MUV5T1222MGO9NX8Q","","","img/flower6.png","74","823.1000000238419","1","0","3","",""
"null","","html-keyboard-response","21","406450","0.0-21.0","3ND9UOO81LOHJD7IGFJMU7Q3450WLK","A1BJFYHXK6YDX1","33K3E8REWWHZ7MUV5T1222MGO9NX8Q","","","<img src=""img/flower6.png"" style=""width:200px;border:14px solid red;"">","null","","","","","",""
"1647.699999988079","","image-keyboard-response","22","408099","0.0-22.0","3ND9UOO81LOHJD7IGFJMU7Q3450WLK","A1BJFYHXK6YDX1","33K3E8REWWHZ7MUV5T1222MGO9NX8Q","","","img/flower5.png","74","1648.7999999523163","1","0","2","",""
"null","","html-keyboard-response","23","408415","0.0-23.0","3ND9UOO81LOHJD7IGFJMU7Q3450WLK","A1BJFYHXK6YDX1","33K3E8REWWHZ7MUV5T1222MGO9NX8Q","","","<img src=""img/flower5.png"" style=""width:200px;border:14px solid red;"">","null","","","","","",""
"781.2999999523163","","image-keyboard-response","24","409198","0.0-24.0","3ND9UOO81LOHJD7IGFJMU7Q3450WLK","A1BJFYHXK6YDX1","33K3E8REWWHZ7MUV5T1222MGO9NX8Q","","","img/flower6.png","74","782.5999999642372","1","0","3","",""
"null","","html-keyboard-response","25","409511","0.0-25.0","3ND9UOO81LOHJD7IGFJMU7Q3450WLK","A1BJFYHXK6YDX1","33K3E8REWWHZ7MUV5T1222MGO9NX8Q","","","<img src=""img/flower6.png"" style=""width:200px;border:14px solid red;"">","null","","","","","",""
"3109.699999988079","","image-keyboard-response","26","412622","0.0-26.0","3ND9UOO81LOHJD7IGFJMU7Q3450WLK","A1BJFYHXK6YDX1","33K3E8REWWHZ7MUV5T1222MGO9NX8Q","","","img/flower6.png","74","3110.399999976158","1","0","3","",""
"null","","html-keyboard-response","27","412925","0.0-27.0","3ND9UOO81LOHJD7IGFJMU7Q3450WLK","A1BJFYHXK6YDX1","33K3E8REWWHZ7MUV5T1222MGO9NX8Q","","","<img src=""img/flower6.png"" style=""width:200px;border:14px solid red;"">","null","","","","","",""
"1832.5999999642372","","image-keyboard-response","28","414759","0.0-28.0","3ND9UOO81LOHJD7IGFJMU7Q3450WLK","A1BJFYHXK6YDX1","33K3E8REWWHZ7MUV5T1222MGO9NX8Q","","","img/flower6.png","75","1833.6000000238419","2","0","3","",""
"null","","html-keyboard-response","29","415070","0.0-29.0","3ND9UOO81LOHJD7IGFJMU7Q3450WLK","A1BJFYHXK6YDX1","33K3E8REWWHZ7MUV5T1222MGO9NX8Q","","","<img src=""img/flower6.png"" style=""width:200px;border:14px solid red;"">","null","","","","","",""
"1232.3999999761581","","image-keyboard-response","30","416304","0.0-30.0","3ND9UOO81LOHJD7IGFJMU7Q3450WLK","A1BJFYHXK6YDX1","33K3E8REWWHZ7MUV5T1222MGO9NX8Q","","","img/flower6.png","76","1233.5","3","1","3","",""
"null","","html-keyboard-response","31","416618","0.0-31.0","3ND9UOO81LOHJD7IGFJMU7Q3450WLK","A1BJFYHXK6YDX1","33K3E8REWWHZ7MUV5T1222MGO9NX8Q","","","<img src=""img/flower6.png"" style=""width:200px; border:14px solid green;"">","null","","","","","",""
"1906.1000000238419","","image-keyboard-response","32","418525","0.0-32.0","3ND9UOO81LOHJD7IGFJMU7Q3450WLK","A1BJFYHXK6YDX1","33K3E8REWWHZ7MUV5T1222MGO9NX8Q","","","img/flower4.png","75","1907.199999988079","2","0","1","",""
"null","","html-keyboard-response","33","418835","0.0-33.0","3ND9UOO81LOHJD7IGFJMU7Q3450WLK","A1BJFYHXK6YDX1","33K3E8REWWHZ7MUV5T1222MGO9NX8Q","","","<img src=""img/flower4.png"" style=""width:200px;border:14px solid red;"">","null","","","","","",""
"1151","","image-keyboard-response","34","419987","0.0-34.0","3ND9UOO81LOHJD7IGFJMU7Q3450WLK","A1BJFYHXK6YDX1","33K3E8REWWHZ7MUV5T1222MGO9NX8Q","","","img/flower6.png","76","1152.0999999642372","3","1","3","",""
"null","","html-keyboard-response","35","420290","0.0-35.0","3ND9UOO81LOHJD7IGFJMU7Q3450WLK","A1BJFYHXK6YDX1","33K3E8REWWHZ7MUV5T1222MGO9NX8Q","","","<img src=""img/flower6.png"" style=""width:200px; border:14px solid green;"">","null","","","","","",""
"1493.8999999761581","","image-keyboard-response","36","421785","0.0-36.0","3ND9UOO81LOHJD7IGFJMU7Q3450WLK","A1BJFYHXK6YDX1","33K3E8REWWHZ7MUV5T1222MGO9NX8Q","","","img/flower5.png","75","1495.0999999642372","2","0","2","",""
"null","","html-keyboard-response","37","422102","0.0-37.0","3ND9UOO81LOHJD7IGFJMU7Q3450WLK","A1BJFYHXK6YDX1","33K3E8REWWHZ7MUV5T1222MGO9NX8Q","","","<img src=""img/flower5.png"" style=""width:200px;border:14px solid red;"">","null","","","","","",""
"1997","","image-keyboard-response","38","424101","0.0-38.0","3ND9UOO81LOHJD7IGFJMU7Q3450WLK","A1BJFYHXK6YDX1","33K3E8REWWHZ7MUV5T1222MGO9NX8Q","","","img/flower5.png","74","1998.5999999642372","1","0","2","",""
"null","","html-keyboard-response","39","424418","0.0-39.0","3ND9UOO81LOHJD7IGFJMU7Q3450WLK","A1BJFYHXK6YDX1","33K3E8REWWHZ7MUV5T1222MGO9NX8Q","","","<img src=""img/flower5.png"" style=""width:200px;border:14px solid red;"">","null","","","","","",""
"1169.699999988079","","image-keyboard-response","40","425589","0.0-40.0","3ND9UOO81LOHJD7IGFJMU7Q3450WLK","A1BJFYHXK6YDX1","33K3E8REWWHZ7MUV5T1222MGO9NX8Q","","","img/flower4.png","74","1171","1","1","1","",""
"null","","html-keyboard-response","41","425906","0.0-41.0","3ND9UOO81LOHJD7IGFJMU7Q3450WLK","A1BJFYHXK6YDX1","33K3E8REWWHZ7MUV5T1222MGO9NX8Q","","","<img src=""img/flower4.png"" style=""width:200px; border:14px solid green;"">","null","","","","","",""
"1001.5","","image-keyboard-response","42","426905","0.0-42.0","3ND9UOO81LOHJD7IGFJMU7Q3450WLK","A1BJFYHXK6YDX1","33K3E8REWWHZ7MUV5T1222MGO9NX8Q","","","img/flower5.png","75","1002.6000000238419","2","1","2","",""
"null","","html-keyboard-response","43","427207","0.0-43.0","3ND9UOO81LOHJD7IGFJMU7Q3450WLK","A1BJFYHXK6YDX1","33K3E8REWWHZ7MUV5T1222MGO9NX8Q","","","<img src=""img/flower5.png"" style=""width:200px; border:14px solid green;"">","null","","","","","",""
"1183.300000011921","","image-keyboard-response","44","428391","0.0-44.0","3ND9UOO81LOHJD7IGFJMU7Q3450WLK","A1BJFYHXK6YDX1","33K3E8REWWHZ7MUV5T1222MGO9NX8Q","","","img/flower4.png","74","1184","1","1","1","",""
"null","","html-keyboard-response","45","428711","0.0-45.0","3ND9UOO81LOHJD7IGFJMU7Q3450WLK","A1BJFYHXK6YDX1","33K3E8REWWHZ7MUV5T1222MGO9NX8Q","","","<img src=""img/flower4.png"" style=""width:200px; border:14px solid green;"">","null","","","","","",""
"679.1999999880791","","image-keyboard-response","46","429392","0.0-46.0","3ND9UOO81LOHJD7IGFJMU7Q3450WLK","A1BJFYHXK6YDX1","33K3E8REWWHZ7MUV5T1222MGO9NX8Q","","","img/flower5.png","75","680.3000000119209","2","0","2","",""
"null","","html-keyboard-response","47","429699","0.0-47.0","3ND9UOO81LOHJD7IGFJMU7Q3450WLK","A1BJFYHXK6YDX1","33K3E8REWWHZ7MUV5T1222MGO9NX8Q","","","<img src=""img/flower5.png"" style=""width:200px;border:14px solid red;"">","null","","","","","",""
"1708.1000000238419","","image-keyboard-response","48","431408","0.0-48.0","3ND9UOO81LOHJD7IGFJMU7Q3450WLK","A1BJFYHXK6YDX1","33K3E8REWWHZ7MUV5T1222MGO9NX8Q","","","img/flower5.png","74","1709.3999999761581","1","0","2","",""
"null","","html-keyboard-response","49","431714","0.0-49.0","3ND9UOO81LOHJD7IGFJMU7Q3450WLK","A1BJFYHXK6YDX1","33K3E8REWWHZ7MUV5T1222MGO9NX8Q","","","<img src=""img/flower5.png"" style=""width:200px;border:14px solid red;"">","null","","","","","",""
"674.5999999642372","","image-keyboard-response","50","432390","0.0-50.0","3ND9UOO81LOHJD7IGFJMU7Q3450WLK","A1BJFYHXK6YDX1","33K3E8REWWHZ7MUV5T1222MGO9NX8Q","","","img/flower5.png","75","675.8000000119209","2","1","2","",""
"null","","html-keyboard-response","51","432707","0.0-51.0","3ND9UOO81LOHJD7IGFJMU7Q3450WLK","A1BJFYHXK6YDX1","33K3E8REWWHZ7MUV5T1222MGO9NX8Q","","","<img src=""img/flower5.png"" style=""width:200px; border:14px solid green;"">","null","","","","","",""
"1314","","image-keyboard-response","52","434022","0.0-52.0","3ND9UOO81LOHJD7IGFJMU7Q3450WLK","A1BJFYHXK6YDX1","33K3E8REWWHZ7MUV5T1222MGO9NX8Q","","","img/flower4.png","75","1314.9000000357628","2","0","1","",""
"null","","html-keyboard-response","53","434333","0.0-53.0","3ND9UOO81LOHJD7IGFJMU7Q3450WLK","A1BJFYHXK6YDX1","33K3E8REWWHZ7MUV5T1222MGO9NX8Q","","","<img src=""img/flower4.png"" style=""width:200px;border:14px solid red;"">","null","","","","","",""
"1882.5","","image-keyboard-response","54","436217","0.0-54.0","3ND9UOO81LOHJD7IGFJMU7Q3450WLK","A1BJFYHXK6YDX1","33K3E8REWWHZ7MUV5T1222MGO9NX8Q","","","img/flower4.png","74","1883.4000000357628","1","1","1","",""
"null","","html-keyboard-response","55","436540","0.0-55.0","3ND9UOO81LOHJD7IGFJMU7Q3450WLK","A1BJFYHXK6YDX1","33K3E8REWWHZ7MUV5T1222MGO9NX8Q","","","<img src=""img/flower4.png"" style=""width:200px; border:14px solid green;"">","null","","","","","",""
"2083.699999988079","","image-keyboard-response","56","438625","0.0-56.0","3ND9UOO81LOHJD7IGFJMU7Q3450WLK","A1BJFYHXK6YDX1","33K3E8REWWHZ7MUV5T1222MGO9NX8Q","","","img/flower4.png","74","2085","1","1","1","",""
"null","","html-keyboard-response","57","438934","0.0-57.0","3ND9UOO81LOHJD7IGFJMU7Q3450WLK","A1BJFYHXK6YDX1","33K3E8REWWHZ7MUV5T1222MGO9NX8Q","","","<img src=""img/flower4.png"" style=""width:200px; border:14px solid green;"">","null","","","","","",""
"1526.699999988079","","image-keyboard-response","58","440463","0.0-58.0","3ND9UOO81LOHJD7IGFJMU7Q3450WLK","A1BJFYHXK6YDX1","33K3E8REWWHZ7MUV5T1222MGO9NX8Q","","","img/flower4.png","74","1527.800000011921","1","1","1","",""
"null","","html-keyboard-response","59","440771","0.0-59.0","3ND9UOO81LOHJD7IGFJMU7Q3450WLK","A1BJFYHXK6YDX1","33K3E8REWWHZ7MUV5T1222MGO9NX8Q","","","<img src=""img/flower4.png"" style=""width:200px; border:14px solid green;"">","null","","","","","",""
"897.7000000476837","","image-keyboard-response","60","441670","0.0-60.0","3ND9UOO81LOHJD7IGFJMU7Q3450WLK","A1BJFYHXK6YDX1","33K3E8REWWHZ7MUV5T1222MGO9NX8Q","","","img/flower5.png","75","898.8999999761581","2","1","2","",""
"null","","html-keyboard-response","61","441973","0.0-61.0","3ND9UOO81LOHJD7IGFJMU7Q3450WLK","A1BJFYHXK6YDX1","33K3E8REWWHZ7MUV5T1222MGO9NX8Q","","","<img src=""img/flower5.png"" style=""width:200px; border:14px solid green;"">","null","","","","","",""
"883.5","","image-keyboard-response","62","442857","0.0-62.0","3ND9UOO81LOHJD7IGFJMU7Q3450WLK","A1BJFYHXK6YDX1","33K3E8REWWHZ7MUV5T1222MGO9NX8Q","","","img/flower6.png","76","884.5","3","0","3","",""
"null","","html-keyboard-response","63","443161","0.0-63.0","3ND9UOO81LOHJD7IGFJMU7Q3450WLK","A1BJFYHXK6YDX1","33K3E8REWWHZ7MUV5T1222MGO9NX8Q","","","<img src=""img/flower6.png"" style=""width:200px;border:14px solid red;"">","null","","","","","",""
"19265.30000001192","","instructions","64","462427","0.0-64.0","3ND9UOO81LOHJD7IGFJMU7Q3450WLK","A1BJFYHXK6YDX1","33K3E8REWWHZ7MUV5T1222MGO9NX8Q","","[{""page_index"":0,""viewing_time"":4569.300000011921},{""page_index"":1,""viewing_time"":14695.600000023842}]","","","","","","","",""
"1064.699999988079","","image-keyboard-response","65","463493","0.0-65.0","3ND9UOO81LOHJD7IGFJMU7Q3450WLK","A1BJFYHXK6YDX1","33K3E8REWWHZ7MUV5T1222MGO9NX8Q","","","img/flower6.png","76","1066","3","1","3","",""
"null","","html-keyboard-response","66","463800","0.0-66.0","3ND9UOO81LOHJD7IGFJMU7Q3450WLK","A1BJFYHXK6YDX1","33K3E8REWWHZ7MUV5T1222MGO9NX8Q","","","<img src=""img/flower6.png"" style=""width:200px; border:14px solid green;"">","null","","","","","",""
"1141.7000000476837","","image-keyboard-response","67","464943","0.0-67.0","3ND9UOO81LOHJD7IGFJMU7Q3450WLK","A1BJFYHXK6YDX1","33K3E8REWWHZ7MUV5T1222MGO9NX8Q","","","img/flower5.png","75","1142.699999988079","2","1","2","",""
"null","","html-keyboard-response","68","465256","0.0-68.0","3ND9UOO81LOHJD7IGFJMU7Q3450WLK","A1BJFYHXK6YDX1","33K3E8REWWHZ7MUV5T1222MGO9NX8Q","","","<img src=""img/flower5.png"" style=""width:200px; border:14px solid green;"">","null","","","","","",""
"765.7000000476837","","image-keyboard-response","69","466023","0.0-69.0","3ND9UOO81LOHJD7IGFJMU7Q3450WLK","A1BJFYHXK6YDX1","33K3E8REWWHZ7MUV5T1222MGO9NX8Q","","","img/flower5.png","75","766.7999999523163","2","0","2","",""
"null","","html-keyboard-response","70","466336","0.0-70.0","3ND9UOO81LOHJD7IGFJMU7Q3450WLK","A1BJFYHXK6YDX1","33K3E8REWWHZ7MUV5T1222MGO9NX8Q","","","<img src=""img/flower5.png"" style=""width:200px;border:14px solid red;"">","null","","","","","",""
"859.0999999642372","","image-keyboard-response","71","467196","0.0-71.0","3ND9UOO81LOHJD7IGFJMU7Q3450WLK","A1BJFYHXK6YDX1","33K3E8REWWHZ7MUV5T1222MGO9NX8Q","","","img/flower6.png","76","860.1999999880791","3","0","3","",""
"null","","html-keyboard-response","72","467501","0.0-72.0","3ND9UOO81LOHJD7IGFJMU7Q3450WLK","A1BJFYHXK6YDX1","33K3E8REWWHZ7MUV5T1222MGO9NX8Q","","","<img src=""img/flower6.png"" style=""width:200px;border:14px solid red;"">","null","","","","","",""
"751.4000000357628","","image-keyboard-response","73","468254","0.0-73.0","3ND9UOO81LOHJD7IGFJMU7Q3450WLK","A1BJFYHXK6YDX1","33K3E8REWWHZ7MUV5T1222MGO9NX8Q","","","img/flower4.png","74","752.0999999642372","1","1","1","",""
"null","","html-keyboard-response","74","468564","0.0-74.0","3ND9UOO81LOHJD7IGFJMU7Q3450WLK","A1BJFYHXK6YDX1","33K3E8REWWHZ7MUV5T1222MGO9NX8Q","","","<img src=""img/flower4.png"" style=""width:200px; border:14px solid green;"">","null","","","","","",""
"668.3000000119209","","image-keyboard-response","75","469233","0.0-75.0","3ND9UOO81LOHJD7IGFJMU7Q3450WLK","A1BJFYHXK6YDX1","33K3E8REWWHZ7MUV5T1222MGO9NX8Q","","","img/flower5.png","75","669.0999999642372","2","1","2","",""
"null","","html-keyboard-response","76","469550","0.0-76.0","3ND9UOO81LOHJD7IGFJMU7Q3450WLK","A1BJFYHXK6YDX1","33K3E8REWWHZ7MUV5T1222MGO9NX8Q","","","<img src=""img/flower5.png"" style=""width:200px; border:14px solid green;"">","null","","","","","",""
"585.2000000476837","","image-keyboard-response","77","470136","0.0-77.0","3ND9UOO81LOHJD7IGFJMU7Q3450WLK","A1BJFYHXK6YDX1","33K3E8REWWHZ7MUV5T1222MGO9NX8Q","","","img/flower4.png","74","586.3000000119209","1","1","1","",""
"null","","html-keyboard-response","78","470441","0.0-78.0","3ND9UOO81LOHJD7IGFJMU7Q3450WLK","A1BJFYHXK6YDX1","33K3E8REWWHZ7MUV5T1222MGO9NX8Q","","","<img src=""img/flower4.png"" style=""width:200px; border:14px solid green;"">","null","","","","","",""
"660.3999999761581","","image-keyboard-response","79","471102","0.0-79.0","3ND9UOO81LOHJD7IGFJMU7Q3450WLK","A1BJFYHXK6YDX1","33K3E8REWWHZ7MUV5T1222MGO9NX8Q","","","img/flower6.png","76","661.3999999761581","3","1","3","",""
"null","","html-keyboard-response","80","471410","0.0-80.0","3ND9UOO81LOHJD7IGFJMU7Q3450WLK","A1BJFYHXK6YDX1","33K3E8REWWHZ7MUV5T1222MGO9NX8Q","","","<img src=""img/flower6.png"" style=""width:200px; border:14px solid green;"">","null","","","","","",""
"549.1000000238419","","image-keyboard-response","81","471960","0.0-81.0","3ND9UOO81LOHJD7IGFJMU7Q3450WLK","A1BJFYHXK6YDX1","33K3E8REWWHZ7MUV5T1222MGO9NX8Q","","","img/flower6.png","76","550.3000000119209","3","1","3","",""
"null","","html-keyboard-response","82","472270","0.0-82.0","3ND9UOO81LOHJD7IGFJMU7Q3450WLK","A1BJFYHXK6YDX1","33K3E8REWWHZ7MUV5T1222MGO9NX8Q","","","<img src=""img/flower6.png"" style=""width:200px; border:14px solid green;"">","null","","","","","",""
"1128","","image-keyboard-response","83","473399","0.0-83.0","3ND9UOO81LOHJD7IGFJMU7Q3450WLK","A1BJFYHXK6YDX1","33K3E8REWWHZ7MUV5T1222MGO9NX8Q","","","img/flower4.png","75","1129.1000000238419","2","1","1","",""
"null","","html-keyboard-response","84","473707","0.0-84.0","3ND9UOO81LOHJD7IGFJMU7Q3450WLK","A1BJFYHXK6YDX1","33K3E8REWWHZ7MUV5T1222MGO9NX8Q","","","<img src=""img/flower4.png"" style=""width:200px; border:14px solid green;"">","null","","","","","",""
"694.4000000357628","","image-keyboard-response","85","474403","0.0-85.0","3ND9UOO81LOHJD7IGFJMU7Q3450WLK","A1BJFYHXK6YDX1","33K3E8REWWHZ7MUV5T1222MGO9NX8Q","","","img/flower5.png","74","695.3000000119209","1","0","2","",""
"null","","html-keyboard-response","86","474725","0.0-86.0","3ND9UOO81LOHJD7IGFJMU7Q3450WLK","A1BJFYHXK6YDX1","33K3E8REWWHZ7MUV5T1222MGO9NX8Q","","","<img src=""img/flower5.png"" style=""width:200px;border:14px solid red;"">","null","","","","","",""
"1089.2000000476837","","image-keyboard-response","87","475816","0.0-87.0","3ND9UOO81LOHJD7IGFJMU7Q3450WLK","A1BJFYHXK6YDX1","33K3E8REWWHZ7MUV5T1222MGO9NX8Q","","","img/flower5.png","74","1090.199999988079","1","0","2","",""
"null","","html-keyboard-response","88","476130","0.0-88.0","3ND9UOO81LOHJD7IGFJMU7Q3450WLK","A1BJFYHXK6YDX1","33K3E8REWWHZ7MUV5T1222MGO9NX8Q","","","<img src=""img/flower5.png"" style=""width:200px;border:14px solid red;"">","null","","","","","",""
"763.6999999880791","","image-keyboard-response","89","476894","0.0-89.0","3ND9UOO81LOHJD7IGFJMU7Q3450WLK","A1BJFYHXK6YDX1","33K3E8REWWHZ7MUV5T1222MGO9NX8Q","","","img/flower4.png","75","764.5999999642372","2","1","1","",""
"null","","html-keyboard-response","90","477207","0.0-90.0","3ND9UOO81LOHJD7IGFJMU7Q3450WLK","A1BJFYHXK6YDX1","33K3E8REWWHZ7MUV5T1222MGO9NX8Q","","","<img src=""img/flower4.png"" style=""width:200px; border:14px solid green;"">","null","","","","","",""
"1005.6999999880791","","image-keyboard-response","91","478214","0.0-91.0","3ND9UOO81LOHJD7IGFJMU7Q3450WLK","A1BJFYHXK6YDX1","33K3E8REWWHZ7MUV5T1222MGO9NX8Q","","","img/flower4.png","75","1006.8000000119209","2","1","1","",""
"null","","html-keyboard-response","92","478521","0.0-92.0","3ND9UOO81LOHJD7IGFJMU7Q3450WLK","A1BJFYHXK6YDX1","33K3E8REWWHZ7MUV5T1222MGO9NX8Q","","","<img src=""img/flower4.png"" style=""width:200px; border:14px solid green;"">","null","","","","","",""
"657","","image-keyboard-response","93","479179","0.0-93.0","3ND9UOO81LOHJD7IGFJMU7Q3450WLK","A1BJFYHXK6YDX1","33K3E8REWWHZ7MUV5T1222MGO9NX8Q","","","img/flower6.png","76","658.1000000238419","3","1","3","",""
"null","","html-keyboard-response","94","479488","0.0-94.0","3ND9UOO81LOHJD7IGFJMU7Q3450WLK","A1BJFYHXK6YDX1","33K3E8REWWHZ7MUV5T1222MGO9NX8Q","","","<img src=""img/flower6.png"" style=""width:200px; border:14px solid green;"">","null","","","","","",""
"649.5","","image-keyboard-response","95","480139","0.0-95.0","3ND9UOO81LOHJD7IGFJMU7Q3450WLK","A1BJFYHXK6YDX1","33K3E8REWWHZ7MUV5T1222MGO9NX8Q","","","img/flower4.png","75","650.6999999880791","2","1","1","",""
"null","","html-keyboard-response","96","480448","0.0-96.0","3ND9UOO81LOHJD7IGFJMU7Q3450WLK","A1BJFYHXK6YDX1","33K3E8REWWHZ7MUV5T1222MGO9NX8Q","","","<img src=""img/flower4.png"" style=""width:200px; border:14px solid green;"">","null","","","","","",""
"867.5","","image-keyboard-response","97","481317","0.0-97.0","3ND9UOO81LOHJD7IGFJMU7Q3450WLK","A1BJFYHXK6YDX1","33K3E8REWWHZ7MUV5T1222MGO9NX8Q","","","img/flower6.png","76","868.5","3","1","3","",""
"null","","html-keyboard-response","98","481619","0.0-98.0","3ND9UOO81LOHJD7IGFJMU7Q3450WLK","A1BJFYHXK6YDX1","33K3E8REWWHZ7MUV5T1222MGO9NX8Q","","","<img src=""img/flower6.png"" style=""width:200px; border:14px solid green;"">","null","","","","","",""
"937.8000000119209","","image-keyboard-response","99","482558","0.0-99.0","3ND9UOO81LOHJD7IGFJMU7Q3450WLK","A1BJFYHXK6YDX1","33K3E8REWWHZ7MUV5T1222MGO9NX8Q","","","img/flower5.png","74","938.8000000119209","1","0","2","",""
"null","","html-keyboard-response","100","482866","0.0-100.0","3ND9UOO81LOHJD7IGFJMU7Q3450WLK","A1BJFYHXK6YDX1","33K3E8REWWHZ7MUV5T1222MGO9NX8Q","","","<img src=""img/flower5.png"" style=""width:200px;border:14px solid red;"">","null","","","","","",""
"825.1000000238419","","image-keyboard-response","101","483693","0.0-101.0","3ND9UOO81LOHJD7IGFJMU7Q3450WLK","A1BJFYHXK6YDX1","33K3E8REWWHZ7MUV5T1222MGO9NX8Q","","","img/flower6.png","76","826","3","1","3","",""
"null","","html-keyboard-response","102","483996","0.0-102.0","3ND9UOO81LOHJD7IGFJMU7Q3450WLK","A1BJFYHXK6YDX1","33K3E8REWWHZ7MUV5T1222MGO9NX8Q","","","<img src=""img/flower6.png"" style=""width:200px; border:14px solid green;"">","null","","","","","",""
"899.5999999642372","","image-keyboard-response","103","484897","0.0-103.0","3ND9UOO81LOHJD7IGFJMU7Q3450WLK","A1BJFYHXK6YDX1","33K3E8REWWHZ7MUV5T1222MGO9NX8Q","","","img/flower5.png","75","900.6000000238419","2","0","2","",""
"null","","html-keyboard-response","104","485207","0.0-104.0","3ND9UOO81LOHJD7IGFJMU7Q3450WLK","A1BJFYHXK6YDX1","33K3E8REWWHZ7MUV5T1222MGO9NX8Q","","","<img src=""img/flower5.png"" style=""width:200px;border:14px solid red;"">","null","","","","","",""
"1145","","image-keyboard-response","105","486353","0.0-105.0","3ND9UOO81LOHJD7IGFJMU7Q3450WLK","A1BJFYHXK6YDX1","33K3E8REWWHZ7MUV5T1222MGO9NX8Q","","","img/flower5.png","74","1146.1000000238419","1","0","2","",""
"null","","html-keyboard-response","106","486666","0.0-106.0","3ND9UOO81LOHJD7IGFJMU7Q3450WLK","A1BJFYHXK6YDX1","33K3E8REWWHZ7MUV5T1222MGO9NX8Q","","","<img src=""img/flower5.png"" style=""width:200px;border:14px solid red;"">","null","","","","","",""
"855.6000000238419","","image-keyboard-response","107","487514","0.0-107.0","3ND9UOO81LOHJD7IGFJMU7Q3450WLK","A1BJFYHXK6YDX1","33K3E8REWWHZ7MUV5T1222MGO9NX8Q","","","img/flower4.png","75","856.6000000238419","2","1","1","",""
"null","","html-keyboard-response","108","487827","0.0-108.0","3ND9UOO81LOHJD7IGFJMU7Q3450WLK","A1BJFYHXK6YDX1","33K3E8REWWHZ7MUV5T1222MGO9NX8Q","","","<img src=""img/flower4.png"" style=""width:200px; border:14px solid green;"">","null","","","","","",""
"666.5","","image-keyboard-response","109","488495","0.0-109.0","3ND9UOO81LOHJD7IGFJMU7Q3450WLK","A1BJFYHXK6YDX1","33K3E8REWWHZ7MUV5T1222MGO9NX8Q","","","img/flower5.png","74","667.5","1","0","2","",""
"null","","html-keyboard-response","110","488810","0.0-110.0","3ND9UOO81LOHJD7IGFJMU7Q3450WLK","A1BJFYHXK6YDX1","33K3E8REWWHZ7MUV5T1222MGO9NX8Q","","","<img src=""img/flower5.png"" style=""width:200px;border:14px solid red;"">","null","","","","","",""
"664.8000000119209","","image-keyboard-response","111","489476","0.0-111.0","3ND9UOO81LOHJD7IGFJMU7Q3450WLK","A1BJFYHXK6YDX1","33K3E8REWWHZ7MUV5T1222MGO9NX8Q","","","img/flower4.png","75","665.5999999642372","2","1","1","",""
"null","","html-keyboard-response","112","489779","0.0-112.0","3ND9UOO81LOHJD7IGFJMU7Q3450WLK","A1BJFYHXK6YDX1","33K3E8REWWHZ7MUV5T1222MGO9NX8Q","","","<img src=""img/flower4.png"" style=""width:200px; border:14px solid green;"">","null","","","","","",""
"812.5999999642372","","image-keyboard-response","113","490592","0.0-113.0","3ND9UOO81LOHJD7IGFJMU7Q3450WLK","A1BJFYHXK6YDX1","33K3E8REWWHZ7MUV5T1222MGO9NX8Q","","","img/flower6.png","76","813.6999999880791","3","1","3","",""
"null","","html-keyboard-response","114","490903","0.0-114.0","3ND9UOO81LOHJD7IGFJMU7Q3450WLK","A1BJFYHXK6YDX1","33K3E8REWWHZ7MUV5T1222MGO9NX8Q","","","<img src=""img/flower6.png"" style=""width:200px; border:14px solid green;"">","null","","","","","",""
"1111.3999999761581","","image-keyboard-response","115","492016","0.0-115.0","3ND9UOO81LOHJD7IGFJMU7Q3450WLK","A1BJFYHXK6YDX1","33K3E8REWWHZ7MUV5T1222MGO9NX8Q","","","img/flower4.png","74","1112.300000011921","1","1","1","",""
"null","","html-keyboard-response","116","492324","0.0-116.0","3ND9UOO81LOHJD7IGFJMU7Q3450WLK","A1BJFYHXK6YDX1","33K3E8REWWHZ7MUV5T1222MGO9NX8Q","","","<img src=""img/flower4.png"" style=""width:200px; border:14px solid green;"">","null","","","","","",""
"2201.099999964237","","image-keyboard-response","117","494527","0.0-117.0","3ND9UOO81LOHJD7IGFJMU7Q3450WLK","A1BJFYHXK6YDX1","33K3E8REWWHZ7MUV5T1222MGO9NX8Q","","","img/flower4.png","74","2202.099999964237","1","1","1","",""
"null","","html-keyboard-response","118","494839","0.0-118.0","3ND9UOO81LOHJD7IGFJMU7Q3450WLK","A1BJFYHXK6YDX1","33K3E8REWWHZ7MUV5T1222MGO9NX8Q","","","<img src=""img/flower4.png"" style=""width:200px; border:14px solid green;"">","null","","","","","",""
"795.2999999523163","","image-keyboard-response","119","495636","0.0-119.0","3ND9UOO81LOHJD7IGFJMU7Q3450WLK","A1BJFYHXK6YDX1","33K3E8REWWHZ7MUV5T1222MGO9NX8Q","","","img/flower6.png","76","796.4000000357628","3","1","3","",""
"null","","html-keyboard-response","120","495951","0.0-120.0","3ND9UOO81LOHJD7IGFJMU7Q3450WLK","A1BJFYHXK6YDX1","33K3E8REWWHZ7MUV5T1222MGO9NX8Q","","","<img src=""img/flower6.png"" style=""width:200px; border:14px solid green;"">","null","","","","","",""
"518.0999999642372","","image-keyboard-response","121","496470","0.0-121.0","3ND9UOO81LOHJD7IGFJMU7Q3450WLK","A1BJFYHXK6YDX1","33K3E8REWWHZ7MUV5T1222MGO9NX8Q","","","img/flower6.png","76","519.2000000476837","3","1","3","",""
"null","","html-keyboard-response","122","496781","0.0-122.0","3ND9UOO81LOHJD7IGFJMU7Q3450WLK","A1BJFYHXK6YDX1","33K3E8REWWHZ7MUV5T1222MGO9NX8Q","","","<img src=""img/flower6.png"" style=""width:200px; border:14px solid green;"">","null","","","","","",""
"1250.300000011921","","image-keyboard-response","123","498033","0.0-123.0","3ND9UOO81LOHJD7IGFJMU7Q3450WLK","A1BJFYHXK6YDX1","33K3E8REWWHZ7MUV5T1222MGO9NX8Q","","","img/flower5.png","75","1251.3999999761581","2","1","2","",""
"null","","html-keyboard-response","124","498341","0.0-124.0","3ND9UOO81LOHJD7IGFJMU7Q3450WLK","A1BJFYHXK6YDX1","33K3E8REWWHZ7MUV5T1222MGO9NX8Q","","","<img src=""img/flower5.png"" style=""width:200px; border:14px solid green;"">","null","","","","","",""
"2660.100000023842","","instructions","125","501002","0.0-125.0","3ND9UOO81LOHJD7IGFJMU7Q3450WLK","A1BJFYHXK6YDX1","33K3E8REWWHZ7MUV5T1222MGO9NX8Q","","[{""page_index"":0,""viewing_time"":2659.800000011921}]","","","","","","","",""
"1120.199999988079","","image-keyboard-response","126","502123","0.0-126.0","3ND9UOO81LOHJD7IGFJMU7Q3450WLK","A1BJFYHXK6YDX1","33K3E8REWWHZ7MUV5T1222MGO9NX8Q","","","img/flower6.png","76","1121.2999999523163","3","0","2","0.7,0.2,0,0,0.7,0.2,0.2,0,0.7",""
"null","","html-keyboard-response","127","502434","0.0-127.0","3ND9UOO81LOHJD7IGFJMU7Q3450WLK","A1BJFYHXK6YDX1","33K3E8REWWHZ7MUV5T1222MGO9NX8Q","","","<img src=""img/flower6.png"" style=""width:200px;border:14px solid red;"">","null","","","","","",""
"1732.6000000238419","","image-keyboard-response","128","504168","0.0-128.0","3ND9UOO81LOHJD7IGFJMU7Q3450WLK","A1BJFYHXK6YDX1","33K3E8REWWHZ7MUV5T1222MGO9NX8Q","","","img/flower2.png","75","1733.5","2","0","1","0.7,0.2,0,0,0.7,0.2,0.2,0,0.7",""
"null","","html-keyboard-response","129","504479","0.0-129.0","3ND9UOO81LOHJD7IGFJMU7Q3450WLK","A1BJFYHXK6YDX1","33K3E8REWWHZ7MUV5T1222MGO9NX8Q","","","<img src=""img/flower2.png"" style=""width:200px;border:14px solid red;"">","null","","","","","",""
"748.6000000238419","","image-keyboard-response","130","505228","0.0-130.0","3ND9UOO81LOHJD7IGFJMU7Q3450WLK","A1BJFYHXK6YDX1","33K3E8REWWHZ7MUV5T1222MGO9NX8Q","","","img/flower6.png","76","749.5999999642372","3","0","2","0.7,0.2,0,0,0.7,0.2,0.2,0,0.7",""
"null","","html-keyboard-response","131","505533","0.0-131.0","3ND9UOO81LOHJD7IGFJMU7Q3450WLK","A1BJFYHXK6YDX1","33K3E8REWWHZ7MUV5T1222MGO9NX8Q","","","<img src=""img/flower6.png"" style=""width:200px;border:14px solid red;"">","null","","","","","",""
"698.5","","image-keyboard-response","132","506232","0.0-132.0","3ND9UOO81LOHJD7IGFJMU7Q3450WLK","A1BJFYHXK6YDX1","33K3E8REWWHZ7MUV5T1222MGO9NX8Q","","","img/flower6.png","74","699.5","1","0","2","0.7,0.2,0,0,0.7,0.2,0.2,0,0.7",""
"null","","html-keyboard-response","133","506538","0.0-133.0","3ND9UOO81LOHJD7IGFJMU7Q3450WLK","A1BJFYHXK6YDX1","33K3E8REWWHZ7MUV5T1222MGO9NX8Q","","","<img src=""img/flower6.png"" style=""width:200px;border:14px solid red;"">","null","","","","","",""
"806.3000000119209","","image-keyboard-response","134","507345","0.0-134.0","3ND9UOO81LOHJD7IGFJMU7Q3450WLK","A1BJFYHXK6YDX1","33K3E8REWWHZ7MUV5T1222MGO9NX8Q","","","img/flower5.png","74","807.1999999880791","1","0","3","0.7,0.2,0,0,0.7,0.2,0.2,0,0.7",""
"null","","html-keyboard-response","135","507648","0.0-135.0","3ND9UOO81LOHJD7IGFJMU7Q3450WLK","A1BJFYHXK6YDX1","33K3E8REWWHZ7MUV5T1222MGO9NX8Q","","","<img src=""img/flower5.png"" style=""width:200px;border:14px solid red;"">","null","","","","","",""
"726","","image-keyboard-response","136","508375","0.0-136.0","3ND9UOO81LOHJD7IGFJMU7Q3450WLK","A1BJFYHXK6YDX1","33K3E8REWWHZ7MUV5T1222MGO9NX8Q","","","img/flower2.png","75","726.8999999761581","2","0","1","0.7,0.2,0,0,0.7,0.2,0.2,0,0.7",""
"null","","html-keyboard-response","137","508688","0.0-137.0","3ND9UOO81LOHJD7IGFJMU7Q3450WLK","A1BJFYHXK6YDX1","33K3E8REWWHZ7MUV5T1222MGO9NX8Q","","","<img src=""img/flower2.png"" style=""width:200px;border:14px solid red;"">","null","","","","","",""
"1037","","image-keyboard-response","138","509727","0.0-138.0","3ND9UOO81LOHJD7IGFJMU7Q3450WLK","A1BJFYHXK6YDX1","33K3E8REWWHZ7MUV5T1222MGO9NX8Q","","","img/flower2.png","75","1037.9000000357628","2","0","1","0.7,0.2,0,0,0.7,0.2,0.2,0,0.7",""
"null","","html-keyboard-response","139","510043","0.0-139.0","3ND9UOO81LOHJD7IGFJMU7Q3450WLK","A1BJFYHXK6YDX1","33K3E8REWWHZ7MUV5T1222MGO9NX8Q","","","<img src=""img/flower2.png"" style=""width:200px;border:14px solid red;"">","null","","","","","",""
"521.6999999880791","","image-keyboard-response","140","510566","0.0-140.0","3ND9UOO81LOHJD7IGFJMU7Q3450WLK","A1BJFYHXK6YDX1","33K3E8REWWHZ7MUV5T1222MGO9NX8Q","","","img/flower2.png","76","522.8000000119209","3","0","1","0.7,0.2,0,0,0.7,0.2,0.2,0,0.7",""
"null","","html-keyboard-response","141","510874","0.0-141.0","3ND9UOO81LOHJD7IGFJMU7Q3450WLK","A1BJFYHXK6YDX1","33K3E8REWWHZ7MUV5T1222MGO9NX8Q","","","<img src=""img/flower2.png"" style=""width:200px;border:14px solid red;"">","null","","","","","",""
"740.3000000119209","","image-keyboard-response","142","511615","0.0-142.0","3ND9UOO81LOHJD7IGFJMU7Q3450WLK","A1BJFYHXK6YDX1","33K3E8REWWHZ7MUV5T1222MGO9NX8Q","","","img/flower2.png","76","741.1999999880791","3","0","1","0.7,0.2,0,0,0.7,0.2,0.2,0,0.7",""
"null","","html-keyboard-response","143","511925","0.0-143.0","3ND9UOO81LOHJD7IGFJMU7Q3450WLK","A1BJFYHXK6YDX1","33K3E8REWWHZ7MUV5T1222MGO9NX8Q","","","<img src=""img/flower2.png"" style=""width:200px;border:14px solid red;"">","null","","","","","",""
"716.0999999642372","","image-keyboard-response","144","512642","0.0-144.0","3ND9UOO81LOHJD7IGFJMU7Q3450WLK","A1BJFYHXK6YDX1","33K3E8REWWHZ7MUV5T1222MGO9NX8Q","","","img/flower6.png","76","717.1000000238419","3","0","2","0.7,0.2,0,0,0.7,0.2,0.2,0,0.7",""
"null","","html-keyboard-response","145","512951","0.0-145.0","3ND9UOO81LOHJD7IGFJMU7Q3450WLK","A1BJFYHXK6YDX1","33K3E8REWWHZ7MUV5T1222MGO9NX8Q","","","<img src=""img/flower6.png"" style=""width:200px;border:14px solid red;"">","null","","","","","",""
"566.6999999880791","","image-keyboard-response","146","513519","0.0-146.0","3ND9UOO81LOHJD7IGFJMU7Q3450WLK","A1BJFYHXK6YDX1","33K3E8REWWHZ7MUV5T1222MGO9NX8Q","","","img/flower5.png","74","567.6000000238419","1","1","3","0.7,0.2,0,0,0.7,0.2,0.2,0,0.7",""
"null","","html-keyboard-response","147","513824","0.0-147.0","3ND9UOO81LOHJD7IGFJMU7Q3450WLK","A1BJFYHXK6YDX1","33K3E8REWWHZ7MUV5T1222MGO9NX8Q","","","<img src=""img/flower5.png"" style=""width:200px; border:14px solid green;"">","null","","","","","",""
"636.5999999642372","","image-keyboard-response","148","514462","0.0-148.0","3ND9UOO81LOHJD7IGFJMU7Q3450WLK","A1BJFYHXK6YDX1","33K3E8REWWHZ7MUV5T1222MGO9NX8Q","","","img/flower5.png","74","637.6999999880791","1","0","3","0.7,0.2,0,0,0.7,0.2,0.2,0,0.7",""
"null","","html-keyboard-response","149","514768","0.0-149.0","3ND9UOO81LOHJD7IGFJMU7Q3450WLK","A1BJFYHXK6YDX1","33K3E8REWWHZ7MUV5T1222MGO9NX8Q","","","<img src=""img/flower5.png"" style=""width:200px;border:14px solid red;"">","null","","","","","",""
"1030.3999999761581","","image-keyboard-response","150","515799","0.0-150.0","3ND9UOO81LOHJD7IGFJMU7Q3450WLK","A1BJFYHXK6YDX1","33K3E8REWWHZ7MUV5T1222MGO9NX8Q","","","img/flower5.png","74","1031.5","1","1","3","0.7,0.2,0,0,0.7,0.2,0.2,0,0.7",""
"null","","html-keyboard-response","151","516103","0.0-151.0","3ND9UOO81LOHJD7IGFJMU7Q3450WLK","A1BJFYHXK6YDX1","33K3E8REWWHZ7MUV5T1222MGO9NX8Q","","","<img src=""img/flower5.png"" style=""width:200px; border:14px solid green;"">","null","","","","","",""
"517.3000000119209","","image-keyboard-response","152","516622","0.0-152.0","3ND9UOO81LOHJD7IGFJMU7Q3450WLK","A1BJFYHXK6YDX1","33K3E8REWWHZ7MUV5T1222MGO9NX8Q","","","img/flower5.png","75","518.3000000119209","2","0","3","0.7,0.2,0,0,0.7,0.2,0.2,0,0.7",""
"null","","html-keyboard-response","153","516932","0.0-153.0","3ND9UOO81LOHJD7IGFJMU7Q3450WLK","A1BJFYHXK6YDX1","33K3E8REWWHZ7MUV5T1222MGO9NX8Q","","","<img src=""img/flower5.png"" style=""width:200px;border:14px solid red;"">","null","","","","","",""
"221.19999998807907","","image-keyboard-response","154","517155","0.0-154.0","3ND9UOO81LOHJD7IGFJMU7Q3450WLK","A1BJFYHXK6YDX1","33K3E8REWWHZ7MUV5T1222MGO9NX8Q","","","img/flower6.png","76","222.30000001192093","3","0","2","0.7,0.2,0,0,0.7,0.2,0.2,0,0.7",""
"null","","html-keyboard-response","155","517464","0.0-155.0","3ND9UOO81LOHJD7IGFJMU7Q3450WLK","A1BJFYHXK6YDX1","33K3E8REWWHZ7MUV5T1222MGO9NX8Q","","","<img src=""img/flower6.png"" style=""width:200px;border:14px solid red;"">","null","","","","","",""
"792.5999999642372","","image-keyboard-response","156","518257","0.0-156.0","3ND9UOO81LOHJD7IGFJMU7Q3450WLK","A1BJFYHXK6YDX1","33K3E8REWWHZ7MUV5T1222MGO9NX8Q","","","img/flower6.png","76","793.5","3","0","2","0.7,0.2,0,0,0.7,0.2,0.2,0,0.7",""
"null","","html-keyboard-response","157","518565","0.0-157.0","3ND9UOO81LOHJD7IGFJMU7Q3450WLK","A1BJFYHXK6YDX1","33K3E8REWWHZ7MUV5T1222MGO9NX8Q","","","<img src=""img/flower6.png"" style=""width:200px;border:14px solid red;"">","null","","","","","",""
"1171.3999999761581","","image-keyboard-response","158","519738","0.0-158.0","3ND9UOO81LOHJD7IGFJMU7Q3450WLK","A1BJFYHXK6YDX1","33K3E8REWWHZ7MUV5T1222MGO9NX8Q","","","img/flower5.png","74","1172.4000000357628","1","1","3","0.7,0.2,0,0,0.7,0.2,0.2,0,0.7",""
"null","","html-keyboard-response","159","520047","0.0-159.0","3ND9UOO81LOHJD7IGFJMU7Q3450WLK","A1BJFYHXK6YDX1","33K3E8REWWHZ7MUV5T1222MGO9NX8Q","","","<img src=""img/flower5.png"" style=""width:200px; border:14px solid green;"">","null","","","","","",""
"674","","image-keyboard-response","160","520723","0.0-160.0","3ND9UOO81LOHJD7IGFJMU7Q3450WLK","A1BJFYHXK6YDX1","33K3E8REWWHZ7MUV5T1222MGO9NX8Q","","","img/flower5.png","74","675.1999999880791","1","0","3","0.7,0.2,0,0,0.7,0.2,0.2,0,0.7",""
"null","","html-keyboard-response","161","521025","0.0-161.0","3ND9UOO81LOHJD7IGFJMU7Q3450WLK","A1BJFYHXK6YDX1","33K3E8REWWHZ7MUV5T1222MGO9NX8Q","","","<img src=""img/flower5.png"" style=""width:200px;border:14px solid red;"">","null","","","","","",""
"634.6999999880791","","image-keyboard-response","162","521661","0.0-162.0","3ND9UOO81LOHJD7IGFJMU7Q3450WLK","A1BJFYHXK6YDX1","33K3E8REWWHZ7MUV5T1222MGO9NX8Q","","","img/flower6.png","76","635.9000000357628","3","0","2","0.7,0.2,0,0,0.7,0.2,0.2,0,0.7",""
"null","","html-keyboard-response","163","521967","0.0-163.0","3ND9UOO81LOHJD7IGFJMU7Q3450WLK","A1BJFYHXK6YDX1","33K3E8REWWHZ7MUV5T1222MGO9NX8Q","","","<img src=""img/flower6.png"" style=""width:200px;border:14px solid red;"">","null","","","","","",""
"788.1999999880791","","image-keyboard-response","164","522757","0.0-164.0","3ND9UOO81LOHJD7IGFJMU7Q3450WLK","A1BJFYHXK6YDX1","33K3E8REWWHZ7MUV5T1222MGO9NX8Q","","","img/flower2.png","75","789.2000000476837","2","0","1","0.7,0.2,0,0,0.7,0.2,0.2,0,0.7",""
"null","","html-keyboard-response","165","523062","0.0-165.0","3ND9UOO81LOHJD7IGFJMU7Q3450WLK","A1BJFYHXK6YDX1","33K3E8REWWHZ7MUV5T1222MGO9NX8Q","","","<img src=""img/flower2.png"" style=""width:200px;border:14px solid red;"">","null","","","","","",""
"685.3999999761581","","image-keyboard-response","166","523749","0.0-166.0","3ND9UOO81LOHJD7IGFJMU7Q3450WLK","A1BJFYHXK6YDX1","33K3E8REWWHZ7MUV5T1222MGO9NX8Q","","","img/flower6.png","76","686.6000000238419","3","1","2","0.7,0.2,0,0,0.7,0.2,0.2,0,0.7",""
"null","","html-keyboard-response","167","524057","0.0-167.0","3ND9UOO81LOHJD7IGFJMU7Q3450WLK","A1BJFYHXK6YDX1","33K3E8REWWHZ7MUV5T1222MGO9NX8Q","","","<img src=""img/flower6.png"" style=""width:200px; border:14px solid green;"">","null","","","","","",""
"1034.800000011921","","image-keyboard-response","168","525093","0.0-168.0","3ND9UOO81LOHJD7IGFJMU7Q3450WLK","A1BJFYHXK6YDX1","33K3E8REWWHZ7MUV5T1222MGO9NX8Q","","","img/flower2.png","75","1035.699999988079","2","0","1","0.7,0.2,0,0,0.7,0.2,0.2,0,0.7",""
"null","","html-keyboard-response","169","525409","0.0-169.0","3ND9UOO81LOHJD7IGFJMU7Q3450WLK","A1BJFYHXK6YDX1","33K3E8REWWHZ7MUV5T1222MGO9NX8Q","","","<img src=""img/flower2.png"" style=""width:200px;border:14px solid red;"">","null","","","","","",""
"640.1000000238419","","image-keyboard-response","170","526050","0.0-170.0","3ND9UOO81LOHJD7IGFJMU7Q3450WLK","A1BJFYHXK6YDX1","33K3E8REWWHZ7MUV5T1222MGO9NX8Q","","","img/flower6.png","76","641","3","0","2","0.7,0.2,0,0,0.7,0.2,0.2,0,0.7",""
"null","","html-keyboard-response","171","526354","0.0-171.0","3ND9UOO81LOHJD7IGFJMU7Q3450WLK","A1BJFYHXK6YDX1","33K3E8REWWHZ7MUV5T1222MGO9NX8Q","","","<img src=""img/flower6.png"" style=""width:200px;border:14px solid red;"">","null","","","","","",""
"943.6999999880791","","image-keyboard-response","172","527299","0.0-172.0","3ND9UOO81LOHJD7IGFJMU7Q3450WLK","A1BJFYHXK6YDX1","33K3E8REWWHZ7MUV5T1222MGO9NX8Q","","","img/flower2.png","75","944.9000000357628","2","0","1","0.7,0.2,0,0,0.7,0.2,0.2,0,0.7",""
"null","","html-keyboard-response","173","527619","0.0-173.0","3ND9UOO81LOHJD7IGFJMU7Q3450WLK","A1BJFYHXK6YDX1","33K3E8REWWHZ7MUV5T1222MGO9NX8Q","","","<img src=""img/flower2.png"" style=""width:200px;border:14px solid red;"">","null","","","","","",""
"711","","image-keyboard-response","174","528331","0.0-174.0","3ND9UOO81LOHJD7IGFJMU7Q3450WLK","A1BJFYHXK6YDX1","33K3E8REWWHZ7MUV5T1222MGO9NX8Q","","","img/flower6.png","76","712","3","0","2","0.7,0.2,0,0,0.7,0.2,0.2,0,0.7",""
"null","","html-keyboard-response","175","528639","0.0-175.0","3ND9UOO81LOHJD7IGFJMU7Q3450WLK","A1BJFYHXK6YDX1","33K3E8REWWHZ7MUV5T1222MGO9NX8Q","","","<img src=""img/flower6.png"" style=""width:200px;border:14px solid red;"">","null","","","","","",""
"520.6999999880791","","image-keyboard-response","176","529161","0.0-176.0","3ND9UOO81LOHJD7IGFJMU7Q3450WLK","A1BJFYHXK6YDX1","33K3E8REWWHZ7MUV5T1222MGO9NX8Q","","","img/flower6.png","76","521.6000000238419","3","0","2","0.7,0.2,0,0,0.7,0.2,0.2,0,0.7",""
"null","","html-keyboard-response","177","529463","0.0-177.0","3ND9UOO81LOHJD7IGFJMU7Q3450WLK","A1BJFYHXK6YDX1","33K3E8REWWHZ7MUV5T1222MGO9NX8Q","","","<img src=""img/flower6.png"" style=""width:200px;border:14px solid red;"">","null","","","","","",""
"626.6999999880791","","image-keyboard-response","178","530092","0.0-178.0","3ND9UOO81LOHJD7IGFJMU7Q3450WLK","A1BJFYHXK6YDX1","33K3E8REWWHZ7MUV5T1222MGO9NX8Q","","","img/flower6.png","76","627.8999999761581","3","0","2","0.7,0.2,0,0,0.7,0.2,0.2,0,0.7",""
"null","","html-keyboard-response","179","530398","0.0-179.0","3ND9UOO81LOHJD7IGFJMU7Q3450WLK","A1BJFYHXK6YDX1","33K3E8REWWHZ7MUV5T1222MGO9NX8Q","","","<img src=""img/flower6.png"" style=""width:200px;border:14px solid red;"">","null","","","","","",""
"745.5999999642372","","image-keyboard-response","180","531145","0.0-180.0","3ND9UOO81LOHJD7IGFJMU7Q3450WLK","A1BJFYHXK6YDX1","33K3E8REWWHZ7MUV5T1222MGO9NX8Q","","","img/flower5.png","74","746.3999999761581","1","0","3","0.7,0.2,0,0,0.7,0.2,0.2,0,0.7",""
"null","","html-keyboard-response","181","531448","0.0-181.0","3ND9UOO81LOHJD7IGFJMU7Q3450WLK","A1BJFYHXK6YDX1","33K3E8REWWHZ7MUV5T1222MGO9NX8Q","","","<img src=""img/flower5.png"" style=""width:200px;border:14px solid red;"">","null","","","","","",""
"869.2999999523163","","image-keyboard-response","182","532318","0.0-182.0","3ND9UOO81LOHJD7IGFJMU7Q3450WLK","A1BJFYHXK6YDX1","33K3E8REWWHZ7MUV5T1222MGO9NX8Q","","","img/flower5.png","74","870.3999999761581","1","0","3","0.7,0.2,0,0,0.7,0.2,0.2,0,0.7",""
"null","","html-keyboard-response","183","532625","0.0-183.0","3ND9UOO81LOHJD7IGFJMU7Q3450WLK","A1BJFYHXK6YDX1","33K3E8REWWHZ7MUV5T1222MGO9NX8Q","","","<img src=""img/flower5.png"" style=""width:200px;border:14px solid red;"">","null","","","","","",""
"598.1000000238419","","image-keyboard-response","184","533224","0.0-184.0","3ND9UOO81LOHJD7IGFJMU7Q3450WLK","A1BJFYHXK6YDX1","33K3E8REWWHZ7MUV5T1222MGO9NX8Q","","","img/flower6.png","76","599.0999999642372","3","0","2","0.7,0.2,0,0,0.7,0.2,0.2,0,0.7",""
"null","","html-keyboard-response","185","533530","0.0-185.0","3ND9UOO81LOHJD7IGFJMU7Q3450WLK","A1BJFYHXK6YDX1","33K3E8REWWHZ7MUV5T1222MGO9NX8Q","","","<img src=""img/flower6.png"" style=""width:200px;border:14px solid red;"">","null","","","","","",""
"499.89999997615814","","image-keyboard-response","186","534031","0.0-186.0","3ND9UOO81LOHJD7IGFJMU7Q3450WLK","A1BJFYHXK6YDX1","33K3E8REWWHZ7MUV5T1222MGO9NX8Q","","","img/flower6.png","76","501","3","0","2","0.7,0.2,0,0,0.7,0.2,0.2,0,0.7",""
"null","","html-keyboard-response","187","534338","0.0-187.0","3ND9UOO81LOHJD7IGFJMU7Q3450WLK","A1BJFYHXK6YDX1","33K3E8REWWHZ7MUV5T1222MGO9NX8Q","","","<img src=""img/flower6.png"" style=""width:200px;border:14px solid red;"">","null","","","","","",""
"817.6000000238419","","image-keyboard-response","188","535157","0.0-188.0","3ND9UOO81LOHJD7IGFJMU7Q3450WLK","A1BJFYHXK6YDX1","33K3E8REWWHZ7MUV5T1222MGO9NX8Q","","","img/flower6.png","76","818.3999999761581","3","0","2","0.7,0.2,0,0,0.7,0.2,0.2,0,0.7",""
"null","","html-keyboard-response","189","535464","0.0-189.0","3ND9UOO81LOHJD7IGFJMU7Q3450WLK","A1BJFYHXK6YDX1","33K3E8REWWHZ7MUV5T1222MGO9NX8Q","","","<img src=""img/flower6.png"" style=""width:200px;border:14px solid red;"">","null","","","","","",""
"914.5","","image-keyboard-response","190","536379","0.0-190.0","3ND9UOO81LOHJD7IGFJMU7Q3450WLK","A1BJFYHXK6YDX1","33K3E8REWWHZ7MUV5T1222MGO9NX8Q","","","img/flower5.png","75","915.6000000238419","2","0","3","0.7,0.2,0,0,0.7,0.2,0.2,0,0.7",""
"null","","html-keyboard-response","191","536682","0.0-191.0","3ND9UOO81LOHJD7IGFJMU7Q3450WLK","A1BJFYHXK6YDX1","33K3E8REWWHZ7MUV5T1222MGO9NX8Q","","","<img src=""img/flower5.png"" style=""width:200px;border:14px solid red;"">","null","","","","","",""
"9864.5","","image-keyboard-response","192","546548","0.0-192.0","3ND9UOO81LOHJD7IGFJMU7Q3450WLK","A1BJFYHXK6YDX1","33K3E8REWWHZ7MUV5T1222MGO9NX8Q","","","img/flower2.png","75","9865.5","2","0","1","0.7,0.2,0,0,0.7,0.2,0.2,0,0.7",""
"null","","html-keyboard-response","193","546856","0.0-193.0","3ND9UOO81LOHJD7IGFJMU7Q3450WLK","A1BJFYHXK6YDX1","33K3E8REWWHZ7MUV5T1222MGO9NX8Q","","","<img src=""img/flower2.png"" style=""width:200px;border:14px solid red;"">","null","","","","","",""
"821.1999999880791","","image-keyboard-response","194","547693","0.0-194.0","3ND9UOO81LOHJD7IGFJMU7Q3450WLK","A1BJFYHXK6YDX1","33K3E8REWWHZ7MUV5T1222MGO9NX8Q","","","img/flower5.png","75","822.1000000238419","2","0","3","0.7,0.2,0,0,0.7,0.2,0.2,0,0.7",""
"null","","html-keyboard-response","195","548011","0.0-195.0","3ND9UOO81LOHJD7IGFJMU7Q3450WLK","A1BJFYHXK6YDX1","33K3E8REWWHZ7MUV5T1222MGO9NX8Q","","","<img src=""img/flower5.png"" style=""width:200px;border:14px solid red;"">","null","","","","","",""
"643.6999999880791","","image-keyboard-response","196","548656","0.0-196.0","3ND9UOO81LOHJD7IGFJMU7Q3450WLK","A1BJFYHXK6YDX1","33K3E8REWWHZ7MUV5T1222MGO9NX8Q","","","img/flower6.png","76","645.0999999642372","3","0","2","0.7,0.2,0,0,0.7,0.2,0.2,0,0.7",""
"null","","html-keyboard-response","197","548966","0.0-197.0","3ND9UOO81LOHJD7IGFJMU7Q3450WLK","A1BJFYHXK6YDX1","33K3E8REWWHZ7MUV5T1222MGO9NX8Q","","","<img src=""img/flower6.png"" style=""width:200px;border:14px solid red;"">","null","","","","","",""
"376.39999997615814","","image-keyboard-response","198","549344","0.0-198.0","3ND9UOO81LOHJD7IGFJMU7Q3450WLK","A1BJFYHXK6YDX1","33K3E8REWWHZ7MUV5T1222MGO9NX8Q","","","img/flower6.png","76","377.4000000357628","3","0","2","0.7,0.2,0,0,0.7,0.2,0.2,0,0.7",""
"null","","html-keyboard-response","199","549649","0.0-199.0","3ND9UOO81LOHJD7IGFJMU7Q3450WLK","A1BJFYHXK6YDX1","33K3E8REWWHZ7MUV5T1222MGO9NX8Q","","","<img src=""img/flower6.png"" style=""width:200px;border:14px solid red;"">","null","","","","","",""
"315","","image-keyboard-response","200","549966","0.0-200.0","3ND9UOO81LOHJD7IGFJMU7Q3450WLK","A1BJFYHXK6YDX1","33K3E8REWWHZ7MUV5T1222MGO9NX8Q","","","img/flower6.png","76","316.19999998807907","3","0","2","0.7,0.2,0,0,0.7,0.2,0.2,0,0.7",""
"null","","html-keyboard-response","201","550282","0.0-201.0","3ND9UOO81LOHJD7IGFJMU7Q3450WLK","A1BJFYHXK6YDX1","33K3E8REWWHZ7MUV5T1222MGO9NX8Q","","","<img src=""img/flower6.png"" style=""width:200px;border:14px solid red;"">","null","","","","","",""
"558.4000000357628","","image-keyboard-response","202","550842","0.0-202.0","3ND9UOO81LOHJD7IGFJMU7Q3450WLK","A1BJFYHXK6YDX1","33K3E8REWWHZ7MUV5T1222MGO9NX8Q","","","img/flower5.png","74","559.6000000238419","1","0","3","0.7,0.2,0,0,0.7,0.2,0.2,0,0.7",""
"null","","html-keyboard-response","203","551152","0.0-203.0","3ND9UOO81LOHJD7IGFJMU7Q3450WLK","A1BJFYHXK6YDX1","33K3E8REWWHZ7MUV5T1222MGO9NX8Q","","","<img src=""img/flower5.png"" style=""width:200px;border:14px solid red;"">","null","","","","","",""
"593","","image-keyboard-response","204","551746","0.0-204.0","3ND9UOO81LOHJD7IGFJMU7Q3450WLK","A1BJFYHXK6YDX1","33K3E8REWWHZ7MUV5T1222MGO9NX8Q","","","img/flower2.png","75","593.8999999761581","2","0","1","0.7,0.2,0,0,0.7,0.2,0.2,0,0.7",""
"null","","html-keyboard-response","205","552060","0.0-205.0","3ND9UOO81LOHJD7IGFJMU7Q3450WLK","A1BJFYHXK6YDX1","33K3E8REWWHZ7MUV5T1222MGO9NX8Q","","","<img src=""img/flower2.png"" style=""width:200px;border:14px solid red;"">","null","","","","","",""
"417.5","","image-keyboard-response","206","552479","0.0-206.0","3ND9UOO81LOHJD7IGFJMU7Q3450WLK","A1BJFYHXK6YDX1","33K3E8REWWHZ7MUV5T1222MGO9NX8Q","","","img/flower2.png","75","418.60000002384186","2","1","1","0.7,0.2,0,0,0.7,0.2,0.2,0,0.7",""
"null","","html-keyboard-response","207","552784","0.0-207.0","3ND9UOO81LOHJD7IGFJMU7Q3450WLK","A1BJFYHXK6YDX1","33K3E8REWWHZ7MUV5T1222MGO9NX8Q","","","<img src=""img/flower2.png"" style=""width:200px; border:14px solid green;"">","null","","","","","",""
"1818.1000000238419","","image-keyboard-response","208","554603","0.0-208.0","3ND9UOO81LOHJD7IGFJMU7Q3450WLK","A1BJFYHXK6YDX1","33K3E8REWWHZ7MUV5T1222MGO9NX8Q","","","img/flower2.png","75","1819.199999988079","2","0","1","0.7,0.2,0,0,0.7,0.2,0.2,0,0.7",""
"null","","html-keyboard-response","209","554920","0.0-209.0","3ND9UOO81LOHJD7IGFJMU7Q3450WLK","A1BJFYHXK6YDX1","33K3E8REWWHZ7MUV5T1222MGO9NX8Q","","","<img src=""img/flower2.png"" style=""width:200px;border:14px solid red;"">","null","","","","","",""
"538.2000000476837","","image-keyboard-response","210","555459","0.0-210.0","3ND9UOO81LOHJD7IGFJMU7Q3450WLK","A1BJFYHXK6YDX1","33K3E8REWWHZ7MUV5T1222MGO9NX8Q","","","img/flower5.png","74","539.3000000119209","1","0","3","0.7,0.2,0,0,0.7,0.2,0.2,0,0.7",""
"null","","html-keyboard-response","211","555772","0.0-211.0","3ND9UOO81LOHJD7IGFJMU7Q3450WLK","A1BJFYHXK6YDX1","33K3E8REWWHZ7MUV5T1222MGO9NX8Q","","","<img src=""img/flower5.png"" style=""width:200px;border:14px solid red;"">","null","","","","","",""
"574.1000000238419","","image-keyboard-response","212","556347","0.0-212.0","3ND9UOO81LOHJD7IGFJMU7Q3450WLK","A1BJFYHXK6YDX1","33K3E8REWWHZ7MUV5T1222MGO9NX8Q","","","img/flower6.png","76","575.2999999523163","3","0","2","0.7,0.2,0,0,0.7,0.2,0.2,0,0.7",""
"null","","html-keyboard-response","213","556652","0.0-213.0","3ND9UOO81LOHJD7IGFJMU7Q3450WLK","A1BJFYHXK6YDX1","33K3E8REWWHZ7MUV5T1222MGO9NX8Q","","","<img src=""img/flower6.png"" style=""width:200px;border:14px solid red;"">","null","","","","","",""
"648.3999999761581","","image-keyboard-response","214","557302","0.0-214.0","3ND9UOO81LOHJD7IGFJMU7Q3450WLK","A1BJFYHXK6YDX1","33K3E8REWWHZ7MUV5T1222MGO9NX8Q","","","img/flower2.png","75","649.2999999523163","2","1","1","0.7,0.2,0,0,0.7,0.2,0.2,0,0.7",""
"null","","html-keyboard-response","215","557604","0.0-215.0","3ND9UOO81LOHJD7IGFJMU7Q3450WLK","A1BJFYHXK6YDX1","33K3E8REWWHZ7MUV5T1222MGO9NX8Q","","","<img src=""img/flower2.png"" style=""width:200px; border:14px solid green;"">","null","","","","","",""
"710.8999999761581","","image-keyboard-response","216","558316","0.0-216.0","3ND9UOO81LOHJD7IGFJMU7Q3450WLK","A1BJFYHXK6YDX1","33K3E8REWWHZ7MUV5T1222MGO9NX8Q","","","img/flower6.png","76","712.1999999880791","3","0","2","0.7,0.2,0,0,0.7,0.2,0.2,0,0.7",""
"null","","html-keyboard-response","217","558621","0.0-217.0","3ND9UOO81LOHJD7IGFJMU7Q3450WLK","A1BJFYHXK6YDX1","33K3E8REWWHZ7MUV5T1222MGO9NX8Q","","","<img src=""img/flower6.png"" style=""width:200px;border:14px solid red;"">","null","","","","","",""
"729","","image-keyboard-response","218","559352","0.0-218.0","3ND9UOO81LOHJD7IGFJMU7Q3450WLK","A1BJFYHXK6YDX1","33K3E8REWWHZ7MUV5T1222MGO9NX8Q","","","img/flower5.png","76","730.1999999880791","3","1","3","0.7,0.2,0,0,0.7,0.2,0.2,0,0.7",""
"null","","html-keyboard-response","219","559666","0.0-219.0","3ND9UOO81LOHJD7IGFJMU7Q3450WLK","A1BJFYHXK6YDX1","33K3E8REWWHZ7MUV5T1222MGO9NX8Q","","","<img src=""img/flower5.png"" style=""width:200px; border:14px solid green;"">","null","","","","","",""
"740","","image-keyboard-response","220","560407","0.0-220.0","3ND9UOO81LOHJD7IGFJMU7Q3450WLK","A1BJFYHXK6YDX1","33K3E8REWWHZ7MUV5T1222MGO9NX8Q","","","img/flower2.png","74","741.1999999880791","1","1","1","0.7,0.2,0,0,0.7,0.2,0.2,0,0.7",""
"null","","html-keyboard-response","221","560724","0.0-221.0","3ND9UOO81LOHJD7IGFJMU7Q3450WLK","A1BJFYHXK6YDX1","33K3E8REWWHZ7MUV5T1222MGO9NX8Q","","","<img src=""img/flower2.png"" style=""width:200px; border:14px solid green;"">","null","","","","","",""
"646.0999999642372","","image-keyboard-response","222","561371","0.0-222.0","3ND9UOO81LOHJD7IGFJMU7Q3450WLK","A1BJFYHXK6YDX1","33K3E8REWWHZ7MUV5T1222MGO9NX8Q","","","img/flower5.png","74","647.2000000476837","1","0","3","0.7,0.2,0,0,0.7,0.2,0.2,0,0.7",""
"null","","html-keyboard-response","223","561690","0.0-223.0","3ND9UOO81LOHJD7IGFJMU7Q3450WLK","A1BJFYHXK6YDX1","33K3E8REWWHZ7MUV5T1222MGO9NX8Q","","","<img src=""img/flower5.png"" style=""width:200px;border:14px solid red;"">","null","","","","","",""
"879.8000000119209","","image-keyboard-response","224","562571","0.0-224.0","3ND9UOO81LOHJD7IGFJMU7Q3450WLK","A1BJFYHXK6YDX1","33K3E8REWWHZ7MUV5T1222MGO9NX8Q","","","img/flower6.png","76","880.7999999523163","3","0","2","0.7,0.2,0,0,0.7,0.2,0.2,0,0.7",""
"null","","html-keyboard-response","225","562876","0.0-225.0","3ND9UOO81LOHJD7IGFJMU7Q3450WLK","A1BJFYHXK6YDX1","33K3E8REWWHZ7MUV5T1222MGO9NX8Q","","","<img src=""img/flower6.png"" style=""width:200px;border:14px solid red;"">","null","","","","","",""
"67.5","","image-keyboard-response","226","562945","0.0-226.0","3ND9UOO81LOHJD7IGFJMU7Q3450WLK","A1BJFYHXK6YDX1","33K3E8REWWHZ7MUV5T1222MGO9NX8Q","","","img/flower2.png","75","68.59999996423721","2","0","1","0.7,0.2,0,0,0.7,0.2,0.2,0,0.7",""
"null","","html-keyboard-response","227","563250","0.0-227.0","3ND9UOO81LOHJD7IGFJMU7Q3450WLK","A1BJFYHXK6YDX1","33K3E8REWWHZ7MUV5T1222MGO9NX8Q","","","<img src=""img/flower2.png"" style=""width:200px;border:14px solid red;"">","null","","","","","",""
"793.8999999761581","","image-keyboard-response","228","564045","0.0-228.0","3ND9UOO81LOHJD7IGFJMU7Q3450WLK","A1BJFYHXK6YDX1","33K3E8REWWHZ7MUV5T1222MGO9NX8Q","","","img/flower5.png","74","794.8999999761581","1","0","3","0.7,0.2,0,0,0.7,0.2,0.2,0,0.7",""
"null","","html-keyboard-response","229","564360","0.0-229.0","3ND9UOO81LOHJD7IGFJMU7Q3450WLK","A1BJFYHXK6YDX1","33K3E8REWWHZ7MUV5T1222MGO9NX8Q","","","<img src=""img/flower5.png"" style=""width:200px;border:14px solid red;"">","null","","","","","",""
"679.1000000238419","","image-keyboard-response","230","565041","0.0-230.0","3ND9UOO81LOHJD7IGFJMU7Q3450WLK","A1BJFYHXK6YDX1","33K3E8REWWHZ7MUV5T1222MGO9NX8Q","","","img/flower2.png","74","680.3000000119209","1","0","1","0.7,0.2,0,0,0.7,0.2,0.2,0,0.7",""
"null","","html-keyboard-response","231","565354","0.0-231.0","3ND9UOO81LOHJD7IGFJMU7Q3450WLK","A1BJFYHXK6YDX1","33K3E8REWWHZ7MUV5T1222MGO9NX8Q","","","<img src=""img/flower2.png"" style=""width:200px;border:14px solid red;"">","null","","","","","",""
"640.0999999642372","","image-keyboard-response","232","565996","0.0-232.0","3ND9UOO81LOHJD7IGFJMU7Q3450WLK","A1BJFYHXK6YDX1","33K3E8REWWHZ7MUV5T1222MGO9NX8Q","","","img/flower2.png","76","641.4000000357628","3","0","1","0.7,0.2,0,0,0.7,0.2,0.2,0,0.7",""
"null","","html-keyboard-response","233","566308","0.0-233.0","3ND9UOO81LOHJD7IGFJMU7Q3450WLK","A1BJFYHXK6YDX1","33K3E8REWWHZ7MUV5T1222MGO9NX8Q","","","<img src=""img/flower2.png"" style=""width:200px;border:14px solid red;"">","null","","","","","",""
"666.6000000238419","","image-keyboard-response","234","566976","0.0-234.0","3ND9UOO81LOHJD7IGFJMU7Q3450WLK","A1BJFYHXK6YDX1","33K3E8REWWHZ7MUV5T1222MGO9NX8Q","","","img/flower5.png","75","667.6999999880791","2","0","3","0.7,0.2,0,0,0.7,0.2,0.2,0,0.7",""
"null","","html-keyboard-response","235","567292","0.0-235.0","3ND9UOO81LOHJD7IGFJMU7Q3450WLK","A1BJFYHXK6YDX1","33K3E8REWWHZ7MUV5T1222MGO9NX8Q","","","<img src=""img/flower5.png"" style=""width:200px;border:14px solid red;"">","null","","","","","",""
"749.3000000119209","","image-keyboard-response","236","568043","0.0-236.0","3ND9UOO81LOHJD7IGFJMU7Q3450WLK","A1BJFYHXK6YDX1","33K3E8REWWHZ7MUV5T1222MGO9NX8Q","","","img/flower6.png","75","750.3000000119209","2","1","2","0.7,0.2,0,0,0.7,0.2,0.2,0,0.7",""
"null","","html-keyboard-response","237","568354","0.0-237.0","3ND9UOO81LOHJD7IGFJMU7Q3450WLK","A1BJFYHXK6YDX1","33K3E8REWWHZ7MUV5T1222MGO9NX8Q","","","<img src=""img/flower6.png"" style=""width:200px; border:14px solid green;"">","null","","","","","",""
"887.5999999642372","","image-keyboard-response","238","569243","0.0-238.0","3ND9UOO81LOHJD7IGFJMU7Q3450WLK","A1BJFYHXK6YDX1","33K3E8REWWHZ7MUV5T1222MGO9NX8Q","","","img/flower2.png","74","888.6999999880791","1","0","1","0.7,0.2,0,0,0.7,0.2,0.2,0,0.7",""
"null","","html-keyboard-response","239","569552","0.0-239.0","3ND9UOO81LOHJD7IGFJMU7Q3450WLK","A1BJFYHXK6YDX1","33K3E8REWWHZ7MUV5T1222MGO9NX8Q","","","<img src=""img/flower2.png"" style=""width:200px;border:14px solid red;"">","null","","","","","",""
"759.0999999642372","","image-keyboard-response","240","570312","0.0-240.0","3ND9UOO81LOHJD7IGFJMU7Q3450WLK","A1BJFYHXK6YDX1","33K3E8REWWHZ7MUV5T1222MGO9NX8Q","","","img/flower5.png","74","760.1999999880791","1","0","3","0.7,0.2,0,0,0.7,0.2,0.2,0,0.7",""
"null","","html-keyboard-response","241","570629","0.0-241.0","3ND9UOO81LOHJD7IGFJMU7Q3450WLK","A1BJFYHXK6YDX1","33K3E8REWWHZ7MUV5T1222MGO9NX8Q","","","<img src=""img/flower5.png"" style=""width:200px;border:14px solid red;"">","null","","","","","",""
"572.3000000119209","","image-keyboard-response","242","571202","0.0-242.0","3ND9UOO81LOHJD7IGFJMU7Q3450WLK","A1BJFYHXK6YDX1","33K3E8REWWHZ7MUV5T1222MGO9NX8Q","","","img/flower5.png","75","573.3000000119209","2","0","3","0.7,0.2,0,0,0.7,0.2,0.2,0,0.7",""
"null","","html-keyboard-response","243","571514","0.0-243.0","3ND9UOO81LOHJD7IGFJMU7Q3450WLK","A1BJFYHXK6YDX1","33K3E8REWWHZ7MUV5T1222MGO9NX8Q","","","<img src=""img/flower5.png"" style=""width:200px;border:14px solid red;"">","null","","","","","",""
"765","","image-keyboard-response","244","572280","0.0-244.0","3ND9UOO81LOHJD7IGFJMU7Q3450WLK","A1BJFYHXK6YDX1","33K3E8REWWHZ7MUV5T1222MGO9NX8Q","","","img/flower2.png","75","766","2","0","1","0.7,0.2,0,0,0.7,0.2,0.2,0,0.7",""
"null","","html-keyboard-response","245","572596","0.0-245.0","3ND9UOO81LOHJD7IGFJMU7Q3450WLK","A1BJFYHXK6YDX1","33K3E8REWWHZ7MUV5T1222MGO9NX8Q","","","<img src=""img/flower2.png"" style=""width:200px;border:14px solid red;"">","null","","","","","",""
"874.6000000238419","","image-keyboard-response","246","573472","0.0-246.0","3ND9UOO81LOHJD7IGFJMU7Q3450WLK","A1BJFYHXK6YDX1","33K3E8REWWHZ7MUV5T1222MGO9NX8Q","","","img/flower2.png","76","875.5999999642372","3","0","1","0.7,0.2,0,0,0.7,0.2,0.2,0,0.7",""
"null","","html-keyboard-response","247","573790","0.0-247.0","3ND9UOO81LOHJD7IGFJMU7Q3450WLK","A1BJFYHXK6YDX1","33K3E8REWWHZ7MUV5T1222MGO9NX8Q","","","<img src=""img/flower2.png"" style=""width:200px;border:14px solid red;"">","null","","","","","",""
"540.1999999880791","","image-keyboard-response","248","574332","0.0-248.0","3ND9UOO81LOHJD7IGFJMU7Q3450WLK","A1BJFYHXK6YDX1","33K3E8REWWHZ7MUV5T1222MGO9NX8Q","","","img/flower5.png","76","541.4000000357628","3","1","3","0.7,0.2,0,0,0.7,0.2,0.2,0,0.7",""
"null","","html-keyboard-response","249","574641","0.0-249.0","3ND9UOO81LOHJD7IGFJMU7Q3450WLK","A1BJFYHXK6YDX1","33K3E8REWWHZ7MUV5T1222MGO9NX8Q","","","<img src=""img/flower5.png"" style=""width:200px; border:14px solid green;"">","null","","","","","",""
"782.6999999880791","","image-keyboard-response","250","575425","0.0-250.0","3ND9UOO81LOHJD7IGFJMU7Q3450WLK","A1BJFYHXK6YDX1","33K3E8REWWHZ7MUV5T1222MGO9NX8Q","","","img/flower2.png","74","783.7999999523163","1","0","1","0.7,0.2,0,0,0.7,0.2,0.2,0,0.7",""
"null","","html-keyboard-response","251","575730","0.0-251.0","3ND9UOO81LOHJD7IGFJMU7Q3450WLK","A1BJFYHXK6YDX1","33K3E8REWWHZ7MUV5T1222MGO9NX8Q","","","<img src=""img/flower2.png"" style=""width:200px;border:14px solid red;"">","null","","","","","",""
"436.89999997615814","","image-keyboard-response","252","576169","0.0-252.0","3ND9UOO81LOHJD7IGFJMU7Q3450WLK","A1BJFYHXK6YDX1","33K3E8REWWHZ7MUV5T1222MGO9NX8Q","","","img/flower2.png","76","438.2999999523163","3","0","1","0.7,0.2,0,0,0.7,0.2,0.2,0,0.7",""
"null","","html-keyboard-response","253","576482","0.0-253.0","3ND9UOO81LOHJD7IGFJMU7Q3450WLK","A1BJFYHXK6YDX1","33K3E8REWWHZ7MUV5T1222MGO9NX8Q","","","<img src=""img/flower2.png"" style=""width:200px;border:14px solid red;"">","null","","","","","",""
"696.0999999642372","","image-keyboard-response","254","577180","0.0-254.0","3ND9UOO81LOHJD7IGFJMU7Q3450WLK","A1BJFYHXK6YDX1","33K3E8REWWHZ7MUV5T1222MGO9NX8Q","","","img/flower6.png","76","697.1000000238419","3","0","2","0.7,0.2,0,0,0.7,0.2,0.2,0,0.7",""
"null","","html-keyboard-response","255","577495","0.0-255.0","3ND9UOO81LOHJD7IGFJMU7Q3450WLK","A1BJFYHXK6YDX1","33K3E8REWWHZ7MUV5T1222MGO9NX8Q","","","<img src=""img/flower6.png"" style=""width:200px;border:14px solid red;"">","null","","","","","",""
"746.9000000357628","","image-keyboard-response","256","578243","0.0-256.0","3ND9UOO81LOHJD7IGFJMU7Q3450WLK","A1BJFYHXK6YDX1","33K3E8REWWHZ7MUV5T1222MGO9NX8Q","","","img/flower5.png","75","747.8000000119209","2","0","3","0.7,0.2,0,0,0.7,0.2,0.2,0,0.7",""
"null","","html-keyboard-response","257","578556","0.0-257.0","3ND9UOO81LOHJD7IGFJMU7Q3450WLK","A1BJFYHXK6YDX1","33K3E8REWWHZ7MUV5T1222MGO9NX8Q","","","<img src=""img/flower5.png"" style=""width:200px;border:14px solid red;"">","null","","","","","",""
"1103.199999988079","","image-keyboard-response","258","579660","0.0-258.0","3ND9UOO81LOHJD7IGFJMU7Q3450WLK","A1BJFYHXK6YDX1","33K3E8REWWHZ7MUV5T1222MGO9NX8Q","","","img/flower6.png","75","1104.199999988079","2","0","2","0.7,0.2,0,0,0.7,0.2,0.2,0,0.7",""
"null","","html-keyboard-response","259","579963","0.0-259.0","3ND9UOO81LOHJD7IGFJMU7Q3450WLK","A1BJFYHXK6YDX1","33K3E8REWWHZ7MUV5T1222MGO9NX8Q","","","<img src=""img/flower6.png"" style=""width:200px;border:14px solid red;"">","null","","","","","",""
"670.6999999880791","","image-keyboard-response","260","580635","0.0-260.0","3ND9UOO81LOHJD7IGFJMU7Q3450WLK","A1BJFYHXK6YDX1","33K3E8REWWHZ7MUV5T1222MGO9NX8Q","","","img/flower5.png","74","671.8000000119209","1","0","3","0.7,0.2,0,0,0.7,0.2,0.2,0,0.7",""
"null","","html-keyboard-response","261","580951","0.0-261.0","3ND9UOO81LOHJD7IGFJMU7Q3450WLK","A1BJFYHXK6YDX1","33K3E8REWWHZ7MUV5T1222MGO9NX8Q","","","<img src=""img/flower5.png"" style=""width:200px;border:14px solid red;"">","null","","","","","",""
"556.3000000119209","","image-keyboard-response","262","581508","0.0-262.0","3ND9UOO81LOHJD7IGFJMU7Q3450WLK","A1BJFYHXK6YDX1","33K3E8REWWHZ7MUV5T1222MGO9NX8Q","","","img/flower2.png","74","557.3000000119209","1","1","1","0.7,0.2,0,0,0.7,0.2,0.2,0,0.7",""
"null","","html-keyboard-response","263","581826","0.0-263.0","3ND9UOO81LOHJD7IGFJMU7Q3450WLK","A1BJFYHXK6YDX1","33K3E8REWWHZ7MUV5T1222MGO9NX8Q","","","<img src=""img/flower2.png"" style=""width:200px; border:14px solid green;"">","null","","","","","",""
"1067.0999999642372","","image-keyboard-response","264","582894","0.0-264.0","3ND9UOO81LOHJD7IGFJMU7Q3450WLK","A1BJFYHXK6YDX1","33K3E8REWWHZ7MUV5T1222MGO9NX8Q","","","img/flower6.png","75","1068.0999999642372","2","0","2","0.7,0.2,0,0,0.7,0.2,0.2,0,0.7",""
"null","","html-keyboard-response","265","583199","0.0-265.0","3ND9UOO81LOHJD7IGFJMU7Q3450WLK","A1BJFYHXK6YDX1","33K3E8REWWHZ7MUV5T1222MGO9NX8Q","","","<img src=""img/flower6.png"" style=""width:200px;border:14px solid red;"">","null","","","","","",""
"655.1000000238419","","image-keyboard-response","266","583855","0.0-266.0","3ND9UOO81LOHJD7IGFJMU7Q3450WLK","A1BJFYHXK6YDX1","33K3E8REWWHZ7MUV5T1222MGO9NX8Q","","","img/flower5.png","74","656.0999999642372","1","0","3","0.7,0.2,0,0,0.7,0.2,0.2,0,0.7",""
"null","","html-keyboard-response","267","584161","0.0-267.0","3ND9UOO81LOHJD7IGFJMU7Q3450WLK","A1BJFYHXK6YDX1","33K3E8REWWHZ7MUV5T1222MGO9NX8Q","","","<img src=""img/flower5.png"" style=""width:200px;border:14px solid red;"">","null","","","","","",""
"811.8999999761581","","image-keyboard-response","268","584974","0.0-268.0","3ND9UOO81LOHJD7IGFJMU7Q3450WLK","A1BJFYHXK6YDX1","33K3E8REWWHZ7MUV5T1222MGO9NX8Q","","","img/flower2.png","76","812.6999999880791","3","0","1","0.7,0.2,0,0,0.7,0.2,0.2,0,0.7",""
"null","","html-keyboard-response","269","585283","0.0-269.0","3ND9UOO81LOHJD7IGFJMU7Q3450WLK","A1BJFYHXK6YDX1","33K3E8REWWHZ7MUV5T1222MGO9NX8Q","","","<img src=""img/flower2.png"" style=""width:200px;border:14px solid red;"">","null","","","","","",""
"573.3000000119209","","image-keyboard-response","270","585857","0.0-270.0","3ND9UOO81LOHJD7IGFJMU7Q3450WLK","A1BJFYHXK6YDX1","33K3E8REWWHZ7MUV5T1222MGO9NX8Q","","","img/flower6.png","75","574.1000000238419","2","0","2","0.7,0.2,0,0,0.7,0.2,0.2,0,0.7",""
"null","","html-keyboard-response","271","586174","0.0-271.0","3ND9UOO81LOHJD7IGFJMU7Q3450WLK","A1BJFYHXK6YDX1","33K3E8REWWHZ7MUV5T1222MGO9NX8Q","","","<img src=""img/flower6.png"" style=""width:200px;border:14px solid red;"">","null","","","","","",""
"805.4000000357628","","image-keyboard-response","272","586980","0.0-272.0","3ND9UOO81LOHJD7IGFJMU7Q3450WLK","A1BJFYHXK6YDX1","33K3E8REWWHZ7MUV5T1222MGO9NX8Q","","","img/flower2.png","74","806.6999999880791","1","0","1","0.7,0.2,0,0,0.7,0.2,0.2,0,0.7",""
"null","","html-keyboard-response","273","587292","0.0-273.0","3ND9UOO81LOHJD7IGFJMU7Q3450WLK","A1BJFYHXK6YDX1","33K3E8REWWHZ7MUV5T1222MGO9NX8Q","","","<img src=""img/flower2.png"" style=""width:200px;border:14px solid red;"">","null","","","","","",""
"439.7000000476837","","image-keyboard-response","274","587733","0.0-274.0","3ND9UOO81LOHJD7IGFJMU7Q3450WLK","A1BJFYHXK6YDX1","33K3E8REWWHZ7MUV5T1222MGO9NX8Q","","","img/flower5.png","75","440.69999998807907","2","0","3","0.7,0.2,0,0,0.7,0.2,0.2,0,0.7",""
"null","","html-keyboard-response","275","588045","0.0-275.0","3ND9UOO81LOHJD7IGFJMU7Q3450WLK","A1BJFYHXK6YDX1","33K3E8REWWHZ7MUV5T1222MGO9NX8Q","","","<img src=""img/flower5.png"" style=""width:200px;border:14px solid red;"">","null","","","","","",""
"1560.300000011921","","image-keyboard-response","276","589606","0.0-276.0","3ND9UOO81LOHJD7IGFJMU7Q3450WLK","A1BJFYHXK6YDX1","33K3E8REWWHZ7MUV5T1222MGO9NX8Q","","","img/flower2.png","75","1561.3999999761581","2","0","1","0.7,0.2,0,0,0.7,0.2,0.2,0,0.7",""
"null","","html-keyboard-response","277","589917","0.0-277.0","3ND9UOO81LOHJD7IGFJMU7Q3450WLK","A1BJFYHXK6YDX1","33K3E8REWWHZ7MUV5T1222MGO9NX8Q","","","<img src=""img/flower2.png"" style=""width:200px;border:14px solid red;"">","null","","","","","",""
"992.1999999880791","","image-keyboard-response","278","590911","0.0-278.0","3ND9UOO81LOHJD7IGFJMU7Q3450WLK","A1BJFYHXK6YDX1","33K3E8REWWHZ7MUV5T1222MGO9NX8Q","","","img/flower6.png","74","993.3000000119209","1","0","2","0.7,0.2,0,0,0.7,0.2,0.2,0,0.7",""
"null","","html-keyboard-response","279","591228","0.0-279.0","3ND9UOO81LOHJD7IGFJMU7Q3450WLK","A1BJFYHXK6YDX1","33K3E8REWWHZ7MUV5T1222MGO9NX8Q","","","<img src=""img/flower6.png"" style=""width:200px;border:14px solid red;"">","null","","","","","",""
"605.8999999761581","","image-keyboard-response","280","591835","0.0-280.0","3ND9UOO81LOHJD7IGFJMU7Q3450WLK","A1BJFYHXK6YDX1","33K3E8REWWHZ7MUV5T1222MGO9NX8Q","","","img/flower5.png","75","607","2","0","3","0.7,0.2,0,0,0.7,0.2,0.2,0,0.7",""
"null","","html-keyboard-response","281","592142","0.0-281.0","3ND9UOO81LOHJD7IGFJMU7Q3450WLK","A1BJFYHXK6YDX1","33K3E8REWWHZ7MUV5T1222MGO9NX8Q","","","<img src=""img/flower5.png"" style=""width:200px;border:14px solid red;"">","null","","","","","",""
"547.1999999880791","","image-keyboard-response","282","592690","0.0-282.0","3ND9UOO81LOHJD7IGFJMU7Q3450WLK","A1BJFYHXK6YDX1","33K3E8REWWHZ7MUV5T1222MGO9NX8Q","","","img/flower5.png","76","548.2000000476837","3","1","3","0.7,0.2,0,0,0.7,0.2,0.2,0,0.7",""
"null","","html-keyboard-response","283","592994","0.0-283.0","3ND9UOO81LOHJD7IGFJMU7Q3450WLK","A1BJFYHXK6YDX1","33K3E8REWWHZ7MUV5T1222MGO9NX8Q","","","<img src=""img/flower5.png"" style=""width:200px; border:14px solid green;"">","null","","","","","",""
"928.8999999761581","","image-keyboard-response","284","593924","0.0-284.0","3ND9UOO81LOHJD7IGFJMU7Q3450WLK","A1BJFYHXK6YDX1","33K3E8REWWHZ7MUV5T1222MGO9NX8Q","","","img/flower6.png","74","930","1","0","2","0.7,0.2,0,0,0.7,0.2,0.2,0,0.7",""
"null","","html-keyboard-response","285","594235","0.0-285.0","3ND9UOO81LOHJD7IGFJMU7Q3450WLK","A1BJFYHXK6YDX1","33K3E8REWWHZ7MUV5T1222MGO9NX8Q","","","<img src=""img/flower6.png"" style=""width:200px;border:14px solid red;"">","null","","","","","",""
"752.4000000357628","","image-keyboard-response","286","594989","0.0-286.0","3ND9UOO81LOHJD7IGFJMU7Q3450WLK","A1BJFYHXK6YDX1","33K3E8REWWHZ7MUV5T1222MGO9NX8Q","","","img/flower5.png","76","753.7000000476837","3","1","3","0.7,0.2,0,0,0.7,0.2,0.2,0,0.7",""
"null","","html-keyboard-response","287","595292","0.0-287.0","3ND9UOO81LOHJD7IGFJMU7Q3450WLK","A1BJFYHXK6YDX1","33K3E8REWWHZ7MUV5T1222MGO9NX8Q","","","<img src=""img/flower5.png"" style=""width:200px; border:14px solid green;"">","null","","","","","",""
"507.7000000476837","","image-keyboard-response","288","595801","0.0-288.0","3ND9UOO81LOHJD7IGFJMU7Q3450WLK","A1BJFYHXK6YDX1","33K3E8REWWHZ7MUV5T1222MGO9NX8Q","","","img/flower5.png","76","508.9000000357628","3","1","3","0.7,0.2,0,0,0.7,0.2,0.2,0,0.7",""
"null","","html-keyboard-response","289","596115","0.0-289.0","3ND9UOO81LOHJD7IGFJMU7Q3450WLK","A1BJFYHXK6YDX1","33K3E8REWWHZ7MUV5T1222MGO9NX8Q","","","<img src=""img/flower5.png"" style=""width:200px; border:14px solid green;"">","null","","","","","",""
"925","","image-keyboard-response","290","597041","0.0-290.0","3ND9UOO81LOHJD7IGFJMU7Q3450WLK","A1BJFYHXK6YDX1","33K3E8REWWHZ7MUV5T1222MGO9NX8Q","","","img/flower6.png","75","926.2000000476837","2","1","2","0.7,0.2,0,0,0.7,0.2,0.2,0,0.7",""
"null","","html-keyboard-response","291","597354","0.0-291.0","3ND9UOO81LOHJD7IGFJMU7Q3450WLK","A1BJFYHXK6YDX1","33K3E8REWWHZ7MUV5T1222MGO9NX8Q","","","<img src=""img/flower6.png"" style=""width:200px; border:14px solid green;"">","null","","","","","",""
"812","","image-keyboard-response","292","598167","0.0-292.0","3ND9UOO81LOHJD7IGFJMU7Q3450WLK","A1BJFYHXK6YDX1","33K3E8REWWHZ7MUV5T1222MGO9NX8Q","","","img/flower2.png","74","813","1","0","1","0.7,0.2,0,0,0.7,0.2,0.2,0,0.7",""
"null","","html-keyboard-response","293","598477","0.0-293.0","3ND9UOO81LOHJD7IGFJMU7Q3450WLK","A1BJFYHXK6YDX1","33K3E8REWWHZ7MUV5T1222MGO9NX8Q","","","<img src=""img/flower2.png"" style=""width:200px;border:14px solid red;"">","null","","","","","",""
"1011.6000000238419","","image-keyboard-response","294","599490","0.0-294.0","3ND9UOO81LOHJD7IGFJMU7Q3450WLK","A1BJFYHXK6YDX1","33K3E8REWWHZ7MUV5T1222MGO9NX8Q","","","img/flower5.png","74","1012.8000000119209","1","0","3","0.7,0.2,0,0,0.7,0.2,0.2,0,0.7",""
"null","","html-keyboard-response","295","599797","0.0-295.0","3ND9UOO81LOHJD7IGFJMU7Q3450WLK","A1BJFYHXK6YDX1","33K3E8REWWHZ7MUV5T1222MGO9NX8Q","","","<img src=""img/flower5.png"" style=""width:200px;border:14px solid red;"">","null","","","","","",""
"396.69999998807907","","image-keyboard-response","296","600195","0.0-296.0","3ND9UOO81LOHJD7IGFJMU7Q3450WLK","A1BJFYHXK6YDX1","33K3E8REWWHZ7MUV5T1222MGO9NX8Q","","","img/flower5.png","75","397.80000001192093","2","0","3","0.7,0.2,0,0,0.7,0.2,0.2,0,0.7",""
"null","","html-keyboard-response","297","600501","0.0-297.0","3ND9UOO81LOHJD7IGFJMU7Q3450WLK","A1BJFYHXK6YDX1","33K3E8REWWHZ7MUV5T1222MGO9NX8Q","","","<img src=""img/flower5.png"" style=""width:200px;border:14px solid red;"">","null","","","","","",""
"708.5","","image-keyboard-response","298","601210","0.0-298.0","3ND9UOO81LOHJD7IGFJMU7Q3450WLK","A1BJFYHXK6YDX1","33K3E8REWWHZ7MUV5T1222MGO9NX8Q","","","img/flower2.png","76","709.6999999880791","3","0","1","0.7,0.2,0,0,0.7,0.2,0.2,0,0.7",""
"null","","html-keyboard-response","299","601513","0.0-299.0","3ND9UOO81LOHJD7IGFJMU7Q3450WLK","A1BJFYHXK6YDX1","33K3E8REWWHZ7MUV5T1222MGO9NX8Q","","","<img src=""img/flower2.png"" style=""width:200px;border:14px solid red;"">","null","","","","","",""
"1431.9000000357628","","image-keyboard-response","300","602946","0.0-300.0","3ND9UOO81LOHJD7IGFJMU7Q3450WLK","A1BJFYHXK6YDX1","33K3E8REWWHZ7MUV5T1222MGO9NX8Q","","","img/flower2.png","74","1432.8999999761581","1","1","1","0.7,0.2,0,0,0.7,0.2,0.2,0,0.7",""
"null","","html-keyboard-response","301","603260","0.0-301.0","3ND9UOO81LOHJD7IGFJMU7Q3450WLK","A1BJFYHXK6YDX1","33K3E8REWWHZ7MUV5T1222MGO9NX8Q","","","<img src=""img/flower2.png"" style=""width:200px; border:14px solid green;"">","null","","","","","",""
"5602.899999976158","","image-keyboard-response","302","608857","0.0-302.0","3ND9UOO81LOHJD7IGFJMU7Q3450WLK","A1BJFYHXK6YDX1","33K3E8REWWHZ7MUV5T1222MGO9NX8Q","","","img/flower2.png","76","5604.100000023842","3","0","1","0.7,0.2,0,0,0.7,0.2,0.2,0,0.7",""
"null","","html-keyboard-response","303","609164","0.0-303.0","3ND9UOO81LOHJD7IGFJMU7Q3450WLK","A1BJFYHXK6YDX1","33K3E8REWWHZ7MUV5T1222MGO9NX8Q","","","<img src=""img/flower2.png"" style=""width:200px;border:14px solid red;"">","null","","","","","",""
"1804.300000011921","","image-keyboard-response","304","610969","0.0-304.0","3ND9UOO81LOHJD7IGFJMU7Q3450WLK","A1BJFYHXK6YDX1","33K3E8REWWHZ7MUV5T1222MGO9NX8Q","","","img/flower6.png","75","1805.199999988079","2","1","2","0.7,0.2,0,0,0.7,0.2,0.2,0,0.7",""
"null","","html-keyboard-response","305","611282","0.0-305.0","3ND9UOO81LOHJD7IGFJMU7Q3450WLK","A1BJFYHXK6YDX1","33K3E8REWWHZ7MUV5T1222MGO9NX8Q","","","<img src=""img/flower6.png"" style=""width:200px; border:14px solid green;"">","null","","","","","",""
"","","html-keyboard-response","306","615282","0.0-306.0","3ND9UOO81LOHJD7IGFJMU7Q3450WLK","A1BJFYHXK6YDX1","33K3E8REWWHZ7MUV5T1222MGO9NX8Q","","","","","","","","","",""
"2011.300000011921","","image-keyboard-response","307","617294","0.0-307.0","3ND9UOO81LOHJD7IGFJMU7Q3450WLK","A1BJFYHXK6YDX1","33K3E8REWWHZ7MUV5T1222MGO9NX8Q","","","img/flower1.png","75","2012.2000000476837","2","0","1","0.7,0.2,0,0.7,0,0.2,0.2,0,0.7",""
"null","","html-keyboard-response","308","617612","0.0-308.0","3ND9UOO81LOHJD7IGFJMU7Q3450WLK","A1BJFYHXK6YDX1","33K3E8REWWHZ7MUV5T1222MGO9NX8Q","","","<img src=""img/flower1.png"" style=""width:200px;border:14px solid red;"">","null","","","","","",""
"586.1000000238419","","image-keyboard-response","309","618200","0.0-309.0","3ND9UOO81LOHJD7IGFJMU7Q3450WLK","A1BJFYHXK6YDX1","33K3E8REWWHZ7MUV5T1222MGO9NX8Q","","","img/flower4.png","74","587.5","1","0","3","0.7,0.2,0,0.7,0,0.2,0.2,0,0.7",""
"null","","html-keyboard-response","310","618506","0.0-310.0","3ND9UOO81LOHJD7IGFJMU7Q3450WLK","A1BJFYHXK6YDX1","33K3E8REWWHZ7MUV5T1222MGO9NX8Q","","","<img src=""img/flower4.png"" style=""width:200px;border:14px solid red;"">","null","","","","","",""
"568.5999999642372","","image-keyboard-response","311","619076","0.0-311.0","3ND9UOO81LOHJD7IGFJMU7Q3450WLK","A1BJFYHXK6YDX1","33K3E8REWWHZ7MUV5T1222MGO9NX8Q","","","img/flower3.png","76","569.7999999523163","3","0","2","0.7,0.2,0,0.7,0,0.2,0.2,0,0.7",""
"null","","html-keyboard-response","312","619382","0.0-312.0","3ND9UOO81LOHJD7IGFJMU7Q3450WLK","A1BJFYHXK6YDX1","33K3E8REWWHZ7MUV5T1222MGO9NX8Q","","","<img src=""img/flower3.png"" style=""width:200px;border:14px solid red;"">","null","","","","","",""
"418.0999999642372","","image-keyboard-response","313","619801","0.0-313.0","3ND9UOO81LOHJD7IGFJMU7Q3450WLK","A1BJFYHXK6YDX1","33K3E8REWWHZ7MUV5T1222MGO9NX8Q","","","img/flower4.png","76","419.2999999523163","3","1","3","0.7,0.2,0,0.7,0,0.2,0.2,0,0.7",""
"null","","html-keyboard-response","314","620111","0.0-314.0","3ND9UOO81LOHJD7IGFJMU7Q3450WLK","A1BJFYHXK6YDX1","33K3E8REWWHZ7MUV5T1222MGO9NX8Q","","","<img src=""img/flower4.png"" style=""width:200px; border:14px solid green;"">","null","","","","","",""
"551.5999999642372","","image-keyboard-response","315","620665","0.0-315.0","3ND9UOO81LOHJD7IGFJMU7Q3450WLK","A1BJFYHXK6YDX1","33K3E8REWWHZ7MUV5T1222MGO9NX8Q","","","img/flower3.png","74","552.9000000357628","1","0","2","0.7,0.2,0,0.7,0,0.2,0.2,0,0.7",""
"null","","html-keyboard-response","316","620971","0.0-316.0","3ND9UOO81LOHJD7IGFJMU7Q3450WLK","A1BJFYHXK6YDX1","33K3E8REWWHZ7MUV5T1222MGO9NX8Q","","","<img src=""img/flower3.png"" style=""width:200px;border:14px solid red;"">","null","","","","","",""
"447.7000000476837","","image-keyboard-response","317","621420","0.0-317.0","3ND9UOO81LOHJD7IGFJMU7Q3450WLK","A1BJFYHXK6YDX1","33K3E8REWWHZ7MUV5T1222MGO9NX8Q","","","img/flower3.png","75","448.9000000357628","2","0","2","0.7,0.2,0,0.7,0,0.2,0.2,0,0.7",""
"null","","html-keyboard-response","318","621724","0.0-318.0","3ND9UOO81LOHJD7IGFJMU7Q3450WLK","A1BJFYHXK6YDX1","33K3E8REWWHZ7MUV5T1222MGO9NX8Q","","","<img src=""img/flower3.png"" style=""width:200px;border:14px solid red;"">","null","","","","","",""
"176.9000000357628","","image-keyboard-response","319","621903","0.0-319.0","3ND9UOO81LOHJD7IGFJMU7Q3450WLK","A1BJFYHXK6YDX1","33K3E8REWWHZ7MUV5T1222MGO9NX8Q","","","img/flower4.png","76","178.10000002384186","3","1","3","0.7,0.2,0,0.7,0,0.2,0.2,0,0.7",""
"null","","html-keyboard-response","320","622207","0.0-320.0","3ND9UOO81LOHJD7IGFJMU7Q3450WLK","A1BJFYHXK6YDX1","33K3E8REWWHZ7MUV5T1222MGO9NX8Q","","","<img src=""img/flower4.png"" style=""width:200px; border:14px solid green;"">","null","","","","","",""
"736.5","","image-keyboard-response","321","622945","0.0-321.0","3ND9UOO81LOHJD7IGFJMU7Q3450WLK","A1BJFYHXK6YDX1","33K3E8REWWHZ7MUV5T1222MGO9NX8Q","","","img/flower1.png","74","737.5","1","1","1","0.7,0.2,0,0.7,0,0.2,0.2,0,0.7",""
"null","","html-keyboard-response","322","623257","0.0-322.0","3ND9UOO81LOHJD7IGFJMU7Q3450WLK","A1BJFYHXK6YDX1","33K3E8REWWHZ7MUV5T1222MGO9NX8Q","","","<img src=""img/flower1.png"" style=""width:200px; border:14px solid green;"">","null","","","","","",""
"550.6000000238419","","image-keyboard-response","323","623809","0.0-323.0","3ND9UOO81LOHJD7IGFJMU7Q3450WLK","A1BJFYHXK6YDX1","33K3E8REWWHZ7MUV5T1222MGO9NX8Q","","","img/flower1.png","76","551.5","3","0","1","0.7,0.2,0,0.7,0,0.2,0.2,0,0.7",""
"null","","html-keyboard-response","324","624119","0.0-324.0","3ND9UOO81LOHJD7IGFJMU7Q3450WLK","A1BJFYHXK6YDX1","33K3E8REWWHZ7MUV5T1222MGO9NX8Q","","","<img src=""img/flower1.png"" style=""width:200px;border:14px solid red;"">","null","","","","","",""
"221.0999999642372","","image-keyboard-response","325","624341","0.0-325.0","3ND9UOO81LOHJD7IGFJMU7Q3450WLK","A1BJFYHXK6YDX1","33K3E8REWWHZ7MUV5T1222MGO9NX8Q","","","img/flower4.png","74","222.20000004768372","1","1","3","0.7,0.2,0,0.7,0,0.2,0.2,0,0.7",""
"null","","html-keyboard-response","326","624647","0.0-326.0","3ND9UOO81LOHJD7IGFJMU7Q3450WLK","A1BJFYHXK6YDX1","33K3E8REWWHZ7MUV5T1222MGO9NX8Q","","","<img src=""img/flower4.png"" style=""width:200px; border:14px solid green;"">","null","","","","","",""
"851.3999999761581","","image-keyboard-response","327","625500","0.0-327.0","3ND9UOO81LOHJD7IGFJMU7Q3450WLK","A1BJFYHXK6YDX1","33K3E8REWWHZ7MUV5T1222MGO9NX8Q","","","img/flower4.png","74","852.6999999880791","1","1","3","0.7,0.2,0,0.7,0,0.2,0.2,0,0.7",""
"null","","html-keyboard-response","328","625815","0.0-328.0","3ND9UOO81LOHJD7IGFJMU7Q3450WLK","A1BJFYHXK6YDX1","33K3E8REWWHZ7MUV5T1222MGO9NX8Q","","","<img src=""img/flower4.png"" style=""width:200px; border:14px solid green;"">","null","","","","","",""
"660.7999999523163","","image-keyboard-response","329","626477","0.0-329.0","3ND9UOO81LOHJD7IGFJMU7Q3450WLK","A1BJFYHXK6YDX1","33K3E8REWWHZ7MUV5T1222MGO9NX8Q","","","img/flower1.png","76","662","3","0","1","0.7,0.2,0,0.7,0,0.2,0.2,0,0.7",""
"null","","html-keyboard-response","330","626783","0.0-330.0","3ND9UOO81LOHJD7IGFJMU7Q3450WLK","A1BJFYHXK6YDX1","33K3E8REWWHZ7MUV5T1222MGO9NX8Q","","","<img src=""img/flower1.png"" style=""width:200px;border:14px solid red;"">","null","","","","","",""
"626.6000000238419","","image-keyboard-response","331","627411","0.0-331.0","3ND9UOO81LOHJD7IGFJMU7Q3450WLK","A1BJFYHXK6YDX1","33K3E8REWWHZ7MUV5T1222MGO9NX8Q","","","img/flower3.png","74","627.9000000357628","1","1","2","0.7,0.2,0,0.7,0,0.2,0.2,0,0.7",""
"null","","html-keyboard-response","332","627720","0.0-332.0","3ND9UOO81LOHJD7IGFJMU7Q3450WLK","A1BJFYHXK6YDX1","33K3E8REWWHZ7MUV5T1222MGO9NX8Q","","","<img src=""img/flower3.png"" style=""width:200px; border:14px solid green;"">","null","","","","","",""
"767.5","","image-keyboard-response","333","628489","0.0-333.0","3ND9UOO81LOHJD7IGFJMU7Q3450WLK","A1BJFYHXK6YDX1","33K3E8REWWHZ7MUV5T1222MGO9NX8Q","","","img/flower3.png","74","768.6000000238419","1","1","2","0.7,0.2,0,0.7,0,0.2,0.2,0,0.7",""
"null","","html-keyboard-response","334","628793","0.0-334.0","3ND9UOO81LOHJD7IGFJMU7Q3450WLK","A1BJFYHXK6YDX1","33K3E8REWWHZ7MUV5T1222MGO9NX8Q","","","<img src=""img/flower3.png"" style=""width:200px; border:14px solid green;"">","null","","","","","",""
"702.5999999642372","","image-keyboard-response","335","629498","0.0-335.0","3ND9UOO81LOHJD7IGFJMU7Q3450WLK","A1BJFYHXK6YDX1","33K3E8REWWHZ7MUV5T1222MGO9NX8Q","","","img/flower1.png","75","703.8999999761581","2","0","1","0.7,0.2,0,0.7,0,0.2,0.2,0,0.7",""
"null","","html-keyboard-response","336","629806","0.0-336.0","3ND9UOO81LOHJD7IGFJMU7Q3450WLK","A1BJFYHXK6YDX1","33K3E8REWWHZ7MUV5T1222MGO9NX8Q","","","<img src=""img/flower1.png"" style=""width:200px;border:14px solid red;"">","null","","","","","",""
"505.10000002384186","","image-keyboard-response","337","630313","0.0-337.0","3ND9UOO81LOHJD7IGFJMU7Q3450WLK","A1BJFYHXK6YDX1","33K3E8REWWHZ7MUV5T1222MGO9NX8Q","","","img/flower4.png","76","506.5","3","0","3","0.7,0.2,0,0.7,0,0.2,0.2,0,0.7",""
"null","","html-keyboard-response","338","630628","0.0-338.0","3ND9UOO81LOHJD7IGFJMU7Q3450WLK","A1BJFYHXK6YDX1","33K3E8REWWHZ7MUV5T1222MGO9NX8Q","","","<img src=""img/flower4.png"" style=""width:200px;border:14px solid red;"">","null","","","","","",""
"697.3000000119209","","image-keyboard-response","339","631327","0.0-339.0","3ND9UOO81LOHJD7IGFJMU7Q3450WLK","A1BJFYHXK6YDX1","33K3E8REWWHZ7MUV5T1222MGO9NX8Q","","","img/flower4.png","76","698.3000000119209","3","0","3","0.7,0.2,0,0.7,0,0.2,0.2,0,0.7",""
"null","","html-keyboard-response","340","631634","0.0-340.0","3ND9UOO81LOHJD7IGFJMU7Q3450WLK","A1BJFYHXK6YDX1","33K3E8REWWHZ7MUV5T1222MGO9NX8Q","","","<img src=""img/flower4.png"" style=""width:200px;border:14px solid red;"">","null","","","","","",""
"587.1000000238419","","image-keyboard-response","341","632222","0.0-341.0","3ND9UOO81LOHJD7IGFJMU7Q3450WLK","A1BJFYHXK6YDX1","33K3E8REWWHZ7MUV5T1222MGO9NX8Q","","","img/flower1.png","74","588.1000000238419","1","1","1","0.7,0.2,0,0.7,0,0.2,0.2,0,0.7",""
"null","","html-keyboard-response","342","632532","0.0-342.0","3ND9UOO81LOHJD7IGFJMU7Q3450WLK","A1BJFYHXK6YDX1","33K3E8REWWHZ7MUV5T1222MGO9NX8Q","","","<img src=""img/flower1.png"" style=""width:200px; border:14px solid green;"">","null","","","","","",""
"1115.2000000476837","","image-keyboard-response","343","633649","0.0-343.0","3ND9UOO81LOHJD7IGFJMU7Q3450WLK","A1BJFYHXK6YDX1","33K3E8REWWHZ7MUV5T1222MGO9NX8Q","","","img/flower4.png","75","1116.5","2","0","3","0.7,0.2,0,0.7,0,0.2,0.2,0,0.7",""
"null","","html-keyboard-response","344","633957","0.0-344.0","3ND9UOO81LOHJD7IGFJMU7Q3450WLK","A1BJFYHXK6YDX1","33K3E8REWWHZ7MUV5T1222MGO9NX8Q","","","<img src=""img/flower4.png"" style=""width:200px;border:14px solid red;"">","null","","","","","",""
"679.0999999642372","","image-keyboard-response","345","634638","0.0-345.0","3ND9UOO81LOHJD7IGFJMU7Q3450WLK","A1BJFYHXK6YDX1","33K3E8REWWHZ7MUV5T1222MGO9NX8Q","","","img/flower3.png","74","680.3999999761581","1","1","2","0.7,0.2,0,0.7,0,0.2,0.2,0,0.7",""
"null","","html-keyboard-response","346","634944","0.0-346.0","3ND9UOO81LOHJD7IGFJMU7Q3450WLK","A1BJFYHXK6YDX1","33K3E8REWWHZ7MUV5T1222MGO9NX8Q","","","<img src=""img/flower3.png"" style=""width:200px; border:14px solid green;"">","null","","","","","",""
"844.8000000119209","","image-keyboard-response","347","635791","0.0-347.0","3ND9UOO81LOHJD7IGFJMU7Q3450WLK","A1BJFYHXK6YDX1","33K3E8REWWHZ7MUV5T1222MGO9NX8Q","","","img/flower4.png","75","846","2","0","3","0.7,0.2,0,0.7,0,0.2,0.2,0,0.7",""
"null","","html-keyboard-response","348","636099","0.0-348.0","3ND9UOO81LOHJD7IGFJMU7Q3450WLK","A1BJFYHXK6YDX1","33K3E8REWWHZ7MUV5T1222MGO9NX8Q","","","<img src=""img/flower4.png"" style=""width:200px;border:14px solid red;"">","null","","","","","",""
"1860.5","","image-keyboard-response","349","637961","0.0-349.0","3ND9UOO81LOHJD7IGFJMU7Q3450WLK","A1BJFYHXK6YDX1","33K3E8REWWHZ7MUV5T1222MGO9NX8Q","","","img/flower4.png","74","1861.699999988079","1","0","3","0.7,0.2,0,0.7,0,0.2,0.2,0,0.7",""
"null","","html-keyboard-response","350","638268","0.0-350.0","3ND9UOO81LOHJD7IGFJMU7Q3450WLK","A1BJFYHXK6YDX1","33K3E8REWWHZ7MUV5T1222MGO9NX8Q","","","<img src=""img/flower4.png"" style=""width:200px;border:14px solid red;"">","null","","","","","",""
"438.5","","image-keyboard-response","351","638708","0.0-351.0","3ND9UOO81LOHJD7IGFJMU7Q3450WLK","A1BJFYHXK6YDX1","33K3E8REWWHZ7MUV5T1222MGO9NX8Q","","","img/flower4.png","75","439.5999999642372","2","0","3","0.7,0.2,0,0.7,0,0.2,0.2,0,0.7",""
"null","","html-keyboard-response","352","639012","0.0-352.0","3ND9UOO81LOHJD7IGFJMU7Q3450WLK","A1BJFYHXK6YDX1","33K3E8REWWHZ7MUV5T1222MGO9NX8Q","","","<img src=""img/flower4.png"" style=""width:200px;border:14px solid red;"">","null","","","","","",""
"867.4000000357628","","image-keyboard-response","353","639881","0.0-353.0","3ND9UOO81LOHJD7IGFJMU7Q3450WLK","A1BJFYHXK6YDX1","33K3E8REWWHZ7MUV5T1222MGO9NX8Q","","","img/flower3.png","76","868.5999999642372","3","0","2","0.7,0.2,0,0.7,0,0.2,0.2,0,0.7",""
"null","","html-keyboard-response","354","640185","0.0-354.0","3ND9UOO81LOHJD7IGFJMU7Q3450WLK","A1BJFYHXK6YDX1","33K3E8REWWHZ7MUV5T1222MGO9NX8Q","","","<img src=""img/flower3.png"" style=""width:200px;border:14px solid red;"">","null","","","","","",""
"709.8000000119209","","image-keyboard-response","355","640896","0.0-355.0","3ND9UOO81LOHJD7IGFJMU7Q3450WLK","A1BJFYHXK6YDX1","33K3E8REWWHZ7MUV5T1222MGO9NX8Q","","","img/flower3.png","76","710.8999999761581","3","0","2","0.7,0.2,0,0.7,0,0.2,0.2,0,0.7",""
"null","","html-keyboard-response","356","641204","0.0-356.0","3ND9UOO81LOHJD7IGFJMU7Q3450WLK","A1BJFYHXK6YDX1","33K3E8REWWHZ7MUV5T1222MGO9NX8Q","","","<img src=""img/flower3.png"" style=""width:200px;border:14px solid red;"">","null","","","","","",""
"499.4000000357628","","image-keyboard-response","357","641705","0.0-357.0","3ND9UOO81LOHJD7IGFJMU7Q3450WLK","A1BJFYHXK6YDX1","33K3E8REWWHZ7MUV5T1222MGO9NX8Q","","","img/flower3.png","75","500.60000002384186","2","0","2","0.7,0.2,0,0.7,0,0.2,0.2,0,0.7",""
"null","","html-keyboard-response","358","642021","0.0-358.0","3ND9UOO81LOHJD7IGFJMU7Q3450WLK","A1BJFYHXK6YDX1","33K3E8REWWHZ7MUV5T1222MGO9NX8Q","","","<img src=""img/flower3.png"" style=""width:200px;border:14px solid red;"">","null","","","","","",""
"1090.800000011921","","image-keyboard-response","359","643114","0.0-359.0","3ND9UOO81LOHJD7IGFJMU7Q3450WLK","A1BJFYHXK6YDX1","33K3E8REWWHZ7MUV5T1222MGO9NX8Q","","","img/flower4.png","74","1092","1","0","3","0.7,0.2,0,0.7,0,0.2,0.2,0,0.7",""
"null","","html-keyboard-response","360","643429","0.0-360.0","3ND9UOO81LOHJD7IGFJMU7Q3450WLK","A1BJFYHXK6YDX1","33K3E8REWWHZ7MUV5T1222MGO9NX8Q","","","<img src=""img/flower4.png"" style=""width:200px;border:14px solid red;"">","null","","","","","",""
"934.1999999880791","","image-keyboard-response","361","644365","0.0-361.0","3ND9UOO81LOHJD7IGFJMU7Q3450WLK","A1BJFYHXK6YDX1","33K3E8REWWHZ7MUV5T1222MGO9NX8Q","","","img/flower3.png","75","935.3999999761581","2","0","2","0.7,0.2,0,0.7,0,0.2,0.2,0,0.7",""
"null","","html-keyboard-response","362","644674","0.0-362.0","3ND9UOO81LOHJD7IGFJMU7Q3450WLK","A1BJFYHXK6YDX1","33K3E8REWWHZ7MUV5T1222MGO9NX8Q","","","<img src=""img/flower3.png"" style=""width:200px;border:14px solid red;"">","null","","","","","",""
"542.1000000238419","","image-keyboard-response","363","645217","0.0-363.0","3ND9UOO81LOHJD7IGFJMU7Q3450WLK","A1BJFYHXK6YDX1","33K3E8REWWHZ7MUV5T1222MGO9NX8Q","","","img/flower3.png","75","543.3000000119209","2","0","2","0.7,0.2,0,0.7,0,0.2,0.2,0,0.7",""
"null","","html-keyboard-response","364","645539","0.0-364.0","3ND9UOO81LOHJD7IGFJMU7Q3450WLK","A1BJFYHXK6YDX1","33K3E8REWWHZ7MUV5T1222MGO9NX8Q","","","<img src=""img/flower3.png"" style=""width:200px;border:14px solid red;"">","null","","","","","",""
"354.69999998807907","","image-keyboard-response","365","645895","0.0-365.0","3ND9UOO81LOHJD7IGFJMU7Q3450WLK","A1BJFYHXK6YDX1","33K3E8REWWHZ7MUV5T1222MGO9NX8Q","","","img/flower3.png","74","355.9000000357628","1","1","2","0.7,0.2,0,0.7,0,0.2,0.2,0,0.7",""
"null","","html-keyboard-response","366","646205","0.0-366.0","3ND9UOO81LOHJD7IGFJMU7Q3450WLK","A1BJFYHXK6YDX1","33K3E8REWWHZ7MUV5T1222MGO9NX8Q","","","<img src=""img/flower3.png"" style=""width:200px; border:14px solid green;"">","null","","","","","",""
"1023.1000000238419","","image-keyboard-response","367","647229","0.0-367.0","3ND9UOO81LOHJD7IGFJMU7Q3450WLK","A1BJFYHXK6YDX1","33K3E8REWWHZ7MUV5T1222MGO9NX8Q","","","img/flower1.png","74","1024.3999999761581","1","0","1","0.7,0.2,0,0.7,0,0.2,0.2,0,0.7",""
"null","","html-keyboard-response","368","647537","0.0-368.0","3ND9UOO81LOHJD7IGFJMU7Q3450WLK","A1BJFYHXK6YDX1","33K3E8REWWHZ7MUV5T1222MGO9NX8Q","","","<img src=""img/flower1.png"" style=""width:200px;border:14px solid red;"">","null","","","","","",""
"2371.400000035763","","image-keyboard-response","369","649910","0.0-369.0","3ND9UOO81LOHJD7IGFJMU7Q3450WLK","A1BJFYHXK6YDX1","33K3E8REWWHZ7MUV5T1222MGO9NX8Q","","","img/flower1.png","75","2372.5","2","0","1","0.7,0.2,0,0.7,0,0.2,0.2,0,0.7",""
"null","","html-keyboard-response","370","650219","0.0-370.0","3ND9UOO81LOHJD7IGFJMU7Q3450WLK","A1BJFYHXK6YDX1","33K3E8REWWHZ7MUV5T1222MGO9NX8Q","","","<img src=""img/flower1.png"" style=""width:200px;border:14px solid red;"">","null","","","","","",""
"369.60000002384186","","image-keyboard-response","371","650590","0.0-371.0","3ND9UOO81LOHJD7IGFJMU7Q3450WLK","A1BJFYHXK6YDX1","33K3E8REWWHZ7MUV5T1222MGO9NX8Q","","","img/flower1.png","75","370.7000000476837","2","0","1","0.7,0.2,0,0.7,0,0.2,0.2,0,0.7",""
"null","","html-keyboard-response","372","650908","0.0-372.0","3ND9UOO81LOHJD7IGFJMU7Q3450WLK","A1BJFYHXK6YDX1","33K3E8REWWHZ7MUV5T1222MGO9NX8Q","","","<img src=""img/flower1.png"" style=""width:200px;border:14px solid red;"">","null","","","","","",""
"553.8000000119209","","image-keyboard-response","373","651463","0.0-373.0","3ND9UOO81LOHJD7IGFJMU7Q3450WLK","A1BJFYHXK6YDX1","33K3E8REWWHZ7MUV5T1222MGO9NX8Q","","","img/flower4.png","74","554.8000000119209","1","0","3","0.7,0.2,0,0.7,0,0.2,0.2,0,0.7",""
"null","","html-keyboard-response","374","651766","0.0-374.0","3ND9UOO81LOHJD7IGFJMU7Q3450WLK","A1BJFYHXK6YDX1","33K3E8REWWHZ7MUV5T1222MGO9NX8Q","","","<img src=""img/flower4.png"" style=""width:200px;border:14px solid red;"">","null","","","","","",""
"481.80000001192093","","image-keyboard-response","375","652249","0.0-375.0","3ND9UOO81LOHJD7IGFJMU7Q3450WLK","A1BJFYHXK6YDX1","33K3E8REWWHZ7MUV5T1222MGO9NX8Q","","","img/flower3.png","75","483.0999999642372","2","0","2","0.7,0.2,0,0.7,0,0.2,0.2,0,0.7",""
"null","","html-keyboard-response","376","652553","0.0-376.0","3ND9UOO81LOHJD7IGFJMU7Q3450WLK","A1BJFYHXK6YDX1","33K3E8REWWHZ7MUV5T1222MGO9NX8Q","","","<img src=""img/flower3.png"" style=""width:200px;border:14px solid red;"">","null","","","","","",""
"422.5","","image-keyboard-response","377","652977","0.0-377.0","3ND9UOO81LOHJD7IGFJMU7Q3450WLK","A1BJFYHXK6YDX1","33K3E8REWWHZ7MUV5T1222MGO9NX8Q","","","img/flower4.png","76","423.7999999523163","3","1","3","0.7,0.2,0,0.7,0,0.2,0.2,0,0.7",""
"null","","html-keyboard-response","378","653280","0.0-378.0","3ND9UOO81LOHJD7IGFJMU7Q3450WLK","A1BJFYHXK6YDX1","33K3E8REWWHZ7MUV5T1222MGO9NX8Q","","","<img src=""img/flower4.png"" style=""width:200px; border:14px solid green;"">","null","","","","","",""
"1169.699999988079","","image-keyboard-response","379","654451","0.0-379.0","3ND9UOO81LOHJD7IGFJMU7Q3450WLK","A1BJFYHXK6YDX1","33K3E8REWWHZ7MUV5T1222MGO9NX8Q","","","img/flower3.png","76","1170.800000011921","3","0","2","0.7,0.2,0,0.7,0,0.2,0.2,0,0.7",""
"null","","html-keyboard-response","380","654761","0.0-380.0","3ND9UOO81LOHJD7IGFJMU7Q3450WLK","A1BJFYHXK6YDX1","33K3E8REWWHZ7MUV5T1222MGO9NX8Q","","","<img src=""img/flower3.png"" style=""width:200px;border:14px solid red;"">","null","","","","","",""
"548.2000000476837","","image-keyboard-response","381","655311","0.0-381.0","3ND9UOO81LOHJD7IGFJMU7Q3450WLK","A1BJFYHXK6YDX1","33K3E8REWWHZ7MUV5T1222MGO9NX8Q","","","img/flower1.png","75","549.6000000238419","2","0","1","0.7,0.2,0,0.7,0,0.2,0.2,0,0.7",""
"null","","html-keyboard-response","382","655627","0.0-382.0","3ND9UOO81LOHJD7IGFJMU7Q3450WLK","A1BJFYHXK6YDX1","33K3E8REWWHZ7MUV5T1222MGO9NX8Q","","","<img src=""img/flower1.png"" style=""width:200px;border:14px solid red;"">","null","","","","","",""
"441.0999999642372","","image-keyboard-response","383","656069","0.0-383.0","3ND9UOO81LOHJD7IGFJMU7Q3450WLK","A1BJFYHXK6YDX1","33K3E8REWWHZ7MUV5T1222MGO9NX8Q","","","img/flower4.png","76","442.2999999523163","3","1","3","0.7,0.2,0,0.7,0,0.2,0.2,0,0.7",""
"null","","html-keyboard-response","384","656380","0.0-384.0","3ND9UOO81LOHJD7IGFJMU7Q3450WLK","A1BJFYHXK6YDX1","33K3E8REWWHZ7MUV5T1222MGO9NX8Q","","","<img src=""img/flower4.png"" style=""width:200px; border:14px solid green;"">","null","","","","","",""
"1591.1000000238419","","image-keyboard-response","385","657972","0.0-385.0","3ND9UOO81LOHJD7IGFJMU7Q3450WLK","A1BJFYHXK6YDX1","33K3E8REWWHZ7MUV5T1222MGO9NX8Q","","","img/flower1.png","76","1592.0999999642372","3","0","1","0.7,0.2,0,0.7,0,0.2,0.2,0,0.7",""
"null","","html-keyboard-response","386","658285","0.0-386.0","3ND9UOO81LOHJD7IGFJMU7Q3450WLK","A1BJFYHXK6YDX1","33K3E8REWWHZ7MUV5T1222MGO9NX8Q","","","<img src=""img/flower1.png"" style=""width:200px;border:14px solid red;"">","null","","","","","",""
"1916.300000011921","","image-keyboard-response","387","660203","0.0-387.0","3ND9UOO81LOHJD7IGFJMU7Q3450WLK","A1BJFYHXK6YDX1","33K3E8REWWHZ7MUV5T1222MGO9NX8Q","","","img/flower4.png","74","1917.5999999642372","1","1","3","0.7,0.2,0,0.7,0,0.2,0.2,0,0.7",""
"null","","html-keyboard-response","388","660518","0.0-388.0","3ND9UOO81LOHJD7IGFJMU7Q3450WLK","A1BJFYHXK6YDX1","33K3E8REWWHZ7MUV5T1222MGO9NX8Q","","","<img src=""img/flower4.png"" style=""width:200px; border:14px solid green;"">","null","","","","","",""
"565.5","","image-keyboard-response","389","661085","0.0-389.0","3ND9UOO81LOHJD7IGFJMU7Q3450WLK","A1BJFYHXK6YDX1","33K3E8REWWHZ7MUV5T1222MGO9NX8Q","","","img/flower4.png","74","566.8000000119209","1","1","3","0.7,0.2,0,0.7,0,0.2,0.2,0,0.7",""
"null","","html-keyboard-response","390","661404","0.0-390.0","3ND9UOO81LOHJD7IGFJMU7Q3450WLK","A1BJFYHXK6YDX1","33K3E8REWWHZ7MUV5T1222MGO9NX8Q","","","<img src=""img/flower4.png"" style=""width:200px; border:14px solid green;"">","null","","","","","",""
"859.8999999761581","","image-keyboard-response","391","662265","0.0-391.0","3ND9UOO81LOHJD7IGFJMU7Q3450WLK","A1BJFYHXK6YDX1","33K3E8REWWHZ7MUV5T1222MGO9NX8Q","","","img/flower3.png","75","861.1999999880791","2","0","2","0.7,0.2,0,0.7,0,0.2,0.2,0,0.7",""
"null","","html-keyboard-response","392","662580","0.0-392.0","3ND9UOO81LOHJD7IGFJMU7Q3450WLK","A1BJFYHXK6YDX1","33K3E8REWWHZ7MUV5T1222MGO9NX8Q","","","<img src=""img/flower3.png"" style=""width:200px;border:14px solid red;"">","null","","","","","",""
"374.89999997615814","","image-keyboard-response","393","662957","0.0-393.0","3ND9UOO81LOHJD7IGFJMU7Q3450WLK","A1BJFYHXK6YDX1","33K3E8REWWHZ7MUV5T1222MGO9NX8Q","","","img/flower1.png","76","375.80000001192093","3","0","1","0.7,0.2,0,0.7,0,0.2,0.2,0,0.7",""
"null","","html-keyboard-response","394","663273","0.0-394.0","3ND9UOO81LOHJD7IGFJMU7Q3450WLK","A1BJFYHXK6YDX1","33K3E8REWWHZ7MUV5T1222MGO9NX8Q","","","<img src=""img/flower1.png"" style=""width:200px;border:14px solid red;"">","null","","","","","",""
"262.2999999523163","","image-keyboard-response","395","663536","0.0-395.0","3ND9UOO81LOHJD7IGFJMU7Q3450WLK","A1BJFYHXK6YDX1","33K3E8REWWHZ7MUV5T1222MGO9NX8Q","","","img/flower4.png","76","263.39999997615814","3","1","3","0.7,0.2,0,0.7,0,0.2,0.2,0,0.7",""
"null","","html-keyboard-response","396","663855","0.0-396.0","3ND9UOO81LOHJD7IGFJMU7Q3450WLK","A1BJFYHXK6YDX1","33K3E8REWWHZ7MUV5T1222MGO9NX8Q","","","<img src=""img/flower4.png"" style=""width:200px; border:14px solid green;"">","null","","","","","",""
"1354.6000000238419","","image-keyboard-response","397","665211","0.0-397.0","3ND9UOO81LOHJD7IGFJMU7Q3450WLK","A1BJFYHXK6YDX1","33K3E8REWWHZ7MUV5T1222MGO9NX8Q","","","img/flower4.png","74","1355.699999988079","1","0","3","0.7,0.2,0,0.7,0,0.2,0.2,0,0.7",""
"null","","html-keyboard-response","398","665517","0.0-398.0","3ND9UOO81LOHJD7IGFJMU7Q3450WLK","A1BJFYHXK6YDX1","33K3E8REWWHZ7MUV5T1222MGO9NX8Q","","","<img src=""img/flower4.png"" style=""width:200px;border:14px solid red;"">","null","","","","","",""
"293.89999997615814","","image-keyboard-response","399","665812","0.0-399.0","3ND9UOO81LOHJD7IGFJMU7Q3450WLK","A1BJFYHXK6YDX1","33K3E8REWWHZ7MUV5T1222MGO9NX8Q","","","img/flower4.png","76","295","3","0","3","0.7,0.2,0,0.7,0,0.2,0.2,0,0.7",""
"null","","html-keyboard-response","400","666127","0.0-400.0","3ND9UOO81LOHJD7IGFJMU7Q3450WLK","A1BJFYHXK6YDX1","33K3E8REWWHZ7MUV5T1222MGO9NX8Q","","","<img src=""img/flower4.png"" style=""width:200px;border:14px solid red;"">","null","","","","","",""
"304.80000001192093","","image-keyboard-response","401","666433","0.0-401.0","3ND9UOO81LOHJD7IGFJMU7Q3450WLK","A1BJFYHXK6YDX1","33K3E8REWWHZ7MUV5T1222MGO9NX8Q","","","img/flower1.png","76","306","3","0","1","0.7,0.2,0,0.7,0,0.2,0.2,0,0.7",""
"null","","html-keyboard-response","402","666737","0.0-402.0","3ND9UOO81LOHJD7IGFJMU7Q3450WLK","A1BJFYHXK6YDX1","33K3E8REWWHZ7MUV5T1222MGO9NX8Q","","","<img src=""img/flower1.png"" style=""width:200px;border:14px solid red;"">","null","","","","","",""
