"rt","url","trial_type","trial_index","time_elapsed","internal_node_id","assignmentID","mturkID","hitID","success","view_history","stimulus","key_press","reactionTime","a","r","s","reward_cond","responses"
"49177.699999999255","consent.html","external-html","0","49437","0.0-0.0","3HL8HNGX46NK7PKE1T6WLAD898U9F3","A1I7H6RDJS4EKN","33K3E8REWWHZ7MUV5T1222MGO9NX8Q","","","","","","","","","",""
"","","fullscreen","1","60703","0.0-1.0","3HL8HNGX46NK7PKE1T6WLAD898U9F3","A1I7H6RDJS4EKN","33K3E8REWWHZ7MUV5T1222MGO9NX8Q","true","","","","","","","","",""
"117103.89999999851","","instructions","2","177809","0.0-2.0","3HL8HNGX46NK7PKE1T6WLAD898U9F3","A1I7H6RDJS4EKN","33K3E8REWWHZ7MUV5T1222MGO9NX8Q","","[{""page_index"":0,""viewing_time"":9106.300000000745},{""page_index"":1,""viewing_time"":18348.099999997765},{""page_index"":2,""viewing_time"":12984.699999999255},{""page_index"":3,""viewing_time"":22361.900000002235},{""page_index"":4,""viewing_time"":11970.099999997765},{""page_index"":5,""viewing_time"":42332.10000000149}]","","","","","","","",""
"52962.599999997765","","instructions","3","230773","0.0-3.0","3HL8HNGX46NK7PKE1T6WLAD898U9F3","A1I7H6RDJS4EKN","33K3E8REWWHZ7MUV5T1222MGO9NX8Q","","[{""page_index"":0,""viewing_time"":52962.29999999702}]","","","","","","","",""
"2229.800000000745","","image-keyboard-response","4","233005","0.0-4.0","3HL8HNGX46NK7PKE1T6WLAD898U9F3","A1I7H6RDJS4EKN","33K3E8REWWHZ7MUV5T1222MGO9NX8Q","","","img/flower6.png","74","2231.199999999255","1","0","3","",""
"null","","html-keyboard-response","5","233311","0.0-5.0","3HL8HNGX46NK7PKE1T6WLAD898U9F3","A1I7H6RDJS4EKN","33K3E8REWWHZ7MUV5T1222MGO9NX8Q","","","<img src=""img/flower6.png"" style=""width:200px;border:14px solid red;"">","null","","","","","",""
"1512","","image-keyboard-response","6","234825","0.0-6.0","3HL8HNGX46NK7PKE1T6WLAD898U9F3","A1I7H6RDJS4EKN","33K3E8REWWHZ7MUV5T1222MGO9NX8Q","","","img/flower4.png","74","1513","1","1","1","",""
"null","","html-keyboard-response","7","235138","0.0-7.0","3HL8HNGX46NK7PKE1T6WLAD898U9F3","A1I7H6RDJS4EKN","33K3E8REWWHZ7MUV5T1222MGO9NX8Q","","","<img src=""img/flower4.png"" style=""width:200px; border:14px solid green;"">","null","","","","","",""
"1517.800000000745","","image-keyboard-response","8","236657","0.0-8.0","3HL8HNGX46NK7PKE1T6WLAD898U9F3","A1I7H6RDJS4EKN","33K3E8REWWHZ7MUV5T1222MGO9NX8Q","","","img/flower6.png","74","1518.7999999970198","1","0","3","",""
"null","","html-keyboard-response","9","236963","0.0-9.0","3HL8HNGX46NK7PKE1T6WLAD898U9F3","A1I7H6RDJS4EKN","33K3E8REWWHZ7MUV5T1222MGO9NX8Q","","","<img src=""img/flower6.png"" style=""width:200px;border:14px solid red;"">","null","","","","","",""
"1868.5","","image-keyboard-response","10","238833","0.0-10.0","3HL8HNGX46NK7PKE1T6WLAD898U9F3","A1I7H6RDJS4EKN","33K3E8REWWHZ7MUV5T1222MGO9NX8Q","","","img/flower6.png","75","1869.3999999985099","2","0","3","",""
"null","","html-keyboard-response","11","239145","0.0-11.0","3HL8HNGX46NK7PKE1T6WLAD898U9F3","A1I7H6RDJS4EKN","33K3E8REWWHZ7MUV5T1222MGO9NX8Q","","","<img src=""img/flower6.png"" style=""width:200px;border:14px solid red;"">","null","","","","","",""
"934.2000000029802","","image-keyboard-response","12","240081","0.0-12.0","3HL8HNGX46NK7PKE1T6WLAD898U9F3","A1I7H6RDJS4EKN","33K3E8REWWHZ7MUV5T1222MGO9NX8Q","","","img/flower5.png","76","935.3000000007451","3","0","2","",""
"null","","html-keyboard-response","13","240391","0.0-13.0","3HL8HNGX46NK7PKE1T6WLAD898U9F3","A1I7H6RDJS4EKN","33K3E8REWWHZ7MUV5T1222MGO9NX8Q","","","<img src=""img/flower5.png"" style=""width:200px;border:14px solid red;"">","null","","","","","",""
"1332.800000000745","","image-keyboard-response","14","241725","0.0-14.0","3HL8HNGX46NK7PKE1T6WLAD898U9F3","A1I7H6RDJS4EKN","33K3E8REWWHZ7MUV5T1222MGO9NX8Q","","","img/flower4.png","76","1333.800000000745","3","0","1","",""
"null","","html-keyboard-response","15","242031","0.0-15.0","3HL8HNGX46NK7PKE1T6WLAD898U9F3","A1I7H6RDJS4EKN","33K3E8REWWHZ7MUV5T1222MGO9NX8Q","","","<img src=""img/flower4.png"" style=""width:200px;border:14px solid red;"">","null","","","","","",""
"735","","image-keyboard-response","16","242768","0.0-16.0","3HL8HNGX46NK7PKE1T6WLAD898U9F3","A1I7H6RDJS4EKN","33K3E8REWWHZ7MUV5T1222MGO9NX8Q","","","img/flower4.png","76","735.8000000007451","3","1","1","",""
"null","","html-keyboard-response","17","243071","0.0-17.0","3HL8HNGX46NK7PKE1T6WLAD898U9F3","A1I7H6RDJS4EKN","33K3E8REWWHZ7MUV5T1222MGO9NX8Q","","","<img src=""img/flower4.png"" style=""width:200px; border:14px solid green;"">","null","","","","","",""
"1727.4000000022352","","image-keyboard-response","18","244800","0.0-18.0","3HL8HNGX46NK7PKE1T6WLAD898U9F3","A1I7H6RDJS4EKN","33K3E8REWWHZ7MUV5T1222MGO9NX8Q","","","img/flower4.png","75","1728.300000000745","2","0","1","",""
"null","","html-keyboard-response","19","245106","0.0-19.0","3HL8HNGX46NK7PKE1T6WLAD898U9F3","A1I7H6RDJS4EKN","33K3E8REWWHZ7MUV5T1222MGO9NX8Q","","","<img src=""img/flower4.png"" style=""width:200px;border:14px solid red;"">","null","","","","","",""
"620.5999999977648","","image-keyboard-response","20","245728","0.0-20.0","3HL8HNGX46NK7PKE1T6WLAD898U9F3","A1I7H6RDJS4EKN","33K3E8REWWHZ7MUV5T1222MGO9NX8Q","","","img/flower5.png","74","621.5","1","0","2","",""
"null","","html-keyboard-response","21","246032","0.0-21.0","3HL8HNGX46NK7PKE1T6WLAD898U9F3","A1I7H6RDJS4EKN","33K3E8REWWHZ7MUV5T1222MGO9NX8Q","","","<img src=""img/flower5.png"" style=""width:200px;border:14px solid red;"">","null","","","","","",""
"3007","","image-keyboard-response","22","249041","0.0-22.0","3HL8HNGX46NK7PKE1T6WLAD898U9F3","A1I7H6RDJS4EKN","33K3E8REWWHZ7MUV5T1222MGO9NX8Q","","","img/flower4.png","75","3007.89999999851","2","0","1","",""
"null","","html-keyboard-response","23","249355","0.0-23.0","3HL8HNGX46NK7PKE1T6WLAD898U9F3","A1I7H6RDJS4EKN","33K3E8REWWHZ7MUV5T1222MGO9NX8Q","","","<img src=""img/flower4.png"" style=""width:200px;border:14px solid red;"">","null","","","","","",""
"2077.800000000745","","image-keyboard-response","24","251434","0.0-24.0","3HL8HNGX46NK7PKE1T6WLAD898U9F3","A1I7H6RDJS4EKN","33K3E8REWWHZ7MUV5T1222MGO9NX8Q","","","img/flower5.png","76","2078.699999999255","3","0","2","",""
"null","","html-keyboard-response","25","251744","0.0-25.0","3HL8HNGX46NK7PKE1T6WLAD898U9F3","A1I7H6RDJS4EKN","33K3E8REWWHZ7MUV5T1222MGO9NX8Q","","","<img src=""img/flower5.png"" style=""width:200px;border:14px solid red;"">","null","","","","","",""
"1452.6000000014901","","image-keyboard-response","26","253198","0.0-26.0","3HL8HNGX46NK7PKE1T6WLAD898U9F3","A1I7H6RDJS4EKN","33K3E8REWWHZ7MUV5T1222MGO9NX8Q","","","img/flower6.png","76","1453.4000000022352","3","1","3","",""
"null","","html-keyboard-response","27","253503","0.0-27.0","3HL8HNGX46NK7PKE1T6WLAD898U9F3","A1I7H6RDJS4EKN","33K3E8REWWHZ7MUV5T1222MGO9NX8Q","","","<img src=""img/flower6.png"" style=""width:200px; border:14px solid green;"">","null","","","","","",""
"2296.2999999970198","","image-keyboard-response","28","255801","0.0-28.0","3HL8HNGX46NK7PKE1T6WLAD898U9F3","A1I7H6RDJS4EKN","33K3E8REWWHZ7MUV5T1222MGO9NX8Q","","","img/flower4.png","75","2297.199999999255","2","1","1","",""
"null","","html-keyboard-response","29","256112","0.0-29.0","3HL8HNGX46NK7PKE1T6WLAD898U9F3","A1I7H6RDJS4EKN","33K3E8REWWHZ7MUV5T1222MGO9NX8Q","","","<img src=""img/flower4.png"" style=""width:200px; border:14px solid green;"">","null","","","","","",""
"2207.7000000029802","","image-keyboard-response","30","258321","0.0-30.0","3HL8HNGX46NK7PKE1T6WLAD898U9F3","A1I7H6RDJS4EKN","33K3E8REWWHZ7MUV5T1222MGO9NX8Q","","","img/flower4.png","74","2208.7000000029802","1","1","1","",""
"null","","html-keyboard-response","31","258635","0.0-31.0","3HL8HNGX46NK7PKE1T6WLAD898U9F3","A1I7H6RDJS4EKN","33K3E8REWWHZ7MUV5T1222MGO9NX8Q","","","<img src=""img/flower4.png"" style=""width:200px; border:14px solid green;"">","null","","","","","",""
"997","","image-keyboard-response","32","259633","0.0-32.0","3HL8HNGX46NK7PKE1T6WLAD898U9F3","A1I7H6RDJS4EKN","33K3E8REWWHZ7MUV5T1222MGO9NX8Q","","","img/flower6.png","76","997.8999999985099","3","0","3","",""
"null","","html-keyboard-response","33","259937","0.0-33.0","3HL8HNGX46NK7PKE1T6WLAD898U9F3","A1I7H6RDJS4EKN","33K3E8REWWHZ7MUV5T1222MGO9NX8Q","","","<img src=""img/flower6.png"" style=""width:200px;border:14px solid red;"">","null","","","","","",""
"1527.3999999985099","","image-keyboard-response","34","261465","0.0-34.0","3HL8HNGX46NK7PKE1T6WLAD898U9F3","A1I7H6RDJS4EKN","33K3E8REWWHZ7MUV5T1222MGO9NX8Q","","","img/flower4.png","75","1528.199999999255","2","0","1","",""
"null","","html-keyboard-response","35","261775","0.0-35.0","3HL8HNGX46NK7PKE1T6WLAD898U9F3","A1I7H6RDJS4EKN","33K3E8REWWHZ7MUV5T1222MGO9NX8Q","","","<img src=""img/flower4.png"" style=""width:200px;border:14px solid red;"">","null","","","","","",""
"1360.800000000745","","image-keyboard-response","36","263137","0.0-36.0","3HL8HNGX46NK7PKE1T6WLAD898U9F3","A1I7H6RDJS4EKN","33K3E8REWWHZ7MUV5T1222MGO9NX8Q","","","img/flower5.png","75","1361.5999999977648","2","1","2","",""
"null","","html-keyboard-response","37","263451","0.0-37.0","3HL8HNGX46NK7PKE1T6WLAD898U9F3","A1I7H6RDJS4EKN","33K3E8REWWHZ7MUV5T1222MGO9NX8Q","","","<img src=""img/flower5.png"" style=""width:200px; border:14px solid green;"">","null","","","","","",""
"1026.5999999977648","","image-keyboard-response","38","264479","0.0-38.0","3HL8HNGX46NK7PKE1T6WLAD898U9F3","A1I7H6RDJS4EKN","33K3E8REWWHZ7MUV5T1222MGO9NX8Q","","","img/flower6.png","76","1027.699999999255","3","1","3","",""
"null","","html-keyboard-response","39","264787","0.0-39.0","3HL8HNGX46NK7PKE1T6WLAD898U9F3","A1I7H6RDJS4EKN","33K3E8REWWHZ7MUV5T1222MGO9NX8Q","","","<img src=""img/flower6.png"" style=""width:200px; border:14px solid green;"">","null","","","","","",""
"2156.5","","image-keyboard-response","40","266945","0.0-40.0","3HL8HNGX46NK7PKE1T6WLAD898U9F3","A1I7H6RDJS4EKN","33K3E8REWWHZ7MUV5T1222MGO9NX8Q","","","img/flower5.png","74","2157.5","1","0","2","",""
"null","","html-keyboard-response","41","267259","0.0-41.0","3HL8HNGX46NK7PKE1T6WLAD898U9F3","A1I7H6RDJS4EKN","33K3E8REWWHZ7MUV5T1222MGO9NX8Q","","","<img src=""img/flower5.png"" style=""width:200px;border:14px solid red;"">","null","","","","","",""
"1308.2000000029802","","image-keyboard-response","42","268569","0.0-42.0","3HL8HNGX46NK7PKE1T6WLAD898U9F3","A1I7H6RDJS4EKN","33K3E8REWWHZ7MUV5T1222MGO9NX8Q","","","img/flower5.png","75","1309.5999999977648","2","0","2","",""
"null","","html-keyboard-response","43","268883","0.0-43.0","3HL8HNGX46NK7PKE1T6WLAD898U9F3","A1I7H6RDJS4EKN","33K3E8REWWHZ7MUV5T1222MGO9NX8Q","","","<img src=""img/flower5.png"" style=""width:200px;border:14px solid red;"">","null","","","","","",""
"2468.5","","image-keyboard-response","44","271353","0.0-44.0","3HL8HNGX46NK7PKE1T6WLAD898U9F3","A1I7H6RDJS4EKN","33K3E8REWWHZ7MUV5T1222MGO9NX8Q","","","img/flower4.png","75","2469.39999999851","2","0","1","",""
"null","","html-keyboard-response","45","271666","0.0-45.0","3HL8HNGX46NK7PKE1T6WLAD898U9F3","A1I7H6RDJS4EKN","33K3E8REWWHZ7MUV5T1222MGO9NX8Q","","","<img src=""img/flower4.png"" style=""width:200px;border:14px solid red;"">","null","","","","","",""
"989.5","","image-keyboard-response","46","272657","0.0-46.0","3HL8HNGX46NK7PKE1T6WLAD898U9F3","A1I7H6RDJS4EKN","33K3E8REWWHZ7MUV5T1222MGO9NX8Q","","","img/flower5.png","75","990.6000000014901","2","0","2","",""
"null","","html-keyboard-response","47","272969","0.0-47.0","3HL8HNGX46NK7PKE1T6WLAD898U9F3","A1I7H6RDJS4EKN","33K3E8REWWHZ7MUV5T1222MGO9NX8Q","","","<img src=""img/flower5.png"" style=""width:200px;border:14px solid red;"">","null","","","","","",""
"1301.2999999970198","","image-keyboard-response","48","274384","0.0-48.0","3HL8HNGX46NK7PKE1T6WLAD898U9F3","A1I7H6RDJS4EKN","33K3E8REWWHZ7MUV5T1222MGO9NX8Q","","","img/flower5.png","75","1302.199999999255","2","1","2","",""
"null","","html-keyboard-response","49","274686","0.0-49.0","3HL8HNGX46NK7PKE1T6WLAD898U9F3","A1I7H6RDJS4EKN","33K3E8REWWHZ7MUV5T1222MGO9NX8Q","","","<img src=""img/flower5.png"" style=""width:200px; border:14px solid green;"">","null","","","","","",""
"838.6999999992549","","image-keyboard-response","50","275526","0.0-50.0","3HL8HNGX46NK7PKE1T6WLAD898U9F3","A1I7H6RDJS4EKN","33K3E8REWWHZ7MUV5T1222MGO9NX8Q","","","img/flower6.png","76","839.8000000007451","3","1","3","",""
"null","","html-keyboard-response","51","275835","0.0-51.0","3HL8HNGX46NK7PKE1T6WLAD898U9F3","A1I7H6RDJS4EKN","33K3E8REWWHZ7MUV5T1222MGO9NX8Q","","","<img src=""img/flower6.png"" style=""width:200px; border:14px solid green;"">","null","","","","","",""
"1245.300000000745","","image-keyboard-response","52","277082","0.0-52.0","3HL8HNGX46NK7PKE1T6WLAD898U9F3","A1I7H6RDJS4EKN","33K3E8REWWHZ7MUV5T1222MGO9NX8Q","","","img/flower4.png","75","1246.199999999255","2","0","1","",""
"null","","html-keyboard-response","53","277395","0.0-53.0","3HL8HNGX46NK7PKE1T6WLAD898U9F3","A1I7H6RDJS4EKN","33K3E8REWWHZ7MUV5T1222MGO9NX8Q","","","<img src=""img/flower4.png"" style=""width:200px;border:14px solid red;"">","null","","","","","",""
"1381.699999999255","","image-keyboard-response","54","278778","0.0-54.0","3HL8HNGX46NK7PKE1T6WLAD898U9F3","A1I7H6RDJS4EKN","33K3E8REWWHZ7MUV5T1222MGO9NX8Q","","","img/flower5.png","75","1383","2","1","2","",""
"null","","html-keyboard-response","55","279087","0.0-55.0","3HL8HNGX46NK7PKE1T6WLAD898U9F3","A1I7H6RDJS4EKN","33K3E8REWWHZ7MUV5T1222MGO9NX8Q","","","<img src=""img/flower5.png"" style=""width:200px; border:14px solid green;"">","null","","","","","",""
"960.4000000022352","","image-keyboard-response","56","280049","0.0-56.0","3HL8HNGX46NK7PKE1T6WLAD898U9F3","A1I7H6RDJS4EKN","33K3E8REWWHZ7MUV5T1222MGO9NX8Q","","","img/flower6.png","76","961.3000000007451","3","0","3","",""
"null","","html-keyboard-response","57","280354","0.0-57.0","3HL8HNGX46NK7PKE1T6WLAD898U9F3","A1I7H6RDJS4EKN","33K3E8REWWHZ7MUV5T1222MGO9NX8Q","","","<img src=""img/flower6.png"" style=""width:200px;border:14px solid red;"">","null","","","","","",""
"938.1999999992549","","image-keyboard-response","58","281294","0.0-58.0","3HL8HNGX46NK7PKE1T6WLAD898U9F3","A1I7H6RDJS4EKN","33K3E8REWWHZ7MUV5T1222MGO9NX8Q","","","img/flower6.png","76","939.3999999985099","3","0","3","",""
"null","","html-keyboard-response","59","281602","0.0-59.0","3HL8HNGX46NK7PKE1T6WLAD898U9F3","A1I7H6RDJS4EKN","33K3E8REWWHZ7MUV5T1222MGO9NX8Q","","","<img src=""img/flower6.png"" style=""width:200px;border:14px solid red;"">","null","","","","","",""
"858.4000000022352","","image-keyboard-response","60","282463","0.0-60.0","3HL8HNGX46NK7PKE1T6WLAD898U9F3","A1I7H6RDJS4EKN","33K3E8REWWHZ7MUV5T1222MGO9NX8Q","","","img/flower6.png","76","860.3999999985099","3","1","3","",""
"null","","html-keyboard-response","61","282768","0.0-61.0","3HL8HNGX46NK7PKE1T6WLAD898U9F3","A1I7H6RDJS4EKN","33K3E8REWWHZ7MUV5T1222MGO9NX8Q","","","<img src=""img/flower6.png"" style=""width:200px; border:14px solid green;"">","null","","","","","",""
"1202.300000000745","","image-keyboard-response","62","283971","0.0-62.0","3HL8HNGX46NK7PKE1T6WLAD898U9F3","A1I7H6RDJS4EKN","33K3E8REWWHZ7MUV5T1222MGO9NX8Q","","","img/flower5.png","75","1203.0999999977648","2","1","2","",""
"null","","html-keyboard-response","63","284281","0.0-63.0","3HL8HNGX46NK7PKE1T6WLAD898U9F3","A1I7H6RDJS4EKN","33K3E8REWWHZ7MUV5T1222MGO9NX8Q","","","<img src=""img/flower5.png"" style=""width:200px; border:14px solid green;"">","null","","","","","",""
"35104.800000000745","","instructions","64","319388","0.0-64.0","3HL8HNGX46NK7PKE1T6WLAD898U9F3","A1I7H6RDJS4EKN","33K3E8REWWHZ7MUV5T1222MGO9NX8Q","","[{""page_index"":0,""viewing_time"":10378.800000000745},{""page_index"":1,""viewing_time"":24725.599999997765}]","","","","","","","",""
"1661.0999999977648","","image-keyboard-response","65","321050","0.0-65.0","3HL8HNGX46NK7PKE1T6WLAD898U9F3","A1I7H6RDJS4EKN","33K3E8REWWHZ7MUV5T1222MGO9NX8Q","","","img/flower6.png","76","1662.199999999255","3","1","3","",""
"null","","html-keyboard-response","66","321362","0.0-66.0","3HL8HNGX46NK7PKE1T6WLAD898U9F3","A1I7H6RDJS4EKN","33K3E8REWWHZ7MUV5T1222MGO9NX8Q","","","<img src=""img/flower6.png"" style=""width:200px; border:14px solid green;"">","null","","","","","",""
"1479.1000000014901","","image-keyboard-response","67","322842","0.0-67.0","3HL8HNGX46NK7PKE1T6WLAD898U9F3","A1I7H6RDJS4EKN","33K3E8REWWHZ7MUV5T1222MGO9NX8Q","","","img/flower5.png","75","1479.9000000022352","2","0","2","",""
"null","","html-keyboard-response","68","323158","0.0-68.0","3HL8HNGX46NK7PKE1T6WLAD898U9F3","A1I7H6RDJS4EKN","33K3E8REWWHZ7MUV5T1222MGO9NX8Q","","","<img src=""img/flower5.png"" style=""width:200px;border:14px solid red;"">","null","","","","","",""
"1778.9000000022352","","image-keyboard-response","69","324938","0.0-69.0","3HL8HNGX46NK7PKE1T6WLAD898U9F3","A1I7H6RDJS4EKN","33K3E8REWWHZ7MUV5T1222MGO9NX8Q","","","img/flower4.png","74","1779.800000000745","1","1","1","",""
"null","","html-keyboard-response","70","325245","0.0-70.0","3HL8HNGX46NK7PKE1T6WLAD898U9F3","A1I7H6RDJS4EKN","33K3E8REWWHZ7MUV5T1222MGO9NX8Q","","","<img src=""img/flower4.png"" style=""width:200px; border:14px solid green;"">","null","","","","","",""
"1659","","image-keyboard-response","71","326906","0.0-71.0","3HL8HNGX46NK7PKE1T6WLAD898U9F3","A1I7H6RDJS4EKN","33K3E8REWWHZ7MUV5T1222MGO9NX8Q","","","img/flower6.png","76","1659.8999999985099","3","1","3","",""
"null","","html-keyboard-response","72","327212","0.0-72.0","3HL8HNGX46NK7PKE1T6WLAD898U9F3","A1I7H6RDJS4EKN","33K3E8REWWHZ7MUV5T1222MGO9NX8Q","","","<img src=""img/flower6.png"" style=""width:200px; border:14px solid green;"">","null","","","","","",""
"2306.099999997765","","image-keyboard-response","73","329520","0.0-73.0","3HL8HNGX46NK7PKE1T6WLAD898U9F3","A1I7H6RDJS4EKN","33K3E8REWWHZ7MUV5T1222MGO9NX8Q","","","img/flower5.png","74","2307","1","1","2","",""
"null","","html-keyboard-response","74","329828","0.0-74.0","3HL8HNGX46NK7PKE1T6WLAD898U9F3","A1I7H6RDJS4EKN","33K3E8REWWHZ7MUV5T1222MGO9NX8Q","","","<img src=""img/flower5.png"" style=""width:200px; border:14px solid green;"">","null","","","","","",""
"971.4000000022352","","image-keyboard-response","75","330801","0.0-75.0","3HL8HNGX46NK7PKE1T6WLAD898U9F3","A1I7H6RDJS4EKN","33K3E8REWWHZ7MUV5T1222MGO9NX8Q","","","img/flower4.png","75","972.3999999985099","2","1","1","",""
"null","","html-keyboard-response","76","331106","0.0-76.0","3HL8HNGX46NK7PKE1T6WLAD898U9F3","A1I7H6RDJS4EKN","33K3E8REWWHZ7MUV5T1222MGO9NX8Q","","","<img src=""img/flower4.png"" style=""width:200px; border:14px solid green;"">","null","","","","","",""
"1527.800000000745","","image-keyboard-response","77","332635","0.0-77.0","3HL8HNGX46NK7PKE1T6WLAD898U9F3","A1I7H6RDJS4EKN","33K3E8REWWHZ7MUV5T1222MGO9NX8Q","","","img/flower4.png","75","1528.800000000745","2","1","1","",""
"null","","html-keyboard-response","78","332949","0.0-78.0","3HL8HNGX46NK7PKE1T6WLAD898U9F3","A1I7H6RDJS4EKN","33K3E8REWWHZ7MUV5T1222MGO9NX8Q","","","<img src=""img/flower4.png"" style=""width:200px; border:14px solid green;"">","null","","","","","",""
"1292.300000000745","","image-keyboard-response","79","334243","0.0-79.0","3HL8HNGX46NK7PKE1T6WLAD898U9F3","A1I7H6RDJS4EKN","33K3E8REWWHZ7MUV5T1222MGO9NX8Q","","","img/flower4.png","75","1293.300000000745","2","1","1","",""
"null","","html-keyboard-response","80","334556","0.0-80.0","3HL8HNGX46NK7PKE1T6WLAD898U9F3","A1I7H6RDJS4EKN","33K3E8REWWHZ7MUV5T1222MGO9NX8Q","","","<img src=""img/flower4.png"" style=""width:200px; border:14px solid green;"">","null","","","","","",""
"1037","","image-keyboard-response","81","335594","0.0-81.0","3HL8HNGX46NK7PKE1T6WLAD898U9F3","A1I7H6RDJS4EKN","33K3E8REWWHZ7MUV5T1222MGO9NX8Q","","","img/flower5.png","74","1037.9000000022352","1","1","2","",""
"null","","html-keyboard-response","82","335898","0.0-82.0","3HL8HNGX46NK7PKE1T6WLAD898U9F3","A1I7H6RDJS4EKN","33K3E8REWWHZ7MUV5T1222MGO9NX8Q","","","<img src=""img/flower5.png"" style=""width:200px; border:14px solid green;"">","null","","","","","",""
"1030.4000000022352","","image-keyboard-response","83","336929","0.0-83.0","3HL8HNGX46NK7PKE1T6WLAD898U9F3","A1I7H6RDJS4EKN","33K3E8REWWHZ7MUV5T1222MGO9NX8Q","","","img/flower5.png","74","1031.300000000745","1","0","2","",""
"null","","html-keyboard-response","84","337245","0.0-84.0","3HL8HNGX46NK7PKE1T6WLAD898U9F3","A1I7H6RDJS4EKN","33K3E8REWWHZ7MUV5T1222MGO9NX8Q","","","<img src=""img/flower5.png"" style=""width:200px;border:14px solid red;"">","null","","","","","",""
"916.1999999992549","","image-keyboard-response","85","338163","0.0-85.0","3HL8HNGX46NK7PKE1T6WLAD898U9F3","A1I7H6RDJS4EKN","33K3E8REWWHZ7MUV5T1222MGO9NX8Q","","","img/flower6.png","76","917.0999999977648","3","1","3","",""
"null","","html-keyboard-response","86","338470","0.0-86.0","3HL8HNGX46NK7PKE1T6WLAD898U9F3","A1I7H6RDJS4EKN","33K3E8REWWHZ7MUV5T1222MGO9NX8Q","","","<img src=""img/flower6.png"" style=""width:200px; border:14px solid green;"">","null","","","","","",""
"2193.5","","image-keyboard-response","87","340665","0.0-87.0","3HL8HNGX46NK7PKE1T6WLAD898U9F3","A1I7H6RDJS4EKN","33K3E8REWWHZ7MUV5T1222MGO9NX8Q","","","img/flower4.png","74","2194.5","1","1","1","",""
"null","","html-keyboard-response","88","340970","0.0-88.0","3HL8HNGX46NK7PKE1T6WLAD898U9F3","A1I7H6RDJS4EKN","33K3E8REWWHZ7MUV5T1222MGO9NX8Q","","","<img src=""img/flower4.png"" style=""width:200px; border:14px solid green;"">","null","","","","","",""
"983.6999999992549","","image-keyboard-response","89","341955","0.0-89.0","3HL8HNGX46NK7PKE1T6WLAD898U9F3","A1I7H6RDJS4EKN","33K3E8REWWHZ7MUV5T1222MGO9NX8Q","","","img/flower6.png","76","984.5","3","1","3","",""
"null","","html-keyboard-response","90","342268","0.0-90.0","3HL8HNGX46NK7PKE1T6WLAD898U9F3","A1I7H6RDJS4EKN","33K3E8REWWHZ7MUV5T1222MGO9NX8Q","","","<img src=""img/flower6.png"" style=""width:200px; border:14px solid green;"">","null","","","","","",""
"1165.5999999977648","","image-keyboard-response","91","343435","0.0-91.0","3HL8HNGX46NK7PKE1T6WLAD898U9F3","A1I7H6RDJS4EKN","33K3E8REWWHZ7MUV5T1222MGO9NX8Q","","","img/flower5.png","74","1166.5","1","0","2","",""
"null","","html-keyboard-response","92","343746","0.0-92.0","3HL8HNGX46NK7PKE1T6WLAD898U9F3","A1I7H6RDJS4EKN","33K3E8REWWHZ7MUV5T1222MGO9NX8Q","","","<img src=""img/flower5.png"" style=""width:200px;border:14px solid red;"">","null","","","","","",""
"1214.5999999977648","","image-keyboard-response","93","344962","0.0-93.0","3HL8HNGX46NK7PKE1T6WLAD898U9F3","A1I7H6RDJS4EKN","33K3E8REWWHZ7MUV5T1222MGO9NX8Q","","","img/flower5.png","75","1215.3999999985099","2","1","2","",""
"null","","html-keyboard-response","94","345269","0.0-94.0","3HL8HNGX46NK7PKE1T6WLAD898U9F3","A1I7H6RDJS4EKN","33K3E8REWWHZ7MUV5T1222MGO9NX8Q","","","<img src=""img/flower5.png"" style=""width:200px; border:14px solid green;"">","null","","","","","",""
"739.2000000029802","","image-keyboard-response","95","346009","0.0-95.0","3HL8HNGX46NK7PKE1T6WLAD898U9F3","A1I7H6RDJS4EKN","33K3E8REWWHZ7MUV5T1222MGO9NX8Q","","","img/flower6.png","76","739.8999999985099","3","1","3","",""
"null","","html-keyboard-response","96","346315","0.0-96.0","3HL8HNGX46NK7PKE1T6WLAD898U9F3","A1I7H6RDJS4EKN","33K3E8REWWHZ7MUV5T1222MGO9NX8Q","","","<img src=""img/flower6.png"" style=""width:200px; border:14px solid green;"">","null","","","","","",""
"886.0999999977648","","image-keyboard-response","97","347203","0.0-97.0","3HL8HNGX46NK7PKE1T6WLAD898U9F3","A1I7H6RDJS4EKN","33K3E8REWWHZ7MUV5T1222MGO9NX8Q","","","img/flower5.png","75","887","2","1","2","",""
"null","","html-keyboard-response","98","347516","0.0-98.0","3HL8HNGX46NK7PKE1T6WLAD898U9F3","A1I7H6RDJS4EKN","33K3E8REWWHZ7MUV5T1222MGO9NX8Q","","","<img src=""img/flower5.png"" style=""width:200px; border:14px solid green;"">","null","","","","","",""
"1125.199999999255","","image-keyboard-response","99","348643","0.0-99.0","3HL8HNGX46NK7PKE1T6WLAD898U9F3","A1I7H6RDJS4EKN","33K3E8REWWHZ7MUV5T1222MGO9NX8Q","","","img/flower6.png","76","1126.0999999977648","3","1","3","",""
"null","","html-keyboard-response","100","348955","0.0-100.0","3HL8HNGX46NK7PKE1T6WLAD898U9F3","A1I7H6RDJS4EKN","33K3E8REWWHZ7MUV5T1222MGO9NX8Q","","","<img src=""img/flower6.png"" style=""width:200px; border:14px solid green;"">","null","","","","","",""
"1038.699999999255","","image-keyboard-response","101","349995","0.0-101.0","3HL8HNGX46NK7PKE1T6WLAD898U9F3","A1I7H6RDJS4EKN","33K3E8REWWHZ7MUV5T1222MGO9NX8Q","","","img/flower6.png","76","1039.6000000014901","3","1","3","",""
"null","","html-keyboard-response","102","350297","0.0-102.0","3HL8HNGX46NK7PKE1T6WLAD898U9F3","A1I7H6RDJS4EKN","33K3E8REWWHZ7MUV5T1222MGO9NX8Q","","","<img src=""img/flower6.png"" style=""width:200px; border:14px solid green;"">","null","","","","","",""
"1870.9000000022352","","image-keyboard-response","103","352169","0.0-103.0","3HL8HNGX46NK7PKE1T6WLAD898U9F3","A1I7H6RDJS4EKN","33K3E8REWWHZ7MUV5T1222MGO9NX8Q","","","img/flower4.png","74","1871.800000000745","1","0","1","",""
"null","","html-keyboard-response","104","352474","0.0-104.0","3HL8HNGX46NK7PKE1T6WLAD898U9F3","A1I7H6RDJS4EKN","33K3E8REWWHZ7MUV5T1222MGO9NX8Q","","","<img src=""img/flower4.png"" style=""width:200px;border:14px solid red;"">","null","","","","","",""
"1022.7999999970198","","image-keyboard-response","105","353498","0.0-105.0","3HL8HNGX46NK7PKE1T6WLAD898U9F3","A1I7H6RDJS4EKN","33K3E8REWWHZ7MUV5T1222MGO9NX8Q","","","img/flower6.png","76","1023.8999999985099","3","1","3","",""
"null","","html-keyboard-response","106","353801","0.0-106.0","3HL8HNGX46NK7PKE1T6WLAD898U9F3","A1I7H6RDJS4EKN","33K3E8REWWHZ7MUV5T1222MGO9NX8Q","","","<img src=""img/flower6.png"" style=""width:200px; border:14px solid green;"">","null","","","","","",""
"1168.4000000022352","","image-keyboard-response","107","354970","0.0-107.0","3HL8HNGX46NK7PKE1T6WLAD898U9F3","A1I7H6RDJS4EKN","33K3E8REWWHZ7MUV5T1222MGO9NX8Q","","","img/flower5.png","75","1169.199999999255","2","0","2","",""
"null","","html-keyboard-response","108","355278","0.0-108.0","3HL8HNGX46NK7PKE1T6WLAD898U9F3","A1I7H6RDJS4EKN","33K3E8REWWHZ7MUV5T1222MGO9NX8Q","","","<img src=""img/flower5.png"" style=""width:200px;border:14px solid red;"">","null","","","","","",""
"835.7000000029802","","image-keyboard-response","109","356115","0.0-109.0","3HL8HNGX46NK7PKE1T6WLAD898U9F3","A1I7H6RDJS4EKN","33K3E8REWWHZ7MUV5T1222MGO9NX8Q","","","img/flower6.png","76","836.8000000007451","3","1","3","",""
"null","","html-keyboard-response","110","356428","0.0-110.0","3HL8HNGX46NK7PKE1T6WLAD898U9F3","A1I7H6RDJS4EKN","33K3E8REWWHZ7MUV5T1222MGO9NX8Q","","","<img src=""img/flower6.png"" style=""width:200px; border:14px solid green;"">","null","","","","","",""
"1373.300000000745","","image-keyboard-response","111","357803","0.0-111.0","3HL8HNGX46NK7PKE1T6WLAD898U9F3","A1I7H6RDJS4EKN","33K3E8REWWHZ7MUV5T1222MGO9NX8Q","","","img/flower5.png","75","1374.5","2","1","2","",""
"null","","html-keyboard-response","112","358113","0.0-112.0","3HL8HNGX46NK7PKE1T6WLAD898U9F3","A1I7H6RDJS4EKN","33K3E8REWWHZ7MUV5T1222MGO9NX8Q","","","<img src=""img/flower5.png"" style=""width:200px; border:14px solid green;"">","null","","","","","",""
"1264.5","","image-keyboard-response","113","359379","0.0-113.0","3HL8HNGX46NK7PKE1T6WLAD898U9F3","A1I7H6RDJS4EKN","33K3E8REWWHZ7MUV5T1222MGO9NX8Q","","","img/flower4.png","74","1265.699999999255","1","1","1","",""
"null","","html-keyboard-response","114","359690","0.0-114.0","3HL8HNGX46NK7PKE1T6WLAD898U9F3","A1I7H6RDJS4EKN","33K3E8REWWHZ7MUV5T1222MGO9NX8Q","","","<img src=""img/flower4.png"" style=""width:200px; border:14px solid green;"">","null","","","","","",""
"1200.7999999970198","","image-keyboard-response","115","360892","0.0-115.0","3HL8HNGX46NK7PKE1T6WLAD898U9F3","A1I7H6RDJS4EKN","33K3E8REWWHZ7MUV5T1222MGO9NX8Q","","","img/flower4.png","74","1201.6000000014901","1","0","1","",""
"null","","html-keyboard-response","116","361205","0.0-116.0","3HL8HNGX46NK7PKE1T6WLAD898U9F3","A1I7H6RDJS4EKN","33K3E8REWWHZ7MUV5T1222MGO9NX8Q","","","<img src=""img/flower4.png"" style=""width:200px;border:14px solid red;"">","null","","","","","",""
"869.1000000014901","","image-keyboard-response","117","362075","0.0-117.0","3HL8HNGX46NK7PKE1T6WLAD898U9F3","A1I7H6RDJS4EKN","33K3E8REWWHZ7MUV5T1222MGO9NX8Q","","","img/flower6.png","76","870","3","1","3","",""
"null","","html-keyboard-response","118","362388","0.0-118.0","3HL8HNGX46NK7PKE1T6WLAD898U9F3","A1I7H6RDJS4EKN","33K3E8REWWHZ7MUV5T1222MGO9NX8Q","","","<img src=""img/flower6.png"" style=""width:200px; border:14px solid green;"">","null","","","","","",""
"2642.800000000745","","image-keyboard-response","119","365032","0.0-119.0","3HL8HNGX46NK7PKE1T6WLAD898U9F3","A1I7H6RDJS4EKN","33K3E8REWWHZ7MUV5T1222MGO9NX8Q","","","img/flower5.png","75","2643.699999999255","2","1","2","",""
"null","","html-keyboard-response","120","365342","0.0-120.0","3HL8HNGX46NK7PKE1T6WLAD898U9F3","A1I7H6RDJS4EKN","33K3E8REWWHZ7MUV5T1222MGO9NX8Q","","","<img src=""img/flower5.png"" style=""width:200px; border:14px solid green;"">","null","","","","","",""
"1060.1000000014901","","image-keyboard-response","121","366403","0.0-121.0","3HL8HNGX46NK7PKE1T6WLAD898U9F3","A1I7H6RDJS4EKN","33K3E8REWWHZ7MUV5T1222MGO9NX8Q","","","img/flower4.png","74","1060.8999999985099","1","0","1","",""
"null","","html-keyboard-response","122","366717","0.0-122.0","3HL8HNGX46NK7PKE1T6WLAD898U9F3","A1I7H6RDJS4EKN","33K3E8REWWHZ7MUV5T1222MGO9NX8Q","","","<img src=""img/flower4.png"" style=""width:200px;border:14px solid red;"">","null","","","","","",""
"1005","","image-keyboard-response","123","367724","0.0-123.0","3HL8HNGX46NK7PKE1T6WLAD898U9F3","A1I7H6RDJS4EKN","33K3E8REWWHZ7MUV5T1222MGO9NX8Q","","","img/flower4.png","74","1005.8999999985099","1","1","1","",""
"null","","html-keyboard-response","124","368033","0.0-124.0","3HL8HNGX46NK7PKE1T6WLAD898U9F3","A1I7H6RDJS4EKN","33K3E8REWWHZ7MUV5T1222MGO9NX8Q","","","<img src=""img/flower4.png"" style=""width:200px; border:14px solid green;"">","null","","","","","",""
"5219.400000002235","","instructions","125","373254","0.0-125.0","3HL8HNGX46NK7PKE1T6WLAD898U9F3","A1I7H6RDJS4EKN","33K3E8REWWHZ7MUV5T1222MGO9NX8Q","","[{""page_index"":0,""viewing_time"":5219}]","","","","","","","",""
"3041.89999999851","","image-keyboard-response","126","376297","0.0-126.0","3HL8HNGX46NK7PKE1T6WLAD898U9F3","A1I7H6RDJS4EKN","33K3E8REWWHZ7MUV5T1222MGO9NX8Q","","","img/flower2.png","74","3042.89999999851","1","0","3","0.7,0.2,0,0,0.7,0.2,0.2,0,0.7",""
"null","","html-keyboard-response","127","376603","0.0-127.0","3HL8HNGX46NK7PKE1T6WLAD898U9F3","A1I7H6RDJS4EKN","33K3E8REWWHZ7MUV5T1222MGO9NX8Q","","","<img src=""img/flower2.png"" style=""width:200px;border:14px solid red;"">","null","","","","","",""
"4823.79999999702","","image-keyboard-response","128","381429","0.0-128.0","3HL8HNGX46NK7PKE1T6WLAD898U9F3","A1I7H6RDJS4EKN","33K3E8REWWHZ7MUV5T1222MGO9NX8Q","","","img/flower4.png","74","4824.699999999255","1","0","1","0.7,0.2,0,0,0.7,0.2,0.2,0,0.7",""
"null","","html-keyboard-response","129","381742","0.0-129.0","3HL8HNGX46NK7PKE1T6WLAD898U9F3","A1I7H6RDJS4EKN","33K3E8REWWHZ7MUV5T1222MGO9NX8Q","","","<img src=""img/flower4.png"" style=""width:200px;border:14px solid red;"">","null","","","","","",""
"3140.900000002235","","image-keyboard-response","130","384885","0.0-130.0","3HL8HNGX46NK7PKE1T6WLAD898U9F3","A1I7H6RDJS4EKN","33K3E8REWWHZ7MUV5T1222MGO9NX8Q","","","img/flower4.png","75","3141.800000000745","2","1","1","0.7,0.2,0,0,0.7,0.2,0.2,0,0.7",""
"null","","html-keyboard-response","131","385194","0.0-131.0","3HL8HNGX46NK7PKE1T6WLAD898U9F3","A1I7H6RDJS4EKN","33K3E8REWWHZ7MUV5T1222MGO9NX8Q","","","<img src=""img/flower4.png"" style=""width:200px; border:14px solid green;"">","null","","","","","",""
"1348.800000000745","","image-keyboard-response","132","386545","0.0-132.0","3HL8HNGX46NK7PKE1T6WLAD898U9F3","A1I7H6RDJS4EKN","33K3E8REWWHZ7MUV5T1222MGO9NX8Q","","","img/flower1.png","76","1349.699999999255","3","0","2","0.7,0.2,0,0,0.7,0.2,0.2,0,0.7",""
"null","","html-keyboard-response","133","386850","0.0-133.0","3HL8HNGX46NK7PKE1T6WLAD898U9F3","A1I7H6RDJS4EKN","33K3E8REWWHZ7MUV5T1222MGO9NX8Q","","","<img src=""img/flower1.png"" style=""width:200px;border:14px solid red;"">","null","","","","","",""
"1049.199999999255","","image-keyboard-response","134","387901","0.0-134.0","3HL8HNGX46NK7PKE1T6WLAD898U9F3","A1I7H6RDJS4EKN","33K3E8REWWHZ7MUV5T1222MGO9NX8Q","","","img/flower4.png","75","1050","2","1","1","0.7,0.2,0,0,0.7,0.2,0.2,0,0.7",""
"null","","html-keyboard-response","135","388210","0.0-135.0","3HL8HNGX46NK7PKE1T6WLAD898U9F3","A1I7H6RDJS4EKN","33K3E8REWWHZ7MUV5T1222MGO9NX8Q","","","<img src=""img/flower4.png"" style=""width:200px; border:14px solid green;"">","null","","","","","",""
"992.2999999970198","","image-keyboard-response","136","389204","0.0-136.0","3HL8HNGX46NK7PKE1T6WLAD898U9F3","A1I7H6RDJS4EKN","33K3E8REWWHZ7MUV5T1222MGO9NX8Q","","","img/flower1.png","76","993.2999999970198","3","0","2","0.7,0.2,0,0,0.7,0.2,0.2,0,0.7",""
"null","","html-keyboard-response","137","389514","0.0-137.0","3HL8HNGX46NK7PKE1T6WLAD898U9F3","A1I7H6RDJS4EKN","33K3E8REWWHZ7MUV5T1222MGO9NX8Q","","","<img src=""img/flower1.png"" style=""width:200px;border:14px solid red;"">","null","","","","","",""
"840.3000000007451","","image-keyboard-response","138","390356","0.0-138.0","3HL8HNGX46NK7PKE1T6WLAD898U9F3","A1I7H6RDJS4EKN","33K3E8REWWHZ7MUV5T1222MGO9NX8Q","","","img/flower4.png","75","841.3000000007451","2","0","1","0.7,0.2,0,0,0.7,0.2,0.2,0,0.7",""
"null","","html-keyboard-response","139","390670","0.0-139.0","3HL8HNGX46NK7PKE1T6WLAD898U9F3","A1I7H6RDJS4EKN","33K3E8REWWHZ7MUV5T1222MGO9NX8Q","","","<img src=""img/flower4.png"" style=""width:200px;border:14px solid red;"">","null","","","","","",""
"2653.599999997765","","image-keyboard-response","140","393325","0.0-140.0","3HL8HNGX46NK7PKE1T6WLAD898U9F3","A1I7H6RDJS4EKN","33K3E8REWWHZ7MUV5T1222MGO9NX8Q","","","img/flower4.png","75","2654.599999997765","2","0","1","0.7,0.2,0,0,0.7,0.2,0.2,0,0.7",""
"null","","html-keyboard-response","141","393639","0.0-141.0","3HL8HNGX46NK7PKE1T6WLAD898U9F3","A1I7H6RDJS4EKN","33K3E8REWWHZ7MUV5T1222MGO9NX8Q","","","<img src=""img/flower4.png"" style=""width:200px;border:14px solid red;"">","null","","","","","",""
"1772.2999999970198","","image-keyboard-response","142","395412","0.0-142.0","3HL8HNGX46NK7PKE1T6WLAD898U9F3","A1I7H6RDJS4EKN","33K3E8REWWHZ7MUV5T1222MGO9NX8Q","","","img/flower2.png","76","1773.300000000745","3","1","3","0.7,0.2,0,0,0.7,0.2,0.2,0,0.7",""
"null","","html-keyboard-response","143","395724","0.0-143.0","3HL8HNGX46NK7PKE1T6WLAD898U9F3","A1I7H6RDJS4EKN","33K3E8REWWHZ7MUV5T1222MGO9NX8Q","","","<img src=""img/flower2.png"" style=""width:200px; border:14px solid green;"">","null","","","","","",""
"979.6999999992549","","image-keyboard-response","144","396705","0.0-144.0","3HL8HNGX46NK7PKE1T6WLAD898U9F3","A1I7H6RDJS4EKN","33K3E8REWWHZ7MUV5T1222MGO9NX8Q","","","img/flower2.png","76","980.5","3","1","3","0.7,0.2,0,0,0.7,0.2,0.2,0,0.7",""
"null","","html-keyboard-response","145","397010","0.0-145.0","3HL8HNGX46NK7PKE1T6WLAD898U9F3","A1I7H6RDJS4EKN","33K3E8REWWHZ7MUV5T1222MGO9NX8Q","","","<img src=""img/flower2.png"" style=""width:200px; border:14px solid green;"">","null","","","","","",""
"1176.9000000022352","","image-keyboard-response","146","398189","0.0-146.0","3HL8HNGX46NK7PKE1T6WLAD898U9F3","A1I7H6RDJS4EKN","33K3E8REWWHZ7MUV5T1222MGO9NX8Q","","","img/flower1.png","74","1177.9000000022352","1","0","2","0.7,0.2,0,0,0.7,0.2,0.2,0,0.7",""
"null","","html-keyboard-response","147","398499","0.0-147.0","3HL8HNGX46NK7PKE1T6WLAD898U9F3","A1I7H6RDJS4EKN","33K3E8REWWHZ7MUV5T1222MGO9NX8Q","","","<img src=""img/flower1.png"" style=""width:200px;border:14px solid red;"">","null","","","","","",""
"2065.599999997765","","image-keyboard-response","148","400566","0.0-148.0","3HL8HNGX46NK7PKE1T6WLAD898U9F3","A1I7H6RDJS4EKN","33K3E8REWWHZ7MUV5T1222MGO9NX8Q","","","img/flower4.png","74","2066.5","1","1","1","0.7,0.2,0,0,0.7,0.2,0.2,0,0.7",""
"null","","html-keyboard-response","149","400877","0.0-149.0","3HL8HNGX46NK7PKE1T6WLAD898U9F3","A1I7H6RDJS4EKN","33K3E8REWWHZ7MUV5T1222MGO9NX8Q","","","<img src=""img/flower4.png"" style=""width:200px; border:14px solid green;"">","null","","","","","",""
"933.6999999992549","","image-keyboard-response","150","401813","0.0-150.0","3HL8HNGX46NK7PKE1T6WLAD898U9F3","A1I7H6RDJS4EKN","33K3E8REWWHZ7MUV5T1222MGO9NX8Q","","","img/flower4.png","74","934.6000000014901","1","1","1","0.7,0.2,0,0,0.7,0.2,0.2,0,0.7",""
"null","","html-keyboard-response","151","402127","0.0-151.0","3HL8HNGX46NK7PKE1T6WLAD898U9F3","A1I7H6RDJS4EKN","33K3E8REWWHZ7MUV5T1222MGO9NX8Q","","","<img src=""img/flower4.png"" style=""width:200px; border:14px solid green;"">","null","","","","","",""
"1659","","image-keyboard-response","152","403787","0.0-152.0","3HL8HNGX46NK7PKE1T6WLAD898U9F3","A1I7H6RDJS4EKN","33K3E8REWWHZ7MUV5T1222MGO9NX8Q","","","img/flower2.png","76","1660","3","1","3","0.7,0.2,0,0,0.7,0.2,0.2,0,0.7",""
"null","","html-keyboard-response","153","404090","0.0-153.0","3HL8HNGX46NK7PKE1T6WLAD898U9F3","A1I7H6RDJS4EKN","33K3E8REWWHZ7MUV5T1222MGO9NX8Q","","","<img src=""img/flower2.png"" style=""width:200px; border:14px solid green;"">","null","","","","","",""
"1400.800000000745","","image-keyboard-response","154","405492","0.0-154.0","3HL8HNGX46NK7PKE1T6WLAD898U9F3","A1I7H6RDJS4EKN","33K3E8REWWHZ7MUV5T1222MGO9NX8Q","","","img/flower1.png","75","1401.9000000022352","2","1","2","0.7,0.2,0,0,0.7,0.2,0.2,0,0.7",""
"null","","html-keyboard-response","155","405796","0.0-155.0","3HL8HNGX46NK7PKE1T6WLAD898U9F3","A1I7H6RDJS4EKN","33K3E8REWWHZ7MUV5T1222MGO9NX8Q","","","<img src=""img/flower1.png"" style=""width:200px; border:14px solid green;"">","null","","","","","",""
"1035.7000000029802","","image-keyboard-response","156","406834","0.0-156.0","3HL8HNGX46NK7PKE1T6WLAD898U9F3","A1I7H6RDJS4EKN","33K3E8REWWHZ7MUV5T1222MGO9NX8Q","","","img/flower1.png","75","1036.6000000014901","2","1","2","0.7,0.2,0,0,0.7,0.2,0.2,0,0.7",""
"null","","html-keyboard-response","157","407138","0.0-157.0","3HL8HNGX46NK7PKE1T6WLAD898U9F3","A1I7H6RDJS4EKN","33K3E8REWWHZ7MUV5T1222MGO9NX8Q","","","<img src=""img/flower1.png"" style=""width:200px; border:14px solid green;"">","null","","","","","",""
"1224.2999999970198","","image-keyboard-response","158","408364","0.0-158.0","3HL8HNGX46NK7PKE1T6WLAD898U9F3","A1I7H6RDJS4EKN","33K3E8REWWHZ7MUV5T1222MGO9NX8Q","","","img/flower1.png","75","1225.3999999985099","2","1","2","0.7,0.2,0,0,0.7,0.2,0.2,0,0.7",""
"null","","html-keyboard-response","159","408670","0.0-159.0","3HL8HNGX46NK7PKE1T6WLAD898U9F3","A1I7H6RDJS4EKN","33K3E8REWWHZ7MUV5T1222MGO9NX8Q","","","<img src=""img/flower1.png"" style=""width:200px; border:14px solid green;"">","null","","","","","",""
"1181.199999999255","","image-keyboard-response","160","409853","0.0-160.0","3HL8HNGX46NK7PKE1T6WLAD898U9F3","A1I7H6RDJS4EKN","33K3E8REWWHZ7MUV5T1222MGO9NX8Q","","","img/flower2.png","76","1182.0999999977648","3","1","3","0.7,0.2,0,0,0.7,0.2,0.2,0,0.7",""
"null","","html-keyboard-response","161","410162","0.0-161.0","3HL8HNGX46NK7PKE1T6WLAD898U9F3","A1I7H6RDJS4EKN","33K3E8REWWHZ7MUV5T1222MGO9NX8Q","","","<img src=""img/flower2.png"" style=""width:200px; border:14px solid green;"">","null","","","","","",""
"584.3000000007451","","image-keyboard-response","162","410748","0.0-162.0","3HL8HNGX46NK7PKE1T6WLAD898U9F3","A1I7H6RDJS4EKN","33K3E8REWWHZ7MUV5T1222MGO9NX8Q","","","img/flower2.png","76","585.1999999992549","3","1","3","0.7,0.2,0,0,0.7,0.2,0.2,0,0.7",""
"null","","html-keyboard-response","163","411054","0.0-163.0","3HL8HNGX46NK7PKE1T6WLAD898U9F3","A1I7H6RDJS4EKN","33K3E8REWWHZ7MUV5T1222MGO9NX8Q","","","<img src=""img/flower2.png"" style=""width:200px; border:14px solid green;"">","null","","","","","",""
"925.1999999992549","","image-keyboard-response","164","411980","0.0-164.0","3HL8HNGX46NK7PKE1T6WLAD898U9F3","A1I7H6RDJS4EKN","33K3E8REWWHZ7MUV5T1222MGO9NX8Q","","","img/flower4.png","74","926.1999999992549","1","1","1","0.7,0.2,0,0,0.7,0.2,0.2,0,0.7",""
"null","","html-keyboard-response","165","412293","0.0-165.0","3HL8HNGX46NK7PKE1T6WLAD898U9F3","A1I7H6RDJS4EKN","33K3E8REWWHZ7MUV5T1222MGO9NX8Q","","","<img src=""img/flower4.png"" style=""width:200px; border:14px solid green;"">","null","","","","","",""
"830.5","","image-keyboard-response","166","413125","0.0-166.0","3HL8HNGX46NK7PKE1T6WLAD898U9F3","A1I7H6RDJS4EKN","33K3E8REWWHZ7MUV5T1222MGO9NX8Q","","","img/flower4.png","74","831.6000000014901","1","1","1","0.7,0.2,0,0,0.7,0.2,0.2,0,0.7",""
"null","","html-keyboard-response","167","413439","0.0-167.0","3HL8HNGX46NK7PKE1T6WLAD898U9F3","A1I7H6RDJS4EKN","33K3E8REWWHZ7MUV5T1222MGO9NX8Q","","","<img src=""img/flower4.png"" style=""width:200px; border:14px solid green;"">","null","","","","","",""
"3171","","image-keyboard-response","168","416612","0.0-168.0","3HL8HNGX46NK7PKE1T6WLAD898U9F3","A1I7H6RDJS4EKN","33K3E8REWWHZ7MUV5T1222MGO9NX8Q","","","img/flower1.png","75","3171.89999999851","2","1","2","0.7,0.2,0,0,0.7,0.2,0.2,0,0.7",""
"null","","html-keyboard-response","169","416917","0.0-169.0","3HL8HNGX46NK7PKE1T6WLAD898U9F3","A1I7H6RDJS4EKN","33K3E8REWWHZ7MUV5T1222MGO9NX8Q","","","<img src=""img/flower1.png"" style=""width:200px; border:14px solid green;"">","null","","","","","",""
"954.6999999992549","","image-keyboard-response","170","417874","0.0-170.0","3HL8HNGX46NK7PKE1T6WLAD898U9F3","A1I7H6RDJS4EKN","33K3E8REWWHZ7MUV5T1222MGO9NX8Q","","","img/flower1.png","75","955.9000000022352","2","0","2","0.7,0.2,0,0,0.7,0.2,0.2,0,0.7",""
"null","","html-keyboard-response","171","418183","0.0-171.0","3HL8HNGX46NK7PKE1T6WLAD898U9F3","A1I7H6RDJS4EKN","33K3E8REWWHZ7MUV5T1222MGO9NX8Q","","","<img src=""img/flower1.png"" style=""width:200px;border:14px solid red;"">","null","","","","","",""
"747.1000000014901","","image-keyboard-response","172","418932","0.0-172.0","3HL8HNGX46NK7PKE1T6WLAD898U9F3","A1I7H6RDJS4EKN","33K3E8REWWHZ7MUV5T1222MGO9NX8Q","","","img/flower2.png","76","748.0999999977648","3","1","3","0.7,0.2,0,0,0.7,0.2,0.2,0,0.7",""
"null","","html-keyboard-response","173","419239","0.0-173.0","3HL8HNGX46NK7PKE1T6WLAD898U9F3","A1I7H6RDJS4EKN","33K3E8REWWHZ7MUV5T1222MGO9NX8Q","","","<img src=""img/flower2.png"" style=""width:200px; border:14px solid green;"">","null","","","","","",""
"620","","image-keyboard-response","174","419860","0.0-174.0","3HL8HNGX46NK7PKE1T6WLAD898U9F3","A1I7H6RDJS4EKN","33K3E8REWWHZ7MUV5T1222MGO9NX8Q","","","img/flower2.png","76","620.8000000007451","3","0","3","0.7,0.2,0,0,0.7,0.2,0.2,0,0.7",""
"null","","html-keyboard-response","175","420162","0.0-175.0","3HL8HNGX46NK7PKE1T6WLAD898U9F3","A1I7H6RDJS4EKN","33K3E8REWWHZ7MUV5T1222MGO9NX8Q","","","<img src=""img/flower2.png"" style=""width:200px;border:14px solid red;"">","null","","","","","",""
"793.3000000007451","","image-keyboard-response","176","420957","0.0-176.0","3HL8HNGX46NK7PKE1T6WLAD898U9F3","A1I7H6RDJS4EKN","33K3E8REWWHZ7MUV5T1222MGO9NX8Q","","","img/flower1.png","75","794.5","2","1","2","0.7,0.2,0,0,0.7,0.2,0.2,0,0.7",""
"null","","html-keyboard-response","177","421267","0.0-177.0","3HL8HNGX46NK7PKE1T6WLAD898U9F3","A1I7H6RDJS4EKN","33K3E8REWWHZ7MUV5T1222MGO9NX8Q","","","<img src=""img/flower1.png"" style=""width:200px; border:14px solid green;"">","null","","","","","",""
"921.3000000007451","","image-keyboard-response","178","422190","0.0-178.0","3HL8HNGX46NK7PKE1T6WLAD898U9F3","A1I7H6RDJS4EKN","33K3E8REWWHZ7MUV5T1222MGO9NX8Q","","","img/flower2.png","76","922.1999999992549","3","1","3","0.7,0.2,0,0,0.7,0.2,0.2,0,0.7",""
"null","","html-keyboard-response","179","422498","0.0-179.0","3HL8HNGX46NK7PKE1T6WLAD898U9F3","A1I7H6RDJS4EKN","33K3E8REWWHZ7MUV5T1222MGO9NX8Q","","","<img src=""img/flower2.png"" style=""width:200px; border:14px solid green;"">","null","","","","","",""
"896.8000000007451","","image-keyboard-response","180","423397","0.0-180.0","3HL8HNGX46NK7PKE1T6WLAD898U9F3","A1I7H6RDJS4EKN","33K3E8REWWHZ7MUV5T1222MGO9NX8Q","","","img/flower4.png","74","897.8000000007451","1","1","1","0.7,0.2,0,0,0.7,0.2,0.2,0,0.7",""
"null","","html-keyboard-response","181","423707","0.0-181.0","3HL8HNGX46NK7PKE1T6WLAD898U9F3","A1I7H6RDJS4EKN","33K3E8REWWHZ7MUV5T1222MGO9NX8Q","","","<img src=""img/flower4.png"" style=""width:200px; border:14px solid green;"">","null","","","","","",""
"1183.800000000745","","image-keyboard-response","182","424892","0.0-182.0","3HL8HNGX46NK7PKE1T6WLAD898U9F3","A1I7H6RDJS4EKN","33K3E8REWWHZ7MUV5T1222MGO9NX8Q","","","img/flower2.png","76","1184.699999999255","3","1","3","0.7,0.2,0,0,0.7,0.2,0.2,0,0.7",""
"null","","html-keyboard-response","183","425200","0.0-183.0","3HL8HNGX46NK7PKE1T6WLAD898U9F3","A1I7H6RDJS4EKN","33K3E8REWWHZ7MUV5T1222MGO9NX8Q","","","<img src=""img/flower2.png"" style=""width:200px; border:14px solid green;"">","null","","","","","",""
"2491.199999999255","","image-keyboard-response","184","427692","0.0-184.0","3HL8HNGX46NK7PKE1T6WLAD898U9F3","A1I7H6RDJS4EKN","33K3E8REWWHZ7MUV5T1222MGO9NX8Q","","","img/flower4.png","74","2492.199999999255","1","1","1","0.7,0.2,0,0,0.7,0.2,0.2,0,0.7",""
"null","","html-keyboard-response","185","427996","0.0-185.0","3HL8HNGX46NK7PKE1T6WLAD898U9F3","A1I7H6RDJS4EKN","33K3E8REWWHZ7MUV5T1222MGO9NX8Q","","","<img src=""img/flower4.png"" style=""width:200px; border:14px solid green;"">","null","","","","","",""
"1052.8999999985099","","image-keyboard-response","186","429050","0.0-186.0","3HL8HNGX46NK7PKE1T6WLAD898U9F3","A1I7H6RDJS4EKN","33K3E8REWWHZ7MUV5T1222MGO9NX8Q","","","img/flower2.png","76","1053.9000000022352","3","1","3","0.7,0.2,0,0,0.7,0.2,0.2,0,0.7",""
"null","","html-keyboard-response","187","429358","0.0-187.0","3HL8HNGX46NK7PKE1T6WLAD898U9F3","A1I7H6RDJS4EKN","33K3E8REWWHZ7MUV5T1222MGO9NX8Q","","","<img src=""img/flower2.png"" style=""width:200px; border:14px solid green;"">","null","","","","","",""
"796.8000000007451","","image-keyboard-response","188","430156","0.0-188.0","3HL8HNGX46NK7PKE1T6WLAD898U9F3","A1I7H6RDJS4EKN","33K3E8REWWHZ7MUV5T1222MGO9NX8Q","","","img/flower1.png","75","797.7000000029802","2","0","2","0.7,0.2,0,0,0.7,0.2,0.2,0,0.7",""
"null","","html-keyboard-response","189","430463","0.0-189.0","3HL8HNGX46NK7PKE1T6WLAD898U9F3","A1I7H6RDJS4EKN","33K3E8REWWHZ7MUV5T1222MGO9NX8Q","","","<img src=""img/flower1.png"" style=""width:200px;border:14px solid red;"">","null","","","","","",""
"932.8999999985099","","image-keyboard-response","190","431398","0.0-190.0","3HL8HNGX46NK7PKE1T6WLAD898U9F3","A1I7H6RDJS4EKN","33K3E8REWWHZ7MUV5T1222MGO9NX8Q","","","img/flower2.png","76","933.7999999970198","3","0","3","0.7,0.2,0,0,0.7,0.2,0.2,0,0.7",""
"null","","html-keyboard-response","191","431708","0.0-191.0","3HL8HNGX46NK7PKE1T6WLAD898U9F3","A1I7H6RDJS4EKN","33K3E8REWWHZ7MUV5T1222MGO9NX8Q","","","<img src=""img/flower2.png"" style=""width:200px;border:14px solid red;"">","null","","","","","",""
"1039.6000000014901","","image-keyboard-response","192","432749","0.0-192.0","3HL8HNGX46NK7PKE1T6WLAD898U9F3","A1I7H6RDJS4EKN","33K3E8REWWHZ7MUV5T1222MGO9NX8Q","","","img/flower2.png","76","1040.5","3","0","3","0.7,0.2,0,0,0.7,0.2,0.2,0,0.7",""
"null","","html-keyboard-response","193","433064","0.0-193.0","3HL8HNGX46NK7PKE1T6WLAD898U9F3","A1I7H6RDJS4EKN","33K3E8REWWHZ7MUV5T1222MGO9NX8Q","","","<img src=""img/flower2.png"" style=""width:200px;border:14px solid red;"">","null","","","","","",""
"876.1999999992549","","image-keyboard-response","194","433941","0.0-194.0","3HL8HNGX46NK7PKE1T6WLAD898U9F3","A1I7H6RDJS4EKN","33K3E8REWWHZ7MUV5T1222MGO9NX8Q","","","img/flower1.png","75","877","2","1","2","0.7,0.2,0,0,0.7,0.2,0.2,0,0.7",""
"null","","html-keyboard-response","195","434255","0.0-195.0","3HL8HNGX46NK7PKE1T6WLAD898U9F3","A1I7H6RDJS4EKN","33K3E8REWWHZ7MUV5T1222MGO9NX8Q","","","<img src=""img/flower1.png"" style=""width:200px; border:14px solid green;"">","null","","","","","",""
"620.5","","image-keyboard-response","196","434877","0.0-196.0","3HL8HNGX46NK7PKE1T6WLAD898U9F3","A1I7H6RDJS4EKN","33K3E8REWWHZ7MUV5T1222MGO9NX8Q","","","img/flower1.png","75","621.5999999977648","2","0","2","0.7,0.2,0,0,0.7,0.2,0.2,0,0.7",""
"null","","html-keyboard-response","197","435192","0.0-197.0","3HL8HNGX46NK7PKE1T6WLAD898U9F3","A1I7H6RDJS4EKN","33K3E8REWWHZ7MUV5T1222MGO9NX8Q","","","<img src=""img/flower1.png"" style=""width:200px;border:14px solid red;"">","null","","","","","",""
"780.3999999985099","","image-keyboard-response","198","435974","0.0-198.0","3HL8HNGX46NK7PKE1T6WLAD898U9F3","A1I7H6RDJS4EKN","33K3E8REWWHZ7MUV5T1222MGO9NX8Q","","","img/flower4.png","74","781.2999999970198","1","1","1","0.7,0.2,0,0,0.7,0.2,0.2,0,0.7",""
"null","","html-keyboard-response","199","436287","0.0-199.0","3HL8HNGX46NK7PKE1T6WLAD898U9F3","A1I7H6RDJS4EKN","33K3E8REWWHZ7MUV5T1222MGO9NX8Q","","","<img src=""img/flower4.png"" style=""width:200px; border:14px solid green;"">","null","","","","","",""
"1555.6000000014901","","image-keyboard-response","200","437844","0.0-200.0","3HL8HNGX46NK7PKE1T6WLAD898U9F3","A1I7H6RDJS4EKN","33K3E8REWWHZ7MUV5T1222MGO9NX8Q","","","img/flower1.png","74","1556.7000000029802","1","0","2","0.7,0.2,0,0,0.7,0.2,0.2,0,0.7",""
"null","","html-keyboard-response","201","438155","0.0-201.0","3HL8HNGX46NK7PKE1T6WLAD898U9F3","A1I7H6RDJS4EKN","33K3E8REWWHZ7MUV5T1222MGO9NX8Q","","","<img src=""img/flower1.png"" style=""width:200px;border:14px solid red;"">","null","","","","","",""
"641.5999999977648","","image-keyboard-response","202","438797","0.0-202.0","3HL8HNGX46NK7PKE1T6WLAD898U9F3","A1I7H6RDJS4EKN","33K3E8REWWHZ7MUV5T1222MGO9NX8Q","","","img/flower1.png","76","642.3999999985099","3","0","2","0.7,0.2,0,0,0.7,0.2,0.2,0,0.7",""
"null","","html-keyboard-response","203","439109","0.0-203.0","3HL8HNGX46NK7PKE1T6WLAD898U9F3","A1I7H6RDJS4EKN","33K3E8REWWHZ7MUV5T1222MGO9NX8Q","","","<img src=""img/flower1.png"" style=""width:200px;border:14px solid red;"">","null","","","","","",""
"733.3000000007451","","image-keyboard-response","204","439843","0.0-204.0","3HL8HNGX46NK7PKE1T6WLAD898U9F3","A1I7H6RDJS4EKN","33K3E8REWWHZ7MUV5T1222MGO9NX8Q","","","img/flower4.png","75","734.1999999992549","2","0","1","0.7,0.2,0,0,0.7,0.2,0.2,0,0.7",""
"null","","html-keyboard-response","205","440148","0.0-205.0","3HL8HNGX46NK7PKE1T6WLAD898U9F3","A1I7H6RDJS4EKN","33K3E8REWWHZ7MUV5T1222MGO9NX8Q","","","<img src=""img/flower4.png"" style=""width:200px;border:14px solid red;"">","null","","","","","",""
"864.1999999992549","","image-keyboard-response","206","441014","0.0-206.0","3HL8HNGX46NK7PKE1T6WLAD898U9F3","A1I7H6RDJS4EKN","33K3E8REWWHZ7MUV5T1222MGO9NX8Q","","","img/flower4.png","75","865.0999999977648","2","0","1","0.7,0.2,0,0,0.7,0.2,0.2,0,0.7",""
"null","","html-keyboard-response","207","441326","0.0-207.0","3HL8HNGX46NK7PKE1T6WLAD898U9F3","A1I7H6RDJS4EKN","33K3E8REWWHZ7MUV5T1222MGO9NX8Q","","","<img src=""img/flower4.png"" style=""width:200px;border:14px solid red;"">","null","","","","","",""
"2406","","image-keyboard-response","208","443734","0.0-208.0","3HL8HNGX46NK7PKE1T6WLAD898U9F3","A1I7H6RDJS4EKN","33K3E8REWWHZ7MUV5T1222MGO9NX8Q","","","img/flower1.png","74","2407","1","0","2","0.7,0.2,0,0,0.7,0.2,0.2,0,0.7",""
"null","","html-keyboard-response","209","444048","0.0-209.0","3HL8HNGX46NK7PKE1T6WLAD898U9F3","A1I7H6RDJS4EKN","33K3E8REWWHZ7MUV5T1222MGO9NX8Q","","","<img src=""img/flower1.png"" style=""width:200px;border:14px solid red;"">","null","","","","","",""
"3700.699999999255","","image-keyboard-response","210","447750","0.0-210.0","3HL8HNGX46NK7PKE1T6WLAD898U9F3","A1I7H6RDJS4EKN","33K3E8REWWHZ7MUV5T1222MGO9NX8Q","","","img/flower1.png","75","3701.60000000149","2","0","2","0.7,0.2,0,0,0.7,0.2,0.2,0,0.7",""
"null","","html-keyboard-response","211","448063","0.0-211.0","3HL8HNGX46NK7PKE1T6WLAD898U9F3","A1I7H6RDJS4EKN","33K3E8REWWHZ7MUV5T1222MGO9NX8Q","","","<img src=""img/flower1.png"" style=""width:200px;border:14px solid red;"">","null","","","","","",""
"524.1000000014901","","image-keyboard-response","212","448588","0.0-212.0","3HL8HNGX46NK7PKE1T6WLAD898U9F3","A1I7H6RDJS4EKN","33K3E8REWWHZ7MUV5T1222MGO9NX8Q","","","img/flower1.png","76","525.1000000014901","3","0","2","0.7,0.2,0,0,0.7,0.2,0.2,0,0.7",""
"null","","html-keyboard-response","213","448895","0.0-213.0","3HL8HNGX46NK7PKE1T6WLAD898U9F3","A1I7H6RDJS4EKN","33K3E8REWWHZ7MUV5T1222MGO9NX8Q","","","<img src=""img/flower1.png"" style=""width:200px;border:14px solid red;"">","null","","","","","",""
"877.8000000007451","","image-keyboard-response","214","449774","0.0-214.0","3HL8HNGX46NK7PKE1T6WLAD898U9F3","A1I7H6RDJS4EKN","33K3E8REWWHZ7MUV5T1222MGO9NX8Q","","","img/flower2.png","76","878.6000000014901","3","1","3","0.7,0.2,0,0,0.7,0.2,0.2,0,0.7",""
"null","","html-keyboard-response","215","450087","0.0-215.0","3HL8HNGX46NK7PKE1T6WLAD898U9F3","A1I7H6RDJS4EKN","33K3E8REWWHZ7MUV5T1222MGO9NX8Q","","","<img src=""img/flower2.png"" style=""width:200px; border:14px solid green;"">","null","","","","","",""
"882","","image-keyboard-response","216","450971","0.0-216.0","3HL8HNGX46NK7PKE1T6WLAD898U9F3","A1I7H6RDJS4EKN","33K3E8REWWHZ7MUV5T1222MGO9NX8Q","","","img/flower4.png","74","883","1","0","1","0.7,0.2,0,0,0.7,0.2,0.2,0,0.7",""
"null","","html-keyboard-response","217","451275","0.0-217.0","3HL8HNGX46NK7PKE1T6WLAD898U9F3","A1I7H6RDJS4EKN","33K3E8REWWHZ7MUV5T1222MGO9NX8Q","","","<img src=""img/flower4.png"" style=""width:200px;border:14px solid red;"">","null","","","","","",""
"848.3999999985099","","image-keyboard-response","218","452125","0.0-218.0","3HL8HNGX46NK7PKE1T6WLAD898U9F3","A1I7H6RDJS4EKN","33K3E8REWWHZ7MUV5T1222MGO9NX8Q","","","img/flower2.png","76","849.3000000007451","3","1","3","0.7,0.2,0,0,0.7,0.2,0.2,0,0.7",""
"null","","html-keyboard-response","219","452429","0.0-219.0","3HL8HNGX46NK7PKE1T6WLAD898U9F3","A1I7H6RDJS4EKN","33K3E8REWWHZ7MUV5T1222MGO9NX8Q","","","<img src=""img/flower2.png"" style=""width:200px; border:14px solid green;"">","null","","","","","",""
"1063","","image-keyboard-response","220","453494","0.0-220.0","3HL8HNGX46NK7PKE1T6WLAD898U9F3","A1I7H6RDJS4EKN","33K3E8REWWHZ7MUV5T1222MGO9NX8Q","","","img/flower2.png","76","1063.9000000022352","3","1","3","0.7,0.2,0,0,0.7,0.2,0.2,0,0.7",""
"null","","html-keyboard-response","221","453799","0.0-221.0","3HL8HNGX46NK7PKE1T6WLAD898U9F3","A1I7H6RDJS4EKN","33K3E8REWWHZ7MUV5T1222MGO9NX8Q","","","<img src=""img/flower2.png"" style=""width:200px; border:14px solid green;"">","null","","","","","",""
"1132.3999999985099","","image-keyboard-response","222","454933","0.0-222.0","3HL8HNGX46NK7PKE1T6WLAD898U9F3","A1I7H6RDJS4EKN","33K3E8REWWHZ7MUV5T1222MGO9NX8Q","","","img/flower4.png","74","1133.5","1","1","1","0.7,0.2,0,0,0.7,0.2,0.2,0,0.7",""
"null","","html-keyboard-response","223","455239","0.0-223.0","3HL8HNGX46NK7PKE1T6WLAD898U9F3","A1I7H6RDJS4EKN","33K3E8REWWHZ7MUV5T1222MGO9NX8Q","","","<img src=""img/flower4.png"" style=""width:200px; border:14px solid green;"">","null","","","","","",""
"828.6999999992549","","image-keyboard-response","224","456069","0.0-224.0","3HL8HNGX46NK7PKE1T6WLAD898U9F3","A1I7H6RDJS4EKN","33K3E8REWWHZ7MUV5T1222MGO9NX8Q","","","img/flower2.png","76","829.6999999992549","3","0","3","0.7,0.2,0,0,0.7,0.2,0.2,0,0.7",""
"null","","html-keyboard-response","225","456371","0.0-225.0","3HL8HNGX46NK7PKE1T6WLAD898U9F3","A1I7H6RDJS4EKN","33K3E8REWWHZ7MUV5T1222MGO9NX8Q","","","<img src=""img/flower2.png"" style=""width:200px;border:14px solid red;"">","null","","","","","",""
"688.8000000007451","","image-keyboard-response","226","457061","0.0-226.0","3HL8HNGX46NK7PKE1T6WLAD898U9F3","A1I7H6RDJS4EKN","33K3E8REWWHZ7MUV5T1222MGO9NX8Q","","","img/flower4.png","74","689.7000000029802","1","0","1","0.7,0.2,0,0,0.7,0.2,0.2,0,0.7",""
"null","","html-keyboard-response","227","457366","0.0-227.0","3HL8HNGX46NK7PKE1T6WLAD898U9F3","A1I7H6RDJS4EKN","33K3E8REWWHZ7MUV5T1222MGO9NX8Q","","","<img src=""img/flower4.png"" style=""width:200px;border:14px solid red;"">","null","","","","","",""
"1230.2999999970198","","image-keyboard-response","228","458598","0.0-228.0","3HL8HNGX46NK7PKE1T6WLAD898U9F3","A1I7H6RDJS4EKN","33K3E8REWWHZ7MUV5T1222MGO9NX8Q","","","img/flower4.png","74","1231.2999999970198","1","1","1","0.7,0.2,0,0,0.7,0.2,0.2,0,0.7",""
"null","","html-keyboard-response","229","458908","0.0-229.0","3HL8HNGX46NK7PKE1T6WLAD898U9F3","A1I7H6RDJS4EKN","33K3E8REWWHZ7MUV5T1222MGO9NX8Q","","","<img src=""img/flower4.png"" style=""width:200px; border:14px solid green;"">","null","","","","","",""
"960.6000000014901","","image-keyboard-response","230","459870","0.0-230.0","3HL8HNGX46NK7PKE1T6WLAD898U9F3","A1I7H6RDJS4EKN","33K3E8REWWHZ7MUV5T1222MGO9NX8Q","","","img/flower4.png","74","961.5","1","1","1","0.7,0.2,0,0,0.7,0.2,0.2,0,0.7",""
"null","","html-keyboard-response","231","460183","0.0-231.0","3HL8HNGX46NK7PKE1T6WLAD898U9F3","A1I7H6RDJS4EKN","33K3E8REWWHZ7MUV5T1222MGO9NX8Q","","","<img src=""img/flower4.png"" style=""width:200px; border:14px solid green;"">","null","","","","","",""
"954.2000000029802","","image-keyboard-response","232","461140","0.0-232.0","3HL8HNGX46NK7PKE1T6WLAD898U9F3","A1I7H6RDJS4EKN","33K3E8REWWHZ7MUV5T1222MGO9NX8Q","","","img/flower4.png","74","955.4000000022352","1","0","1","0.7,0.2,0,0,0.7,0.2,0.2,0,0.7",""
"null","","html-keyboard-response","233","461444","0.0-233.0","3HL8HNGX46NK7PKE1T6WLAD898U9F3","A1I7H6RDJS4EKN","33K3E8REWWHZ7MUV5T1222MGO9NX8Q","","","<img src=""img/flower4.png"" style=""width:200px;border:14px solid red;"">","null","","","","","",""
"1033.4000000022352","","image-keyboard-response","234","462478","0.0-234.0","3HL8HNGX46NK7PKE1T6WLAD898U9F3","A1I7H6RDJS4EKN","33K3E8REWWHZ7MUV5T1222MGO9NX8Q","","","img/flower1.png","75","1034.300000000745","2","0","2","0.7,0.2,0,0,0.7,0.2,0.2,0,0.7",""
"null","","html-keyboard-response","235","462788","0.0-235.0","3HL8HNGX46NK7PKE1T6WLAD898U9F3","A1I7H6RDJS4EKN","33K3E8REWWHZ7MUV5T1222MGO9NX8Q","","","<img src=""img/flower1.png"" style=""width:200px;border:14px solid red;"">","null","","","","","",""
"671.3000000007451","","image-keyboard-response","236","463461","0.0-236.0","3HL8HNGX46NK7PKE1T6WLAD898U9F3","A1I7H6RDJS4EKN","33K3E8REWWHZ7MUV5T1222MGO9NX8Q","","","img/flower4.png","76","672.3999999985099","3","0","1","0.7,0.2,0,0,0.7,0.2,0.2,0,0.7",""
"null","","html-keyboard-response","237","463767","0.0-237.0","3HL8HNGX46NK7PKE1T6WLAD898U9F3","A1I7H6RDJS4EKN","33K3E8REWWHZ7MUV5T1222MGO9NX8Q","","","<img src=""img/flower4.png"" style=""width:200px;border:14px solid red;"">","null","","","","","",""
"851.6999999992549","","image-keyboard-response","238","464621","0.0-238.0","3HL8HNGX46NK7PKE1T6WLAD898U9F3","A1I7H6RDJS4EKN","33K3E8REWWHZ7MUV5T1222MGO9NX8Q","","","img/flower2.png","76","852.5999999977648","3","0","3","0.7,0.2,0,0,0.7,0.2,0.2,0,0.7",""
"null","","html-keyboard-response","239","464923","0.0-239.0","3HL8HNGX46NK7PKE1T6WLAD898U9F3","A1I7H6RDJS4EKN","33K3E8REWWHZ7MUV5T1222MGO9NX8Q","","","<img src=""img/flower2.png"" style=""width:200px;border:14px solid red;"">","null","","","","","",""
"2528.900000002235","","image-keyboard-response","240","467453","0.0-240.0","3HL8HNGX46NK7PKE1T6WLAD898U9F3","A1I7H6RDJS4EKN","33K3E8REWWHZ7MUV5T1222MGO9NX8Q","","","img/flower1.png","75","2530","2","1","2","0.7,0.2,0,0,0.7,0.2,0.2,0,0.7",""
"null","","html-keyboard-response","241","467757","0.0-241.0","3HL8HNGX46NK7PKE1T6WLAD898U9F3","A1I7H6RDJS4EKN","33K3E8REWWHZ7MUV5T1222MGO9NX8Q","","","<img src=""img/flower1.png"" style=""width:200px; border:14px solid green;"">","null","","","","","",""
"1700.300000000745","","image-keyboard-response","242","469459","0.0-242.0","3HL8HNGX46NK7PKE1T6WLAD898U9F3","A1I7H6RDJS4EKN","33K3E8REWWHZ7MUV5T1222MGO9NX8Q","","","img/flower1.png","75","1701.5","2","1","2","0.7,0.2,0,0,0.7,0.2,0.2,0,0.7",""
"null","","html-keyboard-response","243","469768","0.0-243.0","3HL8HNGX46NK7PKE1T6WLAD898U9F3","A1I7H6RDJS4EKN","33K3E8REWWHZ7MUV5T1222MGO9NX8Q","","","<img src=""img/flower1.png"" style=""width:200px; border:14px solid green;"">","null","","","","","",""
"900.1000000014901","","image-keyboard-response","244","470670","0.0-244.0","3HL8HNGX46NK7PKE1T6WLAD898U9F3","A1I7H6RDJS4EKN","33K3E8REWWHZ7MUV5T1222MGO9NX8Q","","","img/flower2.png","76","901.2000000029802","3","0","3","0.7,0.2,0,0,0.7,0.2,0.2,0,0.7",""
"null","","html-keyboard-response","245","470973","0.0-245.0","3HL8HNGX46NK7PKE1T6WLAD898U9F3","A1I7H6RDJS4EKN","33K3E8REWWHZ7MUV5T1222MGO9NX8Q","","","<img src=""img/flower2.png"" style=""width:200px;border:14px solid red;"">","null","","","","","",""
"1542","","image-keyboard-response","246","472517","0.0-246.0","3HL8HNGX46NK7PKE1T6WLAD898U9F3","A1I7H6RDJS4EKN","33K3E8REWWHZ7MUV5T1222MGO9NX8Q","","","img/flower1.png","75","1543.0999999977648","2","1","2","0.7,0.2,0,0,0.7,0.2,0.2,0,0.7",""
"null","","html-keyboard-response","247","472821","0.0-247.0","3HL8HNGX46NK7PKE1T6WLAD898U9F3","A1I7H6RDJS4EKN","33K3E8REWWHZ7MUV5T1222MGO9NX8Q","","","<img src=""img/flower1.png"" style=""width:200px; border:14px solid green;"">","null","","","","","",""
"1296.1000000014901","","image-keyboard-response","248","474118","0.0-248.0","3HL8HNGX46NK7PKE1T6WLAD898U9F3","A1I7H6RDJS4EKN","33K3E8REWWHZ7MUV5T1222MGO9NX8Q","","","img/flower2.png","76","1297.0999999977648","3","1","3","0.7,0.2,0,0,0.7,0.2,0.2,0,0.7",""
"null","","html-keyboard-response","249","474428","0.0-249.0","3HL8HNGX46NK7PKE1T6WLAD898U9F3","A1I7H6RDJS4EKN","33K3E8REWWHZ7MUV5T1222MGO9NX8Q","","","<img src=""img/flower2.png"" style=""width:200px; border:14px solid green;"">","null","","","","","",""
"1416.0999999977648","","image-keyboard-response","250","475845","0.0-250.0","3HL8HNGX46NK7PKE1T6WLAD898U9F3","A1I7H6RDJS4EKN","33K3E8REWWHZ7MUV5T1222MGO9NX8Q","","","img/flower2.png","76","1417.1000000014901","3","1","3","0.7,0.2,0,0,0.7,0.2,0.2,0,0.7",""
"null","","html-keyboard-response","251","476151","0.0-251.0","3HL8HNGX46NK7PKE1T6WLAD898U9F3","A1I7H6RDJS4EKN","33K3E8REWWHZ7MUV5T1222MGO9NX8Q","","","<img src=""img/flower2.png"" style=""width:200px; border:14px solid green;"">","null","","","","","",""
"1101.5","","image-keyboard-response","252","477254","0.0-252.0","3HL8HNGX46NK7PKE1T6WLAD898U9F3","A1I7H6RDJS4EKN","33K3E8REWWHZ7MUV5T1222MGO9NX8Q","","","img/flower4.png","74","1102.2999999970198","1","1","1","0.7,0.2,0,0,0.7,0.2,0.2,0,0.7",""
"null","","html-keyboard-response","253","477568","0.0-253.0","3HL8HNGX46NK7PKE1T6WLAD898U9F3","A1I7H6RDJS4EKN","33K3E8REWWHZ7MUV5T1222MGO9NX8Q","","","<img src=""img/flower4.png"" style=""width:200px; border:14px solid green;"">","null","","","","","",""
"1596.5","","image-keyboard-response","254","479167","0.0-254.0","3HL8HNGX46NK7PKE1T6WLAD898U9F3","A1I7H6RDJS4EKN","33K3E8REWWHZ7MUV5T1222MGO9NX8Q","","","img/flower1.png","75","1598","2","0","2","0.7,0.2,0,0,0.7,0.2,0.2,0,0.7",""
"null","","html-keyboard-response","255","479469","0.0-255.0","3HL8HNGX46NK7PKE1T6WLAD898U9F3","A1I7H6RDJS4EKN","33K3E8REWWHZ7MUV5T1222MGO9NX8Q","","","<img src=""img/flower1.png"" style=""width:200px;border:14px solid red;"">","null","","","","","",""
"1102.7000000029802","","image-keyboard-response","256","480574","0.0-256.0","3HL8HNGX46NK7PKE1T6WLAD898U9F3","A1I7H6RDJS4EKN","33K3E8REWWHZ7MUV5T1222MGO9NX8Q","","","img/flower1.png","75","1103.6000000014901","2","1","2","0.7,0.2,0,0,0.7,0.2,0.2,0,0.7",""
"null","","html-keyboard-response","257","480877","0.0-257.0","3HL8HNGX46NK7PKE1T6WLAD898U9F3","A1I7H6RDJS4EKN","33K3E8REWWHZ7MUV5T1222MGO9NX8Q","","","<img src=""img/flower1.png"" style=""width:200px; border:14px solid green;"">","null","","","","","",""
"904.3999999985099","","image-keyboard-response","258","481783","0.0-258.0","3HL8HNGX46NK7PKE1T6WLAD898U9F3","A1I7H6RDJS4EKN","33K3E8REWWHZ7MUV5T1222MGO9NX8Q","","","img/flower2.png","76","905.6999999992549","3","0","3","0.7,0.2,0,0,0.7,0.2,0.2,0,0.7",""
"null","","html-keyboard-response","259","482093","0.0-259.0","3HL8HNGX46NK7PKE1T6WLAD898U9F3","A1I7H6RDJS4EKN","33K3E8REWWHZ7MUV5T1222MGO9NX8Q","","","<img src=""img/flower2.png"" style=""width:200px;border:14px solid red;"">","null","","","","","",""
"926.6000000014901","","image-keyboard-response","260","483021","0.0-260.0","3HL8HNGX46NK7PKE1T6WLAD898U9F3","A1I7H6RDJS4EKN","33K3E8REWWHZ7MUV5T1222MGO9NX8Q","","","img/flower2.png","76","927.3999999985099","3","0","3","0.7,0.2,0,0,0.7,0.2,0.2,0,0.7",""
"null","","html-keyboard-response","261","483327","0.0-261.0","3HL8HNGX46NK7PKE1T6WLAD898U9F3","A1I7H6RDJS4EKN","33K3E8REWWHZ7MUV5T1222MGO9NX8Q","","","<img src=""img/flower2.png"" style=""width:200px;border:14px solid red;"">","null","","","","","",""
"964.8999999985099","","image-keyboard-response","262","484294","0.0-262.0","3HL8HNGX46NK7PKE1T6WLAD898U9F3","A1I7H6RDJS4EKN","33K3E8REWWHZ7MUV5T1222MGO9NX8Q","","","img/flower1.png","75","965.7999999970198","2","0","2","0.7,0.2,0,0,0.7,0.2,0.2,0,0.7",""
"null","","html-keyboard-response","263","484598","0.0-263.0","3HL8HNGX46NK7PKE1T6WLAD898U9F3","A1I7H6RDJS4EKN","33K3E8REWWHZ7MUV5T1222MGO9NX8Q","","","<img src=""img/flower1.png"" style=""width:200px;border:14px solid red;"">","null","","","","","",""
"742.7000000029802","","image-keyboard-response","264","485343","0.0-264.0","3HL8HNGX46NK7PKE1T6WLAD898U9F3","A1I7H6RDJS4EKN","33K3E8REWWHZ7MUV5T1222MGO9NX8Q","","","img/flower2.png","74","743.8000000007451","1","1","3","0.7,0.2,0,0,0.7,0.2,0.2,0,0.7",""
"null","","html-keyboard-response","265","485655","0.0-265.0","3HL8HNGX46NK7PKE1T6WLAD898U9F3","A1I7H6RDJS4EKN","33K3E8REWWHZ7MUV5T1222MGO9NX8Q","","","<img src=""img/flower2.png"" style=""width:200px; border:14px solid green;"">","null","","","","","",""
"2590.199999999255","","image-keyboard-response","266","488247","0.0-266.0","3HL8HNGX46NK7PKE1T6WLAD898U9F3","A1I7H6RDJS4EKN","33K3E8REWWHZ7MUV5T1222MGO9NX8Q","","","img/flower1.png","75","2591.199999999255","2","0","2","0.7,0.2,0,0,0.7,0.2,0.2,0,0.7",""
"null","","html-keyboard-response","267","488560","0.0-267.0","3HL8HNGX46NK7PKE1T6WLAD898U9F3","A1I7H6RDJS4EKN","33K3E8REWWHZ7MUV5T1222MGO9NX8Q","","","<img src=""img/flower1.png"" style=""width:200px;border:14px solid red;"">","null","","","","","",""
"645","","image-keyboard-response","268","489206","0.0-268.0","3HL8HNGX46NK7PKE1T6WLAD898U9F3","A1I7H6RDJS4EKN","33K3E8REWWHZ7MUV5T1222MGO9NX8Q","","","img/flower2.png","76","645.9000000022352","3","0","3","0.7,0.2,0,0,0.7,0.2,0.2,0,0.7",""
"null","","html-keyboard-response","269","489512","0.0-269.0","3HL8HNGX46NK7PKE1T6WLAD898U9F3","A1I7H6RDJS4EKN","33K3E8REWWHZ7MUV5T1222MGO9NX8Q","","","<img src=""img/flower2.png"" style=""width:200px;border:14px solid red;"">","null","","","","","",""
"1509.5","","image-keyboard-response","270","491023","0.0-270.0","3HL8HNGX46NK7PKE1T6WLAD898U9F3","A1I7H6RDJS4EKN","33K3E8REWWHZ7MUV5T1222MGO9NX8Q","","","img/flower4.png","75","1510.699999999255","2","0","1","0.7,0.2,0,0,0.7,0.2,0.2,0,0.7",""
"null","","html-keyboard-response","271","491334","0.0-271.0","3HL8HNGX46NK7PKE1T6WLAD898U9F3","A1I7H6RDJS4EKN","33K3E8REWWHZ7MUV5T1222MGO9NX8Q","","","<img src=""img/flower4.png"" style=""width:200px;border:14px solid red;"">","null","","","","","",""
"639.0999999977648","","image-keyboard-response","272","491975","0.0-272.0","3HL8HNGX46NK7PKE1T6WLAD898U9F3","A1I7H6RDJS4EKN","33K3E8REWWHZ7MUV5T1222MGO9NX8Q","","","img/flower4.png","74","640.1999999992549","1","1","1","0.7,0.2,0,0,0.7,0.2,0.2,0,0.7",""
"null","","html-keyboard-response","273","492287","0.0-273.0","3HL8HNGX46NK7PKE1T6WLAD898U9F3","A1I7H6RDJS4EKN","33K3E8REWWHZ7MUV5T1222MGO9NX8Q","","","<img src=""img/flower4.png"" style=""width:200px; border:14px solid green;"">","null","","","","","",""
"1419.199999999255","","image-keyboard-response","274","493708","0.0-274.0","3HL8HNGX46NK7PKE1T6WLAD898U9F3","A1I7H6RDJS4EKN","33K3E8REWWHZ7MUV5T1222MGO9NX8Q","","","img/flower1.png","75","1420.300000000745","2","1","2","0.7,0.2,0,0,0.7,0.2,0.2,0,0.7",""
"null","","html-keyboard-response","275","494013","0.0-275.0","3HL8HNGX46NK7PKE1T6WLAD898U9F3","A1I7H6RDJS4EKN","33K3E8REWWHZ7MUV5T1222MGO9NX8Q","","","<img src=""img/flower1.png"" style=""width:200px; border:14px solid green;"">","null","","","","","",""
"2856.300000000745","","image-keyboard-response","276","496871","0.0-276.0","3HL8HNGX46NK7PKE1T6WLAD898U9F3","A1I7H6RDJS4EKN","33K3E8REWWHZ7MUV5T1222MGO9NX8Q","","","img/flower2.png","74","2857.300000000745","1","1","3","0.7,0.2,0,0,0.7,0.2,0.2,0,0.7",""
"null","","html-keyboard-response","277","497182","0.0-277.0","3HL8HNGX46NK7PKE1T6WLAD898U9F3","A1I7H6RDJS4EKN","33K3E8REWWHZ7MUV5T1222MGO9NX8Q","","","<img src=""img/flower2.png"" style=""width:200px; border:14px solid green;"">","null","","","","","",""
"1704.4000000022352","","image-keyboard-response","278","498889","0.0-278.0","3HL8HNGX46NK7PKE1T6WLAD898U9F3","A1I7H6RDJS4EKN","33K3E8REWWHZ7MUV5T1222MGO9NX8Q","","","img/flower1.png","75","1706.199999999255","2","1","2","0.7,0.2,0,0,0.7,0.2,0.2,0,0.7",""
"null","","html-keyboard-response","279","499198","0.0-279.0","3HL8HNGX46NK7PKE1T6WLAD898U9F3","A1I7H6RDJS4EKN","33K3E8REWWHZ7MUV5T1222MGO9NX8Q","","","<img src=""img/flower1.png"" style=""width:200px; border:14px solid green;"">","null","","","","","",""
"2632.2000000029802","","image-keyboard-response","280","501832","0.0-280.0","3HL8HNGX46NK7PKE1T6WLAD898U9F3","A1I7H6RDJS4EKN","33K3E8REWWHZ7MUV5T1222MGO9NX8Q","","","img/flower4.png","74","2633.300000000745","1","0","1","0.7,0.2,0,0,0.7,0.2,0.2,0,0.7",""
"null","","html-keyboard-response","281","502141","0.0-281.0","3HL8HNGX46NK7PKE1T6WLAD898U9F3","A1I7H6RDJS4EKN","33K3E8REWWHZ7MUV5T1222MGO9NX8Q","","","<img src=""img/flower4.png"" style=""width:200px;border:14px solid red;"">","null","","","","","",""
"1313.2999999970198","","image-keyboard-response","282","503456","0.0-282.0","3HL8HNGX46NK7PKE1T6WLAD898U9F3","A1I7H6RDJS4EKN","33K3E8REWWHZ7MUV5T1222MGO9NX8Q","","","img/flower1.png","75","1314.0999999977648","2","1","2","0.7,0.2,0,0,0.7,0.2,0.2,0,0.7",""
"null","","html-keyboard-response","283","503769","0.0-283.0","3HL8HNGX46NK7PKE1T6WLAD898U9F3","A1I7H6RDJS4EKN","33K3E8REWWHZ7MUV5T1222MGO9NX8Q","","","<img src=""img/flower1.png"" style=""width:200px; border:14px solid green;"">","null","","","","","",""
"840.2000000029802","","image-keyboard-response","284","504611","0.0-284.0","3HL8HNGX46NK7PKE1T6WLAD898U9F3","A1I7H6RDJS4EKN","33K3E8REWWHZ7MUV5T1222MGO9NX8Q","","","img/flower2.png","76","841.2000000029802","3","0","3","0.7,0.2,0,0,0.7,0.2,0.2,0,0.7",""
"null","","html-keyboard-response","285","504917","0.0-285.0","3HL8HNGX46NK7PKE1T6WLAD898U9F3","A1I7H6RDJS4EKN","33K3E8REWWHZ7MUV5T1222MGO9NX8Q","","","<img src=""img/flower2.png"" style=""width:200px;border:14px solid red;"">","null","","","","","",""
"1241","","image-keyboard-response","286","506159","0.0-286.0","3HL8HNGX46NK7PKE1T6WLAD898U9F3","A1I7H6RDJS4EKN","33K3E8REWWHZ7MUV5T1222MGO9NX8Q","","","img/flower4.png","74","1242.1000000014901","1","1","1","0.7,0.2,0,0,0.7,0.2,0.2,0,0.7",""
"null","","html-keyboard-response","287","506462","0.0-287.0","3HL8HNGX46NK7PKE1T6WLAD898U9F3","A1I7H6RDJS4EKN","33K3E8REWWHZ7MUV5T1222MGO9NX8Q","","","<img src=""img/flower4.png"" style=""width:200px; border:14px solid green;"">","null","","","","","",""
"1408.1000000014901","","image-keyboard-response","288","507871","0.0-288.0","3HL8HNGX46NK7PKE1T6WLAD898U9F3","A1I7H6RDJS4EKN","33K3E8REWWHZ7MUV5T1222MGO9NX8Q","","","img/flower2.png","76","1409.300000000745","3","0","3","0.7,0.2,0,0,0.7,0.2,0.2,0,0.7",""
"null","","html-keyboard-response","289","508186","0.0-289.0","3HL8HNGX46NK7PKE1T6WLAD898U9F3","A1I7H6RDJS4EKN","33K3E8REWWHZ7MUV5T1222MGO9NX8Q","","","<img src=""img/flower2.png"" style=""width:200px;border:14px solid red;"">","null","","","","","",""
"699.8999999985099","","image-keyboard-response","290","508888","0.0-290.0","3HL8HNGX46NK7PKE1T6WLAD898U9F3","A1I7H6RDJS4EKN","33K3E8REWWHZ7MUV5T1222MGO9NX8Q","","","img/flower4.png","75","701.5","2","0","1","0.7,0.2,0,0,0.7,0.2,0.2,0,0.7",""
"null","","html-keyboard-response","291","509200","0.0-291.0","3HL8HNGX46NK7PKE1T6WLAD898U9F3","A1I7H6RDJS4EKN","33K3E8REWWHZ7MUV5T1222MGO9NX8Q","","","<img src=""img/flower4.png"" style=""width:200px;border:14px solid red;"">","null","","","","","",""
"669.8999999985099","","image-keyboard-response","292","509872","0.0-292.0","3HL8HNGX46NK7PKE1T6WLAD898U9F3","A1I7H6RDJS4EKN","33K3E8REWWHZ7MUV5T1222MGO9NX8Q","","","img/flower4.png","74","671","1","1","1","0.7,0.2,0,0,0.7,0.2,0.2,0,0.7",""
"null","","html-keyboard-response","293","510186","0.0-293.0","3HL8HNGX46NK7PKE1T6WLAD898U9F3","A1I7H6RDJS4EKN","33K3E8REWWHZ7MUV5T1222MGO9NX8Q","","","<img src=""img/flower4.png"" style=""width:200px; border:14px solid green;"">","null","","","","","",""
"1396.2999999970198","","image-keyboard-response","294","511584","0.0-294.0","3HL8HNGX46NK7PKE1T6WLAD898U9F3","A1I7H6RDJS4EKN","33K3E8REWWHZ7MUV5T1222MGO9NX8Q","","","img/flower4.png","74","1397.6000000014901","1","1","1","0.7,0.2,0,0,0.7,0.2,0.2,0,0.7",""
"null","","html-keyboard-response","295","511893","0.0-295.0","3HL8HNGX46NK7PKE1T6WLAD898U9F3","A1I7H6RDJS4EKN","33K3E8REWWHZ7MUV5T1222MGO9NX8Q","","","<img src=""img/flower4.png"" style=""width:200px; border:14px solid green;"">","null","","","","","",""
"1480.699999999255","","image-keyboard-response","296","513376","0.0-296.0","3HL8HNGX46NK7PKE1T6WLAD898U9F3","A1I7H6RDJS4EKN","33K3E8REWWHZ7MUV5T1222MGO9NX8Q","","","img/flower1.png","74","1481.9000000022352","1","0","2","0.7,0.2,0,0,0.7,0.2,0.2,0,0.7",""
"null","","html-keyboard-response","297","513690","0.0-297.0","3HL8HNGX46NK7PKE1T6WLAD898U9F3","A1I7H6RDJS4EKN","33K3E8REWWHZ7MUV5T1222MGO9NX8Q","","","<img src=""img/flower1.png"" style=""width:200px;border:14px solid red;"">","null","","","","","",""
"1079.699999999255","","image-keyboard-response","298","514771","0.0-298.0","3HL8HNGX46NK7PKE1T6WLAD898U9F3","A1I7H6RDJS4EKN","33K3E8REWWHZ7MUV5T1222MGO9NX8Q","","","img/flower2.png","74","1080.800000000745","1","1","3","0.7,0.2,0,0,0.7,0.2,0.2,0,0.7",""
"null","","html-keyboard-response","299","515082","0.0-299.0","3HL8HNGX46NK7PKE1T6WLAD898U9F3","A1I7H6RDJS4EKN","33K3E8REWWHZ7MUV5T1222MGO9NX8Q","","","<img src=""img/flower2.png"" style=""width:200px; border:14px solid green;"">","null","","","","","",""
"1244","","image-keyboard-response","300","516328","0.0-300.0","3HL8HNGX46NK7PKE1T6WLAD898U9F3","A1I7H6RDJS4EKN","33K3E8REWWHZ7MUV5T1222MGO9NX8Q","","","img/flower2.png","76","1245","3","1","3","0.7,0.2,0,0,0.7,0.2,0.2,0,0.7",""
"null","","html-keyboard-response","301","516641","0.0-301.0","3HL8HNGX46NK7PKE1T6WLAD898U9F3","A1I7H6RDJS4EKN","33K3E8REWWHZ7MUV5T1222MGO9NX8Q","","","<img src=""img/flower2.png"" style=""width:200px; border:14px solid green;"">","null","","","","","",""
"3420.900000002235","","image-keyboard-response","302","520064","0.0-302.0","3HL8HNGX46NK7PKE1T6WLAD898U9F3","A1I7H6RDJS4EKN","33K3E8REWWHZ7MUV5T1222MGO9NX8Q","","","img/flower4.png","74","3421.89999999851","1","1","1","0.7,0.2,0,0,0.7,0.2,0.2,0,0.7",""
"null","","html-keyboard-response","303","520378","0.0-303.0","3HL8HNGX46NK7PKE1T6WLAD898U9F3","A1I7H6RDJS4EKN","33K3E8REWWHZ7MUV5T1222MGO9NX8Q","","","<img src=""img/flower4.png"" style=""width:200px; border:14px solid green;"">","null","","","","","",""
"1596.3999999985099","","image-keyboard-response","304","521976","0.0-304.0","3HL8HNGX46NK7PKE1T6WLAD898U9F3","A1I7H6RDJS4EKN","33K3E8REWWHZ7MUV5T1222MGO9NX8Q","","","img/flower1.png","75","1597.3999999985099","2","1","2","0.7,0.2,0,0,0.7,0.2,0.2,0,0.7",""
"null","","html-keyboard-response","305","522290","0.0-305.0","3HL8HNGX46NK7PKE1T6WLAD898U9F3","A1I7H6RDJS4EKN","33K3E8REWWHZ7MUV5T1222MGO9NX8Q","","","<img src=""img/flower1.png"" style=""width:200px; border:14px solid green;"">","null","","","","","",""
"","","html-keyboard-response","306","542745","0.0-306.0","3HL8HNGX46NK7PKE1T6WLAD898U9F3","A1I7H6RDJS4EKN","33K3E8REWWHZ7MUV5T1222MGO9NX8Q","","","","","","","","","",""
"4957.199999999255","","image-keyboard-response","307","547704","0.0-307.0","3HL8HNGX46NK7PKE1T6WLAD898U9F3","A1I7H6RDJS4EKN","33K3E8REWWHZ7MUV5T1222MGO9NX8Q","","","img/flower5.png","74","4958.5","1","0","2","0.7,0.2,0,0.7,0,0.2,0.2,0,0.7",""
"null","","html-keyboard-response","308","548015","0.0-308.0","3HL8HNGX46NK7PKE1T6WLAD898U9F3","A1I7H6RDJS4EKN","33K3E8REWWHZ7MUV5T1222MGO9NX8Q","","","<img src=""img/flower5.png"" style=""width:200px;border:14px solid red;"">","null","","","","","",""
"879.1999999992549","","image-keyboard-response","309","548896","0.0-309.0","3HL8HNGX46NK7PKE1T6WLAD898U9F3","A1I7H6RDJS4EKN","33K3E8REWWHZ7MUV5T1222MGO9NX8Q","","","img/flower6.png","76","880.3000000007451","3","0","1","0.7,0.2,0,0.7,0,0.2,0.2,0,0.7",""
"null","","html-keyboard-response","310","549199","0.0-310.0","3HL8HNGX46NK7PKE1T6WLAD898U9F3","A1I7H6RDJS4EKN","33K3E8REWWHZ7MUV5T1222MGO9NX8Q","","","<img src=""img/flower6.png"" style=""width:200px;border:14px solid red;"">","null","","","","","",""
"3024.300000000745","","image-keyboard-response","311","552225","0.0-311.0","3HL8HNGX46NK7PKE1T6WLAD898U9F3","A1I7H6RDJS4EKN","33K3E8REWWHZ7MUV5T1222MGO9NX8Q","","","img/flower3.png","76","3025.39999999851","3","0","3","0.7,0.2,0,0.7,0,0.2,0.2,0,0.7",""
"null","","html-keyboard-response","312","552537","0.0-312.0","3HL8HNGX46NK7PKE1T6WLAD898U9F3","A1I7H6RDJS4EKN","33K3E8REWWHZ7MUV5T1222MGO9NX8Q","","","<img src=""img/flower3.png"" style=""width:200px;border:14px solid red;"">","null","","","","","",""
"852","","image-keyboard-response","313","553391","0.0-313.0","3HL8HNGX46NK7PKE1T6WLAD898U9F3","A1I7H6RDJS4EKN","33K3E8REWWHZ7MUV5T1222MGO9NX8Q","","","img/flower3.png","74","852.8999999985099","1","0","3","0.7,0.2,0,0.7,0,0.2,0.2,0,0.7",""
"null","","html-keyboard-response","314","553698","0.0-314.0","3HL8HNGX46NK7PKE1T6WLAD898U9F3","A1I7H6RDJS4EKN","33K3E8REWWHZ7MUV5T1222MGO9NX8Q","","","<img src=""img/flower3.png"" style=""width:200px;border:14px solid red;"">","null","","","","","",""
"917.6000000014901","","image-keyboard-response","315","554617","0.0-315.0","3HL8HNGX46NK7PKE1T6WLAD898U9F3","A1I7H6RDJS4EKN","33K3E8REWWHZ7MUV5T1222MGO9NX8Q","","","img/flower3.png","75","918.7000000029802","2","0","3","0.7,0.2,0,0.7,0,0.2,0.2,0,0.7",""
"null","","html-keyboard-response","316","554931","0.0-316.0","3HL8HNGX46NK7PKE1T6WLAD898U9F3","A1I7H6RDJS4EKN","33K3E8REWWHZ7MUV5T1222MGO9NX8Q","","","<img src=""img/flower3.png"" style=""width:200px;border:14px solid red;"">","null","","","","","",""
"724.0999999977648","","image-keyboard-response","317","555657","0.0-317.0","3HL8HNGX46NK7PKE1T6WLAD898U9F3","A1I7H6RDJS4EKN","33K3E8REWWHZ7MUV5T1222MGO9NX8Q","","","img/flower6.png","76","725.3999999985099","3","0","1","0.7,0.2,0,0.7,0,0.2,0.2,0,0.7",""
"null","","html-keyboard-response","318","555967","0.0-318.0","3HL8HNGX46NK7PKE1T6WLAD898U9F3","A1I7H6RDJS4EKN","33K3E8REWWHZ7MUV5T1222MGO9NX8Q","","","<img src=""img/flower6.png"" style=""width:200px;border:14px solid red;"">","null","","","","","",""
"824","","image-keyboard-response","319","556793","0.0-319.0","3HL8HNGX46NK7PKE1T6WLAD898U9F3","A1I7H6RDJS4EKN","33K3E8REWWHZ7MUV5T1222MGO9NX8Q","","","img/flower5.png","74","825.1999999992549","1","1","2","0.7,0.2,0,0.7,0,0.2,0.2,0,0.7",""
"null","","html-keyboard-response","320","557104","0.0-320.0","3HL8HNGX46NK7PKE1T6WLAD898U9F3","A1I7H6RDJS4EKN","33K3E8REWWHZ7MUV5T1222MGO9NX8Q","","","<img src=""img/flower5.png"" style=""width:200px; border:14px solid green;"">","null","","","","","",""
"1801","","image-keyboard-response","321","558907","0.0-321.0","3HL8HNGX46NK7PKE1T6WLAD898U9F3","A1I7H6RDJS4EKN","33K3E8REWWHZ7MUV5T1222MGO9NX8Q","","","img/flower5.png","74","1802.5999999977648","1","0","2","0.7,0.2,0,0.7,0,0.2,0.2,0,0.7",""
"null","","html-keyboard-response","322","559217","0.0-322.0","3HL8HNGX46NK7PKE1T6WLAD898U9F3","A1I7H6RDJS4EKN","33K3E8REWWHZ7MUV5T1222MGO9NX8Q","","","<img src=""img/flower5.png"" style=""width:200px;border:14px solid red;"">","null","","","","","",""
"750.9000000022352","","image-keyboard-response","323","559969","0.0-323.0","3HL8HNGX46NK7PKE1T6WLAD898U9F3","A1I7H6RDJS4EKN","33K3E8REWWHZ7MUV5T1222MGO9NX8Q","","","img/flower6.png","76","751.8000000007451","3","0","1","0.7,0.2,0,0.7,0,0.2,0.2,0,0.7",""
"null","","html-keyboard-response","324","560279","0.0-324.0","3HL8HNGX46NK7PKE1T6WLAD898U9F3","A1I7H6RDJS4EKN","33K3E8REWWHZ7MUV5T1222MGO9NX8Q","","","<img src=""img/flower6.png"" style=""width:200px;border:14px solid red;"">","null","","","","","",""
"839.1999999992549","","image-keyboard-response","325","561121","0.0-325.0","3HL8HNGX46NK7PKE1T6WLAD898U9F3","A1I7H6RDJS4EKN","33K3E8REWWHZ7MUV5T1222MGO9NX8Q","","","img/flower6.png","76","840.5","3","0","1","0.7,0.2,0,0.7,0,0.2,0.2,0,0.7",""
"null","","html-keyboard-response","326","561435","0.0-326.0","3HL8HNGX46NK7PKE1T6WLAD898U9F3","A1I7H6RDJS4EKN","33K3E8REWWHZ7MUV5T1222MGO9NX8Q","","","<img src=""img/flower6.png"" style=""width:200px;border:14px solid red;"">","null","","","","","",""
"611.5999999977648","","image-keyboard-response","327","562049","0.0-327.0","3HL8HNGX46NK7PKE1T6WLAD898U9F3","A1I7H6RDJS4EKN","33K3E8REWWHZ7MUV5T1222MGO9NX8Q","","","img/flower6.png","75","612.6999999992549","2","0","1","0.7,0.2,0,0.7,0,0.2,0.2,0,0.7",""
"null","","html-keyboard-response","328","562359","0.0-328.0","3HL8HNGX46NK7PKE1T6WLAD898U9F3","A1I7H6RDJS4EKN","33K3E8REWWHZ7MUV5T1222MGO9NX8Q","","","<img src=""img/flower6.png"" style=""width:200px;border:14px solid red;"">","null","","","","","",""
"1213.5","","image-keyboard-response","329","563575","0.0-329.0","3HL8HNGX46NK7PKE1T6WLAD898U9F3","A1I7H6RDJS4EKN","33K3E8REWWHZ7MUV5T1222MGO9NX8Q","","","img/flower6.png","74","1214.6000000014901","1","1","1","0.7,0.2,0,0.7,0,0.2,0.2,0,0.7",""
"null","","html-keyboard-response","330","563881","0.0-330.0","3HL8HNGX46NK7PKE1T6WLAD898U9F3","A1I7H6RDJS4EKN","33K3E8REWWHZ7MUV5T1222MGO9NX8Q","","","<img src=""img/flower6.png"" style=""width:200px; border:14px solid green;"">","null","","","","","",""
"3254.199999999255","","image-keyboard-response","331","567137","0.0-331.0","3HL8HNGX46NK7PKE1T6WLAD898U9F3","A1I7H6RDJS4EKN","33K3E8REWWHZ7MUV5T1222MGO9NX8Q","","","img/flower3.png","75","3255.2000000029802","2","0","3","0.7,0.2,0,0.7,0,0.2,0.2,0,0.7",""
"null","","html-keyboard-response","332","567452","0.0-332.0","3HL8HNGX46NK7PKE1T6WLAD898U9F3","A1I7H6RDJS4EKN","33K3E8REWWHZ7MUV5T1222MGO9NX8Q","","","<img src=""img/flower3.png"" style=""width:200px;border:14px solid red;"">","null","","","","","",""
"1675.7999999970198","","image-keyboard-response","333","569129","0.0-333.0","3HL8HNGX46NK7PKE1T6WLAD898U9F3","A1I7H6RDJS4EKN","33K3E8REWWHZ7MUV5T1222MGO9NX8Q","","","img/flower3.png","76","1676.7999999970198","3","1","3","0.7,0.2,0,0.7,0,0.2,0.2,0,0.7",""
"null","","html-keyboard-response","334","569443","0.0-334.0","3HL8HNGX46NK7PKE1T6WLAD898U9F3","A1I7H6RDJS4EKN","33K3E8REWWHZ7MUV5T1222MGO9NX8Q","","","<img src=""img/flower3.png"" style=""width:200px; border:14px solid green;"">","null","","","","","",""
"5266.60000000149","","image-keyboard-response","335","574711","0.0-335.0","3HL8HNGX46NK7PKE1T6WLAD898U9F3","A1I7H6RDJS4EKN","33K3E8REWWHZ7MUV5T1222MGO9NX8Q","","","img/flower5.png","75","5267.699999999255","2","0","2","0.7,0.2,0,0.7,0,0.2,0.2,0,0.7",""
"null","","html-keyboard-response","336","575015","0.0-336.0","3HL8HNGX46NK7PKE1T6WLAD898U9F3","A1I7H6RDJS4EKN","33K3E8REWWHZ7MUV5T1222MGO9NX8Q","","","<img src=""img/flower5.png"" style=""width:200px;border:14px solid red;"">","null","","","","","",""
"1216.3999999985099","","image-keyboard-response","337","576233","0.0-337.0","3HL8HNGX46NK7PKE1T6WLAD898U9F3","A1I7H6RDJS4EKN","33K3E8REWWHZ7MUV5T1222MGO9NX8Q","","","img/flower5.png","76","1217.5","3","0","2","0.7,0.2,0,0.7,0,0.2,0.2,0,0.7",""
"null","","html-keyboard-response","338","576547","0.0-338.0","3HL8HNGX46NK7PKE1T6WLAD898U9F3","A1I7H6RDJS4EKN","33K3E8REWWHZ7MUV5T1222MGO9NX8Q","","","<img src=""img/flower5.png"" style=""width:200px;border:14px solid red;"">","null","","","","","",""
"1980.8999999985099","","image-keyboard-response","339","578530","0.0-339.0","3HL8HNGX46NK7PKE1T6WLAD898U9F3","A1I7H6RDJS4EKN","33K3E8REWWHZ7MUV5T1222MGO9NX8Q","","","img/flower3.png","76","1982","3","1","3","0.7,0.2,0,0.7,0,0.2,0.2,0,0.7",""
"null","","html-keyboard-response","340","578844","0.0-340.0","3HL8HNGX46NK7PKE1T6WLAD898U9F3","A1I7H6RDJS4EKN","33K3E8REWWHZ7MUV5T1222MGO9NX8Q","","","<img src=""img/flower3.png"" style=""width:200px; border:14px solid green;"">","null","","","","","",""
"1580.5","","image-keyboard-response","341","580426","0.0-341.0","3HL8HNGX46NK7PKE1T6WLAD898U9F3","A1I7H6RDJS4EKN","33K3E8REWWHZ7MUV5T1222MGO9NX8Q","","","img/flower5.png","74","1581.699999999255","1","0","2","0.7,0.2,0,0.7,0,0.2,0.2,0,0.7",""
"null","","html-keyboard-response","342","580738","0.0-342.0","3HL8HNGX46NK7PKE1T6WLAD898U9F3","A1I7H6RDJS4EKN","33K3E8REWWHZ7MUV5T1222MGO9NX8Q","","","<img src=""img/flower5.png"" style=""width:200px;border:14px solid red;"">","null","","","","","",""
"982.0999999977648","","image-keyboard-response","343","581722","0.0-343.0","3HL8HNGX46NK7PKE1T6WLAD898U9F3","A1I7H6RDJS4EKN","33K3E8REWWHZ7MUV5T1222MGO9NX8Q","","","img/flower3.png","76","983.0999999977648","3","1","3","0.7,0.2,0,0.7,0,0.2,0.2,0,0.7",""
"null","","html-keyboard-response","344","582036","0.0-344.0","3HL8HNGX46NK7PKE1T6WLAD898U9F3","A1I7H6RDJS4EKN","33K3E8REWWHZ7MUV5T1222MGO9NX8Q","","","<img src=""img/flower3.png"" style=""width:200px; border:14px solid green;"">","null","","","","","",""
"1260.300000000745","","image-keyboard-response","345","583298","0.0-345.0","3HL8HNGX46NK7PKE1T6WLAD898U9F3","A1I7H6RDJS4EKN","33K3E8REWWHZ7MUV5T1222MGO9NX8Q","","","img/flower5.png","74","1261.3999999985099","1","1","2","0.7,0.2,0,0.7,0,0.2,0.2,0,0.7",""
"null","","html-keyboard-response","346","583608","0.0-346.0","3HL8HNGX46NK7PKE1T6WLAD898U9F3","A1I7H6RDJS4EKN","33K3E8REWWHZ7MUV5T1222MGO9NX8Q","","","<img src=""img/flower5.png"" style=""width:200px; border:14px solid green;"">","null","","","","","",""
"1887.5","","image-keyboard-response","347","585498","0.0-347.0","3HL8HNGX46NK7PKE1T6WLAD898U9F3","A1I7H6RDJS4EKN","33K3E8REWWHZ7MUV5T1222MGO9NX8Q","","","img/flower6.png","74","1888.7999999970198","1","0","1","0.7,0.2,0,0.7,0,0.2,0.2,0,0.7",""
"null","","html-keyboard-response","348","585813","0.0-348.0","3HL8HNGX46NK7PKE1T6WLAD898U9F3","A1I7H6RDJS4EKN","33K3E8REWWHZ7MUV5T1222MGO9NX8Q","","","<img src=""img/flower6.png"" style=""width:200px;border:14px solid red;"">","null","","","","","",""
"594.8999999985099","","image-keyboard-response","349","586409","0.0-349.0","3HL8HNGX46NK7PKE1T6WLAD898U9F3","A1I7H6RDJS4EKN","33K3E8REWWHZ7MUV5T1222MGO9NX8Q","","","img/flower6.png","75","596","2","0","1","0.7,0.2,0,0.7,0,0.2,0.2,0,0.7",""
"null","","html-keyboard-response","350","586721","0.0-350.0","3HL8HNGX46NK7PKE1T6WLAD898U9F3","A1I7H6RDJS4EKN","33K3E8REWWHZ7MUV5T1222MGO9NX8Q","","","<img src=""img/flower6.png"" style=""width:200px;border:14px solid red;"">","null","","","","","",""
"4030.199999999255","","image-keyboard-response","351","590753","0.0-351.0","3HL8HNGX46NK7PKE1T6WLAD898U9F3","A1I7H6RDJS4EKN","33K3E8REWWHZ7MUV5T1222MGO9NX8Q","","","img/flower3.png","76","4031.400000002235","3","1","3","0.7,0.2,0,0.7,0,0.2,0.2,0,0.7",""
"null","","html-keyboard-response","352","591058","0.0-352.0","3HL8HNGX46NK7PKE1T6WLAD898U9F3","A1I7H6RDJS4EKN","33K3E8REWWHZ7MUV5T1222MGO9NX8Q","","","<img src=""img/flower3.png"" style=""width:200px; border:14px solid green;"">","null","","","","","",""
"821.9000000022352","","image-keyboard-response","353","591882","0.0-353.0","3HL8HNGX46NK7PKE1T6WLAD898U9F3","A1I7H6RDJS4EKN","33K3E8REWWHZ7MUV5T1222MGO9NX8Q","","","img/flower6.png","76","823","3","0","1","0.7,0.2,0,0.7,0,0.2,0.2,0,0.7",""
"null","","html-keyboard-response","354","592195","0.0-354.0","3HL8HNGX46NK7PKE1T6WLAD898U9F3","A1I7H6RDJS4EKN","33K3E8REWWHZ7MUV5T1222MGO9NX8Q","","","<img src=""img/flower6.png"" style=""width:200px;border:14px solid red;"">","null","","","","","",""
"1638.0999999977648","","image-keyboard-response","355","593836","0.0-355.0","3HL8HNGX46NK7PKE1T6WLAD898U9F3","A1I7H6RDJS4EKN","33K3E8REWWHZ7MUV5T1222MGO9NX8Q","","","img/flower5.png","75","1639.8999999985099","2","0","2","0.7,0.2,0,0.7,0,0.2,0.2,0,0.7",""
"null","","html-keyboard-response","356","594148","0.0-356.0","3HL8HNGX46NK7PKE1T6WLAD898U9F3","A1I7H6RDJS4EKN","33K3E8REWWHZ7MUV5T1222MGO9NX8Q","","","<img src=""img/flower5.png"" style=""width:200px;border:14px solid red;"">","null","","","","","",""
"899.5","","image-keyboard-response","357","595049","0.0-357.0","3HL8HNGX46NK7PKE1T6WLAD898U9F3","A1I7H6RDJS4EKN","33K3E8REWWHZ7MUV5T1222MGO9NX8Q","","","img/flower6.png","76","900.5","3","0","1","0.7,0.2,0,0.7,0,0.2,0.2,0,0.7",""
"null","","html-keyboard-response","358","595357","0.0-358.0","3HL8HNGX46NK7PKE1T6WLAD898U9F3","A1I7H6RDJS4EKN","33K3E8REWWHZ7MUV5T1222MGO9NX8Q","","","<img src=""img/flower6.png"" style=""width:200px;border:14px solid red;"">","null","","","","","",""
"881","","image-keyboard-response","359","596239","0.0-359.0","3HL8HNGX46NK7PKE1T6WLAD898U9F3","A1I7H6RDJS4EKN","33K3E8REWWHZ7MUV5T1222MGO9NX8Q","","","img/flower3.png","74","882","1","0","3","0.7,0.2,0,0.7,0,0.2,0.2,0,0.7",""
"null","","html-keyboard-response","360","596548","0.0-360.0","3HL8HNGX46NK7PKE1T6WLAD898U9F3","A1I7H6RDJS4EKN","33K3E8REWWHZ7MUV5T1222MGO9NX8Q","","","<img src=""img/flower3.png"" style=""width:200px;border:14px solid red;"">","null","","","","","",""
"9101.199999999255","","image-keyboard-response","361","605651","0.0-361.0","3HL8HNGX46NK7PKE1T6WLAD898U9F3","A1I7H6RDJS4EKN","33K3E8REWWHZ7MUV5T1222MGO9NX8Q","","","img/flower5.png","75","9102.199999999255","2","0","2","0.7,0.2,0,0.7,0,0.2,0.2,0,0.7",""
"null","","html-keyboard-response","362","605960","0.0-362.0","3HL8HNGX46NK7PKE1T6WLAD898U9F3","A1I7H6RDJS4EKN","33K3E8REWWHZ7MUV5T1222MGO9NX8Q","","","<img src=""img/flower5.png"" style=""width:200px;border:14px solid red;"">","null","","","","","",""
"685.6999999992549","","image-keyboard-response","363","606647","0.0-363.0","3HL8HNGX46NK7PKE1T6WLAD898U9F3","A1I7H6RDJS4EKN","33K3E8REWWHZ7MUV5T1222MGO9NX8Q","","","img/flower5.png","76","686.8000000007451","3","0","2","0.7,0.2,0,0.7,0,0.2,0.2,0,0.7",""
"null","","html-keyboard-response","364","606957","0.0-364.0","3HL8HNGX46NK7PKE1T6WLAD898U9F3","A1I7H6RDJS4EKN","33K3E8REWWHZ7MUV5T1222MGO9NX8Q","","","<img src=""img/flower5.png"" style=""width:200px;border:14px solid red;"">","null","","","","","",""
"859.6999999992549","","image-keyboard-response","365","607818","0.0-365.0","3HL8HNGX46NK7PKE1T6WLAD898U9F3","A1I7H6RDJS4EKN","33K3E8REWWHZ7MUV5T1222MGO9NX8Q","","","img/flower5.png","74","860.7000000029802","1","0","2","0.7,0.2,0,0.7,0,0.2,0.2,0,0.7",""
"null","","html-keyboard-response","366","608133","0.0-366.0","3HL8HNGX46NK7PKE1T6WLAD898U9F3","A1I7H6RDJS4EKN","33K3E8REWWHZ7MUV5T1222MGO9NX8Q","","","<img src=""img/flower5.png"" style=""width:200px;border:14px solid red;"">","null","","","","","",""
"1427.199999999255","","image-keyboard-response","367","609562","0.0-367.0","3HL8HNGX46NK7PKE1T6WLAD898U9F3","A1I7H6RDJS4EKN","33K3E8REWWHZ7MUV5T1222MGO9NX8Q","","","img/flower5.png","74","1428.2000000029802","1","1","2","0.7,0.2,0,0.7,0,0.2,0.2,0,0.7",""
"null","","html-keyboard-response","368","609872","0.0-368.0","3HL8HNGX46NK7PKE1T6WLAD898U9F3","A1I7H6RDJS4EKN","33K3E8REWWHZ7MUV5T1222MGO9NX8Q","","","<img src=""img/flower5.png"" style=""width:200px; border:14px solid green;"">","null","","","","","",""
"5313.60000000149","","image-keyboard-response","369","615188","0.0-369.0","3HL8HNGX46NK7PKE1T6WLAD898U9F3","A1I7H6RDJS4EKN","33K3E8REWWHZ7MUV5T1222MGO9NX8Q","","","img/flower5.png","74","5315.10000000149","1","1","2","0.7,0.2,0,0.7,0,0.2,0.2,0,0.7",""
"null","","html-keyboard-response","370","615496","0.0-370.0","3HL8HNGX46NK7PKE1T6WLAD898U9F3","A1I7H6RDJS4EKN","33K3E8REWWHZ7MUV5T1222MGO9NX8Q","","","<img src=""img/flower5.png"" style=""width:200px; border:14px solid green;"">","null","","","","","",""
"1693.6000000014901","","image-keyboard-response","371","617191","0.0-371.0","3HL8HNGX46NK7PKE1T6WLAD898U9F3","A1I7H6RDJS4EKN","33K3E8REWWHZ7MUV5T1222MGO9NX8Q","","","img/flower5.png","74","1694.699999999255","1","1","2","0.7,0.2,0,0.7,0,0.2,0.2,0,0.7",""
"null","","html-keyboard-response","372","617500","0.0-372.0","3HL8HNGX46NK7PKE1T6WLAD898U9F3","A1I7H6RDJS4EKN","33K3E8REWWHZ7MUV5T1222MGO9NX8Q","","","<img src=""img/flower5.png"" style=""width:200px; border:14px solid green;"">","null","","","","","",""
"1291.5","","image-keyboard-response","373","618793","0.0-373.0","3HL8HNGX46NK7PKE1T6WLAD898U9F3","A1I7H6RDJS4EKN","33K3E8REWWHZ7MUV5T1222MGO9NX8Q","","","img/flower3.png","76","1292.6000000014901","3","0","3","0.7,0.2,0,0.7,0,0.2,0.2,0,0.7",""
"null","","html-keyboard-response","374","619101","0.0-374.0","3HL8HNGX46NK7PKE1T6WLAD898U9F3","A1I7H6RDJS4EKN","33K3E8REWWHZ7MUV5T1222MGO9NX8Q","","","<img src=""img/flower3.png"" style=""width:200px;border:14px solid red;"">","null","","","","","",""
"1496.9000000022352","","image-keyboard-response","375","620599","0.0-375.0","3HL8HNGX46NK7PKE1T6WLAD898U9F3","A1I7H6RDJS4EKN","33K3E8REWWHZ7MUV5T1222MGO9NX8Q","","","img/flower3.png","76","1498","3","1","3","0.7,0.2,0,0.7,0,0.2,0.2,0,0.7",""
"null","","html-keyboard-response","376","620908","0.0-376.0","3HL8HNGX46NK7PKE1T6WLAD898U9F3","A1I7H6RDJS4EKN","33K3E8REWWHZ7MUV5T1222MGO9NX8Q","","","<img src=""img/flower3.png"" style=""width:200px; border:14px solid green;"">","null","","","","","",""
"2269","","image-keyboard-response","377","623179","0.0-377.0","3HL8HNGX46NK7PKE1T6WLAD898U9F3","A1I7H6RDJS4EKN","33K3E8REWWHZ7MUV5T1222MGO9NX8Q","","","img/flower5.png","75","2270.199999999255","2","0","2","0.7,0.2,0,0.7,0,0.2,0.2,0,0.7",""
"null","","html-keyboard-response","378","623491","0.0-378.0","3HL8HNGX46NK7PKE1T6WLAD898U9F3","A1I7H6RDJS4EKN","33K3E8REWWHZ7MUV5T1222MGO9NX8Q","","","<img src=""img/flower5.png"" style=""width:200px;border:14px solid red;"">","null","","","","","",""
"567.3000000007451","","image-keyboard-response","379","624059","0.0-379.0","3HL8HNGX46NK7PKE1T6WLAD898U9F3","A1I7H6RDJS4EKN","33K3E8REWWHZ7MUV5T1222MGO9NX8Q","","","img/flower5.png","75","568.3000000007451","2","0","2","0.7,0.2,0,0.7,0,0.2,0.2,0,0.7",""
"null","","html-keyboard-response","380","624368","0.0-380.0","3HL8HNGX46NK7PKE1T6WLAD898U9F3","A1I7H6RDJS4EKN","33K3E8REWWHZ7MUV5T1222MGO9NX8Q","","","<img src=""img/flower5.png"" style=""width:200px;border:14px solid red;"">","null","","","","","",""
"664.8999999985099","","image-keyboard-response","381","625035","0.0-381.0","3HL8HNGX46NK7PKE1T6WLAD898U9F3","A1I7H6RDJS4EKN","33K3E8REWWHZ7MUV5T1222MGO9NX8Q","","","img/flower6.png","76","665.9000000022352","3","0","1","0.7,0.2,0,0.7,0,0.2,0.2,0,0.7",""
"null","","html-keyboard-response","382","625346","0.0-382.0","3HL8HNGX46NK7PKE1T6WLAD898U9F3","A1I7H6RDJS4EKN","33K3E8REWWHZ7MUV5T1222MGO9NX8Q","","","<img src=""img/flower6.png"" style=""width:200px;border:14px solid red;"">","null","","","","","",""
"824.3000000007451","","image-keyboard-response","383","626172","0.0-383.0","3HL8HNGX46NK7PKE1T6WLAD898U9F3","A1I7H6RDJS4EKN","33K3E8REWWHZ7MUV5T1222MGO9NX8Q","","","img/flower6.png","74","825.3000000007451","1","0","1","0.7,0.2,0,0.7,0,0.2,0.2,0,0.7",""
"null","","html-keyboard-response","384","626475","0.0-384.0","3HL8HNGX46NK7PKE1T6WLAD898U9F3","A1I7H6RDJS4EKN","33K3E8REWWHZ7MUV5T1222MGO9NX8Q","","","<img src=""img/flower6.png"" style=""width:200px;border:14px solid red;"">","null","","","","","",""
"1419","","image-keyboard-response","385","627896","0.0-385.0","3HL8HNGX46NK7PKE1T6WLAD898U9F3","A1I7H6RDJS4EKN","33K3E8REWWHZ7MUV5T1222MGO9NX8Q","","","img/flower3.png","76","1419.9000000022352","3","1","3","0.7,0.2,0,0.7,0,0.2,0.2,0,0.7",""
"null","","html-keyboard-response","386","628204","0.0-386.0","3HL8HNGX46NK7PKE1T6WLAD898U9F3","A1I7H6RDJS4EKN","33K3E8REWWHZ7MUV5T1222MGO9NX8Q","","","<img src=""img/flower3.png"" style=""width:200px; border:14px solid green;"">","null","","","","","",""
"581","","image-keyboard-response","387","628787","0.0-387.0","3HL8HNGX46NK7PKE1T6WLAD898U9F3","A1I7H6RDJS4EKN","33K3E8REWWHZ7MUV5T1222MGO9NX8Q","","","img/flower3.png","76","582.3999999985099","3","0","3","0.7,0.2,0,0.7,0,0.2,0.2,0,0.7",""
"null","","html-keyboard-response","388","629096","0.0-388.0","3HL8HNGX46NK7PKE1T6WLAD898U9F3","A1I7H6RDJS4EKN","33K3E8REWWHZ7MUV5T1222MGO9NX8Q","","","<img src=""img/flower3.png"" style=""width:200px;border:14px solid red;"">","null","","","","","",""
"912.9000000022352","","image-keyboard-response","389","630010","0.0-389.0","3HL8HNGX46NK7PKE1T6WLAD898U9F3","A1I7H6RDJS4EKN","33K3E8REWWHZ7MUV5T1222MGO9NX8Q","","","img/flower5.png","75","913.8999999985099","2","0","2","0.7,0.2,0,0.7,0,0.2,0.2,0,0.7",""
"null","","html-keyboard-response","390","630321","0.0-390.0","3HL8HNGX46NK7PKE1T6WLAD898U9F3","A1I7H6RDJS4EKN","33K3E8REWWHZ7MUV5T1222MGO9NX8Q","","","<img src=""img/flower5.png"" style=""width:200px;border:14px solid red;"">","null","","","","","",""
"416.5","","image-keyboard-response","391","630739","0.0-391.0","3HL8HNGX46NK7PKE1T6WLAD898U9F3","A1I7H6RDJS4EKN","33K3E8REWWHZ7MUV5T1222MGO9NX8Q","","","img/flower5.png","74","417.5999999977648","1","0","2","0.7,0.2,0,0.7,0,0.2,0.2,0,0.7",""
"null","","html-keyboard-response","392","631052","0.0-392.0","3HL8HNGX46NK7PKE1T6WLAD898U9F3","A1I7H6RDJS4EKN","33K3E8REWWHZ7MUV5T1222MGO9NX8Q","","","<img src=""img/flower5.png"" style=""width:200px;border:14px solid red;"">","null","","","","","",""
"485.30000000074506","","image-keyboard-response","393","631539","0.0-393.0","3HL8HNGX46NK7PKE1T6WLAD898U9F3","A1I7H6RDJS4EKN","33K3E8REWWHZ7MUV5T1222MGO9NX8Q","","","img/flower5.png","76","486.3999999985099","3","0","2","0.7,0.2,0,0.7,0,0.2,0.2,0,0.7",""
"null","","html-keyboard-response","394","631854","0.0-394.0","3HL8HNGX46NK7PKE1T6WLAD898U9F3","A1I7H6RDJS4EKN","33K3E8REWWHZ7MUV5T1222MGO9NX8Q","","","<img src=""img/flower5.png"" style=""width:200px;border:14px solid red;"">","null","","","","","",""
"1475.9000000022352","","image-keyboard-response","395","633331","0.0-395.0","3HL8HNGX46NK7PKE1T6WLAD898U9F3","A1I7H6RDJS4EKN","33K3E8REWWHZ7MUV5T1222MGO9NX8Q","","","img/flower3.png","76","1477","3","1","3","0.7,0.2,0,0.7,0,0.2,0.2,0,0.7",""
"null","","html-keyboard-response","396","633640","0.0-396.0","3HL8HNGX46NK7PKE1T6WLAD898U9F3","A1I7H6RDJS4EKN","33K3E8REWWHZ7MUV5T1222MGO9NX8Q","","","<img src=""img/flower3.png"" style=""width:200px; border:14px solid green;"">","null","","","","","",""
"4726.10000000149","","image-keyboard-response","397","638368","0.0-397.0","3HL8HNGX46NK7PKE1T6WLAD898U9F3","A1I7H6RDJS4EKN","33K3E8REWWHZ7MUV5T1222MGO9NX8Q","","","img/flower5.png","74","4727.199999999255","1","1","2","0.7,0.2,0,0.7,0,0.2,0.2,0,0.7",""
"null","","html-keyboard-response","398","638678","0.0-398.0","3HL8HNGX46NK7PKE1T6WLAD898U9F3","A1I7H6RDJS4EKN","33K3E8REWWHZ7MUV5T1222MGO9NX8Q","","","<img src=""img/flower5.png"" style=""width:200px; border:14px solid green;"">","null","","","","","",""
"987.6999999992549","","image-keyboard-response","399","639667","0.0-399.0","3HL8HNGX46NK7PKE1T6WLAD898U9F3","A1I7H6RDJS4EKN","33K3E8REWWHZ7MUV5T1222MGO9NX8Q","","","img/flower3.png","76","988.8000000007451","3","0","3","0.7,0.2,0,0.7,0,0.2,0.2,0,0.7",""
"null","","html-keyboard-response","400","639971","0.0-400.0","3HL8HNGX46NK7PKE1T6WLAD898U9F3","A1I7H6RDJS4EKN","33K3E8REWWHZ7MUV5T1222MGO9NX8Q","","","<img src=""img/flower3.png"" style=""width:200px;border:14px solid red;"">","null","","","","","",""
"1693.6000000014901","","image-keyboard-response","401","641666","0.0-401.0","3HL8HNGX46NK7PKE1T6WLAD898U9F3","A1I7H6RDJS4EKN","33K3E8REWWHZ7MUV5T1222MGO9NX8Q","","","img/flower3.png","75","1694.800000000745","2","0","3","0.7,0.2,0,0.7,0,0.2,0.2,0,0.7",""
"null","","html-keyboard-response","402","641970","0.0-402.0","3HL8HNGX46NK7PKE1T6WLAD898U9F3","A1I7H6RDJS4EKN","33K3E8REWWHZ7MUV5T1222MGO9NX8Q","","","<img src=""img/flower3.png"" style=""width:200px;border:14px solid red;"">","null","","","","","",""
