"rt","url","trial_type","trial_index","time_elapsed","internal_node_id","assignmentID","mturkID","hitID","success","view_history","stimulus","key_press","reactionTime","a","r","s","reward_cond","responses"
"23473.40000000596","consent.html","external-html","0","23680","0.0-0.0","3MX2NQ3YCAGI6O9NYXZ1F18DRH6X5Q","A1MWCDBGZLHJPI","37S0QRNUFB29SLTNXLPAM35NX0F88U","","","","","","","","","",""
"","","fullscreen","1","27126","0.0-1.0","3MX2NQ3YCAGI6O9NYXZ1F18DRH6X5Q","A1MWCDBGZLHJPI","37S0QRNUFB29SLTNXLPAM35NX0F88U","true","","","","","","","","",""
"162422.6000000015","","instructions","2","189554","0.0-2.0","3MX2NQ3YCAGI6O9NYXZ1F18DRH6X5Q","A1MWCDBGZLHJPI","37S0QRNUFB29SLTNXLPAM35NX0F88U","","[{""page_index"":0,""viewing_time"":6003.79999999702},{""page_index"":1,""viewing_time"":24278.80000000447},{""page_index"":2,""viewing_time"":19579.19999999553},{""page_index"":3,""viewing_time"":35297},{""page_index"":4,""viewing_time"":11302.70000000298},{""page_index"":5,""viewing_time"":65955.39999999851}]","","","","","","","",""
"47207.10000000149","","instructions","3","236764","0.0-3.0","3MX2NQ3YCAGI6O9NYXZ1F18DRH6X5Q","A1MWCDBGZLHJPI","37S0QRNUFB29SLTNXLPAM35NX0F88U","","[{""page_index"":0,""viewing_time"":47204.39999999851}]","","","","","","","",""
"917.3999999985099","","image-keyboard-response","4","237689","0.0-4.0","3MX2NQ3YCAGI6O9NYXZ1F18DRH6X5Q","A1MWCDBGZLHJPI","37S0QRNUFB29SLTNXLPAM35NX0F88U","","","img/flower4.png","74","923.8000000044703","1","1","1","",""
"null","","html-keyboard-response","5","237995","0.0-5.0","3MX2NQ3YCAGI6O9NYXZ1F18DRH6X5Q","A1MWCDBGZLHJPI","37S0QRNUFB29SLTNXLPAM35NX0F88U","","","<img src=""img/flower4.png"" style=""width:200px; border:14px solid green;"">","null","","","","","",""
"1015","","image-keyboard-response","6","239016","0.0-6.0","3MX2NQ3YCAGI6O9NYXZ1F18DRH6X5Q","A1MWCDBGZLHJPI","37S0QRNUFB29SLTNXLPAM35NX0F88U","","","img/flower6.png","76","1021.2000000029802","3","1","3","",""
"null","","html-keyboard-response","7","239324","0.0-7.0","3MX2NQ3YCAGI6O9NYXZ1F18DRH6X5Q","A1MWCDBGZLHJPI","37S0QRNUFB29SLTNXLPAM35NX0F88U","","","<img src=""img/flower6.png"" style=""width:200px; border:14px solid green;"">","null","","","","","",""
"1278.2000000029802","","image-keyboard-response","8","240608","0.0-8.0","3MX2NQ3YCAGI6O9NYXZ1F18DRH6X5Q","A1MWCDBGZLHJPI","37S0QRNUFB29SLTNXLPAM35NX0F88U","","","img/flower4.png","74","1282.7000000029802","1","1","1","",""
"null","","html-keyboard-response","9","240914","0.0-9.0","3MX2NQ3YCAGI6O9NYXZ1F18DRH6X5Q","A1MWCDBGZLHJPI","37S0QRNUFB29SLTNXLPAM35NX0F88U","","","<img src=""img/flower4.png"" style=""width:200px; border:14px solid green;"">","null","","","","","",""
"1060.8999999985099","","image-keyboard-response","10","241982","0.0-10.0","3MX2NQ3YCAGI6O9NYXZ1F18DRH6X5Q","A1MWCDBGZLHJPI","37S0QRNUFB29SLTNXLPAM35NX0F88U","","","img/flower6.png","76","1067.6000000014901","3","0","3","",""
"null","","html-keyboard-response","11","242288","0.0-11.0","3MX2NQ3YCAGI6O9NYXZ1F18DRH6X5Q","A1MWCDBGZLHJPI","37S0QRNUFB29SLTNXLPAM35NX0F88U","","","<img src=""img/flower6.png"" style=""width:200px;border:14px solid red;"">","null","","","","","",""
"2496.2999999970198","","image-keyboard-response","12","244789","0.0-12.0","3MX2NQ3YCAGI6O9NYXZ1F18DRH6X5Q","A1MWCDBGZLHJPI","37S0QRNUFB29SLTNXLPAM35NX0F88U","","","img/flower5.png","75","2500.60000000149","2","0","2","",""
"null","","html-keyboard-response","13","245094","0.0-13.0","3MX2NQ3YCAGI6O9NYXZ1F18DRH6X5Q","A1MWCDBGZLHJPI","37S0QRNUFB29SLTNXLPAM35NX0F88U","","","<img src=""img/flower5.png"" style=""width:200px;border:14px solid red;"">","null","","","","","",""
"2556.8000000044703","","image-keyboard-response","14","247655","0.0-14.0","3MX2NQ3YCAGI6O9NYXZ1F18DRH6X5Q","A1MWCDBGZLHJPI","37S0QRNUFB29SLTNXLPAM35NX0F88U","","","img/flower5.png","75","2560.5","2","1","2","",""
"null","","html-keyboard-response","15","247959","0.0-15.0","3MX2NQ3YCAGI6O9NYXZ1F18DRH6X5Q","A1MWCDBGZLHJPI","37S0QRNUFB29SLTNXLPAM35NX0F88U","","","<img src=""img/flower5.png"" style=""width:200px; border:14px solid green;"">","null","","","","","",""
"1432.7000000029802","","image-keyboard-response","16","249396","0.0-16.0","3MX2NQ3YCAGI6O9NYXZ1F18DRH6X5Q","A1MWCDBGZLHJPI","37S0QRNUFB29SLTNXLPAM35NX0F88U","","","img/flower6.png","76","1436.7999999970198","3","0","3","",""
"null","","html-keyboard-response","17","249700","0.0-17.0","3MX2NQ3YCAGI6O9NYXZ1F18DRH6X5Q","A1MWCDBGZLHJPI","37S0QRNUFB29SLTNXLPAM35NX0F88U","","","<img src=""img/flower6.png"" style=""width:200px;border:14px solid red;"">","null","","","","","",""
"3612.7000000029802","","image-keyboard-response","18","253317","0.0-18.0","3MX2NQ3YCAGI6O9NYXZ1F18DRH6X5Q","A1MWCDBGZLHJPI","37S0QRNUFB29SLTNXLPAM35NX0F88U","","","img/flower4.png","74","3615.7999999970198","1","1","1","",""
"null","","html-keyboard-response","19","253621","0.0-19.0","3MX2NQ3YCAGI6O9NYXZ1F18DRH6X5Q","A1MWCDBGZLHJPI","37S0QRNUFB29SLTNXLPAM35NX0F88U","","","<img src=""img/flower4.png"" style=""width:200px; border:14px solid green;"">","null","","","","","",""
"2106.10000000149","","image-keyboard-response","20","255731","0.0-20.0","3MX2NQ3YCAGI6O9NYXZ1F18DRH6X5Q","A1MWCDBGZLHJPI","37S0QRNUFB29SLTNXLPAM35NX0F88U","","","img/flower6.png","76","2109.60000000149","3","0","3","",""
"null","","html-keyboard-response","21","256035","0.0-21.0","3MX2NQ3YCAGI6O9NYXZ1F18DRH6X5Q","A1MWCDBGZLHJPI","37S0QRNUFB29SLTNXLPAM35NX0F88U","","","<img src=""img/flower6.png"" style=""width:200px;border:14px solid red;"">","null","","","","","",""
"3017","","image-keyboard-response","22","259055","0.0-22.0","3MX2NQ3YCAGI6O9NYXZ1F18DRH6X5Q","A1MWCDBGZLHJPI","37S0QRNUFB29SLTNXLPAM35NX0F88U","","","img/flower5.png","75","3019.60000000149","2","0","2","",""
"null","","html-keyboard-response","23","259361","0.0-23.0","3MX2NQ3YCAGI6O9NYXZ1F18DRH6X5Q","A1MWCDBGZLHJPI","37S0QRNUFB29SLTNXLPAM35NX0F88U","","","<img src=""img/flower5.png"" style=""width:200px;border:14px solid red;"">","null","","","","","",""
"5112.70000000298","","image-keyboard-response","24","264477","0.0-24.0","3MX2NQ3YCAGI6O9NYXZ1F18DRH6X5Q","A1MWCDBGZLHJPI","37S0QRNUFB29SLTNXLPAM35NX0F88U","","","img/flower5.png","75","5115.79999999702","2","1","2","",""
"null","","html-keyboard-response","25","264781","0.0-25.0","3MX2NQ3YCAGI6O9NYXZ1F18DRH6X5Q","A1MWCDBGZLHJPI","37S0QRNUFB29SLTNXLPAM35NX0F88U","","","<img src=""img/flower5.png"" style=""width:200px; border:14px solid green;"">","null","","","","","",""
"2352.2000000029802","","image-keyboard-response","26","267136","0.0-26.0","3MX2NQ3YCAGI6O9NYXZ1F18DRH6X5Q","A1MWCDBGZLHJPI","37S0QRNUFB29SLTNXLPAM35NX0F88U","","","img/flower5.png","75","2354.6999999955297","2","0","2","",""
"null","","html-keyboard-response","27","267441","0.0-27.0","3MX2NQ3YCAGI6O9NYXZ1F18DRH6X5Q","A1MWCDBGZLHJPI","37S0QRNUFB29SLTNXLPAM35NX0F88U","","","<img src=""img/flower5.png"" style=""width:200px;border:14px solid red;"">","null","","","","","",""
"1433.3999999985099","","image-keyboard-response","28","268878","0.0-28.0","3MX2NQ3YCAGI6O9NYXZ1F18DRH6X5Q","A1MWCDBGZLHJPI","37S0QRNUFB29SLTNXLPAM35NX0F88U","","","img/flower6.png","76","1436.1000000014901","3","1","3","",""
"null","","html-keyboard-response","29","269182","0.0-29.0","3MX2NQ3YCAGI6O9NYXZ1F18DRH6X5Q","A1MWCDBGZLHJPI","37S0QRNUFB29SLTNXLPAM35NX0F88U","","","<img src=""img/flower6.png"" style=""width:200px; border:14px solid green;"">","null","","","","","",""
"1619.1000000014901","","image-keyboard-response","30","270805","0.0-30.0","3MX2NQ3YCAGI6O9NYXZ1F18DRH6X5Q","A1MWCDBGZLHJPI","37S0QRNUFB29SLTNXLPAM35NX0F88U","","","img/flower6.png","76","1623","3","1","3","",""
"null","","html-keyboard-response","31","271109","0.0-31.0","3MX2NQ3YCAGI6O9NYXZ1F18DRH6X5Q","A1MWCDBGZLHJPI","37S0QRNUFB29SLTNXLPAM35NX0F88U","","","<img src=""img/flower6.png"" style=""width:200px; border:14px solid green;"">","null","","","","","",""
"2239","","image-keyboard-response","32","273351","0.0-32.0","3MX2NQ3YCAGI6O9NYXZ1F18DRH6X5Q","A1MWCDBGZLHJPI","37S0QRNUFB29SLTNXLPAM35NX0F88U","","","img/flower6.png","76","2243","3","1","3","",""
"null","","html-keyboard-response","33","273657","0.0-33.0","3MX2NQ3YCAGI6O9NYXZ1F18DRH6X5Q","A1MWCDBGZLHJPI","37S0QRNUFB29SLTNXLPAM35NX0F88U","","","<img src=""img/flower6.png"" style=""width:200px; border:14px solid green;"">","null","","","","","",""
"1775.5","","image-keyboard-response","34","275435","0.0-34.0","3MX2NQ3YCAGI6O9NYXZ1F18DRH6X5Q","A1MWCDBGZLHJPI","37S0QRNUFB29SLTNXLPAM35NX0F88U","","","img/flower5.png","75","1778.0999999940395","2","1","2","",""
"null","","html-keyboard-response","35","275741","0.0-35.0","3MX2NQ3YCAGI6O9NYXZ1F18DRH6X5Q","A1MWCDBGZLHJPI","37S0QRNUFB29SLTNXLPAM35NX0F88U","","","<img src=""img/flower5.png"" style=""width:200px; border:14px solid green;"">","null","","","","","",""
"1624.2000000029802","","image-keyboard-response","36","277371","0.0-36.0","3MX2NQ3YCAGI6O9NYXZ1F18DRH6X5Q","A1MWCDBGZLHJPI","37S0QRNUFB29SLTNXLPAM35NX0F88U","","","img/flower5.png","75","1628.5","2","1","2","",""
"null","","html-keyboard-response","37","277674","0.0-37.0","3MX2NQ3YCAGI6O9NYXZ1F18DRH6X5Q","A1MWCDBGZLHJPI","37S0QRNUFB29SLTNXLPAM35NX0F88U","","","<img src=""img/flower5.png"" style=""width:200px; border:14px solid green;"">","null","","","","","",""
"1194.1999999955297","","image-keyboard-response","38","278873","0.0-38.0","3MX2NQ3YCAGI6O9NYXZ1F18DRH6X5Q","A1MWCDBGZLHJPI","37S0QRNUFB29SLTNXLPAM35NX0F88U","","","img/flower4.png","74","1197.8999999985099","1","0","1","",""
"null","","html-keyboard-response","39","279177","0.0-39.0","3MX2NQ3YCAGI6O9NYXZ1F18DRH6X5Q","A1MWCDBGZLHJPI","37S0QRNUFB29SLTNXLPAM35NX0F88U","","","<img src=""img/flower4.png"" style=""width:200px;border:14px solid red;"">","null","","","","","",""
"945.5","","image-keyboard-response","40","280127","0.0-40.0","3MX2NQ3YCAGI6O9NYXZ1F18DRH6X5Q","A1MWCDBGZLHJPI","37S0QRNUFB29SLTNXLPAM35NX0F88U","","","img/flower4.png","74","950.2999999970198","1","1","1","",""
"null","","html-keyboard-response","41","280433","0.0-41.0","3MX2NQ3YCAGI6O9NYXZ1F18DRH6X5Q","A1MWCDBGZLHJPI","37S0QRNUFB29SLTNXLPAM35NX0F88U","","","<img src=""img/flower4.png"" style=""width:200px; border:14px solid green;"">","null","","","","","",""
"1087.2000000029802","","image-keyboard-response","42","281523","0.0-42.0","3MX2NQ3YCAGI6O9NYXZ1F18DRH6X5Q","A1MWCDBGZLHJPI","37S0QRNUFB29SLTNXLPAM35NX0F88U","","","img/flower5.png","75","1090.5","2","1","2","",""
"null","","html-keyboard-response","43","281827","0.0-43.0","3MX2NQ3YCAGI6O9NYXZ1F18DRH6X5Q","A1MWCDBGZLHJPI","37S0QRNUFB29SLTNXLPAM35NX0F88U","","","<img src=""img/flower5.png"" style=""width:200px; border:14px solid green;"">","null","","","","","",""
"1162.0999999940395","","image-keyboard-response","44","282993","0.0-44.0","3MX2NQ3YCAGI6O9NYXZ1F18DRH6X5Q","A1MWCDBGZLHJPI","37S0QRNUFB29SLTNXLPAM35NX0F88U","","","img/flower5.png","75","1164.8999999985099","2","0","2","",""
"null","","html-keyboard-response","45","283298","0.0-45.0","3MX2NQ3YCAGI6O9NYXZ1F18DRH6X5Q","A1MWCDBGZLHJPI","37S0QRNUFB29SLTNXLPAM35NX0F88U","","","<img src=""img/flower5.png"" style=""width:200px;border:14px solid red;"">","null","","","","","",""
"918.1000000014901","","image-keyboard-response","46","284220","0.0-46.0","3MX2NQ3YCAGI6O9NYXZ1F18DRH6X5Q","A1MWCDBGZLHJPI","37S0QRNUFB29SLTNXLPAM35NX0F88U","","","img/flower6.png","76","921.1999999955297","3","0","3","",""
"null","","html-keyboard-response","47","284525","0.0-47.0","3MX2NQ3YCAGI6O9NYXZ1F18DRH6X5Q","A1MWCDBGZLHJPI","37S0QRNUFB29SLTNXLPAM35NX0F88U","","","<img src=""img/flower6.png"" style=""width:200px;border:14px solid red;"">","null","","","","","",""
"1684.8000000044703","","image-keyboard-response","48","286213","0.0-48.0","3MX2NQ3YCAGI6O9NYXZ1F18DRH6X5Q","A1MWCDBGZLHJPI","37S0QRNUFB29SLTNXLPAM35NX0F88U","","","img/flower4.png","74","1687.1999999955297","1","1","1","",""
"null","","html-keyboard-response","49","286522","0.0-49.0","3MX2NQ3YCAGI6O9NYXZ1F18DRH6X5Q","A1MWCDBGZLHJPI","37S0QRNUFB29SLTNXLPAM35NX0F88U","","","<img src=""img/flower4.png"" style=""width:200px; border:14px solid green;"">","null","","","","","",""
"1721.5","","image-keyboard-response","50","288251","0.0-50.0","3MX2NQ3YCAGI6O9NYXZ1F18DRH6X5Q","A1MWCDBGZLHJPI","37S0QRNUFB29SLTNXLPAM35NX0F88U","","","img/flower6.png","76","1728","3","1","3","",""
"null","","html-keyboard-response","51","288555","0.0-51.0","3MX2NQ3YCAGI6O9NYXZ1F18DRH6X5Q","A1MWCDBGZLHJPI","37S0QRNUFB29SLTNXLPAM35NX0F88U","","","<img src=""img/flower6.png"" style=""width:200px; border:14px solid green;"">","null","","","","","",""
"1400.7999999970198","","image-keyboard-response","52","289958","0.0-52.0","3MX2NQ3YCAGI6O9NYXZ1F18DRH6X5Q","A1MWCDBGZLHJPI","37S0QRNUFB29SLTNXLPAM35NX0F88U","","","img/flower4.png","74","1403.5","1","1","1","",""
"null","","html-keyboard-response","53","290262","0.0-53.0","3MX2NQ3YCAGI6O9NYXZ1F18DRH6X5Q","A1MWCDBGZLHJPI","37S0QRNUFB29SLTNXLPAM35NX0F88U","","","<img src=""img/flower4.png"" style=""width:200px; border:14px solid green;"">","null","","","","","",""
"1429.1000000014901","","image-keyboard-response","54","291695","0.0-54.0","3MX2NQ3YCAGI6O9NYXZ1F18DRH6X5Q","A1MWCDBGZLHJPI","37S0QRNUFB29SLTNXLPAM35NX0F88U","","","img/flower4.png","74","1431.8999999985099","1","1","1","",""
"null","","html-keyboard-response","55","291998","0.0-55.0","3MX2NQ3YCAGI6O9NYXZ1F18DRH6X5Q","A1MWCDBGZLHJPI","37S0QRNUFB29SLTNXLPAM35NX0F88U","","","<img src=""img/flower4.png"" style=""width:200px; border:14px solid green;"">","null","","","","","",""
"792.2999999970198","","image-keyboard-response","56","292795","0.0-56.0","3MX2NQ3YCAGI6O9NYXZ1F18DRH6X5Q","A1MWCDBGZLHJPI","37S0QRNUFB29SLTNXLPAM35NX0F88U","","","img/flower6.png","76","795","3","1","3","",""
"null","","html-keyboard-response","57","293099","0.0-57.0","3MX2NQ3YCAGI6O9NYXZ1F18DRH6X5Q","A1MWCDBGZLHJPI","37S0QRNUFB29SLTNXLPAM35NX0F88U","","","<img src=""img/flower6.png"" style=""width:200px; border:14px solid green;"">","null","","","","","",""
"1062.8999999985099","","image-keyboard-response","58","294166","0.0-58.0","3MX2NQ3YCAGI6O9NYXZ1F18DRH6X5Q","A1MWCDBGZLHJPI","37S0QRNUFB29SLTNXLPAM35NX0F88U","","","img/flower5.png","75","1066.1999999955297","2","1","2","",""
"null","","html-keyboard-response","59","294470","0.0-59.0","3MX2NQ3YCAGI6O9NYXZ1F18DRH6X5Q","A1MWCDBGZLHJPI","37S0QRNUFB29SLTNXLPAM35NX0F88U","","","<img src=""img/flower5.png"" style=""width:200px; border:14px solid green;"">","null","","","","","",""
"1787.1999999955297","","image-keyboard-response","60","296261","0.0-60.0","3MX2NQ3YCAGI6O9NYXZ1F18DRH6X5Q","A1MWCDBGZLHJPI","37S0QRNUFB29SLTNXLPAM35NX0F88U","","","img/flower4.png","74","1791","1","0","1","",""
"null","","html-keyboard-response","61","296566","0.0-61.0","3MX2NQ3YCAGI6O9NYXZ1F18DRH6X5Q","A1MWCDBGZLHJPI","37S0QRNUFB29SLTNXLPAM35NX0F88U","","","<img src=""img/flower4.png"" style=""width:200px;border:14px solid red;"">","null","","","","","",""
"987.6000000014901","","image-keyboard-response","62","297557","0.0-62.0","3MX2NQ3YCAGI6O9NYXZ1F18DRH6X5Q","A1MWCDBGZLHJPI","37S0QRNUFB29SLTNXLPAM35NX0F88U","","","img/flower4.png","74","990.7000000029802","1","0","1","",""
"null","","html-keyboard-response","63","297865","0.0-63.0","3MX2NQ3YCAGI6O9NYXZ1F18DRH6X5Q","A1MWCDBGZLHJPI","37S0QRNUFB29SLTNXLPAM35NX0F88U","","","<img src=""img/flower4.png"" style=""width:200px;border:14px solid red;"">","null","","","","","",""
"41668.69999999553","","instructions","64","339540","0.0-64.0","3MX2NQ3YCAGI6O9NYXZ1F18DRH6X5Q","A1MWCDBGZLHJPI","37S0QRNUFB29SLTNXLPAM35NX0F88U","","[{""page_index"":0,""viewing_time"":7973.29999999702},{""page_index"":1,""viewing_time"":33693}]","","","","","","","",""
"1679.5","","image-keyboard-response","65","341224","0.0-65.0","3MX2NQ3YCAGI6O9NYXZ1F18DRH6X5Q","A1MWCDBGZLHJPI","37S0QRNUFB29SLTNXLPAM35NX0F88U","","","img/flower6.png","74","1683.3999999985099","1","1","3","",""
"null","","html-keyboard-response","66","341528","0.0-66.0","3MX2NQ3YCAGI6O9NYXZ1F18DRH6X5Q","A1MWCDBGZLHJPI","37S0QRNUFB29SLTNXLPAM35NX0F88U","","","<img src=""img/flower6.png"" style=""width:200px; border:14px solid green;"">","null","","","","","",""
"3649.2999999970198","","image-keyboard-response","67","345181","0.0-67.0","3MX2NQ3YCAGI6O9NYXZ1F18DRH6X5Q","A1MWCDBGZLHJPI","37S0QRNUFB29SLTNXLPAM35NX0F88U","","","img/flower5.png","75","3652.5","2","1","2","",""
"null","","html-keyboard-response","68","345485","0.0-68.0","3MX2NQ3YCAGI6O9NYXZ1F18DRH6X5Q","A1MWCDBGZLHJPI","37S0QRNUFB29SLTNXLPAM35NX0F88U","","","<img src=""img/flower5.png"" style=""width:200px; border:14px solid green;"">","null","","","","","",""
"993.7999999970198","","image-keyboard-response","69","346487","0.0-69.0","3MX2NQ3YCAGI6O9NYXZ1F18DRH6X5Q","A1MWCDBGZLHJPI","37S0QRNUFB29SLTNXLPAM35NX0F88U","","","img/flower5.png","75","1000","2","0","2","",""
"null","","html-keyboard-response","70","346791","0.0-70.0","3MX2NQ3YCAGI6O9NYXZ1F18DRH6X5Q","A1MWCDBGZLHJPI","37S0QRNUFB29SLTNXLPAM35NX0F88U","","","<img src=""img/flower5.png"" style=""width:200px;border:14px solid red;"">","null","","","","","",""
"4462.79999999702","","image-keyboard-response","71","351258","0.0-71.0","3MX2NQ3YCAGI6O9NYXZ1F18DRH6X5Q","A1MWCDBGZLHJPI","37S0QRNUFB29SLTNXLPAM35NX0F88U","","","img/flower5.png","75","4466.29999999702","2","1","2","",""
"null","","html-keyboard-response","72","351563","0.0-72.0","3MX2NQ3YCAGI6O9NYXZ1F18DRH6X5Q","A1MWCDBGZLHJPI","37S0QRNUFB29SLTNXLPAM35NX0F88U","","","<img src=""img/flower5.png"" style=""width:200px; border:14px solid green;"">","null","","","","","",""
"309","","image-keyboard-response","73","351876","0.0-73.0","3MX2NQ3YCAGI6O9NYXZ1F18DRH6X5Q","A1MWCDBGZLHJPI","37S0QRNUFB29SLTNXLPAM35NX0F88U","","","img/flower6.png","76","311.6000000014901","3","1","3","",""
"null","","html-keyboard-response","74","352181","0.0-74.0","3MX2NQ3YCAGI6O9NYXZ1F18DRH6X5Q","A1MWCDBGZLHJPI","37S0QRNUFB29SLTNXLPAM35NX0F88U","","","<img src=""img/flower6.png"" style=""width:200px; border:14px solid green;"">","null","","","","","",""
"3529.7000000029802","","image-keyboard-response","75","355714","0.0-75.0","3MX2NQ3YCAGI6O9NYXZ1F18DRH6X5Q","A1MWCDBGZLHJPI","37S0QRNUFB29SLTNXLPAM35NX0F88U","","","img/flower5.png","75","3533.10000000149","2","1","2","",""
"null","","html-keyboard-response","76","356018","0.0-76.0","3MX2NQ3YCAGI6O9NYXZ1F18DRH6X5Q","A1MWCDBGZLHJPI","37S0QRNUFB29SLTNXLPAM35NX0F88U","","","<img src=""img/flower5.png"" style=""width:200px; border:14px solid green;"">","null","","","","","",""
"1624.6000000014901","","image-keyboard-response","77","357647","0.0-77.0","3MX2NQ3YCAGI6O9NYXZ1F18DRH6X5Q","A1MWCDBGZLHJPI","37S0QRNUFB29SLTNXLPAM35NX0F88U","","","img/flower5.png","76","1628.1000000014901","3","0","2","",""
"null","","html-keyboard-response","78","357951","0.0-78.0","3MX2NQ3YCAGI6O9NYXZ1F18DRH6X5Q","A1MWCDBGZLHJPI","37S0QRNUFB29SLTNXLPAM35NX0F88U","","","<img src=""img/flower5.png"" style=""width:200px;border:14px solid red;"">","null","","","","","",""
"1891.5999999940395","","image-keyboard-response","79","359846","0.0-79.0","3MX2NQ3YCAGI6O9NYXZ1F18DRH6X5Q","A1MWCDBGZLHJPI","37S0QRNUFB29SLTNXLPAM35NX0F88U","","","img/flower6.png","74","1894.9000000059605","1","1","3","",""
"null","","html-keyboard-response","80","360151","0.0-80.0","3MX2NQ3YCAGI6O9NYXZ1F18DRH6X5Q","A1MWCDBGZLHJPI","37S0QRNUFB29SLTNXLPAM35NX0F88U","","","<img src=""img/flower6.png"" style=""width:200px; border:14px solid green;"">","null","","","","","",""
"295.20000000298023","","image-keyboard-response","81","360452","0.0-81.0","3MX2NQ3YCAGI6O9NYXZ1F18DRH6X5Q","A1MWCDBGZLHJPI","37S0QRNUFB29SLTNXLPAM35NX0F88U","","","img/flower6.png","76","300.70000000298023","3","1","3","",""
"null","","html-keyboard-response","82","360757","0.0-82.0","3MX2NQ3YCAGI6O9NYXZ1F18DRH6X5Q","A1MWCDBGZLHJPI","37S0QRNUFB29SLTNXLPAM35NX0F88U","","","<img src=""img/flower6.png"" style=""width:200px; border:14px solid green;"">","null","","","","","",""
"1102.2999999970198","","image-keyboard-response","83","361863","0.0-83.0","3MX2NQ3YCAGI6O9NYXZ1F18DRH6X5Q","A1MWCDBGZLHJPI","37S0QRNUFB29SLTNXLPAM35NX0F88U","","","img/flower6.png","74","1106.2000000029802","1","1","3","",""
"null","","html-keyboard-response","84","362167","0.0-84.0","3MX2NQ3YCAGI6O9NYXZ1F18DRH6X5Q","A1MWCDBGZLHJPI","37S0QRNUFB29SLTNXLPAM35NX0F88U","","","<img src=""img/flower6.png"" style=""width:200px; border:14px solid green;"">","null","","","","","",""
"6517.5","","image-keyboard-response","85","368689","0.0-85.0","3MX2NQ3YCAGI6O9NYXZ1F18DRH6X5Q","A1MWCDBGZLHJPI","37S0QRNUFB29SLTNXLPAM35NX0F88U","","","img/flower5.png","75","6522.19999999553","2","1","2","",""
"null","","html-keyboard-response","86","368993","0.0-86.0","3MX2NQ3YCAGI6O9NYXZ1F18DRH6X5Q","A1MWCDBGZLHJPI","37S0QRNUFB29SLTNXLPAM35NX0F88U","","","<img src=""img/flower5.png"" style=""width:200px; border:14px solid green;"">","null","","","","","",""
"3903.7000000029802","","image-keyboard-response","87","372900","0.0-87.0","3MX2NQ3YCAGI6O9NYXZ1F18DRH6X5Q","A1MWCDBGZLHJPI","37S0QRNUFB29SLTNXLPAM35NX0F88U","","","img/flower4.png","74","3906","1","1","1","",""
"null","","html-keyboard-response","88","373203","0.0-88.0","3MX2NQ3YCAGI6O9NYXZ1F18DRH6X5Q","A1MWCDBGZLHJPI","37S0QRNUFB29SLTNXLPAM35NX0F88U","","","<img src=""img/flower4.png"" style=""width:200px; border:14px solid green;"">","null","","","","","",""
"6310.29999999702","","image-keyboard-response","89","379517","0.0-89.0","3MX2NQ3YCAGI6O9NYXZ1F18DRH6X5Q","A1MWCDBGZLHJPI","37S0QRNUFB29SLTNXLPAM35NX0F88U","","","img/flower5.png","75","6313.5","2","1","2","",""
"null","","html-keyboard-response","90","379823","0.0-90.0","3MX2NQ3YCAGI6O9NYXZ1F18DRH6X5Q","A1MWCDBGZLHJPI","37S0QRNUFB29SLTNXLPAM35NX0F88U","","","<img src=""img/flower5.png"" style=""width:200px; border:14px solid green;"">","null","","","","","",""
"1878.8999999985099","","image-keyboard-response","91","381707","0.0-91.0","3MX2NQ3YCAGI6O9NYXZ1F18DRH6X5Q","A1MWCDBGZLHJPI","37S0QRNUFB29SLTNXLPAM35NX0F88U","","","img/flower4.png","74","1883.2999999970198","1","1","1","",""
"null","","html-keyboard-response","92","382011","0.0-92.0","3MX2NQ3YCAGI6O9NYXZ1F18DRH6X5Q","A1MWCDBGZLHJPI","37S0QRNUFB29SLTNXLPAM35NX0F88U","","","<img src=""img/flower4.png"" style=""width:200px; border:14px solid green;"">","null","","","","","",""
"1017.7000000029802","","image-keyboard-response","93","383033","0.0-93.0","3MX2NQ3YCAGI6O9NYXZ1F18DRH6X5Q","A1MWCDBGZLHJPI","37S0QRNUFB29SLTNXLPAM35NX0F88U","","","img/flower4.png","74","1020.7000000029802","1","1","1","",""
"null","","html-keyboard-response","94","383340","0.0-94.0","3MX2NQ3YCAGI6O9NYXZ1F18DRH6X5Q","A1MWCDBGZLHJPI","37S0QRNUFB29SLTNXLPAM35NX0F88U","","","<img src=""img/flower4.png"" style=""width:200px; border:14px solid green;"">","null","","","","","",""
"1665.2999999970198","","image-keyboard-response","95","385010","0.0-95.0","3MX2NQ3YCAGI6O9NYXZ1F18DRH6X5Q","A1MWCDBGZLHJPI","37S0QRNUFB29SLTNXLPAM35NX0F88U","","","img/flower6.png","74","1668.1000000014901","1","1","3","",""
"null","","html-keyboard-response","96","385314","0.0-96.0","3MX2NQ3YCAGI6O9NYXZ1F18DRH6X5Q","A1MWCDBGZLHJPI","37S0QRNUFB29SLTNXLPAM35NX0F88U","","","<img src=""img/flower6.png"" style=""width:200px; border:14px solid green;"">","null","","","","","",""
"4795.60000000149","","image-keyboard-response","97","390113","0.0-97.0","3MX2NQ3YCAGI6O9NYXZ1F18DRH6X5Q","A1MWCDBGZLHJPI","37S0QRNUFB29SLTNXLPAM35NX0F88U","","","img/flower4.png","74","4798.19999999553","1","1","1","",""
"null","","html-keyboard-response","98","390419","0.0-98.0","3MX2NQ3YCAGI6O9NYXZ1F18DRH6X5Q","A1MWCDBGZLHJPI","37S0QRNUFB29SLTNXLPAM35NX0F88U","","","<img src=""img/flower4.png"" style=""width:200px; border:14px solid green;"">","null","","","","","",""
"1154.3999999985099","","image-keyboard-response","99","391579","0.0-99.0","3MX2NQ3YCAGI6O9NYXZ1F18DRH6X5Q","A1MWCDBGZLHJPI","37S0QRNUFB29SLTNXLPAM35NX0F88U","","","img/flower4.png","74","1159.2000000029802","1","1","1","",""
"null","","html-keyboard-response","100","391886","0.0-100.0","3MX2NQ3YCAGI6O9NYXZ1F18DRH6X5Q","A1MWCDBGZLHJPI","37S0QRNUFB29SLTNXLPAM35NX0F88U","","","<img src=""img/flower4.png"" style=""width:200px; border:14px solid green;"">","null","","","","","",""
"2051.60000000149","","image-keyboard-response","101","393943","0.0-101.0","3MX2NQ3YCAGI6O9NYXZ1F18DRH6X5Q","A1MWCDBGZLHJPI","37S0QRNUFB29SLTNXLPAM35NX0F88U","","","img/flower5.png","75","2055.7999999970198","2","0","2","",""
"null","","html-keyboard-response","102","394248","0.0-102.0","3MX2NQ3YCAGI6O9NYXZ1F18DRH6X5Q","A1MWCDBGZLHJPI","37S0QRNUFB29SLTNXLPAM35NX0F88U","","","<img src=""img/flower5.png"" style=""width:200px;border:14px solid red;"">","null","","","","","",""
"2152.39999999851","","image-keyboard-response","103","396405","0.0-103.0","3MX2NQ3YCAGI6O9NYXZ1F18DRH6X5Q","A1MWCDBGZLHJPI","37S0QRNUFB29SLTNXLPAM35NX0F88U","","","img/flower4.png","74","2156.10000000149","1","1","1","",""
"null","","html-keyboard-response","104","396708","0.0-104.0","3MX2NQ3YCAGI6O9NYXZ1F18DRH6X5Q","A1MWCDBGZLHJPI","37S0QRNUFB29SLTNXLPAM35NX0F88U","","","<img src=""img/flower4.png"" style=""width:200px; border:14px solid green;"">","null","","","","","",""
"888.1000000014901","","image-keyboard-response","105","397599","0.0-105.0","3MX2NQ3YCAGI6O9NYXZ1F18DRH6X5Q","A1MWCDBGZLHJPI","37S0QRNUFB29SLTNXLPAM35NX0F88U","","","img/flower4.png","74","890.5","1","1","1","",""
"null","","html-keyboard-response","106","397904","0.0-106.0","3MX2NQ3YCAGI6O9NYXZ1F18DRH6X5Q","A1MWCDBGZLHJPI","37S0QRNUFB29SLTNXLPAM35NX0F88U","","","<img src=""img/flower4.png"" style=""width:200px; border:14px solid green;"">","null","","","","","",""
"1425.3000000044703","","image-keyboard-response","107","399333","0.0-107.0","3MX2NQ3YCAGI6O9NYXZ1F18DRH6X5Q","A1MWCDBGZLHJPI","37S0QRNUFB29SLTNXLPAM35NX0F88U","","","img/flower6.png","74","1428.7000000029802","1","1","3","",""
"null","","html-keyboard-response","108","399638","0.0-108.0","3MX2NQ3YCAGI6O9NYXZ1F18DRH6X5Q","A1MWCDBGZLHJPI","37S0QRNUFB29SLTNXLPAM35NX0F88U","","","<img src=""img/flower6.png"" style=""width:200px; border:14px solid green;"">","null","","","","","",""
"753.6000000014901","","image-keyboard-response","109","400395","0.0-109.0","3MX2NQ3YCAGI6O9NYXZ1F18DRH6X5Q","A1MWCDBGZLHJPI","37S0QRNUFB29SLTNXLPAM35NX0F88U","","","img/flower6.png","74","756.6999999955297","1","1","3","",""
"null","","html-keyboard-response","110","400699","0.0-110.0","3MX2NQ3YCAGI6O9NYXZ1F18DRH6X5Q","A1MWCDBGZLHJPI","37S0QRNUFB29SLTNXLPAM35NX0F88U","","","<img src=""img/flower6.png"" style=""width:200px; border:14px solid green;"">","null","","","","","",""
"1470.6000000014901","","image-keyboard-response","111","402174","0.0-111.0","3MX2NQ3YCAGI6O9NYXZ1F18DRH6X5Q","A1MWCDBGZLHJPI","37S0QRNUFB29SLTNXLPAM35NX0F88U","","","img/flower4.png","75","1474.1000000014901","2","1","1","",""
"null","","html-keyboard-response","112","402478","0.0-112.0","3MX2NQ3YCAGI6O9NYXZ1F18DRH6X5Q","A1MWCDBGZLHJPI","37S0QRNUFB29SLTNXLPAM35NX0F88U","","","<img src=""img/flower4.png"" style=""width:200px; border:14px solid green;"">","null","","","","","",""
"1588.8999999985099","","image-keyboard-response","113","404071","0.0-113.0","3MX2NQ3YCAGI6O9NYXZ1F18DRH6X5Q","A1MWCDBGZLHJPI","37S0QRNUFB29SLTNXLPAM35NX0F88U","","","img/flower5.png","75","1592.7000000029802","2","1","2","",""
"null","","html-keyboard-response","114","404377","0.0-114.0","3MX2NQ3YCAGI6O9NYXZ1F18DRH6X5Q","A1MWCDBGZLHJPI","37S0QRNUFB29SLTNXLPAM35NX0F88U","","","<img src=""img/flower5.png"" style=""width:200px; border:14px solid green;"">","null","","","","","",""
"1546.2999999970198","","image-keyboard-response","115","405928","0.0-115.0","3MX2NQ3YCAGI6O9NYXZ1F18DRH6X5Q","A1MWCDBGZLHJPI","37S0QRNUFB29SLTNXLPAM35NX0F88U","","","img/flower4.png","75","1549.9000000059605","2","1","1","",""
"null","","html-keyboard-response","116","406231","0.0-116.0","3MX2NQ3YCAGI6O9NYXZ1F18DRH6X5Q","A1MWCDBGZLHJPI","37S0QRNUFB29SLTNXLPAM35NX0F88U","","","<img src=""img/flower4.png"" style=""width:200px; border:14px solid green;"">","null","","","","","",""
"866.6000000014901","","image-keyboard-response","117","407102","0.0-117.0","3MX2NQ3YCAGI6O9NYXZ1F18DRH6X5Q","A1MWCDBGZLHJPI","37S0QRNUFB29SLTNXLPAM35NX0F88U","","","img/flower4.png","74","869.8999999985099","1","0","1","",""
"null","","html-keyboard-response","118","407411","0.0-118.0","3MX2NQ3YCAGI6O9NYXZ1F18DRH6X5Q","A1MWCDBGZLHJPI","37S0QRNUFB29SLTNXLPAM35NX0F88U","","","<img src=""img/flower4.png"" style=""width:200px;border:14px solid red;"">","null","","","","","",""
"1141.5","","image-keyboard-response","119","408557","0.0-119.0","3MX2NQ3YCAGI6O9NYXZ1F18DRH6X5Q","A1MWCDBGZLHJPI","37S0QRNUFB29SLTNXLPAM35NX0F88U","","","img/flower6.png","74","1145.1000000014901","1","1","3","",""
"null","","html-keyboard-response","120","408861","0.0-120.0","3MX2NQ3YCAGI6O9NYXZ1F18DRH6X5Q","A1MWCDBGZLHJPI","37S0QRNUFB29SLTNXLPAM35NX0F88U","","","<img src=""img/flower6.png"" style=""width:200px; border:14px solid green;"">","null","","","","","",""
"702.1999999955297","","image-keyboard-response","121","409567","0.0-121.0","3MX2NQ3YCAGI6O9NYXZ1F18DRH6X5Q","A1MWCDBGZLHJPI","37S0QRNUFB29SLTNXLPAM35NX0F88U","","","img/flower6.png","74","706.5","1","0","3","",""
"null","","html-keyboard-response","122","409872","0.0-122.0","3MX2NQ3YCAGI6O9NYXZ1F18DRH6X5Q","A1MWCDBGZLHJPI","37S0QRNUFB29SLTNXLPAM35NX0F88U","","","<img src=""img/flower6.png"" style=""width:200px;border:14px solid red;"">","null","","","","","",""
"1579.2999999970198","","image-keyboard-response","123","411460","0.0-123.0","3MX2NQ3YCAGI6O9NYXZ1F18DRH6X5Q","A1MWCDBGZLHJPI","37S0QRNUFB29SLTNXLPAM35NX0F88U","","","img/flower5.png","75","1586.2999999970198","2","1","2","",""
"null","","html-keyboard-response","124","411764","0.0-124.0","3MX2NQ3YCAGI6O9NYXZ1F18DRH6X5Q","A1MWCDBGZLHJPI","37S0QRNUFB29SLTNXLPAM35NX0F88U","","","<img src=""img/flower5.png"" style=""width:200px; border:14px solid green;"">","null","","","","","",""
"8564.29999999702","","instructions","125","420332","0.0-125.0","3MX2NQ3YCAGI6O9NYXZ1F18DRH6X5Q","A1MWCDBGZLHJPI","37S0QRNUFB29SLTNXLPAM35NX0F88U","","[{""page_index"":0,""viewing_time"":8562.39999999851}]","","","","","","","",""
"5688.20000000298","","image-keyboard-response","126","426025","0.0-126.0","3MX2NQ3YCAGI6O9NYXZ1F18DRH6X5Q","A1MWCDBGZLHJPI","37S0QRNUFB29SLTNXLPAM35NX0F88U","","","img/flower1.png","74","5692.5","1","1","2","0.7,0.2,0,0.7,0,0.2,0.2,0,0.7",""
"null","","html-keyboard-response","127","426331","0.0-127.0","3MX2NQ3YCAGI6O9NYXZ1F18DRH6X5Q","A1MWCDBGZLHJPI","37S0QRNUFB29SLTNXLPAM35NX0F88U","","","<img src=""img/flower1.png"" style=""width:200px; border:14px solid green;"">","null","","","","","",""
"1320.1000000014901","","image-keyboard-response","128","427659","0.0-128.0","3MX2NQ3YCAGI6O9NYXZ1F18DRH6X5Q","A1MWCDBGZLHJPI","37S0QRNUFB29SLTNXLPAM35NX0F88U","","","img/flower1.png","74","1325.7000000029802","1","1","2","0.7,0.2,0,0.7,0,0.2,0.2,0,0.7",""
"null","","html-keyboard-response","129","427965","0.0-129.0","3MX2NQ3YCAGI6O9NYXZ1F18DRH6X5Q","A1MWCDBGZLHJPI","37S0QRNUFB29SLTNXLPAM35NX0F88U","","","<img src=""img/flower1.png"" style=""width:200px; border:14px solid green;"">","null","","","","","",""
"1278.5999999940395","","image-keyboard-response","130","429247","0.0-130.0","3MX2NQ3YCAGI6O9NYXZ1F18DRH6X5Q","A1MWCDBGZLHJPI","37S0QRNUFB29SLTNXLPAM35NX0F88U","","","img/flower6.png","76","1281.7999999970198","3","0","1","0.7,0.2,0,0.7,0,0.2,0.2,0,0.7",""
"null","","html-keyboard-response","131","429552","0.0-131.0","3MX2NQ3YCAGI6O9NYXZ1F18DRH6X5Q","A1MWCDBGZLHJPI","37S0QRNUFB29SLTNXLPAM35NX0F88U","","","<img src=""img/flower6.png"" style=""width:200px;border:14px solid red;"">","null","","","","","",""
"1922","","image-keyboard-response","132","431478","0.0-132.0","3MX2NQ3YCAGI6O9NYXZ1F18DRH6X5Q","A1MWCDBGZLHJPI","37S0QRNUFB29SLTNXLPAM35NX0F88U","","","img/flower1.png","74","1925.1000000014901","1","1","2","0.7,0.2,0,0.7,0,0.2,0.2,0,0.7",""
"null","","html-keyboard-response","133","431782","0.0-133.0","3MX2NQ3YCAGI6O9NYXZ1F18DRH6X5Q","A1MWCDBGZLHJPI","37S0QRNUFB29SLTNXLPAM35NX0F88U","","","<img src=""img/flower1.png"" style=""width:200px; border:14px solid green;"">","null","","","","","",""
"1530.1000000014901","","image-keyboard-response","134","433316","0.0-134.0","3MX2NQ3YCAGI6O9NYXZ1F18DRH6X5Q","A1MWCDBGZLHJPI","37S0QRNUFB29SLTNXLPAM35NX0F88U","","","img/flower4.png","75","1533.6000000014901","2","0","3","0.7,0.2,0,0.7,0,0.2,0.2,0,0.7",""
"null","","html-keyboard-response","135","433620","0.0-135.0","3MX2NQ3YCAGI6O9NYXZ1F18DRH6X5Q","A1MWCDBGZLHJPI","37S0QRNUFB29SLTNXLPAM35NX0F88U","","","<img src=""img/flower4.png"" style=""width:200px;border:14px solid red;"">","null","","","","","",""
"1118.5999999940395","","image-keyboard-response","136","434744","0.0-136.0","3MX2NQ3YCAGI6O9NYXZ1F18DRH6X5Q","A1MWCDBGZLHJPI","37S0QRNUFB29SLTNXLPAM35NX0F88U","","","img/flower4.png","75","1123.2999999970198","2","0","3","0.7,0.2,0,0.7,0,0.2,0.2,0,0.7",""
"null","","html-keyboard-response","137","435049","0.0-137.0","3MX2NQ3YCAGI6O9NYXZ1F18DRH6X5Q","A1MWCDBGZLHJPI","37S0QRNUFB29SLTNXLPAM35NX0F88U","","","<img src=""img/flower4.png"" style=""width:200px;border:14px solid red;"">","null","","","","","",""
"2841.7000000029802","","image-keyboard-response","138","437893","0.0-138.0","3MX2NQ3YCAGI6O9NYXZ1F18DRH6X5Q","A1MWCDBGZLHJPI","37S0QRNUFB29SLTNXLPAM35NX0F88U","","","img/flower4.png","76","2844.2000000029802","3","1","3","0.7,0.2,0,0.7,0,0.2,0.2,0,0.7",""
"null","","html-keyboard-response","139","438197","0.0-139.0","3MX2NQ3YCAGI6O9NYXZ1F18DRH6X5Q","A1MWCDBGZLHJPI","37S0QRNUFB29SLTNXLPAM35NX0F88U","","","<img src=""img/flower4.png"" style=""width:200px; border:14px solid green;"">","null","","","","","",""
"3243.10000000149","","image-keyboard-response","140","441445","0.0-140.0","3MX2NQ3YCAGI6O9NYXZ1F18DRH6X5Q","A1MWCDBGZLHJPI","37S0QRNUFB29SLTNXLPAM35NX0F88U","","","img/flower1.png","74","3246.5","1","1","2","0.7,0.2,0,0.7,0,0.2,0.2,0,0.7",""
"null","","html-keyboard-response","141","441748","0.0-141.0","3MX2NQ3YCAGI6O9NYXZ1F18DRH6X5Q","A1MWCDBGZLHJPI","37S0QRNUFB29SLTNXLPAM35NX0F88U","","","<img src=""img/flower1.png"" style=""width:200px; border:14px solid green;"">","null","","","","","",""
"1535.6000000014901","","image-keyboard-response","142","443288","0.0-142.0","3MX2NQ3YCAGI6O9NYXZ1F18DRH6X5Q","A1MWCDBGZLHJPI","37S0QRNUFB29SLTNXLPAM35NX0F88U","","","img/flower4.png","75","1539","2","0","3","0.7,0.2,0,0.7,0,0.2,0.2,0,0.7",""
"null","","html-keyboard-response","143","443593","0.0-143.0","3MX2NQ3YCAGI6O9NYXZ1F18DRH6X5Q","A1MWCDBGZLHJPI","37S0QRNUFB29SLTNXLPAM35NX0F88U","","","<img src=""img/flower4.png"" style=""width:200px;border:14px solid red;"">","null","","","","","",""
"1027.8000000044703","","image-keyboard-response","144","444625","0.0-144.0","3MX2NQ3YCAGI6O9NYXZ1F18DRH6X5Q","A1MWCDBGZLHJPI","37S0QRNUFB29SLTNXLPAM35NX0F88U","","","img/flower4.png","75","1031.7999999970198","2","0","3","0.7,0.2,0,0.7,0,0.2,0.2,0,0.7",""
"null","","html-keyboard-response","145","444930","0.0-145.0","3MX2NQ3YCAGI6O9NYXZ1F18DRH6X5Q","A1MWCDBGZLHJPI","37S0QRNUFB29SLTNXLPAM35NX0F88U","","","<img src=""img/flower4.png"" style=""width:200px;border:14px solid red;"">","null","","","","","",""
"1407.1000000014901","","image-keyboard-response","146","446341","0.0-146.0","3MX2NQ3YCAGI6O9NYXZ1F18DRH6X5Q","A1MWCDBGZLHJPI","37S0QRNUFB29SLTNXLPAM35NX0F88U","","","img/flower4.png","75","1410.4000000059605","2","0","3","0.7,0.2,0,0.7,0,0.2,0.2,0,0.7",""
"null","","html-keyboard-response","147","446647","0.0-147.0","3MX2NQ3YCAGI6O9NYXZ1F18DRH6X5Q","A1MWCDBGZLHJPI","37S0QRNUFB29SLTNXLPAM35NX0F88U","","","<img src=""img/flower4.png"" style=""width:200px;border:14px solid red;"">","null","","","","","",""
"3625.7999999970198","","image-keyboard-response","148","450277","0.0-148.0","3MX2NQ3YCAGI6O9NYXZ1F18DRH6X5Q","A1MWCDBGZLHJPI","37S0QRNUFB29SLTNXLPAM35NX0F88U","","","img/flower4.png","76","3629.3000000044703","3","1","3","0.7,0.2,0,0.7,0,0.2,0.2,0,0.7",""
"null","","html-keyboard-response","149","450582","0.0-149.0","3MX2NQ3YCAGI6O9NYXZ1F18DRH6X5Q","A1MWCDBGZLHJPI","37S0QRNUFB29SLTNXLPAM35NX0F88U","","","<img src=""img/flower4.png"" style=""width:200px; border:14px solid green;"">","null","","","","","",""
"2427.39999999851","","image-keyboard-response","150","453015","0.0-150.0","3MX2NQ3YCAGI6O9NYXZ1F18DRH6X5Q","A1MWCDBGZLHJPI","37S0QRNUFB29SLTNXLPAM35NX0F88U","","","img/flower4.png","76","2431.5","3","0","3","0.7,0.2,0,0.7,0,0.2,0.2,0,0.7",""
"null","","html-keyboard-response","151","453320","0.0-151.0","3MX2NQ3YCAGI6O9NYXZ1F18DRH6X5Q","A1MWCDBGZLHJPI","37S0QRNUFB29SLTNXLPAM35NX0F88U","","","<img src=""img/flower4.png"" style=""width:200px;border:14px solid red;"">","null","","","","","",""
"1134.7000000029802","","image-keyboard-response","152","454459","0.0-152.0","3MX2NQ3YCAGI6O9NYXZ1F18DRH6X5Q","A1MWCDBGZLHJPI","37S0QRNUFB29SLTNXLPAM35NX0F88U","","","img/flower4.png","76","1137.8999999985099","3","1","3","0.7,0.2,0,0.7,0,0.2,0.2,0,0.7",""
"null","","html-keyboard-response","153","454762","0.0-153.0","3MX2NQ3YCAGI6O9NYXZ1F18DRH6X5Q","A1MWCDBGZLHJPI","37S0QRNUFB29SLTNXLPAM35NX0F88U","","","<img src=""img/flower4.png"" style=""width:200px; border:14px solid green;"">","null","","","","","",""
"1367.3999999985099","","image-keyboard-response","154","456135","0.0-154.0","3MX2NQ3YCAGI6O9NYXZ1F18DRH6X5Q","A1MWCDBGZLHJPI","37S0QRNUFB29SLTNXLPAM35NX0F88U","","","img/flower6.png","75","1371.3999999985099","2","0","1","0.7,0.2,0,0.7,0,0.2,0.2,0,0.7",""
"null","","html-keyboard-response","155","456438","0.0-155.0","3MX2NQ3YCAGI6O9NYXZ1F18DRH6X5Q","A1MWCDBGZLHJPI","37S0QRNUFB29SLTNXLPAM35NX0F88U","","","<img src=""img/flower6.png"" style=""width:200px;border:14px solid red;"">","null","","","","","",""
"1164.8999999985099","","image-keyboard-response","156","457608","0.0-156.0","3MX2NQ3YCAGI6O9NYXZ1F18DRH6X5Q","A1MWCDBGZLHJPI","37S0QRNUFB29SLTNXLPAM35NX0F88U","","","img/flower1.png","74","1169","1","1","2","0.7,0.2,0,0.7,0,0.2,0.2,0,0.7",""
"null","","html-keyboard-response","157","457914","0.0-157.0","3MX2NQ3YCAGI6O9NYXZ1F18DRH6X5Q","A1MWCDBGZLHJPI","37S0QRNUFB29SLTNXLPAM35NX0F88U","","","<img src=""img/flower1.png"" style=""width:200px; border:14px solid green;"">","null","","","","","",""
"700.6999999955297","","image-keyboard-response","158","458621","0.0-158.0","3MX2NQ3YCAGI6O9NYXZ1F18DRH6X5Q","A1MWCDBGZLHJPI","37S0QRNUFB29SLTNXLPAM35NX0F88U","","","img/flower1.png","74","706.5","1","0","2","0.7,0.2,0,0.7,0,0.2,0.2,0,0.7",""
"null","","html-keyboard-response","159","458928","0.0-159.0","3MX2NQ3YCAGI6O9NYXZ1F18DRH6X5Q","A1MWCDBGZLHJPI","37S0QRNUFB29SLTNXLPAM35NX0F88U","","","<img src=""img/flower1.png"" style=""width:200px;border:14px solid red;"">","null","","","","","",""
"6695.60000000149","","image-keyboard-response","160","465626","0.0-160.0","3MX2NQ3YCAGI6O9NYXZ1F18DRH6X5Q","A1MWCDBGZLHJPI","37S0QRNUFB29SLTNXLPAM35NX0F88U","","","img/flower4.png","76","6698.19999999553","3","1","3","0.7,0.2,0,0.7,0,0.2,0.2,0,0.7",""
"null","","html-keyboard-response","161","465930","0.0-161.0","3MX2NQ3YCAGI6O9NYXZ1F18DRH6X5Q","A1MWCDBGZLHJPI","37S0QRNUFB29SLTNXLPAM35NX0F88U","","","<img src=""img/flower4.png"" style=""width:200px; border:14px solid green;"">","null","","","","","",""
"801.3999999985099","","image-keyboard-response","162","466735","0.0-162.0","3MX2NQ3YCAGI6O9NYXZ1F18DRH6X5Q","A1MWCDBGZLHJPI","37S0QRNUFB29SLTNXLPAM35NX0F88U","","","img/flower4.png","76","804.5","3","0","3","0.7,0.2,0,0.7,0,0.2,0.2,0,0.7",""
"null","","html-keyboard-response","163","467039","0.0-163.0","3MX2NQ3YCAGI6O9NYXZ1F18DRH6X5Q","A1MWCDBGZLHJPI","37S0QRNUFB29SLTNXLPAM35NX0F88U","","","<img src=""img/flower4.png"" style=""width:200px;border:14px solid red;"">","null","","","","","",""
"1227.8999999985099","","image-keyboard-response","164","468271","0.0-164.0","3MX2NQ3YCAGI6O9NYXZ1F18DRH6X5Q","A1MWCDBGZLHJPI","37S0QRNUFB29SLTNXLPAM35NX0F88U","","","img/flower6.png","75","1231.6000000014901","2","0","1","0.7,0.2,0,0.7,0,0.2,0.2,0,0.7",""
"null","","html-keyboard-response","165","468575","0.0-165.0","3MX2NQ3YCAGI6O9NYXZ1F18DRH6X5Q","A1MWCDBGZLHJPI","37S0QRNUFB29SLTNXLPAM35NX0F88U","","","<img src=""img/flower6.png"" style=""width:200px;border:14px solid red;"">","null","","","","","",""
"3358.60000000149","","image-keyboard-response","166","471937","0.0-166.0","3MX2NQ3YCAGI6O9NYXZ1F18DRH6X5Q","A1MWCDBGZLHJPI","37S0QRNUFB29SLTNXLPAM35NX0F88U","","","img/flower1.png","74","3361.6999999955297","1","1","2","0.7,0.2,0,0.7,0,0.2,0.2,0,0.7",""
"null","","html-keyboard-response","167","472241","0.0-167.0","3MX2NQ3YCAGI6O9NYXZ1F18DRH6X5Q","A1MWCDBGZLHJPI","37S0QRNUFB29SLTNXLPAM35NX0F88U","","","<img src=""img/flower1.png"" style=""width:200px; border:14px solid green;"">","null","","","","","",""
"945.5","","image-keyboard-response","168","473191","0.0-168.0","3MX2NQ3YCAGI6O9NYXZ1F18DRH6X5Q","A1MWCDBGZLHJPI","37S0QRNUFB29SLTNXLPAM35NX0F88U","","","img/flower1.png","74","948.6999999955297","1","1","2","0.7,0.2,0,0.7,0,0.2,0.2,0,0.7",""
"null","","html-keyboard-response","169","473495","0.0-169.0","3MX2NQ3YCAGI6O9NYXZ1F18DRH6X5Q","A1MWCDBGZLHJPI","37S0QRNUFB29SLTNXLPAM35NX0F88U","","","<img src=""img/flower1.png"" style=""width:200px; border:14px solid green;"">","null","","","","","",""
"4556.70000000298","","image-keyboard-response","170","478056","0.0-170.0","3MX2NQ3YCAGI6O9NYXZ1F18DRH6X5Q","A1MWCDBGZLHJPI","37S0QRNUFB29SLTNXLPAM35NX0F88U","","","img/flower6.png","75","4560.70000000298","2","0","1","0.7,0.2,0,0.7,0,0.2,0.2,0,0.7",""
"null","","html-keyboard-response","171","478361","0.0-171.0","3MX2NQ3YCAGI6O9NYXZ1F18DRH6X5Q","A1MWCDBGZLHJPI","37S0QRNUFB29SLTNXLPAM35NX0F88U","","","<img src=""img/flower6.png"" style=""width:200px;border:14px solid red;"">","null","","","","","",""
"1653","","image-keyboard-response","172","480019","0.0-172.0","3MX2NQ3YCAGI6O9NYXZ1F18DRH6X5Q","A1MWCDBGZLHJPI","37S0QRNUFB29SLTNXLPAM35NX0F88U","","","img/flower4.png","76","1656.2999999970198","3","1","3","0.7,0.2,0,0.7,0,0.2,0.2,0,0.7",""
"null","","html-keyboard-response","173","480324","0.0-173.0","3MX2NQ3YCAGI6O9NYXZ1F18DRH6X5Q","A1MWCDBGZLHJPI","37S0QRNUFB29SLTNXLPAM35NX0F88U","","","<img src=""img/flower4.png"" style=""width:200px; border:14px solid green;"">","null","","","","","",""
"2327.2999999970198","","image-keyboard-response","174","482658","0.0-174.0","3MX2NQ3YCAGI6O9NYXZ1F18DRH6X5Q","A1MWCDBGZLHJPI","37S0QRNUFB29SLTNXLPAM35NX0F88U","","","img/flower6.png","75","2333.5","2","0","1","0.7,0.2,0,0.7,0,0.2,0.2,0,0.7",""
"null","","html-keyboard-response","175","482968","0.0-175.0","3MX2NQ3YCAGI6O9NYXZ1F18DRH6X5Q","A1MWCDBGZLHJPI","37S0QRNUFB29SLTNXLPAM35NX0F88U","","","<img src=""img/flower6.png"" style=""width:200px;border:14px solid red;"">","null","","","","","",""
"1033.9000000059605","","image-keyboard-response","176","484010","0.0-176.0","3MX2NQ3YCAGI6O9NYXZ1F18DRH6X5Q","A1MWCDBGZLHJPI","37S0QRNUFB29SLTNXLPAM35NX0F88U","","","img/flower1.png","74","1041","1","0","2","0.7,0.2,0,0.7,0,0.2,0.2,0,0.7",""
"null","","html-keyboard-response","177","484314","0.0-177.0","3MX2NQ3YCAGI6O9NYXZ1F18DRH6X5Q","A1MWCDBGZLHJPI","37S0QRNUFB29SLTNXLPAM35NX0F88U","","","<img src=""img/flower1.png"" style=""width:200px;border:14px solid red;"">","null","","","","","",""
"500.5","","image-keyboard-response","178","484820","0.0-178.0","3MX2NQ3YCAGI6O9NYXZ1F18DRH6X5Q","A1MWCDBGZLHJPI","37S0QRNUFB29SLTNXLPAM35NX0F88U","","","img/flower1.png","74","505.30000000447035","1","1","2","0.7,0.2,0,0.7,0,0.2,0.2,0,0.7",""
"null","","html-keyboard-response","179","485125","0.0-179.0","3MX2NQ3YCAGI6O9NYXZ1F18DRH6X5Q","A1MWCDBGZLHJPI","37S0QRNUFB29SLTNXLPAM35NX0F88U","","","<img src=""img/flower1.png"" style=""width:200px; border:14px solid green;"">","null","","","","","",""
"1158.2999999970198","","image-keyboard-response","180","486287","0.0-180.0","3MX2NQ3YCAGI6O9NYXZ1F18DRH6X5Q","A1MWCDBGZLHJPI","37S0QRNUFB29SLTNXLPAM35NX0F88U","","","img/flower6.png","75","1162","2","0","1","0.7,0.2,0,0.7,0,0.2,0.2,0,0.7",""
"null","","html-keyboard-response","181","486591","0.0-181.0","3MX2NQ3YCAGI6O9NYXZ1F18DRH6X5Q","A1MWCDBGZLHJPI","37S0QRNUFB29SLTNXLPAM35NX0F88U","","","<img src=""img/flower6.png"" style=""width:200px;border:14px solid red;"">","null","","","","","",""
"1430.4000000059605","","image-keyboard-response","182","488026","0.0-182.0","3MX2NQ3YCAGI6O9NYXZ1F18DRH6X5Q","A1MWCDBGZLHJPI","37S0QRNUFB29SLTNXLPAM35NX0F88U","","","img/flower4.png","76","1434.6000000014901","3","1","3","0.7,0.2,0,0.7,0,0.2,0.2,0,0.7",""
"null","","html-keyboard-response","183","488331","0.0-183.0","3MX2NQ3YCAGI6O9NYXZ1F18DRH6X5Q","A1MWCDBGZLHJPI","37S0QRNUFB29SLTNXLPAM35NX0F88U","","","<img src=""img/flower4.png"" style=""width:200px; border:14px solid green;"">","null","","","","","",""
"2878.3000000044703","","image-keyboard-response","184","491213","0.0-184.0","3MX2NQ3YCAGI6O9NYXZ1F18DRH6X5Q","A1MWCDBGZLHJPI","37S0QRNUFB29SLTNXLPAM35NX0F88U","","","img/flower1.png","76","2881.60000000149","3","0","2","0.7,0.2,0,0.7,0,0.2,0.2,0,0.7",""
"null","","html-keyboard-response","185","491517","0.0-185.0","3MX2NQ3YCAGI6O9NYXZ1F18DRH6X5Q","A1MWCDBGZLHJPI","37S0QRNUFB29SLTNXLPAM35NX0F88U","","","<img src=""img/flower1.png"" style=""width:200px;border:14px solid red;"">","null","","","","","",""
"1326.7999999970198","","image-keyboard-response","186","492848","0.0-186.0","3MX2NQ3YCAGI6O9NYXZ1F18DRH6X5Q","A1MWCDBGZLHJPI","37S0QRNUFB29SLTNXLPAM35NX0F88U","","","img/flower4.png","76","1330.3999999985099","3","1","3","0.7,0.2,0,0.7,0,0.2,0.2,0,0.7",""
"null","","html-keyboard-response","187","493152","0.0-187.0","3MX2NQ3YCAGI6O9NYXZ1F18DRH6X5Q","A1MWCDBGZLHJPI","37S0QRNUFB29SLTNXLPAM35NX0F88U","","","<img src=""img/flower4.png"" style=""width:200px; border:14px solid green;"">","null","","","","","",""
"1856.7000000029802","","image-keyboard-response","188","495013","0.0-188.0","3MX2NQ3YCAGI6O9NYXZ1F18DRH6X5Q","A1MWCDBGZLHJPI","37S0QRNUFB29SLTNXLPAM35NX0F88U","","","img/flower6.png","74","1860.6000000014901","1","1","1","0.7,0.2,0,0.7,0,0.2,0.2,0,0.7",""
"null","","html-keyboard-response","189","495318","0.0-189.0","3MX2NQ3YCAGI6O9NYXZ1F18DRH6X5Q","A1MWCDBGZLHJPI","37S0QRNUFB29SLTNXLPAM35NX0F88U","","","<img src=""img/flower6.png"" style=""width:200px; border:14px solid green;"">","null","","","","","",""
"1030","","image-keyboard-response","190","496353","0.0-190.0","3MX2NQ3YCAGI6O9NYXZ1F18DRH6X5Q","A1MWCDBGZLHJPI","37S0QRNUFB29SLTNXLPAM35NX0F88U","","","img/flower6.png","74","1034.2000000029802","1","1","1","0.7,0.2,0,0.7,0,0.2,0.2,0,0.7",""
"null","","html-keyboard-response","191","496656","0.0-191.0","3MX2NQ3YCAGI6O9NYXZ1F18DRH6X5Q","A1MWCDBGZLHJPI","37S0QRNUFB29SLTNXLPAM35NX0F88U","","","<img src=""img/flower6.png"" style=""width:200px; border:14px solid green;"">","null","","","","","",""
"3160.60000000149","","image-keyboard-response","192","499821","0.0-192.0","3MX2NQ3YCAGI6O9NYXZ1F18DRH6X5Q","A1MWCDBGZLHJPI","37S0QRNUFB29SLTNXLPAM35NX0F88U","","","img/flower4.png","75","3164.1999999955297","2","0","3","0.7,0.2,0,0.7,0,0.2,0.2,0,0.7",""
"null","","html-keyboard-response","193","500127","0.0-193.0","3MX2NQ3YCAGI6O9NYXZ1F18DRH6X5Q","A1MWCDBGZLHJPI","37S0QRNUFB29SLTNXLPAM35NX0F88U","","","<img src=""img/flower4.png"" style=""width:200px;border:14px solid red;"">","null","","","","","",""
"1157.6000000014901","","image-keyboard-response","194","501291","0.0-194.0","3MX2NQ3YCAGI6O9NYXZ1F18DRH6X5Q","A1MWCDBGZLHJPI","37S0QRNUFB29SLTNXLPAM35NX0F88U","","","img/flower1.png","74","1163","1","1","2","0.7,0.2,0,0.7,0,0.2,0.2,0,0.7",""
"null","","html-keyboard-response","195","501596","0.0-195.0","3MX2NQ3YCAGI6O9NYXZ1F18DRH6X5Q","A1MWCDBGZLHJPI","37S0QRNUFB29SLTNXLPAM35NX0F88U","","","<img src=""img/flower1.png"" style=""width:200px; border:14px solid green;"">","null","","","","","",""
"929.7999999970198","","image-keyboard-response","196","502532","0.0-196.0","3MX2NQ3YCAGI6O9NYXZ1F18DRH6X5Q","A1MWCDBGZLHJPI","37S0QRNUFB29SLTNXLPAM35NX0F88U","","","img/flower6.png","74","934.7999999970198","1","1","1","0.7,0.2,0,0.7,0,0.2,0.2,0,0.7",""
"null","","html-keyboard-response","197","502839","0.0-197.0","3MX2NQ3YCAGI6O9NYXZ1F18DRH6X5Q","A1MWCDBGZLHJPI","37S0QRNUFB29SLTNXLPAM35NX0F88U","","","<img src=""img/flower6.png"" style=""width:200px; border:14px solid green;"">","null","","","","","",""
"868.2000000029802","","image-keyboard-response","198","503713","0.0-198.0","3MX2NQ3YCAGI6O9NYXZ1F18DRH6X5Q","A1MWCDBGZLHJPI","37S0QRNUFB29SLTNXLPAM35NX0F88U","","","img/flower1.png","74","873.2000000029802","1","1","2","0.7,0.2,0,0.7,0,0.2,0.2,0,0.7",""
"null","","html-keyboard-response","199","504019","0.0-199.0","3MX2NQ3YCAGI6O9NYXZ1F18DRH6X5Q","A1MWCDBGZLHJPI","37S0QRNUFB29SLTNXLPAM35NX0F88U","","","<img src=""img/flower1.png"" style=""width:200px; border:14px solid green;"">","null","","","","","",""
"1010.5","","image-keyboard-response","200","505036","0.0-200.0","3MX2NQ3YCAGI6O9NYXZ1F18DRH6X5Q","A1MWCDBGZLHJPI","37S0QRNUFB29SLTNXLPAM35NX0F88U","","","img/flower1.png","74","1014.6000000014901","1","1","2","0.7,0.2,0,0.7,0,0.2,0.2,0,0.7",""
"null","","html-keyboard-response","201","505340","0.0-201.0","3MX2NQ3YCAGI6O9NYXZ1F18DRH6X5Q","A1MWCDBGZLHJPI","37S0QRNUFB29SLTNXLPAM35NX0F88U","","","<img src=""img/flower1.png"" style=""width:200px; border:14px solid green;"">","null","","","","","",""
"1737.9000000059605","","image-keyboard-response","202","507081","0.0-202.0","3MX2NQ3YCAGI6O9NYXZ1F18DRH6X5Q","A1MWCDBGZLHJPI","37S0QRNUFB29SLTNXLPAM35NX0F88U","","","img/flower4.png","76","1740.5","3","0","3","0.7,0.2,0,0.7,0,0.2,0.2,0,0.7",""
"null","","html-keyboard-response","203","507385","0.0-203.0","3MX2NQ3YCAGI6O9NYXZ1F18DRH6X5Q","A1MWCDBGZLHJPI","37S0QRNUFB29SLTNXLPAM35NX0F88U","","","<img src=""img/flower4.png"" style=""width:200px;border:14px solid red;"">","null","","","","","",""
"1228.3000000044703","","image-keyboard-response","204","508618","0.0-204.0","3MX2NQ3YCAGI6O9NYXZ1F18DRH6X5Q","A1MWCDBGZLHJPI","37S0QRNUFB29SLTNXLPAM35NX0F88U","","","img/flower1.png","74","1232.5","1","1","2","0.7,0.2,0,0.7,0,0.2,0.2,0,0.7",""
"null","","html-keyboard-response","205","508922","0.0-205.0","3MX2NQ3YCAGI6O9NYXZ1F18DRH6X5Q","A1MWCDBGZLHJPI","37S0QRNUFB29SLTNXLPAM35NX0F88U","","","<img src=""img/flower1.png"" style=""width:200px; border:14px solid green;"">","null","","","","","",""
"707.8000000044703","","image-keyboard-response","206","509634","0.0-206.0","3MX2NQ3YCAGI6O9NYXZ1F18DRH6X5Q","A1MWCDBGZLHJPI","37S0QRNUFB29SLTNXLPAM35NX0F88U","","","img/flower6.png","74","712","1","1","1","0.7,0.2,0,0.7,0,0.2,0.2,0,0.7",""
"null","","html-keyboard-response","207","509941","0.0-207.0","3MX2NQ3YCAGI6O9NYXZ1F18DRH6X5Q","A1MWCDBGZLHJPI","37S0QRNUFB29SLTNXLPAM35NX0F88U","","","<img src=""img/flower6.png"" style=""width:200px; border:14px solid green;"">","null","","","","","",""
"1237.6999999955297","","image-keyboard-response","208","511183","0.0-208.0","3MX2NQ3YCAGI6O9NYXZ1F18DRH6X5Q","A1MWCDBGZLHJPI","37S0QRNUFB29SLTNXLPAM35NX0F88U","","","img/flower6.png","74","1241.1000000014901","1","1","1","0.7,0.2,0,0.7,0,0.2,0.2,0,0.7",""
"null","","html-keyboard-response","209","511488","0.0-209.0","3MX2NQ3YCAGI6O9NYXZ1F18DRH6X5Q","A1MWCDBGZLHJPI","37S0QRNUFB29SLTNXLPAM35NX0F88U","","","<img src=""img/flower6.png"" style=""width:200px; border:14px solid green;"">","null","","","","","",""
"1878.7000000029802","","image-keyboard-response","210","513371","0.0-210.0","3MX2NQ3YCAGI6O9NYXZ1F18DRH6X5Q","A1MWCDBGZLHJPI","37S0QRNUFB29SLTNXLPAM35NX0F88U","","","img/flower4.png","76","1882.7000000029802","3","1","3","0.7,0.2,0,0.7,0,0.2,0.2,0,0.7",""
"null","","html-keyboard-response","211","513675","0.0-211.0","3MX2NQ3YCAGI6O9NYXZ1F18DRH6X5Q","A1MWCDBGZLHJPI","37S0QRNUFB29SLTNXLPAM35NX0F88U","","","<img src=""img/flower4.png"" style=""width:200px; border:14px solid green;"">","null","","","","","",""
"2486.7000000029802","","image-keyboard-response","212","516167","0.0-212.0","3MX2NQ3YCAGI6O9NYXZ1F18DRH6X5Q","A1MWCDBGZLHJPI","37S0QRNUFB29SLTNXLPAM35NX0F88U","","","img/flower4.png","76","2490.39999999851","3","1","3","0.7,0.2,0,0.7,0,0.2,0.2,0,0.7",""
"null","","html-keyboard-response","213","516472","0.0-213.0","3MX2NQ3YCAGI6O9NYXZ1F18DRH6X5Q","A1MWCDBGZLHJPI","37S0QRNUFB29SLTNXLPAM35NX0F88U","","","<img src=""img/flower4.png"" style=""width:200px; border:14px solid green;"">","null","","","","","",""
"2172.89999999851","","image-keyboard-response","214","518648","0.0-214.0","3MX2NQ3YCAGI6O9NYXZ1F18DRH6X5Q","A1MWCDBGZLHJPI","37S0QRNUFB29SLTNXLPAM35NX0F88U","","","img/flower1.png","74","2176","1","0","2","0.7,0.2,0,0.7,0,0.2,0.2,0,0.7",""
"null","","html-keyboard-response","215","518953","0.0-215.0","3MX2NQ3YCAGI6O9NYXZ1F18DRH6X5Q","A1MWCDBGZLHJPI","37S0QRNUFB29SLTNXLPAM35NX0F88U","","","<img src=""img/flower1.png"" style=""width:200px;border:14px solid red;"">","null","","","","","",""
"1085.8999999985099","","image-keyboard-response","216","520046","0.0-216.0","3MX2NQ3YCAGI6O9NYXZ1F18DRH6X5Q","A1MWCDBGZLHJPI","37S0QRNUFB29SLTNXLPAM35NX0F88U","","","img/flower4.png","76","1091.2000000029802","3","1","3","0.7,0.2,0,0.7,0,0.2,0.2,0,0.7",""
"null","","html-keyboard-response","217","520352","0.0-217.0","3MX2NQ3YCAGI6O9NYXZ1F18DRH6X5Q","A1MWCDBGZLHJPI","37S0QRNUFB29SLTNXLPAM35NX0F88U","","","<img src=""img/flower4.png"" style=""width:200px; border:14px solid green;"">","null","","","","","",""
"1357.8000000044703","","image-keyboard-response","218","521715","0.0-218.0","3MX2NQ3YCAGI6O9NYXZ1F18DRH6X5Q","A1MWCDBGZLHJPI","37S0QRNUFB29SLTNXLPAM35NX0F88U","","","img/flower1.png","75","1361.7000000029802","2","0","2","0.7,0.2,0,0.7,0,0.2,0.2,0,0.7",""
"null","","html-keyboard-response","219","522020","0.0-219.0","3MX2NQ3YCAGI6O9NYXZ1F18DRH6X5Q","A1MWCDBGZLHJPI","37S0QRNUFB29SLTNXLPAM35NX0F88U","","","<img src=""img/flower1.png"" style=""width:200px;border:14px solid red;"">","null","","","","","",""
"1003","","image-keyboard-response","220","523031","0.0-220.0","3MX2NQ3YCAGI6O9NYXZ1F18DRH6X5Q","A1MWCDBGZLHJPI","37S0QRNUFB29SLTNXLPAM35NX0F88U","","","img/flower6.png","74","1009.3000000044703","1","1","1","0.7,0.2,0,0.7,0,0.2,0.2,0,0.7",""
"null","","html-keyboard-response","221","523336","0.0-221.0","3MX2NQ3YCAGI6O9NYXZ1F18DRH6X5Q","A1MWCDBGZLHJPI","37S0QRNUFB29SLTNXLPAM35NX0F88U","","","<img src=""img/flower6.png"" style=""width:200px; border:14px solid green;"">","null","","","","","",""
"748.5","","image-keyboard-response","222","524089","0.0-222.0","3MX2NQ3YCAGI6O9NYXZ1F18DRH6X5Q","A1MWCDBGZLHJPI","37S0QRNUFB29SLTNXLPAM35NX0F88U","","","img/flower6.png","74","752.3999999985099","1","1","1","0.7,0.2,0,0.7,0,0.2,0.2,0,0.7",""
"null","","html-keyboard-response","223","524393","0.0-223.0","3MX2NQ3YCAGI6O9NYXZ1F18DRH6X5Q","A1MWCDBGZLHJPI","37S0QRNUFB29SLTNXLPAM35NX0F88U","","","<img src=""img/flower6.png"" style=""width:200px; border:14px solid green;"">","null","","","","","",""
"851","","image-keyboard-response","224","525257","0.0-224.0","3MX2NQ3YCAGI6O9NYXZ1F18DRH6X5Q","A1MWCDBGZLHJPI","37S0QRNUFB29SLTNXLPAM35NX0F88U","","","img/flower6.png","74","863.5","1","0","1","0.7,0.2,0,0.7,0,0.2,0.2,0,0.7",""
"null","","html-keyboard-response","225","525569","0.0-225.0","3MX2NQ3YCAGI6O9NYXZ1F18DRH6X5Q","A1MWCDBGZLHJPI","37S0QRNUFB29SLTNXLPAM35NX0F88U","","","<img src=""img/flower6.png"" style=""width:200px;border:14px solid red;"">","null","","","","","",""
"1844","","image-keyboard-response","226","527420","0.0-226.0","3MX2NQ3YCAGI6O9NYXZ1F18DRH6X5Q","A1MWCDBGZLHJPI","37S0QRNUFB29SLTNXLPAM35NX0F88U","","","img/flower1.png","74","1850.0999999940395","1","1","2","0.7,0.2,0,0.7,0,0.2,0.2,0,0.7",""
"null","","html-keyboard-response","227","527726","0.0-227.0","3MX2NQ3YCAGI6O9NYXZ1F18DRH6X5Q","A1MWCDBGZLHJPI","37S0QRNUFB29SLTNXLPAM35NX0F88U","","","<img src=""img/flower1.png"" style=""width:200px; border:14px solid green;"">","null","","","","","",""
"2234.8000000044703","","image-keyboard-response","228","529966","0.0-228.0","3MX2NQ3YCAGI6O9NYXZ1F18DRH6X5Q","A1MWCDBGZLHJPI","37S0QRNUFB29SLTNXLPAM35NX0F88U","","","img/flower6.png","74","2238.5999999940395","1","1","1","0.7,0.2,0,0.7,0,0.2,0.2,0,0.7",""
"null","","html-keyboard-response","229","530271","0.0-229.0","3MX2NQ3YCAGI6O9NYXZ1F18DRH6X5Q","A1MWCDBGZLHJPI","37S0QRNUFB29SLTNXLPAM35NX0F88U","","","<img src=""img/flower6.png"" style=""width:200px; border:14px solid green;"">","null","","","","","",""
"1152.8999999985099","","image-keyboard-response","230","531429","0.0-230.0","3MX2NQ3YCAGI6O9NYXZ1F18DRH6X5Q","A1MWCDBGZLHJPI","37S0QRNUFB29SLTNXLPAM35NX0F88U","","","img/flower1.png","74","1156","1","1","2","0.7,0.2,0,0.7,0,0.2,0.2,0,0.7",""
"null","","html-keyboard-response","231","531733","0.0-231.0","3MX2NQ3YCAGI6O9NYXZ1F18DRH6X5Q","A1MWCDBGZLHJPI","37S0QRNUFB29SLTNXLPAM35NX0F88U","","","<img src=""img/flower1.png"" style=""width:200px; border:14px solid green;"">","null","","","","","",""
"797.2999999970198","","image-keyboard-response","232","532534","0.0-232.0","3MX2NQ3YCAGI6O9NYXZ1F18DRH6X5Q","A1MWCDBGZLHJPI","37S0QRNUFB29SLTNXLPAM35NX0F88U","","","img/flower6.png","74","800","1","0","1","0.7,0.2,0,0.7,0,0.2,0.2,0,0.7",""
"null","","html-keyboard-response","233","532838","0.0-233.0","3MX2NQ3YCAGI6O9NYXZ1F18DRH6X5Q","A1MWCDBGZLHJPI","37S0QRNUFB29SLTNXLPAM35NX0F88U","","","<img src=""img/flower6.png"" style=""width:200px;border:14px solid red;"">","null","","","","","",""
"813","","image-keyboard-response","234","533656","0.0-234.0","3MX2NQ3YCAGI6O9NYXZ1F18DRH6X5Q","A1MWCDBGZLHJPI","37S0QRNUFB29SLTNXLPAM35NX0F88U","","","img/flower1.png","74","816.8000000044703","1","1","2","0.7,0.2,0,0.7,0,0.2,0.2,0,0.7",""
"null","","html-keyboard-response","235","533959","0.0-235.0","3MX2NQ3YCAGI6O9NYXZ1F18DRH6X5Q","A1MWCDBGZLHJPI","37S0QRNUFB29SLTNXLPAM35NX0F88U","","","<img src=""img/flower1.png"" style=""width:200px; border:14px solid green;"">","null","","","","","",""
"807","","image-keyboard-response","236","534771","0.0-236.0","3MX2NQ3YCAGI6O9NYXZ1F18DRH6X5Q","A1MWCDBGZLHJPI","37S0QRNUFB29SLTNXLPAM35NX0F88U","","","img/flower1.png","74","811.7000000029802","1","1","2","0.7,0.2,0,0.7,0,0.2,0.2,0,0.7",""
"null","","html-keyboard-response","237","535075","0.0-237.0","3MX2NQ3YCAGI6O9NYXZ1F18DRH6X5Q","A1MWCDBGZLHJPI","37S0QRNUFB29SLTNXLPAM35NX0F88U","","","<img src=""img/flower1.png"" style=""width:200px; border:14px solid green;"">","null","","","","","",""
"774.6999999955297","","image-keyboard-response","238","535853","0.0-238.0","3MX2NQ3YCAGI6O9NYXZ1F18DRH6X5Q","A1MWCDBGZLHJPI","37S0QRNUFB29SLTNXLPAM35NX0F88U","","","img/flower6.png","74","777.3000000044703","1","1","1","0.7,0.2,0,0.7,0,0.2,0.2,0,0.7",""
"null","","html-keyboard-response","239","536162","0.0-239.0","3MX2NQ3YCAGI6O9NYXZ1F18DRH6X5Q","A1MWCDBGZLHJPI","37S0QRNUFB29SLTNXLPAM35NX0F88U","","","<img src=""img/flower6.png"" style=""width:200px; border:14px solid green;"">","null","","","","","",""
"1377.2999999970198","","image-keyboard-response","240","537543","0.0-240.0","3MX2NQ3YCAGI6O9NYXZ1F18DRH6X5Q","A1MWCDBGZLHJPI","37S0QRNUFB29SLTNXLPAM35NX0F88U","","","img/flower4.png","76","1380.8000000044703","3","0","3","0.7,0.2,0,0.7,0,0.2,0.2,0,0.7",""
"null","","html-keyboard-response","241","537848","0.0-241.0","3MX2NQ3YCAGI6O9NYXZ1F18DRH6X5Q","A1MWCDBGZLHJPI","37S0QRNUFB29SLTNXLPAM35NX0F88U","","","<img src=""img/flower4.png"" style=""width:200px;border:14px solid red;"">","null","","","","","",""
"2905.2999999970198","","image-keyboard-response","242","540757","0.0-242.0","3MX2NQ3YCAGI6O9NYXZ1F18DRH6X5Q","A1MWCDBGZLHJPI","37S0QRNUFB29SLTNXLPAM35NX0F88U","","","img/flower1.png","74","2908.8000000044703","1","1","2","0.7,0.2,0,0.7,0,0.2,0.2,0,0.7",""
"null","","html-keyboard-response","243","541062","0.0-243.0","3MX2NQ3YCAGI6O9NYXZ1F18DRH6X5Q","A1MWCDBGZLHJPI","37S0QRNUFB29SLTNXLPAM35NX0F88U","","","<img src=""img/flower1.png"" style=""width:200px; border:14px solid green;"">","null","","","","","",""
"641.2999999970198","","image-keyboard-response","244","541706","0.0-244.0","3MX2NQ3YCAGI6O9NYXZ1F18DRH6X5Q","A1MWCDBGZLHJPI","37S0QRNUFB29SLTNXLPAM35NX0F88U","","","img/flower6.png","74","650.0999999940395","1","1","1","0.7,0.2,0,0.7,0,0.2,0.2,0,0.7",""
"null","","html-keyboard-response","245","542016","0.0-245.0","3MX2NQ3YCAGI6O9NYXZ1F18DRH6X5Q","A1MWCDBGZLHJPI","37S0QRNUFB29SLTNXLPAM35NX0F88U","","","<img src=""img/flower6.png"" style=""width:200px; border:14px solid green;"">","null","","","","","",""
"977.1000000014901","","image-keyboard-response","246","542998","0.0-246.0","3MX2NQ3YCAGI6O9NYXZ1F18DRH6X5Q","A1MWCDBGZLHJPI","37S0QRNUFB29SLTNXLPAM35NX0F88U","","","img/flower6.png","74","981.1000000014901","1","1","1","0.7,0.2,0,0.7,0,0.2,0.2,0,0.7",""
"null","","html-keyboard-response","247","543303","0.0-247.0","3MX2NQ3YCAGI6O9NYXZ1F18DRH6X5Q","A1MWCDBGZLHJPI","37S0QRNUFB29SLTNXLPAM35NX0F88U","","","<img src=""img/flower6.png"" style=""width:200px; border:14px solid green;"">","null","","","","","",""
"907.1000000014901","","image-keyboard-response","248","544213","0.0-248.0","3MX2NQ3YCAGI6O9NYXZ1F18DRH6X5Q","A1MWCDBGZLHJPI","37S0QRNUFB29SLTNXLPAM35NX0F88U","","","img/flower6.png","74","909.8000000044703","1","1","1","0.7,0.2,0,0.7,0,0.2,0.2,0,0.7",""
"null","","html-keyboard-response","249","544516","0.0-249.0","3MX2NQ3YCAGI6O9NYXZ1F18DRH6X5Q","A1MWCDBGZLHJPI","37S0QRNUFB29SLTNXLPAM35NX0F88U","","","<img src=""img/flower6.png"" style=""width:200px; border:14px solid green;"">","null","","","","","",""
"1650.3999999985099","","image-keyboard-response","250","546170","0.0-250.0","3MX2NQ3YCAGI6O9NYXZ1F18DRH6X5Q","A1MWCDBGZLHJPI","37S0QRNUFB29SLTNXLPAM35NX0F88U","","","img/flower4.png","74","1653.2999999970198","1","0","3","0.7,0.2,0,0.7,0,0.2,0.2,0,0.7",""
"null","","html-keyboard-response","251","546475","0.0-251.0","3MX2NQ3YCAGI6O9NYXZ1F18DRH6X5Q","A1MWCDBGZLHJPI","37S0QRNUFB29SLTNXLPAM35NX0F88U","","","<img src=""img/flower4.png"" style=""width:200px;border:14px solid red;"">","null","","","","","",""
"1387.5","","image-keyboard-response","252","547870","0.0-252.0","3MX2NQ3YCAGI6O9NYXZ1F18DRH6X5Q","A1MWCDBGZLHJPI","37S0QRNUFB29SLTNXLPAM35NX0F88U","","","img/flower4.png","75","1391.8999999985099","2","0","3","0.7,0.2,0,0.7,0,0.2,0.2,0,0.7",""
"null","","html-keyboard-response","253","548173","0.0-253.0","3MX2NQ3YCAGI6O9NYXZ1F18DRH6X5Q","A1MWCDBGZLHJPI","37S0QRNUFB29SLTNXLPAM35NX0F88U","","","<img src=""img/flower4.png"" style=""width:200px;border:14px solid red;"">","null","","","","","",""
"921","","image-keyboard-response","254","549098","0.0-254.0","3MX2NQ3YCAGI6O9NYXZ1F18DRH6X5Q","A1MWCDBGZLHJPI","37S0QRNUFB29SLTNXLPAM35NX0F88U","","","img/flower6.png","74","923.8999999985099","1","1","1","0.7,0.2,0,0.7,0,0.2,0.2,0,0.7",""
"null","","html-keyboard-response","255","549402","0.0-255.0","3MX2NQ3YCAGI6O9NYXZ1F18DRH6X5Q","A1MWCDBGZLHJPI","37S0QRNUFB29SLTNXLPAM35NX0F88U","","","<img src=""img/flower6.png"" style=""width:200px; border:14px solid green;"">","null","","","","","",""
"710.5","","image-keyboard-response","256","550117","0.0-256.0","3MX2NQ3YCAGI6O9NYXZ1F18DRH6X5Q","A1MWCDBGZLHJPI","37S0QRNUFB29SLTNXLPAM35NX0F88U","","","img/flower6.png","74","713.7000000029802","1","1","1","0.7,0.2,0,0.7,0,0.2,0.2,0,0.7",""
"null","","html-keyboard-response","257","550422","0.0-257.0","3MX2NQ3YCAGI6O9NYXZ1F18DRH6X5Q","A1MWCDBGZLHJPI","37S0QRNUFB29SLTNXLPAM35NX0F88U","","","<img src=""img/flower6.png"" style=""width:200px; border:14px solid green;"">","null","","","","","",""
"1153","","image-keyboard-response","258","551578","0.0-258.0","3MX2NQ3YCAGI6O9NYXZ1F18DRH6X5Q","A1MWCDBGZLHJPI","37S0QRNUFB29SLTNXLPAM35NX0F88U","","","img/flower4.png","76","1155.7999999970198","3","1","3","0.7,0.2,0,0.7,0,0.2,0.2,0,0.7",""
"null","","html-keyboard-response","259","551882","0.0-259.0","3MX2NQ3YCAGI6O9NYXZ1F18DRH6X5Q","A1MWCDBGZLHJPI","37S0QRNUFB29SLTNXLPAM35NX0F88U","","","<img src=""img/flower4.png"" style=""width:200px; border:14px solid green;"">","null","","","","","",""
"1145","","image-keyboard-response","260","553032","0.0-260.0","3MX2NQ3YCAGI6O9NYXZ1F18DRH6X5Q","A1MWCDBGZLHJPI","37S0QRNUFB29SLTNXLPAM35NX0F88U","","","img/flower4.png","76","1149.1000000014901","3","1","3","0.7,0.2,0,0.7,0,0.2,0.2,0,0.7",""
"null","","html-keyboard-response","261","553336","0.0-261.0","3MX2NQ3YCAGI6O9NYXZ1F18DRH6X5Q","A1MWCDBGZLHJPI","37S0QRNUFB29SLTNXLPAM35NX0F88U","","","<img src=""img/flower4.png"" style=""width:200px; border:14px solid green;"">","null","","","","","",""
"1553","","image-keyboard-response","262","554893","0.0-262.0","3MX2NQ3YCAGI6O9NYXZ1F18DRH6X5Q","A1MWCDBGZLHJPI","37S0QRNUFB29SLTNXLPAM35NX0F88U","","","img/flower1.png","74","1557","1","1","2","0.7,0.2,0,0.7,0,0.2,0.2,0,0.7",""
"null","","html-keyboard-response","263","555197","0.0-263.0","3MX2NQ3YCAGI6O9NYXZ1F18DRH6X5Q","A1MWCDBGZLHJPI","37S0QRNUFB29SLTNXLPAM35NX0F88U","","","<img src=""img/flower1.png"" style=""width:200px; border:14px solid green;"">","null","","","","","",""
"661","","image-keyboard-response","264","555861","0.0-264.0","3MX2NQ3YCAGI6O9NYXZ1F18DRH6X5Q","A1MWCDBGZLHJPI","37S0QRNUFB29SLTNXLPAM35NX0F88U","","","img/flower6.png","74","664","1","0","1","0.7,0.2,0,0.7,0,0.2,0.2,0,0.7",""
"null","","html-keyboard-response","265","556165","0.0-265.0","3MX2NQ3YCAGI6O9NYXZ1F18DRH6X5Q","A1MWCDBGZLHJPI","37S0QRNUFB29SLTNXLPAM35NX0F88U","","","<img src=""img/flower6.png"" style=""width:200px;border:14px solid red;"">","null","","","","","",""
"1275.2999999970198","","image-keyboard-response","266","557444","0.0-266.0","3MX2NQ3YCAGI6O9NYXZ1F18DRH6X5Q","A1MWCDBGZLHJPI","37S0QRNUFB29SLTNXLPAM35NX0F88U","","","img/flower1.png","74","1278.5","1","1","2","0.7,0.2,0,0.7,0,0.2,0.2,0,0.7",""
"null","","html-keyboard-response","267","557749","0.0-267.0","3MX2NQ3YCAGI6O9NYXZ1F18DRH6X5Q","A1MWCDBGZLHJPI","37S0QRNUFB29SLTNXLPAM35NX0F88U","","","<img src=""img/flower1.png"" style=""width:200px; border:14px solid green;"">","null","","","","","",""
"600.1000000014901","","image-keyboard-response","268","558354","0.0-268.0","3MX2NQ3YCAGI6O9NYXZ1F18DRH6X5Q","A1MWCDBGZLHJPI","37S0QRNUFB29SLTNXLPAM35NX0F88U","","","img/flower4.png","76","605.3000000044703","3","1","3","0.7,0.2,0,0.7,0,0.2,0.2,0,0.7",""
"null","","html-keyboard-response","269","558659","0.0-269.0","3MX2NQ3YCAGI6O9NYXZ1F18DRH6X5Q","A1MWCDBGZLHJPI","37S0QRNUFB29SLTNXLPAM35NX0F88U","","","<img src=""img/flower4.png"" style=""width:200px; border:14px solid green;"">","null","","","","","",""
"886.1000000014901","","image-keyboard-response","270","559550","0.0-270.0","3MX2NQ3YCAGI6O9NYXZ1F18DRH6X5Q","A1MWCDBGZLHJPI","37S0QRNUFB29SLTNXLPAM35NX0F88U","","","img/flower1.png","74","890.5","1","1","2","0.7,0.2,0,0.7,0,0.2,0.2,0,0.7",""
"null","","html-keyboard-response","271","559854","0.0-271.0","3MX2NQ3YCAGI6O9NYXZ1F18DRH6X5Q","A1MWCDBGZLHJPI","37S0QRNUFB29SLTNXLPAM35NX0F88U","","","<img src=""img/flower1.png"" style=""width:200px; border:14px solid green;"">","null","","","","","",""
"765.3000000044703","","image-keyboard-response","272","560624","0.0-272.0","3MX2NQ3YCAGI6O9NYXZ1F18DRH6X5Q","A1MWCDBGZLHJPI","37S0QRNUFB29SLTNXLPAM35NX0F88U","","","img/flower4.png","76","768.7999999970198","3","1","3","0.7,0.2,0,0.7,0,0.2,0.2,0,0.7",""
"null","","html-keyboard-response","273","560928","0.0-273.0","3MX2NQ3YCAGI6O9NYXZ1F18DRH6X5Q","A1MWCDBGZLHJPI","37S0QRNUFB29SLTNXLPAM35NX0F88U","","","<img src=""img/flower4.png"" style=""width:200px; border:14px solid green;"">","null","","","","","",""
"714","","image-keyboard-response","274","561647","0.0-274.0","3MX2NQ3YCAGI6O9NYXZ1F18DRH6X5Q","A1MWCDBGZLHJPI","37S0QRNUFB29SLTNXLPAM35NX0F88U","","","img/flower6.png","74","718.2000000029802","1","1","1","0.7,0.2,0,0.7,0,0.2,0.2,0,0.7",""
"null","","html-keyboard-response","275","561950","0.0-275.0","3MX2NQ3YCAGI6O9NYXZ1F18DRH6X5Q","A1MWCDBGZLHJPI","37S0QRNUFB29SLTNXLPAM35NX0F88U","","","<img src=""img/flower6.png"" style=""width:200px; border:14px solid green;"">","null","","","","","",""
"836.5","","image-keyboard-response","276","562791","0.0-276.0","3MX2NQ3YCAGI6O9NYXZ1F18DRH6X5Q","A1MWCDBGZLHJPI","37S0QRNUFB29SLTNXLPAM35NX0F88U","","","img/flower4.png","76","840.7999999970198","3","1","3","0.7,0.2,0,0.7,0,0.2,0.2,0,0.7",""
"null","","html-keyboard-response","277","563096","0.0-277.0","3MX2NQ3YCAGI6O9NYXZ1F18DRH6X5Q","A1MWCDBGZLHJPI","37S0QRNUFB29SLTNXLPAM35NX0F88U","","","<img src=""img/flower4.png"" style=""width:200px; border:14px solid green;"">","null","","","","","",""
"1227.7999999970198","","image-keyboard-response","278","564328","0.0-278.0","3MX2NQ3YCAGI6O9NYXZ1F18DRH6X5Q","A1MWCDBGZLHJPI","37S0QRNUFB29SLTNXLPAM35NX0F88U","","","img/flower1.png","74","1230.8999999985099","1","1","2","0.7,0.2,0,0.7,0,0.2,0.2,0,0.7",""
"null","","html-keyboard-response","279","564634","0.0-279.0","3MX2NQ3YCAGI6O9NYXZ1F18DRH6X5Q","A1MWCDBGZLHJPI","37S0QRNUFB29SLTNXLPAM35NX0F88U","","","<img src=""img/flower1.png"" style=""width:200px; border:14px solid green;"">","null","","","","","",""
"1079.3000000044703","","image-keyboard-response","280","565718","0.0-280.0","3MX2NQ3YCAGI6O9NYXZ1F18DRH6X5Q","A1MWCDBGZLHJPI","37S0QRNUFB29SLTNXLPAM35NX0F88U","","","img/flower4.png","76","1083.8999999985099","3","1","3","0.7,0.2,0,0.7,0,0.2,0.2,0,0.7",""
"null","","html-keyboard-response","281","566024","0.0-281.0","3MX2NQ3YCAGI6O9NYXZ1F18DRH6X5Q","A1MWCDBGZLHJPI","37S0QRNUFB29SLTNXLPAM35NX0F88U","","","<img src=""img/flower4.png"" style=""width:200px; border:14px solid green;"">","null","","","","","",""
"763.1999999955297","","image-keyboard-response","282","566790","0.0-282.0","3MX2NQ3YCAGI6O9NYXZ1F18DRH6X5Q","A1MWCDBGZLHJPI","37S0QRNUFB29SLTNXLPAM35NX0F88U","","","img/flower4.png","76","766.7999999970198","3","1","3","0.7,0.2,0,0.7,0,0.2,0.2,0,0.7",""
"null","","html-keyboard-response","283","567094","0.0-283.0","3MX2NQ3YCAGI6O9NYXZ1F18DRH6X5Q","A1MWCDBGZLHJPI","37S0QRNUFB29SLTNXLPAM35NX0F88U","","","<img src=""img/flower4.png"" style=""width:200px; border:14px solid green;"">","null","","","","","",""
"736.2000000029802","","image-keyboard-response","284","567835","0.0-284.0","3MX2NQ3YCAGI6O9NYXZ1F18DRH6X5Q","A1MWCDBGZLHJPI","37S0QRNUFB29SLTNXLPAM35NX0F88U","","","img/flower6.png","74","740.5999999940395","1","1","1","0.7,0.2,0,0.7,0,0.2,0.2,0,0.7",""
"null","","html-keyboard-response","285","568138","0.0-285.0","3MX2NQ3YCAGI6O9NYXZ1F18DRH6X5Q","A1MWCDBGZLHJPI","37S0QRNUFB29SLTNXLPAM35NX0F88U","","","<img src=""img/flower6.png"" style=""width:200px; border:14px solid green;"">","null","","","","","",""
"1006.2000000029802","","image-keyboard-response","286","569149","0.0-286.0","3MX2NQ3YCAGI6O9NYXZ1F18DRH6X5Q","A1MWCDBGZLHJPI","37S0QRNUFB29SLTNXLPAM35NX0F88U","","","img/flower4.png","76","1009.5","3","1","3","0.7,0.2,0,0.7,0,0.2,0.2,0,0.7",""
"null","","html-keyboard-response","287","569453","0.0-287.0","3MX2NQ3YCAGI6O9NYXZ1F18DRH6X5Q","A1MWCDBGZLHJPI","37S0QRNUFB29SLTNXLPAM35NX0F88U","","","<img src=""img/flower4.png"" style=""width:200px; border:14px solid green;"">","null","","","","","",""
"740.1999999955297","","image-keyboard-response","288","570198","0.0-288.0","3MX2NQ3YCAGI6O9NYXZ1F18DRH6X5Q","A1MWCDBGZLHJPI","37S0QRNUFB29SLTNXLPAM35NX0F88U","","","img/flower6.png","74","744.3000000044703","1","1","1","0.7,0.2,0,0.7,0,0.2,0.2,0,0.7",""
"null","","html-keyboard-response","289","570504","0.0-289.0","3MX2NQ3YCAGI6O9NYXZ1F18DRH6X5Q","A1MWCDBGZLHJPI","37S0QRNUFB29SLTNXLPAM35NX0F88U","","","<img src=""img/flower6.png"" style=""width:200px; border:14px solid green;"">","null","","","","","",""
"984.8999999985099","","image-keyboard-response","290","571493","0.0-290.0","3MX2NQ3YCAGI6O9NYXZ1F18DRH6X5Q","A1MWCDBGZLHJPI","37S0QRNUFB29SLTNXLPAM35NX0F88U","","","img/flower1.png","76","988.0999999940395","3","0","2","0.7,0.2,0,0.7,0,0.2,0.2,0,0.7",""
"null","","html-keyboard-response","291","571798","0.0-291.0","3MX2NQ3YCAGI6O9NYXZ1F18DRH6X5Q","A1MWCDBGZLHJPI","37S0QRNUFB29SLTNXLPAM35NX0F88U","","","<img src=""img/flower1.png"" style=""width:200px;border:14px solid red;"">","null","","","","","",""
"712.3999999985099","","image-keyboard-response","292","572515","0.0-292.0","3MX2NQ3YCAGI6O9NYXZ1F18DRH6X5Q","A1MWCDBGZLHJPI","37S0QRNUFB29SLTNXLPAM35NX0F88U","","","img/flower1.png","74","717","1","1","2","0.7,0.2,0,0.7,0,0.2,0.2,0,0.7",""
"null","","html-keyboard-response","293","572820","0.0-293.0","3MX2NQ3YCAGI6O9NYXZ1F18DRH6X5Q","A1MWCDBGZLHJPI","37S0QRNUFB29SLTNXLPAM35NX0F88U","","","<img src=""img/flower1.png"" style=""width:200px; border:14px solid green;"">","null","","","","","",""
"859.7999999970198","","image-keyboard-response","294","573685","0.0-294.0","3MX2NQ3YCAGI6O9NYXZ1F18DRH6X5Q","A1MWCDBGZLHJPI","37S0QRNUFB29SLTNXLPAM35NX0F88U","","","img/flower1.png","74","864.3999999985099","1","0","2","0.7,0.2,0,0.7,0,0.2,0.2,0,0.7",""
"null","","html-keyboard-response","295","573990","0.0-295.0","3MX2NQ3YCAGI6O9NYXZ1F18DRH6X5Q","A1MWCDBGZLHJPI","37S0QRNUFB29SLTNXLPAM35NX0F88U","","","<img src=""img/flower1.png"" style=""width:200px;border:14px solid red;"">","null","","","","","",""
"786.7000000029802","","image-keyboard-response","296","574783","0.0-296.0","3MX2NQ3YCAGI6O9NYXZ1F18DRH6X5Q","A1MWCDBGZLHJPI","37S0QRNUFB29SLTNXLPAM35NX0F88U","","","img/flower6.png","74","791.6000000014901","1","1","1","0.7,0.2,0,0.7,0,0.2,0.2,0,0.7",""
"null","","html-keyboard-response","297","575088","0.0-297.0","3MX2NQ3YCAGI6O9NYXZ1F18DRH6X5Q","A1MWCDBGZLHJPI","37S0QRNUFB29SLTNXLPAM35NX0F88U","","","<img src=""img/flower6.png"" style=""width:200px; border:14px solid green;"">","null","","","","","",""
"592","","image-keyboard-response","298","575688","0.0-298.0","3MX2NQ3YCAGI6O9NYXZ1F18DRH6X5Q","A1MWCDBGZLHJPI","37S0QRNUFB29SLTNXLPAM35NX0F88U","","","img/flower6.png","74","598.6000000014901","1","1","1","0.7,0.2,0,0.7,0,0.2,0.2,0,0.7",""
"null","","html-keyboard-response","299","575995","0.0-299.0","3MX2NQ3YCAGI6O9NYXZ1F18DRH6X5Q","A1MWCDBGZLHJPI","37S0QRNUFB29SLTNXLPAM35NX0F88U","","","<img src=""img/flower6.png"" style=""width:200px; border:14px solid green;"">","null","","","","","",""
"630","","image-keyboard-response","300","576632","0.0-300.0","3MX2NQ3YCAGI6O9NYXZ1F18DRH6X5Q","A1MWCDBGZLHJPI","37S0QRNUFB29SLTNXLPAM35NX0F88U","","","img/flower6.png","74","635","1","1","1","0.7,0.2,0,0.7,0,0.2,0.2,0,0.7",""
"null","","html-keyboard-response","301","576939","0.0-301.0","3MX2NQ3YCAGI6O9NYXZ1F18DRH6X5Q","A1MWCDBGZLHJPI","37S0QRNUFB29SLTNXLPAM35NX0F88U","","","<img src=""img/flower6.png"" style=""width:200px; border:14px solid green;"">","null","","","","","",""
"881.1000000014901","","image-keyboard-response","302","577824","0.0-302.0","3MX2NQ3YCAGI6O9NYXZ1F18DRH6X5Q","A1MWCDBGZLHJPI","37S0QRNUFB29SLTNXLPAM35NX0F88U","","","img/flower6.png","74","884.3999999985099","1","1","1","0.7,0.2,0,0.7,0,0.2,0.2,0,0.7",""
"null","","html-keyboard-response","303","578128","0.0-303.0","3MX2NQ3YCAGI6O9NYXZ1F18DRH6X5Q","A1MWCDBGZLHJPI","37S0QRNUFB29SLTNXLPAM35NX0F88U","","","<img src=""img/flower6.png"" style=""width:200px; border:14px solid green;"">","null","","","","","",""
"1582.7999999970198","","image-keyboard-response","304","579715","0.0-304.0","3MX2NQ3YCAGI6O9NYXZ1F18DRH6X5Q","A1MWCDBGZLHJPI","37S0QRNUFB29SLTNXLPAM35NX0F88U","","","img/flower1.png","74","1586.0999999940395","1","1","2","0.7,0.2,0,0.7,0,0.2,0.2,0,0.7",""
"null","","html-keyboard-response","305","580018","0.0-305.0","3MX2NQ3YCAGI6O9NYXZ1F18DRH6X5Q","A1MWCDBGZLHJPI","37S0QRNUFB29SLTNXLPAM35NX0F88U","","","<img src=""img/flower1.png"" style=""width:200px; border:14px solid green;"">","null","","","","","",""
"","","html-keyboard-response","306","586355","0.0-306.0","3MX2NQ3YCAGI6O9NYXZ1F18DRH6X5Q","A1MWCDBGZLHJPI","37S0QRNUFB29SLTNXLPAM35NX0F88U","","","","","","","","","",""
"4477","","image-keyboard-response","307","590837","0.0-307.0","3MX2NQ3YCAGI6O9NYXZ1F18DRH6X5Q","A1MWCDBGZLHJPI","37S0QRNUFB29SLTNXLPAM35NX0F88U","","","img/flower5.png","75","4481.19999999553","2","0","3","0.7,0.2,0,0,0.7,0.2,0.2,0,0.7",""
"null","","html-keyboard-response","308","591142","0.0-308.0","3MX2NQ3YCAGI6O9NYXZ1F18DRH6X5Q","A1MWCDBGZLHJPI","37S0QRNUFB29SLTNXLPAM35NX0F88U","","","<img src=""img/flower5.png"" style=""width:200px;border:14px solid red;"">","null","","","","","",""
"1538.1000000014901","","image-keyboard-response","309","592684","0.0-309.0","3MX2NQ3YCAGI6O9NYXZ1F18DRH6X5Q","A1MWCDBGZLHJPI","37S0QRNUFB29SLTNXLPAM35NX0F88U","","","img/flower5.png","74","1541.6000000014901","1","0","3","0.7,0.2,0,0,0.7,0.2,0.2,0,0.7",""
"null","","html-keyboard-response","310","592989","0.0-310.0","3MX2NQ3YCAGI6O9NYXZ1F18DRH6X5Q","A1MWCDBGZLHJPI","37S0QRNUFB29SLTNXLPAM35NX0F88U","","","<img src=""img/flower5.png"" style=""width:200px;border:14px solid red;"">","null","","","","","",""
"1980.8000000044703","","image-keyboard-response","311","594977","0.0-311.0","3MX2NQ3YCAGI6O9NYXZ1F18DRH6X5Q","A1MWCDBGZLHJPI","37S0QRNUFB29SLTNXLPAM35NX0F88U","","","img/flower5.png","76","1986.3999999985099","3","0","3","0.7,0.2,0,0,0.7,0.2,0.2,0,0.7",""
"null","","html-keyboard-response","312","595282","0.0-312.0","3MX2NQ3YCAGI6O9NYXZ1F18DRH6X5Q","A1MWCDBGZLHJPI","37S0QRNUFB29SLTNXLPAM35NX0F88U","","","<img src=""img/flower5.png"" style=""width:200px;border:14px solid red;"">","null","","","","","",""
"2552.5","","image-keyboard-response","313","597839","0.0-313.0","3MX2NQ3YCAGI6O9NYXZ1F18DRH6X5Q","A1MWCDBGZLHJPI","37S0QRNUFB29SLTNXLPAM35NX0F88U","","","img/flower5.png","74","2556.3000000044703","1","0","3","0.7,0.2,0,0,0.7,0.2,0.2,0,0.7",""
"null","","html-keyboard-response","314","598143","0.0-314.0","3MX2NQ3YCAGI6O9NYXZ1F18DRH6X5Q","A1MWCDBGZLHJPI","37S0QRNUFB29SLTNXLPAM35NX0F88U","","","<img src=""img/flower5.png"" style=""width:200px;border:14px solid red;"">","null","","","","","",""
"1274.4000000059605","","image-keyboard-response","315","599421","0.0-315.0","3MX2NQ3YCAGI6O9NYXZ1F18DRH6X5Q","A1MWCDBGZLHJPI","37S0QRNUFB29SLTNXLPAM35NX0F88U","","","img/flower3.png","74","1277.6000000014901","1","0","2","0.7,0.2,0,0,0.7,0.2,0.2,0,0.7",""
"null","","html-keyboard-response","316","599725","0.0-316.0","3MX2NQ3YCAGI6O9NYXZ1F18DRH6X5Q","A1MWCDBGZLHJPI","37S0QRNUFB29SLTNXLPAM35NX0F88U","","","<img src=""img/flower3.png"" style=""width:200px;border:14px solid red;"">","null","","","","","",""
"1788.8999999985099","","image-keyboard-response","317","601518","0.0-317.0","3MX2NQ3YCAGI6O9NYXZ1F18DRH6X5Q","A1MWCDBGZLHJPI","37S0QRNUFB29SLTNXLPAM35NX0F88U","","","img/flower2.png","75","1792.1999999955297","2","0","1","0.7,0.2,0,0,0.7,0.2,0.2,0,0.7",""
"null","","html-keyboard-response","318","601823","0.0-318.0","3MX2NQ3YCAGI6O9NYXZ1F18DRH6X5Q","A1MWCDBGZLHJPI","37S0QRNUFB29SLTNXLPAM35NX0F88U","","","<img src=""img/flower2.png"" style=""width:200px;border:14px solid red;"">","null","","","","","",""
"1190.7999999970198","","image-keyboard-response","319","603020","0.0-319.0","3MX2NQ3YCAGI6O9NYXZ1F18DRH6X5Q","A1MWCDBGZLHJPI","37S0QRNUFB29SLTNXLPAM35NX0F88U","","","img/flower3.png","74","1195.4000000059605","1","0","2","0.7,0.2,0,0,0.7,0.2,0.2,0,0.7",""
"null","","html-keyboard-response","320","603324","0.0-320.0","3MX2NQ3YCAGI6O9NYXZ1F18DRH6X5Q","A1MWCDBGZLHJPI","37S0QRNUFB29SLTNXLPAM35NX0F88U","","","<img src=""img/flower3.png"" style=""width:200px;border:14px solid red;"">","null","","","","","",""
"1492.7000000029802","","image-keyboard-response","321","604820","0.0-321.0","3MX2NQ3YCAGI6O9NYXZ1F18DRH6X5Q","A1MWCDBGZLHJPI","37S0QRNUFB29SLTNXLPAM35NX0F88U","","","img/flower5.png","75","1496.3999999985099","2","0","3","0.7,0.2,0,0,0.7,0.2,0.2,0,0.7",""
"null","","html-keyboard-response","322","605126","0.0-322.0","3MX2NQ3YCAGI6O9NYXZ1F18DRH6X5Q","A1MWCDBGZLHJPI","37S0QRNUFB29SLTNXLPAM35NX0F88U","","","<img src=""img/flower5.png"" style=""width:200px;border:14px solid red;"">","null","","","","","",""
"1193.7999999970198","","image-keyboard-response","323","606323","0.0-323.0","3MX2NQ3YCAGI6O9NYXZ1F18DRH6X5Q","A1MWCDBGZLHJPI","37S0QRNUFB29SLTNXLPAM35NX0F88U","","","img/flower3.png","76","1197.2000000029802","3","0","2","0.7,0.2,0,0,0.7,0.2,0.2,0,0.7",""
"null","","html-keyboard-response","324","606627","0.0-324.0","3MX2NQ3YCAGI6O9NYXZ1F18DRH6X5Q","A1MWCDBGZLHJPI","37S0QRNUFB29SLTNXLPAM35NX0F88U","","","<img src=""img/flower3.png"" style=""width:200px;border:14px solid red;"">","null","","","","","",""
"4120.60000000149","","image-keyboard-response","325","610751","0.0-325.0","3MX2NQ3YCAGI6O9NYXZ1F18DRH6X5Q","A1MWCDBGZLHJPI","37S0QRNUFB29SLTNXLPAM35NX0F88U","","","img/flower2.png","75","4123.30000000447","2","0","1","0.7,0.2,0,0,0.7,0.2,0.2,0,0.7",""
"null","","html-keyboard-response","326","611055","0.0-326.0","3MX2NQ3YCAGI6O9NYXZ1F18DRH6X5Q","A1MWCDBGZLHJPI","37S0QRNUFB29SLTNXLPAM35NX0F88U","","","<img src=""img/flower2.png"" style=""width:200px;border:14px solid red;"">","null","","","","","",""
"834.0999999940395","","image-keyboard-response","327","611893","0.0-327.0","3MX2NQ3YCAGI6O9NYXZ1F18DRH6X5Q","A1MWCDBGZLHJPI","37S0QRNUFB29SLTNXLPAM35NX0F88U","","","img/flower5.png","74","837.3999999985099","1","0","3","0.7,0.2,0,0,0.7,0.2,0.2,0,0.7",""
"null","","html-keyboard-response","328","612197","0.0-328.0","3MX2NQ3YCAGI6O9NYXZ1F18DRH6X5Q","A1MWCDBGZLHJPI","37S0QRNUFB29SLTNXLPAM35NX0F88U","","","<img src=""img/flower5.png"" style=""width:200px;border:14px solid red;"">","null","","","","","",""
"769.1000000014901","","image-keyboard-response","329","612971","0.0-329.0","3MX2NQ3YCAGI6O9NYXZ1F18DRH6X5Q","A1MWCDBGZLHJPI","37S0QRNUFB29SLTNXLPAM35NX0F88U","","","img/flower3.png","74","773.5","1","0","2","0.7,0.2,0,0,0.7,0.2,0.2,0,0.7",""
"null","","html-keyboard-response","330","613275","0.0-330.0","3MX2NQ3YCAGI6O9NYXZ1F18DRH6X5Q","A1MWCDBGZLHJPI","37S0QRNUFB29SLTNXLPAM35NX0F88U","","","<img src=""img/flower3.png"" style=""width:200px;border:14px solid red;"">","null","","","","","",""
"1617.5999999940395","","image-keyboard-response","331","614898","0.0-331.0","3MX2NQ3YCAGI6O9NYXZ1F18DRH6X5Q","A1MWCDBGZLHJPI","37S0QRNUFB29SLTNXLPAM35NX0F88U","","","img/flower3.png","74","1622.5","1","0","2","0.7,0.2,0,0,0.7,0.2,0.2,0,0.7",""
"null","","html-keyboard-response","332","615202","0.0-332.0","3MX2NQ3YCAGI6O9NYXZ1F18DRH6X5Q","A1MWCDBGZLHJPI","37S0QRNUFB29SLTNXLPAM35NX0F88U","","","<img src=""img/flower3.png"" style=""width:200px;border:14px solid red;"">","null","","","","","",""
"1291.7000000029802","","image-keyboard-response","333","616498","0.0-333.0","3MX2NQ3YCAGI6O9NYXZ1F18DRH6X5Q","A1MWCDBGZLHJPI","37S0QRNUFB29SLTNXLPAM35NX0F88U","","","img/flower2.png","74","1295.2000000029802","1","1","1","0.7,0.2,0,0,0.7,0.2,0.2,0,0.7",""
"null","","html-keyboard-response","334","616803","0.0-334.0","3MX2NQ3YCAGI6O9NYXZ1F18DRH6X5Q","A1MWCDBGZLHJPI","37S0QRNUFB29SLTNXLPAM35NX0F88U","","","<img src=""img/flower2.png"" style=""width:200px; border:14px solid green;"">","null","","","","","",""
"6085.69999999553","","image-keyboard-response","335","622892","0.0-335.0","3MX2NQ3YCAGI6O9NYXZ1F18DRH6X5Q","A1MWCDBGZLHJPI","37S0QRNUFB29SLTNXLPAM35NX0F88U","","","img/flower5.png","75","6089.29999999702","2","0","3","0.7,0.2,0,0,0.7,0.2,0.2,0,0.7",""
"null","","html-keyboard-response","336","623196","0.0-336.0","3MX2NQ3YCAGI6O9NYXZ1F18DRH6X5Q","A1MWCDBGZLHJPI","37S0QRNUFB29SLTNXLPAM35NX0F88U","","","<img src=""img/flower5.png"" style=""width:200px;border:14px solid red;"">","null","","","","","",""
"2376.10000000149","","image-keyboard-response","337","625575","0.0-337.0","3MX2NQ3YCAGI6O9NYXZ1F18DRH6X5Q","A1MWCDBGZLHJPI","37S0QRNUFB29SLTNXLPAM35NX0F88U","","","img/flower3.png","76","2378.5","3","0","2","0.7,0.2,0,0,0.7,0.2,0.2,0,0.7",""
"null","","html-keyboard-response","338","625880","0.0-338.0","3MX2NQ3YCAGI6O9NYXZ1F18DRH6X5Q","A1MWCDBGZLHJPI","37S0QRNUFB29SLTNXLPAM35NX0F88U","","","<img src=""img/flower3.png"" style=""width:200px;border:14px solid red;"">","null","","","","","",""
"1442.8999999985099","","image-keyboard-response","339","627327","0.0-339.0","3MX2NQ3YCAGI6O9NYXZ1F18DRH6X5Q","A1MWCDBGZLHJPI","37S0QRNUFB29SLTNXLPAM35NX0F88U","","","img/flower3.png","76","1446.3999999985099","3","0","2","0.7,0.2,0,0,0.7,0.2,0.2,0,0.7",""
"null","","html-keyboard-response","340","627631","0.0-340.0","3MX2NQ3YCAGI6O9NYXZ1F18DRH6X5Q","A1MWCDBGZLHJPI","37S0QRNUFB29SLTNXLPAM35NX0F88U","","","<img src=""img/flower3.png"" style=""width:200px;border:14px solid red;"">","null","","","","","",""
"2433.5","","image-keyboard-response","341","630069","0.0-341.0","3MX2NQ3YCAGI6O9NYXZ1F18DRH6X5Q","A1MWCDBGZLHJPI","37S0QRNUFB29SLTNXLPAM35NX0F88U","","","img/flower5.png","75","2436.60000000149","2","0","3","0.7,0.2,0,0,0.7,0.2,0.2,0,0.7",""
"null","","html-keyboard-response","342","630372","0.0-342.0","3MX2NQ3YCAGI6O9NYXZ1F18DRH6X5Q","A1MWCDBGZLHJPI","37S0QRNUFB29SLTNXLPAM35NX0F88U","","","<img src=""img/flower5.png"" style=""width:200px;border:14px solid red;"">","null","","","","","",""
"1035.1000000014901","","image-keyboard-response","343","631412","0.0-343.0","3MX2NQ3YCAGI6O9NYXZ1F18DRH6X5Q","A1MWCDBGZLHJPI","37S0QRNUFB29SLTNXLPAM35NX0F88U","","","img/flower2.png","74","1038.5999999940395","1","0","1","0.7,0.2,0,0,0.7,0.2,0.2,0,0.7",""
"null","","html-keyboard-response","344","631716","0.0-344.0","3MX2NQ3YCAGI6O9NYXZ1F18DRH6X5Q","A1MWCDBGZLHJPI","37S0QRNUFB29SLTNXLPAM35NX0F88U","","","<img src=""img/flower2.png"" style=""width:200px;border:14px solid red;"">","null","","","","","",""
"948.3999999985099","","image-keyboard-response","345","632668","0.0-345.0","3MX2NQ3YCAGI6O9NYXZ1F18DRH6X5Q","A1MWCDBGZLHJPI","37S0QRNUFB29SLTNXLPAM35NX0F88U","","","img/flower5.png","74","951.2999999970198","1","0","3","0.7,0.2,0,0,0.7,0.2,0.2,0,0.7",""
"null","","html-keyboard-response","346","632973","0.0-346.0","3MX2NQ3YCAGI6O9NYXZ1F18DRH6X5Q","A1MWCDBGZLHJPI","37S0QRNUFB29SLTNXLPAM35NX0F88U","","","<img src=""img/flower5.png"" style=""width:200px;border:14px solid red;"">","null","","","","","",""
"1232.3999999985099","","image-keyboard-response","347","634210","0.0-347.0","3MX2NQ3YCAGI6O9NYXZ1F18DRH6X5Q","A1MWCDBGZLHJPI","37S0QRNUFB29SLTNXLPAM35NX0F88U","","","img/flower3.png","75","1236.3999999985099","2","1","2","0.7,0.2,0,0,0.7,0.2,0.2,0,0.7",""
"null","","html-keyboard-response","348","634514","0.0-348.0","3MX2NQ3YCAGI6O9NYXZ1F18DRH6X5Q","A1MWCDBGZLHJPI","37S0QRNUFB29SLTNXLPAM35NX0F88U","","","<img src=""img/flower3.png"" style=""width:200px; border:14px solid green;"">","null","","","","","",""
"2032.6999999955297","","image-keyboard-response","349","636551","0.0-349.0","3MX2NQ3YCAGI6O9NYXZ1F18DRH6X5Q","A1MWCDBGZLHJPI","37S0QRNUFB29SLTNXLPAM35NX0F88U","","","img/flower3.png","74","2036.1000000014901","1","0","2","0.7,0.2,0,0,0.7,0.2,0.2,0,0.7",""
"null","","html-keyboard-response","350","636858","0.0-350.0","3MX2NQ3YCAGI6O9NYXZ1F18DRH6X5Q","A1MWCDBGZLHJPI","37S0QRNUFB29SLTNXLPAM35NX0F88U","","","<img src=""img/flower3.png"" style=""width:200px;border:14px solid red;"">","null","","","","","",""
"2868.6999999955297","","image-keyboard-response","351","639740","0.0-351.0","3MX2NQ3YCAGI6O9NYXZ1F18DRH6X5Q","A1MWCDBGZLHJPI","37S0QRNUFB29SLTNXLPAM35NX0F88U","","","img/flower5.png","76","2873.39999999851","3","1","3","0.7,0.2,0,0,0.7,0.2,0.2,0,0.7",""
"null","","html-keyboard-response","352","640045","0.0-352.0","3MX2NQ3YCAGI6O9NYXZ1F18DRH6X5Q","A1MWCDBGZLHJPI","37S0QRNUFB29SLTNXLPAM35NX0F88U","","","<img src=""img/flower5.png"" style=""width:200px; border:14px solid green;"">","null","","","","","",""
"4139.0999999940395","","image-keyboard-response","353","644189","0.0-353.0","3MX2NQ3YCAGI6O9NYXZ1F18DRH6X5Q","A1MWCDBGZLHJPI","37S0QRNUFB29SLTNXLPAM35NX0F88U","","","img/flower2.png","74","4143.79999999702","1","1","1","0.7,0.2,0,0,0.7,0.2,0.2,0,0.7",""
"null","","html-keyboard-response","354","644496","0.0-354.0","3MX2NQ3YCAGI6O9NYXZ1F18DRH6X5Q","A1MWCDBGZLHJPI","37S0QRNUFB29SLTNXLPAM35NX0F88U","","","<img src=""img/flower2.png"" style=""width:200px; border:14px solid green;"">","null","","","","","",""
"4099.20000000298","","image-keyboard-response","355","648601","0.0-355.0","3MX2NQ3YCAGI6O9NYXZ1F18DRH6X5Q","A1MWCDBGZLHJPI","37S0QRNUFB29SLTNXLPAM35NX0F88U","","","img/flower5.png","76","4104.10000000149","3","0","3","0.7,0.2,0,0,0.7,0.2,0.2,0,0.7",""
"null","","html-keyboard-response","356","648906","0.0-356.0","3MX2NQ3YCAGI6O9NYXZ1F18DRH6X5Q","A1MWCDBGZLHJPI","37S0QRNUFB29SLTNXLPAM35NX0F88U","","","<img src=""img/flower5.png"" style=""width:200px;border:14px solid red;"">","null","","","","","",""
"956.2000000029802","","image-keyboard-response","357","649867","0.0-357.0","3MX2NQ3YCAGI6O9NYXZ1F18DRH6X5Q","A1MWCDBGZLHJPI","37S0QRNUFB29SLTNXLPAM35NX0F88U","","","img/flower5.png","76","960.8000000044703","3","1","3","0.7,0.2,0,0,0.7,0.2,0.2,0,0.7",""
"null","","html-keyboard-response","358","650171","0.0-358.0","3MX2NQ3YCAGI6O9NYXZ1F18DRH6X5Q","A1MWCDBGZLHJPI","37S0QRNUFB29SLTNXLPAM35NX0F88U","","","<img src=""img/flower5.png"" style=""width:200px; border:14px solid green;"">","null","","","","","",""
"3917.89999999851","","image-keyboard-response","359","654093","0.0-359.0","3MX2NQ3YCAGI6O9NYXZ1F18DRH6X5Q","A1MWCDBGZLHJPI","37S0QRNUFB29SLTNXLPAM35NX0F88U","","","img/flower2.png","74","3921.39999999851","1","1","1","0.7,0.2,0,0,0.7,0.2,0.2,0,0.7",""
"null","","html-keyboard-response","360","654397","0.0-360.0","3MX2NQ3YCAGI6O9NYXZ1F18DRH6X5Q","A1MWCDBGZLHJPI","37S0QRNUFB29SLTNXLPAM35NX0F88U","","","<img src=""img/flower2.png"" style=""width:200px; border:14px solid green;"">","null","","","","","",""
"9112.70000000298","","image-keyboard-response","361","663514","0.0-361.0","3MX2NQ3YCAGI6O9NYXZ1F18DRH6X5Q","A1MWCDBGZLHJPI","37S0QRNUFB29SLTNXLPAM35NX0F88U","","","img/flower3.png","74","9116.89999999851","1","0","2","0.7,0.2,0,0,0.7,0.2,0.2,0,0.7",""
"null","","html-keyboard-response","362","663818","0.0-362.0","3MX2NQ3YCAGI6O9NYXZ1F18DRH6X5Q","A1MWCDBGZLHJPI","37S0QRNUFB29SLTNXLPAM35NX0F88U","","","<img src=""img/flower3.png"" style=""width:200px;border:14px solid red;"">","null","","","","","",""
"2161.39999999851","","image-keyboard-response","363","665983","0.0-363.0","3MX2NQ3YCAGI6O9NYXZ1F18DRH6X5Q","A1MWCDBGZLHJPI","37S0QRNUFB29SLTNXLPAM35NX0F88U","","","img/flower5.png","76","2164.5","3","1","3","0.7,0.2,0,0,0.7,0.2,0.2,0,0.7",""
"null","","html-keyboard-response","364","666286","0.0-364.0","3MX2NQ3YCAGI6O9NYXZ1F18DRH6X5Q","A1MWCDBGZLHJPI","37S0QRNUFB29SLTNXLPAM35NX0F88U","","","<img src=""img/flower5.png"" style=""width:200px; border:14px solid green;"">","null","","","","","",""
"999","","image-keyboard-response","365","667290","0.0-365.0","3MX2NQ3YCAGI6O9NYXZ1F18DRH6X5Q","A1MWCDBGZLHJPI","37S0QRNUFB29SLTNXLPAM35NX0F88U","","","img/flower5.png","76","1002.5","3","1","3","0.7,0.2,0,0,0.7,0.2,0.2,0,0.7",""
"null","","html-keyboard-response","366","667601","0.0-366.0","3MX2NQ3YCAGI6O9NYXZ1F18DRH6X5Q","A1MWCDBGZLHJPI","37S0QRNUFB29SLTNXLPAM35NX0F88U","","","<img src=""img/flower5.png"" style=""width:200px; border:14px solid green;"">","null","","","","","",""
"1448.6000000014901","","image-keyboard-response","367","669053","0.0-367.0","3MX2NQ3YCAGI6O9NYXZ1F18DRH6X5Q","A1MWCDBGZLHJPI","37S0QRNUFB29SLTNXLPAM35NX0F88U","","","img/flower3.png","74","1451.6000000014901","1","0","2","0.7,0.2,0,0,0.7,0.2,0.2,0,0.7",""
"null","","html-keyboard-response","368","669358","0.0-368.0","3MX2NQ3YCAGI6O9NYXZ1F18DRH6X5Q","A1MWCDBGZLHJPI","37S0QRNUFB29SLTNXLPAM35NX0F88U","","","<img src=""img/flower3.png"" style=""width:200px;border:14px solid red;"">","null","","","","","",""
"1232.1000000014901","","image-keyboard-response","369","670597","0.0-369.0","3MX2NQ3YCAGI6O9NYXZ1F18DRH6X5Q","A1MWCDBGZLHJPI","37S0QRNUFB29SLTNXLPAM35NX0F88U","","","img/flower2.png","74","1238.8999999985099","1","0","1","0.7,0.2,0,0,0.7,0.2,0.2,0,0.7",""
"null","","html-keyboard-response","370","670905","0.0-370.0","3MX2NQ3YCAGI6O9NYXZ1F18DRH6X5Q","A1MWCDBGZLHJPI","37S0QRNUFB29SLTNXLPAM35NX0F88U","","","<img src=""img/flower2.png"" style=""width:200px;border:14px solid red;"">","null","","","","","",""
"963.8000000044703","","image-keyboard-response","371","671875","0.0-371.0","3MX2NQ3YCAGI6O9NYXZ1F18DRH6X5Q","A1MWCDBGZLHJPI","37S0QRNUFB29SLTNXLPAM35NX0F88U","","","img/flower2.png","74","967.7000000029802","1","0","1","0.7,0.2,0,0,0.7,0.2,0.2,0,0.7",""
"null","","html-keyboard-response","372","672183","0.0-372.0","3MX2NQ3YCAGI6O9NYXZ1F18DRH6X5Q","A1MWCDBGZLHJPI","37S0QRNUFB29SLTNXLPAM35NX0F88U","","","<img src=""img/flower2.png"" style=""width:200px;border:14px solid red;"">","null","","","","","",""
"1110.2999999970198","","image-keyboard-response","373","673297","0.0-373.0","3MX2NQ3YCAGI6O9NYXZ1F18DRH6X5Q","A1MWCDBGZLHJPI","37S0QRNUFB29SLTNXLPAM35NX0F88U","","","img/flower2.png","74","1113.2000000029802","1","1","1","0.7,0.2,0,0,0.7,0.2,0.2,0,0.7",""
"null","","html-keyboard-response","374","673601","0.0-374.0","3MX2NQ3YCAGI6O9NYXZ1F18DRH6X5Q","A1MWCDBGZLHJPI","37S0QRNUFB29SLTNXLPAM35NX0F88U","","","<img src=""img/flower2.png"" style=""width:200px; border:14px solid green;"">","null","","","","","",""
"1306.3999999985099","","image-keyboard-response","375","674913","0.0-375.0","3MX2NQ3YCAGI6O9NYXZ1F18DRH6X5Q","A1MWCDBGZLHJPI","37S0QRNUFB29SLTNXLPAM35NX0F88U","","","img/flower2.png","74","1310.6000000014901","1","1","1","0.7,0.2,0,0,0.7,0.2,0.2,0,0.7",""
"null","","html-keyboard-response","376","675219","0.0-376.0","3MX2NQ3YCAGI6O9NYXZ1F18DRH6X5Q","A1MWCDBGZLHJPI","37S0QRNUFB29SLTNXLPAM35NX0F88U","","","<img src=""img/flower2.png"" style=""width:200px; border:14px solid green;"">","null","","","","","",""
"1414.6000000014901","","image-keyboard-response","377","676637","0.0-377.0","3MX2NQ3YCAGI6O9NYXZ1F18DRH6X5Q","A1MWCDBGZLHJPI","37S0QRNUFB29SLTNXLPAM35NX0F88U","","","img/flower2.png","74","1418","1","0","1","0.7,0.2,0,0,0.7,0.2,0.2,0,0.7",""
"null","","html-keyboard-response","378","676942","0.0-378.0","3MX2NQ3YCAGI6O9NYXZ1F18DRH6X5Q","A1MWCDBGZLHJPI","37S0QRNUFB29SLTNXLPAM35NX0F88U","","","<img src=""img/flower2.png"" style=""width:200px;border:14px solid red;"">","null","","","","","",""
"2297.9000000059605","","image-keyboard-response","379","679244","0.0-379.0","3MX2NQ3YCAGI6O9NYXZ1F18DRH6X5Q","A1MWCDBGZLHJPI","37S0QRNUFB29SLTNXLPAM35NX0F88U","","","img/flower5.png","76","2301.7000000029802","3","1","3","0.7,0.2,0,0,0.7,0.2,0.2,0,0.7",""
"null","","html-keyboard-response","380","679548","0.0-380.0","3MX2NQ3YCAGI6O9NYXZ1F18DRH6X5Q","A1MWCDBGZLHJPI","37S0QRNUFB29SLTNXLPAM35NX0F88U","","","<img src=""img/flower5.png"" style=""width:200px; border:14px solid green;"">","null","","","","","",""
"2414","","image-keyboard-response","381","681967","0.0-381.0","3MX2NQ3YCAGI6O9NYXZ1F18DRH6X5Q","A1MWCDBGZLHJPI","37S0QRNUFB29SLTNXLPAM35NX0F88U","","","img/flower2.png","74","2418.5","1","1","1","0.7,0.2,0,0,0.7,0.2,0.2,0,0.7",""
"null","","html-keyboard-response","382","682272","0.0-382.0","3MX2NQ3YCAGI6O9NYXZ1F18DRH6X5Q","A1MWCDBGZLHJPI","37S0QRNUFB29SLTNXLPAM35NX0F88U","","","<img src=""img/flower2.png"" style=""width:200px; border:14px solid green;"">","null","","","","","",""
"5357.39999999851","","image-keyboard-response","383","687635","0.0-383.0","3MX2NQ3YCAGI6O9NYXZ1F18DRH6X5Q","A1MWCDBGZLHJPI","37S0QRNUFB29SLTNXLPAM35NX0F88U","","","img/flower5.png","76","5361.39999999851","3","1","3","0.7,0.2,0,0,0.7,0.2,0.2,0,0.7",""
"null","","html-keyboard-response","384","687940","0.0-384.0","3MX2NQ3YCAGI6O9NYXZ1F18DRH6X5Q","A1MWCDBGZLHJPI","37S0QRNUFB29SLTNXLPAM35NX0F88U","","","<img src=""img/flower5.png"" style=""width:200px; border:14px solid green;"">","null","","","","","",""
"3177.2000000029802","","image-keyboard-response","385","691123","0.0-385.0","3MX2NQ3YCAGI6O9NYXZ1F18DRH6X5Q","A1MWCDBGZLHJPI","37S0QRNUFB29SLTNXLPAM35NX0F88U","","","img/flower3.png","74","3181.7000000029802","1","0","2","0.7,0.2,0,0,0.7,0.2,0.2,0,0.7",""
"null","","html-keyboard-response","386","691427","0.0-386.0","3MX2NQ3YCAGI6O9NYXZ1F18DRH6X5Q","A1MWCDBGZLHJPI","37S0QRNUFB29SLTNXLPAM35NX0F88U","","","<img src=""img/flower3.png"" style=""width:200px;border:14px solid red;"">","null","","","","","",""
"1206.2999999970198","","image-keyboard-response","387","692638","0.0-387.0","3MX2NQ3YCAGI6O9NYXZ1F18DRH6X5Q","A1MWCDBGZLHJPI","37S0QRNUFB29SLTNXLPAM35NX0F88U","","","img/flower5.png","76","1210.6000000014901","3","0","3","0.7,0.2,0,0,0.7,0.2,0.2,0,0.7",""
"null","","html-keyboard-response","388","692942","0.0-388.0","3MX2NQ3YCAGI6O9NYXZ1F18DRH6X5Q","A1MWCDBGZLHJPI","37S0QRNUFB29SLTNXLPAM35NX0F88U","","","<img src=""img/flower5.png"" style=""width:200px;border:14px solid red;"">","null","","","","","",""
"1403.6999999955297","","image-keyboard-response","389","694350","0.0-389.0","3MX2NQ3YCAGI6O9NYXZ1F18DRH6X5Q","A1MWCDBGZLHJPI","37S0QRNUFB29SLTNXLPAM35NX0F88U","","","img/flower3.png","74","1416.2999999970198","1","0","2","0.7,0.2,0,0,0.7,0.2,0.2,0,0.7",""
"null","","html-keyboard-response","390","694663","0.0-390.0","3MX2NQ3YCAGI6O9NYXZ1F18DRH6X5Q","A1MWCDBGZLHJPI","37S0QRNUFB29SLTNXLPAM35NX0F88U","","","<img src=""img/flower3.png"" style=""width:200px;border:14px solid red;"">","null","","","","","",""
"5979.70000000298","","image-keyboard-response","391","700648","0.0-391.0","3MX2NQ3YCAGI6O9NYXZ1F18DRH6X5Q","A1MWCDBGZLHJPI","37S0QRNUFB29SLTNXLPAM35NX0F88U","","","img/flower5.png","76","5983.19999999553","3","1","3","0.7,0.2,0,0,0.7,0.2,0.2,0,0.7",""
"null","","html-keyboard-response","392","700952","0.0-392.0","3MX2NQ3YCAGI6O9NYXZ1F18DRH6X5Q","A1MWCDBGZLHJPI","37S0QRNUFB29SLTNXLPAM35NX0F88U","","","<img src=""img/flower5.png"" style=""width:200px; border:14px solid green;"">","null","","","","","",""
"1829.6000000014901","","image-keyboard-response","393","702787","0.0-393.0","3MX2NQ3YCAGI6O9NYXZ1F18DRH6X5Q","A1MWCDBGZLHJPI","37S0QRNUFB29SLTNXLPAM35NX0F88U","","","img/flower3.png","74","1834.4000000059605","1","0","2","0.7,0.2,0,0,0.7,0.2,0.2,0,0.7",""
"null","","html-keyboard-response","394","703093","0.0-394.0","3MX2NQ3YCAGI6O9NYXZ1F18DRH6X5Q","A1MWCDBGZLHJPI","37S0QRNUFB29SLTNXLPAM35NX0F88U","","","<img src=""img/flower3.png"" style=""width:200px;border:14px solid red;"">","null","","","","","",""
"1118.8999999985099","","image-keyboard-response","395","704217","0.0-395.0","3MX2NQ3YCAGI6O9NYXZ1F18DRH6X5Q","A1MWCDBGZLHJPI","37S0QRNUFB29SLTNXLPAM35NX0F88U","","","img/flower2.png","74","1122.0999999940395","1","1","1","0.7,0.2,0,0,0.7,0.2,0.2,0,0.7",""
"null","","html-keyboard-response","396","704521","0.0-396.0","3MX2NQ3YCAGI6O9NYXZ1F18DRH6X5Q","A1MWCDBGZLHJPI","37S0QRNUFB29SLTNXLPAM35NX0F88U","","","<img src=""img/flower2.png"" style=""width:200px; border:14px solid green;"">","null","","","","","",""
"2222.39999999851","","image-keyboard-response","397","706747","0.0-397.0","3MX2NQ3YCAGI6O9NYXZ1F18DRH6X5Q","A1MWCDBGZLHJPI","37S0QRNUFB29SLTNXLPAM35NX0F88U","","","img/flower3.png","74","2225.3000000044703","1","0","2","0.7,0.2,0,0,0.7,0.2,0.2,0,0.7",""
"null","","html-keyboard-response","398","707051","0.0-398.0","3MX2NQ3YCAGI6O9NYXZ1F18DRH6X5Q","A1MWCDBGZLHJPI","37S0QRNUFB29SLTNXLPAM35NX0F88U","","","<img src=""img/flower3.png"" style=""width:200px;border:14px solid red;"">","null","","","","","",""
"844.9000000059605","","image-keyboard-response","399","707900","0.0-399.0","3MX2NQ3YCAGI6O9NYXZ1F18DRH6X5Q","A1MWCDBGZLHJPI","37S0QRNUFB29SLTNXLPAM35NX0F88U","","","img/flower3.png","74","848.3000000044703","1","0","2","0.7,0.2,0,0,0.7,0.2,0.2,0,0.7",""
"null","","html-keyboard-response","400","708204","0.0-400.0","3MX2NQ3YCAGI6O9NYXZ1F18DRH6X5Q","A1MWCDBGZLHJPI","37S0QRNUFB29SLTNXLPAM35NX0F88U","","","<img src=""img/flower3.png"" style=""width:200px;border:14px solid red;"">","null","","","","","",""
"1454.3999999985099","","image-keyboard-response","401","709664","0.0-401.0","3MX2NQ3YCAGI6O9NYXZ1F18DRH6X5Q","A1MWCDBGZLHJPI","37S0QRNUFB29SLTNXLPAM35NX0F88U","","","img/flower2.png","74","1458.4000000059605","1","1","1","0.7,0.2,0,0,0.7,0.2,0.2,0,0.7",""
