"rt","url","trial_type","trial_index","time_elapsed","internal_node_id","assignmentID","mturkID","hitID","success","view_history","stimulus","key_press","reactionTime","a","r","s","reward_cond","responses"
"17569.19999998808","consent.html","external-html","0","17719","0.0-0.0","3A4TN5196L46JJIN834NQLQTV8ACHL","A1PHDT66U6IK4Q","37S0QRNUFB29SLTNXLPAM35NX0F88U","","","","","","","","","",""
"","","fullscreen","1","22635","0.0-1.0","3A4TN5196L46JJIN834NQLQTV8ACHL","A1PHDT66U6IK4Q","37S0QRNUFB29SLTNXLPAM35NX0F88U","true","","","","","","","","",""
"144414.20000000298","","instructions","2","167050","0.0-2.0","3A4TN5196L46JJIN834NQLQTV8ACHL","A1PHDT66U6IK4Q","37S0QRNUFB29SLTNXLPAM35NX0F88U","","[{""page_index"":0,""viewing_time"":14739.09999999404},{""page_index"":1,""viewing_time"":23701.79999999702},{""page_index"":2,""viewing_time"":23892.30000001192},{""page_index"":3,""viewing_time"":19515.79999999702},{""page_index"":4,""viewing_time"":17000},{""page_index"":5,""viewing_time"":45564.20000000298}]","","","","","","","",""
"32170.59999999404","","instructions","3","199222","0.0-3.0","3A4TN5196L46JJIN834NQLQTV8ACHL","A1PHDT66U6IK4Q","37S0QRNUFB29SLTNXLPAM35NX0F88U","","[{""page_index"":0,""viewing_time"":32170.09999999404}]","","","","","","","",""
"1276.7000000029802","","image-keyboard-response","4","200499","0.0-4.0","3A4TN5196L46JJIN834NQLQTV8ACHL","A1PHDT66U6IK4Q","37S0QRNUFB29SLTNXLPAM35NX0F88U","","","img/flower5.png","75","1277.5999999940395","2","1","2","",""
"null","","html-keyboard-response","5","200813","0.0-5.0","3A4TN5196L46JJIN834NQLQTV8ACHL","A1PHDT66U6IK4Q","37S0QRNUFB29SLTNXLPAM35NX0F88U","","","<img src=""img/flower5.png"" style=""width:200px; border:14px solid green;"">","null","","","","","",""
"1648.9000000059605","","image-keyboard-response","6","202463","0.0-6.0","3A4TN5196L46JJIN834NQLQTV8ACHL","A1PHDT66U6IK4Q","37S0QRNUFB29SLTNXLPAM35NX0F88U","","","img/flower4.png","74","1649.5999999940395","1","1","1","",""
"null","","html-keyboard-response","7","202769","0.0-7.0","3A4TN5196L46JJIN834NQLQTV8ACHL","A1PHDT66U6IK4Q","37S0QRNUFB29SLTNXLPAM35NX0F88U","","","<img src=""img/flower4.png"" style=""width:200px; border:14px solid green;"">","null","","","","","",""
"1236.6000000089407","","image-keyboard-response","8","204007","0.0-8.0","3A4TN5196L46JJIN834NQLQTV8ACHL","A1PHDT66U6IK4Q","37S0QRNUFB29SLTNXLPAM35NX0F88U","","","img/flower5.png","75","1237.4000000059605","2","1","2","",""
"null","","html-keyboard-response","9","204315","0.0-9.0","3A4TN5196L46JJIN834NQLQTV8ACHL","A1PHDT66U6IK4Q","37S0QRNUFB29SLTNXLPAM35NX0F88U","","","<img src=""img/flower5.png"" style=""width:200px; border:14px solid green;"">","null","","","","","",""
"1280.5","","image-keyboard-response","10","205596","0.0-10.0","3A4TN5196L46JJIN834NQLQTV8ACHL","A1PHDT66U6IK4Q","37S0QRNUFB29SLTNXLPAM35NX0F88U","","","img/flower4.png","74","1281.2999999970198","1","1","1","",""
"null","","html-keyboard-response","11","205904","0.0-11.0","3A4TN5196L46JJIN834NQLQTV8ACHL","A1PHDT66U6IK4Q","37S0QRNUFB29SLTNXLPAM35NX0F88U","","","<img src=""img/flower4.png"" style=""width:200px; border:14px solid green;"">","null","","","","","",""
"1106.7000000029802","","image-keyboard-response","12","207012","0.0-12.0","3A4TN5196L46JJIN834NQLQTV8ACHL","A1PHDT66U6IK4Q","37S0QRNUFB29SLTNXLPAM35NX0F88U","","","img/flower6.png","76","1107.4000000059605","3","0","3","",""
"null","","html-keyboard-response","13","207321","0.0-13.0","3A4TN5196L46JJIN834NQLQTV8ACHL","A1PHDT66U6IK4Q","37S0QRNUFB29SLTNXLPAM35NX0F88U","","","<img src=""img/flower6.png"" style=""width:200px;border:14px solid red;"">","null","","","","","",""
"734.3999999910593","","image-keyboard-response","14","208056","0.0-14.0","3A4TN5196L46JJIN834NQLQTV8ACHL","A1PHDT66U6IK4Q","37S0QRNUFB29SLTNXLPAM35NX0F88U","","","img/flower6.png","76","735.2000000029802","3","1","3","",""
"null","","html-keyboard-response","15","208365","0.0-15.0","3A4TN5196L46JJIN834NQLQTV8ACHL","A1PHDT66U6IK4Q","37S0QRNUFB29SLTNXLPAM35NX0F88U","","","<img src=""img/flower6.png"" style=""width:200px; border:14px solid green;"">","null","","","","","",""
"1318.0999999940395","","image-keyboard-response","16","209684","0.0-16.0","3A4TN5196L46JJIN834NQLQTV8ACHL","A1PHDT66U6IK4Q","37S0QRNUFB29SLTNXLPAM35NX0F88U","","","img/flower4.png","74","1318.7000000029802","1","1","1","",""
"null","","html-keyboard-response","17","209990","0.0-17.0","3A4TN5196L46JJIN834NQLQTV8ACHL","A1PHDT66U6IK4Q","37S0QRNUFB29SLTNXLPAM35NX0F88U","","","<img src=""img/flower4.png"" style=""width:200px; border:14px solid green;"">","null","","","","","",""
"1066","","image-keyboard-response","18","211057","0.0-18.0","3A4TN5196L46JJIN834NQLQTV8ACHL","A1PHDT66U6IK4Q","37S0QRNUFB29SLTNXLPAM35NX0F88U","","","img/flower5.png","75","1066.800000011921","2","1","2","",""
"null","","html-keyboard-response","19","211364","0.0-19.0","3A4TN5196L46JJIN834NQLQTV8ACHL","A1PHDT66U6IK4Q","37S0QRNUFB29SLTNXLPAM35NX0F88U","","","<img src=""img/flower5.png"" style=""width:200px; border:14px solid green;"">","null","","","","","",""
"1152","","image-keyboard-response","20","212517","0.0-20.0","3A4TN5196L46JJIN834NQLQTV8ACHL","A1PHDT66U6IK4Q","37S0QRNUFB29SLTNXLPAM35NX0F88U","","","img/flower5.png","75","1153","2","0","2","",""
"null","","html-keyboard-response","21","212829","0.0-21.0","3A4TN5196L46JJIN834NQLQTV8ACHL","A1PHDT66U6IK4Q","37S0QRNUFB29SLTNXLPAM35NX0F88U","","","<img src=""img/flower5.png"" style=""width:200px;border:14px solid red;"">","null","","","","","",""
"1220.5999999940395","","image-keyboard-response","22","214050","0.0-22.0","3A4TN5196L46JJIN834NQLQTV8ACHL","A1PHDT66U6IK4Q","37S0QRNUFB29SLTNXLPAM35NX0F88U","","","img/flower4.png","74","1221.2999999970198","1","1","1","",""
"null","","html-keyboard-response","23","214357","0.0-23.0","3A4TN5196L46JJIN834NQLQTV8ACHL","A1PHDT66U6IK4Q","37S0QRNUFB29SLTNXLPAM35NX0F88U","","","<img src=""img/flower4.png"" style=""width:200px; border:14px solid green;"">","null","","","","","",""
"963.0999999940395","","image-keyboard-response","24","215322","0.0-24.0","3A4TN5196L46JJIN834NQLQTV8ACHL","A1PHDT66U6IK4Q","37S0QRNUFB29SLTNXLPAM35NX0F88U","","","img/flower5.png","75","964.2999999970198","2","1","2","",""
"null","","html-keyboard-response","25","215624","0.0-25.0","3A4TN5196L46JJIN834NQLQTV8ACHL","A1PHDT66U6IK4Q","37S0QRNUFB29SLTNXLPAM35NX0F88U","","","<img src=""img/flower5.png"" style=""width:200px; border:14px solid green;"">","null","","","","","",""
"1064.3999999910593","","image-keyboard-response","26","216689","0.0-26.0","3A4TN5196L46JJIN834NQLQTV8ACHL","A1PHDT66U6IK4Q","37S0QRNUFB29SLTNXLPAM35NX0F88U","","","img/flower6.png","76","1065.0999999940395","3","1","3","",""
"null","","html-keyboard-response","27","216997","0.0-27.0","3A4TN5196L46JJIN834NQLQTV8ACHL","A1PHDT66U6IK4Q","37S0QRNUFB29SLTNXLPAM35NX0F88U","","","<img src=""img/flower6.png"" style=""width:200px; border:14px solid green;"">","null","","","","","",""
"1102.5","","image-keyboard-response","28","218100","0.0-28.0","3A4TN5196L46JJIN834NQLQTV8ACHL","A1PHDT66U6IK4Q","37S0QRNUFB29SLTNXLPAM35NX0F88U","","","img/flower4.png","74","1103.2000000029802","1","1","1","",""
"null","","html-keyboard-response","29","218402","0.0-29.0","3A4TN5196L46JJIN834NQLQTV8ACHL","A1PHDT66U6IK4Q","37S0QRNUFB29SLTNXLPAM35NX0F88U","","","<img src=""img/flower4.png"" style=""width:200px; border:14px solid green;"">","null","","","","","",""
"868.5","","image-keyboard-response","30","219271","0.0-30.0","3A4TN5196L46JJIN834NQLQTV8ACHL","A1PHDT66U6IK4Q","37S0QRNUFB29SLTNXLPAM35NX0F88U","","","img/flower5.png","75","869.2000000029802","2","1","2","",""
"null","","html-keyboard-response","31","219575","0.0-31.0","3A4TN5196L46JJIN834NQLQTV8ACHL","A1PHDT66U6IK4Q","37S0QRNUFB29SLTNXLPAM35NX0F88U","","","<img src=""img/flower5.png"" style=""width:200px; border:14px solid green;"">","null","","","","","",""
"1129.0999999940395","","image-keyboard-response","32","220705","0.0-32.0","3A4TN5196L46JJIN834NQLQTV8ACHL","A1PHDT66U6IK4Q","37S0QRNUFB29SLTNXLPAM35NX0F88U","","","img/flower6.png","76","1129.8999999910593","3","1","3","",""
"null","","html-keyboard-response","33","221014","0.0-33.0","3A4TN5196L46JJIN834NQLQTV8ACHL","A1PHDT66U6IK4Q","37S0QRNUFB29SLTNXLPAM35NX0F88U","","","<img src=""img/flower6.png"" style=""width:200px; border:14px solid green;"">","null","","","","","",""
"1705","","image-keyboard-response","34","222720","0.0-34.0","3A4TN5196L46JJIN834NQLQTV8ACHL","A1PHDT66U6IK4Q","37S0QRNUFB29SLTNXLPAM35NX0F88U","","","img/flower5.png","75","1705.7000000029802","2","1","2","",""
"null","","html-keyboard-response","35","223026","0.0-35.0","3A4TN5196L46JJIN834NQLQTV8ACHL","A1PHDT66U6IK4Q","37S0QRNUFB29SLTNXLPAM35NX0F88U","","","<img src=""img/flower5.png"" style=""width:200px; border:14px solid green;"">","null","","","","","",""
"1041","","image-keyboard-response","36","224068","0.0-36.0","3A4TN5196L46JJIN834NQLQTV8ACHL","A1PHDT66U6IK4Q","37S0QRNUFB29SLTNXLPAM35NX0F88U","","","img/flower4.png","74","1041.5","1","1","1","",""
"null","","html-keyboard-response","37","224381","0.0-37.0","3A4TN5196L46JJIN834NQLQTV8ACHL","A1PHDT66U6IK4Q","37S0QRNUFB29SLTNXLPAM35NX0F88U","","","<img src=""img/flower4.png"" style=""width:200px; border:14px solid green;"">","null","","","","","",""
"802","","image-keyboard-response","38","225184","0.0-38.0","3A4TN5196L46JJIN834NQLQTV8ACHL","A1PHDT66U6IK4Q","37S0QRNUFB29SLTNXLPAM35NX0F88U","","","img/flower4.png","74","802.7000000029802","1","0","1","",""
"null","","html-keyboard-response","39","225486","0.0-39.0","3A4TN5196L46JJIN834NQLQTV8ACHL","A1PHDT66U6IK4Q","37S0QRNUFB29SLTNXLPAM35NX0F88U","","","<img src=""img/flower4.png"" style=""width:200px;border:14px solid red;"">","null","","","","","",""
"692.6999999880791","","image-keyboard-response","40","226179","0.0-40.0","3A4TN5196L46JJIN834NQLQTV8ACHL","A1PHDT66U6IK4Q","37S0QRNUFB29SLTNXLPAM35NX0F88U","","","img/flower6.png","76","693.3999999910593","3","0","3","",""
"null","","html-keyboard-response","41","226491","0.0-41.0","3A4TN5196L46JJIN834NQLQTV8ACHL","A1PHDT66U6IK4Q","37S0QRNUFB29SLTNXLPAM35NX0F88U","","","<img src=""img/flower6.png"" style=""width:200px;border:14px solid red;"">","null","","","","","",""
"777.9000000059605","","image-keyboard-response","42","227269","0.0-42.0","3A4TN5196L46JJIN834NQLQTV8ACHL","A1PHDT66U6IK4Q","37S0QRNUFB29SLTNXLPAM35NX0F88U","","","img/flower4.png","74","778.6000000089407","1","0","1","",""
"null","","html-keyboard-response","43","227579","0.0-43.0","3A4TN5196L46JJIN834NQLQTV8ACHL","A1PHDT66U6IK4Q","37S0QRNUFB29SLTNXLPAM35NX0F88U","","","<img src=""img/flower4.png"" style=""width:200px;border:14px solid red;"">","null","","","","","",""
"838","","image-keyboard-response","44","228418","0.0-44.0","3A4TN5196L46JJIN834NQLQTV8ACHL","A1PHDT66U6IK4Q","37S0QRNUFB29SLTNXLPAM35NX0F88U","","","img/flower4.png","74","838.7000000029802","1","1","1","",""
"null","","html-keyboard-response","45","228721","0.0-45.0","3A4TN5196L46JJIN834NQLQTV8ACHL","A1PHDT66U6IK4Q","37S0QRNUFB29SLTNXLPAM35NX0F88U","","","<img src=""img/flower4.png"" style=""width:200px; border:14px solid green;"">","null","","","","","",""
"711.8999999910593","","image-keyboard-response","46","229434","0.0-46.0","3A4TN5196L46JJIN834NQLQTV8ACHL","A1PHDT66U6IK4Q","37S0QRNUFB29SLTNXLPAM35NX0F88U","","","img/flower4.png","74","712.5","1","1","1","",""
"null","","html-keyboard-response","47","229748","0.0-47.0","3A4TN5196L46JJIN834NQLQTV8ACHL","A1PHDT66U6IK4Q","37S0QRNUFB29SLTNXLPAM35NX0F88U","","","<img src=""img/flower4.png"" style=""width:200px; border:14px solid green;"">","null","","","","","",""
"735.5","","image-keyboard-response","48","230484","0.0-48.0","3A4TN5196L46JJIN834NQLQTV8ACHL","A1PHDT66U6IK4Q","37S0QRNUFB29SLTNXLPAM35NX0F88U","","","img/flower6.png","76","736.0999999940395","3","1","3","",""
"null","","html-keyboard-response","49","230790","0.0-49.0","3A4TN5196L46JJIN834NQLQTV8ACHL","A1PHDT66U6IK4Q","37S0QRNUFB29SLTNXLPAM35NX0F88U","","","<img src=""img/flower6.png"" style=""width:200px; border:14px solid green;"">","null","","","","","",""
"711.5999999940395","","image-keyboard-response","50","231503","0.0-50.0","3A4TN5196L46JJIN834NQLQTV8ACHL","A1PHDT66U6IK4Q","37S0QRNUFB29SLTNXLPAM35NX0F88U","","","img/flower6.png","76","712.2000000029802","3","1","3","",""
"null","","html-keyboard-response","51","231813","0.0-51.0","3A4TN5196L46JJIN834NQLQTV8ACHL","A1PHDT66U6IK4Q","37S0QRNUFB29SLTNXLPAM35NX0F88U","","","<img src=""img/flower6.png"" style=""width:200px; border:14px solid green;"">","null","","","","","",""
"664.5999999940395","","image-keyboard-response","52","232479","0.0-52.0","3A4TN5196L46JJIN834NQLQTV8ACHL","A1PHDT66U6IK4Q","37S0QRNUFB29SLTNXLPAM35NX0F88U","","","img/flower6.png","76","665.7000000029802","3","1","3","",""
"null","","html-keyboard-response","53","232789","0.0-53.0","3A4TN5196L46JJIN834NQLQTV8ACHL","A1PHDT66U6IK4Q","37S0QRNUFB29SLTNXLPAM35NX0F88U","","","<img src=""img/flower6.png"" style=""width:200px; border:14px solid green;"">","null","","","","","",""
"1048","","image-keyboard-response","54","233837","0.0-54.0","3A4TN5196L46JJIN834NQLQTV8ACHL","A1PHDT66U6IK4Q","37S0QRNUFB29SLTNXLPAM35NX0F88U","","","img/flower5.png","75","1048.800000011921","2","1","2","",""
"null","","html-keyboard-response","55","234144","0.0-55.0","3A4TN5196L46JJIN834NQLQTV8ACHL","A1PHDT66U6IK4Q","37S0QRNUFB29SLTNXLPAM35NX0F88U","","","<img src=""img/flower5.png"" style=""width:200px; border:14px solid green;"">","null","","","","","",""
"701.9000000059605","","image-keyboard-response","56","234846","0.0-56.0","3A4TN5196L46JJIN834NQLQTV8ACHL","A1PHDT66U6IK4Q","37S0QRNUFB29SLTNXLPAM35NX0F88U","","","img/flower5.png","75","702.3999999910593","2","1","2","",""
"null","","html-keyboard-response","57","235162","0.0-57.0","3A4TN5196L46JJIN834NQLQTV8ACHL","A1PHDT66U6IK4Q","37S0QRNUFB29SLTNXLPAM35NX0F88U","","","<img src=""img/flower5.png"" style=""width:200px; border:14px solid green;"">","null","","","","","",""
"883.5","","image-keyboard-response","58","236046","0.0-58.0","3A4TN5196L46JJIN834NQLQTV8ACHL","A1PHDT66U6IK4Q","37S0QRNUFB29SLTNXLPAM35NX0F88U","","","img/flower5.png","75","884.1000000089407","2","1","2","",""
"null","","html-keyboard-response","59","236362","0.0-59.0","3A4TN5196L46JJIN834NQLQTV8ACHL","A1PHDT66U6IK4Q","37S0QRNUFB29SLTNXLPAM35NX0F88U","","","<img src=""img/flower5.png"" style=""width:200px; border:14px solid green;"">","null","","","","","",""
"927.2999999970198","","image-keyboard-response","60","237290","0.0-60.0","3A4TN5196L46JJIN834NQLQTV8ACHL","A1PHDT66U6IK4Q","37S0QRNUFB29SLTNXLPAM35NX0F88U","","","img/flower6.png","76","928","3","0","3","",""
"null","","html-keyboard-response","61","237596","0.0-61.0","3A4TN5196L46JJIN834NQLQTV8ACHL","A1PHDT66U6IK4Q","37S0QRNUFB29SLTNXLPAM35NX0F88U","","","<img src=""img/flower6.png"" style=""width:200px;border:14px solid red;"">","null","","","","","",""
"683.7000000029802","","image-keyboard-response","62","238280","0.0-62.0","3A4TN5196L46JJIN834NQLQTV8ACHL","A1PHDT66U6IK4Q","37S0QRNUFB29SLTNXLPAM35NX0F88U","","","img/flower6.png","76","684.1999999880791","3","1","3","",""
"null","","html-keyboard-response","63","238584","0.0-63.0","3A4TN5196L46JJIN834NQLQTV8ACHL","A1PHDT66U6IK4Q","37S0QRNUFB29SLTNXLPAM35NX0F88U","","","<img src=""img/flower6.png"" style=""width:200px; border:14px solid green;"">","null","","","","","",""
"33563.90000000596","","instructions","64","272148","0.0-64.0","3A4TN5196L46JJIN834NQLQTV8ACHL","A1PHDT66U6IK4Q","37S0QRNUFB29SLTNXLPAM35NX0F88U","","[{""page_index"":0,""viewing_time"":14821.90000000596},{""page_index"":1,""viewing_time"":18741.70000000298}]","","","","","","","",""
"1696.8999999910593","","image-keyboard-response","65","273846","0.0-65.0","3A4TN5196L46JJIN834NQLQTV8ACHL","A1PHDT66U6IK4Q","37S0QRNUFB29SLTNXLPAM35NX0F88U","","","img/flower6.png","76","1697.800000011921","3","1","3","",""
"null","","html-keyboard-response","66","274156","0.0-66.0","3A4TN5196L46JJIN834NQLQTV8ACHL","A1PHDT66U6IK4Q","37S0QRNUFB29SLTNXLPAM35NX0F88U","","","<img src=""img/flower6.png"" style=""width:200px; border:14px solid green;"">","null","","","","","",""
"1755.2000000029802","","image-keyboard-response","67","275912","0.0-67.0","3A4TN5196L46JJIN834NQLQTV8ACHL","A1PHDT66U6IK4Q","37S0QRNUFB29SLTNXLPAM35NX0F88U","","","img/flower6.png","74","1755.9000000059605","1","1","3","",""
"null","","html-keyboard-response","68","276222","0.0-68.0","3A4TN5196L46JJIN834NQLQTV8ACHL","A1PHDT66U6IK4Q","37S0QRNUFB29SLTNXLPAM35NX0F88U","","","<img src=""img/flower6.png"" style=""width:200px; border:14px solid green;"">","null","","","","","",""
"1467","","image-keyboard-response","69","277690","0.0-69.0","3A4TN5196L46JJIN834NQLQTV8ACHL","A1PHDT66U6IK4Q","37S0QRNUFB29SLTNXLPAM35NX0F88U","","","img/flower5.png","75","1467.7999999970198","2","0","2","",""
"null","","html-keyboard-response","70","277991","0.0-70.0","3A4TN5196L46JJIN834NQLQTV8ACHL","A1PHDT66U6IK4Q","37S0QRNUFB29SLTNXLPAM35NX0F88U","","","<img src=""img/flower5.png"" style=""width:200px;border:14px solid red;"">","null","","","","","",""
"1840.8999999910593","","image-keyboard-response","71","279833","0.0-71.0","3A4TN5196L46JJIN834NQLQTV8ACHL","A1PHDT66U6IK4Q","37S0QRNUFB29SLTNXLPAM35NX0F88U","","","img/flower6.png","76","1841.4000000059605","3","1","3","",""
"null","","html-keyboard-response","72","280148","0.0-72.0","3A4TN5196L46JJIN834NQLQTV8ACHL","A1PHDT66U6IK4Q","37S0QRNUFB29SLTNXLPAM35NX0F88U","","","<img src=""img/flower6.png"" style=""width:200px; border:14px solid green;"">","null","","","","","",""
"763.6999999880791","","image-keyboard-response","73","280913","0.0-73.0","3A4TN5196L46JJIN834NQLQTV8ACHL","A1PHDT66U6IK4Q","37S0QRNUFB29SLTNXLPAM35NX0F88U","","","img/flower4.png","74","764.3999999910593","1","0","1","",""
"null","","html-keyboard-response","74","281220","0.0-74.0","3A4TN5196L46JJIN834NQLQTV8ACHL","A1PHDT66U6IK4Q","37S0QRNUFB29SLTNXLPAM35NX0F88U","","","<img src=""img/flower4.png"" style=""width:200px;border:14px solid red;"">","null","","","","","",""
"1342.300000011921","","image-keyboard-response","75","282563","0.0-75.0","3A4TN5196L46JJIN834NQLQTV8ACHL","A1PHDT66U6IK4Q","37S0QRNUFB29SLTNXLPAM35NX0F88U","","","img/flower5.png","75","1343.2000000029802","2","0","2","",""
"null","","html-keyboard-response","76","282875","0.0-76.0","3A4TN5196L46JJIN834NQLQTV8ACHL","A1PHDT66U6IK4Q","37S0QRNUFB29SLTNXLPAM35NX0F88U","","","<img src=""img/flower5.png"" style=""width:200px;border:14px solid red;"">","null","","","","","",""
"881.4000000059605","","image-keyboard-response","77","283757","0.0-77.0","3A4TN5196L46JJIN834NQLQTV8ACHL","A1PHDT66U6IK4Q","37S0QRNUFB29SLTNXLPAM35NX0F88U","","","img/flower5.png","75","881.8999999910593","2","1","2","",""
"null","","html-keyboard-response","78","284060","0.0-78.0","3A4TN5196L46JJIN834NQLQTV8ACHL","A1PHDT66U6IK4Q","37S0QRNUFB29SLTNXLPAM35NX0F88U","","","<img src=""img/flower5.png"" style=""width:200px; border:14px solid green;"">","null","","","","","",""
"926.4000000059605","","image-keyboard-response","79","284987","0.0-79.0","3A4TN5196L46JJIN834NQLQTV8ACHL","A1PHDT66U6IK4Q","37S0QRNUFB29SLTNXLPAM35NX0F88U","","","img/flower4.png","74","927.1000000089407","1","0","1","",""
"null","","html-keyboard-response","80","285296","0.0-80.0","3A4TN5196L46JJIN834NQLQTV8ACHL","A1PHDT66U6IK4Q","37S0QRNUFB29SLTNXLPAM35NX0F88U","","","<img src=""img/flower4.png"" style=""width:200px;border:14px solid red;"">","null","","","","","",""
"1452","","image-keyboard-response","81","286748","0.0-81.0","3A4TN5196L46JJIN834NQLQTV8ACHL","A1PHDT66U6IK4Q","37S0QRNUFB29SLTNXLPAM35NX0F88U","","","img/flower6.png","76","1452.7000000029802","3","0","3","",""
"null","","html-keyboard-response","82","287051","0.0-82.0","3A4TN5196L46JJIN834NQLQTV8ACHL","A1PHDT66U6IK4Q","37S0QRNUFB29SLTNXLPAM35NX0F88U","","","<img src=""img/flower6.png"" style=""width:200px;border:14px solid red;"">","null","","","","","",""
"665.1000000089407","","image-keyboard-response","83","287717","0.0-83.0","3A4TN5196L46JJIN834NQLQTV8ACHL","A1PHDT66U6IK4Q","37S0QRNUFB29SLTNXLPAM35NX0F88U","","","img/flower6.png","76","665.7000000029802","3","1","3","",""
"null","","html-keyboard-response","84","288021","0.0-84.0","3A4TN5196L46JJIN834NQLQTV8ACHL","A1PHDT66U6IK4Q","37S0QRNUFB29SLTNXLPAM35NX0F88U","","","<img src=""img/flower6.png"" style=""width:200px; border:14px solid green;"">","null","","","","","",""
"2010.9000000059605","","image-keyboard-response","85","290033","0.0-85.0","3A4TN5196L46JJIN834NQLQTV8ACHL","A1PHDT66U6IK4Q","37S0QRNUFB29SLTNXLPAM35NX0F88U","","","img/flower5.png","76","2011.5","3","1","2","",""
"null","","html-keyboard-response","86","290339","0.0-86.0","3A4TN5196L46JJIN834NQLQTV8ACHL","A1PHDT66U6IK4Q","37S0QRNUFB29SLTNXLPAM35NX0F88U","","","<img src=""img/flower5.png"" style=""width:200px; border:14px solid green;"">","null","","","","","",""
"1656.8999999910593","","image-keyboard-response","87","291997","0.0-87.0","3A4TN5196L46JJIN834NQLQTV8ACHL","A1PHDT66U6IK4Q","37S0QRNUFB29SLTNXLPAM35NX0F88U","","","img/flower5.png","75","1657.5","2","1","2","",""
"null","","html-keyboard-response","88","292310","0.0-88.0","3A4TN5196L46JJIN834NQLQTV8ACHL","A1PHDT66U6IK4Q","37S0QRNUFB29SLTNXLPAM35NX0F88U","","","<img src=""img/flower5.png"" style=""width:200px; border:14px solid green;"">","null","","","","","",""
"1503.6000000089407","","image-keyboard-response","89","293814","0.0-89.0","3A4TN5196L46JJIN834NQLQTV8ACHL","A1PHDT66U6IK4Q","37S0QRNUFB29SLTNXLPAM35NX0F88U","","","img/flower4.png","74","1504.199999988079","1","1","1","",""
"null","","html-keyboard-response","90","294118","0.0-90.0","3A4TN5196L46JJIN834NQLQTV8ACHL","A1PHDT66U6IK4Q","37S0QRNUFB29SLTNXLPAM35NX0F88U","","","<img src=""img/flower4.png"" style=""width:200px; border:14px solid green;"">","null","","","","","",""
"1348.2000000029802","","image-keyboard-response","91","295467","0.0-91.0","3A4TN5196L46JJIN834NQLQTV8ACHL","A1PHDT66U6IK4Q","37S0QRNUFB29SLTNXLPAM35NX0F88U","","","img/flower4.png","75","1348.9000000059605","2","1","1","",""
"null","","html-keyboard-response","92","295773","0.0-92.0","3A4TN5196L46JJIN834NQLQTV8ACHL","A1PHDT66U6IK4Q","37S0QRNUFB29SLTNXLPAM35NX0F88U","","","<img src=""img/flower4.png"" style=""width:200px; border:14px solid green;"">","null","","","","","",""
"1344.1000000089407","","image-keyboard-response","93","297117","0.0-93.0","3A4TN5196L46JJIN834NQLQTV8ACHL","A1PHDT66U6IK4Q","37S0QRNUFB29SLTNXLPAM35NX0F88U","","","img/flower6.png","76","1344.6000000089407","3","1","3","",""
"null","","html-keyboard-response","94","297430","0.0-94.0","3A4TN5196L46JJIN834NQLQTV8ACHL","A1PHDT66U6IK4Q","37S0QRNUFB29SLTNXLPAM35NX0F88U","","","<img src=""img/flower6.png"" style=""width:200px; border:14px solid green;"">","null","","","","","",""
"1549","","image-keyboard-response","95","298980","0.0-95.0","3A4TN5196L46JJIN834NQLQTV8ACHL","A1PHDT66U6IK4Q","37S0QRNUFB29SLTNXLPAM35NX0F88U","","","img/flower4.png","74","1549.5999999940395","1","1","1","",""
"null","","html-keyboard-response","96","299288","0.0-96.0","3A4TN5196L46JJIN834NQLQTV8ACHL","A1PHDT66U6IK4Q","37S0QRNUFB29SLTNXLPAM35NX0F88U","","","<img src=""img/flower4.png"" style=""width:200px; border:14px solid green;"">","null","","","","","",""
"1490.2000000029802","","image-keyboard-response","97","300779","0.0-97.0","3A4TN5196L46JJIN834NQLQTV8ACHL","A1PHDT66U6IK4Q","37S0QRNUFB29SLTNXLPAM35NX0F88U","","","img/flower6.png","74","1491","1","1","3","",""
"null","","html-keyboard-response","98","301080","0.0-98.0","3A4TN5196L46JJIN834NQLQTV8ACHL","A1PHDT66U6IK4Q","37S0QRNUFB29SLTNXLPAM35NX0F88U","","","<img src=""img/flower6.png"" style=""width:200px; border:14px solid green;"">","null","","","","","",""
"1444.2000000029802","","image-keyboard-response","99","302525","0.0-99.0","3A4TN5196L46JJIN834NQLQTV8ACHL","A1PHDT66U6IK4Q","37S0QRNUFB29SLTNXLPAM35NX0F88U","","","img/flower5.png","75","1444.8999999910593","2","0","2","",""
"null","","html-keyboard-response","100","302838","0.0-100.0","3A4TN5196L46JJIN834NQLQTV8ACHL","A1PHDT66U6IK4Q","37S0QRNUFB29SLTNXLPAM35NX0F88U","","","<img src=""img/flower5.png"" style=""width:200px;border:14px solid red;"">","null","","","","","",""
"753.5","","image-keyboard-response","101","303592","0.0-101.0","3A4TN5196L46JJIN834NQLQTV8ACHL","A1PHDT66U6IK4Q","37S0QRNUFB29SLTNXLPAM35NX0F88U","","","img/flower5.png","75","754.0999999940395","2","1","2","",""
"null","","html-keyboard-response","102","303901","0.0-102.0","3A4TN5196L46JJIN834NQLQTV8ACHL","A1PHDT66U6IK4Q","37S0QRNUFB29SLTNXLPAM35NX0F88U","","","<img src=""img/flower5.png"" style=""width:200px; border:14px solid green;"">","null","","","","","",""
"1806.4000000059605","","image-keyboard-response","103","305708","0.0-103.0","3A4TN5196L46JJIN834NQLQTV8ACHL","A1PHDT66U6IK4Q","37S0QRNUFB29SLTNXLPAM35NX0F88U","","","img/flower5.png","76","1807.300000011921","3","1","2","",""
"null","","html-keyboard-response","104","306025","0.0-104.0","3A4TN5196L46JJIN834NQLQTV8ACHL","A1PHDT66U6IK4Q","37S0QRNUFB29SLTNXLPAM35NX0F88U","","","<img src=""img/flower5.png"" style=""width:200px; border:14px solid green;"">","null","","","","","",""
"1075.2999999970198","","image-keyboard-response","105","307101","0.0-105.0","3A4TN5196L46JJIN834NQLQTV8ACHL","A1PHDT66U6IK4Q","37S0QRNUFB29SLTNXLPAM35NX0F88U","","","img/flower4.png","74","1075.7999999970198","1","0","1","",""
"null","","html-keyboard-response","106","307411","0.0-106.0","3A4TN5196L46JJIN834NQLQTV8ACHL","A1PHDT66U6IK4Q","37S0QRNUFB29SLTNXLPAM35NX0F88U","","","<img src=""img/flower4.png"" style=""width:200px;border:14px solid red;"">","null","","","","","",""
"660.9000000059605","","image-keyboard-response","107","308073","0.0-107.0","3A4TN5196L46JJIN834NQLQTV8ACHL","A1PHDT66U6IK4Q","37S0QRNUFB29SLTNXLPAM35NX0F88U","","","img/flower4.png","74","661.5","1","0","1","",""
"null","","html-keyboard-response","108","308377","0.0-108.0","3A4TN5196L46JJIN834NQLQTV8ACHL","A1PHDT66U6IK4Q","37S0QRNUFB29SLTNXLPAM35NX0F88U","","","<img src=""img/flower4.png"" style=""width:200px;border:14px solid red;"">","null","","","","","",""
"2898.699999988079","","image-keyboard-response","109","311277","0.0-109.0","3A4TN5196L46JJIN834NQLQTV8ACHL","A1PHDT66U6IK4Q","37S0QRNUFB29SLTNXLPAM35NX0F88U","","","img/flower6.png","76","2899.2999999970198","3","1","3","",""
"null","","html-keyboard-response","110","311586","0.0-110.0","3A4TN5196L46JJIN834NQLQTV8ACHL","A1PHDT66U6IK4Q","37S0QRNUFB29SLTNXLPAM35NX0F88U","","","<img src=""img/flower6.png"" style=""width:200px; border:14px solid green;"">","null","","","","","",""
"1431.6000000089407","","image-keyboard-response","111","313019","0.0-111.0","3A4TN5196L46JJIN834NQLQTV8ACHL","A1PHDT66U6IK4Q","37S0QRNUFB29SLTNXLPAM35NX0F88U","","","img/flower4.png","74","1432.5","1","1","1","",""
"null","","html-keyboard-response","112","313331","0.0-112.0","3A4TN5196L46JJIN834NQLQTV8ACHL","A1PHDT66U6IK4Q","37S0QRNUFB29SLTNXLPAM35NX0F88U","","","<img src=""img/flower4.png"" style=""width:200px; border:14px solid green;"">","null","","","","","",""
"2096.4000000059605","","image-keyboard-response","113","315428","0.0-113.0","3A4TN5196L46JJIN834NQLQTV8ACHL","A1PHDT66U6IK4Q","37S0QRNUFB29SLTNXLPAM35NX0F88U","","","img/flower6.png","74","2097.199999988079","1","1","3","",""
"null","","html-keyboard-response","114","315742","0.0-114.0","3A4TN5196L46JJIN834NQLQTV8ACHL","A1PHDT66U6IK4Q","37S0QRNUFB29SLTNXLPAM35NX0F88U","","","<img src=""img/flower6.png"" style=""width:200px; border:14px solid green;"">","null","","","","","",""
"1287.7000000029802","","image-keyboard-response","115","317030","0.0-115.0","3A4TN5196L46JJIN834NQLQTV8ACHL","A1PHDT66U6IK4Q","37S0QRNUFB29SLTNXLPAM35NX0F88U","","","img/flower4.png","74","1288.0999999940395","1","1","1","",""
"null","","html-keyboard-response","116","317333","0.0-116.0","3A4TN5196L46JJIN834NQLQTV8ACHL","A1PHDT66U6IK4Q","37S0QRNUFB29SLTNXLPAM35NX0F88U","","","<img src=""img/flower4.png"" style=""width:200px; border:14px solid green;"">","null","","","","","",""
"1422.9000000059605","","image-keyboard-response","117","318756","0.0-117.0","3A4TN5196L46JJIN834NQLQTV8ACHL","A1PHDT66U6IK4Q","37S0QRNUFB29SLTNXLPAM35NX0F88U","","","img/flower6.png","76","1423.5","3","1","3","",""
"null","","html-keyboard-response","118","319062","0.0-118.0","3A4TN5196L46JJIN834NQLQTV8ACHL","A1PHDT66U6IK4Q","37S0QRNUFB29SLTNXLPAM35NX0F88U","","","<img src=""img/flower6.png"" style=""width:200px; border:14px solid green;"">","null","","","","","",""
"1301","","image-keyboard-response","119","320364","0.0-119.0","3A4TN5196L46JJIN834NQLQTV8ACHL","A1PHDT66U6IK4Q","37S0QRNUFB29SLTNXLPAM35NX0F88U","","","img/flower5.png","75","1301.5999999940395","2","1","2","",""
"null","","html-keyboard-response","120","320678","0.0-120.0","3A4TN5196L46JJIN834NQLQTV8ACHL","A1PHDT66U6IK4Q","37S0QRNUFB29SLTNXLPAM35NX0F88U","","","<img src=""img/flower5.png"" style=""width:200px; border:14px solid green;"">","null","","","","","",""
"1943.2999999970198","","image-keyboard-response","121","322622","0.0-121.0","3A4TN5196L46JJIN834NQLQTV8ACHL","A1PHDT66U6IK4Q","37S0QRNUFB29SLTNXLPAM35NX0F88U","","","img/flower4.png","75","1943.9000000059605","2","1","1","",""
"null","","html-keyboard-response","122","322924","0.0-122.0","3A4TN5196L46JJIN834NQLQTV8ACHL","A1PHDT66U6IK4Q","37S0QRNUFB29SLTNXLPAM35NX0F88U","","","<img src=""img/flower4.png"" style=""width:200px; border:14px solid green;"">","null","","","","","",""
"1951.7000000029802","","image-keyboard-response","123","324877","0.0-123.0","3A4TN5196L46JJIN834NQLQTV8ACHL","A1PHDT66U6IK4Q","37S0QRNUFB29SLTNXLPAM35NX0F88U","","","img/flower5.png","76","1952.2999999970198","3","1","2","",""
"null","","html-keyboard-response","124","325192","0.0-124.0","3A4TN5196L46JJIN834NQLQTV8ACHL","A1PHDT66U6IK4Q","37S0QRNUFB29SLTNXLPAM35NX0F88U","","","<img src=""img/flower5.png"" style=""width:200px; border:14px solid green;"">","null","","","","","",""
"4430.5","","instructions","125","329623","0.0-125.0","3A4TN5196L46JJIN834NQLQTV8ACHL","A1PHDT66U6IK4Q","37S0QRNUFB29SLTNXLPAM35NX0F88U","","[{""page_index"":0,""viewing_time"":4430.300000011921}]","","","","","","","",""
"2412.5","","image-keyboard-response","126","332036","0.0-126.0","3A4TN5196L46JJIN834NQLQTV8ACHL","A1PHDT66U6IK4Q","37S0QRNUFB29SLTNXLPAM35NX0F88U","","","img/flower3.png","74","2413.4000000059605","1","1","1","0.7,0.2,0,0,0.7,0.2,0.2,0,0.7",""
"null","","html-keyboard-response","127","332353","0.0-127.0","3A4TN5196L46JJIN834NQLQTV8ACHL","A1PHDT66U6IK4Q","37S0QRNUFB29SLTNXLPAM35NX0F88U","","","<img src=""img/flower3.png"" style=""width:200px; border:14px solid green;"">","null","","","","","",""
"1940.4000000059605","","image-keyboard-response","128","334294","0.0-128.0","3A4TN5196L46JJIN834NQLQTV8ACHL","A1PHDT66U6IK4Q","37S0QRNUFB29SLTNXLPAM35NX0F88U","","","img/flower1.png","75","1941","2","0","3","0.7,0.2,0,0,0.7,0.2,0.2,0,0.7",""
"null","","html-keyboard-response","129","334598","0.0-129.0","3A4TN5196L46JJIN834NQLQTV8ACHL","A1PHDT66U6IK4Q","37S0QRNUFB29SLTNXLPAM35NX0F88U","","","<img src=""img/flower1.png"" style=""width:200px;border:14px solid red;"">","null","","","","","",""
"720.5","","image-keyboard-response","130","335319","0.0-130.0","3A4TN5196L46JJIN834NQLQTV8ACHL","A1PHDT66U6IK4Q","37S0QRNUFB29SLTNXLPAM35NX0F88U","","","img/flower1.png","75","721","2","0","3","0.7,0.2,0,0,0.7,0.2,0.2,0,0.7",""
"null","","html-keyboard-response","131","335622","0.0-131.0","3A4TN5196L46JJIN834NQLQTV8ACHL","A1PHDT66U6IK4Q","37S0QRNUFB29SLTNXLPAM35NX0F88U","","","<img src=""img/flower1.png"" style=""width:200px;border:14px solid red;"">","null","","","","","",""
"1946.8999999910593","","image-keyboard-response","132","337570","0.0-132.0","3A4TN5196L46JJIN834NQLQTV8ACHL","A1PHDT66U6IK4Q","37S0QRNUFB29SLTNXLPAM35NX0F88U","","","img/flower2.png","76","1947.7000000029802","3","0","2","0.7,0.2,0,0,0.7,0.2,0.2,0,0.7",""
"null","","html-keyboard-response","133","337874","0.0-133.0","3A4TN5196L46JJIN834NQLQTV8ACHL","A1PHDT66U6IK4Q","37S0QRNUFB29SLTNXLPAM35NX0F88U","","","<img src=""img/flower2.png"" style=""width:200px;border:14px solid red;"">","null","","","","","",""
"2139.2000000029802","","image-keyboard-response","134","340014","0.0-134.0","3A4TN5196L46JJIN834NQLQTV8ACHL","A1PHDT66U6IK4Q","37S0QRNUFB29SLTNXLPAM35NX0F88U","","","img/flower1.png","76","2140","3","0","3","0.7,0.2,0,0,0.7,0.2,0.2,0,0.7",""
"null","","html-keyboard-response","135","340323","0.0-135.0","3A4TN5196L46JJIN834NQLQTV8ACHL","A1PHDT66U6IK4Q","37S0QRNUFB29SLTNXLPAM35NX0F88U","","","<img src=""img/flower1.png"" style=""width:200px;border:14px solid red;"">","null","","","","","",""
"894.1999999880791","","image-keyboard-response","136","341218","0.0-136.0","3A4TN5196L46JJIN834NQLQTV8ACHL","A1PHDT66U6IK4Q","37S0QRNUFB29SLTNXLPAM35NX0F88U","","","img/flower3.png","74","894.7999999970198","1","1","1","0.7,0.2,0,0,0.7,0.2,0.2,0,0.7",""
"null","","html-keyboard-response","137","341522","0.0-137.0","3A4TN5196L46JJIN834NQLQTV8ACHL","A1PHDT66U6IK4Q","37S0QRNUFB29SLTNXLPAM35NX0F88U","","","<img src=""img/flower3.png"" style=""width:200px; border:14px solid green;"">","null","","","","","",""
"1124.7999999970198","","image-keyboard-response","138","342648","0.0-138.0","3A4TN5196L46JJIN834NQLQTV8ACHL","A1PHDT66U6IK4Q","37S0QRNUFB29SLTNXLPAM35NX0F88U","","","img/flower3.png","74","1125.4000000059605","1","1","1","0.7,0.2,0,0,0.7,0.2,0.2,0,0.7",""
"null","","html-keyboard-response","139","342957","0.0-139.0","3A4TN5196L46JJIN834NQLQTV8ACHL","A1PHDT66U6IK4Q","37S0QRNUFB29SLTNXLPAM35NX0F88U","","","<img src=""img/flower3.png"" style=""width:200px; border:14px solid green;"">","null","","","","","",""
"1549.5999999940395","","image-keyboard-response","140","344507","0.0-140.0","3A4TN5196L46JJIN834NQLQTV8ACHL","A1PHDT66U6IK4Q","37S0QRNUFB29SLTNXLPAM35NX0F88U","","","img/flower1.png","76","1550.2000000029802","3","1","3","0.7,0.2,0,0,0.7,0.2,0.2,0,0.7",""
"null","","html-keyboard-response","141","344809","0.0-141.0","3A4TN5196L46JJIN834NQLQTV8ACHL","A1PHDT66U6IK4Q","37S0QRNUFB29SLTNXLPAM35NX0F88U","","","<img src=""img/flower1.png"" style=""width:200px; border:14px solid green;"">","null","","","","","",""
"1376.2999999970198","","image-keyboard-response","142","346185","0.0-142.0","3A4TN5196L46JJIN834NQLQTV8ACHL","A1PHDT66U6IK4Q","37S0QRNUFB29SLTNXLPAM35NX0F88U","","","img/flower1.png","76","1376.7000000029802","3","1","3","0.7,0.2,0,0,0.7,0.2,0.2,0,0.7",""
"null","","html-keyboard-response","143","346501","0.0-143.0","3A4TN5196L46JJIN834NQLQTV8ACHL","A1PHDT66U6IK4Q","37S0QRNUFB29SLTNXLPAM35NX0F88U","","","<img src=""img/flower1.png"" style=""width:200px; border:14px solid green;"">","null","","","","","",""
"1215.4000000059605","","image-keyboard-response","144","347717","0.0-144.0","3A4TN5196L46JJIN834NQLQTV8ACHL","A1PHDT66U6IK4Q","37S0QRNUFB29SLTNXLPAM35NX0F88U","","","img/flower2.png","75","1216.1000000089407","2","1","2","0.7,0.2,0,0,0.7,0.2,0.2,0,0.7",""
"null","","html-keyboard-response","145","348031","0.0-145.0","3A4TN5196L46JJIN834NQLQTV8ACHL","A1PHDT66U6IK4Q","37S0QRNUFB29SLTNXLPAM35NX0F88U","","","<img src=""img/flower2.png"" style=""width:200px; border:14px solid green;"">","null","","","","","",""
"1137.800000011921","","image-keyboard-response","146","349170","0.0-146.0","3A4TN5196L46JJIN834NQLQTV8ACHL","A1PHDT66U6IK4Q","37S0QRNUFB29SLTNXLPAM35NX0F88U","","","img/flower1.png","76","1138.3999999910593","3","1","3","0.7,0.2,0,0,0.7,0.2,0.2,0,0.7",""
"null","","html-keyboard-response","147","349479","0.0-147.0","3A4TN5196L46JJIN834NQLQTV8ACHL","A1PHDT66U6IK4Q","37S0QRNUFB29SLTNXLPAM35NX0F88U","","","<img src=""img/flower1.png"" style=""width:200px; border:14px solid green;"">","null","","","","","",""
"937","","image-keyboard-response","148","350417","0.0-148.0","3A4TN5196L46JJIN834NQLQTV8ACHL","A1PHDT66U6IK4Q","37S0QRNUFB29SLTNXLPAM35NX0F88U","","","img/flower1.png","76","937.5999999940395","3","1","3","0.7,0.2,0,0,0.7,0.2,0.2,0,0.7",""
"null","","html-keyboard-response","149","350721","0.0-149.0","3A4TN5196L46JJIN834NQLQTV8ACHL","A1PHDT66U6IK4Q","37S0QRNUFB29SLTNXLPAM35NX0F88U","","","<img src=""img/flower1.png"" style=""width:200px; border:14px solid green;"">","null","","","","","",""
"1040","","image-keyboard-response","150","351762","0.0-150.0","3A4TN5196L46JJIN834NQLQTV8ACHL","A1PHDT66U6IK4Q","37S0QRNUFB29SLTNXLPAM35NX0F88U","","","img/flower3.png","74","1040.699999988079","1","1","1","0.7,0.2,0,0,0.7,0.2,0.2,0,0.7",""
"null","","html-keyboard-response","151","352064","0.0-151.0","3A4TN5196L46JJIN834NQLQTV8ACHL","A1PHDT66U6IK4Q","37S0QRNUFB29SLTNXLPAM35NX0F88U","","","<img src=""img/flower3.png"" style=""width:200px; border:14px solid green;"">","null","","","","","",""
"827.8000000119209","","image-keyboard-response","152","352892","0.0-152.0","3A4TN5196L46JJIN834NQLQTV8ACHL","A1PHDT66U6IK4Q","37S0QRNUFB29SLTNXLPAM35NX0F88U","","","img/flower3.png","74","828.2999999970198","1","1","1","0.7,0.2,0,0,0.7,0.2,0.2,0,0.7",""
"null","","html-keyboard-response","153","353201","0.0-153.0","3A4TN5196L46JJIN834NQLQTV8ACHL","A1PHDT66U6IK4Q","37S0QRNUFB29SLTNXLPAM35NX0F88U","","","<img src=""img/flower3.png"" style=""width:200px; border:14px solid green;"">","null","","","","","",""
"3271.2999999970198","","image-keyboard-response","154","356473","0.0-154.0","3A4TN5196L46JJIN834NQLQTV8ACHL","A1PHDT66U6IK4Q","37S0QRNUFB29SLTNXLPAM35NX0F88U","","","img/flower1.png","76","3272","3","1","3","0.7,0.2,0,0,0.7,0.2,0.2,0,0.7",""
"null","","html-keyboard-response","155","356783","0.0-155.0","3A4TN5196L46JJIN834NQLQTV8ACHL","A1PHDT66U6IK4Q","37S0QRNUFB29SLTNXLPAM35NX0F88U","","","<img src=""img/flower1.png"" style=""width:200px; border:14px solid green;"">","null","","","","","",""
"578.2000000029802","","image-keyboard-response","156","357362","0.0-156.0","3A4TN5196L46JJIN834NQLQTV8ACHL","A1PHDT66U6IK4Q","37S0QRNUFB29SLTNXLPAM35NX0F88U","","","img/flower1.png","76","578.7999999970198","3","1","3","0.7,0.2,0,0,0.7,0.2,0.2,0,0.7",""
"null","","html-keyboard-response","157","357671","0.0-157.0","3A4TN5196L46JJIN834NQLQTV8ACHL","A1PHDT66U6IK4Q","37S0QRNUFB29SLTNXLPAM35NX0F88U","","","<img src=""img/flower1.png"" style=""width:200px; border:14px solid green;"">","null","","","","","",""
"838.2999999970198","","image-keyboard-response","158","358511","0.0-158.0","3A4TN5196L46JJIN834NQLQTV8ACHL","A1PHDT66U6IK4Q","37S0QRNUFB29SLTNXLPAM35NX0F88U","","","img/flower3.png","74","838.9000000059605","1","0","1","0.7,0.2,0,0,0.7,0.2,0.2,0,0.7",""
"null","","html-keyboard-response","159","358824","0.0-159.0","3A4TN5196L46JJIN834NQLQTV8ACHL","A1PHDT66U6IK4Q","37S0QRNUFB29SLTNXLPAM35NX0F88U","","","<img src=""img/flower3.png"" style=""width:200px;border:14px solid red;"">","null","","","","","",""
"785.7999999970198","","image-keyboard-response","160","359611","0.0-160.0","3A4TN5196L46JJIN834NQLQTV8ACHL","A1PHDT66U6IK4Q","37S0QRNUFB29SLTNXLPAM35NX0F88U","","","img/flower3.png","74","786.4000000059605","1","1","1","0.7,0.2,0,0,0.7,0.2,0.2,0,0.7",""
"null","","html-keyboard-response","161","359918","0.0-161.0","3A4TN5196L46JJIN834NQLQTV8ACHL","A1PHDT66U6IK4Q","37S0QRNUFB29SLTNXLPAM35NX0F88U","","","<img src=""img/flower3.png"" style=""width:200px; border:14px solid green;"">","null","","","","","",""
"1096","","image-keyboard-response","162","361014","0.0-162.0","3A4TN5196L46JJIN834NQLQTV8ACHL","A1PHDT66U6IK4Q","37S0QRNUFB29SLTNXLPAM35NX0F88U","","","img/flower1.png","76","1096.5999999940395","3","0","3","0.7,0.2,0,0,0.7,0.2,0.2,0,0.7",""
"null","","html-keyboard-response","163","361327","0.0-163.0","3A4TN5196L46JJIN834NQLQTV8ACHL","A1PHDT66U6IK4Q","37S0QRNUFB29SLTNXLPAM35NX0F88U","","","<img src=""img/flower1.png"" style=""width:200px;border:14px solid red;"">","null","","","","","",""
"666.3999999910593","","image-keyboard-response","164","361994","0.0-164.0","3A4TN5196L46JJIN834NQLQTV8ACHL","A1PHDT66U6IK4Q","37S0QRNUFB29SLTNXLPAM35NX0F88U","","","img/flower1.png","76","667","3","0","3","0.7,0.2,0,0,0.7,0.2,0.2,0,0.7",""
"null","","html-keyboard-response","165","362308","0.0-165.0","3A4TN5196L46JJIN834NQLQTV8ACHL","A1PHDT66U6IK4Q","37S0QRNUFB29SLTNXLPAM35NX0F88U","","","<img src=""img/flower1.png"" style=""width:200px;border:14px solid red;"">","null","","","","","",""
"1074.2999999970198","","image-keyboard-response","166","363383","0.0-166.0","3A4TN5196L46JJIN834NQLQTV8ACHL","A1PHDT66U6IK4Q","37S0QRNUFB29SLTNXLPAM35NX0F88U","","","img/flower3.png","74","1074.8999999910593","1","0","1","0.7,0.2,0,0,0.7,0.2,0.2,0,0.7",""
"null","","html-keyboard-response","167","363684","0.0-167.0","3A4TN5196L46JJIN834NQLQTV8ACHL","A1PHDT66U6IK4Q","37S0QRNUFB29SLTNXLPAM35NX0F88U","","","<img src=""img/flower3.png"" style=""width:200px;border:14px solid red;"">","null","","","","","",""
"3443.5","","image-keyboard-response","168","367128","0.0-168.0","3A4TN5196L46JJIN834NQLQTV8ACHL","A1PHDT66U6IK4Q","37S0QRNUFB29SLTNXLPAM35NX0F88U","","","img/flower1.png","75","3443.9000000059605","2","0","3","0.7,0.2,0,0,0.7,0.2,0.2,0,0.7",""
"null","","html-keyboard-response","169","367442","0.0-169.0","3A4TN5196L46JJIN834NQLQTV8ACHL","A1PHDT66U6IK4Q","37S0QRNUFB29SLTNXLPAM35NX0F88U","","","<img src=""img/flower1.png"" style=""width:200px;border:14px solid red;"">","null","","","","","",""
"1981.9000000059605","","image-keyboard-response","170","369424","0.0-170.0","3A4TN5196L46JJIN834NQLQTV8ACHL","A1PHDT66U6IK4Q","37S0QRNUFB29SLTNXLPAM35NX0F88U","","","img/flower2.png","75","1982.6000000089407","2","0","2","0.7,0.2,0,0,0.7,0.2,0.2,0,0.7",""
"null","","html-keyboard-response","171","369734","0.0-171.0","3A4TN5196L46JJIN834NQLQTV8ACHL","A1PHDT66U6IK4Q","37S0QRNUFB29SLTNXLPAM35NX0F88U","","","<img src=""img/flower2.png"" style=""width:200px;border:14px solid red;"">","null","","","","","",""
"1567.7999999970198","","image-keyboard-response","172","371303","0.0-172.0","3A4TN5196L46JJIN834NQLQTV8ACHL","A1PHDT66U6IK4Q","37S0QRNUFB29SLTNXLPAM35NX0F88U","","","img/flower2.png","75","1568.4000000059605","2","1","2","0.7,0.2,0,0,0.7,0.2,0.2,0,0.7",""
"null","","html-keyboard-response","173","371613","0.0-173.0","3A4TN5196L46JJIN834NQLQTV8ACHL","A1PHDT66U6IK4Q","37S0QRNUFB29SLTNXLPAM35NX0F88U","","","<img src=""img/flower2.png"" style=""width:200px; border:14px solid green;"">","null","","","","","",""
"1900.7000000029802","","image-keyboard-response","174","373514","0.0-174.0","3A4TN5196L46JJIN834NQLQTV8ACHL","A1PHDT66U6IK4Q","37S0QRNUFB29SLTNXLPAM35NX0F88U","","","img/flower1.png","76","1901.4000000059605","3","0","3","0.7,0.2,0,0,0.7,0.2,0.2,0,0.7",""
"null","","html-keyboard-response","175","373824","0.0-175.0","3A4TN5196L46JJIN834NQLQTV8ACHL","A1PHDT66U6IK4Q","37S0QRNUFB29SLTNXLPAM35NX0F88U","","","<img src=""img/flower1.png"" style=""width:200px;border:14px solid red;"">","null","","","","","",""
"1468.7000000029802","","image-keyboard-response","176","375293","0.0-176.0","3A4TN5196L46JJIN834NQLQTV8ACHL","A1PHDT66U6IK4Q","37S0QRNUFB29SLTNXLPAM35NX0F88U","","","img/flower2.png","75","1469.199999988079","2","0","2","0.7,0.2,0,0,0.7,0.2,0.2,0,0.7",""
"null","","html-keyboard-response","177","375606","0.0-177.0","3A4TN5196L46JJIN834NQLQTV8ACHL","A1PHDT66U6IK4Q","37S0QRNUFB29SLTNXLPAM35NX0F88U","","","<img src=""img/flower2.png"" style=""width:200px;border:14px solid red;"">","null","","","","","",""
"3189.3999999910593","","image-keyboard-response","178","378796","0.0-178.0","3A4TN5196L46JJIN834NQLQTV8ACHL","A1PHDT66U6IK4Q","37S0QRNUFB29SLTNXLPAM35NX0F88U","","","img/flower2.png","74","3190.0999999940395","1","0","2","0.7,0.2,0,0,0.7,0.2,0.2,0,0.7",""
"null","","html-keyboard-response","179","379105","0.0-179.0","3A4TN5196L46JJIN834NQLQTV8ACHL","A1PHDT66U6IK4Q","37S0QRNUFB29SLTNXLPAM35NX0F88U","","","<img src=""img/flower2.png"" style=""width:200px;border:14px solid red;"">","null","","","","","",""
"3342.9000000059605","","image-keyboard-response","180","382448","0.0-180.0","3A4TN5196L46JJIN834NQLQTV8ACHL","A1PHDT66U6IK4Q","37S0QRNUFB29SLTNXLPAM35NX0F88U","","","img/flower1.png","76","3343.5","3","0","3","0.7,0.2,0,0,0.7,0.2,0.2,0,0.7",""
"null","","html-keyboard-response","181","382761","0.0-181.0","3A4TN5196L46JJIN834NQLQTV8ACHL","A1PHDT66U6IK4Q","37S0QRNUFB29SLTNXLPAM35NX0F88U","","","<img src=""img/flower1.png"" style=""width:200px;border:14px solid red;"">","null","","","","","",""
"2380.5","","image-keyboard-response","182","385142","0.0-182.0","3A4TN5196L46JJIN834NQLQTV8ACHL","A1PHDT66U6IK4Q","37S0QRNUFB29SLTNXLPAM35NX0F88U","","","img/flower1.png","76","2381","3","1","3","0.7,0.2,0,0,0.7,0.2,0.2,0,0.7",""
"null","","html-keyboard-response","183","385456","0.0-183.0","3A4TN5196L46JJIN834NQLQTV8ACHL","A1PHDT66U6IK4Q","37S0QRNUFB29SLTNXLPAM35NX0F88U","","","<img src=""img/flower1.png"" style=""width:200px; border:14px solid green;"">","null","","","","","",""
"1009.0999999940395","","image-keyboard-response","184","386466","0.0-184.0","3A4TN5196L46JJIN834NQLQTV8ACHL","A1PHDT66U6IK4Q","37S0QRNUFB29SLTNXLPAM35NX0F88U","","","img/flower3.png","74","1009.7999999970198","1","1","1","0.7,0.2,0,0,0.7,0.2,0.2,0,0.7",""
"null","","html-keyboard-response","185","386779","0.0-185.0","3A4TN5196L46JJIN834NQLQTV8ACHL","A1PHDT66U6IK4Q","37S0QRNUFB29SLTNXLPAM35NX0F88U","","","<img src=""img/flower3.png"" style=""width:200px; border:14px solid green;"">","null","","","","","",""
"616.9000000059605","","image-keyboard-response","186","387396","0.0-186.0","3A4TN5196L46JJIN834NQLQTV8ACHL","A1PHDT66U6IK4Q","37S0QRNUFB29SLTNXLPAM35NX0F88U","","","img/flower3.png","74","617.5","1","1","1","0.7,0.2,0,0,0.7,0.2,0.2,0,0.7",""
"null","","html-keyboard-response","187","387703","0.0-187.0","3A4TN5196L46JJIN834NQLQTV8ACHL","A1PHDT66U6IK4Q","37S0QRNUFB29SLTNXLPAM35NX0F88U","","","<img src=""img/flower3.png"" style=""width:200px; border:14px solid green;"">","null","","","","","",""
"1412.5","","image-keyboard-response","188","389116","0.0-188.0","3A4TN5196L46JJIN834NQLQTV8ACHL","A1PHDT66U6IK4Q","37S0QRNUFB29SLTNXLPAM35NX0F88U","","","img/flower2.png","76","1413.0999999940395","3","0","2","0.7,0.2,0,0,0.7,0.2,0.2,0,0.7",""
"null","","html-keyboard-response","189","389422","0.0-189.0","3A4TN5196L46JJIN834NQLQTV8ACHL","A1PHDT66U6IK4Q","37S0QRNUFB29SLTNXLPAM35NX0F88U","","","<img src=""img/flower2.png"" style=""width:200px;border:14px solid red;"">","null","","","","","",""
"1015.3000000119209","","image-keyboard-response","190","390438","0.0-190.0","3A4TN5196L46JJIN834NQLQTV8ACHL","A1PHDT66U6IK4Q","37S0QRNUFB29SLTNXLPAM35NX0F88U","","","img/flower2.png","75","1015.8999999910593","2","1","2","0.7,0.2,0,0,0.7,0.2,0.2,0,0.7",""
"null","","html-keyboard-response","191","390742","0.0-191.0","3A4TN5196L46JJIN834NQLQTV8ACHL","A1PHDT66U6IK4Q","37S0QRNUFB29SLTNXLPAM35NX0F88U","","","<img src=""img/flower2.png"" style=""width:200px; border:14px solid green;"">","null","","","","","",""
"1829.7999999970198","","image-keyboard-response","192","392572","0.0-192.0","3A4TN5196L46JJIN834NQLQTV8ACHL","A1PHDT66U6IK4Q","37S0QRNUFB29SLTNXLPAM35NX0F88U","","","img/flower1.png","75","1830.199999988079","2","0","3","0.7,0.2,0,0,0.7,0.2,0.2,0,0.7",""
"null","","html-keyboard-response","193","392885","0.0-193.0","3A4TN5196L46JJIN834NQLQTV8ACHL","A1PHDT66U6IK4Q","37S0QRNUFB29SLTNXLPAM35NX0F88U","","","<img src=""img/flower1.png"" style=""width:200px;border:14px solid red;"">","null","","","","","",""
"711.6000000089407","","image-keyboard-response","194","393597","0.0-194.0","3A4TN5196L46JJIN834NQLQTV8ACHL","A1PHDT66U6IK4Q","37S0QRNUFB29SLTNXLPAM35NX0F88U","","","img/flower3.png","74","712.2000000029802","1","1","1","0.7,0.2,0,0,0.7,0.2,0.2,0,0.7",""
"null","","html-keyboard-response","195","393911","0.0-195.0","3A4TN5196L46JJIN834NQLQTV8ACHL","A1PHDT66U6IK4Q","37S0QRNUFB29SLTNXLPAM35NX0F88U","","","<img src=""img/flower3.png"" style=""width:200px; border:14px solid green;"">","null","","","","","",""
"868.0999999940395","","image-keyboard-response","196","394779","0.0-196.0","3A4TN5196L46JJIN834NQLQTV8ACHL","A1PHDT66U6IK4Q","37S0QRNUFB29SLTNXLPAM35NX0F88U","","","img/flower2.png","75","868.7000000029802","2","1","2","0.7,0.2,0,0,0.7,0.2,0.2,0,0.7",""
"null","","html-keyboard-response","197","395096","0.0-197.0","3A4TN5196L46JJIN834NQLQTV8ACHL","A1PHDT66U6IK4Q","37S0QRNUFB29SLTNXLPAM35NX0F88U","","","<img src=""img/flower2.png"" style=""width:200px; border:14px solid green;"">","null","","","","","",""
"798.7000000029802","","image-keyboard-response","198","395895","0.0-198.0","3A4TN5196L46JJIN834NQLQTV8ACHL","A1PHDT66U6IK4Q","37S0QRNUFB29SLTNXLPAM35NX0F88U","","","img/flower2.png","75","799.4000000059605","2","1","2","0.7,0.2,0,0,0.7,0.2,0.2,0,0.7",""
"null","","html-keyboard-response","199","396211","0.0-199.0","3A4TN5196L46JJIN834NQLQTV8ACHL","A1PHDT66U6IK4Q","37S0QRNUFB29SLTNXLPAM35NX0F88U","","","<img src=""img/flower2.png"" style=""width:200px; border:14px solid green;"">","null","","","","","",""
"752.2999999970198","","image-keyboard-response","200","396964","0.0-200.0","3A4TN5196L46JJIN834NQLQTV8ACHL","A1PHDT66U6IK4Q","37S0QRNUFB29SLTNXLPAM35NX0F88U","","","img/flower1.png","76","752.9000000059605","3","0","3","0.7,0.2,0,0,0.7,0.2,0.2,0,0.7",""
"null","","html-keyboard-response","201","397276","0.0-201.0","3A4TN5196L46JJIN834NQLQTV8ACHL","A1PHDT66U6IK4Q","37S0QRNUFB29SLTNXLPAM35NX0F88U","","","<img src=""img/flower1.png"" style=""width:200px;border:14px solid red;"">","null","","","","","",""
"2313.7000000029802","","image-keyboard-response","202","399591","0.0-202.0","3A4TN5196L46JJIN834NQLQTV8ACHL","A1PHDT66U6IK4Q","37S0QRNUFB29SLTNXLPAM35NX0F88U","","","img/flower2.png","75","2314.5","2","1","2","0.7,0.2,0,0,0.7,0.2,0.2,0,0.7",""
"null","","html-keyboard-response","203","399902","0.0-203.0","3A4TN5196L46JJIN834NQLQTV8ACHL","A1PHDT66U6IK4Q","37S0QRNUFB29SLTNXLPAM35NX0F88U","","","<img src=""img/flower2.png"" style=""width:200px; border:14px solid green;"">","null","","","","","",""
"852.2000000029802","","image-keyboard-response","204","400755","0.0-204.0","3A4TN5196L46JJIN834NQLQTV8ACHL","A1PHDT66U6IK4Q","37S0QRNUFB29SLTNXLPAM35NX0F88U","","","img/flower2.png","75","852.7999999970198","2","1","2","0.7,0.2,0,0,0.7,0.2,0.2,0,0.7",""
"null","","html-keyboard-response","205","401071","0.0-205.0","3A4TN5196L46JJIN834NQLQTV8ACHL","A1PHDT66U6IK4Q","37S0QRNUFB29SLTNXLPAM35NX0F88U","","","<img src=""img/flower2.png"" style=""width:200px; border:14px solid green;"">","null","","","","","",""
"827.0999999940395","","image-keyboard-response","206","401899","0.0-206.0","3A4TN5196L46JJIN834NQLQTV8ACHL","A1PHDT66U6IK4Q","37S0QRNUFB29SLTNXLPAM35NX0F88U","","","img/flower2.png","75","827.8999999910593","2","1","2","0.7,0.2,0,0,0.7,0.2,0.2,0,0.7",""
"null","","html-keyboard-response","207","402211","0.0-207.0","3A4TN5196L46JJIN834NQLQTV8ACHL","A1PHDT66U6IK4Q","37S0QRNUFB29SLTNXLPAM35NX0F88U","","","<img src=""img/flower2.png"" style=""width:200px; border:14px solid green;"">","null","","","","","",""
"815.3999999910593","","image-keyboard-response","208","403027","0.0-208.0","3A4TN5196L46JJIN834NQLQTV8ACHL","A1PHDT66U6IK4Q","37S0QRNUFB29SLTNXLPAM35NX0F88U","","","img/flower3.png","74","816.2000000029802","1","0","1","0.7,0.2,0,0,0.7,0.2,0.2,0,0.7",""
"null","","html-keyboard-response","209","403335","0.0-209.0","3A4TN5196L46JJIN834NQLQTV8ACHL","A1PHDT66U6IK4Q","37S0QRNUFB29SLTNXLPAM35NX0F88U","","","<img src=""img/flower3.png"" style=""width:200px;border:14px solid red;"">","null","","","","","",""
"2571.699999988079","","image-keyboard-response","210","405907","0.0-210.0","3A4TN5196L46JJIN834NQLQTV8ACHL","A1PHDT66U6IK4Q","37S0QRNUFB29SLTNXLPAM35NX0F88U","","","img/flower1.png","76","2572.2999999970198","3","0","3","0.7,0.2,0,0,0.7,0.2,0.2,0,0.7",""
"null","","html-keyboard-response","211","406217","0.0-211.0","3A4TN5196L46JJIN834NQLQTV8ACHL","A1PHDT66U6IK4Q","37S0QRNUFB29SLTNXLPAM35NX0F88U","","","<img src=""img/flower1.png"" style=""width:200px;border:14px solid red;"">","null","","","","","",""
"930","","image-keyboard-response","212","407148","0.0-212.0","3A4TN5196L46JJIN834NQLQTV8ACHL","A1PHDT66U6IK4Q","37S0QRNUFB29SLTNXLPAM35NX0F88U","","","img/flower2.png","75","930.7000000029802","2","1","2","0.7,0.2,0,0,0.7,0.2,0.2,0,0.7",""
"null","","html-keyboard-response","213","407452","0.0-213.0","3A4TN5196L46JJIN834NQLQTV8ACHL","A1PHDT66U6IK4Q","37S0QRNUFB29SLTNXLPAM35NX0F88U","","","<img src=""img/flower2.png"" style=""width:200px; border:14px solid green;"">","null","","","","","",""
"1669.6000000089407","","image-keyboard-response","214","409122","0.0-214.0","3A4TN5196L46JJIN834NQLQTV8ACHL","A1PHDT66U6IK4Q","37S0QRNUFB29SLTNXLPAM35NX0F88U","","","img/flower1.png","75","1670.199999988079","2","0","3","0.7,0.2,0,0,0.7,0.2,0.2,0,0.7",""
"null","","html-keyboard-response","215","409423","0.0-215.0","3A4TN5196L46JJIN834NQLQTV8ACHL","A1PHDT66U6IK4Q","37S0QRNUFB29SLTNXLPAM35NX0F88U","","","<img src=""img/flower1.png"" style=""width:200px;border:14px solid red;"">","null","","","","","",""
"1447.5","","image-keyboard-response","216","410872","0.0-216.0","3A4TN5196L46JJIN834NQLQTV8ACHL","A1PHDT66U6IK4Q","37S0QRNUFB29SLTNXLPAM35NX0F88U","","","img/flower2.png","75","1448.0999999940395","2","1","2","0.7,0.2,0,0,0.7,0.2,0.2,0,0.7",""
"null","","html-keyboard-response","217","411181","0.0-217.0","3A4TN5196L46JJIN834NQLQTV8ACHL","A1PHDT66U6IK4Q","37S0QRNUFB29SLTNXLPAM35NX0F88U","","","<img src=""img/flower2.png"" style=""width:200px; border:14px solid green;"">","null","","","","","",""
"2103.7000000029802","","image-keyboard-response","218","413286","0.0-218.0","3A4TN5196L46JJIN834NQLQTV8ACHL","A1PHDT66U6IK4Q","37S0QRNUFB29SLTNXLPAM35NX0F88U","","","img/flower1.png","74","2104.5","1","1","3","0.7,0.2,0,0,0.7,0.2,0.2,0,0.7",""
"null","","html-keyboard-response","219","413587","0.0-219.0","3A4TN5196L46JJIN834NQLQTV8ACHL","A1PHDT66U6IK4Q","37S0QRNUFB29SLTNXLPAM35NX0F88U","","","<img src=""img/flower1.png"" style=""width:200px; border:14px solid green;"">","null","","","","","",""
"858.6999999880791","","image-keyboard-response","220","414447","0.0-220.0","3A4TN5196L46JJIN834NQLQTV8ACHL","A1PHDT66U6IK4Q","37S0QRNUFB29SLTNXLPAM35NX0F88U","","","img/flower3.png","74","859.5","1","1","1","0.7,0.2,0,0,0.7,0.2,0.2,0,0.7",""
"null","","html-keyboard-response","221","414751","0.0-221.0","3A4TN5196L46JJIN834NQLQTV8ACHL","A1PHDT66U6IK4Q","37S0QRNUFB29SLTNXLPAM35NX0F88U","","","<img src=""img/flower3.png"" style=""width:200px; border:14px solid green;"">","null","","","","","",""
"1042.300000011921","","image-keyboard-response","222","415794","0.0-222.0","3A4TN5196L46JJIN834NQLQTV8ACHL","A1PHDT66U6IK4Q","37S0QRNUFB29SLTNXLPAM35NX0F88U","","","img/flower2.png","75","1042.7000000029802","2","1","2","0.7,0.2,0,0,0.7,0.2,0.2,0,0.7",""
"null","","html-keyboard-response","223","416096","0.0-223.0","3A4TN5196L46JJIN834NQLQTV8ACHL","A1PHDT66U6IK4Q","37S0QRNUFB29SLTNXLPAM35NX0F88U","","","<img src=""img/flower2.png"" style=""width:200px; border:14px solid green;"">","null","","","","","",""
"794.5","","image-keyboard-response","224","416892","0.0-224.0","3A4TN5196L46JJIN834NQLQTV8ACHL","A1PHDT66U6IK4Q","37S0QRNUFB29SLTNXLPAM35NX0F88U","","","img/flower1.png","74","795.3999999910593","1","1","3","0.7,0.2,0,0,0.7,0.2,0.2,0,0.7",""
"null","","html-keyboard-response","225","417203","0.0-225.0","3A4TN5196L46JJIN834NQLQTV8ACHL","A1PHDT66U6IK4Q","37S0QRNUFB29SLTNXLPAM35NX0F88U","","","<img src=""img/flower1.png"" style=""width:200px; border:14px solid green;"">","null","","","","","",""
"827.2000000029802","","image-keyboard-response","226","418031","0.0-226.0","3A4TN5196L46JJIN834NQLQTV8ACHL","A1PHDT66U6IK4Q","37S0QRNUFB29SLTNXLPAM35NX0F88U","","","img/flower2.png","75","827.8999999910593","2","1","2","0.7,0.2,0,0,0.7,0.2,0.2,0,0.7",""
"null","","html-keyboard-response","227","418339","0.0-227.0","3A4TN5196L46JJIN834NQLQTV8ACHL","A1PHDT66U6IK4Q","37S0QRNUFB29SLTNXLPAM35NX0F88U","","","<img src=""img/flower2.png"" style=""width:200px; border:14px solid green;"">","null","","","","","",""
"900","","image-keyboard-response","228","419239","0.0-228.0","3A4TN5196L46JJIN834NQLQTV8ACHL","A1PHDT66U6IK4Q","37S0QRNUFB29SLTNXLPAM35NX0F88U","","","img/flower3.png","74","900.5","1","1","1","0.7,0.2,0,0,0.7,0.2,0.2,0,0.7",""
"null","","html-keyboard-response","229","419541","0.0-229.0","3A4TN5196L46JJIN834NQLQTV8ACHL","A1PHDT66U6IK4Q","37S0QRNUFB29SLTNXLPAM35NX0F88U","","","<img src=""img/flower3.png"" style=""width:200px; border:14px solid green;"">","null","","","","","",""
"778.2999999970198","","image-keyboard-response","230","420320","0.0-230.0","3A4TN5196L46JJIN834NQLQTV8ACHL","A1PHDT66U6IK4Q","37S0QRNUFB29SLTNXLPAM35NX0F88U","","","img/flower3.png","74","778.8999999910593","1","1","1","0.7,0.2,0,0,0.7,0.2,0.2,0,0.7",""
"null","","html-keyboard-response","231","420633","0.0-231.0","3A4TN5196L46JJIN834NQLQTV8ACHL","A1PHDT66U6IK4Q","37S0QRNUFB29SLTNXLPAM35NX0F88U","","","<img src=""img/flower3.png"" style=""width:200px; border:14px solid green;"">","null","","","","","",""
"662.0999999940395","","image-keyboard-response","232","421296","0.0-232.0","3A4TN5196L46JJIN834NQLQTV8ACHL","A1PHDT66U6IK4Q","37S0QRNUFB29SLTNXLPAM35NX0F88U","","","img/flower3.png","74","662.7999999970198","1","1","1","0.7,0.2,0,0,0.7,0.2,0.2,0,0.7",""
"null","","html-keyboard-response","233","421605","0.0-233.0","3A4TN5196L46JJIN834NQLQTV8ACHL","A1PHDT66U6IK4Q","37S0QRNUFB29SLTNXLPAM35NX0F88U","","","<img src=""img/flower3.png"" style=""width:200px; border:14px solid green;"">","null","","","","","",""
"756.7999999970198","","image-keyboard-response","234","422363","0.0-234.0","3A4TN5196L46JJIN834NQLQTV8ACHL","A1PHDT66U6IK4Q","37S0QRNUFB29SLTNXLPAM35NX0F88U","","","img/flower2.png","75","757.5999999940395","2","0","2","0.7,0.2,0,0,0.7,0.2,0.2,0,0.7",""
"null","","html-keyboard-response","235","422678","0.0-235.0","3A4TN5196L46JJIN834NQLQTV8ACHL","A1PHDT66U6IK4Q","37S0QRNUFB29SLTNXLPAM35NX0F88U","","","<img src=""img/flower2.png"" style=""width:200px;border:14px solid red;"">","null","","","","","",""
"1126.5","","image-keyboard-response","236","423805","0.0-236.0","3A4TN5196L46JJIN834NQLQTV8ACHL","A1PHDT66U6IK4Q","37S0QRNUFB29SLTNXLPAM35NX0F88U","","","img/flower3.png","74","1127.2000000029802","1","1","1","0.7,0.2,0,0,0.7,0.2,0.2,0,0.7",""
"null","","html-keyboard-response","237","424118","0.0-237.0","3A4TN5196L46JJIN834NQLQTV8ACHL","A1PHDT66U6IK4Q","37S0QRNUFB29SLTNXLPAM35NX0F88U","","","<img src=""img/flower3.png"" style=""width:200px; border:14px solid green;"">","null","","","","","",""
"857.5999999940395","","image-keyboard-response","238","424976","0.0-238.0","3A4TN5196L46JJIN834NQLQTV8ACHL","A1PHDT66U6IK4Q","37S0QRNUFB29SLTNXLPAM35NX0F88U","","","img/flower2.png","75","858.2999999970198","2","1","2","0.7,0.2,0,0,0.7,0.2,0.2,0,0.7",""
"null","","html-keyboard-response","239","425291","0.0-239.0","3A4TN5196L46JJIN834NQLQTV8ACHL","A1PHDT66U6IK4Q","37S0QRNUFB29SLTNXLPAM35NX0F88U","","","<img src=""img/flower2.png"" style=""width:200px; border:14px solid green;"">","null","","","","","",""
"902.8999999910593","","image-keyboard-response","240","426194","0.0-240.0","3A4TN5196L46JJIN834NQLQTV8ACHL","A1PHDT66U6IK4Q","37S0QRNUFB29SLTNXLPAM35NX0F88U","","","img/flower2.png","75","903.5999999940395","2","1","2","0.7,0.2,0,0,0.7,0.2,0.2,0,0.7",""
"null","","html-keyboard-response","241","426502","0.0-241.0","3A4TN5196L46JJIN834NQLQTV8ACHL","A1PHDT66U6IK4Q","37S0QRNUFB29SLTNXLPAM35NX0F88U","","","<img src=""img/flower2.png"" style=""width:200px; border:14px solid green;"">","null","","","","","",""
"882.7000000029802","","image-keyboard-response","242","427386","0.0-242.0","3A4TN5196L46JJIN834NQLQTV8ACHL","A1PHDT66U6IK4Q","37S0QRNUFB29SLTNXLPAM35NX0F88U","","","img/flower2.png","75","883.6999999880791","2","1","2","0.7,0.2,0,0,0.7,0.2,0.2,0,0.7",""
"null","","html-keyboard-response","243","427701","0.0-243.0","3A4TN5196L46JJIN834NQLQTV8ACHL","A1PHDT66U6IK4Q","37S0QRNUFB29SLTNXLPAM35NX0F88U","","","<img src=""img/flower2.png"" style=""width:200px; border:14px solid green;"">","null","","","","","",""
"1411.5","","image-keyboard-response","244","429113","0.0-244.0","3A4TN5196L46JJIN834NQLQTV8ACHL","A1PHDT66U6IK4Q","37S0QRNUFB29SLTNXLPAM35NX0F88U","","","img/flower3.png","74","1412","1","1","1","0.7,0.2,0,0,0.7,0.2,0.2,0,0.7",""
"null","","html-keyboard-response","245","429421","0.0-245.0","3A4TN5196L46JJIN834NQLQTV8ACHL","A1PHDT66U6IK4Q","37S0QRNUFB29SLTNXLPAM35NX0F88U","","","<img src=""img/flower3.png"" style=""width:200px; border:14px solid green;"">","null","","","","","",""
"1716.7000000029802","","image-keyboard-response","246","431139","0.0-246.0","3A4TN5196L46JJIN834NQLQTV8ACHL","A1PHDT66U6IK4Q","37S0QRNUFB29SLTNXLPAM35NX0F88U","","","img/flower1.png","75","1717.5","2","0","3","0.7,0.2,0,0,0.7,0.2,0.2,0,0.7",""
"null","","html-keyboard-response","247","431450","0.0-247.0","3A4TN5196L46JJIN834NQLQTV8ACHL","A1PHDT66U6IK4Q","37S0QRNUFB29SLTNXLPAM35NX0F88U","","","<img src=""img/flower1.png"" style=""width:200px;border:14px solid red;"">","null","","","","","",""
"800.6000000089407","","image-keyboard-response","248","432252","0.0-248.0","3A4TN5196L46JJIN834NQLQTV8ACHL","A1PHDT66U6IK4Q","37S0QRNUFB29SLTNXLPAM35NX0F88U","","","img/flower2.png","75","801.2999999970198","2","0","2","0.7,0.2,0,0,0.7,0.2,0.2,0,0.7",""
"null","","html-keyboard-response","249","432558","0.0-249.0","3A4TN5196L46JJIN834NQLQTV8ACHL","A1PHDT66U6IK4Q","37S0QRNUFB29SLTNXLPAM35NX0F88U","","","<img src=""img/flower2.png"" style=""width:200px;border:14px solid red;"">","null","","","","","",""
"1716.1000000089407","","image-keyboard-response","250","434275","0.0-250.0","3A4TN5196L46JJIN834NQLQTV8ACHL","A1PHDT66U6IK4Q","37S0QRNUFB29SLTNXLPAM35NX0F88U","","","img/flower1.png","76","1716.800000011921","3","1","3","0.7,0.2,0,0,0.7,0.2,0.2,0,0.7",""
"null","","html-keyboard-response","251","434587","0.0-251.0","3A4TN5196L46JJIN834NQLQTV8ACHL","A1PHDT66U6IK4Q","37S0QRNUFB29SLTNXLPAM35NX0F88U","","","<img src=""img/flower1.png"" style=""width:200px; border:14px solid green;"">","null","","","","","",""
"1847.6000000089407","","image-keyboard-response","252","436435","0.0-252.0","3A4TN5196L46JJIN834NQLQTV8ACHL","A1PHDT66U6IK4Q","37S0QRNUFB29SLTNXLPAM35NX0F88U","","","img/flower2.png","75","1848.0999999940395","2","0","2","0.7,0.2,0,0,0.7,0.2,0.2,0,0.7",""
"null","","html-keyboard-response","253","436743","0.0-253.0","3A4TN5196L46JJIN834NQLQTV8ACHL","A1PHDT66U6IK4Q","37S0QRNUFB29SLTNXLPAM35NX0F88U","","","<img src=""img/flower2.png"" style=""width:200px;border:14px solid red;"">","null","","","","","",""
"1079.5999999940395","","image-keyboard-response","254","437823","0.0-254.0","3A4TN5196L46JJIN834NQLQTV8ACHL","A1PHDT66U6IK4Q","37S0QRNUFB29SLTNXLPAM35NX0F88U","","","img/flower2.png","75","1080.2000000029802","2","1","2","0.7,0.2,0,0,0.7,0.2,0.2,0,0.7",""
"null","","html-keyboard-response","255","438133","0.0-255.0","3A4TN5196L46JJIN834NQLQTV8ACHL","A1PHDT66U6IK4Q","37S0QRNUFB29SLTNXLPAM35NX0F88U","","","<img src=""img/flower2.png"" style=""width:200px; border:14px solid green;"">","null","","","","","",""
"1143.2000000029802","","image-keyboard-response","256","439277","0.0-256.0","3A4TN5196L46JJIN834NQLQTV8ACHL","A1PHDT66U6IK4Q","37S0QRNUFB29SLTNXLPAM35NX0F88U","","","img/flower3.png","74","1144.0999999940395","1","1","1","0.7,0.2,0,0,0.7,0.2,0.2,0,0.7",""
"null","","html-keyboard-response","257","439587","0.0-257.0","3A4TN5196L46JJIN834NQLQTV8ACHL","A1PHDT66U6IK4Q","37S0QRNUFB29SLTNXLPAM35NX0F88U","","","<img src=""img/flower3.png"" style=""width:200px; border:14px solid green;"">","null","","","","","",""
"1227.7000000029802","","image-keyboard-response","258","440816","0.0-258.0","3A4TN5196L46JJIN834NQLQTV8ACHL","A1PHDT66U6IK4Q","37S0QRNUFB29SLTNXLPAM35NX0F88U","","","img/flower1.png","76","1228.2999999970198","3","1","3","0.7,0.2,0,0,0.7,0.2,0.2,0,0.7",""
"null","","html-keyboard-response","259","441124","0.0-259.0","3A4TN5196L46JJIN834NQLQTV8ACHL","A1PHDT66U6IK4Q","37S0QRNUFB29SLTNXLPAM35NX0F88U","","","<img src=""img/flower1.png"" style=""width:200px; border:14px solid green;"">","null","","","","","",""
"1078.800000011921","","image-keyboard-response","260","442204","0.0-260.0","3A4TN5196L46JJIN834NQLQTV8ACHL","A1PHDT66U6IK4Q","37S0QRNUFB29SLTNXLPAM35NX0F88U","","","img/flower2.png","75","1079.7000000029802","2","1","2","0.7,0.2,0,0,0.7,0.2,0.2,0,0.7",""
"null","","html-keyboard-response","261","442512","0.0-261.0","3A4TN5196L46JJIN834NQLQTV8ACHL","A1PHDT66U6IK4Q","37S0QRNUFB29SLTNXLPAM35NX0F88U","","","<img src=""img/flower2.png"" style=""width:200px; border:14px solid green;"">","null","","","","","",""
"996.8000000119209","","image-keyboard-response","262","443509","0.0-262.0","3A4TN5196L46JJIN834NQLQTV8ACHL","A1PHDT66U6IK4Q","37S0QRNUFB29SLTNXLPAM35NX0F88U","","","img/flower1.png","76","997.3999999910593","3","1","3","0.7,0.2,0,0,0.7,0.2,0.2,0,0.7",""
"null","","html-keyboard-response","263","443824","0.0-263.0","3A4TN5196L46JJIN834NQLQTV8ACHL","A1PHDT66U6IK4Q","37S0QRNUFB29SLTNXLPAM35NX0F88U","","","<img src=""img/flower1.png"" style=""width:200px; border:14px solid green;"">","null","","","","","",""
"945.8999999910593","","image-keyboard-response","264","444771","0.0-264.0","3A4TN5196L46JJIN834NQLQTV8ACHL","A1PHDT66U6IK4Q","37S0QRNUFB29SLTNXLPAM35NX0F88U","","","img/flower3.png","74","946.5","1","1","1","0.7,0.2,0,0,0.7,0.2,0.2,0,0.7",""
"null","","html-keyboard-response","265","445076","0.0-265.0","3A4TN5196L46JJIN834NQLQTV8ACHL","A1PHDT66U6IK4Q","37S0QRNUFB29SLTNXLPAM35NX0F88U","","","<img src=""img/flower3.png"" style=""width:200px; border:14px solid green;"">","null","","","","","",""
"977.4000000059605","","image-keyboard-response","266","446054","0.0-266.0","3A4TN5196L46JJIN834NQLQTV8ACHL","A1PHDT66U6IK4Q","37S0QRNUFB29SLTNXLPAM35NX0F88U","","","img/flower2.png","75","977.7999999970198","2","1","2","0.7,0.2,0,0,0.7,0.2,0.2,0,0.7",""
"null","","html-keyboard-response","267","446363","0.0-267.0","3A4TN5196L46JJIN834NQLQTV8ACHL","A1PHDT66U6IK4Q","37S0QRNUFB29SLTNXLPAM35NX0F88U","","","<img src=""img/flower2.png"" style=""width:200px; border:14px solid green;"">","null","","","","","",""
"842.4000000059605","","image-keyboard-response","268","447206","0.0-268.0","3A4TN5196L46JJIN834NQLQTV8ACHL","A1PHDT66U6IK4Q","37S0QRNUFB29SLTNXLPAM35NX0F88U","","","img/flower3.png","76","843.0999999940395","3","0","1","0.7,0.2,0,0,0.7,0.2,0.2,0,0.7",""
"null","","html-keyboard-response","269","447513","0.0-269.0","3A4TN5196L46JJIN834NQLQTV8ACHL","A1PHDT66U6IK4Q","37S0QRNUFB29SLTNXLPAM35NX0F88U","","","<img src=""img/flower3.png"" style=""width:200px;border:14px solid red;"">","null","","","","","",""
"1167.5","","image-keyboard-response","270","448682","0.0-270.0","3A4TN5196L46JJIN834NQLQTV8ACHL","A1PHDT66U6IK4Q","37S0QRNUFB29SLTNXLPAM35NX0F88U","","","img/flower3.png","76","1168.199999988079","3","0","1","0.7,0.2,0,0,0.7,0.2,0.2,0,0.7",""
"null","","html-keyboard-response","271","448990","0.0-271.0","3A4TN5196L46JJIN834NQLQTV8ACHL","A1PHDT66U6IK4Q","37S0QRNUFB29SLTNXLPAM35NX0F88U","","","<img src=""img/flower3.png"" style=""width:200px;border:14px solid red;"">","null","","","","","",""
"2165.2999999970198","","image-keyboard-response","272","451155","0.0-272.0","3A4TN5196L46JJIN834NQLQTV8ACHL","A1PHDT66U6IK4Q","37S0QRNUFB29SLTNXLPAM35NX0F88U","","","img/flower1.png","76","2165.7999999970198","3","0","3","0.7,0.2,0,0,0.7,0.2,0.2,0,0.7",""
"null","","html-keyboard-response","273","451461","0.0-273.0","3A4TN5196L46JJIN834NQLQTV8ACHL","A1PHDT66U6IK4Q","37S0QRNUFB29SLTNXLPAM35NX0F88U","","","<img src=""img/flower1.png"" style=""width:200px;border:14px solid red;"">","null","","","","","",""
"778.2999999970198","","image-keyboard-response","274","452240","0.0-274.0","3A4TN5196L46JJIN834NQLQTV8ACHL","A1PHDT66U6IK4Q","37S0QRNUFB29SLTNXLPAM35NX0F88U","","","img/flower3.png","74","778.8000000119209","1","0","1","0.7,0.2,0,0,0.7,0.2,0.2,0,0.7",""
"null","","html-keyboard-response","275","452555","0.0-275.0","3A4TN5196L46JJIN834NQLQTV8ACHL","A1PHDT66U6IK4Q","37S0QRNUFB29SLTNXLPAM35NX0F88U","","","<img src=""img/flower3.png"" style=""width:200px;border:14px solid red;"">","null","","","","","",""
"542.2999999970198","","image-keyboard-response","276","453098","0.0-276.0","3A4TN5196L46JJIN834NQLQTV8ACHL","A1PHDT66U6IK4Q","37S0QRNUFB29SLTNXLPAM35NX0F88U","","","img/flower3.png","74","543","1","1","1","0.7,0.2,0,0,0.7,0.2,0.2,0,0.7",""
"null","","html-keyboard-response","277","453413","0.0-277.0","3A4TN5196L46JJIN834NQLQTV8ACHL","A1PHDT66U6IK4Q","37S0QRNUFB29SLTNXLPAM35NX0F88U","","","<img src=""img/flower3.png"" style=""width:200px; border:14px solid green;"">","null","","","","","",""
"1506.7000000029802","","image-keyboard-response","278","454921","0.0-278.0","3A4TN5196L46JJIN834NQLQTV8ACHL","A1PHDT66U6IK4Q","37S0QRNUFB29SLTNXLPAM35NX0F88U","","","img/flower1.png","76","1507.5","3","1","3","0.7,0.2,0,0,0.7,0.2,0.2,0,0.7",""
"null","","html-keyboard-response","279","455229","0.0-279.0","3A4TN5196L46JJIN834NQLQTV8ACHL","A1PHDT66U6IK4Q","37S0QRNUFB29SLTNXLPAM35NX0F88U","","","<img src=""img/flower1.png"" style=""width:200px; border:14px solid green;"">","null","","","","","",""
"1052.2999999970198","","image-keyboard-response","280","456282","0.0-280.0","3A4TN5196L46JJIN834NQLQTV8ACHL","A1PHDT66U6IK4Q","37S0QRNUFB29SLTNXLPAM35NX0F88U","","","img/flower3.png","74","1053","1","0","1","0.7,0.2,0,0,0.7,0.2,0.2,0,0.7",""
"null","","html-keyboard-response","281","456586","0.0-281.0","3A4TN5196L46JJIN834NQLQTV8ACHL","A1PHDT66U6IK4Q","37S0QRNUFB29SLTNXLPAM35NX0F88U","","","<img src=""img/flower3.png"" style=""width:200px;border:14px solid red;"">","null","","","","","",""
"911.5999999940395","","image-keyboard-response","282","457499","0.0-282.0","3A4TN5196L46JJIN834NQLQTV8ACHL","A1PHDT66U6IK4Q","37S0QRNUFB29SLTNXLPAM35NX0F88U","","","img/flower2.png","75","912.2999999970198","2","1","2","0.7,0.2,0,0,0.7,0.2,0.2,0,0.7",""
"null","","html-keyboard-response","283","457813","0.0-283.0","3A4TN5196L46JJIN834NQLQTV8ACHL","A1PHDT66U6IK4Q","37S0QRNUFB29SLTNXLPAM35NX0F88U","","","<img src=""img/flower2.png"" style=""width:200px; border:14px solid green;"">","null","","","","","",""
"1447.9000000059605","","image-keyboard-response","284","459262","0.0-284.0","3A4TN5196L46JJIN834NQLQTV8ACHL","A1PHDT66U6IK4Q","37S0QRNUFB29SLTNXLPAM35NX0F88U","","","img/flower3.png","74","1448.5","1","0","1","0.7,0.2,0,0,0.7,0.2,0.2,0,0.7",""
"null","","html-keyboard-response","285","459565","0.0-285.0","3A4TN5196L46JJIN834NQLQTV8ACHL","A1PHDT66U6IK4Q","37S0QRNUFB29SLTNXLPAM35NX0F88U","","","<img src=""img/flower3.png"" style=""width:200px;border:14px solid red;"">","null","","","","","",""
"1468.5999999940395","","image-keyboard-response","286","461034","0.0-286.0","3A4TN5196L46JJIN834NQLQTV8ACHL","A1PHDT66U6IK4Q","37S0QRNUFB29SLTNXLPAM35NX0F88U","","","img/flower1.png","75","1469.5","2","0","3","0.7,0.2,0,0,0.7,0.2,0.2,0,0.7",""
"null","","html-keyboard-response","287","461340","0.0-287.0","3A4TN5196L46JJIN834NQLQTV8ACHL","A1PHDT66U6IK4Q","37S0QRNUFB29SLTNXLPAM35NX0F88U","","","<img src=""img/flower1.png"" style=""width:200px;border:14px solid red;"">","null","","","","","",""
"733.1000000089407","","image-keyboard-response","288","462074","0.0-288.0","3A4TN5196L46JJIN834NQLQTV8ACHL","A1PHDT66U6IK4Q","37S0QRNUFB29SLTNXLPAM35NX0F88U","","","img/flower3.png","74","733.9000000059605","1","0","1","0.7,0.2,0,0,0.7,0.2,0.2,0,0.7",""
"null","","html-keyboard-response","289","462375","0.0-289.0","3A4TN5196L46JJIN834NQLQTV8ACHL","A1PHDT66U6IK4Q","37S0QRNUFB29SLTNXLPAM35NX0F88U","","","<img src=""img/flower3.png"" style=""width:200px;border:14px solid red;"">","null","","","","","",""
"748.9000000059605","","image-keyboard-response","290","463125","0.0-290.0","3A4TN5196L46JJIN834NQLQTV8ACHL","A1PHDT66U6IK4Q","37S0QRNUFB29SLTNXLPAM35NX0F88U","","","img/flower3.png","74","749.6000000089407","1","1","1","0.7,0.2,0,0,0.7,0.2,0.2,0,0.7",""
"null","","html-keyboard-response","291","463436","0.0-291.0","3A4TN5196L46JJIN834NQLQTV8ACHL","A1PHDT66U6IK4Q","37S0QRNUFB29SLTNXLPAM35NX0F88U","","","<img src=""img/flower3.png"" style=""width:200px; border:14px solid green;"">","null","","","","","",""
"1619.2999999970198","","image-keyboard-response","292","465056","0.0-292.0","3A4TN5196L46JJIN834NQLQTV8ACHL","A1PHDT66U6IK4Q","37S0QRNUFB29SLTNXLPAM35NX0F88U","","","img/flower2.png","74","1619.7999999970198","1","0","2","0.7,0.2,0,0,0.7,0.2,0.2,0,0.7",""
"null","","html-keyboard-response","293","465362","0.0-293.0","3A4TN5196L46JJIN834NQLQTV8ACHL","A1PHDT66U6IK4Q","37S0QRNUFB29SLTNXLPAM35NX0F88U","","","<img src=""img/flower2.png"" style=""width:200px;border:14px solid red;"">","null","","","","","",""
"1027.2000000029802","","image-keyboard-response","294","466390","0.0-294.0","3A4TN5196L46JJIN834NQLQTV8ACHL","A1PHDT66U6IK4Q","37S0QRNUFB29SLTNXLPAM35NX0F88U","","","img/flower1.png","75","1027.7999999970198","2","0","3","0.7,0.2,0,0,0.7,0.2,0.2,0,0.7",""
"null","","html-keyboard-response","295","466704","0.0-295.0","3A4TN5196L46JJIN834NQLQTV8ACHL","A1PHDT66U6IK4Q","37S0QRNUFB29SLTNXLPAM35NX0F88U","","","<img src=""img/flower1.png"" style=""width:200px;border:14px solid red;"">","null","","","","","",""
"914.4000000059605","","image-keyboard-response","296","467619","0.0-296.0","3A4TN5196L46JJIN834NQLQTV8ACHL","A1PHDT66U6IK4Q","37S0QRNUFB29SLTNXLPAM35NX0F88U","","","img/flower2.png","75","915.1999999880791","2","1","2","0.7,0.2,0,0,0.7,0.2,0.2,0,0.7",""
"null","","html-keyboard-response","297","467923","0.0-297.0","3A4TN5196L46JJIN834NQLQTV8ACHL","A1PHDT66U6IK4Q","37S0QRNUFB29SLTNXLPAM35NX0F88U","","","<img src=""img/flower2.png"" style=""width:200px; border:14px solid green;"">","null","","","","","",""
"886.7000000029802","","image-keyboard-response","298","468811","0.0-298.0","3A4TN5196L46JJIN834NQLQTV8ACHL","A1PHDT66U6IK4Q","37S0QRNUFB29SLTNXLPAM35NX0F88U","","","img/flower1.png","74","887.2999999970198","1","0","3","0.7,0.2,0,0,0.7,0.2,0.2,0,0.7",""
"null","","html-keyboard-response","299","469115","0.0-299.0","3A4TN5196L46JJIN834NQLQTV8ACHL","A1PHDT66U6IK4Q","37S0QRNUFB29SLTNXLPAM35NX0F88U","","","<img src=""img/flower1.png"" style=""width:200px;border:14px solid red;"">","null","","","","","",""
"889.7000000029802","","image-keyboard-response","300","470005","0.0-300.0","3A4TN5196L46JJIN834NQLQTV8ACHL","A1PHDT66U6IK4Q","37S0QRNUFB29SLTNXLPAM35NX0F88U","","","img/flower2.png","75","890.4000000059605","2","1","2","0.7,0.2,0,0,0.7,0.2,0.2,0,0.7",""
"null","","html-keyboard-response","301","470309","0.0-301.0","3A4TN5196L46JJIN834NQLQTV8ACHL","A1PHDT66U6IK4Q","37S0QRNUFB29SLTNXLPAM35NX0F88U","","","<img src=""img/flower2.png"" style=""width:200px; border:14px solid green;"">","null","","","","","",""
"817","","image-keyboard-response","302","471126","0.0-302.0","3A4TN5196L46JJIN834NQLQTV8ACHL","A1PHDT66U6IK4Q","37S0QRNUFB29SLTNXLPAM35NX0F88U","","","img/flower3.png","74","817.7999999970198","1","1","1","0.7,0.2,0,0,0.7,0.2,0.2,0,0.7",""
"null","","html-keyboard-response","303","471437","0.0-303.0","3A4TN5196L46JJIN834NQLQTV8ACHL","A1PHDT66U6IK4Q","37S0QRNUFB29SLTNXLPAM35NX0F88U","","","<img src=""img/flower3.png"" style=""width:200px; border:14px solid green;"">","null","","","","","",""
"727.7000000029802","","image-keyboard-response","304","472166","0.0-304.0","3A4TN5196L46JJIN834NQLQTV8ACHL","A1PHDT66U6IK4Q","37S0QRNUFB29SLTNXLPAM35NX0F88U","","","img/flower3.png","74","728.7999999970198","1","1","1","0.7,0.2,0,0,0.7,0.2,0.2,0,0.7",""
"null","","html-keyboard-response","305","472482","0.0-305.0","3A4TN5196L46JJIN834NQLQTV8ACHL","A1PHDT66U6IK4Q","37S0QRNUFB29SLTNXLPAM35NX0F88U","","","<img src=""img/flower3.png"" style=""width:200px; border:14px solid green;"">","null","","","","","",""
"","","html-keyboard-response","306","479648","0.0-306.0","3A4TN5196L46JJIN834NQLQTV8ACHL","A1PHDT66U6IK4Q","37S0QRNUFB29SLTNXLPAM35NX0F88U","","","","","","","","","",""
"2578.7000000029802","","image-keyboard-response","307","482227","0.0-307.0","3A4TN5196L46JJIN834NQLQTV8ACHL","A1PHDT66U6IK4Q","37S0QRNUFB29SLTNXLPAM35NX0F88U","","","img/flower6.png","76","2579.4000000059605","3","0","1","0.7,0.2,0,0.7,0,0.2,0.2,0,0.7",""
"null","","html-keyboard-response","308","482535","0.0-308.0","3A4TN5196L46JJIN834NQLQTV8ACHL","A1PHDT66U6IK4Q","37S0QRNUFB29SLTNXLPAM35NX0F88U","","","<img src=""img/flower6.png"" style=""width:200px;border:14px solid red;"">","null","","","","","",""
"1522.199999988079","","image-keyboard-response","309","484058","0.0-309.0","3A4TN5196L46JJIN834NQLQTV8ACHL","A1PHDT66U6IK4Q","37S0QRNUFB29SLTNXLPAM35NX0F88U","","","img/flower6.png","76","1522.9000000059605","3","0","1","0.7,0.2,0,0.7,0,0.2,0.2,0,0.7",""
"null","","html-keyboard-response","310","484359","0.0-310.0","3A4TN5196L46JJIN834NQLQTV8ACHL","A1PHDT66U6IK4Q","37S0QRNUFB29SLTNXLPAM35NX0F88U","","","<img src=""img/flower6.png"" style=""width:200px;border:14px solid red;"">","null","","","","","",""
"722.7000000029802","","image-keyboard-response","311","485082","0.0-311.0","3A4TN5196L46JJIN834NQLQTV8ACHL","A1PHDT66U6IK4Q","37S0QRNUFB29SLTNXLPAM35NX0F88U","","","img/flower6.png","74","723.3000000119209","1","1","1","0.7,0.2,0,0.7,0,0.2,0.2,0,0.7",""
"null","","html-keyboard-response","312","485386","0.0-312.0","3A4TN5196L46JJIN834NQLQTV8ACHL","A1PHDT66U6IK4Q","37S0QRNUFB29SLTNXLPAM35NX0F88U","","","<img src=""img/flower6.png"" style=""width:200px; border:14px solid green;"">","null","","","","","",""
"942.8000000119209","","image-keyboard-response","313","486330","0.0-313.0","3A4TN5196L46JJIN834NQLQTV8ACHL","A1PHDT66U6IK4Q","37S0QRNUFB29SLTNXLPAM35NX0F88U","","","img/flower6.png","74","943.6000000089407","1","1","1","0.7,0.2,0,0.7,0,0.2,0.2,0,0.7",""
"null","","html-keyboard-response","314","486637","0.0-314.0","3A4TN5196L46JJIN834NQLQTV8ACHL","A1PHDT66U6IK4Q","37S0QRNUFB29SLTNXLPAM35NX0F88U","","","<img src=""img/flower6.png"" style=""width:200px; border:14px solid green;"">","null","","","","","",""
"1298.5","","image-keyboard-response","315","487937","0.0-315.0","3A4TN5196L46JJIN834NQLQTV8ACHL","A1PHDT66U6IK4Q","37S0QRNUFB29SLTNXLPAM35NX0F88U","","","img/flower6.png","74","1299.5999999940395","1","1","1","0.7,0.2,0,0.7,0,0.2,0.2,0,0.7",""
"null","","html-keyboard-response","316","488245","0.0-316.0","3A4TN5196L46JJIN834NQLQTV8ACHL","A1PHDT66U6IK4Q","37S0QRNUFB29SLTNXLPAM35NX0F88U","","","<img src=""img/flower6.png"" style=""width:200px; border:14px solid green;"">","null","","","","","",""
"1861.2000000029802","","image-keyboard-response","317","490107","0.0-317.0","3A4TN5196L46JJIN834NQLQTV8ACHL","A1PHDT66U6IK4Q","37S0QRNUFB29SLTNXLPAM35NX0F88U","","","img/flower5.png","75","1861.800000011921","2","0","3","0.7,0.2,0,0.7,0,0.2,0.2,0,0.7",""
"null","","html-keyboard-response","318","490424","0.0-318.0","3A4TN5196L46JJIN834NQLQTV8ACHL","A1PHDT66U6IK4Q","37S0QRNUFB29SLTNXLPAM35NX0F88U","","","<img src=""img/flower5.png"" style=""width:200px;border:14px solid red;"">","null","","","","","",""
"1282.9000000059605","","image-keyboard-response","319","491708","0.0-319.0","3A4TN5196L46JJIN834NQLQTV8ACHL","A1PHDT66U6IK4Q","37S0QRNUFB29SLTNXLPAM35NX0F88U","","","img/flower6.png","76","1283.5","3","0","1","0.7,0.2,0,0.7,0,0.2,0.2,0,0.7",""
"null","","html-keyboard-response","320","492015","0.0-320.0","3A4TN5196L46JJIN834NQLQTV8ACHL","A1PHDT66U6IK4Q","37S0QRNUFB29SLTNXLPAM35NX0F88U","","","<img src=""img/flower6.png"" style=""width:200px;border:14px solid red;"">","null","","","","","",""
"1480","","image-keyboard-response","321","493496","0.0-321.0","3A4TN5196L46JJIN834NQLQTV8ACHL","A1PHDT66U6IK4Q","37S0QRNUFB29SLTNXLPAM35NX0F88U","","","img/flower6.png","74","1480.7999999970198","1","1","1","0.7,0.2,0,0.7,0,0.2,0.2,0,0.7",""
"null","","html-keyboard-response","322","493803","0.0-322.0","3A4TN5196L46JJIN834NQLQTV8ACHL","A1PHDT66U6IK4Q","37S0QRNUFB29SLTNXLPAM35NX0F88U","","","<img src=""img/flower6.png"" style=""width:200px; border:14px solid green;"">","null","","","","","",""
"1048.5999999940395","","image-keyboard-response","323","494852","0.0-323.0","3A4TN5196L46JJIN834NQLQTV8ACHL","A1PHDT66U6IK4Q","37S0QRNUFB29SLTNXLPAM35NX0F88U","","","img/flower5.png","76","1049.2000000029802","3","1","3","0.7,0.2,0,0.7,0,0.2,0.2,0,0.7",""
"null","","html-keyboard-response","324","495160","0.0-324.0","3A4TN5196L46JJIN834NQLQTV8ACHL","A1PHDT66U6IK4Q","37S0QRNUFB29SLTNXLPAM35NX0F88U","","","<img src=""img/flower5.png"" style=""width:200px; border:14px solid green;"">","null","","","","","",""
"1249","","image-keyboard-response","325","496409","0.0-325.0","3A4TN5196L46JJIN834NQLQTV8ACHL","A1PHDT66U6IK4Q","37S0QRNUFB29SLTNXLPAM35NX0F88U","","","img/flower4.png","74","1249.5999999940395","1","1","2","0.7,0.2,0,0.7,0,0.2,0.2,0,0.7",""
"null","","html-keyboard-response","326","496712","0.0-326.0","3A4TN5196L46JJIN834NQLQTV8ACHL","A1PHDT66U6IK4Q","37S0QRNUFB29SLTNXLPAM35NX0F88U","","","<img src=""img/flower4.png"" style=""width:200px; border:14px solid green;"">","null","","","","","",""
"1358.2000000029802","","image-keyboard-response","327","498071","0.0-327.0","3A4TN5196L46JJIN834NQLQTV8ACHL","A1PHDT66U6IK4Q","37S0QRNUFB29SLTNXLPAM35NX0F88U","","","img/flower4.png","74","1359","1","1","2","0.7,0.2,0,0.7,0,0.2,0.2,0,0.7",""
"null","","html-keyboard-response","328","498379","0.0-328.0","3A4TN5196L46JJIN834NQLQTV8ACHL","A1PHDT66U6IK4Q","37S0QRNUFB29SLTNXLPAM35NX0F88U","","","<img src=""img/flower4.png"" style=""width:200px; border:14px solid green;"">","null","","","","","",""
"1123.7999999970198","","image-keyboard-response","329","499504","0.0-329.0","3A4TN5196L46JJIN834NQLQTV8ACHL","A1PHDT66U6IK4Q","37S0QRNUFB29SLTNXLPAM35NX0F88U","","","img/flower5.png","76","1124.6000000089407","3","0","3","0.7,0.2,0,0.7,0,0.2,0.2,0,0.7",""
"null","","html-keyboard-response","330","499818","0.0-330.0","3A4TN5196L46JJIN834NQLQTV8ACHL","A1PHDT66U6IK4Q","37S0QRNUFB29SLTNXLPAM35NX0F88U","","","<img src=""img/flower5.png"" style=""width:200px;border:14px solid red;"">","null","","","","","",""
"999.2000000029802","","image-keyboard-response","331","500818","0.0-331.0","3A4TN5196L46JJIN834NQLQTV8ACHL","A1PHDT66U6IK4Q","37S0QRNUFB29SLTNXLPAM35NX0F88U","","","img/flower4.png","74","999.7000000029802","1","1","2","0.7,0.2,0,0.7,0,0.2,0.2,0,0.7",""
"null","","html-keyboard-response","332","501126","0.0-332.0","3A4TN5196L46JJIN834NQLQTV8ACHL","A1PHDT66U6IK4Q","37S0QRNUFB29SLTNXLPAM35NX0F88U","","","<img src=""img/flower4.png"" style=""width:200px; border:14px solid green;"">","null","","","","","",""
"787.5999999940395","","image-keyboard-response","333","501915","0.0-333.0","3A4TN5196L46JJIN834NQLQTV8ACHL","A1PHDT66U6IK4Q","37S0QRNUFB29SLTNXLPAM35NX0F88U","","","img/flower4.png","74","788.2999999970198","1","0","2","0.7,0.2,0,0.7,0,0.2,0.2,0,0.7",""
"null","","html-keyboard-response","334","502217","0.0-334.0","3A4TN5196L46JJIN834NQLQTV8ACHL","A1PHDT66U6IK4Q","37S0QRNUFB29SLTNXLPAM35NX0F88U","","","<img src=""img/flower4.png"" style=""width:200px;border:14px solid red;"">","null","","","","","",""
"980.9000000059605","","image-keyboard-response","335","503199","0.0-335.0","3A4TN5196L46JJIN834NQLQTV8ACHL","A1PHDT66U6IK4Q","37S0QRNUFB29SLTNXLPAM35NX0F88U","","","img/flower5.png","76","981.7000000029802","3","1","3","0.7,0.2,0,0.7,0,0.2,0.2,0,0.7",""
"null","","html-keyboard-response","336","503508","0.0-336.0","3A4TN5196L46JJIN834NQLQTV8ACHL","A1PHDT66U6IK4Q","37S0QRNUFB29SLTNXLPAM35NX0F88U","","","<img src=""img/flower5.png"" style=""width:200px; border:14px solid green;"">","null","","","","","",""
"943.2000000029802","","image-keyboard-response","337","504452","0.0-337.0","3A4TN5196L46JJIN834NQLQTV8ACHL","A1PHDT66U6IK4Q","37S0QRNUFB29SLTNXLPAM35NX0F88U","","","img/flower4.png","74","944","1","0","2","0.7,0.2,0,0.7,0,0.2,0.2,0,0.7",""
"null","","html-keyboard-response","338","504770","0.0-338.0","3A4TN5196L46JJIN834NQLQTV8ACHL","A1PHDT66U6IK4Q","37S0QRNUFB29SLTNXLPAM35NX0F88U","","","<img src=""img/flower4.png"" style=""width:200px;border:14px solid red;"">","null","","","","","",""
"1392.9000000059605","","image-keyboard-response","339","506164","0.0-339.0","3A4TN5196L46JJIN834NQLQTV8ACHL","A1PHDT66U6IK4Q","37S0QRNUFB29SLTNXLPAM35NX0F88U","","","img/flower5.png","76","1393.7999999970198","3","1","3","0.7,0.2,0,0.7,0,0.2,0.2,0,0.7",""
"null","","html-keyboard-response","340","506478","0.0-340.0","3A4TN5196L46JJIN834NQLQTV8ACHL","A1PHDT66U6IK4Q","37S0QRNUFB29SLTNXLPAM35NX0F88U","","","<img src=""img/flower5.png"" style=""width:200px; border:14px solid green;"">","null","","","","","",""
"1355.699999988079","","image-keyboard-response","341","507835","0.0-341.0","3A4TN5196L46JJIN834NQLQTV8ACHL","A1PHDT66U6IK4Q","37S0QRNUFB29SLTNXLPAM35NX0F88U","","","img/flower5.png","76","1356.4000000059605","3","1","3","0.7,0.2,0,0.7,0,0.2,0.2,0,0.7",""
"null","","html-keyboard-response","342","508138","0.0-342.0","3A4TN5196L46JJIN834NQLQTV8ACHL","A1PHDT66U6IK4Q","37S0QRNUFB29SLTNXLPAM35NX0F88U","","","<img src=""img/flower5.png"" style=""width:200px; border:14px solid green;"">","null","","","","","",""
"1369.7999999970198","","image-keyboard-response","343","509509","0.0-343.0","3A4TN5196L46JJIN834NQLQTV8ACHL","A1PHDT66U6IK4Q","37S0QRNUFB29SLTNXLPAM35NX0F88U","","","img/flower4.png","75","1370.4000000059605","2","0","2","0.7,0.2,0,0.7,0,0.2,0.2,0,0.7",""
"null","","html-keyboard-response","344","509825","0.0-344.0","3A4TN5196L46JJIN834NQLQTV8ACHL","A1PHDT66U6IK4Q","37S0QRNUFB29SLTNXLPAM35NX0F88U","","","<img src=""img/flower4.png"" style=""width:200px;border:14px solid red;"">","null","","","","","",""
"861.7999999970198","","image-keyboard-response","345","510688","0.0-345.0","3A4TN5196L46JJIN834NQLQTV8ACHL","A1PHDT66U6IK4Q","37S0QRNUFB29SLTNXLPAM35NX0F88U","","","img/flower4.png","74","862.5","1","0","2","0.7,0.2,0,0.7,0,0.2,0.2,0,0.7",""
"null","","html-keyboard-response","346","510997","0.0-346.0","3A4TN5196L46JJIN834NQLQTV8ACHL","A1PHDT66U6IK4Q","37S0QRNUFB29SLTNXLPAM35NX0F88U","","","<img src=""img/flower4.png"" style=""width:200px;border:14px solid red;"">","null","","","","","",""
"1252.6000000089407","","image-keyboard-response","347","512251","0.0-347.0","3A4TN5196L46JJIN834NQLQTV8ACHL","A1PHDT66U6IK4Q","37S0QRNUFB29SLTNXLPAM35NX0F88U","","","img/flower4.png","74","1253.1000000089407","1","1","2","0.7,0.2,0,0.7,0,0.2,0.2,0,0.7",""
"null","","html-keyboard-response","348","512560","0.0-348.0","3A4TN5196L46JJIN834NQLQTV8ACHL","A1PHDT66U6IK4Q","37S0QRNUFB29SLTNXLPAM35NX0F88U","","","<img src=""img/flower4.png"" style=""width:200px; border:14px solid green;"">","null","","","","","",""
"967","","image-keyboard-response","349","513528","0.0-349.0","3A4TN5196L46JJIN834NQLQTV8ACHL","A1PHDT66U6IK4Q","37S0QRNUFB29SLTNXLPAM35NX0F88U","","","img/flower4.png","74","967.7999999970198","1","0","2","0.7,0.2,0,0.7,0,0.2,0.2,0,0.7",""
"null","","html-keyboard-response","350","513836","0.0-350.0","3A4TN5196L46JJIN834NQLQTV8ACHL","A1PHDT66U6IK4Q","37S0QRNUFB29SLTNXLPAM35NX0F88U","","","<img src=""img/flower4.png"" style=""width:200px;border:14px solid red;"">","null","","","","","",""
"1801.2000000029802","","image-keyboard-response","351","515638","0.0-351.0","3A4TN5196L46JJIN834NQLQTV8ACHL","A1PHDT66U6IK4Q","37S0QRNUFB29SLTNXLPAM35NX0F88U","","","img/flower4.png","74","1801.7999999970198","1","1","2","0.7,0.2,0,0.7,0,0.2,0.2,0,0.7",""
"null","","html-keyboard-response","352","515940","0.0-352.0","3A4TN5196L46JJIN834NQLQTV8ACHL","A1PHDT66U6IK4Q","37S0QRNUFB29SLTNXLPAM35NX0F88U","","","<img src=""img/flower4.png"" style=""width:200px; border:14px solid green;"">","null","","","","","",""
"3075.5","","image-keyboard-response","353","519016","0.0-353.0","3A4TN5196L46JJIN834NQLQTV8ACHL","A1PHDT66U6IK4Q","37S0QRNUFB29SLTNXLPAM35NX0F88U","","","img/flower6.png","76","3076.199999988079","3","0","1","0.7,0.2,0,0.7,0,0.2,0.2,0,0.7",""
"null","","html-keyboard-response","354","519328","0.0-354.0","3A4TN5196L46JJIN834NQLQTV8ACHL","A1PHDT66U6IK4Q","37S0QRNUFB29SLTNXLPAM35NX0F88U","","","<img src=""img/flower6.png"" style=""width:200px;border:14px solid red;"">","null","","","","","",""
"972.8999999910593","","image-keyboard-response","355","520301","0.0-355.0","3A4TN5196L46JJIN834NQLQTV8ACHL","A1PHDT66U6IK4Q","37S0QRNUFB29SLTNXLPAM35NX0F88U","","","img/flower4.png","74","973.5","1","0","2","0.7,0.2,0,0.7,0,0.2,0.2,0,0.7",""
"null","","html-keyboard-response","356","520605","0.0-356.0","3A4TN5196L46JJIN834NQLQTV8ACHL","A1PHDT66U6IK4Q","37S0QRNUFB29SLTNXLPAM35NX0F88U","","","<img src=""img/flower4.png"" style=""width:200px;border:14px solid red;"">","null","","","","","",""
"645.1000000089407","","image-keyboard-response","357","521250","0.0-357.0","3A4TN5196L46JJIN834NQLQTV8ACHL","A1PHDT66U6IK4Q","37S0QRNUFB29SLTNXLPAM35NX0F88U","","","img/flower4.png","74","645.7999999970198","1","0","2","0.7,0.2,0,0.7,0,0.2,0.2,0,0.7",""
"null","","html-keyboard-response","358","521566","0.0-358.0","3A4TN5196L46JJIN834NQLQTV8ACHL","A1PHDT66U6IK4Q","37S0QRNUFB29SLTNXLPAM35NX0F88U","","","<img src=""img/flower4.png"" style=""width:200px;border:14px solid red;"">","null","","","","","",""
"1029.2000000029802","","image-keyboard-response","359","522596","0.0-359.0","3A4TN5196L46JJIN834NQLQTV8ACHL","A1PHDT66U6IK4Q","37S0QRNUFB29SLTNXLPAM35NX0F88U","","","img/flower6.png","74","1029.800000011921","1","1","1","0.7,0.2,0,0.7,0,0.2,0.2,0,0.7",""
"null","","html-keyboard-response","360","522901","0.0-360.0","3A4TN5196L46JJIN834NQLQTV8ACHL","A1PHDT66U6IK4Q","37S0QRNUFB29SLTNXLPAM35NX0F88U","","","<img src=""img/flower6.png"" style=""width:200px; border:14px solid green;"">","null","","","","","",""
"2205","","image-keyboard-response","361","525107","0.0-361.0","3A4TN5196L46JJIN834NQLQTV8ACHL","A1PHDT66U6IK4Q","37S0QRNUFB29SLTNXLPAM35NX0F88U","","","img/flower4.png","75","2205.5","2","0","2","0.7,0.2,0,0.7,0,0.2,0.2,0,0.7",""
"null","","html-keyboard-response","362","525415","0.0-362.0","3A4TN5196L46JJIN834NQLQTV8ACHL","A1PHDT66U6IK4Q","37S0QRNUFB29SLTNXLPAM35NX0F88U","","","<img src=""img/flower4.png"" style=""width:200px;border:14px solid red;"">","null","","","","","",""
"1453.4000000059605","","image-keyboard-response","363","526870","0.0-363.0","3A4TN5196L46JJIN834NQLQTV8ACHL","A1PHDT66U6IK4Q","37S0QRNUFB29SLTNXLPAM35NX0F88U","","","img/flower5.png","76","1453.8999999910593","3","0","3","0.7,0.2,0,0.7,0,0.2,0.2,0,0.7",""
"null","","html-keyboard-response","364","527178","0.0-364.0","3A4TN5196L46JJIN834NQLQTV8ACHL","A1PHDT66U6IK4Q","37S0QRNUFB29SLTNXLPAM35NX0F88U","","","<img src=""img/flower5.png"" style=""width:200px;border:14px solid red;"">","null","","","","","",""
"960.5","","image-keyboard-response","365","528139","0.0-365.0","3A4TN5196L46JJIN834NQLQTV8ACHL","A1PHDT66U6IK4Q","37S0QRNUFB29SLTNXLPAM35NX0F88U","","","img/flower6.png","76","961.2000000029802","3","0","1","0.7,0.2,0,0.7,0,0.2,0.2,0,0.7",""
"null","","html-keyboard-response","366","528441","0.0-366.0","3A4TN5196L46JJIN834NQLQTV8ACHL","A1PHDT66U6IK4Q","37S0QRNUFB29SLTNXLPAM35NX0F88U","","","<img src=""img/flower6.png"" style=""width:200px;border:14px solid red;"">","null","","","","","",""
"927.7999999970198","","image-keyboard-response","367","529369","0.0-367.0","3A4TN5196L46JJIN834NQLQTV8ACHL","A1PHDT66U6IK4Q","37S0QRNUFB29SLTNXLPAM35NX0F88U","","","img/flower6.png","74","928.7000000029802","1","1","1","0.7,0.2,0,0.7,0,0.2,0.2,0,0.7",""
"null","","html-keyboard-response","368","529675","0.0-368.0","3A4TN5196L46JJIN834NQLQTV8ACHL","A1PHDT66U6IK4Q","37S0QRNUFB29SLTNXLPAM35NX0F88U","","","<img src=""img/flower6.png"" style=""width:200px; border:14px solid green;"">","null","","","","","",""
"1482.4000000059605","","image-keyboard-response","369","531158","0.0-369.0","3A4TN5196L46JJIN834NQLQTV8ACHL","A1PHDT66U6IK4Q","37S0QRNUFB29SLTNXLPAM35NX0F88U","","","img/flower5.png","75","1482.7999999970198","2","0","3","0.7,0.2,0,0.7,0,0.2,0.2,0,0.7",""
"null","","html-keyboard-response","370","531466","0.0-370.0","3A4TN5196L46JJIN834NQLQTV8ACHL","A1PHDT66U6IK4Q","37S0QRNUFB29SLTNXLPAM35NX0F88U","","","<img src=""img/flower5.png"" style=""width:200px;border:14px solid red;"">","null","","","","","",""
"2377.2999999970198","","image-keyboard-response","371","533844","0.0-371.0","3A4TN5196L46JJIN834NQLQTV8ACHL","A1PHDT66U6IK4Q","37S0QRNUFB29SLTNXLPAM35NX0F88U","","","img/flower4.png","76","2378.0999999940395","3","1","2","0.7,0.2,0,0.7,0,0.2,0.2,0,0.7",""
"null","","html-keyboard-response","372","534156","0.0-372.0","3A4TN5196L46JJIN834NQLQTV8ACHL","A1PHDT66U6IK4Q","37S0QRNUFB29SLTNXLPAM35NX0F88U","","","<img src=""img/flower4.png"" style=""width:200px; border:14px solid green;"">","null","","","","","",""
"2383.0999999940395","","image-keyboard-response","373","536540","0.0-373.0","3A4TN5196L46JJIN834NQLQTV8ACHL","A1PHDT66U6IK4Q","37S0QRNUFB29SLTNXLPAM35NX0F88U","","","img/flower5.png","76","2383.5999999940395","3","0","3","0.7,0.2,0,0.7,0,0.2,0.2,0,0.7",""
"null","","html-keyboard-response","374","536845","0.0-374.0","3A4TN5196L46JJIN834NQLQTV8ACHL","A1PHDT66U6IK4Q","37S0QRNUFB29SLTNXLPAM35NX0F88U","","","<img src=""img/flower5.png"" style=""width:200px;border:14px solid red;"">","null","","","","","",""
"1427.0999999940395","","image-keyboard-response","375","538273","0.0-375.0","3A4TN5196L46JJIN834NQLQTV8ACHL","A1PHDT66U6IK4Q","37S0QRNUFB29SLTNXLPAM35NX0F88U","","","img/flower5.png","75","1428.0999999940395","2","0","3","0.7,0.2,0,0.7,0,0.2,0.2,0,0.7",""
"null","","html-keyboard-response","376","538578","0.0-376.0","3A4TN5196L46JJIN834NQLQTV8ACHL","A1PHDT66U6IK4Q","37S0QRNUFB29SLTNXLPAM35NX0F88U","","","<img src=""img/flower5.png"" style=""width:200px;border:14px solid red;"">","null","","","","","",""
"1718.5","","image-keyboard-response","377","540297","0.0-377.0","3A4TN5196L46JJIN834NQLQTV8ACHL","A1PHDT66U6IK4Q","37S0QRNUFB29SLTNXLPAM35NX0F88U","","","img/flower6.png","74","1719.0999999940395","1","1","1","0.7,0.2,0,0.7,0,0.2,0.2,0,0.7",""
"null","","html-keyboard-response","378","540606","0.0-378.0","3A4TN5196L46JJIN834NQLQTV8ACHL","A1PHDT66U6IK4Q","37S0QRNUFB29SLTNXLPAM35NX0F88U","","","<img src=""img/flower6.png"" style=""width:200px; border:14px solid green;"">","null","","","","","",""
"1487.5","","image-keyboard-response","379","542094","0.0-379.0","3A4TN5196L46JJIN834NQLQTV8ACHL","A1PHDT66U6IK4Q","37S0QRNUFB29SLTNXLPAM35NX0F88U","","","img/flower4.png","76","1488.1000000089407","3","0","2","0.7,0.2,0,0.7,0,0.2,0.2,0,0.7",""
"null","","html-keyboard-response","380","542398","0.0-380.0","3A4TN5196L46JJIN834NQLQTV8ACHL","A1PHDT66U6IK4Q","37S0QRNUFB29SLTNXLPAM35NX0F88U","","","<img src=""img/flower4.png"" style=""width:200px;border:14px solid red;"">","null","","","","","",""
"857.6000000089407","","image-keyboard-response","381","543258","0.0-381.0","3A4TN5196L46JJIN834NQLQTV8ACHL","A1PHDT66U6IK4Q","37S0QRNUFB29SLTNXLPAM35NX0F88U","","","img/flower4.png","74","859.5999999940395","1","1","2","0.7,0.2,0,0.7,0,0.2,0.2,0,0.7",""
"null","","html-keyboard-response","382","543565","0.0-382.0","3A4TN5196L46JJIN834NQLQTV8ACHL","A1PHDT66U6IK4Q","37S0QRNUFB29SLTNXLPAM35NX0F88U","","","<img src=""img/flower4.png"" style=""width:200px; border:14px solid green;"">","null","","","","","",""
"1270.5999999940395","","image-keyboard-response","383","544836","0.0-383.0","3A4TN5196L46JJIN834NQLQTV8ACHL","A1PHDT66U6IK4Q","37S0QRNUFB29SLTNXLPAM35NX0F88U","","","img/flower5.png","75","1271.2000000029802","2","0","3","0.7,0.2,0,0.7,0,0.2,0.2,0,0.7",""
"null","","html-keyboard-response","384","545145","0.0-384.0","3A4TN5196L46JJIN834NQLQTV8ACHL","A1PHDT66U6IK4Q","37S0QRNUFB29SLTNXLPAM35NX0F88U","","","<img src=""img/flower5.png"" style=""width:200px;border:14px solid red;"">","null","","","","","",""
"1197.300000011921","","image-keyboard-response","385","546343","0.0-385.0","3A4TN5196L46JJIN834NQLQTV8ACHL","A1PHDT66U6IK4Q","37S0QRNUFB29SLTNXLPAM35NX0F88U","","","img/flower4.png","74","1197.8999999910593","1","1","2","0.7,0.2,0,0.7,0,0.2,0.2,0,0.7",""
"null","","html-keyboard-response","386","546661","0.0-386.0","3A4TN5196L46JJIN834NQLQTV8ACHL","A1PHDT66U6IK4Q","37S0QRNUFB29SLTNXLPAM35NX0F88U","","","<img src=""img/flower4.png"" style=""width:200px; border:14px solid green;"">","null","","","","","",""
"1558.7999999970198","","image-keyboard-response","387","548222","0.0-387.0","3A4TN5196L46JJIN834NQLQTV8ACHL","A1PHDT66U6IK4Q","37S0QRNUFB29SLTNXLPAM35NX0F88U","","","img/flower5.png","76","1559.3999999910593","3","0","3","0.7,0.2,0,0.7,0,0.2,0.2,0,0.7",""
"null","","html-keyboard-response","388","548536","0.0-388.0","3A4TN5196L46JJIN834NQLQTV8ACHL","A1PHDT66U6IK4Q","37S0QRNUFB29SLTNXLPAM35NX0F88U","","","<img src=""img/flower5.png"" style=""width:200px;border:14px solid red;"">","null","","","","","",""
"869.2000000029802","","image-keyboard-response","389","549406","0.0-389.0","3A4TN5196L46JJIN834NQLQTV8ACHL","A1PHDT66U6IK4Q","37S0QRNUFB29SLTNXLPAM35NX0F88U","","","img/flower4.png","74","869.7999999970198","1","1","2","0.7,0.2,0,0.7,0,0.2,0.2,0,0.7",""
"null","","html-keyboard-response","390","549723","0.0-390.0","3A4TN5196L46JJIN834NQLQTV8ACHL","A1PHDT66U6IK4Q","37S0QRNUFB29SLTNXLPAM35NX0F88U","","","<img src=""img/flower4.png"" style=""width:200px; border:14px solid green;"">","null","","","","","",""
"1382","","image-keyboard-response","391","551106","0.0-391.0","3A4TN5196L46JJIN834NQLQTV8ACHL","A1PHDT66U6IK4Q","37S0QRNUFB29SLTNXLPAM35NX0F88U","","","img/flower6.png","74","1382.7000000029802","1","1","1","0.7,0.2,0,0.7,0,0.2,0.2,0,0.7",""
"null","","html-keyboard-response","392","551410","0.0-392.0","3A4TN5196L46JJIN834NQLQTV8ACHL","A1PHDT66U6IK4Q","37S0QRNUFB29SLTNXLPAM35NX0F88U","","","<img src=""img/flower6.png"" style=""width:200px; border:14px solid green;"">","null","","","","","",""
"1242","","image-keyboard-response","393","552653","0.0-393.0","3A4TN5196L46JJIN834NQLQTV8ACHL","A1PHDT66U6IK4Q","37S0QRNUFB29SLTNXLPAM35NX0F88U","","","img/flower5.png","74","1242.5","1","0","3","0.7,0.2,0,0.7,0,0.2,0.2,0,0.7",""
"null","","html-keyboard-response","394","552956","0.0-394.0","3A4TN5196L46JJIN834NQLQTV8ACHL","A1PHDT66U6IK4Q","37S0QRNUFB29SLTNXLPAM35NX0F88U","","","<img src=""img/flower5.png"" style=""width:200px;border:14px solid red;"">","null","","","","","",""
"2316.3999999910593","","image-keyboard-response","395","555273","0.0-395.0","3A4TN5196L46JJIN834NQLQTV8ACHL","A1PHDT66U6IK4Q","37S0QRNUFB29SLTNXLPAM35NX0F88U","","","img/flower4.png","74","2317","1","1","2","0.7,0.2,0,0.7,0,0.2,0.2,0,0.7",""
"null","","html-keyboard-response","396","555585","0.0-396.0","3A4TN5196L46JJIN834NQLQTV8ACHL","A1PHDT66U6IK4Q","37S0QRNUFB29SLTNXLPAM35NX0F88U","","","<img src=""img/flower4.png"" style=""width:200px; border:14px solid green;"">","null","","","","","",""
"2352.5","","image-keyboard-response","397","557938","0.0-397.0","3A4TN5196L46JJIN834NQLQTV8ACHL","A1PHDT66U6IK4Q","37S0QRNUFB29SLTNXLPAM35NX0F88U","","","img/flower4.png","74","2353.0999999940395","1","1","2","0.7,0.2,0,0.7,0,0.2,0.2,0,0.7",""
"null","","html-keyboard-response","398","558239","0.0-398.0","3A4TN5196L46JJIN834NQLQTV8ACHL","A1PHDT66U6IK4Q","37S0QRNUFB29SLTNXLPAM35NX0F88U","","","<img src=""img/flower4.png"" style=""width:200px; border:14px solid green;"">","null","","","","","",""
"2155.4000000059605","","image-keyboard-response","399","560395","0.0-399.0","3A4TN5196L46JJIN834NQLQTV8ACHL","A1PHDT66U6IK4Q","37S0QRNUFB29SLTNXLPAM35NX0F88U","","","img/flower6.png","76","2156","3","0","1","0.7,0.2,0,0.7,0,0.2,0.2,0,0.7",""
"null","","html-keyboard-response","400","560706","0.0-400.0","3A4TN5196L46JJIN834NQLQTV8ACHL","A1PHDT66U6IK4Q","37S0QRNUFB29SLTNXLPAM35NX0F88U","","","<img src=""img/flower6.png"" style=""width:200px;border:14px solid red;"">","null","","","","","",""
"1503.4000000059605","","image-keyboard-response","401","562210","0.0-401.0","3A4TN5196L46JJIN834NQLQTV8ACHL","A1PHDT66U6IK4Q","37S0QRNUFB29SLTNXLPAM35NX0F88U","","","img/flower5.png","76","1504","3","1","3","0.7,0.2,0,0.7,0,0.2,0.2,0,0.7",""
