"rt","url","trial_type","trial_index","time_elapsed","internal_node_id","assignmentID","mturkID","hitID","success","view_history","stimulus","key_press","reactionTime","a","r","s","reward_cond","responses"
"2981.699999988079","consent.html","external-html","0","3089","0.0-0.0","3NJM2BJS4XSYW0GBRGCSZUSKHZKCPQ","A1YSYI926BBOHW","39KMGHJ4RZW9S7JH7DZG09TNV4R00C","","","","","","","","","",""
"","","fullscreen","1","5625","0.0-1.0","3NJM2BJS4XSYW0GBRGCSZUSKHZKCPQ","A1YSYI926BBOHW","39KMGHJ4RZW9S7JH7DZG09TNV4R00C","true","","","","","","","","",""
"19812.40000000596","","instructions","2","25438","0.0-2.0","3NJM2BJS4XSYW0GBRGCSZUSKHZKCPQ","A1YSYI926BBOHW","39KMGHJ4RZW9S7JH7DZG09TNV4R00C","","[{""page_index"":0,""viewing_time"":2553.9000000059605},{""page_index"":1,""viewing_time"":2701.0999999940395},{""page_index"":2,""viewing_time"":4475.79999999702},{""page_index"":3,""viewing_time"":4541.20000000298},{""page_index"":4,""viewing_time"":3877.7999999970198},{""page_index"":5,""viewing_time"":1661.9000000059605}]","","","","","","","",""
"7111.20000000298","","instructions","3","32550","0.0-3.0","3NJM2BJS4XSYW0GBRGCSZUSKHZKCPQ","A1YSYI926BBOHW","39KMGHJ4RZW9S7JH7DZG09TNV4R00C","","[{""page_index"":0,""viewing_time"":7111}]","","","","","","","",""
"1398.9000000059605","","image-keyboard-response","4","33950","0.0-4.0","3NJM2BJS4XSYW0GBRGCSZUSKHZKCPQ","A1YSYI926BBOHW","39KMGHJ4RZW9S7JH7DZG09TNV4R00C","","","img/flower5.png","75","1400.5999999940395","2","1","2","",""
"null","","html-keyboard-response","5","34255","0.0-5.0","3NJM2BJS4XSYW0GBRGCSZUSKHZKCPQ","A1YSYI926BBOHW","39KMGHJ4RZW9S7JH7DZG09TNV4R00C","","","<img src=""img/flower5.png"" style=""width:200px; border:14px solid green;"">","null","","","","","",""
"1314.5","","image-keyboard-response","6","35571","0.0-6.0","3NJM2BJS4XSYW0GBRGCSZUSKHZKCPQ","A1YSYI926BBOHW","39KMGHJ4RZW9S7JH7DZG09TNV4R00C","","","img/flower6.png","76","1315.3999999910593","3","1","3","",""
"null","","html-keyboard-response","7","35872","0.0-7.0","3NJM2BJS4XSYW0GBRGCSZUSKHZKCPQ","A1YSYI926BBOHW","39KMGHJ4RZW9S7JH7DZG09TNV4R00C","","","<img src=""img/flower6.png"" style=""width:200px; border:14px solid green;"">","null","","","","","",""
"1749.5999999940395","","image-keyboard-response","8","37623","0.0-8.0","3NJM2BJS4XSYW0GBRGCSZUSKHZKCPQ","A1YSYI926BBOHW","39KMGHJ4RZW9S7JH7DZG09TNV4R00C","","","img/flower6.png","76","1750.5","3","0","3","",""
"null","","html-keyboard-response","9","37924","0.0-9.0","3NJM2BJS4XSYW0GBRGCSZUSKHZKCPQ","A1YSYI926BBOHW","39KMGHJ4RZW9S7JH7DZG09TNV4R00C","","","<img src=""img/flower6.png"" style=""width:200px;border:14px solid red;"">","null","","","","","",""
"675.5999999940395","","image-keyboard-response","10","38601","0.0-10.0","3NJM2BJS4XSYW0GBRGCSZUSKHZKCPQ","A1YSYI926BBOHW","39KMGHJ4RZW9S7JH7DZG09TNV4R00C","","","img/flower4.png","74","676.2000000029802","1","1","1","",""
"null","","html-keyboard-response","11","38901","0.0-11.0","3NJM2BJS4XSYW0GBRGCSZUSKHZKCPQ","A1YSYI926BBOHW","39KMGHJ4RZW9S7JH7DZG09TNV4R00C","","","<img src=""img/flower4.png"" style=""width:200px; border:14px solid green;"">","null","","","","","",""
"794.5","","image-keyboard-response","12","39696","0.0-12.0","3NJM2BJS4XSYW0GBRGCSZUSKHZKCPQ","A1YSYI926BBOHW","39KMGHJ4RZW9S7JH7DZG09TNV4R00C","","","img/flower4.png","74","795.2000000029802","1","1","1","",""
"null","","html-keyboard-response","13","39999","0.0-13.0","3NJM2BJS4XSYW0GBRGCSZUSKHZKCPQ","A1YSYI926BBOHW","39KMGHJ4RZW9S7JH7DZG09TNV4R00C","","","<img src=""img/flower4.png"" style=""width:200px; border:14px solid green;"">","null","","","","","",""
"706.5","","image-keyboard-response","14","40708","0.0-14.0","3NJM2BJS4XSYW0GBRGCSZUSKHZKCPQ","A1YSYI926BBOHW","39KMGHJ4RZW9S7JH7DZG09TNV4R00C","","","img/flower6.png","76","708.0999999940395","3","1","3","",""
"null","","html-keyboard-response","15","41010","0.0-15.0","3NJM2BJS4XSYW0GBRGCSZUSKHZKCPQ","A1YSYI926BBOHW","39KMGHJ4RZW9S7JH7DZG09TNV4R00C","","","<img src=""img/flower6.png"" style=""width:200px; border:14px solid green;"">","null","","","","","",""
"536.5999999940395","","image-keyboard-response","16","41547","0.0-16.0","3NJM2BJS4XSYW0GBRGCSZUSKHZKCPQ","A1YSYI926BBOHW","39KMGHJ4RZW9S7JH7DZG09TNV4R00C","","","img/flower5.png","75","537.7000000029802","2","1","2","",""
"null","","html-keyboard-response","17","41850","0.0-17.0","3NJM2BJS4XSYW0GBRGCSZUSKHZKCPQ","A1YSYI926BBOHW","39KMGHJ4RZW9S7JH7DZG09TNV4R00C","","","<img src=""img/flower5.png"" style=""width:200px; border:14px solid green;"">","null","","","","","",""
"1806.9000000059605","","image-keyboard-response","18","43657","0.0-18.0","3NJM2BJS4XSYW0GBRGCSZUSKHZKCPQ","A1YSYI926BBOHW","39KMGHJ4RZW9S7JH7DZG09TNV4R00C","","","img/flower6.png","76","1807.6000000089407","3","1","3","",""
"null","","html-keyboard-response","19","43959","0.0-19.0","3NJM2BJS4XSYW0GBRGCSZUSKHZKCPQ","A1YSYI926BBOHW","39KMGHJ4RZW9S7JH7DZG09TNV4R00C","","","<img src=""img/flower6.png"" style=""width:200px; border:14px solid green;"">","null","","","","","",""
"846.5999999940395","","image-keyboard-response","20","44807","0.0-20.0","3NJM2BJS4XSYW0GBRGCSZUSKHZKCPQ","A1YSYI926BBOHW","39KMGHJ4RZW9S7JH7DZG09TNV4R00C","","","img/flower6.png","76","847.3999999910593","3","1","3","",""
"null","","html-keyboard-response","21","45108","0.0-21.0","3NJM2BJS4XSYW0GBRGCSZUSKHZKCPQ","A1YSYI926BBOHW","39KMGHJ4RZW9S7JH7DZG09TNV4R00C","","","<img src=""img/flower6.png"" style=""width:200px; border:14px solid green;"">","null","","","","","",""
"1135.9000000059605","","image-keyboard-response","22","46245","0.0-22.0","3NJM2BJS4XSYW0GBRGCSZUSKHZKCPQ","A1YSYI926BBOHW","39KMGHJ4RZW9S7JH7DZG09TNV4R00C","","","img/flower5.png","75","1137.5","2","1","2","",""
"null","","html-keyboard-response","23","46550","0.0-23.0","3NJM2BJS4XSYW0GBRGCSZUSKHZKCPQ","A1YSYI926BBOHW","39KMGHJ4RZW9S7JH7DZG09TNV4R00C","","","<img src=""img/flower5.png"" style=""width:200px; border:14px solid green;"">","null","","","","","",""
"587.8999999910593","","image-keyboard-response","24","47139","0.0-24.0","3NJM2BJS4XSYW0GBRGCSZUSKHZKCPQ","A1YSYI926BBOHW","39KMGHJ4RZW9S7JH7DZG09TNV4R00C","","","img/flower5.png","75","588.7999999970198","2","1","2","",""
"null","","html-keyboard-response","25","47441","0.0-25.0","3NJM2BJS4XSYW0GBRGCSZUSKHZKCPQ","A1YSYI926BBOHW","39KMGHJ4RZW9S7JH7DZG09TNV4R00C","","","<img src=""img/flower5.png"" style=""width:200px; border:14px solid green;"">","null","","","","","",""
"615.7000000029802","","image-keyboard-response","26","48059","0.0-26.0","3NJM2BJS4XSYW0GBRGCSZUSKHZKCPQ","A1YSYI926BBOHW","39KMGHJ4RZW9S7JH7DZG09TNV4R00C","","","img/flower4.png","74","617.2000000029802","1","0","1","",""
"null","","html-keyboard-response","27","48360","0.0-27.0","3NJM2BJS4XSYW0GBRGCSZUSKHZKCPQ","A1YSYI926BBOHW","39KMGHJ4RZW9S7JH7DZG09TNV4R00C","","","<img src=""img/flower4.png"" style=""width:200px;border:14px solid red;"">","null","","","","","",""
"687.9000000059605","","image-keyboard-response","28","49050","0.0-28.0","3NJM2BJS4XSYW0GBRGCSZUSKHZKCPQ","A1YSYI926BBOHW","39KMGHJ4RZW9S7JH7DZG09TNV4R00C","","","img/flower5.png","75","689.5","2","1","2","",""
"null","","html-keyboard-response","29","49352","0.0-29.0","3NJM2BJS4XSYW0GBRGCSZUSKHZKCPQ","A1YSYI926BBOHW","39KMGHJ4RZW9S7JH7DZG09TNV4R00C","","","<img src=""img/flower5.png"" style=""width:200px; border:14px solid green;"">","null","","","","","",""
"564.5","","image-keyboard-response","30","49918","0.0-30.0","3NJM2BJS4XSYW0GBRGCSZUSKHZKCPQ","A1YSYI926BBOHW","39KMGHJ4RZW9S7JH7DZG09TNV4R00C","","","img/flower4.png","74","565.5999999940395","1","0","1","",""
"null","","html-keyboard-response","31","50220","0.0-31.0","3NJM2BJS4XSYW0GBRGCSZUSKHZKCPQ","A1YSYI926BBOHW","39KMGHJ4RZW9S7JH7DZG09TNV4R00C","","","<img src=""img/flower4.png"" style=""width:200px;border:14px solid red;"">","null","","","","","",""
"558.5","","image-keyboard-response","32","50781","0.0-32.0","3NJM2BJS4XSYW0GBRGCSZUSKHZKCPQ","A1YSYI926BBOHW","39KMGHJ4RZW9S7JH7DZG09TNV4R00C","","","img/flower5.png","75","560.2999999970198","2","1","2","",""
"null","","html-keyboard-response","33","51085","0.0-33.0","3NJM2BJS4XSYW0GBRGCSZUSKHZKCPQ","A1YSYI926BBOHW","39KMGHJ4RZW9S7JH7DZG09TNV4R00C","","","<img src=""img/flower5.png"" style=""width:200px; border:14px solid green;"">","null","","","","","",""
"982.2000000029802","","image-keyboard-response","34","52069","0.0-34.0","3NJM2BJS4XSYW0GBRGCSZUSKHZKCPQ","A1YSYI926BBOHW","39KMGHJ4RZW9S7JH7DZG09TNV4R00C","","","img/flower6.png","76","983.7000000029802","3","1","3","",""
"null","","html-keyboard-response","35","52370","0.0-35.0","3NJM2BJS4XSYW0GBRGCSZUSKHZKCPQ","A1YSYI926BBOHW","39KMGHJ4RZW9S7JH7DZG09TNV4R00C","","","<img src=""img/flower6.png"" style=""width:200px; border:14px solid green;"">","null","","","","","",""
"518.4000000059605","","image-keyboard-response","36","52890","0.0-36.0","3NJM2BJS4XSYW0GBRGCSZUSKHZKCPQ","A1YSYI926BBOHW","39KMGHJ4RZW9S7JH7DZG09TNV4R00C","","","img/flower4.png","74","519.2999999970198","1","0","1","",""
"null","","html-keyboard-response","37","53191","0.0-37.0","3NJM2BJS4XSYW0GBRGCSZUSKHZKCPQ","A1YSYI926BBOHW","39KMGHJ4RZW9S7JH7DZG09TNV4R00C","","","<img src=""img/flower4.png"" style=""width:200px;border:14px solid red;"">","null","","","","","",""
"573.6000000089407","","image-keyboard-response","38","53766","0.0-38.0","3NJM2BJS4XSYW0GBRGCSZUSKHZKCPQ","A1YSYI926BBOHW","39KMGHJ4RZW9S7JH7DZG09TNV4R00C","","","img/flower4.png","74","574.5","1","1","1","",""
"null","","html-keyboard-response","39","54067","0.0-39.0","3NJM2BJS4XSYW0GBRGCSZUSKHZKCPQ","A1YSYI926BBOHW","39KMGHJ4RZW9S7JH7DZG09TNV4R00C","","","<img src=""img/flower4.png"" style=""width:200px; border:14px solid green;"">","null","","","","","",""
"714.2999999970198","","image-keyboard-response","40","54782","0.0-40.0","3NJM2BJS4XSYW0GBRGCSZUSKHZKCPQ","A1YSYI926BBOHW","39KMGHJ4RZW9S7JH7DZG09TNV4R00C","","","img/flower6.png","76","715.2000000029802","3","1","3","",""
"null","","html-keyboard-response","41","55084","0.0-41.0","3NJM2BJS4XSYW0GBRGCSZUSKHZKCPQ","A1YSYI926BBOHW","39KMGHJ4RZW9S7JH7DZG09TNV4R00C","","","<img src=""img/flower6.png"" style=""width:200px; border:14px solid green;"">","null","","","","","",""
"754.2000000029802","","image-keyboard-response","42","55839","0.0-42.0","3NJM2BJS4XSYW0GBRGCSZUSKHZKCPQ","A1YSYI926BBOHW","39KMGHJ4RZW9S7JH7DZG09TNV4R00C","","","img/flower5.png","75","754.7999999970198","2","1","2","",""
"null","","html-keyboard-response","43","56141","0.0-43.0","3NJM2BJS4XSYW0GBRGCSZUSKHZKCPQ","A1YSYI926BBOHW","39KMGHJ4RZW9S7JH7DZG09TNV4R00C","","","<img src=""img/flower5.png"" style=""width:200px; border:14px solid green;"">","null","","","","","",""
"447","","image-keyboard-response","44","56589","0.0-44.0","3NJM2BJS4XSYW0GBRGCSZUSKHZKCPQ","A1YSYI926BBOHW","39KMGHJ4RZW9S7JH7DZG09TNV4R00C","","","img/flower5.png","75","447.80000001192093","2","1","2","",""
"null","","html-keyboard-response","45","56890","0.0-45.0","3NJM2BJS4XSYW0GBRGCSZUSKHZKCPQ","A1YSYI926BBOHW","39KMGHJ4RZW9S7JH7DZG09TNV4R00C","","","<img src=""img/flower5.png"" style=""width:200px; border:14px solid green;"">","null","","","","","",""
"1048.7000000029802","","image-keyboard-response","46","57940","0.0-46.0","3NJM2BJS4XSYW0GBRGCSZUSKHZKCPQ","A1YSYI926BBOHW","39KMGHJ4RZW9S7JH7DZG09TNV4R00C","","","img/flower6.png","76","1049.7999999970198","3","0","3","",""
"null","","html-keyboard-response","47","58242","0.0-47.0","3NJM2BJS4XSYW0GBRGCSZUSKHZKCPQ","A1YSYI926BBOHW","39KMGHJ4RZW9S7JH7DZG09TNV4R00C","","","<img src=""img/flower6.png"" style=""width:200px;border:14px solid red;"">","null","","","","","",""
"2202.7000000029802","","image-keyboard-response","48","60447","0.0-48.0","3NJM2BJS4XSYW0GBRGCSZUSKHZKCPQ","A1YSYI926BBOHW","39KMGHJ4RZW9S7JH7DZG09TNV4R00C","","","img/flower5.png","75","2204.2999999970198","2","1","2","",""
"null","","html-keyboard-response","49","60750","0.0-49.0","3NJM2BJS4XSYW0GBRGCSZUSKHZKCPQ","A1YSYI926BBOHW","39KMGHJ4RZW9S7JH7DZG09TNV4R00C","","","<img src=""img/flower5.png"" style=""width:200px; border:14px solid green;"">","null","","","","","",""
"1065.2000000029802","","image-keyboard-response","50","61816","0.0-50.0","3NJM2BJS4XSYW0GBRGCSZUSKHZKCPQ","A1YSYI926BBOHW","39KMGHJ4RZW9S7JH7DZG09TNV4R00C","","","img/flower6.png","76","1066","3","1","3","",""
"null","","html-keyboard-response","51","62117","0.0-51.0","3NJM2BJS4XSYW0GBRGCSZUSKHZKCPQ","A1YSYI926BBOHW","39KMGHJ4RZW9S7JH7DZG09TNV4R00C","","","<img src=""img/flower6.png"" style=""width:200px; border:14px solid green;"">","null","","","","","",""
"835.5999999940395","","image-keyboard-response","52","62955","0.0-52.0","3NJM2BJS4XSYW0GBRGCSZUSKHZKCPQ","A1YSYI926BBOHW","39KMGHJ4RZW9S7JH7DZG09TNV4R00C","","","img/flower6.png","76","837.4000000059605","3","1","3","",""
"null","","html-keyboard-response","53","63258","0.0-53.0","3NJM2BJS4XSYW0GBRGCSZUSKHZKCPQ","A1YSYI926BBOHW","39KMGHJ4RZW9S7JH7DZG09TNV4R00C","","","<img src=""img/flower6.png"" style=""width:200px; border:14px solid green;"">","null","","","","","",""
"529.7999999970198","","image-keyboard-response","54","63789","0.0-54.0","3NJM2BJS4XSYW0GBRGCSZUSKHZKCPQ","A1YSYI926BBOHW","39KMGHJ4RZW9S7JH7DZG09TNV4R00C","","","img/flower4.png","74","530.7000000029802","1","0","1","",""
"null","","html-keyboard-response","55","64090","0.0-55.0","3NJM2BJS4XSYW0GBRGCSZUSKHZKCPQ","A1YSYI926BBOHW","39KMGHJ4RZW9S7JH7DZG09TNV4R00C","","","<img src=""img/flower4.png"" style=""width:200px;border:14px solid red;"">","null","","","","","",""
"1044.5","","image-keyboard-response","56","65135","0.0-56.0","3NJM2BJS4XSYW0GBRGCSZUSKHZKCPQ","A1YSYI926BBOHW","39KMGHJ4RZW9S7JH7DZG09TNV4R00C","","","img/flower4.png","74","1045.199999988079","1","0","1","",""
"null","","html-keyboard-response","57","65437","0.0-57.0","3NJM2BJS4XSYW0GBRGCSZUSKHZKCPQ","A1YSYI926BBOHW","39KMGHJ4RZW9S7JH7DZG09TNV4R00C","","","<img src=""img/flower4.png"" style=""width:200px;border:14px solid red;"">","null","","","","","",""
"3314","","image-keyboard-response","58","68752","0.0-58.0","3NJM2BJS4XSYW0GBRGCSZUSKHZKCPQ","A1YSYI926BBOHW","39KMGHJ4RZW9S7JH7DZG09TNV4R00C","","","img/flower4.png","75","3314.9000000059605","2","1","1","",""
"null","","html-keyboard-response","59","69054","0.0-59.0","3NJM2BJS4XSYW0GBRGCSZUSKHZKCPQ","A1YSYI926BBOHW","39KMGHJ4RZW9S7JH7DZG09TNV4R00C","","","<img src=""img/flower4.png"" style=""width:200px; border:14px solid green;"">","null","","","","","",""
"718.3999999910593","","image-keyboard-response","60","69775","0.0-60.0","3NJM2BJS4XSYW0GBRGCSZUSKHZKCPQ","A1YSYI926BBOHW","39KMGHJ4RZW9S7JH7DZG09TNV4R00C","","","img/flower4.png","75","719.8999999910593","2","0","1","",""
"null","","html-keyboard-response","61","70077","0.0-61.0","3NJM2BJS4XSYW0GBRGCSZUSKHZKCPQ","A1YSYI926BBOHW","39KMGHJ4RZW9S7JH7DZG09TNV4R00C","","","<img src=""img/flower4.png"" style=""width:200px;border:14px solid red;"">","null","","","","","",""
"854.7000000029802","","image-keyboard-response","62","70932","0.0-62.0","3NJM2BJS4XSYW0GBRGCSZUSKHZKCPQ","A1YSYI926BBOHW","39KMGHJ4RZW9S7JH7DZG09TNV4R00C","","","img/flower5.png","76","855.0999999940395","3","1","2","",""
"null","","html-keyboard-response","63","71234","0.0-63.0","3NJM2BJS4XSYW0GBRGCSZUSKHZKCPQ","A1YSYI926BBOHW","39KMGHJ4RZW9S7JH7DZG09TNV4R00C","","","<img src=""img/flower5.png"" style=""width:200px; border:14px solid green;"">","null","","","","","",""
"13543.70000000298","","instructions","64","84779","0.0-64.0","3NJM2BJS4XSYW0GBRGCSZUSKHZKCPQ","A1YSYI926BBOHW","39KMGHJ4RZW9S7JH7DZG09TNV4R00C","","[{""page_index"":0,""viewing_time"":2559.5},{""page_index"":1,""viewing_time"":10984}]","","","","","","","",""
"874","","image-keyboard-response","65","85653","0.0-65.0","3NJM2BJS4XSYW0GBRGCSZUSKHZKCPQ","A1YSYI926BBOHW","39KMGHJ4RZW9S7JH7DZG09TNV4R00C","","","img/flower6.png","76","874.8999999910593","3","0","3","",""
"null","","html-keyboard-response","66","85955","0.0-66.0","3NJM2BJS4XSYW0GBRGCSZUSKHZKCPQ","A1YSYI926BBOHW","39KMGHJ4RZW9S7JH7DZG09TNV4R00C","","","<img src=""img/flower6.png"" style=""width:200px;border:14px solid red;"">","null","","","","","",""
"636.5","","image-keyboard-response","67","86592","0.0-67.0","3NJM2BJS4XSYW0GBRGCSZUSKHZKCPQ","A1YSYI926BBOHW","39KMGHJ4RZW9S7JH7DZG09TNV4R00C","","","img/flower4.png","74","637.5","1","1","1","",""
"null","","html-keyboard-response","68","86895","0.0-68.0","3NJM2BJS4XSYW0GBRGCSZUSKHZKCPQ","A1YSYI926BBOHW","39KMGHJ4RZW9S7JH7DZG09TNV4R00C","","","<img src=""img/flower4.png"" style=""width:200px; border:14px solid green;"">","null","","","","","",""
"546.7000000029802","","image-keyboard-response","69","87443","0.0-69.0","3NJM2BJS4XSYW0GBRGCSZUSKHZKCPQ","A1YSYI926BBOHW","39KMGHJ4RZW9S7JH7DZG09TNV4R00C","","","img/flower5.png","75","547.4000000059605","2","1","2","",""
"null","","html-keyboard-response","70","87744","0.0-70.0","3NJM2BJS4XSYW0GBRGCSZUSKHZKCPQ","A1YSYI926BBOHW","39KMGHJ4RZW9S7JH7DZG09TNV4R00C","","","<img src=""img/flower5.png"" style=""width:200px; border:14px solid green;"">","null","","","","","",""
"634.4000000059605","","image-keyboard-response","71","88379","0.0-71.0","3NJM2BJS4XSYW0GBRGCSZUSKHZKCPQ","A1YSYI926BBOHW","39KMGHJ4RZW9S7JH7DZG09TNV4R00C","","","img/flower6.png","76","635.2000000029802","3","1","3","",""
"null","","html-keyboard-response","72","88681","0.0-72.0","3NJM2BJS4XSYW0GBRGCSZUSKHZKCPQ","A1YSYI926BBOHW","39KMGHJ4RZW9S7JH7DZG09TNV4R00C","","","<img src=""img/flower6.png"" style=""width:200px; border:14px solid green;"">","null","","","","","",""
"843.5999999940395","","image-keyboard-response","73","89525","0.0-73.0","3NJM2BJS4XSYW0GBRGCSZUSKHZKCPQ","A1YSYI926BBOHW","39KMGHJ4RZW9S7JH7DZG09TNV4R00C","","","img/flower5.png","75","844.2000000029802","2","1","2","",""
"null","","html-keyboard-response","74","89827","0.0-74.0","3NJM2BJS4XSYW0GBRGCSZUSKHZKCPQ","A1YSYI926BBOHW","39KMGHJ4RZW9S7JH7DZG09TNV4R00C","","","<img src=""img/flower5.png"" style=""width:200px; border:14px solid green;"">","null","","","","","",""
"496","","image-keyboard-response","75","90324","0.0-75.0","3NJM2BJS4XSYW0GBRGCSZUSKHZKCPQ","A1YSYI926BBOHW","39KMGHJ4RZW9S7JH7DZG09TNV4R00C","","","img/flower4.png","74","496.79999999701977","1","1","1","",""
"null","","html-keyboard-response","76","90625","0.0-76.0","3NJM2BJS4XSYW0GBRGCSZUSKHZKCPQ","A1YSYI926BBOHW","39KMGHJ4RZW9S7JH7DZG09TNV4R00C","","","<img src=""img/flower4.png"" style=""width:200px; border:14px solid green;"">","null","","","","","",""
"1067.5","","image-keyboard-response","77","91694","0.0-77.0","3NJM2BJS4XSYW0GBRGCSZUSKHZKCPQ","A1YSYI926BBOHW","39KMGHJ4RZW9S7JH7DZG09TNV4R00C","","","img/flower6.png","76","1068.8999999910593","3","1","3","",""
"null","","html-keyboard-response","78","91997","0.0-78.0","3NJM2BJS4XSYW0GBRGCSZUSKHZKCPQ","A1YSYI926BBOHW","39KMGHJ4RZW9S7JH7DZG09TNV4R00C","","","<img src=""img/flower6.png"" style=""width:200px; border:14px solid green;"">","null","","","","","",""
"594","","image-keyboard-response","79","92592","0.0-79.0","3NJM2BJS4XSYW0GBRGCSZUSKHZKCPQ","A1YSYI926BBOHW","39KMGHJ4RZW9S7JH7DZG09TNV4R00C","","","img/flower4.png","74","595","1","1","1","",""
"null","","html-keyboard-response","80","92894","0.0-80.0","3NJM2BJS4XSYW0GBRGCSZUSKHZKCPQ","A1YSYI926BBOHW","39KMGHJ4RZW9S7JH7DZG09TNV4R00C","","","<img src=""img/flower4.png"" style=""width:200px; border:14px solid green;"">","null","","","","","",""
"688.5999999940395","","image-keyboard-response","81","93583","0.0-81.0","3NJM2BJS4XSYW0GBRGCSZUSKHZKCPQ","A1YSYI926BBOHW","39KMGHJ4RZW9S7JH7DZG09TNV4R00C","","","img/flower6.png","76","689.4000000059605","3","1","3","",""
"null","","html-keyboard-response","82","93885","0.0-82.0","3NJM2BJS4XSYW0GBRGCSZUSKHZKCPQ","A1YSYI926BBOHW","39KMGHJ4RZW9S7JH7DZG09TNV4R00C","","","<img src=""img/flower6.png"" style=""width:200px; border:14px solid green;"">","null","","","","","",""
"479.70000000298023","","image-keyboard-response","83","94366","0.0-83.0","3NJM2BJS4XSYW0GBRGCSZUSKHZKCPQ","A1YSYI926BBOHW","39KMGHJ4RZW9S7JH7DZG09TNV4R00C","","","img/flower6.png","76","480.80000001192093","3","1","3","",""
"null","","html-keyboard-response","84","94668","0.0-84.0","3NJM2BJS4XSYW0GBRGCSZUSKHZKCPQ","A1YSYI926BBOHW","39KMGHJ4RZW9S7JH7DZG09TNV4R00C","","","<img src=""img/flower6.png"" style=""width:200px; border:14px solid green;"">","null","","","","","",""
"589.9000000059605","","image-keyboard-response","85","95259","0.0-85.0","3NJM2BJS4XSYW0GBRGCSZUSKHZKCPQ","A1YSYI926BBOHW","39KMGHJ4RZW9S7JH7DZG09TNV4R00C","","","img/flower4.png","74","590.3999999910593","1","1","1","",""
"null","","html-keyboard-response","86","95559","0.0-86.0","3NJM2BJS4XSYW0GBRGCSZUSKHZKCPQ","A1YSYI926BBOHW","39KMGHJ4RZW9S7JH7DZG09TNV4R00C","","","<img src=""img/flower4.png"" style=""width:200px; border:14px solid green;"">","null","","","","","",""
"446.69999998807907","","image-keyboard-response","87","96007","0.0-87.0","3NJM2BJS4XSYW0GBRGCSZUSKHZKCPQ","A1YSYI926BBOHW","39KMGHJ4RZW9S7JH7DZG09TNV4R00C","","","img/flower4.png","74","447.20000000298023","1","1","1","",""
"null","","html-keyboard-response","88","96308","0.0-88.0","3NJM2BJS4XSYW0GBRGCSZUSKHZKCPQ","A1YSYI926BBOHW","39KMGHJ4RZW9S7JH7DZG09TNV4R00C","","","<img src=""img/flower4.png"" style=""width:200px; border:14px solid green;"">","null","","","","","",""
"548.0999999940395","","image-keyboard-response","89","96857","0.0-89.0","3NJM2BJS4XSYW0GBRGCSZUSKHZKCPQ","A1YSYI926BBOHW","39KMGHJ4RZW9S7JH7DZG09TNV4R00C","","","img/flower6.png","76","549.0999999940395","3","1","3","",""
"null","","html-keyboard-response","90","97160","0.0-90.0","3NJM2BJS4XSYW0GBRGCSZUSKHZKCPQ","A1YSYI926BBOHW","39KMGHJ4RZW9S7JH7DZG09TNV4R00C","","","<img src=""img/flower6.png"" style=""width:200px; border:14px solid green;"">","null","","","","","",""
"572.4000000059605","","image-keyboard-response","91","97733","0.0-91.0","3NJM2BJS4XSYW0GBRGCSZUSKHZKCPQ","A1YSYI926BBOHW","39KMGHJ4RZW9S7JH7DZG09TNV4R00C","","","img/flower5.png","75","573.5","2","1","2","",""
"null","","html-keyboard-response","92","98035","0.0-92.0","3NJM2BJS4XSYW0GBRGCSZUSKHZKCPQ","A1YSYI926BBOHW","39KMGHJ4RZW9S7JH7DZG09TNV4R00C","","","<img src=""img/flower5.png"" style=""width:200px; border:14px solid green;"">","null","","","","","",""
"646.2999999970198","","image-keyboard-response","93","98682","0.0-93.0","3NJM2BJS4XSYW0GBRGCSZUSKHZKCPQ","A1YSYI926BBOHW","39KMGHJ4RZW9S7JH7DZG09TNV4R00C","","","img/flower4.png","74","647","1","1","1","",""
"null","","html-keyboard-response","94","98983","0.0-94.0","3NJM2BJS4XSYW0GBRGCSZUSKHZKCPQ","A1YSYI926BBOHW","39KMGHJ4RZW9S7JH7DZG09TNV4R00C","","","<img src=""img/flower4.png"" style=""width:200px; border:14px solid green;"">","null","","","","","",""
"468.1000000089407","","image-keyboard-response","95","99452","0.0-95.0","3NJM2BJS4XSYW0GBRGCSZUSKHZKCPQ","A1YSYI926BBOHW","39KMGHJ4RZW9S7JH7DZG09TNV4R00C","","","img/flower4.png","74","468.79999999701977","1","1","1","",""
"null","","html-keyboard-response","96","99753","0.0-96.0","3NJM2BJS4XSYW0GBRGCSZUSKHZKCPQ","A1YSYI926BBOHW","39KMGHJ4RZW9S7JH7DZG09TNV4R00C","","","<img src=""img/flower4.png"" style=""width:200px; border:14px solid green;"">","null","","","","","",""
"591.5","","image-keyboard-response","97","100346","0.0-97.0","3NJM2BJS4XSYW0GBRGCSZUSKHZKCPQ","A1YSYI926BBOHW","39KMGHJ4RZW9S7JH7DZG09TNV4R00C","","","img/flower5.png","75","592.2999999970198","2","1","2","",""
"null","","html-keyboard-response","98","100647","0.0-98.0","3NJM2BJS4XSYW0GBRGCSZUSKHZKCPQ","A1YSYI926BBOHW","39KMGHJ4RZW9S7JH7DZG09TNV4R00C","","","<img src=""img/flower5.png"" style=""width:200px; border:14px solid green;"">","null","","","","","",""
"463.1000000089407","","image-keyboard-response","99","101112","0.0-99.0","3NJM2BJS4XSYW0GBRGCSZUSKHZKCPQ","A1YSYI926BBOHW","39KMGHJ4RZW9S7JH7DZG09TNV4R00C","","","img/flower5.png","75","464.59999999403954","2","1","2","",""
"null","","html-keyboard-response","100","101415","0.0-100.0","3NJM2BJS4XSYW0GBRGCSZUSKHZKCPQ","A1YSYI926BBOHW","39KMGHJ4RZW9S7JH7DZG09TNV4R00C","","","<img src=""img/flower5.png"" style=""width:200px; border:14px solid green;"">","null","","","","","",""
"657.5","","image-keyboard-response","101","102073","0.0-101.0","3NJM2BJS4XSYW0GBRGCSZUSKHZKCPQ","A1YSYI926BBOHW","39KMGHJ4RZW9S7JH7DZG09TNV4R00C","","","img/flower6.png","76","658.5","3","1","3","",""
"null","","html-keyboard-response","102","102375","0.0-102.0","3NJM2BJS4XSYW0GBRGCSZUSKHZKCPQ","A1YSYI926BBOHW","39KMGHJ4RZW9S7JH7DZG09TNV4R00C","","","<img src=""img/flower6.png"" style=""width:200px; border:14px solid green;"">","null","","","","","",""
"933.5999999940395","","image-keyboard-response","103","103310","0.0-103.0","3NJM2BJS4XSYW0GBRGCSZUSKHZKCPQ","A1YSYI926BBOHW","39KMGHJ4RZW9S7JH7DZG09TNV4R00C","","","img/flower5.png","75","934.5","2","1","2","",""
"null","","html-keyboard-response","104","103611","0.0-104.0","3NJM2BJS4XSYW0GBRGCSZUSKHZKCPQ","A1YSYI926BBOHW","39KMGHJ4RZW9S7JH7DZG09TNV4R00C","","","<img src=""img/flower5.png"" style=""width:200px; border:14px solid green;"">","null","","","","","",""
"516.4000000059605","","image-keyboard-response","105","104128","0.0-105.0","3NJM2BJS4XSYW0GBRGCSZUSKHZKCPQ","A1YSYI926BBOHW","39KMGHJ4RZW9S7JH7DZG09TNV4R00C","","","img/flower5.png","76","516.9000000059605","3","1","2","",""
"null","","html-keyboard-response","106","104430","0.0-106.0","3NJM2BJS4XSYW0GBRGCSZUSKHZKCPQ","A1YSYI926BBOHW","39KMGHJ4RZW9S7JH7DZG09TNV4R00C","","","<img src=""img/flower5.png"" style=""width:200px; border:14px solid green;"">","null","","","","","",""
"1367.1000000089407","","image-keyboard-response","107","105798","0.0-107.0","3NJM2BJS4XSYW0GBRGCSZUSKHZKCPQ","A1YSYI926BBOHW","39KMGHJ4RZW9S7JH7DZG09TNV4R00C","","","img/flower6.png","76","1368.1000000089407","3","1","3","",""
"null","","html-keyboard-response","108","106100","0.0-108.0","3NJM2BJS4XSYW0GBRGCSZUSKHZKCPQ","A1YSYI926BBOHW","39KMGHJ4RZW9S7JH7DZG09TNV4R00C","","","<img src=""img/flower6.png"" style=""width:200px; border:14px solid green;"">","null","","","","","",""
"357.79999999701977","","image-keyboard-response","109","106459","0.0-109.0","3NJM2BJS4XSYW0GBRGCSZUSKHZKCPQ","A1YSYI926BBOHW","39KMGHJ4RZW9S7JH7DZG09TNV4R00C","","","img/flower6.png","76","359.30000001192093","3","0","3","",""
"null","","html-keyboard-response","110","106761","0.0-110.0","3NJM2BJS4XSYW0GBRGCSZUSKHZKCPQ","A1YSYI926BBOHW","39KMGHJ4RZW9S7JH7DZG09TNV4R00C","","","<img src=""img/flower6.png"" style=""width:200px;border:14px solid red;"">","null","","","","","",""
"509.70000000298023","","image-keyboard-response","111","107271","0.0-111.0","3NJM2BJS4XSYW0GBRGCSZUSKHZKCPQ","A1YSYI926BBOHW","39KMGHJ4RZW9S7JH7DZG09TNV4R00C","","","img/flower4.png","74","510.29999999701977","1","1","1","",""
"null","","html-keyboard-response","112","107572","0.0-112.0","3NJM2BJS4XSYW0GBRGCSZUSKHZKCPQ","A1YSYI926BBOHW","39KMGHJ4RZW9S7JH7DZG09TNV4R00C","","","<img src=""img/flower4.png"" style=""width:200px; border:14px solid green;"">","null","","","","","",""
"1015.5999999940395","","image-keyboard-response","113","108589","0.0-113.0","3NJM2BJS4XSYW0GBRGCSZUSKHZKCPQ","A1YSYI926BBOHW","39KMGHJ4RZW9S7JH7DZG09TNV4R00C","","","img/flower6.png","76","1016.2000000029802","3","0","3","",""
"null","","html-keyboard-response","114","108891","0.0-114.0","3NJM2BJS4XSYW0GBRGCSZUSKHZKCPQ","A1YSYI926BBOHW","39KMGHJ4RZW9S7JH7DZG09TNV4R00C","","","<img src=""img/flower6.png"" style=""width:200px;border:14px solid red;"">","null","","","","","",""
"569.7000000029802","","image-keyboard-response","115","109462","0.0-115.0","3NJM2BJS4XSYW0GBRGCSZUSKHZKCPQ","A1YSYI926BBOHW","39KMGHJ4RZW9S7JH7DZG09TNV4R00C","","","img/flower5.png","75","570.7000000029802","2","1","2","",""
"null","","html-keyboard-response","116","109763","0.0-116.0","3NJM2BJS4XSYW0GBRGCSZUSKHZKCPQ","A1YSYI926BBOHW","39KMGHJ4RZW9S7JH7DZG09TNV4R00C","","","<img src=""img/flower5.png"" style=""width:200px; border:14px solid green;"">","null","","","","","",""
"587.2999999970198","","image-keyboard-response","117","110351","0.0-117.0","3NJM2BJS4XSYW0GBRGCSZUSKHZKCPQ","A1YSYI926BBOHW","39KMGHJ4RZW9S7JH7DZG09TNV4R00C","","","img/flower4.png","74","588.2000000029802","1","1","1","",""
"null","","html-keyboard-response","118","110653","0.0-118.0","3NJM2BJS4XSYW0GBRGCSZUSKHZKCPQ","A1YSYI926BBOHW","39KMGHJ4RZW9S7JH7DZG09TNV4R00C","","","<img src=""img/flower4.png"" style=""width:200px; border:14px solid green;"">","null","","","","","",""
"500.19999998807907","","image-keyboard-response","119","111155","0.0-119.0","3NJM2BJS4XSYW0GBRGCSZUSKHZKCPQ","A1YSYI926BBOHW","39KMGHJ4RZW9S7JH7DZG09TNV4R00C","","","img/flower5.png","75","502","2","1","2","",""
"null","","html-keyboard-response","120","111458","0.0-120.0","3NJM2BJS4XSYW0GBRGCSZUSKHZKCPQ","A1YSYI926BBOHW","39KMGHJ4RZW9S7JH7DZG09TNV4R00C","","","<img src=""img/flower5.png"" style=""width:200px; border:14px solid green;"">","null","","","","","",""
"589.5999999940395","","image-keyboard-response","121","112049","0.0-121.0","3NJM2BJS4XSYW0GBRGCSZUSKHZKCPQ","A1YSYI926BBOHW","39KMGHJ4RZW9S7JH7DZG09TNV4R00C","","","img/flower4.png","74","591","1","1","1","",""
"null","","html-keyboard-response","122","112351","0.0-122.0","3NJM2BJS4XSYW0GBRGCSZUSKHZKCPQ","A1YSYI926BBOHW","39KMGHJ4RZW9S7JH7DZG09TNV4R00C","","","<img src=""img/flower4.png"" style=""width:200px; border:14px solid green;"">","null","","","","","",""
"688.2000000029802","","image-keyboard-response","123","113040","0.0-123.0","3NJM2BJS4XSYW0GBRGCSZUSKHZKCPQ","A1YSYI926BBOHW","39KMGHJ4RZW9S7JH7DZG09TNV4R00C","","","img/flower5.png","75","688.9000000059605","2","1","2","",""
"null","","html-keyboard-response","124","113342","0.0-124.0","3NJM2BJS4XSYW0GBRGCSZUSKHZKCPQ","A1YSYI926BBOHW","39KMGHJ4RZW9S7JH7DZG09TNV4R00C","","","<img src=""img/flower5.png"" style=""width:200px; border:14px solid green;"">","null","","","","","",""
"2807.7999999970198","","instructions","125","116151","0.0-125.0","3NJM2BJS4XSYW0GBRGCSZUSKHZKCPQ","A1YSYI926BBOHW","39KMGHJ4RZW9S7JH7DZG09TNV4R00C","","[{""page_index"":0,""viewing_time"":2807.5999999940395}]","","","","","","","",""
"2860.2999999970198","","image-keyboard-response","126","119012","0.0-126.0","3NJM2BJS4XSYW0GBRGCSZUSKHZKCPQ","A1YSYI926BBOHW","39KMGHJ4RZW9S7JH7DZG09TNV4R00C","","","img/flower1.png","75","2860.7999999970198","2","1","2","0.7,0.2,0,0,0.7,0.2,0.2,0,0.7",""
"null","","html-keyboard-response","127","119313","0.0-127.0","3NJM2BJS4XSYW0GBRGCSZUSKHZKCPQ","A1YSYI926BBOHW","39KMGHJ4RZW9S7JH7DZG09TNV4R00C","","","<img src=""img/flower1.png"" style=""width:200px; border:14px solid green;"">","null","","","","","",""
"804.3999999910593","","image-keyboard-response","128","120118","0.0-128.0","3NJM2BJS4XSYW0GBRGCSZUSKHZKCPQ","A1YSYI926BBOHW","39KMGHJ4RZW9S7JH7DZG09TNV4R00C","","","img/flower6.png","76","805.0999999940395","3","0","1","0.7,0.2,0,0,0.7,0.2,0.2,0,0.7",""
"null","","html-keyboard-response","129","120420","0.0-129.0","3NJM2BJS4XSYW0GBRGCSZUSKHZKCPQ","A1YSYI926BBOHW","39KMGHJ4RZW9S7JH7DZG09TNV4R00C","","","<img src=""img/flower6.png"" style=""width:200px;border:14px solid red;"">","null","","","","","",""
"597.9000000059605","","image-keyboard-response","130","121019","0.0-130.0","3NJM2BJS4XSYW0GBRGCSZUSKHZKCPQ","A1YSYI926BBOHW","39KMGHJ4RZW9S7JH7DZG09TNV4R00C","","","img/flower6.png","76","599","3","0","1","0.7,0.2,0,0,0.7,0.2,0.2,0,0.7",""
"null","","html-keyboard-response","131","121320","0.0-131.0","3NJM2BJS4XSYW0GBRGCSZUSKHZKCPQ","A1YSYI926BBOHW","39KMGHJ4RZW9S7JH7DZG09TNV4R00C","","","<img src=""img/flower6.png"" style=""width:200px;border:14px solid red;"">","null","","","","","",""
"494.40000000596046","","image-keyboard-response","132","121815","0.0-132.0","3NJM2BJS4XSYW0GBRGCSZUSKHZKCPQ","A1YSYI926BBOHW","39KMGHJ4RZW9S7JH7DZG09TNV4R00C","","","img/flower1.png","75","495","2","1","2","0.7,0.2,0,0,0.7,0.2,0.2,0,0.7",""
"null","","html-keyboard-response","133","122117","0.0-133.0","3NJM2BJS4XSYW0GBRGCSZUSKHZKCPQ","A1YSYI926BBOHW","39KMGHJ4RZW9S7JH7DZG09TNV4R00C","","","<img src=""img/flower1.png"" style=""width:200px; border:14px solid green;"">","null","","","","","",""
"568.4000000059605","","image-keyboard-response","134","122687","0.0-134.0","3NJM2BJS4XSYW0GBRGCSZUSKHZKCPQ","A1YSYI926BBOHW","39KMGHJ4RZW9S7JH7DZG09TNV4R00C","","","img/flower3.png","74","569.3999999910593","1","0","3","0.7,0.2,0,0,0.7,0.2,0.2,0,0.7",""
"null","","html-keyboard-response","135","122988","0.0-135.0","3NJM2BJS4XSYW0GBRGCSZUSKHZKCPQ","A1YSYI926BBOHW","39KMGHJ4RZW9S7JH7DZG09TNV4R00C","","","<img src=""img/flower3.png"" style=""width:200px;border:14px solid red;"">","null","","","","","",""
"655.9000000059605","","image-keyboard-response","136","123645","0.0-136.0","3NJM2BJS4XSYW0GBRGCSZUSKHZKCPQ","A1YSYI926BBOHW","39KMGHJ4RZW9S7JH7DZG09TNV4R00C","","","img/flower6.png","76","657","3","0","1","0.7,0.2,0,0,0.7,0.2,0.2,0,0.7",""
"null","","html-keyboard-response","137","123947","0.0-137.0","3NJM2BJS4XSYW0GBRGCSZUSKHZKCPQ","A1YSYI926BBOHW","39KMGHJ4RZW9S7JH7DZG09TNV4R00C","","","<img src=""img/flower6.png"" style=""width:200px;border:14px solid red;"">","null","","","","","",""
"550.5","","image-keyboard-response","138","124498","0.0-138.0","3NJM2BJS4XSYW0GBRGCSZUSKHZKCPQ","A1YSYI926BBOHW","39KMGHJ4RZW9S7JH7DZG09TNV4R00C","","","img/flower3.png","75","551.2000000029802","2","0","3","0.7,0.2,0,0,0.7,0.2,0.2,0,0.7",""
"null","","html-keyboard-response","139","124800","0.0-139.0","3NJM2BJS4XSYW0GBRGCSZUSKHZKCPQ","A1YSYI926BBOHW","39KMGHJ4RZW9S7JH7DZG09TNV4R00C","","","<img src=""img/flower3.png"" style=""width:200px;border:14px solid red;"">","null","","","","","",""
"955.4000000059605","","image-keyboard-response","140","125756","0.0-140.0","3NJM2BJS4XSYW0GBRGCSZUSKHZKCPQ","A1YSYI926BBOHW","39KMGHJ4RZW9S7JH7DZG09TNV4R00C","","","img/flower3.png","74","955.8999999910593","1","0","3","0.7,0.2,0,0,0.7,0.2,0.2,0,0.7",""
"null","","html-keyboard-response","141","126058","0.0-141.0","3NJM2BJS4XSYW0GBRGCSZUSKHZKCPQ","A1YSYI926BBOHW","39KMGHJ4RZW9S7JH7DZG09TNV4R00C","","","<img src=""img/flower3.png"" style=""width:200px;border:14px solid red;"">","null","","","","","",""
"700.3999999910593","","image-keyboard-response","142","126759","0.0-142.0","3NJM2BJS4XSYW0GBRGCSZUSKHZKCPQ","A1YSYI926BBOHW","39KMGHJ4RZW9S7JH7DZG09TNV4R00C","","","img/flower1.png","75","700.9000000059605","2","1","2","0.7,0.2,0,0,0.7,0.2,0.2,0,0.7",""
"null","","html-keyboard-response","143","127060","0.0-143.0","3NJM2BJS4XSYW0GBRGCSZUSKHZKCPQ","A1YSYI926BBOHW","39KMGHJ4RZW9S7JH7DZG09TNV4R00C","","","<img src=""img/flower1.png"" style=""width:200px; border:14px solid green;"">","null","","","","","",""
"496","","image-keyboard-response","144","127558","0.0-144.0","3NJM2BJS4XSYW0GBRGCSZUSKHZKCPQ","A1YSYI926BBOHW","39KMGHJ4RZW9S7JH7DZG09TNV4R00C","","","img/flower1.png","75","497.70000000298023","2","1","2","0.7,0.2,0,0,0.7,0.2,0.2,0,0.7",""
"null","","html-keyboard-response","145","127860","0.0-145.0","3NJM2BJS4XSYW0GBRGCSZUSKHZKCPQ","A1YSYI926BBOHW","39KMGHJ4RZW9S7JH7DZG09TNV4R00C","","","<img src=""img/flower1.png"" style=""width:200px; border:14px solid green;"">","null","","","","","",""
"683.7000000029802","","image-keyboard-response","146","128545","0.0-146.0","3NJM2BJS4XSYW0GBRGCSZUSKHZKCPQ","A1YSYI926BBOHW","39KMGHJ4RZW9S7JH7DZG09TNV4R00C","","","img/flower1.png","75","684.3000000119209","2","1","2","0.7,0.2,0,0,0.7,0.2,0.2,0,0.7",""
"null","","html-keyboard-response","147","128846","0.0-147.0","3NJM2BJS4XSYW0GBRGCSZUSKHZKCPQ","A1YSYI926BBOHW","39KMGHJ4RZW9S7JH7DZG09TNV4R00C","","","<img src=""img/flower1.png"" style=""width:200px; border:14px solid green;"">","null","","","","","",""
"706.7000000029802","","image-keyboard-response","148","129553","0.0-148.0","3NJM2BJS4XSYW0GBRGCSZUSKHZKCPQ","A1YSYI926BBOHW","39KMGHJ4RZW9S7JH7DZG09TNV4R00C","","","img/flower3.png","74","707.4000000059605","1","1","3","0.7,0.2,0,0,0.7,0.2,0.2,0,0.7",""
"null","","html-keyboard-response","149","129855","0.0-149.0","3NJM2BJS4XSYW0GBRGCSZUSKHZKCPQ","A1YSYI926BBOHW","39KMGHJ4RZW9S7JH7DZG09TNV4R00C","","","<img src=""img/flower3.png"" style=""width:200px; border:14px solid green;"">","null","","","","","",""
"678.7000000029802","","image-keyboard-response","150","130535","0.0-150.0","3NJM2BJS4XSYW0GBRGCSZUSKHZKCPQ","A1YSYI926BBOHW","39KMGHJ4RZW9S7JH7DZG09TNV4R00C","","","img/flower1.png","75","679.6000000089407","2","0","2","0.7,0.2,0,0,0.7,0.2,0.2,0,0.7",""
"null","","html-keyboard-response","151","130836","0.0-151.0","3NJM2BJS4XSYW0GBRGCSZUSKHZKCPQ","A1YSYI926BBOHW","39KMGHJ4RZW9S7JH7DZG09TNV4R00C","","","<img src=""img/flower1.png"" style=""width:200px;border:14px solid red;"">","null","","","","","",""
"539.7000000029802","","image-keyboard-response","152","131377","0.0-152.0","3NJM2BJS4XSYW0GBRGCSZUSKHZKCPQ","A1YSYI926BBOHW","39KMGHJ4RZW9S7JH7DZG09TNV4R00C","","","img/flower6.png","76","540.3000000119209","3","0","1","0.7,0.2,0,0,0.7,0.2,0.2,0,0.7",""
"null","","html-keyboard-response","153","131678","0.0-153.0","3NJM2BJS4XSYW0GBRGCSZUSKHZKCPQ","A1YSYI926BBOHW","39KMGHJ4RZW9S7JH7DZG09TNV4R00C","","","<img src=""img/flower6.png"" style=""width:200px;border:14px solid red;"">","null","","","","","",""
"564.0999999940395","","image-keyboard-response","154","132245","0.0-154.0","3NJM2BJS4XSYW0GBRGCSZUSKHZKCPQ","A1YSYI926BBOHW","39KMGHJ4RZW9S7JH7DZG09TNV4R00C","","","img/flower1.png","75","565.8999999910593","2","1","2","0.7,0.2,0,0,0.7,0.2,0.2,0,0.7",""
"null","","html-keyboard-response","155","132546","0.0-155.0","3NJM2BJS4XSYW0GBRGCSZUSKHZKCPQ","A1YSYI926BBOHW","39KMGHJ4RZW9S7JH7DZG09TNV4R00C","","","<img src=""img/flower1.png"" style=""width:200px; border:14px solid green;"">","null","","","","","",""
"691.5","","image-keyboard-response","156","133238","0.0-156.0","3NJM2BJS4XSYW0GBRGCSZUSKHZKCPQ","A1YSYI926BBOHW","39KMGHJ4RZW9S7JH7DZG09TNV4R00C","","","img/flower6.png","76","691.8999999910593","3","0","1","0.7,0.2,0,0,0.7,0.2,0.2,0,0.7",""
"null","","html-keyboard-response","157","133539","0.0-157.0","3NJM2BJS4XSYW0GBRGCSZUSKHZKCPQ","A1YSYI926BBOHW","39KMGHJ4RZW9S7JH7DZG09TNV4R00C","","","<img src=""img/flower6.png"" style=""width:200px;border:14px solid red;"">","null","","","","","",""
"567.7999999970198","","image-keyboard-response","158","134111","0.0-158.0","3NJM2BJS4XSYW0GBRGCSZUSKHZKCPQ","A1YSYI926BBOHW","39KMGHJ4RZW9S7JH7DZG09TNV4R00C","","","img/flower3.png","74","571.7999999970198","1","0","3","0.7,0.2,0,0,0.7,0.2,0.2,0,0.7",""
"null","","html-keyboard-response","159","134414","0.0-159.0","3NJM2BJS4XSYW0GBRGCSZUSKHZKCPQ","A1YSYI926BBOHW","39KMGHJ4RZW9S7JH7DZG09TNV4R00C","","","<img src=""img/flower3.png"" style=""width:200px;border:14px solid red;"">","null","","","","","",""
"579.2999999970198","","image-keyboard-response","160","134996","0.0-160.0","3NJM2BJS4XSYW0GBRGCSZUSKHZKCPQ","A1YSYI926BBOHW","39KMGHJ4RZW9S7JH7DZG09TNV4R00C","","","img/flower3.png","74","580.8000000119209","1","0","3","0.7,0.2,0,0,0.7,0.2,0.2,0,0.7",""
"null","","html-keyboard-response","161","135298","0.0-161.0","3NJM2BJS4XSYW0GBRGCSZUSKHZKCPQ","A1YSYI926BBOHW","39KMGHJ4RZW9S7JH7DZG09TNV4R00C","","","<img src=""img/flower3.png"" style=""width:200px;border:14px solid red;"">","null","","","","","",""
"605.2999999970198","","image-keyboard-response","162","135904","0.0-162.0","3NJM2BJS4XSYW0GBRGCSZUSKHZKCPQ","A1YSYI926BBOHW","39KMGHJ4RZW9S7JH7DZG09TNV4R00C","","","img/flower6.png","76","606","3","0","1","0.7,0.2,0,0,0.7,0.2,0.2,0,0.7",""
"null","","html-keyboard-response","163","136205","0.0-163.0","3NJM2BJS4XSYW0GBRGCSZUSKHZKCPQ","A1YSYI926BBOHW","39KMGHJ4RZW9S7JH7DZG09TNV4R00C","","","<img src=""img/flower6.png"" style=""width:200px;border:14px solid red;"">","null","","","","","",""
"585.4000000059605","","image-keyboard-response","164","136792","0.0-164.0","3NJM2BJS4XSYW0GBRGCSZUSKHZKCPQ","A1YSYI926BBOHW","39KMGHJ4RZW9S7JH7DZG09TNV4R00C","","","img/flower6.png","75","586.8000000119209","2","0","1","0.7,0.2,0,0,0.7,0.2,0.2,0,0.7",""
"null","","html-keyboard-response","165","137095","0.0-165.0","3NJM2BJS4XSYW0GBRGCSZUSKHZKCPQ","A1YSYI926BBOHW","39KMGHJ4RZW9S7JH7DZG09TNV4R00C","","","<img src=""img/flower6.png"" style=""width:200px;border:14px solid red;"">","null","","","","","",""
"652.5999999940395","","image-keyboard-response","166","137749","0.0-166.0","3NJM2BJS4XSYW0GBRGCSZUSKHZKCPQ","A1YSYI926BBOHW","39KMGHJ4RZW9S7JH7DZG09TNV4R00C","","","img/flower6.png","74","654","1","0","1","0.7,0.2,0,0,0.7,0.2,0.2,0,0.7",""
"null","","html-keyboard-response","167","138052","0.0-167.0","3NJM2BJS4XSYW0GBRGCSZUSKHZKCPQ","A1YSYI926BBOHW","39KMGHJ4RZW9S7JH7DZG09TNV4R00C","","","<img src=""img/flower6.png"" style=""width:200px;border:14px solid red;"">","null","","","","","",""
"695.3999999910593","","image-keyboard-response","168","138749","0.0-168.0","3NJM2BJS4XSYW0GBRGCSZUSKHZKCPQ","A1YSYI926BBOHW","39KMGHJ4RZW9S7JH7DZG09TNV4R00C","","","img/flower3.png","74","696.1000000089407","1","0","3","0.7,0.2,0,0,0.7,0.2,0.2,0,0.7",""
"null","","html-keyboard-response","169","139050","0.0-169.0","3NJM2BJS4XSYW0GBRGCSZUSKHZKCPQ","A1YSYI926BBOHW","39KMGHJ4RZW9S7JH7DZG09TNV4R00C","","","<img src=""img/flower3.png"" style=""width:200px;border:14px solid red;"">","null","","","","","",""
"1424.7000000029802","","image-keyboard-response","170","140476","0.0-170.0","3NJM2BJS4XSYW0GBRGCSZUSKHZKCPQ","A1YSYI926BBOHW","39KMGHJ4RZW9S7JH7DZG09TNV4R00C","","","img/flower3.png","74","1425.1000000089407","1","0","3","0.7,0.2,0,0,0.7,0.2,0.2,0,0.7",""
"null","","html-keyboard-response","171","140777","0.0-171.0","3NJM2BJS4XSYW0GBRGCSZUSKHZKCPQ","A1YSYI926BBOHW","39KMGHJ4RZW9S7JH7DZG09TNV4R00C","","","<img src=""img/flower3.png"" style=""width:200px;border:14px solid red;"">","null","","","","","",""
"505.79999999701977","","image-keyboard-response","172","141285","0.0-172.0","3NJM2BJS4XSYW0GBRGCSZUSKHZKCPQ","A1YSYI926BBOHW","39KMGHJ4RZW9S7JH7DZG09TNV4R00C","","","img/flower1.png","75","507.5","2","0","2","0.7,0.2,0,0,0.7,0.2,0.2,0,0.7",""
"null","","html-keyboard-response","173","141586","0.0-173.0","3NJM2BJS4XSYW0GBRGCSZUSKHZKCPQ","A1YSYI926BBOHW","39KMGHJ4RZW9S7JH7DZG09TNV4R00C","","","<img src=""img/flower1.png"" style=""width:200px;border:14px solid red;"">","null","","","","","",""
"446","","image-keyboard-response","174","142033","0.0-174.0","3NJM2BJS4XSYW0GBRGCSZUSKHZKCPQ","A1YSYI926BBOHW","39KMGHJ4RZW9S7JH7DZG09TNV4R00C","","","img/flower1.png","75","446.59999999403954","2","1","2","0.7,0.2,0,0,0.7,0.2,0.2,0,0.7",""
"null","","html-keyboard-response","175","142334","0.0-175.0","3NJM2BJS4XSYW0GBRGCSZUSKHZKCPQ","A1YSYI926BBOHW","39KMGHJ4RZW9S7JH7DZG09TNV4R00C","","","<img src=""img/flower1.png"" style=""width:200px; border:14px solid green;"">","null","","","","","",""
"760.3999999910593","","image-keyboard-response","176","143096","0.0-176.0","3NJM2BJS4XSYW0GBRGCSZUSKHZKCPQ","A1YSYI926BBOHW","39KMGHJ4RZW9S7JH7DZG09TNV4R00C","","","img/flower3.png","74","761.4000000059605","1","0","3","0.7,0.2,0,0,0.7,0.2,0.2,0,0.7",""
"null","","html-keyboard-response","177","143397","0.0-177.0","3NJM2BJS4XSYW0GBRGCSZUSKHZKCPQ","A1YSYI926BBOHW","39KMGHJ4RZW9S7JH7DZG09TNV4R00C","","","<img src=""img/flower3.png"" style=""width:200px;border:14px solid red;"">","null","","","","","",""
"550.4000000059605","","image-keyboard-response","178","143948","0.0-178.0","3NJM2BJS4XSYW0GBRGCSZUSKHZKCPQ","A1YSYI926BBOHW","39KMGHJ4RZW9S7JH7DZG09TNV4R00C","","","img/flower6.png","76","551.0999999940395","3","0","1","0.7,0.2,0,0,0.7,0.2,0.2,0,0.7",""
"null","","html-keyboard-response","179","144250","0.0-179.0","3NJM2BJS4XSYW0GBRGCSZUSKHZKCPQ","A1YSYI926BBOHW","39KMGHJ4RZW9S7JH7DZG09TNV4R00C","","","<img src=""img/flower6.png"" style=""width:200px;border:14px solid red;"">","null","","","","","",""
"668.3000000119209","","image-keyboard-response","180","144920","0.0-180.0","3NJM2BJS4XSYW0GBRGCSZUSKHZKCPQ","A1YSYI926BBOHW","39KMGHJ4RZW9S7JH7DZG09TNV4R00C","","","img/flower3.png","74","669.2000000029802","1","0","3","0.7,0.2,0,0,0.7,0.2,0.2,0,0.7",""
"null","","html-keyboard-response","181","145223","0.0-181.0","3NJM2BJS4XSYW0GBRGCSZUSKHZKCPQ","A1YSYI926BBOHW","39KMGHJ4RZW9S7JH7DZG09TNV4R00C","","","<img src=""img/flower3.png"" style=""width:200px;border:14px solid red;"">","null","","","","","",""
"538.4000000059605","","image-keyboard-response","182","145763","0.0-182.0","3NJM2BJS4XSYW0GBRGCSZUSKHZKCPQ","A1YSYI926BBOHW","39KMGHJ4RZW9S7JH7DZG09TNV4R00C","","","img/flower1.png","75","539.6000000089407","2","1","2","0.7,0.2,0,0,0.7,0.2,0.2,0,0.7",""
"null","","html-keyboard-response","183","146065","0.0-183.0","3NJM2BJS4XSYW0GBRGCSZUSKHZKCPQ","A1YSYI926BBOHW","39KMGHJ4RZW9S7JH7DZG09TNV4R00C","","","<img src=""img/flower1.png"" style=""width:200px; border:14px solid green;"">","null","","","","","",""
"712.7999999970198","","image-keyboard-response","184","146779","0.0-184.0","3NJM2BJS4XSYW0GBRGCSZUSKHZKCPQ","A1YSYI926BBOHW","39KMGHJ4RZW9S7JH7DZG09TNV4R00C","","","img/flower3.png","74","713.6000000089407","1","1","3","0.7,0.2,0,0,0.7,0.2,0.2,0,0.7",""
"null","","html-keyboard-response","185","147080","0.0-185.0","3NJM2BJS4XSYW0GBRGCSZUSKHZKCPQ","A1YSYI926BBOHW","39KMGHJ4RZW9S7JH7DZG09TNV4R00C","","","<img src=""img/flower3.png"" style=""width:200px; border:14px solid green;"">","null","","","","","",""
"652.4000000059605","","image-keyboard-response","186","147733","0.0-186.0","3NJM2BJS4XSYW0GBRGCSZUSKHZKCPQ","A1YSYI926BBOHW","39KMGHJ4RZW9S7JH7DZG09TNV4R00C","","","img/flower6.png","76","653","3","0","1","0.7,0.2,0,0,0.7,0.2,0.2,0,0.7",""
"null","","html-keyboard-response","187","148035","0.0-187.0","3NJM2BJS4XSYW0GBRGCSZUSKHZKCPQ","A1YSYI926BBOHW","39KMGHJ4RZW9S7JH7DZG09TNV4R00C","","","<img src=""img/flower6.png"" style=""width:200px;border:14px solid red;"">","null","","","","","",""
"801.5","","image-keyboard-response","188","148837","0.0-188.0","3NJM2BJS4XSYW0GBRGCSZUSKHZKCPQ","A1YSYI926BBOHW","39KMGHJ4RZW9S7JH7DZG09TNV4R00C","","","img/flower3.png","74","802.4000000059605","1","0","3","0.7,0.2,0,0,0.7,0.2,0.2,0,0.7",""
"null","","html-keyboard-response","189","149138","0.0-189.0","3NJM2BJS4XSYW0GBRGCSZUSKHZKCPQ","A1YSYI926BBOHW","39KMGHJ4RZW9S7JH7DZG09TNV4R00C","","","<img src=""img/flower3.png"" style=""width:200px;border:14px solid red;"">","null","","","","","",""
"531.7000000029802","","image-keyboard-response","190","149671","0.0-190.0","3NJM2BJS4XSYW0GBRGCSZUSKHZKCPQ","A1YSYI926BBOHW","39KMGHJ4RZW9S7JH7DZG09TNV4R00C","","","img/flower1.png","75","532.4000000059605","2","0","2","0.7,0.2,0,0,0.7,0.2,0.2,0,0.7",""
"null","","html-keyboard-response","191","149973","0.0-191.0","3NJM2BJS4XSYW0GBRGCSZUSKHZKCPQ","A1YSYI926BBOHW","39KMGHJ4RZW9S7JH7DZG09TNV4R00C","","","<img src=""img/flower1.png"" style=""width:200px;border:14px solid red;"">","null","","","","","",""
"609.8999999910593","","image-keyboard-response","192","150584","0.0-192.0","3NJM2BJS4XSYW0GBRGCSZUSKHZKCPQ","A1YSYI926BBOHW","39KMGHJ4RZW9S7JH7DZG09TNV4R00C","","","img/flower1.png","75","610.7000000029802","2","1","2","0.7,0.2,0,0,0.7,0.2,0.2,0,0.7",""
"null","","html-keyboard-response","193","150886","0.0-193.0","3NJM2BJS4XSYW0GBRGCSZUSKHZKCPQ","A1YSYI926BBOHW","39KMGHJ4RZW9S7JH7DZG09TNV4R00C","","","<img src=""img/flower1.png"" style=""width:200px; border:14px solid green;"">","null","","","","","",""
"566.0999999940395","","image-keyboard-response","194","151453","0.0-194.0","3NJM2BJS4XSYW0GBRGCSZUSKHZKCPQ","A1YSYI926BBOHW","39KMGHJ4RZW9S7JH7DZG09TNV4R00C","","","img/flower6.png","76","567.2000000029802","3","0","1","0.7,0.2,0,0,0.7,0.2,0.2,0,0.7",""
"null","","html-keyboard-response","195","151756","0.0-195.0","3NJM2BJS4XSYW0GBRGCSZUSKHZKCPQ","A1YSYI926BBOHW","39KMGHJ4RZW9S7JH7DZG09TNV4R00C","","","<img src=""img/flower6.png"" style=""width:200px;border:14px solid red;"">","null","","","","","",""
"1180","","image-keyboard-response","196","152939","0.0-196.0","3NJM2BJS4XSYW0GBRGCSZUSKHZKCPQ","A1YSYI926BBOHW","39KMGHJ4RZW9S7JH7DZG09TNV4R00C","","","img/flower1.png","75","1182.7000000029802","2","1","2","0.7,0.2,0,0,0.7,0.2,0.2,0,0.7",""
"null","","html-keyboard-response","197","153241","0.0-197.0","3NJM2BJS4XSYW0GBRGCSZUSKHZKCPQ","A1YSYI926BBOHW","39KMGHJ4RZW9S7JH7DZG09TNV4R00C","","","<img src=""img/flower1.png"" style=""width:200px; border:14px solid green;"">","null","","","","","",""
"591.5","","image-keyboard-response","198","153834","0.0-198.0","3NJM2BJS4XSYW0GBRGCSZUSKHZKCPQ","A1YSYI926BBOHW","39KMGHJ4RZW9S7JH7DZG09TNV4R00C","","","img/flower3.png","74","592.5999999940395","1","0","3","0.7,0.2,0,0,0.7,0.2,0.2,0,0.7",""
"null","","html-keyboard-response","199","154136","0.0-199.0","3NJM2BJS4XSYW0GBRGCSZUSKHZKCPQ","A1YSYI926BBOHW","39KMGHJ4RZW9S7JH7DZG09TNV4R00C","","","<img src=""img/flower3.png"" style=""width:200px;border:14px solid red;"">","null","","","","","",""
"685.2999999970198","","image-keyboard-response","200","154823","0.0-200.0","3NJM2BJS4XSYW0GBRGCSZUSKHZKCPQ","A1YSYI926BBOHW","39KMGHJ4RZW9S7JH7DZG09TNV4R00C","","","img/flower3.png","74","686.2000000029802","1","0","3","0.7,0.2,0,0,0.7,0.2,0.2,0,0.7",""
"null","","html-keyboard-response","201","155124","0.0-201.0","3NJM2BJS4XSYW0GBRGCSZUSKHZKCPQ","A1YSYI926BBOHW","39KMGHJ4RZW9S7JH7DZG09TNV4R00C","","","<img src=""img/flower3.png"" style=""width:200px;border:14px solid red;"">","null","","","","","",""
"771.7000000029802","","image-keyboard-response","202","155897","0.0-202.0","3NJM2BJS4XSYW0GBRGCSZUSKHZKCPQ","A1YSYI926BBOHW","39KMGHJ4RZW9S7JH7DZG09TNV4R00C","","","img/flower1.png","75","772.5","2","1","2","0.7,0.2,0,0,0.7,0.2,0.2,0,0.7",""
"null","","html-keyboard-response","203","156199","0.0-203.0","3NJM2BJS4XSYW0GBRGCSZUSKHZKCPQ","A1YSYI926BBOHW","39KMGHJ4RZW9S7JH7DZG09TNV4R00C","","","<img src=""img/flower1.png"" style=""width:200px; border:14px solid green;"">","null","","","","","",""
"604.0999999940395","","image-keyboard-response","204","156806","0.0-204.0","3NJM2BJS4XSYW0GBRGCSZUSKHZKCPQ","A1YSYI926BBOHW","39KMGHJ4RZW9S7JH7DZG09TNV4R00C","","","img/flower1.png","75","606","2","0","2","0.7,0.2,0,0,0.7,0.2,0.2,0,0.7",""
"null","","html-keyboard-response","205","157108","0.0-205.0","3NJM2BJS4XSYW0GBRGCSZUSKHZKCPQ","A1YSYI926BBOHW","39KMGHJ4RZW9S7JH7DZG09TNV4R00C","","","<img src=""img/flower1.png"" style=""width:200px;border:14px solid red;"">","null","","","","","",""
"898","","image-keyboard-response","206","158009","0.0-206.0","3NJM2BJS4XSYW0GBRGCSZUSKHZKCPQ","A1YSYI926BBOHW","39KMGHJ4RZW9S7JH7DZG09TNV4R00C","","","img/flower3.png","74","900.5","1","0","3","0.7,0.2,0,0,0.7,0.2,0.2,0,0.7",""
"null","","html-keyboard-response","207","158310","0.0-207.0","3NJM2BJS4XSYW0GBRGCSZUSKHZKCPQ","A1YSYI926BBOHW","39KMGHJ4RZW9S7JH7DZG09TNV4R00C","","","<img src=""img/flower3.png"" style=""width:200px;border:14px solid red;"">","null","","","","","",""
"566.1000000089407","","image-keyboard-response","208","158877","0.0-208.0","3NJM2BJS4XSYW0GBRGCSZUSKHZKCPQ","A1YSYI926BBOHW","39KMGHJ4RZW9S7JH7DZG09TNV4R00C","","","img/flower6.png","76","567.4000000059605","3","0","1","0.7,0.2,0,0,0.7,0.2,0.2,0,0.7",""
"null","","html-keyboard-response","209","159180","0.0-209.0","3NJM2BJS4XSYW0GBRGCSZUSKHZKCPQ","A1YSYI926BBOHW","39KMGHJ4RZW9S7JH7DZG09TNV4R00C","","","<img src=""img/flower6.png"" style=""width:200px;border:14px solid red;"">","null","","","","","",""
"498.20000000298023","","image-keyboard-response","210","159679","0.0-210.0","3NJM2BJS4XSYW0GBRGCSZUSKHZKCPQ","A1YSYI926BBOHW","39KMGHJ4RZW9S7JH7DZG09TNV4R00C","","","img/flower1.png","75","499.20000000298023","2","1","2","0.7,0.2,0,0,0.7,0.2,0.2,0,0.7",""
"null","","html-keyboard-response","211","159982","0.0-211.0","3NJM2BJS4XSYW0GBRGCSZUSKHZKCPQ","A1YSYI926BBOHW","39KMGHJ4RZW9S7JH7DZG09TNV4R00C","","","<img src=""img/flower1.png"" style=""width:200px; border:14px solid green;"">","null","","","","","",""
"559.9000000059605","","image-keyboard-response","212","160543","0.0-212.0","3NJM2BJS4XSYW0GBRGCSZUSKHZKCPQ","A1YSYI926BBOHW","39KMGHJ4RZW9S7JH7DZG09TNV4R00C","","","img/flower1.png","75","561.1000000089407","2","1","2","0.7,0.2,0,0,0.7,0.2,0.2,0,0.7",""
"null","","html-keyboard-response","213","160845","0.0-213.0","3NJM2BJS4XSYW0GBRGCSZUSKHZKCPQ","A1YSYI926BBOHW","39KMGHJ4RZW9S7JH7DZG09TNV4R00C","","","<img src=""img/flower1.png"" style=""width:200px; border:14px solid green;"">","null","","","","","",""
"586","","image-keyboard-response","214","161434","0.0-214.0","3NJM2BJS4XSYW0GBRGCSZUSKHZKCPQ","A1YSYI926BBOHW","39KMGHJ4RZW9S7JH7DZG09TNV4R00C","","","img/flower3.png","74","587.5999999940395","1","1","3","0.7,0.2,0,0,0.7,0.2,0.2,0,0.7",""
"null","","html-keyboard-response","215","161734","0.0-215.0","3NJM2BJS4XSYW0GBRGCSZUSKHZKCPQ","A1YSYI926BBOHW","39KMGHJ4RZW9S7JH7DZG09TNV4R00C","","","<img src=""img/flower3.png"" style=""width:200px; border:14px solid green;"">","null","","","","","",""
"428","","image-keyboard-response","216","162163","0.0-216.0","3NJM2BJS4XSYW0GBRGCSZUSKHZKCPQ","A1YSYI926BBOHW","39KMGHJ4RZW9S7JH7DZG09TNV4R00C","","","img/flower3.png","74","428.6000000089407","1","1","3","0.7,0.2,0,0,0.7,0.2,0.2,0,0.7",""
"null","","html-keyboard-response","217","162465","0.0-217.0","3NJM2BJS4XSYW0GBRGCSZUSKHZKCPQ","A1YSYI926BBOHW","39KMGHJ4RZW9S7JH7DZG09TNV4R00C","","","<img src=""img/flower3.png"" style=""width:200px; border:14px solid green;"">","null","","","","","",""
"757.5999999940395","","image-keyboard-response","218","163223","0.0-218.0","3NJM2BJS4XSYW0GBRGCSZUSKHZKCPQ","A1YSYI926BBOHW","39KMGHJ4RZW9S7JH7DZG09TNV4R00C","","","img/flower3.png","74","758.2999999970198","1","1","3","0.7,0.2,0,0,0.7,0.2,0.2,0,0.7",""
"null","","html-keyboard-response","219","163525","0.0-219.0","3NJM2BJS4XSYW0GBRGCSZUSKHZKCPQ","A1YSYI926BBOHW","39KMGHJ4RZW9S7JH7DZG09TNV4R00C","","","<img src=""img/flower3.png"" style=""width:200px; border:14px solid green;"">","null","","","","","",""
"539.0999999940395","","image-keyboard-response","220","164066","0.0-220.0","3NJM2BJS4XSYW0GBRGCSZUSKHZKCPQ","A1YSYI926BBOHW","39KMGHJ4RZW9S7JH7DZG09TNV4R00C","","","img/flower1.png","75","540.9000000059605","2","0","2","0.7,0.2,0,0,0.7,0.2,0.2,0,0.7",""
"null","","html-keyboard-response","221","164368","0.0-221.0","3NJM2BJS4XSYW0GBRGCSZUSKHZKCPQ","A1YSYI926BBOHW","39KMGHJ4RZW9S7JH7DZG09TNV4R00C","","","<img src=""img/flower1.png"" style=""width:200px;border:14px solid red;"">","null","","","","","",""
"599.5","","image-keyboard-response","222","164968","0.0-222.0","3NJM2BJS4XSYW0GBRGCSZUSKHZKCPQ","A1YSYI926BBOHW","39KMGHJ4RZW9S7JH7DZG09TNV4R00C","","","img/flower3.png","74","600.2999999970198","1","0","3","0.7,0.2,0,0,0.7,0.2,0.2,0,0.7",""
"null","","html-keyboard-response","223","165271","0.0-223.0","3NJM2BJS4XSYW0GBRGCSZUSKHZKCPQ","A1YSYI926BBOHW","39KMGHJ4RZW9S7JH7DZG09TNV4R00C","","","<img src=""img/flower3.png"" style=""width:200px;border:14px solid red;"">","null","","","","","",""
"624.1999999880791","","image-keyboard-response","224","165897","0.0-224.0","3NJM2BJS4XSYW0GBRGCSZUSKHZKCPQ","A1YSYI926BBOHW","39KMGHJ4RZW9S7JH7DZG09TNV4R00C","","","img/flower6.png","76","625.5999999940395","3","0","1","0.7,0.2,0,0,0.7,0.2,0.2,0,0.7",""
"null","","html-keyboard-response","225","166199","0.0-225.0","3NJM2BJS4XSYW0GBRGCSZUSKHZKCPQ","A1YSYI926BBOHW","39KMGHJ4RZW9S7JH7DZG09TNV4R00C","","","<img src=""img/flower6.png"" style=""width:200px;border:14px solid red;"">","null","","","","","",""
"663.1999999880791","","image-keyboard-response","226","166864","0.0-226.0","3NJM2BJS4XSYW0GBRGCSZUSKHZKCPQ","A1YSYI926BBOHW","39KMGHJ4RZW9S7JH7DZG09TNV4R00C","","","img/flower3.png","74","665","1","1","3","0.7,0.2,0,0,0.7,0.2,0.2,0,0.7",""
"null","","html-keyboard-response","227","167167","0.0-227.0","3NJM2BJS4XSYW0GBRGCSZUSKHZKCPQ","A1YSYI926BBOHW","39KMGHJ4RZW9S7JH7DZG09TNV4R00C","","","<img src=""img/flower3.png"" style=""width:200px; border:14px solid green;"">","null","","","","","",""
"574.2999999970198","","image-keyboard-response","228","167744","0.0-228.0","3NJM2BJS4XSYW0GBRGCSZUSKHZKCPQ","A1YSYI926BBOHW","39KMGHJ4RZW9S7JH7DZG09TNV4R00C","","","img/flower6.png","76","575.9000000059605","3","0","1","0.7,0.2,0,0,0.7,0.2,0.2,0,0.7",""
"null","","html-keyboard-response","229","168047","0.0-229.0","3NJM2BJS4XSYW0GBRGCSZUSKHZKCPQ","A1YSYI926BBOHW","39KMGHJ4RZW9S7JH7DZG09TNV4R00C","","","<img src=""img/flower6.png"" style=""width:200px;border:14px solid red;"">","null","","","","","",""
"537.5","","image-keyboard-response","230","168586","0.0-230.0","3NJM2BJS4XSYW0GBRGCSZUSKHZKCPQ","A1YSYI926BBOHW","39KMGHJ4RZW9S7JH7DZG09TNV4R00C","","","img/flower1.png","75","539.0999999940395","2","0","2","0.7,0.2,0,0,0.7,0.2,0.2,0,0.7",""
"null","","html-keyboard-response","231","168889","0.0-231.0","3NJM2BJS4XSYW0GBRGCSZUSKHZKCPQ","A1YSYI926BBOHW","39KMGHJ4RZW9S7JH7DZG09TNV4R00C","","","<img src=""img/flower1.png"" style=""width:200px;border:14px solid red;"">","null","","","","","",""
"1047.5","","image-keyboard-response","232","169937","0.0-232.0","3NJM2BJS4XSYW0GBRGCSZUSKHZKCPQ","A1YSYI926BBOHW","39KMGHJ4RZW9S7JH7DZG09TNV4R00C","","","img/flower6.png","76","1048.5","3","0","1","0.7,0.2,0,0,0.7,0.2,0.2,0,0.7",""
"null","","html-keyboard-response","233","170239","0.0-233.0","3NJM2BJS4XSYW0GBRGCSZUSKHZKCPQ","A1YSYI926BBOHW","39KMGHJ4RZW9S7JH7DZG09TNV4R00C","","","<img src=""img/flower6.png"" style=""width:200px;border:14px solid red;"">","null","","","","","",""
"602.5","","image-keyboard-response","234","170842","0.0-234.0","3NJM2BJS4XSYW0GBRGCSZUSKHZKCPQ","A1YSYI926BBOHW","39KMGHJ4RZW9S7JH7DZG09TNV4R00C","","","img/flower6.png","76","603.0999999940395","3","0","1","0.7,0.2,0,0,0.7,0.2,0.2,0,0.7",""
"null","","html-keyboard-response","235","171144","0.0-235.0","3NJM2BJS4XSYW0GBRGCSZUSKHZKCPQ","A1YSYI926BBOHW","39KMGHJ4RZW9S7JH7DZG09TNV4R00C","","","<img src=""img/flower6.png"" style=""width:200px;border:14px solid red;"">","null","","","","","",""
"754.7999999970198","","image-keyboard-response","236","171900","0.0-236.0","3NJM2BJS4XSYW0GBRGCSZUSKHZKCPQ","A1YSYI926BBOHW","39KMGHJ4RZW9S7JH7DZG09TNV4R00C","","","img/flower3.png","74","755.7000000029802","1","1","3","0.7,0.2,0,0,0.7,0.2,0.2,0,0.7",""
"null","","html-keyboard-response","237","172202","0.0-237.0","3NJM2BJS4XSYW0GBRGCSZUSKHZKCPQ","A1YSYI926BBOHW","39KMGHJ4RZW9S7JH7DZG09TNV4R00C","","","<img src=""img/flower3.png"" style=""width:200px; border:14px solid green;"">","null","","","","","",""
"693.7999999970198","","image-keyboard-response","238","172897","0.0-238.0","3NJM2BJS4XSYW0GBRGCSZUSKHZKCPQ","A1YSYI926BBOHW","39KMGHJ4RZW9S7JH7DZG09TNV4R00C","","","img/flower1.png","75","694.7999999970198","2","0","2","0.7,0.2,0,0,0.7,0.2,0.2,0,0.7",""
"null","","html-keyboard-response","239","173198","0.0-239.0","3NJM2BJS4XSYW0GBRGCSZUSKHZKCPQ","A1YSYI926BBOHW","39KMGHJ4RZW9S7JH7DZG09TNV4R00C","","","<img src=""img/flower1.png"" style=""width:200px;border:14px solid red;"">","null","","","","","",""
"372.20000000298023","","image-keyboard-response","240","173571","0.0-240.0","3NJM2BJS4XSYW0GBRGCSZUSKHZKCPQ","A1YSYI926BBOHW","39KMGHJ4RZW9S7JH7DZG09TNV4R00C","","","img/flower1.png","75","373","2","1","2","0.7,0.2,0,0,0.7,0.2,0.2,0,0.7",""
"null","","html-keyboard-response","241","173874","0.0-241.0","3NJM2BJS4XSYW0GBRGCSZUSKHZKCPQ","A1YSYI926BBOHW","39KMGHJ4RZW9S7JH7DZG09TNV4R00C","","","<img src=""img/flower1.png"" style=""width:200px; border:14px solid green;"">","null","","","","","",""
"562.8999999910593","","image-keyboard-response","242","174439","0.0-242.0","3NJM2BJS4XSYW0GBRGCSZUSKHZKCPQ","A1YSYI926BBOHW","39KMGHJ4RZW9S7JH7DZG09TNV4R00C","","","img/flower1.png","75","564.5","2","1","2","0.7,0.2,0,0,0.7,0.2,0.2,0,0.7",""
"null","","html-keyboard-response","243","174741","0.0-243.0","3NJM2BJS4XSYW0GBRGCSZUSKHZKCPQ","A1YSYI926BBOHW","39KMGHJ4RZW9S7JH7DZG09TNV4R00C","","","<img src=""img/flower1.png"" style=""width:200px; border:14px solid green;"">","null","","","","","",""
"581.9000000059605","","image-keyboard-response","244","175325","0.0-244.0","3NJM2BJS4XSYW0GBRGCSZUSKHZKCPQ","A1YSYI926BBOHW","39KMGHJ4RZW9S7JH7DZG09TNV4R00C","","","img/flower1.png","75","583.5","2","1","2","0.7,0.2,0,0,0.7,0.2,0.2,0,0.7",""
"null","","html-keyboard-response","245","175627","0.0-245.0","3NJM2BJS4XSYW0GBRGCSZUSKHZKCPQ","A1YSYI926BBOHW","39KMGHJ4RZW9S7JH7DZG09TNV4R00C","","","<img src=""img/flower1.png"" style=""width:200px; border:14px solid green;"">","null","","","","","",""
"562.2000000029802","","image-keyboard-response","246","176190","0.0-246.0","3NJM2BJS4XSYW0GBRGCSZUSKHZKCPQ","A1YSYI926BBOHW","39KMGHJ4RZW9S7JH7DZG09TNV4R00C","","","img/flower3.png","74","562.9000000059605","1","1","3","0.7,0.2,0,0,0.7,0.2,0.2,0,0.7",""
"null","","html-keyboard-response","247","176491","0.0-247.0","3NJM2BJS4XSYW0GBRGCSZUSKHZKCPQ","A1YSYI926BBOHW","39KMGHJ4RZW9S7JH7DZG09TNV4R00C","","","<img src=""img/flower3.png"" style=""width:200px; border:14px solid green;"">","null","","","","","",""
"506.29999999701977","","image-keyboard-response","248","176998","0.0-248.0","3NJM2BJS4XSYW0GBRGCSZUSKHZKCPQ","A1YSYI926BBOHW","39KMGHJ4RZW9S7JH7DZG09TNV4R00C","","","img/flower6.png","76","506.90000000596046","3","0","1","0.7,0.2,0,0,0.7,0.2,0.2,0,0.7",""
"null","","html-keyboard-response","249","177300","0.0-249.0","3NJM2BJS4XSYW0GBRGCSZUSKHZKCPQ","A1YSYI926BBOHW","39KMGHJ4RZW9S7JH7DZG09TNV4R00C","","","<img src=""img/flower6.png"" style=""width:200px;border:14px solid red;"">","null","","","","","",""
"494.30000001192093","","image-keyboard-response","250","177795","0.0-250.0","3NJM2BJS4XSYW0GBRGCSZUSKHZKCPQ","A1YSYI926BBOHW","39KMGHJ4RZW9S7JH7DZG09TNV4R00C","","","img/flower1.png","75","495.40000000596046","2","0","2","0.7,0.2,0,0,0.7,0.2,0.2,0,0.7",""
"null","","html-keyboard-response","251","178098","0.0-251.0","3NJM2BJS4XSYW0GBRGCSZUSKHZKCPQ","A1YSYI926BBOHW","39KMGHJ4RZW9S7JH7DZG09TNV4R00C","","","<img src=""img/flower1.png"" style=""width:200px;border:14px solid red;"">","null","","","","","",""
"583.4000000059605","","image-keyboard-response","252","178684","0.0-252.0","3NJM2BJS4XSYW0GBRGCSZUSKHZKCPQ","A1YSYI926BBOHW","39KMGHJ4RZW9S7JH7DZG09TNV4R00C","","","img/flower6.png","76","585.0999999940395","3","0","1","0.7,0.2,0,0,0.7,0.2,0.2,0,0.7",""
"null","","html-keyboard-response","253","178985","0.0-253.0","3NJM2BJS4XSYW0GBRGCSZUSKHZKCPQ","A1YSYI926BBOHW","39KMGHJ4RZW9S7JH7DZG09TNV4R00C","","","<img src=""img/flower6.png"" style=""width:200px;border:14px solid red;"">","null","","","","","",""
"683.0999999940395","","image-keyboard-response","254","179668","0.0-254.0","3NJM2BJS4XSYW0GBRGCSZUSKHZKCPQ","A1YSYI926BBOHW","39KMGHJ4RZW9S7JH7DZG09TNV4R00C","","","img/flower6.png","75","683.7000000029802","2","1","1","0.7,0.2,0,0,0.7,0.2,0.2,0,0.7",""
"null","","html-keyboard-response","255","179970","0.0-255.0","3NJM2BJS4XSYW0GBRGCSZUSKHZKCPQ","A1YSYI926BBOHW","39KMGHJ4RZW9S7JH7DZG09TNV4R00C","","","<img src=""img/flower6.png"" style=""width:200px; border:14px solid green;"">","null","","","","","",""
"658","","image-keyboard-response","256","180629","0.0-256.0","3NJM2BJS4XSYW0GBRGCSZUSKHZKCPQ","A1YSYI926BBOHW","39KMGHJ4RZW9S7JH7DZG09TNV4R00C","","","img/flower3.png","74","659.2000000029802","1","1","3","0.7,0.2,0,0,0.7,0.2,0.2,0,0.7",""
"null","","html-keyboard-response","257","180931","0.0-257.0","3NJM2BJS4XSYW0GBRGCSZUSKHZKCPQ","A1YSYI926BBOHW","39KMGHJ4RZW9S7JH7DZG09TNV4R00C","","","<img src=""img/flower3.png"" style=""width:200px; border:14px solid green;"">","null","","","","","",""
"572.7999999970198","","image-keyboard-response","258","181504","0.0-258.0","3NJM2BJS4XSYW0GBRGCSZUSKHZKCPQ","A1YSYI926BBOHW","39KMGHJ4RZW9S7JH7DZG09TNV4R00C","","","img/flower3.png","74","573.7999999970198","1","0","3","0.7,0.2,0,0,0.7,0.2,0.2,0,0.7",""
"null","","html-keyboard-response","259","181806","0.0-259.0","3NJM2BJS4XSYW0GBRGCSZUSKHZKCPQ","A1YSYI926BBOHW","39KMGHJ4RZW9S7JH7DZG09TNV4R00C","","","<img src=""img/flower3.png"" style=""width:200px;border:14px solid red;"">","null","","","","","",""
"736.9000000059605","","image-keyboard-response","260","182544","0.0-260.0","3NJM2BJS4XSYW0GBRGCSZUSKHZKCPQ","A1YSYI926BBOHW","39KMGHJ4RZW9S7JH7DZG09TNV4R00C","","","img/flower6.png","75","737.8000000119209","2","1","1","0.7,0.2,0,0,0.7,0.2,0.2,0,0.7",""
"null","","html-keyboard-response","261","182846","0.0-261.0","3NJM2BJS4XSYW0GBRGCSZUSKHZKCPQ","A1YSYI926BBOHW","39KMGHJ4RZW9S7JH7DZG09TNV4R00C","","","<img src=""img/flower6.png"" style=""width:200px; border:14px solid green;"">","null","","","","","",""
"415.20000000298023","","image-keyboard-response","262","183262","0.0-262.0","3NJM2BJS4XSYW0GBRGCSZUSKHZKCPQ","A1YSYI926BBOHW","39KMGHJ4RZW9S7JH7DZG09TNV4R00C","","","img/flower6.png","75","416.20000000298023","2","0","1","0.7,0.2,0,0,0.7,0.2,0.2,0,0.7",""
"null","","html-keyboard-response","263","183563","0.0-263.0","3NJM2BJS4XSYW0GBRGCSZUSKHZKCPQ","A1YSYI926BBOHW","39KMGHJ4RZW9S7JH7DZG09TNV4R00C","","","<img src=""img/flower6.png"" style=""width:200px;border:14px solid red;"">","null","","","","","",""
"595.1000000089407","","image-keyboard-response","264","184159","0.0-264.0","3NJM2BJS4XSYW0GBRGCSZUSKHZKCPQ","A1YSYI926BBOHW","39KMGHJ4RZW9S7JH7DZG09TNV4R00C","","","img/flower3.png","74","596","1","0","3","0.7,0.2,0,0,0.7,0.2,0.2,0,0.7",""
"null","","html-keyboard-response","265","184462","0.0-265.0","3NJM2BJS4XSYW0GBRGCSZUSKHZKCPQ","A1YSYI926BBOHW","39KMGHJ4RZW9S7JH7DZG09TNV4R00C","","","<img src=""img/flower3.png"" style=""width:200px;border:14px solid red;"">","null","","","","","",""
"776.0999999940395","","image-keyboard-response","266","185239","0.0-266.0","3NJM2BJS4XSYW0GBRGCSZUSKHZKCPQ","A1YSYI926BBOHW","39KMGHJ4RZW9S7JH7DZG09TNV4R00C","","","img/flower6.png","76","777.2000000029802","3","0","1","0.7,0.2,0,0,0.7,0.2,0.2,0,0.7",""
"null","","html-keyboard-response","267","185543","0.0-267.0","3NJM2BJS4XSYW0GBRGCSZUSKHZKCPQ","A1YSYI926BBOHW","39KMGHJ4RZW9S7JH7DZG09TNV4R00C","","","<img src=""img/flower6.png"" style=""width:200px;border:14px solid red;"">","null","","","","","",""
"514.6000000089407","","image-keyboard-response","268","186062","0.0-268.0","3NJM2BJS4XSYW0GBRGCSZUSKHZKCPQ","A1YSYI926BBOHW","39KMGHJ4RZW9S7JH7DZG09TNV4R00C","","","img/flower1.png","75","517.3999999910593","2","0","2","0.7,0.2,0,0,0.7,0.2,0.2,0,0.7",""
"null","","html-keyboard-response","269","186364","0.0-269.0","3NJM2BJS4XSYW0GBRGCSZUSKHZKCPQ","A1YSYI926BBOHW","39KMGHJ4RZW9S7JH7DZG09TNV4R00C","","","<img src=""img/flower1.png"" style=""width:200px;border:14px solid red;"">","null","","","","","",""
"599.7999999970198","","image-keyboard-response","270","186965","0.0-270.0","3NJM2BJS4XSYW0GBRGCSZUSKHZKCPQ","A1YSYI926BBOHW","39KMGHJ4RZW9S7JH7DZG09TNV4R00C","","","img/flower1.png","74","601","1","0","2","0.7,0.2,0,0,0.7,0.2,0.2,0,0.7",""
"null","","html-keyboard-response","271","187268","0.0-271.0","3NJM2BJS4XSYW0GBRGCSZUSKHZKCPQ","A1YSYI926BBOHW","39KMGHJ4RZW9S7JH7DZG09TNV4R00C","","","<img src=""img/flower1.png"" style=""width:200px;border:14px solid red;"">","null","","","","","",""
"656.4000000059605","","image-keyboard-response","272","187927","0.0-272.0","3NJM2BJS4XSYW0GBRGCSZUSKHZKCPQ","A1YSYI926BBOHW","39KMGHJ4RZW9S7JH7DZG09TNV4R00C","","","img/flower1.png","76","658.0999999940395","3","0","2","0.7,0.2,0,0,0.7,0.2,0.2,0,0.7",""
"null","","html-keyboard-response","273","188230","0.0-273.0","3NJM2BJS4XSYW0GBRGCSZUSKHZKCPQ","A1YSYI926BBOHW","39KMGHJ4RZW9S7JH7DZG09TNV4R00C","","","<img src=""img/flower1.png"" style=""width:200px;border:14px solid red;"">","null","","","","","",""
"590.5999999940395","","image-keyboard-response","274","188822","0.0-274.0","3NJM2BJS4XSYW0GBRGCSZUSKHZKCPQ","A1YSYI926BBOHW","39KMGHJ4RZW9S7JH7DZG09TNV4R00C","","","img/flower6.png","75","592.2999999970198","2","0","1","0.7,0.2,0,0,0.7,0.2,0.2,0,0.7",""
"null","","html-keyboard-response","275","189125","0.0-275.0","3NJM2BJS4XSYW0GBRGCSZUSKHZKCPQ","A1YSYI926BBOHW","39KMGHJ4RZW9S7JH7DZG09TNV4R00C","","","<img src=""img/flower6.png"" style=""width:200px;border:14px solid red;"">","null","","","","","",""
"954.0999999940395","","image-keyboard-response","276","190081","0.0-276.0","3NJM2BJS4XSYW0GBRGCSZUSKHZKCPQ","A1YSYI926BBOHW","39KMGHJ4RZW9S7JH7DZG09TNV4R00C","","","img/flower3.png","74","955.8000000119209","1","0","3","0.7,0.2,0,0,0.7,0.2,0.2,0,0.7",""
"null","","html-keyboard-response","277","190384","0.0-277.0","3NJM2BJS4XSYW0GBRGCSZUSKHZKCPQ","A1YSYI926BBOHW","39KMGHJ4RZW9S7JH7DZG09TNV4R00C","","","<img src=""img/flower3.png"" style=""width:200px;border:14px solid red;"">","null","","","","","",""
"568.5","","image-keyboard-response","278","190954","0.0-278.0","3NJM2BJS4XSYW0GBRGCSZUSKHZKCPQ","A1YSYI926BBOHW","39KMGHJ4RZW9S7JH7DZG09TNV4R00C","","","img/flower6.png","76","569.7999999970198","3","0","1","0.7,0.2,0,0,0.7,0.2,0.2,0,0.7",""
"null","","html-keyboard-response","279","191256","0.0-279.0","3NJM2BJS4XSYW0GBRGCSZUSKHZKCPQ","A1YSYI926BBOHW","39KMGHJ4RZW9S7JH7DZG09TNV4R00C","","","<img src=""img/flower6.png"" style=""width:200px;border:14px solid red;"">","null","","","","","",""
"464.70000000298023","","image-keyboard-response","280","191722","0.0-280.0","3NJM2BJS4XSYW0GBRGCSZUSKHZKCPQ","A1YSYI926BBOHW","39KMGHJ4RZW9S7JH7DZG09TNV4R00C","","","img/flower6.png","76","465.59999999403954","3","0","1","0.7,0.2,0,0,0.7,0.2,0.2,0,0.7",""
"null","","html-keyboard-response","281","192023","0.0-281.0","3NJM2BJS4XSYW0GBRGCSZUSKHZKCPQ","A1YSYI926BBOHW","39KMGHJ4RZW9S7JH7DZG09TNV4R00C","","","<img src=""img/flower6.png"" style=""width:200px;border:14px solid red;"">","null","","","","","",""
"403.70000000298023","","image-keyboard-response","282","192429","0.0-282.0","3NJM2BJS4XSYW0GBRGCSZUSKHZKCPQ","A1YSYI926BBOHW","39KMGHJ4RZW9S7JH7DZG09TNV4R00C","","","img/flower6.png","76","405.29999999701977","3","0","1","0.7,0.2,0,0,0.7,0.2,0.2,0,0.7",""
"null","","html-keyboard-response","283","192730","0.0-283.0","3NJM2BJS4XSYW0GBRGCSZUSKHZKCPQ","A1YSYI926BBOHW","39KMGHJ4RZW9S7JH7DZG09TNV4R00C","","","<img src=""img/flower6.png"" style=""width:200px;border:14px solid red;"">","null","","","","","",""
"307.5","","image-keyboard-response","284","193039","0.0-284.0","3NJM2BJS4XSYW0GBRGCSZUSKHZKCPQ","A1YSYI926BBOHW","39KMGHJ4RZW9S7JH7DZG09TNV4R00C","","","img/flower6.png","76","308.29999999701977","3","0","1","0.7,0.2,0,0,0.7,0.2,0.2,0,0.7",""
"null","","html-keyboard-response","285","193341","0.0-285.0","3NJM2BJS4XSYW0GBRGCSZUSKHZKCPQ","A1YSYI926BBOHW","39KMGHJ4RZW9S7JH7DZG09TNV4R00C","","","<img src=""img/flower6.png"" style=""width:200px;border:14px solid red;"">","null","","","","","",""
"496.6000000089407","","image-keyboard-response","286","193839","0.0-286.0","3NJM2BJS4XSYW0GBRGCSZUSKHZKCPQ","A1YSYI926BBOHW","39KMGHJ4RZW9S7JH7DZG09TNV4R00C","","","img/flower1.png","75","497.79999999701977","2","1","2","0.7,0.2,0,0,0.7,0.2,0.2,0,0.7",""
"null","","html-keyboard-response","287","194141","0.0-287.0","3NJM2BJS4XSYW0GBRGCSZUSKHZKCPQ","A1YSYI926BBOHW","39KMGHJ4RZW9S7JH7DZG09TNV4R00C","","","<img src=""img/flower1.png"" style=""width:200px; border:14px solid green;"">","null","","","","","",""
"628.5","","image-keyboard-response","288","194771","0.0-288.0","3NJM2BJS4XSYW0GBRGCSZUSKHZKCPQ","A1YSYI926BBOHW","39KMGHJ4RZW9S7JH7DZG09TNV4R00C","","","img/flower6.png","76","629.7999999970198","3","0","1","0.7,0.2,0,0,0.7,0.2,0.2,0,0.7",""
"null","","html-keyboard-response","289","195073","0.0-289.0","3NJM2BJS4XSYW0GBRGCSZUSKHZKCPQ","A1YSYI926BBOHW","39KMGHJ4RZW9S7JH7DZG09TNV4R00C","","","<img src=""img/flower6.png"" style=""width:200px;border:14px solid red;"">","null","","","","","",""
"496.40000000596046","","image-keyboard-response","290","195571","0.0-290.0","3NJM2BJS4XSYW0GBRGCSZUSKHZKCPQ","A1YSYI926BBOHW","39KMGHJ4RZW9S7JH7DZG09TNV4R00C","","","img/flower3.png","74","497.5","1","0","3","0.7,0.2,0,0,0.7,0.2,0.2,0,0.7",""
"null","","html-keyboard-response","291","195872","0.0-291.0","3NJM2BJS4XSYW0GBRGCSZUSKHZKCPQ","A1YSYI926BBOHW","39KMGHJ4RZW9S7JH7DZG09TNV4R00C","","","<img src=""img/flower3.png"" style=""width:200px;border:14px solid red;"">","null","","","","","",""
"493.79999999701977","","image-keyboard-response","292","196368","0.0-292.0","3NJM2BJS4XSYW0GBRGCSZUSKHZKCPQ","A1YSYI926BBOHW","39KMGHJ4RZW9S7JH7DZG09TNV4R00C","","","img/flower1.png","75","495.80000001192093","2","0","2","0.7,0.2,0,0,0.7,0.2,0.2,0,0.7",""
"null","","html-keyboard-response","293","196671","0.0-293.0","3NJM2BJS4XSYW0GBRGCSZUSKHZKCPQ","A1YSYI926BBOHW","39KMGHJ4RZW9S7JH7DZG09TNV4R00C","","","<img src=""img/flower1.png"" style=""width:200px;border:14px solid red;"">","null","","","","","",""
"393.5","","image-keyboard-response","294","197065","0.0-294.0","3NJM2BJS4XSYW0GBRGCSZUSKHZKCPQ","A1YSYI926BBOHW","39KMGHJ4RZW9S7JH7DZG09TNV4R00C","","","img/flower1.png","75","394.79999999701977","2","1","2","0.7,0.2,0,0,0.7,0.2,0.2,0,0.7",""
"null","","html-keyboard-response","295","197368","0.0-295.0","3NJM2BJS4XSYW0GBRGCSZUSKHZKCPQ","A1YSYI926BBOHW","39KMGHJ4RZW9S7JH7DZG09TNV4R00C","","","<img src=""img/flower1.png"" style=""width:200px; border:14px solid green;"">","null","","","","","",""
"596.1999999880791","","image-keyboard-response","296","197965","0.0-296.0","3NJM2BJS4XSYW0GBRGCSZUSKHZKCPQ","A1YSYI926BBOHW","39KMGHJ4RZW9S7JH7DZG09TNV4R00C","","","img/flower3.png","74","597.0999999940395","1","0","3","0.7,0.2,0,0,0.7,0.2,0.2,0,0.7",""
"null","","html-keyboard-response","297","198266","0.0-297.0","3NJM2BJS4XSYW0GBRGCSZUSKHZKCPQ","A1YSYI926BBOHW","39KMGHJ4RZW9S7JH7DZG09TNV4R00C","","","<img src=""img/flower3.png"" style=""width:200px;border:14px solid red;"">","null","","","","","",""
"365","","image-keyboard-response","298","198632","0.0-298.0","3NJM2BJS4XSYW0GBRGCSZUSKHZKCPQ","A1YSYI926BBOHW","39KMGHJ4RZW9S7JH7DZG09TNV4R00C","","","img/flower3.png","74","365.8999999910593","1","0","3","0.7,0.2,0,0,0.7,0.2,0.2,0,0.7",""
"null","","html-keyboard-response","299","198934","0.0-299.0","3NJM2BJS4XSYW0GBRGCSZUSKHZKCPQ","A1YSYI926BBOHW","39KMGHJ4RZW9S7JH7DZG09TNV4R00C","","","<img src=""img/flower3.png"" style=""width:200px;border:14px solid red;"">","null","","","","","",""
"564","","image-keyboard-response","300","199500","0.0-300.0","3NJM2BJS4XSYW0GBRGCSZUSKHZKCPQ","A1YSYI926BBOHW","39KMGHJ4RZW9S7JH7DZG09TNV4R00C","","","img/flower6.png","76","565.6000000089407","3","0","1","0.7,0.2,0,0,0.7,0.2,0.2,0,0.7",""
"null","","html-keyboard-response","301","199803","0.0-301.0","3NJM2BJS4XSYW0GBRGCSZUSKHZKCPQ","A1YSYI926BBOHW","39KMGHJ4RZW9S7JH7DZG09TNV4R00C","","","<img src=""img/flower6.png"" style=""width:200px;border:14px solid red;"">","null","","","","","",""
"734.7000000029802","","image-keyboard-response","302","200539","0.0-302.0","3NJM2BJS4XSYW0GBRGCSZUSKHZKCPQ","A1YSYI926BBOHW","39KMGHJ4RZW9S7JH7DZG09TNV4R00C","","","img/flower6.png","74","735.5999999940395","1","0","1","0.7,0.2,0,0,0.7,0.2,0.2,0,0.7",""
"null","","html-keyboard-response","303","200839","0.0-303.0","3NJM2BJS4XSYW0GBRGCSZUSKHZKCPQ","A1YSYI926BBOHW","39KMGHJ4RZW9S7JH7DZG09TNV4R00C","","","<img src=""img/flower6.png"" style=""width:200px;border:14px solid red;"">","null","","","","","",""
"747.7999999970198","","image-keyboard-response","304","201588","0.0-304.0","3NJM2BJS4XSYW0GBRGCSZUSKHZKCPQ","A1YSYI926BBOHW","39KMGHJ4RZW9S7JH7DZG09TNV4R00C","","","img/flower3.png","74","748.5","1","0","3","0.7,0.2,0,0,0.7,0.2,0.2,0,0.7",""
"null","","html-keyboard-response","305","201890","0.0-305.0","3NJM2BJS4XSYW0GBRGCSZUSKHZKCPQ","A1YSYI926BBOHW","39KMGHJ4RZW9S7JH7DZG09TNV4R00C","","","<img src=""img/flower3.png"" style=""width:200px;border:14px solid red;"">","null","","","","","",""
"","","html-keyboard-response","306","205239","0.0-306.0","3NJM2BJS4XSYW0GBRGCSZUSKHZKCPQ","A1YSYI926BBOHW","39KMGHJ4RZW9S7JH7DZG09TNV4R00C","","","","","","","","","",""
"1047.4000000059605","","image-keyboard-response","307","206287","0.0-307.0","3NJM2BJS4XSYW0GBRGCSZUSKHZKCPQ","A1YSYI926BBOHW","39KMGHJ4RZW9S7JH7DZG09TNV4R00C","","","img/flower2.png","76","1048.2999999970198","3","0","2","0.7,0.2,0,0.7,0,0.2,0.2,0,0.7",""
"null","","html-keyboard-response","308","206588","0.0-308.0","3NJM2BJS4XSYW0GBRGCSZUSKHZKCPQ","A1YSYI926BBOHW","39KMGHJ4RZW9S7JH7DZG09TNV4R00C","","","<img src=""img/flower2.png"" style=""width:200px;border:14px solid red;"">","null","","","","","",""
"599.6000000089407","","image-keyboard-response","309","207189","0.0-309.0","3NJM2BJS4XSYW0GBRGCSZUSKHZKCPQ","A1YSYI926BBOHW","39KMGHJ4RZW9S7JH7DZG09TNV4R00C","","","img/flower5.png","75","601","2","0","3","0.7,0.2,0,0.7,0,0.2,0.2,0,0.7",""
"null","","html-keyboard-response","310","207492","0.0-310.0","3NJM2BJS4XSYW0GBRGCSZUSKHZKCPQ","A1YSYI926BBOHW","39KMGHJ4RZW9S7JH7DZG09TNV4R00C","","","<img src=""img/flower5.png"" style=""width:200px;border:14px solid red;"">","null","","","","","",""
"531.8000000119209","","image-keyboard-response","311","208025","0.0-311.0","3NJM2BJS4XSYW0GBRGCSZUSKHZKCPQ","A1YSYI926BBOHW","39KMGHJ4RZW9S7JH7DZG09TNV4R00C","","","img/flower5.png","75","532.7999999970198","2","0","3","0.7,0.2,0,0.7,0,0.2,0.2,0,0.7",""
"null","","html-keyboard-response","312","208327","0.0-312.0","3NJM2BJS4XSYW0GBRGCSZUSKHZKCPQ","A1YSYI926BBOHW","39KMGHJ4RZW9S7JH7DZG09TNV4R00C","","","<img src=""img/flower5.png"" style=""width:200px;border:14px solid red;"">","null","","","","","",""
"935.2999999970198","","image-keyboard-response","313","209263","0.0-313.0","3NJM2BJS4XSYW0GBRGCSZUSKHZKCPQ","A1YSYI926BBOHW","39KMGHJ4RZW9S7JH7DZG09TNV4R00C","","","img/flower2.png","76","936.3999999910593","3","0","2","0.7,0.2,0,0.7,0,0.2,0.2,0,0.7",""
"null","","html-keyboard-response","314","209565","0.0-314.0","3NJM2BJS4XSYW0GBRGCSZUSKHZKCPQ","A1YSYI926BBOHW","39KMGHJ4RZW9S7JH7DZG09TNV4R00C","","","<img src=""img/flower2.png"" style=""width:200px;border:14px solid red;"">","null","","","","","",""
"723.2999999970198","","image-keyboard-response","315","210289","0.0-315.0","3NJM2BJS4XSYW0GBRGCSZUSKHZKCPQ","A1YSYI926BBOHW","39KMGHJ4RZW9S7JH7DZG09TNV4R00C","","","img/flower4.png","74","723.9000000059605","1","0","1","0.7,0.2,0,0.7,0,0.2,0.2,0,0.7",""
"null","","html-keyboard-response","316","210589","0.0-316.0","3NJM2BJS4XSYW0GBRGCSZUSKHZKCPQ","A1YSYI926BBOHW","39KMGHJ4RZW9S7JH7DZG09TNV4R00C","","","<img src=""img/flower4.png"" style=""width:200px;border:14px solid red;"">","null","","","","","",""
"1169","","image-keyboard-response","317","211760","0.0-317.0","3NJM2BJS4XSYW0GBRGCSZUSKHZKCPQ","A1YSYI926BBOHW","39KMGHJ4RZW9S7JH7DZG09TNV4R00C","","","img/flower5.png","76","1170.4000000059605","3","0","3","0.7,0.2,0,0.7,0,0.2,0.2,0,0.7",""
"null","","html-keyboard-response","318","212062","0.0-318.0","3NJM2BJS4XSYW0GBRGCSZUSKHZKCPQ","A1YSYI926BBOHW","39KMGHJ4RZW9S7JH7DZG09TNV4R00C","","","<img src=""img/flower5.png"" style=""width:200px;border:14px solid red;"">","null","","","","","",""
"777.9000000059605","","image-keyboard-response","319","212841","0.0-319.0","3NJM2BJS4XSYW0GBRGCSZUSKHZKCPQ","A1YSYI926BBOHW","39KMGHJ4RZW9S7JH7DZG09TNV4R00C","","","img/flower5.png","74","778.7999999970198","1","0","3","0.7,0.2,0,0.7,0,0.2,0.2,0,0.7",""
"null","","html-keyboard-response","320","213143","0.0-320.0","3NJM2BJS4XSYW0GBRGCSZUSKHZKCPQ","A1YSYI926BBOHW","39KMGHJ4RZW9S7JH7DZG09TNV4R00C","","","<img src=""img/flower5.png"" style=""width:200px;border:14px solid red;"">","null","","","","","",""
"971.5","","image-keyboard-response","321","214117","0.0-321.0","3NJM2BJS4XSYW0GBRGCSZUSKHZKCPQ","A1YSYI926BBOHW","39KMGHJ4RZW9S7JH7DZG09TNV4R00C","","","img/flower5.png","75","973.2999999970198","2","0","3","0.7,0.2,0,0.7,0,0.2,0.2,0,0.7",""
"null","","html-keyboard-response","322","214419","0.0-322.0","3NJM2BJS4XSYW0GBRGCSZUSKHZKCPQ","A1YSYI926BBOHW","39KMGHJ4RZW9S7JH7DZG09TNV4R00C","","","<img src=""img/flower5.png"" style=""width:200px;border:14px solid red;"">","null","","","","","",""
"327.59999999403954","","image-keyboard-response","323","214747","0.0-323.0","3NJM2BJS4XSYW0GBRGCSZUSKHZKCPQ","A1YSYI926BBOHW","39KMGHJ4RZW9S7JH7DZG09TNV4R00C","","","img/flower5.png","75","328.5","2","0","3","0.7,0.2,0,0.7,0,0.2,0.2,0,0.7",""
"null","","html-keyboard-response","324","215049","0.0-324.0","3NJM2BJS4XSYW0GBRGCSZUSKHZKCPQ","A1YSYI926BBOHW","39KMGHJ4RZW9S7JH7DZG09TNV4R00C","","","<img src=""img/flower5.png"" style=""width:200px;border:14px solid red;"">","null","","","","","",""
"277.8999999910593","","image-keyboard-response","325","215329","0.0-325.0","3NJM2BJS4XSYW0GBRGCSZUSKHZKCPQ","A1YSYI926BBOHW","39KMGHJ4RZW9S7JH7DZG09TNV4R00C","","","img/flower5.png","75","279.1000000089407","2","0","3","0.7,0.2,0,0.7,0,0.2,0.2,0,0.7",""
"null","","html-keyboard-response","326","215631","0.0-326.0","3NJM2BJS4XSYW0GBRGCSZUSKHZKCPQ","A1YSYI926BBOHW","39KMGHJ4RZW9S7JH7DZG09TNV4R00C","","","<img src=""img/flower5.png"" style=""width:200px;border:14px solid red;"">","null","","","","","",""
"375.40000000596046","","image-keyboard-response","327","216007","0.0-327.0","3NJM2BJS4XSYW0GBRGCSZUSKHZKCPQ","A1YSYI926BBOHW","39KMGHJ4RZW9S7JH7DZG09TNV4R00C","","","img/flower5.png","75","376","2","0","3","0.7,0.2,0,0.7,0,0.2,0.2,0,0.7",""
"null","","html-keyboard-response","328","216309","0.0-328.0","3NJM2BJS4XSYW0GBRGCSZUSKHZKCPQ","A1YSYI926BBOHW","39KMGHJ4RZW9S7JH7DZG09TNV4R00C","","","<img src=""img/flower5.png"" style=""width:200px;border:14px solid red;"">","null","","","","","",""
"227.29999999701977","","image-keyboard-response","329","216537","0.0-329.0","3NJM2BJS4XSYW0GBRGCSZUSKHZKCPQ","A1YSYI926BBOHW","39KMGHJ4RZW9S7JH7DZG09TNV4R00C","","","img/flower2.png","75","228.1000000089407","2","0","2","0.7,0.2,0,0.7,0,0.2,0.2,0,0.7",""
"null","","html-keyboard-response","330","216839","0.0-330.0","3NJM2BJS4XSYW0GBRGCSZUSKHZKCPQ","A1YSYI926BBOHW","39KMGHJ4RZW9S7JH7DZG09TNV4R00C","","","<img src=""img/flower2.png"" style=""width:200px;border:14px solid red;"">","null","","","","","",""
"633.2000000029802","","image-keyboard-response","331","217474","0.0-331.0","3NJM2BJS4XSYW0GBRGCSZUSKHZKCPQ","A1YSYI926BBOHW","39KMGHJ4RZW9S7JH7DZG09TNV4R00C","","","img/flower5.png","75","634.2999999970198","2","0","3","0.7,0.2,0,0.7,0,0.2,0.2,0,0.7",""
"null","","html-keyboard-response","332","217776","0.0-332.0","3NJM2BJS4XSYW0GBRGCSZUSKHZKCPQ","A1YSYI926BBOHW","39KMGHJ4RZW9S7JH7DZG09TNV4R00C","","","<img src=""img/flower5.png"" style=""width:200px;border:14px solid red;"">","null","","","","","",""
"575","","image-keyboard-response","333","218354","0.0-333.0","3NJM2BJS4XSYW0GBRGCSZUSKHZKCPQ","A1YSYI926BBOHW","39KMGHJ4RZW9S7JH7DZG09TNV4R00C","","","img/flower4.png","74","576.8999999910593","1","1","1","0.7,0.2,0,0.7,0,0.2,0.2,0,0.7",""
"null","","html-keyboard-response","334","218655","0.0-334.0","3NJM2BJS4XSYW0GBRGCSZUSKHZKCPQ","A1YSYI926BBOHW","39KMGHJ4RZW9S7JH7DZG09TNV4R00C","","","<img src=""img/flower4.png"" style=""width:200px; border:14px solid green;"">","null","","","","","",""
"468.59999999403954","","image-keyboard-response","335","219125","0.0-335.0","3NJM2BJS4XSYW0GBRGCSZUSKHZKCPQ","A1YSYI926BBOHW","39KMGHJ4RZW9S7JH7DZG09TNV4R00C","","","img/flower4.png","74","469.3999999910593","1","1","1","0.7,0.2,0,0.7,0,0.2,0.2,0,0.7",""
"null","","html-keyboard-response","336","219427","0.0-336.0","3NJM2BJS4XSYW0GBRGCSZUSKHZKCPQ","A1YSYI926BBOHW","39KMGHJ4RZW9S7JH7DZG09TNV4R00C","","","<img src=""img/flower4.png"" style=""width:200px; border:14px solid green;"">","null","","","","","",""
"545.0999999940395","","image-keyboard-response","337","219973","0.0-337.0","3NJM2BJS4XSYW0GBRGCSZUSKHZKCPQ","A1YSYI926BBOHW","39KMGHJ4RZW9S7JH7DZG09TNV4R00C","","","img/flower2.png","76","546.3999999910593","3","0","2","0.7,0.2,0,0.7,0,0.2,0.2,0,0.7",""
"null","","html-keyboard-response","338","220276","0.0-338.0","3NJM2BJS4XSYW0GBRGCSZUSKHZKCPQ","A1YSYI926BBOHW","39KMGHJ4RZW9S7JH7DZG09TNV4R00C","","","<img src=""img/flower2.png"" style=""width:200px;border:14px solid red;"">","null","","","","","",""
"564.6000000089407","","image-keyboard-response","339","220841","0.0-339.0","3NJM2BJS4XSYW0GBRGCSZUSKHZKCPQ","A1YSYI926BBOHW","39KMGHJ4RZW9S7JH7DZG09TNV4R00C","","","img/flower5.png","75","565.2000000029802","2","0","3","0.7,0.2,0,0.7,0,0.2,0.2,0,0.7",""
"null","","html-keyboard-response","340","221142","0.0-340.0","3NJM2BJS4XSYW0GBRGCSZUSKHZKCPQ","A1YSYI926BBOHW","39KMGHJ4RZW9S7JH7DZG09TNV4R00C","","","<img src=""img/flower5.png"" style=""width:200px;border:14px solid red;"">","null","","","","","",""
"531","","image-keyboard-response","341","221674","0.0-341.0","3NJM2BJS4XSYW0GBRGCSZUSKHZKCPQ","A1YSYI926BBOHW","39KMGHJ4RZW9S7JH7DZG09TNV4R00C","","","img/flower2.png","76","531.7999999970198","3","0","2","0.7,0.2,0,0.7,0,0.2,0.2,0,0.7",""
"null","","html-keyboard-response","342","221976","0.0-342.0","3NJM2BJS4XSYW0GBRGCSZUSKHZKCPQ","A1YSYI926BBOHW","39KMGHJ4RZW9S7JH7DZG09TNV4R00C","","","<img src=""img/flower2.png"" style=""width:200px;border:14px solid red;"">","null","","","","","",""
"553.7000000029802","","image-keyboard-response","343","222531","0.0-343.0","3NJM2BJS4XSYW0GBRGCSZUSKHZKCPQ","A1YSYI926BBOHW","39KMGHJ4RZW9S7JH7DZG09TNV4R00C","","","img/flower4.png","74","554.5","1","1","1","0.7,0.2,0,0.7,0,0.2,0.2,0,0.7",""
"null","","html-keyboard-response","344","222832","0.0-344.0","3NJM2BJS4XSYW0GBRGCSZUSKHZKCPQ","A1YSYI926BBOHW","39KMGHJ4RZW9S7JH7DZG09TNV4R00C","","","<img src=""img/flower4.png"" style=""width:200px; border:14px solid green;"">","null","","","","","",""
"782","","image-keyboard-response","345","223615","0.0-345.0","3NJM2BJS4XSYW0GBRGCSZUSKHZKCPQ","A1YSYI926BBOHW","39KMGHJ4RZW9S7JH7DZG09TNV4R00C","","","img/flower2.png","75","782.8999999910593","2","0","2","0.7,0.2,0,0.7,0,0.2,0.2,0,0.7",""
"null","","html-keyboard-response","346","223917","0.0-346.0","3NJM2BJS4XSYW0GBRGCSZUSKHZKCPQ","A1YSYI926BBOHW","39KMGHJ4RZW9S7JH7DZG09TNV4R00C","","","<img src=""img/flower2.png"" style=""width:200px;border:14px solid red;"">","null","","","","","",""
"571.4000000059605","","image-keyboard-response","347","224490","0.0-347.0","3NJM2BJS4XSYW0GBRGCSZUSKHZKCPQ","A1YSYI926BBOHW","39KMGHJ4RZW9S7JH7DZG09TNV4R00C","","","img/flower4.png","74","572.2999999970198","1","1","1","0.7,0.2,0,0.7,0,0.2,0.2,0,0.7",""
"null","","html-keyboard-response","348","224791","0.0-348.0","3NJM2BJS4XSYW0GBRGCSZUSKHZKCPQ","A1YSYI926BBOHW","39KMGHJ4RZW9S7JH7DZG09TNV4R00C","","","<img src=""img/flower4.png"" style=""width:200px; border:14px solid green;"">","null","","","","","",""
"565.3000000119209","","image-keyboard-response","349","225359","0.0-349.0","3NJM2BJS4XSYW0GBRGCSZUSKHZKCPQ","A1YSYI926BBOHW","39KMGHJ4RZW9S7JH7DZG09TNV4R00C","","","img/flower2.png","76","567.1000000089407","3","0","2","0.7,0.2,0,0.7,0,0.2,0.2,0,0.7",""
"null","","html-keyboard-response","350","225661","0.0-350.0","3NJM2BJS4XSYW0GBRGCSZUSKHZKCPQ","A1YSYI926BBOHW","39KMGHJ4RZW9S7JH7DZG09TNV4R00C","","","<img src=""img/flower2.png"" style=""width:200px;border:14px solid red;"">","null","","","","","",""
"681.2000000029802","","image-keyboard-response","351","226343","0.0-351.0","3NJM2BJS4XSYW0GBRGCSZUSKHZKCPQ","A1YSYI926BBOHW","39KMGHJ4RZW9S7JH7DZG09TNV4R00C","","","img/flower4.png","74","681.7000000029802","1","1","1","0.7,0.2,0,0.7,0,0.2,0.2,0,0.7",""
"null","","html-keyboard-response","352","226645","0.0-352.0","3NJM2BJS4XSYW0GBRGCSZUSKHZKCPQ","A1YSYI926BBOHW","39KMGHJ4RZW9S7JH7DZG09TNV4R00C","","","<img src=""img/flower4.png"" style=""width:200px; border:14px solid green;"">","null","","","","","",""
"395.5","","image-keyboard-response","353","227041","0.0-353.0","3NJM2BJS4XSYW0GBRGCSZUSKHZKCPQ","A1YSYI926BBOHW","39KMGHJ4RZW9S7JH7DZG09TNV4R00C","","","img/flower2.png","76","396.40000000596046","3","0","2","0.7,0.2,0,0.7,0,0.2,0.2,0,0.7",""
"null","","html-keyboard-response","354","227343","0.0-354.0","3NJM2BJS4XSYW0GBRGCSZUSKHZKCPQ","A1YSYI926BBOHW","39KMGHJ4RZW9S7JH7DZG09TNV4R00C","","","<img src=""img/flower2.png"" style=""width:200px;border:14px solid red;"">","null","","","","","",""
"405","","image-keyboard-response","355","227748","0.0-355.0","3NJM2BJS4XSYW0GBRGCSZUSKHZKCPQ","A1YSYI926BBOHW","39KMGHJ4RZW9S7JH7DZG09TNV4R00C","","","img/flower4.png","74","406.1000000089407","1","1","1","0.7,0.2,0,0.7,0,0.2,0.2,0,0.7",""
"null","","html-keyboard-response","356","228051","0.0-356.0","3NJM2BJS4XSYW0GBRGCSZUSKHZKCPQ","A1YSYI926BBOHW","39KMGHJ4RZW9S7JH7DZG09TNV4R00C","","","<img src=""img/flower4.png"" style=""width:200px; border:14px solid green;"">","null","","","","","",""
"591.9000000059605","","image-keyboard-response","357","228644","0.0-357.0","3NJM2BJS4XSYW0GBRGCSZUSKHZKCPQ","A1YSYI926BBOHW","39KMGHJ4RZW9S7JH7DZG09TNV4R00C","","","img/flower5.png","75","592.8000000119209","2","0","3","0.7,0.2,0,0.7,0,0.2,0.2,0,0.7",""
"null","","html-keyboard-response","358","228945","0.0-358.0","3NJM2BJS4XSYW0GBRGCSZUSKHZKCPQ","A1YSYI926BBOHW","39KMGHJ4RZW9S7JH7DZG09TNV4R00C","","","<img src=""img/flower5.png"" style=""width:200px;border:14px solid red;"">","null","","","","","",""
"794.8999999910593","","image-keyboard-response","359","229742","0.0-359.0","3NJM2BJS4XSYW0GBRGCSZUSKHZKCPQ","A1YSYI926BBOHW","39KMGHJ4RZW9S7JH7DZG09TNV4R00C","","","img/flower4.png","74","796.0999999940395","1","1","1","0.7,0.2,0,0.7,0,0.2,0.2,0,0.7",""
"null","","html-keyboard-response","360","230052","0.0-360.0","3NJM2BJS4XSYW0GBRGCSZUSKHZKCPQ","A1YSYI926BBOHW","39KMGHJ4RZW9S7JH7DZG09TNV4R00C","","","<img src=""img/flower4.png"" style=""width:200px; border:14px solid green;"">","null","","","","","",""
"1090","","image-keyboard-response","361","231144","0.0-361.0","3NJM2BJS4XSYW0GBRGCSZUSKHZKCPQ","A1YSYI926BBOHW","39KMGHJ4RZW9S7JH7DZG09TNV4R00C","","","img/flower2.png","76","1091","3","0","2","0.7,0.2,0,0.7,0,0.2,0.2,0,0.7",""
"null","","html-keyboard-response","362","231446","0.0-362.0","3NJM2BJS4XSYW0GBRGCSZUSKHZKCPQ","A1YSYI926BBOHW","39KMGHJ4RZW9S7JH7DZG09TNV4R00C","","","<img src=""img/flower2.png"" style=""width:200px;border:14px solid red;"">","null","","","","","",""
"550.2999999970198","","image-keyboard-response","363","231997","0.0-363.0","3NJM2BJS4XSYW0GBRGCSZUSKHZKCPQ","A1YSYI926BBOHW","39KMGHJ4RZW9S7JH7DZG09TNV4R00C","","","img/flower4.png","74","551.5","1","1","1","0.7,0.2,0,0.7,0,0.2,0.2,0,0.7",""
"null","","html-keyboard-response","364","232300","0.0-364.0","3NJM2BJS4XSYW0GBRGCSZUSKHZKCPQ","A1YSYI926BBOHW","39KMGHJ4RZW9S7JH7DZG09TNV4R00C","","","<img src=""img/flower4.png"" style=""width:200px; border:14px solid green;"">","null","","","","","",""
"335.20000000298023","","image-keyboard-response","365","232637","0.0-365.0","3NJM2BJS4XSYW0GBRGCSZUSKHZKCPQ","A1YSYI926BBOHW","39KMGHJ4RZW9S7JH7DZG09TNV4R00C","","","img/flower2.png","74","337.20000000298023","1","0","2","0.7,0.2,0,0.7,0,0.2,0.2,0,0.7",""
"null","","html-keyboard-response","366","232941","0.0-366.0","3NJM2BJS4XSYW0GBRGCSZUSKHZKCPQ","A1YSYI926BBOHW","39KMGHJ4RZW9S7JH7DZG09TNV4R00C","","","<img src=""img/flower2.png"" style=""width:200px;border:14px solid red;"">","null","","","","","",""
"628.5","","image-keyboard-response","367","233571","0.0-367.0","3NJM2BJS4XSYW0GBRGCSZUSKHZKCPQ","A1YSYI926BBOHW","39KMGHJ4RZW9S7JH7DZG09TNV4R00C","","","img/flower4.png","74","630","1","1","1","0.7,0.2,0,0.7,0,0.2,0.2,0,0.7",""
"null","","html-keyboard-response","368","233872","0.0-368.0","3NJM2BJS4XSYW0GBRGCSZUSKHZKCPQ","A1YSYI926BBOHW","39KMGHJ4RZW9S7JH7DZG09TNV4R00C","","","<img src=""img/flower4.png"" style=""width:200px; border:14px solid green;"">","null","","","","","",""
"601","","image-keyboard-response","369","234474","0.0-369.0","3NJM2BJS4XSYW0GBRGCSZUSKHZKCPQ","A1YSYI926BBOHW","39KMGHJ4RZW9S7JH7DZG09TNV4R00C","","","img/flower2.png","75","602.1000000089407","2","0","2","0.7,0.2,0,0.7,0,0.2,0.2,0,0.7",""
"null","","html-keyboard-response","370","234777","0.0-370.0","3NJM2BJS4XSYW0GBRGCSZUSKHZKCPQ","A1YSYI926BBOHW","39KMGHJ4RZW9S7JH7DZG09TNV4R00C","","","<img src=""img/flower2.png"" style=""width:200px;border:14px solid red;"">","null","","","","","",""
"698","","image-keyboard-response","371","235477","0.0-371.0","3NJM2BJS4XSYW0GBRGCSZUSKHZKCPQ","A1YSYI926BBOHW","39KMGHJ4RZW9S7JH7DZG09TNV4R00C","","","img/flower5.png","75","699.7999999970198","2","0","3","0.7,0.2,0,0.7,0,0.2,0.2,0,0.7",""
"null","","html-keyboard-response","372","235780","0.0-372.0","3NJM2BJS4XSYW0GBRGCSZUSKHZKCPQ","A1YSYI926BBOHW","39KMGHJ4RZW9S7JH7DZG09TNV4R00C","","","<img src=""img/flower5.png"" style=""width:200px;border:14px solid red;"">","null","","","","","",""
"513.8999999910593","","image-keyboard-response","373","236296","0.0-373.0","3NJM2BJS4XSYW0GBRGCSZUSKHZKCPQ","A1YSYI926BBOHW","39KMGHJ4RZW9S7JH7DZG09TNV4R00C","","","img/flower4.png","74","515.3999999910593","1","0","1","0.7,0.2,0,0.7,0,0.2,0.2,0,0.7",""
"null","","html-keyboard-response","374","236598","0.0-374.0","3NJM2BJS4XSYW0GBRGCSZUSKHZKCPQ","A1YSYI926BBOHW","39KMGHJ4RZW9S7JH7DZG09TNV4R00C","","","<img src=""img/flower4.png"" style=""width:200px;border:14px solid red;"">","null","","","","","",""
"640.1999999880791","","image-keyboard-response","375","237239","0.0-375.0","3NJM2BJS4XSYW0GBRGCSZUSKHZKCPQ","A1YSYI926BBOHW","39KMGHJ4RZW9S7JH7DZG09TNV4R00C","","","img/flower4.png","74","640.7999999970198","1","1","1","0.7,0.2,0,0.7,0,0.2,0.2,0,0.7",""
"null","","html-keyboard-response","376","237541","0.0-376.0","3NJM2BJS4XSYW0GBRGCSZUSKHZKCPQ","A1YSYI926BBOHW","39KMGHJ4RZW9S7JH7DZG09TNV4R00C","","","<img src=""img/flower4.png"" style=""width:200px; border:14px solid green;"">","null","","","","","",""
"749.8000000119209","","image-keyboard-response","377","238293","0.0-377.0","3NJM2BJS4XSYW0GBRGCSZUSKHZKCPQ","A1YSYI926BBOHW","39KMGHJ4RZW9S7JH7DZG09TNV4R00C","","","img/flower5.png","75","751.5999999940395","2","0","3","0.7,0.2,0,0.7,0,0.2,0.2,0,0.7",""
"null","","html-keyboard-response","378","238595","0.0-378.0","3NJM2BJS4XSYW0GBRGCSZUSKHZKCPQ","A1YSYI926BBOHW","39KMGHJ4RZW9S7JH7DZG09TNV4R00C","","","<img src=""img/flower5.png"" style=""width:200px;border:14px solid red;"">","null","","","","","",""
"609.7000000029802","","image-keyboard-response","379","239206","0.0-379.0","3NJM2BJS4XSYW0GBRGCSZUSKHZKCPQ","A1YSYI926BBOHW","39KMGHJ4RZW9S7JH7DZG09TNV4R00C","","","img/flower2.png","76","610.2999999970198","3","0","2","0.7,0.2,0,0.7,0,0.2,0.2,0,0.7",""
"null","","html-keyboard-response","380","239508","0.0-380.0","3NJM2BJS4XSYW0GBRGCSZUSKHZKCPQ","A1YSYI926BBOHW","39KMGHJ4RZW9S7JH7DZG09TNV4R00C","","","<img src=""img/flower2.png"" style=""width:200px;border:14px solid red;"">","null","","","","","",""
"524.0999999940395","","image-keyboard-response","381","240034","0.0-381.0","3NJM2BJS4XSYW0GBRGCSZUSKHZKCPQ","A1YSYI926BBOHW","39KMGHJ4RZW9S7JH7DZG09TNV4R00C","","","img/flower5.png","74","525.7000000029802","1","0","3","0.7,0.2,0,0.7,0,0.2,0.2,0,0.7",""
"null","","html-keyboard-response","382","240336","0.0-382.0","3NJM2BJS4XSYW0GBRGCSZUSKHZKCPQ","A1YSYI926BBOHW","39KMGHJ4RZW9S7JH7DZG09TNV4R00C","","","<img src=""img/flower5.png"" style=""width:200px;border:14px solid red;"">","null","","","","","",""
"835.2999999970198","","image-keyboard-response","383","241175","0.0-383.0","3NJM2BJS4XSYW0GBRGCSZUSKHZKCPQ","A1YSYI926BBOHW","39KMGHJ4RZW9S7JH7DZG09TNV4R00C","","","img/flower2.png","76","838","3","0","2","0.7,0.2,0,0.7,0,0.2,0.2,0,0.7",""
"null","","html-keyboard-response","384","241477","0.0-384.0","3NJM2BJS4XSYW0GBRGCSZUSKHZKCPQ","A1YSYI926BBOHW","39KMGHJ4RZW9S7JH7DZG09TNV4R00C","","","<img src=""img/flower2.png"" style=""width:200px;border:14px solid red;"">","null","","","","","",""
"407.90000000596046","","image-keyboard-response","385","241886","0.0-385.0","3NJM2BJS4XSYW0GBRGCSZUSKHZKCPQ","A1YSYI926BBOHW","39KMGHJ4RZW9S7JH7DZG09TNV4R00C","","","img/flower2.png","75","409","2","0","2","0.7,0.2,0,0.7,0,0.2,0.2,0,0.7",""
"null","","html-keyboard-response","386","242188","0.0-386.0","3NJM2BJS4XSYW0GBRGCSZUSKHZKCPQ","A1YSYI926BBOHW","39KMGHJ4RZW9S7JH7DZG09TNV4R00C","","","<img src=""img/flower2.png"" style=""width:200px;border:14px solid red;"">","null","","","","","",""
"492.79999999701977","","image-keyboard-response","387","242682","0.0-387.0","3NJM2BJS4XSYW0GBRGCSZUSKHZKCPQ","A1YSYI926BBOHW","39KMGHJ4RZW9S7JH7DZG09TNV4R00C","","","img/flower4.png","74","493.79999999701977","1","1","1","0.7,0.2,0,0.7,0,0.2,0.2,0,0.7",""
"null","","html-keyboard-response","388","242984","0.0-388.0","3NJM2BJS4XSYW0GBRGCSZUSKHZKCPQ","A1YSYI926BBOHW","39KMGHJ4RZW9S7JH7DZG09TNV4R00C","","","<img src=""img/flower4.png"" style=""width:200px; border:14px solid green;"">","null","","","","","",""
"370.09999999403954","","image-keyboard-response","389","243355","0.0-389.0","3NJM2BJS4XSYW0GBRGCSZUSKHZKCPQ","A1YSYI926BBOHW","39KMGHJ4RZW9S7JH7DZG09TNV4R00C","","","img/flower4.png","74","371","1","1","1","0.7,0.2,0,0.7,0,0.2,0.2,0,0.7",""
"null","","html-keyboard-response","390","243659","0.0-390.0","3NJM2BJS4XSYW0GBRGCSZUSKHZKCPQ","A1YSYI926BBOHW","39KMGHJ4RZW9S7JH7DZG09TNV4R00C","","","<img src=""img/flower4.png"" style=""width:200px; border:14px solid green;"">","null","","","","","",""
"363.90000000596046","","image-keyboard-response","391","244024","0.0-391.0","3NJM2BJS4XSYW0GBRGCSZUSKHZKCPQ","A1YSYI926BBOHW","39KMGHJ4RZW9S7JH7DZG09TNV4R00C","","","img/flower4.png","74","364.90000000596046","1","1","1","0.7,0.2,0,0.7,0,0.2,0.2,0,0.7",""
"null","","html-keyboard-response","392","244327","0.0-392.0","3NJM2BJS4XSYW0GBRGCSZUSKHZKCPQ","A1YSYI926BBOHW","39KMGHJ4RZW9S7JH7DZG09TNV4R00C","","","<img src=""img/flower4.png"" style=""width:200px; border:14px solid green;"">","null","","","","","",""
"574.5","","image-keyboard-response","393","244903","0.0-393.0","3NJM2BJS4XSYW0GBRGCSZUSKHZKCPQ","A1YSYI926BBOHW","39KMGHJ4RZW9S7JH7DZG09TNV4R00C","","","img/flower2.png","76","576.3000000119209","3","0","2","0.7,0.2,0,0.7,0,0.2,0.2,0,0.7",""
"null","","html-keyboard-response","394","245206","0.0-394.0","3NJM2BJS4XSYW0GBRGCSZUSKHZKCPQ","A1YSYI926BBOHW","39KMGHJ4RZW9S7JH7DZG09TNV4R00C","","","<img src=""img/flower2.png"" style=""width:200px;border:14px solid red;"">","null","","","","","",""
"352.6000000089407","","image-keyboard-response","395","245561","0.0-395.0","3NJM2BJS4XSYW0GBRGCSZUSKHZKCPQ","A1YSYI926BBOHW","39KMGHJ4RZW9S7JH7DZG09TNV4R00C","","","img/flower2.png","76","354.6000000089407","3","1","2","0.7,0.2,0,0.7,0,0.2,0.2,0,0.7",""
"null","","html-keyboard-response","396","245863","0.0-396.0","3NJM2BJS4XSYW0GBRGCSZUSKHZKCPQ","A1YSYI926BBOHW","39KMGHJ4RZW9S7JH7DZG09TNV4R00C","","","<img src=""img/flower2.png"" style=""width:200px; border:14px solid green;"">","null","","","","","",""
"431.8999999910593","","image-keyboard-response","397","246295","0.0-397.0","3NJM2BJS4XSYW0GBRGCSZUSKHZKCPQ","A1YSYI926BBOHW","39KMGHJ4RZW9S7JH7DZG09TNV4R00C","","","img/flower2.png","76","432.5","3","0","2","0.7,0.2,0,0.7,0,0.2,0.2,0,0.7",""
"null","","html-keyboard-response","398","246596","0.0-398.0","3NJM2BJS4XSYW0GBRGCSZUSKHZKCPQ","A1YSYI926BBOHW","39KMGHJ4RZW9S7JH7DZG09TNV4R00C","","","<img src=""img/flower2.png"" style=""width:200px;border:14px solid red;"">","null","","","","","",""
"655","","image-keyboard-response","399","247252","0.0-399.0","3NJM2BJS4XSYW0GBRGCSZUSKHZKCPQ","A1YSYI926BBOHW","39KMGHJ4RZW9S7JH7DZG09TNV4R00C","","","img/flower4.png","74","655.8999999910593","1","1","1","0.7,0.2,0,0.7,0,0.2,0.2,0,0.7",""
"null","","html-keyboard-response","400","247555","0.0-400.0","3NJM2BJS4XSYW0GBRGCSZUSKHZKCPQ","A1YSYI926BBOHW","39KMGHJ4RZW9S7JH7DZG09TNV4R00C","","","<img src=""img/flower4.png"" style=""width:200px; border:14px solid green;"">","null","","","","","",""
"439.29999999701977","","image-keyboard-response","401","247995","0.0-401.0","3NJM2BJS4XSYW0GBRGCSZUSKHZKCPQ","A1YSYI926BBOHW","39KMGHJ4RZW9S7JH7DZG09TNV4R00C","","","img/flower4.png","74","440.20000000298023","1","1","1","0.7,0.2,0,0.7,0,0.2,0.2,0,0.7",""
"null","","html-keyboard-response","402","248297","0.0-402.0","3NJM2BJS4XSYW0GBRGCSZUSKHZKCPQ","A1YSYI926BBOHW","39KMGHJ4RZW9S7JH7DZG09TNV4R00C","","","<img src=""img/flower4.png"" style=""width:200px; border:14px solid green;"">","null","","","","","",""
"554.2999999970198","","image-keyboard-response","403","248851","0.0-403.0","3NJM2BJS4XSYW0GBRGCSZUSKHZKCPQ","A1YSYI926BBOHW","39KMGHJ4RZW9S7JH7DZG09TNV4R00C","","","img/flower5.png","75","554.7999999970198","2","0","3","0.7,0.2,0,0.7,0,0.2,0.2,0,0.7",""
