"rt","url","trial_type","trial_index","time_elapsed","internal_node_id","assignmentID","mturkID","hitID","success","view_history","stimulus","key_press","reactionTime","a","r","s","reward_cond","responses"
"4170","consent.html","external-html","0","4393","0.0-0.0","3EG49X351VYEPS913G9677MDNCHX66","A24G8GL5FX1KAW","37S0QRNUFB29SLTNXLPAM35NX0F88U","","","","","","","","","",""
"","","fullscreen","1","7051","0.0-1.0","3EG49X351VYEPS913G9677MDNCHX66","A24G8GL5FX1KAW","37S0QRNUFB29SLTNXLPAM35NX0F88U","true","","","","","","","","",""
"15307","","instructions","2","22361","0.0-2.0","3EG49X351VYEPS913G9677MDNCHX66","A24G8GL5FX1KAW","37S0QRNUFB29SLTNXLPAM35NX0F88U","","[{""page_index"":0,""viewing_time"":2463},{""page_index"":1,""viewing_time"":2038},{""page_index"":2,""viewing_time"":1485},{""page_index"":3,""viewing_time"":2196},{""page_index"":4,""viewing_time"":2792},{""page_index"":5,""viewing_time"":4328}]","","","","","","","",""
"5573","","instructions","3","27936","0.0-3.0","3EG49X351VYEPS913G9677MDNCHX66","A24G8GL5FX1KAW","37S0QRNUFB29SLTNXLPAM35NX0F88U","","[{""page_index"":0,""viewing_time"":5572}]","","","","","","","",""
"1714","","image-keyboard-response","4","29654","0.0-4.0","3EG49X351VYEPS913G9677MDNCHX66","A24G8GL5FX1KAW","37S0QRNUFB29SLTNXLPAM35NX0F88U","","","img/flower4.png","74","1717","1","1","1","",""
"null","","html-keyboard-response","5","29975","0.0-5.0","3EG49X351VYEPS913G9677MDNCHX66","A24G8GL5FX1KAW","37S0QRNUFB29SLTNXLPAM35NX0F88U","","","<img src=""img/flower4.png"" style=""width:200px; border:14px solid green;"">","null","","","","","",""
"2104","","image-keyboard-response","6","32088","0.0-6.0","3EG49X351VYEPS913G9677MDNCHX66","A24G8GL5FX1KAW","37S0QRNUFB29SLTNXLPAM35NX0F88U","","","img/flower4.png","74","2113","1","1","1","",""
"null","","html-keyboard-response","7","32399","0.0-7.0","3EG49X351VYEPS913G9677MDNCHX66","A24G8GL5FX1KAW","37S0QRNUFB29SLTNXLPAM35NX0F88U","","","<img src=""img/flower4.png"" style=""width:200px; border:14px solid green;"">","null","","","","","",""
"1512","","image-keyboard-response","8","33922","0.0-8.0","3EG49X351VYEPS913G9677MDNCHX66","A24G8GL5FX1KAW","37S0QRNUFB29SLTNXLPAM35NX0F88U","","","img/flower6.png","76","1522","3","1","3","",""
"null","","html-keyboard-response","9","34243","0.0-9.0","3EG49X351VYEPS913G9677MDNCHX66","A24G8GL5FX1KAW","37S0QRNUFB29SLTNXLPAM35NX0F88U","","","<img src=""img/flower6.png"" style=""width:200px; border:14px solid green;"">","null","","","","","",""
"1405","","image-keyboard-response","10","35656","0.0-10.0","3EG49X351VYEPS913G9677MDNCHX66","A24G8GL5FX1KAW","37S0QRNUFB29SLTNXLPAM35NX0F88U","","","img/flower5.png","75","1413","2","1","2","",""
"null","","html-keyboard-response","11","35983","0.0-11.0","3EG49X351VYEPS913G9677MDNCHX66","A24G8GL5FX1KAW","37S0QRNUFB29SLTNXLPAM35NX0F88U","","","<img src=""img/flower5.png"" style=""width:200px; border:14px solid green;"">","null","","","","","",""
"919","","image-keyboard-response","12","36913","0.0-12.0","3EG49X351VYEPS913G9677MDNCHX66","A24G8GL5FX1KAW","37S0QRNUFB29SLTNXLPAM35NX0F88U","","","img/flower4.png","74","930","1","0","1","",""
"null","","html-keyboard-response","13","37229","0.0-13.0","3EG49X351VYEPS913G9677MDNCHX66","A24G8GL5FX1KAW","37S0QRNUFB29SLTNXLPAM35NX0F88U","","","<img src=""img/flower4.png"" style=""width:200px;border:14px solid red;"">","null","","","","","",""
"876","","image-keyboard-response","14","38113","0.0-14.0","3EG49X351VYEPS913G9677MDNCHX66","A24G8GL5FX1KAW","37S0QRNUFB29SLTNXLPAM35NX0F88U","","","img/flower4.png","74","884","1","1","1","",""
"null","","html-keyboard-response","15","38426","0.0-15.0","3EG49X351VYEPS913G9677MDNCHX66","A24G8GL5FX1KAW","37S0QRNUFB29SLTNXLPAM35NX0F88U","","","<img src=""img/flower4.png"" style=""width:200px; border:14px solid green;"">","null","","","","","",""
"721","","image-keyboard-response","16","39162","0.0-16.0","3EG49X351VYEPS913G9677MDNCHX66","A24G8GL5FX1KAW","37S0QRNUFB29SLTNXLPAM35NX0F88U","","","img/flower4.png","74","730","1","1","1","",""
"null","","html-keyboard-response","17","39546","0.0-17.0","3EG49X351VYEPS913G9677MDNCHX66","A24G8GL5FX1KAW","37S0QRNUFB29SLTNXLPAM35NX0F88U","","","<img src=""img/flower4.png"" style=""width:200px; border:14px solid green;"">","null","","","","","",""
"693","","image-keyboard-response","18","40247","0.0-18.0","3EG49X351VYEPS913G9677MDNCHX66","A24G8GL5FX1KAW","37S0QRNUFB29SLTNXLPAM35NX0F88U","","","img/flower4.png","74","701","1","0","1","",""
"null","","html-keyboard-response","19","40562","0.0-19.0","3EG49X351VYEPS913G9677MDNCHX66","A24G8GL5FX1KAW","37S0QRNUFB29SLTNXLPAM35NX0F88U","","","<img src=""img/flower4.png"" style=""width:200px;border:14px solid red;"">","null","","","","","",""
"1673","","image-keyboard-response","20","42242","0.0-20.0","3EG49X351VYEPS913G9677MDNCHX66","A24G8GL5FX1KAW","37S0QRNUFB29SLTNXLPAM35NX0F88U","","","img/flower6.png","76","1679","3","0","3","",""
"null","","html-keyboard-response","21","42569","0.0-21.0","3EG49X351VYEPS913G9677MDNCHX66","A24G8GL5FX1KAW","37S0QRNUFB29SLTNXLPAM35NX0F88U","","","<img src=""img/flower6.png"" style=""width:200px;border:14px solid red;"">","null","","","","","",""
"930","","image-keyboard-response","22","43512","0.0-22.0","3EG49X351VYEPS913G9677MDNCHX66","A24G8GL5FX1KAW","37S0QRNUFB29SLTNXLPAM35NX0F88U","","","img/flower5.png","75","942","2","1","2","",""
"null","","html-keyboard-response","23","43856","0.0-23.0","3EG49X351VYEPS913G9677MDNCHX66","A24G8GL5FX1KAW","37S0QRNUFB29SLTNXLPAM35NX0F88U","","","<img src=""img/flower5.png"" style=""width:200px; border:14px solid green;"">","null","","","","","",""
"1301","","image-keyboard-response","24","45200","0.0-24.0","3EG49X351VYEPS913G9677MDNCHX66","A24G8GL5FX1KAW","37S0QRNUFB29SLTNXLPAM35NX0F88U","","","img/flower6.png","76","1344","3","1","3","",""
"null","","html-keyboard-response","25","45507","0.0-25.0","3EG49X351VYEPS913G9677MDNCHX66","A24G8GL5FX1KAW","37S0QRNUFB29SLTNXLPAM35NX0F88U","","","<img src=""img/flower6.png"" style=""width:200px; border:14px solid green;"">","null","","","","","",""
"960","","image-keyboard-response","26","46470","0.0-26.0","3EG49X351VYEPS913G9677MDNCHX66","A24G8GL5FX1KAW","37S0QRNUFB29SLTNXLPAM35NX0F88U","","","img/flower4.png","74","962","1","1","1","",""
"null","","html-keyboard-response","27","46787","0.0-27.0","3EG49X351VYEPS913G9677MDNCHX66","A24G8GL5FX1KAW","37S0QRNUFB29SLTNXLPAM35NX0F88U","","","<img src=""img/flower4.png"" style=""width:200px; border:14px solid green;"">","null","","","","","",""
"1125","","image-keyboard-response","28","47926","0.0-28.0","3EG49X351VYEPS913G9677MDNCHX66","A24G8GL5FX1KAW","37S0QRNUFB29SLTNXLPAM35NX0F88U","","","img/flower6.png","76","1139","3","1","3","",""
"null","","html-keyboard-response","29","48266","0.0-29.0","3EG49X351VYEPS913G9677MDNCHX66","A24G8GL5FX1KAW","37S0QRNUFB29SLTNXLPAM35NX0F88U","","","<img src=""img/flower6.png"" style=""width:200px; border:14px solid green;"">","null","","","","","",""
"1311","","image-keyboard-response","30","49597","0.0-30.0","3EG49X351VYEPS913G9677MDNCHX66","A24G8GL5FX1KAW","37S0QRNUFB29SLTNXLPAM35NX0F88U","","","img/flower6.png","76","1325","3","1","3","",""
"null","","html-keyboard-response","31","49910","0.0-31.0","3EG49X351VYEPS913G9677MDNCHX66","A24G8GL5FX1KAW","37S0QRNUFB29SLTNXLPAM35NX0F88U","","","<img src=""img/flower6.png"" style=""width:200px; border:14px solid green;"">","null","","","","","",""
"1057","","image-keyboard-response","32","50978","0.0-32.0","3EG49X351VYEPS913G9677MDNCHX66","A24G8GL5FX1KAW","37S0QRNUFB29SLTNXLPAM35NX0F88U","","","img/flower6.png","76","1067","3","1","3","",""
"null","","html-keyboard-response","33","51302","0.0-33.0","3EG49X351VYEPS913G9677MDNCHX66","A24G8GL5FX1KAW","37S0QRNUFB29SLTNXLPAM35NX0F88U","","","<img src=""img/flower6.png"" style=""width:200px; border:14px solid green;"">","null","","","","","",""
"853","","image-keyboard-response","34","52156","0.0-34.0","3EG49X351VYEPS913G9677MDNCHX66","A24G8GL5FX1KAW","37S0QRNUFB29SLTNXLPAM35NX0F88U","","","img/flower5.png","75","866","2","1","2","",""
"null","","html-keyboard-response","35","52480","0.0-35.0","3EG49X351VYEPS913G9677MDNCHX66","A24G8GL5FX1KAW","37S0QRNUFB29SLTNXLPAM35NX0F88U","","","<img src=""img/flower5.png"" style=""width:200px; border:14px solid green;"">","null","","","","","",""
"1064","","image-keyboard-response","36","53554","0.0-36.0","3EG49X351VYEPS913G9677MDNCHX66","A24G8GL5FX1KAW","37S0QRNUFB29SLTNXLPAM35NX0F88U","","","img/flower5.png","75","1073","2","1","2","",""
"null","","html-keyboard-response","37","53869","0.0-37.0","3EG49X351VYEPS913G9677MDNCHX66","A24G8GL5FX1KAW","37S0QRNUFB29SLTNXLPAM35NX0F88U","","","<img src=""img/flower5.png"" style=""width:200px; border:14px solid green;"">","null","","","","","",""
"907","","image-keyboard-response","38","54782","0.0-38.0","3EG49X351VYEPS913G9677MDNCHX66","A24G8GL5FX1KAW","37S0QRNUFB29SLTNXLPAM35NX0F88U","","","img/flower5.png","75","912","2","1","2","",""
"null","","html-keyboard-response","39","55105","0.0-39.0","3EG49X351VYEPS913G9677MDNCHX66","A24G8GL5FX1KAW","37S0QRNUFB29SLTNXLPAM35NX0F88U","","","<img src=""img/flower5.png"" style=""width:200px; border:14px solid green;"">","null","","","","","",""
"745","","image-keyboard-response","40","55858","0.0-40.0","3EG49X351VYEPS913G9677MDNCHX66","A24G8GL5FX1KAW","37S0QRNUFB29SLTNXLPAM35NX0F88U","","","img/flower5.png","75","753","2","1","2","",""
"null","","html-keyboard-response","41","56172","0.0-41.0","3EG49X351VYEPS913G9677MDNCHX66","A24G8GL5FX1KAW","37S0QRNUFB29SLTNXLPAM35NX0F88U","","","<img src=""img/flower5.png"" style=""width:200px; border:14px solid green;"">","null","","","","","",""
"789","","image-keyboard-response","42","56976","0.0-42.0","3EG49X351VYEPS913G9677MDNCHX66","A24G8GL5FX1KAW","37S0QRNUFB29SLTNXLPAM35NX0F88U","","","img/flower6.png","74","804","1","0","3","",""
"null","","html-keyboard-response","43","57294","0.0-43.0","3EG49X351VYEPS913G9677MDNCHX66","A24G8GL5FX1KAW","37S0QRNUFB29SLTNXLPAM35NX0F88U","","","<img src=""img/flower6.png"" style=""width:200px;border:14px solid red;"">","null","","","","","",""
"2095","","image-keyboard-response","44","59400","0.0-44.0","3EG49X351VYEPS913G9677MDNCHX66","A24G8GL5FX1KAW","37S0QRNUFB29SLTNXLPAM35NX0F88U","","","img/flower6.png","76","2106","3","1","3","",""
"null","","html-keyboard-response","45","59716","0.0-45.0","3EG49X351VYEPS913G9677MDNCHX66","A24G8GL5FX1KAW","37S0QRNUFB29SLTNXLPAM35NX0F88U","","","<img src=""img/flower6.png"" style=""width:200px; border:14px solid green;"">","null","","","","","",""
"960","","image-keyboard-response","46","60687","0.0-46.0","3EG49X351VYEPS913G9677MDNCHX66","A24G8GL5FX1KAW","37S0QRNUFB29SLTNXLPAM35NX0F88U","","","img/flower5.png","75","971","2","1","2","",""
"null","","html-keyboard-response","47","61007","0.0-47.0","3EG49X351VYEPS913G9677MDNCHX66","A24G8GL5FX1KAW","37S0QRNUFB29SLTNXLPAM35NX0F88U","","","<img src=""img/flower5.png"" style=""width:200px; border:14px solid green;"">","null","","","","","",""
"755","","image-keyboard-response","48","61768","0.0-48.0","3EG49X351VYEPS913G9677MDNCHX66","A24G8GL5FX1KAW","37S0QRNUFB29SLTNXLPAM35NX0F88U","","","img/flower5.png","75","760","2","1","2","",""
"null","","html-keyboard-response","49","62082","0.0-49.0","3EG49X351VYEPS913G9677MDNCHX66","A24G8GL5FX1KAW","37S0QRNUFB29SLTNXLPAM35NX0F88U","","","<img src=""img/flower5.png"" style=""width:200px; border:14px solid green;"">","null","","","","","",""
"932","","image-keyboard-response","50","63021","0.0-50.0","3EG49X351VYEPS913G9677MDNCHX66","A24G8GL5FX1KAW","37S0QRNUFB29SLTNXLPAM35NX0F88U","","","img/flower4.png","74","939","1","1","1","",""
"null","","html-keyboard-response","51","63335","0.0-51.0","3EG49X351VYEPS913G9677MDNCHX66","A24G8GL5FX1KAW","37S0QRNUFB29SLTNXLPAM35NX0F88U","","","<img src=""img/flower4.png"" style=""width:200px; border:14px solid green;"">","null","","","","","",""
"1032","","image-keyboard-response","52","64370","0.0-52.0","3EG49X351VYEPS913G9677MDNCHX66","A24G8GL5FX1KAW","37S0QRNUFB29SLTNXLPAM35NX0F88U","","","img/flower5.png","76","1035","3","0","2","",""
"null","","html-keyboard-response","53","64676","0.0-53.0","3EG49X351VYEPS913G9677MDNCHX66","A24G8GL5FX1KAW","37S0QRNUFB29SLTNXLPAM35NX0F88U","","","<img src=""img/flower5.png"" style=""width:200px;border:14px solid red;"">","null","","","","","",""
"906","","image-keyboard-response","54","65596","0.0-54.0","3EG49X351VYEPS913G9677MDNCHX66","A24G8GL5FX1KAW","37S0QRNUFB29SLTNXLPAM35NX0F88U","","","img/flower6.png","76","918","3","0","3","",""
"null","","html-keyboard-response","55","65903","0.0-55.0","3EG49X351VYEPS913G9677MDNCHX66","A24G8GL5FX1KAW","37S0QRNUFB29SLTNXLPAM35NX0F88U","","","<img src=""img/flower6.png"" style=""width:200px;border:14px solid red;"">","null","","","","","",""
"809","","image-keyboard-response","56","66720","0.0-56.0","3EG49X351VYEPS913G9677MDNCHX66","A24G8GL5FX1KAW","37S0QRNUFB29SLTNXLPAM35NX0F88U","","","img/flower4.png","74","810","1","1","1","",""
"null","","html-keyboard-response","57","67093","0.0-57.0","3EG49X351VYEPS913G9677MDNCHX66","A24G8GL5FX1KAW","37S0QRNUFB29SLTNXLPAM35NX0F88U","","","<img src=""img/flower4.png"" style=""width:200px; border:14px solid green;"">","null","","","","","",""
"764","","image-keyboard-response","58","67873","0.0-58.0","3EG49X351VYEPS913G9677MDNCHX66","A24G8GL5FX1KAW","37S0QRNUFB29SLTNXLPAM35NX0F88U","","","img/flower4.png","74","780","1","0","1","",""
"null","","html-keyboard-response","59","68177","0.0-59.0","3EG49X351VYEPS913G9677MDNCHX66","A24G8GL5FX1KAW","37S0QRNUFB29SLTNXLPAM35NX0F88U","","","<img src=""img/flower4.png"" style=""width:200px;border:14px solid red;"">","null","","","","","",""
"944","","image-keyboard-response","60","69132","0.0-60.0","3EG49X351VYEPS913G9677MDNCHX66","A24G8GL5FX1KAW","37S0QRNUFB29SLTNXLPAM35NX0F88U","","","img/flower6.png","76","946","3","1","3","",""
"null","","html-keyboard-response","61","69523","0.0-61.0","3EG49X351VYEPS913G9677MDNCHX66","A24G8GL5FX1KAW","37S0QRNUFB29SLTNXLPAM35NX0F88U","","","<img src=""img/flower6.png"" style=""width:200px; border:14px solid green;"">","null","","","","","",""
"986","","image-keyboard-response","62","70517","0.0-62.0","3EG49X351VYEPS913G9677MDNCHX66","A24G8GL5FX1KAW","37S0QRNUFB29SLTNXLPAM35NX0F88U","","","img/flower5.png","75","989","2","1","2","",""
"null","","html-keyboard-response","63","70823","0.0-63.0","3EG49X351VYEPS913G9677MDNCHX66","A24G8GL5FX1KAW","37S0QRNUFB29SLTNXLPAM35NX0F88U","","","<img src=""img/flower5.png"" style=""width:200px; border:14px solid green;"">","null","","","","","",""
"9392","","instructions","64","80216","0.0-64.0","3EG49X351VYEPS913G9677MDNCHX66","A24G8GL5FX1KAW","37S0QRNUFB29SLTNXLPAM35NX0F88U","","[{""page_index"":0,""viewing_time"":3251},{""page_index"":1,""viewing_time"":6140}]","","","","","","","",""
"2354","","image-keyboard-response","65","82573","0.0-65.0","3EG49X351VYEPS913G9677MDNCHX66","A24G8GL5FX1KAW","37S0QRNUFB29SLTNXLPAM35NX0F88U","","","img/flower5.png","75","2357","2","1","2","",""
"null","","html-keyboard-response","66","82883","0.0-66.0","3EG49X351VYEPS913G9677MDNCHX66","A24G8GL5FX1KAW","37S0QRNUFB29SLTNXLPAM35NX0F88U","","","<img src=""img/flower5.png"" style=""width:200px; border:14px solid green;"">","null","","","","","",""
"954","","image-keyboard-response","67","83840","0.0-67.0","3EG49X351VYEPS913G9677MDNCHX66","A24G8GL5FX1KAW","37S0QRNUFB29SLTNXLPAM35NX0F88U","","","img/flower5.png","75","957","2","1","2","",""
"null","","html-keyboard-response","68","84165","0.0-68.0","3EG49X351VYEPS913G9677MDNCHX66","A24G8GL5FX1KAW","37S0QRNUFB29SLTNXLPAM35NX0F88U","","","<img src=""img/flower5.png"" style=""width:200px; border:14px solid green;"">","null","","","","","",""
"842","","image-keyboard-response","69","85018","0.0-69.0","3EG49X351VYEPS913G9677MDNCHX66","A24G8GL5FX1KAW","37S0QRNUFB29SLTNXLPAM35NX0F88U","","","img/flower4.png","74","853","1","1","1","",""
"null","","html-keyboard-response","70","85335","0.0-70.0","3EG49X351VYEPS913G9677MDNCHX66","A24G8GL5FX1KAW","37S0QRNUFB29SLTNXLPAM35NX0F88U","","","<img src=""img/flower4.png"" style=""width:200px; border:14px solid green;"">","null","","","","","",""
"686","","image-keyboard-response","71","86033","0.0-71.0","3EG49X351VYEPS913G9677MDNCHX66","A24G8GL5FX1KAW","37S0QRNUFB29SLTNXLPAM35NX0F88U","","","img/flower4.png","74","697","1","0","1","",""
"null","","html-keyboard-response","72","86347","0.0-72.0","3EG49X351VYEPS913G9677MDNCHX66","A24G8GL5FX1KAW","37S0QRNUFB29SLTNXLPAM35NX0F88U","","","<img src=""img/flower4.png"" style=""width:200px;border:14px solid red;"">","null","","","","","",""
"1011","","image-keyboard-response","73","87375","0.0-73.0","3EG49X351VYEPS913G9677MDNCHX66","A24G8GL5FX1KAW","37S0QRNUFB29SLTNXLPAM35NX0F88U","","","img/flower4.png","74","1027","1","1","1","",""
"null","","html-keyboard-response","74","87728","0.0-74.0","3EG49X351VYEPS913G9677MDNCHX66","A24G8GL5FX1KAW","37S0QRNUFB29SLTNXLPAM35NX0F88U","","","<img src=""img/flower4.png"" style=""width:200px; border:14px solid green;"">","null","","","","","",""
"1661","","image-keyboard-response","75","89400","0.0-75.0","3EG49X351VYEPS913G9677MDNCHX66","A24G8GL5FX1KAW","37S0QRNUFB29SLTNXLPAM35NX0F88U","","","img/flower4.png","75","1672","2","1","1","",""
"null","","html-keyboard-response","76","89728","0.0-76.0","3EG49X351VYEPS913G9677MDNCHX66","A24G8GL5FX1KAW","37S0QRNUFB29SLTNXLPAM35NX0F88U","","","<img src=""img/flower4.png"" style=""width:200px; border:14px solid green;"">","null","","","","","",""
"1438","","image-keyboard-response","77","91172","0.0-77.0","3EG49X351VYEPS913G9677MDNCHX66","A24G8GL5FX1KAW","37S0QRNUFB29SLTNXLPAM35NX0F88U","","","img/flower5.png","75","1442","2","0","2","",""
"null","","html-keyboard-response","78","91490","0.0-78.0","3EG49X351VYEPS913G9677MDNCHX66","A24G8GL5FX1KAW","37S0QRNUFB29SLTNXLPAM35NX0F88U","","","<img src=""img/flower5.png"" style=""width:200px;border:14px solid red;"">","null","","","","","",""
"1552","","image-keyboard-response","79","93051","0.0-79.0","3EG49X351VYEPS913G9677MDNCHX66","A24G8GL5FX1KAW","37S0QRNUFB29SLTNXLPAM35NX0F88U","","","img/flower6.png","76","1561","3","1","3","",""
"null","","html-keyboard-response","80","93367","0.0-80.0","3EG49X351VYEPS913G9677MDNCHX66","A24G8GL5FX1KAW","37S0QRNUFB29SLTNXLPAM35NX0F88U","","","<img src=""img/flower6.png"" style=""width:200px; border:14px solid green;"">","null","","","","","",""
"1295","","image-keyboard-response","81","94675","0.0-81.0","3EG49X351VYEPS913G9677MDNCHX66","A24G8GL5FX1KAW","37S0QRNUFB29SLTNXLPAM35NX0F88U","","","img/flower4.png","74","1308","1","1","1","",""
"null","","html-keyboard-response","82","94989","0.0-82.0","3EG49X351VYEPS913G9677MDNCHX66","A24G8GL5FX1KAW","37S0QRNUFB29SLTNXLPAM35NX0F88U","","","<img src=""img/flower4.png"" style=""width:200px; border:14px solid green;"">","null","","","","","",""
"1515","","image-keyboard-response","83","96517","0.0-83.0","3EG49X351VYEPS913G9677MDNCHX66","A24G8GL5FX1KAW","37S0QRNUFB29SLTNXLPAM35NX0F88U","","","img/flower5.png","75","1528","2","1","2","",""
"null","","html-keyboard-response","84","96831","0.0-84.0","3EG49X351VYEPS913G9677MDNCHX66","A24G8GL5FX1KAW","37S0QRNUFB29SLTNXLPAM35NX0F88U","","","<img src=""img/flower5.png"" style=""width:200px; border:14px solid green;"">","null","","","","","",""
"1485","","image-keyboard-response","85","98327","0.0-85.0","3EG49X351VYEPS913G9677MDNCHX66","A24G8GL5FX1KAW","37S0QRNUFB29SLTNXLPAM35NX0F88U","","","img/flower5.png","76","1496","3","1","2","",""
"null","","html-keyboard-response","86","98637","0.0-86.0","3EG49X351VYEPS913G9677MDNCHX66","A24G8GL5FX1KAW","37S0QRNUFB29SLTNXLPAM35NX0F88U","","","<img src=""img/flower5.png"" style=""width:200px; border:14px solid green;"">","null","","","","","",""
"1316","","image-keyboard-response","87","99956","0.0-87.0","3EG49X351VYEPS913G9677MDNCHX66","A24G8GL5FX1KAW","37S0QRNUFB29SLTNXLPAM35NX0F88U","","","img/flower4.png","74","1318","1","1","1","",""
"null","","html-keyboard-response","88","100267","0.0-88.0","3EG49X351VYEPS913G9677MDNCHX66","A24G8GL5FX1KAW","37S0QRNUFB29SLTNXLPAM35NX0F88U","","","<img src=""img/flower4.png"" style=""width:200px; border:14px solid green;"">","null","","","","","",""
"1012","","image-keyboard-response","89","101294","0.0-89.0","3EG49X351VYEPS913G9677MDNCHX66","A24G8GL5FX1KAW","37S0QRNUFB29SLTNXLPAM35NX0F88U","","","img/flower4.png","75","1027","2","1","1","",""
"null","","html-keyboard-response","90","101603","0.0-90.0","3EG49X351VYEPS913G9677MDNCHX66","A24G8GL5FX1KAW","37S0QRNUFB29SLTNXLPAM35NX0F88U","","","<img src=""img/flower4.png"" style=""width:200px; border:14px solid green;"">","null","","","","","",""
"1358","","image-keyboard-response","91","102964","0.0-91.0","3EG49X351VYEPS913G9677MDNCHX66","A24G8GL5FX1KAW","37S0QRNUFB29SLTNXLPAM35NX0F88U","","","img/flower6.png","76","1361","3","1","3","",""
"null","","html-keyboard-response","92","103272","0.0-92.0","3EG49X351VYEPS913G9677MDNCHX66","A24G8GL5FX1KAW","37S0QRNUFB29SLTNXLPAM35NX0F88U","","","<img src=""img/flower6.png"" style=""width:200px; border:14px solid green;"">","null","","","","","",""
"1048","","image-keyboard-response","93","104332","0.0-93.0","3EG49X351VYEPS913G9677MDNCHX66","A24G8GL5FX1KAW","37S0QRNUFB29SLTNXLPAM35NX0F88U","","","img/flower6.png","74","1060","1","1","3","",""
"null","","html-keyboard-response","94","104648","0.0-94.0","3EG49X351VYEPS913G9677MDNCHX66","A24G8GL5FX1KAW","37S0QRNUFB29SLTNXLPAM35NX0F88U","","","<img src=""img/flower6.png"" style=""width:200px; border:14px solid green;"">","null","","","","","",""
"2736","","image-keyboard-response","95","107403","0.0-95.0","3EG49X351VYEPS913G9677MDNCHX66","A24G8GL5FX1KAW","37S0QRNUFB29SLTNXLPAM35NX0F88U","","","img/flower6.png","76","2753","3","1","3","",""
"null","","html-keyboard-response","96","107722","0.0-96.0","3EG49X351VYEPS913G9677MDNCHX66","A24G8GL5FX1KAW","37S0QRNUFB29SLTNXLPAM35NX0F88U","","","<img src=""img/flower6.png"" style=""width:200px; border:14px solid green;"">","null","","","","","",""
"908","","image-keyboard-response","97","108647","0.0-97.0","3EG49X351VYEPS913G9677MDNCHX66","A24G8GL5FX1KAW","37S0QRNUFB29SLTNXLPAM35NX0F88U","","","img/flower6.png","74","925","1","1","3","",""
"null","","html-keyboard-response","98","108958","0.0-98.0","3EG49X351VYEPS913G9677MDNCHX66","A24G8GL5FX1KAW","37S0QRNUFB29SLTNXLPAM35NX0F88U","","","<img src=""img/flower6.png"" style=""width:200px; border:14px solid green;"">","null","","","","","",""
"1060","","image-keyboard-response","99","110035","0.0-99.0","3EG49X351VYEPS913G9677MDNCHX66","A24G8GL5FX1KAW","37S0QRNUFB29SLTNXLPAM35NX0F88U","","","img/flower5.png","75","1077","2","1","2","",""
"null","","html-keyboard-response","100","110350","0.0-100.0","3EG49X351VYEPS913G9677MDNCHX66","A24G8GL5FX1KAW","37S0QRNUFB29SLTNXLPAM35NX0F88U","","","<img src=""img/flower5.png"" style=""width:200px; border:14px solid green;"">","null","","","","","",""
"1036","","image-keyboard-response","101","111398","0.0-101.0","3EG49X351VYEPS913G9677MDNCHX66","A24G8GL5FX1KAW","37S0QRNUFB29SLTNXLPAM35NX0F88U","","","img/flower4.png","74","1048","1","1","1","",""
"null","","html-keyboard-response","102","111710","0.0-102.0","3EG49X351VYEPS913G9677MDNCHX66","A24G8GL5FX1KAW","37S0QRNUFB29SLTNXLPAM35NX0F88U","","","<img src=""img/flower4.png"" style=""width:200px; border:14px solid green;"">","null","","","","","",""
"1109","","image-keyboard-response","103","112836","0.0-103.0","3EG49X351VYEPS913G9677MDNCHX66","A24G8GL5FX1KAW","37S0QRNUFB29SLTNXLPAM35NX0F88U","","","img/flower6.png","76","1124","3","1","3","",""
"null","","html-keyboard-response","104","113163","0.0-104.0","3EG49X351VYEPS913G9677MDNCHX66","A24G8GL5FX1KAW","37S0QRNUFB29SLTNXLPAM35NX0F88U","","","<img src=""img/flower6.png"" style=""width:200px; border:14px solid green;"">","null","","","","","",""
"1045","","image-keyboard-response","105","114223","0.0-105.0","3EG49X351VYEPS913G9677MDNCHX66","A24G8GL5FX1KAW","37S0QRNUFB29SLTNXLPAM35NX0F88U","","","img/flower6.png","74","1059","1","1","3","",""
"null","","html-keyboard-response","106","114541","0.0-106.0","3EG49X351VYEPS913G9677MDNCHX66","A24G8GL5FX1KAW","37S0QRNUFB29SLTNXLPAM35NX0F88U","","","<img src=""img/flower6.png"" style=""width:200px; border:14px solid green;"">","null","","","","","",""
"1019","","image-keyboard-response","107","115563","0.0-107.0","3EG49X351VYEPS913G9677MDNCHX66","A24G8GL5FX1KAW","37S0QRNUFB29SLTNXLPAM35NX0F88U","","","img/flower4.png","74","1021","1","1","1","",""
"null","","html-keyboard-response","108","115881","0.0-108.0","3EG49X351VYEPS913G9677MDNCHX66","A24G8GL5FX1KAW","37S0QRNUFB29SLTNXLPAM35NX0F88U","","","<img src=""img/flower4.png"" style=""width:200px; border:14px solid green;"">","null","","","","","",""
"1039","","image-keyboard-response","109","116930","0.0-109.0","3EG49X351VYEPS913G9677MDNCHX66","A24G8GL5FX1KAW","37S0QRNUFB29SLTNXLPAM35NX0F88U","","","img/flower6.png","76","1049","3","1","3","",""
"null","","html-keyboard-response","110","117243","0.0-110.0","3EG49X351VYEPS913G9677MDNCHX66","A24G8GL5FX1KAW","37S0QRNUFB29SLTNXLPAM35NX0F88U","","","<img src=""img/flower6.png"" style=""width:200px; border:14px solid green;"">","null","","","","","",""
"762","","image-keyboard-response","111","118010","0.0-111.0","3EG49X351VYEPS913G9677MDNCHX66","A24G8GL5FX1KAW","37S0QRNUFB29SLTNXLPAM35NX0F88U","","","img/flower6.png","74","767","1","1","3","",""
"null","","html-keyboard-response","112","118324","0.0-112.0","3EG49X351VYEPS913G9677MDNCHX66","A24G8GL5FX1KAW","37S0QRNUFB29SLTNXLPAM35NX0F88U","","","<img src=""img/flower6.png"" style=""width:200px; border:14px solid green;"">","null","","","","","",""
"905","","image-keyboard-response","113","119239","0.0-113.0","3EG49X351VYEPS913G9677MDNCHX66","A24G8GL5FX1KAW","37S0QRNUFB29SLTNXLPAM35NX0F88U","","","img/flower6.png","76","913","3","1","3","",""
"null","","html-keyboard-response","114","119553","0.0-114.0","3EG49X351VYEPS913G9677MDNCHX66","A24G8GL5FX1KAW","37S0QRNUFB29SLTNXLPAM35NX0F88U","","","<img src=""img/flower6.png"" style=""width:200px; border:14px solid green;"">","null","","","","","",""
"1095","","image-keyboard-response","115","120651","0.0-115.0","3EG49X351VYEPS913G9677MDNCHX66","A24G8GL5FX1KAW","37S0QRNUFB29SLTNXLPAM35NX0F88U","","","img/flower5.png","75","1098","2","1","2","",""
"null","","html-keyboard-response","116","120973","0.0-116.0","3EG49X351VYEPS913G9677MDNCHX66","A24G8GL5FX1KAW","37S0QRNUFB29SLTNXLPAM35NX0F88U","","","<img src=""img/flower5.png"" style=""width:200px; border:14px solid green;"">","null","","","","","",""
"693","","image-keyboard-response","117","121683","0.0-117.0","3EG49X351VYEPS913G9677MDNCHX66","A24G8GL5FX1KAW","37S0QRNUFB29SLTNXLPAM35NX0F88U","","","img/flower5.png","76","710","3","1","2","",""
"null","","html-keyboard-response","118","122010","0.0-118.0","3EG49X351VYEPS913G9677MDNCHX66","A24G8GL5FX1KAW","37S0QRNUFB29SLTNXLPAM35NX0F88U","","","<img src=""img/flower5.png"" style=""width:200px; border:14px solid green;"">","null","","","","","",""
"886","","image-keyboard-response","119","122905","0.0-119.0","3EG49X351VYEPS913G9677MDNCHX66","A24G8GL5FX1KAW","37S0QRNUFB29SLTNXLPAM35NX0F88U","","","img/flower5.png","75","894","2","1","2","",""
"null","","html-keyboard-response","120","123209","0.0-120.0","3EG49X351VYEPS913G9677MDNCHX66","A24G8GL5FX1KAW","37S0QRNUFB29SLTNXLPAM35NX0F88U","","","<img src=""img/flower5.png"" style=""width:200px; border:14px solid green;"">","null","","","","","",""
"787","","image-keyboard-response","121","124012","0.0-121.0","3EG49X351VYEPS913G9677MDNCHX66","A24G8GL5FX1KAW","37S0QRNUFB29SLTNXLPAM35NX0F88U","","","img/flower5.png","76","802","3","0","2","",""
"null","","html-keyboard-response","122","124332","0.0-122.0","3EG49X351VYEPS913G9677MDNCHX66","A24G8GL5FX1KAW","37S0QRNUFB29SLTNXLPAM35NX0F88U","","","<img src=""img/flower5.png"" style=""width:200px;border:14px solid red;"">","null","","","","","",""
"956","","image-keyboard-response","123","125296","0.0-123.0","3EG49X351VYEPS913G9677MDNCHX66","A24G8GL5FX1KAW","37S0QRNUFB29SLTNXLPAM35NX0F88U","","","img/flower4.png","74","963","1","0","1","",""
"null","","html-keyboard-response","124","125609","0.0-124.0","3EG49X351VYEPS913G9677MDNCHX66","A24G8GL5FX1KAW","37S0QRNUFB29SLTNXLPAM35NX0F88U","","","<img src=""img/flower4.png"" style=""width:200px;border:14px solid red;"">","null","","","","","",""
"3600","","instructions","125","129217","0.0-125.0","3EG49X351VYEPS913G9677MDNCHX66","A24G8GL5FX1KAW","37S0QRNUFB29SLTNXLPAM35NX0F88U","","[{""page_index"":0,""viewing_time"":3598}]","","","","","","","",""
"2088","","image-keyboard-response","126","131308","0.0-126.0","3EG49X351VYEPS913G9677MDNCHX66","A24G8GL5FX1KAW","37S0QRNUFB29SLTNXLPAM35NX0F88U","","","img/flower1.png","75","2092","2","1","2","0.7,0.2,0,0,0.7,0.2,0.2,0,0.7",""
"null","","html-keyboard-response","127","131621","0.0-127.0","3EG49X351VYEPS913G9677MDNCHX66","A24G8GL5FX1KAW","37S0QRNUFB29SLTNXLPAM35NX0F88U","","","<img src=""img/flower1.png"" style=""width:200px; border:14px solid green;"">","null","","","","","",""
"1078","","image-keyboard-response","128","132708","0.0-128.0","3EG49X351VYEPS913G9677MDNCHX66","A24G8GL5FX1KAW","37S0QRNUFB29SLTNXLPAM35NX0F88U","","","img/flower5.png","75","1087","2","0","3","0.7,0.2,0,0,0.7,0.2,0.2,0,0.7",""
"null","","html-keyboard-response","129","133022","0.0-129.0","3EG49X351VYEPS913G9677MDNCHX66","A24G8GL5FX1KAW","37S0QRNUFB29SLTNXLPAM35NX0F88U","","","<img src=""img/flower5.png"" style=""width:200px;border:14px solid red;"">","null","","","","","",""
"911","","image-keyboard-response","130","133944","0.0-130.0","3EG49X351VYEPS913G9677MDNCHX66","A24G8GL5FX1KAW","37S0QRNUFB29SLTNXLPAM35NX0F88U","","","img/flower4.png","74","921","1","0","1","0.7,0.2,0,0,0.7,0.2,0.2,0,0.7",""
"null","","html-keyboard-response","131","134256","0.0-131.0","3EG49X351VYEPS913G9677MDNCHX66","A24G8GL5FX1KAW","37S0QRNUFB29SLTNXLPAM35NX0F88U","","","<img src=""img/flower4.png"" style=""width:200px;border:14px solid red;"">","null","","","","","",""
"951","","image-keyboard-response","132","135210","0.0-132.0","3EG49X351VYEPS913G9677MDNCHX66","A24G8GL5FX1KAW","37S0QRNUFB29SLTNXLPAM35NX0F88U","","","img/flower4.png","74","954","1","1","1","0.7,0.2,0,0,0.7,0.2,0.2,0,0.7",""
"null","","html-keyboard-response","133","135517","0.0-133.0","3EG49X351VYEPS913G9677MDNCHX66","A24G8GL5FX1KAW","37S0QRNUFB29SLTNXLPAM35NX0F88U","","","<img src=""img/flower4.png"" style=""width:200px; border:14px solid green;"">","null","","","","","",""
"1293","","image-keyboard-response","134","136816","0.0-134.0","3EG49X351VYEPS913G9677MDNCHX66","A24G8GL5FX1KAW","37S0QRNUFB29SLTNXLPAM35NX0F88U","","","img/flower5.png","75","1298","2","0","3","0.7,0.2,0,0,0.7,0.2,0.2,0,0.7",""
"null","","html-keyboard-response","135","137136","0.0-135.0","3EG49X351VYEPS913G9677MDNCHX66","A24G8GL5FX1KAW","37S0QRNUFB29SLTNXLPAM35NX0F88U","","","<img src=""img/flower5.png"" style=""width:200px;border:14px solid red;"">","null","","","","","",""
"924","","image-keyboard-response","136","138076","0.0-136.0","3EG49X351VYEPS913G9677MDNCHX66","A24G8GL5FX1KAW","37S0QRNUFB29SLTNXLPAM35NX0F88U","","","img/flower5.png","75","940","2","0","3","0.7,0.2,0,0,0.7,0.2,0.2,0,0.7",""
"null","","html-keyboard-response","137","138381","0.0-137.0","3EG49X351VYEPS913G9677MDNCHX66","A24G8GL5FX1KAW","37S0QRNUFB29SLTNXLPAM35NX0F88U","","","<img src=""img/flower5.png"" style=""width:200px;border:14px solid red;"">","null","","","","","",""
"1336","","image-keyboard-response","138","139724","0.0-138.0","3EG49X351VYEPS913G9677MDNCHX66","A24G8GL5FX1KAW","37S0QRNUFB29SLTNXLPAM35NX0F88U","","","img/flower1.png","76","1343","3","0","2","0.7,0.2,0,0,0.7,0.2,0.2,0,0.7",""
"null","","html-keyboard-response","139","140033","0.0-139.0","3EG49X351VYEPS913G9677MDNCHX66","A24G8GL5FX1KAW","37S0QRNUFB29SLTNXLPAM35NX0F88U","","","<img src=""img/flower1.png"" style=""width:200px;border:14px solid red;"">","null","","","","","",""
"968","","image-keyboard-response","140","141017","0.0-140.0","3EG49X351VYEPS913G9677MDNCHX66","A24G8GL5FX1KAW","37S0QRNUFB29SLTNXLPAM35NX0F88U","","","img/flower1.png","74","983","1","0","2","0.7,0.2,0,0,0.7,0.2,0.2,0,0.7",""
"null","","html-keyboard-response","141","141337","0.0-141.0","3EG49X351VYEPS913G9677MDNCHX66","A24G8GL5FX1KAW","37S0QRNUFB29SLTNXLPAM35NX0F88U","","","<img src=""img/flower1.png"" style=""width:200px;border:14px solid red;"">","null","","","","","",""
"813","","image-keyboard-response","142","142164","0.0-142.0","3EG49X351VYEPS913G9677MDNCHX66","A24G8GL5FX1KAW","37S0QRNUFB29SLTNXLPAM35NX0F88U","","","img/flower4.png","74","827","1","0","1","0.7,0.2,0,0,0.7,0.2,0.2,0,0.7",""
"null","","html-keyboard-response","143","142474","0.0-143.0","3EG49X351VYEPS913G9677MDNCHX66","A24G8GL5FX1KAW","37S0QRNUFB29SLTNXLPAM35NX0F88U","","","<img src=""img/flower4.png"" style=""width:200px;border:14px solid red;"">","null","","","","","",""
"782","","image-keyboard-response","144","143268","0.0-144.0","3EG49X351VYEPS913G9677MDNCHX66","A24G8GL5FX1KAW","37S0QRNUFB29SLTNXLPAM35NX0F88U","","","img/flower1.png","75","792","2","1","2","0.7,0.2,0,0,0.7,0.2,0.2,0,0.7",""
"null","","html-keyboard-response","145","143578","0.0-145.0","3EG49X351VYEPS913G9677MDNCHX66","A24G8GL5FX1KAW","37S0QRNUFB29SLTNXLPAM35NX0F88U","","","<img src=""img/flower1.png"" style=""width:200px; border:14px solid green;"">","null","","","","","",""
"1396","","image-keyboard-response","146","144986","0.0-146.0","3EG49X351VYEPS913G9677MDNCHX66","A24G8GL5FX1KAW","37S0QRNUFB29SLTNXLPAM35NX0F88U","","","img/flower4.png","75","1408","2","0","1","0.7,0.2,0,0,0.7,0.2,0.2,0,0.7",""
"null","","html-keyboard-response","147","145295","0.0-147.0","3EG49X351VYEPS913G9677MDNCHX66","A24G8GL5FX1KAW","37S0QRNUFB29SLTNXLPAM35NX0F88U","","","<img src=""img/flower4.png"" style=""width:200px;border:14px solid red;"">","null","","","","","",""
"979","","image-keyboard-response","148","146290","0.0-148.0","3EG49X351VYEPS913G9677MDNCHX66","A24G8GL5FX1KAW","37S0QRNUFB29SLTNXLPAM35NX0F88U","","","img/flower5.png","75","994","2","0","3","0.7,0.2,0,0,0.7,0.2,0.2,0,0.7",""
"null","","html-keyboard-response","149","146603","0.0-149.0","3EG49X351VYEPS913G9677MDNCHX66","A24G8GL5FX1KAW","37S0QRNUFB29SLTNXLPAM35NX0F88U","","","<img src=""img/flower5.png"" style=""width:200px;border:14px solid red;"">","null","","","","","",""
"1015","","image-keyboard-response","150","147628","0.0-150.0","3EG49X351VYEPS913G9677MDNCHX66","A24G8GL5FX1KAW","37S0QRNUFB29SLTNXLPAM35NX0F88U","","","img/flower5.png","74","1025","1","1","3","0.7,0.2,0,0,0.7,0.2,0.2,0,0.7",""
"null","","html-keyboard-response","151","147941","0.0-151.0","3EG49X351VYEPS913G9677MDNCHX66","A24G8GL5FX1KAW","37S0QRNUFB29SLTNXLPAM35NX0F88U","","","<img src=""img/flower5.png"" style=""width:200px; border:14px solid green;"">","null","","","","","",""
"1799","","image-keyboard-response","152","149741","0.0-152.0","3EG49X351VYEPS913G9677MDNCHX66","A24G8GL5FX1KAW","37S0QRNUFB29SLTNXLPAM35NX0F88U","","","img/flower4.png","74","1806","1","0","1","0.7,0.2,0,0,0.7,0.2,0.2,0,0.7",""
"null","","html-keyboard-response","153","150062","0.0-153.0","3EG49X351VYEPS913G9677MDNCHX66","A24G8GL5FX1KAW","37S0QRNUFB29SLTNXLPAM35NX0F88U","","","<img src=""img/flower4.png"" style=""width:200px;border:14px solid red;"">","null","","","","","",""
"1472","","image-keyboard-response","154","151539","0.0-154.0","3EG49X351VYEPS913G9677MDNCHX66","A24G8GL5FX1KAW","37S0QRNUFB29SLTNXLPAM35NX0F88U","","","img/flower5.png","76","1477","3","1","3","0.7,0.2,0,0,0.7,0.2,0.2,0,0.7",""
"null","","html-keyboard-response","155","151857","0.0-155.0","3EG49X351VYEPS913G9677MDNCHX66","A24G8GL5FX1KAW","37S0QRNUFB29SLTNXLPAM35NX0F88U","","","<img src=""img/flower5.png"" style=""width:200px; border:14px solid green;"">","null","","","","","",""
"1534","","image-keyboard-response","156","153408","0.0-156.0","3EG49X351VYEPS913G9677MDNCHX66","A24G8GL5FX1KAW","37S0QRNUFB29SLTNXLPAM35NX0F88U","","","img/flower1.png","76","1550","3","0","2","0.7,0.2,0,0,0.7,0.2,0.2,0,0.7",""
"null","","html-keyboard-response","157","153712","0.0-157.0","3EG49X351VYEPS913G9677MDNCHX66","A24G8GL5FX1KAW","37S0QRNUFB29SLTNXLPAM35NX0F88U","","","<img src=""img/flower1.png"" style=""width:200px;border:14px solid red;"">","null","","","","","",""
"959","","image-keyboard-response","158","154686","0.0-158.0","3EG49X351VYEPS913G9677MDNCHX66","A24G8GL5FX1KAW","37S0QRNUFB29SLTNXLPAM35NX0F88U","","","img/flower1.png","75","974","2","1","2","0.7,0.2,0,0,0.7,0.2,0.2,0,0.7",""
"null","","html-keyboard-response","159","154994","0.0-159.0","3EG49X351VYEPS913G9677MDNCHX66","A24G8GL5FX1KAW","37S0QRNUFB29SLTNXLPAM35NX0F88U","","","<img src=""img/flower1.png"" style=""width:200px; border:14px solid green;"">","null","","","","","",""
"1035","","image-keyboard-response","160","156042","0.0-160.0","3EG49X351VYEPS913G9677MDNCHX66","A24G8GL5FX1KAW","37S0QRNUFB29SLTNXLPAM35NX0F88U","","","img/flower5.png","76","1048","3","1","3","0.7,0.2,0,0,0.7,0.2,0.2,0,0.7",""
"null","","html-keyboard-response","161","156354","0.0-161.0","3EG49X351VYEPS913G9677MDNCHX66","A24G8GL5FX1KAW","37S0QRNUFB29SLTNXLPAM35NX0F88U","","","<img src=""img/flower5.png"" style=""width:200px; border:14px solid green;"">","null","","","","","",""
"611","","image-keyboard-response","162","156969","0.0-162.0","3EG49X351VYEPS913G9677MDNCHX66","A24G8GL5FX1KAW","37S0QRNUFB29SLTNXLPAM35NX0F88U","","","img/flower4.png","75","615","2","0","1","0.7,0.2,0,0,0.7,0.2,0.2,0,0.7",""
"null","","html-keyboard-response","163","157291","0.0-163.0","3EG49X351VYEPS913G9677MDNCHX66","A24G8GL5FX1KAW","37S0QRNUFB29SLTNXLPAM35NX0F88U","","","<img src=""img/flower4.png"" style=""width:200px;border:14px solid red;"">","null","","","","","",""
"1171","","image-keyboard-response","164","158474","0.0-164.0","3EG49X351VYEPS913G9677MDNCHX66","A24G8GL5FX1KAW","37S0QRNUFB29SLTNXLPAM35NX0F88U","","","img/flower5.png","76","1181","3","1","3","0.7,0.2,0,0,0.7,0.2,0.2,0,0.7",""
"null","","html-keyboard-response","165","158782","0.0-165.0","3EG49X351VYEPS913G9677MDNCHX66","A24G8GL5FX1KAW","37S0QRNUFB29SLTNXLPAM35NX0F88U","","","<img src=""img/flower5.png"" style=""width:200px; border:14px solid green;"">","null","","","","","",""
"928","","image-keyboard-response","166","159724","0.0-166.0","3EG49X351VYEPS913G9677MDNCHX66","A24G8GL5FX1KAW","37S0QRNUFB29SLTNXLPAM35NX0F88U","","","img/flower4.png","74","942","1","1","1","0.7,0.2,0,0,0.7,0.2,0.2,0,0.7",""
"null","","html-keyboard-response","167","160040","0.0-167.0","3EG49X351VYEPS913G9677MDNCHX66","A24G8GL5FX1KAW","37S0QRNUFB29SLTNXLPAM35NX0F88U","","","<img src=""img/flower4.png"" style=""width:200px; border:14px solid green;"">","null","","","","","",""
"1115","","image-keyboard-response","168","161166","0.0-168.0","3EG49X351VYEPS913G9677MDNCHX66","A24G8GL5FX1KAW","37S0QRNUFB29SLTNXLPAM35NX0F88U","","","img/flower1.png","74","1126","1","0","2","0.7,0.2,0,0,0.7,0.2,0.2,0,0.7",""
"null","","html-keyboard-response","169","161480","0.0-169.0","3EG49X351VYEPS913G9677MDNCHX66","A24G8GL5FX1KAW","37S0QRNUFB29SLTNXLPAM35NX0F88U","","","<img src=""img/flower1.png"" style=""width:200px;border:14px solid red;"">","null","","","","","",""
"955","","image-keyboard-response","170","162441","0.0-170.0","3EG49X351VYEPS913G9677MDNCHX66","A24G8GL5FX1KAW","37S0QRNUFB29SLTNXLPAM35NX0F88U","","","img/flower4.png","74","961","1","1","1","0.7,0.2,0,0,0.7,0.2,0.2,0,0.7",""
"null","","html-keyboard-response","171","162766","0.0-171.0","3EG49X351VYEPS913G9677MDNCHX66","A24G8GL5FX1KAW","37S0QRNUFB29SLTNXLPAM35NX0F88U","","","<img src=""img/flower4.png"" style=""width:200px; border:14px solid green;"">","null","","","","","",""
"1067","","image-keyboard-response","172","163835","0.0-172.0","3EG49X351VYEPS913G9677MDNCHX66","A24G8GL5FX1KAW","37S0QRNUFB29SLTNXLPAM35NX0F88U","","","img/flower4.png","75","1069","2","1","1","0.7,0.2,0,0,0.7,0.2,0.2,0,0.7",""
"null","","html-keyboard-response","173","164142","0.0-173.0","3EG49X351VYEPS913G9677MDNCHX66","A24G8GL5FX1KAW","37S0QRNUFB29SLTNXLPAM35NX0F88U","","","<img src=""img/flower4.png"" style=""width:200px; border:14px solid green;"">","null","","","","","",""
"1044","","image-keyboard-response","174","165197","0.0-174.0","3EG49X351VYEPS913G9677MDNCHX66","A24G8GL5FX1KAW","37S0QRNUFB29SLTNXLPAM35NX0F88U","","","img/flower5.png","75","1055","2","0","3","0.7,0.2,0,0,0.7,0.2,0.2,0,0.7",""
"null","","html-keyboard-response","175","165548","0.0-175.0","3EG49X351VYEPS913G9677MDNCHX66","A24G8GL5FX1KAW","37S0QRNUFB29SLTNXLPAM35NX0F88U","","","<img src=""img/flower5.png"" style=""width:200px;border:14px solid red;"">","null","","","","","",""
"1025","","image-keyboard-response","176","166582","0.0-176.0","3EG49X351VYEPS913G9677MDNCHX66","A24G8GL5FX1KAW","37S0QRNUFB29SLTNXLPAM35NX0F88U","","","img/flower4.png","74","1033","1","1","1","0.7,0.2,0,0,0.7,0.2,0.2,0,0.7",""
"null","","html-keyboard-response","177","166891","0.0-177.0","3EG49X351VYEPS913G9677MDNCHX66","A24G8GL5FX1KAW","37S0QRNUFB29SLTNXLPAM35NX0F88U","","","<img src=""img/flower4.png"" style=""width:200px; border:14px solid green;"">","null","","","","","",""
"808","","image-keyboard-response","178","167712","0.0-178.0","3EG49X351VYEPS913G9677MDNCHX66","A24G8GL5FX1KAW","37S0QRNUFB29SLTNXLPAM35NX0F88U","","","img/flower4.png","75","814","2","0","1","0.7,0.2,0,0,0.7,0.2,0.2,0,0.7",""
"null","","html-keyboard-response","179","168028","0.0-179.0","3EG49X351VYEPS913G9677MDNCHX66","A24G8GL5FX1KAW","37S0QRNUFB29SLTNXLPAM35NX0F88U","","","<img src=""img/flower4.png"" style=""width:200px;border:14px solid red;"">","null","","","","","",""
"1172","","image-keyboard-response","180","169211","0.0-180.0","3EG49X351VYEPS913G9677MDNCHX66","A24G8GL5FX1KAW","37S0QRNUFB29SLTNXLPAM35NX0F88U","","","img/flower5.png","74","1178","1","0","3","0.7,0.2,0,0,0.7,0.2,0.2,0,0.7",""
"null","","html-keyboard-response","181","169538","0.0-181.0","3EG49X351VYEPS913G9677MDNCHX66","A24G8GL5FX1KAW","37S0QRNUFB29SLTNXLPAM35NX0F88U","","","<img src=""img/flower5.png"" style=""width:200px;border:14px solid red;"">","null","","","","","",""
"906","","image-keyboard-response","182","170457","0.0-182.0","3EG49X351VYEPS913G9677MDNCHX66","A24G8GL5FX1KAW","37S0QRNUFB29SLTNXLPAM35NX0F88U","","","img/flower4.png","75","916","2","0","1","0.7,0.2,0,0,0.7,0.2,0.2,0,0.7",""
"null","","html-keyboard-response","183","170770","0.0-183.0","3EG49X351VYEPS913G9677MDNCHX66","A24G8GL5FX1KAW","37S0QRNUFB29SLTNXLPAM35NX0F88U","","","<img src=""img/flower4.png"" style=""width:200px;border:14px solid red;"">","null","","","","","",""
"597","","image-keyboard-response","184","171381","0.0-184.0","3EG49X351VYEPS913G9677MDNCHX66","A24G8GL5FX1KAW","37S0QRNUFB29SLTNXLPAM35NX0F88U","","","img/flower4.png","74","605","1","1","1","0.7,0.2,0,0,0.7,0.2,0.2,0,0.7",""
"null","","html-keyboard-response","185","171793","0.0-185.0","3EG49X351VYEPS913G9677MDNCHX66","A24G8GL5FX1KAW","37S0QRNUFB29SLTNXLPAM35NX0F88U","","","<img src=""img/flower4.png"" style=""width:200px; border:14px solid green;"">","null","","","","","",""
"1110","","image-keyboard-response","186","172919","0.0-186.0","3EG49X351VYEPS913G9677MDNCHX66","A24G8GL5FX1KAW","37S0QRNUFB29SLTNXLPAM35NX0F88U","","","img/flower5.png","76","1126","3","1","3","0.7,0.2,0,0,0.7,0.2,0.2,0,0.7",""
"null","","html-keyboard-response","187","173242","0.0-187.0","3EG49X351VYEPS913G9677MDNCHX66","A24G8GL5FX1KAW","37S0QRNUFB29SLTNXLPAM35NX0F88U","","","<img src=""img/flower5.png"" style=""width:200px; border:14px solid green;"">","null","","","","","",""
"1546","","image-keyboard-response","188","174799","0.0-188.0","3EG49X351VYEPS913G9677MDNCHX66","A24G8GL5FX1KAW","37S0QRNUFB29SLTNXLPAM35NX0F88U","","","img/flower1.png","75","1557","2","1","2","0.7,0.2,0,0,0.7,0.2,0.2,0,0.7",""
"null","","html-keyboard-response","189","175110","0.0-189.0","3EG49X351VYEPS913G9677MDNCHX66","A24G8GL5FX1KAW","37S0QRNUFB29SLTNXLPAM35NX0F88U","","","<img src=""img/flower1.png"" style=""width:200px; border:14px solid green;"">","null","","","","","",""
"1191","","image-keyboard-response","190","176314","0.0-190.0","3EG49X351VYEPS913G9677MDNCHX66","A24G8GL5FX1KAW","37S0QRNUFB29SLTNXLPAM35NX0F88U","","","img/flower1.png","75","1203","2","1","2","0.7,0.2,0,0,0.7,0.2,0.2,0,0.7",""
"null","","html-keyboard-response","191","176622","0.0-191.0","3EG49X351VYEPS913G9677MDNCHX66","A24G8GL5FX1KAW","37S0QRNUFB29SLTNXLPAM35NX0F88U","","","<img src=""img/flower1.png"" style=""width:200px; border:14px solid green;"">","null","","","","","",""
"970","","image-keyboard-response","192","177599","0.0-192.0","3EG49X351VYEPS913G9677MDNCHX66","A24G8GL5FX1KAW","37S0QRNUFB29SLTNXLPAM35NX0F88U","","","img/flower5.png","76","974","3","0","3","0.7,0.2,0,0,0.7,0.2,0.2,0,0.7",""
"null","","html-keyboard-response","193","177915","0.0-193.0","3EG49X351VYEPS913G9677MDNCHX66","A24G8GL5FX1KAW","37S0QRNUFB29SLTNXLPAM35NX0F88U","","","<img src=""img/flower5.png"" style=""width:200px;border:14px solid red;"">","null","","","","","",""
"1027","","image-keyboard-response","194","178946","0.0-194.0","3EG49X351VYEPS913G9677MDNCHX66","A24G8GL5FX1KAW","37S0QRNUFB29SLTNXLPAM35NX0F88U","","","img/flower4.png","74","1030","1","1","1","0.7,0.2,0,0,0.7,0.2,0.2,0,0.7",""
"null","","html-keyboard-response","195","179267","0.0-195.0","3EG49X351VYEPS913G9677MDNCHX66","A24G8GL5FX1KAW","37S0QRNUFB29SLTNXLPAM35NX0F88U","","","<img src=""img/flower4.png"" style=""width:200px; border:14px solid green;"">","null","","","","","",""
"1048","","image-keyboard-response","196","180331","0.0-196.0","3EG49X351VYEPS913G9677MDNCHX66","A24G8GL5FX1KAW","37S0QRNUFB29SLTNXLPAM35NX0F88U","","","img/flower5.png","74","1062","1","0","3","0.7,0.2,0,0,0.7,0.2,0.2,0,0.7",""
"null","","html-keyboard-response","197","180651","0.0-197.0","3EG49X351VYEPS913G9677MDNCHX66","A24G8GL5FX1KAW","37S0QRNUFB29SLTNXLPAM35NX0F88U","","","<img src=""img/flower5.png"" style=""width:200px;border:14px solid red;"">","null","","","","","",""
"1797","","image-keyboard-response","198","182464","0.0-198.0","3EG49X351VYEPS913G9677MDNCHX66","A24G8GL5FX1KAW","37S0QRNUFB29SLTNXLPAM35NX0F88U","","","img/flower1.png","76","1813","3","1","2","0.7,0.2,0,0,0.7,0.2,0.2,0,0.7",""
"null","","html-keyboard-response","199","182774","0.0-199.0","3EG49X351VYEPS913G9677MDNCHX66","A24G8GL5FX1KAW","37S0QRNUFB29SLTNXLPAM35NX0F88U","","","<img src=""img/flower1.png"" style=""width:200px; border:14px solid green;"">","null","","","","","",""
"965","","image-keyboard-response","200","183747","0.0-200.0","3EG49X351VYEPS913G9677MDNCHX66","A24G8GL5FX1KAW","37S0QRNUFB29SLTNXLPAM35NX0F88U","","","img/flower1.png","76","973","3","0","2","0.7,0.2,0,0,0.7,0.2,0.2,0,0.7",""
"null","","html-keyboard-response","201","184068","0.0-201.0","3EG49X351VYEPS913G9677MDNCHX66","A24G8GL5FX1KAW","37S0QRNUFB29SLTNXLPAM35NX0F88U","","","<img src=""img/flower1.png"" style=""width:200px;border:14px solid red;"">","null","","","","","",""
"1048","","image-keyboard-response","202","185132","0.0-202.0","3EG49X351VYEPS913G9677MDNCHX66","A24G8GL5FX1KAW","37S0QRNUFB29SLTNXLPAM35NX0F88U","","","img/flower5.png","74","1064","1","0","3","0.7,0.2,0,0,0.7,0.2,0.2,0,0.7",""
"null","","html-keyboard-response","203","185448","0.0-203.0","3EG49X351VYEPS913G9677MDNCHX66","A24G8GL5FX1KAW","37S0QRNUFB29SLTNXLPAM35NX0F88U","","","<img src=""img/flower5.png"" style=""width:200px;border:14px solid red;"">","null","","","","","",""
"821","","image-keyboard-response","204","186274","0.0-204.0","3EG49X351VYEPS913G9677MDNCHX66","A24G8GL5FX1KAW","37S0QRNUFB29SLTNXLPAM35NX0F88U","","","img/flower1.png","74","826","1","0","2","0.7,0.2,0,0,0.7,0.2,0.2,0,0.7",""
"null","","html-keyboard-response","205","186586","0.0-205.0","3EG49X351VYEPS913G9677MDNCHX66","A24G8GL5FX1KAW","37S0QRNUFB29SLTNXLPAM35NX0F88U","","","<img src=""img/flower1.png"" style=""width:200px;border:14px solid red;"">","null","","","","","",""
"771","","image-keyboard-response","206","187370","0.0-206.0","3EG49X351VYEPS913G9677MDNCHX66","A24G8GL5FX1KAW","37S0QRNUFB29SLTNXLPAM35NX0F88U","","","img/flower5.png","75","780","2","0","3","0.7,0.2,0,0,0.7,0.2,0.2,0,0.7",""
"null","","html-keyboard-response","207","187683","0.0-207.0","3EG49X351VYEPS913G9677MDNCHX66","A24G8GL5FX1KAW","37S0QRNUFB29SLTNXLPAM35NX0F88U","","","<img src=""img/flower5.png"" style=""width:200px;border:14px solid red;"">","null","","","","","",""
"723","","image-keyboard-response","208","188417","0.0-208.0","3EG49X351VYEPS913G9677MDNCHX66","A24G8GL5FX1KAW","37S0QRNUFB29SLTNXLPAM35NX0F88U","","","img/flower5.png","75","734","2","0","3","0.7,0.2,0,0,0.7,0.2,0.2,0,0.7",""
"null","","html-keyboard-response","209","188733","0.0-209.0","3EG49X351VYEPS913G9677MDNCHX66","A24G8GL5FX1KAW","37S0QRNUFB29SLTNXLPAM35NX0F88U","","","<img src=""img/flower5.png"" style=""width:200px;border:14px solid red;"">","null","","","","","",""
"2654","","image-keyboard-response","210","191402","0.0-210.0","3EG49X351VYEPS913G9677MDNCHX66","A24G8GL5FX1KAW","37S0QRNUFB29SLTNXLPAM35NX0F88U","","","img/flower4.png","74","2667","1","1","1","0.7,0.2,0,0,0.7,0.2,0.2,0,0.7",""
"null","","html-keyboard-response","211","191714","0.0-211.0","3EG49X351VYEPS913G9677MDNCHX66","A24G8GL5FX1KAW","37S0QRNUFB29SLTNXLPAM35NX0F88U","","","<img src=""img/flower4.png"" style=""width:200px; border:14px solid green;"">","null","","","","","",""
"595","","image-keyboard-response","212","192323","0.0-212.0","3EG49X351VYEPS913G9677MDNCHX66","A24G8GL5FX1KAW","37S0QRNUFB29SLTNXLPAM35NX0F88U","","","img/flower4.png","74","609","1","1","1","0.7,0.2,0,0,0.7,0.2,0.2,0,0.7",""
"null","","html-keyboard-response","213","192638","0.0-213.0","3EG49X351VYEPS913G9677MDNCHX66","A24G8GL5FX1KAW","37S0QRNUFB29SLTNXLPAM35NX0F88U","","","<img src=""img/flower4.png"" style=""width:200px; border:14px solid green;"">","null","","","","","",""
"968","","image-keyboard-response","214","193608","0.0-214.0","3EG49X351VYEPS913G9677MDNCHX66","A24G8GL5FX1KAW","37S0QRNUFB29SLTNXLPAM35NX0F88U","","","img/flower1.png","76","970","3","0","2","0.7,0.2,0,0,0.7,0.2,0.2,0,0.7",""
"null","","html-keyboard-response","215","193926","0.0-215.0","3EG49X351VYEPS913G9677MDNCHX66","A24G8GL5FX1KAW","37S0QRNUFB29SLTNXLPAM35NX0F88U","","","<img src=""img/flower1.png"" style=""width:200px;border:14px solid red;"">","null","","","","","",""
"1487","","image-keyboard-response","216","195424","0.0-216.0","3EG49X351VYEPS913G9677MDNCHX66","A24G8GL5FX1KAW","37S0QRNUFB29SLTNXLPAM35NX0F88U","","","img/flower5.png","75","1498","2","0","3","0.7,0.2,0,0,0.7,0.2,0.2,0,0.7",""
"null","","html-keyboard-response","217","195737","0.0-217.0","3EG49X351VYEPS913G9677MDNCHX66","A24G8GL5FX1KAW","37S0QRNUFB29SLTNXLPAM35NX0F88U","","","<img src=""img/flower5.png"" style=""width:200px;border:14px solid red;"">","null","","","","","",""
"755","","image-keyboard-response","218","196494","0.0-218.0","3EG49X351VYEPS913G9677MDNCHX66","A24G8GL5FX1KAW","37S0QRNUFB29SLTNXLPAM35NX0F88U","","","img/flower4.png","74","757","1","1","1","0.7,0.2,0,0,0.7,0.2,0.2,0,0.7",""
"null","","html-keyboard-response","219","196798","0.0-219.0","3EG49X351VYEPS913G9677MDNCHX66","A24G8GL5FX1KAW","37S0QRNUFB29SLTNXLPAM35NX0F88U","","","<img src=""img/flower4.png"" style=""width:200px; border:14px solid green;"">","null","","","","","",""
"1005","","image-keyboard-response","220","197816","0.0-220.0","3EG49X351VYEPS913G9677MDNCHX66","A24G8GL5FX1KAW","37S0QRNUFB29SLTNXLPAM35NX0F88U","","","img/flower5.png","74","1017","1","0","3","0.7,0.2,0,0,0.7,0.2,0.2,0,0.7",""
"null","","html-keyboard-response","221","198130","0.0-221.0","3EG49X351VYEPS913G9677MDNCHX66","A24G8GL5FX1KAW","37S0QRNUFB29SLTNXLPAM35NX0F88U","","","<img src=""img/flower5.png"" style=""width:200px;border:14px solid red;"">","null","","","","","",""
"673","","image-keyboard-response","222","198807","0.0-222.0","3EG49X351VYEPS913G9677MDNCHX66","A24G8GL5FX1KAW","37S0QRNUFB29SLTNXLPAM35NX0F88U","","","img/flower1.png","74","677","1","0","2","0.7,0.2,0,0,0.7,0.2,0.2,0,0.7",""
"null","","html-keyboard-response","223","199127","0.0-223.0","3EG49X351VYEPS913G9677MDNCHX66","A24G8GL5FX1KAW","37S0QRNUFB29SLTNXLPAM35NX0F88U","","","<img src=""img/flower1.png"" style=""width:200px;border:14px solid red;"">","null","","","","","",""
"541","","image-keyboard-response","224","199680","0.0-224.0","3EG49X351VYEPS913G9677MDNCHX66","A24G8GL5FX1KAW","37S0QRNUFB29SLTNXLPAM35NX0F88U","","","img/flower5.png","74","550","1","1","3","0.7,0.2,0,0,0.7,0.2,0.2,0,0.7",""
"null","","html-keyboard-response","225","199998","0.0-225.0","3EG49X351VYEPS913G9677MDNCHX66","A24G8GL5FX1KAW","37S0QRNUFB29SLTNXLPAM35NX0F88U","","","<img src=""img/flower5.png"" style=""width:200px; border:14px solid green;"">","null","","","","","",""
"194","","image-keyboard-response","226","200198","0.0-226.0","3EG49X351VYEPS913G9677MDNCHX66","A24G8GL5FX1KAW","37S0QRNUFB29SLTNXLPAM35NX0F88U","","","img/flower1.png","74","197","1","0","2","0.7,0.2,0,0,0.7,0.2,0.2,0,0.7",""
"null","","html-keyboard-response","227","200518","0.0-227.0","3EG49X351VYEPS913G9677MDNCHX66","A24G8GL5FX1KAW","37S0QRNUFB29SLTNXLPAM35NX0F88U","","","<img src=""img/flower1.png"" style=""width:200px;border:14px solid red;"">","null","","","","","",""
"105","","image-keyboard-response","228","200633","0.0-228.0","3EG49X351VYEPS913G9677MDNCHX66","A24G8GL5FX1KAW","37S0QRNUFB29SLTNXLPAM35NX0F88U","","","img/flower5.png","74","114","1","1","3","0.7,0.2,0,0,0.7,0.2,0.2,0,0.7",""
"null","","html-keyboard-response","229","200943","0.0-229.0","3EG49X351VYEPS913G9677MDNCHX66","A24G8GL5FX1KAW","37S0QRNUFB29SLTNXLPAM35NX0F88U","","","<img src=""img/flower5.png"" style=""width:200px; border:14px solid green;"">","null","","","","","",""
"71","","image-keyboard-response","230","201016","0.0-230.0","3EG49X351VYEPS913G9677MDNCHX66","A24G8GL5FX1KAW","37S0QRNUFB29SLTNXLPAM35NX0F88U","","","img/flower4.png","74","73","1","1","1","0.7,0.2,0,0,0.7,0.2,0.2,0,0.7",""
"null","","html-keyboard-response","231","201326","0.0-231.0","3EG49X351VYEPS913G9677MDNCHX66","A24G8GL5FX1KAW","37S0QRNUFB29SLTNXLPAM35NX0F88U","","","<img src=""img/flower4.png"" style=""width:200px; border:14px solid green;"">","null","","","","","",""
"89","","image-keyboard-response","232","201417","0.0-232.0","3EG49X351VYEPS913G9677MDNCHX66","A24G8GL5FX1KAW","37S0QRNUFB29SLTNXLPAM35NX0F88U","","","img/flower4.png","74","91","1","0","1","0.7,0.2,0,0,0.7,0.2,0.2,0,0.7",""
"null","","html-keyboard-response","233","201729","0.0-233.0","3EG49X351VYEPS913G9677MDNCHX66","A24G8GL5FX1KAW","37S0QRNUFB29SLTNXLPAM35NX0F88U","","","<img src=""img/flower4.png"" style=""width:200px;border:14px solid red;"">","null","","","","","",""
"191","","image-keyboard-response","234","201925","0.0-234.0","3EG49X351VYEPS913G9677MDNCHX66","A24G8GL5FX1KAW","37S0QRNUFB29SLTNXLPAM35NX0F88U","","","img/flower1.png","74","196","1","0","2","0.7,0.2,0,0,0.7,0.2,0.2,0,0.7",""
"null","","html-keyboard-response","235","202234","0.0-235.0","3EG49X351VYEPS913G9677MDNCHX66","A24G8GL5FX1KAW","37S0QRNUFB29SLTNXLPAM35NX0F88U","","","<img src=""img/flower1.png"" style=""width:200px;border:14px solid red;"">","null","","","","","",""
"172","","image-keyboard-response","236","202417","0.0-236.0","3EG49X351VYEPS913G9677MDNCHX66","A24G8GL5FX1KAW","37S0QRNUFB29SLTNXLPAM35NX0F88U","","","img/flower5.png","74","183","1","1","3","0.7,0.2,0,0,0.7,0.2,0.2,0,0.7",""
"null","","html-keyboard-response","237","202723","0.0-237.0","3EG49X351VYEPS913G9677MDNCHX66","A24G8GL5FX1KAW","37S0QRNUFB29SLTNXLPAM35NX0F88U","","","<img src=""img/flower5.png"" style=""width:200px; border:14px solid green;"">","null","","","","","",""
"166","","image-keyboard-response","238","202893","0.0-238.0","3EG49X351VYEPS913G9677MDNCHX66","A24G8GL5FX1KAW","37S0QRNUFB29SLTNXLPAM35NX0F88U","","","img/flower1.png","74","169","1","0","2","0.7,0.2,0,0,0.7,0.2,0.2,0,0.7",""
"null","","html-keyboard-response","239","203200","0.0-239.0","3EG49X351VYEPS913G9677MDNCHX66","A24G8GL5FX1KAW","37S0QRNUFB29SLTNXLPAM35NX0F88U","","","<img src=""img/flower1.png"" style=""width:200px;border:14px solid red;"">","null","","","","","",""
"158","","image-keyboard-response","240","203365","0.0-240.0","3EG49X351VYEPS913G9677MDNCHX66","A24G8GL5FX1KAW","37S0QRNUFB29SLTNXLPAM35NX0F88U","","","img/flower5.png","74","166","1","0","3","0.7,0.2,0,0,0.7,0.2,0.2,0,0.7",""
"null","","html-keyboard-response","241","203695","0.0-241.0","3EG49X351VYEPS913G9677MDNCHX66","A24G8GL5FX1KAW","37S0QRNUFB29SLTNXLPAM35NX0F88U","","","<img src=""img/flower5.png"" style=""width:200px;border:14px solid red;"">","null","","","","","",""
"85","","image-keyboard-response","242","203791","0.0-242.0","3EG49X351VYEPS913G9677MDNCHX66","A24G8GL5FX1KAW","37S0QRNUFB29SLTNXLPAM35NX0F88U","","","img/flower4.png","74","85","1","0","1","0.7,0.2,0,0,0.7,0.2,0.2,0,0.7",""
"null","","html-keyboard-response","243","204105","0.0-243.0","3EG49X351VYEPS913G9677MDNCHX66","A24G8GL5FX1KAW","37S0QRNUFB29SLTNXLPAM35NX0F88U","","","<img src=""img/flower4.png"" style=""width:200px;border:14px solid red;"">","null","","","","","",""
"127","","image-keyboard-response","244","204238","0.0-244.0","3EG49X351VYEPS913G9677MDNCHX66","A24G8GL5FX1KAW","37S0QRNUFB29SLTNXLPAM35NX0F88U","","","img/flower4.png","74","132","1","1","1","0.7,0.2,0,0,0.7,0.2,0.2,0,0.7",""
"null","","html-keyboard-response","245","204549","0.0-245.0","3EG49X351VYEPS913G9677MDNCHX66","A24G8GL5FX1KAW","37S0QRNUFB29SLTNXLPAM35NX0F88U","","","<img src=""img/flower4.png"" style=""width:200px; border:14px solid green;"">","null","","","","","",""
"137","","image-keyboard-response","246","204692","0.0-246.0","3EG49X351VYEPS913G9677MDNCHX66","A24G8GL5FX1KAW","37S0QRNUFB29SLTNXLPAM35NX0F88U","","","img/flower4.png","74","143","1","1","1","0.7,0.2,0,0,0.7,0.2,0.2,0,0.7",""
"null","","html-keyboard-response","247","205012","0.0-247.0","3EG49X351VYEPS913G9677MDNCHX66","A24G8GL5FX1KAW","37S0QRNUFB29SLTNXLPAM35NX0F88U","","","<img src=""img/flower4.png"" style=""width:200px; border:14px solid green;"">","null","","","","","",""
"138","","image-keyboard-response","248","205155","0.0-248.0","3EG49X351VYEPS913G9677MDNCHX66","A24G8GL5FX1KAW","37S0QRNUFB29SLTNXLPAM35NX0F88U","","","img/flower4.png","74","143","1","0","1","0.7,0.2,0,0,0.7,0.2,0.2,0,0.7",""
"null","","html-keyboard-response","249","205588","0.0-249.0","3EG49X351VYEPS913G9677MDNCHX66","A24G8GL5FX1KAW","37S0QRNUFB29SLTNXLPAM35NX0F88U","","","<img src=""img/flower4.png"" style=""width:200px;border:14px solid red;"">","null","","","","","",""
"30","","image-keyboard-response","250","205621","0.0-250.0","3EG49X351VYEPS913G9677MDNCHX66","A24G8GL5FX1KAW","37S0QRNUFB29SLTNXLPAM35NX0F88U","","","img/flower1.png","74","32","1","0","2","0.7,0.2,0,0,0.7,0.2,0.2,0,0.7",""
"null","","html-keyboard-response","251","205942","0.0-251.0","3EG49X351VYEPS913G9677MDNCHX66","A24G8GL5FX1KAW","37S0QRNUFB29SLTNXLPAM35NX0F88U","","","<img src=""img/flower1.png"" style=""width:200px;border:14px solid red;"">","null","","","","","",""
"87","","image-keyboard-response","252","206044","0.0-252.0","3EG49X351VYEPS913G9677MDNCHX66","A24G8GL5FX1KAW","37S0QRNUFB29SLTNXLPAM35NX0F88U","","","img/flower4.png","74","100","1","1","1","0.7,0.2,0,0,0.7,0.2,0.2,0,0.7",""
"null","","html-keyboard-response","253","206355","0.0-253.0","3EG49X351VYEPS913G9677MDNCHX66","A24G8GL5FX1KAW","37S0QRNUFB29SLTNXLPAM35NX0F88U","","","<img src=""img/flower4.png"" style=""width:200px; border:14px solid green;"">","null","","","","","",""
"127","","image-keyboard-response","254","206493","0.0-254.0","3EG49X351VYEPS913G9677MDNCHX66","A24G8GL5FX1KAW","37S0QRNUFB29SLTNXLPAM35NX0F88U","","","img/flower1.png","74","137","1","0","2","0.7,0.2,0,0,0.7,0.2,0.2,0,0.7",""
"null","","html-keyboard-response","255","206807","0.0-255.0","3EG49X351VYEPS913G9677MDNCHX66","A24G8GL5FX1KAW","37S0QRNUFB29SLTNXLPAM35NX0F88U","","","<img src=""img/flower1.png"" style=""width:200px;border:14px solid red;"">","null","","","","","",""
"115","","image-keyboard-response","256","206938","0.0-256.0","3EG49X351VYEPS913G9677MDNCHX66","A24G8GL5FX1KAW","37S0QRNUFB29SLTNXLPAM35NX0F88U","","","img/flower5.png","74","131","1","0","3","0.7,0.2,0,0,0.7,0.2,0.2,0,0.7",""
"null","","html-keyboard-response","257","207259","0.0-257.0","3EG49X351VYEPS913G9677MDNCHX66","A24G8GL5FX1KAW","37S0QRNUFB29SLTNXLPAM35NX0F88U","","","<img src=""img/flower5.png"" style=""width:200px;border:14px solid red;"">","null","","","","","",""
"130","","image-keyboard-response","258","207393","0.0-258.0","3EG49X351VYEPS913G9677MDNCHX66","A24G8GL5FX1KAW","37S0QRNUFB29SLTNXLPAM35NX0F88U","","","img/flower4.png","74","135","1","0","1","0.7,0.2,0,0,0.7,0.2,0.2,0,0.7",""
"null","","html-keyboard-response","259","207710","0.0-259.0","3EG49X351VYEPS913G9677MDNCHX66","A24G8GL5FX1KAW","37S0QRNUFB29SLTNXLPAM35NX0F88U","","","<img src=""img/flower4.png"" style=""width:200px;border:14px solid red;"">","null","","","","","",""
"117","","image-keyboard-response","260","207839","0.0-260.0","3EG49X351VYEPS913G9677MDNCHX66","A24G8GL5FX1KAW","37S0QRNUFB29SLTNXLPAM35NX0F88U","","","img/flower1.png","74","128","1","0","2","0.7,0.2,0,0,0.7,0.2,0.2,0,0.7",""
"null","","html-keyboard-response","261","208148","0.0-261.0","3EG49X351VYEPS913G9677MDNCHX66","A24G8GL5FX1KAW","37S0QRNUFB29SLTNXLPAM35NX0F88U","","","<img src=""img/flower1.png"" style=""width:200px;border:14px solid red;"">","null","","","","","",""
"79","","image-keyboard-response","262","208229","0.0-262.0","3EG49X351VYEPS913G9677MDNCHX66","A24G8GL5FX1KAW","37S0QRNUFB29SLTNXLPAM35NX0F88U","","","img/flower1.png","74","81","1","0","2","0.7,0.2,0,0,0.7,0.2,0.2,0,0.7",""
"null","","html-keyboard-response","263","208534","0.0-263.0","3EG49X351VYEPS913G9677MDNCHX66","A24G8GL5FX1KAW","37S0QRNUFB29SLTNXLPAM35NX0F88U","","","<img src=""img/flower1.png"" style=""width:200px;border:14px solid red;"">","null","","","","","",""
"90","","image-keyboard-response","264","208634","0.0-264.0","3EG49X351VYEPS913G9677MDNCHX66","A24G8GL5FX1KAW","37S0QRNUFB29SLTNXLPAM35NX0F88U","","","img/flower5.png","74","100","1","0","3","0.7,0.2,0,0,0.7,0.2,0.2,0,0.7",""
"null","","html-keyboard-response","265","208945","0.0-265.0","3EG49X351VYEPS913G9677MDNCHX66","A24G8GL5FX1KAW","37S0QRNUFB29SLTNXLPAM35NX0F88U","","","<img src=""img/flower5.png"" style=""width:200px;border:14px solid red;"">","null","","","","","",""
"72","","image-keyboard-response","266","209018","0.0-266.0","3EG49X351VYEPS913G9677MDNCHX66","A24G8GL5FX1KAW","37S0QRNUFB29SLTNXLPAM35NX0F88U","","","img/flower1.png","74","73","1","0","2","0.7,0.2,0,0,0.7,0.2,0.2,0,0.7",""
"null","","html-keyboard-response","267","209326","0.0-267.0","3EG49X351VYEPS913G9677MDNCHX66","A24G8GL5FX1KAW","37S0QRNUFB29SLTNXLPAM35NX0F88U","","","<img src=""img/flower1.png"" style=""width:200px;border:14px solid red;"">","null","","","","","",""
"85","","image-keyboard-response","268","209413","0.0-268.0","3EG49X351VYEPS913G9677MDNCHX66","A24G8GL5FX1KAW","37S0QRNUFB29SLTNXLPAM35NX0F88U","","","img/flower1.png","75","86","2","1","2","0.7,0.2,0,0,0.7,0.2,0.2,0,0.7",""
"null","","html-keyboard-response","269","209728","0.0-269.0","3EG49X351VYEPS913G9677MDNCHX66","A24G8GL5FX1KAW","37S0QRNUFB29SLTNXLPAM35NX0F88U","","","<img src=""img/flower1.png"" style=""width:200px; border:14px solid green;"">","null","","","","","",""
"27","","image-keyboard-response","270","209760","0.0-270.0","3EG49X351VYEPS913G9677MDNCHX66","A24G8GL5FX1KAW","37S0QRNUFB29SLTNXLPAM35NX0F88U","","","img/flower4.png","76","30","3","0","1","0.7,0.2,0,0,0.7,0.2,0.2,0,0.7",""
"null","","html-keyboard-response","271","210075","0.0-271.0","3EG49X351VYEPS913G9677MDNCHX66","A24G8GL5FX1KAW","37S0QRNUFB29SLTNXLPAM35NX0F88U","","","<img src=""img/flower4.png"" style=""width:200px;border:14px solid red;"">","null","","","","","",""
"47","","image-keyboard-response","272","210123","0.0-272.0","3EG49X351VYEPS913G9677MDNCHX66","A24G8GL5FX1KAW","37S0QRNUFB29SLTNXLPAM35NX0F88U","","","img/flower5.png","75","48","2","0","3","0.7,0.2,0,0,0.7,0.2,0.2,0,0.7",""
"null","","html-keyboard-response","273","210438","0.0-273.0","3EG49X351VYEPS913G9677MDNCHX66","A24G8GL5FX1KAW","37S0QRNUFB29SLTNXLPAM35NX0F88U","","","<img src=""img/flower5.png"" style=""width:200px;border:14px solid red;"">","null","","","","","",""
"76","","image-keyboard-response","274","210532","0.0-274.0","3EG49X351VYEPS913G9677MDNCHX66","A24G8GL5FX1KAW","37S0QRNUFB29SLTNXLPAM35NX0F88U","","","img/flower5.png","74","94","1","0","3","0.7,0.2,0,0,0.7,0.2,0.2,0,0.7",""
"null","","html-keyboard-response","275","210852","0.0-275.0","3EG49X351VYEPS913G9677MDNCHX66","A24G8GL5FX1KAW","37S0QRNUFB29SLTNXLPAM35NX0F88U","","","<img src=""img/flower5.png"" style=""width:200px;border:14px solid red;"">","null","","","","","",""
"67","","image-keyboard-response","276","210921","0.0-276.0","3EG49X351VYEPS913G9677MDNCHX66","A24G8GL5FX1KAW","37S0QRNUFB29SLTNXLPAM35NX0F88U","","","img/flower4.png","74","69","1","1","1","0.7,0.2,0,0,0.7,0.2,0.2,0,0.7",""
"null","","html-keyboard-response","277","211239","0.0-277.0","3EG49X351VYEPS913G9677MDNCHX66","A24G8GL5FX1KAW","37S0QRNUFB29SLTNXLPAM35NX0F88U","","","<img src=""img/flower4.png"" style=""width:200px; border:14px solid green;"">","null","","","","","",""
"31","","image-keyboard-response","278","211271","0.0-278.0","3EG49X351VYEPS913G9677MDNCHX66","A24G8GL5FX1KAW","37S0QRNUFB29SLTNXLPAM35NX0F88U","","","img/flower4.png","75","31","2","0","1","0.7,0.2,0,0,0.7,0.2,0.2,0,0.7",""
"null","","html-keyboard-response","279","211573","0.0-279.0","3EG49X351VYEPS913G9677MDNCHX66","A24G8GL5FX1KAW","37S0QRNUFB29SLTNXLPAM35NX0F88U","","","<img src=""img/flower4.png"" style=""width:200px;border:14px solid red;"">","null","","","","","",""
"92","","image-keyboard-response","280","211669","0.0-280.0","3EG49X351VYEPS913G9677MDNCHX66","A24G8GL5FX1KAW","37S0QRNUFB29SLTNXLPAM35NX0F88U","","","img/flower4.png","74","94","1","1","1","0.7,0.2,0,0,0.7,0.2,0.2,0,0.7",""
"null","","html-keyboard-response","281","211995","0.0-281.0","3EG49X351VYEPS913G9677MDNCHX66","A24G8GL5FX1KAW","37S0QRNUFB29SLTNXLPAM35NX0F88U","","","<img src=""img/flower4.png"" style=""width:200px; border:14px solid green;"">","null","","","","","",""
"28","","image-keyboard-response","282","212025","0.0-282.0","3EG49X351VYEPS913G9677MDNCHX66","A24G8GL5FX1KAW","37S0QRNUFB29SLTNXLPAM35NX0F88U","","","img/flower1.png","75","30","2","1","2","0.7,0.2,0,0,0.7,0.2,0.2,0,0.7",""
"null","","html-keyboard-response","283","212336","0.0-283.0","3EG49X351VYEPS913G9677MDNCHX66","A24G8GL5FX1KAW","37S0QRNUFB29SLTNXLPAM35NX0F88U","","","<img src=""img/flower1.png"" style=""width:200px; border:14px solid green;"">","null","","","","","",""
"71","","image-keyboard-response","284","212409","0.0-284.0","3EG49X351VYEPS913G9677MDNCHX66","A24G8GL5FX1KAW","37S0QRNUFB29SLTNXLPAM35NX0F88U","","","img/flower5.png","75","73","2","0","3","0.7,0.2,0,0,0.7,0.2,0.2,0,0.7",""
"null","","html-keyboard-response","285","212717","0.0-285.0","3EG49X351VYEPS913G9677MDNCHX66","A24G8GL5FX1KAW","37S0QRNUFB29SLTNXLPAM35NX0F88U","","","<img src=""img/flower5.png"" style=""width:200px;border:14px solid red;"">","null","","","","","",""
"43","","image-keyboard-response","286","212761","0.0-286.0","3EG49X351VYEPS913G9677MDNCHX66","A24G8GL5FX1KAW","37S0QRNUFB29SLTNXLPAM35NX0F88U","","","img/flower5.png","74","44","1","0","3","0.7,0.2,0,0,0.7,0.2,0.2,0,0.7",""
"null","","html-keyboard-response","287","213067","0.0-287.0","3EG49X351VYEPS913G9677MDNCHX66","A24G8GL5FX1KAW","37S0QRNUFB29SLTNXLPAM35NX0F88U","","","<img src=""img/flower5.png"" style=""width:200px;border:14px solid red;"">","null","","","","","",""
"73","","image-keyboard-response","288","213154","0.0-288.0","3EG49X351VYEPS913G9677MDNCHX66","A24G8GL5FX1KAW","37S0QRNUFB29SLTNXLPAM35NX0F88U","","","img/flower5.png","74","87","1","0","3","0.7,0.2,0,0,0.7,0.2,0.2,0,0.7",""
"null","","html-keyboard-response","289","213585","0.0-289.0","3EG49X351VYEPS913G9677MDNCHX66","A24G8GL5FX1KAW","37S0QRNUFB29SLTNXLPAM35NX0F88U","","","<img src=""img/flower5.png"" style=""width:200px;border:14px solid red;"">","null","","","","","",""
"153","","image-keyboard-response","290","213773","0.0-290.0","3EG49X351VYEPS913G9677MDNCHX66","A24G8GL5FX1KAW","37S0QRNUFB29SLTNXLPAM35NX0F88U","","","img/flower1.png","74","169","1","0","2","0.7,0.2,0,0,0.7,0.2,0.2,0,0.7",""
"null","","html-keyboard-response","291","214120","0.0-291.0","3EG49X351VYEPS913G9677MDNCHX66","A24G8GL5FX1KAW","37S0QRNUFB29SLTNXLPAM35NX0F88U","","","<img src=""img/flower1.png"" style=""width:200px;border:14px solid red;"">","null","","","","","",""
"26","","image-keyboard-response","292","214148","0.0-292.0","3EG49X351VYEPS913G9677MDNCHX66","A24G8GL5FX1KAW","37S0QRNUFB29SLTNXLPAM35NX0F88U","","","img/flower1.png","76","27","3","0","2","0.7,0.2,0,0,0.7,0.2,0.2,0,0.7",""
"null","","html-keyboard-response","293","214465","0.0-293.0","3EG49X351VYEPS913G9677MDNCHX66","A24G8GL5FX1KAW","37S0QRNUFB29SLTNXLPAM35NX0F88U","","","<img src=""img/flower1.png"" style=""width:200px;border:14px solid red;"">","null","","","","","",""
"55","","image-keyboard-response","294","214524","0.0-294.0","3EG49X351VYEPS913G9677MDNCHX66","A24G8GL5FX1KAW","37S0QRNUFB29SLTNXLPAM35NX0F88U","","","img/flower1.png","74","57","1","0","2","0.7,0.2,0,0,0.7,0.2,0.2,0,0.7",""
"null","","html-keyboard-response","295","214836","0.0-295.0","3EG49X351VYEPS913G9677MDNCHX66","A24G8GL5FX1KAW","37S0QRNUFB29SLTNXLPAM35NX0F88U","","","<img src=""img/flower1.png"" style=""width:200px;border:14px solid red;"">","null","","","","","",""
"117","","image-keyboard-response","296","214958","0.0-296.0","3EG49X351VYEPS913G9677MDNCHX66","A24G8GL5FX1KAW","37S0QRNUFB29SLTNXLPAM35NX0F88U","","","img/flower1.png","75","122","2","1","2","0.7,0.2,0,0,0.7,0.2,0.2,0,0.7",""
"null","","html-keyboard-response","297","215274","0.0-297.0","3EG49X351VYEPS913G9677MDNCHX66","A24G8GL5FX1KAW","37S0QRNUFB29SLTNXLPAM35NX0F88U","","","<img src=""img/flower1.png"" style=""width:200px; border:14px solid green;"">","null","","","","","",""
"67","","image-keyboard-response","298","215343","0.0-298.0","3EG49X351VYEPS913G9677MDNCHX66","A24G8GL5FX1KAW","37S0QRNUFB29SLTNXLPAM35NX0F88U","","","img/flower1.png","74","69","1","0","2","0.7,0.2,0,0,0.7,0.2,0.2,0,0.7",""
"null","","html-keyboard-response","299","215671","0.0-299.0","3EG49X351VYEPS913G9677MDNCHX66","A24G8GL5FX1KAW","37S0QRNUFB29SLTNXLPAM35NX0F88U","","","<img src=""img/flower1.png"" style=""width:200px;border:14px solid red;"">","null","","","","","",""
"63","","image-keyboard-response","300","215736","0.0-300.0","3EG49X351VYEPS913G9677MDNCHX66","A24G8GL5FX1KAW","37S0QRNUFB29SLTNXLPAM35NX0F88U","","","img/flower5.png","76","64","3","1","3","0.7,0.2,0,0,0.7,0.2,0.2,0,0.7",""
"null","","html-keyboard-response","301","216053","0.0-301.0","3EG49X351VYEPS913G9677MDNCHX66","A24G8GL5FX1KAW","37S0QRNUFB29SLTNXLPAM35NX0F88U","","","<img src=""img/flower5.png"" style=""width:200px; border:14px solid green;"">","null","","","","","",""
"70","","image-keyboard-response","302","216124","0.0-302.0","3EG49X351VYEPS913G9677MDNCHX66","A24G8GL5FX1KAW","37S0QRNUFB29SLTNXLPAM35NX0F88U","","","img/flower1.png","74","72","1","0","2","0.7,0.2,0,0,0.7,0.2,0.2,0,0.7",""
"null","","html-keyboard-response","303","216434","0.0-303.0","3EG49X351VYEPS913G9677MDNCHX66","A24G8GL5FX1KAW","37S0QRNUFB29SLTNXLPAM35NX0F88U","","","<img src=""img/flower1.png"" style=""width:200px;border:14px solid red;"">","null","","","","","",""
"115","","image-keyboard-response","304","216573","0.0-304.0","3EG49X351VYEPS913G9677MDNCHX66","A24G8GL5FX1KAW","37S0QRNUFB29SLTNXLPAM35NX0F88U","","","img/flower4.png","74","128","1","0","1","0.7,0.2,0,0,0.7,0.2,0.2,0,0.7",""
"null","","html-keyboard-response","305","216888","0.0-305.0","3EG49X351VYEPS913G9677MDNCHX66","A24G8GL5FX1KAW","37S0QRNUFB29SLTNXLPAM35NX0F88U","","","<img src=""img/flower4.png"" style=""width:200px;border:14px solid red;"">","null","","","","","",""
"","","html-keyboard-response","306","219471","0.0-306.0","3EG49X351VYEPS913G9677MDNCHX66","A24G8GL5FX1KAW","37S0QRNUFB29SLTNXLPAM35NX0F88U","","","","","","","","","",""
"1624","","image-keyboard-response","307","221100","0.0-307.0","3EG49X351VYEPS913G9677MDNCHX66","A24G8GL5FX1KAW","37S0QRNUFB29SLTNXLPAM35NX0F88U","","","img/flower2.png","76","1626","3","0","1","0.7,0.2,0,0.7,0,0.2,0.2,0,0.7",""
"null","","html-keyboard-response","308","221424","0.0-308.0","3EG49X351VYEPS913G9677MDNCHX66","A24G8GL5FX1KAW","37S0QRNUFB29SLTNXLPAM35NX0F88U","","","<img src=""img/flower2.png"" style=""width:200px;border:14px solid red;"">","null","","","","","",""
"274","","image-keyboard-response","309","221710","0.0-309.0","3EG49X351VYEPS913G9677MDNCHX66","A24G8GL5FX1KAW","37S0QRNUFB29SLTNXLPAM35NX0F88U","","","img/flower3.png","75","285","2","0","2","0.7,0.2,0,0.7,0,0.2,0.2,0,0.7",""
"null","","html-keyboard-response","310","222084","0.0-310.0","3EG49X351VYEPS913G9677MDNCHX66","A24G8GL5FX1KAW","37S0QRNUFB29SLTNXLPAM35NX0F88U","","","<img src=""img/flower3.png"" style=""width:200px;border:14px solid red;"">","null","","","","","",""
"11","","image-keyboard-response","311","222099","0.0-311.0","3EG49X351VYEPS913G9677MDNCHX66","A24G8GL5FX1KAW","37S0QRNUFB29SLTNXLPAM35NX0F88U","","","img/flower3.png","74","14","1","1","2","0.7,0.2,0,0.7,0,0.2,0.2,0,0.7",""
"null","","html-keyboard-response","312","222417","0.0-312.0","3EG49X351VYEPS913G9677MDNCHX66","A24G8GL5FX1KAW","37S0QRNUFB29SLTNXLPAM35NX0F88U","","","<img src=""img/flower3.png"" style=""width:200px; border:14px solid green;"">","null","","","","","",""
"28","","image-keyboard-response","313","222447","0.0-313.0","3EG49X351VYEPS913G9677MDNCHX66","A24G8GL5FX1KAW","37S0QRNUFB29SLTNXLPAM35NX0F88U","","","img/flower2.png","75","29","2","0","1","0.7,0.2,0,0.7,0,0.2,0.2,0,0.7",""
"null","","html-keyboard-response","314","222769","0.0-314.0","3EG49X351VYEPS913G9677MDNCHX66","A24G8GL5FX1KAW","37S0QRNUFB29SLTNXLPAM35NX0F88U","","","<img src=""img/flower2.png"" style=""width:200px;border:14px solid red;"">","null","","","","","",""
"167","","image-keyboard-response","315","222950","0.0-315.0","3EG49X351VYEPS913G9677MDNCHX66","A24G8GL5FX1KAW","37S0QRNUFB29SLTNXLPAM35NX0F88U","","","img/flower6.png","74","181","1","0","3","0.7,0.2,0,0.7,0,0.2,0.2,0,0.7",""
"null","","html-keyboard-response","316","223255","0.0-316.0","3EG49X351VYEPS913G9677MDNCHX66","A24G8GL5FX1KAW","37S0QRNUFB29SLTNXLPAM35NX0F88U","","","<img src=""img/flower6.png"" style=""width:200px;border:14px solid red;"">","null","","","","","",""
"69","","image-keyboard-response","317","223325","0.0-317.0","3EG49X351VYEPS913G9677MDNCHX66","A24G8GL5FX1KAW","37S0QRNUFB29SLTNXLPAM35NX0F88U","","","img/flower6.png","75","70","2","0","3","0.7,0.2,0,0.7,0,0.2,0.2,0,0.7",""
"null","","html-keyboard-response","318","223643","0.0-318.0","3EG49X351VYEPS913G9677MDNCHX66","A24G8GL5FX1KAW","37S0QRNUFB29SLTNXLPAM35NX0F88U","","","<img src=""img/flower6.png"" style=""width:200px;border:14px solid red;"">","null","","","","","",""
"138","","image-keyboard-response","319","223790","0.0-319.0","3EG49X351VYEPS913G9677MDNCHX66","A24G8GL5FX1KAW","37S0QRNUFB29SLTNXLPAM35NX0F88U","","","img/flower2.png","74","146","1","1","1","0.7,0.2,0,0.7,0,0.2,0.2,0,0.7",""
"null","","html-keyboard-response","320","224107","0.0-320.0","3EG49X351VYEPS913G9677MDNCHX66","A24G8GL5FX1KAW","37S0QRNUFB29SLTNXLPAM35NX0F88U","","","<img src=""img/flower2.png"" style=""width:200px; border:14px solid green;"">","null","","","","","",""
"104","","image-keyboard-response","321","224217","0.0-321.0","3EG49X351VYEPS913G9677MDNCHX66","A24G8GL5FX1KAW","37S0QRNUFB29SLTNXLPAM35NX0F88U","","","img/flower2.png","74","110","1","1","1","0.7,0.2,0,0.7,0,0.2,0.2,0,0.7",""
"null","","html-keyboard-response","322","224538","0.0-322.0","3EG49X351VYEPS913G9677MDNCHX66","A24G8GL5FX1KAW","37S0QRNUFB29SLTNXLPAM35NX0F88U","","","<img src=""img/flower2.png"" style=""width:200px; border:14px solid green;"">","null","","","","","",""
"100","","image-keyboard-response","323","224641","0.0-323.0","3EG49X351VYEPS913G9677MDNCHX66","A24G8GL5FX1KAW","37S0QRNUFB29SLTNXLPAM35NX0F88U","","","img/flower2.png","74","103","1","1","1","0.7,0.2,0,0.7,0,0.2,0.2,0,0.7",""
"null","","html-keyboard-response","324","224949","0.0-324.0","3EG49X351VYEPS913G9677MDNCHX66","A24G8GL5FX1KAW","37S0QRNUFB29SLTNXLPAM35NX0F88U","","","<img src=""img/flower2.png"" style=""width:200px; border:14px solid green;"">","null","","","","","",""
"95","","image-keyboard-response","325","225056","0.0-325.0","3EG49X351VYEPS913G9677MDNCHX66","A24G8GL5FX1KAW","37S0QRNUFB29SLTNXLPAM35NX0F88U","","","img/flower3.png","74","107","1","1","2","0.7,0.2,0,0.7,0,0.2,0.2,0,0.7",""
"null","","html-keyboard-response","326","225361","0.0-326.0","3EG49X351VYEPS913G9677MDNCHX66","A24G8GL5FX1KAW","37S0QRNUFB29SLTNXLPAM35NX0F88U","","","<img src=""img/flower3.png"" style=""width:200px; border:14px solid green;"">","null","","","","","",""
"91","","image-keyboard-response","327","225457","0.0-327.0","3EG49X351VYEPS913G9677MDNCHX66","A24G8GL5FX1KAW","37S0QRNUFB29SLTNXLPAM35NX0F88U","","","img/flower3.png","75","96","2","0","2","0.7,0.2,0,0.7,0,0.2,0.2,0,0.7",""
"null","","html-keyboard-response","328","225772","0.0-328.0","3EG49X351VYEPS913G9677MDNCHX66","A24G8GL5FX1KAW","37S0QRNUFB29SLTNXLPAM35NX0F88U","","","<img src=""img/flower3.png"" style=""width:200px;border:14px solid red;"">","null","","","","","",""
"98","","image-keyboard-response","329","225887","0.0-329.0","3EG49X351VYEPS913G9677MDNCHX66","A24G8GL5FX1KAW","37S0QRNUFB29SLTNXLPAM35NX0F88U","","","img/flower6.png","74","114","1","0","3","0.7,0.2,0,0.7,0,0.2,0.2,0,0.7",""
"null","","html-keyboard-response","330","226205","0.0-330.0","3EG49X351VYEPS913G9677MDNCHX66","A24G8GL5FX1KAW","37S0QRNUFB29SLTNXLPAM35NX0F88U","","","<img src=""img/flower6.png"" style=""width:200px;border:14px solid red;"">","null","","","","","",""
"64","","image-keyboard-response","331","226271","0.0-331.0","3EG49X351VYEPS913G9677MDNCHX66","A24G8GL5FX1KAW","37S0QRNUFB29SLTNXLPAM35NX0F88U","","","img/flower2.png","74","66","1","1","1","0.7,0.2,0,0.7,0,0.2,0.2,0,0.7",""
"null","","html-keyboard-response","332","226585","0.0-332.0","3EG49X351VYEPS913G9677MDNCHX66","A24G8GL5FX1KAW","37S0QRNUFB29SLTNXLPAM35NX0F88U","","","<img src=""img/flower2.png"" style=""width:200px; border:14px solid green;"">","null","","","","","",""
"32","","image-keyboard-response","333","226623","0.0-333.0","3EG49X351VYEPS913G9677MDNCHX66","A24G8GL5FX1KAW","37S0QRNUFB29SLTNXLPAM35NX0F88U","","","img/flower3.png","74","38","1","1","2","0.7,0.2,0,0.7,0,0.2,0.2,0,0.7",""
"null","","html-keyboard-response","334","226943","0.0-334.0","3EG49X351VYEPS913G9677MDNCHX66","A24G8GL5FX1KAW","37S0QRNUFB29SLTNXLPAM35NX0F88U","","","<img src=""img/flower3.png"" style=""width:200px; border:14px solid green;"">","null","","","","","",""
"43","","image-keyboard-response","335","226990","0.0-335.0","3EG49X351VYEPS913G9677MDNCHX66","A24G8GL5FX1KAW","37S0QRNUFB29SLTNXLPAM35NX0F88U","","","img/flower2.png","74","45","1","0","1","0.7,0.2,0,0.7,0,0.2,0.2,0,0.7",""
"null","","html-keyboard-response","336","227307","0.0-336.0","3EG49X351VYEPS913G9677MDNCHX66","A24G8GL5FX1KAW","37S0QRNUFB29SLTNXLPAM35NX0F88U","","","<img src=""img/flower2.png"" style=""width:200px;border:14px solid red;"">","null","","","","","",""
"57","","image-keyboard-response","337","227366","0.0-337.0","3EG49X351VYEPS913G9677MDNCHX66","A24G8GL5FX1KAW","37S0QRNUFB29SLTNXLPAM35NX0F88U","","","img/flower3.png","74","58","1","1","2","0.7,0.2,0,0.7,0,0.2,0.2,0,0.7",""
"null","","html-keyboard-response","338","227706","0.0-338.0","3EG49X351VYEPS913G9677MDNCHX66","A24G8GL5FX1KAW","37S0QRNUFB29SLTNXLPAM35NX0F88U","","","<img src=""img/flower3.png"" style=""width:200px; border:14px solid green;"">","null","","","","","",""
"44","","image-keyboard-response","339","227752","0.0-339.0","3EG49X351VYEPS913G9677MDNCHX66","A24G8GL5FX1KAW","37S0QRNUFB29SLTNXLPAM35NX0F88U","","","img/flower2.png","74","46","1","1","1","0.7,0.2,0,0.7,0,0.2,0.2,0,0.7",""
"null","","html-keyboard-response","340","228066","0.0-340.0","3EG49X351VYEPS913G9677MDNCHX66","A24G8GL5FX1KAW","37S0QRNUFB29SLTNXLPAM35NX0F88U","","","<img src=""img/flower2.png"" style=""width:200px; border:14px solid green;"">","null","","","","","",""
"2","","image-keyboard-response","341","228069","0.0-341.0","3EG49X351VYEPS913G9677MDNCHX66","A24G8GL5FX1KAW","37S0QRNUFB29SLTNXLPAM35NX0F88U","","","img/flower2.png","74","2","1","1","1","0.7,0.2,0,0.7,0,0.2,0.2,0,0.7",""
"null","","html-keyboard-response","342","228383","0.0-342.0","3EG49X351VYEPS913G9677MDNCHX66","A24G8GL5FX1KAW","37S0QRNUFB29SLTNXLPAM35NX0F88U","","","<img src=""img/flower2.png"" style=""width:200px; border:14px solid green;"">","null","","","","","",""
"72","","image-keyboard-response","343","228456","0.0-343.0","3EG49X351VYEPS913G9677MDNCHX66","A24G8GL5FX1KAW","37S0QRNUFB29SLTNXLPAM35NX0F88U","","","img/flower3.png","74","74","1","0","2","0.7,0.2,0,0.7,0,0.2,0.2,0,0.7",""
"null","","html-keyboard-response","344","228776","0.0-344.0","3EG49X351VYEPS913G9677MDNCHX66","A24G8GL5FX1KAW","37S0QRNUFB29SLTNXLPAM35NX0F88U","","","<img src=""img/flower3.png"" style=""width:200px;border:14px solid red;"">","null","","","","","",""
"21","","image-keyboard-response","345","228798","0.0-345.0","3EG49X351VYEPS913G9677MDNCHX66","A24G8GL5FX1KAW","37S0QRNUFB29SLTNXLPAM35NX0F88U","","","img/flower2.png","74","22","1","1","1","0.7,0.2,0,0.7,0,0.2,0.2,0,0.7",""
"null","","html-keyboard-response","346","229103","0.0-346.0","3EG49X351VYEPS913G9677MDNCHX66","A24G8GL5FX1KAW","37S0QRNUFB29SLTNXLPAM35NX0F88U","","","<img src=""img/flower2.png"" style=""width:200px; border:14px solid green;"">","null","","","","","",""
"64","","image-keyboard-response","347","229167","0.0-347.0","3EG49X351VYEPS913G9677MDNCHX66","A24G8GL5FX1KAW","37S0QRNUFB29SLTNXLPAM35NX0F88U","","","img/flower3.png","74","64","1","1","2","0.7,0.2,0,0.7,0,0.2,0.2,0,0.7",""
"null","","html-keyboard-response","348","229478","0.0-348.0","3EG49X351VYEPS913G9677MDNCHX66","A24G8GL5FX1KAW","37S0QRNUFB29SLTNXLPAM35NX0F88U","","","<img src=""img/flower3.png"" style=""width:200px; border:14px solid green;"">","null","","","","","",""
"89","","image-keyboard-response","349","229569","0.0-349.0","3EG49X351VYEPS913G9677MDNCHX66","A24G8GL5FX1KAW","37S0QRNUFB29SLTNXLPAM35NX0F88U","","","img/flower2.png","74","89","1","1","1","0.7,0.2,0,0.7,0,0.2,0.2,0,0.7",""
"null","","html-keyboard-response","350","229889","0.0-350.0","3EG49X351VYEPS913G9677MDNCHX66","A24G8GL5FX1KAW","37S0QRNUFB29SLTNXLPAM35NX0F88U","","","<img src=""img/flower2.png"" style=""width:200px; border:14px solid green;"">","null","","","","","",""
"48","","image-keyboard-response","351","229938","0.0-351.0","3EG49X351VYEPS913G9677MDNCHX66","A24G8GL5FX1KAW","37S0QRNUFB29SLTNXLPAM35NX0F88U","","","img/flower6.png","74","49","1","1","3","0.7,0.2,0,0.7,0,0.2,0.2,0,0.7",""
"null","","html-keyboard-response","352","230249","0.0-352.0","3EG49X351VYEPS913G9677MDNCHX66","A24G8GL5FX1KAW","37S0QRNUFB29SLTNXLPAM35NX0F88U","","","<img src=""img/flower6.png"" style=""width:200px; border:14px solid green;"">","null","","","","","",""
"76","","image-keyboard-response","353","230327","0.0-353.0","3EG49X351VYEPS913G9677MDNCHX66","A24G8GL5FX1KAW","37S0QRNUFB29SLTNXLPAM35NX0F88U","","","img/flower3.png","74","78","1","1","2","0.7,0.2,0,0.7,0,0.2,0.2,0,0.7",""
"null","","html-keyboard-response","354","230637","0.0-354.0","3EG49X351VYEPS913G9677MDNCHX66","A24G8GL5FX1KAW","37S0QRNUFB29SLTNXLPAM35NX0F88U","","","<img src=""img/flower3.png"" style=""width:200px; border:14px solid green;"">","null","","","","","",""
"151","","image-keyboard-response","355","230790","0.0-355.0","3EG49X351VYEPS913G9677MDNCHX66","A24G8GL5FX1KAW","37S0QRNUFB29SLTNXLPAM35NX0F88U","","","img/flower2.png","74","153","1","0","1","0.7,0.2,0,0.7,0,0.2,0.2,0,0.7",""
"null","","html-keyboard-response","356","231095","0.0-356.0","3EG49X351VYEPS913G9677MDNCHX66","A24G8GL5FX1KAW","37S0QRNUFB29SLTNXLPAM35NX0F88U","","","<img src=""img/flower2.png"" style=""width:200px;border:14px solid red;"">","null","","","","","",""
"124","","image-keyboard-response","357","231234","0.0-357.0","3EG49X351VYEPS913G9677MDNCHX66","A24G8GL5FX1KAW","37S0QRNUFB29SLTNXLPAM35NX0F88U","","","img/flower3.png","74","139","1","0","2","0.7,0.2,0,0.7,0,0.2,0.2,0,0.7",""
"null","","html-keyboard-response","358","231543","0.0-358.0","3EG49X351VYEPS913G9677MDNCHX66","A24G8GL5FX1KAW","37S0QRNUFB29SLTNXLPAM35NX0F88U","","","<img src=""img/flower3.png"" style=""width:200px;border:14px solid red;"">","null","","","","","",""
"267","","image-keyboard-response","359","231812","0.0-359.0","3EG49X351VYEPS913G9677MDNCHX66","A24G8GL5FX1KAW","37S0QRNUFB29SLTNXLPAM35NX0F88U","","","img/flower2.png","74","269","1","1","1","0.7,0.2,0,0.7,0,0.2,0.2,0,0.7",""
"null","","html-keyboard-response","360","232134","0.0-360.0","3EG49X351VYEPS913G9677MDNCHX66","A24G8GL5FX1KAW","37S0QRNUFB29SLTNXLPAM35NX0F88U","","","<img src=""img/flower2.png"" style=""width:200px; border:14px solid green;"">","null","","","","","",""
"44","","image-keyboard-response","361","232179","0.0-361.0","3EG49X351VYEPS913G9677MDNCHX66","A24G8GL5FX1KAW","37S0QRNUFB29SLTNXLPAM35NX0F88U","","","img/flower2.png","74","44","1","1","1","0.7,0.2,0,0.7,0,0.2,0.2,0,0.7",""
"null","","html-keyboard-response","362","232486","0.0-362.0","3EG49X351VYEPS913G9677MDNCHX66","A24G8GL5FX1KAW","37S0QRNUFB29SLTNXLPAM35NX0F88U","","","<img src=""img/flower2.png"" style=""width:200px; border:14px solid green;"">","null","","","","","",""
"21","","image-keyboard-response","363","232508","0.0-363.0","3EG49X351VYEPS913G9677MDNCHX66","A24G8GL5FX1KAW","37S0QRNUFB29SLTNXLPAM35NX0F88U","","","img/flower6.png","75","22","2","0","3","0.7,0.2,0,0.7,0,0.2,0.2,0,0.7",""
"null","","html-keyboard-response","364","232826","0.0-364.0","3EG49X351VYEPS913G9677MDNCHX66","A24G8GL5FX1KAW","37S0QRNUFB29SLTNXLPAM35NX0F88U","","","<img src=""img/flower6.png"" style=""width:200px;border:14px solid red;"">","null","","","","","",""
"50","","image-keyboard-response","365","232877","0.0-365.0","3EG49X351VYEPS913G9677MDNCHX66","A24G8GL5FX1KAW","37S0QRNUFB29SLTNXLPAM35NX0F88U","","","img/flower6.png","74","51","1","0","3","0.7,0.2,0,0.7,0,0.2,0.2,0,0.7",""
"null","","html-keyboard-response","366","233188","0.0-366.0","3EG49X351VYEPS913G9677MDNCHX66","A24G8GL5FX1KAW","37S0QRNUFB29SLTNXLPAM35NX0F88U","","","<img src=""img/flower6.png"" style=""width:200px;border:14px solid red;"">","null","","","","","",""
"93","","image-keyboard-response","367","233293","0.0-367.0","3EG49X351VYEPS913G9677MDNCHX66","A24G8GL5FX1KAW","37S0QRNUFB29SLTNXLPAM35NX0F88U","","","img/flower6.png","74","105","1","0","3","0.7,0.2,0,0.7,0,0.2,0.2,0,0.7",""
"null","","html-keyboard-response","368","233615","0.0-368.0","3EG49X351VYEPS913G9677MDNCHX66","A24G8GL5FX1KAW","37S0QRNUFB29SLTNXLPAM35NX0F88U","","","<img src=""img/flower6.png"" style=""width:200px;border:14px solid red;"">","null","","","","","",""
"160","","image-keyboard-response","369","233789","0.0-369.0","3EG49X351VYEPS913G9677MDNCHX66","A24G8GL5FX1KAW","37S0QRNUFB29SLTNXLPAM35NX0F88U","","","img/flower6.png","74","174","1","0","3","0.7,0.2,0,0.7,0,0.2,0.2,0,0.7",""
"null","","html-keyboard-response","370","234099","0.0-370.0","3EG49X351VYEPS913G9677MDNCHX66","A24G8GL5FX1KAW","37S0QRNUFB29SLTNXLPAM35NX0F88U","","","<img src=""img/flower6.png"" style=""width:200px;border:14px solid red;"">","null","","","","","",""
"116","","image-keyboard-response","371","234233","0.0-371.0","3EG49X351VYEPS913G9677MDNCHX66","A24G8GL5FX1KAW","37S0QRNUFB29SLTNXLPAM35NX0F88U","","","img/flower3.png","74","133","1","1","2","0.7,0.2,0,0.7,0,0.2,0.2,0,0.7",""
"null","","html-keyboard-response","372","234546","0.0-372.0","3EG49X351VYEPS913G9677MDNCHX66","A24G8GL5FX1KAW","37S0QRNUFB29SLTNXLPAM35NX0F88U","","","<img src=""img/flower3.png"" style=""width:200px; border:14px solid green;"">","null","","","","","",""
"101","","image-keyboard-response","373","234657","0.0-373.0","3EG49X351VYEPS913G9677MDNCHX66","A24G8GL5FX1KAW","37S0QRNUFB29SLTNXLPAM35NX0F88U","","","img/flower2.png","74","111","1","0","1","0.7,0.2,0,0.7,0,0.2,0.2,0,0.7",""
"null","","html-keyboard-response","374","234969","0.0-374.0","3EG49X351VYEPS913G9677MDNCHX66","A24G8GL5FX1KAW","37S0QRNUFB29SLTNXLPAM35NX0F88U","","","<img src=""img/flower2.png"" style=""width:200px;border:14px solid red;"">","null","","","","","",""
"92","","image-keyboard-response","375","235064","0.0-375.0","3EG49X351VYEPS913G9677MDNCHX66","A24G8GL5FX1KAW","37S0QRNUFB29SLTNXLPAM35NX0F88U","","","img/flower6.png","74","95","1","0","3","0.7,0.2,0,0.7,0,0.2,0.2,0,0.7",""
"null","","html-keyboard-response","376","235380","0.0-376.0","3EG49X351VYEPS913G9677MDNCHX66","A24G8GL5FX1KAW","37S0QRNUFB29SLTNXLPAM35NX0F88U","","","<img src=""img/flower6.png"" style=""width:200px;border:14px solid red;"">","null","","","","","",""
"72","","image-keyboard-response","377","235464","0.0-377.0","3EG49X351VYEPS913G9677MDNCHX66","A24G8GL5FX1KAW","37S0QRNUFB29SLTNXLPAM35NX0F88U","","","img/flower2.png","75","84","2","0","1","0.7,0.2,0,0.7,0,0.2,0.2,0,0.7",""
"null","","html-keyboard-response","378","235765","0.0-378.0","3EG49X351VYEPS913G9677MDNCHX66","A24G8GL5FX1KAW","37S0QRNUFB29SLTNXLPAM35NX0F88U","","","<img src=""img/flower2.png"" style=""width:200px;border:14px solid red;"">","null","","","","","",""
"76","","image-keyboard-response","379","235844","0.0-379.0","3EG49X351VYEPS913G9677MDNCHX66","A24G8GL5FX1KAW","37S0QRNUFB29SLTNXLPAM35NX0F88U","","","img/flower2.png","74","78","1","1","1","0.7,0.2,0,0.7,0,0.2,0.2,0,0.7",""
"null","","html-keyboard-response","380","236157","0.0-380.0","3EG49X351VYEPS913G9677MDNCHX66","A24G8GL5FX1KAW","37S0QRNUFB29SLTNXLPAM35NX0F88U","","","<img src=""img/flower2.png"" style=""width:200px; border:14px solid green;"">","null","","","","","",""
"94","","image-keyboard-response","381","236261","0.0-381.0","3EG49X351VYEPS913G9677MDNCHX66","A24G8GL5FX1KAW","37S0QRNUFB29SLTNXLPAM35NX0F88U","","","img/flower3.png","74","105","1","1","2","0.7,0.2,0,0.7,0,0.2,0.2,0,0.7",""
"null","","html-keyboard-response","382","236574","0.0-382.0","3EG49X351VYEPS913G9677MDNCHX66","A24G8GL5FX1KAW","37S0QRNUFB29SLTNXLPAM35NX0F88U","","","<img src=""img/flower3.png"" style=""width:200px; border:14px solid green;"">","null","","","","","",""
"106","","image-keyboard-response","383","236692","0.0-383.0","3EG49X351VYEPS913G9677MDNCHX66","A24G8GL5FX1KAW","37S0QRNUFB29SLTNXLPAM35NX0F88U","","","img/flower6.png","74","118","1","0","3","0.7,0.2,0,0.7,0,0.2,0.2,0,0.7",""
"null","","html-keyboard-response","384","237012","0.0-384.0","3EG49X351VYEPS913G9677MDNCHX66","A24G8GL5FX1KAW","37S0QRNUFB29SLTNXLPAM35NX0F88U","","","<img src=""img/flower6.png"" style=""width:200px;border:14px solid red;"">","null","","","","","",""
"96","","image-keyboard-response","385","237117","0.0-385.0","3EG49X351VYEPS913G9677MDNCHX66","A24G8GL5FX1KAW","37S0QRNUFB29SLTNXLPAM35NX0F88U","","","img/flower6.png","74","105","1","0","3","0.7,0.2,0,0.7,0,0.2,0.2,0,0.7",""
"null","","html-keyboard-response","386","237487","0.0-386.0","3EG49X351VYEPS913G9677MDNCHX66","A24G8GL5FX1KAW","37S0QRNUFB29SLTNXLPAM35NX0F88U","","","<img src=""img/flower6.png"" style=""width:200px;border:14px solid red;"">","null","","","","","",""
"93","","image-keyboard-response","387","237586","0.0-387.0","3EG49X351VYEPS913G9677MDNCHX66","A24G8GL5FX1KAW","37S0QRNUFB29SLTNXLPAM35NX0F88U","","","img/flower6.png","74","97","1","0","3","0.7,0.2,0,0.7,0,0.2,0.2,0,0.7",""
"null","","html-keyboard-response","388","237893","0.0-388.0","3EG49X351VYEPS913G9677MDNCHX66","A24G8GL5FX1KAW","37S0QRNUFB29SLTNXLPAM35NX0F88U","","","<img src=""img/flower6.png"" style=""width:200px;border:14px solid red;"">","null","","","","","",""
"86","","image-keyboard-response","389","237981","0.0-389.0","3EG49X351VYEPS913G9677MDNCHX66","A24G8GL5FX1KAW","37S0QRNUFB29SLTNXLPAM35NX0F88U","","","img/flower3.png","75","87","2","0","2","0.7,0.2,0,0.7,0,0.2,0.2,0,0.7",""
"null","","html-keyboard-response","390","238296","0.0-390.0","3EG49X351VYEPS913G9677MDNCHX66","A24G8GL5FX1KAW","37S0QRNUFB29SLTNXLPAM35NX0F88U","","","<img src=""img/flower3.png"" style=""width:200px;border:14px solid red;"">","null","","","","","",""
"93","","image-keyboard-response","391","238399","0.0-391.0","3EG49X351VYEPS913G9677MDNCHX66","A24G8GL5FX1KAW","37S0QRNUFB29SLTNXLPAM35NX0F88U","","","img/flower2.png","75","101","2","1","1","0.7,0.2,0,0.7,0,0.2,0.2,0,0.7",""
"null","","html-keyboard-response","392","238709","0.0-392.0","3EG49X351VYEPS913G9677MDNCHX66","A24G8GL5FX1KAW","37S0QRNUFB29SLTNXLPAM35NX0F88U","","","<img src=""img/flower2.png"" style=""width:200px; border:14px solid green;"">","null","","","","","",""
"69","","image-keyboard-response","393","238780","0.0-393.0","3EG49X351VYEPS913G9677MDNCHX66","A24G8GL5FX1KAW","37S0QRNUFB29SLTNXLPAM35NX0F88U","","","img/flower6.png","74","71","1","0","3","0.7,0.2,0,0.7,0,0.2,0.2,0,0.7",""
"null","","html-keyboard-response","394","239096","0.0-394.0","3EG49X351VYEPS913G9677MDNCHX66","A24G8GL5FX1KAW","37S0QRNUFB29SLTNXLPAM35NX0F88U","","","<img src=""img/flower6.png"" style=""width:200px;border:14px solid red;"">","null","","","","","",""
"88","","image-keyboard-response","395","239198","0.0-395.0","3EG49X351VYEPS913G9677MDNCHX66","A24G8GL5FX1KAW","37S0QRNUFB29SLTNXLPAM35NX0F88U","","","img/flower2.png","74","102","1","1","1","0.7,0.2,0,0.7,0,0.2,0.2,0,0.7",""
"null","","html-keyboard-response","396","239648","0.0-396.0","3EG49X351VYEPS913G9677MDNCHX66","A24G8GL5FX1KAW","37S0QRNUFB29SLTNXLPAM35NX0F88U","","","<img src=""img/flower2.png"" style=""width:200px; border:14px solid green;"">","null","","","","","",""
"145","","image-keyboard-response","397","239810","0.0-397.0","3EG49X351VYEPS913G9677MDNCHX66","A24G8GL5FX1KAW","37S0QRNUFB29SLTNXLPAM35NX0F88U","","","img/flower6.png","75","160","2","0","3","0.7,0.2,0,0.7,0,0.2,0.2,0,0.7",""
"null","","html-keyboard-response","398","240113","0.0-398.0","3EG49X351VYEPS913G9677MDNCHX66","A24G8GL5FX1KAW","37S0QRNUFB29SLTNXLPAM35NX0F88U","","","<img src=""img/flower6.png"" style=""width:200px;border:14px solid red;"">","null","","","","","",""
"83","","image-keyboard-response","399","240197","0.0-399.0","3EG49X351VYEPS913G9677MDNCHX66","A24G8GL5FX1KAW","37S0QRNUFB29SLTNXLPAM35NX0F88U","","","img/flower2.png","74","84","1","0","1","0.7,0.2,0,0.7,0,0.2,0.2,0,0.7",""
"null","","html-keyboard-response","400","240520","0.0-400.0","3EG49X351VYEPS913G9677MDNCHX66","A24G8GL5FX1KAW","37S0QRNUFB29SLTNXLPAM35NX0F88U","","","<img src=""img/flower2.png"" style=""width:200px;border:14px solid red;"">","null","","","","","",""
"119","","image-keyboard-response","401","240646","0.0-401.0","3EG49X351VYEPS913G9677MDNCHX66","A24G8GL5FX1KAW","37S0QRNUFB29SLTNXLPAM35NX0F88U","","","img/flower6.png","74","125","1","0","3","0.7,0.2,0,0.7,0,0.2,0.2,0,0.7",""
"null","","html-keyboard-response","402","240961","0.0-402.0","3EG49X351VYEPS913G9677MDNCHX66","A24G8GL5FX1KAW","37S0QRNUFB29SLTNXLPAM35NX0F88U","","","<img src=""img/flower6.png"" style=""width:200px;border:14px solid red;"">","null","","","","","",""
"87","","image-keyboard-response","403","241052","0.0-403.0","3EG49X351VYEPS913G9677MDNCHX66","A24G8GL5FX1KAW","37S0QRNUFB29SLTNXLPAM35NX0F88U","","","img/flower3.png","74","90","1","1","2","0.7,0.2,0,0.7,0,0.2,0.2,0,0.7",""
"null","","html-keyboard-response","404","241375","0.0-404.0","3EG49X351VYEPS913G9677MDNCHX66","A24G8GL5FX1KAW","37S0QRNUFB29SLTNXLPAM35NX0F88U","","","<img src=""img/flower3.png"" style=""width:200px; border:14px solid green;"">","null","","","","","",""
"124","","image-keyboard-response","405","241507","0.0-405.0","3EG49X351VYEPS913G9677MDNCHX66","A24G8GL5FX1KAW","37S0QRNUFB29SLTNXLPAM35NX0F88U","","","img/flower2.png","75","131","2","0","1","0.7,0.2,0,0.7,0,0.2,0.2,0,0.7",""
"null","","html-keyboard-response","406","241879","0.0-406.0","3EG49X351VYEPS913G9677MDNCHX66","A24G8GL5FX1KAW","37S0QRNUFB29SLTNXLPAM35NX0F88U","","","<img src=""img/flower2.png"" style=""width:200px;border:14px solid red;"">","null","","","","","",""
"84","","image-keyboard-response","407","241979","0.0-407.0","3EG49X351VYEPS913G9677MDNCHX66","A24G8GL5FX1KAW","37S0QRNUFB29SLTNXLPAM35NX0F88U","","","img/flower6.png","74","93","1","1","3","0.7,0.2,0,0.7,0,0.2,0.2,0,0.7",""
"null","","html-keyboard-response","408","242288","0.0-408.0","3EG49X351VYEPS913G9677MDNCHX66","A24G8GL5FX1KAW","37S0QRNUFB29SLTNXLPAM35NX0F88U","","","<img src=""img/flower6.png"" style=""width:200px; border:14px solid green;"">","null","","","","","",""
"148","","image-keyboard-response","409","242443","0.0-409.0","3EG49X351VYEPS913G9677MDNCHX66","A24G8GL5FX1KAW","37S0QRNUFB29SLTNXLPAM35NX0F88U","","","img/flower3.png","74","155","1","1","2","0.7,0.2,0,0.7,0,0.2,0.2,0,0.7",""
"null","","html-keyboard-response","410","242761","0.0-410.0","3EG49X351VYEPS913G9677MDNCHX66","A24G8GL5FX1KAW","37S0QRNUFB29SLTNXLPAM35NX0F88U","","","<img src=""img/flower3.png"" style=""width:200px; border:14px solid green;"">","null","","","","","",""
"128","","image-keyboard-response","411","242896","0.0-411.0","3EG49X351VYEPS913G9677MDNCHX66","A24G8GL5FX1KAW","37S0QRNUFB29SLTNXLPAM35NX0F88U","","","img/flower6.png","74","135","1","1","3","0.7,0.2,0,0.7,0,0.2,0.2,0,0.7",""
"null","","html-keyboard-response","412","243209","0.0-412.0","3EG49X351VYEPS913G9677MDNCHX66","A24G8GL5FX1KAW","37S0QRNUFB29SLTNXLPAM35NX0F88U","","","<img src=""img/flower6.png"" style=""width:200px; border:14px solid green;"">","null","","","","","",""
"102","","image-keyboard-response","413","243327","0.0-413.0","3EG49X351VYEPS913G9677MDNCHX66","A24G8GL5FX1KAW","37S0QRNUFB29SLTNXLPAM35NX0F88U","","","img/flower3.png","74","118","1","0","2","0.7,0.2,0,0.7,0,0.2,0.2,0,0.7",""
"null","","html-keyboard-response","414","243635","0.0-414.0","3EG49X351VYEPS913G9677MDNCHX66","A24G8GL5FX1KAW","37S0QRNUFB29SLTNXLPAM35NX0F88U","","","<img src=""img/flower3.png"" style=""width:200px;border:14px solid red;"">","null","","","","","",""
"103","","image-keyboard-response","415","243748","0.0-415.0","3EG49X351VYEPS913G9677MDNCHX66","A24G8GL5FX1KAW","37S0QRNUFB29SLTNXLPAM35NX0F88U","","","img/flower3.png","74","112","1","0","2","0.7,0.2,0,0.7,0,0.2,0.2,0,0.7",""
"null","","html-keyboard-response","416","244064","0.0-416.0","3EG49X351VYEPS913G9677MDNCHX66","A24G8GL5FX1KAW","37S0QRNUFB29SLTNXLPAM35NX0F88U","","","<img src=""img/flower3.png"" style=""width:200px;border:14px solid red;"">","null","","","","","",""
"136","","image-keyboard-response","417","244207","0.0-417.0","3EG49X351VYEPS913G9677MDNCHX66","A24G8GL5FX1KAW","37S0QRNUFB29SLTNXLPAM35NX0F88U","","","img/flower6.png","74","143","1","0","3","0.7,0.2,0,0.7,0,0.2,0.2,0,0.7",""
"null","","html-keyboard-response","418","244563","0.0-418.0","3EG49X351VYEPS913G9677MDNCHX66","A24G8GL5FX1KAW","37S0QRNUFB29SLTNXLPAM35NX0F88U","","","<img src=""img/flower6.png"" style=""width:200px;border:14px solid red;"">","null","","","","","",""
"85","","image-keyboard-response","419","244652","0.0-419.0","3EG49X351VYEPS913G9677MDNCHX66","A24G8GL5FX1KAW","37S0QRNUFB29SLTNXLPAM35NX0F88U","","","img/flower6.png","74","89","1","0","3","0.7,0.2,0,0.7,0,0.2,0.2,0,0.7",""
"null","","html-keyboard-response","420","244971","0.0-420.0","3EG49X351VYEPS913G9677MDNCHX66","A24G8GL5FX1KAW","37S0QRNUFB29SLTNXLPAM35NX0F88U","","","<img src=""img/flower6.png"" style=""width:200px;border:14px solid red;"">","null","","","","","",""
"90","","image-keyboard-response","421","245070","0.0-421.0","3EG49X351VYEPS913G9677MDNCHX66","A24G8GL5FX1KAW","37S0QRNUFB29SLTNXLPAM35NX0F88U","","","img/flower3.png","74","99","1","0","2","0.7,0.2,0,0.7,0,0.2,0.2,0,0.7",""
"null","","html-keyboard-response","422","245384","0.0-422.0","3EG49X351VYEPS913G9677MDNCHX66","A24G8GL5FX1KAW","37S0QRNUFB29SLTNXLPAM35NX0F88U","","","<img src=""img/flower3.png"" style=""width:200px;border:14px solid red;"">","null","","","","","",""
