"rt","url","trial_type","trial_index","time_elapsed","internal_node_id","assignmentID","mturkID","hitID","success","view_history","stimulus","key_press","reactionTime","a","r","s","reward_cond","responses"
"9273","consent.html","external-html","0","9454","0.0-0.0","3E4GGUZ1T9DKNRRTHVIER0XZBY12K6","A24IWWIUPASCQJ","33K3E8REWWHZ7MUV5T1222MGO9NX8Q","","","","","","","","","",""
"","","fullscreen","1","13769","0.0-1.0","3E4GGUZ1T9DKNRRTHVIER0XZBY12K6","A24IWWIUPASCQJ","33K3E8REWWHZ7MUV5T1222MGO9NX8Q","true","","","","","","","","",""
"114211","","instructions","2","127983","0.0-2.0","3E4GGUZ1T9DKNRRTHVIER0XZBY12K6","A24IWWIUPASCQJ","33K3E8REWWHZ7MUV5T1222MGO9NX8Q","","[{""page_index"":0,""viewing_time"":11234},{""page_index"":1,""viewing_time"":13767},{""page_index"":2,""viewing_time"":20801},{""page_index"":3,""viewing_time"":21833},{""page_index"":4,""viewing_time"":15948},{""page_index"":5,""viewing_time"":30626}]","","","","","","","",""
"23094","","instructions","3","151080","0.0-3.0","3E4GGUZ1T9DKNRRTHVIER0XZBY12K6","A24IWWIUPASCQJ","33K3E8REWWHZ7MUV5T1222MGO9NX8Q","","[{""page_index"":0,""viewing_time"":23093}]","","","","","","","",""
"1600","","image-keyboard-response","4","152682","0.0-4.0","3E4GGUZ1T9DKNRRTHVIER0XZBY12K6","A24IWWIUPASCQJ","33K3E8REWWHZ7MUV5T1222MGO9NX8Q","","","img/flower6.png","76","1602","3","1","3","",""
"null","","html-keyboard-response","5","152988","0.0-5.0","3E4GGUZ1T9DKNRRTHVIER0XZBY12K6","A24IWWIUPASCQJ","33K3E8REWWHZ7MUV5T1222MGO9NX8Q","","","<img src=""img/flower6.png"" style=""width:200px; border:14px solid green;"">","null","","","","","",""
"2608","","image-keyboard-response","6","155611","0.0-6.0","3E4GGUZ1T9DKNRRTHVIER0XZBY12K6","A24IWWIUPASCQJ","33K3E8REWWHZ7MUV5T1222MGO9NX8Q","","","img/flower6.png","76","2622","3","1","3","",""
"null","","html-keyboard-response","7","155926","0.0-7.0","3E4GGUZ1T9DKNRRTHVIER0XZBY12K6","A24IWWIUPASCQJ","33K3E8REWWHZ7MUV5T1222MGO9NX8Q","","","<img src=""img/flower6.png"" style=""width:200px; border:14px solid green;"">","null","","","","","",""
"2342","","image-keyboard-response","8","158275","0.0-8.0","3E4GGUZ1T9DKNRRTHVIER0XZBY12K6","A24IWWIUPASCQJ","33K3E8REWWHZ7MUV5T1222MGO9NX8Q","","","img/flower6.png","76","2348","3","0","3","",""
"null","","html-keyboard-response","9","158582","0.0-9.0","3E4GGUZ1T9DKNRRTHVIER0XZBY12K6","A24IWWIUPASCQJ","33K3E8REWWHZ7MUV5T1222MGO9NX8Q","","","<img src=""img/flower6.png"" style=""width:200px;border:14px solid red;"">","null","","","","","",""
"3143","","image-keyboard-response","10","161746","0.0-10.0","3E4GGUZ1T9DKNRRTHVIER0XZBY12K6","A24IWWIUPASCQJ","33K3E8REWWHZ7MUV5T1222MGO9NX8Q","","","img/flower5.png","75","3164","2","1","2","",""
"null","","html-keyboard-response","11","162051","0.0-11.0","3E4GGUZ1T9DKNRRTHVIER0XZBY12K6","A24IWWIUPASCQJ","33K3E8REWWHZ7MUV5T1222MGO9NX8Q","","","<img src=""img/flower5.png"" style=""width:200px; border:14px solid green;"">","null","","","","","",""
"6186","","image-keyboard-response","12","168241","0.0-12.0","3E4GGUZ1T9DKNRRTHVIER0XZBY12K6","A24IWWIUPASCQJ","33K3E8REWWHZ7MUV5T1222MGO9NX8Q","","","img/flower5.png","75","6190","2","1","2","",""
"null","","html-keyboard-response","13","168560","0.0-13.0","3E4GGUZ1T9DKNRRTHVIER0XZBY12K6","A24IWWIUPASCQJ","33K3E8REWWHZ7MUV5T1222MGO9NX8Q","","","<img src=""img/flower5.png"" style=""width:200px; border:14px solid green;"">","null","","","","","",""
"6272","","image-keyboard-response","14","174839","0.0-14.0","3E4GGUZ1T9DKNRRTHVIER0XZBY12K6","A24IWWIUPASCQJ","33K3E8REWWHZ7MUV5T1222MGO9NX8Q","","","img/flower5.png","75","6279","2","1","2","",""
"null","","html-keyboard-response","15","175162","0.0-15.0","3E4GGUZ1T9DKNRRTHVIER0XZBY12K6","A24IWWIUPASCQJ","33K3E8REWWHZ7MUV5T1222MGO9NX8Q","","","<img src=""img/flower5.png"" style=""width:200px; border:14px solid green;"">","null","","","","","",""
"1370","","image-keyboard-response","16","176550","0.0-16.0","3E4GGUZ1T9DKNRRTHVIER0XZBY12K6","A24IWWIUPASCQJ","33K3E8REWWHZ7MUV5T1222MGO9NX8Q","","","img/flower6.png","76","1386","3","1","3","",""
"null","","html-keyboard-response","17","176863","0.0-17.0","3E4GGUZ1T9DKNRRTHVIER0XZBY12K6","A24IWWIUPASCQJ","33K3E8REWWHZ7MUV5T1222MGO9NX8Q","","","<img src=""img/flower6.png"" style=""width:200px; border:14px solid green;"">","null","","","","","",""
"4016","","image-keyboard-response","18","180883","0.0-18.0","3E4GGUZ1T9DKNRRTHVIER0XZBY12K6","A24IWWIUPASCQJ","33K3E8REWWHZ7MUV5T1222MGO9NX8Q","","","img/flower6.png","76","4020","3","0","3","",""
"null","","html-keyboard-response","19","181192","0.0-19.0","3E4GGUZ1T9DKNRRTHVIER0XZBY12K6","A24IWWIUPASCQJ","33K3E8REWWHZ7MUV5T1222MGO9NX8Q","","","<img src=""img/flower6.png"" style=""width:200px;border:14px solid red;"">","null","","","","","",""
"3999","","image-keyboard-response","20","185202","0.0-20.0","3E4GGUZ1T9DKNRRTHVIER0XZBY12K6","A24IWWIUPASCQJ","33K3E8REWWHZ7MUV5T1222MGO9NX8Q","","","img/flower4.png","74","4010","1","1","1","",""
"null","","html-keyboard-response","21","185505","0.0-21.0","3E4GGUZ1T9DKNRRTHVIER0XZBY12K6","A24IWWIUPASCQJ","33K3E8REWWHZ7MUV5T1222MGO9NX8Q","","","<img src=""img/flower4.png"" style=""width:200px; border:14px solid green;"">","null","","","","","",""
"6247","","image-keyboard-response","22","191765","0.0-22.0","3E4GGUZ1T9DKNRRTHVIER0XZBY12K6","A24IWWIUPASCQJ","33K3E8REWWHZ7MUV5T1222MGO9NX8Q","","","img/flower4.png","74","6260","1","1","1","",""
"null","","html-keyboard-response","23","192067","0.0-23.0","3E4GGUZ1T9DKNRRTHVIER0XZBY12K6","A24IWWIUPASCQJ","33K3E8REWWHZ7MUV5T1222MGO9NX8Q","","","<img src=""img/flower4.png"" style=""width:200px; border:14px solid green;"">","null","","","","","",""
"10483","","image-keyboard-response","24","202558","0.0-24.0","3E4GGUZ1T9DKNRRTHVIER0XZBY12K6","A24IWWIUPASCQJ","33K3E8REWWHZ7MUV5T1222MGO9NX8Q","","","img/flower4.png","74","10491","1","0","1","",""
"null","","html-keyboard-response","25","202866","0.0-25.0","3E4GGUZ1T9DKNRRTHVIER0XZBY12K6","A24IWWIUPASCQJ","33K3E8REWWHZ7MUV5T1222MGO9NX8Q","","","<img src=""img/flower4.png"" style=""width:200px;border:14px solid red;"">","null","","","","","",""
"4758","","image-keyboard-response","26","207645","0.0-26.0","3E4GGUZ1T9DKNRRTHVIER0XZBY12K6","A24IWWIUPASCQJ","33K3E8REWWHZ7MUV5T1222MGO9NX8Q","","","img/flower4.png","74","4779","1","1","1","",""
"null","","html-keyboard-response","27","207957","0.0-27.0","3E4GGUZ1T9DKNRRTHVIER0XZBY12K6","A24IWWIUPASCQJ","33K3E8REWWHZ7MUV5T1222MGO9NX8Q","","","<img src=""img/flower4.png"" style=""width:200px; border:14px solid green;"">","null","","","","","",""
"1999","","image-keyboard-response","28","209958","0.0-28.0","3E4GGUZ1T9DKNRRTHVIER0XZBY12K6","A24IWWIUPASCQJ","33K3E8REWWHZ7MUV5T1222MGO9NX8Q","","","img/flower4.png","74","2001","1","0","1","",""
"null","","html-keyboard-response","29","210283","0.0-29.0","3E4GGUZ1T9DKNRRTHVIER0XZBY12K6","A24IWWIUPASCQJ","33K3E8REWWHZ7MUV5T1222MGO9NX8Q","","","<img src=""img/flower4.png"" style=""width:200px;border:14px solid red;"">","null","","","","","",""
"1454","","image-keyboard-response","30","211746","0.0-30.0","3E4GGUZ1T9DKNRRTHVIER0XZBY12K6","A24IWWIUPASCQJ","33K3E8REWWHZ7MUV5T1222MGO9NX8Q","","","img/flower5.png","75","1463","2","0","2","",""
"null","","html-keyboard-response","31","212051","0.0-31.0","3E4GGUZ1T9DKNRRTHVIER0XZBY12K6","A24IWWIUPASCQJ","33K3E8REWWHZ7MUV5T1222MGO9NX8Q","","","<img src=""img/flower5.png"" style=""width:200px;border:14px solid red;"">","null","","","","","",""
"1123","","image-keyboard-response","32","213180","0.0-32.0","3E4GGUZ1T9DKNRRTHVIER0XZBY12K6","A24IWWIUPASCQJ","33K3E8REWWHZ7MUV5T1222MGO9NX8Q","","","img/flower6.png","76","1129","3","1","3","",""
"null","","html-keyboard-response","33","213489","0.0-33.0","3E4GGUZ1T9DKNRRTHVIER0XZBY12K6","A24IWWIUPASCQJ","33K3E8REWWHZ7MUV5T1222MGO9NX8Q","","","<img src=""img/flower6.png"" style=""width:200px; border:14px solid green;"">","null","","","","","",""
"1811","","image-keyboard-response","34","215307","0.0-34.0","3E4GGUZ1T9DKNRRTHVIER0XZBY12K6","A24IWWIUPASCQJ","33K3E8REWWHZ7MUV5T1222MGO9NX8Q","","","img/flower5.png","75","1818","2","0","2","",""
"null","","html-keyboard-response","35","215614","0.0-35.0","3E4GGUZ1T9DKNRRTHVIER0XZBY12K6","A24IWWIUPASCQJ","33K3E8REWWHZ7MUV5T1222MGO9NX8Q","","","<img src=""img/flower5.png"" style=""width:200px;border:14px solid red;"">","null","","","","","",""
"1472","","image-keyboard-response","36","217086","0.0-36.0","3E4GGUZ1T9DKNRRTHVIER0XZBY12K6","A24IWWIUPASCQJ","33K3E8REWWHZ7MUV5T1222MGO9NX8Q","","","img/flower5.png","75","1472","2","1","2","",""
"null","","html-keyboard-response","37","217395","0.0-37.0","3E4GGUZ1T9DKNRRTHVIER0XZBY12K6","A24IWWIUPASCQJ","33K3E8REWWHZ7MUV5T1222MGO9NX8Q","","","<img src=""img/flower5.png"" style=""width:200px; border:14px solid green;"">","null","","","","","",""
"1327","","image-keyboard-response","38","218731","0.0-38.0","3E4GGUZ1T9DKNRRTHVIER0XZBY12K6","A24IWWIUPASCQJ","33K3E8REWWHZ7MUV5T1222MGO9NX8Q","","","img/flower4.png","74","1336","1","1","1","",""
"null","","html-keyboard-response","39","219035","0.0-39.0","3E4GGUZ1T9DKNRRTHVIER0XZBY12K6","A24IWWIUPASCQJ","33K3E8REWWHZ7MUV5T1222MGO9NX8Q","","","<img src=""img/flower4.png"" style=""width:200px; border:14px solid green;"">","null","","","","","",""
"5358","","image-keyboard-response","40","224404","0.0-40.0","3E4GGUZ1T9DKNRRTHVIER0XZBY12K6","A24IWWIUPASCQJ","33K3E8REWWHZ7MUV5T1222MGO9NX8Q","","","img/flower4.png","74","5369","1","1","1","",""
"null","","html-keyboard-response","41","224707","0.0-41.0","3E4GGUZ1T9DKNRRTHVIER0XZBY12K6","A24IWWIUPASCQJ","33K3E8REWWHZ7MUV5T1222MGO9NX8Q","","","<img src=""img/flower4.png"" style=""width:200px; border:14px solid green;"">","null","","","","","",""
"1156","","image-keyboard-response","42","225866","0.0-42.0","3E4GGUZ1T9DKNRRTHVIER0XZBY12K6","A24IWWIUPASCQJ","33K3E8REWWHZ7MUV5T1222MGO9NX8Q","","","img/flower5.png","75","1159","2","0","2","",""
"null","","html-keyboard-response","43","226176","0.0-43.0","3E4GGUZ1T9DKNRRTHVIER0XZBY12K6","A24IWWIUPASCQJ","33K3E8REWWHZ7MUV5T1222MGO9NX8Q","","","<img src=""img/flower5.png"" style=""width:200px;border:14px solid red;"">","null","","","","","",""
"1373","","image-keyboard-response","44","227561","0.0-44.0","3E4GGUZ1T9DKNRRTHVIER0XZBY12K6","A24IWWIUPASCQJ","33K3E8REWWHZ7MUV5T1222MGO9NX8Q","","","img/flower6.png","76","1385","3","1","3","",""
"null","","html-keyboard-response","45","227863","0.0-45.0","3E4GGUZ1T9DKNRRTHVIER0XZBY12K6","A24IWWIUPASCQJ","33K3E8REWWHZ7MUV5T1222MGO9NX8Q","","","<img src=""img/flower6.png"" style=""width:200px; border:14px solid green;"">","null","","","","","",""
"2218","","image-keyboard-response","46","230090","0.0-46.0","3E4GGUZ1T9DKNRRTHVIER0XZBY12K6","A24IWWIUPASCQJ","33K3E8REWWHZ7MUV5T1222MGO9NX8Q","","","img/flower4.png","74","2227","1","0","1","",""
"null","","html-keyboard-response","47","230410","0.0-47.0","3E4GGUZ1T9DKNRRTHVIER0XZBY12K6","A24IWWIUPASCQJ","33K3E8REWWHZ7MUV5T1222MGO9NX8Q","","","<img src=""img/flower4.png"" style=""width:200px;border:14px solid red;"">","null","","","","","",""
"3922","","image-keyboard-response","48","234343","0.0-48.0","3E4GGUZ1T9DKNRRTHVIER0XZBY12K6","A24IWWIUPASCQJ","33K3E8REWWHZ7MUV5T1222MGO9NX8Q","","","img/flower4.png","74","3933","1","1","1","",""
"null","","html-keyboard-response","49","234661","0.0-49.0","3E4GGUZ1T9DKNRRTHVIER0XZBY12K6","A24IWWIUPASCQJ","33K3E8REWWHZ7MUV5T1222MGO9NX8Q","","","<img src=""img/flower4.png"" style=""width:200px; border:14px solid green;"">","null","","","","","",""
"2749","","image-keyboard-response","50","237414","0.0-50.0","3E4GGUZ1T9DKNRRTHVIER0XZBY12K6","A24IWWIUPASCQJ","33K3E8REWWHZ7MUV5T1222MGO9NX8Q","","","img/flower5.png","75","2753","2","1","2","",""
"null","","html-keyboard-response","51","237723","0.0-51.0","3E4GGUZ1T9DKNRRTHVIER0XZBY12K6","A24IWWIUPASCQJ","33K3E8REWWHZ7MUV5T1222MGO9NX8Q","","","<img src=""img/flower5.png"" style=""width:200px; border:14px solid green;"">","null","","","","","",""
"1764","","image-keyboard-response","52","239493","0.0-52.0","3E4GGUZ1T9DKNRRTHVIER0XZBY12K6","A24IWWIUPASCQJ","33K3E8REWWHZ7MUV5T1222MGO9NX8Q","","","img/flower6.png","76","1770","3","1","3","",""
"null","","html-keyboard-response","53","239801","0.0-53.0","3E4GGUZ1T9DKNRRTHVIER0XZBY12K6","A24IWWIUPASCQJ","33K3E8REWWHZ7MUV5T1222MGO9NX8Q","","","<img src=""img/flower6.png"" style=""width:200px; border:14px solid green;"">","null","","","","","",""
"3404","","image-keyboard-response","54","243209","0.0-54.0","3E4GGUZ1T9DKNRRTHVIER0XZBY12K6","A24IWWIUPASCQJ","33K3E8REWWHZ7MUV5T1222MGO9NX8Q","","","img/flower6.png","76","3408","3","0","3","",""
"null","","html-keyboard-response","55","243520","0.0-55.0","3E4GGUZ1T9DKNRRTHVIER0XZBY12K6","A24IWWIUPASCQJ","33K3E8REWWHZ7MUV5T1222MGO9NX8Q","","","<img src=""img/flower6.png"" style=""width:200px;border:14px solid red;"">","null","","","","","",""
"1108","","image-keyboard-response","56","244643","0.0-56.0","3E4GGUZ1T9DKNRRTHVIER0XZBY12K6","A24IWWIUPASCQJ","33K3E8REWWHZ7MUV5T1222MGO9NX8Q","","","img/flower5.png","75","1123","2","0","2","",""
"null","","html-keyboard-response","57","244957","0.0-57.0","3E4GGUZ1T9DKNRRTHVIER0XZBY12K6","A24IWWIUPASCQJ","33K3E8REWWHZ7MUV5T1222MGO9NX8Q","","","<img src=""img/flower5.png"" style=""width:200px;border:14px solid red;"">","null","","","","","",""
"3640","","image-keyboard-response","58","248605","0.0-58.0","3E4GGUZ1T9DKNRRTHVIER0XZBY12K6","A24IWWIUPASCQJ","33K3E8REWWHZ7MUV5T1222MGO9NX8Q","","","img/flower4.png","74","3648","1","1","1","",""
"null","","html-keyboard-response","59","248910","0.0-59.0","3E4GGUZ1T9DKNRRTHVIER0XZBY12K6","A24IWWIUPASCQJ","33K3E8REWWHZ7MUV5T1222MGO9NX8Q","","","<img src=""img/flower4.png"" style=""width:200px; border:14px solid green;"">","null","","","","","",""
"3701","","image-keyboard-response","60","252615","0.0-60.0","3E4GGUZ1T9DKNRRTHVIER0XZBY12K6","A24IWWIUPASCQJ","33K3E8REWWHZ7MUV5T1222MGO9NX8Q","","","img/flower5.png","75","3704","2","1","2","",""
"null","","html-keyboard-response","61","252942","0.0-61.0","3E4GGUZ1T9DKNRRTHVIER0XZBY12K6","A24IWWIUPASCQJ","33K3E8REWWHZ7MUV5T1222MGO9NX8Q","","","<img src=""img/flower5.png"" style=""width:200px; border:14px solid green;"">","null","","","","","",""
"2796","","image-keyboard-response","62","255744","0.0-62.0","3E4GGUZ1T9DKNRRTHVIER0XZBY12K6","A24IWWIUPASCQJ","33K3E8REWWHZ7MUV5T1222MGO9NX8Q","","","img/flower6.png","76","2802","3","1","3","",""
"null","","html-keyboard-response","63","256051","0.0-63.0","3E4GGUZ1T9DKNRRTHVIER0XZBY12K6","A24IWWIUPASCQJ","33K3E8REWWHZ7MUV5T1222MGO9NX8Q","","","<img src=""img/flower6.png"" style=""width:200px; border:14px solid green;"">","null","","","","","",""
"40050","","instructions","64","296102","0.0-64.0","3E4GGUZ1T9DKNRRTHVIER0XZBY12K6","A24IWWIUPASCQJ","33K3E8REWWHZ7MUV5T1222MGO9NX8Q","","[{""page_index"":0,""viewing_time"":12698},{""page_index"":1,""viewing_time"":27352}]","","","","","","","",""
"1773","","image-keyboard-response","65","297876","0.0-65.0","3E4GGUZ1T9DKNRRTHVIER0XZBY12K6","A24IWWIUPASCQJ","33K3E8REWWHZ7MUV5T1222MGO9NX8Q","","","img/flower6.png","76","1774","3","1","3","",""
"null","","html-keyboard-response","66","298192","0.0-66.0","3E4GGUZ1T9DKNRRTHVIER0XZBY12K6","A24IWWIUPASCQJ","33K3E8REWWHZ7MUV5T1222MGO9NX8Q","","","<img src=""img/flower6.png"" style=""width:200px; border:14px solid green;"">","null","","","","","",""
"1998","","image-keyboard-response","67","300202","0.0-67.0","3E4GGUZ1T9DKNRRTHVIER0XZBY12K6","A24IWWIUPASCQJ","33K3E8REWWHZ7MUV5T1222MGO9NX8Q","","","img/flower5.png","75","2010","2","1","2","",""
"null","","html-keyboard-response","68","300504","0.0-68.0","3E4GGUZ1T9DKNRRTHVIER0XZBY12K6","A24IWWIUPASCQJ","33K3E8REWWHZ7MUV5T1222MGO9NX8Q","","","<img src=""img/flower5.png"" style=""width:200px; border:14px solid green;"">","null","","","","","",""
"1655","","image-keyboard-response","69","302162","0.0-69.0","3E4GGUZ1T9DKNRRTHVIER0XZBY12K6","A24IWWIUPASCQJ","33K3E8REWWHZ7MUV5T1222MGO9NX8Q","","","img/flower6.png","76","1658","3","1","3","",""
"null","","html-keyboard-response","70","302473","0.0-70.0","3E4GGUZ1T9DKNRRTHVIER0XZBY12K6","A24IWWIUPASCQJ","33K3E8REWWHZ7MUV5T1222MGO9NX8Q","","","<img src=""img/flower6.png"" style=""width:200px; border:14px solid green;"">","null","","","","","",""
"2264","","image-keyboard-response","71","304748","0.0-71.0","3E4GGUZ1T9DKNRRTHVIER0XZBY12K6","A24IWWIUPASCQJ","33K3E8REWWHZ7MUV5T1222MGO9NX8Q","","","img/flower5.png","75","2275","2","1","2","",""
"null","","html-keyboard-response","72","305051","0.0-72.0","3E4GGUZ1T9DKNRRTHVIER0XZBY12K6","A24IWWIUPASCQJ","33K3E8REWWHZ7MUV5T1222MGO9NX8Q","","","<img src=""img/flower5.png"" style=""width:200px; border:14px solid green;"">","null","","","","","",""
"2297","","image-keyboard-response","73","307358","0.0-73.0","3E4GGUZ1T9DKNRRTHVIER0XZBY12K6","A24IWWIUPASCQJ","33K3E8REWWHZ7MUV5T1222MGO9NX8Q","","","img/flower6.png","76","2307","3","1","3","",""
"null","","html-keyboard-response","74","307660","0.0-74.0","3E4GGUZ1T9DKNRRTHVIER0XZBY12K6","A24IWWIUPASCQJ","33K3E8REWWHZ7MUV5T1222MGO9NX8Q","","","<img src=""img/flower6.png"" style=""width:200px; border:14px solid green;"">","null","","","","","",""
"1984","","image-keyboard-response","75","309647","0.0-75.0","3E4GGUZ1T9DKNRRTHVIER0XZBY12K6","A24IWWIUPASCQJ","33K3E8REWWHZ7MUV5T1222MGO9NX8Q","","","img/flower4.png","74","1987","1","0","1","",""
"null","","html-keyboard-response","76","309956","0.0-76.0","3E4GGUZ1T9DKNRRTHVIER0XZBY12K6","A24IWWIUPASCQJ","33K3E8REWWHZ7MUV5T1222MGO9NX8Q","","","<img src=""img/flower4.png"" style=""width:200px;border:14px solid red;"">","null","","","","","",""
"2953","","image-keyboard-response","77","312922","0.0-77.0","3E4GGUZ1T9DKNRRTHVIER0XZBY12K6","A24IWWIUPASCQJ","33K3E8REWWHZ7MUV5T1222MGO9NX8Q","","","img/flower5.png","75","2966","2","1","2","",""
"null","","html-keyboard-response","78","313239","0.0-78.0","3E4GGUZ1T9DKNRRTHVIER0XZBY12K6","A24IWWIUPASCQJ","33K3E8REWWHZ7MUV5T1222MGO9NX8Q","","","<img src=""img/flower5.png"" style=""width:200px; border:14px solid green;"">","null","","","","","",""
"2530","","image-keyboard-response","79","315781","0.0-79.0","3E4GGUZ1T9DKNRRTHVIER0XZBY12K6","A24IWWIUPASCQJ","33K3E8REWWHZ7MUV5T1222MGO9NX8Q","","","img/flower6.png","76","2542","3","1","3","",""
"null","","html-keyboard-response","80","316082","0.0-80.0","3E4GGUZ1T9DKNRRTHVIER0XZBY12K6","A24IWWIUPASCQJ","33K3E8REWWHZ7MUV5T1222MGO9NX8Q","","","<img src=""img/flower6.png"" style=""width:200px; border:14px solid green;"">","null","","","","","",""
"3686","","image-keyboard-response","81","319777","0.0-81.0","3E4GGUZ1T9DKNRRTHVIER0XZBY12K6","A24IWWIUPASCQJ","33K3E8REWWHZ7MUV5T1222MGO9NX8Q","","","img/flower6.png","76","3694","3","1","3","",""
"null","","html-keyboard-response","82","320082","0.0-82.0","3E4GGUZ1T9DKNRRTHVIER0XZBY12K6","A24IWWIUPASCQJ","33K3E8REWWHZ7MUV5T1222MGO9NX8Q","","","<img src=""img/flower6.png"" style=""width:200px; border:14px solid green;"">","null","","","","","",""
"4206","","image-keyboard-response","83","324291","0.0-83.0","3E4GGUZ1T9DKNRRTHVIER0XZBY12K6","A24IWWIUPASCQJ","33K3E8REWWHZ7MUV5T1222MGO9NX8Q","","","img/flower6.png","76","4209","3","0","3","",""
"null","","html-keyboard-response","84","324598","0.0-84.0","3E4GGUZ1T9DKNRRTHVIER0XZBY12K6","A24IWWIUPASCQJ","33K3E8REWWHZ7MUV5T1222MGO9NX8Q","","","<img src=""img/flower6.png"" style=""width:200px;border:14px solid red;"">","null","","","","","",""
"2029","","image-keyboard-response","85","326642","0.0-85.0","3E4GGUZ1T9DKNRRTHVIER0XZBY12K6","A24IWWIUPASCQJ","33K3E8REWWHZ7MUV5T1222MGO9NX8Q","","","img/flower5.png","75","2044","2","1","2","",""
"null","","html-keyboard-response","86","326957","0.0-86.0","3E4GGUZ1T9DKNRRTHVIER0XZBY12K6","A24IWWIUPASCQJ","33K3E8REWWHZ7MUV5T1222MGO9NX8Q","","","<img src=""img/flower5.png"" style=""width:200px; border:14px solid green;"">","null","","","","","",""
"4045","","image-keyboard-response","87","331004","0.0-87.0","3E4GGUZ1T9DKNRRTHVIER0XZBY12K6","A24IWWIUPASCQJ","33K3E8REWWHZ7MUV5T1222MGO9NX8Q","","","img/flower5.png","75","4048","2","1","2","",""
"null","","html-keyboard-response","88","331317","0.0-88.0","3E4GGUZ1T9DKNRRTHVIER0XZBY12K6","A24IWWIUPASCQJ","33K3E8REWWHZ7MUV5T1222MGO9NX8Q","","","<img src=""img/flower5.png"" style=""width:200px; border:14px solid green;"">","null","","","","","",""
"2833","","image-keyboard-response","89","334152","0.0-89.0","3E4GGUZ1T9DKNRRTHVIER0XZBY12K6","A24IWWIUPASCQJ","33K3E8REWWHZ7MUV5T1222MGO9NX8Q","","","img/flower6.png","76","2835","3","1","3","",""
"null","","html-keyboard-response","90","334457","0.0-90.0","3E4GGUZ1T9DKNRRTHVIER0XZBY12K6","A24IWWIUPASCQJ","33K3E8REWWHZ7MUV5T1222MGO9NX8Q","","","<img src=""img/flower6.png"" style=""width:200px; border:14px solid green;"">","null","","","","","",""
"2889","","image-keyboard-response","91","337358","0.0-91.0","3E4GGUZ1T9DKNRRTHVIER0XZBY12K6","A24IWWIUPASCQJ","33K3E8REWWHZ7MUV5T1222MGO9NX8Q","","","img/flower4.png","74","2901","1","0","1","",""
"null","","html-keyboard-response","92","337661","0.0-92.0","3E4GGUZ1T9DKNRRTHVIER0XZBY12K6","A24IWWIUPASCQJ","33K3E8REWWHZ7MUV5T1222MGO9NX8Q","","","<img src=""img/flower4.png"" style=""width:200px;border:14px solid red;"">","null","","","","","",""
"2295","","image-keyboard-response","93","339971","0.0-93.0","3E4GGUZ1T9DKNRRTHVIER0XZBY12K6","A24IWWIUPASCQJ","33K3E8REWWHZ7MUV5T1222MGO9NX8Q","","","img/flower6.png","76","2312","3","1","3","",""
"null","","html-keyboard-response","94","340284","0.0-94.0","3E4GGUZ1T9DKNRRTHVIER0XZBY12K6","A24IWWIUPASCQJ","33K3E8REWWHZ7MUV5T1222MGO9NX8Q","","","<img src=""img/flower6.png"" style=""width:200px; border:14px solid green;"">","null","","","","","",""
"2298","","image-keyboard-response","95","342585","0.0-95.0","3E4GGUZ1T9DKNRRTHVIER0XZBY12K6","A24IWWIUPASCQJ","33K3E8REWWHZ7MUV5T1222MGO9NX8Q","","","img/flower5.png","75","2301","2","1","2","",""
"null","","html-keyboard-response","96","342894","0.0-96.0","3E4GGUZ1T9DKNRRTHVIER0XZBY12K6","A24IWWIUPASCQJ","33K3E8REWWHZ7MUV5T1222MGO9NX8Q","","","<img src=""img/flower5.png"" style=""width:200px; border:14px solid green;"">","null","","","","","",""
"3204","","image-keyboard-response","97","346100","0.0-97.0","3E4GGUZ1T9DKNRRTHVIER0XZBY12K6","A24IWWIUPASCQJ","33K3E8REWWHZ7MUV5T1222MGO9NX8Q","","","img/flower4.png","74","3205","1","1","1","",""
"null","","html-keyboard-response","98","346411","0.0-98.0","3E4GGUZ1T9DKNRRTHVIER0XZBY12K6","A24IWWIUPASCQJ","33K3E8REWWHZ7MUV5T1222MGO9NX8Q","","","<img src=""img/flower4.png"" style=""width:200px; border:14px solid green;"">","null","","","","","",""
"6233","","image-keyboard-response","99","352656","0.0-99.0","3E4GGUZ1T9DKNRRTHVIER0XZBY12K6","A24IWWIUPASCQJ","33K3E8REWWHZ7MUV5T1222MGO9NX8Q","","","img/flower4.png","74","6245","1","1","1","",""
"null","","html-keyboard-response","100","352973","0.0-100.0","3E4GGUZ1T9DKNRRTHVIER0XZBY12K6","A24IWWIUPASCQJ","33K3E8REWWHZ7MUV5T1222MGO9NX8Q","","","<img src=""img/flower4.png"" style=""width:200px; border:14px solid green;"">","null","","","","","",""
"1670","","image-keyboard-response","101","354653","0.0-101.0","3E4GGUZ1T9DKNRRTHVIER0XZBY12K6","A24IWWIUPASCQJ","33K3E8REWWHZ7MUV5T1222MGO9NX8Q","","","img/flower5.png","75","1680","2","0","2","",""
"null","","html-keyboard-response","102","354957","0.0-102.0","3E4GGUZ1T9DKNRRTHVIER0XZBY12K6","A24IWWIUPASCQJ","33K3E8REWWHZ7MUV5T1222MGO9NX8Q","","","<img src=""img/flower5.png"" style=""width:200px;border:14px solid red;"">","null","","","","","",""
"21703","","image-keyboard-response","103","376666","0.0-103.0","3E4GGUZ1T9DKNRRTHVIER0XZBY12K6","A24IWWIUPASCQJ","33K3E8REWWHZ7MUV5T1222MGO9NX8Q","","","img/flower5.png","75","21709","2","1","2","",""
"null","","html-keyboard-response","104","376974","0.0-104.0","3E4GGUZ1T9DKNRRTHVIER0XZBY12K6","A24IWWIUPASCQJ","33K3E8REWWHZ7MUV5T1222MGO9NX8Q","","","<img src=""img/flower5.png"" style=""width:200px; border:14px solid green;"">","null","","","","","",""
"2624","","image-keyboard-response","105","379606","0.0-105.0","3E4GGUZ1T9DKNRRTHVIER0XZBY12K6","A24IWWIUPASCQJ","33K3E8REWWHZ7MUV5T1222MGO9NX8Q","","","img/flower4.png","74","2631","1","1","1","",""
"null","","html-keyboard-response","106","379914","0.0-106.0","3E4GGUZ1T9DKNRRTHVIER0XZBY12K6","A24IWWIUPASCQJ","33K3E8REWWHZ7MUV5T1222MGO9NX8Q","","","<img src=""img/flower4.png"" style=""width:200px; border:14px solid green;"">","null","","","","","",""
"2136","","image-keyboard-response","107","382053","0.0-107.0","3E4GGUZ1T9DKNRRTHVIER0XZBY12K6","A24IWWIUPASCQJ","33K3E8REWWHZ7MUV5T1222MGO9NX8Q","","","img/flower6.png","76","2139","3","0","3","",""
"null","","html-keyboard-response","108","382364","0.0-108.0","3E4GGUZ1T9DKNRRTHVIER0XZBY12K6","A24IWWIUPASCQJ","33K3E8REWWHZ7MUV5T1222MGO9NX8Q","","","<img src=""img/flower6.png"" style=""width:200px;border:14px solid red;"">","null","","","","","",""
"2296","","image-keyboard-response","109","384666","0.0-109.0","3E4GGUZ1T9DKNRRTHVIER0XZBY12K6","A24IWWIUPASCQJ","33K3E8REWWHZ7MUV5T1222MGO9NX8Q","","","img/flower5.png","75","2303","2","1","2","",""
"null","","html-keyboard-response","110","384973","0.0-110.0","3E4GGUZ1T9DKNRRTHVIER0XZBY12K6","A24IWWIUPASCQJ","33K3E8REWWHZ7MUV5T1222MGO9NX8Q","","","<img src=""img/flower5.png"" style=""width:200px; border:14px solid green;"">","null","","","","","",""
"2983","","image-keyboard-response","111","387971","0.0-111.0","3E4GGUZ1T9DKNRRTHVIER0XZBY12K6","A24IWWIUPASCQJ","33K3E8REWWHZ7MUV5T1222MGO9NX8Q","","","img/flower4.png","74","2997","1","1","1","",""
"null","","html-keyboard-response","112","388285","0.0-112.0","3E4GGUZ1T9DKNRRTHVIER0XZBY12K6","A24IWWIUPASCQJ","33K3E8REWWHZ7MUV5T1222MGO9NX8Q","","","<img src=""img/flower4.png"" style=""width:200px; border:14px solid green;"">","null","","","","","",""
"2546","","image-keyboard-response","113","390833","0.0-113.0","3E4GGUZ1T9DKNRRTHVIER0XZBY12K6","A24IWWIUPASCQJ","33K3E8REWWHZ7MUV5T1222MGO9NX8Q","","","img/flower5.png","75","2548","2","0","2","",""
"null","","html-keyboard-response","114","391135","0.0-114.0","3E4GGUZ1T9DKNRRTHVIER0XZBY12K6","A24IWWIUPASCQJ","33K3E8REWWHZ7MUV5T1222MGO9NX8Q","","","<img src=""img/flower5.png"" style=""width:200px;border:14px solid red;"">","null","","","","","",""
"3602","","image-keyboard-response","115","394743","0.0-115.0","3E4GGUZ1T9DKNRRTHVIER0XZBY12K6","A24IWWIUPASCQJ","33K3E8REWWHZ7MUV5T1222MGO9NX8Q","","","img/flower4.png","74","3608","1","1","1","",""
"null","","html-keyboard-response","116","395051","0.0-116.0","3E4GGUZ1T9DKNRRTHVIER0XZBY12K6","A24IWWIUPASCQJ","33K3E8REWWHZ7MUV5T1222MGO9NX8Q","","","<img src=""img/flower4.png"" style=""width:200px; border:14px solid green;"">","null","","","","","",""
"37794","","image-keyboard-response","117","432849","0.0-117.0","3E4GGUZ1T9DKNRRTHVIER0XZBY12K6","A24IWWIUPASCQJ","33K3E8REWWHZ7MUV5T1222MGO9NX8Q","","","img/flower6.png","76","37798","3","1","3","",""
"null","","html-keyboard-response","118","433161","0.0-118.0","3E4GGUZ1T9DKNRRTHVIER0XZBY12K6","A24IWWIUPASCQJ","33K3E8REWWHZ7MUV5T1222MGO9NX8Q","","","<img src=""img/flower6.png"" style=""width:200px; border:14px solid green;"">","null","","","","","",""
"2076","","image-keyboard-response","119","435251","0.0-119.0","3E4GGUZ1T9DKNRRTHVIER0XZBY12K6","A24IWWIUPASCQJ","33K3E8REWWHZ7MUV5T1222MGO9NX8Q","","","img/flower4.png","74","2090","1","1","1","",""
"null","","html-keyboard-response","120","435567","0.0-120.0","3E4GGUZ1T9DKNRRTHVIER0XZBY12K6","A24IWWIUPASCQJ","33K3E8REWWHZ7MUV5T1222MGO9NX8Q","","","<img src=""img/flower4.png"" style=""width:200px; border:14px solid green;"">","null","","","","","",""
"4076","","image-keyboard-response","121","439656","0.0-121.0","3E4GGUZ1T9DKNRRTHVIER0XZBY12K6","A24IWWIUPASCQJ","33K3E8REWWHZ7MUV5T1222MGO9NX8Q","","","img/flower4.png","74","4089","1","1","1","",""
"null","","html-keyboard-response","122","439957","0.0-122.0","3E4GGUZ1T9DKNRRTHVIER0XZBY12K6","A24IWWIUPASCQJ","33K3E8REWWHZ7MUV5T1222MGO9NX8Q","","","<img src=""img/flower4.png"" style=""width:200px; border:14px solid green;"">","null","","","","","",""
"5639","","image-keyboard-response","123","445600","0.0-123.0","3E4GGUZ1T9DKNRRTHVIER0XZBY12K6","A24IWWIUPASCQJ","33K3E8REWWHZ7MUV5T1222MGO9NX8Q","","","img/flower4.png","74","5643","1","1","1","",""
"null","","html-keyboard-response","124","445913","0.0-124.0","3E4GGUZ1T9DKNRRTHVIER0XZBY12K6","A24IWWIUPASCQJ","33K3E8REWWHZ7MUV5T1222MGO9NX8Q","","","<img src=""img/flower4.png"" style=""width:200px; border:14px solid green;"">","null","","","","","",""
"3168","","instructions","125","449081","0.0-125.0","3E4GGUZ1T9DKNRRTHVIER0XZBY12K6","A24IWWIUPASCQJ","33K3E8REWWHZ7MUV5T1222MGO9NX8Q","","[{""page_index"":0,""viewing_time"":3168}]","","","","","","","",""
"2007","","image-keyboard-response","126","451090","0.0-126.0","3E4GGUZ1T9DKNRRTHVIER0XZBY12K6","A24IWWIUPASCQJ","33K3E8REWWHZ7MUV5T1222MGO9NX8Q","","","img/flower4.png","74","2010","1","0","3","0.7,0.2,0,0,0.7,0.2,0.2,0,0.7",""
"null","","html-keyboard-response","127","451395","0.0-127.0","3E4GGUZ1T9DKNRRTHVIER0XZBY12K6","A24IWWIUPASCQJ","33K3E8REWWHZ7MUV5T1222MGO9NX8Q","","","<img src=""img/flower4.png"" style=""width:200px;border:14px solid red;"">","null","","","","","",""
"2361","","image-keyboard-response","128","453758","0.0-128.0","3E4GGUZ1T9DKNRRTHVIER0XZBY12K6","A24IWWIUPASCQJ","33K3E8REWWHZ7MUV5T1222MGO9NX8Q","","","img/flower4.png","74","2363","1","1","3","0.7,0.2,0,0,0.7,0.2,0.2,0,0.7",""
"null","","html-keyboard-response","129","454067","0.0-129.0","3E4GGUZ1T9DKNRRTHVIER0XZBY12K6","A24IWWIUPASCQJ","33K3E8REWWHZ7MUV5T1222MGO9NX8Q","","","<img src=""img/flower4.png"" style=""width:200px; border:14px solid green;"">","null","","","","","",""
"1998","","image-keyboard-response","130","456081","0.0-130.0","3E4GGUZ1T9DKNRRTHVIER0XZBY12K6","A24IWWIUPASCQJ","33K3E8REWWHZ7MUV5T1222MGO9NX8Q","","","img/flower5.png","75","2014","2","1","1","0.7,0.2,0,0,0.7,0.2,0.2,0,0.7",""
"null","","html-keyboard-response","131","456395","0.0-131.0","3E4GGUZ1T9DKNRRTHVIER0XZBY12K6","A24IWWIUPASCQJ","33K3E8REWWHZ7MUV5T1222MGO9NX8Q","","","<img src=""img/flower5.png"" style=""width:200px; border:14px solid green;"">","null","","","","","",""
"2623","","image-keyboard-response","132","459020","0.0-132.0","3E4GGUZ1T9DKNRRTHVIER0XZBY12K6","A24IWWIUPASCQJ","33K3E8REWWHZ7MUV5T1222MGO9NX8Q","","","img/flower4.png","74","2625","1","1","3","0.7,0.2,0,0,0.7,0.2,0.2,0,0.7",""
"null","","html-keyboard-response","133","459332","0.0-133.0","3E4GGUZ1T9DKNRRTHVIER0XZBY12K6","A24IWWIUPASCQJ","33K3E8REWWHZ7MUV5T1222MGO9NX8Q","","","<img src=""img/flower4.png"" style=""width:200px; border:14px solid green;"">","null","","","","","",""
"4295","","image-keyboard-response","134","463644","0.0-134.0","3E4GGUZ1T9DKNRRTHVIER0XZBY12K6","A24IWWIUPASCQJ","33K3E8REWWHZ7MUV5T1222MGO9NX8Q","","","img/flower2.png","75","4312","2","0","2","0.7,0.2,0,0,0.7,0.2,0.2,0,0.7",""
"null","","html-keyboard-response","135","463958","0.0-135.0","3E4GGUZ1T9DKNRRTHVIER0XZBY12K6","A24IWWIUPASCQJ","33K3E8REWWHZ7MUV5T1222MGO9NX8Q","","","<img src=""img/flower2.png"" style=""width:200px;border:14px solid red;"">","null","","","","","",""
"4295","","image-keyboard-response","136","468258","0.0-136.0","3E4GGUZ1T9DKNRRTHVIER0XZBY12K6","A24IWWIUPASCQJ","33K3E8REWWHZ7MUV5T1222MGO9NX8Q","","","img/flower2.png","75","4300","2","0","2","0.7,0.2,0,0,0.7,0.2,0.2,0,0.7",""
"null","","html-keyboard-response","137","468567","0.0-137.0","3E4GGUZ1T9DKNRRTHVIER0XZBY12K6","A24IWWIUPASCQJ","33K3E8REWWHZ7MUV5T1222MGO9NX8Q","","","<img src=""img/flower2.png"" style=""width:200px;border:14px solid red;"">","null","","","","","",""
"1888","","image-keyboard-response","138","470472","0.0-138.0","3E4GGUZ1T9DKNRRTHVIER0XZBY12K6","A24IWWIUPASCQJ","33K3E8REWWHZ7MUV5T1222MGO9NX8Q","","","img/flower5.png","75","1906","2","0","1","0.7,0.2,0,0,0.7,0.2,0.2,0,0.7",""
"null","","html-keyboard-response","139","470785","0.0-139.0","3E4GGUZ1T9DKNRRTHVIER0XZBY12K6","A24IWWIUPASCQJ","33K3E8REWWHZ7MUV5T1222MGO9NX8Q","","","<img src=""img/flower5.png"" style=""width:200px;border:14px solid red;"">","null","","","","","",""
"1499","","image-keyboard-response","140","472287","0.0-140.0","3E4GGUZ1T9DKNRRTHVIER0XZBY12K6","A24IWWIUPASCQJ","33K3E8REWWHZ7MUV5T1222MGO9NX8Q","","","img/flower4.png","74","1502","1","0","3","0.7,0.2,0,0,0.7,0.2,0.2,0,0.7",""
"null","","html-keyboard-response","141","472598","0.0-141.0","3E4GGUZ1T9DKNRRTHVIER0XZBY12K6","A24IWWIUPASCQJ","33K3E8REWWHZ7MUV5T1222MGO9NX8Q","","","<img src=""img/flower4.png"" style=""width:200px;border:14px solid red;"">","null","","","","","",""
"2951","","image-keyboard-response","142","475560","0.0-142.0","3E4GGUZ1T9DKNRRTHVIER0XZBY12K6","A24IWWIUPASCQJ","33K3E8REWWHZ7MUV5T1222MGO9NX8Q","","","img/flower5.png","75","2962","2","0","1","0.7,0.2,0,0,0.7,0.2,0.2,0,0.7",""
"null","","html-keyboard-response","143","475863","0.0-143.0","3E4GGUZ1T9DKNRRTHVIER0XZBY12K6","A24IWWIUPASCQJ","33K3E8REWWHZ7MUV5T1222MGO9NX8Q","","","<img src=""img/flower5.png"" style=""width:200px;border:14px solid red;"">","null","","","","","",""
"4045","","image-keyboard-response","144","479923","0.0-144.0","3E4GGUZ1T9DKNRRTHVIER0XZBY12K6","A24IWWIUPASCQJ","33K3E8REWWHZ7MUV5T1222MGO9NX8Q","","","img/flower5.png","76","4059","3","0","1","0.7,0.2,0,0,0.7,0.2,0.2,0,0.7",""
"null","","html-keyboard-response","145","480238","0.0-145.0","3E4GGUZ1T9DKNRRTHVIER0XZBY12K6","A24IWWIUPASCQJ","33K3E8REWWHZ7MUV5T1222MGO9NX8Q","","","<img src=""img/flower5.png"" style=""width:200px;border:14px solid red;"">","null","","","","","",""
"3092","","image-keyboard-response","146","483343","0.0-146.0","3E4GGUZ1T9DKNRRTHVIER0XZBY12K6","A24IWWIUPASCQJ","33K3E8REWWHZ7MUV5T1222MGO9NX8Q","","","img/flower2.png","75","3105","2","1","2","0.7,0.2,0,0,0.7,0.2,0.2,0,0.7",""
"null","","html-keyboard-response","147","483660","0.0-147.0","3E4GGUZ1T9DKNRRTHVIER0XZBY12K6","A24IWWIUPASCQJ","33K3E8REWWHZ7MUV5T1222MGO9NX8Q","","","<img src=""img/flower2.png"" style=""width:200px; border:14px solid green;"">","null","","","","","",""
"3561","","image-keyboard-response","148","487238","0.0-148.0","3E4GGUZ1T9DKNRRTHVIER0XZBY12K6","A24IWWIUPASCQJ","33K3E8REWWHZ7MUV5T1222MGO9NX8Q","","","img/flower5.png","75","3578","2","0","1","0.7,0.2,0,0,0.7,0.2,0.2,0,0.7",""
"null","","html-keyboard-response","149","487550","0.0-149.0","3E4GGUZ1T9DKNRRTHVIER0XZBY12K6","A24IWWIUPASCQJ","33K3E8REWWHZ7MUV5T1222MGO9NX8Q","","","<img src=""img/flower5.png"" style=""width:200px;border:14px solid red;"">","null","","","","","",""
"3092","","image-keyboard-response","150","490658","0.0-150.0","3E4GGUZ1T9DKNRRTHVIER0XZBY12K6","A24IWWIUPASCQJ","33K3E8REWWHZ7MUV5T1222MGO9NX8Q","","","img/flower4.png","74","3108","1","0","3","0.7,0.2,0,0,0.7,0.2,0.2,0,0.7",""
"null","","html-keyboard-response","151","490974","0.0-151.0","3E4GGUZ1T9DKNRRTHVIER0XZBY12K6","A24IWWIUPASCQJ","33K3E8REWWHZ7MUV5T1222MGO9NX8Q","","","<img src=""img/flower4.png"" style=""width:200px;border:14px solid red;"">","null","","","","","",""
"3061","","image-keyboard-response","152","494069","0.0-152.0","3E4GGUZ1T9DKNRRTHVIER0XZBY12K6","A24IWWIUPASCQJ","33K3E8REWWHZ7MUV5T1222MGO9NX8Q","","","img/flower2.png","75","3095","2","1","2","0.7,0.2,0,0,0.7,0.2,0.2,0,0.7",""
"null","","html-keyboard-response","153","494379","0.0-153.0","3E4GGUZ1T9DKNRRTHVIER0XZBY12K6","A24IWWIUPASCQJ","33K3E8REWWHZ7MUV5T1222MGO9NX8Q","","","<img src=""img/flower2.png"" style=""width:200px; border:14px solid green;"">","null","","","","","",""
"4139","","image-keyboard-response","154","498526","0.0-154.0","3E4GGUZ1T9DKNRRTHVIER0XZBY12K6","A24IWWIUPASCQJ","33K3E8REWWHZ7MUV5T1222MGO9NX8Q","","","img/flower4.png","74","4146","1","1","3","0.7,0.2,0,0,0.7,0.2,0.2,0,0.7",""
"null","","html-keyboard-response","155","498848","0.0-155.0","3E4GGUZ1T9DKNRRTHVIER0XZBY12K6","A24IWWIUPASCQJ","33K3E8REWWHZ7MUV5T1222MGO9NX8Q","","","<img src=""img/flower4.png"" style=""width:200px; border:14px solid green;"">","null","","","","","",""
"6229","","image-keyboard-response","156","505086","0.0-156.0","3E4GGUZ1T9DKNRRTHVIER0XZBY12K6","A24IWWIUPASCQJ","33K3E8REWWHZ7MUV5T1222MGO9NX8Q","","","img/flower4.png","74","6229","1","0","3","0.7,0.2,0,0,0.7,0.2,0.2,0,0.7",""
"null","","html-keyboard-response","157","505395","0.0-157.0","3E4GGUZ1T9DKNRRTHVIER0XZBY12K6","A24IWWIUPASCQJ","33K3E8REWWHZ7MUV5T1222MGO9NX8Q","","","<img src=""img/flower4.png"" style=""width:200px;border:14px solid red;"">","null","","","","","",""
"2685","","image-keyboard-response","158","508089","0.0-158.0","3E4GGUZ1T9DKNRRTHVIER0XZBY12K6","A24IWWIUPASCQJ","33K3E8REWWHZ7MUV5T1222MGO9NX8Q","","","img/flower2.png","75","2694","2","1","2","0.7,0.2,0,0,0.7,0.2,0.2,0,0.7",""
"null","","html-keyboard-response","159","508396","0.0-159.0","3E4GGUZ1T9DKNRRTHVIER0XZBY12K6","A24IWWIUPASCQJ","33K3E8REWWHZ7MUV5T1222MGO9NX8Q","","","<img src=""img/flower2.png"" style=""width:200px; border:14px solid green;"">","null","","","","","",""
"4028","","image-keyboard-response","160","512435","0.0-160.0","3E4GGUZ1T9DKNRRTHVIER0XZBY12K6","A24IWWIUPASCQJ","33K3E8REWWHZ7MUV5T1222MGO9NX8Q","","","img/flower4.png","74","4039","1","0","3","0.7,0.2,0,0,0.7,0.2,0.2,0,0.7",""
"null","","html-keyboard-response","161","512738","0.0-161.0","3E4GGUZ1T9DKNRRTHVIER0XZBY12K6","A24IWWIUPASCQJ","33K3E8REWWHZ7MUV5T1222MGO9NX8Q","","","<img src=""img/flower4.png"" style=""width:200px;border:14px solid red;"">","null","","","","","",""
"3577","","image-keyboard-response","162","516329","0.0-162.0","3E4GGUZ1T9DKNRRTHVIER0XZBY12K6","A24IWWIUPASCQJ","33K3E8REWWHZ7MUV5T1222MGO9NX8Q","","","img/flower4.png","74","3591","1","0","3","0.7,0.2,0,0,0.7,0.2,0.2,0,0.7",""
"null","","html-keyboard-response","163","516645","0.0-163.0","3E4GGUZ1T9DKNRRTHVIER0XZBY12K6","A24IWWIUPASCQJ","33K3E8REWWHZ7MUV5T1222MGO9NX8Q","","","<img src=""img/flower4.png"" style=""width:200px;border:14px solid red;"">","null","","","","","",""
"2857","","image-keyboard-response","164","519514","0.0-164.0","3E4GGUZ1T9DKNRRTHVIER0XZBY12K6","A24IWWIUPASCQJ","33K3E8REWWHZ7MUV5T1222MGO9NX8Q","","","img/flower4.png","74","2869","1","0","3","0.7,0.2,0,0,0.7,0.2,0.2,0,0.7",""
"null","","html-keyboard-response","165","519816","0.0-165.0","3E4GGUZ1T9DKNRRTHVIER0XZBY12K6","A24IWWIUPASCQJ","33K3E8REWWHZ7MUV5T1222MGO9NX8Q","","","<img src=""img/flower4.png"" style=""width:200px;border:14px solid red;"">","null","","","","","",""
"1014","","image-keyboard-response","166","520834","0.0-166.0","3E4GGUZ1T9DKNRRTHVIER0XZBY12K6","A24IWWIUPASCQJ","33K3E8REWWHZ7MUV5T1222MGO9NX8Q","","","img/flower5.png","75","1018","2","1","1","0.7,0.2,0,0,0.7,0.2,0.2,0,0.7",""
"null","","html-keyboard-response","167","521152","0.0-167.0","3E4GGUZ1T9DKNRRTHVIER0XZBY12K6","A24IWWIUPASCQJ","33K3E8REWWHZ7MUV5T1222MGO9NX8Q","","","<img src=""img/flower5.png"" style=""width:200px; border:14px solid green;"">","null","","","","","",""
"2101","","image-keyboard-response","168","523260","0.0-168.0","3E4GGUZ1T9DKNRRTHVIER0XZBY12K6","A24IWWIUPASCQJ","33K3E8REWWHZ7MUV5T1222MGO9NX8Q","","","img/flower5.png","75","2109","2","0","1","0.7,0.2,0,0,0.7,0.2,0.2,0,0.7",""
"null","","html-keyboard-response","169","523567","0.0-169.0","3E4GGUZ1T9DKNRRTHVIER0XZBY12K6","A24IWWIUPASCQJ","33K3E8REWWHZ7MUV5T1222MGO9NX8Q","","","<img src=""img/flower5.png"" style=""width:200px;border:14px solid red;"">","null","","","","","",""
"3483","","image-keyboard-response","170","527058","0.0-170.0","3E4GGUZ1T9DKNRRTHVIER0XZBY12K6","A24IWWIUPASCQJ","33K3E8REWWHZ7MUV5T1222MGO9NX8Q","","","img/flower5.png","75","3491","2","0","1","0.7,0.2,0,0,0.7,0.2,0.2,0,0.7",""
"null","","html-keyboard-response","171","527364","0.0-171.0","3E4GGUZ1T9DKNRRTHVIER0XZBY12K6","A24IWWIUPASCQJ","33K3E8REWWHZ7MUV5T1222MGO9NX8Q","","","<img src=""img/flower5.png"" style=""width:200px;border:14px solid red;"">","null","","","","","",""
"1530","","image-keyboard-response","172","528908","0.0-172.0","3E4GGUZ1T9DKNRRTHVIER0XZBY12K6","A24IWWIUPASCQJ","33K3E8REWWHZ7MUV5T1222MGO9NX8Q","","","img/flower2.png","76","1544","3","1","2","0.7,0.2,0,0,0.7,0.2,0.2,0,0.7",""
"null","","html-keyboard-response","173","529223","0.0-173.0","3E4GGUZ1T9DKNRRTHVIER0XZBY12K6","A24IWWIUPASCQJ","33K3E8REWWHZ7MUV5T1222MGO9NX8Q","","","<img src=""img/flower2.png"" style=""width:200px; border:14px solid green;"">","null","","","","","",""
"3858","","image-keyboard-response","174","533098","0.0-174.0","3E4GGUZ1T9DKNRRTHVIER0XZBY12K6","A24IWWIUPASCQJ","33K3E8REWWHZ7MUV5T1222MGO9NX8Q","","","img/flower2.png","76","3875","3","1","2","0.7,0.2,0,0,0.7,0.2,0.2,0,0.7",""
"null","","html-keyboard-response","175","533410","0.0-175.0","3E4GGUZ1T9DKNRRTHVIER0XZBY12K6","A24IWWIUPASCQJ","33K3E8REWWHZ7MUV5T1222MGO9NX8Q","","","<img src=""img/flower2.png"" style=""width:200px; border:14px solid green;"">","null","","","","","",""
"4139","","image-keyboard-response","176","537561","0.0-176.0","3E4GGUZ1T9DKNRRTHVIER0XZBY12K6","A24IWWIUPASCQJ","33K3E8REWWHZ7MUV5T1222MGO9NX8Q","","","img/flower2.png","76","4151","3","0","2","0.7,0.2,0,0,0.7,0.2,0.2,0,0.7",""
"null","","html-keyboard-response","177","537863","0.0-177.0","3E4GGUZ1T9DKNRRTHVIER0XZBY12K6","A24IWWIUPASCQJ","33K3E8REWWHZ7MUV5T1222MGO9NX8Q","","","<img src=""img/flower2.png"" style=""width:200px;border:14px solid red;"">","null","","","","","",""
"3092","","image-keyboard-response","178","540960","0.0-178.0","3E4GGUZ1T9DKNRRTHVIER0XZBY12K6","A24IWWIUPASCQJ","33K3E8REWWHZ7MUV5T1222MGO9NX8Q","","","img/flower2.png","76","3097","3","0","2","0.7,0.2,0,0,0.7,0.2,0.2,0,0.7",""
"null","","html-keyboard-response","179","541270","0.0-179.0","3E4GGUZ1T9DKNRRTHVIER0XZBY12K6","A24IWWIUPASCQJ","33K3E8REWWHZ7MUV5T1222MGO9NX8Q","","","<img src=""img/flower2.png"" style=""width:200px;border:14px solid red;"">","null","","","","","",""
"1795","","image-keyboard-response","180","543069","0.0-180.0","3E4GGUZ1T9DKNRRTHVIER0XZBY12K6","A24IWWIUPASCQJ","33K3E8REWWHZ7MUV5T1222MGO9NX8Q","","","img/flower5.png","75","1798","2","0","1","0.7,0.2,0,0,0.7,0.2,0.2,0,0.7",""
"null","","html-keyboard-response","181","543395","0.0-181.0","3E4GGUZ1T9DKNRRTHVIER0XZBY12K6","A24IWWIUPASCQJ","33K3E8REWWHZ7MUV5T1222MGO9NX8Q","","","<img src=""img/flower5.png"" style=""width:200px;border:14px solid red;"">","null","","","","","",""
"2607","","image-keyboard-response","182","546011","0.0-182.0","3E4GGUZ1T9DKNRRTHVIER0XZBY12K6","A24IWWIUPASCQJ","33K3E8REWWHZ7MUV5T1222MGO9NX8Q","","","img/flower2.png","75","2616","2","1","2","0.7,0.2,0,0,0.7,0.2,0.2,0,0.7",""
"null","","html-keyboard-response","183","546317","0.0-183.0","3E4GGUZ1T9DKNRRTHVIER0XZBY12K6","A24IWWIUPASCQJ","33K3E8REWWHZ7MUV5T1222MGO9NX8Q","","","<img src=""img/flower2.png"" style=""width:200px; border:14px solid green;"">","null","","","","","",""
"3639","","image-keyboard-response","184","549971","0.0-184.0","3E4GGUZ1T9DKNRRTHVIER0XZBY12K6","A24IWWIUPASCQJ","33K3E8REWWHZ7MUV5T1222MGO9NX8Q","","","img/flower5.png","75","3654","2","1","1","0.7,0.2,0,0,0.7,0.2,0.2,0,0.7",""
"null","","html-keyboard-response","185","550286","0.0-185.0","3E4GGUZ1T9DKNRRTHVIER0XZBY12K6","A24IWWIUPASCQJ","33K3E8REWWHZ7MUV5T1222MGO9NX8Q","","","<img src=""img/flower5.png"" style=""width:200px; border:14px solid green;"">","null","","","","","",""
"2795","","image-keyboard-response","186","553096","0.0-186.0","3E4GGUZ1T9DKNRRTHVIER0XZBY12K6","A24IWWIUPASCQJ","33K3E8REWWHZ7MUV5T1222MGO9NX8Q","","","img/flower5.png","75","2810","2","0","1","0.7,0.2,0,0,0.7,0.2,0.2,0,0.7",""
"null","","html-keyboard-response","187","553410","0.0-187.0","3E4GGUZ1T9DKNRRTHVIER0XZBY12K6","A24IWWIUPASCQJ","33K3E8REWWHZ7MUV5T1222MGO9NX8Q","","","<img src=""img/flower5.png"" style=""width:200px;border:14px solid red;"">","null","","","","","",""
"2675","","image-keyboard-response","188","556086","0.0-188.0","3E4GGUZ1T9DKNRRTHVIER0XZBY12K6","A24IWWIUPASCQJ","33K3E8REWWHZ7MUV5T1222MGO9NX8Q","","","img/flower5.png","75","2676","2","1","1","0.7,0.2,0,0,0.7,0.2,0.2,0,0.7",""
"null","","html-keyboard-response","189","556395","0.0-189.0","3E4GGUZ1T9DKNRRTHVIER0XZBY12K6","A24IWWIUPASCQJ","33K3E8REWWHZ7MUV5T1222MGO9NX8Q","","","<img src=""img/flower5.png"" style=""width:200px; border:14px solid green;"">","null","","","","","",""
"2811","","image-keyboard-response","190","559208","0.0-190.0","3E4GGUZ1T9DKNRRTHVIER0XZBY12K6","A24IWWIUPASCQJ","33K3E8REWWHZ7MUV5T1222MGO9NX8Q","","","img/flower5.png","75","2813","2","0","1","0.7,0.2,0,0,0.7,0.2,0.2,0,0.7",""
"null","","html-keyboard-response","191","559520","0.0-191.0","3E4GGUZ1T9DKNRRTHVIER0XZBY12K6","A24IWWIUPASCQJ","33K3E8REWWHZ7MUV5T1222MGO9NX8Q","","","<img src=""img/flower5.png"" style=""width:200px;border:14px solid red;"">","null","","","","","",""
"2466","","image-keyboard-response","192","562000","0.0-192.0","3E4GGUZ1T9DKNRRTHVIER0XZBY12K6","A24IWWIUPASCQJ","33K3E8REWWHZ7MUV5T1222MGO9NX8Q","","","img/flower2.png","76","2480","3","0","2","0.7,0.2,0,0,0.7,0.2,0.2,0,0.7",""
"null","","html-keyboard-response","193","562316","0.0-193.0","3E4GGUZ1T9DKNRRTHVIER0XZBY12K6","A24IWWIUPASCQJ","33K3E8REWWHZ7MUV5T1222MGO9NX8Q","","","<img src=""img/flower2.png"" style=""width:200px;border:14px solid red;"">","null","","","","","",""
"1718","","image-keyboard-response","194","564045","0.0-194.0","3E4GGUZ1T9DKNRRTHVIER0XZBY12K6","A24IWWIUPASCQJ","33K3E8REWWHZ7MUV5T1222MGO9NX8Q","","","img/flower4.png","74","1729","1","0","3","0.7,0.2,0,0,0.7,0.2,0.2,0,0.7",""
"null","","html-keyboard-response","195","564348","0.0-195.0","3E4GGUZ1T9DKNRRTHVIER0XZBY12K6","A24IWWIUPASCQJ","33K3E8REWWHZ7MUV5T1222MGO9NX8Q","","","<img src=""img/flower4.png"" style=""width:200px;border:14px solid red;"">","null","","","","","",""
"1467","","image-keyboard-response","196","565825","0.0-196.0","3E4GGUZ1T9DKNRRTHVIER0XZBY12K6","A24IWWIUPASCQJ","33K3E8REWWHZ7MUV5T1222MGO9NX8Q","","","img/flower2.png","75","1477","2","1","2","0.7,0.2,0,0,0.7,0.2,0.2,0,0.7",""
"null","","html-keyboard-response","197","566131","0.0-197.0","3E4GGUZ1T9DKNRRTHVIER0XZBY12K6","A24IWWIUPASCQJ","33K3E8REWWHZ7MUV5T1222MGO9NX8Q","","","<img src=""img/flower2.png"" style=""width:200px; border:14px solid green;"">","null","","","","","",""
"2731","","image-keyboard-response","198","568877","0.0-198.0","3E4GGUZ1T9DKNRRTHVIER0XZBY12K6","A24IWWIUPASCQJ","33K3E8REWWHZ7MUV5T1222MGO9NX8Q","","","img/flower4.png","74","2745","1","0","3","0.7,0.2,0,0,0.7,0.2,0.2,0,0.7",""
"null","","html-keyboard-response","199","569193","0.0-199.0","3E4GGUZ1T9DKNRRTHVIER0XZBY12K6","A24IWWIUPASCQJ","33K3E8REWWHZ7MUV5T1222MGO9NX8Q","","","<img src=""img/flower4.png"" style=""width:200px;border:14px solid red;"">","null","","","","","",""
"1701","","image-keyboard-response","200","570905","0.0-200.0","3E4GGUZ1T9DKNRRTHVIER0XZBY12K6","A24IWWIUPASCQJ","33K3E8REWWHZ7MUV5T1222MGO9NX8Q","","","img/flower2.png","75","1712","2","1","2","0.7,0.2,0,0,0.7,0.2,0.2,0,0.7",""
"null","","html-keyboard-response","201","571223","0.0-201.0","3E4GGUZ1T9DKNRRTHVIER0XZBY12K6","A24IWWIUPASCQJ","33K3E8REWWHZ7MUV5T1222MGO9NX8Q","","","<img src=""img/flower2.png"" style=""width:200px; border:14px solid green;"">","null","","","","","",""
"2342","","image-keyboard-response","202","573572","0.0-202.0","3E4GGUZ1T9DKNRRTHVIER0XZBY12K6","A24IWWIUPASCQJ","33K3E8REWWHZ7MUV5T1222MGO9NX8Q","","","img/flower5.png","75","2349","2","1","1","0.7,0.2,0,0,0.7,0.2,0.2,0,0.7",""
"null","","html-keyboard-response","203","573879","0.0-203.0","3E4GGUZ1T9DKNRRTHVIER0XZBY12K6","A24IWWIUPASCQJ","33K3E8REWWHZ7MUV5T1222MGO9NX8Q","","","<img src=""img/flower5.png"" style=""width:200px; border:14px solid green;"">","null","","","","","",""
"2076","","image-keyboard-response","204","575958","0.0-204.0","3E4GGUZ1T9DKNRRTHVIER0XZBY12K6","A24IWWIUPASCQJ","33K3E8REWWHZ7MUV5T1222MGO9NX8Q","","","img/flower4.png","74","2078","1","0","3","0.7,0.2,0,0,0.7,0.2,0.2,0,0.7",""
"null","","html-keyboard-response","205","576270","0.0-205.0","3E4GGUZ1T9DKNRRTHVIER0XZBY12K6","A24IWWIUPASCQJ","33K3E8REWWHZ7MUV5T1222MGO9NX8Q","","","<img src=""img/flower4.png"" style=""width:200px;border:14px solid red;"">","null","","","","","",""
"2217","","image-keyboard-response","206","578492","0.0-206.0","3E4GGUZ1T9DKNRRTHVIER0XZBY12K6","A24IWWIUPASCQJ","33K3E8REWWHZ7MUV5T1222MGO9NX8Q","","","img/flower4.png","74","2222","1","0","3","0.7,0.2,0,0,0.7,0.2,0.2,0,0.7",""
"null","","html-keyboard-response","207","578801","0.0-207.0","3E4GGUZ1T9DKNRRTHVIER0XZBY12K6","A24IWWIUPASCQJ","33K3E8REWWHZ7MUV5T1222MGO9NX8Q","","","<img src=""img/flower4.png"" style=""width:200px;border:14px solid red;"">","null","","","","","",""
"1528","","image-keyboard-response","208","580335","0.0-208.0","3E4GGUZ1T9DKNRRTHVIER0XZBY12K6","A24IWWIUPASCQJ","33K3E8REWWHZ7MUV5T1222MGO9NX8Q","","","img/flower2.png","75","1533","2","0","2","0.7,0.2,0,0,0.7,0.2,0.2,0,0.7",""
"null","","html-keyboard-response","209","580645","0.0-209.0","3E4GGUZ1T9DKNRRTHVIER0XZBY12K6","A24IWWIUPASCQJ","33K3E8REWWHZ7MUV5T1222MGO9NX8Q","","","<img src=""img/flower2.png"" style=""width:200px;border:14px solid red;"">","null","","","","","",""
"2125","","image-keyboard-response","210","582772","0.0-210.0","3E4GGUZ1T9DKNRRTHVIER0XZBY12K6","A24IWWIUPASCQJ","33K3E8REWWHZ7MUV5T1222MGO9NX8Q","","","img/flower5.png","75","2127","2","0","1","0.7,0.2,0,0,0.7,0.2,0.2,0,0.7",""
"null","","html-keyboard-response","211","583082","0.0-211.0","3E4GGUZ1T9DKNRRTHVIER0XZBY12K6","A24IWWIUPASCQJ","33K3E8REWWHZ7MUV5T1222MGO9NX8Q","","","<img src=""img/flower5.png"" style=""width:200px;border:14px solid red;"">","null","","","","","",""
"1717","","image-keyboard-response","212","584815","0.0-212.0","3E4GGUZ1T9DKNRRTHVIER0XZBY12K6","A24IWWIUPASCQJ","33K3E8REWWHZ7MUV5T1222MGO9NX8Q","","","img/flower2.png","75","1734","2","1","2","0.7,0.2,0,0,0.7,0.2,0.2,0,0.7",""
"null","","html-keyboard-response","213","585129","0.0-213.0","3E4GGUZ1T9DKNRRTHVIER0XZBY12K6","A24IWWIUPASCQJ","33K3E8REWWHZ7MUV5T1222MGO9NX8Q","","","<img src=""img/flower2.png"" style=""width:200px; border:14px solid green;"">","null","","","","","",""
"3280","","image-keyboard-response","214","588414","0.0-214.0","3E4GGUZ1T9DKNRRTHVIER0XZBY12K6","A24IWWIUPASCQJ","33K3E8REWWHZ7MUV5T1222MGO9NX8Q","","","img/flower5.png","75","3285","2","1","1","0.7,0.2,0,0,0.7,0.2,0.2,0,0.7",""
"null","","html-keyboard-response","215","588723","0.0-215.0","3E4GGUZ1T9DKNRRTHVIER0XZBY12K6","A24IWWIUPASCQJ","33K3E8REWWHZ7MUV5T1222MGO9NX8Q","","","<img src=""img/flower5.png"" style=""width:200px; border:14px solid green;"">","null","","","","","",""
"2810","","image-keyboard-response","216","591541","0.0-216.0","3E4GGUZ1T9DKNRRTHVIER0XZBY12K6","A24IWWIUPASCQJ","33K3E8REWWHZ7MUV5T1222MGO9NX8Q","","","img/flower2.png","75","2818","2","1","2","0.7,0.2,0,0,0.7,0.2,0.2,0,0.7",""
"null","","html-keyboard-response","217","591848","0.0-217.0","3E4GGUZ1T9DKNRRTHVIER0XZBY12K6","A24IWWIUPASCQJ","33K3E8REWWHZ7MUV5T1222MGO9NX8Q","","","<img src=""img/flower2.png"" style=""width:200px; border:14px solid green;"">","null","","","","","",""
"2920","","image-keyboard-response","218","594778","0.0-218.0","3E4GGUZ1T9DKNRRTHVIER0XZBY12K6","A24IWWIUPASCQJ","33K3E8REWWHZ7MUV5T1222MGO9NX8Q","","","img/flower5.png","75","2930","2","0","1","0.7,0.2,0,0,0.7,0.2,0.2,0,0.7",""
"null","","html-keyboard-response","219","595079","0.0-219.0","3E4GGUZ1T9DKNRRTHVIER0XZBY12K6","A24IWWIUPASCQJ","33K3E8REWWHZ7MUV5T1222MGO9NX8Q","","","<img src=""img/flower5.png"" style=""width:200px;border:14px solid red;"">","null","","","","","",""
"1970","","image-keyboard-response","220","597063","0.0-220.0","3E4GGUZ1T9DKNRRTHVIER0XZBY12K6","A24IWWIUPASCQJ","33K3E8REWWHZ7MUV5T1222MGO9NX8Q","","","img/flower2.png","75","1984","2","1","2","0.7,0.2,0,0,0.7,0.2,0.2,0,0.7",""
"null","","html-keyboard-response","221","597380","0.0-221.0","3E4GGUZ1T9DKNRRTHVIER0XZBY12K6","A24IWWIUPASCQJ","33K3E8REWWHZ7MUV5T1222MGO9NX8Q","","","<img src=""img/flower2.png"" style=""width:200px; border:14px solid green;"">","null","","","","","",""
"3123","","image-keyboard-response","222","600505","0.0-222.0","3E4GGUZ1T9DKNRRTHVIER0XZBY12K6","A24IWWIUPASCQJ","33K3E8REWWHZ7MUV5T1222MGO9NX8Q","","","img/flower2.png","75","3125","2","0","2","0.7,0.2,0,0,0.7,0.2,0.2,0,0.7",""
"null","","html-keyboard-response","223","600807","0.0-223.0","3E4GGUZ1T9DKNRRTHVIER0XZBY12K6","A24IWWIUPASCQJ","33K3E8REWWHZ7MUV5T1222MGO9NX8Q","","","<img src=""img/flower2.png"" style=""width:200px;border:14px solid red;"">","null","","","","","",""
"2116","","image-keyboard-response","224","602938","0.0-224.0","3E4GGUZ1T9DKNRRTHVIER0XZBY12K6","A24IWWIUPASCQJ","33K3E8REWWHZ7MUV5T1222MGO9NX8Q","","","img/flower2.png","75","2130","2","0","2","0.7,0.2,0,0,0.7,0.2,0.2,0,0.7",""
"null","","html-keyboard-response","225","603254","0.0-225.0","3E4GGUZ1T9DKNRRTHVIER0XZBY12K6","A24IWWIUPASCQJ","33K3E8REWWHZ7MUV5T1222MGO9NX8Q","","","<img src=""img/flower2.png"" style=""width:200px;border:14px solid red;"">","null","","","","","",""
"1748","","image-keyboard-response","226","605013","0.0-226.0","3E4GGUZ1T9DKNRRTHVIER0XZBY12K6","A24IWWIUPASCQJ","33K3E8REWWHZ7MUV5T1222MGO9NX8Q","","","img/flower4.png","74","1759","1","0","3","0.7,0.2,0,0,0.7,0.2,0.2,0,0.7",""
"null","","html-keyboard-response","227","605318","0.0-227.0","3E4GGUZ1T9DKNRRTHVIER0XZBY12K6","A24IWWIUPASCQJ","33K3E8REWWHZ7MUV5T1222MGO9NX8Q","","","<img src=""img/flower4.png"" style=""width:200px;border:14px solid red;"">","null","","","","","",""
"2248","","image-keyboard-response","228","607568","0.0-228.0","3E4GGUZ1T9DKNRRTHVIER0XZBY12K6","A24IWWIUPASCQJ","33K3E8REWWHZ7MUV5T1222MGO9NX8Q","","","img/flower5.png","75","2250","2","0","1","0.7,0.2,0,0,0.7,0.2,0.2,0,0.7",""
"null","","html-keyboard-response","229","607879","0.0-229.0","3E4GGUZ1T9DKNRRTHVIER0XZBY12K6","A24IWWIUPASCQJ","33K3E8REWWHZ7MUV5T1222MGO9NX8Q","","","<img src=""img/flower5.png"" style=""width:200px;border:14px solid red;"">","null","","","","","",""
"2030","","image-keyboard-response","230","609918","0.0-230.0","3E4GGUZ1T9DKNRRTHVIER0XZBY12K6","A24IWWIUPASCQJ","33K3E8REWWHZ7MUV5T1222MGO9NX8Q","","","img/flower4.png","74","2039","1","0","3","0.7,0.2,0,0,0.7,0.2,0.2,0,0.7",""
"null","","html-keyboard-response","231","610224","0.0-231.0","3E4GGUZ1T9DKNRRTHVIER0XZBY12K6","A24IWWIUPASCQJ","33K3E8REWWHZ7MUV5T1222MGO9NX8Q","","","<img src=""img/flower4.png"" style=""width:200px;border:14px solid red;"">","null","","","","","",""
"2029","","image-keyboard-response","232","612266","0.0-232.0","3E4GGUZ1T9DKNRRTHVIER0XZBY12K6","A24IWWIUPASCQJ","33K3E8REWWHZ7MUV5T1222MGO9NX8Q","","","img/flower4.png","74","2042","1","1","3","0.7,0.2,0,0,0.7,0.2,0.2,0,0.7",""
"null","","html-keyboard-response","233","612582","0.0-233.0","3E4GGUZ1T9DKNRRTHVIER0XZBY12K6","A24IWWIUPASCQJ","33K3E8REWWHZ7MUV5T1222MGO9NX8Q","","","<img src=""img/flower4.png"" style=""width:200px; border:14px solid green;"">","null","","","","","",""
"1827","","image-keyboard-response","234","614416","0.0-234.0","3E4GGUZ1T9DKNRRTHVIER0XZBY12K6","A24IWWIUPASCQJ","33K3E8REWWHZ7MUV5T1222MGO9NX8Q","","","img/flower2.png","75","1834","2","0","2","0.7,0.2,0,0,0.7,0.2,0.2,0,0.7",""
"null","","html-keyboard-response","235","614724","0.0-235.0","3E4GGUZ1T9DKNRRTHVIER0XZBY12K6","A24IWWIUPASCQJ","33K3E8REWWHZ7MUV5T1222MGO9NX8Q","","","<img src=""img/flower2.png"" style=""width:200px;border:14px solid red;"">","null","","","","","",""
"4810","","image-keyboard-response","236","619536","0.0-236.0","3E4GGUZ1T9DKNRRTHVIER0XZBY12K6","A24IWWIUPASCQJ","33K3E8REWWHZ7MUV5T1222MGO9NX8Q","","","img/flower4.png","74","4812","1","0","3","0.7,0.2,0,0,0.7,0.2,0.2,0,0.7",""
"null","","html-keyboard-response","237","619848","0.0-237.0","3E4GGUZ1T9DKNRRTHVIER0XZBY12K6","A24IWWIUPASCQJ","33K3E8REWWHZ7MUV5T1222MGO9NX8Q","","","<img src=""img/flower4.png"" style=""width:200px;border:14px solid red;"">","null","","","","","",""
"2045","","image-keyboard-response","238","621896","0.0-238.0","3E4GGUZ1T9DKNRRTHVIER0XZBY12K6","A24IWWIUPASCQJ","33K3E8REWWHZ7MUV5T1222MGO9NX8Q","","","img/flower4.png","74","2047","1","0","3","0.7,0.2,0,0,0.7,0.2,0.2,0,0.7",""
"null","","html-keyboard-response","239","622224","0.0-239.0","3E4GGUZ1T9DKNRRTHVIER0XZBY12K6","A24IWWIUPASCQJ","33K3E8REWWHZ7MUV5T1222MGO9NX8Q","","","<img src=""img/flower4.png"" style=""width:200px;border:14px solid red;"">","null","","","","","",""
"1841","","image-keyboard-response","240","624079","0.0-240.0","3E4GGUZ1T9DKNRRTHVIER0XZBY12K6","A24IWWIUPASCQJ","33K3E8REWWHZ7MUV5T1222MGO9NX8Q","","","img/flower2.png","75","1855","2","0","2","0.7,0.2,0,0,0.7,0.2,0.2,0,0.7",""
"null","","html-keyboard-response","241","624395","0.0-241.0","3E4GGUZ1T9DKNRRTHVIER0XZBY12K6","A24IWWIUPASCQJ","33K3E8REWWHZ7MUV5T1222MGO9NX8Q","","","<img src=""img/flower2.png"" style=""width:200px;border:14px solid red;"">","null","","","","","",""
"1357","","image-keyboard-response","242","625761","0.0-242.0","3E4GGUZ1T9DKNRRTHVIER0XZBY12K6","A24IWWIUPASCQJ","33K3E8REWWHZ7MUV5T1222MGO9NX8Q","","","img/flower5.png","75","1366","2","1","1","0.7,0.2,0,0,0.7,0.2,0.2,0,0.7",""
"null","","html-keyboard-response","243","626067","0.0-243.0","3E4GGUZ1T9DKNRRTHVIER0XZBY12K6","A24IWWIUPASCQJ","33K3E8REWWHZ7MUV5T1222MGO9NX8Q","","","<img src=""img/flower5.png"" style=""width:200px; border:14px solid green;"">","null","","","","","",""
"2497","","image-keyboard-response","244","628591","0.0-244.0","3E4GGUZ1T9DKNRRTHVIER0XZBY12K6","A24IWWIUPASCQJ","33K3E8REWWHZ7MUV5T1222MGO9NX8Q","","","img/flower4.png","74","2523","1","0","3","0.7,0.2,0,0,0.7,0.2,0.2,0,0.7",""
"null","","html-keyboard-response","245","628895","0.0-245.0","3E4GGUZ1T9DKNRRTHVIER0XZBY12K6","A24IWWIUPASCQJ","33K3E8REWWHZ7MUV5T1222MGO9NX8Q","","","<img src=""img/flower4.png"" style=""width:200px;border:14px solid red;"">","null","","","","","",""
"2529","","image-keyboard-response","246","631439","0.0-246.0","3E4GGUZ1T9DKNRRTHVIER0XZBY12K6","A24IWWIUPASCQJ","33K3E8REWWHZ7MUV5T1222MGO9NX8Q","","","img/flower5.png","75","2544","2","0","1","0.7,0.2,0,0,0.7,0.2,0.2,0,0.7",""
"null","","html-keyboard-response","247","631754","0.0-247.0","3E4GGUZ1T9DKNRRTHVIER0XZBY12K6","A24IWWIUPASCQJ","33K3E8REWWHZ7MUV5T1222MGO9NX8Q","","","<img src=""img/flower5.png"" style=""width:200px;border:14px solid red;"">","null","","","","","",""
"2280","","image-keyboard-response","248","634044","0.0-248.0","3E4GGUZ1T9DKNRRTHVIER0XZBY12K6","A24IWWIUPASCQJ","33K3E8REWWHZ7MUV5T1222MGO9NX8Q","","","img/flower4.png","74","2290","1","0","3","0.7,0.2,0,0,0.7,0.2,0.2,0,0.7",""
"null","","html-keyboard-response","249","634348","0.0-249.0","3E4GGUZ1T9DKNRRTHVIER0XZBY12K6","A24IWWIUPASCQJ","33K3E8REWWHZ7MUV5T1222MGO9NX8Q","","","<img src=""img/flower4.png"" style=""width:200px;border:14px solid red;"">","null","","","","","",""
"2075","","image-keyboard-response","250","636433","0.0-250.0","3E4GGUZ1T9DKNRRTHVIER0XZBY12K6","A24IWWIUPASCQJ","33K3E8REWWHZ7MUV5T1222MGO9NX8Q","","","img/flower5.png","75","2084","2","0","1","0.7,0.2,0,0,0.7,0.2,0.2,0,0.7",""
"null","","html-keyboard-response","251","636739","0.0-251.0","3E4GGUZ1T9DKNRRTHVIER0XZBY12K6","A24IWWIUPASCQJ","33K3E8REWWHZ7MUV5T1222MGO9NX8Q","","","<img src=""img/flower5.png"" style=""width:200px;border:14px solid red;"">","null","","","","","",""
"1341","","image-keyboard-response","252","638088","0.0-252.0","3E4GGUZ1T9DKNRRTHVIER0XZBY12K6","A24IWWIUPASCQJ","33K3E8REWWHZ7MUV5T1222MGO9NX8Q","","","img/flower2.png","76","1349","3","0","2","0.7,0.2,0,0,0.7,0.2,0.2,0,0.7",""
"null","","html-keyboard-response","253","638395","0.0-253.0","3E4GGUZ1T9DKNRRTHVIER0XZBY12K6","A24IWWIUPASCQJ","33K3E8REWWHZ7MUV5T1222MGO9NX8Q","","","<img src=""img/flower2.png"" style=""width:200px;border:14px solid red;"">","null","","","","","",""
"1810","","image-keyboard-response","254","640216","0.0-254.0","3E4GGUZ1T9DKNRRTHVIER0XZBY12K6","A24IWWIUPASCQJ","33K3E8REWWHZ7MUV5T1222MGO9NX8Q","","","img/flower5.png","75","1822","2","1","1","0.7,0.2,0,0,0.7,0.2,0.2,0,0.7",""
"null","","html-keyboard-response","255","640520","0.0-255.0","3E4GGUZ1T9DKNRRTHVIER0XZBY12K6","A24IWWIUPASCQJ","33K3E8REWWHZ7MUV5T1222MGO9NX8Q","","","<img src=""img/flower5.png"" style=""width:200px; border:14px solid green;"">","null","","","","","",""
"3029","","image-keyboard-response","256","643559","0.0-256.0","3E4GGUZ1T9DKNRRTHVIER0XZBY12K6","A24IWWIUPASCQJ","33K3E8REWWHZ7MUV5T1222MGO9NX8Q","","","img/flower4.png","74","3039","1","0","3","0.7,0.2,0,0,0.7,0.2,0.2,0,0.7",""
"null","","html-keyboard-response","257","643863","0.0-257.0","3E4GGUZ1T9DKNRRTHVIER0XZBY12K6","A24IWWIUPASCQJ","33K3E8REWWHZ7MUV5T1222MGO9NX8Q","","","<img src=""img/flower4.png"" style=""width:200px;border:14px solid red;"">","null","","","","","",""
"3405","","image-keyboard-response","258","647269","0.0-258.0","3E4GGUZ1T9DKNRRTHVIER0XZBY12K6","A24IWWIUPASCQJ","33K3E8REWWHZ7MUV5T1222MGO9NX8Q","","","img/flower4.png","74","3414","1","1","3","0.7,0.2,0,0,0.7,0.2,0.2,0,0.7",""
"null","","html-keyboard-response","259","647582","0.0-259.0","3E4GGUZ1T9DKNRRTHVIER0XZBY12K6","A24IWWIUPASCQJ","33K3E8REWWHZ7MUV5T1222MGO9NX8Q","","","<img src=""img/flower4.png"" style=""width:200px; border:14px solid green;"">","null","","","","","",""
"3327","","image-keyboard-response","260","650924","0.0-260.0","3E4GGUZ1T9DKNRRTHVIER0XZBY12K6","A24IWWIUPASCQJ","33K3E8REWWHZ7MUV5T1222MGO9NX8Q","","","img/flower5.png","76","3342","3","0","1","0.7,0.2,0,0,0.7,0.2,0.2,0,0.7",""
"null","","html-keyboard-response","261","651238","0.0-261.0","3E4GGUZ1T9DKNRRTHVIER0XZBY12K6","A24IWWIUPASCQJ","33K3E8REWWHZ7MUV5T1222MGO9NX8Q","","","<img src=""img/flower5.png"" style=""width:200px;border:14px solid red;"">","null","","","","","",""
"1932","","image-keyboard-response","262","653171","0.0-262.0","3E4GGUZ1T9DKNRRTHVIER0XZBY12K6","A24IWWIUPASCQJ","33K3E8REWWHZ7MUV5T1222MGO9NX8Q","","","img/flower2.png","75","1933","2","1","2","0.7,0.2,0,0,0.7,0.2,0.2,0,0.7",""
"null","","html-keyboard-response","263","653472","0.0-263.0","3E4GGUZ1T9DKNRRTHVIER0XZBY12K6","A24IWWIUPASCQJ","33K3E8REWWHZ7MUV5T1222MGO9NX8Q","","","<img src=""img/flower2.png"" style=""width:200px; border:14px solid green;"">","null","","","","","",""
"2404","","image-keyboard-response","264","655882","0.0-264.0","3E4GGUZ1T9DKNRRTHVIER0XZBY12K6","A24IWWIUPASCQJ","33K3E8REWWHZ7MUV5T1222MGO9NX8Q","","","img/flower5.png","75","2409","2","0","1","0.7,0.2,0,0,0.7,0.2,0.2,0,0.7",""
"null","","html-keyboard-response","265","656192","0.0-265.0","3E4GGUZ1T9DKNRRTHVIER0XZBY12K6","A24IWWIUPASCQJ","33K3E8REWWHZ7MUV5T1222MGO9NX8Q","","","<img src=""img/flower5.png"" style=""width:200px;border:14px solid red;"">","null","","","","","",""
"19451","","image-keyboard-response","266","675648","0.0-266.0","3E4GGUZ1T9DKNRRTHVIER0XZBY12K6","A24IWWIUPASCQJ","33K3E8REWWHZ7MUV5T1222MGO9NX8Q","","","img/flower2.png","75","19456","2","1","2","0.7,0.2,0,0,0.7,0.2,0.2,0,0.7",""
"null","","html-keyboard-response","267","675958","0.0-267.0","3E4GGUZ1T9DKNRRTHVIER0XZBY12K6","A24IWWIUPASCQJ","33K3E8REWWHZ7MUV5T1222MGO9NX8Q","","","<img src=""img/flower2.png"" style=""width:200px; border:14px solid green;"">","null","","","","","",""
"2373","","image-keyboard-response","268","678340","0.0-268.0","3E4GGUZ1T9DKNRRTHVIER0XZBY12K6","A24IWWIUPASCQJ","33K3E8REWWHZ7MUV5T1222MGO9NX8Q","","","img/flower4.png","74","2382","1","1","3","0.7,0.2,0,0,0.7,0.2,0.2,0,0.7",""
"null","","html-keyboard-response","269","678660","0.0-269.0","3E4GGUZ1T9DKNRRTHVIER0XZBY12K6","A24IWWIUPASCQJ","33K3E8REWWHZ7MUV5T1222MGO9NX8Q","","","<img src=""img/flower4.png"" style=""width:200px; border:14px solid green;"">","null","","","","","",""
"2514","","image-keyboard-response","270","681175","0.0-270.0","3E4GGUZ1T9DKNRRTHVIER0XZBY12K6","A24IWWIUPASCQJ","33K3E8REWWHZ7MUV5T1222MGO9NX8Q","","","img/flower2.png","75","2515","2","0","2","0.7,0.2,0,0,0.7,0.2,0.2,0,0.7",""
"null","","html-keyboard-response","271","681504","0.0-271.0","3E4GGUZ1T9DKNRRTHVIER0XZBY12K6","A24IWWIUPASCQJ","33K3E8REWWHZ7MUV5T1222MGO9NX8Q","","","<img src=""img/flower2.png"" style=""width:200px;border:14px solid red;"">","null","","","","","",""
"3314","","image-keyboard-response","272","684819","0.0-272.0","3E4GGUZ1T9DKNRRTHVIER0XZBY12K6","A24IWWIUPASCQJ","33K3E8REWWHZ7MUV5T1222MGO9NX8Q","","","img/flower2.png","75","3315","2","1","2","0.7,0.2,0,0,0.7,0.2,0.2,0,0.7",""
"null","","html-keyboard-response","273","685129","0.0-273.0","3E4GGUZ1T9DKNRRTHVIER0XZBY12K6","A24IWWIUPASCQJ","33K3E8REWWHZ7MUV5T1222MGO9NX8Q","","","<img src=""img/flower2.png"" style=""width:200px; border:14px solid green;"">","null","","","","","",""
"3342","","image-keyboard-response","274","688478","0.0-274.0","3E4GGUZ1T9DKNRRTHVIER0XZBY12K6","A24IWWIUPASCQJ","33K3E8REWWHZ7MUV5T1222MGO9NX8Q","","","img/flower4.png","74","3349","1","0","3","0.7,0.2,0,0,0.7,0.2,0.2,0,0.7",""
"null","","html-keyboard-response","275","688786","0.0-275.0","3E4GGUZ1T9DKNRRTHVIER0XZBY12K6","A24IWWIUPASCQJ","33K3E8REWWHZ7MUV5T1222MGO9NX8Q","","","<img src=""img/flower4.png"" style=""width:200px;border:14px solid red;"">","null","","","","","",""
"2482","","image-keyboard-response","276","691274","0.0-276.0","3E4GGUZ1T9DKNRRTHVIER0XZBY12K6","A24IWWIUPASCQJ","33K3E8REWWHZ7MUV5T1222MGO9NX8Q","","","img/flower5.png","75","2488","2","0","1","0.7,0.2,0,0,0.7,0.2,0.2,0,0.7",""
"null","","html-keyboard-response","277","691582","0.0-277.0","3E4GGUZ1T9DKNRRTHVIER0XZBY12K6","A24IWWIUPASCQJ","33K3E8REWWHZ7MUV5T1222MGO9NX8Q","","","<img src=""img/flower5.png"" style=""width:200px;border:14px solid red;"">","null","","","","","",""
"3889","","image-keyboard-response","278","695474","0.0-278.0","3E4GGUZ1T9DKNRRTHVIER0XZBY12K6","A24IWWIUPASCQJ","33K3E8REWWHZ7MUV5T1222MGO9NX8Q","","","img/flower2.png","75","3892","2","1","2","0.7,0.2,0,0,0.7,0.2,0.2,0,0.7",""
"null","","html-keyboard-response","279","695786","0.0-279.0","3E4GGUZ1T9DKNRRTHVIER0XZBY12K6","A24IWWIUPASCQJ","33K3E8REWWHZ7MUV5T1222MGO9NX8Q","","","<img src=""img/flower2.png"" style=""width:200px; border:14px solid green;"">","null","","","","","",""
"3310","","image-keyboard-response","280","699099","0.0-280.0","3E4GGUZ1T9DKNRRTHVIER0XZBY12K6","A24IWWIUPASCQJ","33K3E8REWWHZ7MUV5T1222MGO9NX8Q","","","img/flower5.png","75","3313","2","0","1","0.7,0.2,0,0,0.7,0.2,0.2,0,0.7",""
"null","","html-keyboard-response","281","699426","0.0-281.0","3E4GGUZ1T9DKNRRTHVIER0XZBY12K6","A24IWWIUPASCQJ","33K3E8REWWHZ7MUV5T1222MGO9NX8Q","","","<img src=""img/flower5.png"" style=""width:200px;border:14px solid red;"">","null","","","","","",""
"2404","","image-keyboard-response","282","701840","0.0-282.0","3E4GGUZ1T9DKNRRTHVIER0XZBY12K6","A24IWWIUPASCQJ","33K3E8REWWHZ7MUV5T1222MGO9NX8Q","","","img/flower5.png","75","2415","2","0","1","0.7,0.2,0,0,0.7,0.2,0.2,0,0.7",""
"null","","html-keyboard-response","283","702145","0.0-283.0","3E4GGUZ1T9DKNRRTHVIER0XZBY12K6","A24IWWIUPASCQJ","33K3E8REWWHZ7MUV5T1222MGO9NX8Q","","","<img src=""img/flower5.png"" style=""width:200px;border:14px solid red;"">","null","","","","","",""
"2357","","image-keyboard-response","284","704506","0.0-284.0","3E4GGUZ1T9DKNRRTHVIER0XZBY12K6","A24IWWIUPASCQJ","33K3E8REWWHZ7MUV5T1222MGO9NX8Q","","","img/flower5.png","75","2360","2","0","1","0.7,0.2,0,0,0.7,0.2,0.2,0,0.7",""
"null","","html-keyboard-response","285","704818","0.0-285.0","3E4GGUZ1T9DKNRRTHVIER0XZBY12K6","A24IWWIUPASCQJ","33K3E8REWWHZ7MUV5T1222MGO9NX8Q","","","<img src=""img/flower5.png"" style=""width:200px;border:14px solid red;"">","null","","","","","",""
"1841","","image-keyboard-response","286","706662","0.0-286.0","3E4GGUZ1T9DKNRRTHVIER0XZBY12K6","A24IWWIUPASCQJ","33K3E8REWWHZ7MUV5T1222MGO9NX8Q","","","img/flower5.png","75","1844","2","0","1","0.7,0.2,0,0,0.7,0.2,0.2,0,0.7",""
"null","","html-keyboard-response","287","706975","0.0-287.0","3E4GGUZ1T9DKNRRTHVIER0XZBY12K6","A24IWWIUPASCQJ","33K3E8REWWHZ7MUV5T1222MGO9NX8Q","","","<img src=""img/flower5.png"" style=""width:200px;border:14px solid red;"">","null","","","","","",""
"1834","","image-keyboard-response","288","708810","0.0-288.0","3E4GGUZ1T9DKNRRTHVIER0XZBY12K6","A24IWWIUPASCQJ","33K3E8REWWHZ7MUV5T1222MGO9NX8Q","","","img/flower4.png","74","1836","1","1","3","0.7,0.2,0,0,0.7,0.2,0.2,0,0.7",""
"null","","html-keyboard-response","289","709113","0.0-289.0","3E4GGUZ1T9DKNRRTHVIER0XZBY12K6","A24IWWIUPASCQJ","33K3E8REWWHZ7MUV5T1222MGO9NX8Q","","","<img src=""img/flower4.png"" style=""width:200px; border:14px solid green;"">","null","","","","","",""
"4827","","image-keyboard-response","290","713950","0.0-290.0","3E4GGUZ1T9DKNRRTHVIER0XZBY12K6","A24IWWIUPASCQJ","33K3E8REWWHZ7MUV5T1222MGO9NX8Q","","","img/flower4.png","74","4837","1","1","3","0.7,0.2,0,0,0.7,0.2,0.2,0,0.7",""
"null","","html-keyboard-response","291","714255","0.0-291.0","3E4GGUZ1T9DKNRRTHVIER0XZBY12K6","A24IWWIUPASCQJ","33K3E8REWWHZ7MUV5T1222MGO9NX8Q","","","<img src=""img/flower4.png"" style=""width:200px; border:14px solid green;"">","null","","","","","",""
"2669","","image-keyboard-response","292","716939","0.0-292.0","3E4GGUZ1T9DKNRRTHVIER0XZBY12K6","A24IWWIUPASCQJ","33K3E8REWWHZ7MUV5T1222MGO9NX8Q","","","img/flower4.png","74","2684","1","1","3","0.7,0.2,0,0,0.7,0.2,0.2,0,0.7",""
"null","","html-keyboard-response","293","717254","0.0-293.0","3E4GGUZ1T9DKNRRTHVIER0XZBY12K6","A24IWWIUPASCQJ","33K3E8REWWHZ7MUV5T1222MGO9NX8Q","","","<img src=""img/flower4.png"" style=""width:200px; border:14px solid green;"">","null","","","","","",""
"2826","","image-keyboard-response","294","720096","0.0-294.0","3E4GGUZ1T9DKNRRTHVIER0XZBY12K6","A24IWWIUPASCQJ","33K3E8REWWHZ7MUV5T1222MGO9NX8Q","","","img/flower2.png","75","2842","2","1","2","0.7,0.2,0,0,0.7,0.2,0.2,0,0.7",""
"null","","html-keyboard-response","295","720426","0.0-295.0","3E4GGUZ1T9DKNRRTHVIER0XZBY12K6","A24IWWIUPASCQJ","33K3E8REWWHZ7MUV5T1222MGO9NX8Q","","","<img src=""img/flower2.png"" style=""width:200px; border:14px solid green;"">","null","","","","","",""
"2812","","image-keyboard-response","296","723250","0.0-296.0","3E4GGUZ1T9DKNRRTHVIER0XZBY12K6","A24IWWIUPASCQJ","33K3E8REWWHZ7MUV5T1222MGO9NX8Q","","","img/flower5.png","75","2824","2","0","1","0.7,0.2,0,0,0.7,0.2,0.2,0,0.7",""
"null","","html-keyboard-response","297","723551","0.0-297.0","3E4GGUZ1T9DKNRRTHVIER0XZBY12K6","A24IWWIUPASCQJ","33K3E8REWWHZ7MUV5T1222MGO9NX8Q","","","<img src=""img/flower5.png"" style=""width:200px;border:14px solid red;"">","null","","","","","",""
"2435","","image-keyboard-response","298","726001","0.0-298.0","3E4GGUZ1T9DKNRRTHVIER0XZBY12K6","A24IWWIUPASCQJ","33K3E8REWWHZ7MUV5T1222MGO9NX8Q","","","img/flower4.png","75","2450","2","0","3","0.7,0.2,0,0,0.7,0.2,0.2,0,0.7",""
"null","","html-keyboard-response","299","726317","0.0-299.0","3E4GGUZ1T9DKNRRTHVIER0XZBY12K6","A24IWWIUPASCQJ","33K3E8REWWHZ7MUV5T1222MGO9NX8Q","","","<img src=""img/flower4.png"" style=""width:200px;border:14px solid red;"">","null","","","","","",""
"3061","","image-keyboard-response","300","729381","0.0-300.0","3E4GGUZ1T9DKNRRTHVIER0XZBY12K6","A24IWWIUPASCQJ","33K3E8REWWHZ7MUV5T1222MGO9NX8Q","","","img/flower4.png","75","3064","2","0","3","0.7,0.2,0,0,0.7,0.2,0.2,0,0.7",""
"null","","html-keyboard-response","301","729693","0.0-301.0","3E4GGUZ1T9DKNRRTHVIER0XZBY12K6","A24IWWIUPASCQJ","33K3E8REWWHZ7MUV5T1222MGO9NX8Q","","","<img src=""img/flower4.png"" style=""width:200px;border:14px solid red;"">","null","","","","","",""
"2825","","image-keyboard-response","302","732525","0.0-302.0","3E4GGUZ1T9DKNRRTHVIER0XZBY12K6","A24IWWIUPASCQJ","33K3E8REWWHZ7MUV5T1222MGO9NX8Q","","","img/flower2.png","75","2832","2","1","2","0.7,0.2,0,0,0.7,0.2,0.2,0,0.7",""
"null","","html-keyboard-response","303","732849","0.0-303.0","3E4GGUZ1T9DKNRRTHVIER0XZBY12K6","A24IWWIUPASCQJ","33K3E8REWWHZ7MUV5T1222MGO9NX8Q","","","<img src=""img/flower2.png"" style=""width:200px; border:14px solid green;"">","null","","","","","",""
"3575","","image-keyboard-response","304","736429","0.0-304.0","3E4GGUZ1T9DKNRRTHVIER0XZBY12K6","A24IWWIUPASCQJ","33K3E8REWWHZ7MUV5T1222MGO9NX8Q","","","img/flower2.png","75","3580","2","1","2","0.7,0.2,0,0,0.7,0.2,0.2,0,0.7",""
"null","","html-keyboard-response","305","736738","0.0-305.0","3E4GGUZ1T9DKNRRTHVIER0XZBY12K6","A24IWWIUPASCQJ","33K3E8REWWHZ7MUV5T1222MGO9NX8Q","","","<img src=""img/flower2.png"" style=""width:200px; border:14px solid green;"">","null","","","","","",""
"","","html-keyboard-response","306","740649","0.0-306.0","3E4GGUZ1T9DKNRRTHVIER0XZBY12K6","A24IWWIUPASCQJ","33K3E8REWWHZ7MUV5T1222MGO9NX8Q","","","","","","","","","",""
"2650","","image-keyboard-response","307","743317","0.0-307.0","3E4GGUZ1T9DKNRRTHVIER0XZBY12K6","A24IWWIUPASCQJ","33K3E8REWWHZ7MUV5T1222MGO9NX8Q","","","img/flower3.png","74","2668","1","1","2","0.7,0.2,0,0.7,0,0.2,0.2,0,0.7",""
"null","","html-keyboard-response","308","743629","0.0-308.0","3E4GGUZ1T9DKNRRTHVIER0XZBY12K6","A24IWWIUPASCQJ","33K3E8REWWHZ7MUV5T1222MGO9NX8Q","","","<img src=""img/flower3.png"" style=""width:200px; border:14px solid green;"">","null","","","","","",""
"2795","","image-keyboard-response","309","746439","0.0-309.0","3E4GGUZ1T9DKNRRTHVIER0XZBY12K6","A24IWWIUPASCQJ","33K3E8REWWHZ7MUV5T1222MGO9NX8Q","","","img/flower3.png","74","2810","1","0","2","0.7,0.2,0,0.7,0,0.2,0.2,0,0.7",""
"null","","html-keyboard-response","310","746754","0.0-310.0","3E4GGUZ1T9DKNRRTHVIER0XZBY12K6","A24IWWIUPASCQJ","33K3E8REWWHZ7MUV5T1222MGO9NX8Q","","","<img src=""img/flower3.png"" style=""width:200px;border:14px solid red;"">","null","","","","","",""
"2279","","image-keyboard-response","311","749049","0.0-311.0","3E4GGUZ1T9DKNRRTHVIER0XZBY12K6","A24IWWIUPASCQJ","33K3E8REWWHZ7MUV5T1222MGO9NX8Q","","","img/flower1.png","76","2295","3","1","3","0.7,0.2,0,0.7,0,0.2,0.2,0,0.7",""
"null","","html-keyboard-response","312","749364","0.0-312.0","3E4GGUZ1T9DKNRRTHVIER0XZBY12K6","A24IWWIUPASCQJ","33K3E8REWWHZ7MUV5T1222MGO9NX8Q","","","<img src=""img/flower1.png"" style=""width:200px; border:14px solid green;"">","null","","","","","",""
"2952","","image-keyboard-response","313","752330","0.0-313.0","3E4GGUZ1T9DKNRRTHVIER0XZBY12K6","A24IWWIUPASCQJ","33K3E8REWWHZ7MUV5T1222MGO9NX8Q","","","img/flower3.png","74","2966","1","1","2","0.7,0.2,0,0.7,0,0.2,0.2,0,0.7",""
"null","","html-keyboard-response","314","752644","0.0-314.0","3E4GGUZ1T9DKNRRTHVIER0XZBY12K6","A24IWWIUPASCQJ","33K3E8REWWHZ7MUV5T1222MGO9NX8Q","","","<img src=""img/flower3.png"" style=""width:200px; border:14px solid green;"">","null","","","","","",""
"2296","","image-keyboard-response","315","754949","0.0-315.0","3E4GGUZ1T9DKNRRTHVIER0XZBY12K6","A24IWWIUPASCQJ","33K3E8REWWHZ7MUV5T1222MGO9NX8Q","","","img/flower6.png","76","2304","3","0","1","0.7,0.2,0,0.7,0,0.2,0.2,0,0.7",""
"null","","html-keyboard-response","316","755254","0.0-316.0","3E4GGUZ1T9DKNRRTHVIER0XZBY12K6","A24IWWIUPASCQJ","33K3E8REWWHZ7MUV5T1222MGO9NX8Q","","","<img src=""img/flower6.png"" style=""width:200px;border:14px solid red;"">","null","","","","","",""
"4014","","image-keyboard-response","317","759276","0.0-317.0","3E4GGUZ1T9DKNRRTHVIER0XZBY12K6","A24IWWIUPASCQJ","33K3E8REWWHZ7MUV5T1222MGO9NX8Q","","","img/flower3.png","74","4021","1","1","2","0.7,0.2,0,0.7,0,0.2,0.2,0,0.7",""
"null","","html-keyboard-response","318","759582","0.0-318.0","3E4GGUZ1T9DKNRRTHVIER0XZBY12K6","A24IWWIUPASCQJ","33K3E8REWWHZ7MUV5T1222MGO9NX8Q","","","<img src=""img/flower3.png"" style=""width:200px; border:14px solid green;"">","null","","","","","",""
"2983","","image-keyboard-response","319","762580","0.0-319.0","3E4GGUZ1T9DKNRRTHVIER0XZBY12K6","A24IWWIUPASCQJ","33K3E8REWWHZ7MUV5T1222MGO9NX8Q","","","img/flower1.png","76","2998","3","0","3","0.7,0.2,0,0.7,0,0.2,0.2,0,0.7",""
"null","","html-keyboard-response","320","762895","0.0-320.0","3E4GGUZ1T9DKNRRTHVIER0XZBY12K6","A24IWWIUPASCQJ","33K3E8REWWHZ7MUV5T1222MGO9NX8Q","","","<img src=""img/flower1.png"" style=""width:200px;border:14px solid red;"">","null","","","","","",""
"4295","","image-keyboard-response","321","767200","0.0-321.0","3E4GGUZ1T9DKNRRTHVIER0XZBY12K6","A24IWWIUPASCQJ","33K3E8REWWHZ7MUV5T1222MGO9NX8Q","","","img/flower1.png","76","4305","3","1","3","0.7,0.2,0,0.7,0,0.2,0.2,0,0.7",""
"null","","html-keyboard-response","322","767504","0.0-322.0","3E4GGUZ1T9DKNRRTHVIER0XZBY12K6","A24IWWIUPASCQJ","33K3E8REWWHZ7MUV5T1222MGO9NX8Q","","","<img src=""img/flower1.png"" style=""width:200px; border:14px solid green;"">","null","","","","","",""
"4530","","image-keyboard-response","323","772036","0.0-323.0","3E4GGUZ1T9DKNRRTHVIER0XZBY12K6","A24IWWIUPASCQJ","33K3E8REWWHZ7MUV5T1222MGO9NX8Q","","","img/flower1.png","76","4532","3","1","3","0.7,0.2,0,0.7,0,0.2,0.2,0,0.7",""
"null","","html-keyboard-response","324","772348","0.0-324.0","3E4GGUZ1T9DKNRRTHVIER0XZBY12K6","A24IWWIUPASCQJ","33K3E8REWWHZ7MUV5T1222MGO9NX8Q","","","<img src=""img/flower1.png"" style=""width:200px; border:14px solid green;"">","null","","","","","",""
"4076","","image-keyboard-response","325","776437","0.0-325.0","3E4GGUZ1T9DKNRRTHVIER0XZBY12K6","A24IWWIUPASCQJ","33K3E8REWWHZ7MUV5T1222MGO9NX8Q","","","img/flower1.png","76","4089","3","1","3","0.7,0.2,0,0.7,0,0.2,0.2,0,0.7",""
"null","","html-keyboard-response","326","776754","0.0-326.0","3E4GGUZ1T9DKNRRTHVIER0XZBY12K6","A24IWWIUPASCQJ","33K3E8REWWHZ7MUV5T1222MGO9NX8Q","","","<img src=""img/flower1.png"" style=""width:200px; border:14px solid green;"">","null","","","","","",""
"2873","","image-keyboard-response","327","779638","0.0-327.0","3E4GGUZ1T9DKNRRTHVIER0XZBY12K6","A24IWWIUPASCQJ","33K3E8REWWHZ7MUV5T1222MGO9NX8Q","","","img/flower1.png","76","2883","3","1","3","0.7,0.2,0,0.7,0,0.2,0.2,0,0.7",""
"null","","html-keyboard-response","328","779942","0.0-328.0","3E4GGUZ1T9DKNRRTHVIER0XZBY12K6","A24IWWIUPASCQJ","33K3E8REWWHZ7MUV5T1222MGO9NX8Q","","","<img src=""img/flower1.png"" style=""width:200px; border:14px solid green;"">","null","","","","","",""
"2904","","image-keyboard-response","329","782854","0.0-329.0","3E4GGUZ1T9DKNRRTHVIER0XZBY12K6","A24IWWIUPASCQJ","33K3E8REWWHZ7MUV5T1222MGO9NX8Q","","","img/flower1.png","76","2912","3","1","3","0.7,0.2,0,0.7,0,0.2,0.2,0,0.7",""
"null","","html-keyboard-response","330","783161","0.0-330.0","3E4GGUZ1T9DKNRRTHVIER0XZBY12K6","A24IWWIUPASCQJ","33K3E8REWWHZ7MUV5T1222MGO9NX8Q","","","<img src=""img/flower1.png"" style=""width:200px; border:14px solid green;"">","null","","","","","",""
"3263","","image-keyboard-response","331","786429","0.0-331.0","3E4GGUZ1T9DKNRRTHVIER0XZBY12K6","A24IWWIUPASCQJ","33K3E8REWWHZ7MUV5T1222MGO9NX8Q","","","img/flower1.png","76","3268","3","1","3","0.7,0.2,0,0.7,0,0.2,0.2,0,0.7",""
"null","","html-keyboard-response","332","786743","0.0-332.0","3E4GGUZ1T9DKNRRTHVIER0XZBY12K6","A24IWWIUPASCQJ","33K3E8REWWHZ7MUV5T1222MGO9NX8Q","","","<img src=""img/flower1.png"" style=""width:200px; border:14px solid green;"">","null","","","","","",""
"3291","","image-keyboard-response","333","790048","0.0-333.0","3E4GGUZ1T9DKNRRTHVIER0XZBY12K6","A24IWWIUPASCQJ","33K3E8REWWHZ7MUV5T1222MGO9NX8Q","","","img/flower1.png","76","3305","3","0","3","0.7,0.2,0,0.7,0,0.2,0.2,0,0.7",""
"null","","html-keyboard-response","334","790363","0.0-334.0","3E4GGUZ1T9DKNRRTHVIER0XZBY12K6","A24IWWIUPASCQJ","33K3E8REWWHZ7MUV5T1222MGO9NX8Q","","","<img src=""img/flower1.png"" style=""width:200px;border:14px solid red;"">","null","","","","","",""
"2624","","image-keyboard-response","335","792997","0.0-335.0","3E4GGUZ1T9DKNRRTHVIER0XZBY12K6","A24IWWIUPASCQJ","33K3E8REWWHZ7MUV5T1222MGO9NX8Q","","","img/flower3.png","74","2634","1","1","2","0.7,0.2,0,0.7,0,0.2,0.2,0,0.7",""
"null","","html-keyboard-response","336","793301","0.0-336.0","3E4GGUZ1T9DKNRRTHVIER0XZBY12K6","A24IWWIUPASCQJ","33K3E8REWWHZ7MUV5T1222MGO9NX8Q","","","<img src=""img/flower3.png"" style=""width:200px; border:14px solid green;"">","null","","","","","",""
"3280","","image-keyboard-response","337","796596","0.0-337.0","3E4GGUZ1T9DKNRRTHVIER0XZBY12K6","A24IWWIUPASCQJ","33K3E8REWWHZ7MUV5T1222MGO9NX8Q","","","img/flower6.png","76","3295","3","0","1","0.7,0.2,0,0.7,0,0.2,0.2,0,0.7",""
"null","","html-keyboard-response","338","796912","0.0-338.0","3E4GGUZ1T9DKNRRTHVIER0XZBY12K6","A24IWWIUPASCQJ","33K3E8REWWHZ7MUV5T1222MGO9NX8Q","","","<img src=""img/flower6.png"" style=""width:200px;border:14px solid red;"">","null","","","","","",""
"3403","","image-keyboard-response","339","800325","0.0-339.0","3E4GGUZ1T9DKNRRTHVIER0XZBY12K6","A24IWWIUPASCQJ","33K3E8REWWHZ7MUV5T1222MGO9NX8Q","","","img/flower3.png","74","3413","1","1","2","0.7,0.2,0,0.7,0,0.2,0.2,0,0.7",""
"null","","html-keyboard-response","340","800630","0.0-340.0","3E4GGUZ1T9DKNRRTHVIER0XZBY12K6","A24IWWIUPASCQJ","33K3E8REWWHZ7MUV5T1222MGO9NX8Q","","","<img src=""img/flower3.png"" style=""width:200px; border:14px solid green;"">","null","","","","","",""
"3436","","image-keyboard-response","341","804075","0.0-341.0","3E4GGUZ1T9DKNRRTHVIER0XZBY12K6","A24IWWIUPASCQJ","33K3E8REWWHZ7MUV5T1222MGO9NX8Q","","","img/flower3.png","74","3445","1","0","2","0.7,0.2,0,0.7,0,0.2,0.2,0,0.7",""
"null","","html-keyboard-response","342","804379","0.0-342.0","3E4GGUZ1T9DKNRRTHVIER0XZBY12K6","A24IWWIUPASCQJ","33K3E8REWWHZ7MUV5T1222MGO9NX8Q","","","<img src=""img/flower3.png"" style=""width:200px;border:14px solid red;"">","null","","","","","",""
"3186","","image-keyboard-response","343","807579","0.0-343.0","3E4GGUZ1T9DKNRRTHVIER0XZBY12K6","A24IWWIUPASCQJ","33K3E8REWWHZ7MUV5T1222MGO9NX8Q","","","img/flower3.png","74","3199","1","0","2","0.7,0.2,0,0.7,0,0.2,0.2,0,0.7",""
"null","","html-keyboard-response","344","807895","0.0-344.0","3E4GGUZ1T9DKNRRTHVIER0XZBY12K6","A24IWWIUPASCQJ","33K3E8REWWHZ7MUV5T1222MGO9NX8Q","","","<img src=""img/flower3.png"" style=""width:200px;border:14px solid red;"">","null","","","","","",""
"1295","","image-keyboard-response","345","809196","0.0-345.0","3E4GGUZ1T9DKNRRTHVIER0XZBY12K6","A24IWWIUPASCQJ","33K3E8REWWHZ7MUV5T1222MGO9NX8Q","","","img/flower1.png","76","1301","3","0","3","0.7,0.2,0,0.7,0,0.2,0.2,0,0.7",""
"null","","html-keyboard-response","346","809504","0.0-346.0","3E4GGUZ1T9DKNRRTHVIER0XZBY12K6","A24IWWIUPASCQJ","33K3E8REWWHZ7MUV5T1222MGO9NX8Q","","","<img src=""img/flower1.png"" style=""width:200px;border:14px solid red;"">","null","","","","","",""
"2233","","image-keyboard-response","347","811749","0.0-347.0","3E4GGUZ1T9DKNRRTHVIER0XZBY12K6","A24IWWIUPASCQJ","33K3E8REWWHZ7MUV5T1222MGO9NX8Q","","","img/flower1.png","76","2245","3","1","3","0.7,0.2,0,0.7,0,0.2,0.2,0,0.7",""
"null","","html-keyboard-response","348","812051","0.0-348.0","3E4GGUZ1T9DKNRRTHVIER0XZBY12K6","A24IWWIUPASCQJ","33K3E8REWWHZ7MUV5T1222MGO9NX8Q","","","<img src=""img/flower1.png"" style=""width:200px; border:14px solid green;"">","null","","","","","",""
"2576","","image-keyboard-response","349","814631","0.0-349.0","3E4GGUZ1T9DKNRRTHVIER0XZBY12K6","A24IWWIUPASCQJ","33K3E8REWWHZ7MUV5T1222MGO9NX8Q","","","img/flower3.png","74","2580","1","0","2","0.7,0.2,0,0.7,0,0.2,0.2,0,0.7",""
"null","","html-keyboard-response","350","814942","0.0-350.0","3E4GGUZ1T9DKNRRTHVIER0XZBY12K6","A24IWWIUPASCQJ","33K3E8REWWHZ7MUV5T1222MGO9NX8Q","","","<img src=""img/flower3.png"" style=""width:200px;border:14px solid red;"">","null","","","","","",""
"2546","","image-keyboard-response","351","817500","0.0-351.0","3E4GGUZ1T9DKNRRTHVIER0XZBY12K6","A24IWWIUPASCQJ","33K3E8REWWHZ7MUV5T1222MGO9NX8Q","","","img/flower1.png","76","2558","3","1","3","0.7,0.2,0,0.7,0,0.2,0.2,0,0.7",""
"null","","html-keyboard-response","352","817817","0.0-352.0","3E4GGUZ1T9DKNRRTHVIER0XZBY12K6","A24IWWIUPASCQJ","33K3E8REWWHZ7MUV5T1222MGO9NX8Q","","","<img src=""img/flower1.png"" style=""width:200px; border:14px solid green;"">","null","","","","","",""
"2467","","image-keyboard-response","353","820285","0.0-353.0","3E4GGUZ1T9DKNRRTHVIER0XZBY12K6","A24IWWIUPASCQJ","33K3E8REWWHZ7MUV5T1222MGO9NX8Q","","","img/flower3.png","74","2468","1","1","2","0.7,0.2,0,0.7,0,0.2,0.2,0,0.7",""
"null","","html-keyboard-response","354","820598","0.0-354.0","3E4GGUZ1T9DKNRRTHVIER0XZBY12K6","A24IWWIUPASCQJ","33K3E8REWWHZ7MUV5T1222MGO9NX8Q","","","<img src=""img/flower3.png"" style=""width:200px; border:14px solid green;"">","null","","","","","",""
"1998","","image-keyboard-response","355","822606","0.0-355.0","3E4GGUZ1T9DKNRRTHVIER0XZBY12K6","A24IWWIUPASCQJ","33K3E8REWWHZ7MUV5T1222MGO9NX8Q","","","img/flower6.png","76","2007","3","0","1","0.7,0.2,0,0.7,0,0.2,0.2,0,0.7",""
"null","","html-keyboard-response","356","822912","0.0-356.0","3E4GGUZ1T9DKNRRTHVIER0XZBY12K6","A24IWWIUPASCQJ","33K3E8REWWHZ7MUV5T1222MGO9NX8Q","","","<img src=""img/flower6.png"" style=""width:200px;border:14px solid red;"">","null","","","","","",""
"2247","","image-keyboard-response","357","825174","0.0-357.0","3E4GGUZ1T9DKNRRTHVIER0XZBY12K6","A24IWWIUPASCQJ","33K3E8REWWHZ7MUV5T1222MGO9NX8Q","","","img/flower3.png","74","2262","1","1","2","0.7,0.2,0,0.7,0,0.2,0.2,0,0.7",""
"null","","html-keyboard-response","358","825503","0.0-358.0","3E4GGUZ1T9DKNRRTHVIER0XZBY12K6","A24IWWIUPASCQJ","33K3E8REWWHZ7MUV5T1222MGO9NX8Q","","","<img src=""img/flower3.png"" style=""width:200px; border:14px solid green;"">","null","","","","","",""
"1714","","image-keyboard-response","359","827239","0.0-359.0","3E4GGUZ1T9DKNRRTHVIER0XZBY12K6","A24IWWIUPASCQJ","33K3E8REWWHZ7MUV5T1222MGO9NX8Q","","","img/flower6.png","76","1750","3","0","1","0.7,0.2,0,0.7,0,0.2,0.2,0,0.7",""
"null","","html-keyboard-response","360","827567","0.0-360.0","3E4GGUZ1T9DKNRRTHVIER0XZBY12K6","A24IWWIUPASCQJ","33K3E8REWWHZ7MUV5T1222MGO9NX8Q","","","<img src=""img/flower6.png"" style=""width:200px;border:14px solid red;"">","null","","","","","",""
"1748","","image-keyboard-response","361","829325","0.0-361.0","3E4GGUZ1T9DKNRRTHVIER0XZBY12K6","A24IWWIUPASCQJ","33K3E8REWWHZ7MUV5T1222MGO9NX8Q","","","img/flower6.png","75","1758","2","1","1","0.7,0.2,0,0.7,0,0.2,0.2,0,0.7",""
"null","","html-keyboard-response","362","829629","0.0-362.0","3E4GGUZ1T9DKNRRTHVIER0XZBY12K6","A24IWWIUPASCQJ","33K3E8REWWHZ7MUV5T1222MGO9NX8Q","","","<img src=""img/flower6.png"" style=""width:200px; border:14px solid green;"">","null","","","","","",""
"2733","","image-keyboard-response","363","832368","0.0-363.0","3E4GGUZ1T9DKNRRTHVIER0XZBY12K6","A24IWWIUPASCQJ","33K3E8REWWHZ7MUV5T1222MGO9NX8Q","","","img/flower6.png","75","2738","2","0","1","0.7,0.2,0,0.7,0,0.2,0.2,0,0.7",""
"null","","html-keyboard-response","364","832680","0.0-364.0","3E4GGUZ1T9DKNRRTHVIER0XZBY12K6","A24IWWIUPASCQJ","33K3E8REWWHZ7MUV5T1222MGO9NX8Q","","","<img src=""img/flower6.png"" style=""width:200px;border:14px solid red;"">","null","","","","","",""
"2588","","image-keyboard-response","365","835276","0.0-365.0","3E4GGUZ1T9DKNRRTHVIER0XZBY12K6","A24IWWIUPASCQJ","33K3E8REWWHZ7MUV5T1222MGO9NX8Q","","","img/flower3.png","74","2596","1","1","2","0.7,0.2,0,0.7,0,0.2,0.2,0,0.7",""
"null","","html-keyboard-response","366","835582","0.0-366.0","3E4GGUZ1T9DKNRRTHVIER0XZBY12K6","A24IWWIUPASCQJ","33K3E8REWWHZ7MUV5T1222MGO9NX8Q","","","<img src=""img/flower3.png"" style=""width:200px; border:14px solid green;"">","null","","","","","",""
"2123","","image-keyboard-response","367","837718","0.0-367.0","3E4GGUZ1T9DKNRRTHVIER0XZBY12K6","A24IWWIUPASCQJ","33K3E8REWWHZ7MUV5T1222MGO9NX8Q","","","img/flower6.png","76","2136","3","0","1","0.7,0.2,0,0.7,0,0.2,0.2,0,0.7",""
"null","","html-keyboard-response","368","838019","0.0-368.0","3E4GGUZ1T9DKNRRTHVIER0XZBY12K6","A24IWWIUPASCQJ","33K3E8REWWHZ7MUV5T1222MGO9NX8Q","","","<img src=""img/flower6.png"" style=""width:200px;border:14px solid red;"">","null","","","","","",""
"2767","","image-keyboard-response","369","840788","0.0-369.0","3E4GGUZ1T9DKNRRTHVIER0XZBY12K6","A24IWWIUPASCQJ","33K3E8REWWHZ7MUV5T1222MGO9NX8Q","","","img/flower6.png","76","2769","3","0","1","0.7,0.2,0,0.7,0,0.2,0.2,0,0.7",""
"null","","html-keyboard-response","370","841098","0.0-370.0","3E4GGUZ1T9DKNRRTHVIER0XZBY12K6","A24IWWIUPASCQJ","33K3E8REWWHZ7MUV5T1222MGO9NX8Q","","","<img src=""img/flower6.png"" style=""width:200px;border:14px solid red;"">","null","","","","","",""
"3186","","image-keyboard-response","371","844296","0.0-371.0","3E4GGUZ1T9DKNRRTHVIER0XZBY12K6","A24IWWIUPASCQJ","33K3E8REWWHZ7MUV5T1222MGO9NX8Q","","","img/flower6.png","76","3198","3","0","1","0.7,0.2,0,0.7,0,0.2,0.2,0,0.7",""
"null","","html-keyboard-response","372","844598","0.0-372.0","3E4GGUZ1T9DKNRRTHVIER0XZBY12K6","A24IWWIUPASCQJ","33K3E8REWWHZ7MUV5T1222MGO9NX8Q","","","<img src=""img/flower6.png"" style=""width:200px;border:14px solid red;"">","null","","","","","",""
"2793","","image-keyboard-response","373","847406","0.0-373.0","3E4GGUZ1T9DKNRRTHVIER0XZBY12K6","A24IWWIUPASCQJ","33K3E8REWWHZ7MUV5T1222MGO9NX8Q","","","img/flower6.png","75","2805","2","0","1","0.7,0.2,0,0.7,0,0.2,0.2,0,0.7",""
"null","","html-keyboard-response","374","847728","0.0-374.0","3E4GGUZ1T9DKNRRTHVIER0XZBY12K6","A24IWWIUPASCQJ","33K3E8REWWHZ7MUV5T1222MGO9NX8Q","","","<img src=""img/flower6.png"" style=""width:200px;border:14px solid red;"">","null","","","","","",""
"1804","","image-keyboard-response","375","849536","0.0-375.0","3E4GGUZ1T9DKNRRTHVIER0XZBY12K6","A24IWWIUPASCQJ","33K3E8REWWHZ7MUV5T1222MGO9NX8Q","","","img/flower6.png","76","1808","3","0","1","0.7,0.2,0,0.7,0,0.2,0.2,0,0.7",""
"null","","html-keyboard-response","376","849849","0.0-376.0","3E4GGUZ1T9DKNRRTHVIER0XZBY12K6","A24IWWIUPASCQJ","33K3E8REWWHZ7MUV5T1222MGO9NX8Q","","","<img src=""img/flower6.png"" style=""width:200px;border:14px solid red;"">","null","","","","","",""
"2304","","image-keyboard-response","377","852154","0.0-377.0","3E4GGUZ1T9DKNRRTHVIER0XZBY12K6","A24IWWIUPASCQJ","33K3E8REWWHZ7MUV5T1222MGO9NX8Q","","","img/flower6.png","76","2305","3","0","1","0.7,0.2,0,0.7,0,0.2,0.2,0,0.7",""
"null","","html-keyboard-response","378","852457","0.0-378.0","3E4GGUZ1T9DKNRRTHVIER0XZBY12K6","A24IWWIUPASCQJ","33K3E8REWWHZ7MUV5T1222MGO9NX8Q","","","<img src=""img/flower6.png"" style=""width:200px;border:14px solid red;"">","null","","","","","",""
"1421","","image-keyboard-response","379","853886","0.0-379.0","3E4GGUZ1T9DKNRRTHVIER0XZBY12K6","A24IWWIUPASCQJ","33K3E8REWWHZ7MUV5T1222MGO9NX8Q","","","img/flower3.png","74","1429","1","0","2","0.7,0.2,0,0.7,0,0.2,0.2,0,0.7",""
"null","","html-keyboard-response","380","854192","0.0-380.0","3E4GGUZ1T9DKNRRTHVIER0XZBY12K6","A24IWWIUPASCQJ","33K3E8REWWHZ7MUV5T1222MGO9NX8Q","","","<img src=""img/flower3.png"" style=""width:200px;border:14px solid red;"">","null","","","","","",""
"1947","","image-keyboard-response","381","856140","0.0-381.0","3E4GGUZ1T9DKNRRTHVIER0XZBY12K6","A24IWWIUPASCQJ","33K3E8REWWHZ7MUV5T1222MGO9NX8Q","","","img/flower1.png","76","1949","3","1","3","0.7,0.2,0,0.7,0,0.2,0.2,0,0.7",""
"null","","html-keyboard-response","382","856442","0.0-382.0","3E4GGUZ1T9DKNRRTHVIER0XZBY12K6","A24IWWIUPASCQJ","33K3E8REWWHZ7MUV5T1222MGO9NX8Q","","","<img src=""img/flower1.png"" style=""width:200px; border:14px solid green;"">","null","","","","","",""
"2139","","image-keyboard-response","383","858590","0.0-383.0","3E4GGUZ1T9DKNRRTHVIER0XZBY12K6","A24IWWIUPASCQJ","33K3E8REWWHZ7MUV5T1222MGO9NX8Q","","","img/flower1.png","76","2148","3","0","3","0.7,0.2,0,0.7,0,0.2,0.2,0,0.7",""
"null","","html-keyboard-response","384","858895","0.0-384.0","3E4GGUZ1T9DKNRRTHVIER0XZBY12K6","A24IWWIUPASCQJ","33K3E8REWWHZ7MUV5T1222MGO9NX8Q","","","<img src=""img/flower1.png"" style=""width:200px;border:14px solid red;"">","null","","","","","",""
"2139","","image-keyboard-response","385","861040","0.0-385.0","3E4GGUZ1T9DKNRRTHVIER0XZBY12K6","A24IWWIUPASCQJ","33K3E8REWWHZ7MUV5T1222MGO9NX8Q","","","img/flower6.png","76","2145","3","0","1","0.7,0.2,0,0.7,0,0.2,0.2,0,0.7",""
"null","","html-keyboard-response","386","861348","0.0-386.0","3E4GGUZ1T9DKNRRTHVIER0XZBY12K6","A24IWWIUPASCQJ","33K3E8REWWHZ7MUV5T1222MGO9NX8Q","","","<img src=""img/flower6.png"" style=""width:200px;border:14px solid red;"">","null","","","","","",""
"2654","","image-keyboard-response","387","864013","0.0-387.0","3E4GGUZ1T9DKNRRTHVIER0XZBY12K6","A24IWWIUPASCQJ","33K3E8REWWHZ7MUV5T1222MGO9NX8Q","","","img/flower6.png","76","2665","3","0","1","0.7,0.2,0,0.7,0,0.2,0.2,0,0.7",""
"null","","html-keyboard-response","388","864317","0.0-388.0","3E4GGUZ1T9DKNRRTHVIER0XZBY12K6","A24IWWIUPASCQJ","33K3E8REWWHZ7MUV5T1222MGO9NX8Q","","","<img src=""img/flower6.png"" style=""width:200px;border:14px solid red;"">","null","","","","","",""
"2296","","image-keyboard-response","389","866621","0.0-389.0","3E4GGUZ1T9DKNRRTHVIER0XZBY12K6","A24IWWIUPASCQJ","33K3E8REWWHZ7MUV5T1222MGO9NX8Q","","","img/flower1.png","75","2304","2","0","3","0.7,0.2,0,0.7,0,0.2,0.2,0,0.7",""
"null","","html-keyboard-response","390","866926","0.0-390.0","3E4GGUZ1T9DKNRRTHVIER0XZBY12K6","A24IWWIUPASCQJ","33K3E8REWWHZ7MUV5T1222MGO9NX8Q","","","<img src=""img/flower1.png"" style=""width:200px;border:14px solid red;"">","null","","","","","",""
"857","","image-keyboard-response","391","867793","0.0-391.0","3E4GGUZ1T9DKNRRTHVIER0XZBY12K6","A24IWWIUPASCQJ","33K3E8REWWHZ7MUV5T1222MGO9NX8Q","","","img/flower1.png","76","867","3","1","3","0.7,0.2,0,0.7,0,0.2,0.2,0,0.7",""
"null","","html-keyboard-response","392","868095","0.0-392.0","3E4GGUZ1T9DKNRRTHVIER0XZBY12K6","A24IWWIUPASCQJ","33K3E8REWWHZ7MUV5T1222MGO9NX8Q","","","<img src=""img/flower1.png"" style=""width:200px; border:14px solid green;"">","null","","","","","",""
"1155","","image-keyboard-response","393","869256","0.0-393.0","3E4GGUZ1T9DKNRRTHVIER0XZBY12K6","A24IWWIUPASCQJ","33K3E8REWWHZ7MUV5T1222MGO9NX8Q","","","img/flower3.png","74","1158","1","1","2","0.7,0.2,0,0.7,0,0.2,0.2,0,0.7",""
"null","","html-keyboard-response","394","869567","0.0-394.0","3E4GGUZ1T9DKNRRTHVIER0XZBY12K6","A24IWWIUPASCQJ","33K3E8REWWHZ7MUV5T1222MGO9NX8Q","","","<img src=""img/flower3.png"" style=""width:200px; border:14px solid green;"">","null","","","","","",""
"2045","","image-keyboard-response","395","871616","0.0-395.0","3E4GGUZ1T9DKNRRTHVIER0XZBY12K6","A24IWWIUPASCQJ","33K3E8REWWHZ7MUV5T1222MGO9NX8Q","","","img/flower1.png","76","2049","3","1","3","0.7,0.2,0,0.7,0,0.2,0.2,0,0.7",""
"null","","html-keyboard-response","396","871926","0.0-396.0","3E4GGUZ1T9DKNRRTHVIER0XZBY12K6","A24IWWIUPASCQJ","33K3E8REWWHZ7MUV5T1222MGO9NX8Q","","","<img src=""img/flower1.png"" style=""width:200px; border:14px solid green;"">","null","","","","","",""
"1561","","image-keyboard-response","397","873492","0.0-397.0","3E4GGUZ1T9DKNRRTHVIER0XZBY12K6","A24IWWIUPASCQJ","33K3E8REWWHZ7MUV5T1222MGO9NX8Q","","","img/flower3.png","74","1566","1","1","2","0.7,0.2,0,0.7,0,0.2,0.2,0,0.7",""
"null","","html-keyboard-response","398","873793","0.0-398.0","3E4GGUZ1T9DKNRRTHVIER0XZBY12K6","A24IWWIUPASCQJ","33K3E8REWWHZ7MUV5T1222MGO9NX8Q","","","<img src=""img/flower3.png"" style=""width:200px; border:14px solid green;"">","null","","","","","",""
"2303","","image-keyboard-response","399","876106","0.0-399.0","3E4GGUZ1T9DKNRRTHVIER0XZBY12K6","A24IWWIUPASCQJ","33K3E8REWWHZ7MUV5T1222MGO9NX8Q","","","img/flower3.png","74","2313","1","1","2","0.7,0.2,0,0.7,0,0.2,0.2,0,0.7",""
"null","","html-keyboard-response","400","876410","0.0-400.0","3E4GGUZ1T9DKNRRTHVIER0XZBY12K6","A24IWWIUPASCQJ","33K3E8REWWHZ7MUV5T1222MGO9NX8Q","","","<img src=""img/flower3.png"" style=""width:200px; border:14px solid green;"">","null","","","","","",""
"1265","","image-keyboard-response","401","877684","0.0-401.0","3E4GGUZ1T9DKNRRTHVIER0XZBY12K6","A24IWWIUPASCQJ","33K3E8REWWHZ7MUV5T1222MGO9NX8Q","","","img/flower3.png","74","1274","1","1","2","0.7,0.2,0,0.7,0,0.2,0.2,0,0.7",""
"null","","html-keyboard-response","402","877988","0.0-402.0","3E4GGUZ1T9DKNRRTHVIER0XZBY12K6","A24IWWIUPASCQJ","33K3E8REWWHZ7MUV5T1222MGO9NX8Q","","","<img src=""img/flower3.png"" style=""width:200px; border:14px solid green;"">","null","","","","","",""
"1122","","image-keyboard-response","403","879116","0.0-403.0","3E4GGUZ1T9DKNRRTHVIER0XZBY12K6","A24IWWIUPASCQJ","33K3E8REWWHZ7MUV5T1222MGO9NX8Q","","","img/flower6.png","76","1127","3","0","1","0.7,0.2,0,0.7,0,0.2,0.2,0,0.7",""
"null","","html-keyboard-response","404","879426","0.0-404.0","3E4GGUZ1T9DKNRRTHVIER0XZBY12K6","A24IWWIUPASCQJ","33K3E8REWWHZ7MUV5T1222MGO9NX8Q","","","<img src=""img/flower6.png"" style=""width:200px;border:14px solid red;"">","null","","","","","",""
"1248","","image-keyboard-response","405","880681","0.0-405.0","3E4GGUZ1T9DKNRRTHVIER0XZBY12K6","A24IWWIUPASCQJ","33K3E8REWWHZ7MUV5T1222MGO9NX8Q","","","img/flower1.png","76","1256","3","1","3","0.7,0.2,0,0.7,0,0.2,0.2,0,0.7",""
"null","","html-keyboard-response","406","880987","0.0-406.0","3E4GGUZ1T9DKNRRTHVIER0XZBY12K6","A24IWWIUPASCQJ","33K3E8REWWHZ7MUV5T1222MGO9NX8Q","","","<img src=""img/flower1.png"" style=""width:200px; border:14px solid green;"">","null","","","","","",""
"907","","image-keyboard-response","407","881909","0.0-407.0","3E4GGUZ1T9DKNRRTHVIER0XZBY12K6","A24IWWIUPASCQJ","33K3E8REWWHZ7MUV5T1222MGO9NX8Q","","","img/flower6.png","76","922","3","0","1","0.7,0.2,0,0.7,0,0.2,0.2,0,0.7",""
"null","","html-keyboard-response","408","882223","0.0-408.0","3E4GGUZ1T9DKNRRTHVIER0XZBY12K6","A24IWWIUPASCQJ","33K3E8REWWHZ7MUV5T1222MGO9NX8Q","","","<img src=""img/flower6.png"" style=""width:200px;border:14px solid red;"">","null","","","","","",""
"1075","","image-keyboard-response","409","883300","0.0-409.0","3E4GGUZ1T9DKNRRTHVIER0XZBY12K6","A24IWWIUPASCQJ","33K3E8REWWHZ7MUV5T1222MGO9NX8Q","","","img/flower6.png","76","1086","3","0","1","0.7,0.2,0,0.7,0,0.2,0.2,0,0.7",""
"null","","html-keyboard-response","410","883614","0.0-410.0","3E4GGUZ1T9DKNRRTHVIER0XZBY12K6","A24IWWIUPASCQJ","33K3E8REWWHZ7MUV5T1222MGO9NX8Q","","","<img src=""img/flower6.png"" style=""width:200px;border:14px solid red;"">","null","","","","","",""
"1169","","image-keyboard-response","411","884791","0.0-411.0","3E4GGUZ1T9DKNRRTHVIER0XZBY12K6","A24IWWIUPASCQJ","33K3E8REWWHZ7MUV5T1222MGO9NX8Q","","","img/flower1.png","76","1177","3","1","3","0.7,0.2,0,0.7,0,0.2,0.2,0,0.7",""
"null","","html-keyboard-response","412","885098","0.0-412.0","3E4GGUZ1T9DKNRRTHVIER0XZBY12K6","A24IWWIUPASCQJ","33K3E8REWWHZ7MUV5T1222MGO9NX8Q","","","<img src=""img/flower1.png"" style=""width:200px; border:14px solid green;"">","null","","","","","",""
"826","","image-keyboard-response","413","885938","0.0-413.0","3E4GGUZ1T9DKNRRTHVIER0XZBY12K6","A24IWWIUPASCQJ","33K3E8REWWHZ7MUV5T1222MGO9NX8Q","","","img/flower6.png","76","840","3","0","1","0.7,0.2,0,0.7,0,0.2,0.2,0,0.7",""
"null","","html-keyboard-response","414","886255","0.0-414.0","3E4GGUZ1T9DKNRRTHVIER0XZBY12K6","A24IWWIUPASCQJ","33K3E8REWWHZ7MUV5T1222MGO9NX8Q","","","<img src=""img/flower6.png"" style=""width:200px;border:14px solid red;"">","null","","","","","",""
"1435","","image-keyboard-response","415","887702","0.0-415.0","3E4GGUZ1T9DKNRRTHVIER0XZBY12K6","A24IWWIUPASCQJ","33K3E8REWWHZ7MUV5T1222MGO9NX8Q","","","img/flower3.png","74","1447","1","0","2","0.7,0.2,0,0.7,0,0.2,0.2,0,0.7",""
"null","","html-keyboard-response","416","888004","0.0-416.0","3E4GGUZ1T9DKNRRTHVIER0XZBY12K6","A24IWWIUPASCQJ","33K3E8REWWHZ7MUV5T1222MGO9NX8Q","","","<img src=""img/flower3.png"" style=""width:200px;border:14px solid red;"">","null","","","","","",""
"1435","","image-keyboard-response","417","889447","0.0-417.0","3E4GGUZ1T9DKNRRTHVIER0XZBY12K6","A24IWWIUPASCQJ","33K3E8REWWHZ7MUV5T1222MGO9NX8Q","","","img/flower3.png","74","1442","1","0","2","0.7,0.2,0,0.7,0,0.2,0.2,0,0.7",""
"null","","html-keyboard-response","418","889754","0.0-418.0","3E4GGUZ1T9DKNRRTHVIER0XZBY12K6","A24IWWIUPASCQJ","33K3E8REWWHZ7MUV5T1222MGO9NX8Q","","","<img src=""img/flower3.png"" style=""width:200px;border:14px solid red;"">","null","","","","","",""
"1217","","image-keyboard-response","419","890987","0.0-419.0","3E4GGUZ1T9DKNRRTHVIER0XZBY12K6","A24IWWIUPASCQJ","33K3E8REWWHZ7MUV5T1222MGO9NX8Q","","","img/flower3.png","74","1232","1","0","2","0.7,0.2,0,0.7,0,0.2,0.2,0,0.7",""
"null","","html-keyboard-response","420","891301","0.0-420.0","3E4GGUZ1T9DKNRRTHVIER0XZBY12K6","A24IWWIUPASCQJ","33K3E8REWWHZ7MUV5T1222MGO9NX8Q","","","<img src=""img/flower3.png"" style=""width:200px;border:14px solid red;"">","null","","","","","",""
