"rt","url","trial_type","trial_index","time_elapsed","internal_node_id","assignmentID","mturkID","hitID","success","view_history","stimulus","key_press","reactionTime","a","r","s","reward_cond","responses"
"25118","consent.html","external-html","0","25899","0.0-0.0","3JJVG1YBECJBTL6MT17JQ4HL8EL5BS","A25GC0CJO1NNDZ","33K3E8REWWHZ7MUV5T1222MGO9NX8Q","","","","","","","","","",""
"","","fullscreen","1","43658","0.0-1.0","3JJVG1YBECJBTL6MT17JQ4HL8EL5BS","A25GC0CJO1NNDZ","33K3E8REWWHZ7MUV5T1222MGO9NX8Q","true","","","","","","","","",""
"82950","","instructions","2","126610","0.0-2.0","3JJVG1YBECJBTL6MT17JQ4HL8EL5BS","A25GC0CJO1NNDZ","33K3E8REWWHZ7MUV5T1222MGO9NX8Q","","[{""page_index"":0,""viewing_time"":2926},{""page_index"":1,""viewing_time"":2936},{""page_index"":2,""viewing_time"":1855},{""page_index"":3,""viewing_time"":2856},{""page_index"":4,""viewing_time"":10201},{""page_index"":3,""viewing_time"":2009},{""page_index"":2,""viewing_time"":15351},{""page_index"":1,""viewing_time"":5584},{""page_index"":2,""viewing_time"":6769},{""page_index"":3,""viewing_time"":4179},{""page_index"":4,""viewing_time"":3564},{""page_index"":5,""viewing_time"":24720}]","","","","","","","",""
"16576","","instructions","3","143186","0.0-3.0","3JJVG1YBECJBTL6MT17JQ4HL8EL5BS","A25GC0CJO1NNDZ","33K3E8REWWHZ7MUV5T1222MGO9NX8Q","","[{""page_index"":0,""viewing_time"":16576}]","","","","","","","",""
"1856","","image-keyboard-response","4","145045","0.0-4.0","3JJVG1YBECJBTL6MT17JQ4HL8EL5BS","A25GC0CJO1NNDZ","33K3E8REWWHZ7MUV5T1222MGO9NX8Q","","","img/flower6.png","76","1858","3","1","3","",""
"null","","html-keyboard-response","5","145357","0.0-5.0","3JJVG1YBECJBTL6MT17JQ4HL8EL5BS","A25GC0CJO1NNDZ","33K3E8REWWHZ7MUV5T1222MGO9NX8Q","","","<img src=""img/flower6.png"" style=""width:200px; border:14px solid green;"">","null","","","","","",""
"1372","","image-keyboard-response","6","146731","0.0-6.0","3JJVG1YBECJBTL6MT17JQ4HL8EL5BS","A25GC0CJO1NNDZ","33K3E8REWWHZ7MUV5T1222MGO9NX8Q","","","img/flower4.png","74","1373","1","1","1","",""
"null","","html-keyboard-response","7","147045","0.0-7.0","3JJVG1YBECJBTL6MT17JQ4HL8EL5BS","A25GC0CJO1NNDZ","33K3E8REWWHZ7MUV5T1222MGO9NX8Q","","","<img src=""img/flower4.png"" style=""width:200px; border:14px solid green;"">","null","","","","","",""
"963","","image-keyboard-response","8","148009","0.0-8.0","3JJVG1YBECJBTL6MT17JQ4HL8EL5BS","A25GC0CJO1NNDZ","33K3E8REWWHZ7MUV5T1222MGO9NX8Q","","","img/flower5.png","75","964","2","1","2","",""
"null","","html-keyboard-response","9","148313","0.0-9.0","3JJVG1YBECJBTL6MT17JQ4HL8EL5BS","A25GC0CJO1NNDZ","33K3E8REWWHZ7MUV5T1222MGO9NX8Q","","","<img src=""img/flower5.png"" style=""width:200px; border:14px solid green;"">","null","","","","","",""
"2229","","image-keyboard-response","10","150545","0.0-10.0","3JJVG1YBECJBTL6MT17JQ4HL8EL5BS","A25GC0CJO1NNDZ","33K3E8REWWHZ7MUV5T1222MGO9NX8Q","","","img/flower5.png","75","2232","2","0","2","",""
"null","","html-keyboard-response","11","150845","0.0-11.0","3JJVG1YBECJBTL6MT17JQ4HL8EL5BS","A25GC0CJO1NNDZ","33K3E8REWWHZ7MUV5T1222MGO9NX8Q","","","<img src=""img/flower5.png"" style=""width:200px;border:14px solid red;"">","null","","","","","",""
"1209","","image-keyboard-response","12","152054","0.0-12.0","3JJVG1YBECJBTL6MT17JQ4HL8EL5BS","A25GC0CJO1NNDZ","33K3E8REWWHZ7MUV5T1222MGO9NX8Q","","","img/flower5.png","74","1209","1","0","2","",""
"null","","html-keyboard-response","13","152361","0.0-13.0","3JJVG1YBECJBTL6MT17JQ4HL8EL5BS","A25GC0CJO1NNDZ","33K3E8REWWHZ7MUV5T1222MGO9NX8Q","","","<img src=""img/flower5.png"" style=""width:200px;border:14px solid red;"">","null","","","","","",""
"1398","","image-keyboard-response","14","153773","0.0-14.0","3JJVG1YBECJBTL6MT17JQ4HL8EL5BS","A25GC0CJO1NNDZ","33K3E8REWWHZ7MUV5T1222MGO9NX8Q","","","img/flower4.png","74","1412","1","1","1","",""
"null","","html-keyboard-response","15","154089","0.0-15.0","3JJVG1YBECJBTL6MT17JQ4HL8EL5BS","A25GC0CJO1NNDZ","33K3E8REWWHZ7MUV5T1222MGO9NX8Q","","","<img src=""img/flower4.png"" style=""width:200px; border:14px solid green;"">","null","","","","","",""
"2218","","image-keyboard-response","16","156307","0.0-16.0","3JJVG1YBECJBTL6MT17JQ4HL8EL5BS","A25GC0CJO1NNDZ","33K3E8REWWHZ7MUV5T1222MGO9NX8Q","","","img/flower4.png","74","2218","1","1","1","",""
"null","","html-keyboard-response","17","156621","0.0-17.0","3JJVG1YBECJBTL6MT17JQ4HL8EL5BS","A25GC0CJO1NNDZ","33K3E8REWWHZ7MUV5T1222MGO9NX8Q","","","<img src=""img/flower4.png"" style=""width:200px; border:14px solid green;"">","null","","","","","",""
"2279","","image-keyboard-response","18","158913","0.0-18.0","3JJVG1YBECJBTL6MT17JQ4HL8EL5BS","A25GC0CJO1NNDZ","33K3E8REWWHZ7MUV5T1222MGO9NX8Q","","","img/flower5.png","76","2292","3","0","2","",""
"null","","html-keyboard-response","19","159215","0.0-19.0","3JJVG1YBECJBTL6MT17JQ4HL8EL5BS","A25GC0CJO1NNDZ","33K3E8REWWHZ7MUV5T1222MGO9NX8Q","","","<img src=""img/flower5.png"" style=""width:200px;border:14px solid red;"">","null","","","","","",""
"1357","","image-keyboard-response","20","160581","0.0-20.0","3JJVG1YBECJBTL6MT17JQ4HL8EL5BS","A25GC0CJO1NNDZ","33K3E8REWWHZ7MUV5T1222MGO9NX8Q","","","img/flower6.png","75","1366","2","0","3","",""
"null","","html-keyboard-response","21","160887","0.0-21.0","3JJVG1YBECJBTL6MT17JQ4HL8EL5BS","A25GC0CJO1NNDZ","33K3E8REWWHZ7MUV5T1222MGO9NX8Q","","","<img src=""img/flower6.png"" style=""width:200px;border:14px solid red;"">","null","","","","","",""
"1204","","image-keyboard-response","22","162094","0.0-22.0","3JJVG1YBECJBTL6MT17JQ4HL8EL5BS","A25GC0CJO1NNDZ","33K3E8REWWHZ7MUV5T1222MGO9NX8Q","","","img/flower4.png","74","1207","1","1","1","",""
"null","","html-keyboard-response","23","162396","0.0-23.0","3JJVG1YBECJBTL6MT17JQ4HL8EL5BS","A25GC0CJO1NNDZ","33K3E8REWWHZ7MUV5T1222MGO9NX8Q","","","<img src=""img/flower4.png"" style=""width:200px; border:14px solid green;"">","null","","","","","",""
"849","","image-keyboard-response","24","163258","0.0-24.0","3JJVG1YBECJBTL6MT17JQ4HL8EL5BS","A25GC0CJO1NNDZ","33K3E8REWWHZ7MUV5T1222MGO9NX8Q","","","img/flower6.png","76","862","3","1","3","",""
"null","","html-keyboard-response","25","163560","0.0-25.0","3JJVG1YBECJBTL6MT17JQ4HL8EL5BS","A25GC0CJO1NNDZ","33K3E8REWWHZ7MUV5T1222MGO9NX8Q","","","<img src=""img/flower6.png"" style=""width:200px; border:14px solid green;"">","null","","","","","",""
"1200","","image-keyboard-response","26","164768","0.0-26.0","3JJVG1YBECJBTL6MT17JQ4HL8EL5BS","A25GC0CJO1NNDZ","33K3E8REWWHZ7MUV5T1222MGO9NX8Q","","","img/flower5.png","75","1208","2","1","2","",""
"null","","html-keyboard-response","27","165069","0.0-27.0","3JJVG1YBECJBTL6MT17JQ4HL8EL5BS","A25GC0CJO1NNDZ","33K3E8REWWHZ7MUV5T1222MGO9NX8Q","","","<img src=""img/flower5.png"" style=""width:200px; border:14px solid green;"">","null","","","","","",""
"1311","","image-keyboard-response","28","166381","0.0-28.0","3JJVG1YBECJBTL6MT17JQ4HL8EL5BS","A25GC0CJO1NNDZ","33K3E8REWWHZ7MUV5T1222MGO9NX8Q","","","img/flower5.png","75","1312","2","1","2","",""
"null","","html-keyboard-response","29","166685","0.0-29.0","3JJVG1YBECJBTL6MT17JQ4HL8EL5BS","A25GC0CJO1NNDZ","33K3E8REWWHZ7MUV5T1222MGO9NX8Q","","","<img src=""img/flower5.png"" style=""width:200px; border:14px solid green;"">","null","","","","","",""
"1088","","image-keyboard-response","30","167774","0.0-30.0","3JJVG1YBECJBTL6MT17JQ4HL8EL5BS","A25GC0CJO1NNDZ","33K3E8REWWHZ7MUV5T1222MGO9NX8Q","","","img/flower6.png","76","1089","3","1","3","",""
"null","","html-keyboard-response","31","168074","0.0-31.0","3JJVG1YBECJBTL6MT17JQ4HL8EL5BS","A25GC0CJO1NNDZ","33K3E8REWWHZ7MUV5T1222MGO9NX8Q","","","<img src=""img/flower6.png"" style=""width:200px; border:14px solid green;"">","null","","","","","",""
"955","","image-keyboard-response","32","169039","0.0-32.0","3JJVG1YBECJBTL6MT17JQ4HL8EL5BS","A25GC0CJO1NNDZ","33K3E8REWWHZ7MUV5T1222MGO9NX8Q","","","img/flower4.png","74","965","1","1","1","",""
"null","","html-keyboard-response","33","169341","0.0-33.0","3JJVG1YBECJBTL6MT17JQ4HL8EL5BS","A25GC0CJO1NNDZ","33K3E8REWWHZ7MUV5T1222MGO9NX8Q","","","<img src=""img/flower4.png"" style=""width:200px; border:14px solid green;"">","null","","","","","",""
"1186","","image-keyboard-response","34","170528","0.0-34.0","3JJVG1YBECJBTL6MT17JQ4HL8EL5BS","A25GC0CJO1NNDZ","33K3E8REWWHZ7MUV5T1222MGO9NX8Q","","","img/flower6.png","76","1195","3","1","3","",""
"null","","html-keyboard-response","35","170837","0.0-35.0","3JJVG1YBECJBTL6MT17JQ4HL8EL5BS","A25GC0CJO1NNDZ","33K3E8REWWHZ7MUV5T1222MGO9NX8Q","","","<img src=""img/flower6.png"" style=""width:200px; border:14px solid green;"">","null","","","","","",""
"1172","","image-keyboard-response","36","172015","0.0-36.0","3JJVG1YBECJBTL6MT17JQ4HL8EL5BS","A25GC0CJO1NNDZ","33K3E8REWWHZ7MUV5T1222MGO9NX8Q","","","img/flower4.png","74","1178","1","1","1","",""
"null","","html-keyboard-response","37","172326","0.0-37.0","3JJVG1YBECJBTL6MT17JQ4HL8EL5BS","A25GC0CJO1NNDZ","33K3E8REWWHZ7MUV5T1222MGO9NX8Q","","","<img src=""img/flower4.png"" style=""width:200px; border:14px solid green;"">","null","","","","","",""
"1027","","image-keyboard-response","38","173354","0.0-38.0","3JJVG1YBECJBTL6MT17JQ4HL8EL5BS","A25GC0CJO1NNDZ","33K3E8REWWHZ7MUV5T1222MGO9NX8Q","","","img/flower5.png","75","1028","2","1","2","",""
"null","","html-keyboard-response","39","173654","0.0-39.0","3JJVG1YBECJBTL6MT17JQ4HL8EL5BS","A25GC0CJO1NNDZ","33K3E8REWWHZ7MUV5T1222MGO9NX8Q","","","<img src=""img/flower5.png"" style=""width:200px; border:14px solid green;"">","null","","","","","",""
"1169","","image-keyboard-response","40","174824","0.0-40.0","3JJVG1YBECJBTL6MT17JQ4HL8EL5BS","A25GC0CJO1NNDZ","33K3E8REWWHZ7MUV5T1222MGO9NX8Q","","","img/flower4.png","74","1179","1","1","1","",""
"null","","html-keyboard-response","41","175142","0.0-41.0","3JJVG1YBECJBTL6MT17JQ4HL8EL5BS","A25GC0CJO1NNDZ","33K3E8REWWHZ7MUV5T1222MGO9NX8Q","","","<img src=""img/flower4.png"" style=""width:200px; border:14px solid green;"">","null","","","","","",""
"1057","","image-keyboard-response","42","176200","0.0-42.0","3JJVG1YBECJBTL6MT17JQ4HL8EL5BS","A25GC0CJO1NNDZ","33K3E8REWWHZ7MUV5T1222MGO9NX8Q","","","img/flower6.png","76","1058","3","1","3","",""
"null","","html-keyboard-response","43","176500","0.0-43.0","3JJVG1YBECJBTL6MT17JQ4HL8EL5BS","A25GC0CJO1NNDZ","33K3E8REWWHZ7MUV5T1222MGO9NX8Q","","","<img src=""img/flower6.png"" style=""width:200px; border:14px solid green;"">","null","","","","","",""
"1511","","image-keyboard-response","44","178018","0.0-44.0","3JJVG1YBECJBTL6MT17JQ4HL8EL5BS","A25GC0CJO1NNDZ","33K3E8REWWHZ7MUV5T1222MGO9NX8Q","","","img/flower5.png","75","1518","2","1","2","",""
"null","","html-keyboard-response","45","178319","0.0-45.0","3JJVG1YBECJBTL6MT17JQ4HL8EL5BS","A25GC0CJO1NNDZ","33K3E8REWWHZ7MUV5T1222MGO9NX8Q","","","<img src=""img/flower5.png"" style=""width:200px; border:14px solid green;"">","null","","","","","",""
"1363","","image-keyboard-response","46","179685","0.0-46.0","3JJVG1YBECJBTL6MT17JQ4HL8EL5BS","A25GC0CJO1NNDZ","33K3E8REWWHZ7MUV5T1222MGO9NX8Q","","","img/flower5.png","75","1366","2","1","2","",""
"null","","html-keyboard-response","47","179996","0.0-47.0","3JJVG1YBECJBTL6MT17JQ4HL8EL5BS","A25GC0CJO1NNDZ","33K3E8REWWHZ7MUV5T1222MGO9NX8Q","","","<img src=""img/flower5.png"" style=""width:200px; border:14px solid green;"">","null","","","","","",""
"1092","","image-keyboard-response","48","181104","0.0-48.0","3JJVG1YBECJBTL6MT17JQ4HL8EL5BS","A25GC0CJO1NNDZ","33K3E8REWWHZ7MUV5T1222MGO9NX8Q","","","img/flower6.png","76","1108","3","1","3","",""
"null","","html-keyboard-response","49","181414","0.0-49.0","3JJVG1YBECJBTL6MT17JQ4HL8EL5BS","A25GC0CJO1NNDZ","33K3E8REWWHZ7MUV5T1222MGO9NX8Q","","","<img src=""img/flower6.png"" style=""width:200px; border:14px solid green;"">","null","","","","","",""
"937","","image-keyboard-response","50","182352","0.0-50.0","3JJVG1YBECJBTL6MT17JQ4HL8EL5BS","A25GC0CJO1NNDZ","33K3E8REWWHZ7MUV5T1222MGO9NX8Q","","","img/flower4.png","74","938","1","0","1","",""
"null","","html-keyboard-response","51","182653","0.0-51.0","3JJVG1YBECJBTL6MT17JQ4HL8EL5BS","A25GC0CJO1NNDZ","33K3E8REWWHZ7MUV5T1222MGO9NX8Q","","","<img src=""img/flower4.png"" style=""width:200px;border:14px solid red;"">","null","","","","","",""
"1625","","image-keyboard-response","52","184278","0.0-52.0","3JJVG1YBECJBTL6MT17JQ4HL8EL5BS","A25GC0CJO1NNDZ","33K3E8REWWHZ7MUV5T1222MGO9NX8Q","","","img/flower6.png","76","1636","3","1","3","",""
"null","","html-keyboard-response","53","184591","0.0-53.0","3JJVG1YBECJBTL6MT17JQ4HL8EL5BS","A25GC0CJO1NNDZ","33K3E8REWWHZ7MUV5T1222MGO9NX8Q","","","<img src=""img/flower6.png"" style=""width:200px; border:14px solid green;"">","null","","","","","",""
"1263","","image-keyboard-response","54","185854","0.0-54.0","3JJVG1YBECJBTL6MT17JQ4HL8EL5BS","A25GC0CJO1NNDZ","33K3E8REWWHZ7MUV5T1222MGO9NX8Q","","","img/flower5.png","75","1277","2","1","2","",""
"null","","html-keyboard-response","55","186170","0.0-55.0","3JJVG1YBECJBTL6MT17JQ4HL8EL5BS","A25GC0CJO1NNDZ","33K3E8REWWHZ7MUV5T1222MGO9NX8Q","","","<img src=""img/flower5.png"" style=""width:200px; border:14px solid green;"">","null","","","","","",""
"2107","","image-keyboard-response","56","188286","0.0-56.0","3JJVG1YBECJBTL6MT17JQ4HL8EL5BS","A25GC0CJO1NNDZ","33K3E8REWWHZ7MUV5T1222MGO9NX8Q","","","img/flower6.png","76","2116","3","1","3","",""
"null","","html-keyboard-response","57","188591","0.0-57.0","3JJVG1YBECJBTL6MT17JQ4HL8EL5BS","A25GC0CJO1NNDZ","33K3E8REWWHZ7MUV5T1222MGO9NX8Q","","","<img src=""img/flower6.png"" style=""width:200px; border:14px solid green;"">","null","","","","","",""
"1949","","image-keyboard-response","58","190552","0.0-58.0","3JJVG1YBECJBTL6MT17JQ4HL8EL5BS","A25GC0CJO1NNDZ","33K3E8REWWHZ7MUV5T1222MGO9NX8Q","","","img/flower6.png","76","1961","3","1","3","",""
"null","","html-keyboard-response","59","190854","0.0-59.0","3JJVG1YBECJBTL6MT17JQ4HL8EL5BS","A25GC0CJO1NNDZ","33K3E8REWWHZ7MUV5T1222MGO9NX8Q","","","<img src=""img/flower6.png"" style=""width:200px; border:14px solid green;"">","null","","","","","",""
"3065","","image-keyboard-response","60","193928","0.0-60.0","3JJVG1YBECJBTL6MT17JQ4HL8EL5BS","A25GC0CJO1NNDZ","33K3E8REWWHZ7MUV5T1222MGO9NX8Q","","","img/flower4.png","74","3074","1","1","1","",""
"null","","html-keyboard-response","61","194235","0.0-61.0","3JJVG1YBECJBTL6MT17JQ4HL8EL5BS","A25GC0CJO1NNDZ","33K3E8REWWHZ7MUV5T1222MGO9NX8Q","","","<img src=""img/flower4.png"" style=""width:200px; border:14px solid green;"">","null","","","","","",""
"1043","","image-keyboard-response","62","195288","0.0-62.0","3JJVG1YBECJBTL6MT17JQ4HL8EL5BS","A25GC0CJO1NNDZ","33K3E8REWWHZ7MUV5T1222MGO9NX8Q","","","img/flower4.png","74","1053","1","1","1","",""
"null","","html-keyboard-response","63","195591","0.0-63.0","3JJVG1YBECJBTL6MT17JQ4HL8EL5BS","A25GC0CJO1NNDZ","33K3E8REWWHZ7MUV5T1222MGO9NX8Q","","","<img src=""img/flower4.png"" style=""width:200px; border:14px solid green;"">","null","","","","","",""
"13195","","instructions","64","208786","0.0-64.0","3JJVG1YBECJBTL6MT17JQ4HL8EL5BS","A25GC0CJO1NNDZ","33K3E8REWWHZ7MUV5T1222MGO9NX8Q","","[{""page_index"":0,""viewing_time"":2416},{""page_index"":1,""viewing_time"":10779}]","","","","","","","",""
"2181","","image-keyboard-response","65","210968","0.0-65.0","3JJVG1YBECJBTL6MT17JQ4HL8EL5BS","A25GC0CJO1NNDZ","33K3E8REWWHZ7MUV5T1222MGO9NX8Q","","","img/flower5.png","74","2181","1","1","2","",""
"null","","html-keyboard-response","66","211288","0.0-66.0","3JJVG1YBECJBTL6MT17JQ4HL8EL5BS","A25GC0CJO1NNDZ","33K3E8REWWHZ7MUV5T1222MGO9NX8Q","","","<img src=""img/flower5.png"" style=""width:200px; border:14px solid green;"">","null","","","","","",""
"882","","image-keyboard-response","67","212177","0.0-67.0","3JJVG1YBECJBTL6MT17JQ4HL8EL5BS","A25GC0CJO1NNDZ","33K3E8REWWHZ7MUV5T1222MGO9NX8Q","","","img/flower5.png","76","889","3","1","2","",""
"null","","html-keyboard-response","68","212479","0.0-68.0","3JJVG1YBECJBTL6MT17JQ4HL8EL5BS","A25GC0CJO1NNDZ","33K3E8REWWHZ7MUV5T1222MGO9NX8Q","","","<img src=""img/flower5.png"" style=""width:200px; border:14px solid green;"">","null","","","","","",""
"1177","","image-keyboard-response","69","213657","0.0-69.0","3JJVG1YBECJBTL6MT17JQ4HL8EL5BS","A25GC0CJO1NNDZ","33K3E8REWWHZ7MUV5T1222MGO9NX8Q","","","img/flower6.png","75","1178","2","0","3","",""
"null","","html-keyboard-response","70","213957","0.0-70.0","3JJVG1YBECJBTL6MT17JQ4HL8EL5BS","A25GC0CJO1NNDZ","33K3E8REWWHZ7MUV5T1222MGO9NX8Q","","","<img src=""img/flower6.png"" style=""width:200px;border:14px solid red;"">","null","","","","","",""
"1645","","image-keyboard-response","71","215603","0.0-71.0","3JJVG1YBECJBTL6MT17JQ4HL8EL5BS","A25GC0CJO1NNDZ","33K3E8REWWHZ7MUV5T1222MGO9NX8Q","","","img/flower4.png","74","1646","1","1","1","",""
"null","","html-keyboard-response","72","215904","0.0-72.0","3JJVG1YBECJBTL6MT17JQ4HL8EL5BS","A25GC0CJO1NNDZ","33K3E8REWWHZ7MUV5T1222MGO9NX8Q","","","<img src=""img/flower4.png"" style=""width:200px; border:14px solid green;"">","null","","","","","",""
"1006","","image-keyboard-response","73","216910","0.0-73.0","3JJVG1YBECJBTL6MT17JQ4HL8EL5BS","A25GC0CJO1NNDZ","33K3E8REWWHZ7MUV5T1222MGO9NX8Q","","","img/flower6.png","76","1006","3","1","3","",""
"null","","html-keyboard-response","74","217216","0.0-74.0","3JJVG1YBECJBTL6MT17JQ4HL8EL5BS","A25GC0CJO1NNDZ","33K3E8REWWHZ7MUV5T1222MGO9NX8Q","","","<img src=""img/flower6.png"" style=""width:200px; border:14px solid green;"">","null","","","","","",""
"978","","image-keyboard-response","75","218209","0.0-75.0","3JJVG1YBECJBTL6MT17JQ4HL8EL5BS","A25GC0CJO1NNDZ","33K3E8REWWHZ7MUV5T1222MGO9NX8Q","","","img/flower4.png","74","993","1","1","1","",""
"null","","html-keyboard-response","76","218523","0.0-76.0","3JJVG1YBECJBTL6MT17JQ4HL8EL5BS","A25GC0CJO1NNDZ","33K3E8REWWHZ7MUV5T1222MGO9NX8Q","","","<img src=""img/flower4.png"" style=""width:200px; border:14px solid green;"">","null","","","","","",""
"1628","","image-keyboard-response","77","220168","0.0-77.0","3JJVG1YBECJBTL6MT17JQ4HL8EL5BS","A25GC0CJO1NNDZ","33K3E8REWWHZ7MUV5T1222MGO9NX8Q","","","img/flower4.png","74","1644","1","1","1","",""
"null","","html-keyboard-response","78","220481","0.0-78.0","3JJVG1YBECJBTL6MT17JQ4HL8EL5BS","A25GC0CJO1NNDZ","33K3E8REWWHZ7MUV5T1222MGO9NX8Q","","","<img src=""img/flower4.png"" style=""width:200px; border:14px solid green;"">","null","","","","","",""
"1093","","image-keyboard-response","79","221575","0.0-79.0","3JJVG1YBECJBTL6MT17JQ4HL8EL5BS","A25GC0CJO1NNDZ","33K3E8REWWHZ7MUV5T1222MGO9NX8Q","","","img/flower5.png","74","1094","1","0","2","",""
"null","","html-keyboard-response","80","221882","0.0-80.0","3JJVG1YBECJBTL6MT17JQ4HL8EL5BS","A25GC0CJO1NNDZ","33K3E8REWWHZ7MUV5T1222MGO9NX8Q","","","<img src=""img/flower5.png"" style=""width:200px;border:14px solid red;"">","null","","","","","",""
"1066","","image-keyboard-response","81","222955","0.0-81.0","3JJVG1YBECJBTL6MT17JQ4HL8EL5BS","A25GC0CJO1NNDZ","33K3E8REWWHZ7MUV5T1222MGO9NX8Q","","","img/flower4.png","74","1073","1","1","1","",""
"null","","html-keyboard-response","82","223255","0.0-82.0","3JJVG1YBECJBTL6MT17JQ4HL8EL5BS","A25GC0CJO1NNDZ","33K3E8REWWHZ7MUV5T1222MGO9NX8Q","","","<img src=""img/flower4.png"" style=""width:200px; border:14px solid green;"">","null","","","","","",""
"1115","","image-keyboard-response","83","224373","0.0-83.0","3JJVG1YBECJBTL6MT17JQ4HL8EL5BS","A25GC0CJO1NNDZ","33K3E8REWWHZ7MUV5T1222MGO9NX8Q","","","img/flower6.png","76","1118","3","1","3","",""
"null","","html-keyboard-response","84","224673","0.0-84.0","3JJVG1YBECJBTL6MT17JQ4HL8EL5BS","A25GC0CJO1NNDZ","33K3E8REWWHZ7MUV5T1222MGO9NX8Q","","","<img src=""img/flower6.png"" style=""width:200px; border:14px solid green;"">","null","","","","","",""
"1244","","image-keyboard-response","85","225923","0.0-85.0","3JJVG1YBECJBTL6MT17JQ4HL8EL5BS","A25GC0CJO1NNDZ","33K3E8REWWHZ7MUV5T1222MGO9NX8Q","","","img/flower6.png","74","1250","1","1","3","",""
"null","","html-keyboard-response","86","226270","0.0-86.0","3JJVG1YBECJBTL6MT17JQ4HL8EL5BS","A25GC0CJO1NNDZ","33K3E8REWWHZ7MUV5T1222MGO9NX8Q","","","<img src=""img/flower6.png"" style=""width:200px; border:14px solid green;"">","null","","","","","",""
"1162","","image-keyboard-response","87","227440","0.0-87.0","3JJVG1YBECJBTL6MT17JQ4HL8EL5BS","A25GC0CJO1NNDZ","33K3E8REWWHZ7MUV5T1222MGO9NX8Q","","","img/flower5.png","75","1170","2","1","2","",""
"null","","html-keyboard-response","88","227748","0.0-88.0","3JJVG1YBECJBTL6MT17JQ4HL8EL5BS","A25GC0CJO1NNDZ","33K3E8REWWHZ7MUV5T1222MGO9NX8Q","","","<img src=""img/flower5.png"" style=""width:200px; border:14px solid green;"">","null","","","","","",""
"1138","","image-keyboard-response","89","228888","0.0-89.0","3JJVG1YBECJBTL6MT17JQ4HL8EL5BS","A25GC0CJO1NNDZ","33K3E8REWWHZ7MUV5T1222MGO9NX8Q","","","img/flower4.png","74","1140","1","1","1","",""
"null","","html-keyboard-response","90","229198","0.0-90.0","3JJVG1YBECJBTL6MT17JQ4HL8EL5BS","A25GC0CJO1NNDZ","33K3E8REWWHZ7MUV5T1222MGO9NX8Q","","","<img src=""img/flower4.png"" style=""width:200px; border:14px solid green;"">","null","","","","","",""
"1138","","image-keyboard-response","91","230336","0.0-91.0","3JJVG1YBECJBTL6MT17JQ4HL8EL5BS","A25GC0CJO1NNDZ","33K3E8REWWHZ7MUV5T1222MGO9NX8Q","","","img/flower6.png","76","1139","3","1","3","",""
"null","","html-keyboard-response","92","230736","0.0-92.0","3JJVG1YBECJBTL6MT17JQ4HL8EL5BS","A25GC0CJO1NNDZ","33K3E8REWWHZ7MUV5T1222MGO9NX8Q","","","<img src=""img/flower6.png"" style=""width:200px; border:14px solid green;"">","null","","","","","",""
"979","","image-keyboard-response","93","231725","0.0-93.0","3JJVG1YBECJBTL6MT17JQ4HL8EL5BS","A25GC0CJO1NNDZ","33K3E8REWWHZ7MUV5T1222MGO9NX8Q","","","img/flower6.png","76","989","3","1","3","",""
"null","","html-keyboard-response","94","232026","0.0-94.0","3JJVG1YBECJBTL6MT17JQ4HL8EL5BS","A25GC0CJO1NNDZ","33K3E8REWWHZ7MUV5T1222MGO9NX8Q","","","<img src=""img/flower6.png"" style=""width:200px; border:14px solid green;"">","null","","","","","",""
"1456","","image-keyboard-response","95","233483","0.0-95.0","3JJVG1YBECJBTL6MT17JQ4HL8EL5BS","A25GC0CJO1NNDZ","33K3E8REWWHZ7MUV5T1222MGO9NX8Q","","","img/flower5.png","75","1457","2","0","2","",""
"null","","html-keyboard-response","96","233784","0.0-96.0","3JJVG1YBECJBTL6MT17JQ4HL8EL5BS","A25GC0CJO1NNDZ","33K3E8REWWHZ7MUV5T1222MGO9NX8Q","","","<img src=""img/flower5.png"" style=""width:200px;border:14px solid red;"">","null","","","","","",""
"1398","","image-keyboard-response","97","235191","0.0-97.0","3JJVG1YBECJBTL6MT17JQ4HL8EL5BS","A25GC0CJO1NNDZ","33K3E8REWWHZ7MUV5T1222MGO9NX8Q","","","img/flower4.png","74","1407","1","1","1","",""
"null","","html-keyboard-response","98","235491","0.0-98.0","3JJVG1YBECJBTL6MT17JQ4HL8EL5BS","A25GC0CJO1NNDZ","33K3E8REWWHZ7MUV5T1222MGO9NX8Q","","","<img src=""img/flower4.png"" style=""width:200px; border:14px solid green;"">","null","","","","","",""
"1769","","image-keyboard-response","99","237269","0.0-99.0","3JJVG1YBECJBTL6MT17JQ4HL8EL5BS","A25GC0CJO1NNDZ","33K3E8REWWHZ7MUV5T1222MGO9NX8Q","","","img/flower6.png","76","1778","3","1","3","",""
"null","","html-keyboard-response","100","237569","0.0-100.0","3JJVG1YBECJBTL6MT17JQ4HL8EL5BS","A25GC0CJO1NNDZ","33K3E8REWWHZ7MUV5T1222MGO9NX8Q","","","<img src=""img/flower6.png"" style=""width:200px; border:14px solid green;"">","null","","","","","",""
"932","","image-keyboard-response","101","238502","0.0-101.0","3JJVG1YBECJBTL6MT17JQ4HL8EL5BS","A25GC0CJO1NNDZ","33K3E8REWWHZ7MUV5T1222MGO9NX8Q","","","img/flower4.png","74","933","1","1","1","",""
"null","","html-keyboard-response","102","238809","0.0-102.0","3JJVG1YBECJBTL6MT17JQ4HL8EL5BS","A25GC0CJO1NNDZ","33K3E8REWWHZ7MUV5T1222MGO9NX8Q","","","<img src=""img/flower4.png"" style=""width:200px; border:14px solid green;"">","null","","","","","",""
"1516","","image-keyboard-response","103","240339","0.0-103.0","3JJVG1YBECJBTL6MT17JQ4HL8EL5BS","A25GC0CJO1NNDZ","33K3E8REWWHZ7MUV5T1222MGO9NX8Q","","","img/flower5.png","75","1530","2","1","2","",""
"null","","html-keyboard-response","104","240640","0.0-104.0","3JJVG1YBECJBTL6MT17JQ4HL8EL5BS","A25GC0CJO1NNDZ","33K3E8REWWHZ7MUV5T1222MGO9NX8Q","","","<img src=""img/flower5.png"" style=""width:200px; border:14px solid green;"">","null","","","","","",""
"1292","","image-keyboard-response","105","241944","0.0-105.0","3JJVG1YBECJBTL6MT17JQ4HL8EL5BS","A25GC0CJO1NNDZ","33K3E8REWWHZ7MUV5T1222MGO9NX8Q","","","img/flower5.png","75","1303","2","0","2","",""
"null","","html-keyboard-response","106","242246","0.0-106.0","3JJVG1YBECJBTL6MT17JQ4HL8EL5BS","A25GC0CJO1NNDZ","33K3E8REWWHZ7MUV5T1222MGO9NX8Q","","","<img src=""img/flower5.png"" style=""width:200px;border:14px solid red;"">","null","","","","","",""
"886","","image-keyboard-response","107","243132","0.0-107.0","3JJVG1YBECJBTL6MT17JQ4HL8EL5BS","A25GC0CJO1NNDZ","33K3E8REWWHZ7MUV5T1222MGO9NX8Q","","","img/flower6.png","76","887","3","1","3","",""
"null","","html-keyboard-response","108","243433","0.0-108.0","3JJVG1YBECJBTL6MT17JQ4HL8EL5BS","A25GC0CJO1NNDZ","33K3E8REWWHZ7MUV5T1222MGO9NX8Q","","","<img src=""img/flower6.png"" style=""width:200px; border:14px solid green;"">","null","","","","","",""
"1171","","image-keyboard-response","109","244612","0.0-109.0","3JJVG1YBECJBTL6MT17JQ4HL8EL5BS","A25GC0CJO1NNDZ","33K3E8REWWHZ7MUV5T1222MGO9NX8Q","","","img/flower6.png","76","1179","3","0","3","",""
"null","","html-keyboard-response","110","244923","0.0-110.0","3JJVG1YBECJBTL6MT17JQ4HL8EL5BS","A25GC0CJO1NNDZ","33K3E8REWWHZ7MUV5T1222MGO9NX8Q","","","<img src=""img/flower6.png"" style=""width:200px;border:14px solid red;"">","null","","","","","",""
"1164","","image-keyboard-response","111","246100","0.0-111.0","3JJVG1YBECJBTL6MT17JQ4HL8EL5BS","A25GC0CJO1NNDZ","33K3E8REWWHZ7MUV5T1222MGO9NX8Q","","","img/flower5.png","75","1176","2","1","2","",""
"null","","html-keyboard-response","112","246407","0.0-112.0","3JJVG1YBECJBTL6MT17JQ4HL8EL5BS","A25GC0CJO1NNDZ","33K3E8REWWHZ7MUV5T1222MGO9NX8Q","","","<img src=""img/flower5.png"" style=""width:200px; border:14px solid green;"">","null","","","","","",""
"1525","","image-keyboard-response","113","247938","0.0-113.0","3JJVG1YBECJBTL6MT17JQ4HL8EL5BS","A25GC0CJO1NNDZ","33K3E8REWWHZ7MUV5T1222MGO9NX8Q","","","img/flower4.png","74","1531","1","1","1","",""
"null","","html-keyboard-response","114","248248","0.0-114.0","3JJVG1YBECJBTL6MT17JQ4HL8EL5BS","A25GC0CJO1NNDZ","33K3E8REWWHZ7MUV5T1222MGO9NX8Q","","","<img src=""img/flower4.png"" style=""width:200px; border:14px solid green;"">","null","","","","","",""
"1220","","image-keyboard-response","115","249469","0.0-115.0","3JJVG1YBECJBTL6MT17JQ4HL8EL5BS","A25GC0CJO1NNDZ","33K3E8REWWHZ7MUV5T1222MGO9NX8Q","","","img/flower5.png","76","1228","3","1","2","",""
"null","","html-keyboard-response","116","249777","0.0-116.0","3JJVG1YBECJBTL6MT17JQ4HL8EL5BS","A25GC0CJO1NNDZ","33K3E8REWWHZ7MUV5T1222MGO9NX8Q","","","<img src=""img/flower5.png"" style=""width:200px; border:14px solid green;"">","null","","","","","",""
"1547","","image-keyboard-response","117","251334","0.0-117.0","3JJVG1YBECJBTL6MT17JQ4HL8EL5BS","A25GC0CJO1NNDZ","33K3E8REWWHZ7MUV5T1222MGO9NX8Q","","","img/flower4.png","74","1557","1","0","1","",""
"null","","html-keyboard-response","118","251638","0.0-118.0","3JJVG1YBECJBTL6MT17JQ4HL8EL5BS","A25GC0CJO1NNDZ","33K3E8REWWHZ7MUV5T1222MGO9NX8Q","","","<img src=""img/flower4.png"" style=""width:200px;border:14px solid red;"">","null","","","","","",""
"1029","","image-keyboard-response","119","252674","0.0-119.0","3JJVG1YBECJBTL6MT17JQ4HL8EL5BS","A25GC0CJO1NNDZ","33K3E8REWWHZ7MUV5T1222MGO9NX8Q","","","img/flower4.png","74","1036","1","1","1","",""
"null","","html-keyboard-response","120","252974","0.0-120.0","3JJVG1YBECJBTL6MT17JQ4HL8EL5BS","A25GC0CJO1NNDZ","33K3E8REWWHZ7MUV5T1222MGO9NX8Q","","","<img src=""img/flower4.png"" style=""width:200px; border:14px solid green;"">","null","","","","","",""
"1149","","image-keyboard-response","121","254124","0.0-121.0","3JJVG1YBECJBTL6MT17JQ4HL8EL5BS","A25GC0CJO1NNDZ","33K3E8REWWHZ7MUV5T1222MGO9NX8Q","","","img/flower5.png","76","1150","3","1","2","",""
"null","","html-keyboard-response","122","254432","0.0-122.0","3JJVG1YBECJBTL6MT17JQ4HL8EL5BS","A25GC0CJO1NNDZ","33K3E8REWWHZ7MUV5T1222MGO9NX8Q","","","<img src=""img/flower5.png"" style=""width:200px; border:14px solid green;"">","null","","","","","",""
"1297","","image-keyboard-response","123","255740","0.0-123.0","3JJVG1YBECJBTL6MT17JQ4HL8EL5BS","A25GC0CJO1NNDZ","33K3E8REWWHZ7MUV5T1222MGO9NX8Q","","","img/flower6.png","76","1308","3","0","3","",""
"null","","html-keyboard-response","124","256042","0.0-124.0","3JJVG1YBECJBTL6MT17JQ4HL8EL5BS","A25GC0CJO1NNDZ","33K3E8REWWHZ7MUV5T1222MGO9NX8Q","","","<img src=""img/flower6.png"" style=""width:200px;border:14px solid red;"">","null","","","","","",""
"2944","","instructions","125","258986","0.0-125.0","3JJVG1YBECJBTL6MT17JQ4HL8EL5BS","A25GC0CJO1NNDZ","33K3E8REWWHZ7MUV5T1222MGO9NX8Q","","[{""page_index"":0,""viewing_time"":2944}]","","","","","","","",""
"1728","","image-keyboard-response","126","260728","0.0-126.0","3JJVG1YBECJBTL6MT17JQ4HL8EL5BS","A25GC0CJO1NNDZ","33K3E8REWWHZ7MUV5T1222MGO9NX8Q","","","img/flower6.png","76","1742","3","1","3","0.7,0.2,0,0,0.7,0.2,0.2,0,0.7",""
"null","","html-keyboard-response","127","261028","0.0-127.0","3JJVG1YBECJBTL6MT17JQ4HL8EL5BS","A25GC0CJO1NNDZ","33K3E8REWWHZ7MUV5T1222MGO9NX8Q","","","<img src=""img/flower6.png"" style=""width:200px; border:14px solid green;"">","null","","","","","",""
"1217","","image-keyboard-response","128","262254","0.0-128.0","3JJVG1YBECJBTL6MT17JQ4HL8EL5BS","A25GC0CJO1NNDZ","33K3E8REWWHZ7MUV5T1222MGO9NX8Q","","","img/flower4.png","74","1226","1","1","1","0.7,0.2,0,0,0.7,0.2,0.2,0,0.7",""
"null","","html-keyboard-response","129","262554","0.0-129.0","3JJVG1YBECJBTL6MT17JQ4HL8EL5BS","A25GC0CJO1NNDZ","33K3E8REWWHZ7MUV5T1222MGO9NX8Q","","","<img src=""img/flower4.png"" style=""width:200px; border:14px solid green;"">","null","","","","","",""
"977","","image-keyboard-response","130","263532","0.0-130.0","3JJVG1YBECJBTL6MT17JQ4HL8EL5BS","A25GC0CJO1NNDZ","33K3E8REWWHZ7MUV5T1222MGO9NX8Q","","","img/flower4.png","74","978","1","1","1","0.7,0.2,0,0,0.7,0.2,0.2,0,0.7",""
"null","","html-keyboard-response","131","263886","0.0-131.0","3JJVG1YBECJBTL6MT17JQ4HL8EL5BS","A25GC0CJO1NNDZ","33K3E8REWWHZ7MUV5T1222MGO9NX8Q","","","<img src=""img/flower4.png"" style=""width:200px; border:14px solid green;"">","null","","","","","",""
"875","","image-keyboard-response","132","264774","0.0-132.0","3JJVG1YBECJBTL6MT17JQ4HL8EL5BS","A25GC0CJO1NNDZ","33K3E8REWWHZ7MUV5T1222MGO9NX8Q","","","img/flower4.png","74","888","1","1","1","0.7,0.2,0,0,0.7,0.2,0.2,0,0.7",""
"null","","html-keyboard-response","133","265075","0.0-133.0","3JJVG1YBECJBTL6MT17JQ4HL8EL5BS","A25GC0CJO1NNDZ","33K3E8REWWHZ7MUV5T1222MGO9NX8Q","","","<img src=""img/flower4.png"" style=""width:200px; border:14px solid green;"">","null","","","","","",""
"794","","image-keyboard-response","134","265869","0.0-134.0","3JJVG1YBECJBTL6MT17JQ4HL8EL5BS","A25GC0CJO1NNDZ","33K3E8REWWHZ7MUV5T1222MGO9NX8Q","","","img/flower4.png","74","794","1","0","1","0.7,0.2,0,0,0.7,0.2,0.2,0,0.7",""
"null","","html-keyboard-response","135","266198","0.0-135.0","3JJVG1YBECJBTL6MT17JQ4HL8EL5BS","A25GC0CJO1NNDZ","33K3E8REWWHZ7MUV5T1222MGO9NX8Q","","","<img src=""img/flower4.png"" style=""width:200px;border:14px solid red;"">","null","","","","","",""
"1146","","image-keyboard-response","136","267344","0.0-136.0","3JJVG1YBECJBTL6MT17JQ4HL8EL5BS","A25GC0CJO1NNDZ","33K3E8REWWHZ7MUV5T1222MGO9NX8Q","","","img/flower6.png","76","1146","3","1","3","0.7,0.2,0,0,0.7,0.2,0.2,0,0.7",""
"null","","html-keyboard-response","137","267651","0.0-137.0","3JJVG1YBECJBTL6MT17JQ4HL8EL5BS","A25GC0CJO1NNDZ","33K3E8REWWHZ7MUV5T1222MGO9NX8Q","","","<img src=""img/flower6.png"" style=""width:200px; border:14px solid green;"">","null","","","","","",""
"875","","image-keyboard-response","138","268529","0.0-138.0","3JJVG1YBECJBTL6MT17JQ4HL8EL5BS","A25GC0CJO1NNDZ","33K3E8REWWHZ7MUV5T1222MGO9NX8Q","","","img/flower6.png","76","878","3","0","3","0.7,0.2,0,0,0.7,0.2,0.2,0,0.7",""
"null","","html-keyboard-response","139","268829","0.0-139.0","3JJVG1YBECJBTL6MT17JQ4HL8EL5BS","A25GC0CJO1NNDZ","33K3E8REWWHZ7MUV5T1222MGO9NX8Q","","","<img src=""img/flower6.png"" style=""width:200px;border:14px solid red;"">","null","","","","","",""
"1713","","image-keyboard-response","140","270557","0.0-140.0","3JJVG1YBECJBTL6MT17JQ4HL8EL5BS","A25GC0CJO1NNDZ","33K3E8REWWHZ7MUV5T1222MGO9NX8Q","","","img/flower6.png","76","1728","3","1","3","0.7,0.2,0,0,0.7,0.2,0.2,0,0.7",""
"null","","html-keyboard-response","141","270871","0.0-141.0","3JJVG1YBECJBTL6MT17JQ4HL8EL5BS","A25GC0CJO1NNDZ","33K3E8REWWHZ7MUV5T1222MGO9NX8Q","","","<img src=""img/flower6.png"" style=""width:200px; border:14px solid green;"">","null","","","","","",""
"1087","","image-keyboard-response","142","271958","0.0-142.0","3JJVG1YBECJBTL6MT17JQ4HL8EL5BS","A25GC0CJO1NNDZ","33K3E8REWWHZ7MUV5T1222MGO9NX8Q","","","img/flower6.png","75","1087","2","0","3","0.7,0.2,0,0,0.7,0.2,0.2,0,0.7",""
"null","","html-keyboard-response","143","272265","0.0-143.0","3JJVG1YBECJBTL6MT17JQ4HL8EL5BS","A25GC0CJO1NNDZ","33K3E8REWWHZ7MUV5T1222MGO9NX8Q","","","<img src=""img/flower6.png"" style=""width:200px;border:14px solid red;"">","null","","","","","",""
"1417","","image-keyboard-response","144","273694","0.0-144.0","3JJVG1YBECJBTL6MT17JQ4HL8EL5BS","A25GC0CJO1NNDZ","33K3E8REWWHZ7MUV5T1222MGO9NX8Q","","","img/flower4.png","74","1429","1","1","1","0.7,0.2,0,0,0.7,0.2,0.2,0,0.7",""
"null","","html-keyboard-response","145","273995","0.0-145.0","3JJVG1YBECJBTL6MT17JQ4HL8EL5BS","A25GC0CJO1NNDZ","33K3E8REWWHZ7MUV5T1222MGO9NX8Q","","","<img src=""img/flower4.png"" style=""width:200px; border:14px solid green;"">","null","","","","","",""
"874","","image-keyboard-response","146","274869","0.0-146.0","3JJVG1YBECJBTL6MT17JQ4HL8EL5BS","A25GC0CJO1NNDZ","33K3E8REWWHZ7MUV5T1222MGO9NX8Q","","","img/flower4.png","74","874","1","1","1","0.7,0.2,0,0,0.7,0.2,0.2,0,0.7",""
"null","","html-keyboard-response","147","275183","0.0-147.0","3JJVG1YBECJBTL6MT17JQ4HL8EL5BS","A25GC0CJO1NNDZ","33K3E8REWWHZ7MUV5T1222MGO9NX8Q","","","<img src=""img/flower4.png"" style=""width:200px; border:14px solid green;"">","null","","","","","",""
"1236","","image-keyboard-response","148","276419","0.0-148.0","3JJVG1YBECJBTL6MT17JQ4HL8EL5BS","A25GC0CJO1NNDZ","33K3E8REWWHZ7MUV5T1222MGO9NX8Q","","","img/flower1.png","75","1248","2","0","2","0.7,0.2,0,0,0.7,0.2,0.2,0,0.7",""
"null","","html-keyboard-response","149","276732","0.0-149.0","3JJVG1YBECJBTL6MT17JQ4HL8EL5BS","A25GC0CJO1NNDZ","33K3E8REWWHZ7MUV5T1222MGO9NX8Q","","","<img src=""img/flower1.png"" style=""width:200px;border:14px solid red;"">","null","","","","","",""
"1478","","image-keyboard-response","150","278211","0.0-150.0","3JJVG1YBECJBTL6MT17JQ4HL8EL5BS","A25GC0CJO1NNDZ","33K3E8REWWHZ7MUV5T1222MGO9NX8Q","","","img/flower1.png","76","1479","3","0","2","0.7,0.2,0,0,0.7,0.2,0.2,0,0.7",""
"null","","html-keyboard-response","151","278515","0.0-151.0","3JJVG1YBECJBTL6MT17JQ4HL8EL5BS","A25GC0CJO1NNDZ","33K3E8REWWHZ7MUV5T1222MGO9NX8Q","","","<img src=""img/flower1.png"" style=""width:200px;border:14px solid red;"">","null","","","","","",""
"835","","image-keyboard-response","152","279351","0.0-152.0","3JJVG1YBECJBTL6MT17JQ4HL8EL5BS","A25GC0CJO1NNDZ","33K3E8REWWHZ7MUV5T1222MGO9NX8Q","","","img/flower1.png","74","836","1","0","2","0.7,0.2,0,0,0.7,0.2,0.2,0,0.7",""
"null","","html-keyboard-response","153","279679","0.0-153.0","3JJVG1YBECJBTL6MT17JQ4HL8EL5BS","A25GC0CJO1NNDZ","33K3E8REWWHZ7MUV5T1222MGO9NX8Q","","","<img src=""img/flower1.png"" style=""width:200px;border:14px solid red;"">","null","","","","","",""
"1410","","image-keyboard-response","154","281098","0.0-154.0","3JJVG1YBECJBTL6MT17JQ4HL8EL5BS","A25GC0CJO1NNDZ","33K3E8REWWHZ7MUV5T1222MGO9NX8Q","","","img/flower6.png","76","1419","3","0","3","0.7,0.2,0,0,0.7,0.2,0.2,0,0.7",""
"null","","html-keyboard-response","155","281436","0.0-155.0","3JJVG1YBECJBTL6MT17JQ4HL8EL5BS","A25GC0CJO1NNDZ","33K3E8REWWHZ7MUV5T1222MGO9NX8Q","","","<img src=""img/flower6.png"" style=""width:200px;border:14px solid red;"">","null","","","","","",""
"1370","","image-keyboard-response","156","282816","0.0-156.0","3JJVG1YBECJBTL6MT17JQ4HL8EL5BS","A25GC0CJO1NNDZ","33K3E8REWWHZ7MUV5T1222MGO9NX8Q","","","img/flower6.png","75","1377","2","0","3","0.7,0.2,0,0,0.7,0.2,0.2,0,0.7",""
"null","","html-keyboard-response","157","283127","0.0-157.0","3JJVG1YBECJBTL6MT17JQ4HL8EL5BS","A25GC0CJO1NNDZ","33K3E8REWWHZ7MUV5T1222MGO9NX8Q","","","<img src=""img/flower6.png"" style=""width:200px;border:14px solid red;"">","null","","","","","",""
"977","","image-keyboard-response","158","284106","0.0-158.0","3JJVG1YBECJBTL6MT17JQ4HL8EL5BS","A25GC0CJO1NNDZ","33K3E8REWWHZ7MUV5T1222MGO9NX8Q","","","img/flower6.png","76","979","3","0","3","0.7,0.2,0,0,0.7,0.2,0.2,0,0.7",""
"null","","html-keyboard-response","159","284420","0.0-159.0","3JJVG1YBECJBTL6MT17JQ4HL8EL5BS","A25GC0CJO1NNDZ","33K3E8REWWHZ7MUV5T1222MGO9NX8Q","","","<img src=""img/flower6.png"" style=""width:200px;border:14px solid red;"">","null","","","","","",""
"783","","image-keyboard-response","160","285205","0.0-160.0","3JJVG1YBECJBTL6MT17JQ4HL8EL5BS","A25GC0CJO1NNDZ","33K3E8REWWHZ7MUV5T1222MGO9NX8Q","","","img/flower6.png","74","785","1","0","3","0.7,0.2,0,0,0.7,0.2,0.2,0,0.7",""
"null","","html-keyboard-response","161","285506","0.0-161.0","3JJVG1YBECJBTL6MT17JQ4HL8EL5BS","A25GC0CJO1NNDZ","33K3E8REWWHZ7MUV5T1222MGO9NX8Q","","","<img src=""img/flower6.png"" style=""width:200px;border:14px solid red;"">","null","","","","","",""
"1126","","image-keyboard-response","162","286633","0.0-162.0","3JJVG1YBECJBTL6MT17JQ4HL8EL5BS","A25GC0CJO1NNDZ","33K3E8REWWHZ7MUV5T1222MGO9NX8Q","","","img/flower1.png","75","1127","2","1","2","0.7,0.2,0,0,0.7,0.2,0.2,0,0.7",""
"null","","html-keyboard-response","163","286936","0.0-163.0","3JJVG1YBECJBTL6MT17JQ4HL8EL5BS","A25GC0CJO1NNDZ","33K3E8REWWHZ7MUV5T1222MGO9NX8Q","","","<img src=""img/flower1.png"" style=""width:200px; border:14px solid green;"">","null","","","","","",""
"1451","","image-keyboard-response","164","288392","0.0-164.0","3JJVG1YBECJBTL6MT17JQ4HL8EL5BS","A25GC0CJO1NNDZ","33K3E8REWWHZ7MUV5T1222MGO9NX8Q","","","img/flower6.png","76","1456","3","1","3","0.7,0.2,0,0,0.7,0.2,0.2,0,0.7",""
"null","","html-keyboard-response","165","288702","0.0-165.0","3JJVG1YBECJBTL6MT17JQ4HL8EL5BS","A25GC0CJO1NNDZ","33K3E8REWWHZ7MUV5T1222MGO9NX8Q","","","<img src=""img/flower6.png"" style=""width:200px; border:14px solid green;"">","null","","","","","",""
"1545","","image-keyboard-response","166","290261","0.0-166.0","3JJVG1YBECJBTL6MT17JQ4HL8EL5BS","A25GC0CJO1NNDZ","33K3E8REWWHZ7MUV5T1222MGO9NX8Q","","","img/flower6.png","76","1559","3","0","3","0.7,0.2,0,0,0.7,0.2,0.2,0,0.7",""
"null","","html-keyboard-response","167","290574","0.0-167.0","3JJVG1YBECJBTL6MT17JQ4HL8EL5BS","A25GC0CJO1NNDZ","33K3E8REWWHZ7MUV5T1222MGO9NX8Q","","","<img src=""img/flower6.png"" style=""width:200px;border:14px solid red;"">","null","","","","","",""
"1359","","image-keyboard-response","168","291933","0.0-168.0","3JJVG1YBECJBTL6MT17JQ4HL8EL5BS","A25GC0CJO1NNDZ","33K3E8REWWHZ7MUV5T1222MGO9NX8Q","","","img/flower1.png","75","1359","2","0","2","0.7,0.2,0,0,0.7,0.2,0.2,0,0.7",""
"null","","html-keyboard-response","169","292248","0.0-169.0","3JJVG1YBECJBTL6MT17JQ4HL8EL5BS","A25GC0CJO1NNDZ","33K3E8REWWHZ7MUV5T1222MGO9NX8Q","","","<img src=""img/flower1.png"" style=""width:200px;border:14px solid red;"">","null","","","","","",""
"1465","","image-keyboard-response","170","293729","0.0-170.0","3JJVG1YBECJBTL6MT17JQ4HL8EL5BS","A25GC0CJO1NNDZ","33K3E8REWWHZ7MUV5T1222MGO9NX8Q","","","img/flower6.png","76","1481","3","1","3","0.7,0.2,0,0,0.7,0.2,0.2,0,0.7",""
"null","","html-keyboard-response","171","294042","0.0-171.0","3JJVG1YBECJBTL6MT17JQ4HL8EL5BS","A25GC0CJO1NNDZ","33K3E8REWWHZ7MUV5T1222MGO9NX8Q","","","<img src=""img/flower6.png"" style=""width:200px; border:14px solid green;"">","null","","","","","",""
"1125","","image-keyboard-response","172","295167","0.0-172.0","3JJVG1YBECJBTL6MT17JQ4HL8EL5BS","A25GC0CJO1NNDZ","33K3E8REWWHZ7MUV5T1222MGO9NX8Q","","","img/flower4.png","74","1125","1","1","1","0.7,0.2,0,0,0.7,0.2,0.2,0,0.7",""
"null","","html-keyboard-response","173","295468","0.0-173.0","3JJVG1YBECJBTL6MT17JQ4HL8EL5BS","A25GC0CJO1NNDZ","33K3E8REWWHZ7MUV5T1222MGO9NX8Q","","","<img src=""img/flower4.png"" style=""width:200px; border:14px solid green;"">","null","","","","","",""
"1025","","image-keyboard-response","174","296500","0.0-174.0","3JJVG1YBECJBTL6MT17JQ4HL8EL5BS","A25GC0CJO1NNDZ","33K3E8REWWHZ7MUV5T1222MGO9NX8Q","","","img/flower6.png","76","1032","3","0","3","0.7,0.2,0,0,0.7,0.2,0.2,0,0.7",""
"null","","html-keyboard-response","175","296825","0.0-175.0","3JJVG1YBECJBTL6MT17JQ4HL8EL5BS","A25GC0CJO1NNDZ","33K3E8REWWHZ7MUV5T1222MGO9NX8Q","","","<img src=""img/flower6.png"" style=""width:200px;border:14px solid red;"">","null","","","","","",""
"1129","","image-keyboard-response","176","297954","0.0-176.0","3JJVG1YBECJBTL6MT17JQ4HL8EL5BS","A25GC0CJO1NNDZ","33K3E8REWWHZ7MUV5T1222MGO9NX8Q","","","img/flower4.png","74","1129","1","1","1","0.7,0.2,0,0,0.7,0.2,0.2,0,0.7",""
"null","","html-keyboard-response","177","298263","0.0-177.0","3JJVG1YBECJBTL6MT17JQ4HL8EL5BS","A25GC0CJO1NNDZ","33K3E8REWWHZ7MUV5T1222MGO9NX8Q","","","<img src=""img/flower4.png"" style=""width:200px; border:14px solid green;"">","null","","","","","",""
"1031","","image-keyboard-response","178","299295","0.0-178.0","3JJVG1YBECJBTL6MT17JQ4HL8EL5BS","A25GC0CJO1NNDZ","33K3E8REWWHZ7MUV5T1222MGO9NX8Q","","","img/flower4.png","74","1032","1","1","1","0.7,0.2,0,0,0.7,0.2,0.2,0,0.7",""
"null","","html-keyboard-response","179","299605","0.0-179.0","3JJVG1YBECJBTL6MT17JQ4HL8EL5BS","A25GC0CJO1NNDZ","33K3E8REWWHZ7MUV5T1222MGO9NX8Q","","","<img src=""img/flower4.png"" style=""width:200px; border:14px solid green;"">","null","","","","","",""
"1075","","image-keyboard-response","180","300693","0.0-180.0","3JJVG1YBECJBTL6MT17JQ4HL8EL5BS","A25GC0CJO1NNDZ","33K3E8REWWHZ7MUV5T1222MGO9NX8Q","","","img/flower1.png","75","1088","2","1","2","0.7,0.2,0,0,0.7,0.2,0.2,0,0.7",""
"null","","html-keyboard-response","181","300996","0.0-181.0","3JJVG1YBECJBTL6MT17JQ4HL8EL5BS","A25GC0CJO1NNDZ","33K3E8REWWHZ7MUV5T1222MGO9NX8Q","","","<img src=""img/flower1.png"" style=""width:200px; border:14px solid green;"">","null","","","","","",""
"1126","","image-keyboard-response","182","302122","0.0-182.0","3JJVG1YBECJBTL6MT17JQ4HL8EL5BS","A25GC0CJO1NNDZ","33K3E8REWWHZ7MUV5T1222MGO9NX8Q","","","img/flower6.png","76","1126","3","0","3","0.7,0.2,0,0,0.7,0.2,0.2,0,0.7",""
"null","","html-keyboard-response","183","302423","0.0-183.0","3JJVG1YBECJBTL6MT17JQ4HL8EL5BS","A25GC0CJO1NNDZ","33K3E8REWWHZ7MUV5T1222MGO9NX8Q","","","<img src=""img/flower6.png"" style=""width:200px;border:14px solid red;"">","null","","","","","",""
"1323","","image-keyboard-response","184","303751","0.0-184.0","3JJVG1YBECJBTL6MT17JQ4HL8EL5BS","A25GC0CJO1NNDZ","33K3E8REWWHZ7MUV5T1222MGO9NX8Q","","","img/flower1.png","75","1328","2","1","2","0.7,0.2,0,0,0.7,0.2,0.2,0,0.7",""
"null","","html-keyboard-response","185","304059","0.0-185.0","3JJVG1YBECJBTL6MT17JQ4HL8EL5BS","A25GC0CJO1NNDZ","33K3E8REWWHZ7MUV5T1222MGO9NX8Q","","","<img src=""img/flower1.png"" style=""width:200px; border:14px solid green;"">","null","","","","","",""
"1218","","image-keyboard-response","186","305291","0.0-186.0","3JJVG1YBECJBTL6MT17JQ4HL8EL5BS","A25GC0CJO1NNDZ","33K3E8REWWHZ7MUV5T1222MGO9NX8Q","","","img/flower1.png","75","1232","2","1","2","0.7,0.2,0,0,0.7,0.2,0.2,0,0.7",""
"null","","html-keyboard-response","187","305592","0.0-187.0","3JJVG1YBECJBTL6MT17JQ4HL8EL5BS","A25GC0CJO1NNDZ","33K3E8REWWHZ7MUV5T1222MGO9NX8Q","","","<img src=""img/flower1.png"" style=""width:200px; border:14px solid green;"">","null","","","","","",""
"1299","","image-keyboard-response","188","306893","0.0-188.0","3JJVG1YBECJBTL6MT17JQ4HL8EL5BS","A25GC0CJO1NNDZ","33K3E8REWWHZ7MUV5T1222MGO9NX8Q","","","img/flower4.png","74","1301","1","1","1","0.7,0.2,0,0,0.7,0.2,0.2,0,0.7",""
"null","","html-keyboard-response","189","307200","0.0-189.0","3JJVG1YBECJBTL6MT17JQ4HL8EL5BS","A25GC0CJO1NNDZ","33K3E8REWWHZ7MUV5T1222MGO9NX8Q","","","<img src=""img/flower4.png"" style=""width:200px; border:14px solid green;"">","null","","","","","",""
"1228","","image-keyboard-response","190","308429","0.0-190.0","3JJVG1YBECJBTL6MT17JQ4HL8EL5BS","A25GC0CJO1NNDZ","33K3E8REWWHZ7MUV5T1222MGO9NX8Q","","","img/flower6.png","75","1229","2","0","3","0.7,0.2,0,0,0.7,0.2,0.2,0,0.7",""
"null","","html-keyboard-response","191","308737","0.0-191.0","3JJVG1YBECJBTL6MT17JQ4HL8EL5BS","A25GC0CJO1NNDZ","33K3E8REWWHZ7MUV5T1222MGO9NX8Q","","","<img src=""img/flower6.png"" style=""width:200px;border:14px solid red;"">","null","","","","","",""
"1232","","image-keyboard-response","192","309969","0.0-192.0","3JJVG1YBECJBTL6MT17JQ4HL8EL5BS","A25GC0CJO1NNDZ","33K3E8REWWHZ7MUV5T1222MGO9NX8Q","","","img/flower4.png","74","1232","1","1","1","0.7,0.2,0,0,0.7,0.2,0.2,0,0.7",""
"null","","html-keyboard-response","193","310270","0.0-193.0","3JJVG1YBECJBTL6MT17JQ4HL8EL5BS","A25GC0CJO1NNDZ","33K3E8REWWHZ7MUV5T1222MGO9NX8Q","","","<img src=""img/flower4.png"" style=""width:200px; border:14px solid green;"">","null","","","","","",""
"1321","","image-keyboard-response","194","311596","0.0-194.0","3JJVG1YBECJBTL6MT17JQ4HL8EL5BS","A25GC0CJO1NNDZ","33K3E8REWWHZ7MUV5T1222MGO9NX8Q","","","img/flower1.png","75","1326","2","1","2","0.7,0.2,0,0,0.7,0.2,0.2,0,0.7",""
"null","","html-keyboard-response","195","311904","0.0-195.0","3JJVG1YBECJBTL6MT17JQ4HL8EL5BS","A25GC0CJO1NNDZ","33K3E8REWWHZ7MUV5T1222MGO9NX8Q","","","<img src=""img/flower1.png"" style=""width:200px; border:14px solid green;"">","null","","","","","",""
"1045","","image-keyboard-response","196","312958","0.0-196.0","3JJVG1YBECJBTL6MT17JQ4HL8EL5BS","A25GC0CJO1NNDZ","33K3E8REWWHZ7MUV5T1222MGO9NX8Q","","","img/flower1.png","75","1054","2","0","2","0.7,0.2,0,0,0.7,0.2,0.2,0,0.7",""
"null","","html-keyboard-response","197","313263","0.0-197.0","3JJVG1YBECJBTL6MT17JQ4HL8EL5BS","A25GC0CJO1NNDZ","33K3E8REWWHZ7MUV5T1222MGO9NX8Q","","","<img src=""img/flower1.png"" style=""width:200px;border:14px solid red;"">","null","","","","","",""
"1719","","image-keyboard-response","198","314984","0.0-198.0","3JJVG1YBECJBTL6MT17JQ4HL8EL5BS","A25GC0CJO1NNDZ","33K3E8REWWHZ7MUV5T1222MGO9NX8Q","","","img/flower1.png","75","1721","2","1","2","0.7,0.2,0,0,0.7,0.2,0.2,0,0.7",""
"null","","html-keyboard-response","199","315286","0.0-199.0","3JJVG1YBECJBTL6MT17JQ4HL8EL5BS","A25GC0CJO1NNDZ","33K3E8REWWHZ7MUV5T1222MGO9NX8Q","","","<img src=""img/flower1.png"" style=""width:200px; border:14px solid green;"">","null","","","","","",""
"1246","","image-keyboard-response","200","316532","0.0-200.0","3JJVG1YBECJBTL6MT17JQ4HL8EL5BS","A25GC0CJO1NNDZ","33K3E8REWWHZ7MUV5T1222MGO9NX8Q","","","img/flower4.png","74","1246","1","1","1","0.7,0.2,0,0,0.7,0.2,0.2,0,0.7",""
"null","","html-keyboard-response","201","316834","0.0-201.0","3JJVG1YBECJBTL6MT17JQ4HL8EL5BS","A25GC0CJO1NNDZ","33K3E8REWWHZ7MUV5T1222MGO9NX8Q","","","<img src=""img/flower4.png"" style=""width:200px; border:14px solid green;"">","null","","","","","",""
"1327","","image-keyboard-response","202","318161","0.0-202.0","3JJVG1YBECJBTL6MT17JQ4HL8EL5BS","A25GC0CJO1NNDZ","33K3E8REWWHZ7MUV5T1222MGO9NX8Q","","","img/flower1.png","75","1327","2","1","2","0.7,0.2,0,0,0.7,0.2,0.2,0,0.7",""
"null","","html-keyboard-response","203","318463","0.0-203.0","3JJVG1YBECJBTL6MT17JQ4HL8EL5BS","A25GC0CJO1NNDZ","33K3E8REWWHZ7MUV5T1222MGO9NX8Q","","","<img src=""img/flower1.png"" style=""width:200px; border:14px solid green;"">","null","","","","","",""
"1217","","image-keyboard-response","204","319680","0.0-204.0","3JJVG1YBECJBTL6MT17JQ4HL8EL5BS","A25GC0CJO1NNDZ","33K3E8REWWHZ7MUV5T1222MGO9NX8Q","","","img/flower6.png","76","1217","3","1","3","0.7,0.2,0,0,0.7,0.2,0.2,0,0.7",""
"null","","html-keyboard-response","205","319981","0.0-205.0","3JJVG1YBECJBTL6MT17JQ4HL8EL5BS","A25GC0CJO1NNDZ","33K3E8REWWHZ7MUV5T1222MGO9NX8Q","","","<img src=""img/flower6.png"" style=""width:200px; border:14px solid green;"">","null","","","","","",""
"1398","","image-keyboard-response","206","321380","0.0-206.0","3JJVG1YBECJBTL6MT17JQ4HL8EL5BS","A25GC0CJO1NNDZ","33K3E8REWWHZ7MUV5T1222MGO9NX8Q","","","img/flower4.png","74","1399","1","1","1","0.7,0.2,0,0,0.7,0.2,0.2,0,0.7",""
"null","","html-keyboard-response","207","321681","0.0-207.0","3JJVG1YBECJBTL6MT17JQ4HL8EL5BS","A25GC0CJO1NNDZ","33K3E8REWWHZ7MUV5T1222MGO9NX8Q","","","<img src=""img/flower4.png"" style=""width:200px; border:14px solid green;"">","null","","","","","",""
"1477","","image-keyboard-response","208","323158","0.0-208.0","3JJVG1YBECJBTL6MT17JQ4HL8EL5BS","A25GC0CJO1NNDZ","33K3E8REWWHZ7MUV5T1222MGO9NX8Q","","","img/flower4.png","74","1477","1","1","1","0.7,0.2,0,0,0.7,0.2,0.2,0,0.7",""
"null","","html-keyboard-response","209","323460","0.0-209.0","3JJVG1YBECJBTL6MT17JQ4HL8EL5BS","A25GC0CJO1NNDZ","33K3E8REWWHZ7MUV5T1222MGO9NX8Q","","","<img src=""img/flower4.png"" style=""width:200px; border:14px solid green;"">","null","","","","","",""
"978","","image-keyboard-response","210","324438","0.0-210.0","3JJVG1YBECJBTL6MT17JQ4HL8EL5BS","A25GC0CJO1NNDZ","33K3E8REWWHZ7MUV5T1222MGO9NX8Q","","","img/flower6.png","76","978","3","1","3","0.7,0.2,0,0,0.7,0.2,0.2,0,0.7",""
"null","","html-keyboard-response","211","324748","0.0-211.0","3JJVG1YBECJBTL6MT17JQ4HL8EL5BS","A25GC0CJO1NNDZ","33K3E8REWWHZ7MUV5T1222MGO9NX8Q","","","<img src=""img/flower6.png"" style=""width:200px; border:14px solid green;"">","null","","","","","",""
"1014","","image-keyboard-response","212","325763","0.0-212.0","3JJVG1YBECJBTL6MT17JQ4HL8EL5BS","A25GC0CJO1NNDZ","33K3E8REWWHZ7MUV5T1222MGO9NX8Q","","","img/flower4.png","75","1015","2","0","1","0.7,0.2,0,0,0.7,0.2,0.2,0,0.7",""
"null","","html-keyboard-response","213","326073","0.0-213.0","3JJVG1YBECJBTL6MT17JQ4HL8EL5BS","A25GC0CJO1NNDZ","33K3E8REWWHZ7MUV5T1222MGO9NX8Q","","","<img src=""img/flower4.png"" style=""width:200px;border:14px solid red;"">","null","","","","","",""
"1064","","image-keyboard-response","214","327146","0.0-214.0","3JJVG1YBECJBTL6MT17JQ4HL8EL5BS","A25GC0CJO1NNDZ","33K3E8REWWHZ7MUV5T1222MGO9NX8Q","","","img/flower1.png","75","1073","2","1","2","0.7,0.2,0,0,0.7,0.2,0.2,0,0.7",""
"null","","html-keyboard-response","215","327446","0.0-215.0","3JJVG1YBECJBTL6MT17JQ4HL8EL5BS","A25GC0CJO1NNDZ","33K3E8REWWHZ7MUV5T1222MGO9NX8Q","","","<img src=""img/flower1.png"" style=""width:200px; border:14px solid green;"">","null","","","","","",""
"990","","image-keyboard-response","216","328437","0.0-216.0","3JJVG1YBECJBTL6MT17JQ4HL8EL5BS","A25GC0CJO1NNDZ","33K3E8REWWHZ7MUV5T1222MGO9NX8Q","","","img/flower6.png","76","991","3","1","3","0.7,0.2,0,0,0.7,0.2,0.2,0,0.7",""
"null","","html-keyboard-response","217","328745","0.0-217.0","3JJVG1YBECJBTL6MT17JQ4HL8EL5BS","A25GC0CJO1NNDZ","33K3E8REWWHZ7MUV5T1222MGO9NX8Q","","","<img src=""img/flower6.png"" style=""width:200px; border:14px solid green;"">","null","","","","","",""
"1033","","image-keyboard-response","218","329785","0.0-218.0","3JJVG1YBECJBTL6MT17JQ4HL8EL5BS","A25GC0CJO1NNDZ","33K3E8REWWHZ7MUV5T1222MGO9NX8Q","","","img/flower4.png","74","1040","1","1","1","0.7,0.2,0,0,0.7,0.2,0.2,0,0.7",""
"null","","html-keyboard-response","219","330104","0.0-219.0","3JJVG1YBECJBTL6MT17JQ4HL8EL5BS","A25GC0CJO1NNDZ","33K3E8REWWHZ7MUV5T1222MGO9NX8Q","","","<img src=""img/flower4.png"" style=""width:200px; border:14px solid green;"">","null","","","","","",""
"1088","","image-keyboard-response","220","331194","0.0-220.0","3JJVG1YBECJBTL6MT17JQ4HL8EL5BS","A25GC0CJO1NNDZ","33K3E8REWWHZ7MUV5T1222MGO9NX8Q","","","img/flower1.png","75","1090","2","1","2","0.7,0.2,0,0,0.7,0.2,0.2,0,0.7",""
"null","","html-keyboard-response","221","331496","0.0-221.0","3JJVG1YBECJBTL6MT17JQ4HL8EL5BS","A25GC0CJO1NNDZ","33K3E8REWWHZ7MUV5T1222MGO9NX8Q","","","<img src=""img/flower1.png"" style=""width:200px; border:14px solid green;"">","null","","","","","",""
"1265","","image-keyboard-response","222","332763","0.0-222.0","3JJVG1YBECJBTL6MT17JQ4HL8EL5BS","A25GC0CJO1NNDZ","33K3E8REWWHZ7MUV5T1222MGO9NX8Q","","","img/flower1.png","75","1267","2","1","2","0.7,0.2,0,0,0.7,0.2,0.2,0,0.7",""
"null","","html-keyboard-response","223","333064","0.0-223.0","3JJVG1YBECJBTL6MT17JQ4HL8EL5BS","A25GC0CJO1NNDZ","33K3E8REWWHZ7MUV5T1222MGO9NX8Q","","","<img src=""img/flower1.png"" style=""width:200px; border:14px solid green;"">","null","","","","","",""
"1070","","image-keyboard-response","224","334142","0.0-224.0","3JJVG1YBECJBTL6MT17JQ4HL8EL5BS","A25GC0CJO1NNDZ","33K3E8REWWHZ7MUV5T1222MGO9NX8Q","","","img/flower4.png","76","1078","3","0","1","0.7,0.2,0,0,0.7,0.2,0.2,0,0.7",""
"null","","html-keyboard-response","225","334449","0.0-225.0","3JJVG1YBECJBTL6MT17JQ4HL8EL5BS","A25GC0CJO1NNDZ","33K3E8REWWHZ7MUV5T1222MGO9NX8Q","","","<img src=""img/flower4.png"" style=""width:200px;border:14px solid red;"">","null","","","","","",""
"1107","","image-keyboard-response","226","335571","0.0-226.0","3JJVG1YBECJBTL6MT17JQ4HL8EL5BS","A25GC0CJO1NNDZ","33K3E8REWWHZ7MUV5T1222MGO9NX8Q","","","img/flower4.png","74","1121","1","0","1","0.7,0.2,0,0,0.7,0.2,0.2,0,0.7",""
"null","","html-keyboard-response","227","335872","0.0-227.0","3JJVG1YBECJBTL6MT17JQ4HL8EL5BS","A25GC0CJO1NNDZ","33K3E8REWWHZ7MUV5T1222MGO9NX8Q","","","<img src=""img/flower4.png"" style=""width:200px;border:14px solid red;"">","null","","","","","",""
"1231","","image-keyboard-response","228","337113","0.0-228.0","3JJVG1YBECJBTL6MT17JQ4HL8EL5BS","A25GC0CJO1NNDZ","33K3E8REWWHZ7MUV5T1222MGO9NX8Q","","","img/flower1.png","75","1241","2","0","2","0.7,0.2,0,0,0.7,0.2,0.2,0,0.7",""
"null","","html-keyboard-response","229","337420","0.0-229.0","3JJVG1YBECJBTL6MT17JQ4HL8EL5BS","A25GC0CJO1NNDZ","33K3E8REWWHZ7MUV5T1222MGO9NX8Q","","","<img src=""img/flower1.png"" style=""width:200px;border:14px solid red;"">","null","","","","","",""
"1169","","image-keyboard-response","230","338590","0.0-230.0","3JJVG1YBECJBTL6MT17JQ4HL8EL5BS","A25GC0CJO1NNDZ","33K3E8REWWHZ7MUV5T1222MGO9NX8Q","","","img/flower4.png","76","1170","3","0","1","0.7,0.2,0,0,0.7,0.2,0.2,0,0.7",""
"null","","html-keyboard-response","231","338891","0.0-231.0","3JJVG1YBECJBTL6MT17JQ4HL8EL5BS","A25GC0CJO1NNDZ","33K3E8REWWHZ7MUV5T1222MGO9NX8Q","","","<img src=""img/flower4.png"" style=""width:200px;border:14px solid red;"">","null","","","","","",""
"1180","","image-keyboard-response","232","340082","0.0-232.0","3JJVG1YBECJBTL6MT17JQ4HL8EL5BS","A25GC0CJO1NNDZ","33K3E8REWWHZ7MUV5T1222MGO9NX8Q","","","img/flower6.png","76","1192","3","0","3","0.7,0.2,0,0,0.7,0.2,0.2,0,0.7",""
"null","","html-keyboard-response","233","340387","0.0-233.0","3JJVG1YBECJBTL6MT17JQ4HL8EL5BS","A25GC0CJO1NNDZ","33K3E8REWWHZ7MUV5T1222MGO9NX8Q","","","<img src=""img/flower6.png"" style=""width:200px;border:14px solid red;"">","null","","","","","",""
"1060","","image-keyboard-response","234","341455","0.0-234.0","3JJVG1YBECJBTL6MT17JQ4HL8EL5BS","A25GC0CJO1NNDZ","33K3E8REWWHZ7MUV5T1222MGO9NX8Q","","","img/flower6.png","75","1068","2","0","3","0.7,0.2,0,0,0.7,0.2,0.2,0,0.7",""
"null","","html-keyboard-response","235","341764","0.0-235.0","3JJVG1YBECJBTL6MT17JQ4HL8EL5BS","A25GC0CJO1NNDZ","33K3E8REWWHZ7MUV5T1222MGO9NX8Q","","","<img src=""img/flower6.png"" style=""width:200px;border:14px solid red;"">","null","","","","","",""
"855","","image-keyboard-response","236","342631","0.0-236.0","3JJVG1YBECJBTL6MT17JQ4HL8EL5BS","A25GC0CJO1NNDZ","33K3E8REWWHZ7MUV5T1222MGO9NX8Q","","","img/flower6.png","74","867","1","0","3","0.7,0.2,0,0,0.7,0.2,0.2,0,0.7",""
"null","","html-keyboard-response","237","342936","0.0-237.0","3JJVG1YBECJBTL6MT17JQ4HL8EL5BS","A25GC0CJO1NNDZ","33K3E8REWWHZ7MUV5T1222MGO9NX8Q","","","<img src=""img/flower6.png"" style=""width:200px;border:14px solid red;"">","null","","","","","",""
"1093","","image-keyboard-response","238","344030","0.0-238.0","3JJVG1YBECJBTL6MT17JQ4HL8EL5BS","A25GC0CJO1NNDZ","33K3E8REWWHZ7MUV5T1222MGO9NX8Q","","","img/flower4.png","74","1094","1","1","1","0.7,0.2,0,0,0.7,0.2,0.2,0,0.7",""
"null","","html-keyboard-response","239","344343","0.0-239.0","3JJVG1YBECJBTL6MT17JQ4HL8EL5BS","A25GC0CJO1NNDZ","33K3E8REWWHZ7MUV5T1222MGO9NX8Q","","","<img src=""img/flower4.png"" style=""width:200px; border:14px solid green;"">","null","","","","","",""
"1340","","image-keyboard-response","240","345683","0.0-240.0","3JJVG1YBECJBTL6MT17JQ4HL8EL5BS","A25GC0CJO1NNDZ","33K3E8REWWHZ7MUV5T1222MGO9NX8Q","","","img/flower1.png","75","1341","2","1","2","0.7,0.2,0,0,0.7,0.2,0.2,0,0.7",""
"null","","html-keyboard-response","241","346010","0.0-241.0","3JJVG1YBECJBTL6MT17JQ4HL8EL5BS","A25GC0CJO1NNDZ","33K3E8REWWHZ7MUV5T1222MGO9NX8Q","","","<img src=""img/flower1.png"" style=""width:200px; border:14px solid green;"">","null","","","","","",""
"1033","","image-keyboard-response","242","347043","0.0-242.0","3JJVG1YBECJBTL6MT17JQ4HL8EL5BS","A25GC0CJO1NNDZ","33K3E8REWWHZ7MUV5T1222MGO9NX8Q","","","img/flower6.png","76","1039","3","1","3","0.7,0.2,0,0,0.7,0.2,0.2,0,0.7",""
"null","","html-keyboard-response","243","347349","0.0-243.0","3JJVG1YBECJBTL6MT17JQ4HL8EL5BS","A25GC0CJO1NNDZ","33K3E8REWWHZ7MUV5T1222MGO9NX8Q","","","<img src=""img/flower6.png"" style=""width:200px; border:14px solid green;"">","null","","","","","",""
"1179","","image-keyboard-response","244","348530","0.0-244.0","3JJVG1YBECJBTL6MT17JQ4HL8EL5BS","A25GC0CJO1NNDZ","33K3E8REWWHZ7MUV5T1222MGO9NX8Q","","","img/flower6.png","75","1181","2","0","3","0.7,0.2,0,0,0.7,0.2,0.2,0,0.7",""
"null","","html-keyboard-response","245","348833","0.0-245.0","3JJVG1YBECJBTL6MT17JQ4HL8EL5BS","A25GC0CJO1NNDZ","33K3E8REWWHZ7MUV5T1222MGO9NX8Q","","","<img src=""img/flower6.png"" style=""width:200px;border:14px solid red;"">","null","","","","","",""
"1114","","image-keyboard-response","246","349951","0.0-246.0","3JJVG1YBECJBTL6MT17JQ4HL8EL5BS","A25GC0CJO1NNDZ","33K3E8REWWHZ7MUV5T1222MGO9NX8Q","","","img/flower1.png","74","1118","1","0","2","0.7,0.2,0,0,0.7,0.2,0.2,0,0.7",""
"null","","html-keyboard-response","247","350261","0.0-247.0","3JJVG1YBECJBTL6MT17JQ4HL8EL5BS","A25GC0CJO1NNDZ","33K3E8REWWHZ7MUV5T1222MGO9NX8Q","","","<img src=""img/flower1.png"" style=""width:200px;border:14px solid red;"">","null","","","","","",""
"1185","","image-keyboard-response","248","351450","0.0-248.0","3JJVG1YBECJBTL6MT17JQ4HL8EL5BS","A25GC0CJO1NNDZ","33K3E8REWWHZ7MUV5T1222MGO9NX8Q","","","img/flower1.png","75","1189","2","0","2","0.7,0.2,0,0,0.7,0.2,0.2,0,0.7",""
"null","","html-keyboard-response","249","351761","0.0-249.0","3JJVG1YBECJBTL6MT17JQ4HL8EL5BS","A25GC0CJO1NNDZ","33K3E8REWWHZ7MUV5T1222MGO9NX8Q","","","<img src=""img/flower1.png"" style=""width:200px;border:14px solid red;"">","null","","","","","",""
"1030","","image-keyboard-response","250","352805","0.0-250.0","3JJVG1YBECJBTL6MT17JQ4HL8EL5BS","A25GC0CJO1NNDZ","33K3E8REWWHZ7MUV5T1222MGO9NX8Q","","","img/flower4.png","74","1044","1","1","1","0.7,0.2,0,0,0.7,0.2,0.2,0,0.7",""
"null","","html-keyboard-response","251","353106","0.0-251.0","3JJVG1YBECJBTL6MT17JQ4HL8EL5BS","A25GC0CJO1NNDZ","33K3E8REWWHZ7MUV5T1222MGO9NX8Q","","","<img src=""img/flower4.png"" style=""width:200px; border:14px solid green;"">","null","","","","","",""
"1089","","image-keyboard-response","252","354229","0.0-252.0","3JJVG1YBECJBTL6MT17JQ4HL8EL5BS","A25GC0CJO1NNDZ","33K3E8REWWHZ7MUV5T1222MGO9NX8Q","","","img/flower1.png","75","1121","2","0","2","0.7,0.2,0,0,0.7,0.2,0.2,0,0.7",""
"null","","html-keyboard-response","253","354546","0.0-253.0","3JJVG1YBECJBTL6MT17JQ4HL8EL5BS","A25GC0CJO1NNDZ","33K3E8REWWHZ7MUV5T1222MGO9NX8Q","","","<img src=""img/flower1.png"" style=""width:200px;border:14px solid red;"">","null","","","","","",""
"1019","","image-keyboard-response","254","355577","0.0-254.0","3JJVG1YBECJBTL6MT17JQ4HL8EL5BS","A25GC0CJO1NNDZ","33K3E8REWWHZ7MUV5T1222MGO9NX8Q","","","img/flower6.png","76","1031","3","0","3","0.7,0.2,0,0,0.7,0.2,0.2,0,0.7",""
"null","","html-keyboard-response","255","355887","0.0-255.0","3JJVG1YBECJBTL6MT17JQ4HL8EL5BS","A25GC0CJO1NNDZ","33K3E8REWWHZ7MUV5T1222MGO9NX8Q","","","<img src=""img/flower6.png"" style=""width:200px;border:14px solid red;"">","null","","","","","",""
"1423","","image-keyboard-response","256","357314","0.0-256.0","3JJVG1YBECJBTL6MT17JQ4HL8EL5BS","A25GC0CJO1NNDZ","33K3E8REWWHZ7MUV5T1222MGO9NX8Q","","","img/flower4.png","74","1427","1","1","1","0.7,0.2,0,0,0.7,0.2,0.2,0,0.7",""
"null","","html-keyboard-response","257","357622","0.0-257.0","3JJVG1YBECJBTL6MT17JQ4HL8EL5BS","A25GC0CJO1NNDZ","33K3E8REWWHZ7MUV5T1222MGO9NX8Q","","","<img src=""img/flower4.png"" style=""width:200px; border:14px solid green;"">","null","","","","","",""
"1300","","image-keyboard-response","258","358922","0.0-258.0","3JJVG1YBECJBTL6MT17JQ4HL8EL5BS","A25GC0CJO1NNDZ","33K3E8REWWHZ7MUV5T1222MGO9NX8Q","","","img/flower4.png","74","1301","1","0","1","0.7,0.2,0,0,0.7,0.2,0.2,0,0.7",""
"null","","html-keyboard-response","259","359233","0.0-259.0","3JJVG1YBECJBTL6MT17JQ4HL8EL5BS","A25GC0CJO1NNDZ","33K3E8REWWHZ7MUV5T1222MGO9NX8Q","","","<img src=""img/flower4.png"" style=""width:200px;border:14px solid red;"">","null","","","","","",""
"1131","","image-keyboard-response","260","360373","0.0-260.0","3JJVG1YBECJBTL6MT17JQ4HL8EL5BS","A25GC0CJO1NNDZ","33K3E8REWWHZ7MUV5T1222MGO9NX8Q","","","img/flower4.png","74","1140","1","1","1","0.7,0.2,0,0,0.7,0.2,0.2,0,0.7",""
"null","","html-keyboard-response","261","360682","0.0-261.0","3JJVG1YBECJBTL6MT17JQ4HL8EL5BS","A25GC0CJO1NNDZ","33K3E8REWWHZ7MUV5T1222MGO9NX8Q","","","<img src=""img/flower4.png"" style=""width:200px; border:14px solid green;"">","null","","","","","",""
"1204","","image-keyboard-response","262","361894","0.0-262.0","3JJVG1YBECJBTL6MT17JQ4HL8EL5BS","A25GC0CJO1NNDZ","33K3E8REWWHZ7MUV5T1222MGO9NX8Q","","","img/flower4.png","74","1212","1","1","1","0.7,0.2,0,0,0.7,0.2,0.2,0,0.7",""
"null","","html-keyboard-response","263","362201","0.0-263.0","3JJVG1YBECJBTL6MT17JQ4HL8EL5BS","A25GC0CJO1NNDZ","33K3E8REWWHZ7MUV5T1222MGO9NX8Q","","","<img src=""img/flower4.png"" style=""width:200px; border:14px solid green;"">","null","","","","","",""
"1124","","image-keyboard-response","264","363325","0.0-264.0","3JJVG1YBECJBTL6MT17JQ4HL8EL5BS","A25GC0CJO1NNDZ","33K3E8REWWHZ7MUV5T1222MGO9NX8Q","","","img/flower6.png","76","1136","3","0","3","0.7,0.2,0,0,0.7,0.2,0.2,0,0.7",""
"null","","html-keyboard-response","265","363653","0.0-265.0","3JJVG1YBECJBTL6MT17JQ4HL8EL5BS","A25GC0CJO1NNDZ","33K3E8REWWHZ7MUV5T1222MGO9NX8Q","","","<img src=""img/flower6.png"" style=""width:200px;border:14px solid red;"">","null","","","","","",""
"970","","image-keyboard-response","266","364633","0.0-266.0","3JJVG1YBECJBTL6MT17JQ4HL8EL5BS","A25GC0CJO1NNDZ","33K3E8REWWHZ7MUV5T1222MGO9NX8Q","","","img/flower1.png","75","980","2","0","2","0.7,0.2,0,0,0.7,0.2,0.2,0,0.7",""
"null","","html-keyboard-response","267","364949","0.0-267.0","3JJVG1YBECJBTL6MT17JQ4HL8EL5BS","A25GC0CJO1NNDZ","33K3E8REWWHZ7MUV5T1222MGO9NX8Q","","","<img src=""img/flower1.png"" style=""width:200px;border:14px solid red;"">","null","","","","","",""
"1103","","image-keyboard-response","268","366066","0.0-268.0","3JJVG1YBECJBTL6MT17JQ4HL8EL5BS","A25GC0CJO1NNDZ","33K3E8REWWHZ7MUV5T1222MGO9NX8Q","","","img/flower6.png","76","1117","3","1","3","0.7,0.2,0,0,0.7,0.2,0.2,0,0.7",""
"null","","html-keyboard-response","269","366370","0.0-269.0","3JJVG1YBECJBTL6MT17JQ4HL8EL5BS","A25GC0CJO1NNDZ","33K3E8REWWHZ7MUV5T1222MGO9NX8Q","","","<img src=""img/flower6.png"" style=""width:200px; border:14px solid green;"">","null","","","","","",""
"1483","","image-keyboard-response","270","367853","0.0-270.0","3JJVG1YBECJBTL6MT17JQ4HL8EL5BS","A25GC0CJO1NNDZ","33K3E8REWWHZ7MUV5T1222MGO9NX8Q","","","img/flower4.png","75","1483","2","1","1","0.7,0.2,0,0,0.7,0.2,0.2,0,0.7",""
"null","","html-keyboard-response","271","368169","0.0-271.0","3JJVG1YBECJBTL6MT17JQ4HL8EL5BS","A25GC0CJO1NNDZ","33K3E8REWWHZ7MUV5T1222MGO9NX8Q","","","<img src=""img/flower4.png"" style=""width:200px; border:14px solid green;"">","null","","","","","",""
"1142","","image-keyboard-response","272","369324","0.0-272.0","3JJVG1YBECJBTL6MT17JQ4HL8EL5BS","A25GC0CJO1NNDZ","33K3E8REWWHZ7MUV5T1222MGO9NX8Q","","","img/flower1.png","75","1155","2","1","2","0.7,0.2,0,0,0.7,0.2,0.2,0,0.7",""
"null","","html-keyboard-response","273","369624","0.0-273.0","3JJVG1YBECJBTL6MT17JQ4HL8EL5BS","A25GC0CJO1NNDZ","33K3E8REWWHZ7MUV5T1222MGO9NX8Q","","","<img src=""img/flower1.png"" style=""width:200px; border:14px solid green;"">","null","","","","","",""
"1373","","image-keyboard-response","274","371007","0.0-274.0","3JJVG1YBECJBTL6MT17JQ4HL8EL5BS","A25GC0CJO1NNDZ","33K3E8REWWHZ7MUV5T1222MGO9NX8Q","","","img/flower4.png","74","1383","1","1","1","0.7,0.2,0,0,0.7,0.2,0.2,0,0.7",""
"null","","html-keyboard-response","275","371310","0.0-275.0","3JJVG1YBECJBTL6MT17JQ4HL8EL5BS","A25GC0CJO1NNDZ","33K3E8REWWHZ7MUV5T1222MGO9NX8Q","","","<img src=""img/flower4.png"" style=""width:200px; border:14px solid green;"">","null","","","","","",""
"1249","","image-keyboard-response","276","372573","0.0-276.0","3JJVG1YBECJBTL6MT17JQ4HL8EL5BS","A25GC0CJO1NNDZ","33K3E8REWWHZ7MUV5T1222MGO9NX8Q","","","img/flower6.png","76","1263","3","1","3","0.7,0.2,0,0,0.7,0.2,0.2,0,0.7",""
"null","","html-keyboard-response","277","372887","0.0-277.0","3JJVG1YBECJBTL6MT17JQ4HL8EL5BS","A25GC0CJO1NNDZ","33K3E8REWWHZ7MUV5T1222MGO9NX8Q","","","<img src=""img/flower6.png"" style=""width:200px; border:14px solid green;"">","null","","","","","",""
"982","","image-keyboard-response","278","373870","0.0-278.0","3JJVG1YBECJBTL6MT17JQ4HL8EL5BS","A25GC0CJO1NNDZ","33K3E8REWWHZ7MUV5T1222MGO9NX8Q","","","img/flower4.png","74","995","1","1","1","0.7,0.2,0,0,0.7,0.2,0.2,0,0.7",""
"null","","html-keyboard-response","279","374182","0.0-279.0","3JJVG1YBECJBTL6MT17JQ4HL8EL5BS","A25GC0CJO1NNDZ","33K3E8REWWHZ7MUV5T1222MGO9NX8Q","","","<img src=""img/flower4.png"" style=""width:200px; border:14px solid green;"">","null","","","","","",""
"1202","","image-keyboard-response","280","375392","0.0-280.0","3JJVG1YBECJBTL6MT17JQ4HL8EL5BS","A25GC0CJO1NNDZ","33K3E8REWWHZ7MUV5T1222MGO9NX8Q","","","img/flower4.png","74","1210","1","1","1","0.7,0.2,0,0,0.7,0.2,0.2,0,0.7",""
"null","","html-keyboard-response","281","375699","0.0-281.0","3JJVG1YBECJBTL6MT17JQ4HL8EL5BS","A25GC0CJO1NNDZ","33K3E8REWWHZ7MUV5T1222MGO9NX8Q","","","<img src=""img/flower4.png"" style=""width:200px; border:14px solid green;"">","null","","","","","",""
"1140","","image-keyboard-response","282","376844","0.0-282.0","3JJVG1YBECJBTL6MT17JQ4HL8EL5BS","A25GC0CJO1NNDZ","33K3E8REWWHZ7MUV5T1222MGO9NX8Q","","","img/flower1.png","75","1145","2","1","2","0.7,0.2,0,0,0.7,0.2,0.2,0,0.7",""
"null","","html-keyboard-response","283","377144","0.0-283.0","3JJVG1YBECJBTL6MT17JQ4HL8EL5BS","A25GC0CJO1NNDZ","33K3E8REWWHZ7MUV5T1222MGO9NX8Q","","","<img src=""img/flower1.png"" style=""width:200px; border:14px solid green;"">","null","","","","","",""
"1087","","image-keyboard-response","284","378241","0.0-284.0","3JJVG1YBECJBTL6MT17JQ4HL8EL5BS","A25GC0CJO1NNDZ","33K3E8REWWHZ7MUV5T1222MGO9NX8Q","","","img/flower1.png","75","1097","2","1","2","0.7,0.2,0,0,0.7,0.2,0.2,0,0.7",""
"null","","html-keyboard-response","285","378543","0.0-285.0","3JJVG1YBECJBTL6MT17JQ4HL8EL5BS","A25GC0CJO1NNDZ","33K3E8REWWHZ7MUV5T1222MGO9NX8Q","","","<img src=""img/flower1.png"" style=""width:200px; border:14px solid green;"">","null","","","","","",""
"956","","image-keyboard-response","286","379499","0.0-286.0","3JJVG1YBECJBTL6MT17JQ4HL8EL5BS","A25GC0CJO1NNDZ","33K3E8REWWHZ7MUV5T1222MGO9NX8Q","","","img/flower1.png","75","957","2","0","2","0.7,0.2,0,0,0.7,0.2,0.2,0,0.7",""
"null","","html-keyboard-response","287","379801","0.0-287.0","3JJVG1YBECJBTL6MT17JQ4HL8EL5BS","A25GC0CJO1NNDZ","33K3E8REWWHZ7MUV5T1222MGO9NX8Q","","","<img src=""img/flower1.png"" style=""width:200px;border:14px solid red;"">","null","","","","","",""
"804","","image-keyboard-response","288","380620","0.0-288.0","3JJVG1YBECJBTL6MT17JQ4HL8EL5BS","A25GC0CJO1NNDZ","33K3E8REWWHZ7MUV5T1222MGO9NX8Q","","","img/flower1.png","76","819","3","1","2","0.7,0.2,0,0,0.7,0.2,0.2,0,0.7",""
"null","","html-keyboard-response","289","380922","0.0-289.0","3JJVG1YBECJBTL6MT17JQ4HL8EL5BS","A25GC0CJO1NNDZ","33K3E8REWWHZ7MUV5T1222MGO9NX8Q","","","<img src=""img/flower1.png"" style=""width:200px; border:14px solid green;"">","null","","","","","",""
"886","","image-keyboard-response","290","381808","0.0-290.0","3JJVG1YBECJBTL6MT17JQ4HL8EL5BS","A25GC0CJO1NNDZ","33K3E8REWWHZ7MUV5T1222MGO9NX8Q","","","img/flower6.png","76","886","3","1","3","0.7,0.2,0,0,0.7,0.2,0.2,0,0.7",""
"null","","html-keyboard-response","291","382121","0.0-291.0","3JJVG1YBECJBTL6MT17JQ4HL8EL5BS","A25GC0CJO1NNDZ","33K3E8REWWHZ7MUV5T1222MGO9NX8Q","","","<img src=""img/flower6.png"" style=""width:200px; border:14px solid green;"">","null","","","","","",""
"886","","image-keyboard-response","292","383008","0.0-292.0","3JJVG1YBECJBTL6MT17JQ4HL8EL5BS","A25GC0CJO1NNDZ","33K3E8REWWHZ7MUV5T1222MGO9NX8Q","","","img/flower6.png","76","887","3","1","3","0.7,0.2,0,0,0.7,0.2,0.2,0,0.7",""
"null","","html-keyboard-response","293","383325","0.0-293.0","3JJVG1YBECJBTL6MT17JQ4HL8EL5BS","A25GC0CJO1NNDZ","33K3E8REWWHZ7MUV5T1222MGO9NX8Q","","","<img src=""img/flower6.png"" style=""width:200px; border:14px solid green;"">","null","","","","","",""
"813","","image-keyboard-response","294","384138","0.0-294.0","3JJVG1YBECJBTL6MT17JQ4HL8EL5BS","A25GC0CJO1NNDZ","33K3E8REWWHZ7MUV5T1222MGO9NX8Q","","","img/flower1.png","76","813","3","1","2","0.7,0.2,0,0,0.7,0.2,0.2,0,0.7",""
"null","","html-keyboard-response","295","384511","0.0-295.0","3JJVG1YBECJBTL6MT17JQ4HL8EL5BS","A25GC0CJO1NNDZ","33K3E8REWWHZ7MUV5T1222MGO9NX8Q","","","<img src=""img/flower1.png"" style=""width:200px; border:14px solid green;"">","null","","","","","",""
"983","","image-keyboard-response","296","385507","0.0-296.0","3JJVG1YBECJBTL6MT17JQ4HL8EL5BS","A25GC0CJO1NNDZ","33K3E8REWWHZ7MUV5T1222MGO9NX8Q","","","img/flower1.png","76","996","3","0","2","0.7,0.2,0,0,0.7,0.2,0.2,0,0.7",""
"null","","html-keyboard-response","297","385826","0.0-297.0","3JJVG1YBECJBTL6MT17JQ4HL8EL5BS","A25GC0CJO1NNDZ","33K3E8REWWHZ7MUV5T1222MGO9NX8Q","","","<img src=""img/flower1.png"" style=""width:200px;border:14px solid red;"">","null","","","","","",""
"797","","image-keyboard-response","298","386637","0.0-298.0","3JJVG1YBECJBTL6MT17JQ4HL8EL5BS","A25GC0CJO1NNDZ","33K3E8REWWHZ7MUV5T1222MGO9NX8Q","","","img/flower4.png","75","811","2","0","1","0.7,0.2,0,0,0.7,0.2,0.2,0,0.7",""
"null","","html-keyboard-response","299","386951","0.0-299.0","3JJVG1YBECJBTL6MT17JQ4HL8EL5BS","A25GC0CJO1NNDZ","33K3E8REWWHZ7MUV5T1222MGO9NX8Q","","","<img src=""img/flower4.png"" style=""width:200px;border:14px solid red;"">","null","","","","","",""
"451","","image-keyboard-response","300","387406","0.0-300.0","3JJVG1YBECJBTL6MT17JQ4HL8EL5BS","A25GC0CJO1NNDZ","33K3E8REWWHZ7MUV5T1222MGO9NX8Q","","","img/flower6.png","74","455","1","1","3","0.7,0.2,0,0,0.7,0.2,0.2,0,0.7",""
"null","","html-keyboard-response","301","387707","0.0-301.0","3JJVG1YBECJBTL6MT17JQ4HL8EL5BS","A25GC0CJO1NNDZ","33K3E8REWWHZ7MUV5T1222MGO9NX8Q","","","<img src=""img/flower6.png"" style=""width:200px; border:14px solid green;"">","null","","","","","",""
"1181","","image-keyboard-response","302","388890","0.0-302.0","3JJVG1YBECJBTL6MT17JQ4HL8EL5BS","A25GC0CJO1NNDZ","33K3E8REWWHZ7MUV5T1222MGO9NX8Q","","","img/flower1.png","75","1183","2","1","2","0.7,0.2,0,0,0.7,0.2,0.2,0,0.7",""
"null","","html-keyboard-response","303","389200","0.0-303.0","3JJVG1YBECJBTL6MT17JQ4HL8EL5BS","A25GC0CJO1NNDZ","33K3E8REWWHZ7MUV5T1222MGO9NX8Q","","","<img src=""img/flower1.png"" style=""width:200px; border:14px solid green;"">","null","","","","","",""
"967","","image-keyboard-response","304","390167","0.0-304.0","3JJVG1YBECJBTL6MT17JQ4HL8EL5BS","A25GC0CJO1NNDZ","33K3E8REWWHZ7MUV5T1222MGO9NX8Q","","","img/flower1.png","75","980","2","1","2","0.7,0.2,0,0,0.7,0.2,0.2,0,0.7",""
"null","","html-keyboard-response","305","390481","0.0-305.0","3JJVG1YBECJBTL6MT17JQ4HL8EL5BS","A25GC0CJO1NNDZ","33K3E8REWWHZ7MUV5T1222MGO9NX8Q","","","<img src=""img/flower1.png"" style=""width:200px; border:14px solid green;"">","null","","","","","",""
"","","html-keyboard-response","306","393508","0.0-306.0","3JJVG1YBECJBTL6MT17JQ4HL8EL5BS","A25GC0CJO1NNDZ","33K3E8REWWHZ7MUV5T1222MGO9NX8Q","","","","","","","","","",""
"1488","","image-keyboard-response","307","394997","0.0-307.0","3JJVG1YBECJBTL6MT17JQ4HL8EL5BS","A25GC0CJO1NNDZ","33K3E8REWWHZ7MUV5T1222MGO9NX8Q","","","img/flower3.png","75","1489","2","0","3","0.7,0.2,0,0.7,0,0.2,0.2,0,0.7",""
"null","","html-keyboard-response","308","395308","0.0-308.0","3JJVG1YBECJBTL6MT17JQ4HL8EL5BS","A25GC0CJO1NNDZ","33K3E8REWWHZ7MUV5T1222MGO9NX8Q","","","<img src=""img/flower3.png"" style=""width:200px;border:14px solid red;"">","null","","","","","",""
"1180","","image-keyboard-response","309","396489","0.0-309.0","3JJVG1YBECJBTL6MT17JQ4HL8EL5BS","A25GC0CJO1NNDZ","33K3E8REWWHZ7MUV5T1222MGO9NX8Q","","","img/flower2.png","75","1181","2","0","1","0.7,0.2,0,0.7,0,0.2,0.2,0,0.7",""
"null","","html-keyboard-response","310","396794","0.0-310.0","3JJVG1YBECJBTL6MT17JQ4HL8EL5BS","A25GC0CJO1NNDZ","33K3E8REWWHZ7MUV5T1222MGO9NX8Q","","","<img src=""img/flower2.png"" style=""width:200px;border:14px solid red;"">","null","","","","","",""
"1353","","image-keyboard-response","311","398148","0.0-311.0","3JJVG1YBECJBTL6MT17JQ4HL8EL5BS","A25GC0CJO1NNDZ","33K3E8REWWHZ7MUV5T1222MGO9NX8Q","","","img/flower3.png","74","1354","1","0","3","0.7,0.2,0,0.7,0,0.2,0.2,0,0.7",""
"null","","html-keyboard-response","312","398449","0.0-312.0","3JJVG1YBECJBTL6MT17JQ4HL8EL5BS","A25GC0CJO1NNDZ","33K3E8REWWHZ7MUV5T1222MGO9NX8Q","","","<img src=""img/flower3.png"" style=""width:200px;border:14px solid red;"">","null","","","","","",""
"959","","image-keyboard-response","313","399409","0.0-313.0","3JJVG1YBECJBTL6MT17JQ4HL8EL5BS","A25GC0CJO1NNDZ","33K3E8REWWHZ7MUV5T1222MGO9NX8Q","","","img/flower5.png","76","960","3","1","2","0.7,0.2,0,0.7,0,0.2,0.2,0,0.7",""
"null","","html-keyboard-response","314","399717","0.0-314.0","3JJVG1YBECJBTL6MT17JQ4HL8EL5BS","A25GC0CJO1NNDZ","33K3E8REWWHZ7MUV5T1222MGO9NX8Q","","","<img src=""img/flower5.png"" style=""width:200px; border:14px solid green;"">","null","","","","","",""
"857","","image-keyboard-response","315","400578","0.0-315.0","3JJVG1YBECJBTL6MT17JQ4HL8EL5BS","A25GC0CJO1NNDZ","33K3E8REWWHZ7MUV5T1222MGO9NX8Q","","","img/flower5.png","76","861","3","0","2","0.7,0.2,0,0.7,0,0.2,0.2,0,0.7",""
"null","","html-keyboard-response","316","400878","0.0-316.0","3JJVG1YBECJBTL6MT17JQ4HL8EL5BS","A25GC0CJO1NNDZ","33K3E8REWWHZ7MUV5T1222MGO9NX8Q","","","<img src=""img/flower5.png"" style=""width:200px;border:14px solid red;"">","null","","","","","",""
"947","","image-keyboard-response","317","401828","0.0-317.0","3JJVG1YBECJBTL6MT17JQ4HL8EL5BS","A25GC0CJO1NNDZ","33K3E8REWWHZ7MUV5T1222MGO9NX8Q","","","img/flower2.png","75","950","2","0","1","0.7,0.2,0,0.7,0,0.2,0.2,0,0.7",""
"null","","html-keyboard-response","318","402157","0.0-318.0","3JJVG1YBECJBTL6MT17JQ4HL8EL5BS","A25GC0CJO1NNDZ","33K3E8REWWHZ7MUV5T1222MGO9NX8Q","","","<img src=""img/flower2.png"" style=""width:200px;border:14px solid red;"">","null","","","","","",""
"779","","image-keyboard-response","319","402958","0.0-319.0","3JJVG1YBECJBTL6MT17JQ4HL8EL5BS","A25GC0CJO1NNDZ","33K3E8REWWHZ7MUV5T1222MGO9NX8Q","","","img/flower3.png","74","789","1","0","3","0.7,0.2,0,0.7,0,0.2,0.2,0,0.7",""
"null","","html-keyboard-response","320","403261","0.0-320.0","3JJVG1YBECJBTL6MT17JQ4HL8EL5BS","A25GC0CJO1NNDZ","33K3E8REWWHZ7MUV5T1222MGO9NX8Q","","","<img src=""img/flower3.png"" style=""width:200px;border:14px solid red;"">","null","","","","","",""
"1047","","image-keyboard-response","321","404318","0.0-321.0","3JJVG1YBECJBTL6MT17JQ4HL8EL5BS","A25GC0CJO1NNDZ","33K3E8REWWHZ7MUV5T1222MGO9NX8Q","","","img/flower3.png","75","1057","2","0","3","0.7,0.2,0,0.7,0,0.2,0.2,0,0.7",""
"null","","html-keyboard-response","322","404619","0.0-322.0","3JJVG1YBECJBTL6MT17JQ4HL8EL5BS","A25GC0CJO1NNDZ","33K3E8REWWHZ7MUV5T1222MGO9NX8Q","","","<img src=""img/flower3.png"" style=""width:200px;border:14px solid red;"">","null","","","","","",""
"785","","image-keyboard-response","323","405404","0.0-323.0","3JJVG1YBECJBTL6MT17JQ4HL8EL5BS","A25GC0CJO1NNDZ","33K3E8REWWHZ7MUV5T1222MGO9NX8Q","","","img/flower5.png","76","785","3","0","2","0.7,0.2,0,0.7,0,0.2,0.2,0,0.7",""
"null","","html-keyboard-response","324","405720","0.0-324.0","3JJVG1YBECJBTL6MT17JQ4HL8EL5BS","A25GC0CJO1NNDZ","33K3E8REWWHZ7MUV5T1222MGO9NX8Q","","","<img src=""img/flower5.png"" style=""width:200px;border:14px solid red;"">","null","","","","","",""
"681","","image-keyboard-response","325","406411","0.0-325.0","3JJVG1YBECJBTL6MT17JQ4HL8EL5BS","A25GC0CJO1NNDZ","33K3E8REWWHZ7MUV5T1222MGO9NX8Q","","","img/flower3.png","74","691","1","0","3","0.7,0.2,0,0.7,0,0.2,0.2,0,0.7",""
"null","","html-keyboard-response","326","406712","0.0-326.0","3JJVG1YBECJBTL6MT17JQ4HL8EL5BS","A25GC0CJO1NNDZ","33K3E8REWWHZ7MUV5T1222MGO9NX8Q","","","<img src=""img/flower3.png"" style=""width:200px;border:14px solid red;"">","null","","","","","",""
"738","","image-keyboard-response","327","407456","0.0-327.0","3JJVG1YBECJBTL6MT17JQ4HL8EL5BS","A25GC0CJO1NNDZ","33K3E8REWWHZ7MUV5T1222MGO9NX8Q","","","img/flower3.png","75","744","2","0","3","0.7,0.2,0,0.7,0,0.2,0.2,0,0.7",""
"null","","html-keyboard-response","328","407768","0.0-328.0","3JJVG1YBECJBTL6MT17JQ4HL8EL5BS","A25GC0CJO1NNDZ","33K3E8REWWHZ7MUV5T1222MGO9NX8Q","","","<img src=""img/flower3.png"" style=""width:200px;border:14px solid red;"">","null","","","","","",""
"651","","image-keyboard-response","329","408419","0.0-329.0","3JJVG1YBECJBTL6MT17JQ4HL8EL5BS","A25GC0CJO1NNDZ","33K3E8REWWHZ7MUV5T1222MGO9NX8Q","","","img/flower2.png","76","651","3","0","1","0.7,0.2,0,0.7,0,0.2,0.2,0,0.7",""
"null","","html-keyboard-response","330","408730","0.0-330.0","3JJVG1YBECJBTL6MT17JQ4HL8EL5BS","A25GC0CJO1NNDZ","33K3E8REWWHZ7MUV5T1222MGO9NX8Q","","","<img src=""img/flower2.png"" style=""width:200px;border:14px solid red;"">","null","","","","","",""
"656","","image-keyboard-response","331","409398","0.0-331.0","3JJVG1YBECJBTL6MT17JQ4HL8EL5BS","A25GC0CJO1NNDZ","33K3E8REWWHZ7MUV5T1222MGO9NX8Q","","","img/flower5.png","75","668","2","0","2","0.7,0.2,0,0.7,0,0.2,0.2,0,0.7",""
"null","","html-keyboard-response","332","409700","0.0-332.0","3JJVG1YBECJBTL6MT17JQ4HL8EL5BS","A25GC0CJO1NNDZ","33K3E8REWWHZ7MUV5T1222MGO9NX8Q","","","<img src=""img/flower5.png"" style=""width:200px;border:14px solid red;"">","null","","","","","",""
"642","","image-keyboard-response","333","410354","0.0-333.0","3JJVG1YBECJBTL6MT17JQ4HL8EL5BS","A25GC0CJO1NNDZ","33K3E8REWWHZ7MUV5T1222MGO9NX8Q","","","img/flower2.png","74","643","1","0","1","0.7,0.2,0,0.7,0,0.2,0.2,0,0.7",""
"null","","html-keyboard-response","334","410668","0.0-334.0","3JJVG1YBECJBTL6MT17JQ4HL8EL5BS","A25GC0CJO1NNDZ","33K3E8REWWHZ7MUV5T1222MGO9NX8Q","","","<img src=""img/flower2.png"" style=""width:200px;border:14px solid red;"">","null","","","","","",""
"685","","image-keyboard-response","335","411354","0.0-335.0","3JJVG1YBECJBTL6MT17JQ4HL8EL5BS","A25GC0CJO1NNDZ","33K3E8REWWHZ7MUV5T1222MGO9NX8Q","","","img/flower2.png","75","686","2","0","1","0.7,0.2,0,0.7,0,0.2,0.2,0,0.7",""
"null","","html-keyboard-response","336","411654","0.0-336.0","3JJVG1YBECJBTL6MT17JQ4HL8EL5BS","A25GC0CJO1NNDZ","33K3E8REWWHZ7MUV5T1222MGO9NX8Q","","","<img src=""img/flower2.png"" style=""width:200px;border:14px solid red;"">","null","","","","","",""
"624","","image-keyboard-response","337","412294","0.0-337.0","3JJVG1YBECJBTL6MT17JQ4HL8EL5BS","A25GC0CJO1NNDZ","33K3E8REWWHZ7MUV5T1222MGO9NX8Q","","","img/flower3.png","76","640","3","1","3","0.7,0.2,0,0.7,0,0.2,0.2,0,0.7",""
"null","","html-keyboard-response","338","412595","0.0-338.0","3JJVG1YBECJBTL6MT17JQ4HL8EL5BS","A25GC0CJO1NNDZ","33K3E8REWWHZ7MUV5T1222MGO9NX8Q","","","<img src=""img/flower3.png"" style=""width:200px; border:14px solid green;"">","null","","","","","",""
"697","","image-keyboard-response","339","413293","0.0-339.0","3JJVG1YBECJBTL6MT17JQ4HL8EL5BS","A25GC0CJO1NNDZ","33K3E8REWWHZ7MUV5T1222MGO9NX8Q","","","img/flower3.png","75","698","2","0","3","0.7,0.2,0,0.7,0,0.2,0.2,0,0.7",""
"null","","html-keyboard-response","340","413594","0.0-340.0","3JJVG1YBECJBTL6MT17JQ4HL8EL5BS","A25GC0CJO1NNDZ","33K3E8REWWHZ7MUV5T1222MGO9NX8Q","","","<img src=""img/flower3.png"" style=""width:200px;border:14px solid red;"">","null","","","","","",""
"696","","image-keyboard-response","341","414293","0.0-341.0","3JJVG1YBECJBTL6MT17JQ4HL8EL5BS","A25GC0CJO1NNDZ","33K3E8REWWHZ7MUV5T1222MGO9NX8Q","","","img/flower3.png","74","699","1","0","3","0.7,0.2,0,0.7,0,0.2,0.2,0,0.7",""
"null","","html-keyboard-response","342","414594","0.0-342.0","3JJVG1YBECJBTL6MT17JQ4HL8EL5BS","A25GC0CJO1NNDZ","33K3E8REWWHZ7MUV5T1222MGO9NX8Q","","","<img src=""img/flower3.png"" style=""width:200px;border:14px solid red;"">","null","","","","","",""
"684","","image-keyboard-response","343","415292","0.0-343.0","3JJVG1YBECJBTL6MT17JQ4HL8EL5BS","A25GC0CJO1NNDZ","33K3E8REWWHZ7MUV5T1222MGO9NX8Q","","","img/flower2.png","75","698","2","0","1","0.7,0.2,0,0.7,0,0.2,0.2,0,0.7",""
"null","","html-keyboard-response","344","415605","0.0-344.0","3JJVG1YBECJBTL6MT17JQ4HL8EL5BS","A25GC0CJO1NNDZ","33K3E8REWWHZ7MUV5T1222MGO9NX8Q","","","<img src=""img/flower2.png"" style=""width:200px;border:14px solid red;"">","null","","","","","",""
"673","","image-keyboard-response","345","416283","0.0-345.0","3JJVG1YBECJBTL6MT17JQ4HL8EL5BS","A25GC0CJO1NNDZ","33K3E8REWWHZ7MUV5T1222MGO9NX8Q","","","img/flower3.png","76","678","3","0","3","0.7,0.2,0,0.7,0,0.2,0.2,0,0.7",""
"null","","html-keyboard-response","346","416588","0.0-346.0","3JJVG1YBECJBTL6MT17JQ4HL8EL5BS","A25GC0CJO1NNDZ","33K3E8REWWHZ7MUV5T1222MGO9NX8Q","","","<img src=""img/flower3.png"" style=""width:200px;border:14px solid red;"">","null","","","","","",""
"631","","image-keyboard-response","347","417219","0.0-347.0","3JJVG1YBECJBTL6MT17JQ4HL8EL5BS","A25GC0CJO1NNDZ","33K3E8REWWHZ7MUV5T1222MGO9NX8Q","","","img/flower5.png","75","631","2","0","2","0.7,0.2,0,0.7,0,0.2,0.2,0,0.7",""
"null","","html-keyboard-response","348","417525","0.0-348.0","3JJVG1YBECJBTL6MT17JQ4HL8EL5BS","A25GC0CJO1NNDZ","33K3E8REWWHZ7MUV5T1222MGO9NX8Q","","","<img src=""img/flower5.png"" style=""width:200px;border:14px solid red;"">","null","","","","","",""
"776","","image-keyboard-response","349","418302","0.0-349.0","3JJVG1YBECJBTL6MT17JQ4HL8EL5BS","A25GC0CJO1NNDZ","33K3E8REWWHZ7MUV5T1222MGO9NX8Q","","","img/flower2.png","74","777","1","0","1","0.7,0.2,0,0.7,0,0.2,0.2,0,0.7",""
"null","","html-keyboard-response","350","418606","0.0-350.0","3JJVG1YBECJBTL6MT17JQ4HL8EL5BS","A25GC0CJO1NNDZ","33K3E8REWWHZ7MUV5T1222MGO9NX8Q","","","<img src=""img/flower2.png"" style=""width:200px;border:14px solid red;"">","null","","","","","",""
"702","","image-keyboard-response","351","419321","0.0-351.0","3JJVG1YBECJBTL6MT17JQ4HL8EL5BS","A25GC0CJO1NNDZ","33K3E8REWWHZ7MUV5T1222MGO9NX8Q","","","img/flower3.png","75","715","2","0","3","0.7,0.2,0,0.7,0,0.2,0.2,0,0.7",""
"null","","html-keyboard-response","352","419636","0.0-352.0","3JJVG1YBECJBTL6MT17JQ4HL8EL5BS","A25GC0CJO1NNDZ","33K3E8REWWHZ7MUV5T1222MGO9NX8Q","","","<img src=""img/flower3.png"" style=""width:200px;border:14px solid red;"">","null","","","","","",""
"680","","image-keyboard-response","353","420328","0.0-353.0","3JJVG1YBECJBTL6MT17JQ4HL8EL5BS","A25GC0CJO1NNDZ","33K3E8REWWHZ7MUV5T1222MGO9NX8Q","","","img/flower3.png","76","692","3","0","3","0.7,0.2,0,0.7,0,0.2,0.2,0,0.7",""
"null","","html-keyboard-response","354","420637","0.0-354.0","3JJVG1YBECJBTL6MT17JQ4HL8EL5BS","A25GC0CJO1NNDZ","33K3E8REWWHZ7MUV5T1222MGO9NX8Q","","","<img src=""img/flower3.png"" style=""width:200px;border:14px solid red;"">","null","","","","","",""
"887","","image-keyboard-response","355","421524","0.0-355.0","3JJVG1YBECJBTL6MT17JQ4HL8EL5BS","A25GC0CJO1NNDZ","33K3E8REWWHZ7MUV5T1222MGO9NX8Q","","","img/flower3.png","75","887","2","0","3","0.7,0.2,0,0.7,0,0.2,0.2,0,0.7",""
"null","","html-keyboard-response","356","421841","0.0-356.0","3JJVG1YBECJBTL6MT17JQ4HL8EL5BS","A25GC0CJO1NNDZ","33K3E8REWWHZ7MUV5T1222MGO9NX8Q","","","<img src=""img/flower3.png"" style=""width:200px;border:14px solid red;"">","null","","","","","",""
"728","","image-keyboard-response","357","422569","0.0-357.0","3JJVG1YBECJBTL6MT17JQ4HL8EL5BS","A25GC0CJO1NNDZ","33K3E8REWWHZ7MUV5T1222MGO9NX8Q","","","img/flower3.png","76","728","3","1","3","0.7,0.2,0,0.7,0,0.2,0.2,0,0.7",""
"null","","html-keyboard-response","358","422872","0.0-358.0","3JJVG1YBECJBTL6MT17JQ4HL8EL5BS","A25GC0CJO1NNDZ","33K3E8REWWHZ7MUV5T1222MGO9NX8Q","","","<img src=""img/flower3.png"" style=""width:200px; border:14px solid green;"">","null","","","","","",""
"1087","","image-keyboard-response","359","423969","0.0-359.0","3JJVG1YBECJBTL6MT17JQ4HL8EL5BS","A25GC0CJO1NNDZ","33K3E8REWWHZ7MUV5T1222MGO9NX8Q","","","img/flower2.png","74","1097","1","0","1","0.7,0.2,0,0.7,0,0.2,0.2,0,0.7",""
"null","","html-keyboard-response","360","424269","0.0-360.0","3JJVG1YBECJBTL6MT17JQ4HL8EL5BS","A25GC0CJO1NNDZ","33K3E8REWWHZ7MUV5T1222MGO9NX8Q","","","<img src=""img/flower2.png"" style=""width:200px;border:14px solid red;"">","null","","","","","",""
"820","","image-keyboard-response","361","425099","0.0-361.0","3JJVG1YBECJBTL6MT17JQ4HL8EL5BS","A25GC0CJO1NNDZ","33K3E8REWWHZ7MUV5T1222MGO9NX8Q","","","img/flower2.png","75","830","2","0","1","0.7,0.2,0,0.7,0,0.2,0.2,0,0.7",""
"null","","html-keyboard-response","362","425400","0.0-362.0","3JJVG1YBECJBTL6MT17JQ4HL8EL5BS","A25GC0CJO1NNDZ","33K3E8REWWHZ7MUV5T1222MGO9NX8Q","","","<img src=""img/flower2.png"" style=""width:200px;border:14px solid red;"">","null","","","","","",""
"707","","image-keyboard-response","363","426110","0.0-363.0","3JJVG1YBECJBTL6MT17JQ4HL8EL5BS","A25GC0CJO1NNDZ","33K3E8REWWHZ7MUV5T1222MGO9NX8Q","","","img/flower5.png","76","710","3","0","2","0.7,0.2,0,0.7,0,0.2,0.2,0,0.7",""
"null","","html-keyboard-response","364","426427","0.0-364.0","3JJVG1YBECJBTL6MT17JQ4HL8EL5BS","A25GC0CJO1NNDZ","33K3E8REWWHZ7MUV5T1222MGO9NX8Q","","","<img src=""img/flower5.png"" style=""width:200px;border:14px solid red;"">","null","","","","","",""
"750","","image-keyboard-response","365","427178","0.0-365.0","3JJVG1YBECJBTL6MT17JQ4HL8EL5BS","A25GC0CJO1NNDZ","33K3E8REWWHZ7MUV5T1222MGO9NX8Q","","","img/flower2.png","75","751","2","0","1","0.7,0.2,0,0.7,0,0.2,0.2,0,0.7",""
"null","","html-keyboard-response","366","427484","0.0-366.0","3JJVG1YBECJBTL6MT17JQ4HL8EL5BS","A25GC0CJO1NNDZ","33K3E8REWWHZ7MUV5T1222MGO9NX8Q","","","<img src=""img/flower2.png"" style=""width:200px;border:14px solid red;"">","null","","","","","",""
"892","","image-keyboard-response","367","428377","0.0-367.0","3JJVG1YBECJBTL6MT17JQ4HL8EL5BS","A25GC0CJO1NNDZ","33K3E8REWWHZ7MUV5T1222MGO9NX8Q","","","img/flower2.png","74","893","1","0","1","0.7,0.2,0,0.7,0,0.2,0.2,0,0.7",""
"null","","html-keyboard-response","368","428684","0.0-368.0","3JJVG1YBECJBTL6MT17JQ4HL8EL5BS","A25GC0CJO1NNDZ","33K3E8REWWHZ7MUV5T1222MGO9NX8Q","","","<img src=""img/flower2.png"" style=""width:200px;border:14px solid red;"">","null","","","","","",""
"764","","image-keyboard-response","369","429458","0.0-369.0","3JJVG1YBECJBTL6MT17JQ4HL8EL5BS","A25GC0CJO1NNDZ","33K3E8REWWHZ7MUV5T1222MGO9NX8Q","","","img/flower2.png","75","774","2","1","1","0.7,0.2,0,0.7,0,0.2,0.2,0,0.7",""
"null","","html-keyboard-response","370","429771","0.0-370.0","3JJVG1YBECJBTL6MT17JQ4HL8EL5BS","A25GC0CJO1NNDZ","33K3E8REWWHZ7MUV5T1222MGO9NX8Q","","","<img src=""img/flower2.png"" style=""width:200px; border:14px solid green;"">","null","","","","","",""
"1003","","image-keyboard-response","371","430787","0.0-371.0","3JJVG1YBECJBTL6MT17JQ4HL8EL5BS","A25GC0CJO1NNDZ","33K3E8REWWHZ7MUV5T1222MGO9NX8Q","","","img/flower3.png","76","1014","3","1","3","0.7,0.2,0,0.7,0,0.2,0.2,0,0.7",""
"null","","html-keyboard-response","372","431104","0.0-372.0","3JJVG1YBECJBTL6MT17JQ4HL8EL5BS","A25GC0CJO1NNDZ","33K3E8REWWHZ7MUV5T1222MGO9NX8Q","","","<img src=""img/flower3.png"" style=""width:200px; border:14px solid green;"">","null","","","","","",""
"941","","image-keyboard-response","373","432046","0.0-373.0","3JJVG1YBECJBTL6MT17JQ4HL8EL5BS","A25GC0CJO1NNDZ","33K3E8REWWHZ7MUV5T1222MGO9NX8Q","","","img/flower5.png","74","952","1","1","2","0.7,0.2,0,0.7,0,0.2,0.2,0,0.7",""
"null","","html-keyboard-response","374","432372","0.0-374.0","3JJVG1YBECJBTL6MT17JQ4HL8EL5BS","A25GC0CJO1NNDZ","33K3E8REWWHZ7MUV5T1222MGO9NX8Q","","","<img src=""img/flower5.png"" style=""width:200px; border:14px solid green;"">","null","","","","","",""
"927","","image-keyboard-response","375","433300","0.0-375.0","3JJVG1YBECJBTL6MT17JQ4HL8EL5BS","A25GC0CJO1NNDZ","33K3E8REWWHZ7MUV5T1222MGO9NX8Q","","","img/flower5.png","75","928","2","0","2","0.7,0.2,0,0.7,0,0.2,0.2,0,0.7",""
"null","","html-keyboard-response","376","433604","0.0-376.0","3JJVG1YBECJBTL6MT17JQ4HL8EL5BS","A25GC0CJO1NNDZ","33K3E8REWWHZ7MUV5T1222MGO9NX8Q","","","<img src=""img/flower5.png"" style=""width:200px;border:14px solid red;"">","null","","","","","",""
"738","","image-keyboard-response","377","434357","0.0-377.0","3JJVG1YBECJBTL6MT17JQ4HL8EL5BS","A25GC0CJO1NNDZ","33K3E8REWWHZ7MUV5T1222MGO9NX8Q","","","img/flower2.png","76","753","3","0","1","0.7,0.2,0,0.7,0,0.2,0.2,0,0.7",""
"null","","html-keyboard-response","378","434672","0.0-378.0","3JJVG1YBECJBTL6MT17JQ4HL8EL5BS","A25GC0CJO1NNDZ","33K3E8REWWHZ7MUV5T1222MGO9NX8Q","","","<img src=""img/flower2.png"" style=""width:200px;border:14px solid red;"">","null","","","","","",""
"757","","image-keyboard-response","379","435437","0.0-379.0","3JJVG1YBECJBTL6MT17JQ4HL8EL5BS","A25GC0CJO1NNDZ","33K3E8REWWHZ7MUV5T1222MGO9NX8Q","","","img/flower5.png","74","764","1","1","2","0.7,0.2,0,0.7,0,0.2,0.2,0,0.7",""
"null","","html-keyboard-response","380","435775","0.0-380.0","3JJVG1YBECJBTL6MT17JQ4HL8EL5BS","A25GC0CJO1NNDZ","33K3E8REWWHZ7MUV5T1222MGO9NX8Q","","","<img src=""img/flower5.png"" style=""width:200px; border:14px solid green;"">","null","","","","","",""
"796","","image-keyboard-response","381","436586","0.0-381.0","3JJVG1YBECJBTL6MT17JQ4HL8EL5BS","A25GC0CJO1NNDZ","33K3E8REWWHZ7MUV5T1222MGO9NX8Q","","","img/flower5.png","75","811","2","0","2","0.7,0.2,0,0.7,0,0.2,0.2,0,0.7",""
"null","","html-keyboard-response","382","436901","0.0-382.0","3JJVG1YBECJBTL6MT17JQ4HL8EL5BS","A25GC0CJO1NNDZ","33K3E8REWWHZ7MUV5T1222MGO9NX8Q","","","<img src=""img/flower5.png"" style=""width:200px;border:14px solid red;"">","null","","","","","",""
"657","","image-keyboard-response","383","437565","0.0-383.0","3JJVG1YBECJBTL6MT17JQ4HL8EL5BS","A25GC0CJO1NNDZ","33K3E8REWWHZ7MUV5T1222MGO9NX8Q","","","img/flower5.png","76","664","3","1","2","0.7,0.2,0,0.7,0,0.2,0.2,0,0.7",""
"null","","html-keyboard-response","384","437868","0.0-384.0","3JJVG1YBECJBTL6MT17JQ4HL8EL5BS","A25GC0CJO1NNDZ","33K3E8REWWHZ7MUV5T1222MGO9NX8Q","","","<img src=""img/flower5.png"" style=""width:200px; border:14px solid green;"">","null","","","","","",""
"923","","image-keyboard-response","385","438795","0.0-385.0","3JJVG1YBECJBTL6MT17JQ4HL8EL5BS","A25GC0CJO1NNDZ","33K3E8REWWHZ7MUV5T1222MGO9NX8Q","","","img/flower5.png","74","927","1","1","2","0.7,0.2,0,0.7,0,0.2,0.2,0,0.7",""
"null","","html-keyboard-response","386","439106","0.0-386.0","3JJVG1YBECJBTL6MT17JQ4HL8EL5BS","A25GC0CJO1NNDZ","33K3E8REWWHZ7MUV5T1222MGO9NX8Q","","","<img src=""img/flower5.png"" style=""width:200px; border:14px solid green;"">","null","","","","","",""
"309","","image-keyboard-response","387","439415","0.0-387.0","3JJVG1YBECJBTL6MT17JQ4HL8EL5BS","A25GC0CJO1NNDZ","33K3E8REWWHZ7MUV5T1222MGO9NX8Q","","","img/flower5.png","75","310","2","0","2","0.7,0.2,0,0.7,0,0.2,0.2,0,0.7",""
"null","","html-keyboard-response","388","439717","0.0-388.0","3JJVG1YBECJBTL6MT17JQ4HL8EL5BS","A25GC0CJO1NNDZ","33K3E8REWWHZ7MUV5T1222MGO9NX8Q","","","<img src=""img/flower5.png"" style=""width:200px;border:14px solid red;"">","null","","","","","",""
"257","","image-keyboard-response","389","439985","0.0-389.0","3JJVG1YBECJBTL6MT17JQ4HL8EL5BS","A25GC0CJO1NNDZ","33K3E8REWWHZ7MUV5T1222MGO9NX8Q","","","img/flower2.png","76","268","3","0","1","0.7,0.2,0,0.7,0,0.2,0.2,0,0.7",""
"null","","html-keyboard-response","390","440292","0.0-390.0","3JJVG1YBECJBTL6MT17JQ4HL8EL5BS","A25GC0CJO1NNDZ","33K3E8REWWHZ7MUV5T1222MGO9NX8Q","","","<img src=""img/flower2.png"" style=""width:200px;border:14px solid red;"">","null","","","","","",""
"21","","image-keyboard-response","391","440313","0.0-391.0","3JJVG1YBECJBTL6MT17JQ4HL8EL5BS","A25GC0CJO1NNDZ","33K3E8REWWHZ7MUV5T1222MGO9NX8Q","","","img/flower5.png","74","21","1","0","2","0.7,0.2,0,0.7,0,0.2,0.2,0,0.7",""
"null","","html-keyboard-response","392","440621","0.0-392.0","3JJVG1YBECJBTL6MT17JQ4HL8EL5BS","A25GC0CJO1NNDZ","33K3E8REWWHZ7MUV5T1222MGO9NX8Q","","","<img src=""img/flower5.png"" style=""width:200px;border:14px solid red;"">","null","","","","","",""
"403","","image-keyboard-response","393","441025","0.0-393.0","3JJVG1YBECJBTL6MT17JQ4HL8EL5BS","A25GC0CJO1NNDZ","33K3E8REWWHZ7MUV5T1222MGO9NX8Q","","","img/flower2.png","75","404","2","0","1","0.7,0.2,0,0.7,0,0.2,0.2,0,0.7",""
"null","","html-keyboard-response","394","441340","0.0-394.0","3JJVG1YBECJBTL6MT17JQ4HL8EL5BS","A25GC0CJO1NNDZ","33K3E8REWWHZ7MUV5T1222MGO9NX8Q","","","<img src=""img/flower2.png"" style=""width:200px;border:14px solid red;"">","null","","","","","",""
"531","","image-keyboard-response","395","441884","0.0-395.0","3JJVG1YBECJBTL6MT17JQ4HL8EL5BS","A25GC0CJO1NNDZ","33K3E8REWWHZ7MUV5T1222MGO9NX8Q","","","img/flower2.png","76","544","3","0","1","0.7,0.2,0,0.7,0,0.2,0.2,0,0.7",""
"null","","html-keyboard-response","396","442197","0.0-396.0","3JJVG1YBECJBTL6MT17JQ4HL8EL5BS","A25GC0CJO1NNDZ","33K3E8REWWHZ7MUV5T1222MGO9NX8Q","","","<img src=""img/flower2.png"" style=""width:200px;border:14px solid red;"">","null","","","","","",""
"814","","image-keyboard-response","397","443011","0.0-397.0","3JJVG1YBECJBTL6MT17JQ4HL8EL5BS","A25GC0CJO1NNDZ","33K3E8REWWHZ7MUV5T1222MGO9NX8Q","","","img/flower5.png","74","828","1","1","2","0.7,0.2,0,0.7,0,0.2,0.2,0,0.7",""
"null","","html-keyboard-response","398","443342","0.0-398.0","3JJVG1YBECJBTL6MT17JQ4HL8EL5BS","A25GC0CJO1NNDZ","33K3E8REWWHZ7MUV5T1222MGO9NX8Q","","","<img src=""img/flower5.png"" style=""width:200px; border:14px solid green;"">","null","","","","","",""
"1052","","image-keyboard-response","399","444395","0.0-399.0","3JJVG1YBECJBTL6MT17JQ4HL8EL5BS","A25GC0CJO1NNDZ","33K3E8REWWHZ7MUV5T1222MGO9NX8Q","","","img/flower5.png","75","1053","2","0","2","0.7,0.2,0,0.7,0,0.2,0.2,0,0.7",""
"null","","html-keyboard-response","400","444698","0.0-400.0","3JJVG1YBECJBTL6MT17JQ4HL8EL5BS","A25GC0CJO1NNDZ","33K3E8REWWHZ7MUV5T1222MGO9NX8Q","","","<img src=""img/flower5.png"" style=""width:200px;border:14px solid red;"">","null","","","","","",""
"774","","image-keyboard-response","401","445481","0.0-401.0","3JJVG1YBECJBTL6MT17JQ4HL8EL5BS","A25GC0CJO1NNDZ","33K3E8REWWHZ7MUV5T1222MGO9NX8Q","","","img/flower5.png","76","783","3","0","2","0.7,0.2,0,0.7,0,0.2,0.2,0,0.7",""
"null","","html-keyboard-response","402","445794","0.0-402.0","3JJVG1YBECJBTL6MT17JQ4HL8EL5BS","A25GC0CJO1NNDZ","33K3E8REWWHZ7MUV5T1222MGO9NX8Q","","","<img src=""img/flower5.png"" style=""width:200px;border:14px solid red;"">","null","","","","","",""
"746","","image-keyboard-response","403","446551","0.0-403.0","3JJVG1YBECJBTL6MT17JQ4HL8EL5BS","A25GC0CJO1NNDZ","33K3E8REWWHZ7MUV5T1222MGO9NX8Q","","","img/flower2.png","74","757","1","1","1","0.7,0.2,0,0.7,0,0.2,0.2,0,0.7",""
"null","","html-keyboard-response","404","446854","0.0-404.0","3JJVG1YBECJBTL6MT17JQ4HL8EL5BS","A25GC0CJO1NNDZ","33K3E8REWWHZ7MUV5T1222MGO9NX8Q","","","<img src=""img/flower2.png"" style=""width:200px; border:14px solid green;"">","null","","","","","",""
"422","","image-keyboard-response","405","447277","0.0-405.0","3JJVG1YBECJBTL6MT17JQ4HL8EL5BS","A25GC0CJO1NNDZ","33K3E8REWWHZ7MUV5T1222MGO9NX8Q","","","img/flower5.png","75","423","2","0","2","0.7,0.2,0,0.7,0,0.2,0.2,0,0.7",""
"null","","html-keyboard-response","406","447588","0.0-406.0","3JJVG1YBECJBTL6MT17JQ4HL8EL5BS","A25GC0CJO1NNDZ","33K3E8REWWHZ7MUV5T1222MGO9NX8Q","","","<img src=""img/flower5.png"" style=""width:200px;border:14px solid red;"">","null","","","","","",""
"2856","","image-keyboard-response","407","450445","0.0-407.0","3JJVG1YBECJBTL6MT17JQ4HL8EL5BS","A25GC0CJO1NNDZ","33K3E8REWWHZ7MUV5T1222MGO9NX8Q","","","img/flower2.png","74","2857","1","1","1","0.7,0.2,0,0.7,0,0.2,0.2,0,0.7",""
"null","","html-keyboard-response","408","450748","0.0-408.0","3JJVG1YBECJBTL6MT17JQ4HL8EL5BS","A25GC0CJO1NNDZ","33K3E8REWWHZ7MUV5T1222MGO9NX8Q","","","<img src=""img/flower2.png"" style=""width:200px; border:14px solid green;"">","null","","","","","",""
"781","","image-keyboard-response","409","451530","0.0-409.0","3JJVG1YBECJBTL6MT17JQ4HL8EL5BS","A25GC0CJO1NNDZ","33K3E8REWWHZ7MUV5T1222MGO9NX8Q","","","img/flower2.png","75","782","2","0","1","0.7,0.2,0,0.7,0,0.2,0.2,0,0.7",""
"null","","html-keyboard-response","410","451830","0.0-410.0","3JJVG1YBECJBTL6MT17JQ4HL8EL5BS","A25GC0CJO1NNDZ","33K3E8REWWHZ7MUV5T1222MGO9NX8Q","","","<img src=""img/flower2.png"" style=""width:200px;border:14px solid red;"">","null","","","","","",""
"900","","image-keyboard-response","411","452747","0.0-411.0","3JJVG1YBECJBTL6MT17JQ4HL8EL5BS","A25GC0CJO1NNDZ","33K3E8REWWHZ7MUV5T1222MGO9NX8Q","","","img/flower5.png","76","917","3","0","2","0.7,0.2,0,0.7,0,0.2,0.2,0,0.7",""
"null","","html-keyboard-response","412","453058","0.0-412.0","3JJVG1YBECJBTL6MT17JQ4HL8EL5BS","A25GC0CJO1NNDZ","33K3E8REWWHZ7MUV5T1222MGO9NX8Q","","","<img src=""img/flower5.png"" style=""width:200px;border:14px solid red;"">","null","","","","","",""
"591","","image-keyboard-response","413","453650","0.0-413.0","3JJVG1YBECJBTL6MT17JQ4HL8EL5BS","A25GC0CJO1NNDZ","33K3E8REWWHZ7MUV5T1222MGO9NX8Q","","","img/flower3.png","74","592","1","1","3","0.7,0.2,0,0.7,0,0.2,0.2,0,0.7",""
"null","","html-keyboard-response","414","453964","0.0-414.0","3JJVG1YBECJBTL6MT17JQ4HL8EL5BS","A25GC0CJO1NNDZ","33K3E8REWWHZ7MUV5T1222MGO9NX8Q","","","<img src=""img/flower3.png"" style=""width:200px; border:14px solid green;"">","null","","","","","",""
"890","","image-keyboard-response","415","454862","0.0-415.0","3JJVG1YBECJBTL6MT17JQ4HL8EL5BS","A25GC0CJO1NNDZ","33K3E8REWWHZ7MUV5T1222MGO9NX8Q","","","img/flower2.png","74","898","1","1","1","0.7,0.2,0,0.7,0,0.2,0.2,0,0.7",""
"null","","html-keyboard-response","416","455173","0.0-416.0","3JJVG1YBECJBTL6MT17JQ4HL8EL5BS","A25GC0CJO1NNDZ","33K3E8REWWHZ7MUV5T1222MGO9NX8Q","","","<img src=""img/flower2.png"" style=""width:200px; border:14px solid green;"">","null","","","","","",""
"946","","image-keyboard-response","417","456119","0.0-417.0","3JJVG1YBECJBTL6MT17JQ4HL8EL5BS","A25GC0CJO1NNDZ","33K3E8REWWHZ7MUV5T1222MGO9NX8Q","","","img/flower2.png","74","946","1","1","1","0.7,0.2,0,0.7,0,0.2,0.2,0,0.7",""
"null","","html-keyboard-response","418","456428","0.0-418.0","3JJVG1YBECJBTL6MT17JQ4HL8EL5BS","A25GC0CJO1NNDZ","33K3E8REWWHZ7MUV5T1222MGO9NX8Q","","","<img src=""img/flower2.png"" style=""width:200px; border:14px solid green;"">","null","","","","","",""
"1300","","image-keyboard-response","419","457728","0.0-419.0","3JJVG1YBECJBTL6MT17JQ4HL8EL5BS","A25GC0CJO1NNDZ","33K3E8REWWHZ7MUV5T1222MGO9NX8Q","","","img/flower2.png","74","1300","1","1","1","0.7,0.2,0,0.7,0,0.2,0.2,0,0.7",""
