"rt","url","trial_type","trial_index","time_elapsed","internal_node_id","assignmentID","mturkID","hitID","success","view_history","stimulus","key_press","reactionTime","a","r","s","reward_cond","responses"
"18585.80000000447","consent.html","external-html","0","18627","0.0-0.0","3QIYRE09Y43E6CU0V4AGE94YDNS1NT","A2K0L9M1ZZO5C9","39KMGHJ4RZW9S7JH7DZG09TNV4R00C","","","","","","","","","",""
"","","fullscreen","1","21390","0.0-1.0","3QIYRE09Y43E6CU0V4AGE94YDNS1NT","A2K0L9M1ZZO5C9","39KMGHJ4RZW9S7JH7DZG09TNV4R00C","true","","","","","","","","",""
"81092.5","","instructions","2","102484","0.0-2.0","3QIYRE09Y43E6CU0V4AGE94YDNS1NT","A2K0L9M1ZZO5C9","39KMGHJ4RZW9S7JH7DZG09TNV4R00C","","[{""page_index"":0,""viewing_time"":10564.39999999851},{""page_index"":1,""viewing_time"":10709.90000000596},{""page_index"":2,""viewing_time"":13047},{""page_index"":3,""viewing_time"":20098.09999999404},{""page_index"":4,""viewing_time"":7909.30000000447},{""page_index"":5,""viewing_time"":18762.19999999553}]","","","","","","","",""
"29561.79999999702","","instructions","3","132050","0.0-3.0","3QIYRE09Y43E6CU0V4AGE94YDNS1NT","A2K0L9M1ZZO5C9","39KMGHJ4RZW9S7JH7DZG09TNV4R00C","","[{""page_index"":0,""viewing_time"":29561.29999999702}]","","","","","","","",""
"1774.8999999985099","","image-keyboard-response","4","133826","0.0-4.0","3QIYRE09Y43E6CU0V4AGE94YDNS1NT","A2K0L9M1ZZO5C9","39KMGHJ4RZW9S7JH7DZG09TNV4R00C","","","img/flower4.png","74","1776.5","1","1","1","",""
"null","","html-keyboard-response","5","134130","0.0-5.0","3QIYRE09Y43E6CU0V4AGE94YDNS1NT","A2K0L9M1ZZO5C9","39KMGHJ4RZW9S7JH7DZG09TNV4R00C","","","<img src=""img/flower4.png"" style=""width:200px; border:14px solid green;"">","null","","","","","",""
"2743.5","","image-keyboard-response","6","136876","0.0-6.0","3QIYRE09Y43E6CU0V4AGE94YDNS1NT","A2K0L9M1ZZO5C9","39KMGHJ4RZW9S7JH7DZG09TNV4R00C","","","img/flower4.png","74","2744.89999999851","1","1","1","",""
"null","","html-keyboard-response","7","137193","0.0-7.0","3QIYRE09Y43E6CU0V4AGE94YDNS1NT","A2K0L9M1ZZO5C9","39KMGHJ4RZW9S7JH7DZG09TNV4R00C","","","<img src=""img/flower4.png"" style=""width:200px; border:14px solid green;"">","null","","","","","",""
"765.2999999970198","","image-keyboard-response","8","137960","0.0-8.0","3QIYRE09Y43E6CU0V4AGE94YDNS1NT","A2K0L9M1ZZO5C9","39KMGHJ4RZW9S7JH7DZG09TNV4R00C","","","img/flower5.png","75","767.2000000029802","2","0","2","",""
"null","","html-keyboard-response","9","138270","0.0-9.0","3QIYRE09Y43E6CU0V4AGE94YDNS1NT","A2K0L9M1ZZO5C9","39KMGHJ4RZW9S7JH7DZG09TNV4R00C","","","<img src=""img/flower5.png"" style=""width:200px;border:14px solid red;"">","null","","","","","",""
"722.3999999985099","","image-keyboard-response","10","138994","0.0-10.0","3QIYRE09Y43E6CU0V4AGE94YDNS1NT","A2K0L9M1ZZO5C9","39KMGHJ4RZW9S7JH7DZG09TNV4R00C","","","img/flower4.png","74","723.2999999970198","1","1","1","",""
"null","","html-keyboard-response","11","139308","0.0-11.0","3QIYRE09Y43E6CU0V4AGE94YDNS1NT","A2K0L9M1ZZO5C9","39KMGHJ4RZW9S7JH7DZG09TNV4R00C","","","<img src=""img/flower4.png"" style=""width:200px; border:14px solid green;"">","null","","","","","",""
"890.1000000014901","","image-keyboard-response","12","140201","0.0-12.0","3QIYRE09Y43E6CU0V4AGE94YDNS1NT","A2K0L9M1ZZO5C9","39KMGHJ4RZW9S7JH7DZG09TNV4R00C","","","img/flower4.png","74","891.8999999985099","1","1","1","",""
"null","","html-keyboard-response","13","140512","0.0-13.0","3QIYRE09Y43E6CU0V4AGE94YDNS1NT","A2K0L9M1ZZO5C9","39KMGHJ4RZW9S7JH7DZG09TNV4R00C","","","<img src=""img/flower4.png"" style=""width:200px; border:14px solid green;"">","null","","","","","",""
"796.7000000029802","","image-keyboard-response","14","141310","0.0-14.0","3QIYRE09Y43E6CU0V4AGE94YDNS1NT","A2K0L9M1ZZO5C9","39KMGHJ4RZW9S7JH7DZG09TNV4R00C","","","img/flower6.png","76","798.5","3","0","3","",""
"null","","html-keyboard-response","15","141613","0.0-15.0","3QIYRE09Y43E6CU0V4AGE94YDNS1NT","A2K0L9M1ZZO5C9","39KMGHJ4RZW9S7JH7DZG09TNV4R00C","","","<img src=""img/flower6.png"" style=""width:200px;border:14px solid red;"">","null","","","","","",""
"1171.3999999985099","","image-keyboard-response","16","142787","0.0-16.0","3QIYRE09Y43E6CU0V4AGE94YDNS1NT","A2K0L9M1ZZO5C9","39KMGHJ4RZW9S7JH7DZG09TNV4R00C","","","img/flower6.png","76","1173.3999999985099","3","1","3","",""
"null","","html-keyboard-response","17","143097","0.0-17.0","3QIYRE09Y43E6CU0V4AGE94YDNS1NT","A2K0L9M1ZZO5C9","39KMGHJ4RZW9S7JH7DZG09TNV4R00C","","","<img src=""img/flower6.png"" style=""width:200px; border:14px solid green;"">","null","","","","","",""
"784","","image-keyboard-response","18","143883","0.0-18.0","3QIYRE09Y43E6CU0V4AGE94YDNS1NT","A2K0L9M1ZZO5C9","39KMGHJ4RZW9S7JH7DZG09TNV4R00C","","","img/flower4.png","74","785.5","1","1","1","",""
"null","","html-keyboard-response","19","144194","0.0-19.0","3QIYRE09Y43E6CU0V4AGE94YDNS1NT","A2K0L9M1ZZO5C9","39KMGHJ4RZW9S7JH7DZG09TNV4R00C","","","<img src=""img/flower4.png"" style=""width:200px; border:14px solid green;"">","null","","","","","",""
"974.9000000059605","","image-keyboard-response","20","145171","0.0-20.0","3QIYRE09Y43E6CU0V4AGE94YDNS1NT","A2K0L9M1ZZO5C9","39KMGHJ4RZW9S7JH7DZG09TNV4R00C","","","img/flower4.png","74","976.8999999985099","1","1","1","",""
"null","","html-keyboard-response","21","145480","0.0-21.0","3QIYRE09Y43E6CU0V4AGE94YDNS1NT","A2K0L9M1ZZO5C9","39KMGHJ4RZW9S7JH7DZG09TNV4R00C","","","<img src=""img/flower4.png"" style=""width:200px; border:14px solid green;"">","null","","","","","",""
"640.7999999970198","","image-keyboard-response","22","146123","0.0-22.0","3QIYRE09Y43E6CU0V4AGE94YDNS1NT","A2K0L9M1ZZO5C9","39KMGHJ4RZW9S7JH7DZG09TNV4R00C","","","img/flower5.png","75","643","2","1","2","",""
"null","","html-keyboard-response","23","146430","0.0-23.0","3QIYRE09Y43E6CU0V4AGE94YDNS1NT","A2K0L9M1ZZO5C9","39KMGHJ4RZW9S7JH7DZG09TNV4R00C","","","<img src=""img/flower5.png"" style=""width:200px; border:14px solid green;"">","null","","","","","",""
"870.5","","image-keyboard-response","24","147303","0.0-24.0","3QIYRE09Y43E6CU0V4AGE94YDNS1NT","A2K0L9M1ZZO5C9","39KMGHJ4RZW9S7JH7DZG09TNV4R00C","","","img/flower5.png","75","872.2999999970198","2","1","2","",""
"null","","html-keyboard-response","25","147612","0.0-25.0","3QIYRE09Y43E6CU0V4AGE94YDNS1NT","A2K0L9M1ZZO5C9","39KMGHJ4RZW9S7JH7DZG09TNV4R00C","","","<img src=""img/flower5.png"" style=""width:200px; border:14px solid green;"">","null","","","","","",""
"724.8999999985099","","image-keyboard-response","26","148340","0.0-26.0","3QIYRE09Y43E6CU0V4AGE94YDNS1NT","A2K0L9M1ZZO5C9","39KMGHJ4RZW9S7JH7DZG09TNV4R00C","","","img/flower6.png","76","727.1000000014901","3","1","3","",""
"null","","html-keyboard-response","27","148652","0.0-27.0","3QIYRE09Y43E6CU0V4AGE94YDNS1NT","A2K0L9M1ZZO5C9","39KMGHJ4RZW9S7JH7DZG09TNV4R00C","","","<img src=""img/flower6.png"" style=""width:200px; border:14px solid green;"">","null","","","","","",""
"721.8999999985099","","image-keyboard-response","28","149376","0.0-28.0","3QIYRE09Y43E6CU0V4AGE94YDNS1NT","A2K0L9M1ZZO5C9","39KMGHJ4RZW9S7JH7DZG09TNV4R00C","","","img/flower4.png","74","723.8999999985099","1","1","1","",""
"null","","html-keyboard-response","29","149692","0.0-29.0","3QIYRE09Y43E6CU0V4AGE94YDNS1NT","A2K0L9M1ZZO5C9","39KMGHJ4RZW9S7JH7DZG09TNV4R00C","","","<img src=""img/flower4.png"" style=""width:200px; border:14px solid green;"">","null","","","","","",""
"715.0999999940395","","image-keyboard-response","30","150410","0.0-30.0","3QIYRE09Y43E6CU0V4AGE94YDNS1NT","A2K0L9M1ZZO5C9","39KMGHJ4RZW9S7JH7DZG09TNV4R00C","","","img/flower5.png","75","717.5","2","0","2","",""
"null","","html-keyboard-response","31","150719","0.0-31.0","3QIYRE09Y43E6CU0V4AGE94YDNS1NT","A2K0L9M1ZZO5C9","39KMGHJ4RZW9S7JH7DZG09TNV4R00C","","","<img src=""img/flower5.png"" style=""width:200px;border:14px solid red;"">","null","","","","","",""
"554.3000000044703","","image-keyboard-response","32","151275","0.0-32.0","3QIYRE09Y43E6CU0V4AGE94YDNS1NT","A2K0L9M1ZZO5C9","39KMGHJ4RZW9S7JH7DZG09TNV4R00C","","","img/flower5.png","75","555.7000000029802","2","1","2","",""
"null","","html-keyboard-response","33","151581","0.0-33.0","3QIYRE09Y43E6CU0V4AGE94YDNS1NT","A2K0L9M1ZZO5C9","39KMGHJ4RZW9S7JH7DZG09TNV4R00C","","","<img src=""img/flower5.png"" style=""width:200px; border:14px solid green;"">","null","","","","","",""
"620.2999999970198","","image-keyboard-response","34","152204","0.0-34.0","3QIYRE09Y43E6CU0V4AGE94YDNS1NT","A2K0L9M1ZZO5C9","39KMGHJ4RZW9S7JH7DZG09TNV4R00C","","","img/flower4.png","74","622.3999999985099","1","1","1","",""
"null","","html-keyboard-response","35","152511","0.0-35.0","3QIYRE09Y43E6CU0V4AGE94YDNS1NT","A2K0L9M1ZZO5C9","39KMGHJ4RZW9S7JH7DZG09TNV4R00C","","","<img src=""img/flower4.png"" style=""width:200px; border:14px solid green;"">","null","","","","","",""
"1398.1999999955297","","image-keyboard-response","36","153910","0.0-36.0","3QIYRE09Y43E6CU0V4AGE94YDNS1NT","A2K0L9M1ZZO5C9","39KMGHJ4RZW9S7JH7DZG09TNV4R00C","","","img/flower5.png","75","1399.5","2","1","2","",""
"null","","html-keyboard-response","37","154225","0.0-37.0","3QIYRE09Y43E6CU0V4AGE94YDNS1NT","A2K0L9M1ZZO5C9","39KMGHJ4RZW9S7JH7DZG09TNV4R00C","","","<img src=""img/flower5.png"" style=""width:200px; border:14px solid green;"">","null","","","","","",""
"710.6000000014901","","image-keyboard-response","38","154938","0.0-38.0","3QIYRE09Y43E6CU0V4AGE94YDNS1NT","A2K0L9M1ZZO5C9","39KMGHJ4RZW9S7JH7DZG09TNV4R00C","","","img/flower6.png","76","712.7000000029802","3","1","3","",""
"null","","html-keyboard-response","39","155241","0.0-39.0","3QIYRE09Y43E6CU0V4AGE94YDNS1NT","A2K0L9M1ZZO5C9","39KMGHJ4RZW9S7JH7DZG09TNV4R00C","","","<img src=""img/flower6.png"" style=""width:200px; border:14px solid green;"">","null","","","","","",""
"1627.7000000029802","","image-keyboard-response","40","156870","0.0-40.0","3QIYRE09Y43E6CU0V4AGE94YDNS1NT","A2K0L9M1ZZO5C9","39KMGHJ4RZW9S7JH7DZG09TNV4R00C","","","img/flower5.png","75","1628.8000000044703","2","1","2","",""
"null","","html-keyboard-response","41","157177","0.0-41.0","3QIYRE09Y43E6CU0V4AGE94YDNS1NT","A2K0L9M1ZZO5C9","39KMGHJ4RZW9S7JH7DZG09TNV4R00C","","","<img src=""img/flower5.png"" style=""width:200px; border:14px solid green;"">","null","","","","","",""
"657.6000000014901","","image-keyboard-response","42","157837","0.0-42.0","3QIYRE09Y43E6CU0V4AGE94YDNS1NT","A2K0L9M1ZZO5C9","39KMGHJ4RZW9S7JH7DZG09TNV4R00C","","","img/flower6.png","76","659.8999999985099","3","1","3","",""
"null","","html-keyboard-response","43","158143","0.0-43.0","3QIYRE09Y43E6CU0V4AGE94YDNS1NT","A2K0L9M1ZZO5C9","39KMGHJ4RZW9S7JH7DZG09TNV4R00C","","","<img src=""img/flower6.png"" style=""width:200px; border:14px solid green;"">","null","","","","","",""
"1118.5","","image-keyboard-response","44","159263","0.0-44.0","3QIYRE09Y43E6CU0V4AGE94YDNS1NT","A2K0L9M1ZZO5C9","39KMGHJ4RZW9S7JH7DZG09TNV4R00C","","","img/flower6.png","76","1119.8000000044703","3","1","3","",""
"null","","html-keyboard-response","45","159568","0.0-45.0","3QIYRE09Y43E6CU0V4AGE94YDNS1NT","A2K0L9M1ZZO5C9","39KMGHJ4RZW9S7JH7DZG09TNV4R00C","","","<img src=""img/flower6.png"" style=""width:200px; border:14px solid green;"">","null","","","","","",""
"971.3000000044703","","image-keyboard-response","46","160542","0.0-46.0","3QIYRE09Y43E6CU0V4AGE94YDNS1NT","A2K0L9M1ZZO5C9","39KMGHJ4RZW9S7JH7DZG09TNV4R00C","","","img/flower5.png","75","973.5","2","1","2","",""
"null","","html-keyboard-response","47","160860","0.0-47.0","3QIYRE09Y43E6CU0V4AGE94YDNS1NT","A2K0L9M1ZZO5C9","39KMGHJ4RZW9S7JH7DZG09TNV4R00C","","","<img src=""img/flower5.png"" style=""width:200px; border:14px solid green;"">","null","","","","","",""
"1121.5","","image-keyboard-response","48","161983","0.0-48.0","3QIYRE09Y43E6CU0V4AGE94YDNS1NT","A2K0L9M1ZZO5C9","39KMGHJ4RZW9S7JH7DZG09TNV4R00C","","","img/flower6.png","76","1123","3","1","3","",""
"null","","html-keyboard-response","49","162291","0.0-49.0","3QIYRE09Y43E6CU0V4AGE94YDNS1NT","A2K0L9M1ZZO5C9","39KMGHJ4RZW9S7JH7DZG09TNV4R00C","","","<img src=""img/flower6.png"" style=""width:200px; border:14px solid green;"">","null","","","","","",""
"730.2999999970198","","image-keyboard-response","50","163024","0.0-50.0","3QIYRE09Y43E6CU0V4AGE94YDNS1NT","A2K0L9M1ZZO5C9","39KMGHJ4RZW9S7JH7DZG09TNV4R00C","","","img/flower4.png","74","732","1","1","1","",""
"null","","html-keyboard-response","51","163341","0.0-51.0","3QIYRE09Y43E6CU0V4AGE94YDNS1NT","A2K0L9M1ZZO5C9","39KMGHJ4RZW9S7JH7DZG09TNV4R00C","","","<img src=""img/flower4.png"" style=""width:200px; border:14px solid green;"">","null","","","","","",""
"733","","image-keyboard-response","52","164076","0.0-52.0","3QIYRE09Y43E6CU0V4AGE94YDNS1NT","A2K0L9M1ZZO5C9","39KMGHJ4RZW9S7JH7DZG09TNV4R00C","","","img/flower6.png","76","734.5","3","1","3","",""
"null","","html-keyboard-response","53","164393","0.0-53.0","3QIYRE09Y43E6CU0V4AGE94YDNS1NT","A2K0L9M1ZZO5C9","39KMGHJ4RZW9S7JH7DZG09TNV4R00C","","","<img src=""img/flower6.png"" style=""width:200px; border:14px solid green;"">","null","","","","","",""
"1518.1000000014901","","image-keyboard-response","54","165913","0.0-54.0","3QIYRE09Y43E6CU0V4AGE94YDNS1NT","A2K0L9M1ZZO5C9","39KMGHJ4RZW9S7JH7DZG09TNV4R00C","","","img/flower5.png","75","1519.7999999970198","2","1","2","",""
"null","","html-keyboard-response","55","166225","0.0-55.0","3QIYRE09Y43E6CU0V4AGE94YDNS1NT","A2K0L9M1ZZO5C9","39KMGHJ4RZW9S7JH7DZG09TNV4R00C","","","<img src=""img/flower5.png"" style=""width:200px; border:14px solid green;"">","null","","","","","",""
"815.5","","image-keyboard-response","56","167043","0.0-56.0","3QIYRE09Y43E6CU0V4AGE94YDNS1NT","A2K0L9M1ZZO5C9","39KMGHJ4RZW9S7JH7DZG09TNV4R00C","","","img/flower6.png","76","817.1000000014901","3","1","3","",""
"null","","html-keyboard-response","57","167349","0.0-57.0","3QIYRE09Y43E6CU0V4AGE94YDNS1NT","A2K0L9M1ZZO5C9","39KMGHJ4RZW9S7JH7DZG09TNV4R00C","","","<img src=""img/flower6.png"" style=""width:200px; border:14px solid green;"">","null","","","","","",""
"1128.8000000044703","","image-keyboard-response","58","168479","0.0-58.0","3QIYRE09Y43E6CU0V4AGE94YDNS1NT","A2K0L9M1ZZO5C9","39KMGHJ4RZW9S7JH7DZG09TNV4R00C","","","img/flower5.png","75","1130.4000000059605","2","1","2","",""
"null","","html-keyboard-response","59","168793","0.0-59.0","3QIYRE09Y43E6CU0V4AGE94YDNS1NT","A2K0L9M1ZZO5C9","39KMGHJ4RZW9S7JH7DZG09TNV4R00C","","","<img src=""img/flower5.png"" style=""width:200px; border:14px solid green;"">","null","","","","","",""
"581.1000000014901","","image-keyboard-response","60","169376","0.0-60.0","3QIYRE09Y43E6CU0V4AGE94YDNS1NT","A2K0L9M1ZZO5C9","39KMGHJ4RZW9S7JH7DZG09TNV4R00C","","","img/flower4.png","74","583.1999999955297","1","1","1","",""
"null","","html-keyboard-response","61","169681","0.0-61.0","3QIYRE09Y43E6CU0V4AGE94YDNS1NT","A2K0L9M1ZZO5C9","39KMGHJ4RZW9S7JH7DZG09TNV4R00C","","","<img src=""img/flower4.png"" style=""width:200px; border:14px solid green;"">","null","","","","","",""
"913","","image-keyboard-response","62","170596","0.0-62.0","3QIYRE09Y43E6CU0V4AGE94YDNS1NT","A2K0L9M1ZZO5C9","39KMGHJ4RZW9S7JH7DZG09TNV4R00C","","","img/flower6.png","76","914.2000000029802","3","1","3","",""
"null","","html-keyboard-response","63","170908","0.0-63.0","3QIYRE09Y43E6CU0V4AGE94YDNS1NT","A2K0L9M1ZZO5C9","39KMGHJ4RZW9S7JH7DZG09TNV4R00C","","","<img src=""img/flower6.png"" style=""width:200px; border:14px solid green;"">","null","","","","","",""
"70346.20000000298","","instructions","64","241244","0.0-64.0","3QIYRE09Y43E6CU0V4AGE94YDNS1NT","A2K0L9M1ZZO5C9","39KMGHJ4RZW9S7JH7DZG09TNV4R00C","","[{""page_index"":0,""viewing_time"":4377.10000000149},{""page_index"":1,""viewing_time"":65968.5}]","","","","","","","",""
"1581.8999999985099","","image-keyboard-response","65","242828","0.0-65.0","3QIYRE09Y43E6CU0V4AGE94YDNS1NT","A2K0L9M1ZZO5C9","39KMGHJ4RZW9S7JH7DZG09TNV4R00C","","","img/flower4.png","74","1583.6000000014901","1","1","1","",""
"null","","html-keyboard-response","66","243138","0.0-66.0","3QIYRE09Y43E6CU0V4AGE94YDNS1NT","A2K0L9M1ZZO5C9","39KMGHJ4RZW9S7JH7DZG09TNV4R00C","","","<img src=""img/flower4.png"" style=""width:200px; border:14px solid green;"">","null","","","","","",""
"1480.1000000014901","","image-keyboard-response","67","244620","0.0-67.0","3QIYRE09Y43E6CU0V4AGE94YDNS1NT","A2K0L9M1ZZO5C9","39KMGHJ4RZW9S7JH7DZG09TNV4R00C","","","img/flower4.png","74","1481.7000000029802","1","0","1","",""
"null","","html-keyboard-response","68","244935","0.0-68.0","3QIYRE09Y43E6CU0V4AGE94YDNS1NT","A2K0L9M1ZZO5C9","39KMGHJ4RZW9S7JH7DZG09TNV4R00C","","","<img src=""img/flower4.png"" style=""width:200px;border:14px solid red;"">","null","","","","","",""
"1848.4000000059605","","image-keyboard-response","69","246786","0.0-69.0","3QIYRE09Y43E6CU0V4AGE94YDNS1NT","A2K0L9M1ZZO5C9","39KMGHJ4RZW9S7JH7DZG09TNV4R00C","","","img/flower4.png","75","1850.3000000044703","2","0","1","",""
"null","","html-keyboard-response","70","247098","0.0-70.0","3QIYRE09Y43E6CU0V4AGE94YDNS1NT","A2K0L9M1ZZO5C9","39KMGHJ4RZW9S7JH7DZG09TNV4R00C","","","<img src=""img/flower4.png"" style=""width:200px;border:14px solid red;"">","null","","","","","",""
"1097.3999999985099","","image-keyboard-response","71","248198","0.0-71.0","3QIYRE09Y43E6CU0V4AGE94YDNS1NT","A2K0L9M1ZZO5C9","39KMGHJ4RZW9S7JH7DZG09TNV4R00C","","","img/flower4.png","74","1098.9000000059605","1","1","1","",""
"null","","html-keyboard-response","72","248507","0.0-72.0","3QIYRE09Y43E6CU0V4AGE94YDNS1NT","A2K0L9M1ZZO5C9","39KMGHJ4RZW9S7JH7DZG09TNV4R00C","","","<img src=""img/flower4.png"" style=""width:200px; border:14px solid green;"">","null","","","","","",""
"985.7000000029802","","image-keyboard-response","73","249495","0.0-73.0","3QIYRE09Y43E6CU0V4AGE94YDNS1NT","A2K0L9M1ZZO5C9","39KMGHJ4RZW9S7JH7DZG09TNV4R00C","","","img/flower6.png","76","987.2999999970198","3","1","3","",""
"null","","html-keyboard-response","74","249804","0.0-74.0","3QIYRE09Y43E6CU0V4AGE94YDNS1NT","A2K0L9M1ZZO5C9","39KMGHJ4RZW9S7JH7DZG09TNV4R00C","","","<img src=""img/flower6.png"" style=""width:200px; border:14px solid green;"">","null","","","","","",""
"1148.3000000044703","","image-keyboard-response","75","250953","0.0-75.0","3QIYRE09Y43E6CU0V4AGE94YDNS1NT","A2K0L9M1ZZO5C9","39KMGHJ4RZW9S7JH7DZG09TNV4R00C","","","img/flower5.png","75","1149.5","2","1","2","",""
"null","","html-keyboard-response","76","251270","0.0-76.0","3QIYRE09Y43E6CU0V4AGE94YDNS1NT","A2K0L9M1ZZO5C9","39KMGHJ4RZW9S7JH7DZG09TNV4R00C","","","<img src=""img/flower5.png"" style=""width:200px; border:14px solid green;"">","null","","","","","",""
"1666.4000000059605","","image-keyboard-response","77","252938","0.0-77.0","3QIYRE09Y43E6CU0V4AGE94YDNS1NT","A2K0L9M1ZZO5C9","39KMGHJ4RZW9S7JH7DZG09TNV4R00C","","","img/flower4.png","74","1667.5","1","1","1","",""
"null","","html-keyboard-response","78","253254","0.0-78.0","3QIYRE09Y43E6CU0V4AGE94YDNS1NT","A2K0L9M1ZZO5C9","39KMGHJ4RZW9S7JH7DZG09TNV4R00C","","","<img src=""img/flower4.png"" style=""width:200px; border:14px solid green;"">","null","","","","","",""
"1290.1000000014901","","image-keyboard-response","79","254546","0.0-79.0","3QIYRE09Y43E6CU0V4AGE94YDNS1NT","A2K0L9M1ZZO5C9","39KMGHJ4RZW9S7JH7DZG09TNV4R00C","","","img/flower4.png","74","1292.1000000014901","1","1","1","",""
"null","","html-keyboard-response","80","254854","0.0-80.0","3QIYRE09Y43E6CU0V4AGE94YDNS1NT","A2K0L9M1ZZO5C9","39KMGHJ4RZW9S7JH7DZG09TNV4R00C","","","<img src=""img/flower4.png"" style=""width:200px; border:14px solid green;"">","null","","","","","",""
"809.8000000044703","","image-keyboard-response","81","255666","0.0-81.0","3QIYRE09Y43E6CU0V4AGE94YDNS1NT","A2K0L9M1ZZO5C9","39KMGHJ4RZW9S7JH7DZG09TNV4R00C","","","img/flower6.png","76","811.3000000044703","3","1","3","",""
"null","","html-keyboard-response","82","255977","0.0-82.0","3QIYRE09Y43E6CU0V4AGE94YDNS1NT","A2K0L9M1ZZO5C9","39KMGHJ4RZW9S7JH7DZG09TNV4R00C","","","<img src=""img/flower6.png"" style=""width:200px; border:14px solid green;"">","null","","","","","",""
"625.8000000044703","","image-keyboard-response","83","256605","0.0-83.0","3QIYRE09Y43E6CU0V4AGE94YDNS1NT","A2K0L9M1ZZO5C9","39KMGHJ4RZW9S7JH7DZG09TNV4R00C","","","img/flower6.png","76","627.7000000029802","3","1","3","",""
"null","","html-keyboard-response","84","256917","0.0-84.0","3QIYRE09Y43E6CU0V4AGE94YDNS1NT","A2K0L9M1ZZO5C9","39KMGHJ4RZW9S7JH7DZG09TNV4R00C","","","<img src=""img/flower6.png"" style=""width:200px; border:14px solid green;"">","null","","","","","",""
"649.6000000014901","","image-keyboard-response","85","257569","0.0-85.0","3QIYRE09Y43E6CU0V4AGE94YDNS1NT","A2K0L9M1ZZO5C9","39KMGHJ4RZW9S7JH7DZG09TNV4R00C","","","img/flower5.png","75","651.6999999955297","2","0","2","",""
"null","","html-keyboard-response","86","257885","0.0-86.0","3QIYRE09Y43E6CU0V4AGE94YDNS1NT","A2K0L9M1ZZO5C9","39KMGHJ4RZW9S7JH7DZG09TNV4R00C","","","<img src=""img/flower5.png"" style=""width:200px;border:14px solid red;"">","null","","","","","",""
"732","","image-keyboard-response","87","258619","0.0-87.0","3QIYRE09Y43E6CU0V4AGE94YDNS1NT","A2K0L9M1ZZO5C9","39KMGHJ4RZW9S7JH7DZG09TNV4R00C","","","img/flower6.png","76","733.2999999970198","3","0","3","",""
"null","","html-keyboard-response","88","258934","0.0-88.0","3QIYRE09Y43E6CU0V4AGE94YDNS1NT","A2K0L9M1ZZO5C9","39KMGHJ4RZW9S7JH7DZG09TNV4R00C","","","<img src=""img/flower6.png"" style=""width:200px;border:14px solid red;"">","null","","","","","",""
"734","","image-keyboard-response","89","259669","0.0-89.0","3QIYRE09Y43E6CU0V4AGE94YDNS1NT","A2K0L9M1ZZO5C9","39KMGHJ4RZW9S7JH7DZG09TNV4R00C","","","img/flower6.png","76","735.3999999985099","3","1","3","",""
"null","","html-keyboard-response","90","259975","0.0-90.0","3QIYRE09Y43E6CU0V4AGE94YDNS1NT","A2K0L9M1ZZO5C9","39KMGHJ4RZW9S7JH7DZG09TNV4R00C","","","<img src=""img/flower6.png"" style=""width:200px; border:14px solid green;"">","null","","","","","",""
"1122.8000000044703","","image-keyboard-response","91","261100","0.0-91.0","3QIYRE09Y43E6CU0V4AGE94YDNS1NT","A2K0L9M1ZZO5C9","39KMGHJ4RZW9S7JH7DZG09TNV4R00C","","","img/flower6.png","76","1124.5","3","1","3","",""
"null","","html-keyboard-response","92","261407","0.0-92.0","3QIYRE09Y43E6CU0V4AGE94YDNS1NT","A2K0L9M1ZZO5C9","39KMGHJ4RZW9S7JH7DZG09TNV4R00C","","","<img src=""img/flower6.png"" style=""width:200px; border:14px solid green;"">","null","","","","","",""
"1336.1000000014901","","image-keyboard-response","93","262746","0.0-93.0","3QIYRE09Y43E6CU0V4AGE94YDNS1NT","A2K0L9M1ZZO5C9","39KMGHJ4RZW9S7JH7DZG09TNV4R00C","","","img/flower4.png","74","1338.1000000014901","1","1","1","",""
"null","","html-keyboard-response","94","263060","0.0-94.0","3QIYRE09Y43E6CU0V4AGE94YDNS1NT","A2K0L9M1ZZO5C9","39KMGHJ4RZW9S7JH7DZG09TNV4R00C","","","<img src=""img/flower4.png"" style=""width:200px; border:14px solid green;"">","null","","","","","",""
"672.2000000029802","","image-keyboard-response","95","263733","0.0-95.0","3QIYRE09Y43E6CU0V4AGE94YDNS1NT","A2K0L9M1ZZO5C9","39KMGHJ4RZW9S7JH7DZG09TNV4R00C","","","img/flower5.png","75","673.3000000044703","2","1","2","",""
"null","","html-keyboard-response","96","264037","0.0-96.0","3QIYRE09Y43E6CU0V4AGE94YDNS1NT","A2K0L9M1ZZO5C9","39KMGHJ4RZW9S7JH7DZG09TNV4R00C","","","<img src=""img/flower5.png"" style=""width:200px; border:14px solid green;"">","null","","","","","",""
"949.3999999985099","","image-keyboard-response","97","264989","0.0-97.0","3QIYRE09Y43E6CU0V4AGE94YDNS1NT","A2K0L9M1ZZO5C9","39KMGHJ4RZW9S7JH7DZG09TNV4R00C","","","img/flower5.png","75","950.8999999985099","2","1","2","",""
"null","","html-keyboard-response","98","265304","0.0-98.0","3QIYRE09Y43E6CU0V4AGE94YDNS1NT","A2K0L9M1ZZO5C9","39KMGHJ4RZW9S7JH7DZG09TNV4R00C","","","<img src=""img/flower5.png"" style=""width:200px; border:14px solid green;"">","null","","","","","",""
"747.6999999955297","","image-keyboard-response","99","266053","0.0-99.0","3QIYRE09Y43E6CU0V4AGE94YDNS1NT","A2K0L9M1ZZO5C9","39KMGHJ4RZW9S7JH7DZG09TNV4R00C","","","img/flower5.png","75","748.5","2","0","2","",""
"null","","html-keyboard-response","100","266356","0.0-100.0","3QIYRE09Y43E6CU0V4AGE94YDNS1NT","A2K0L9M1ZZO5C9","39KMGHJ4RZW9S7JH7DZG09TNV4R00C","","","<img src=""img/flower5.png"" style=""width:200px;border:14px solid red;"">","null","","","","","",""
"1240.6000000014901","","image-keyboard-response","101","267599","0.0-101.0","3QIYRE09Y43E6CU0V4AGE94YDNS1NT","A2K0L9M1ZZO5C9","39KMGHJ4RZW9S7JH7DZG09TNV4R00C","","","img/flower4.png","74","1242.6999999955297","1","1","1","",""
"null","","html-keyboard-response","102","267905","0.0-102.0","3QIYRE09Y43E6CU0V4AGE94YDNS1NT","A2K0L9M1ZZO5C9","39KMGHJ4RZW9S7JH7DZG09TNV4R00C","","","<img src=""img/flower4.png"" style=""width:200px; border:14px solid green;"">","null","","","","","",""
"995.9000000059605","","image-keyboard-response","103","268903","0.0-103.0","3QIYRE09Y43E6CU0V4AGE94YDNS1NT","A2K0L9M1ZZO5C9","39KMGHJ4RZW9S7JH7DZG09TNV4R00C","","","img/flower6.png","76","997.8000000044703","3","0","3","",""
"null","","html-keyboard-response","104","269207","0.0-104.0","3QIYRE09Y43E6CU0V4AGE94YDNS1NT","A2K0L9M1ZZO5C9","39KMGHJ4RZW9S7JH7DZG09TNV4R00C","","","<img src=""img/flower6.png"" style=""width:200px;border:14px solid red;"">","null","","","","","",""
"1079.6999999955297","","image-keyboard-response","105","270288","0.0-105.0","3QIYRE09Y43E6CU0V4AGE94YDNS1NT","A2K0L9M1ZZO5C9","39KMGHJ4RZW9S7JH7DZG09TNV4R00C","","","img/flower6.png","76","1081.2000000029802","3","0","3","",""
"null","","html-keyboard-response","106","270603","0.0-106.0","3QIYRE09Y43E6CU0V4AGE94YDNS1NT","A2K0L9M1ZZO5C9","39KMGHJ4RZW9S7JH7DZG09TNV4R00C","","","<img src=""img/flower6.png"" style=""width:200px;border:14px solid red;"">","null","","","","","",""
"832.2000000029802","","image-keyboard-response","107","271437","0.0-107.0","3QIYRE09Y43E6CU0V4AGE94YDNS1NT","A2K0L9M1ZZO5C9","39KMGHJ4RZW9S7JH7DZG09TNV4R00C","","","img/flower4.png","74","833.8000000044703","1","0","1","",""
"null","","html-keyboard-response","108","271744","0.0-108.0","3QIYRE09Y43E6CU0V4AGE94YDNS1NT","A2K0L9M1ZZO5C9","39KMGHJ4RZW9S7JH7DZG09TNV4R00C","","","<img src=""img/flower4.png"" style=""width:200px;border:14px solid red;"">","null","","","","","",""
"992.8999999985099","","image-keyboard-response","109","272749","0.0-109.0","3QIYRE09Y43E6CU0V4AGE94YDNS1NT","A2K0L9M1ZZO5C9","39KMGHJ4RZW9S7JH7DZG09TNV4R00C","","","img/flower5.png","75","994.2000000029802","2","1","2","",""
"null","","html-keyboard-response","110","273056","0.0-110.0","3QIYRE09Y43E6CU0V4AGE94YDNS1NT","A2K0L9M1ZZO5C9","39KMGHJ4RZW9S7JH7DZG09TNV4R00C","","","<img src=""img/flower5.png"" style=""width:200px; border:14px solid green;"">","null","","","","","",""
"1290.3999999985099","","image-keyboard-response","111","274348","0.0-111.0","3QIYRE09Y43E6CU0V4AGE94YDNS1NT","A2K0L9M1ZZO5C9","39KMGHJ4RZW9S7JH7DZG09TNV4R00C","","","img/flower5.png","75","1291.8999999985099","2","1","2","",""
"null","","html-keyboard-response","112","274665","0.0-112.0","3QIYRE09Y43E6CU0V4AGE94YDNS1NT","A2K0L9M1ZZO5C9","39KMGHJ4RZW9S7JH7DZG09TNV4R00C","","","<img src=""img/flower5.png"" style=""width:200px; border:14px solid green;"">","null","","","","","",""
"1833.7999999970198","","image-keyboard-response","113","276501","0.0-113.0","3QIYRE09Y43E6CU0V4AGE94YDNS1NT","A2K0L9M1ZZO5C9","39KMGHJ4RZW9S7JH7DZG09TNV4R00C","","","img/flower5.png","75","1835.8999999985099","2","1","2","",""
"null","","html-keyboard-response","114","276815","0.0-114.0","3QIYRE09Y43E6CU0V4AGE94YDNS1NT","A2K0L9M1ZZO5C9","39KMGHJ4RZW9S7JH7DZG09TNV4R00C","","","<img src=""img/flower5.png"" style=""width:200px; border:14px solid green;"">","null","","","","","",""
"604.8999999985099","","image-keyboard-response","115","277422","0.0-115.0","3QIYRE09Y43E6CU0V4AGE94YDNS1NT","A2K0L9M1ZZO5C9","39KMGHJ4RZW9S7JH7DZG09TNV4R00C","","","img/flower6.png","76","606.6999999955297","3","0","3","",""
"null","","html-keyboard-response","116","277732","0.0-116.0","3QIYRE09Y43E6CU0V4AGE94YDNS1NT","A2K0L9M1ZZO5C9","39KMGHJ4RZW9S7JH7DZG09TNV4R00C","","","<img src=""img/flower6.png"" style=""width:200px;border:14px solid red;"">","null","","","","","",""
"600.7000000029802","","image-keyboard-response","117","278335","0.0-117.0","3QIYRE09Y43E6CU0V4AGE94YDNS1NT","A2K0L9M1ZZO5C9","39KMGHJ4RZW9S7JH7DZG09TNV4R00C","","","img/flower4.png","74","602.6000000014901","1","1","1","",""
"null","","html-keyboard-response","118","278641","0.0-118.0","3QIYRE09Y43E6CU0V4AGE94YDNS1NT","A2K0L9M1ZZO5C9","39KMGHJ4RZW9S7JH7DZG09TNV4R00C","","","<img src=""img/flower4.png"" style=""width:200px; border:14px solid green;"">","null","","","","","",""
"733.8999999985099","","image-keyboard-response","119","279378","0.0-119.0","3QIYRE09Y43E6CU0V4AGE94YDNS1NT","A2K0L9M1ZZO5C9","39KMGHJ4RZW9S7JH7DZG09TNV4R00C","","","img/flower5.png","75","736","2","1","2","",""
"null","","html-keyboard-response","120","279684","0.0-120.0","3QIYRE09Y43E6CU0V4AGE94YDNS1NT","A2K0L9M1ZZO5C9","39KMGHJ4RZW9S7JH7DZG09TNV4R00C","","","<img src=""img/flower5.png"" style=""width:200px; border:14px solid green;"">","null","","","","","",""
"695.6999999955297","","image-keyboard-response","121","280382","0.0-121.0","3QIYRE09Y43E6CU0V4AGE94YDNS1NT","A2K0L9M1ZZO5C9","39KMGHJ4RZW9S7JH7DZG09TNV4R00C","","","img/flower6.png","76","698","3","1","3","",""
"null","","html-keyboard-response","122","280698","0.0-122.0","3QIYRE09Y43E6CU0V4AGE94YDNS1NT","A2K0L9M1ZZO5C9","39KMGHJ4RZW9S7JH7DZG09TNV4R00C","","","<img src=""img/flower6.png"" style=""width:200px; border:14px solid green;"">","null","","","","","",""
"861.1000000014901","","image-keyboard-response","123","281561","0.0-123.0","3QIYRE09Y43E6CU0V4AGE94YDNS1NT","A2K0L9M1ZZO5C9","39KMGHJ4RZW9S7JH7DZG09TNV4R00C","","","img/flower5.png","75","862.6000000014901","2","1","2","",""
"null","","html-keyboard-response","124","281865","0.0-124.0","3QIYRE09Y43E6CU0V4AGE94YDNS1NT","A2K0L9M1ZZO5C9","39KMGHJ4RZW9S7JH7DZG09TNV4R00C","","","<img src=""img/flower5.png"" style=""width:200px; border:14px solid green;"">","null","","","","","",""
"5327.9000000059605","","instructions","125","287194","0.0-125.0","3QIYRE09Y43E6CU0V4AGE94YDNS1NT","A2K0L9M1ZZO5C9","39KMGHJ4RZW9S7JH7DZG09TNV4R00C","","[{""page_index"":0,""viewing_time"":5327.60000000149}]","","","","","","","",""
"632.7000000029802","","image-keyboard-response","126","287828","0.0-126.0","3QIYRE09Y43E6CU0V4AGE94YDNS1NT","A2K0L9M1ZZO5C9","39KMGHJ4RZW9S7JH7DZG09TNV4R00C","","","img/flower5.png","75","634.1999999955297","2","1","1","0.7,0.2,0,0,0.7,0.2,0.2,0,0.7",""
"null","","html-keyboard-response","127","288133","0.0-127.0","3QIYRE09Y43E6CU0V4AGE94YDNS1NT","A2K0L9M1ZZO5C9","39KMGHJ4RZW9S7JH7DZG09TNV4R00C","","","<img src=""img/flower5.png"" style=""width:200px; border:14px solid green;"">","null","","","","","",""
"1558.3999999985099","","image-keyboard-response","128","289692","0.0-128.0","3QIYRE09Y43E6CU0V4AGE94YDNS1NT","A2K0L9M1ZZO5C9","39KMGHJ4RZW9S7JH7DZG09TNV4R00C","","","img/flower1.png","74","1559","1","0","3","0.7,0.2,0,0,0.7,0.2,0.2,0,0.7",""
"null","","html-keyboard-response","129","290007","0.0-129.0","3QIYRE09Y43E6CU0V4AGE94YDNS1NT","A2K0L9M1ZZO5C9","39KMGHJ4RZW9S7JH7DZG09TNV4R00C","","","<img src=""img/flower1.png"" style=""width:200px;border:14px solid red;"">","null","","","","","",""
"840.1000000014901","","image-keyboard-response","130","290849","0.0-130.0","3QIYRE09Y43E6CU0V4AGE94YDNS1NT","A2K0L9M1ZZO5C9","39KMGHJ4RZW9S7JH7DZG09TNV4R00C","","","img/flower1.png","75","841.3999999985099","2","0","3","0.7,0.2,0,0,0.7,0.2,0.2,0,0.7",""
"null","","html-keyboard-response","131","291152","0.0-131.0","3QIYRE09Y43E6CU0V4AGE94YDNS1NT","A2K0L9M1ZZO5C9","39KMGHJ4RZW9S7JH7DZG09TNV4R00C","","","<img src=""img/flower1.png"" style=""width:200px;border:14px solid red;"">","null","","","","","",""
"846.8999999985099","","image-keyboard-response","132","292001","0.0-132.0","3QIYRE09Y43E6CU0V4AGE94YDNS1NT","A2K0L9M1ZZO5C9","39KMGHJ4RZW9S7JH7DZG09TNV4R00C","","","img/flower3.png","74","848.4000000059605","1","0","2","0.7,0.2,0,0,0.7,0.2,0.2,0,0.7",""
"null","","html-keyboard-response","133","292310","0.0-133.0","3QIYRE09Y43E6CU0V4AGE94YDNS1NT","A2K0L9M1ZZO5C9","39KMGHJ4RZW9S7JH7DZG09TNV4R00C","","","<img src=""img/flower3.png"" style=""width:200px;border:14px solid red;"">","null","","","","","",""
"635.5","","image-keyboard-response","134","292948","0.0-134.0","3QIYRE09Y43E6CU0V4AGE94YDNS1NT","A2K0L9M1ZZO5C9","39KMGHJ4RZW9S7JH7DZG09TNV4R00C","","","img/flower3.png","74","637.4000000059605","1","0","2","0.7,0.2,0,0,0.7,0.2,0.2,0,0.7",""
"null","","html-keyboard-response","135","293252","0.0-135.0","3QIYRE09Y43E6CU0V4AGE94YDNS1NT","A2K0L9M1ZZO5C9","39KMGHJ4RZW9S7JH7DZG09TNV4R00C","","","<img src=""img/flower3.png"" style=""width:200px;border:14px solid red;"">","null","","","","","",""
"979.2000000029802","","image-keyboard-response","136","294233","0.0-136.0","3QIYRE09Y43E6CU0V4AGE94YDNS1NT","A2K0L9M1ZZO5C9","39KMGHJ4RZW9S7JH7DZG09TNV4R00C","","","img/flower5.png","75","980.8000000044703","2","1","1","0.7,0.2,0,0,0.7,0.2,0.2,0,0.7",""
"null","","html-keyboard-response","137","294548","0.0-137.0","3QIYRE09Y43E6CU0V4AGE94YDNS1NT","A2K0L9M1ZZO5C9","39KMGHJ4RZW9S7JH7DZG09TNV4R00C","","","<img src=""img/flower5.png"" style=""width:200px; border:14px solid green;"">","null","","","","","",""
"591.7999999970198","","image-keyboard-response","138","295142","0.0-138.0","3QIYRE09Y43E6CU0V4AGE94YDNS1NT","A2K0L9M1ZZO5C9","39KMGHJ4RZW9S7JH7DZG09TNV4R00C","","","img/flower5.png","75","593.7000000029802","2","0","1","0.7,0.2,0,0,0.7,0.2,0.2,0,0.7",""
"null","","html-keyboard-response","139","295455","0.0-139.0","3QIYRE09Y43E6CU0V4AGE94YDNS1NT","A2K0L9M1ZZO5C9","39KMGHJ4RZW9S7JH7DZG09TNV4R00C","","","<img src=""img/flower5.png"" style=""width:200px;border:14px solid red;"">","null","","","","","",""
"1401.8999999985099","","image-keyboard-response","140","296859","0.0-140.0","3QIYRE09Y43E6CU0V4AGE94YDNS1NT","A2K0L9M1ZZO5C9","39KMGHJ4RZW9S7JH7DZG09TNV4R00C","","","img/flower1.png","75","1403.5999999940395","2","0","3","0.7,0.2,0,0,0.7,0.2,0.2,0,0.7",""
"null","","html-keyboard-response","141","297167","0.0-141.0","3QIYRE09Y43E6CU0V4AGE94YDNS1NT","A2K0L9M1ZZO5C9","39KMGHJ4RZW9S7JH7DZG09TNV4R00C","","","<img src=""img/flower1.png"" style=""width:200px;border:14px solid red;"">","null","","","","","",""
"432","","image-keyboard-response","142","297601","0.0-142.0","3QIYRE09Y43E6CU0V4AGE94YDNS1NT","A2K0L9M1ZZO5C9","39KMGHJ4RZW9S7JH7DZG09TNV4R00C","","","img/flower1.png","75","434.3999999985099","2","0","3","0.7,0.2,0,0,0.7,0.2,0.2,0,0.7",""
"null","","html-keyboard-response","143","297916","0.0-143.0","3QIYRE09Y43E6CU0V4AGE94YDNS1NT","A2K0L9M1ZZO5C9","39KMGHJ4RZW9S7JH7DZG09TNV4R00C","","","<img src=""img/flower1.png"" style=""width:200px;border:14px solid red;"">","null","","","","","",""
"1954.5","","image-keyboard-response","144","299871","0.0-144.0","3QIYRE09Y43E6CU0V4AGE94YDNS1NT","A2K0L9M1ZZO5C9","39KMGHJ4RZW9S7JH7DZG09TNV4R00C","","","img/flower5.png","75","1955.5","2","0","1","0.7,0.2,0,0,0.7,0.2,0.2,0,0.7",""
"null","","html-keyboard-response","145","300184","0.0-145.0","3QIYRE09Y43E6CU0V4AGE94YDNS1NT","A2K0L9M1ZZO5C9","39KMGHJ4RZW9S7JH7DZG09TNV4R00C","","","<img src=""img/flower5.png"" style=""width:200px;border:14px solid red;"">","null","","","","","",""
"431.79999999701977","","image-keyboard-response","146","300617","0.0-146.0","3QIYRE09Y43E6CU0V4AGE94YDNS1NT","A2K0L9M1ZZO5C9","39KMGHJ4RZW9S7JH7DZG09TNV4R00C","","","img/flower5.png","75","432.8999999985099","2","0","1","0.7,0.2,0,0,0.7,0.2,0.2,0,0.7",""
"null","","html-keyboard-response","147","300933","0.0-147.0","3QIYRE09Y43E6CU0V4AGE94YDNS1NT","A2K0L9M1ZZO5C9","39KMGHJ4RZW9S7JH7DZG09TNV4R00C","","","<img src=""img/flower5.png"" style=""width:200px;border:14px solid red;"">","null","","","","","",""
"2755.89999999851","","image-keyboard-response","148","303691","0.0-148.0","3QIYRE09Y43E6CU0V4AGE94YDNS1NT","A2K0L9M1ZZO5C9","39KMGHJ4RZW9S7JH7DZG09TNV4R00C","","","img/flower3.png","76","2757.0999999940395","3","0","2","0.7,0.2,0,0,0.7,0.2,0.2,0,0.7",""
"null","","html-keyboard-response","149","303993","0.0-149.0","3QIYRE09Y43E6CU0V4AGE94YDNS1NT","A2K0L9M1ZZO5C9","39KMGHJ4RZW9S7JH7DZG09TNV4R00C","","","<img src=""img/flower3.png"" style=""width:200px;border:14px solid red;"">","null","","","","","",""
"4338.79999999702","","image-keyboard-response","150","308335","0.0-150.0","3QIYRE09Y43E6CU0V4AGE94YDNS1NT","A2K0L9M1ZZO5C9","39KMGHJ4RZW9S7JH7DZG09TNV4R00C","","","img/flower1.png","75","4340.79999999702","2","0","3","0.7,0.2,0,0,0.7,0.2,0.2,0,0.7",""
"null","","html-keyboard-response","151","308650","0.0-151.0","3QIYRE09Y43E6CU0V4AGE94YDNS1NT","A2K0L9M1ZZO5C9","39KMGHJ4RZW9S7JH7DZG09TNV4R00C","","","<img src=""img/flower1.png"" style=""width:200px;border:14px solid red;"">","null","","","","","",""
"4927.79999999702","","image-keyboard-response","152","313579","0.0-152.0","3QIYRE09Y43E6CU0V4AGE94YDNS1NT","A2K0L9M1ZZO5C9","39KMGHJ4RZW9S7JH7DZG09TNV4R00C","","","img/flower3.png","76","4929.0999999940395","3","0","2","0.7,0.2,0,0,0.7,0.2,0.2,0,0.7",""
"null","","html-keyboard-response","153","313883","0.0-153.0","3QIYRE09Y43E6CU0V4AGE94YDNS1NT","A2K0L9M1ZZO5C9","39KMGHJ4RZW9S7JH7DZG09TNV4R00C","","","<img src=""img/flower3.png"" style=""width:200px;border:14px solid red;"">","null","","","","","",""
"2013.2999999970198","","image-keyboard-response","154","315897","0.0-154.0","3QIYRE09Y43E6CU0V4AGE94YDNS1NT","A2K0L9M1ZZO5C9","39KMGHJ4RZW9S7JH7DZG09TNV4R00C","","","img/flower3.png","76","2013.8999999985099","3","0","2","0.7,0.2,0,0,0.7,0.2,0.2,0,0.7",""
"null","","html-keyboard-response","155","316203","0.0-155.0","3QIYRE09Y43E6CU0V4AGE94YDNS1NT","A2K0L9M1ZZO5C9","39KMGHJ4RZW9S7JH7DZG09TNV4R00C","","","<img src=""img/flower3.png"" style=""width:200px;border:14px solid red;"">","null","","","","","",""
"3324.2999999970198","","image-keyboard-response","156","319529","0.0-156.0","3QIYRE09Y43E6CU0V4AGE94YDNS1NT","A2K0L9M1ZZO5C9","39KMGHJ4RZW9S7JH7DZG09TNV4R00C","","","img/flower1.png","74","3325.9000000059605","1","0","3","0.7,0.2,0,0,0.7,0.2,0.2,0,0.7",""
"null","","html-keyboard-response","157","319846","0.0-157.0","3QIYRE09Y43E6CU0V4AGE94YDNS1NT","A2K0L9M1ZZO5C9","39KMGHJ4RZW9S7JH7DZG09TNV4R00C","","","<img src=""img/flower1.png"" style=""width:200px;border:14px solid red;"">","null","","","","","",""
"855","","image-keyboard-response","158","320704","0.0-158.0","3QIYRE09Y43E6CU0V4AGE94YDNS1NT","A2K0L9M1ZZO5C9","39KMGHJ4RZW9S7JH7DZG09TNV4R00C","","","img/flower5.png","75","857.1000000014901","2","0","1","0.7,0.2,0,0,0.7,0.2,0.2,0,0.7",""
"null","","html-keyboard-response","159","321006","0.0-159.0","3QIYRE09Y43E6CU0V4AGE94YDNS1NT","A2K0L9M1ZZO5C9","39KMGHJ4RZW9S7JH7DZG09TNV4R00C","","","<img src=""img/flower5.png"" style=""width:200px;border:14px solid red;"">","null","","","","","",""
"1281.1999999955297","","image-keyboard-response","160","322288","0.0-160.0","3QIYRE09Y43E6CU0V4AGE94YDNS1NT","A2K0L9M1ZZO5C9","39KMGHJ4RZW9S7JH7DZG09TNV4R00C","","","img/flower3.png","74","1282.2999999970198","1","0","2","0.7,0.2,0,0,0.7,0.2,0.2,0,0.7",""
"null","","html-keyboard-response","161","322605","0.0-161.0","3QIYRE09Y43E6CU0V4AGE94YDNS1NT","A2K0L9M1ZZO5C9","39KMGHJ4RZW9S7JH7DZG09TNV4R00C","","","<img src=""img/flower3.png"" style=""width:200px;border:14px solid red;"">","null","","","","","",""
"1586.7999999970198","","image-keyboard-response","162","324194","0.0-162.0","3QIYRE09Y43E6CU0V4AGE94YDNS1NT","A2K0L9M1ZZO5C9","39KMGHJ4RZW9S7JH7DZG09TNV4R00C","","","img/flower3.png","74","1588.6000000014901","1","0","2","0.7,0.2,0,0,0.7,0.2,0.2,0,0.7",""
"null","","html-keyboard-response","163","324502","0.0-163.0","3QIYRE09Y43E6CU0V4AGE94YDNS1NT","A2K0L9M1ZZO5C9","39KMGHJ4RZW9S7JH7DZG09TNV4R00C","","","<img src=""img/flower3.png"" style=""width:200px;border:14px solid red;"">","null","","","","","",""
"775.2999999970198","","image-keyboard-response","164","325279","0.0-164.0","3QIYRE09Y43E6CU0V4AGE94YDNS1NT","A2K0L9M1ZZO5C9","39KMGHJ4RZW9S7JH7DZG09TNV4R00C","","","img/flower1.png","75","777","2","0","3","0.7,0.2,0,0,0.7,0.2,0.2,0,0.7",""
"null","","html-keyboard-response","165","325583","0.0-165.0","3QIYRE09Y43E6CU0V4AGE94YDNS1NT","A2K0L9M1ZZO5C9","39KMGHJ4RZW9S7JH7DZG09TNV4R00C","","","<img src=""img/flower1.png"" style=""width:200px;border:14px solid red;"">","null","","","","","",""
"783.8999999985099","","image-keyboard-response","166","326369","0.0-166.0","3QIYRE09Y43E6CU0V4AGE94YDNS1NT","A2K0L9M1ZZO5C9","39KMGHJ4RZW9S7JH7DZG09TNV4R00C","","","img/flower3.png","74","785.8999999985099","1","0","2","0.7,0.2,0,0,0.7,0.2,0.2,0,0.7",""
"null","","html-keyboard-response","167","326675","0.0-167.0","3QIYRE09Y43E6CU0V4AGE94YDNS1NT","A2K0L9M1ZZO5C9","39KMGHJ4RZW9S7JH7DZG09TNV4R00C","","","<img src=""img/flower3.png"" style=""width:200px;border:14px solid red;"">","null","","","","","",""
"791.3999999985099","","image-keyboard-response","168","327468","0.0-168.0","3QIYRE09Y43E6CU0V4AGE94YDNS1NT","A2K0L9M1ZZO5C9","39KMGHJ4RZW9S7JH7DZG09TNV4R00C","","","img/flower3.png","76","792.7999999970198","3","0","2","0.7,0.2,0,0,0.7,0.2,0.2,0,0.7",""
"null","","html-keyboard-response","169","327773","0.0-169.0","3QIYRE09Y43E6CU0V4AGE94YDNS1NT","A2K0L9M1ZZO5C9","39KMGHJ4RZW9S7JH7DZG09TNV4R00C","","","<img src=""img/flower3.png"" style=""width:200px;border:14px solid red;"">","null","","","","","",""
"2481.89999999851","","image-keyboard-response","170","330256","0.0-170.0","3QIYRE09Y43E6CU0V4AGE94YDNS1NT","A2K0L9M1ZZO5C9","39KMGHJ4RZW9S7JH7DZG09TNV4R00C","","","img/flower1.png","75","2482.6999999955297","2","0","3","0.7,0.2,0,0,0.7,0.2,0.2,0,0.7",""
"null","","html-keyboard-response","171","330562","0.0-171.0","3QIYRE09Y43E6CU0V4AGE94YDNS1NT","A2K0L9M1ZZO5C9","39KMGHJ4RZW9S7JH7DZG09TNV4R00C","","","<img src=""img/flower1.png"" style=""width:200px;border:14px solid red;"">","null","","","","","",""
"904.7999999970198","","image-keyboard-response","172","331470","0.0-172.0","3QIYRE09Y43E6CU0V4AGE94YDNS1NT","A2K0L9M1ZZO5C9","39KMGHJ4RZW9S7JH7DZG09TNV4R00C","","","img/flower5.png","75","906.6000000014901","2","0","1","0.7,0.2,0,0,0.7,0.2,0.2,0,0.7",""
"null","","html-keyboard-response","173","331785","0.0-173.0","3QIYRE09Y43E6CU0V4AGE94YDNS1NT","A2K0L9M1ZZO5C9","39KMGHJ4RZW9S7JH7DZG09TNV4R00C","","","<img src=""img/flower5.png"" style=""width:200px;border:14px solid red;"">","null","","","","","",""
"70.39999999850988","","image-keyboard-response","174","331856","0.0-174.0","3QIYRE09Y43E6CU0V4AGE94YDNS1NT","A2K0L9M1ZZO5C9","39KMGHJ4RZW9S7JH7DZG09TNV4R00C","","","img/flower5.png","75","71.39999999850988","2","1","1","0.7,0.2,0,0,0.7,0.2,0.2,0,0.7",""
"null","","html-keyboard-response","175","332169","0.0-175.0","3QIYRE09Y43E6CU0V4AGE94YDNS1NT","A2K0L9M1ZZO5C9","39KMGHJ4RZW9S7JH7DZG09TNV4R00C","","","<img src=""img/flower5.png"" style=""width:200px; border:14px solid green;"">","null","","","","","",""
"1694.3999999985099","","image-keyboard-response","176","333862","0.0-176.0","3QIYRE09Y43E6CU0V4AGE94YDNS1NT","A2K0L9M1ZZO5C9","39KMGHJ4RZW9S7JH7DZG09TNV4R00C","","","img/flower5.png","75","1695.8000000044703","2","0","1","0.7,0.2,0,0,0.7,0.2,0.2,0,0.7",""
"null","","html-keyboard-response","177","334172","0.0-177.0","3QIYRE09Y43E6CU0V4AGE94YDNS1NT","A2K0L9M1ZZO5C9","39KMGHJ4RZW9S7JH7DZG09TNV4R00C","","","<img src=""img/flower5.png"" style=""width:200px;border:14px solid red;"">","null","","","","","",""
"802.3999999985099","","image-keyboard-response","178","334976","0.0-178.0","3QIYRE09Y43E6CU0V4AGE94YDNS1NT","A2K0L9M1ZZO5C9","39KMGHJ4RZW9S7JH7DZG09TNV4R00C","","","img/flower5.png","75","803.7999999970198","2","0","1","0.7,0.2,0,0,0.7,0.2,0.2,0,0.7",""
"null","","html-keyboard-response","179","335293","0.0-179.0","3QIYRE09Y43E6CU0V4AGE94YDNS1NT","A2K0L9M1ZZO5C9","39KMGHJ4RZW9S7JH7DZG09TNV4R00C","","","<img src=""img/flower5.png"" style=""width:200px;border:14px solid red;"">","null","","","","","",""
"620.3999999985099","","image-keyboard-response","180","335915","0.0-180.0","3QIYRE09Y43E6CU0V4AGE94YDNS1NT","A2K0L9M1ZZO5C9","39KMGHJ4RZW9S7JH7DZG09TNV4R00C","","","img/flower5.png","75","621.2999999970198","2","0","1","0.7,0.2,0,0,0.7,0.2,0.2,0,0.7",""
"null","","html-keyboard-response","181","336217","0.0-181.0","3QIYRE09Y43E6CU0V4AGE94YDNS1NT","A2K0L9M1ZZO5C9","39KMGHJ4RZW9S7JH7DZG09TNV4R00C","","","<img src=""img/flower5.png"" style=""width:200px;border:14px solid red;"">","null","","","","","",""
"998","","image-keyboard-response","182","337217","0.0-182.0","3QIYRE09Y43E6CU0V4AGE94YDNS1NT","A2K0L9M1ZZO5C9","39KMGHJ4RZW9S7JH7DZG09TNV4R00C","","","img/flower5.png","75","999.6999999955297","2","0","1","0.7,0.2,0,0,0.7,0.2,0.2,0,0.7",""
"null","","html-keyboard-response","183","337530","0.0-183.0","3QIYRE09Y43E6CU0V4AGE94YDNS1NT","A2K0L9M1ZZO5C9","39KMGHJ4RZW9S7JH7DZG09TNV4R00C","","","<img src=""img/flower5.png"" style=""width:200px;border:14px solid red;"">","null","","","","","",""
"340.6000000014901","","image-keyboard-response","184","337873","0.0-184.0","3QIYRE09Y43E6CU0V4AGE94YDNS1NT","A2K0L9M1ZZO5C9","39KMGHJ4RZW9S7JH7DZG09TNV4R00C","","","img/flower5.png","75","342","2","0","1","0.7,0.2,0,0,0.7,0.2,0.2,0,0.7",""
"null","","html-keyboard-response","185","338183","0.0-185.0","3QIYRE09Y43E6CU0V4AGE94YDNS1NT","A2K0L9M1ZZO5C9","39KMGHJ4RZW9S7JH7DZG09TNV4R00C","","","<img src=""img/flower5.png"" style=""width:200px;border:14px solid red;"">","null","","","","","",""
"332.8999999985099","","image-keyboard-response","186","338518","0.0-186.0","3QIYRE09Y43E6CU0V4AGE94YDNS1NT","A2K0L9M1ZZO5C9","39KMGHJ4RZW9S7JH7DZG09TNV4R00C","","","img/flower5.png","75","334.29999999701977","2","1","1","0.7,0.2,0,0,0.7,0.2,0.2,0,0.7",""
"null","","html-keyboard-response","187","338823","0.0-187.0","3QIYRE09Y43E6CU0V4AGE94YDNS1NT","A2K0L9M1ZZO5C9","39KMGHJ4RZW9S7JH7DZG09TNV4R00C","","","<img src=""img/flower5.png"" style=""width:200px; border:14px solid green;"">","null","","","","","",""
"1057.6999999955297","","image-keyboard-response","188","339882","0.0-188.0","3QIYRE09Y43E6CU0V4AGE94YDNS1NT","A2K0L9M1ZZO5C9","39KMGHJ4RZW9S7JH7DZG09TNV4R00C","","","img/flower1.png","74","1058.6000000014901","1","0","3","0.7,0.2,0,0,0.7,0.2,0.2,0,0.7",""
"null","","html-keyboard-response","189","340197","0.0-189.0","3QIYRE09Y43E6CU0V4AGE94YDNS1NT","A2K0L9M1ZZO5C9","39KMGHJ4RZW9S7JH7DZG09TNV4R00C","","","<img src=""img/flower1.png"" style=""width:200px;border:14px solid red;"">","null","","","","","",""
"399.1000000014901","","image-keyboard-response","190","340599","0.0-190.0","3QIYRE09Y43E6CU0V4AGE94YDNS1NT","A2K0L9M1ZZO5C9","39KMGHJ4RZW9S7JH7DZG09TNV4R00C","","","img/flower1.png","74","401.29999999701977","1","0","3","0.7,0.2,0,0,0.7,0.2,0.2,0,0.7",""
"null","","html-keyboard-response","191","340916","0.0-191.0","3QIYRE09Y43E6CU0V4AGE94YDNS1NT","A2K0L9M1ZZO5C9","39KMGHJ4RZW9S7JH7DZG09TNV4R00C","","","<img src=""img/flower1.png"" style=""width:200px;border:14px solid red;"">","null","","","","","",""
"667.5","","image-keyboard-response","192","341585","0.0-192.0","3QIYRE09Y43E6CU0V4AGE94YDNS1NT","A2K0L9M1ZZO5C9","39KMGHJ4RZW9S7JH7DZG09TNV4R00C","","","img/flower3.png","74","669.1000000014901","1","0","2","0.7,0.2,0,0,0.7,0.2,0.2,0,0.7",""
"null","","html-keyboard-response","193","341898","0.0-193.0","3QIYRE09Y43E6CU0V4AGE94YDNS1NT","A2K0L9M1ZZO5C9","39KMGHJ4RZW9S7JH7DZG09TNV4R00C","","","<img src=""img/flower3.png"" style=""width:200px;border:14px solid red;"">","null","","","","","",""
"250.60000000149012","","image-keyboard-response","194","342149","0.0-194.0","3QIYRE09Y43E6CU0V4AGE94YDNS1NT","A2K0L9M1ZZO5C9","39KMGHJ4RZW9S7JH7DZG09TNV4R00C","","","img/flower1.png","74","251.5","1","1","3","0.7,0.2,0,0,0.7,0.2,0.2,0,0.7",""
"null","","html-keyboard-response","195","342467","0.0-195.0","3QIYRE09Y43E6CU0V4AGE94YDNS1NT","A2K0L9M1ZZO5C9","39KMGHJ4RZW9S7JH7DZG09TNV4R00C","","","<img src=""img/flower1.png"" style=""width:200px; border:14px solid green;"">","null","","","","","",""
"1397.7999999970198","","image-keyboard-response","196","343866","0.0-196.0","3QIYRE09Y43E6CU0V4AGE94YDNS1NT","A2K0L9M1ZZO5C9","39KMGHJ4RZW9S7JH7DZG09TNV4R00C","","","img/flower5.png","75","1399.1000000014901","2","0","1","0.7,0.2,0,0,0.7,0.2,0.2,0,0.7",""
"null","","html-keyboard-response","197","344183","0.0-197.0","3QIYRE09Y43E6CU0V4AGE94YDNS1NT","A2K0L9M1ZZO5C9","39KMGHJ4RZW9S7JH7DZG09TNV4R00C","","","<img src=""img/flower5.png"" style=""width:200px;border:14px solid red;"">","null","","","","","",""
"1392.3999999985099","","image-keyboard-response","198","345578","0.0-198.0","3QIYRE09Y43E6CU0V4AGE94YDNS1NT","A2K0L9M1ZZO5C9","39KMGHJ4RZW9S7JH7DZG09TNV4R00C","","","img/flower1.png","74","1394.5","1","0","3","0.7,0.2,0,0,0.7,0.2,0.2,0,0.7",""
"null","","html-keyboard-response","199","345882","0.0-199.0","3QIYRE09Y43E6CU0V4AGE94YDNS1NT","A2K0L9M1ZZO5C9","39KMGHJ4RZW9S7JH7DZG09TNV4R00C","","","<img src=""img/flower1.png"" style=""width:200px;border:14px solid red;"">","null","","","","","",""
"959.1000000014901","","image-keyboard-response","200","346844","0.0-200.0","3QIYRE09Y43E6CU0V4AGE94YDNS1NT","A2K0L9M1ZZO5C9","39KMGHJ4RZW9S7JH7DZG09TNV4R00C","","","img/flower5.png","75","960.8999999985099","2","1","1","0.7,0.2,0,0,0.7,0.2,0.2,0,0.7",""
"null","","html-keyboard-response","201","347153","0.0-201.0","3QIYRE09Y43E6CU0V4AGE94YDNS1NT","A2K0L9M1ZZO5C9","39KMGHJ4RZW9S7JH7DZG09TNV4R00C","","","<img src=""img/flower5.png"" style=""width:200px; border:14px solid green;"">","null","","","","","",""
"618.8000000044703","","image-keyboard-response","202","347773","0.0-202.0","3QIYRE09Y43E6CU0V4AGE94YDNS1NT","A2K0L9M1ZZO5C9","39KMGHJ4RZW9S7JH7DZG09TNV4R00C","","","img/flower3.png","74","620.6000000014901","1","0","2","0.7,0.2,0,0,0.7,0.2,0.2,0,0.7",""
"null","","html-keyboard-response","203","348088","0.0-203.0","3QIYRE09Y43E6CU0V4AGE94YDNS1NT","A2K0L9M1ZZO5C9","39KMGHJ4RZW9S7JH7DZG09TNV4R00C","","","<img src=""img/flower3.png"" style=""width:200px;border:14px solid red;"">","null","","","","","",""
"374.29999999701977","","image-keyboard-response","204","348465","0.0-204.0","3QIYRE09Y43E6CU0V4AGE94YDNS1NT","A2K0L9M1ZZO5C9","39KMGHJ4RZW9S7JH7DZG09TNV4R00C","","","img/flower1.png","75","376.09999999403954","2","0","3","0.7,0.2,0,0,0.7,0.2,0.2,0,0.7",""
"null","","html-keyboard-response","205","348781","0.0-205.0","3QIYRE09Y43E6CU0V4AGE94YDNS1NT","A2K0L9M1ZZO5C9","39KMGHJ4RZW9S7JH7DZG09TNV4R00C","","","<img src=""img/flower1.png"" style=""width:200px;border:14px solid red;"">","null","","","","","",""
"139","","image-keyboard-response","206","348921","0.0-206.0","3QIYRE09Y43E6CU0V4AGE94YDNS1NT","A2K0L9M1ZZO5C9","39KMGHJ4RZW9S7JH7DZG09TNV4R00C","","","img/flower1.png","74","139.30000000447035","1","0","3","0.7,0.2,0,0,0.7,0.2,0.2,0,0.7",""
"null","","html-keyboard-response","207","349222","0.0-207.0","3QIYRE09Y43E6CU0V4AGE94YDNS1NT","A2K0L9M1ZZO5C9","39KMGHJ4RZW9S7JH7DZG09TNV4R00C","","","<img src=""img/flower1.png"" style=""width:200px;border:14px solid red;"">","null","","","","","",""
"707.3999999985099","","image-keyboard-response","208","349930","0.0-208.0","3QIYRE09Y43E6CU0V4AGE94YDNS1NT","A2K0L9M1ZZO5C9","39KMGHJ4RZW9S7JH7DZG09TNV4R00C","","","img/flower5.png","75","708","2","0","1","0.7,0.2,0,0,0.7,0.2,0.2,0,0.7",""
"null","","html-keyboard-response","209","350237","0.0-209.0","3QIYRE09Y43E6CU0V4AGE94YDNS1NT","A2K0L9M1ZZO5C9","39KMGHJ4RZW9S7JH7DZG09TNV4R00C","","","<img src=""img/flower5.png"" style=""width:200px;border:14px solid red;"">","null","","","","","",""
"696","","image-keyboard-response","210","350935","0.0-210.0","3QIYRE09Y43E6CU0V4AGE94YDNS1NT","A2K0L9M1ZZO5C9","39KMGHJ4RZW9S7JH7DZG09TNV4R00C","","","img/flower5.png","75","697.6000000014901","2","0","1","0.7,0.2,0,0,0.7,0.2,0.2,0,0.7",""
"null","","html-keyboard-response","211","351236","0.0-211.0","3QIYRE09Y43E6CU0V4AGE94YDNS1NT","A2K0L9M1ZZO5C9","39KMGHJ4RZW9S7JH7DZG09TNV4R00C","","","<img src=""img/flower5.png"" style=""width:200px;border:14px solid red;"">","null","","","","","",""
"1106","","image-keyboard-response","212","352344","0.0-212.0","3QIYRE09Y43E6CU0V4AGE94YDNS1NT","A2K0L9M1ZZO5C9","39KMGHJ4RZW9S7JH7DZG09TNV4R00C","","","img/flower3.png","76","1107.2999999970198","3","0","2","0.7,0.2,0,0,0.7,0.2,0.2,0,0.7",""
"null","","html-keyboard-response","213","352649","0.0-213.0","3QIYRE09Y43E6CU0V4AGE94YDNS1NT","A2K0L9M1ZZO5C9","39KMGHJ4RZW9S7JH7DZG09TNV4R00C","","","<img src=""img/flower3.png"" style=""width:200px;border:14px solid red;"">","null","","","","","",""
"782.9000000059605","","image-keyboard-response","214","353434","0.0-214.0","3QIYRE09Y43E6CU0V4AGE94YDNS1NT","A2K0L9M1ZZO5C9","39KMGHJ4RZW9S7JH7DZG09TNV4R00C","","","img/flower1.png","74","785","1","0","3","0.7,0.2,0,0,0.7,0.2,0.2,0,0.7",""
"null","","html-keyboard-response","215","353751","0.0-215.0","3QIYRE09Y43E6CU0V4AGE94YDNS1NT","A2K0L9M1ZZO5C9","39KMGHJ4RZW9S7JH7DZG09TNV4R00C","","","<img src=""img/flower1.png"" style=""width:200px;border:14px solid red;"">","null","","","","","",""
"590","","image-keyboard-response","216","354343","0.0-216.0","3QIYRE09Y43E6CU0V4AGE94YDNS1NT","A2K0L9M1ZZO5C9","39KMGHJ4RZW9S7JH7DZG09TNV4R00C","","","img/flower5.png","75","591.8000000044703","2","0","1","0.7,0.2,0,0,0.7,0.2,0.2,0,0.7",""
"null","","html-keyboard-response","217","354651","0.0-217.0","3QIYRE09Y43E6CU0V4AGE94YDNS1NT","A2K0L9M1ZZO5C9","39KMGHJ4RZW9S7JH7DZG09TNV4R00C","","","<img src=""img/flower5.png"" style=""width:200px;border:14px solid red;"">","null","","","","","",""
"580.5","","image-keyboard-response","218","355233","0.0-218.0","3QIYRE09Y43E6CU0V4AGE94YDNS1NT","A2K0L9M1ZZO5C9","39KMGHJ4RZW9S7JH7DZG09TNV4R00C","","","img/flower1.png","75","581.6000000014901","2","0","3","0.7,0.2,0,0,0.7,0.2,0.2,0,0.7",""
"null","","html-keyboard-response","219","355541","0.0-219.0","3QIYRE09Y43E6CU0V4AGE94YDNS1NT","A2K0L9M1ZZO5C9","39KMGHJ4RZW9S7JH7DZG09TNV4R00C","","","<img src=""img/flower1.png"" style=""width:200px;border:14px solid red;"">","null","","","","","",""
"128.5","","image-keyboard-response","220","355671","0.0-220.0","3QIYRE09Y43E6CU0V4AGE94YDNS1NT","A2K0L9M1ZZO5C9","39KMGHJ4RZW9S7JH7DZG09TNV4R00C","","","img/flower1.png","74","130.20000000298023","1","0","3","0.7,0.2,0,0,0.7,0.2,0.2,0,0.7",""
"null","","html-keyboard-response","221","355977","0.0-221.0","3QIYRE09Y43E6CU0V4AGE94YDNS1NT","A2K0L9M1ZZO5C9","39KMGHJ4RZW9S7JH7DZG09TNV4R00C","","","<img src=""img/flower1.png"" style=""width:200px;border:14px solid red;"">","null","","","","","",""
"166.09999999403954","","image-keyboard-response","222","356144","0.0-222.0","3QIYRE09Y43E6CU0V4AGE94YDNS1NT","A2K0L9M1ZZO5C9","39KMGHJ4RZW9S7JH7DZG09TNV4R00C","","","img/flower3.png","74","167.19999999552965","1","0","2","0.7,0.2,0,0,0.7,0.2,0.2,0,0.7",""
"null","","html-keyboard-response","223","356451","0.0-223.0","3QIYRE09Y43E6CU0V4AGE94YDNS1NT","A2K0L9M1ZZO5C9","39KMGHJ4RZW9S7JH7DZG09TNV4R00C","","","<img src=""img/flower3.png"" style=""width:200px;border:14px solid red;"">","null","","","","","",""
"1847.5","","image-keyboard-response","224","358300","0.0-224.0","3QIYRE09Y43E6CU0V4AGE94YDNS1NT","A2K0L9M1ZZO5C9","39KMGHJ4RZW9S7JH7DZG09TNV4R00C","","","img/flower1.png","74","1849.2000000029802","1","0","3","0.7,0.2,0,0,0.7,0.2,0.2,0,0.7",""
"null","","html-keyboard-response","225","358617","0.0-225.0","3QIYRE09Y43E6CU0V4AGE94YDNS1NT","A2K0L9M1ZZO5C9","39KMGHJ4RZW9S7JH7DZG09TNV4R00C","","","<img src=""img/flower1.png"" style=""width:200px;border:14px solid red;"">","null","","","","","",""
"792.2000000029802","","image-keyboard-response","226","359411","0.0-226.0","3QIYRE09Y43E6CU0V4AGE94YDNS1NT","A2K0L9M1ZZO5C9","39KMGHJ4RZW9S7JH7DZG09TNV4R00C","","","img/flower1.png","74","793.5999999940395","1","0","3","0.7,0.2,0,0,0.7,0.2,0.2,0,0.7",""
"null","","html-keyboard-response","227","359717","0.0-227.0","3QIYRE09Y43E6CU0V4AGE94YDNS1NT","A2K0L9M1ZZO5C9","39KMGHJ4RZW9S7JH7DZG09TNV4R00C","","","<img src=""img/flower1.png"" style=""width:200px;border:14px solid red;"">","null","","","","","",""
"1008","","image-keyboard-response","228","360727","0.0-228.0","3QIYRE09Y43E6CU0V4AGE94YDNS1NT","A2K0L9M1ZZO5C9","39KMGHJ4RZW9S7JH7DZG09TNV4R00C","","","img/flower3.png","74","1010","1","0","2","0.7,0.2,0,0,0.7,0.2,0.2,0,0.7",""
"null","","html-keyboard-response","229","361034","0.0-229.0","3QIYRE09Y43E6CU0V4AGE94YDNS1NT","A2K0L9M1ZZO5C9","39KMGHJ4RZW9S7JH7DZG09TNV4R00C","","","<img src=""img/flower3.png"" style=""width:200px;border:14px solid red;"">","null","","","","","",""
"1042.9000000059605","","image-keyboard-response","230","362079","0.0-230.0","3QIYRE09Y43E6CU0V4AGE94YDNS1NT","A2K0L9M1ZZO5C9","39KMGHJ4RZW9S7JH7DZG09TNV4R00C","","","img/flower1.png","74","1044.1999999955297","1","0","3","0.7,0.2,0,0,0.7,0.2,0.2,0,0.7",""
"null","","html-keyboard-response","231","362386","0.0-231.0","3QIYRE09Y43E6CU0V4AGE94YDNS1NT","A2K0L9M1ZZO5C9","39KMGHJ4RZW9S7JH7DZG09TNV4R00C","","","<img src=""img/flower1.png"" style=""width:200px;border:14px solid red;"">","null","","","","","",""
"651.6000000014901","","image-keyboard-response","232","363039","0.0-232.0","3QIYRE09Y43E6CU0V4AGE94YDNS1NT","A2K0L9M1ZZO5C9","39KMGHJ4RZW9S7JH7DZG09TNV4R00C","","","img/flower3.png","74","653.1000000014901","1","0","2","0.7,0.2,0,0,0.7,0.2,0.2,0,0.7",""
"null","","html-keyboard-response","233","363354","0.0-233.0","3QIYRE09Y43E6CU0V4AGE94YDNS1NT","A2K0L9M1ZZO5C9","39KMGHJ4RZW9S7JH7DZG09TNV4R00C","","","<img src=""img/flower3.png"" style=""width:200px;border:14px solid red;"">","null","","","","","",""
"447.69999999552965","","image-keyboard-response","234","363804","0.0-234.0","3QIYRE09Y43E6CU0V4AGE94YDNS1NT","A2K0L9M1ZZO5C9","39KMGHJ4RZW9S7JH7DZG09TNV4R00C","","","img/flower3.png","74","449.09999999403954","1","0","2","0.7,0.2,0,0,0.7,0.2,0.2,0,0.7",""
"null","","html-keyboard-response","235","364122","0.0-235.0","3QIYRE09Y43E6CU0V4AGE94YDNS1NT","A2K0L9M1ZZO5C9","39KMGHJ4RZW9S7JH7DZG09TNV4R00C","","","<img src=""img/flower3.png"" style=""width:200px;border:14px solid red;"">","null","","","","","",""
"772.2000000029802","","image-keyboard-response","236","364896","0.0-236.0","3QIYRE09Y43E6CU0V4AGE94YDNS1NT","A2K0L9M1ZZO5C9","39KMGHJ4RZW9S7JH7DZG09TNV4R00C","","","img/flower1.png","74","773.7999999970198","1","0","3","0.7,0.2,0,0,0.7,0.2,0.2,0,0.7",""
"null","","html-keyboard-response","237","365203","0.0-237.0","3QIYRE09Y43E6CU0V4AGE94YDNS1NT","A2K0L9M1ZZO5C9","39KMGHJ4RZW9S7JH7DZG09TNV4R00C","","","<img src=""img/flower1.png"" style=""width:200px;border:14px solid red;"">","null","","","","","",""
"779.4000000059605","","image-keyboard-response","238","365984","0.0-238.0","3QIYRE09Y43E6CU0V4AGE94YDNS1NT","A2K0L9M1ZZO5C9","39KMGHJ4RZW9S7JH7DZG09TNV4R00C","","","img/flower5.png","75","781.1000000014901","2","1","1","0.7,0.2,0,0,0.7,0.2,0.2,0,0.7",""
"null","","html-keyboard-response","239","366286","0.0-239.0","3QIYRE09Y43E6CU0V4AGE94YDNS1NT","A2K0L9M1ZZO5C9","39KMGHJ4RZW9S7JH7DZG09TNV4R00C","","","<img src=""img/flower5.png"" style=""width:200px; border:14px solid green;"">","null","","","","","",""
"1123.5","","image-keyboard-response","240","367411","0.0-240.0","3QIYRE09Y43E6CU0V4AGE94YDNS1NT","A2K0L9M1ZZO5C9","39KMGHJ4RZW9S7JH7DZG09TNV4R00C","","","img/flower3.png","74","1125.1000000014901","1","0","2","0.7,0.2,0,0,0.7,0.2,0.2,0,0.7",""
"null","","html-keyboard-response","241","367720","0.0-241.0","3QIYRE09Y43E6CU0V4AGE94YDNS1NT","A2K0L9M1ZZO5C9","39KMGHJ4RZW9S7JH7DZG09TNV4R00C","","","<img src=""img/flower3.png"" style=""width:200px;border:14px solid red;"">","null","","","","","",""
"889.7999999970198","","image-keyboard-response","242","368613","0.0-242.0","3QIYRE09Y43E6CU0V4AGE94YDNS1NT","A2K0L9M1ZZO5C9","39KMGHJ4RZW9S7JH7DZG09TNV4R00C","","","img/flower3.png","74","892","1","0","2","0.7,0.2,0,0,0.7,0.2,0.2,0,0.7",""
"null","","html-keyboard-response","243","368923","0.0-243.0","3QIYRE09Y43E6CU0V4AGE94YDNS1NT","A2K0L9M1ZZO5C9","39KMGHJ4RZW9S7JH7DZG09TNV4R00C","","","<img src=""img/flower3.png"" style=""width:200px;border:14px solid red;"">","null","","","","","",""
"693.8999999985099","","image-keyboard-response","244","369619","0.0-244.0","3QIYRE09Y43E6CU0V4AGE94YDNS1NT","A2K0L9M1ZZO5C9","39KMGHJ4RZW9S7JH7DZG09TNV4R00C","","","img/flower5.png","75","696","2","0","1","0.7,0.2,0,0,0.7,0.2,0.2,0,0.7",""
"null","","html-keyboard-response","245","369930","0.0-245.0","3QIYRE09Y43E6CU0V4AGE94YDNS1NT","A2K0L9M1ZZO5C9","39KMGHJ4RZW9S7JH7DZG09TNV4R00C","","","<img src=""img/flower5.png"" style=""width:200px;border:14px solid red;"">","null","","","","","",""
"580","","image-keyboard-response","246","370513","0.0-246.0","3QIYRE09Y43E6CU0V4AGE94YDNS1NT","A2K0L9M1ZZO5C9","39KMGHJ4RZW9S7JH7DZG09TNV4R00C","","","img/flower5.png","75","582.5","2","0","1","0.7,0.2,0,0,0.7,0.2,0.2,0,0.7",""
"null","","html-keyboard-response","247","370817","0.0-247.0","3QIYRE09Y43E6CU0V4AGE94YDNS1NT","A2K0L9M1ZZO5C9","39KMGHJ4RZW9S7JH7DZG09TNV4R00C","","","<img src=""img/flower5.png"" style=""width:200px;border:14px solid red;"">","null","","","","","",""
"914.7000000029802","","image-keyboard-response","248","371733","0.0-248.0","3QIYRE09Y43E6CU0V4AGE94YDNS1NT","A2K0L9M1ZZO5C9","39KMGHJ4RZW9S7JH7DZG09TNV4R00C","","","img/flower3.png","74","916.0999999940395","1","0","2","0.7,0.2,0,0,0.7,0.2,0.2,0,0.7",""
"null","","html-keyboard-response","249","372043","0.0-249.0","3QIYRE09Y43E6CU0V4AGE94YDNS1NT","A2K0L9M1ZZO5C9","39KMGHJ4RZW9S7JH7DZG09TNV4R00C","","","<img src=""img/flower3.png"" style=""width:200px;border:14px solid red;"">","null","","","","","",""
"418","","image-keyboard-response","250","372463","0.0-250.0","3QIYRE09Y43E6CU0V4AGE94YDNS1NT","A2K0L9M1ZZO5C9","39KMGHJ4RZW9S7JH7DZG09TNV4R00C","","","img/flower3.png","74","420.1000000014901","1","0","2","0.7,0.2,0,0,0.7,0.2,0.2,0,0.7",""
"null","","html-keyboard-response","251","372768","0.0-251.0","3QIYRE09Y43E6CU0V4AGE94YDNS1NT","A2K0L9M1ZZO5C9","39KMGHJ4RZW9S7JH7DZG09TNV4R00C","","","<img src=""img/flower3.png"" style=""width:200px;border:14px solid red;"">","null","","","","","",""
"2397.39999999851","","image-keyboard-response","252","375167","0.0-252.0","3QIYRE09Y43E6CU0V4AGE94YDNS1NT","A2K0L9M1ZZO5C9","39KMGHJ4RZW9S7JH7DZG09TNV4R00C","","","img/flower5.png","75","2399","2","0","1","0.7,0.2,0,0,0.7,0.2,0.2,0,0.7",""
"null","","html-keyboard-response","253","375472","0.0-253.0","3QIYRE09Y43E6CU0V4AGE94YDNS1NT","A2K0L9M1ZZO5C9","39KMGHJ4RZW9S7JH7DZG09TNV4R00C","","","<img src=""img/flower5.png"" style=""width:200px;border:14px solid red;"">","null","","","","","",""
"1336.2999999970198","","image-keyboard-response","254","376810","0.0-254.0","3QIYRE09Y43E6CU0V4AGE94YDNS1NT","A2K0L9M1ZZO5C9","39KMGHJ4RZW9S7JH7DZG09TNV4R00C","","","img/flower1.png","74","1337.7000000029802","1","0","3","0.7,0.2,0,0,0.7,0.2,0.2,0,0.7",""
"null","","html-keyboard-response","255","377123","0.0-255.0","3QIYRE09Y43E6CU0V4AGE94YDNS1NT","A2K0L9M1ZZO5C9","39KMGHJ4RZW9S7JH7DZG09TNV4R00C","","","<img src=""img/flower1.png"" style=""width:200px;border:14px solid red;"">","null","","","","","",""
"786.0999999940395","","image-keyboard-response","256","377911","0.0-256.0","3QIYRE09Y43E6CU0V4AGE94YDNS1NT","A2K0L9M1ZZO5C9","39KMGHJ4RZW9S7JH7DZG09TNV4R00C","","","img/flower5.png","75","787.7999999970198","2","1","1","0.7,0.2,0,0,0.7,0.2,0.2,0,0.7",""
"null","","html-keyboard-response","257","378220","0.0-257.0","3QIYRE09Y43E6CU0V4AGE94YDNS1NT","A2K0L9M1ZZO5C9","39KMGHJ4RZW9S7JH7DZG09TNV4R00C","","","<img src=""img/flower5.png"" style=""width:200px; border:14px solid green;"">","null","","","","","",""
"1006.5","","image-keyboard-response","258","379228","0.0-258.0","3QIYRE09Y43E6CU0V4AGE94YDNS1NT","A2K0L9M1ZZO5C9","39KMGHJ4RZW9S7JH7DZG09TNV4R00C","","","img/flower3.png","76","1008.1000000014901","3","0","2","0.7,0.2,0,0,0.7,0.2,0.2,0,0.7",""
"null","","html-keyboard-response","259","379535","0.0-259.0","3QIYRE09Y43E6CU0V4AGE94YDNS1NT","A2K0L9M1ZZO5C9","39KMGHJ4RZW9S7JH7DZG09TNV4R00C","","","<img src=""img/flower3.png"" style=""width:200px;border:14px solid red;"">","null","","","","","",""
"405.5","","image-keyboard-response","260","379941","0.0-260.0","3QIYRE09Y43E6CU0V4AGE94YDNS1NT","A2K0L9M1ZZO5C9","39KMGHJ4RZW9S7JH7DZG09TNV4R00C","","","img/flower3.png","76","406.29999999701977","3","0","2","0.7,0.2,0,0,0.7,0.2,0.2,0,0.7",""
"null","","html-keyboard-response","261","380253","0.0-261.0","3QIYRE09Y43E6CU0V4AGE94YDNS1NT","A2K0L9M1ZZO5C9","39KMGHJ4RZW9S7JH7DZG09TNV4R00C","","","<img src=""img/flower3.png"" style=""width:200px;border:14px solid red;"">","null","","","","","",""
"613.5","","image-keyboard-response","262","380868","0.0-262.0","3QIYRE09Y43E6CU0V4AGE94YDNS1NT","A2K0L9M1ZZO5C9","39KMGHJ4RZW9S7JH7DZG09TNV4R00C","","","img/flower1.png","75","614.8000000044703","2","0","3","0.7,0.2,0,0,0.7,0.2,0.2,0,0.7",""
"null","","html-keyboard-response","263","381184","0.0-263.0","3QIYRE09Y43E6CU0V4AGE94YDNS1NT","A2K0L9M1ZZO5C9","39KMGHJ4RZW9S7JH7DZG09TNV4R00C","","","<img src=""img/flower1.png"" style=""width:200px;border:14px solid red;"">","null","","","","","",""
"161.5","","image-keyboard-response","264","381347","0.0-264.0","3QIYRE09Y43E6CU0V4AGE94YDNS1NT","A2K0L9M1ZZO5C9","39KMGHJ4RZW9S7JH7DZG09TNV4R00C","","","img/flower3.png","75","163.10000000149012","2","1","2","0.7,0.2,0,0,0.7,0.2,0.2,0,0.7",""
"null","","html-keyboard-response","265","381652","0.0-265.0","3QIYRE09Y43E6CU0V4AGE94YDNS1NT","A2K0L9M1ZZO5C9","39KMGHJ4RZW9S7JH7DZG09TNV4R00C","","","<img src=""img/flower3.png"" style=""width:200px; border:14px solid green;"">","null","","","","","",""
"229.20000000298023","","image-keyboard-response","266","381883","0.0-266.0","3QIYRE09Y43E6CU0V4AGE94YDNS1NT","A2K0L9M1ZZO5C9","39KMGHJ4RZW9S7JH7DZG09TNV4R00C","","","img/flower5.png","76","230.5","3","0","1","0.7,0.2,0,0,0.7,0.2,0.2,0,0.7",""
"null","","html-keyboard-response","267","382201","0.0-267.0","3QIYRE09Y43E6CU0V4AGE94YDNS1NT","A2K0L9M1ZZO5C9","39KMGHJ4RZW9S7JH7DZG09TNV4R00C","","","<img src=""img/flower5.png"" style=""width:200px;border:14px solid red;"">","null","","","","","",""
"481.3999999985099","","image-keyboard-response","268","382684","0.0-268.0","3QIYRE09Y43E6CU0V4AGE94YDNS1NT","A2K0L9M1ZZO5C9","39KMGHJ4RZW9S7JH7DZG09TNV4R00C","","","img/flower3.png","76","482.8999999985099","3","0","2","0.7,0.2,0,0,0.7,0.2,0.2,0,0.7",""
"null","","html-keyboard-response","269","383001","0.0-269.0","3QIYRE09Y43E6CU0V4AGE94YDNS1NT","A2K0L9M1ZZO5C9","39KMGHJ4RZW9S7JH7DZG09TNV4R00C","","","<img src=""img/flower3.png"" style=""width:200px;border:14px solid red;"">","null","","","","","",""
"1638.1000000014901","","image-keyboard-response","270","384640","0.0-270.0","3QIYRE09Y43E6CU0V4AGE94YDNS1NT","A2K0L9M1ZZO5C9","39KMGHJ4RZW9S7JH7DZG09TNV4R00C","","","img/flower3.png","76","1639.1000000014901","3","0","2","0.7,0.2,0,0,0.7,0.2,0.2,0,0.7",""
"null","","html-keyboard-response","271","384951","0.0-271.0","3QIYRE09Y43E6CU0V4AGE94YDNS1NT","A2K0L9M1ZZO5C9","39KMGHJ4RZW9S7JH7DZG09TNV4R00C","","","<img src=""img/flower3.png"" style=""width:200px;border:14px solid red;"">","null","","","","","",""
"240.60000000149012","","image-keyboard-response","272","385193","0.0-272.0","3QIYRE09Y43E6CU0V4AGE94YDNS1NT","A2K0L9M1ZZO5C9","39KMGHJ4RZW9S7JH7DZG09TNV4R00C","","","img/flower1.png","76","241.89999999850988","3","1","3","0.7,0.2,0,0,0.7,0.2,0.2,0,0.7",""
"null","","html-keyboard-response","273","385502","0.0-273.0","3QIYRE09Y43E6CU0V4AGE94YDNS1NT","A2K0L9M1ZZO5C9","39KMGHJ4RZW9S7JH7DZG09TNV4R00C","","","<img src=""img/flower1.png"" style=""width:200px; border:14px solid green;"">","null","","","","","",""
"1325.4000000059605","","image-keyboard-response","274","386831","0.0-274.0","3QIYRE09Y43E6CU0V4AGE94YDNS1NT","A2K0L9M1ZZO5C9","39KMGHJ4RZW9S7JH7DZG09TNV4R00C","","","img/flower3.png","76","1327.6999999955297","3","0","2","0.7,0.2,0,0,0.7,0.2,0.2,0,0.7",""
"null","","html-keyboard-response","275","387136","0.0-275.0","3QIYRE09Y43E6CU0V4AGE94YDNS1NT","A2K0L9M1ZZO5C9","39KMGHJ4RZW9S7JH7DZG09TNV4R00C","","","<img src=""img/flower3.png"" style=""width:200px;border:14px solid red;"">","null","","","","","",""
"1981.6000000014901","","image-keyboard-response","276","389119","0.0-276.0","3QIYRE09Y43E6CU0V4AGE94YDNS1NT","A2K0L9M1ZZO5C9","39KMGHJ4RZW9S7JH7DZG09TNV4R00C","","","img/flower5.png","75","1983.3000000044703","2","1","1","0.7,0.2,0,0,0.7,0.2,0.2,0,0.7",""
"null","","html-keyboard-response","277","389426","0.0-277.0","3QIYRE09Y43E6CU0V4AGE94YDNS1NT","A2K0L9M1ZZO5C9","39KMGHJ4RZW9S7JH7DZG09TNV4R00C","","","<img src=""img/flower5.png"" style=""width:200px; border:14px solid green;"">","null","","","","","",""
"884.8999999985099","","image-keyboard-response","278","390312","0.0-278.0","3QIYRE09Y43E6CU0V4AGE94YDNS1NT","A2K0L9M1ZZO5C9","39KMGHJ4RZW9S7JH7DZG09TNV4R00C","","","img/flower3.png","74","886.6000000014901","1","0","2","0.7,0.2,0,0,0.7,0.2,0.2,0,0.7",""
"null","","html-keyboard-response","279","390627","0.0-279.0","3QIYRE09Y43E6CU0V4AGE94YDNS1NT","A2K0L9M1ZZO5C9","39KMGHJ4RZW9S7JH7DZG09TNV4R00C","","","<img src=""img/flower3.png"" style=""width:200px;border:14px solid red;"">","null","","","","","",""
"535.3999999985099","","image-keyboard-response","280","391164","0.0-280.0","3QIYRE09Y43E6CU0V4AGE94YDNS1NT","A2K0L9M1ZZO5C9","39KMGHJ4RZW9S7JH7DZG09TNV4R00C","","","img/flower1.png","76","537.1999999955297","3","0","3","0.7,0.2,0,0,0.7,0.2,0.2,0,0.7",""
"null","","html-keyboard-response","281","391471","0.0-281.0","3QIYRE09Y43E6CU0V4AGE94YDNS1NT","A2K0L9M1ZZO5C9","39KMGHJ4RZW9S7JH7DZG09TNV4R00C","","","<img src=""img/flower1.png"" style=""width:200px;border:14px solid red;"">","null","","","","","",""
"107.40000000596046","","image-keyboard-response","282","391580","0.0-282.0","3QIYRE09Y43E6CU0V4AGE94YDNS1NT","A2K0L9M1ZZO5C9","39KMGHJ4RZW9S7JH7DZG09TNV4R00C","","","img/flower5.png","74","108.89999999850988","1","0","1","0.7,0.2,0,0,0.7,0.2,0.2,0,0.7",""
"null","","html-keyboard-response","283","391886","0.0-283.0","3QIYRE09Y43E6CU0V4AGE94YDNS1NT","A2K0L9M1ZZO5C9","39KMGHJ4RZW9S7JH7DZG09TNV4R00C","","","<img src=""img/flower5.png"" style=""width:200px;border:14px solid red;"">","null","","","","","",""
"167.79999999701977","","image-keyboard-response","284","392056","0.0-284.0","3QIYRE09Y43E6CU0V4AGE94YDNS1NT","A2K0L9M1ZZO5C9","39KMGHJ4RZW9S7JH7DZG09TNV4R00C","","","img/flower3.png","75","169.39999999850988","2","0","2","0.7,0.2,0,0,0.7,0.2,0.2,0,0.7",""
"null","","html-keyboard-response","285","392375","0.0-285.0","3QIYRE09Y43E6CU0V4AGE94YDNS1NT","A2K0L9M1ZZO5C9","39KMGHJ4RZW9S7JH7DZG09TNV4R00C","","","<img src=""img/flower3.png"" style=""width:200px;border:14px solid red;"">","null","","","","","",""
"2748.60000000149","","image-keyboard-response","286","395127","0.0-286.0","3QIYRE09Y43E6CU0V4AGE94YDNS1NT","A2K0L9M1ZZO5C9","39KMGHJ4RZW9S7JH7DZG09TNV4R00C","","","img/flower1.png","74","2751.10000000149","1","1","3","0.7,0.2,0,0,0.7,0.2,0.2,0,0.7",""
"null","","html-keyboard-response","287","395442","0.0-287.0","3QIYRE09Y43E6CU0V4AGE94YDNS1NT","A2K0L9M1ZZO5C9","39KMGHJ4RZW9S7JH7DZG09TNV4R00C","","","<img src=""img/flower1.png"" style=""width:200px; border:14px solid green;"">","null","","","","","",""
"845.5","","image-keyboard-response","288","396290","0.0-288.0","3QIYRE09Y43E6CU0V4AGE94YDNS1NT","A2K0L9M1ZZO5C9","39KMGHJ4RZW9S7JH7DZG09TNV4R00C","","","img/flower3.png","75","847.6000000014901","2","1","2","0.7,0.2,0,0,0.7,0.2,0.2,0,0.7",""
"null","","html-keyboard-response","289","396606","0.0-289.0","3QIYRE09Y43E6CU0V4AGE94YDNS1NT","A2K0L9M1ZZO5C9","39KMGHJ4RZW9S7JH7DZG09TNV4R00C","","","<img src=""img/flower3.png"" style=""width:200px; border:14px solid green;"">","null","","","","","",""
"907.2999999970198","","image-keyboard-response","290","397516","0.0-290.0","3QIYRE09Y43E6CU0V4AGE94YDNS1NT","A2K0L9M1ZZO5C9","39KMGHJ4RZW9S7JH7DZG09TNV4R00C","","","img/flower3.png","74","909.1000000014901","1","0","2","0.7,0.2,0,0,0.7,0.2,0.2,0,0.7",""
"null","","html-keyboard-response","291","397823","0.0-291.0","3QIYRE09Y43E6CU0V4AGE94YDNS1NT","A2K0L9M1ZZO5C9","39KMGHJ4RZW9S7JH7DZG09TNV4R00C","","","<img src=""img/flower3.png"" style=""width:200px;border:14px solid red;"">","null","","","","","",""
"602.7999999970198","","image-keyboard-response","292","398429","0.0-292.0","3QIYRE09Y43E6CU0V4AGE94YDNS1NT","A2K0L9M1ZZO5C9","39KMGHJ4RZW9S7JH7DZG09TNV4R00C","","","img/flower5.png","75","605.5","2","0","1","0.7,0.2,0,0,0.7,0.2,0.2,0,0.7",""
"null","","html-keyboard-response","293","398741","0.0-293.0","3QIYRE09Y43E6CU0V4AGE94YDNS1NT","A2K0L9M1ZZO5C9","39KMGHJ4RZW9S7JH7DZG09TNV4R00C","","","<img src=""img/flower5.png"" style=""width:200px;border:14px solid red;"">","null","","","","","",""
"1131.8999999910593","","image-keyboard-response","294","399875","0.0-294.0","3QIYRE09Y43E6CU0V4AGE94YDNS1NT","A2K0L9M1ZZO5C9","39KMGHJ4RZW9S7JH7DZG09TNV4R00C","","","img/flower1.png","76","1133.4000000059605","3","1","3","0.7,0.2,0,0,0.7,0.2,0.2,0,0.7",""
"null","","html-keyboard-response","295","400190","0.0-295.0","3QIYRE09Y43E6CU0V4AGE94YDNS1NT","A2K0L9M1ZZO5C9","39KMGHJ4RZW9S7JH7DZG09TNV4R00C","","","<img src=""img/flower1.png"" style=""width:200px; border:14px solid green;"">","null","","","","","",""
"814.3999999910593","","image-keyboard-response","296","401006","0.0-296.0","3QIYRE09Y43E6CU0V4AGE94YDNS1NT","A2K0L9M1ZZO5C9","39KMGHJ4RZW9S7JH7DZG09TNV4R00C","","","img/flower1.png","76","816.7000000029802","3","1","3","0.7,0.2,0,0,0.7,0.2,0.2,0,0.7",""
"null","","html-keyboard-response","297","401310","0.0-297.0","3QIYRE09Y43E6CU0V4AGE94YDNS1NT","A2K0L9M1ZZO5C9","39KMGHJ4RZW9S7JH7DZG09TNV4R00C","","","<img src=""img/flower1.png"" style=""width:200px; border:14px solid green;"">","null","","","","","",""
"1962.0999999940395","","image-keyboard-response","298","403274","0.0-298.0","3QIYRE09Y43E6CU0V4AGE94YDNS1NT","A2K0L9M1ZZO5C9","39KMGHJ4RZW9S7JH7DZG09TNV4R00C","","","img/flower5.png","75","1964.1000000089407","2","0","1","0.7,0.2,0,0,0.7,0.2,0.2,0,0.7",""
"null","","html-keyboard-response","299","403592","0.0-299.0","3QIYRE09Y43E6CU0V4AGE94YDNS1NT","A2K0L9M1ZZO5C9","39KMGHJ4RZW9S7JH7DZG09TNV4R00C","","","<img src=""img/flower5.png"" style=""width:200px;border:14px solid red;"">","null","","","","","",""
"2026.6000000089407","","image-keyboard-response","300","405620","0.0-300.0","3QIYRE09Y43E6CU0V4AGE94YDNS1NT","A2K0L9M1ZZO5C9","39KMGHJ4RZW9S7JH7DZG09TNV4R00C","","","img/flower1.png","74","2028.2999999970198","1","0","3","0.7,0.2,0,0,0.7,0.2,0.2,0,0.7",""
"null","","html-keyboard-response","301","405936","0.0-301.0","3QIYRE09Y43E6CU0V4AGE94YDNS1NT","A2K0L9M1ZZO5C9","39KMGHJ4RZW9S7JH7DZG09TNV4R00C","","","<img src=""img/flower1.png"" style=""width:200px;border:14px solid red;"">","null","","","","","",""
"1009.3000000119209","","image-keyboard-response","302","406948","0.0-302.0","3QIYRE09Y43E6CU0V4AGE94YDNS1NT","A2K0L9M1ZZO5C9","39KMGHJ4RZW9S7JH7DZG09TNV4R00C","","","img/flower5.png","74","1011.3999999910593","1","1","1","0.7,0.2,0,0,0.7,0.2,0.2,0,0.7",""
"null","","html-keyboard-response","303","407257","0.0-303.0","3QIYRE09Y43E6CU0V4AGE94YDNS1NT","A2K0L9M1ZZO5C9","39KMGHJ4RZW9S7JH7DZG09TNV4R00C","","","<img src=""img/flower5.png"" style=""width:200px; border:14px solid green;"">","null","","","","","",""
"3537.9000000059605","","image-keyboard-response","304","410798","0.0-304.0","3QIYRE09Y43E6CU0V4AGE94YDNS1NT","A2K0L9M1ZZO5C9","39KMGHJ4RZW9S7JH7DZG09TNV4R00C","","","img/flower1.png","74","3540","1","0","3","0.7,0.2,0,0,0.7,0.2,0.2,0,0.7",""
"null","","html-keyboard-response","305","411109","0.0-305.0","3QIYRE09Y43E6CU0V4AGE94YDNS1NT","A2K0L9M1ZZO5C9","39KMGHJ4RZW9S7JH7DZG09TNV4R00C","","","<img src=""img/flower1.png"" style=""width:200px;border:14px solid red;"">","null","","","","","",""
"","","html-keyboard-response","306","483135","0.0-306.0","3QIYRE09Y43E6CU0V4AGE94YDNS1NT","A2K0L9M1ZZO5C9","39KMGHJ4RZW9S7JH7DZG09TNV4R00C","","","","","","","","","",""
"1813.5","","image-keyboard-response","307","484950","0.0-307.0","3QIYRE09Y43E6CU0V4AGE94YDNS1NT","A2K0L9M1ZZO5C9","39KMGHJ4RZW9S7JH7DZG09TNV4R00C","","","img/flower2.png","74","1815.3999999910593","1","1","1","0.7,0.2,0,0.7,0,0.2,0.2,0,0.7",""
"null","","html-keyboard-response","308","485253","0.0-308.0","3QIYRE09Y43E6CU0V4AGE94YDNS1NT","A2K0L9M1ZZO5C9","39KMGHJ4RZW9S7JH7DZG09TNV4R00C","","","<img src=""img/flower2.png"" style=""width:200px; border:14px solid green;"">","null","","","","","",""
"718.5","","image-keyboard-response","309","485974","0.0-309.0","3QIYRE09Y43E6CU0V4AGE94YDNS1NT","A2K0L9M1ZZO5C9","39KMGHJ4RZW9S7JH7DZG09TNV4R00C","","","img/flower6.png","76","720.5","3","1","3","0.7,0.2,0,0.7,0,0.2,0.2,0,0.7",""
"null","","html-keyboard-response","310","486290","0.0-310.0","3QIYRE09Y43E6CU0V4AGE94YDNS1NT","A2K0L9M1ZZO5C9","39KMGHJ4RZW9S7JH7DZG09TNV4R00C","","","<img src=""img/flower6.png"" style=""width:200px; border:14px solid green;"">","null","","","","","",""
"646.8999999910593","","image-keyboard-response","311","486938","0.0-311.0","3QIYRE09Y43E6CU0V4AGE94YDNS1NT","A2K0L9M1ZZO5C9","39KMGHJ4RZW9S7JH7DZG09TNV4R00C","","","img/flower4.png","74","648.1000000089407","1","1","2","0.7,0.2,0,0.7,0,0.2,0.2,0,0.7",""
"null","","html-keyboard-response","312","487246","0.0-312.0","3QIYRE09Y43E6CU0V4AGE94YDNS1NT","A2K0L9M1ZZO5C9","39KMGHJ4RZW9S7JH7DZG09TNV4R00C","","","<img src=""img/flower4.png"" style=""width:200px; border:14px solid green;"">","null","","","","","",""
"715.5","","image-keyboard-response","313","487963","0.0-313.0","3QIYRE09Y43E6CU0V4AGE94YDNS1NT","A2K0L9M1ZZO5C9","39KMGHJ4RZW9S7JH7DZG09TNV4R00C","","","img/flower6.png","76","716.5999999940395","3","1","3","0.7,0.2,0,0.7,0,0.2,0.2,0,0.7",""
"null","","html-keyboard-response","314","488273","0.0-314.0","3QIYRE09Y43E6CU0V4AGE94YDNS1NT","A2K0L9M1ZZO5C9","39KMGHJ4RZW9S7JH7DZG09TNV4R00C","","","<img src=""img/flower6.png"" style=""width:200px; border:14px solid green;"">","null","","","","","",""
"872","","image-keyboard-response","315","489147","0.0-315.0","3QIYRE09Y43E6CU0V4AGE94YDNS1NT","A2K0L9M1ZZO5C9","39KMGHJ4RZW9S7JH7DZG09TNV4R00C","","","img/flower2.png","75","873.7999999970198","2","1","1","0.7,0.2,0,0.7,0,0.2,0.2,0,0.7",""
"null","","html-keyboard-response","316","489458","0.0-316.0","3QIYRE09Y43E6CU0V4AGE94YDNS1NT","A2K0L9M1ZZO5C9","39KMGHJ4RZW9S7JH7DZG09TNV4R00C","","","<img src=""img/flower2.png"" style=""width:200px; border:14px solid green;"">","null","","","","","",""
"626.3999999910593","","image-keyboard-response","317","490086","0.0-317.0","3QIYRE09Y43E6CU0V4AGE94YDNS1NT","A2K0L9M1ZZO5C9","39KMGHJ4RZW9S7JH7DZG09TNV4R00C","","","img/flower4.png","74","627.9000000059605","1","1","2","0.7,0.2,0,0.7,0,0.2,0.2,0,0.7",""
"null","","html-keyboard-response","318","490391","0.0-318.0","3QIYRE09Y43E6CU0V4AGE94YDNS1NT","A2K0L9M1ZZO5C9","39KMGHJ4RZW9S7JH7DZG09TNV4R00C","","","<img src=""img/flower4.png"" style=""width:200px; border:14px solid green;"">","null","","","","","",""
"625.4000000059605","","image-keyboard-response","319","491018","0.0-319.0","3QIYRE09Y43E6CU0V4AGE94YDNS1NT","A2K0L9M1ZZO5C9","39KMGHJ4RZW9S7JH7DZG09TNV4R00C","","","img/flower6.png","76","626.5999999940395","3","1","3","0.7,0.2,0,0.7,0,0.2,0.2,0,0.7",""
"null","","html-keyboard-response","320","491327","0.0-320.0","3QIYRE09Y43E6CU0V4AGE94YDNS1NT","A2K0L9M1ZZO5C9","39KMGHJ4RZW9S7JH7DZG09TNV4R00C","","","<img src=""img/flower6.png"" style=""width:200px; border:14px solid green;"">","null","","","","","",""
"753.7999999970198","","image-keyboard-response","321","492083","0.0-321.0","3QIYRE09Y43E6CU0V4AGE94YDNS1NT","A2K0L9M1ZZO5C9","39KMGHJ4RZW9S7JH7DZG09TNV4R00C","","","img/flower6.png","76","755.7000000029802","3","1","3","0.7,0.2,0,0.7,0,0.2,0.2,0,0.7",""
"null","","html-keyboard-response","322","492390","0.0-322.0","3QIYRE09Y43E6CU0V4AGE94YDNS1NT","A2K0L9M1ZZO5C9","39KMGHJ4RZW9S7JH7DZG09TNV4R00C","","","<img src=""img/flower6.png"" style=""width:200px; border:14px solid green;"">","null","","","","","",""
"537.6999999880791","","image-keyboard-response","323","492930","0.0-323.0","3QIYRE09Y43E6CU0V4AGE94YDNS1NT","A2K0L9M1ZZO5C9","39KMGHJ4RZW9S7JH7DZG09TNV4R00C","","","img/flower6.png","76","539.3999999910593","3","1","3","0.7,0.2,0,0.7,0,0.2,0.2,0,0.7",""
"null","","html-keyboard-response","324","493239","0.0-324.0","3QIYRE09Y43E6CU0V4AGE94YDNS1NT","A2K0L9M1ZZO5C9","39KMGHJ4RZW9S7JH7DZG09TNV4R00C","","","<img src=""img/flower6.png"" style=""width:200px; border:14px solid green;"">","null","","","","","",""
"595.1000000089407","","image-keyboard-response","325","493835","0.0-325.0","3QIYRE09Y43E6CU0V4AGE94YDNS1NT","A2K0L9M1ZZO5C9","39KMGHJ4RZW9S7JH7DZG09TNV4R00C","","","img/flower4.png","74","596.2999999970198","1","1","2","0.7,0.2,0,0.7,0,0.2,0.2,0,0.7",""
"null","","html-keyboard-response","326","494143","0.0-326.0","3QIYRE09Y43E6CU0V4AGE94YDNS1NT","A2K0L9M1ZZO5C9","39KMGHJ4RZW9S7JH7DZG09TNV4R00C","","","<img src=""img/flower4.png"" style=""width:200px; border:14px solid green;"">","null","","","","","",""
"742.7999999970198","","image-keyboard-response","327","494887","0.0-327.0","3QIYRE09Y43E6CU0V4AGE94YDNS1NT","A2K0L9M1ZZO5C9","39KMGHJ4RZW9S7JH7DZG09TNV4R00C","","","img/flower4.png","74","744.1000000089407","1","0","2","0.7,0.2,0,0.7,0,0.2,0.2,0,0.7",""
"null","","html-keyboard-response","328","495204","0.0-328.0","3QIYRE09Y43E6CU0V4AGE94YDNS1NT","A2K0L9M1ZZO5C9","39KMGHJ4RZW9S7JH7DZG09TNV4R00C","","","<img src=""img/flower4.png"" style=""width:200px;border:14px solid red;"">","null","","","","","",""
"457.19999998807907","","image-keyboard-response","329","495663","0.0-329.0","3QIYRE09Y43E6CU0V4AGE94YDNS1NT","A2K0L9M1ZZO5C9","39KMGHJ4RZW9S7JH7DZG09TNV4R00C","","","img/flower4.png","74","458.80000001192093","1","1","2","0.7,0.2,0,0.7,0,0.2,0.2,0,0.7",""
"null","","html-keyboard-response","330","495969","0.0-330.0","3QIYRE09Y43E6CU0V4AGE94YDNS1NT","A2K0L9M1ZZO5C9","39KMGHJ4RZW9S7JH7DZG09TNV4R00C","","","<img src=""img/flower4.png"" style=""width:200px; border:14px solid green;"">","null","","","","","",""
"651.2000000029802","","image-keyboard-response","331","496622","0.0-331.0","3QIYRE09Y43E6CU0V4AGE94YDNS1NT","A2K0L9M1ZZO5C9","39KMGHJ4RZW9S7JH7DZG09TNV4R00C","","","img/flower2.png","75","652.5999999940395","2","0","1","0.7,0.2,0,0.7,0,0.2,0.2,0,0.7",""
"null","","html-keyboard-response","332","496935","0.0-332.0","3QIYRE09Y43E6CU0V4AGE94YDNS1NT","A2K0L9M1ZZO5C9","39KMGHJ4RZW9S7JH7DZG09TNV4R00C","","","<img src=""img/flower2.png"" style=""width:200px;border:14px solid red;"">","null","","","","","",""
"613","","image-keyboard-response","333","497551","0.0-333.0","3QIYRE09Y43E6CU0V4AGE94YDNS1NT","A2K0L9M1ZZO5C9","39KMGHJ4RZW9S7JH7DZG09TNV4R00C","","","img/flower4.png","75","615.2000000029802","2","0","2","0.7,0.2,0,0.7,0,0.2,0.2,0,0.7",""
"null","","html-keyboard-response","334","497857","0.0-334.0","3QIYRE09Y43E6CU0V4AGE94YDNS1NT","A2K0L9M1ZZO5C9","39KMGHJ4RZW9S7JH7DZG09TNV4R00C","","","<img src=""img/flower4.png"" style=""width:200px;border:14px solid red;"">","null","","","","","",""
"639.1000000089407","","image-keyboard-response","335","498497","0.0-335.0","3QIYRE09Y43E6CU0V4AGE94YDNS1NT","A2K0L9M1ZZO5C9","39KMGHJ4RZW9S7JH7DZG09TNV4R00C","","","img/flower4.png","74","640.6999999880791","1","1","2","0.7,0.2,0,0.7,0,0.2,0.2,0,0.7",""
"null","","html-keyboard-response","336","498807","0.0-336.0","3QIYRE09Y43E6CU0V4AGE94YDNS1NT","A2K0L9M1ZZO5C9","39KMGHJ4RZW9S7JH7DZG09TNV4R00C","","","<img src=""img/flower4.png"" style=""width:200px; border:14px solid green;"">","null","","","","","",""
"405.5","","image-keyboard-response","337","499216","0.0-337.0","3QIYRE09Y43E6CU0V4AGE94YDNS1NT","A2K0L9M1ZZO5C9","39KMGHJ4RZW9S7JH7DZG09TNV4R00C","","","img/flower4.png","74","407.6000000089407","1","1","2","0.7,0.2,0,0.7,0,0.2,0.2,0,0.7",""
"null","","html-keyboard-response","338","499525","0.0-338.0","3QIYRE09Y43E6CU0V4AGE94YDNS1NT","A2K0L9M1ZZO5C9","39KMGHJ4RZW9S7JH7DZG09TNV4R00C","","","<img src=""img/flower4.png"" style=""width:200px; border:14px solid green;"">","null","","","","","",""
"707.5999999940395","","image-keyboard-response","339","500235","0.0-339.0","3QIYRE09Y43E6CU0V4AGE94YDNS1NT","A2K0L9M1ZZO5C9","39KMGHJ4RZW9S7JH7DZG09TNV4R00C","","","img/flower6.png","76","709.8999999910593","3","1","3","0.7,0.2,0,0.7,0,0.2,0.2,0,0.7",""
"null","","html-keyboard-response","340","500541","0.0-340.0","3QIYRE09Y43E6CU0V4AGE94YDNS1NT","A2K0L9M1ZZO5C9","39KMGHJ4RZW9S7JH7DZG09TNV4R00C","","","<img src=""img/flower6.png"" style=""width:200px; border:14px solid green;"">","null","","","","","",""
"741.7999999970198","","image-keyboard-response","341","501285","0.0-341.0","3QIYRE09Y43E6CU0V4AGE94YDNS1NT","A2K0L9M1ZZO5C9","39KMGHJ4RZW9S7JH7DZG09TNV4R00C","","","img/flower2.png","75","743.2999999970198","2","1","1","0.7,0.2,0,0.7,0,0.2,0.2,0,0.7",""
"null","","html-keyboard-response","342","501590","0.0-342.0","3QIYRE09Y43E6CU0V4AGE94YDNS1NT","A2K0L9M1ZZO5C9","39KMGHJ4RZW9S7JH7DZG09TNV4R00C","","","<img src=""img/flower2.png"" style=""width:200px; border:14px solid green;"">","null","","","","","",""
"843.2000000029802","","image-keyboard-response","343","502435","0.0-343.0","3QIYRE09Y43E6CU0V4AGE94YDNS1NT","A2K0L9M1ZZO5C9","39KMGHJ4RZW9S7JH7DZG09TNV4R00C","","","img/flower4.png","74","844.5","1","1","2","0.7,0.2,0,0.7,0,0.2,0.2,0,0.7",""
"null","","html-keyboard-response","344","502741","0.0-344.0","3QIYRE09Y43E6CU0V4AGE94YDNS1NT","A2K0L9M1ZZO5C9","39KMGHJ4RZW9S7JH7DZG09TNV4R00C","","","<img src=""img/flower4.png"" style=""width:200px; border:14px solid green;"">","null","","","","","",""
"2291.5999999940395","","image-keyboard-response","345","505035","0.0-345.0","3QIYRE09Y43E6CU0V4AGE94YDNS1NT","A2K0L9M1ZZO5C9","39KMGHJ4RZW9S7JH7DZG09TNV4R00C","","","img/flower2.png","75","2293.9000000059605","2","0","1","0.7,0.2,0,0.7,0,0.2,0.2,0,0.7",""
"null","","html-keyboard-response","346","505342","0.0-346.0","3QIYRE09Y43E6CU0V4AGE94YDNS1NT","A2K0L9M1ZZO5C9","39KMGHJ4RZW9S7JH7DZG09TNV4R00C","","","<img src=""img/flower2.png"" style=""width:200px;border:14px solid red;"">","null","","","","","",""
"583.1000000089407","","image-keyboard-response","347","505927","0.0-347.0","3QIYRE09Y43E6CU0V4AGE94YDNS1NT","A2K0L9M1ZZO5C9","39KMGHJ4RZW9S7JH7DZG09TNV4R00C","","","img/flower4.png","74","584.8999999910593","1","0","2","0.7,0.2,0,0.7,0,0.2,0.2,0,0.7",""
"null","","html-keyboard-response","348","506230","0.0-348.0","3QIYRE09Y43E6CU0V4AGE94YDNS1NT","A2K0L9M1ZZO5C9","39KMGHJ4RZW9S7JH7DZG09TNV4R00C","","","<img src=""img/flower4.png"" style=""width:200px;border:14px solid red;"">","null","","","","","",""
"746.5999999940395","","image-keyboard-response","349","506979","0.0-349.0","3QIYRE09Y43E6CU0V4AGE94YDNS1NT","A2K0L9M1ZZO5C9","39KMGHJ4RZW9S7JH7DZG09TNV4R00C","","","img/flower4.png","74","748.4000000059605","1","0","2","0.7,0.2,0,0.7,0,0.2,0.2,0,0.7",""
"null","","html-keyboard-response","350","507290","0.0-350.0","3QIYRE09Y43E6CU0V4AGE94YDNS1NT","A2K0L9M1ZZO5C9","39KMGHJ4RZW9S7JH7DZG09TNV4R00C","","","<img src=""img/flower4.png"" style=""width:200px;border:14px solid red;"">","null","","","","","",""
"1317.0999999940395","","image-keyboard-response","351","508610","0.0-351.0","3QIYRE09Y43E6CU0V4AGE94YDNS1NT","A2K0L9M1ZZO5C9","39KMGHJ4RZW9S7JH7DZG09TNV4R00C","","","img/flower4.png","74","1319.4000000059605","1","1","2","0.7,0.2,0,0.7,0,0.2,0.2,0,0.7",""
"null","","html-keyboard-response","352","508923","0.0-352.0","3QIYRE09Y43E6CU0V4AGE94YDNS1NT","A2K0L9M1ZZO5C9","39KMGHJ4RZW9S7JH7DZG09TNV4R00C","","","<img src=""img/flower4.png"" style=""width:200px; border:14px solid green;"">","null","","","","","",""
"709.7000000029802","","image-keyboard-response","353","509636","0.0-353.0","3QIYRE09Y43E6CU0V4AGE94YDNS1NT","A2K0L9M1ZZO5C9","39KMGHJ4RZW9S7JH7DZG09TNV4R00C","","","img/flower6.png","76","711.7999999970198","3","0","3","0.7,0.2,0,0.7,0,0.2,0.2,0,0.7",""
"null","","html-keyboard-response","354","509939","0.0-354.0","3QIYRE09Y43E6CU0V4AGE94YDNS1NT","A2K0L9M1ZZO5C9","39KMGHJ4RZW9S7JH7DZG09TNV4R00C","","","<img src=""img/flower6.png"" style=""width:200px;border:14px solid red;"">","null","","","","","",""
"1261.7999999970198","","image-keyboard-response","355","511203","0.0-355.0","3QIYRE09Y43E6CU0V4AGE94YDNS1NT","A2K0L9M1ZZO5C9","39KMGHJ4RZW9S7JH7DZG09TNV4R00C","","","img/flower4.png","74","1264.2000000029802","1","1","2","0.7,0.2,0,0.7,0,0.2,0.2,0,0.7",""
"null","","html-keyboard-response","356","511509","0.0-356.0","3QIYRE09Y43E6CU0V4AGE94YDNS1NT","A2K0L9M1ZZO5C9","39KMGHJ4RZW9S7JH7DZG09TNV4R00C","","","<img src=""img/flower4.png"" style=""width:200px; border:14px solid green;"">","null","","","","","",""
"3476.0999999940395","","image-keyboard-response","357","514987","0.0-357.0","3QIYRE09Y43E6CU0V4AGE94YDNS1NT","A2K0L9M1ZZO5C9","39KMGHJ4RZW9S7JH7DZG09TNV4R00C","","","img/flower4.png","74","3477.5999999940395","1","1","2","0.7,0.2,0,0.7,0,0.2,0.2,0,0.7",""
"null","","html-keyboard-response","358","515299","0.0-358.0","3QIYRE09Y43E6CU0V4AGE94YDNS1NT","A2K0L9M1ZZO5C9","39KMGHJ4RZW9S7JH7DZG09TNV4R00C","","","<img src=""img/flower4.png"" style=""width:200px; border:14px solid green;"">","null","","","","","",""
"1631.3999999910593","","image-keyboard-response","359","516932","0.0-359.0","3QIYRE09Y43E6CU0V4AGE94YDNS1NT","A2K0L9M1ZZO5C9","39KMGHJ4RZW9S7JH7DZG09TNV4R00C","","","img/flower2.png","75","1633.300000011921","2","0","1","0.7,0.2,0,0.7,0,0.2,0.2,0,0.7",""
"null","","html-keyboard-response","360","517241","0.0-360.0","3QIYRE09Y43E6CU0V4AGE94YDNS1NT","A2K0L9M1ZZO5C9","39KMGHJ4RZW9S7JH7DZG09TNV4R00C","","","<img src=""img/flower2.png"" style=""width:200px;border:14px solid red;"">","null","","","","","",""
"1302.7999999970198","","image-keyboard-response","361","518546","0.0-361.0","3QIYRE09Y43E6CU0V4AGE94YDNS1NT","A2K0L9M1ZZO5C9","39KMGHJ4RZW9S7JH7DZG09TNV4R00C","","","img/flower6.png","76","1304.800000011921","3","0","3","0.7,0.2,0,0.7,0,0.2,0.2,0,0.7",""
"null","","html-keyboard-response","362","518856","0.0-362.0","3QIYRE09Y43E6CU0V4AGE94YDNS1NT","A2K0L9M1ZZO5C9","39KMGHJ4RZW9S7JH7DZG09TNV4R00C","","","<img src=""img/flower6.png"" style=""width:200px;border:14px solid red;"">","null","","","","","",""
"605.6999999880791","","image-keyboard-response","363","519463","0.0-363.0","3QIYRE09Y43E6CU0V4AGE94YDNS1NT","A2K0L9M1ZZO5C9","39KMGHJ4RZW9S7JH7DZG09TNV4R00C","","","img/flower6.png","76","607.5999999940395","3","1","3","0.7,0.2,0,0.7,0,0.2,0.2,0,0.7",""
"null","","html-keyboard-response","364","519766","0.0-364.0","3QIYRE09Y43E6CU0V4AGE94YDNS1NT","A2K0L9M1ZZO5C9","39KMGHJ4RZW9S7JH7DZG09TNV4R00C","","","<img src=""img/flower6.png"" style=""width:200px; border:14px solid green;"">","null","","","","","",""
"884.6999999880791","","image-keyboard-response","365","520651","0.0-365.0","3QIYRE09Y43E6CU0V4AGE94YDNS1NT","A2K0L9M1ZZO5C9","39KMGHJ4RZW9S7JH7DZG09TNV4R00C","","","img/flower6.png","76","885.5999999940395","3","1","3","0.7,0.2,0,0.7,0,0.2,0.2,0,0.7",""
"null","","html-keyboard-response","366","520954","0.0-366.0","3QIYRE09Y43E6CU0V4AGE94YDNS1NT","A2K0L9M1ZZO5C9","39KMGHJ4RZW9S7JH7DZG09TNV4R00C","","","<img src=""img/flower6.png"" style=""width:200px; border:14px solid green;"">","null","","","","","",""
"418.40000000596046","","image-keyboard-response","367","521374","0.0-367.0","3QIYRE09Y43E6CU0V4AGE94YDNS1NT","A2K0L9M1ZZO5C9","39KMGHJ4RZW9S7JH7DZG09TNV4R00C","","","img/flower6.png","76","420.09999999403954","3","1","3","0.7,0.2,0,0.7,0,0.2,0.2,0,0.7",""
"null","","html-keyboard-response","368","521676","0.0-368.0","3QIYRE09Y43E6CU0V4AGE94YDNS1NT","A2K0L9M1ZZO5C9","39KMGHJ4RZW9S7JH7DZG09TNV4R00C","","","<img src=""img/flower6.png"" style=""width:200px; border:14px solid green;"">","null","","","","","",""
"507.79999999701977","","image-keyboard-response","369","522186","0.0-369.0","3QIYRE09Y43E6CU0V4AGE94YDNS1NT","A2K0L9M1ZZO5C9","39KMGHJ4RZW9S7JH7DZG09TNV4R00C","","","img/flower6.png","76","509.30000001192093","3","1","3","0.7,0.2,0,0.7,0,0.2,0.2,0,0.7",""
"null","","html-keyboard-response","370","522491","0.0-370.0","3QIYRE09Y43E6CU0V4AGE94YDNS1NT","A2K0L9M1ZZO5C9","39KMGHJ4RZW9S7JH7DZG09TNV4R00C","","","<img src=""img/flower6.png"" style=""width:200px; border:14px solid green;"">","null","","","","","",""
"444.8999999910593","","image-keyboard-response","371","522937","0.0-371.0","3QIYRE09Y43E6CU0V4AGE94YDNS1NT","A2K0L9M1ZZO5C9","39KMGHJ4RZW9S7JH7DZG09TNV4R00C","","","img/flower6.png","76","446.6000000089407","3","0","3","0.7,0.2,0,0.7,0,0.2,0.2,0,0.7",""
"null","","html-keyboard-response","372","523245","0.0-372.0","3QIYRE09Y43E6CU0V4AGE94YDNS1NT","A2K0L9M1ZZO5C9","39KMGHJ4RZW9S7JH7DZG09TNV4R00C","","","<img src=""img/flower6.png"" style=""width:200px;border:14px solid red;"">","null","","","","","",""
"875.1000000089407","","image-keyboard-response","373","524127","0.0-373.0","3QIYRE09Y43E6CU0V4AGE94YDNS1NT","A2K0L9M1ZZO5C9","39KMGHJ4RZW9S7JH7DZG09TNV4R00C","","","img/flower2.png","75","876.4000000059605","2","0","1","0.7,0.2,0,0.7,0,0.2,0.2,0,0.7",""
"null","","html-keyboard-response","374","524444","0.0-374.0","3QIYRE09Y43E6CU0V4AGE94YDNS1NT","A2K0L9M1ZZO5C9","39KMGHJ4RZW9S7JH7DZG09TNV4R00C","","","<img src=""img/flower2.png"" style=""width:200px;border:14px solid red;"">","null","","","","","",""
"271.59999999403954","","image-keyboard-response","375","524717","0.0-375.0","3QIYRE09Y43E6CU0V4AGE94YDNS1NT","A2K0L9M1ZZO5C9","39KMGHJ4RZW9S7JH7DZG09TNV4R00C","","","img/flower2.png","75","272.90000000596046","2","0","1","0.7,0.2,0,0.7,0,0.2,0.2,0,0.7",""
"null","","html-keyboard-response","376","525023","0.0-376.0","3QIYRE09Y43E6CU0V4AGE94YDNS1NT","A2K0L9M1ZZO5C9","39KMGHJ4RZW9S7JH7DZG09TNV4R00C","","","<img src=""img/flower2.png"" style=""width:200px;border:14px solid red;"">","null","","","","","",""
"661.0999999940395","","image-keyboard-response","377","525686","0.0-377.0","3QIYRE09Y43E6CU0V4AGE94YDNS1NT","A2K0L9M1ZZO5C9","39KMGHJ4RZW9S7JH7DZG09TNV4R00C","","","img/flower6.png","74","662.7999999970198","1","1","3","0.7,0.2,0,0.7,0,0.2,0.2,0,0.7",""
"null","","html-keyboard-response","378","526002","0.0-378.0","3QIYRE09Y43E6CU0V4AGE94YDNS1NT","A2K0L9M1ZZO5C9","39KMGHJ4RZW9S7JH7DZG09TNV4R00C","","","<img src=""img/flower6.png"" style=""width:200px; border:14px solid green;"">","null","","","","","",""
"74","","image-keyboard-response","379","526078","0.0-379.0","3QIYRE09Y43E6CU0V4AGE94YDNS1NT","A2K0L9M1ZZO5C9","39KMGHJ4RZW9S7JH7DZG09TNV4R00C","","","img/flower2.png","76","75.8999999910593","3","0","1","0.7,0.2,0,0.7,0,0.2,0.2,0,0.7",""
"null","","html-keyboard-response","380","526395","0.0-380.0","3QIYRE09Y43E6CU0V4AGE94YDNS1NT","A2K0L9M1ZZO5C9","39KMGHJ4RZW9S7JH7DZG09TNV4R00C","","","<img src=""img/flower2.png"" style=""width:200px;border:14px solid red;"">","null","","","","","",""
"1035.0999999940395","","image-keyboard-response","381","527432","0.0-381.0","3QIYRE09Y43E6CU0V4AGE94YDNS1NT","A2K0L9M1ZZO5C9","39KMGHJ4RZW9S7JH7DZG09TNV4R00C","","","img/flower2.png","75","1037.2999999970198","2","0","1","0.7,0.2,0,0.7,0,0.2,0.2,0,0.7",""
"null","","html-keyboard-response","382","527743","0.0-382.0","3QIYRE09Y43E6CU0V4AGE94YDNS1NT","A2K0L9M1ZZO5C9","39KMGHJ4RZW9S7JH7DZG09TNV4R00C","","","<img src=""img/flower2.png"" style=""width:200px;border:14px solid red;"">","null","","","","","",""
"873.8000000119209","","image-keyboard-response","383","528619","0.0-383.0","3QIYRE09Y43E6CU0V4AGE94YDNS1NT","A2K0L9M1ZZO5C9","39KMGHJ4RZW9S7JH7DZG09TNV4R00C","","","img/flower4.png","74","875.7000000029802","1","1","2","0.7,0.2,0,0.7,0,0.2,0.2,0,0.7",""
"null","","html-keyboard-response","384","528924","0.0-384.0","3QIYRE09Y43E6CU0V4AGE94YDNS1NT","A2K0L9M1ZZO5C9","39KMGHJ4RZW9S7JH7DZG09TNV4R00C","","","<img src=""img/flower4.png"" style=""width:200px; border:14px solid green;"">","null","","","","","",""
"1966.3999999910593","","image-keyboard-response","385","530892","0.0-385.0","3QIYRE09Y43E6CU0V4AGE94YDNS1NT","A2K0L9M1ZZO5C9","39KMGHJ4RZW9S7JH7DZG09TNV4R00C","","","img/flower4.png","74","1967.7000000029802","1","1","2","0.7,0.2,0,0.7,0,0.2,0.2,0,0.7",""
"null","","html-keyboard-response","386","531195","0.0-386.0","3QIYRE09Y43E6CU0V4AGE94YDNS1NT","A2K0L9M1ZZO5C9","39KMGHJ4RZW9S7JH7DZG09TNV4R00C","","","<img src=""img/flower4.png"" style=""width:200px; border:14px solid green;"">","null","","","","","",""
"507.5","","image-keyboard-response","387","531703","0.0-387.0","3QIYRE09Y43E6CU0V4AGE94YDNS1NT","A2K0L9M1ZZO5C9","39KMGHJ4RZW9S7JH7DZG09TNV4R00C","","","img/flower4.png","74","508.5","1","0","2","0.7,0.2,0,0.7,0,0.2,0.2,0,0.7",""
"null","","html-keyboard-response","388","532020","0.0-388.0","3QIYRE09Y43E6CU0V4AGE94YDNS1NT","A2K0L9M1ZZO5C9","39KMGHJ4RZW9S7JH7DZG09TNV4R00C","","","<img src=""img/flower4.png"" style=""width:200px;border:14px solid red;"">","null","","","","","",""
"480.3999999910593","","image-keyboard-response","389","532502","0.0-389.0","3QIYRE09Y43E6CU0V4AGE94YDNS1NT","A2K0L9M1ZZO5C9","39KMGHJ4RZW9S7JH7DZG09TNV4R00C","","","img/flower4.png","74","482.20000000298023","1","0","2","0.7,0.2,0,0.7,0,0.2,0.2,0,0.7",""
"null","","html-keyboard-response","390","532809","0.0-390.0","3QIYRE09Y43E6CU0V4AGE94YDNS1NT","A2K0L9M1ZZO5C9","39KMGHJ4RZW9S7JH7DZG09TNV4R00C","","","<img src=""img/flower4.png"" style=""width:200px;border:14px solid red;"">","null","","","","","",""
"1267.7000000029802","","image-keyboard-response","391","534080","0.0-391.0","3QIYRE09Y43E6CU0V4AGE94YDNS1NT","A2K0L9M1ZZO5C9","39KMGHJ4RZW9S7JH7DZG09TNV4R00C","","","img/flower2.png","75","1269.9000000059605","2","0","1","0.7,0.2,0,0.7,0,0.2,0.2,0,0.7",""
"null","","html-keyboard-response","392","534396","0.0-392.0","3QIYRE09Y43E6CU0V4AGE94YDNS1NT","A2K0L9M1ZZO5C9","39KMGHJ4RZW9S7JH7DZG09TNV4R00C","","","<img src=""img/flower2.png"" style=""width:200px;border:14px solid red;"">","null","","","","","",""
"702.2000000029802","","image-keyboard-response","393","535105","0.0-393.0","3QIYRE09Y43E6CU0V4AGE94YDNS1NT","A2K0L9M1ZZO5C9","39KMGHJ4RZW9S7JH7DZG09TNV4R00C","","","img/flower4.png","76","703.2000000029802","3","1","2","0.7,0.2,0,0.7,0,0.2,0.2,0,0.7",""
"null","","html-keyboard-response","394","535411","0.0-394.0","3QIYRE09Y43E6CU0V4AGE94YDNS1NT","A2K0L9M1ZZO5C9","39KMGHJ4RZW9S7JH7DZG09TNV4R00C","","","<img src=""img/flower4.png"" style=""width:200px; border:14px solid green;"">","null","","","","","",""
"593.5999999940395","","image-keyboard-response","395","536008","0.0-395.0","3QIYRE09Y43E6CU0V4AGE94YDNS1NT","A2K0L9M1ZZO5C9","39KMGHJ4RZW9S7JH7DZG09TNV4R00C","","","img/flower2.png","76","596","3","0","1","0.7,0.2,0,0.7,0,0.2,0.2,0,0.7",""
"null","","html-keyboard-response","396","536323","0.0-396.0","3QIYRE09Y43E6CU0V4AGE94YDNS1NT","A2K0L9M1ZZO5C9","39KMGHJ4RZW9S7JH7DZG09TNV4R00C","","","<img src=""img/flower2.png"" style=""width:200px;border:14px solid red;"">","null","","","","","",""
"370.59999999403954","","image-keyboard-response","397","536696","0.0-397.0","3QIYRE09Y43E6CU0V4AGE94YDNS1NT","A2K0L9M1ZZO5C9","39KMGHJ4RZW9S7JH7DZG09TNV4R00C","","","img/flower2.png","76","372.3999999910593","3","0","1","0.7,0.2,0,0.7,0,0.2,0.2,0,0.7",""
"null","","html-keyboard-response","398","537004","0.0-398.0","3QIYRE09Y43E6CU0V4AGE94YDNS1NT","A2K0L9M1ZZO5C9","39KMGHJ4RZW9S7JH7DZG09TNV4R00C","","","<img src=""img/flower2.png"" style=""width:200px;border:14px solid red;"">","null","","","","","",""
"331.40000000596046","","image-keyboard-response","399","537337","0.0-399.0","3QIYRE09Y43E6CU0V4AGE94YDNS1NT","A2K0L9M1ZZO5C9","39KMGHJ4RZW9S7JH7DZG09TNV4R00C","","","img/flower2.png","76","333.3999999910593","3","0","1","0.7,0.2,0,0.7,0,0.2,0.2,0,0.7",""
"null","","html-keyboard-response","400","537645","0.0-400.0","3QIYRE09Y43E6CU0V4AGE94YDNS1NT","A2K0L9M1ZZO5C9","39KMGHJ4RZW9S7JH7DZG09TNV4R00C","","","<img src=""img/flower2.png"" style=""width:200px;border:14px solid red;"">","null","","","","","",""
"654.7999999970198","","image-keyboard-response","401","538301","0.0-401.0","3QIYRE09Y43E6CU0V4AGE94YDNS1NT","A2K0L9M1ZZO5C9","39KMGHJ4RZW9S7JH7DZG09TNV4R00C","","","img/flower4.png","74","655.9000000059605","1","0","2","0.7,0.2,0,0.7,0,0.2,0.2,0,0.7",""
