"rt","url","trial_type","trial_index","time_elapsed","internal_node_id","assignmentID","mturkID","hitID","success","view_history","stimulus","key_press","reactionTime","a","r","s","reward_cond","responses"
"60032","consent.html","external-html","0","60166","0.0-0.0","39RP059MEIF91SRSL0O576S7U9FBMS","A3BSK47WPPE876","33K3E8REWWHZ7MUV5T1222MGO9NX8Q","","","","","","","","","",""
"","","fullscreen","1","63666","0.0-1.0","39RP059MEIF91SRSL0O576S7U9FBMS","A3BSK47WPPE876","33K3E8REWWHZ7MUV5T1222MGO9NX8Q","true","","","","","","","","",""
"83015.30000019073","","instructions","2","146682","0.0-2.0","39RP059MEIF91SRSL0O576S7U9FBMS","A3BSK47WPPE876","33K3E8REWWHZ7MUV5T1222MGO9NX8Q","","[{""page_index"":0,""viewing_time"":4584.300000190735},{""page_index"":1,""viewing_time"":11382.300000190735},{""page_index"":2,""viewing_time"":9298.299999713898},{""page_index"":3,""viewing_time"":15455.599999904633},{""page_index"":4,""viewing_time"":9909.60000038147},{""page_index"":5,""viewing_time"":32384.699999809265}]","","","","","","","",""
"44504.2000002861","","instructions","3","191187","0.0-3.0","39RP059MEIF91SRSL0O576S7U9FBMS","A3BSK47WPPE876","33K3E8REWWHZ7MUV5T1222MGO9NX8Q","","[{""page_index"":0,""viewing_time"":44504}]","","","","","","","",""
"3054","","image-keyboard-response","4","194242","0.0-4.0","39RP059MEIF91SRSL0O576S7U9FBMS","A3BSK47WPPE876","33K3E8REWWHZ7MUV5T1222MGO9NX8Q","","","img/flower5.png","75","3055","2","1","2","",""
"null","","html-keyboard-response","5","194545","0.0-5.0","39RP059MEIF91SRSL0O576S7U9FBMS","A3BSK47WPPE876","33K3E8REWWHZ7MUV5T1222MGO9NX8Q","","","<img src=""img/flower5.png"" style=""width:200px; border:14px solid green;"">","null","","","","","",""
"1038.0999999046326","","image-keyboard-response","6","195583","0.0-6.0","39RP059MEIF91SRSL0O576S7U9FBMS","A3BSK47WPPE876","33K3E8REWWHZ7MUV5T1222MGO9NX8Q","","","img/flower4.png","74","1038.7000002861023","1","1","1","",""
"null","","html-keyboard-response","7","195887","0.0-7.0","39RP059MEIF91SRSL0O576S7U9FBMS","A3BSK47WPPE876","33K3E8REWWHZ7MUV5T1222MGO9NX8Q","","","<img src=""img/flower4.png"" style=""width:200px; border:14px solid green;"">","null","","","","","",""
"1034.7999997138977","","image-keyboard-response","8","196922","0.0-8.0","39RP059MEIF91SRSL0O576S7U9FBMS","A3BSK47WPPE876","33K3E8REWWHZ7MUV5T1222MGO9NX8Q","","","img/flower4.png","74","1035.2999997138977","1","1","1","",""
"null","","html-keyboard-response","9","197229","0.0-9.0","39RP059MEIF91SRSL0O576S7U9FBMS","A3BSK47WPPE876","33K3E8REWWHZ7MUV5T1222MGO9NX8Q","","","<img src=""img/flower4.png"" style=""width:200px; border:14px solid green;"">","null","","","","","",""
"878.6000003814697","","image-keyboard-response","10","198108","0.0-10.0","39RP059MEIF91SRSL0O576S7U9FBMS","A3BSK47WPPE876","33K3E8REWWHZ7MUV5T1222MGO9NX8Q","","","img/flower6.png","76","879.0999999046326","3","1","3","",""
"null","","html-keyboard-response","11","198416","0.0-11.0","39RP059MEIF91SRSL0O576S7U9FBMS","A3BSK47WPPE876","33K3E8REWWHZ7MUV5T1222MGO9NX8Q","","","<img src=""img/flower6.png"" style=""width:200px; border:14px solid green;"">","null","","","","","",""
"787.2000002861023","","image-keyboard-response","12","199204","0.0-12.0","39RP059MEIF91SRSL0O576S7U9FBMS","A3BSK47WPPE876","33K3E8REWWHZ7MUV5T1222MGO9NX8Q","","","img/flower4.png","74","787.8000001907349","1","0","1","",""
"null","","html-keyboard-response","13","199508","0.0-13.0","39RP059MEIF91SRSL0O576S7U9FBMS","A3BSK47WPPE876","33K3E8REWWHZ7MUV5T1222MGO9NX8Q","","","<img src=""img/flower4.png"" style=""width:200px;border:14px solid red;"">","null","","","","","",""
"713.0999999046326","","image-keyboard-response","14","200221","0.0-14.0","39RP059MEIF91SRSL0O576S7U9FBMS","A3BSK47WPPE876","33K3E8REWWHZ7MUV5T1222MGO9NX8Q","","","img/flower4.png","74","713.5999999046326","1","1","1","",""
"null","","html-keyboard-response","15","200527","0.0-15.0","39RP059MEIF91SRSL0O576S7U9FBMS","A3BSK47WPPE876","33K3E8REWWHZ7MUV5T1222MGO9NX8Q","","","<img src=""img/flower4.png"" style=""width:200px; border:14px solid green;"">","null","","","","","",""
"1188.0999999046326","","image-keyboard-response","16","201716","0.0-16.0","39RP059MEIF91SRSL0O576S7U9FBMS","A3BSK47WPPE876","33K3E8REWWHZ7MUV5T1222MGO9NX8Q","","","img/flower6.png","76","1188.7999997138977","3","1","3","",""
"null","","html-keyboard-response","17","202018","0.0-17.0","39RP059MEIF91SRSL0O576S7U9FBMS","A3BSK47WPPE876","33K3E8REWWHZ7MUV5T1222MGO9NX8Q","","","<img src=""img/flower6.png"" style=""width:200px; border:14px solid green;"">","null","","","","","",""
"1145.0999999046326","","image-keyboard-response","18","203164","0.0-18.0","39RP059MEIF91SRSL0O576S7U9FBMS","A3BSK47WPPE876","33K3E8REWWHZ7MUV5T1222MGO9NX8Q","","","img/flower5.png","75","1145.8000001907349","2","1","2","",""
"null","","html-keyboard-response","19","203472","0.0-19.0","39RP059MEIF91SRSL0O576S7U9FBMS","A3BSK47WPPE876","33K3E8REWWHZ7MUV5T1222MGO9NX8Q","","","<img src=""img/flower5.png"" style=""width:200px; border:14px solid green;"">","null","","","","","",""
"788.0999999046326","","image-keyboard-response","20","204260","0.0-20.0","39RP059MEIF91SRSL0O576S7U9FBMS","A3BSK47WPPE876","33K3E8REWWHZ7MUV5T1222MGO9NX8Q","","","img/flower4.png","74","788.7000002861023","1","0","1","",""
"null","","html-keyboard-response","21","204565","0.0-21.0","39RP059MEIF91SRSL0O576S7U9FBMS","A3BSK47WPPE876","33K3E8REWWHZ7MUV5T1222MGO9NX8Q","","","<img src=""img/flower4.png"" style=""width:200px;border:14px solid red;"">","null","","","","","",""
"1524.3999996185303","","image-keyboard-response","22","206091","0.0-22.0","39RP059MEIF91SRSL0O576S7U9FBMS","A3BSK47WPPE876","33K3E8REWWHZ7MUV5T1222MGO9NX8Q","","","img/flower5.png","75","1525.3000001907349","2","0","2","",""
"null","","html-keyboard-response","23","206395","0.0-23.0","39RP059MEIF91SRSL0O576S7U9FBMS","A3BSK47WPPE876","33K3E8REWWHZ7MUV5T1222MGO9NX8Q","","","<img src=""img/flower5.png"" style=""width:200px;border:14px solid red;"">","null","","","","","",""
"773.5","","image-keyboard-response","24","207170","0.0-24.0","39RP059MEIF91SRSL0O576S7U9FBMS","A3BSK47WPPE876","33K3E8REWWHZ7MUV5T1222MGO9NX8Q","","","img/flower6.png","76","774.1999998092651","3","1","3","",""
"null","","html-keyboard-response","25","207473","0.0-25.0","39RP059MEIF91SRSL0O576S7U9FBMS","A3BSK47WPPE876","33K3E8REWWHZ7MUV5T1222MGO9NX8Q","","","<img src=""img/flower6.png"" style=""width:200px; border:14px solid green;"">","null","","","","","",""
"2561.5999999046326","","image-keyboard-response","26","210036","0.0-26.0","39RP059MEIF91SRSL0O576S7U9FBMS","A3BSK47WPPE876","33K3E8REWWHZ7MUV5T1222MGO9NX8Q","","","img/flower5.png","75","2562.2999997138977","2","1","2","",""
"null","","html-keyboard-response","27","210344","0.0-27.0","39RP059MEIF91SRSL0O576S7U9FBMS","A3BSK47WPPE876","33K3E8REWWHZ7MUV5T1222MGO9NX8Q","","","<img src=""img/flower5.png"" style=""width:200px; border:14px solid green;"">","null","","","","","",""
"1266.6000003814697","","image-keyboard-response","28","211611","0.0-28.0","39RP059MEIF91SRSL0O576S7U9FBMS","A3BSK47WPPE876","33K3E8REWWHZ7MUV5T1222MGO9NX8Q","","","img/flower5.png","75","1267.1999998092651","2","1","2","",""
"null","","html-keyboard-response","29","211919","0.0-29.0","39RP059MEIF91SRSL0O576S7U9FBMS","A3BSK47WPPE876","33K3E8REWWHZ7MUV5T1222MGO9NX8Q","","","<img src=""img/flower5.png"" style=""width:200px; border:14px solid green;"">","null","","","","","",""
"691.3000001907349","","image-keyboard-response","30","212611","0.0-30.0","39RP059MEIF91SRSL0O576S7U9FBMS","A3BSK47WPPE876","33K3E8REWWHZ7MUV5T1222MGO9NX8Q","","","img/flower4.png","74","691.7999997138977","1","0","1","",""
"null","","html-keyboard-response","31","212915","0.0-31.0","39RP059MEIF91SRSL0O576S7U9FBMS","A3BSK47WPPE876","33K3E8REWWHZ7MUV5T1222MGO9NX8Q","","","<img src=""img/flower4.png"" style=""width:200px;border:14px solid red;"">","null","","","","","",""
"783.0999999046326","","image-keyboard-response","32","213699","0.0-32.0","39RP059MEIF91SRSL0O576S7U9FBMS","A3BSK47WPPE876","33K3E8REWWHZ7MUV5T1222MGO9NX8Q","","","img/flower6.png","76","783.9000000953674","3","0","3","",""
"null","","html-keyboard-response","33","214004","0.0-33.0","39RP059MEIF91SRSL0O576S7U9FBMS","A3BSK47WPPE876","33K3E8REWWHZ7MUV5T1222MGO9NX8Q","","","<img src=""img/flower6.png"" style=""width:200px;border:14px solid red;"">","null","","","","","",""
"902.4000000953674","","image-keyboard-response","34","214908","0.0-34.0","39RP059MEIF91SRSL0O576S7U9FBMS","A3BSK47WPPE876","33K3E8REWWHZ7MUV5T1222MGO9NX8Q","","","img/flower5.png","75","903.2999997138977","2","1","2","",""
"null","","html-keyboard-response","35","215211","0.0-35.0","39RP059MEIF91SRSL0O576S7U9FBMS","A3BSK47WPPE876","33K3E8REWWHZ7MUV5T1222MGO9NX8Q","","","<img src=""img/flower5.png"" style=""width:200px; border:14px solid green;"">","null","","","","","",""
"580.6999998092651","","image-keyboard-response","36","215793","0.0-36.0","39RP059MEIF91SRSL0O576S7U9FBMS","A3BSK47WPPE876","33K3E8REWWHZ7MUV5T1222MGO9NX8Q","","","img/flower5.png","75","581.3999996185303","2","1","2","",""
"null","","html-keyboard-response","37","216098","0.0-37.0","39RP059MEIF91SRSL0O576S7U9FBMS","A3BSK47WPPE876","33K3E8REWWHZ7MUV5T1222MGO9NX8Q","","","<img src=""img/flower5.png"" style=""width:200px; border:14px solid green;"">","null","","","","","",""
"754.4000000953674","","image-keyboard-response","38","216853","0.0-38.0","39RP059MEIF91SRSL0O576S7U9FBMS","A3BSK47WPPE876","33K3E8REWWHZ7MUV5T1222MGO9NX8Q","","","img/flower6.png","76","754.8999996185303","3","1","3","",""
"null","","html-keyboard-response","39","217158","0.0-39.0","39RP059MEIF91SRSL0O576S7U9FBMS","A3BSK47WPPE876","33K3E8REWWHZ7MUV5T1222MGO9NX8Q","","","<img src=""img/flower6.png"" style=""width:200px; border:14px solid green;"">","null","","","","","",""
"670.3000001907349","","image-keyboard-response","40","217830","0.0-40.0","39RP059MEIF91SRSL0O576S7U9FBMS","A3BSK47WPPE876","33K3E8REWWHZ7MUV5T1222MGO9NX8Q","","","img/flower6.png","76","671.5999999046326","3","1","3","",""
"null","","html-keyboard-response","41","218141","0.0-41.0","39RP059MEIF91SRSL0O576S7U9FBMS","A3BSK47WPPE876","33K3E8REWWHZ7MUV5T1222MGO9NX8Q","","","<img src=""img/flower6.png"" style=""width:200px; border:14px solid green;"">","null","","","","","",""
"774.2000002861023","","image-keyboard-response","42","218916","0.0-42.0","39RP059MEIF91SRSL0O576S7U9FBMS","A3BSK47WPPE876","33K3E8REWWHZ7MUV5T1222MGO9NX8Q","","","img/flower5.png","75","774.5999999046326","2","1","2","",""
"null","","html-keyboard-response","43","219219","0.0-43.0","39RP059MEIF91SRSL0O576S7U9FBMS","A3BSK47WPPE876","33K3E8REWWHZ7MUV5T1222MGO9NX8Q","","","<img src=""img/flower5.png"" style=""width:200px; border:14px solid green;"">","null","","","","","",""
"608","","image-keyboard-response","44","219827","0.0-44.0","39RP059MEIF91SRSL0O576S7U9FBMS","A3BSK47WPPE876","33K3E8REWWHZ7MUV5T1222MGO9NX8Q","","","img/flower5.png","75","608.5","2","1","2","",""
"null","","html-keyboard-response","45","220135","0.0-45.0","39RP059MEIF91SRSL0O576S7U9FBMS","A3BSK47WPPE876","33K3E8REWWHZ7MUV5T1222MGO9NX8Q","","","<img src=""img/flower5.png"" style=""width:200px; border:14px solid green;"">","null","","","","","",""
"727.1999998092651","","image-keyboard-response","46","220863","0.0-46.0","39RP059MEIF91SRSL0O576S7U9FBMS","A3BSK47WPPE876","33K3E8REWWHZ7MUV5T1222MGO9NX8Q","","","img/flower6.png","76","728.1000003814697","3","1","3","",""
"null","","html-keyboard-response","47","221165","0.0-47.0","39RP059MEIF91SRSL0O576S7U9FBMS","A3BSK47WPPE876","33K3E8REWWHZ7MUV5T1222MGO9NX8Q","","","<img src=""img/flower6.png"" style=""width:200px; border:14px solid green;"">","null","","","","","",""
"462.8999996185303","","image-keyboard-response","48","221629","0.0-48.0","39RP059MEIF91SRSL0O576S7U9FBMS","A3BSK47WPPE876","33K3E8REWWHZ7MUV5T1222MGO9NX8Q","","","img/flower6.png","76","463.59999990463257","3","1","3","",""
"null","","html-keyboard-response","49","221944","0.0-49.0","39RP059MEIF91SRSL0O576S7U9FBMS","A3BSK47WPPE876","33K3E8REWWHZ7MUV5T1222MGO9NX8Q","","","<img src=""img/flower6.png"" style=""width:200px; border:14px solid green;"">","null","","","","","",""
"596","","image-keyboard-response","50","222541","0.0-50.0","39RP059MEIF91SRSL0O576S7U9FBMS","A3BSK47WPPE876","33K3E8REWWHZ7MUV5T1222MGO9NX8Q","","","img/flower6.png","76","596.5999999046326","3","1","3","",""
"null","","html-keyboard-response","51","222846","0.0-51.0","39RP059MEIF91SRSL0O576S7U9FBMS","A3BSK47WPPE876","33K3E8REWWHZ7MUV5T1222MGO9NX8Q","","","<img src=""img/flower6.png"" style=""width:200px; border:14px solid green;"">","null","","","","","",""
"692.0999999046326","","image-keyboard-response","52","223539","0.0-52.0","39RP059MEIF91SRSL0O576S7U9FBMS","A3BSK47WPPE876","33K3E8REWWHZ7MUV5T1222MGO9NX8Q","","","img/flower5.png","75","692.7000002861023","2","1","2","",""
"null","","html-keyboard-response","53","223848","0.0-53.0","39RP059MEIF91SRSL0O576S7U9FBMS","A3BSK47WPPE876","33K3E8REWWHZ7MUV5T1222MGO9NX8Q","","","<img src=""img/flower5.png"" style=""width:200px; border:14px solid green;"">","null","","","","","",""
"730.5999999046326","","image-keyboard-response","54","224579","0.0-54.0","39RP059MEIF91SRSL0O576S7U9FBMS","A3BSK47WPPE876","33K3E8REWWHZ7MUV5T1222MGO9NX8Q","","","img/flower4.png","74","731","1","1","1","",""
"null","","html-keyboard-response","55","224891","0.0-55.0","39RP059MEIF91SRSL0O576S7U9FBMS","A3BSK47WPPE876","33K3E8REWWHZ7MUV5T1222MGO9NX8Q","","","<img src=""img/flower4.png"" style=""width:200px; border:14px solid green;"">","null","","","","","",""
"495.90000009536743","","image-keyboard-response","56","225388","0.0-56.0","39RP059MEIF91SRSL0O576S7U9FBMS","A3BSK47WPPE876","33K3E8REWWHZ7MUV5T1222MGO9NX8Q","","","img/flower4.png","74","496.59999990463257","1","1","1","",""
"null","","html-keyboard-response","57","225699","0.0-57.0","39RP059MEIF91SRSL0O576S7U9FBMS","A3BSK47WPPE876","33K3E8REWWHZ7MUV5T1222MGO9NX8Q","","","<img src=""img/flower4.png"" style=""width:200px; border:14px solid green;"">","null","","","","","",""
"573.9000000953674","","image-keyboard-response","58","226274","0.0-58.0","39RP059MEIF91SRSL0O576S7U9FBMS","A3BSK47WPPE876","33K3E8REWWHZ7MUV5T1222MGO9NX8Q","","","img/flower4.png","74","574.5","1","1","1","",""
"null","","html-keyboard-response","59","226588","0.0-59.0","39RP059MEIF91SRSL0O576S7U9FBMS","A3BSK47WPPE876","33K3E8REWWHZ7MUV5T1222MGO9NX8Q","","","<img src=""img/flower4.png"" style=""width:200px; border:14px solid green;"">","null","","","","","",""
"709.9000000953674","","image-keyboard-response","60","227298","0.0-60.0","39RP059MEIF91SRSL0O576S7U9FBMS","A3BSK47WPPE876","33K3E8REWWHZ7MUV5T1222MGO9NX8Q","","","img/flower6.png","76","710.5","3","1","3","",""
"null","","html-keyboard-response","61","227600","0.0-61.0","39RP059MEIF91SRSL0O576S7U9FBMS","A3BSK47WPPE876","33K3E8REWWHZ7MUV5T1222MGO9NX8Q","","","<img src=""img/flower6.png"" style=""width:200px; border:14px solid green;"">","null","","","","","",""
"701.5999999046326","","image-keyboard-response","62","228303","0.0-62.0","39RP059MEIF91SRSL0O576S7U9FBMS","A3BSK47WPPE876","33K3E8REWWHZ7MUV5T1222MGO9NX8Q","","","img/flower4.png","74","702.0999999046326","1","1","1","",""
"null","","html-keyboard-response","63","228615","0.0-63.0","39RP059MEIF91SRSL0O576S7U9FBMS","A3BSK47WPPE876","33K3E8REWWHZ7MUV5T1222MGO9NX8Q","","","<img src=""img/flower4.png"" style=""width:200px; border:14px solid green;"">","null","","","","","",""
"141659.09999990463","","instructions","64","370275","0.0-64.0","39RP059MEIF91SRSL0O576S7U9FBMS","A3BSK47WPPE876","33K3E8REWWHZ7MUV5T1222MGO9NX8Q","","[{""page_index"":0,""viewing_time"":10100.300000190735},{""page_index"":1,""viewing_time"":131558.40000009537}]","","","","","","","",""
"5130.799999713898","","image-keyboard-response","65","375407","0.0-65.0","39RP059MEIF91SRSL0O576S7U9FBMS","A3BSK47WPPE876","33K3E8REWWHZ7MUV5T1222MGO9NX8Q","","","img/flower5.png","75","5131.800000190735","2","1","2","",""
"null","","html-keyboard-response","66","375711","0.0-66.0","39RP059MEIF91SRSL0O576S7U9FBMS","A3BSK47WPPE876","33K3E8REWWHZ7MUV5T1222MGO9NX8Q","","","<img src=""img/flower5.png"" style=""width:200px; border:14px solid green;"">","null","","","","","",""
"204.80000019073486","","image-keyboard-response","67","375917","0.0-67.0","39RP059MEIF91SRSL0O576S7U9FBMS","A3BSK47WPPE876","33K3E8REWWHZ7MUV5T1222MGO9NX8Q","","","img/flower6.png","76","205.40000009536743","3","1","3","",""
"null","","html-keyboard-response","68","376227","0.0-68.0","39RP059MEIF91SRSL0O576S7U9FBMS","A3BSK47WPPE876","33K3E8REWWHZ7MUV5T1222MGO9NX8Q","","","<img src=""img/flower6.png"" style=""width:200px; border:14px solid green;"">","null","","","","","",""
"1772.8000001907349","","image-keyboard-response","69","378000","0.0-69.0","39RP059MEIF91SRSL0O576S7U9FBMS","A3BSK47WPPE876","33K3E8REWWHZ7MUV5T1222MGO9NX8Q","","","img/flower6.png","76","1773.3000001907349","3","1","3","",""
"null","","html-keyboard-response","70","378307","0.0-70.0","39RP059MEIF91SRSL0O576S7U9FBMS","A3BSK47WPPE876","33K3E8REWWHZ7MUV5T1222MGO9NX8Q","","","<img src=""img/flower6.png"" style=""width:200px; border:14px solid green;"">","null","","","","","",""
"1469.3000001907349","","image-keyboard-response","71","379777","0.0-71.0","39RP059MEIF91SRSL0O576S7U9FBMS","A3BSK47WPPE876","33K3E8REWWHZ7MUV5T1222MGO9NX8Q","","","img/flower5.png","75","1469.9000000953674","2","1","2","",""
"null","","html-keyboard-response","72","380087","0.0-72.0","39RP059MEIF91SRSL0O576S7U9FBMS","A3BSK47WPPE876","33K3E8REWWHZ7MUV5T1222MGO9NX8Q","","","<img src=""img/flower5.png"" style=""width:200px; border:14px solid green;"">","null","","","","","",""
"993.1000003814697","","image-keyboard-response","73","381081","0.0-73.0","39RP059MEIF91SRSL0O576S7U9FBMS","A3BSK47WPPE876","33K3E8REWWHZ7MUV5T1222MGO9NX8Q","","","img/flower5.png","75","993.6999998092651","2","1","2","",""
"null","","html-keyboard-response","74","381385","0.0-74.0","39RP059MEIF91SRSL0O576S7U9FBMS","A3BSK47WPPE876","33K3E8REWWHZ7MUV5T1222MGO9NX8Q","","","<img src=""img/flower5.png"" style=""width:200px; border:14px solid green;"">","null","","","","","",""
"756.7000002861023","","image-keyboard-response","75","382142","0.0-75.0","39RP059MEIF91SRSL0O576S7U9FBMS","A3BSK47WPPE876","33K3E8REWWHZ7MUV5T1222MGO9NX8Q","","","img/flower6.png","76","757.1999998092651","3","1","3","",""
"null","","html-keyboard-response","76","382453","0.0-76.0","39RP059MEIF91SRSL0O576S7U9FBMS","A3BSK47WPPE876","33K3E8REWWHZ7MUV5T1222MGO9NX8Q","","","<img src=""img/flower6.png"" style=""width:200px; border:14px solid green;"">","null","","","","","",""
"3239.6000003814697","","image-keyboard-response","77","385693","0.0-77.0","39RP059MEIF91SRSL0O576S7U9FBMS","A3BSK47WPPE876","33K3E8REWWHZ7MUV5T1222MGO9NX8Q","","","img/flower4.png","74","3240.0999999046326","1","1","1","",""
"null","","html-keyboard-response","78","386000","0.0-78.0","39RP059MEIF91SRSL0O576S7U9FBMS","A3BSK47WPPE876","33K3E8REWWHZ7MUV5T1222MGO9NX8Q","","","<img src=""img/flower4.png"" style=""width:200px; border:14px solid green;"">","null","","","","","",""
"1517.1999998092651","","image-keyboard-response","79","387518","0.0-79.0","39RP059MEIF91SRSL0O576S7U9FBMS","A3BSK47WPPE876","33K3E8REWWHZ7MUV5T1222MGO9NX8Q","","","img/flower4.png","74","1518","1","1","1","",""
"null","","html-keyboard-response","80","387821","0.0-80.0","39RP059MEIF91SRSL0O576S7U9FBMS","A3BSK47WPPE876","33K3E8REWWHZ7MUV5T1222MGO9NX8Q","","","<img src=""img/flower4.png"" style=""width:200px; border:14px solid green;"">","null","","","","","",""
"525.2000002861023","","image-keyboard-response","81","388347","0.0-81.0","39RP059MEIF91SRSL0O576S7U9FBMS","A3BSK47WPPE876","33K3E8REWWHZ7MUV5T1222MGO9NX8Q","","","img/flower4.png","75","525.7000002861023","2","1","1","",""
"null","","html-keyboard-response","82","388662","0.0-82.0","39RP059MEIF91SRSL0O576S7U9FBMS","A3BSK47WPPE876","33K3E8REWWHZ7MUV5T1222MGO9NX8Q","","","<img src=""img/flower4.png"" style=""width:200px; border:14px solid green;"">","null","","","","","",""
"841.2000002861023","","image-keyboard-response","83","389504","0.0-83.0","39RP059MEIF91SRSL0O576S7U9FBMS","A3BSK47WPPE876","33K3E8REWWHZ7MUV5T1222MGO9NX8Q","","","img/flower5.png","75","841.8000001907349","2","1","2","",""
"null","","html-keyboard-response","84","389820","0.0-84.0","39RP059MEIF91SRSL0O576S7U9FBMS","A3BSK47WPPE876","33K3E8REWWHZ7MUV5T1222MGO9NX8Q","","","<img src=""img/flower5.png"" style=""width:200px; border:14px solid green;"">","null","","","","","",""
"1722.9000000953674","","image-keyboard-response","85","391543","0.0-85.0","39RP059MEIF91SRSL0O576S7U9FBMS","A3BSK47WPPE876","33K3E8REWWHZ7MUV5T1222MGO9NX8Q","","","img/flower6.png","74","1723.3000001907349","1","1","3","",""
"null","","html-keyboard-response","86","391847","0.0-86.0","39RP059MEIF91SRSL0O576S7U9FBMS","A3BSK47WPPE876","33K3E8REWWHZ7MUV5T1222MGO9NX8Q","","","<img src=""img/flower6.png"" style=""width:200px; border:14px solid green;"">","null","","","","","",""
"804","","image-keyboard-response","87","392651","0.0-87.0","39RP059MEIF91SRSL0O576S7U9FBMS","A3BSK47WPPE876","33K3E8REWWHZ7MUV5T1222MGO9NX8Q","","","img/flower6.png","74","804.3000001907349","1","1","3","",""
"null","","html-keyboard-response","88","392959","0.0-88.0","39RP059MEIF91SRSL0O576S7U9FBMS","A3BSK47WPPE876","33K3E8REWWHZ7MUV5T1222MGO9NX8Q","","","<img src=""img/flower6.png"" style=""width:200px; border:14px solid green;"">","null","","","","","",""
"1005.5","","image-keyboard-response","89","393965","0.0-89.0","39RP059MEIF91SRSL0O576S7U9FBMS","A3BSK47WPPE876","33K3E8REWWHZ7MUV5T1222MGO9NX8Q","","","img/flower5.png","75","1006.1999998092651","2","1","2","",""
"null","","html-keyboard-response","90","394271","0.0-90.0","39RP059MEIF91SRSL0O576S7U9FBMS","A3BSK47WPPE876","33K3E8REWWHZ7MUV5T1222MGO9NX8Q","","","<img src=""img/flower5.png"" style=""width:200px; border:14px solid green;"">","null","","","","","",""
"883.5999999046326","","image-keyboard-response","91","395155","0.0-91.0","39RP059MEIF91SRSL0O576S7U9FBMS","A3BSK47WPPE876","33K3E8REWWHZ7MUV5T1222MGO9NX8Q","","","img/flower4.png","74","884.2000002861023","1","1","1","",""
"null","","html-keyboard-response","92","395457","0.0-92.0","39RP059MEIF91SRSL0O576S7U9FBMS","A3BSK47WPPE876","33K3E8REWWHZ7MUV5T1222MGO9NX8Q","","","<img src=""img/flower4.png"" style=""width:200px; border:14px solid green;"">","null","","","","","",""
"1100.3000001907349","","image-keyboard-response","93","396558","0.0-93.0","39RP059MEIF91SRSL0O576S7U9FBMS","A3BSK47WPPE876","33K3E8REWWHZ7MUV5T1222MGO9NX8Q","","","img/flower5.png","75","1100.8999996185303","2","1","2","",""
"null","","html-keyboard-response","94","396872","0.0-94.0","39RP059MEIF91SRSL0O576S7U9FBMS","A3BSK47WPPE876","33K3E8REWWHZ7MUV5T1222MGO9NX8Q","","","<img src=""img/flower5.png"" style=""width:200px; border:14px solid green;"">","null","","","","","",""
"727.2000002861023","","image-keyboard-response","95","397600","0.0-95.0","39RP059MEIF91SRSL0O576S7U9FBMS","A3BSK47WPPE876","33K3E8REWWHZ7MUV5T1222MGO9NX8Q","","","img/flower4.png","74","727.6999998092651","1","1","1","",""
"null","","html-keyboard-response","96","397913","0.0-96.0","39RP059MEIF91SRSL0O576S7U9FBMS","A3BSK47WPPE876","33K3E8REWWHZ7MUV5T1222MGO9NX8Q","","","<img src=""img/flower4.png"" style=""width:200px; border:14px solid green;"">","null","","","","","",""
"717.4000000953674","","image-keyboard-response","97","398631","0.0-97.0","39RP059MEIF91SRSL0O576S7U9FBMS","A3BSK47WPPE876","33K3E8REWWHZ7MUV5T1222MGO9NX8Q","","","img/flower6.png","76","718","3","1","3","",""
"null","","html-keyboard-response","98","398934","0.0-98.0","39RP059MEIF91SRSL0O576S7U9FBMS","A3BSK47WPPE876","33K3E8REWWHZ7MUV5T1222MGO9NX8Q","","","<img src=""img/flower6.png"" style=""width:200px; border:14px solid green;"">","null","","","","","",""
"859.8000001907349","","image-keyboard-response","99","399794","0.0-99.0","39RP059MEIF91SRSL0O576S7U9FBMS","A3BSK47WPPE876","33K3E8REWWHZ7MUV5T1222MGO9NX8Q","","","img/flower4.png","74","860.4000000953674","1","0","1","",""
"null","","html-keyboard-response","100","400102","0.0-100.0","39RP059MEIF91SRSL0O576S7U9FBMS","A3BSK47WPPE876","33K3E8REWWHZ7MUV5T1222MGO9NX8Q","","","<img src=""img/flower4.png"" style=""width:200px;border:14px solid red;"">","null","","","","","",""
"1096.4000000953674","","image-keyboard-response","101","401199","0.0-101.0","39RP059MEIF91SRSL0O576S7U9FBMS","A3BSK47WPPE876","33K3E8REWWHZ7MUV5T1222MGO9NX8Q","","","img/flower6.png","75","1097","2","0","3","",""
"null","","html-keyboard-response","102","401508","0.0-102.0","39RP059MEIF91SRSL0O576S7U9FBMS","A3BSK47WPPE876","33K3E8REWWHZ7MUV5T1222MGO9NX8Q","","","<img src=""img/flower6.png"" style=""width:200px;border:14px solid red;"">","null","","","","","",""
"646","","image-keyboard-response","103","402155","0.0-103.0","39RP059MEIF91SRSL0O576S7U9FBMS","A3BSK47WPPE876","33K3E8REWWHZ7MUV5T1222MGO9NX8Q","","","img/flower6.png","74","646.4000000953674","1","0","3","",""
"null","","html-keyboard-response","104","402462","0.0-104.0","39RP059MEIF91SRSL0O576S7U9FBMS","A3BSK47WPPE876","33K3E8REWWHZ7MUV5T1222MGO9NX8Q","","","<img src=""img/flower6.png"" style=""width:200px;border:14px solid red;"">","null","","","","","",""
"1227.6000003814697","","image-keyboard-response","105","403690","0.0-105.0","39RP059MEIF91SRSL0O576S7U9FBMS","A3BSK47WPPE876","33K3E8REWWHZ7MUV5T1222MGO9NX8Q","","","img/flower4.png","74","1228.0999999046326","1","1","1","",""
"null","","html-keyboard-response","106","404003","0.0-106.0","39RP059MEIF91SRSL0O576S7U9FBMS","A3BSK47WPPE876","33K3E8REWWHZ7MUV5T1222MGO9NX8Q","","","<img src=""img/flower4.png"" style=""width:200px; border:14px solid green;"">","null","","","","","",""
"818.1999998092651","","image-keyboard-response","107","404822","0.0-107.0","39RP059MEIF91SRSL0O576S7U9FBMS","A3BSK47WPPE876","33K3E8REWWHZ7MUV5T1222MGO9NX8Q","","","img/flower6.png","76","818.7000002861023","3","1","3","",""
"null","","html-keyboard-response","108","405138","0.0-108.0","39RP059MEIF91SRSL0O576S7U9FBMS","A3BSK47WPPE876","33K3E8REWWHZ7MUV5T1222MGO9NX8Q","","","<img src=""img/flower6.png"" style=""width:200px; border:14px solid green;"">","null","","","","","",""
"1478.3999996185303","","image-keyboard-response","109","406617","0.0-109.0","39RP059MEIF91SRSL0O576S7U9FBMS","A3BSK47WPPE876","33K3E8REWWHZ7MUV5T1222MGO9NX8Q","","","img/flower5.png","75","1479","2","0","2","",""
"null","","html-keyboard-response","110","406928","0.0-110.0","39RP059MEIF91SRSL0O576S7U9FBMS","A3BSK47WPPE876","33K3E8REWWHZ7MUV5T1222MGO9NX8Q","","","<img src=""img/flower5.png"" style=""width:200px;border:14px solid red;"">","null","","","","","",""
"1621.1999998092651","","image-keyboard-response","111","408550","0.0-111.0","39RP059MEIF91SRSL0O576S7U9FBMS","A3BSK47WPPE876","33K3E8REWWHZ7MUV5T1222MGO9NX8Q","","","img/flower4.png","74","1621.7999997138977","1","1","1","",""
"null","","html-keyboard-response","112","408857","0.0-112.0","39RP059MEIF91SRSL0O576S7U9FBMS","A3BSK47WPPE876","33K3E8REWWHZ7MUV5T1222MGO9NX8Q","","","<img src=""img/flower4.png"" style=""width:200px; border:14px solid green;"">","null","","","","","",""
"689.1999998092651","","image-keyboard-response","113","409547","0.0-113.0","39RP059MEIF91SRSL0O576S7U9FBMS","A3BSK47WPPE876","33K3E8REWWHZ7MUV5T1222MGO9NX8Q","","","img/flower6.png","76","689.7000002861023","3","0","3","",""
"null","","html-keyboard-response","114","409859","0.0-114.0","39RP059MEIF91SRSL0O576S7U9FBMS","A3BSK47WPPE876","33K3E8REWWHZ7MUV5T1222MGO9NX8Q","","","<img src=""img/flower6.png"" style=""width:200px;border:14px solid red;"">","null","","","","","",""
"1023.6999998092651","","image-keyboard-response","115","410883","0.0-115.0","39RP059MEIF91SRSL0O576S7U9FBMS","A3BSK47WPPE876","33K3E8REWWHZ7MUV5T1222MGO9NX8Q","","","img/flower4.png","74","1024.3000001907349","1","1","1","",""
"null","","html-keyboard-response","116","411197","0.0-116.0","39RP059MEIF91SRSL0O576S7U9FBMS","A3BSK47WPPE876","33K3E8REWWHZ7MUV5T1222MGO9NX8Q","","","<img src=""img/flower4.png"" style=""width:200px; border:14px solid green;"">","null","","","","","",""
"402.90000009536743","","image-keyboard-response","117","411601","0.0-117.0","39RP059MEIF91SRSL0O576S7U9FBMS","A3BSK47WPPE876","33K3E8REWWHZ7MUV5T1222MGO9NX8Q","","","img/flower4.png","74","403.5","1","1","1","",""
"null","","html-keyboard-response","118","411916","0.0-118.0","39RP059MEIF91SRSL0O576S7U9FBMS","A3BSK47WPPE876","33K3E8REWWHZ7MUV5T1222MGO9NX8Q","","","<img src=""img/flower4.png"" style=""width:200px; border:14px solid green;"">","null","","","","","",""
"982.0999999046326","","image-keyboard-response","119","412898","0.0-119.0","39RP059MEIF91SRSL0O576S7U9FBMS","A3BSK47WPPE876","33K3E8REWWHZ7MUV5T1222MGO9NX8Q","","","img/flower5.png","75","982.6999998092651","2","1","2","",""
"null","","html-keyboard-response","120","413210","0.0-120.0","39RP059MEIF91SRSL0O576S7U9FBMS","A3BSK47WPPE876","33K3E8REWWHZ7MUV5T1222MGO9NX8Q","","","<img src=""img/flower5.png"" style=""width:200px; border:14px solid green;"">","null","","","","","",""
"438.7000002861023","","image-keyboard-response","121","413649","0.0-121.0","39RP059MEIF91SRSL0O576S7U9FBMS","A3BSK47WPPE876","33K3E8REWWHZ7MUV5T1222MGO9NX8Q","","","img/flower5.png","75","439.2000002861023","2","1","2","",""
"null","","html-keyboard-response","122","413960","0.0-122.0","39RP059MEIF91SRSL0O576S7U9FBMS","A3BSK47WPPE876","33K3E8REWWHZ7MUV5T1222MGO9NX8Q","","","<img src=""img/flower5.png"" style=""width:200px; border:14px solid green;"">","null","","","","","",""
"481","","image-keyboard-response","123","414441","0.0-123.0","39RP059MEIF91SRSL0O576S7U9FBMS","A3BSK47WPPE876","33K3E8REWWHZ7MUV5T1222MGO9NX8Q","","","img/flower5.png","75","481.5","2","1","2","",""
"null","","html-keyboard-response","124","414756","0.0-124.0","39RP059MEIF91SRSL0O576S7U9FBMS","A3BSK47WPPE876","33K3E8REWWHZ7MUV5T1222MGO9NX8Q","","","<img src=""img/flower5.png"" style=""width:200px; border:14px solid green;"">","null","","","","","",""
"2792.4000000953674","","instructions","125","417549","0.0-125.0","39RP059MEIF91SRSL0O576S7U9FBMS","A3BSK47WPPE876","33K3E8REWWHZ7MUV5T1222MGO9NX8Q","","[{""page_index"":0,""viewing_time"":2792.199999809265}]","","","","","","","",""
"2459","","image-keyboard-response","126","420009","0.0-126.0","39RP059MEIF91SRSL0O576S7U9FBMS","A3BSK47WPPE876","33K3E8REWWHZ7MUV5T1222MGO9NX8Q","","","img/flower4.png","74","2459.7000002861023","1","0","3","0.7,0.2,0,0,0.7,0.2,0.2,0,0.7",""
"null","","html-keyboard-response","127","420323","0.0-127.0","39RP059MEIF91SRSL0O576S7U9FBMS","A3BSK47WPPE876","33K3E8REWWHZ7MUV5T1222MGO9NX8Q","","","<img src=""img/flower4.png"" style=""width:200px;border:14px solid red;"">","null","","","","","",""
"3095.9000000953674","","image-keyboard-response","128","423420","0.0-128.0","39RP059MEIF91SRSL0O576S7U9FBMS","A3BSK47WPPE876","33K3E8REWWHZ7MUV5T1222MGO9NX8Q","","","img/flower1.png","75","3096.2999997138977","2","0","1","0.7,0.2,0,0,0.7,0.2,0.2,0,0.7",""
"null","","html-keyboard-response","129","423726","0.0-129.0","39RP059MEIF91SRSL0O576S7U9FBMS","A3BSK47WPPE876","33K3E8REWWHZ7MUV5T1222MGO9NX8Q","","","<img src=""img/flower1.png"" style=""width:200px;border:14px solid red;"">","null","","","","","",""
"802.7000002861023","","image-keyboard-response","130","424529","0.0-130.0","39RP059MEIF91SRSL0O576S7U9FBMS","A3BSK47WPPE876","33K3E8REWWHZ7MUV5T1222MGO9NX8Q","","","img/flower4.png","74","803.1999998092651","1","0","3","0.7,0.2,0,0,0.7,0.2,0.2,0,0.7",""
"null","","html-keyboard-response","131","424833","0.0-131.0","39RP059MEIF91SRSL0O576S7U9FBMS","A3BSK47WPPE876","33K3E8REWWHZ7MUV5T1222MGO9NX8Q","","","<img src=""img/flower4.png"" style=""width:200px;border:14px solid red;"">","null","","","","","",""
"931.4000000953674","","image-keyboard-response","132","425765","0.0-132.0","39RP059MEIF91SRSL0O576S7U9FBMS","A3BSK47WPPE876","33K3E8REWWHZ7MUV5T1222MGO9NX8Q","","","img/flower1.png","75","932.1000003814697","2","0","1","0.7,0.2,0,0,0.7,0.2,0.2,0,0.7",""
"null","","html-keyboard-response","133","426066","0.0-133.0","39RP059MEIF91SRSL0O576S7U9FBMS","A3BSK47WPPE876","33K3E8REWWHZ7MUV5T1222MGO9NX8Q","","","<img src=""img/flower1.png"" style=""width:200px;border:14px solid red;"">","null","","","","","",""
"782.6000003814697","","image-keyboard-response","134","426849","0.0-134.0","39RP059MEIF91SRSL0O576S7U9FBMS","A3BSK47WPPE876","33K3E8REWWHZ7MUV5T1222MGO9NX8Q","","","img/flower2.png","76","783.0999999046326","3","1","2","0.7,0.2,0,0,0.7,0.2,0.2,0,0.7",""
"null","","html-keyboard-response","135","427153","0.0-135.0","39RP059MEIF91SRSL0O576S7U9FBMS","A3BSK47WPPE876","33K3E8REWWHZ7MUV5T1222MGO9NX8Q","","","<img src=""img/flower2.png"" style=""width:200px; border:14px solid green;"">","null","","","","","",""
"1531.4000000953674","","image-keyboard-response","136","428686","0.0-136.0","39RP059MEIF91SRSL0O576S7U9FBMS","A3BSK47WPPE876","33K3E8REWWHZ7MUV5T1222MGO9NX8Q","","","img/flower4.png","75","1531.9000000953674","2","0","3","0.7,0.2,0,0,0.7,0.2,0.2,0,0.7",""
"null","","html-keyboard-response","137","428997","0.0-137.0","39RP059MEIF91SRSL0O576S7U9FBMS","A3BSK47WPPE876","33K3E8REWWHZ7MUV5T1222MGO9NX8Q","","","<img src=""img/flower4.png"" style=""width:200px;border:14px solid red;"">","null","","","","","",""
"1538.6999998092651","","image-keyboard-response","138","430537","0.0-138.0","39RP059MEIF91SRSL0O576S7U9FBMS","A3BSK47WPPE876","33K3E8REWWHZ7MUV5T1222MGO9NX8Q","","","img/flower2.png","75","1539.2999997138977","2","1","2","0.7,0.2,0,0,0.7,0.2,0.2,0,0.7",""
"null","","html-keyboard-response","139","430849","0.0-139.0","39RP059MEIF91SRSL0O576S7U9FBMS","A3BSK47WPPE876","33K3E8REWWHZ7MUV5T1222MGO9NX8Q","","","<img src=""img/flower2.png"" style=""width:200px; border:14px solid green;"">","null","","","","","",""
"2332.5999999046326","","image-keyboard-response","140","433182","0.0-140.0","39RP059MEIF91SRSL0O576S7U9FBMS","A3BSK47WPPE876","33K3E8REWWHZ7MUV5T1222MGO9NX8Q","","","img/flower4.png","74","2333.0999999046326","1","0","3","0.7,0.2,0,0,0.7,0.2,0.2,0,0.7",""
"null","","html-keyboard-response","141","433492","0.0-141.0","39RP059MEIF91SRSL0O576S7U9FBMS","A3BSK47WPPE876","33K3E8REWWHZ7MUV5T1222MGO9NX8Q","","","<img src=""img/flower4.png"" style=""width:200px;border:14px solid red;"">","null","","","","","",""
"993.4000000953674","","image-keyboard-response","142","434486","0.0-142.0","39RP059MEIF91SRSL0O576S7U9FBMS","A3BSK47WPPE876","33K3E8REWWHZ7MUV5T1222MGO9NX8Q","","","img/flower1.png","75","994","2","1","1","0.7,0.2,0,0,0.7,0.2,0.2,0,0.7",""
"null","","html-keyboard-response","143","434797","0.0-143.0","39RP059MEIF91SRSL0O576S7U9FBMS","A3BSK47WPPE876","33K3E8REWWHZ7MUV5T1222MGO9NX8Q","","","<img src=""img/flower1.png"" style=""width:200px; border:14px solid green;"">","null","","","","","",""
"2459.8999996185303","","image-keyboard-response","144","437258","0.0-144.0","39RP059MEIF91SRSL0O576S7U9FBMS","A3BSK47WPPE876","33K3E8REWWHZ7MUV5T1222MGO9NX8Q","","","img/flower4.png","76","2460.5999999046326","3","1","3","0.7,0.2,0,0,0.7,0.2,0.2,0,0.7",""
"null","","html-keyboard-response","145","437569","0.0-145.0","39RP059MEIF91SRSL0O576S7U9FBMS","A3BSK47WPPE876","33K3E8REWWHZ7MUV5T1222MGO9NX8Q","","","<img src=""img/flower4.png"" style=""width:200px; border:14px solid green;"">","null","","","","","",""
"677.6000003814697","","image-keyboard-response","146","438247","0.0-146.0","39RP059MEIF91SRSL0O576S7U9FBMS","A3BSK47WPPE876","33K3E8REWWHZ7MUV5T1222MGO9NX8Q","","","img/flower2.png","76","678","3","0","2","0.7,0.2,0,0,0.7,0.2,0.2,0,0.7",""
"null","","html-keyboard-response","147","438551","0.0-147.0","39RP059MEIF91SRSL0O576S7U9FBMS","A3BSK47WPPE876","33K3E8REWWHZ7MUV5T1222MGO9NX8Q","","","<img src=""img/flower2.png"" style=""width:200px;border:14px solid red;"">","null","","","","","",""
"898.7999997138977","","image-keyboard-response","148","439451","0.0-148.0","39RP059MEIF91SRSL0O576S7U9FBMS","A3BSK47WPPE876","33K3E8REWWHZ7MUV5T1222MGO9NX8Q","","","img/flower1.png","75","899.4000000953674","2","0","1","0.7,0.2,0,0,0.7,0.2,0.2,0,0.7",""
"null","","html-keyboard-response","149","439761","0.0-149.0","39RP059MEIF91SRSL0O576S7U9FBMS","A3BSK47WPPE876","33K3E8REWWHZ7MUV5T1222MGO9NX8Q","","","<img src=""img/flower1.png"" style=""width:200px;border:14px solid red;"">","null","","","","","",""
"940.5999999046326","","image-keyboard-response","150","440702","0.0-150.0","39RP059MEIF91SRSL0O576S7U9FBMS","A3BSK47WPPE876","33K3E8REWWHZ7MUV5T1222MGO9NX8Q","","","img/flower4.png","76","941.0999999046326","3","1","3","0.7,0.2,0,0,0.7,0.2,0.2,0,0.7",""
"null","","html-keyboard-response","151","441012","0.0-151.0","39RP059MEIF91SRSL0O576S7U9FBMS","A3BSK47WPPE876","33K3E8REWWHZ7MUV5T1222MGO9NX8Q","","","<img src=""img/flower4.png"" style=""width:200px; border:14px solid green;"">","null","","","","","",""
"596.5999999046326","","image-keyboard-response","152","441609","0.0-152.0","39RP059MEIF91SRSL0O576S7U9FBMS","A3BSK47WPPE876","33K3E8REWWHZ7MUV5T1222MGO9NX8Q","","","img/flower4.png","76","597.1999998092651","3","1","3","0.7,0.2,0,0,0.7,0.2,0.2,0,0.7",""
"null","","html-keyboard-response","153","441920","0.0-153.0","39RP059MEIF91SRSL0O576S7U9FBMS","A3BSK47WPPE876","33K3E8REWWHZ7MUV5T1222MGO9NX8Q","","","<img src=""img/flower4.png"" style=""width:200px; border:14px solid green;"">","null","","","","","",""
"1415.3000001907349","","image-keyboard-response","154","443335","0.0-154.0","39RP059MEIF91SRSL0O576S7U9FBMS","A3BSK47WPPE876","33K3E8REWWHZ7MUV5T1222MGO9NX8Q","","","img/flower2.png","75","1415.8999996185303","2","1","2","0.7,0.2,0,0,0.7,0.2,0.2,0,0.7",""
"null","","html-keyboard-response","155","443645","0.0-155.0","39RP059MEIF91SRSL0O576S7U9FBMS","A3BSK47WPPE876","33K3E8REWWHZ7MUV5T1222MGO9NX8Q","","","<img src=""img/flower2.png"" style=""width:200px; border:14px solid green;"">","null","","","","","",""
"563.6999998092651","","image-keyboard-response","156","444210","0.0-156.0","39RP059MEIF91SRSL0O576S7U9FBMS","A3BSK47WPPE876","33K3E8REWWHZ7MUV5T1222MGO9NX8Q","","","img/flower2.png","75","564.4000000953674","2","1","2","0.7,0.2,0,0,0.7,0.2,0.2,0,0.7",""
"null","","html-keyboard-response","157","444520","0.0-157.0","39RP059MEIF91SRSL0O576S7U9FBMS","A3BSK47WPPE876","33K3E8REWWHZ7MUV5T1222MGO9NX8Q","","","<img src=""img/flower2.png"" style=""width:200px; border:14px solid green;"">","null","","","","","",""
"520.5999999046326","","image-keyboard-response","158","445041","0.0-158.0","39RP059MEIF91SRSL0O576S7U9FBMS","A3BSK47WPPE876","33K3E8REWWHZ7MUV5T1222MGO9NX8Q","","","img/flower2.png","75","521.4000000953674","2","1","2","0.7,0.2,0,0,0.7,0.2,0.2,0,0.7",""
"null","","html-keyboard-response","159","445347","0.0-159.0","39RP059MEIF91SRSL0O576S7U9FBMS","A3BSK47WPPE876","33K3E8REWWHZ7MUV5T1222MGO9NX8Q","","","<img src=""img/flower2.png"" style=""width:200px; border:14px solid green;"">","null","","","","","",""
"555.2000002861023","","image-keyboard-response","160","445903","0.0-160.0","39RP059MEIF91SRSL0O576S7U9FBMS","A3BSK47WPPE876","33K3E8REWWHZ7MUV5T1222MGO9NX8Q","","","img/flower2.png","75","555.5999999046326","2","1","2","0.7,0.2,0,0,0.7,0.2,0.2,0,0.7",""
"null","","html-keyboard-response","161","446207","0.0-161.0","39RP059MEIF91SRSL0O576S7U9FBMS","A3BSK47WPPE876","33K3E8REWWHZ7MUV5T1222MGO9NX8Q","","","<img src=""img/flower2.png"" style=""width:200px; border:14px solid green;"">","null","","","","","",""
"745.4000000953674","","image-keyboard-response","162","446953","0.0-162.0","39RP059MEIF91SRSL0O576S7U9FBMS","A3BSK47WPPE876","33K3E8REWWHZ7MUV5T1222MGO9NX8Q","","","img/flower4.png","76","746.0999999046326","3","1","3","0.7,0.2,0,0,0.7,0.2,0.2,0,0.7",""
"null","","html-keyboard-response","163","447267","0.0-163.0","39RP059MEIF91SRSL0O576S7U9FBMS","A3BSK47WPPE876","33K3E8REWWHZ7MUV5T1222MGO9NX8Q","","","<img src=""img/flower4.png"" style=""width:200px; border:14px solid green;"">","null","","","","","",""
"455.59999990463257","","image-keyboard-response","164","447723","0.0-164.0","39RP059MEIF91SRSL0O576S7U9FBMS","A3BSK47WPPE876","33K3E8REWWHZ7MUV5T1222MGO9NX8Q","","","img/flower4.png","76","456.09999990463257","3","0","3","0.7,0.2,0,0,0.7,0.2,0.2,0,0.7",""
"null","","html-keyboard-response","165","448030","0.0-165.0","39RP059MEIF91SRSL0O576S7U9FBMS","A3BSK47WPPE876","33K3E8REWWHZ7MUV5T1222MGO9NX8Q","","","<img src=""img/flower4.png"" style=""width:200px;border:14px solid red;"">","null","","","","","",""
"966.0999999046326","","image-keyboard-response","166","448997","0.0-166.0","39RP059MEIF91SRSL0O576S7U9FBMS","A3BSK47WPPE876","33K3E8REWWHZ7MUV5T1222MGO9NX8Q","","","img/flower2.png","75","966.6999998092651","2","0","2","0.7,0.2,0,0,0.7,0.2,0.2,0,0.7",""
"null","","html-keyboard-response","167","449306","0.0-167.0","39RP059MEIF91SRSL0O576S7U9FBMS","A3BSK47WPPE876","33K3E8REWWHZ7MUV5T1222MGO9NX8Q","","","<img src=""img/flower2.png"" style=""width:200px;border:14px solid red;"">","null","","","","","",""
"917","","image-keyboard-response","168","450224","0.0-168.0","39RP059MEIF91SRSL0O576S7U9FBMS","A3BSK47WPPE876","33K3E8REWWHZ7MUV5T1222MGO9NX8Q","","","img/flower2.png","74","917.5","1","0","2","0.7,0.2,0,0,0.7,0.2,0.2,0,0.7",""
"null","","html-keyboard-response","169","450525","0.0-169.0","39RP059MEIF91SRSL0O576S7U9FBMS","A3BSK47WPPE876","33K3E8REWWHZ7MUV5T1222MGO9NX8Q","","","<img src=""img/flower2.png"" style=""width:200px;border:14px solid red;"">","null","","","","","",""
"843.3000001907349","","image-keyboard-response","170","451369","0.0-170.0","39RP059MEIF91SRSL0O576S7U9FBMS","A3BSK47WPPE876","33K3E8REWWHZ7MUV5T1222MGO9NX8Q","","","img/flower4.png","76","843.8999996185303","3","1","3","0.7,0.2,0,0,0.7,0.2,0.2,0,0.7",""
"null","","html-keyboard-response","171","451678","0.0-171.0","39RP059MEIF91SRSL0O576S7U9FBMS","A3BSK47WPPE876","33K3E8REWWHZ7MUV5T1222MGO9NX8Q","","","<img src=""img/flower4.png"" style=""width:200px; border:14px solid green;"">","null","","","","","",""
"811.5","","image-keyboard-response","172","452491","0.0-172.0","39RP059MEIF91SRSL0O576S7U9FBMS","A3BSK47WPPE876","33K3E8REWWHZ7MUV5T1222MGO9NX8Q","","","img/flower2.png","76","812","3","0","2","0.7,0.2,0,0,0.7,0.2,0.2,0,0.7",""
"null","","html-keyboard-response","173","452805","0.0-173.0","39RP059MEIF91SRSL0O576S7U9FBMS","A3BSK47WPPE876","33K3E8REWWHZ7MUV5T1222MGO9NX8Q","","","<img src=""img/flower2.png"" style=""width:200px;border:14px solid red;"">","null","","","","","",""
"3685.5","","image-keyboard-response","174","456491","0.0-174.0","39RP059MEIF91SRSL0O576S7U9FBMS","A3BSK47WPPE876","33K3E8REWWHZ7MUV5T1222MGO9NX8Q","","","img/flower1.png","75","3686","2","1","1","0.7,0.2,0,0,0.7,0.2,0.2,0,0.7",""
"null","","html-keyboard-response","175","456800","0.0-175.0","39RP059MEIF91SRSL0O576S7U9FBMS","A3BSK47WPPE876","33K3E8REWWHZ7MUV5T1222MGO9NX8Q","","","<img src=""img/flower1.png"" style=""width:200px; border:14px solid green;"">","null","","","","","",""
"1473.4000000953674","","image-keyboard-response","176","458274","0.0-176.0","39RP059MEIF91SRSL0O576S7U9FBMS","A3BSK47WPPE876","33K3E8REWWHZ7MUV5T1222MGO9NX8Q","","","img/flower2.png","75","1473.9000000953674","2","0","2","0.7,0.2,0,0,0.7,0.2,0.2,0,0.7",""
"null","","html-keyboard-response","177","458575","0.0-177.0","39RP059MEIF91SRSL0O576S7U9FBMS","A3BSK47WPPE876","33K3E8REWWHZ7MUV5T1222MGO9NX8Q","","","<img src=""img/flower2.png"" style=""width:200px;border:14px solid red;"">","null","","","","","",""
"873.4000000953674","","image-keyboard-response","178","459449","0.0-178.0","39RP059MEIF91SRSL0O576S7U9FBMS","A3BSK47WPPE876","33K3E8REWWHZ7MUV5T1222MGO9NX8Q","","","img/flower1.png","75","874","2","0","1","0.7,0.2,0,0,0.7,0.2,0.2,0,0.7",""
"null","","html-keyboard-response","179","459760","0.0-179.0","39RP059MEIF91SRSL0O576S7U9FBMS","A3BSK47WPPE876","33K3E8REWWHZ7MUV5T1222MGO9NX8Q","","","<img src=""img/flower1.png"" style=""width:200px;border:14px solid red;"">","null","","","","","",""
"745.1999998092651","","image-keyboard-response","180","460506","0.0-180.0","39RP059MEIF91SRSL0O576S7U9FBMS","A3BSK47WPPE876","33K3E8REWWHZ7MUV5T1222MGO9NX8Q","","","img/flower2.png","76","745.7999997138977","3","0","2","0.7,0.2,0,0,0.7,0.2,0.2,0,0.7",""
"null","","html-keyboard-response","181","460820","0.0-181.0","39RP059MEIF91SRSL0O576S7U9FBMS","A3BSK47WPPE876","33K3E8REWWHZ7MUV5T1222MGO9NX8Q","","","<img src=""img/flower2.png"" style=""width:200px;border:14px solid red;"">","null","","","","","",""
"812.2000002861023","","image-keyboard-response","182","461632","0.0-182.0","39RP059MEIF91SRSL0O576S7U9FBMS","A3BSK47WPPE876","33K3E8REWWHZ7MUV5T1222MGO9NX8Q","","","img/flower4.png","74","812.5999999046326","1","0","3","0.7,0.2,0,0,0.7,0.2,0.2,0,0.7",""
"null","","html-keyboard-response","183","461933","0.0-183.0","39RP059MEIF91SRSL0O576S7U9FBMS","A3BSK47WPPE876","33K3E8REWWHZ7MUV5T1222MGO9NX8Q","","","<img src=""img/flower4.png"" style=""width:200px;border:14px solid red;"">","null","","","","","",""
"762.5999999046326","","image-keyboard-response","184","462697","0.0-184.0","39RP059MEIF91SRSL0O576S7U9FBMS","A3BSK47WPPE876","33K3E8REWWHZ7MUV5T1222MGO9NX8Q","","","img/flower1.png","74","763.2000002861023","1","1","1","0.7,0.2,0,0,0.7,0.2,0.2,0,0.7",""
"null","","html-keyboard-response","185","463006","0.0-185.0","39RP059MEIF91SRSL0O576S7U9FBMS","A3BSK47WPPE876","33K3E8REWWHZ7MUV5T1222MGO9NX8Q","","","<img src=""img/flower1.png"" style=""width:200px; border:14px solid green;"">","null","","","","","",""
"870.6999998092651","","image-keyboard-response","186","463878","0.0-186.0","39RP059MEIF91SRSL0O576S7U9FBMS","A3BSK47WPPE876","33K3E8REWWHZ7MUV5T1222MGO9NX8Q","","","img/flower4.png","76","871.3000001907349","3","0","3","0.7,0.2,0,0,0.7,0.2,0.2,0,0.7",""
"null","","html-keyboard-response","187","464184","0.0-187.0","39RP059MEIF91SRSL0O576S7U9FBMS","A3BSK47WPPE876","33K3E8REWWHZ7MUV5T1222MGO9NX8Q","","","<img src=""img/flower4.png"" style=""width:200px;border:14px solid red;"">","null","","","","","",""
"733.7999997138977","","image-keyboard-response","188","464918","0.0-188.0","39RP059MEIF91SRSL0O576S7U9FBMS","A3BSK47WPPE876","33K3E8REWWHZ7MUV5T1222MGO9NX8Q","","","img/flower4.png","75","734.4000000953674","2","0","3","0.7,0.2,0,0,0.7,0.2,0.2,0,0.7",""
"null","","html-keyboard-response","189","465222","0.0-189.0","39RP059MEIF91SRSL0O576S7U9FBMS","A3BSK47WPPE876","33K3E8REWWHZ7MUV5T1222MGO9NX8Q","","","<img src=""img/flower4.png"" style=""width:200px;border:14px solid red;"">","null","","","","","",""
"1210.1999998092651","","image-keyboard-response","190","466432","0.0-190.0","39RP059MEIF91SRSL0O576S7U9FBMS","A3BSK47WPPE876","33K3E8REWWHZ7MUV5T1222MGO9NX8Q","","","img/flower1.png","74","1210.6999998092651","1","1","1","0.7,0.2,0,0,0.7,0.2,0.2,0,0.7",""
"null","","html-keyboard-response","191","466747","0.0-191.0","39RP059MEIF91SRSL0O576S7U9FBMS","A3BSK47WPPE876","33K3E8REWWHZ7MUV5T1222MGO9NX8Q","","","<img src=""img/flower1.png"" style=""width:200px; border:14px solid green;"">","null","","","","","",""
"763.6999998092651","","image-keyboard-response","192","467512","0.0-192.0","39RP059MEIF91SRSL0O576S7U9FBMS","A3BSK47WPPE876","33K3E8REWWHZ7MUV5T1222MGO9NX8Q","","","img/flower1.png","74","764.4000000953674","1","1","1","0.7,0.2,0,0,0.7,0.2,0.2,0,0.7",""
"null","","html-keyboard-response","193","467824","0.0-193.0","39RP059MEIF91SRSL0O576S7U9FBMS","A3BSK47WPPE876","33K3E8REWWHZ7MUV5T1222MGO9NX8Q","","","<img src=""img/flower1.png"" style=""width:200px; border:14px solid green;"">","null","","","","","",""
"950.3999996185303","","image-keyboard-response","194","468775","0.0-194.0","39RP059MEIF91SRSL0O576S7U9FBMS","A3BSK47WPPE876","33K3E8REWWHZ7MUV5T1222MGO9NX8Q","","","img/flower2.png","76","951","3","0","2","0.7,0.2,0,0,0.7,0.2,0.2,0,0.7",""
"null","","html-keyboard-response","195","469084","0.0-195.0","39RP059MEIF91SRSL0O576S7U9FBMS","A3BSK47WPPE876","33K3E8REWWHZ7MUV5T1222MGO9NX8Q","","","<img src=""img/flower2.png"" style=""width:200px;border:14px solid red;"">","null","","","","","",""
"783","","image-keyboard-response","196","469868","0.0-196.0","39RP059MEIF91SRSL0O576S7U9FBMS","A3BSK47WPPE876","33K3E8REWWHZ7MUV5T1222MGO9NX8Q","","","img/flower2.png","75","783.5999999046326","2","1","2","0.7,0.2,0,0,0.7,0.2,0.2,0,0.7",""
"null","","html-keyboard-response","197","470180","0.0-197.0","39RP059MEIF91SRSL0O576S7U9FBMS","A3BSK47WPPE876","33K3E8REWWHZ7MUV5T1222MGO9NX8Q","","","<img src=""img/flower2.png"" style=""width:200px; border:14px solid green;"">","null","","","","","",""
"954.3999996185303","","image-keyboard-response","198","471135","0.0-198.0","39RP059MEIF91SRSL0O576S7U9FBMS","A3BSK47WPPE876","33K3E8REWWHZ7MUV5T1222MGO9NX8Q","","","img/flower1.png","74","955","1","1","1","0.7,0.2,0,0,0.7,0.2,0.2,0,0.7",""
"null","","html-keyboard-response","199","471442","0.0-199.0","39RP059MEIF91SRSL0O576S7U9FBMS","A3BSK47WPPE876","33K3E8REWWHZ7MUV5T1222MGO9NX8Q","","","<img src=""img/flower1.png"" style=""width:200px; border:14px solid green;"">","null","","","","","",""
"508","","image-keyboard-response","200","471950","0.0-200.0","39RP059MEIF91SRSL0O576S7U9FBMS","A3BSK47WPPE876","33K3E8REWWHZ7MUV5T1222MGO9NX8Q","","","img/flower1.png","74","508.6000003814697","1","0","1","0.7,0.2,0,0,0.7,0.2,0.2,0,0.7",""
"null","","html-keyboard-response","201","472263","0.0-201.0","39RP059MEIF91SRSL0O576S7U9FBMS","A3BSK47WPPE876","33K3E8REWWHZ7MUV5T1222MGO9NX8Q","","","<img src=""img/flower1.png"" style=""width:200px;border:14px solid red;"">","null","","","","","",""
"619.5","","image-keyboard-response","202","472883","0.0-202.0","39RP059MEIF91SRSL0O576S7U9FBMS","A3BSK47WPPE876","33K3E8REWWHZ7MUV5T1222MGO9NX8Q","","","img/flower2.png","75","620.0999999046326","2","1","2","0.7,0.2,0,0,0.7,0.2,0.2,0,0.7",""
"null","","html-keyboard-response","203","473185","0.0-203.0","39RP059MEIF91SRSL0O576S7U9FBMS","A3BSK47WPPE876","33K3E8REWWHZ7MUV5T1222MGO9NX8Q","","","<img src=""img/flower2.png"" style=""width:200px; border:14px solid green;"">","null","","","","","",""
"1103.4000000953674","","image-keyboard-response","204","474289","0.0-204.0","39RP059MEIF91SRSL0O576S7U9FBMS","A3BSK47WPPE876","33K3E8REWWHZ7MUV5T1222MGO9NX8Q","","","img/flower4.png","76","1103.9000000953674","3","1","3","0.7,0.2,0,0,0.7,0.2,0.2,0,0.7",""
"null","","html-keyboard-response","205","474604","0.0-205.0","39RP059MEIF91SRSL0O576S7U9FBMS","A3BSK47WPPE876","33K3E8REWWHZ7MUV5T1222MGO9NX8Q","","","<img src=""img/flower4.png"" style=""width:200px; border:14px solid green;"">","null","","","","","",""
"698.0999999046326","","image-keyboard-response","206","475303","0.0-206.0","39RP059MEIF91SRSL0O576S7U9FBMS","A3BSK47WPPE876","33K3E8REWWHZ7MUV5T1222MGO9NX8Q","","","img/flower2.png","75","698.6999998092651","2","1","2","0.7,0.2,0,0,0.7,0.2,0.2,0,0.7",""
"null","","html-keyboard-response","207","475605","0.0-207.0","39RP059MEIF91SRSL0O576S7U9FBMS","A3BSK47WPPE876","33K3E8REWWHZ7MUV5T1222MGO9NX8Q","","","<img src=""img/flower2.png"" style=""width:200px; border:14px solid green;"">","null","","","","","",""
"712.6999998092651","","image-keyboard-response","208","476319","0.0-208.0","39RP059MEIF91SRSL0O576S7U9FBMS","A3BSK47WPPE876","33K3E8REWWHZ7MUV5T1222MGO9NX8Q","","","img/flower4.png","76","713.1999998092651","3","1","3","0.7,0.2,0,0,0.7,0.2,0.2,0,0.7",""
"null","","html-keyboard-response","209","476624","0.0-209.0","39RP059MEIF91SRSL0O576S7U9FBMS","A3BSK47WPPE876","33K3E8REWWHZ7MUV5T1222MGO9NX8Q","","","<img src=""img/flower4.png"" style=""width:200px; border:14px solid green;"">","null","","","","","",""
"677.7000002861023","","image-keyboard-response","210","477302","0.0-210.0","39RP059MEIF91SRSL0O576S7U9FBMS","A3BSK47WPPE876","33K3E8REWWHZ7MUV5T1222MGO9NX8Q","","","img/flower4.png","76","678.1999998092651","3","0","3","0.7,0.2,0,0,0.7,0.2,0.2,0,0.7",""
"null","","html-keyboard-response","211","477605","0.0-211.0","39RP059MEIF91SRSL0O576S7U9FBMS","A3BSK47WPPE876","33K3E8REWWHZ7MUV5T1222MGO9NX8Q","","","<img src=""img/flower4.png"" style=""width:200px;border:14px solid red;"">","null","","","","","",""
"882.5","","image-keyboard-response","212","478488","0.0-212.0","39RP059MEIF91SRSL0O576S7U9FBMS","A3BSK47WPPE876","33K3E8REWWHZ7MUV5T1222MGO9NX8Q","","","img/flower1.png","74","883.0999999046326","1","1","1","0.7,0.2,0,0,0.7,0.2,0.2,0,0.7",""
"null","","html-keyboard-response","213","478793","0.0-213.0","39RP059MEIF91SRSL0O576S7U9FBMS","A3BSK47WPPE876","33K3E8REWWHZ7MUV5T1222MGO9NX8Q","","","<img src=""img/flower1.png"" style=""width:200px; border:14px solid green;"">","null","","","","","",""
"995.5999999046326","","image-keyboard-response","214","479790","0.0-214.0","39RP059MEIF91SRSL0O576S7U9FBMS","A3BSK47WPPE876","33K3E8REWWHZ7MUV5T1222MGO9NX8Q","","","img/flower4.png","76","996.1999998092651","3","1","3","0.7,0.2,0,0,0.7,0.2,0.2,0,0.7",""
"null","","html-keyboard-response","215","480103","0.0-215.0","39RP059MEIF91SRSL0O576S7U9FBMS","A3BSK47WPPE876","33K3E8REWWHZ7MUV5T1222MGO9NX8Q","","","<img src=""img/flower4.png"" style=""width:200px; border:14px solid green;"">","null","","","","","",""
"652.1999998092651","","image-keyboard-response","216","480756","0.0-216.0","39RP059MEIF91SRSL0O576S7U9FBMS","A3BSK47WPPE876","33K3E8REWWHZ7MUV5T1222MGO9NX8Q","","","img/flower1.png","75","652.7000002861023","2","1","1","0.7,0.2,0,0,0.7,0.2,0.2,0,0.7",""
"null","","html-keyboard-response","217","481072","0.0-217.0","39RP059MEIF91SRSL0O576S7U9FBMS","A3BSK47WPPE876","33K3E8REWWHZ7MUV5T1222MGO9NX8Q","","","<img src=""img/flower1.png"" style=""width:200px; border:14px solid green;"">","null","","","","","",""
"783.7999997138977","","image-keyboard-response","218","481856","0.0-218.0","39RP059MEIF91SRSL0O576S7U9FBMS","A3BSK47WPPE876","33K3E8REWWHZ7MUV5T1222MGO9NX8Q","","","img/flower2.png","75","784.4000000953674","2","1","2","0.7,0.2,0,0,0.7,0.2,0.2,0,0.7",""
"null","","html-keyboard-response","219","482158","0.0-219.0","39RP059MEIF91SRSL0O576S7U9FBMS","A3BSK47WPPE876","33K3E8REWWHZ7MUV5T1222MGO9NX8Q","","","<img src=""img/flower2.png"" style=""width:200px; border:14px solid green;"">","null","","","","","",""
"455.7000002861023","","image-keyboard-response","220","482614","0.0-220.0","39RP059MEIF91SRSL0O576S7U9FBMS","A3BSK47WPPE876","33K3E8REWWHZ7MUV5T1222MGO9NX8Q","","","img/flower2.png","75","456.30000019073486","2","0","2","0.7,0.2,0,0,0.7,0.2,0.2,0,0.7",""
"null","","html-keyboard-response","221","482918","0.0-221.0","39RP059MEIF91SRSL0O576S7U9FBMS","A3BSK47WPPE876","33K3E8REWWHZ7MUV5T1222MGO9NX8Q","","","<img src=""img/flower2.png"" style=""width:200px;border:14px solid red;"">","null","","","","","",""
"486","","image-keyboard-response","222","483404","0.0-222.0","39RP059MEIF91SRSL0O576S7U9FBMS","A3BSK47WPPE876","33K3E8REWWHZ7MUV5T1222MGO9NX8Q","","","img/flower2.png","76","486.5","3","0","2","0.7,0.2,0,0,0.7,0.2,0.2,0,0.7",""
"null","","html-keyboard-response","223","483713","0.0-223.0","39RP059MEIF91SRSL0O576S7U9FBMS","A3BSK47WPPE876","33K3E8REWWHZ7MUV5T1222MGO9NX8Q","","","<img src=""img/flower2.png"" style=""width:200px;border:14px solid red;"">","null","","","","","",""
"872.5","","image-keyboard-response","224","484586","0.0-224.0","39RP059MEIF91SRSL0O576S7U9FBMS","A3BSK47WPPE876","33K3E8REWWHZ7MUV5T1222MGO9NX8Q","","","img/flower1.png","75","873","2","0","1","0.7,0.2,0,0,0.7,0.2,0.2,0,0.7",""
"null","","html-keyboard-response","225","484898","0.0-225.0","39RP059MEIF91SRSL0O576S7U9FBMS","A3BSK47WPPE876","33K3E8REWWHZ7MUV5T1222MGO9NX8Q","","","<img src=""img/flower1.png"" style=""width:200px;border:14px solid red;"">","null","","","","","",""
"553.9000000953674","","image-keyboard-response","226","485453","0.0-226.0","39RP059MEIF91SRSL0O576S7U9FBMS","A3BSK47WPPE876","33K3E8REWWHZ7MUV5T1222MGO9NX8Q","","","img/flower4.png","74","554.7000002861023","1","0","3","0.7,0.2,0,0,0.7,0.2,0.2,0,0.7",""
"null","","html-keyboard-response","227","485755","0.0-227.0","39RP059MEIF91SRSL0O576S7U9FBMS","A3BSK47WPPE876","33K3E8REWWHZ7MUV5T1222MGO9NX8Q","","","<img src=""img/flower4.png"" style=""width:200px;border:14px solid red;"">","null","","","","","",""
"400.69999980926514","","image-keyboard-response","228","486157","0.0-228.0","39RP059MEIF91SRSL0O576S7U9FBMS","A3BSK47WPPE876","33K3E8REWWHZ7MUV5T1222MGO9NX8Q","","","img/flower1.png","76","401.40000009536743","3","0","1","0.7,0.2,0,0,0.7,0.2,0.2,0,0.7",""
"null","","html-keyboard-response","229","486465","0.0-229.0","39RP059MEIF91SRSL0O576S7U9FBMS","A3BSK47WPPE876","33K3E8REWWHZ7MUV5T1222MGO9NX8Q","","","<img src=""img/flower1.png"" style=""width:200px;border:14px solid red;"">","null","","","","","",""
"725.7000002861023","","image-keyboard-response","230","487191","0.0-230.0","39RP059MEIF91SRSL0O576S7U9FBMS","A3BSK47WPPE876","33K3E8REWWHZ7MUV5T1222MGO9NX8Q","","","img/flower4.png","76","726.1999998092651","3","1","3","0.7,0.2,0,0,0.7,0.2,0.2,0,0.7",""
"null","","html-keyboard-response","231","487498","0.0-231.0","39RP059MEIF91SRSL0O576S7U9FBMS","A3BSK47WPPE876","33K3E8REWWHZ7MUV5T1222MGO9NX8Q","","","<img src=""img/flower4.png"" style=""width:200px; border:14px solid green;"">","null","","","","","",""
"790.5","","image-keyboard-response","232","488289","0.0-232.0","39RP059MEIF91SRSL0O576S7U9FBMS","A3BSK47WPPE876","33K3E8REWWHZ7MUV5T1222MGO9NX8Q","","","img/flower1.png","75","791.0999999046326","2","0","1","0.7,0.2,0,0,0.7,0.2,0.2,0,0.7",""
"null","","html-keyboard-response","233","488601","0.0-233.0","39RP059MEIF91SRSL0O576S7U9FBMS","A3BSK47WPPE876","33K3E8REWWHZ7MUV5T1222MGO9NX8Q","","","<img src=""img/flower1.png"" style=""width:200px;border:14px solid red;"">","null","","","","","",""
"595.4000000953674","","image-keyboard-response","234","489197","0.0-234.0","39RP059MEIF91SRSL0O576S7U9FBMS","A3BSK47WPPE876","33K3E8REWWHZ7MUV5T1222MGO9NX8Q","","","img/flower4.png","76","595.9000000953674","3","1","3","0.7,0.2,0,0,0.7,0.2,0.2,0,0.7",""
"null","","html-keyboard-response","235","489501","0.0-235.0","39RP059MEIF91SRSL0O576S7U9FBMS","A3BSK47WPPE876","33K3E8REWWHZ7MUV5T1222MGO9NX8Q","","","<img src=""img/flower4.png"" style=""width:200px; border:14px solid green;"">","null","","","","","",""
"834.5999999046326","","image-keyboard-response","236","490337","0.0-236.0","39RP059MEIF91SRSL0O576S7U9FBMS","A3BSK47WPPE876","33K3E8REWWHZ7MUV5T1222MGO9NX8Q","","","img/flower1.png","74","835.2000002861023","1","1","1","0.7,0.2,0,0,0.7,0.2,0.2,0,0.7",""
"null","","html-keyboard-response","237","490640","0.0-237.0","39RP059MEIF91SRSL0O576S7U9FBMS","A3BSK47WPPE876","33K3E8REWWHZ7MUV5T1222MGO9NX8Q","","","<img src=""img/flower1.png"" style=""width:200px; border:14px solid green;"">","null","","","","","",""
"779","","image-keyboard-response","238","491419","0.0-238.0","39RP059MEIF91SRSL0O576S7U9FBMS","A3BSK47WPPE876","33K3E8REWWHZ7MUV5T1222MGO9NX8Q","","","img/flower4.png","74","779.5999999046326","1","0","3","0.7,0.2,0,0,0.7,0.2,0.2,0,0.7",""
"null","","html-keyboard-response","239","491731","0.0-239.0","39RP059MEIF91SRSL0O576S7U9FBMS","A3BSK47WPPE876","33K3E8REWWHZ7MUV5T1222MGO9NX8Q","","","<img src=""img/flower4.png"" style=""width:200px;border:14px solid red;"">","null","","","","","",""
"537.6999998092651","","image-keyboard-response","240","492269","0.0-240.0","39RP059MEIF91SRSL0O576S7U9FBMS","A3BSK47WPPE876","33K3E8REWWHZ7MUV5T1222MGO9NX8Q","","","img/flower1.png","76","538.3000001907349","3","0","1","0.7,0.2,0,0,0.7,0.2,0.2,0,0.7",""
"null","","html-keyboard-response","241","492573","0.0-241.0","39RP059MEIF91SRSL0O576S7U9FBMS","A3BSK47WPPE876","33K3E8REWWHZ7MUV5T1222MGO9NX8Q","","","<img src=""img/flower1.png"" style=""width:200px;border:14px solid red;"">","null","","","","","",""
"780.6999998092651","","image-keyboard-response","242","493355","0.0-242.0","39RP059MEIF91SRSL0O576S7U9FBMS","A3BSK47WPPE876","33K3E8REWWHZ7MUV5T1222MGO9NX8Q","","","img/flower2.png","75","781.7000002861023","2","1","2","0.7,0.2,0,0,0.7,0.2,0.2,0,0.7",""
"null","","html-keyboard-response","243","493661","0.0-243.0","39RP059MEIF91SRSL0O576S7U9FBMS","A3BSK47WPPE876","33K3E8REWWHZ7MUV5T1222MGO9NX8Q","","","<img src=""img/flower2.png"" style=""width:200px; border:14px solid green;"">","null","","","","","",""
"957.5","","image-keyboard-response","244","494619","0.0-244.0","39RP059MEIF91SRSL0O576S7U9FBMS","A3BSK47WPPE876","33K3E8REWWHZ7MUV5T1222MGO9NX8Q","","","img/flower4.png","76","958.0999999046326","3","0","3","0.7,0.2,0,0,0.7,0.2,0.2,0,0.7",""
"null","","html-keyboard-response","245","494928","0.0-245.0","39RP059MEIF91SRSL0O576S7U9FBMS","A3BSK47WPPE876","33K3E8REWWHZ7MUV5T1222MGO9NX8Q","","","<img src=""img/flower4.png"" style=""width:200px;border:14px solid red;"">","null","","","","","",""
"543.2000002861023","","image-keyboard-response","246","495472","0.0-246.0","39RP059MEIF91SRSL0O576S7U9FBMS","A3BSK47WPPE876","33K3E8REWWHZ7MUV5T1222MGO9NX8Q","","","img/flower4.png","75","544.1999998092651","2","0","3","0.7,0.2,0,0,0.7,0.2,0.2,0,0.7",""
"null","","html-keyboard-response","247","495785","0.0-247.0","39RP059MEIF91SRSL0O576S7U9FBMS","A3BSK47WPPE876","33K3E8REWWHZ7MUV5T1222MGO9NX8Q","","","<img src=""img/flower4.png"" style=""width:200px;border:14px solid red;"">","null","","","","","",""
"579","","image-keyboard-response","248","496365","0.0-248.0","39RP059MEIF91SRSL0O576S7U9FBMS","A3BSK47WPPE876","33K3E8REWWHZ7MUV5T1222MGO9NX8Q","","","img/flower4.png","74","579.7000002861023","1","1","3","0.7,0.2,0,0,0.7,0.2,0.2,0,0.7",""
"null","","html-keyboard-response","249","496679","0.0-249.0","39RP059MEIF91SRSL0O576S7U9FBMS","A3BSK47WPPE876","33K3E8REWWHZ7MUV5T1222MGO9NX8Q","","","<img src=""img/flower4.png"" style=""width:200px; border:14px solid green;"">","null","","","","","",""
"888","","image-keyboard-response","250","497568","0.0-250.0","39RP059MEIF91SRSL0O576S7U9FBMS","A3BSK47WPPE876","33K3E8REWWHZ7MUV5T1222MGO9NX8Q","","","img/flower2.png","75","888.6999998092651","2","1","2","0.7,0.2,0,0,0.7,0.2,0.2,0,0.7",""
"null","","html-keyboard-response","251","497881","0.0-251.0","39RP059MEIF91SRSL0O576S7U9FBMS","A3BSK47WPPE876","33K3E8REWWHZ7MUV5T1222MGO9NX8Q","","","<img src=""img/flower2.png"" style=""width:200px; border:14px solid green;"">","null","","","","","",""
"416.80000019073486","","image-keyboard-response","252","498299","0.0-252.0","39RP059MEIF91SRSL0O576S7U9FBMS","A3BSK47WPPE876","33K3E8REWWHZ7MUV5T1222MGO9NX8Q","","","img/flower2.png","75","417.59999990463257","2","1","2","0.7,0.2,0,0,0.7,0.2,0.2,0,0.7",""
"null","","html-keyboard-response","253","498610","0.0-253.0","39RP059MEIF91SRSL0O576S7U9FBMS","A3BSK47WPPE876","33K3E8REWWHZ7MUV5T1222MGO9NX8Q","","","<img src=""img/flower2.png"" style=""width:200px; border:14px solid green;"">","null","","","","","",""
"871.6999998092651","","image-keyboard-response","254","499483","0.0-254.0","39RP059MEIF91SRSL0O576S7U9FBMS","A3BSK47WPPE876","33K3E8REWWHZ7MUV5T1222MGO9NX8Q","","","img/flower4.png","74","872.5","1","0","3","0.7,0.2,0,0,0.7,0.2,0.2,0,0.7",""
"null","","html-keyboard-response","255","499785","0.0-255.0","39RP059MEIF91SRSL0O576S7U9FBMS","A3BSK47WPPE876","33K3E8REWWHZ7MUV5T1222MGO9NX8Q","","","<img src=""img/flower4.png"" style=""width:200px;border:14px solid red;"">","null","","","","","",""
"430.5","","image-keyboard-response","256","500216","0.0-256.0","39RP059MEIF91SRSL0O576S7U9FBMS","A3BSK47WPPE876","33K3E8REWWHZ7MUV5T1222MGO9NX8Q","","","img/flower4.png","76","431.09999990463257","3","0","3","0.7,0.2,0,0,0.7,0.2,0.2,0,0.7",""
"null","","html-keyboard-response","257","500520","0.0-257.0","39RP059MEIF91SRSL0O576S7U9FBMS","A3BSK47WPPE876","33K3E8REWWHZ7MUV5T1222MGO9NX8Q","","","<img src=""img/flower4.png"" style=""width:200px;border:14px solid red;"">","null","","","","","",""
"1098.3999996185303","","image-keyboard-response","258","501619","0.0-258.0","39RP059MEIF91SRSL0O576S7U9FBMS","A3BSK47WPPE876","33K3E8REWWHZ7MUV5T1222MGO9NX8Q","","","img/flower1.png","76","1098.8000001907349","3","0","1","0.7,0.2,0,0,0.7,0.2,0.2,0,0.7",""
"null","","html-keyboard-response","259","501935","0.0-259.0","39RP059MEIF91SRSL0O576S7U9FBMS","A3BSK47WPPE876","33K3E8REWWHZ7MUV5T1222MGO9NX8Q","","","<img src=""img/flower1.png"" style=""width:200px;border:14px solid red;"">","null","","","","","",""
"630.2999997138977","","image-keyboard-response","260","502566","0.0-260.0","39RP059MEIF91SRSL0O576S7U9FBMS","A3BSK47WPPE876","33K3E8REWWHZ7MUV5T1222MGO9NX8Q","","","img/flower1.png","74","630.7000002861023","1","1","1","0.7,0.2,0,0,0.7,0.2,0.2,0,0.7",""
"null","","html-keyboard-response","261","502868","0.0-261.0","39RP059MEIF91SRSL0O576S7U9FBMS","A3BSK47WPPE876","33K3E8REWWHZ7MUV5T1222MGO9NX8Q","","","<img src=""img/flower1.png"" style=""width:200px; border:14px solid green;"">","null","","","","","",""
"698.5","","image-keyboard-response","262","503567","0.0-262.0","39RP059MEIF91SRSL0O576S7U9FBMS","A3BSK47WPPE876","33K3E8REWWHZ7MUV5T1222MGO9NX8Q","","","img/flower1.png","74","699","1","0","1","0.7,0.2,0,0,0.7,0.2,0.2,0,0.7",""
"null","","html-keyboard-response","263","503882","0.0-263.0","39RP059MEIF91SRSL0O576S7U9FBMS","A3BSK47WPPE876","33K3E8REWWHZ7MUV5T1222MGO9NX8Q","","","<img src=""img/flower1.png"" style=""width:200px;border:14px solid red;"">","null","","","","","",""
"579.6000003814697","","image-keyboard-response","264","504462","0.0-264.0","39RP059MEIF91SRSL0O576S7U9FBMS","A3BSK47WPPE876","33K3E8REWWHZ7MUV5T1222MGO9NX8Q","","","img/flower4.png","75","580","2","0","3","0.7,0.2,0,0,0.7,0.2,0.2,0,0.7",""
"null","","html-keyboard-response","265","504773","0.0-265.0","39RP059MEIF91SRSL0O576S7U9FBMS","A3BSK47WPPE876","33K3E8REWWHZ7MUV5T1222MGO9NX8Q","","","<img src=""img/flower4.png"" style=""width:200px;border:14px solid red;"">","null","","","","","",""
"759","","image-keyboard-response","266","505533","0.0-266.0","39RP059MEIF91SRSL0O576S7U9FBMS","A3BSK47WPPE876","33K3E8REWWHZ7MUV5T1222MGO9NX8Q","","","img/flower2.png","76","759.5999999046326","3","0","2","0.7,0.2,0,0,0.7,0.2,0.2,0,0.7",""
"null","","html-keyboard-response","267","505848","0.0-267.0","39RP059MEIF91SRSL0O576S7U9FBMS","A3BSK47WPPE876","33K3E8REWWHZ7MUV5T1222MGO9NX8Q","","","<img src=""img/flower2.png"" style=""width:200px;border:14px solid red;"">","null","","","","","",""
"638","","image-keyboard-response","268","506487","0.0-268.0","39RP059MEIF91SRSL0O576S7U9FBMS","A3BSK47WPPE876","33K3E8REWWHZ7MUV5T1222MGO9NX8Q","","","img/flower2.png","75","638.5","2","0","2","0.7,0.2,0,0,0.7,0.2,0.2,0,0.7",""
"null","","html-keyboard-response","269","506791","0.0-269.0","39RP059MEIF91SRSL0O576S7U9FBMS","A3BSK47WPPE876","33K3E8REWWHZ7MUV5T1222MGO9NX8Q","","","<img src=""img/flower2.png"" style=""width:200px;border:14px solid red;"">","null","","","","","",""
"1097.5999999046326","","image-keyboard-response","270","507889","0.0-270.0","39RP059MEIF91SRSL0O576S7U9FBMS","A3BSK47WPPE876","33K3E8REWWHZ7MUV5T1222MGO9NX8Q","","","img/flower2.png","75","1098.0999999046326","2","0","2","0.7,0.2,0,0,0.7,0.2,0.2,0,0.7",""
"null","","html-keyboard-response","271","508193","0.0-271.0","39RP059MEIF91SRSL0O576S7U9FBMS","A3BSK47WPPE876","33K3E8REWWHZ7MUV5T1222MGO9NX8Q","","","<img src=""img/flower2.png"" style=""width:200px;border:14px solid red;"">","null","","","","","",""
"751.5","","image-keyboard-response","272","508946","0.0-272.0","39RP059MEIF91SRSL0O576S7U9FBMS","A3BSK47WPPE876","33K3E8REWWHZ7MUV5T1222MGO9NX8Q","","","img/flower4.png","74","751.9000000953674","1","0","3","0.7,0.2,0,0,0.7,0.2,0.2,0,0.7",""
"null","","html-keyboard-response","273","509255","0.0-273.0","39RP059MEIF91SRSL0O576S7U9FBMS","A3BSK47WPPE876","33K3E8REWWHZ7MUV5T1222MGO9NX8Q","","","<img src=""img/flower4.png"" style=""width:200px;border:14px solid red;"">","null","","","","","",""
"672","","image-keyboard-response","274","509927","0.0-274.0","39RP059MEIF91SRSL0O576S7U9FBMS","A3BSK47WPPE876","33K3E8REWWHZ7MUV5T1222MGO9NX8Q","","","img/flower1.png","76","672.5","3","0","1","0.7,0.2,0,0,0.7,0.2,0.2,0,0.7",""
"null","","html-keyboard-response","275","510233","0.0-275.0","39RP059MEIF91SRSL0O576S7U9FBMS","A3BSK47WPPE876","33K3E8REWWHZ7MUV5T1222MGO9NX8Q","","","<img src=""img/flower1.png"" style=""width:200px;border:14px solid red;"">","null","","","","","",""
"647.9000000953674","","image-keyboard-response","276","510882","0.0-276.0","39RP059MEIF91SRSL0O576S7U9FBMS","A3BSK47WPPE876","33K3E8REWWHZ7MUV5T1222MGO9NX8Q","","","img/flower2.png","76","648.5999999046326","3","0","2","0.7,0.2,0,0,0.7,0.2,0.2,0,0.7",""
"null","","html-keyboard-response","277","511192","0.0-277.0","39RP059MEIF91SRSL0O576S7U9FBMS","A3BSK47WPPE876","33K3E8REWWHZ7MUV5T1222MGO9NX8Q","","","<img src=""img/flower2.png"" style=""width:200px;border:14px solid red;"">","null","","","","","",""
"719.7000002861023","","image-keyboard-response","278","511912","0.0-278.0","39RP059MEIF91SRSL0O576S7U9FBMS","A3BSK47WPPE876","33K3E8REWWHZ7MUV5T1222MGO9NX8Q","","","img/flower1.png","75","720.3000001907349","2","1","1","0.7,0.2,0,0,0.7,0.2,0.2,0,0.7",""
"null","","html-keyboard-response","279","512216","0.0-279.0","39RP059MEIF91SRSL0O576S7U9FBMS","A3BSK47WPPE876","33K3E8REWWHZ7MUV5T1222MGO9NX8Q","","","<img src=""img/flower1.png"" style=""width:200px; border:14px solid green;"">","null","","","","","",""
"595.0999999046326","","image-keyboard-response","280","512811","0.0-280.0","39RP059MEIF91SRSL0O576S7U9FBMS","A3BSK47WPPE876","33K3E8REWWHZ7MUV5T1222MGO9NX8Q","","","img/flower1.png","75","595.5","2","0","1","0.7,0.2,0,0,0.7,0.2,0.2,0,0.7",""
"null","","html-keyboard-response","281","513117","0.0-281.0","39RP059MEIF91SRSL0O576S7U9FBMS","A3BSK47WPPE876","33K3E8REWWHZ7MUV5T1222MGO9NX8Q","","","<img src=""img/flower1.png"" style=""width:200px;border:14px solid red;"">","null","","","","","",""
"596.3999996185303","","image-keyboard-response","282","513714","0.0-282.0","39RP059MEIF91SRSL0O576S7U9FBMS","A3BSK47WPPE876","33K3E8REWWHZ7MUV5T1222MGO9NX8Q","","","img/flower2.png","74","596.9000000953674","1","0","2","0.7,0.2,0,0,0.7,0.2,0.2,0,0.7",""
"null","","html-keyboard-response","283","514021","0.0-283.0","39RP059MEIF91SRSL0O576S7U9FBMS","A3BSK47WPPE876","33K3E8REWWHZ7MUV5T1222MGO9NX8Q","","","<img src=""img/flower2.png"" style=""width:200px;border:14px solid red;"">","null","","","","","",""
"691.3000001907349","","image-keyboard-response","284","514713","0.0-284.0","39RP059MEIF91SRSL0O576S7U9FBMS","A3BSK47WPPE876","33K3E8REWWHZ7MUV5T1222MGO9NX8Q","","","img/flower2.png","76","691.7999997138977","3","1","2","0.7,0.2,0,0,0.7,0.2,0.2,0,0.7",""
"null","","html-keyboard-response","285","515021","0.0-285.0","39RP059MEIF91SRSL0O576S7U9FBMS","A3BSK47WPPE876","33K3E8REWWHZ7MUV5T1222MGO9NX8Q","","","<img src=""img/flower2.png"" style=""width:200px; border:14px solid green;"">","null","","","","","",""
"1046.4000000953674","","image-keyboard-response","286","516068","0.0-286.0","39RP059MEIF91SRSL0O576S7U9FBMS","A3BSK47WPPE876","33K3E8REWWHZ7MUV5T1222MGO9NX8Q","","","img/flower4.png","74","1047.0999999046326","1","0","3","0.7,0.2,0,0,0.7,0.2,0.2,0,0.7",""
"null","","html-keyboard-response","287","516377","0.0-287.0","39RP059MEIF91SRSL0O576S7U9FBMS","A3BSK47WPPE876","33K3E8REWWHZ7MUV5T1222MGO9NX8Q","","","<img src=""img/flower4.png"" style=""width:200px;border:14px solid red;"">","null","","","","","",""
"1650.9000000953674","","image-keyboard-response","288","518029","0.0-288.0","39RP059MEIF91SRSL0O576S7U9FBMS","A3BSK47WPPE876","33K3E8REWWHZ7MUV5T1222MGO9NX8Q","","","img/flower2.png","76","1651.5","3","0","2","0.7,0.2,0,0,0.7,0.2,0.2,0,0.7",""
"null","","html-keyboard-response","289","518342","0.0-289.0","39RP059MEIF91SRSL0O576S7U9FBMS","A3BSK47WPPE876","33K3E8REWWHZ7MUV5T1222MGO9NX8Q","","","<img src=""img/flower2.png"" style=""width:200px;border:14px solid red;"">","null","","","","","",""
"788.4000000953674","","image-keyboard-response","290","519131","0.0-290.0","39RP059MEIF91SRSL0O576S7U9FBMS","A3BSK47WPPE876","33K3E8REWWHZ7MUV5T1222MGO9NX8Q","","","img/flower1.png","75","788.9000000953674","2","0","1","0.7,0.2,0,0,0.7,0.2,0.2,0,0.7",""
"null","","html-keyboard-response","291","519433","0.0-291.0","39RP059MEIF91SRSL0O576S7U9FBMS","A3BSK47WPPE876","33K3E8REWWHZ7MUV5T1222MGO9NX8Q","","","<img src=""img/flower1.png"" style=""width:200px;border:14px solid red;"">","null","","","","","",""
"885.6999998092651","","image-keyboard-response","292","520319","0.0-292.0","39RP059MEIF91SRSL0O576S7U9FBMS","A3BSK47WPPE876","33K3E8REWWHZ7MUV5T1222MGO9NX8Q","","","img/flower1.png","76","886.1999998092651","3","0","1","0.7,0.2,0,0,0.7,0.2,0.2,0,0.7",""
"null","","html-keyboard-response","293","520632","0.0-293.0","39RP059MEIF91SRSL0O576S7U9FBMS","A3BSK47WPPE876","33K3E8REWWHZ7MUV5T1222MGO9NX8Q","","","<img src=""img/flower1.png"" style=""width:200px;border:14px solid red;"">","null","","","","","",""
"630.2999997138977","","image-keyboard-response","294","521263","0.0-294.0","39RP059MEIF91SRSL0O576S7U9FBMS","A3BSK47WPPE876","33K3E8REWWHZ7MUV5T1222MGO9NX8Q","","","img/flower1.png","74","631","1","1","1","0.7,0.2,0,0,0.7,0.2,0.2,0,0.7",""
"null","","html-keyboard-response","295","521567","0.0-295.0","39RP059MEIF91SRSL0O576S7U9FBMS","A3BSK47WPPE876","33K3E8REWWHZ7MUV5T1222MGO9NX8Q","","","<img src=""img/flower1.png"" style=""width:200px; border:14px solid green;"">","null","","","","","",""
"813.4000000953674","","image-keyboard-response","296","522382","0.0-296.0","39RP059MEIF91SRSL0O576S7U9FBMS","A3BSK47WPPE876","33K3E8REWWHZ7MUV5T1222MGO9NX8Q","","","img/flower2.png","76","814","3","0","2","0.7,0.2,0,0,0.7,0.2,0.2,0,0.7",""
"null","","html-keyboard-response","297","522690","0.0-297.0","39RP059MEIF91SRSL0O576S7U9FBMS","A3BSK47WPPE876","33K3E8REWWHZ7MUV5T1222MGO9NX8Q","","","<img src=""img/flower2.png"" style=""width:200px;border:14px solid red;"">","null","","","","","",""
"1081.2000002861023","","image-keyboard-response","298","523772","0.0-298.0","39RP059MEIF91SRSL0O576S7U9FBMS","A3BSK47WPPE876","33K3E8REWWHZ7MUV5T1222MGO9NX8Q","","","img/flower1.png","74","1081.6999998092651","1","1","1","0.7,0.2,0,0,0.7,0.2,0.2,0,0.7",""
"null","","html-keyboard-response","299","524075","0.0-299.0","39RP059MEIF91SRSL0O576S7U9FBMS","A3BSK47WPPE876","33K3E8REWWHZ7MUV5T1222MGO9NX8Q","","","<img src=""img/flower1.png"" style=""width:200px; border:14px solid green;"">","null","","","","","",""
"508.7999997138977","","image-keyboard-response","300","524585","0.0-300.0","39RP059MEIF91SRSL0O576S7U9FBMS","A3BSK47WPPE876","33K3E8REWWHZ7MUV5T1222MGO9NX8Q","","","img/flower1.png","74","509.2000002861023","1","1","1","0.7,0.2,0,0,0.7,0.2,0.2,0,0.7",""
"null","","html-keyboard-response","301","524886","0.0-301.0","39RP059MEIF91SRSL0O576S7U9FBMS","A3BSK47WPPE876","33K3E8REWWHZ7MUV5T1222MGO9NX8Q","","","<img src=""img/flower1.png"" style=""width:200px; border:14px solid green;"">","null","","","","","",""
"575.4000000953674","","image-keyboard-response","302","525462","0.0-302.0","39RP059MEIF91SRSL0O576S7U9FBMS","A3BSK47WPPE876","33K3E8REWWHZ7MUV5T1222MGO9NX8Q","","","img/flower1.png","74","576","1","1","1","0.7,0.2,0,0,0.7,0.2,0.2,0,0.7",""
"null","","html-keyboard-response","303","525774","0.0-303.0","39RP059MEIF91SRSL0O576S7U9FBMS","A3BSK47WPPE876","33K3E8REWWHZ7MUV5T1222MGO9NX8Q","","","<img src=""img/flower1.png"" style=""width:200px; border:14px solid green;"">","null","","","","","",""
"832.6999998092651","","image-keyboard-response","304","526607","0.0-304.0","39RP059MEIF91SRSL0O576S7U9FBMS","A3BSK47WPPE876","33K3E8REWWHZ7MUV5T1222MGO9NX8Q","","","img/flower4.png","75","833.0999999046326","2","0","3","0.7,0.2,0,0,0.7,0.2,0.2,0,0.7",""
"null","","html-keyboard-response","305","526911","0.0-305.0","39RP059MEIF91SRSL0O576S7U9FBMS","A3BSK47WPPE876","33K3E8REWWHZ7MUV5T1222MGO9NX8Q","","","<img src=""img/flower4.png"" style=""width:200px;border:14px solid red;"">","null","","","","","",""
"","","html-keyboard-response","306","531139","0.0-306.0","39RP059MEIF91SRSL0O576S7U9FBMS","A3BSK47WPPE876","33K3E8REWWHZ7MUV5T1222MGO9NX8Q","","","","","","","","","",""
"2371.5","","image-keyboard-response","307","533511","0.0-307.0","39RP059MEIF91SRSL0O576S7U9FBMS","A3BSK47WPPE876","33K3E8REWWHZ7MUV5T1222MGO9NX8Q","","","img/flower5.png","76","2372.300000190735","3","0","2","0.7,0.2,0,0.7,0,0.2,0.2,0,0.7",""
"null","","html-keyboard-response","308","533820","0.0-308.0","39RP059MEIF91SRSL0O576S7U9FBMS","A3BSK47WPPE876","33K3E8REWWHZ7MUV5T1222MGO9NX8Q","","","<img src=""img/flower5.png"" style=""width:200px;border:14px solid red;"">","null","","","","","",""
"852.2000002861023","","image-keyboard-response","309","534673","0.0-309.0","39RP059MEIF91SRSL0O576S7U9FBMS","A3BSK47WPPE876","33K3E8REWWHZ7MUV5T1222MGO9NX8Q","","","img/flower3.png","75","852.5999999046326","2","0","1","0.7,0.2,0,0.7,0,0.2,0.2,0,0.7",""
"null","","html-keyboard-response","310","534974","0.0-310.0","39RP059MEIF91SRSL0O576S7U9FBMS","A3BSK47WPPE876","33K3E8REWWHZ7MUV5T1222MGO9NX8Q","","","<img src=""img/flower3.png"" style=""width:200px;border:14px solid red;"">","null","","","","","",""
"747.8000001907349","","image-keyboard-response","311","535723","0.0-311.0","39RP059MEIF91SRSL0O576S7U9FBMS","A3BSK47WPPE876","33K3E8REWWHZ7MUV5T1222MGO9NX8Q","","","img/flower5.png","76","748.5","3","0","2","0.7,0.2,0,0.7,0,0.2,0.2,0,0.7",""
"null","","html-keyboard-response","312","536036","0.0-312.0","39RP059MEIF91SRSL0O576S7U9FBMS","A3BSK47WPPE876","33K3E8REWWHZ7MUV5T1222MGO9NX8Q","","","<img src=""img/flower5.png"" style=""width:200px;border:14px solid red;"">","null","","","","","",""
"814.6999998092651","","image-keyboard-response","313","536851","0.0-313.0","39RP059MEIF91SRSL0O576S7U9FBMS","A3BSK47WPPE876","33K3E8REWWHZ7MUV5T1222MGO9NX8Q","","","img/flower3.png","74","815.0999999046326","1","1","1","0.7,0.2,0,0.7,0,0.2,0.2,0,0.7",""
"null","","html-keyboard-response","314","537155","0.0-314.0","39RP059MEIF91SRSL0O576S7U9FBMS","A3BSK47WPPE876","33K3E8REWWHZ7MUV5T1222MGO9NX8Q","","","<img src=""img/flower3.png"" style=""width:200px; border:14px solid green;"">","null","","","","","",""
"1418.2000002861023","","image-keyboard-response","315","538573","0.0-315.0","39RP059MEIF91SRSL0O576S7U9FBMS","A3BSK47WPPE876","33K3E8REWWHZ7MUV5T1222MGO9NX8Q","","","img/flower5.png","74","1418.7999997138977","1","0","2","0.7,0.2,0,0.7,0,0.2,0.2,0,0.7",""
"null","","html-keyboard-response","316","538886","0.0-316.0","39RP059MEIF91SRSL0O576S7U9FBMS","A3BSK47WPPE876","33K3E8REWWHZ7MUV5T1222MGO9NX8Q","","","<img src=""img/flower5.png"" style=""width:200px;border:14px solid red;"">","null","","","","","",""
"1064.5","","image-keyboard-response","317","539951","0.0-317.0","39RP059MEIF91SRSL0O576S7U9FBMS","A3BSK47WPPE876","33K3E8REWWHZ7MUV5T1222MGO9NX8Q","","","img/flower6.png","74","1065","1","1","3","0.7,0.2,0,0.7,0,0.2,0.2,0,0.7",""
"null","","html-keyboard-response","318","540262","0.0-318.0","39RP059MEIF91SRSL0O576S7U9FBMS","A3BSK47WPPE876","33K3E8REWWHZ7MUV5T1222MGO9NX8Q","","","<img src=""img/flower6.png"" style=""width:200px; border:14px solid green;"">","null","","","","","",""
"747.7999997138977","","image-keyboard-response","319","541010","0.0-319.0","39RP059MEIF91SRSL0O576S7U9FBMS","A3BSK47WPPE876","33K3E8REWWHZ7MUV5T1222MGO9NX8Q","","","img/flower3.png","74","748.4000000953674","1","1","1","0.7,0.2,0,0.7,0,0.2,0.2,0,0.7",""
"null","","html-keyboard-response","320","541322","0.0-320.0","39RP059MEIF91SRSL0O576S7U9FBMS","A3BSK47WPPE876","33K3E8REWWHZ7MUV5T1222MGO9NX8Q","","","<img src=""img/flower3.png"" style=""width:200px; border:14px solid green;"">","null","","","","","",""
"501.5","","image-keyboard-response","321","541824","0.0-321.0","39RP059MEIF91SRSL0O576S7U9FBMS","A3BSK47WPPE876","33K3E8REWWHZ7MUV5T1222MGO9NX8Q","","","img/flower3.png","74","502","1","1","1","0.7,0.2,0,0.7,0,0.2,0.2,0,0.7",""
"null","","html-keyboard-response","322","542131","0.0-322.0","39RP059MEIF91SRSL0O576S7U9FBMS","A3BSK47WPPE876","33K3E8REWWHZ7MUV5T1222MGO9NX8Q","","","<img src=""img/flower3.png"" style=""width:200px; border:14px solid green;"">","null","","","","","",""
"1270.2000002861023","","image-keyboard-response","323","543402","0.0-323.0","39RP059MEIF91SRSL0O576S7U9FBMS","A3BSK47WPPE876","33K3E8REWWHZ7MUV5T1222MGO9NX8Q","","","img/flower5.png","75","1270.8000001907349","2","0","2","0.7,0.2,0,0.7,0,0.2,0.2,0,0.7",""
"null","","html-keyboard-response","324","543712","0.0-324.0","39RP059MEIF91SRSL0O576S7U9FBMS","A3BSK47WPPE876","33K3E8REWWHZ7MUV5T1222MGO9NX8Q","","","<img src=""img/flower5.png"" style=""width:200px;border:14px solid red;"">","null","","","","","",""
"800.0999999046326","","image-keyboard-response","325","544512","0.0-325.0","39RP059MEIF91SRSL0O576S7U9FBMS","A3BSK47WPPE876","33K3E8REWWHZ7MUV5T1222MGO9NX8Q","","","img/flower3.png","74","800.6999998092651","1","0","1","0.7,0.2,0,0.7,0,0.2,0.2,0,0.7",""
"null","","html-keyboard-response","326","544819","0.0-326.0","39RP059MEIF91SRSL0O576S7U9FBMS","A3BSK47WPPE876","33K3E8REWWHZ7MUV5T1222MGO9NX8Q","","","<img src=""img/flower3.png"" style=""width:200px;border:14px solid red;"">","null","","","","","",""
"612","","image-keyboard-response","327","545433","0.0-327.0","39RP059MEIF91SRSL0O576S7U9FBMS","A3BSK47WPPE876","33K3E8REWWHZ7MUV5T1222MGO9NX8Q","","","img/flower3.png","76","613.4000000953674","3","0","1","0.7,0.2,0,0.7,0,0.2,0.2,0,0.7",""
"null","","html-keyboard-response","328","545739","0.0-328.0","39RP059MEIF91SRSL0O576S7U9FBMS","A3BSK47WPPE876","33K3E8REWWHZ7MUV5T1222MGO9NX8Q","","","<img src=""img/flower3.png"" style=""width:200px;border:14px solid red;"">","null","","","","","",""
"922.5999999046326","","image-keyboard-response","329","546662","0.0-329.0","39RP059MEIF91SRSL0O576S7U9FBMS","A3BSK47WPPE876","33K3E8REWWHZ7MUV5T1222MGO9NX8Q","","","img/flower5.png","75","923.0999999046326","2","0","2","0.7,0.2,0,0.7,0,0.2,0.2,0,0.7",""
"null","","html-keyboard-response","330","546966","0.0-330.0","39RP059MEIF91SRSL0O576S7U9FBMS","A3BSK47WPPE876","33K3E8REWWHZ7MUV5T1222MGO9NX8Q","","","<img src=""img/flower5.png"" style=""width:200px;border:14px solid red;"">","null","","","","","",""
"840.6999998092651","","image-keyboard-response","331","547807","0.0-331.0","39RP059MEIF91SRSL0O576S7U9FBMS","A3BSK47WPPE876","33K3E8REWWHZ7MUV5T1222MGO9NX8Q","","","img/flower3.png","76","841.3000001907349","3","0","1","0.7,0.2,0,0.7,0,0.2,0.2,0,0.7",""
"null","","html-keyboard-response","332","548116","0.0-332.0","39RP059MEIF91SRSL0O576S7U9FBMS","A3BSK47WPPE876","33K3E8REWWHZ7MUV5T1222MGO9NX8Q","","","<img src=""img/flower3.png"" style=""width:200px;border:14px solid red;"">","null","","","","","",""
"874.0999999046326","","image-keyboard-response","333","548991","0.0-333.0","39RP059MEIF91SRSL0O576S7U9FBMS","A3BSK47WPPE876","33K3E8REWWHZ7MUV5T1222MGO9NX8Q","","","img/flower3.png","74","874.7000002861023","1","1","1","0.7,0.2,0,0.7,0,0.2,0.2,0,0.7",""
"null","","html-keyboard-response","334","549299","0.0-334.0","39RP059MEIF91SRSL0O576S7U9FBMS","A3BSK47WPPE876","33K3E8REWWHZ7MUV5T1222MGO9NX8Q","","","<img src=""img/flower3.png"" style=""width:200px; border:14px solid green;"">","null","","","","","",""
"950.1000003814697","","image-keyboard-response","335","550251","0.0-335.0","39RP059MEIF91SRSL0O576S7U9FBMS","A3BSK47WPPE876","33K3E8REWWHZ7MUV5T1222MGO9NX8Q","","","img/flower5.png","74","950.5","1","1","2","0.7,0.2,0,0.7,0,0.2,0.2,0,0.7",""
"null","","html-keyboard-response","336","550559","0.0-336.0","39RP059MEIF91SRSL0O576S7U9FBMS","A3BSK47WPPE876","33K3E8REWWHZ7MUV5T1222MGO9NX8Q","","","<img src=""img/flower5.png"" style=""width:200px; border:14px solid green;"">","null","","","","","",""
"893.5","","image-keyboard-response","337","551453","0.0-337.0","39RP059MEIF91SRSL0O576S7U9FBMS","A3BSK47WPPE876","33K3E8REWWHZ7MUV5T1222MGO9NX8Q","","","img/flower6.png","76","894.1000003814697","3","1","3","0.7,0.2,0,0.7,0,0.2,0.2,0,0.7",""
"null","","html-keyboard-response","338","551757","0.0-338.0","39RP059MEIF91SRSL0O576S7U9FBMS","A3BSK47WPPE876","33K3E8REWWHZ7MUV5T1222MGO9NX8Q","","","<img src=""img/flower6.png"" style=""width:200px; border:14px solid green;"">","null","","","","","",""
"715.3000001907349","","image-keyboard-response","339","552473","0.0-339.0","39RP059MEIF91SRSL0O576S7U9FBMS","A3BSK47WPPE876","33K3E8REWWHZ7MUV5T1222MGO9NX8Q","","","img/flower3.png","74","715.9000000953674","1","0","1","0.7,0.2,0,0.7,0,0.2,0.2,0,0.7",""
"null","","html-keyboard-response","340","552786","0.0-340.0","39RP059MEIF91SRSL0O576S7U9FBMS","A3BSK47WPPE876","33K3E8REWWHZ7MUV5T1222MGO9NX8Q","","","<img src=""img/flower3.png"" style=""width:200px;border:14px solid red;"">","null","","","","","",""
"752.0999999046326","","image-keyboard-response","341","553539","0.0-341.0","39RP059MEIF91SRSL0O576S7U9FBMS","A3BSK47WPPE876","33K3E8REWWHZ7MUV5T1222MGO9NX8Q","","","img/flower6.png","76","752.6000003814697","3","0","3","0.7,0.2,0,0.7,0,0.2,0.2,0,0.7",""
"null","","html-keyboard-response","342","553843","0.0-342.0","39RP059MEIF91SRSL0O576S7U9FBMS","A3BSK47WPPE876","33K3E8REWWHZ7MUV5T1222MGO9NX8Q","","","<img src=""img/flower6.png"" style=""width:200px;border:14px solid red;"">","null","","","","","",""
"792.4000000953674","","image-keyboard-response","343","554636","0.0-343.0","39RP059MEIF91SRSL0O576S7U9FBMS","A3BSK47WPPE876","33K3E8REWWHZ7MUV5T1222MGO9NX8Q","","","img/flower5.png","75","792.9000000953674","2","0","2","0.7,0.2,0,0.7,0,0.2,0.2,0,0.7",""
"null","","html-keyboard-response","344","554947","0.0-344.0","39RP059MEIF91SRSL0O576S7U9FBMS","A3BSK47WPPE876","33K3E8REWWHZ7MUV5T1222MGO9NX8Q","","","<img src=""img/flower5.png"" style=""width:200px;border:14px solid red;"">","null","","","","","",""
"832","","image-keyboard-response","345","555780","0.0-345.0","39RP059MEIF91SRSL0O576S7U9FBMS","A3BSK47WPPE876","33K3E8REWWHZ7MUV5T1222MGO9NX8Q","","","img/flower6.png","74","832.5999999046326","1","1","3","0.7,0.2,0,0.7,0,0.2,0.2,0,0.7",""
"null","","html-keyboard-response","346","556082","0.0-346.0","39RP059MEIF91SRSL0O576S7U9FBMS","A3BSK47WPPE876","33K3E8REWWHZ7MUV5T1222MGO9NX8Q","","","<img src=""img/flower6.png"" style=""width:200px; border:14px solid green;"">","null","","","","","",""
"871","","image-keyboard-response","347","556955","0.0-347.0","39RP059MEIF91SRSL0O576S7U9FBMS","A3BSK47WPPE876","33K3E8REWWHZ7MUV5T1222MGO9NX8Q","","","img/flower5.png","74","872.2000002861023","1","1","2","0.7,0.2,0,0.7,0,0.2,0.2,0,0.7",""
"null","","html-keyboard-response","348","557264","0.0-348.0","39RP059MEIF91SRSL0O576S7U9FBMS","A3BSK47WPPE876","33K3E8REWWHZ7MUV5T1222MGO9NX8Q","","","<img src=""img/flower5.png"" style=""width:200px; border:14px solid green;"">","null","","","","","",""
"481","","image-keyboard-response","349","557746","0.0-349.0","39RP059MEIF91SRSL0O576S7U9FBMS","A3BSK47WPPE876","33K3E8REWWHZ7MUV5T1222MGO9NX8Q","","","img/flower5.png","74","481.40000009536743","1","1","2","0.7,0.2,0,0.7,0,0.2,0.2,0,0.7",""
"null","","html-keyboard-response","350","558058","0.0-350.0","39RP059MEIF91SRSL0O576S7U9FBMS","A3BSK47WPPE876","33K3E8REWWHZ7MUV5T1222MGO9NX8Q","","","<img src=""img/flower5.png"" style=""width:200px; border:14px solid green;"">","null","","","","","",""
"643","","image-keyboard-response","351","558701","0.0-351.0","39RP059MEIF91SRSL0O576S7U9FBMS","A3BSK47WPPE876","33K3E8REWWHZ7MUV5T1222MGO9NX8Q","","","img/flower5.png","74","643.5999999046326","1","1","2","0.7,0.2,0,0.7,0,0.2,0.2,0,0.7",""
"null","","html-keyboard-response","352","559009","0.0-352.0","39RP059MEIF91SRSL0O576S7U9FBMS","A3BSK47WPPE876","33K3E8REWWHZ7MUV5T1222MGO9NX8Q","","","<img src=""img/flower5.png"" style=""width:200px; border:14px solid green;"">","null","","","","","",""
"792.5999999046326","","image-keyboard-response","353","559803","0.0-353.0","39RP059MEIF91SRSL0O576S7U9FBMS","A3BSK47WPPE876","33K3E8REWWHZ7MUV5T1222MGO9NX8Q","","","img/flower3.png","76","793.2000002861023","3","0","1","0.7,0.2,0,0.7,0,0.2,0.2,0,0.7",""
"null","","html-keyboard-response","354","560114","0.0-354.0","39RP059MEIF91SRSL0O576S7U9FBMS","A3BSK47WPPE876","33K3E8REWWHZ7MUV5T1222MGO9NX8Q","","","<img src=""img/flower3.png"" style=""width:200px;border:14px solid red;"">","null","","","","","",""
"503.40000009536743","","image-keyboard-response","355","560618","0.0-355.0","39RP059MEIF91SRSL0O576S7U9FBMS","A3BSK47WPPE876","33K3E8REWWHZ7MUV5T1222MGO9NX8Q","","","img/flower3.png","75","503.90000009536743","2","0","1","0.7,0.2,0,0.7,0,0.2,0.2,0,0.7",""
"null","","html-keyboard-response","356","560926","0.0-356.0","39RP059MEIF91SRSL0O576S7U9FBMS","A3BSK47WPPE876","33K3E8REWWHZ7MUV5T1222MGO9NX8Q","","","<img src=""img/flower3.png"" style=""width:200px;border:14px solid red;"">","null","","","","","",""
"624","","image-keyboard-response","357","561551","0.0-357.0","39RP059MEIF91SRSL0O576S7U9FBMS","A3BSK47WPPE876","33K3E8REWWHZ7MUV5T1222MGO9NX8Q","","","img/flower3.png","74","624.7999997138977","1","1","1","0.7,0.2,0,0.7,0,0.2,0.2,0,0.7",""
"null","","html-keyboard-response","358","561865","0.0-358.0","39RP059MEIF91SRSL0O576S7U9FBMS","A3BSK47WPPE876","33K3E8REWWHZ7MUV5T1222MGO9NX8Q","","","<img src=""img/flower3.png"" style=""width:200px; border:14px solid green;"">","null","","","","","",""
"781.0999999046326","","image-keyboard-response","359","562647","0.0-359.0","39RP059MEIF91SRSL0O576S7U9FBMS","A3BSK47WPPE876","33K3E8REWWHZ7MUV5T1222MGO9NX8Q","","","img/flower5.png","74","781.7000002861023","1","1","2","0.7,0.2,0,0.7,0,0.2,0.2,0,0.7",""
"null","","html-keyboard-response","360","562959","0.0-360.0","39RP059MEIF91SRSL0O576S7U9FBMS","A3BSK47WPPE876","33K3E8REWWHZ7MUV5T1222MGO9NX8Q","","","<img src=""img/flower5.png"" style=""width:200px; border:14px solid green;"">","null","","","","","",""
"734.9000000953674","","image-keyboard-response","361","563694","0.0-361.0","39RP059MEIF91SRSL0O576S7U9FBMS","A3BSK47WPPE876","33K3E8REWWHZ7MUV5T1222MGO9NX8Q","","","img/flower6.png","74","735.2999997138977","1","0","3","0.7,0.2,0,0.7,0,0.2,0.2,0,0.7",""
"null","","html-keyboard-response","362","564004","0.0-362.0","39RP059MEIF91SRSL0O576S7U9FBMS","A3BSK47WPPE876","33K3E8REWWHZ7MUV5T1222MGO9NX8Q","","","<img src=""img/flower6.png"" style=""width:200px;border:14px solid red;"">","null","","","","","",""
"444.5","","image-keyboard-response","363","564450","0.0-363.0","39RP059MEIF91SRSL0O576S7U9FBMS","A3BSK47WPPE876","33K3E8REWWHZ7MUV5T1222MGO9NX8Q","","","img/flower3.png","76","445.09999990463257","3","0","1","0.7,0.2,0,0.7,0,0.2,0.2,0,0.7",""
"null","","html-keyboard-response","364","564751","0.0-364.0","39RP059MEIF91SRSL0O576S7U9FBMS","A3BSK47WPPE876","33K3E8REWWHZ7MUV5T1222MGO9NX8Q","","","<img src=""img/flower3.png"" style=""width:200px;border:14px solid red;"">","null","","","","","",""
"775.8999996185303","","image-keyboard-response","365","565528","0.0-365.0","39RP059MEIF91SRSL0O576S7U9FBMS","A3BSK47WPPE876","33K3E8REWWHZ7MUV5T1222MGO9NX8Q","","","img/flower5.png","74","776.5999999046326","1","0","2","0.7,0.2,0,0.7,0,0.2,0.2,0,0.7",""
"null","","html-keyboard-response","366","565841","0.0-366.0","39RP059MEIF91SRSL0O576S7U9FBMS","A3BSK47WPPE876","33K3E8REWWHZ7MUV5T1222MGO9NX8Q","","","<img src=""img/flower5.png"" style=""width:200px;border:14px solid red;"">","null","","","","","",""
"1029.2000002861023","","image-keyboard-response","367","566871","0.0-367.0","39RP059MEIF91SRSL0O576S7U9FBMS","A3BSK47WPPE876","33K3E8REWWHZ7MUV5T1222MGO9NX8Q","","","img/flower6.png","76","1029.5999999046326","3","1","3","0.7,0.2,0,0.7,0,0.2,0.2,0,0.7",""
"null","","html-keyboard-response","368","567181","0.0-368.0","39RP059MEIF91SRSL0O576S7U9FBMS","A3BSK47WPPE876","33K3E8REWWHZ7MUV5T1222MGO9NX8Q","","","<img src=""img/flower6.png"" style=""width:200px; border:14px solid green;"">","null","","","","","",""
"979.6999998092651","","image-keyboard-response","369","568162","0.0-369.0","39RP059MEIF91SRSL0O576S7U9FBMS","A3BSK47WPPE876","33K3E8REWWHZ7MUV5T1222MGO9NX8Q","","","img/flower5.png","76","980.4000000953674","3","0","2","0.7,0.2,0,0.7,0,0.2,0.2,0,0.7",""
"null","","html-keyboard-response","370","568477","0.0-370.0","39RP059MEIF91SRSL0O576S7U9FBMS","A3BSK47WPPE876","33K3E8REWWHZ7MUV5T1222MGO9NX8Q","","","<img src=""img/flower5.png"" style=""width:200px;border:14px solid red;"">","null","","","","","",""
"723.6999998092651","","image-keyboard-response","371","569201","0.0-371.0","39RP059MEIF91SRSL0O576S7U9FBMS","A3BSK47WPPE876","33K3E8REWWHZ7MUV5T1222MGO9NX8Q","","","img/flower6.png","76","724.5","3","1","3","0.7,0.2,0,0.7,0,0.2,0.2,0,0.7",""
"null","","html-keyboard-response","372","569506","0.0-372.0","39RP059MEIF91SRSL0O576S7U9FBMS","A3BSK47WPPE876","33K3E8REWWHZ7MUV5T1222MGO9NX8Q","","","<img src=""img/flower6.png"" style=""width:200px; border:14px solid green;"">","null","","","","","",""
"560.2999997138977","","image-keyboard-response","373","570067","0.0-373.0","39RP059MEIF91SRSL0O576S7U9FBMS","A3BSK47WPPE876","33K3E8REWWHZ7MUV5T1222MGO9NX8Q","","","img/flower6.png","76","560.7000002861023","3","1","3","0.7,0.2,0,0.7,0,0.2,0.2,0,0.7",""
"null","","html-keyboard-response","374","570379","0.0-374.0","39RP059MEIF91SRSL0O576S7U9FBMS","A3BSK47WPPE876","33K3E8REWWHZ7MUV5T1222MGO9NX8Q","","","<img src=""img/flower6.png"" style=""width:200px; border:14px solid green;"">","null","","","","","",""
"633.2000002861023","","image-keyboard-response","375","571013","0.0-375.0","39RP059MEIF91SRSL0O576S7U9FBMS","A3BSK47WPPE876","33K3E8REWWHZ7MUV5T1222MGO9NX8Q","","","img/flower5.png","74","633.7000002861023","1","1","2","0.7,0.2,0,0.7,0,0.2,0.2,0,0.7",""
"null","","html-keyboard-response","376","571326","0.0-376.0","39RP059MEIF91SRSL0O576S7U9FBMS","A3BSK47WPPE876","33K3E8REWWHZ7MUV5T1222MGO9NX8Q","","","<img src=""img/flower5.png"" style=""width:200px; border:14px solid green;"">","null","","","","","",""
"806.4000000953674","","image-keyboard-response","377","572134","0.0-377.0","39RP059MEIF91SRSL0O576S7U9FBMS","A3BSK47WPPE876","33K3E8REWWHZ7MUV5T1222MGO9NX8Q","","","img/flower3.png","74","807","1","0","1","0.7,0.2,0,0.7,0,0.2,0.2,0,0.7",""
"null","","html-keyboard-response","378","572437","0.0-378.0","39RP059MEIF91SRSL0O576S7U9FBMS","A3BSK47WPPE876","33K3E8REWWHZ7MUV5T1222MGO9NX8Q","","","<img src=""img/flower3.png"" style=""width:200px;border:14px solid red;"">","null","","","","","",""
"484.69999980926514","","image-keyboard-response","379","572922","0.0-379.0","39RP059MEIF91SRSL0O576S7U9FBMS","A3BSK47WPPE876","33K3E8REWWHZ7MUV5T1222MGO9NX8Q","","","img/flower3.png","75","485.2000002861023","2","1","1","0.7,0.2,0,0.7,0,0.2,0.2,0,0.7",""
"null","","html-keyboard-response","380","573232","0.0-380.0","39RP059MEIF91SRSL0O576S7U9FBMS","A3BSK47WPPE876","33K3E8REWWHZ7MUV5T1222MGO9NX8Q","","","<img src=""img/flower3.png"" style=""width:200px; border:14px solid green;"">","null","","","","","",""
"1136","","image-keyboard-response","381","574369","0.0-381.0","39RP059MEIF91SRSL0O576S7U9FBMS","A3BSK47WPPE876","33K3E8REWWHZ7MUV5T1222MGO9NX8Q","","","img/flower5.png","74","1136.6000003814697","1","0","2","0.7,0.2,0,0.7,0,0.2,0.2,0,0.7",""
"null","","html-keyboard-response","382","574683","0.0-382.0","39RP059MEIF91SRSL0O576S7U9FBMS","A3BSK47WPPE876","33K3E8REWWHZ7MUV5T1222MGO9NX8Q","","","<img src=""img/flower5.png"" style=""width:200px;border:14px solid red;"">","null","","","","","",""
"614.1999998092651","","image-keyboard-response","383","575298","0.0-383.0","39RP059MEIF91SRSL0O576S7U9FBMS","A3BSK47WPPE876","33K3E8REWWHZ7MUV5T1222MGO9NX8Q","","","img/flower6.png","76","614.9000000953674","3","1","3","0.7,0.2,0,0.7,0,0.2,0.2,0,0.7",""
"null","","html-keyboard-response","384","575614","0.0-384.0","39RP059MEIF91SRSL0O576S7U9FBMS","A3BSK47WPPE876","33K3E8REWWHZ7MUV5T1222MGO9NX8Q","","","<img src=""img/flower6.png"" style=""width:200px; border:14px solid green;"">","null","","","","","",""
"482.69999980926514","","image-keyboard-response","385","576097","0.0-385.0","39RP059MEIF91SRSL0O576S7U9FBMS","A3BSK47WPPE876","33K3E8REWWHZ7MUV5T1222MGO9NX8Q","","","img/flower6.png","76","483.30000019073486","3","0","3","0.7,0.2,0,0.7,0,0.2,0.2,0,0.7",""
"null","","html-keyboard-response","386","576412","0.0-386.0","39RP059MEIF91SRSL0O576S7U9FBMS","A3BSK47WPPE876","33K3E8REWWHZ7MUV5T1222MGO9NX8Q","","","<img src=""img/flower6.png"" style=""width:200px;border:14px solid red;"">","null","","","","","",""
"503","","image-keyboard-response","387","576915","0.0-387.0","39RP059MEIF91SRSL0O576S7U9FBMS","A3BSK47WPPE876","33K3E8REWWHZ7MUV5T1222MGO9NX8Q","","","img/flower6.png","74","503.5","1","0","3","0.7,0.2,0,0.7,0,0.2,0.2,0,0.7",""
"null","","html-keyboard-response","388","577222","0.0-388.0","39RP059MEIF91SRSL0O576S7U9FBMS","A3BSK47WPPE876","33K3E8REWWHZ7MUV5T1222MGO9NX8Q","","","<img src=""img/flower6.png"" style=""width:200px;border:14px solid red;"">","null","","","","","",""
"765.5999999046326","","image-keyboard-response","389","577988","0.0-389.0","39RP059MEIF91SRSL0O576S7U9FBMS","A3BSK47WPPE876","33K3E8REWWHZ7MUV5T1222MGO9NX8Q","","","img/flower6.png","75","766.0999999046326","2","0","3","0.7,0.2,0,0.7,0,0.2,0.2,0,0.7",""
"null","","html-keyboard-response","390","578296","0.0-390.0","39RP059MEIF91SRSL0O576S7U9FBMS","A3BSK47WPPE876","33K3E8REWWHZ7MUV5T1222MGO9NX8Q","","","<img src=""img/flower6.png"" style=""width:200px;border:14px solid red;"">","null","","","","","",""
"1182.6999998092651","","image-keyboard-response","391","579480","0.0-391.0","39RP059MEIF91SRSL0O576S7U9FBMS","A3BSK47WPPE876","33K3E8REWWHZ7MUV5T1222MGO9NX8Q","","","img/flower5.png","76","1183.3000001907349","3","0","2","0.7,0.2,0,0.7,0,0.2,0.2,0,0.7",""
"null","","html-keyboard-response","392","579789","0.0-392.0","39RP059MEIF91SRSL0O576S7U9FBMS","A3BSK47WPPE876","33K3E8REWWHZ7MUV5T1222MGO9NX8Q","","","<img src=""img/flower5.png"" style=""width:200px;border:14px solid red;"">","null","","","","","",""
"722.0999999046326","","image-keyboard-response","393","580513","0.0-393.0","39RP059MEIF91SRSL0O576S7U9FBMS","A3BSK47WPPE876","33K3E8REWWHZ7MUV5T1222MGO9NX8Q","","","img/flower6.png","76","722.8000001907349","3","1","3","0.7,0.2,0,0.7,0,0.2,0.2,0,0.7",""
"null","","html-keyboard-response","394","580818","0.0-394.0","39RP059MEIF91SRSL0O576S7U9FBMS","A3BSK47WPPE876","33K3E8REWWHZ7MUV5T1222MGO9NX8Q","","","<img src=""img/flower6.png"" style=""width:200px; border:14px solid green;"">","null","","","","","",""
"743.7999997138977","","image-keyboard-response","395","581563","0.0-395.0","39RP059MEIF91SRSL0O576S7U9FBMS","A3BSK47WPPE876","33K3E8REWWHZ7MUV5T1222MGO9NX8Q","","","img/flower3.png","74","744.4000000953674","1","0","1","0.7,0.2,0,0.7,0,0.2,0.2,0,0.7",""
"null","","html-keyboard-response","396","581868","0.0-396.0","39RP059MEIF91SRSL0O576S7U9FBMS","A3BSK47WPPE876","33K3E8REWWHZ7MUV5T1222MGO9NX8Q","","","<img src=""img/flower3.png"" style=""width:200px;border:14px solid red;"">","null","","","","","",""
"707.8000001907349","","image-keyboard-response","397","582577","0.0-397.0","39RP059MEIF91SRSL0O576S7U9FBMS","A3BSK47WPPE876","33K3E8REWWHZ7MUV5T1222MGO9NX8Q","","","img/flower5.png","75","708.5","2","0","2","0.7,0.2,0,0.7,0,0.2,0.2,0,0.7",""
"null","","html-keyboard-response","398","582881","0.0-398.0","39RP059MEIF91SRSL0O576S7U9FBMS","A3BSK47WPPE876","33K3E8REWWHZ7MUV5T1222MGO9NX8Q","","","<img src=""img/flower5.png"" style=""width:200px;border:14px solid red;"">","null","","","","","",""
"528.9000000953674","","image-keyboard-response","399","583411","0.0-399.0","39RP059MEIF91SRSL0O576S7U9FBMS","A3BSK47WPPE876","33K3E8REWWHZ7MUV5T1222MGO9NX8Q","","","img/flower6.png","74","529.3999996185303","1","0","3","0.7,0.2,0,0.7,0,0.2,0.2,0,0.7",""
"null","","html-keyboard-response","400","583722","0.0-400.0","39RP059MEIF91SRSL0O576S7U9FBMS","A3BSK47WPPE876","33K3E8REWWHZ7MUV5T1222MGO9NX8Q","","","<img src=""img/flower6.png"" style=""width:200px;border:14px solid red;"">","null","","","","","",""
"708.5999999046326","","image-keyboard-response","401","584432","0.0-401.0","39RP059MEIF91SRSL0O576S7U9FBMS","A3BSK47WPPE876","33K3E8REWWHZ7MUV5T1222MGO9NX8Q","","","img/flower3.png","74","709.4000000953674","1","1","1","0.7,0.2,0,0.7,0,0.2,0.2,0,0.7",""
"null","","html-keyboard-response","402","584736","0.0-402.0","39RP059MEIF91SRSL0O576S7U9FBMS","A3BSK47WPPE876","33K3E8REWWHZ7MUV5T1222MGO9NX8Q","","","<img src=""img/flower3.png"" style=""width:200px; border:14px solid green;"">","null","","","","","",""
